"success","trial_type","trial_index","time_elapsed","internal_node_id","assignmentID","mturkID","hitID","view_history","rt","stimulus","key_press","reactionTime","a","r","s","cond","reward_cond","reward_cond_actual","reward_matrix_idx","responses","question_order"
"true","fullscreen","0","4016","0.0-0.0","3HL8HNGX46NK7PKE1T6WLAD8CZB9F5","A1LRJ4U04532TM","3PEG1BH7AEDCPKTV9M6N3A4F0EHKBR","","","","","","","","","","","","","",""
"","instructions","1","41573","0.0-1.0","3HL8HNGX46NK7PKE1T6WLAD8CZB9F5","A1LRJ4U04532TM","3PEG1BH7AEDCPKTV9M6N3A4F0EHKBR","[{""page_index"":0,""viewing_time"":4419.199999988079},{""page_index"":1,""viewing_time"":3782.099999964237},{""page_index"":2,""viewing_time"":6415.800000011921},{""page_index"":3,""viewing_time"":8674.800000011921},{""page_index"":4,""viewing_time"":4344.100000023842},{""page_index"":5,""viewing_time"":7323.099999964237},{""page_index"":6,""viewing_time"":2594.100000023842}]","37553.89999997616","","","","","","","","","","","",""
"","image-keyboard-response","2","42023","0.0-2.0","3HL8HNGX46NK7PKE1T6WLAD8CZB9F5","A1LRJ4U04532TM","3PEG1BH7AEDCPKTV9M6N3A4F0EHKBR","","445","img/land3.png","75","448","2","0","2","2","0.8,0.2,0.2,0.2,0.8,0.2,0.2,0.2,0.8","0.2,0.8,0.2,0.2,0.2,0.8,0.8,0.2,0.2","3","",""
"","html-keyboard-response","3","42326","0.0-3.0","3HL8HNGX46NK7PKE1T6WLAD8CZB9F5","A1LRJ4U04532TM","3PEG1BH7AEDCPKTV9M6N3A4F0EHKBR","","null","<img src=""img/land3.png"" style=""width:200px;border:14px solid red;"">","null","","","","","","","","","",""
"","image-keyboard-response","4","42626","0.0-4.0","3HL8HNGX46NK7PKE1T6WLAD8CZB9F5","A1LRJ4U04532TM","3PEG1BH7AEDCPKTV9M6N3A4F0EHKBR","","298.9000000357628","img/land3.png","76","300.0999999642372","3","1","2","2","0.8,0.2,0.2,0.2,0.8,0.2,0.2,0.2,0.8","0.2,0.8,0.2,0.2,0.2,0.8,0.8,0.2,0.2","3","",""
"","html-keyboard-response","5","42933","0.0-5.0","3HL8HNGX46NK7PKE1T6WLAD8CZB9F5","A1LRJ4U04532TM","3PEG1BH7AEDCPKTV9M6N3A4F0EHKBR","","null","<img src=""img/land3.png"" style=""width:200px; border:14px solid green;"">","null","","","","","","","","","",""
"","image-keyboard-response","6","43353","0.0-6.0","3HL8HNGX46NK7PKE1T6WLAD8CZB9F5","A1LRJ4U04532TM","3PEG1BH7AEDCPKTV9M6N3A4F0EHKBR","","418.2000000476837","img/land3.png","75","419.89999997615814","2","0","2","2","0.8,0.2,0.2,0.2,0.8,0.2,0.2,0.2,0.8","0.2,0.8,0.2,0.2,0.2,0.8,0.8,0.2,0.2","3","",""
"","html-keyboard-response","7","43661","0.0-7.0","3HL8HNGX46NK7PKE1T6WLAD8CZB9F5","A1LRJ4U04532TM","3PEG1BH7AEDCPKTV9M6N3A4F0EHKBR","","null","<img src=""img/land3.png"" style=""width:200px;border:14px solid red;"">","null","","","","","","","","","",""
"","image-keyboard-response","8","43952","0.0-8.0","3HL8HNGX46NK7PKE1T6WLAD8CZB9F5","A1LRJ4U04532TM","3PEG1BH7AEDCPKTV9M6N3A4F0EHKBR","","288.4000000357628","img/land4.png","75","290.4000000357628","2","1","1","2","0.8,0.2,0.2,0.2,0.8,0.2,0.2,0.2,0.8","0.2,0.8,0.2,0.2,0.2,0.8,0.8,0.2,0.2","3","",""
"","html-keyboard-response","9","44261","0.0-9.0","3HL8HNGX46NK7PKE1T6WLAD8CZB9F5","A1LRJ4U04532TM","3PEG1BH7AEDCPKTV9M6N3A4F0EHKBR","","null","<img src=""img/land4.png"" style=""width:200px; border:14px solid green;"">","null","","","","","","","","","",""
"","image-keyboard-response","10","44727","0.0-10.0","3HL8HNGX46NK7PKE1T6WLAD8CZB9F5","A1LRJ4U04532TM","3PEG1BH7AEDCPKTV9M6N3A4F0EHKBR","","464.5","img/land3.png","75","465.5","2","0","2","2","0.8,0.2,0.2,0.2,0.8,0.2,0.2,0.2,0.8","0.2,0.8,0.2,0.2,0.2,0.8,0.8,0.2,0.2","3","",""
"","html-keyboard-response","11","45031","0.0-11.0","3HL8HNGX46NK7PKE1T6WLAD8CZB9F5","A1LRJ4U04532TM","3PEG1BH7AEDCPKTV9M6N3A4F0EHKBR","","null","<img src=""img/land3.png"" style=""width:200px;border:14px solid red;"">","null","","","","","","","","","",""
"","image-keyboard-response","12","45384","0.0-12.0","3HL8HNGX46NK7PKE1T6WLAD8CZB9F5","A1LRJ4U04532TM","3PEG1BH7AEDCPKTV9M6N3A4F0EHKBR","","351.5","img/land4.png","74","352.60000002384186","1","0","1","2","0.8,0.2,0.2,0.2,0.8,0.2,0.2,0.2,0.8","0.2,0.8,0.2,0.2,0.2,0.8,0.8,0.2,0.2","3","",""
"","html-keyboard-response","13","45689","0.0-13.0","3HL8HNGX46NK7PKE1T6WLAD8CZB9F5","A1LRJ4U04532TM","3PEG1BH7AEDCPKTV9M6N3A4F0EHKBR","","null","<img src=""img/land4.png"" style=""width:200px;border:14px solid red;"">","null","","","","","","","","","",""
"","image-keyboard-response","14","45916","0.0-14.0","3HL8HNGX46NK7PKE1T6WLAD8CZB9F5","A1LRJ4U04532TM","3PEG1BH7AEDCPKTV9M6N3A4F0EHKBR","","225.5","img/land5.png","76","227.10000002384186","3","0","3","2","0.8,0.2,0.2,0.2,0.8,0.2,0.2,0.2,0.8","0.2,0.8,0.2,0.2,0.2,0.8,0.8,0.2,0.2","3","",""
"","html-keyboard-response","15","46225","0.0-15.0","3HL8HNGX46NK7PKE1T6WLAD8CZB9F5","A1LRJ4U04532TM","3PEG1BH7AEDCPKTV9M6N3A4F0EHKBR","","null","<img src=""img/land5.png"" style=""width:200px;border:14px solid red;"">","null","","","","","","","","","",""
"","image-keyboard-response","16","46473","0.0-16.0","3HL8HNGX46NK7PKE1T6WLAD8CZB9F5","A1LRJ4U04532TM","3PEG1BH7AEDCPKTV9M6N3A4F0EHKBR","","246.5","img/land3.png","76","247.69999998807907","3","1","2","2","0.8,0.2,0.2,0.2,0.8,0.2,0.2,0.2,0.8","0.2,0.8,0.2,0.2,0.2,0.8,0.8,0.2,0.2","3","",""
"","html-keyboard-response","17","46784","0.0-17.0","3HL8HNGX46NK7PKE1T6WLAD8CZB9F5","A1LRJ4U04532TM","3PEG1BH7AEDCPKTV9M6N3A4F0EHKBR","","null","<img src=""img/land3.png"" style=""width:200px; border:14px solid green;"">","null","","","","","","","","","",""
"","image-keyboard-response","18","46954","0.0-18.0","3HL8HNGX46NK7PKE1T6WLAD8CZB9F5","A1LRJ4U04532TM","3PEG1BH7AEDCPKTV9M6N3A4F0EHKBR","","168.69999998807907","img/land4.png","76","170","3","0","1","2","0.8,0.2,0.2,0.2,0.8,0.2,0.2,0.2,0.8","0.2,0.8,0.2,0.2,0.2,0.8,0.8,0.2,0.2","3","",""
"","html-keyboard-response","19","47265","0.0-19.0","3HL8HNGX46NK7PKE1T6WLAD8CZB9F5","A1LRJ4U04532TM","3PEG1BH7AEDCPKTV9M6N3A4F0EHKBR","","null","<img src=""img/land4.png"" style=""width:200px;border:14px solid red;"">","null","","","","","","","","","",""
"","image-keyboard-response","20","47395","0.0-20.0","3HL8HNGX46NK7PKE1T6WLAD8CZB9F5","A1LRJ4U04532TM","3PEG1BH7AEDCPKTV9M6N3A4F0EHKBR","","128.19999998807907","img/land5.png","75","129.5999999642372","2","0","3","2","0.8,0.2,0.2,0.2,0.8,0.2,0.2,0.2,0.8","0.2,0.8,0.2,0.2,0.2,0.8,0.8,0.2,0.2","3","",""
"","html-keyboard-response","21","47700","0.0-21.0","3HL8HNGX46NK7PKE1T6WLAD8CZB9F5","A1LRJ4U04532TM","3PEG1BH7AEDCPKTV9M6N3A4F0EHKBR","","null","<img src=""img/land5.png"" style=""width:200px;border:14px solid red;"">","null","","","","","","","","","",""
"","image-keyboard-response","22","47945","0.0-22.0","3HL8HNGX46NK7PKE1T6WLAD8CZB9F5","A1LRJ4U04532TM","3PEG1BH7AEDCPKTV9M6N3A4F0EHKBR","","243.30000001192093","img/land4.png","74","244.69999998807907","1","1","1","2","0.8,0.2,0.2,0.2,0.8,0.2,0.2,0.2,0.8","0.2,0.8,0.2,0.2,0.2,0.8,0.8,0.2,0.2","3","",""
"","html-keyboard-response","23","48257","0.0-23.0","3HL8HNGX46NK7PKE1T6WLAD8CZB9F5","A1LRJ4U04532TM","3PEG1BH7AEDCPKTV9M6N3A4F0EHKBR","","null","<img src=""img/land4.png"" style=""width:200px; border:14px solid green;"">","null","","","","","","","","","",""
"","image-keyboard-response","24","48454","0.0-24.0","3HL8HNGX46NK7PKE1T6WLAD8CZB9F5","A1LRJ4U04532TM","3PEG1BH7AEDCPKTV9M6N3A4F0EHKBR","","193.5999999642372","img/land4.png","74","196.60000002384186","1","0","1","2","0.8,0.2,0.2,0.2,0.8,0.2,0.2,0.2,0.8","0.2,0.8,0.2,0.2,0.2,0.8,0.8,0.2,0.2","3","",""
"","html-keyboard-response","25","48758","0.0-25.0","3HL8HNGX46NK7PKE1T6WLAD8CZB9F5","A1LRJ4U04532TM","3PEG1BH7AEDCPKTV9M6N3A4F0EHKBR","","null","<img src=""img/land4.png"" style=""width:200px;border:14px solid red;"">","null","","","","","","","","","",""
"","image-keyboard-response","26","48876","0.0-26.0","3HL8HNGX46NK7PKE1T6WLAD8CZB9F5","A1LRJ4U04532TM","3PEG1BH7AEDCPKTV9M6N3A4F0EHKBR","","116.80000001192093","img/land4.png","74","118","1","0","1","2","0.8,0.2,0.2,0.2,0.8,0.2,0.2,0.2,0.8","0.2,0.8,0.2,0.2,0.2,0.8,0.8,0.2,0.2","3","",""
"","html-keyboard-response","27","49185","0.0-27.0","3HL8HNGX46NK7PKE1T6WLAD8CZB9F5","A1LRJ4U04532TM","3PEG1BH7AEDCPKTV9M6N3A4F0EHKBR","","null","<img src=""img/land4.png"" style=""width:200px;border:14px solid red;"">","null","","","","","","","","","",""
"","image-keyboard-response","28","49297","0.0-28.0","3HL8HNGX46NK7PKE1T6WLAD8CZB9F5","A1LRJ4U04532TM","3PEG1BH7AEDCPKTV9M6N3A4F0EHKBR","","110.80000001192093","img/land5.png","74","112","1","1","3","2","0.8,0.2,0.2,0.2,0.8,0.2,0.2,0.2,0.8","0.2,0.8,0.2,0.2,0.2,0.8,0.8,0.2,0.2","3","",""
"","html-keyboard-response","29","49614","0.0-29.0","3HL8HNGX46NK7PKE1T6WLAD8CZB9F5","A1LRJ4U04532TM","3PEG1BH7AEDCPKTV9M6N3A4F0EHKBR","","null","<img src=""img/land5.png"" style=""width:200px; border:14px solid green;"">","null","","","","","","","","","",""
"","image-keyboard-response","30","49702","0.0-30.0","3HL8HNGX46NK7PKE1T6WLAD8CZB9F5","A1LRJ4U04532TM","3PEG1BH7AEDCPKTV9M6N3A4F0EHKBR","","86.5","img/land4.png","75","88","2","0","1","2","0.8,0.2,0.2,0.2,0.8,0.2,0.2,0.2,0.8","0.2,0.8,0.2,0.2,0.2,0.8,0.8,0.2,0.2","3","",""
"","html-keyboard-response","31","50021","0.0-31.0","3HL8HNGX46NK7PKE1T6WLAD8CZB9F5","A1LRJ4U04532TM","3PEG1BH7AEDCPKTV9M6N3A4F0EHKBR","","null","<img src=""img/land4.png"" style=""width:200px;border:14px solid red;"">","null","","","","","","","","","",""
"","image-keyboard-response","32","50378","0.0-32.0","3HL8HNGX46NK7PKE1T6WLAD8CZB9F5","A1LRJ4U04532TM","3PEG1BH7AEDCPKTV9M6N3A4F0EHKBR","","355.60000002384186","img/land4.png","74","356.89999997615814","1","0","1","2","0.8,0.2,0.2,0.2,0.8,0.2,0.2,0.2,0.8","0.2,0.8,0.2,0.2,0.2,0.8,0.8,0.2,0.2","3","",""
"","html-keyboard-response","33","50696","0.0-33.0","3HL8HNGX46NK7PKE1T6WLAD8CZB9F5","A1LRJ4U04532TM","3PEG1BH7AEDCPKTV9M6N3A4F0EHKBR","","null","<img src=""img/land4.png"" style=""width:200px;border:14px solid red;"">","null","","","","","","","","","",""
"","image-keyboard-response","34","50799","0.0-34.0","3HL8HNGX46NK7PKE1T6WLAD8CZB9F5","A1LRJ4U04532TM","3PEG1BH7AEDCPKTV9M6N3A4F0EHKBR","","101.19999998807907","img/land4.png","74","102.80000001192093","1","0","1","2","0.8,0.2,0.2,0.2,0.8,0.2,0.2,0.2,0.8","0.2,0.8,0.2,0.2,0.2,0.8,0.8,0.2,0.2","3","",""
"","html-keyboard-response","35","51111","0.0-35.0","3HL8HNGX46NK7PKE1T6WLAD8CZB9F5","A1LRJ4U04532TM","3PEG1BH7AEDCPKTV9M6N3A4F0EHKBR","","null","<img src=""img/land4.png"" style=""width:200px;border:14px solid red;"">","null","","","","","","","","","",""
"","image-keyboard-response","36","51293","0.0-36.0","3HL8HNGX46NK7PKE1T6WLAD8CZB9F5","A1LRJ4U04532TM","3PEG1BH7AEDCPKTV9M6N3A4F0EHKBR","","180.80000001192093","img/land4.png","76","182.0999999642372","3","0","1","2","0.8,0.2,0.2,0.2,0.8,0.2,0.2,0.2,0.8","0.2,0.8,0.2,0.2,0.2,0.8,0.8,0.2,0.2","3","",""
"","html-keyboard-response","37","51609","0.0-37.0","3HL8HNGX46NK7PKE1T6WLAD8CZB9F5","A1LRJ4U04532TM","3PEG1BH7AEDCPKTV9M6N3A4F0EHKBR","","null","<img src=""img/land4.png"" style=""width:200px;border:14px solid red;"">","null","","","","","","","","","",""
"","image-keyboard-response","38","52402","0.0-38.0","3HL8HNGX46NK7PKE1T6WLAD8CZB9F5","A1LRJ4U04532TM","3PEG1BH7AEDCPKTV9M6N3A4F0EHKBR","","791.5999999642372","img/land5.png","75","792.8000000119209","2","0","3","2","0.8,0.2,0.2,0.2,0.8,0.2,0.2,0.2,0.8","0.2,0.8,0.2,0.2,0.2,0.8,0.8,0.2,0.2","3","",""
"","html-keyboard-response","39","52706","0.0-39.0","3HL8HNGX46NK7PKE1T6WLAD8CZB9F5","A1LRJ4U04532TM","3PEG1BH7AEDCPKTV9M6N3A4F0EHKBR","","null","<img src=""img/land5.png"" style=""width:200px;border:14px solid red;"">","null","","","","","","","","","",""
"","image-keyboard-response","40","52830","0.0-40.0","3HL8HNGX46NK7PKE1T6WLAD8CZB9F5","A1LRJ4U04532TM","3PEG1BH7AEDCPKTV9M6N3A4F0EHKBR","","122.5","img/land4.png","76","123.69999998807907","3","0","1","2","0.8,0.2,0.2,0.2,0.8,0.2,0.2,0.2,0.8","0.2,0.8,0.2,0.2,0.2,0.8,0.8,0.2,0.2","3","",""
"","html-keyboard-response","41","53133","0.0-41.0","3HL8HNGX46NK7PKE1T6WLAD8CZB9F5","A1LRJ4U04532TM","3PEG1BH7AEDCPKTV9M6N3A4F0EHKBR","","null","<img src=""img/land4.png"" style=""width:200px;border:14px solid red;"">","null","","","","","","","","","",""
"","image-keyboard-response","42","53341","0.0-42.0","3HL8HNGX46NK7PKE1T6WLAD8CZB9F5","A1LRJ4U04532TM","3PEG1BH7AEDCPKTV9M6N3A4F0EHKBR","","205.19999998807907","img/land4.png","76","207.60000002384186","3","1","1","2","0.8,0.2,0.2,0.2,0.8,0.2,0.2,0.2,0.8","0.2,0.8,0.2,0.2,0.2,0.8,0.8,0.2,0.2","3","",""
"","html-keyboard-response","43","53653","0.0-43.0","3HL8HNGX46NK7PKE1T6WLAD8CZB9F5","A1LRJ4U04532TM","3PEG1BH7AEDCPKTV9M6N3A4F0EHKBR","","null","<img src=""img/land4.png"" style=""width:200px; border:14px solid green;"">","null","","","","","","","","","",""
"","image-keyboard-response","44","53823","0.0-44.0","3HL8HNGX46NK7PKE1T6WLAD8CZB9F5","A1LRJ4U04532TM","3PEG1BH7AEDCPKTV9M6N3A4F0EHKBR","","168.69999998807907","img/land4.png","76","169.9000000357628","3","0","1","2","0.8,0.2,0.2,0.2,0.8,0.2,0.2,0.2,0.8","0.2,0.8,0.2,0.2,0.2,0.8,0.8,0.2,0.2","3","",""
"","html-keyboard-response","45","54137","0.0-45.0","3HL8HNGX46NK7PKE1T6WLAD8CZB9F5","A1LRJ4U04532TM","3PEG1BH7AEDCPKTV9M6N3A4F0EHKBR","","null","<img src=""img/land4.png"" style=""width:200px;border:14px solid red;"">","null","","","","","","","","","",""
"","image-keyboard-response","46","54274","0.0-46.0","3HL8HNGX46NK7PKE1T6WLAD8CZB9F5","A1LRJ4U04532TM","3PEG1BH7AEDCPKTV9M6N3A4F0EHKBR","","134.5","img/land4.png","76","136.19999998807907","3","0","1","2","0.8,0.2,0.2,0.2,0.8,0.2,0.2,0.2,0.8","0.2,0.8,0.2,0.2,0.2,0.8,0.8,0.2,0.2","3","",""
"","html-keyboard-response","47","54579","0.0-47.0","3HL8HNGX46NK7PKE1T6WLAD8CZB9F5","A1LRJ4U04532TM","3PEG1BH7AEDCPKTV9M6N3A4F0EHKBR","","null","<img src=""img/land4.png"" style=""width:200px;border:14px solid red;"">","null","","","","","","","","","",""
"","image-keyboard-response","48","54809","0.0-48.0","3HL8HNGX46NK7PKE1T6WLAD8CZB9F5","A1LRJ4U04532TM","3PEG1BH7AEDCPKTV9M6N3A4F0EHKBR","","227.69999998807907","img/land4.png","76","229.0999999642372","3","0","1","2","0.8,0.2,0.2,0.2,0.8,0.2,0.2,0.2,0.8","0.2,0.8,0.2,0.2,0.2,0.8,0.8,0.2,0.2","3","",""
"","html-keyboard-response","49","55115","0.0-49.0","3HL8HNGX46NK7PKE1T6WLAD8CZB9F5","A1LRJ4U04532TM","3PEG1BH7AEDCPKTV9M6N3A4F0EHKBR","","null","<img src=""img/land4.png"" style=""width:200px;border:14px solid red;"">","null","","","","","","","","","",""
"","image-keyboard-response","50","55196","0.0-50.0","3HL8HNGX46NK7PKE1T6WLAD8CZB9F5","A1LRJ4U04532TM","3PEG1BH7AEDCPKTV9M6N3A4F0EHKBR","","79.40000003576279","img/land4.png","76","80.69999998807907","3","0","1","2","0.8,0.2,0.2,0.2,0.8,0.2,0.2,0.2,0.8","0.2,0.8,0.2,0.2,0.2,0.8,0.8,0.2,0.2","3","",""
"","html-keyboard-response","51","55498","0.0-51.0","3HL8HNGX46NK7PKE1T6WLAD8CZB9F5","A1LRJ4U04532TM","3PEG1BH7AEDCPKTV9M6N3A4F0EHKBR","","null","<img src=""img/land4.png"" style=""width:200px;border:14px solid red;"">","null","","","","","","","","","",""
"","image-keyboard-response","52","55969","0.0-52.0","3HL8HNGX46NK7PKE1T6WLAD8CZB9F5","A1LRJ4U04532TM","3PEG1BH7AEDCPKTV9M6N3A4F0EHKBR","","469.39999997615814","img/land4.png","75","470.60000002384186","2","1","1","2","0.8,0.2,0.2,0.2,0.8,0.2,0.2,0.2,0.8","0.2,0.8,0.2,0.2,0.2,0.8,0.8,0.2,0.2","3","",""
"","html-keyboard-response","53","56273","0.0-53.0","3HL8HNGX46NK7PKE1T6WLAD8CZB9F5","A1LRJ4U04532TM","3PEG1BH7AEDCPKTV9M6N3A4F0EHKBR","","null","<img src=""img/land4.png"" style=""width:200px; border:14px solid green;"">","null","","","","","","","","","",""
"","image-keyboard-response","54","56365","0.0-54.0","3HL8HNGX46NK7PKE1T6WLAD8CZB9F5","A1LRJ4U04532TM","3PEG1BH7AEDCPKTV9M6N3A4F0EHKBR","","91.09999996423721","img/land4.png","75","92.59999996423721","2","1","1","2","0.8,0.2,0.2,0.2,0.8,0.2,0.2,0.2,0.8","0.2,0.8,0.2,0.2,0.2,0.8,0.8,0.2,0.2","3","",""
"","html-keyboard-response","55","56672","0.0-55.0","3HL8HNGX46NK7PKE1T6WLAD8CZB9F5","A1LRJ4U04532TM","3PEG1BH7AEDCPKTV9M6N3A4F0EHKBR","","null","<img src=""img/land4.png"" style=""width:200px; border:14px solid green;"">","null","","","","","","","","","",""
"","image-keyboard-response","56","56763","0.0-56.0","3HL8HNGX46NK7PKE1T6WLAD8CZB9F5","A1LRJ4U04532TM","3PEG1BH7AEDCPKTV9M6N3A4F0EHKBR","","88.89999997615814","img/land5.png","75","90.5","2","0","3","2","0.8,0.2,0.2,0.2,0.8,0.2,0.2,0.2,0.8","0.2,0.8,0.2,0.2,0.2,0.8,0.8,0.2,0.2","3","",""
"","html-keyboard-response","57","57073","0.0-57.0","3HL8HNGX46NK7PKE1T6WLAD8CZB9F5","A1LRJ4U04532TM","3PEG1BH7AEDCPKTV9M6N3A4F0EHKBR","","null","<img src=""img/land5.png"" style=""width:200px;border:14px solid red;"">","null","","","","","","","","","",""
"","image-keyboard-response","58","57253","0.0-58.0","3HL8HNGX46NK7PKE1T6WLAD8CZB9F5","A1LRJ4U04532TM","3PEG1BH7AEDCPKTV9M6N3A4F0EHKBR","","178.69999998807907","img/land4.png","74","179.9000000357628","1","1","1","2","0.8,0.2,0.2,0.2,0.8,0.2,0.2,0.2,0.8","0.2,0.8,0.2,0.2,0.2,0.8,0.8,0.2,0.2","3","",""
"","html-keyboard-response","59","57559","0.0-59.0","3HL8HNGX46NK7PKE1T6WLAD8CZB9F5","A1LRJ4U04532TM","3PEG1BH7AEDCPKTV9M6N3A4F0EHKBR","","null","<img src=""img/land4.png"" style=""width:200px; border:14px solid green;"">","null","","","","","","","","","",""
"","image-keyboard-response","60","57714","0.0-60.0","3HL8HNGX46NK7PKE1T6WLAD8CZB9F5","A1LRJ4U04532TM","3PEG1BH7AEDCPKTV9M6N3A4F0EHKBR","","153.4000000357628","img/land5.png","74","154.60000002384186","1","1","3","2","0.8,0.2,0.2,0.2,0.8,0.2,0.2,0.2,0.8","0.2,0.8,0.2,0.2,0.2,0.8,0.8,0.2,0.2","3","",""
"","html-keyboard-response","61","58018","0.0-61.0","3HL8HNGX46NK7PKE1T6WLAD8CZB9F5","A1LRJ4U04532TM","3PEG1BH7AEDCPKTV9M6N3A4F0EHKBR","","null","<img src=""img/land5.png"" style=""width:200px; border:14px solid green;"">","null","","","","","","","","","",""
"","image-keyboard-response","62","58305","0.0-62.0","3HL8HNGX46NK7PKE1T6WLAD8CZB9F5","A1LRJ4U04532TM","3PEG1BH7AEDCPKTV9M6N3A4F0EHKBR","","285.89999997615814","img/land5.png","74","287","1","1","3","2","0.8,0.2,0.2,0.2,0.8,0.2,0.2,0.2,0.8","0.2,0.8,0.2,0.2,0.2,0.8,0.8,0.2,0.2","3","",""
"","html-keyboard-response","63","58620","0.0-63.0","3HL8HNGX46NK7PKE1T6WLAD8CZB9F5","A1LRJ4U04532TM","3PEG1BH7AEDCPKTV9M6N3A4F0EHKBR","","null","<img src=""img/land5.png"" style=""width:200px; border:14px solid green;"">","null","","","","","","","","","",""
"","image-keyboard-response","64","58678","0.0-64.0","3HL8HNGX46NK7PKE1T6WLAD8CZB9F5","A1LRJ4U04532TM","3PEG1BH7AEDCPKTV9M6N3A4F0EHKBR","","57.5","img/land4.png","74","58.30000001192093","1","0","1","2","0.8,0.2,0.2,0.2,0.8,0.2,0.2,0.2,0.8","0.2,0.8,0.2,0.2,0.2,0.8,0.8,0.2,0.2","3","",""
"","html-keyboard-response","65","58989","0.0-65.0","3HL8HNGX46NK7PKE1T6WLAD8CZB9F5","A1LRJ4U04532TM","3PEG1BH7AEDCPKTV9M6N3A4F0EHKBR","","null","<img src=""img/land4.png"" style=""width:200px;border:14px solid red;"">","null","","","","","","","","","",""
"","image-keyboard-response","66","59061","0.0-66.0","3HL8HNGX46NK7PKE1T6WLAD8CZB9F5","A1LRJ4U04532TM","3PEG1BH7AEDCPKTV9M6N3A4F0EHKBR","","70.30000001192093","img/land4.png","74","72","1","0","1","2","0.8,0.2,0.2,0.2,0.8,0.2,0.2,0.2,0.8","0.2,0.8,0.2,0.2,0.2,0.8,0.8,0.2,0.2","3","",""
"","html-keyboard-response","67","59366","0.0-67.0","3HL8HNGX46NK7PKE1T6WLAD8CZB9F5","A1LRJ4U04532TM","3PEG1BH7AEDCPKTV9M6N3A4F0EHKBR","","null","<img src=""img/land4.png"" style=""width:200px;border:14px solid red;"">","null","","","","","","","","","",""
"","image-keyboard-response","68","59529","0.0-68.0","3HL8HNGX46NK7PKE1T6WLAD8CZB9F5","A1LRJ4U04532TM","3PEG1BH7AEDCPKTV9M6N3A4F0EHKBR","","161.39999997615814","img/land4.png","76","162.69999998807907","3","0","1","2","0.8,0.2,0.2,0.2,0.8,0.2,0.2,0.2,0.8","0.2,0.8,0.2,0.2,0.2,0.8,0.8,0.2,0.2","3","",""
"","html-keyboard-response","69","59843","0.0-69.0","3HL8HNGX46NK7PKE1T6WLAD8CZB9F5","A1LRJ4U04532TM","3PEG1BH7AEDCPKTV9M6N3A4F0EHKBR","","null","<img src=""img/land4.png"" style=""width:200px;border:14px solid red;"">","null","","","","","","","","","",""
"","image-keyboard-response","70","59851","0.0-70.0","3HL8HNGX46NK7PKE1T6WLAD8CZB9F5","A1LRJ4U04532TM","3PEG1BH7AEDCPKTV9M6N3A4F0EHKBR","","6.900000035762787","img/land4.png","76","8.5","3","0","1","2","0.8,0.2,0.2,0.2,0.8,0.2,0.2,0.2,0.8","0.2,0.8,0.2,0.2,0.2,0.8,0.8,0.2,0.2","3","",""
"","html-keyboard-response","71","60154","0.0-71.0","3HL8HNGX46NK7PKE1T6WLAD8CZB9F5","A1LRJ4U04532TM","3PEG1BH7AEDCPKTV9M6N3A4F0EHKBR","","null","<img src=""img/land4.png"" style=""width:200px;border:14px solid red;"">","null","","","","","","","","","",""
"","image-keyboard-response","72","60304","0.0-72.0","3HL8HNGX46NK7PKE1T6WLAD8CZB9F5","A1LRJ4U04532TM","3PEG1BH7AEDCPKTV9M6N3A4F0EHKBR","","149.80000001192093","img/land4.png","76","150.4000000357628","3","1","1","2","0.8,0.2,0.2,0.2,0.8,0.2,0.2,0.2,0.8","0.2,0.8,0.2,0.2,0.2,0.8,0.8,0.2,0.2","3","",""
"","html-keyboard-response","73","60613","0.0-73.0","3HL8HNGX46NK7PKE1T6WLAD8CZB9F5","A1LRJ4U04532TM","3PEG1BH7AEDCPKTV9M6N3A4F0EHKBR","","null","<img src=""img/land4.png"" style=""width:200px; border:14px solid green;"">","null","","","","","","","","","",""
"","image-keyboard-response","74","60620","0.0-74.0","3HL8HNGX46NK7PKE1T6WLAD8CZB9F5","A1LRJ4U04532TM","3PEG1BH7AEDCPKTV9M6N3A4F0EHKBR","","5.699999988079071","img/land5.png","75","6.899999976158142","2","0","3","2","0.8,0.2,0.2,0.2,0.8,0.2,0.2,0.2,0.8","0.2,0.8,0.2,0.2,0.2,0.8,0.8,0.2,0.2","3","",""
"","html-keyboard-response","75","60924","0.0-75.0","3HL8HNGX46NK7PKE1T6WLAD8CZB9F5","A1LRJ4U04532TM","3PEG1BH7AEDCPKTV9M6N3A4F0EHKBR","","null","<img src=""img/land5.png"" style=""width:200px;border:14px solid red;"">","null","","","","","","","","","",""
"","image-keyboard-response","76","61153","0.0-76.0","3HL8HNGX46NK7PKE1T6WLAD8CZB9F5","A1LRJ4U04532TM","3PEG1BH7AEDCPKTV9M6N3A4F0EHKBR","","227.80000001192093","img/land4.png","75","229.10000002384186","2","1","1","2","0.8,0.2,0.2,0.2,0.8,0.2,0.2,0.2,0.8","0.2,0.8,0.2,0.2,0.2,0.8,0.8,0.2,0.2","3","",""
"","html-keyboard-response","77","61462","0.0-77.0","3HL8HNGX46NK7PKE1T6WLAD8CZB9F5","A1LRJ4U04532TM","3PEG1BH7AEDCPKTV9M6N3A4F0EHKBR","","null","<img src=""img/land4.png"" style=""width:200px; border:14px solid green;"">","null","","","","","","","","","",""
"","image-keyboard-response","78","61714","0.0-78.0","3HL8HNGX46NK7PKE1T6WLAD8CZB9F5","A1LRJ4U04532TM","3PEG1BH7AEDCPKTV9M6N3A4F0EHKBR","","250.30000001192093","img/land4.png","76","251.9000000357628","3","0","1","2","0.8,0.2,0.2,0.2,0.8,0.2,0.2,0.2,0.8","0.2,0.8,0.2,0.2,0.2,0.8,0.8,0.2,0.2","3","",""
"","html-keyboard-response","79","62020","0.0-79.0","3HL8HNGX46NK7PKE1T6WLAD8CZB9F5","A1LRJ4U04532TM","3PEG1BH7AEDCPKTV9M6N3A4F0EHKBR","","null","<img src=""img/land4.png"" style=""width:200px;border:14px solid red;"">","null","","","","","","","","","",""
"","image-keyboard-response","80","62230","0.0-80.0","3HL8HNGX46NK7PKE1T6WLAD8CZB9F5","A1LRJ4U04532TM","3PEG1BH7AEDCPKTV9M6N3A4F0EHKBR","","208.19999998807907","img/land4.png","76","209.69999998807907","3","0","1","2","0.8,0.2,0.2,0.2,0.8,0.2,0.2,0.2,0.8","0.2,0.8,0.2,0.2,0.2,0.8,0.8,0.2,0.2","3","",""
"","html-keyboard-response","81","62545","0.0-81.0","3HL8HNGX46NK7PKE1T6WLAD8CZB9F5","A1LRJ4U04532TM","3PEG1BH7AEDCPKTV9M6N3A4F0EHKBR","","null","<img src=""img/land4.png"" style=""width:200px;border:14px solid red;"">","null","","","","","","","","","",""
"","image-keyboard-response","82","62770","0.0-82.0","3HL8HNGX46NK7PKE1T6WLAD8CZB9F5","A1LRJ4U04532TM","3PEG1BH7AEDCPKTV9M6N3A4F0EHKBR","","223.30000001192093","img/land5.png","76","224.4000000357628","3","0","3","2","0.8,0.2,0.2,0.2,0.8,0.2,0.2,0.2,0.8","0.2,0.8,0.2,0.2,0.2,0.8,0.8,0.2,0.2","3","",""
"","html-keyboard-response","83","63079","0.0-83.0","3HL8HNGX46NK7PKE1T6WLAD8CZB9F5","A1LRJ4U04532TM","3PEG1BH7AEDCPKTV9M6N3A4F0EHKBR","","null","<img src=""img/land5.png"" style=""width:200px;border:14px solid red;"">","null","","","","","","","","","",""
"","image-keyboard-response","84","63224","0.0-84.0","3HL8HNGX46NK7PKE1T6WLAD8CZB9F5","A1LRJ4U04532TM","3PEG1BH7AEDCPKTV9M6N3A4F0EHKBR","","143.5","img/land4.png","75","144.80000001192093","2","0","1","2","0.8,0.2,0.2,0.2,0.8,0.2,0.2,0.2,0.8","0.2,0.8,0.2,0.2,0.2,0.8,0.8,0.2,0.2","3","",""
"","html-keyboard-response","85","63542","0.0-85.0","3HL8HNGX46NK7PKE1T6WLAD8CZB9F5","A1LRJ4U04532TM","3PEG1BH7AEDCPKTV9M6N3A4F0EHKBR","","null","<img src=""img/land4.png"" style=""width:200px;border:14px solid red;"">","null","","","","","","","","","",""
"","image-keyboard-response","86","63741","0.0-86.0","3HL8HNGX46NK7PKE1T6WLAD8CZB9F5","A1LRJ4U04532TM","3PEG1BH7AEDCPKTV9M6N3A4F0EHKBR","","197","img/land5.png","75","199","2","0","3","2","0.8,0.2,0.2,0.2,0.8,0.2,0.2,0.2,0.8","0.2,0.8,0.2,0.2,0.2,0.8,0.8,0.2,0.2","3","",""
"","html-keyboard-response","87","64051","0.0-87.0","3HL8HNGX46NK7PKE1T6WLAD8CZB9F5","A1LRJ4U04532TM","3PEG1BH7AEDCPKTV9M6N3A4F0EHKBR","","null","<img src=""img/land5.png"" style=""width:200px;border:14px solid red;"">","null","","","","","","","","","",""
"","image-keyboard-response","88","64969","0.0-88.0","3HL8HNGX46NK7PKE1T6WLAD8CZB9F5","A1LRJ4U04532TM","3PEG1BH7AEDCPKTV9M6N3A4F0EHKBR","","915.9000000357628","img/land3.png","75","917.6999999880791","2","0","2","2","0.8,0.2,0.2,0.2,0.8,0.2,0.2,0.2,0.8","0.2,0.8,0.2,0.2,0.2,0.8,0.8,0.2,0.2","3","",""
"","html-keyboard-response","89","65276","0.0-89.0","3HL8HNGX46NK7PKE1T6WLAD8CZB9F5","A1LRJ4U04532TM","3PEG1BH7AEDCPKTV9M6N3A4F0EHKBR","","null","<img src=""img/land3.png"" style=""width:200px;border:14px solid red;"">","null","","","","","","","","","",""
"","image-keyboard-response","90","65483","0.0-90.0","3HL8HNGX46NK7PKE1T6WLAD8CZB9F5","A1LRJ4U04532TM","3PEG1BH7AEDCPKTV9M6N3A4F0EHKBR","","204.89999997615814","img/land4.png","74","206.29999995231628","1","0","1","2","0.8,0.2,0.2,0.2,0.8,0.2,0.2,0.2,0.8","0.2,0.8,0.2,0.2,0.2,0.8,0.8,0.2,0.2","3","",""
"","html-keyboard-response","91","65799","0.0-91.0","3HL8HNGX46NK7PKE1T6WLAD8CZB9F5","A1LRJ4U04532TM","3PEG1BH7AEDCPKTV9M6N3A4F0EHKBR","","null","<img src=""img/land4.png"" style=""width:200px;border:14px solid red;"">","null","","","","","","","","","",""
"","image-keyboard-response","92","65934","0.0-92.0","3HL8HNGX46NK7PKE1T6WLAD8CZB9F5","A1LRJ4U04532TM","3PEG1BH7AEDCPKTV9M6N3A4F0EHKBR","","133.69999998807907","img/land4.png","75","135.19999998807907","2","1","1","2","0.8,0.2,0.2,0.2,0.8,0.2,0.2,0.2,0.8","0.2,0.8,0.2,0.2,0.2,0.8,0.8,0.2,0.2","3","",""
"","html-keyboard-response","93","66240","0.0-93.0","3HL8HNGX46NK7PKE1T6WLAD8CZB9F5","A1LRJ4U04532TM","3PEG1BH7AEDCPKTV9M6N3A4F0EHKBR","","null","<img src=""img/land4.png"" style=""width:200px; border:14px solid green;"">","null","","","","","","","","","",""
"","image-keyboard-response","94","66278","0.0-94.0","3HL8HNGX46NK7PKE1T6WLAD8CZB9F5","A1LRJ4U04532TM","3PEG1BH7AEDCPKTV9M6N3A4F0EHKBR","","34.19999998807907","img/land4.png","76","38","3","0","1","2","0.8,0.2,0.2,0.2,0.8,0.2,0.2,0.2,0.8","0.2,0.8,0.2,0.2,0.2,0.8,0.8,0.2,0.2","3","",""
"","html-keyboard-response","95","66588","0.0-95.0","3HL8HNGX46NK7PKE1T6WLAD8CZB9F5","A1LRJ4U04532TM","3PEG1BH7AEDCPKTV9M6N3A4F0EHKBR","","null","<img src=""img/land4.png"" style=""width:200px;border:14px solid red;"">","null","","","","","","","","","",""
"","image-keyboard-response","96","66633","0.0-96.0","3HL8HNGX46NK7PKE1T6WLAD8CZB9F5","A1LRJ4U04532TM","3PEG1BH7AEDCPKTV9M6N3A4F0EHKBR","","43.40000003576279","img/land5.png","76","44.5","3","0","3","2","0.8,0.2,0.2,0.2,0.8,0.2,0.2,0.2,0.8","0.2,0.8,0.2,0.2,0.2,0.8,0.8,0.2,0.2","3","",""
"","html-keyboard-response","97","66941","0.0-97.0","3HL8HNGX46NK7PKE1T6WLAD8CZB9F5","A1LRJ4U04532TM","3PEG1BH7AEDCPKTV9M6N3A4F0EHKBR","","null","<img src=""img/land5.png"" style=""width:200px;border:14px solid red;"">","null","","","","","","","","","",""
"","image-keyboard-response","98","67289","0.0-98.0","3HL8HNGX46NK7PKE1T6WLAD8CZB9F5","A1LRJ4U04532TM","3PEG1BH7AEDCPKTV9M6N3A4F0EHKBR","","345.4000000357628","img/land4.png","76","347.39999997615814","3","1","1","2","0.8,0.2,0.2,0.2,0.8,0.2,0.2,0.2,0.8","0.2,0.8,0.2,0.2,0.2,0.8,0.8,0.2,0.2","3","",""
"","html-keyboard-response","99","67596","0.0-99.0","3HL8HNGX46NK7PKE1T6WLAD8CZB9F5","A1LRJ4U04532TM","3PEG1BH7AEDCPKTV9M6N3A4F0EHKBR","","null","<img src=""img/land4.png"" style=""width:200px; border:14px solid green;"">","null","","","","","","","","","",""
"","image-keyboard-response","100","67750","0.0-100.0","3HL8HNGX46NK7PKE1T6WLAD8CZB9F5","A1LRJ4U04532TM","3PEG1BH7AEDCPKTV9M6N3A4F0EHKBR","","153.60000002384186","img/land4.png","75","154.60000002384186","2","1","1","2","0.8,0.2,0.2,0.2,0.8,0.2,0.2,0.2,0.8","0.2,0.8,0.2,0.2,0.2,0.8,0.8,0.2,0.2","3","",""
"","html-keyboard-response","101","68053","0.0-101.0","3HL8HNGX46NK7PKE1T6WLAD8CZB9F5","A1LRJ4U04532TM","3PEG1BH7AEDCPKTV9M6N3A4F0EHKBR","","null","<img src=""img/land4.png"" style=""width:200px; border:14px solid green;"">","null","","","","","","","","","",""
"","image-keyboard-response","102","68592","0.0-102.0","3HL8HNGX46NK7PKE1T6WLAD8CZB9F5","A1LRJ4U04532TM","3PEG1BH7AEDCPKTV9M6N3A4F0EHKBR","","536.5","img/land3.png","75","538.3000000119209","2","0","2","2","0.8,0.2,0.2,0.2,0.8,0.2,0.2,0.2,0.8","0.2,0.8,0.2,0.2,0.2,0.8,0.8,0.2,0.2","3","",""
"","html-keyboard-response","103","68900","0.0-103.0","3HL8HNGX46NK7PKE1T6WLAD8CZB9F5","A1LRJ4U04532TM","3PEG1BH7AEDCPKTV9M6N3A4F0EHKBR","","null","<img src=""img/land3.png"" style=""width:200px;border:14px solid red;"">","null","","","","","","","","","",""
"","image-keyboard-response","104","68978","0.0-104.0","3HL8HNGX46NK7PKE1T6WLAD8CZB9F5","A1LRJ4U04532TM","3PEG1BH7AEDCPKTV9M6N3A4F0EHKBR","","74.5","img/land4.png","75","75.59999996423721","2","1","1","2","0.8,0.2,0.2,0.2,0.8,0.2,0.2,0.2,0.8","0.2,0.8,0.2,0.2,0.2,0.8,0.8,0.2,0.2","3","",""
"","html-keyboard-response","105","69282","0.0-105.0","3HL8HNGX46NK7PKE1T6WLAD8CZB9F5","A1LRJ4U04532TM","3PEG1BH7AEDCPKTV9M6N3A4F0EHKBR","","null","<img src=""img/land4.png"" style=""width:200px; border:14px solid green;"">","null","","","","","","","","","",""
"","image-keyboard-response","106","69730","0.0-106.0","3HL8HNGX46NK7PKE1T6WLAD8CZB9F5","A1LRJ4U04532TM","3PEG1BH7AEDCPKTV9M6N3A4F0EHKBR","","446.5","img/land3.png","75","447.9000000357628","2","0","2","2","0.8,0.2,0.2,0.2,0.8,0.2,0.2,0.2,0.8","0.2,0.8,0.2,0.2,0.2,0.8,0.8,0.2,0.2","3","",""
"","html-keyboard-response","107","70038","0.0-107.0","3HL8HNGX46NK7PKE1T6WLAD8CZB9F5","A1LRJ4U04532TM","3PEG1BH7AEDCPKTV9M6N3A4F0EHKBR","","null","<img src=""img/land3.png"" style=""width:200px;border:14px solid red;"">","null","","","","","","","","","",""
"","image-keyboard-response","108","70073","0.0-108.0","3HL8HNGX46NK7PKE1T6WLAD8CZB9F5","A1LRJ4U04532TM","3PEG1BH7AEDCPKTV9M6N3A4F0EHKBR","","33.90000003576279","img/land5.png","74","34.89999997615814","1","1","3","2","0.8,0.2,0.2,0.2,0.8,0.2,0.2,0.2,0.8","0.2,0.8,0.2,0.2,0.2,0.8,0.8,0.2,0.2","3","",""
"","html-keyboard-response","109","70384","0.0-109.0","3HL8HNGX46NK7PKE1T6WLAD8CZB9F5","A1LRJ4U04532TM","3PEG1BH7AEDCPKTV9M6N3A4F0EHKBR","","null","<img src=""img/land5.png"" style=""width:200px; border:14px solid green;"">","null","","","","","","","","","",""
"","image-keyboard-response","110","70409","0.0-110.0","3HL8HNGX46NK7PKE1T6WLAD8CZB9F5","A1LRJ4U04532TM","3PEG1BH7AEDCPKTV9M6N3A4F0EHKBR","","23.30000001192093","img/land5.png","74","24.599999964237213","1","1","3","2","0.8,0.2,0.2,0.2,0.8,0.2,0.2,0.2,0.8","0.2,0.8,0.2,0.2,0.2,0.8,0.8,0.2,0.2","3","",""
"","html-keyboard-response","111","70716","0.0-111.0","3HL8HNGX46NK7PKE1T6WLAD8CZB9F5","A1LRJ4U04532TM","3PEG1BH7AEDCPKTV9M6N3A4F0EHKBR","","null","<img src=""img/land5.png"" style=""width:200px; border:14px solid green;"">","null","","","","","","","","","",""
"","image-keyboard-response","112","71194","0.0-112.0","3HL8HNGX46NK7PKE1T6WLAD8CZB9F5","A1LRJ4U04532TM","3PEG1BH7AEDCPKTV9M6N3A4F0EHKBR","","476.7999999523163","img/land4.png","76","478","3","1","1","2","0.8,0.2,0.2,0.2,0.8,0.2,0.2,0.2,0.8","0.2,0.8,0.2,0.2,0.2,0.8,0.8,0.2,0.2","3","",""
"","html-keyboard-response","113","71500","0.0-113.0","3HL8HNGX46NK7PKE1T6WLAD8CZB9F5","A1LRJ4U04532TM","3PEG1BH7AEDCPKTV9M6N3A4F0EHKBR","","null","<img src=""img/land4.png"" style=""width:200px; border:14px solid green;"">","null","","","","","","","","","",""
"","image-keyboard-response","114","71746","0.0-114.0","3HL8HNGX46NK7PKE1T6WLAD8CZB9F5","A1LRJ4U04532TM","3PEG1BH7AEDCPKTV9M6N3A4F0EHKBR","","244.60000002384186","img/land5.png","76","246.0999999642372","3","0","3","2","0.8,0.2,0.2,0.2,0.8,0.2,0.2,0.2,0.8","0.2,0.8,0.2,0.2,0.2,0.8,0.8,0.2,0.2","3","",""
"","html-keyboard-response","115","72053","0.0-115.0","3HL8HNGX46NK7PKE1T6WLAD8CZB9F5","A1LRJ4U04532TM","3PEG1BH7AEDCPKTV9M6N3A4F0EHKBR","","null","<img src=""img/land5.png"" style=""width:200px;border:14px solid red;"">","null","","","","","","","","","",""
"","image-keyboard-response","116","72166","0.0-116.0","3HL8HNGX46NK7PKE1T6WLAD8CZB9F5","A1LRJ4U04532TM","3PEG1BH7AEDCPKTV9M6N3A4F0EHKBR","","111.19999998807907","img/land4.png","74","112.5","1","0","1","2","0.8,0.2,0.2,0.2,0.8,0.2,0.2,0.2,0.8","0.2,0.8,0.2,0.2,0.2,0.8,0.8,0.2,0.2","3","",""
"","html-keyboard-response","117","72478","0.0-117.0","3HL8HNGX46NK7PKE1T6WLAD8CZB9F5","A1LRJ4U04532TM","3PEG1BH7AEDCPKTV9M6N3A4F0EHKBR","","null","<img src=""img/land4.png"" style=""width:200px;border:14px solid red;"">","null","","","","","","","","","",""
"","image-keyboard-response","118","72480","0.0-118.0","3HL8HNGX46NK7PKE1T6WLAD8CZB9F5","A1LRJ4U04532TM","3PEG1BH7AEDCPKTV9M6N3A4F0EHKBR","","0.5999999642372131","img/land5.png","76","1.5","3","0","3","2","0.8,0.2,0.2,0.2,0.8,0.2,0.2,0.2,0.8","0.2,0.8,0.2,0.2,0.2,0.8,0.8,0.2,0.2","3","",""
"","html-keyboard-response","119","72797","0.0-119.0","3HL8HNGX46NK7PKE1T6WLAD8CZB9F5","A1LRJ4U04532TM","3PEG1BH7AEDCPKTV9M6N3A4F0EHKBR","","null","<img src=""img/land5.png"" style=""width:200px;border:14px solid red;"">","null","","","","","","","","","",""
"","image-keyboard-response","120","73062","0.0-120.0","3HL8HNGX46NK7PKE1T6WLAD8CZB9F5","A1LRJ4U04532TM","3PEG1BH7AEDCPKTV9M6N3A4F0EHKBR","","263.39999997615814","img/land4.png","75","264.89999997615814","2","0","1","2","0.8,0.2,0.2,0.2,0.8,0.2,0.2,0.2,0.8","0.2,0.8,0.2,0.2,0.2,0.8,0.8,0.2,0.2","3","",""
"","html-keyboard-response","121","73373","0.0-121.0","3HL8HNGX46NK7PKE1T6WLAD8CZB9F5","A1LRJ4U04532TM","3PEG1BH7AEDCPKTV9M6N3A4F0EHKBR","","null","<img src=""img/land4.png"" style=""width:200px;border:14px solid red;"">","null","","","","","","","","","",""
"","image-keyboard-response","122","73608","0.0-122.0","3HL8HNGX46NK7PKE1T6WLAD8CZB9F5","A1LRJ4U04532TM","3PEG1BH7AEDCPKTV9M6N3A4F0EHKBR","","233.69999998807907","img/land4.png","74","235.0999999642372","1","1","1","2","0.8,0.2,0.2,0.2,0.8,0.2,0.2,0.2,0.8","0.2,0.8,0.2,0.2,0.2,0.8,0.8,0.2,0.2","3","",""
"","html-keyboard-response","123","73923","0.0-123.0","3HL8HNGX46NK7PKE1T6WLAD8CZB9F5","A1LRJ4U04532TM","3PEG1BH7AEDCPKTV9M6N3A4F0EHKBR","","null","<img src=""img/land4.png"" style=""width:200px; border:14px solid green;"">","null","","","","","","","","","",""
"","image-keyboard-response","124","73926","0.0-124.0","3HL8HNGX46NK7PKE1T6WLAD8CZB9F5","A1LRJ4U04532TM","3PEG1BH7AEDCPKTV9M6N3A4F0EHKBR","","1.199999988079071","img/land4.png","74","2.800000011920929","1","0","1","2","0.8,0.2,0.2,0.2,0.8,0.2,0.2,0.2,0.8","0.2,0.8,0.2,0.2,0.2,0.8,0.8,0.2,0.2","3","",""
"","html-keyboard-response","125","74234","0.0-125.0","3HL8HNGX46NK7PKE1T6WLAD8CZB9F5","A1LRJ4U04532TM","3PEG1BH7AEDCPKTV9M6N3A4F0EHKBR","","null","<img src=""img/land4.png"" style=""width:200px;border:14px solid red;"">","null","","","","","","","","","",""
"","image-keyboard-response","126","74308","0.0-126.0","3HL8HNGX46NK7PKE1T6WLAD8CZB9F5","A1LRJ4U04532TM","3PEG1BH7AEDCPKTV9M6N3A4F0EHKBR","","72.19999998807907","img/land4.png","74","73.30000001192093","1","0","1","2","0.8,0.2,0.2,0.2,0.8,0.2,0.2,0.2,0.8","0.2,0.8,0.2,0.2,0.2,0.8,0.8,0.2,0.2","3","",""
"","html-keyboard-response","127","74619","0.0-127.0","3HL8HNGX46NK7PKE1T6WLAD8CZB9F5","A1LRJ4U04532TM","3PEG1BH7AEDCPKTV9M6N3A4F0EHKBR","","null","<img src=""img/land4.png"" style=""width:200px;border:14px solid red;"">","null","","","","","","","","","",""
"","image-keyboard-response","128","74625","0.0-128.0","3HL8HNGX46NK7PKE1T6WLAD8CZB9F5","A1LRJ4U04532TM","3PEG1BH7AEDCPKTV9M6N3A4F0EHKBR","","5","img/land5.png","74","5.800000011920929","1","1","3","2","0.8,0.2,0.2,0.2,0.8,0.2,0.2,0.2,0.8","0.2,0.8,0.2,0.2,0.2,0.8,0.8,0.2,0.2","3","",""
"","html-keyboard-response","129","74939","0.0-129.0","3HL8HNGX46NK7PKE1T6WLAD8CZB9F5","A1LRJ4U04532TM","3PEG1BH7AEDCPKTV9M6N3A4F0EHKBR","","null","<img src=""img/land5.png"" style=""width:200px; border:14px solid green;"">","null","","","","","","","","","",""
"","image-keyboard-response","130","75128","0.0-130.0","3HL8HNGX46NK7PKE1T6WLAD8CZB9F5","A1LRJ4U04532TM","3PEG1BH7AEDCPKTV9M6N3A4F0EHKBR","","187.5","img/land4.png","74","188.80000001192093","1","0","1","2","0.8,0.2,0.2,0.2,0.8,0.2,0.2,0.2,0.8","0.2,0.8,0.2,0.2,0.2,0.8,0.8,0.2,0.2","3","",""
"","html-keyboard-response","131","75430","0.0-131.0","3HL8HNGX46NK7PKE1T6WLAD8CZB9F5","A1LRJ4U04532TM","3PEG1BH7AEDCPKTV9M6N3A4F0EHKBR","","null","<img src=""img/land4.png"" style=""width:200px;border:14px solid red;"">","null","","","","","","","","","",""
"","image-keyboard-response","132","75483","0.0-132.0","3HL8HNGX46NK7PKE1T6WLAD8CZB9F5","A1LRJ4U04532TM","3PEG1BH7AEDCPKTV9M6N3A4F0EHKBR","","51.19999998807907","img/land5.png","76","52.09999996423721","3","0","3","2","0.8,0.2,0.2,0.2,0.8,0.2,0.2,0.2,0.8","0.2,0.8,0.2,0.2,0.2,0.8,0.8,0.2,0.2","3","",""
"","html-keyboard-response","133","75791","0.0-133.0","3HL8HNGX46NK7PKE1T6WLAD8CZB9F5","A1LRJ4U04532TM","3PEG1BH7AEDCPKTV9M6N3A4F0EHKBR","","null","<img src=""img/land5.png"" style=""width:200px;border:14px solid red;"">","null","","","","","","","","","",""
"","image-keyboard-response","134","76024","0.0-134.0","3HL8HNGX46NK7PKE1T6WLAD8CZB9F5","A1LRJ4U04532TM","3PEG1BH7AEDCPKTV9M6N3A4F0EHKBR","","231.5999999642372","img/land5.png","75","232.89999997615814","2","0","3","2","0.8,0.2,0.2,0.2,0.8,0.2,0.2,0.2,0.8","0.2,0.8,0.2,0.2,0.2,0.8,0.8,0.2,0.2","3","",""
"","html-keyboard-response","135","76333","0.0-135.0","3HL8HNGX46NK7PKE1T6WLAD8CZB9F5","A1LRJ4U04532TM","3PEG1BH7AEDCPKTV9M6N3A4F0EHKBR","","null","<img src=""img/land5.png"" style=""width:200px;border:14px solid red;"">","null","","","","","","","","","",""
"","image-keyboard-response","136","76540","0.0-136.0","3HL8HNGX46NK7PKE1T6WLAD8CZB9F5","A1LRJ4U04532TM","3PEG1BH7AEDCPKTV9M6N3A4F0EHKBR","","205.79999995231628","img/land4.png","75","207","2","1","1","2","0.8,0.2,0.2,0.2,0.8,0.2,0.2,0.2,0.8","0.2,0.8,0.2,0.2,0.2,0.8,0.8,0.2,0.2","3","",""
"","html-keyboard-response","137","76851","0.0-137.0","3HL8HNGX46NK7PKE1T6WLAD8CZB9F5","A1LRJ4U04532TM","3PEG1BH7AEDCPKTV9M6N3A4F0EHKBR","","null","<img src=""img/land4.png"" style=""width:200px; border:14px solid green;"">","null","","","","","","","","","",""
"","image-keyboard-response","138","76968","0.0-138.0","3HL8HNGX46NK7PKE1T6WLAD8CZB9F5","A1LRJ4U04532TM","3PEG1BH7AEDCPKTV9M6N3A4F0EHKBR","","115.69999998807907","img/land4.png","76","117.20000004768372","3","0","1","2","0.8,0.2,0.2,0.2,0.8,0.2,0.2,0.2,0.8","0.2,0.8,0.2,0.2,0.2,0.8,0.8,0.2,0.2","3","",""
"","html-keyboard-response","139","77277","0.0-139.0","3HL8HNGX46NK7PKE1T6WLAD8CZB9F5","A1LRJ4U04532TM","3PEG1BH7AEDCPKTV9M6N3A4F0EHKBR","","null","<img src=""img/land4.png"" style=""width:200px;border:14px solid red;"">","null","","","","","","","","","",""
"","image-keyboard-response","140","77681","0.0-140.0","3HL8HNGX46NK7PKE1T6WLAD8CZB9F5","A1LRJ4U04532TM","3PEG1BH7AEDCPKTV9M6N3A4F0EHKBR","","403.5999999642372","img/land4.png","74","404.30000001192093","1","0","1","2","0.8,0.2,0.2,0.2,0.8,0.2,0.2,0.2,0.8","0.2,0.8,0.2,0.2,0.2,0.8,0.8,0.2,0.2","3","",""
"","html-keyboard-response","141","77986","0.0-141.0","3HL8HNGX46NK7PKE1T6WLAD8CZB9F5","A1LRJ4U04532TM","3PEG1BH7AEDCPKTV9M6N3A4F0EHKBR","","null","<img src=""img/land4.png"" style=""width:200px;border:14px solid red;"">","null","","","","","","","","","",""
"","image-keyboard-response","142","78392","0.0-142.0","3HL8HNGX46NK7PKE1T6WLAD8CZB9F5","A1LRJ4U04532TM","3PEG1BH7AEDCPKTV9M6N3A4F0EHKBR","","405.30000001192093","img/land3.png","74","406.30000001192093","1","0","2","2","0.8,0.2,0.2,0.2,0.8,0.2,0.2,0.2,0.8","0.2,0.8,0.2,0.2,0.2,0.8,0.8,0.2,0.2","3","",""
"","html-keyboard-response","143","78703","0.0-143.0","3HL8HNGX46NK7PKE1T6WLAD8CZB9F5","A1LRJ4U04532TM","3PEG1BH7AEDCPKTV9M6N3A4F0EHKBR","","null","<img src=""img/land3.png"" style=""width:200px;border:14px solid red;"">","null","","","","","","","","","",""
"","image-keyboard-response","144","78721","0.0-144.0","3HL8HNGX46NK7PKE1T6WLAD8CZB9F5","A1LRJ4U04532TM","3PEG1BH7AEDCPKTV9M6N3A4F0EHKBR","","17.600000023841858","img/land3.png","75","18.400000035762787","2","1","2","2","0.8,0.2,0.2,0.2,0.8,0.2,0.2,0.2,0.8","0.2,0.8,0.2,0.2,0.2,0.8,0.8,0.2,0.2","3","",""
"","html-keyboard-response","145","79029","0.0-145.0","3HL8HNGX46NK7PKE1T6WLAD8CZB9F5","A1LRJ4U04532TM","3PEG1BH7AEDCPKTV9M6N3A4F0EHKBR","","null","<img src=""img/land3.png"" style=""width:200px; border:14px solid green;"">","null","","","","","","","","","",""
"","image-keyboard-response","146","79058","0.0-146.0","3HL8HNGX46NK7PKE1T6WLAD8CZB9F5","A1LRJ4U04532TM","3PEG1BH7AEDCPKTV9M6N3A4F0EHKBR","","27.100000023841858","img/land3.png","75","28.400000035762787","2","0","2","2","0.8,0.2,0.2,0.2,0.8,0.2,0.2,0.2,0.8","0.2,0.8,0.2,0.2,0.2,0.8,0.8,0.2,0.2","3","",""
"","html-keyboard-response","147","79364","0.0-147.0","3HL8HNGX46NK7PKE1T6WLAD8CZB9F5","A1LRJ4U04532TM","3PEG1BH7AEDCPKTV9M6N3A4F0EHKBR","","null","<img src=""img/land3.png"" style=""width:200px;border:14px solid red;"">","null","","","","","","","","","",""
"","image-keyboard-response","148","79451","0.0-148.0","3HL8HNGX46NK7PKE1T6WLAD8CZB9F5","A1LRJ4U04532TM","3PEG1BH7AEDCPKTV9M6N3A4F0EHKBR","","85.5","img/land4.png","75","86.80000001192093","2","0","1","2","0.8,0.2,0.2,0.2,0.8,0.2,0.2,0.2,0.8","0.2,0.8,0.2,0.2,0.2,0.8,0.8,0.2,0.2","3","",""
"","html-keyboard-response","149","79754","0.0-149.0","3HL8HNGX46NK7PKE1T6WLAD8CZB9F5","A1LRJ4U04532TM","3PEG1BH7AEDCPKTV9M6N3A4F0EHKBR","","null","<img src=""img/land4.png"" style=""width:200px;border:14px solid red;"">","null","","","","","","","","","",""
"","image-keyboard-response","150","80168","0.0-150.0","3HL8HNGX46NK7PKE1T6WLAD8CZB9F5","A1LRJ4U04532TM","3PEG1BH7AEDCPKTV9M6N3A4F0EHKBR","","412.89999997615814","img/land4.png","76","414.30000001192093","3","0","1","2","0.8,0.2,0.2,0.2,0.8,0.2,0.2,0.2,0.8","0.2,0.8,0.2,0.2,0.2,0.8,0.8,0.2,0.2","3","",""
"","html-keyboard-response","151","80472","0.0-151.0","3HL8HNGX46NK7PKE1T6WLAD8CZB9F5","A1LRJ4U04532TM","3PEG1BH7AEDCPKTV9M6N3A4F0EHKBR","","null","<img src=""img/land4.png"" style=""width:200px;border:14px solid red;"">","null","","","","","","","","","",""
"","image-keyboard-response","152","80597","0.0-152.0","3HL8HNGX46NK7PKE1T6WLAD8CZB9F5","A1LRJ4U04532TM","3PEG1BH7AEDCPKTV9M6N3A4F0EHKBR","","122.30000001192093","img/land3.png","75","123.69999998807907","2","0","2","2","0.8,0.2,0.2,0.2,0.8,0.2,0.2,0.2,0.8","0.2,0.8,0.2,0.2,0.2,0.8,0.8,0.2,0.2","3","",""
"","html-keyboard-response","153","80900","0.0-153.0","3HL8HNGX46NK7PKE1T6WLAD8CZB9F5","A1LRJ4U04532TM","3PEG1BH7AEDCPKTV9M6N3A4F0EHKBR","","null","<img src=""img/land3.png"" style=""width:200px;border:14px solid red;"">","null","","","","","","","","","",""
"","image-keyboard-response","154","80996","0.0-154.0","3HL8HNGX46NK7PKE1T6WLAD8CZB9F5","A1LRJ4U04532TM","3PEG1BH7AEDCPKTV9M6N3A4F0EHKBR","","94.09999996423721","img/land4.png","75","95.39999997615814","2","1","1","2","0.8,0.2,0.2,0.2,0.8,0.2,0.2,0.2,0.8","0.2,0.8,0.2,0.2,0.2,0.8,0.8,0.2,0.2","3","",""
"","html-keyboard-response","155","81303","0.0-155.0","3HL8HNGX46NK7PKE1T6WLAD8CZB9F5","A1LRJ4U04532TM","3PEG1BH7AEDCPKTV9M6N3A4F0EHKBR","","null","<img src=""img/land4.png"" style=""width:200px; border:14px solid green;"">","null","","","","","","","","","",""
"","image-keyboard-response","156","81414","0.0-156.0","3HL8HNGX46NK7PKE1T6WLAD8CZB9F5","A1LRJ4U04532TM","3PEG1BH7AEDCPKTV9M6N3A4F0EHKBR","","110","img/land3.png","75","111.19999998807907","2","0","2","2","0.8,0.2,0.2,0.2,0.8,0.2,0.2,0.2,0.8","0.2,0.8,0.2,0.2,0.2,0.8,0.8,0.2,0.2","3","",""
"","html-keyboard-response","157","81729","0.0-157.0","3HL8HNGX46NK7PKE1T6WLAD8CZB9F5","A1LRJ4U04532TM","3PEG1BH7AEDCPKTV9M6N3A4F0EHKBR","","null","<img src=""img/land3.png"" style=""width:200px;border:14px solid red;"">","null","","","","","","","","","",""
"","image-keyboard-response","158","82344","0.0-158.0","3HL8HNGX46NK7PKE1T6WLAD8CZB9F5","A1LRJ4U04532TM","3PEG1BH7AEDCPKTV9M6N3A4F0EHKBR","","613.3000000119209","img/land4.png","75","615.1999999880791","2","1","1","2","0.8,0.2,0.2,0.2,0.8,0.2,0.2,0.2,0.8","0.2,0.8,0.2,0.2,0.2,0.8,0.8,0.2,0.2","3","",""
"","html-keyboard-response","159","82653","0.0-159.0","3HL8HNGX46NK7PKE1T6WLAD8CZB9F5","A1LRJ4U04532TM","3PEG1BH7AEDCPKTV9M6N3A4F0EHKBR","","null","<img src=""img/land4.png"" style=""width:200px; border:14px solid green;"">","null","","","","","","","","","",""
"","image-keyboard-response","160","83343","0.0-160.0","3HL8HNGX46NK7PKE1T6WLAD8CZB9F5","A1LRJ4U04532TM","3PEG1BH7AEDCPKTV9M6N3A4F0EHKBR","","686.3000000119209","img/land4.png","76","689.8999999761581","3","0","1","2","0.8,0.2,0.2,0.2,0.8,0.2,0.2,0.2,0.8","0.2,0.8,0.2,0.2,0.2,0.8,0.8,0.2,0.2","3","",""
"","html-keyboard-response","161","83652","0.0-161.0","3HL8HNGX46NK7PKE1T6WLAD8CZB9F5","A1LRJ4U04532TM","3PEG1BH7AEDCPKTV9M6N3A4F0EHKBR","","null","<img src=""img/land4.png"" style=""width:200px;border:14px solid red;"">","null","","","","","","","","","",""
"","image-keyboard-response","162","84170","0.0-162.0","3HL8HNGX46NK7PKE1T6WLAD8CZB9F5","A1LRJ4U04532TM","3PEG1BH7AEDCPKTV9M6N3A4F0EHKBR","","516.1999999880791","img/land4.png","75","517.6999999880791","2","0","1","2","0.8,0.2,0.2,0.2,0.8,0.2,0.2,0.2,0.8","0.2,0.8,0.2,0.2,0.2,0.8,0.8,0.2,0.2","3","",""
"","html-keyboard-response","163","84472","0.0-163.0","3HL8HNGX46NK7PKE1T6WLAD8CZB9F5","A1LRJ4U04532TM","3PEG1BH7AEDCPKTV9M6N3A4F0EHKBR","","null","<img src=""img/land4.png"" style=""width:200px;border:14px solid red;"">","null","","","","","","","","","",""
"","image-keyboard-response","164","84542","0.0-164.0","3HL8HNGX46NK7PKE1T6WLAD8CZB9F5","A1LRJ4U04532TM","3PEG1BH7AEDCPKTV9M6N3A4F0EHKBR","","68.80000001192093","img/land4.png","74","70","1","0","1","2","0.8,0.2,0.2,0.2,0.8,0.2,0.2,0.2,0.8","0.2,0.8,0.2,0.2,0.2,0.8,0.8,0.2,0.2","3","",""
"","html-keyboard-response","165","84847","0.0-165.0","3HL8HNGX46NK7PKE1T6WLAD8CZB9F5","A1LRJ4U04532TM","3PEG1BH7AEDCPKTV9M6N3A4F0EHKBR","","null","<img src=""img/land4.png"" style=""width:200px;border:14px solid red;"">","null","","","","","","","","","",""
"","image-keyboard-response","166","85000","0.0-166.0","3HL8HNGX46NK7PKE1T6WLAD8CZB9F5","A1LRJ4U04532TM","3PEG1BH7AEDCPKTV9M6N3A4F0EHKBR","","149.69999998807907","img/land4.png","74","152.10000002384186","1","0","1","2","0.8,0.2,0.2,0.2,0.8,0.2,0.2,0.2,0.8","0.2,0.8,0.2,0.2,0.2,0.8,0.8,0.2,0.2","3","",""
"","html-keyboard-response","167","85310","0.0-167.0","3HL8HNGX46NK7PKE1T6WLAD8CZB9F5","A1LRJ4U04532TM","3PEG1BH7AEDCPKTV9M6N3A4F0EHKBR","","null","<img src=""img/land4.png"" style=""width:200px;border:14px solid red;"">","null","","","","","","","","","",""
"","image-keyboard-response","168","85336","0.0-168.0","3HL8HNGX46NK7PKE1T6WLAD8CZB9F5","A1LRJ4U04532TM","3PEG1BH7AEDCPKTV9M6N3A4F0EHKBR","","23.899999976158142","img/land4.png","76","25.099999964237213","3","0","1","2","0.8,0.2,0.2,0.2,0.8,0.2,0.2,0.2,0.8","0.2,0.8,0.2,0.2,0.2,0.8,0.8,0.2,0.2","3","",""
"","html-keyboard-response","169","85647","0.0-169.0","3HL8HNGX46NK7PKE1T6WLAD8CZB9F5","A1LRJ4U04532TM","3PEG1BH7AEDCPKTV9M6N3A4F0EHKBR","","null","<img src=""img/land4.png"" style=""width:200px;border:14px solid red;"">","null","","","","","","","","","",""
"","image-keyboard-response","170","86245","0.0-170.0","3HL8HNGX46NK7PKE1T6WLAD8CZB9F5","A1LRJ4U04532TM","3PEG1BH7AEDCPKTV9M6N3A4F0EHKBR","","596.8000000119209","img/land4.png","76","598.1999999880791","3","0","1","2","0.8,0.2,0.2,0.2,0.8,0.2,0.2,0.2,0.8","0.2,0.8,0.2,0.2,0.2,0.8,0.8,0.2,0.2","3","",""
"","html-keyboard-response","171","86550","0.0-171.0","3HL8HNGX46NK7PKE1T6WLAD8CZB9F5","A1LRJ4U04532TM","3PEG1BH7AEDCPKTV9M6N3A4F0EHKBR","","null","<img src=""img/land4.png"" style=""width:200px;border:14px solid red;"">","null","","","","","","","","","",""
"","image-keyboard-response","172","86918","0.0-172.0","3HL8HNGX46NK7PKE1T6WLAD8CZB9F5","A1LRJ4U04532TM","3PEG1BH7AEDCPKTV9M6N3A4F0EHKBR","","364.7000000476837","img/land4.png","76","366.60000002384186","3","0","1","2","0.8,0.2,0.2,0.2,0.8,0.2,0.2,0.2,0.8","0.2,0.8,0.2,0.2,0.2,0.8,0.8,0.2,0.2","3","",""
"","html-keyboard-response","173","87223","0.0-173.0","3HL8HNGX46NK7PKE1T6WLAD8CZB9F5","A1LRJ4U04532TM","3PEG1BH7AEDCPKTV9M6N3A4F0EHKBR","","null","<img src=""img/land4.png"" style=""width:200px;border:14px solid red;"">","null","","","","","","","","","",""
"","image-keyboard-response","174","87605","0.0-174.0","3HL8HNGX46NK7PKE1T6WLAD8CZB9F5","A1LRJ4U04532TM","3PEG1BH7AEDCPKTV9M6N3A4F0EHKBR","","380.19999998807907","img/land3.png","75","383.80000001192093","2","0","2","2","0.8,0.2,0.2,0.2,0.8,0.2,0.2,0.2,0.8","0.2,0.8,0.2,0.2,0.2,0.8,0.8,0.2,0.2","3","",""
"","html-keyboard-response","175","87911","0.0-175.0","3HL8HNGX46NK7PKE1T6WLAD8CZB9F5","A1LRJ4U04532TM","3PEG1BH7AEDCPKTV9M6N3A4F0EHKBR","","null","<img src=""img/land3.png"" style=""width:200px;border:14px solid red;"">","null","","","","","","","","","",""
"","image-keyboard-response","176","87931","0.0-176.0","3HL8HNGX46NK7PKE1T6WLAD8CZB9F5","A1LRJ4U04532TM","3PEG1BH7AEDCPKTV9M6N3A4F0EHKBR","","19.399999976158142","img/land4.png","75","20.5","2","1","1","2","0.8,0.2,0.2,0.2,0.8,0.2,0.2,0.2,0.8","0.2,0.8,0.2,0.2,0.2,0.8,0.8,0.2,0.2","3","",""
"","html-keyboard-response","177","88238","0.0-177.0","3HL8HNGX46NK7PKE1T6WLAD8CZB9F5","A1LRJ4U04532TM","3PEG1BH7AEDCPKTV9M6N3A4F0EHKBR","","null","<img src=""img/land4.png"" style=""width:200px; border:14px solid green;"">","null","","","","","","","","","",""
"","image-keyboard-response","178","88339","0.0-178.0","3HL8HNGX46NK7PKE1T6WLAD8CZB9F5","A1LRJ4U04532TM","3PEG1BH7AEDCPKTV9M6N3A4F0EHKBR","","98.30000001192093","img/land4.png","75","100.30000001192093","2","1","1","2","0.8,0.2,0.2,0.2,0.8,0.2,0.2,0.2,0.8","0.2,0.8,0.2,0.2,0.2,0.8,0.8,0.2,0.2","3","",""
"","html-keyboard-response","179","88641","0.0-179.0","3HL8HNGX46NK7PKE1T6WLAD8CZB9F5","A1LRJ4U04532TM","3PEG1BH7AEDCPKTV9M6N3A4F0EHKBR","","null","<img src=""img/land4.png"" style=""width:200px; border:14px solid green;"">","null","","","","","","","","","",""
"","image-keyboard-response","180","88673","0.0-180.0","3HL8HNGX46NK7PKE1T6WLAD8CZB9F5","A1LRJ4U04532TM","3PEG1BH7AEDCPKTV9M6N3A4F0EHKBR","","28.30000001192093","img/land5.png","75","30.5","2","0","3","2","0.8,0.2,0.2,0.2,0.8,0.2,0.2,0.2,0.8","0.2,0.8,0.2,0.2,0.2,0.8,0.8,0.2,0.2","3","",""
"","html-keyboard-response","181","88988","0.0-181.0","3HL8HNGX46NK7PKE1T6WLAD8CZB9F5","A1LRJ4U04532TM","3PEG1BH7AEDCPKTV9M6N3A4F0EHKBR","","null","<img src=""img/land5.png"" style=""width:200px;border:14px solid red;"">","null","","","","","","","","","",""
"","image-keyboard-response","182","89176","0.0-182.0","3HL8HNGX46NK7PKE1T6WLAD8CZB9F5","A1LRJ4U04532TM","3PEG1BH7AEDCPKTV9M6N3A4F0EHKBR","","186.5","img/land4.png","74","187.69999998807907","1","1","1","2","0.8,0.2,0.2,0.2,0.8,0.2,0.2,0.2,0.8","0.2,0.8,0.2,0.2,0.2,0.8,0.8,0.2,0.2","3","",""
"","html-keyboard-response","183","89480","0.0-183.0","3HL8HNGX46NK7PKE1T6WLAD8CZB9F5","A1LRJ4U04532TM","3PEG1BH7AEDCPKTV9M6N3A4F0EHKBR","","null","<img src=""img/land4.png"" style=""width:200px; border:14px solid green;"">","null","","","","","","","","","",""
"","image-keyboard-response","184","89866","0.0-184.0","3HL8HNGX46NK7PKE1T6WLAD8CZB9F5","A1LRJ4U04532TM","3PEG1BH7AEDCPKTV9M6N3A4F0EHKBR","","384.69999998807907","img/land4.png","74","385.80000001192093","1","0","1","2","0.8,0.2,0.2,0.2,0.8,0.2,0.2,0.2,0.8","0.2,0.8,0.2,0.2,0.2,0.8,0.8,0.2,0.2","3","",""
"","html-keyboard-response","185","90168","0.0-185.0","3HL8HNGX46NK7PKE1T6WLAD8CZB9F5","A1LRJ4U04532TM","3PEG1BH7AEDCPKTV9M6N3A4F0EHKBR","","null","<img src=""img/land4.png"" style=""width:200px;border:14px solid red;"">","null","","","","","","","","","",""
"","image-keyboard-response","186","90208","0.0-186.0","3HL8HNGX46NK7PKE1T6WLAD8CZB9F5","A1LRJ4U04532TM","3PEG1BH7AEDCPKTV9M6N3A4F0EHKBR","","39.59999996423721","img/land3.png","74","40.5","1","0","2","2","0.8,0.2,0.2,0.2,0.8,0.2,0.2,0.2,0.8","0.2,0.8,0.2,0.2,0.2,0.8,0.8,0.2,0.2","3","",""
"","html-keyboard-response","187","90515","0.0-187.0","3HL8HNGX46NK7PKE1T6WLAD8CZB9F5","A1LRJ4U04532TM","3PEG1BH7AEDCPKTV9M6N3A4F0EHKBR","","null","<img src=""img/land3.png"" style=""width:200px;border:14px solid red;"">","null","","","","","","","","","",""
"","image-keyboard-response","188","90742","0.0-188.0","3HL8HNGX46NK7PKE1T6WLAD8CZB9F5","A1LRJ4U04532TM","3PEG1BH7AEDCPKTV9M6N3A4F0EHKBR","","225.69999998807907","img/land3.png","76","226.69999998807907","3","1","2","2","0.8,0.2,0.2,0.2,0.8,0.2,0.2,0.2,0.8","0.2,0.8,0.2,0.2,0.2,0.8,0.8,0.2,0.2","3","",""
"","html-keyboard-response","189","91050","0.0-189.0","3HL8HNGX46NK7PKE1T6WLAD8CZB9F5","A1LRJ4U04532TM","3PEG1BH7AEDCPKTV9M6N3A4F0EHKBR","","null","<img src=""img/land3.png"" style=""width:200px; border:14px solid green;"">","null","","","","","","","","","",""
"","image-keyboard-response","190","91131","0.0-190.0","3HL8HNGX46NK7PKE1T6WLAD8CZB9F5","A1LRJ4U04532TM","3PEG1BH7AEDCPKTV9M6N3A4F0EHKBR","","79.79999995231628","img/land4.png","76","80.89999997615814","3","1","1","2","0.8,0.2,0.2,0.2,0.8,0.2,0.2,0.2,0.8","0.2,0.8,0.2,0.2,0.2,0.8,0.8,0.2,0.2","3","",""
"","html-keyboard-response","191","91436","0.0-191.0","3HL8HNGX46NK7PKE1T6WLAD8CZB9F5","A1LRJ4U04532TM","3PEG1BH7AEDCPKTV9M6N3A4F0EHKBR","","null","<img src=""img/land4.png"" style=""width:200px; border:14px solid green;"">","null","","","","","","","","","",""
"","image-keyboard-response","192","91754","0.0-192.0","3HL8HNGX46NK7PKE1T6WLAD8CZB9F5","A1LRJ4U04532TM","3PEG1BH7AEDCPKTV9M6N3A4F0EHKBR","","316.60000002384186","img/land5.png","76","318","3","0","3","2","0.8,0.2,0.2,0.2,0.8,0.2,0.2,0.2,0.8","0.2,0.8,0.2,0.2,0.2,0.8,0.8,0.2,0.2","3","",""
"","html-keyboard-response","193","92067","0.0-193.0","3HL8HNGX46NK7PKE1T6WLAD8CZB9F5","A1LRJ4U04532TM","3PEG1BH7AEDCPKTV9M6N3A4F0EHKBR","","null","<img src=""img/land5.png"" style=""width:200px;border:14px solid red;"">","null","","","","","","","","","",""
"","image-keyboard-response","194","92292","0.0-194.0","3HL8HNGX46NK7PKE1T6WLAD8CZB9F5","A1LRJ4U04532TM","3PEG1BH7AEDCPKTV9M6N3A4F0EHKBR","","222.89999997615814","img/land4.png","75","224.5999999642372","2","1","1","2","0.8,0.2,0.2,0.2,0.8,0.2,0.2,0.2,0.8","0.2,0.8,0.2,0.2,0.2,0.8,0.8,0.2,0.2","3","",""
"","html-keyboard-response","195","92600","0.0-195.0","3HL8HNGX46NK7PKE1T6WLAD8CZB9F5","A1LRJ4U04532TM","3PEG1BH7AEDCPKTV9M6N3A4F0EHKBR","","null","<img src=""img/land4.png"" style=""width:200px; border:14px solid green;"">","null","","","","","","","","","",""
"","image-keyboard-response","196","92799","0.0-196.0","3HL8HNGX46NK7PKE1T6WLAD8CZB9F5","A1LRJ4U04532TM","3PEG1BH7AEDCPKTV9M6N3A4F0EHKBR","","197.19999998807907","img/land3.png","75","198.69999998807907","2","0","2","2","0.8,0.2,0.2,0.2,0.8,0.2,0.2,0.2,0.8","0.2,0.8,0.2,0.2,0.2,0.8,0.8,0.2,0.2","3","",""
"","html-keyboard-response","197","93104","0.0-197.0","3HL8HNGX46NK7PKE1T6WLAD8CZB9F5","A1LRJ4U04532TM","3PEG1BH7AEDCPKTV9M6N3A4F0EHKBR","","null","<img src=""img/land3.png"" style=""width:200px;border:14px solid red;"">","null","","","","","","","","","",""
"","image-keyboard-response","198","93440","0.0-198.0","3HL8HNGX46NK7PKE1T6WLAD8CZB9F5","A1LRJ4U04532TM","3PEG1BH7AEDCPKTV9M6N3A4F0EHKBR","","334.39999997615814","img/land4.png","74","335.80000001192093","1","0","1","2","0.8,0.2,0.2,0.2,0.8,0.2,0.2,0.2,0.8","0.2,0.8,0.2,0.2,0.2,0.8,0.8,0.2,0.2","3","",""
"","html-keyboard-response","199","93745","0.0-199.0","3HL8HNGX46NK7PKE1T6WLAD8CZB9F5","A1LRJ4U04532TM","3PEG1BH7AEDCPKTV9M6N3A4F0EHKBR","","null","<img src=""img/land4.png"" style=""width:200px;border:14px solid red;"">","null","","","","","","","","","",""
"","image-keyboard-response","200","94018","0.0-200.0","3HL8HNGX46NK7PKE1T6WLAD8CZB9F5","A1LRJ4U04532TM","3PEG1BH7AEDCPKTV9M6N3A4F0EHKBR","","268.5","img/land4.png","74","272.30000001192093","1","0","1","2","0.8,0.2,0.2,0.2,0.8,0.2,0.2,0.2,0.8","0.2,0.8,0.2,0.2,0.2,0.8,0.8,0.2,0.2","3","",""
"","html-keyboard-response","201","94329","0.0-201.0","3HL8HNGX46NK7PKE1T6WLAD8CZB9F5","A1LRJ4U04532TM","3PEG1BH7AEDCPKTV9M6N3A4F0EHKBR","","null","<img src=""img/land4.png"" style=""width:200px;border:14px solid red;"">","null","","","","","","","","","",""
"","image-keyboard-response","202","94453","0.0-202.0","3HL8HNGX46NK7PKE1T6WLAD8CZB9F5","A1LRJ4U04532TM","3PEG1BH7AEDCPKTV9M6N3A4F0EHKBR","","122.89999997615814","img/land4.png","74","124.29999995231628","1","0","1","2","0.8,0.2,0.2,0.2,0.8,0.2,0.2,0.2,0.8","0.2,0.8,0.2,0.2,0.2,0.8,0.8,0.2,0.2","3","",""
"","html-keyboard-response","203","94756","0.0-203.0","3HL8HNGX46NK7PKE1T6WLAD8CZB9F5","A1LRJ4U04532TM","3PEG1BH7AEDCPKTV9M6N3A4F0EHKBR","","null","<img src=""img/land4.png"" style=""width:200px;border:14px solid red;"">","null","","","","","","","","","",""
"","image-keyboard-response","204","95181","0.0-204.0","3HL8HNGX46NK7PKE1T6WLAD8CZB9F5","A1LRJ4U04532TM","3PEG1BH7AEDCPKTV9M6N3A4F0EHKBR","","423.80000001192093","img/land3.png","76","424.69999998807907","3","1","2","2","0.8,0.2,0.2,0.2,0.8,0.2,0.2,0.2,0.8","0.2,0.8,0.2,0.2,0.2,0.8,0.8,0.2,0.2","3","",""
"","html-keyboard-response","205","95484","0.0-205.0","3HL8HNGX46NK7PKE1T6WLAD8CZB9F5","A1LRJ4U04532TM","3PEG1BH7AEDCPKTV9M6N3A4F0EHKBR","","null","<img src=""img/land3.png"" style=""width:200px; border:14px solid green;"">","null","","","","","","","","","",""
"","image-keyboard-response","206","95616","0.0-206.0","3HL8HNGX46NK7PKE1T6WLAD8CZB9F5","A1LRJ4U04532TM","3PEG1BH7AEDCPKTV9M6N3A4F0EHKBR","","129.60000002384186","img/land4.png","76","131.10000002384186","3","0","1","2","0.8,0.2,0.2,0.2,0.8,0.2,0.2,0.2,0.8","0.2,0.8,0.2,0.2,0.2,0.8,0.8,0.2,0.2","3","",""
"","html-keyboard-response","207","95924","0.0-207.0","3HL8HNGX46NK7PKE1T6WLAD8CZB9F5","A1LRJ4U04532TM","3PEG1BH7AEDCPKTV9M6N3A4F0EHKBR","","null","<img src=""img/land4.png"" style=""width:200px;border:14px solid red;"">","null","","","","","","","","","",""
"","image-keyboard-response","208","96199","0.0-208.0","3HL8HNGX46NK7PKE1T6WLAD8CZB9F5","A1LRJ4U04532TM","3PEG1BH7AEDCPKTV9M6N3A4F0EHKBR","","273.5","img/land4.png","75","274.9000000357628","2","1","1","2","0.8,0.2,0.2,0.2,0.8,0.2,0.2,0.2,0.8","0.2,0.8,0.2,0.2,0.2,0.8,0.8,0.2,0.2","3","",""
"","html-keyboard-response","209","96508","0.0-209.0","3HL8HNGX46NK7PKE1T6WLAD8CZB9F5","A1LRJ4U04532TM","3PEG1BH7AEDCPKTV9M6N3A4F0EHKBR","","null","<img src=""img/land4.png"" style=""width:200px; border:14px solid green;"">","null","","","","","","","","","",""
"","image-keyboard-response","210","96718","0.0-210.0","3HL8HNGX46NK7PKE1T6WLAD8CZB9F5","A1LRJ4U04532TM","3PEG1BH7AEDCPKTV9M6N3A4F0EHKBR","","208.19999998807907","img/land5.png","76","209.69999998807907","3","0","3","2","0.8,0.2,0.2,0.2,0.8,0.2,0.2,0.2,0.8","0.2,0.8,0.2,0.2,0.2,0.8,0.8,0.2,0.2","3","",""
"","html-keyboard-response","211","97024","0.0-211.0","3HL8HNGX46NK7PKE1T6WLAD8CZB9F5","A1LRJ4U04532TM","3PEG1BH7AEDCPKTV9M6N3A4F0EHKBR","","null","<img src=""img/land5.png"" style=""width:200px;border:14px solid red;"">","null","","","","","","","","","",""
"","image-keyboard-response","212","97190","0.0-212.0","3HL8HNGX46NK7PKE1T6WLAD8CZB9F5","A1LRJ4U04532TM","3PEG1BH7AEDCPKTV9M6N3A4F0EHKBR","","164.30000001192093","img/land4.png","75","165.80000001192093","2","0","1","2","0.8,0.2,0.2,0.2,0.8,0.2,0.2,0.2,0.8","0.2,0.8,0.2,0.2,0.2,0.8,0.8,0.2,0.2","3","",""
"","html-keyboard-response","213","97493","0.0-213.0","3HL8HNGX46NK7PKE1T6WLAD8CZB9F5","A1LRJ4U04532TM","3PEG1BH7AEDCPKTV9M6N3A4F0EHKBR","","null","<img src=""img/land4.png"" style=""width:200px;border:14px solid red;"">","null","","","","","","","","","",""
"","image-keyboard-response","214","97740","0.0-214.0","3HL8HNGX46NK7PKE1T6WLAD8CZB9F5","A1LRJ4U04532TM","3PEG1BH7AEDCPKTV9M6N3A4F0EHKBR","","244.89999997615814","img/land4.png","75","246.70000004768372","2","1","1","2","0.8,0.2,0.2,0.2,0.8,0.2,0.2,0.2,0.8","0.2,0.8,0.2,0.2,0.2,0.8,0.8,0.2,0.2","3","",""
"","html-keyboard-response","215","98048","0.0-215.0","3HL8HNGX46NK7PKE1T6WLAD8CZB9F5","A1LRJ4U04532TM","3PEG1BH7AEDCPKTV9M6N3A4F0EHKBR","","null","<img src=""img/land4.png"" style=""width:200px; border:14px solid green;"">","null","","","","","","","","","",""
"","image-keyboard-response","216","98082","0.0-216.0","3HL8HNGX46NK7PKE1T6WLAD8CZB9F5","A1LRJ4U04532TM","3PEG1BH7AEDCPKTV9M6N3A4F0EHKBR","","32.09999996423721","img/land4.png","74","33.19999998807907","1","0","1","2","0.8,0.2,0.2,0.2,0.8,0.2,0.2,0.2,0.8","0.2,0.8,0.2,0.2,0.2,0.8,0.8,0.2,0.2","3","",""
"","html-keyboard-response","217","98384","0.0-217.0","3HL8HNGX46NK7PKE1T6WLAD8CZB9F5","A1LRJ4U04532TM","3PEG1BH7AEDCPKTV9M6N3A4F0EHKBR","","null","<img src=""img/land4.png"" style=""width:200px;border:14px solid red;"">","null","","","","","","","","","",""
"","image-keyboard-response","218","98392","0.0-218.0","3HL8HNGX46NK7PKE1T6WLAD8CZB9F5","A1LRJ4U04532TM","3PEG1BH7AEDCPKTV9M6N3A4F0EHKBR","","6.5","img/land4.png","75","7.800000011920929","2","1","1","2","0.8,0.2,0.2,0.2,0.8,0.2,0.2,0.2,0.8","0.2,0.8,0.2,0.2,0.2,0.8,0.8,0.2,0.2","3","",""
"","html-keyboard-response","219","98696","0.0-219.0","3HL8HNGX46NK7PKE1T6WLAD8CZB9F5","A1LRJ4U04532TM","3PEG1BH7AEDCPKTV9M6N3A4F0EHKBR","","null","<img src=""img/land4.png"" style=""width:200px; border:14px solid green;"">","null","","","","","","","","","",""
"","image-keyboard-response","220","99354","0.0-220.0","3HL8HNGX46NK7PKE1T6WLAD8CZB9F5","A1LRJ4U04532TM","3PEG1BH7AEDCPKTV9M6N3A4F0EHKBR","","657.3999999761581","img/land3.png","76","658.3000000119209","3","1","2","2","0.8,0.2,0.2,0.2,0.8,0.2,0.2,0.2,0.8","0.2,0.8,0.2,0.2,0.2,0.8,0.8,0.2,0.2","3","",""
"","html-keyboard-response","221","99660","0.0-221.0","3HL8HNGX46NK7PKE1T6WLAD8CZB9F5","A1LRJ4U04532TM","3PEG1BH7AEDCPKTV9M6N3A4F0EHKBR","","null","<img src=""img/land3.png"" style=""width:200px; border:14px solid green;"">","null","","","","","","","","","",""
"","image-keyboard-response","222","99671","0.0-222.0","3HL8HNGX46NK7PKE1T6WLAD8CZB9F5","A1LRJ4U04532TM","3PEG1BH7AEDCPKTV9M6N3A4F0EHKBR","","9.699999988079071","img/land4.png","76","10.699999988079071","3","0","1","2","0.8,0.2,0.2,0.2,0.8,0.2,0.2,0.2,0.8","0.2,0.8,0.2,0.2,0.2,0.8,0.8,0.2,0.2","3","",""
"","html-keyboard-response","223","99972","0.0-223.0","3HL8HNGX46NK7PKE1T6WLAD8CZB9F5","A1LRJ4U04532TM","3PEG1BH7AEDCPKTV9M6N3A4F0EHKBR","","null","<img src=""img/land4.png"" style=""width:200px;border:14px solid red;"">","null","","","","","","","","","",""
"","image-keyboard-response","224","101151","0.0-224.0","3HL8HNGX46NK7PKE1T6WLAD8CZB9F5","A1LRJ4U04532TM","3PEG1BH7AEDCPKTV9M6N3A4F0EHKBR","","1177.6000000238419","img/land3.png","74","1178.6000000238419","1","0","2","2","0.8,0.2,0.2,0.2,0.8,0.2,0.2,0.2,0.8","0.2,0.8,0.2,0.2,0.2,0.8,0.8,0.2,0.2","3","",""
"","html-keyboard-response","225","101461","0.0-225.0","3HL8HNGX46NK7PKE1T6WLAD8CZB9F5","A1LRJ4U04532TM","3PEG1BH7AEDCPKTV9M6N3A4F0EHKBR","","null","<img src=""img/land3.png"" style=""width:200px;border:14px solid red;"">","null","","","","","","","","","",""
"","image-keyboard-response","226","101479","0.0-226.0","3HL8HNGX46NK7PKE1T6WLAD8CZB9F5","A1LRJ4U04532TM","3PEG1BH7AEDCPKTV9M6N3A4F0EHKBR","","16.100000023841858","img/land4.png","75","17.5","2","1","1","2","0.8,0.2,0.2,0.2,0.8,0.2,0.2,0.2,0.8","0.2,0.8,0.2,0.2,0.2,0.8,0.8,0.2,0.2","3","",""
"","html-keyboard-response","227","101794","0.0-227.0","3HL8HNGX46NK7PKE1T6WLAD8CZB9F5","A1LRJ4U04532TM","3PEG1BH7AEDCPKTV9M6N3A4F0EHKBR","","null","<img src=""img/land4.png"" style=""width:200px; border:14px solid green;"">","null","","","","","","","","","",""
"","image-keyboard-response","228","101862","0.0-228.0","3HL8HNGX46NK7PKE1T6WLAD8CZB9F5","A1LRJ4U04532TM","3PEG1BH7AEDCPKTV9M6N3A4F0EHKBR","","67.5","img/land5.png","75","68.60000002384186","2","0","3","2","0.8,0.2,0.2,0.2,0.8,0.2,0.2,0.2,0.8","0.2,0.8,0.2,0.2,0.2,0.8,0.8,0.2,0.2","3","",""
"","html-keyboard-response","229","102170","0.0-229.0","3HL8HNGX46NK7PKE1T6WLAD8CZB9F5","A1LRJ4U04532TM","3PEG1BH7AEDCPKTV9M6N3A4F0EHKBR","","null","<img src=""img/land5.png"" style=""width:200px;border:14px solid red;"">","null","","","","","","","","","",""
"","image-keyboard-response","230","102369","0.0-230.0","3HL8HNGX46NK7PKE1T6WLAD8CZB9F5","A1LRJ4U04532TM","3PEG1BH7AEDCPKTV9M6N3A4F0EHKBR","","196.39999997615814","img/land5.png","74","198.19999998807907","1","1","3","2","0.8,0.2,0.2,0.2,0.8,0.2,0.2,0.2,0.8","0.2,0.8,0.2,0.2,0.2,0.8,0.8,0.2,0.2","3","",""
"","html-keyboard-response","231","102678","0.0-231.0","3HL8HNGX46NK7PKE1T6WLAD8CZB9F5","A1LRJ4U04532TM","3PEG1BH7AEDCPKTV9M6N3A4F0EHKBR","","null","<img src=""img/land5.png"" style=""width:200px; border:14px solid green;"">","null","","","","","","","","","",""
"","image-keyboard-response","232","102905","0.0-232.0","3HL8HNGX46NK7PKE1T6WLAD8CZB9F5","A1LRJ4U04532TM","3PEG1BH7AEDCPKTV9M6N3A4F0EHKBR","","225.69999998807907","img/land5.png","74","227","1","0","3","2","0.8,0.2,0.2,0.2,0.8,0.2,0.2,0.2,0.8","0.2,0.8,0.2,0.2,0.2,0.8,0.8,0.2,0.2","3","",""
"","html-keyboard-response","233","103218","0.0-233.0","3HL8HNGX46NK7PKE1T6WLAD8CZB9F5","A1LRJ4U04532TM","3PEG1BH7AEDCPKTV9M6N3A4F0EHKBR","","null","<img src=""img/land5.png"" style=""width:200px;border:14px solid red;"">","null","","","","","","","","","",""
"","image-keyboard-response","234","103260","0.0-234.0","3HL8HNGX46NK7PKE1T6WLAD8CZB9F5","A1LRJ4U04532TM","3PEG1BH7AEDCPKTV9M6N3A4F0EHKBR","","41.10000002384186","img/land5.png","74","42.09999996423721","1","1","3","2","0.8,0.2,0.2,0.2,0.8,0.2,0.2,0.2,0.8","0.2,0.8,0.2,0.2,0.2,0.8,0.8,0.2,0.2","3","",""
"","html-keyboard-response","235","103579","0.0-235.0","3HL8HNGX46NK7PKE1T6WLAD8CZB9F5","A1LRJ4U04532TM","3PEG1BH7AEDCPKTV9M6N3A4F0EHKBR","","null","<img src=""img/land5.png"" style=""width:200px; border:14px solid green;"">","null","","","","","","","","","",""
"","image-keyboard-response","236","104069","0.0-236.0","3HL8HNGX46NK7PKE1T6WLAD8CZB9F5","A1LRJ4U04532TM","3PEG1BH7AEDCPKTV9M6N3A4F0EHKBR","","489.30000001192093","img/land5.png","74","490.30000001192093","1","1","3","2","0.8,0.2,0.2,0.2,0.8,0.2,0.2,0.2,0.8","0.2,0.8,0.2,0.2,0.2,0.8,0.8,0.2,0.2","3","",""
"","html-keyboard-response","237","104384","0.0-237.0","3HL8HNGX46NK7PKE1T6WLAD8CZB9F5","A1LRJ4U04532TM","3PEG1BH7AEDCPKTV9M6N3A4F0EHKBR","","null","<img src=""img/land5.png"" style=""width:200px; border:14px solid green;"">","null","","","","","","","","","",""
"","image-keyboard-response","238","104719","0.0-238.0","3HL8HNGX46NK7PKE1T6WLAD8CZB9F5","A1LRJ4U04532TM","3PEG1BH7AEDCPKTV9M6N3A4F0EHKBR","","332.89999997615814","img/land4.png","75","334.69999998807907","2","1","1","2","0.8,0.2,0.2,0.2,0.8,0.2,0.2,0.2,0.8","0.2,0.8,0.2,0.2,0.2,0.8,0.8,0.2,0.2","3","",""
"","html-keyboard-response","239","105028","0.0-239.0","3HL8HNGX46NK7PKE1T6WLAD8CZB9F5","A1LRJ4U04532TM","3PEG1BH7AEDCPKTV9M6N3A4F0EHKBR","","null","<img src=""img/land4.png"" style=""width:200px; border:14px solid green;"">","null","","","","","","","","","",""
"","image-keyboard-response","240","105059","0.0-240.0","3HL8HNGX46NK7PKE1T6WLAD8CZB9F5","A1LRJ4U04532TM","3PEG1BH7AEDCPKTV9M6N3A4F0EHKBR","","27.5","img/land3.png","75","31.100000023841858","2","0","2","2","0.8,0.2,0.2,0.2,0.8,0.2,0.2,0.2,0.8","0.2,0.8,0.2,0.2,0.2,0.8,0.8,0.2,0.2","3","",""
"","html-keyboard-response","241","105372","0.0-241.0","3HL8HNGX46NK7PKE1T6WLAD8CZB9F5","A1LRJ4U04532TM","3PEG1BH7AEDCPKTV9M6N3A4F0EHKBR","","null","<img src=""img/land3.png"" style=""width:200px;border:14px solid red;"">","null","","","","","","","","","",""
"","image-keyboard-response","242","105671","0.0-242.0","3HL8HNGX46NK7PKE1T6WLAD8CZB9F5","A1LRJ4U04532TM","3PEG1BH7AEDCPKTV9M6N3A4F0EHKBR","","295.10000002384186","img/land5.png","76","298.80000001192093","3","0","3","2","0.8,0.2,0.2,0.2,0.8,0.2,0.2,0.2,0.8","0.2,0.8,0.2,0.2,0.2,0.8,0.8,0.2,0.2","3","",""
"","html-keyboard-response","243","105980","0.0-243.0","3HL8HNGX46NK7PKE1T6WLAD8CZB9F5","A1LRJ4U04532TM","3PEG1BH7AEDCPKTV9M6N3A4F0EHKBR","","null","<img src=""img/land5.png"" style=""width:200px;border:14px solid red;"">","null","","","","","","","","","",""
"","image-keyboard-response","244","106238","0.0-244.0","3HL8HNGX46NK7PKE1T6WLAD8CZB9F5","A1LRJ4U04532TM","3PEG1BH7AEDCPKTV9M6N3A4F0EHKBR","","257","img/land3.png","75","258","2","0","2","2","0.8,0.2,0.2,0.2,0.8,0.2,0.2,0.2,0.8","0.2,0.8,0.2,0.2,0.2,0.8,0.8,0.2,0.2","3","",""
"","html-keyboard-response","245","106541","0.0-245.0","3HL8HNGX46NK7PKE1T6WLAD8CZB9F5","A1LRJ4U04532TM","3PEG1BH7AEDCPKTV9M6N3A4F0EHKBR","","null","<img src=""img/land3.png"" style=""width:200px;border:14px solid red;"">","null","","","","","","","","","",""
"","image-keyboard-response","246","106590","0.0-246.0","3HL8HNGX46NK7PKE1T6WLAD8CZB9F5","A1LRJ4U04532TM","3PEG1BH7AEDCPKTV9M6N3A4F0EHKBR","","47.5","img/land5.png","75","48.30000001192093","2","0","3","2","0.8,0.2,0.2,0.2,0.8,0.2,0.2,0.2,0.8","0.2,0.8,0.2,0.2,0.2,0.8,0.8,0.2,0.2","3","",""
"","html-keyboard-response","247","106893","0.0-247.0","3HL8HNGX46NK7PKE1T6WLAD8CZB9F5","A1LRJ4U04532TM","3PEG1BH7AEDCPKTV9M6N3A4F0EHKBR","","null","<img src=""img/land5.png"" style=""width:200px;border:14px solid red;"">","null","","","","","","","","","",""
"","image-keyboard-response","248","107472","0.0-248.0","3HL8HNGX46NK7PKE1T6WLAD8CZB9F5","A1LRJ4U04532TM","3PEG1BH7AEDCPKTV9M6N3A4F0EHKBR","","577.6999999880791","img/land5.png","74","579.0999999642372","1","0","3","2","0.8,0.2,0.2,0.2,0.8,0.2,0.2,0.2,0.8","0.2,0.8,0.2,0.2,0.2,0.8,0.8,0.2,0.2","3","",""
"","html-keyboard-response","249","107776","0.0-249.0","3HL8HNGX46NK7PKE1T6WLAD8CZB9F5","A1LRJ4U04532TM","3PEG1BH7AEDCPKTV9M6N3A4F0EHKBR","","null","<img src=""img/land5.png"" style=""width:200px;border:14px solid red;"">","null","","","","","","","","","",""
"","image-keyboard-response","250","108001","0.0-250.0","3HL8HNGX46NK7PKE1T6WLAD8CZB9F5","A1LRJ4U04532TM","3PEG1BH7AEDCPKTV9M6N3A4F0EHKBR","","223.60000002384186","img/land4.png","75","224.5","2","1","1","2","0.8,0.2,0.2,0.2,0.8,0.2,0.2,0.2,0.8","0.2,0.8,0.2,0.2,0.2,0.8,0.8,0.2,0.2","3","",""
"","html-keyboard-response","251","108309","0.0-251.0","3HL8HNGX46NK7PKE1T6WLAD8CZB9F5","A1LRJ4U04532TM","3PEG1BH7AEDCPKTV9M6N3A4F0EHKBR","","null","<img src=""img/land4.png"" style=""width:200px; border:14px solid green;"">","null","","","","","","","","","",""
"","image-keyboard-response","252","108466","0.0-252.0","3HL8HNGX46NK7PKE1T6WLAD8CZB9F5","A1LRJ4U04532TM","3PEG1BH7AEDCPKTV9M6N3A4F0EHKBR","","155.30000001192093","img/land3.png","75","156.60000002384186","2","0","2","2","0.8,0.2,0.2,0.2,0.8,0.2,0.2,0.2,0.8","0.2,0.8,0.2,0.2,0.2,0.8,0.8,0.2,0.2","3","",""
"","html-keyboard-response","253","108768","0.0-253.0","3HL8HNGX46NK7PKE1T6WLAD8CZB9F5","A1LRJ4U04532TM","3PEG1BH7AEDCPKTV9M6N3A4F0EHKBR","","null","<img src=""img/land3.png"" style=""width:200px;border:14px solid red;"">","null","","","","","","","","","",""
"","image-keyboard-response","254","108805","0.0-254.0","3HL8HNGX46NK7PKE1T6WLAD8CZB9F5","A1LRJ4U04532TM","3PEG1BH7AEDCPKTV9M6N3A4F0EHKBR","","34.39999997615814","img/land4.png","75","35.89999997615814","2","0","1","2","0.8,0.2,0.2,0.2,0.8,0.2,0.2,0.2,0.8","0.2,0.8,0.2,0.2,0.2,0.8,0.8,0.2,0.2","3","",""
"","html-keyboard-response","255","109112","0.0-255.0","3HL8HNGX46NK7PKE1T6WLAD8CZB9F5","A1LRJ4U04532TM","3PEG1BH7AEDCPKTV9M6N3A4F0EHKBR","","null","<img src=""img/land4.png"" style=""width:200px;border:14px solid red;"">","null","","","","","","","","","",""
"","image-keyboard-response","256","109513","0.0-256.0","3HL8HNGX46NK7PKE1T6WLAD8CZB9F5","A1LRJ4U04532TM","3PEG1BH7AEDCPKTV9M6N3A4F0EHKBR","","399","img/land4.png","74","400.5","1","0","1","2","0.8,0.2,0.2,0.2,0.8,0.2,0.2,0.2,0.8","0.2,0.8,0.2,0.2,0.2,0.8,0.8,0.2,0.2","3","",""
"","html-keyboard-response","257","109820","0.0-257.0","3HL8HNGX46NK7PKE1T6WLAD8CZB9F5","A1LRJ4U04532TM","3PEG1BH7AEDCPKTV9M6N3A4F0EHKBR","","null","<img src=""img/land4.png"" style=""width:200px;border:14px solid red;"">","null","","","","","","","","","",""
"","image-keyboard-response","258","109980","0.0-258.0","3HL8HNGX46NK7PKE1T6WLAD8CZB9F5","A1LRJ4U04532TM","3PEG1BH7AEDCPKTV9M6N3A4F0EHKBR","","158.30000001192093","img/land4.png","74","159.80000001192093","1","0","1","2","0.8,0.2,0.2,0.2,0.8,0.2,0.2,0.2,0.8","0.2,0.8,0.2,0.2,0.2,0.8,0.8,0.2,0.2","3","",""
"","html-keyboard-response","259","110287","0.0-259.0","3HL8HNGX46NK7PKE1T6WLAD8CZB9F5","A1LRJ4U04532TM","3PEG1BH7AEDCPKTV9M6N3A4F0EHKBR","","null","<img src=""img/land4.png"" style=""width:200px;border:14px solid red;"">","null","","","","","","","","","",""
"","image-keyboard-response","260","110374","0.0-260.0","3HL8HNGX46NK7PKE1T6WLAD8CZB9F5","A1LRJ4U04532TM","3PEG1BH7AEDCPKTV9M6N3A4F0EHKBR","","85.19999998807907","img/land3.png","74","86.39999997615814","1","1","2","2","0.8,0.2,0.2,0.2,0.8,0.2,0.2,0.2,0.8","0.2,0.8,0.2,0.2,0.2,0.8,0.8,0.2,0.2","3","",""
"","html-keyboard-response","261","110683","0.0-261.0","3HL8HNGX46NK7PKE1T6WLAD8CZB9F5","A1LRJ4U04532TM","3PEG1BH7AEDCPKTV9M6N3A4F0EHKBR","","null","<img src=""img/land3.png"" style=""width:200px; border:14px solid green;"">","null","","","","","","","","","",""
"","image-keyboard-response","262","110854","0.0-262.0","3HL8HNGX46NK7PKE1T6WLAD8CZB9F5","A1LRJ4U04532TM","3PEG1BH7AEDCPKTV9M6N3A4F0EHKBR","","169.19999998807907","img/land4.png","75","170.60000002384186","2","1","1","2","0.8,0.2,0.2,0.2,0.8,0.2,0.2,0.2,0.8","0.2,0.8,0.2,0.2,0.2,0.8,0.8,0.2,0.2","3","",""
"","html-keyboard-response","263","111158","0.0-263.0","3HL8HNGX46NK7PKE1T6WLAD8CZB9F5","A1LRJ4U04532TM","3PEG1BH7AEDCPKTV9M6N3A4F0EHKBR","","null","<img src=""img/land4.png"" style=""width:200px; border:14px solid green;"">","null","","","","","","","","","",""
"","image-keyboard-response","264","111671","0.0-264.0","3HL8HNGX46NK7PKE1T6WLAD8CZB9F5","A1LRJ4U04532TM","3PEG1BH7AEDCPKTV9M6N3A4F0EHKBR","","511.4000000357628","img/land3.png","76","512.3000000119209","3","1","2","2","0.8,0.2,0.2,0.2,0.8,0.2,0.2,0.2,0.8","0.2,0.8,0.2,0.2,0.2,0.8,0.8,0.2,0.2","3","",""
"","html-keyboard-response","265","111975","0.0-265.0","3HL8HNGX46NK7PKE1T6WLAD8CZB9F5","A1LRJ4U04532TM","3PEG1BH7AEDCPKTV9M6N3A4F0EHKBR","","null","<img src=""img/land3.png"" style=""width:200px; border:14px solid green;"">","null","","","","","","","","","",""
"","image-keyboard-response","266","112059","0.0-266.0","3HL8HNGX46NK7PKE1T6WLAD8CZB9F5","A1LRJ4U04532TM","3PEG1BH7AEDCPKTV9M6N3A4F0EHKBR","","82.59999996423721","img/land3.png","76","84","3","1","2","2","0.8,0.2,0.2,0.2,0.8,0.2,0.2,0.2,0.8","0.2,0.8,0.2,0.2,0.2,0.8,0.8,0.2,0.2","3","",""
"","html-keyboard-response","267","112369","0.0-267.0","3HL8HNGX46NK7PKE1T6WLAD8CZB9F5","A1LRJ4U04532TM","3PEG1BH7AEDCPKTV9M6N3A4F0EHKBR","","null","<img src=""img/land3.png"" style=""width:200px; border:14px solid green;"">","null","","","","","","","","","",""
"","image-keyboard-response","268","112439","0.0-268.0","3HL8HNGX46NK7PKE1T6WLAD8CZB9F5","A1LRJ4U04532TM","3PEG1BH7AEDCPKTV9M6N3A4F0EHKBR","","69.19999998807907","img/land4.png","76","70.39999997615814","3","0","1","2","0.8,0.2,0.2,0.2,0.8,0.2,0.2,0.2,0.8","0.2,0.8,0.2,0.2,0.2,0.8,0.8,0.2,0.2","3","",""
"","html-keyboard-response","269","112745","0.0-269.0","3HL8HNGX46NK7PKE1T6WLAD8CZB9F5","A1LRJ4U04532TM","3PEG1BH7AEDCPKTV9M6N3A4F0EHKBR","","null","<img src=""img/land4.png"" style=""width:200px;border:14px solid red;"">","null","","","","","","","","","",""
"","image-keyboard-response","270","112865","0.0-270.0","3HL8HNGX46NK7PKE1T6WLAD8CZB9F5","A1LRJ4U04532TM","3PEG1BH7AEDCPKTV9M6N3A4F0EHKBR","","118.19999998807907","img/land4.png","76","119.80000001192093","3","0","1","2","0.8,0.2,0.2,0.2,0.8,0.2,0.2,0.2,0.8","0.2,0.8,0.2,0.2,0.2,0.8,0.8,0.2,0.2","3","",""
"","html-keyboard-response","271","113176","0.0-271.0","3HL8HNGX46NK7PKE1T6WLAD8CZB9F5","A1LRJ4U04532TM","3PEG1BH7AEDCPKTV9M6N3A4F0EHKBR","","null","<img src=""img/land4.png"" style=""width:200px;border:14px solid red;"">","null","","","","","","","","","",""
"","image-keyboard-response","272","113350","0.0-272.0","3HL8HNGX46NK7PKE1T6WLAD8CZB9F5","A1LRJ4U04532TM","3PEG1BH7AEDCPKTV9M6N3A4F0EHKBR","","172.80000001192093","img/land4.png","76","174.19999998807907","3","0","1","2","0.8,0.2,0.2,0.2,0.8,0.2,0.2,0.2,0.8","0.2,0.8,0.2,0.2,0.2,0.8,0.8,0.2,0.2","3","",""
"","html-keyboard-response","273","113659","0.0-273.0","3HL8HNGX46NK7PKE1T6WLAD8CZB9F5","A1LRJ4U04532TM","3PEG1BH7AEDCPKTV9M6N3A4F0EHKBR","","null","<img src=""img/land4.png"" style=""width:200px;border:14px solid red;"">","null","","","","","","","","","",""
"","image-keyboard-response","274","113729","0.0-274.0","3HL8HNGX46NK7PKE1T6WLAD8CZB9F5","A1LRJ4U04532TM","3PEG1BH7AEDCPKTV9M6N3A4F0EHKBR","","68.39999997615814","img/land4.png","75","69.69999998807907","2","1","1","2","0.8,0.2,0.2,0.2,0.8,0.2,0.2,0.2,0.8","0.2,0.8,0.2,0.2,0.2,0.8,0.8,0.2,0.2","3","",""
"","html-keyboard-response","275","114035","0.0-275.0","3HL8HNGX46NK7PKE1T6WLAD8CZB9F5","A1LRJ4U04532TM","3PEG1BH7AEDCPKTV9M6N3A4F0EHKBR","","null","<img src=""img/land4.png"" style=""width:200px; border:14px solid green;"">","null","","","","","","","","","",""
"","image-keyboard-response","276","114348","0.0-276.0","3HL8HNGX46NK7PKE1T6WLAD8CZB9F5","A1LRJ4U04532TM","3PEG1BH7AEDCPKTV9M6N3A4F0EHKBR","","310.5999999642372","img/land3.png","74","312.39999997615814","1","1","2","2","0.8,0.2,0.2,0.2,0.8,0.2,0.2,0.2,0.8","0.2,0.8,0.2,0.2,0.2,0.8,0.8,0.2,0.2","3","",""
"","html-keyboard-response","277","114656","0.0-277.0","3HL8HNGX46NK7PKE1T6WLAD8CZB9F5","A1LRJ4U04532TM","3PEG1BH7AEDCPKTV9M6N3A4F0EHKBR","","null","<img src=""img/land3.png"" style=""width:200px; border:14px solid green;"">","null","","","","","","","","","",""
"","image-keyboard-response","278","114809","0.0-278.0","3HL8HNGX46NK7PKE1T6WLAD8CZB9F5","A1LRJ4U04532TM","3PEG1BH7AEDCPKTV9M6N3A4F0EHKBR","","151.4000000357628","img/land4.png","75","152.80000001192093","2","1","1","2","0.8,0.2,0.2,0.2,0.8,0.2,0.2,0.2,0.8","0.2,0.8,0.2,0.2,0.2,0.8,0.8,0.2,0.2","3","",""
"","html-keyboard-response","279","115120","0.0-279.0","3HL8HNGX46NK7PKE1T6WLAD8CZB9F5","A1LRJ4U04532TM","3PEG1BH7AEDCPKTV9M6N3A4F0EHKBR","","null","<img src=""img/land4.png"" style=""width:200px; border:14px solid green;"">","null","","","","","","","","","",""
"","image-keyboard-response","280","115151","0.0-280.0","3HL8HNGX46NK7PKE1T6WLAD8CZB9F5","A1LRJ4U04532TM","3PEG1BH7AEDCPKTV9M6N3A4F0EHKBR","","29.599999964237213","img/land4.png","75","31","2","1","1","2","0.8,0.2,0.2,0.2,0.8,0.2,0.2,0.2,0.8","0.2,0.8,0.2,0.2,0.2,0.8,0.8,0.2,0.2","3","",""
"","html-keyboard-response","281","115457","0.0-281.0","3HL8HNGX46NK7PKE1T6WLAD8CZB9F5","A1LRJ4U04532TM","3PEG1BH7AEDCPKTV9M6N3A4F0EHKBR","","null","<img src=""img/land4.png"" style=""width:200px; border:14px solid green;"">","null","","","","","","","","","",""
"","image-keyboard-response","282","115533","0.0-282.0","3HL8HNGX46NK7PKE1T6WLAD8CZB9F5","A1LRJ4U04532TM","3PEG1BH7AEDCPKTV9M6N3A4F0EHKBR","","73.5","img/land3.png","76","74.80000001192093","3","1","2","2","0.8,0.2,0.2,0.2,0.8,0.2,0.2,0.2,0.8","0.2,0.8,0.2,0.2,0.2,0.8,0.8,0.2,0.2","3","",""
"","html-keyboard-response","283","115848","0.0-283.0","3HL8HNGX46NK7PKE1T6WLAD8CZB9F5","A1LRJ4U04532TM","3PEG1BH7AEDCPKTV9M6N3A4F0EHKBR","","null","<img src=""img/land3.png"" style=""width:200px; border:14px solid green;"">","null","","","","","","","","","",""
"","image-keyboard-response","284","115978","0.0-284.0","3HL8HNGX46NK7PKE1T6WLAD8CZB9F5","A1LRJ4U04532TM","3PEG1BH7AEDCPKTV9M6N3A4F0EHKBR","","127.30000001192093","img/land5.png","74","129.30000001192093","1","1","3","2","0.8,0.2,0.2,0.2,0.8,0.2,0.2,0.2,0.8","0.2,0.8,0.2,0.2,0.2,0.8,0.8,0.2,0.2","3","",""
"","html-keyboard-response","285","116288","0.0-285.0","3HL8HNGX46NK7PKE1T6WLAD8CZB9F5","A1LRJ4U04532TM","3PEG1BH7AEDCPKTV9M6N3A4F0EHKBR","","null","<img src=""img/land5.png"" style=""width:200px; border:14px solid green;"">","null","","","","","","","","","",""
"","image-keyboard-response","286","116375","0.0-286.0","3HL8HNGX46NK7PKE1T6WLAD8CZB9F5","A1LRJ4U04532TM","3PEG1BH7AEDCPKTV9M6N3A4F0EHKBR","","86.30000001192093","img/land4.png","74","87.60000002384186","1","0","1","2","0.8,0.2,0.2,0.2,0.8,0.2,0.2,0.2,0.8","0.2,0.8,0.2,0.2,0.2,0.8,0.8,0.2,0.2","3","",""
"","html-keyboard-response","287","116690","0.0-287.0","3HL8HNGX46NK7PKE1T6WLAD8CZB9F5","A1LRJ4U04532TM","3PEG1BH7AEDCPKTV9M6N3A4F0EHKBR","","null","<img src=""img/land4.png"" style=""width:200px;border:14px solid red;"">","null","","","","","","","","","",""
"","image-keyboard-response","288","116736","0.0-288.0","3HL8HNGX46NK7PKE1T6WLAD8CZB9F5","A1LRJ4U04532TM","3PEG1BH7AEDCPKTV9M6N3A4F0EHKBR","","44.80000001192093","img/land4.png","74","46","1","0","1","2","0.8,0.2,0.2,0.2,0.8,0.2,0.2,0.2,0.8","0.2,0.8,0.2,0.2,0.2,0.8,0.8,0.2,0.2","3","",""
"","html-keyboard-response","289","117043","0.0-289.0","3HL8HNGX46NK7PKE1T6WLAD8CZB9F5","A1LRJ4U04532TM","3PEG1BH7AEDCPKTV9M6N3A4F0EHKBR","","null","<img src=""img/land4.png"" style=""width:200px;border:14px solid red;"">","null","","","","","","","","","",""
"","image-keyboard-response","290","117203","0.0-290.0","3HL8HNGX46NK7PKE1T6WLAD8CZB9F5","A1LRJ4U04532TM","3PEG1BH7AEDCPKTV9M6N3A4F0EHKBR","","158.19999998807907","img/land3.png","74","159.5","1","0","2","2","0.8,0.2,0.2,0.2,0.8,0.2,0.2,0.2,0.8","0.2,0.8,0.2,0.2,0.2,0.8,0.8,0.2,0.2","3","",""
"","html-keyboard-response","291","117519","0.0-291.0","3HL8HNGX46NK7PKE1T6WLAD8CZB9F5","A1LRJ4U04532TM","3PEG1BH7AEDCPKTV9M6N3A4F0EHKBR","","null","<img src=""img/land3.png"" style=""width:200px;border:14px solid red;"">","null","","","","","","","","","",""
"","image-keyboard-response","292","117703","0.0-292.0","3HL8HNGX46NK7PKE1T6WLAD8CZB9F5","A1LRJ4U04532TM","3PEG1BH7AEDCPKTV9M6N3A4F0EHKBR","","181.5","img/land4.png","75","183.10000002384186","2","1","1","2","0.8,0.2,0.2,0.2,0.8,0.2,0.2,0.2,0.8","0.2,0.8,0.2,0.2,0.2,0.8,0.8,0.2,0.2","3","",""
"","html-keyboard-response","293","118013","0.0-293.0","3HL8HNGX46NK7PKE1T6WLAD8CZB9F5","A1LRJ4U04532TM","3PEG1BH7AEDCPKTV9M6N3A4F0EHKBR","","null","<img src=""img/land4.png"" style=""width:200px; border:14px solid green;"">","null","","","","","","","","","",""
"","image-keyboard-response","294","118388","0.0-294.0","3HL8HNGX46NK7PKE1T6WLAD8CZB9F5","A1LRJ4U04532TM","3PEG1BH7AEDCPKTV9M6N3A4F0EHKBR","","372.19999998807907","img/land3.png","75","374","2","0","2","2","0.8,0.2,0.2,0.2,0.8,0.2,0.2,0.2,0.8","0.2,0.8,0.2,0.2,0.2,0.8,0.8,0.2,0.2","3","",""
"","html-keyboard-response","295","118697","0.0-295.0","3HL8HNGX46NK7PKE1T6WLAD8CZB9F5","A1LRJ4U04532TM","3PEG1BH7AEDCPKTV9M6N3A4F0EHKBR","","null","<img src=""img/land3.png"" style=""width:200px;border:14px solid red;"">","null","","","","","","","","","",""
"","image-keyboard-response","296","119026","0.0-296.0","3HL8HNGX46NK7PKE1T6WLAD8CZB9F5","A1LRJ4U04532TM","3PEG1BH7AEDCPKTV9M6N3A4F0EHKBR","","328","img/land4.png","76","329.5","3","1","1","2","0.8,0.2,0.2,0.2,0.8,0.2,0.2,0.2,0.8","0.2,0.8,0.2,0.2,0.2,0.8,0.8,0.2,0.2","3","",""
"","html-keyboard-response","297","119330","0.0-297.0","3HL8HNGX46NK7PKE1T6WLAD8CZB9F5","A1LRJ4U04532TM","3PEG1BH7AEDCPKTV9M6N3A4F0EHKBR","","null","<img src=""img/land4.png"" style=""width:200px; border:14px solid green;"">","null","","","","","","","","","",""
"","image-keyboard-response","298","119388","0.0-298.0","3HL8HNGX46NK7PKE1T6WLAD8CZB9F5","A1LRJ4U04532TM","3PEG1BH7AEDCPKTV9M6N3A4F0EHKBR","","56.60000002384186","img/land4.png","76","57.89999997615814","3","1","1","2","0.8,0.2,0.2,0.2,0.8,0.2,0.2,0.2,0.8","0.2,0.8,0.2,0.2,0.2,0.8,0.8,0.2,0.2","3","",""
"","html-keyboard-response","299","119698","0.0-299.0","3HL8HNGX46NK7PKE1T6WLAD8CZB9F5","A1LRJ4U04532TM","3PEG1BH7AEDCPKTV9M6N3A4F0EHKBR","","null","<img src=""img/land4.png"" style=""width:200px; border:14px solid green;"">","null","","","","","","","","","",""
"","image-keyboard-response","300","119766","0.0-300.0","3HL8HNGX46NK7PKE1T6WLAD8CZB9F5","A1LRJ4U04532TM","3PEG1BH7AEDCPKTV9M6N3A4F0EHKBR","","66.19999998807907","img/land4.png","76","67.30000001192093","3","1","1","2","0.8,0.2,0.2,0.2,0.8,0.2,0.2,0.2,0.8","0.2,0.8,0.2,0.2,0.2,0.8,0.8,0.2,0.2","3","",""
"","html-keyboard-response","301","120067","0.0-301.0","3HL8HNGX46NK7PKE1T6WLAD8CZB9F5","A1LRJ4U04532TM","3PEG1BH7AEDCPKTV9M6N3A4F0EHKBR","","null","<img src=""img/land4.png"" style=""width:200px; border:14px solid green;"">","null","","","","","","","","","",""
"","image-keyboard-response","302","120099","0.0-302.0","3HL8HNGX46NK7PKE1T6WLAD8CZB9F5","A1LRJ4U04532TM","3PEG1BH7AEDCPKTV9M6N3A4F0EHKBR","","29.600000023841858","img/land1.png","76","30.899999976158142","3","1","1","1","0.8,0.2,0.2,0.2,0.8,0.2,0.2,0.2,0.8","0.8,0.2,0.2,0.2,0.8,0.2,0.2,0.2,0.8","1","",""
"","html-keyboard-response","303","120402","0.0-303.0","3HL8HNGX46NK7PKE1T6WLAD8CZB9F5","A1LRJ4U04532TM","3PEG1BH7AEDCPKTV9M6N3A4F0EHKBR","","null","<img src=""img/land1.png"" style=""width:200px; border:14px solid green;"">","null","","","","","","","","","",""
"","image-keyboard-response","304","120561","0.0-304.0","3HL8HNGX46NK7PKE1T6WLAD8CZB9F5","A1LRJ4U04532TM","3PEG1BH7AEDCPKTV9M6N3A4F0EHKBR","","156.0999999642372","img/land2.png","74","158.5999999642372","1","0","3","1","0.8,0.2,0.2,0.2,0.8,0.2,0.2,0.2,0.8","0.8,0.2,0.2,0.2,0.8,0.2,0.2,0.2,0.8","1","",""
"","html-keyboard-response","305","120866","0.0-305.0","3HL8HNGX46NK7PKE1T6WLAD8CZB9F5","A1LRJ4U04532TM","3PEG1BH7AEDCPKTV9M6N3A4F0EHKBR","","null","<img src=""img/land2.png"" style=""width:200px;border:14px solid red;"">","null","","","","","","","","","",""
"","image-keyboard-response","306","121179","0.0-306.0","3HL8HNGX46NK7PKE1T6WLAD8CZB9F5","A1LRJ4U04532TM","3PEG1BH7AEDCPKTV9M6N3A4F0EHKBR","","311.5","img/land1.png","76","313","3","1","1","1","0.8,0.2,0.2,0.2,0.8,0.2,0.2,0.2,0.8","0.8,0.2,0.2,0.2,0.8,0.2,0.2,0.2,0.8","1","",""
"","html-keyboard-response","307","121497","0.0-307.0","3HL8HNGX46NK7PKE1T6WLAD8CZB9F5","A1LRJ4U04532TM","3PEG1BH7AEDCPKTV9M6N3A4F0EHKBR","","null","<img src=""img/land1.png"" style=""width:200px; border:14px solid green;"">","null","","","","","","","","","",""
"","image-keyboard-response","308","121764","0.0-308.0","3HL8HNGX46NK7PKE1T6WLAD8CZB9F5","A1LRJ4U04532TM","3PEG1BH7AEDCPKTV9M6N3A4F0EHKBR","","265.2999999523163","img/land1.png","76","266.5999999642372","3","0","1","1","0.8,0.2,0.2,0.2,0.8,0.2,0.2,0.2,0.8","0.8,0.2,0.2,0.2,0.8,0.2,0.2,0.2,0.8","1","",""
"","html-keyboard-response","309","122081","0.0-309.0","3HL8HNGX46NK7PKE1T6WLAD8CZB9F5","A1LRJ4U04532TM","3PEG1BH7AEDCPKTV9M6N3A4F0EHKBR","","null","<img src=""img/land1.png"" style=""width:200px;border:14px solid red;"">","null","","","","","","","","","",""
"","image-keyboard-response","310","122100","0.0-310.0","3HL8HNGX46NK7PKE1T6WLAD8CZB9F5","A1LRJ4U04532TM","3PEG1BH7AEDCPKTV9M6N3A4F0EHKBR","","18","img/land6.png","76","18.700000047683716","3","0","2","1","0.8,0.2,0.2,0.2,0.8,0.2,0.2,0.2,0.8","0.8,0.2,0.2,0.2,0.8,0.2,0.2,0.2,0.8","1","",""
"","html-keyboard-response","311","122403","0.0-311.0","3HL8HNGX46NK7PKE1T6WLAD8CZB9F5","A1LRJ4U04532TM","3PEG1BH7AEDCPKTV9M6N3A4F0EHKBR","","null","<img src=""img/land6.png"" style=""width:200px;border:14px solid red;"">","null","","","","","","","","","",""
"","image-keyboard-response","312","122468","0.0-312.0","3HL8HNGX46NK7PKE1T6WLAD8CZB9F5","A1LRJ4U04532TM","3PEG1BH7AEDCPKTV9M6N3A4F0EHKBR","","63.60000002384186","img/land1.png","74","64.69999998807907","1","1","1","1","0.8,0.2,0.2,0.2,0.8,0.2,0.2,0.2,0.8","0.8,0.2,0.2,0.2,0.8,0.2,0.2,0.2,0.8","1","",""
"","html-keyboard-response","313","122773","0.0-313.0","3HL8HNGX46NK7PKE1T6WLAD8CZB9F5","A1LRJ4U04532TM","3PEG1BH7AEDCPKTV9M6N3A4F0EHKBR","","null","<img src=""img/land1.png"" style=""width:200px; border:14px solid green;"">","null","","","","","","","","","",""
"","image-keyboard-response","314","122805","0.0-314.0","3HL8HNGX46NK7PKE1T6WLAD8CZB9F5","A1LRJ4U04532TM","3PEG1BH7AEDCPKTV9M6N3A4F0EHKBR","","30.399999976158142","img/land1.png","74","31.69999998807907","1","1","1","1","0.8,0.2,0.2,0.2,0.8,0.2,0.2,0.2,0.8","0.8,0.2,0.2,0.2,0.8,0.2,0.2,0.2,0.8","1","",""
"","html-keyboard-response","315","123114","0.0-315.0","3HL8HNGX46NK7PKE1T6WLAD8CZB9F5","A1LRJ4U04532TM","3PEG1BH7AEDCPKTV9M6N3A4F0EHKBR","","null","<img src=""img/land1.png"" style=""width:200px; border:14px solid green;"">","null","","","","","","","","","",""
"","image-keyboard-response","316","123143","0.0-316.0","3HL8HNGX46NK7PKE1T6WLAD8CZB9F5","A1LRJ4U04532TM","3PEG1BH7AEDCPKTV9M6N3A4F0EHKBR","","27.30000001192093","img/land6.png","74","28.599999964237213","1","0","2","1","0.8,0.2,0.2,0.2,0.8,0.2,0.2,0.2,0.8","0.8,0.2,0.2,0.2,0.8,0.2,0.2,0.2,0.8","1","",""
"","html-keyboard-response","317","123449","0.0-317.0","3HL8HNGX46NK7PKE1T6WLAD8CZB9F5","A1LRJ4U04532TM","3PEG1BH7AEDCPKTV9M6N3A4F0EHKBR","","null","<img src=""img/land6.png"" style=""width:200px;border:14px solid red;"">","null","","","","","","","","","",""
"","image-keyboard-response","318","123595","0.0-318.0","3HL8HNGX46NK7PKE1T6WLAD8CZB9F5","A1LRJ4U04532TM","3PEG1BH7AEDCPKTV9M6N3A4F0EHKBR","","144","img/land2.png","75","145.39999997615814","2","0","3","1","0.8,0.2,0.2,0.2,0.8,0.2,0.2,0.2,0.8","0.8,0.2,0.2,0.2,0.8,0.2,0.2,0.2,0.8","1","",""
"","html-keyboard-response","319","123898","0.0-319.0","3HL8HNGX46NK7PKE1T6WLAD8CZB9F5","A1LRJ4U04532TM","3PEG1BH7AEDCPKTV9M6N3A4F0EHKBR","","null","<img src=""img/land2.png"" style=""width:200px;border:14px solid red;"">","null","","","","","","","","","",""
"","image-keyboard-response","320","124343","0.0-320.0","3HL8HNGX46NK7PKE1T6WLAD8CZB9F5","A1LRJ4U04532TM","3PEG1BH7AEDCPKTV9M6N3A4F0EHKBR","","443.89999997615814","img/land6.png","74","444.5999999642372","1","0","2","1","0.8,0.2,0.2,0.2,0.8,0.2,0.2,0.2,0.8","0.8,0.2,0.2,0.2,0.8,0.2,0.2,0.2,0.8","1","",""
"","html-keyboard-response","321","124653","0.0-321.0","3HL8HNGX46NK7PKE1T6WLAD8CZB9F5","A1LRJ4U04532TM","3PEG1BH7AEDCPKTV9M6N3A4F0EHKBR","","null","<img src=""img/land6.png"" style=""width:200px;border:14px solid red;"">","null","","","","","","","","","",""
"","image-keyboard-response","322","124958","0.0-322.0","3HL8HNGX46NK7PKE1T6WLAD8CZB9F5","A1LRJ4U04532TM","3PEG1BH7AEDCPKTV9M6N3A4F0EHKBR","","302.5","img/land6.png","74","304.2000000476837","1","0","2","1","0.8,0.2,0.2,0.2,0.8,0.2,0.2,0.2,0.8","0.8,0.2,0.2,0.2,0.8,0.2,0.2,0.2,0.8","1","",""
"","html-keyboard-response","323","125270","0.0-323.0","3HL8HNGX46NK7PKE1T6WLAD8CZB9F5","A1LRJ4U04532TM","3PEG1BH7AEDCPKTV9M6N3A4F0EHKBR","","null","<img src=""img/land6.png"" style=""width:200px;border:14px solid red;"">","null","","","","","","","","","",""
"","image-keyboard-response","324","125422","0.0-324.0","3HL8HNGX46NK7PKE1T6WLAD8CZB9F5","A1LRJ4U04532TM","3PEG1BH7AEDCPKTV9M6N3A4F0EHKBR","","150.69999998807907","img/land6.png","76","152.0999999642372","3","0","2","1","0.8,0.2,0.2,0.2,0.8,0.2,0.2,0.2,0.8","0.8,0.2,0.2,0.2,0.8,0.2,0.2,0.2,0.8","1","",""
"","html-keyboard-response","325","125731","0.0-325.0","3HL8HNGX46NK7PKE1T6WLAD8CZB9F5","A1LRJ4U04532TM","3PEG1BH7AEDCPKTV9M6N3A4F0EHKBR","","null","<img src=""img/land6.png"" style=""width:200px;border:14px solid red;"">","null","","","","","","","","","",""
"","image-keyboard-response","326","125736","0.0-326.0","3HL8HNGX46NK7PKE1T6WLAD8CZB9F5","A1LRJ4U04532TM","3PEG1BH7AEDCPKTV9M6N3A4F0EHKBR","","4","img/land6.png","76","5.299999952316284","3","0","2","1","0.8,0.2,0.2,0.2,0.8,0.2,0.2,0.2,0.8","0.8,0.2,0.2,0.2,0.8,0.2,0.2,0.2,0.8","1","",""
"","html-keyboard-response","327","126042","0.0-327.0","3HL8HNGX46NK7PKE1T6WLAD8CZB9F5","A1LRJ4U04532TM","3PEG1BH7AEDCPKTV9M6N3A4F0EHKBR","","null","<img src=""img/land6.png"" style=""width:200px;border:14px solid red;"">","null","","","","","","","","","",""
"","image-keyboard-response","328","126160","0.0-328.0","3HL8HNGX46NK7PKE1T6WLAD8CZB9F5","A1LRJ4U04532TM","3PEG1BH7AEDCPKTV9M6N3A4F0EHKBR","","115.60000002384186","img/land1.png","76","117.80000001192093","3","1","1","1","0.8,0.2,0.2,0.2,0.8,0.2,0.2,0.2,0.8","0.8,0.2,0.2,0.2,0.8,0.2,0.2,0.2,0.8","1","",""
"","html-keyboard-response","329","126467","0.0-329.0","3HL8HNGX46NK7PKE1T6WLAD8CZB9F5","A1LRJ4U04532TM","3PEG1BH7AEDCPKTV9M6N3A4F0EHKBR","","null","<img src=""img/land1.png"" style=""width:200px; border:14px solid green;"">","null","","","","","","","","","",""
"","image-keyboard-response","330","126828","0.0-330.0","3HL8HNGX46NK7PKE1T6WLAD8CZB9F5","A1LRJ4U04532TM","3PEG1BH7AEDCPKTV9M6N3A4F0EHKBR","","359.89999997615814","img/land2.png","76","360.89999997615814","3","1","3","1","0.8,0.2,0.2,0.2,0.8,0.2,0.2,0.2,0.8","0.8,0.2,0.2,0.2,0.8,0.2,0.2,0.2,0.8","1","",""
"","html-keyboard-response","331","127140","0.0-331.0","3HL8HNGX46NK7PKE1T6WLAD8CZB9F5","A1LRJ4U04532TM","3PEG1BH7AEDCPKTV9M6N3A4F0EHKBR","","null","<img src=""img/land2.png"" style=""width:200px; border:14px solid green;"">","null","","","","","","","","","",""
"","image-keyboard-response","332","127586","0.0-332.0","3HL8HNGX46NK7PKE1T6WLAD8CZB9F5","A1LRJ4U04532TM","3PEG1BH7AEDCPKTV9M6N3A4F0EHKBR","","443.9000000357628","img/land1.png","75","445.4000000357628","2","0","1","1","0.8,0.2,0.2,0.2,0.8,0.2,0.2,0.2,0.8","0.8,0.2,0.2,0.2,0.8,0.2,0.2,0.2,0.8","1","",""
"","html-keyboard-response","333","127901","0.0-333.0","3HL8HNGX46NK7PKE1T6WLAD8CZB9F5","A1LRJ4U04532TM","3PEG1BH7AEDCPKTV9M6N3A4F0EHKBR","","null","<img src=""img/land1.png"" style=""width:200px;border:14px solid red;"">","null","","","","","","","","","",""
"","image-keyboard-response","334","127947","0.0-334.0","3HL8HNGX46NK7PKE1T6WLAD8CZB9F5","A1LRJ4U04532TM","3PEG1BH7AEDCPKTV9M6N3A4F0EHKBR","","44.89999997615814","img/land1.png","75","46.09999996423721","2","0","1","1","0.8,0.2,0.2,0.2,0.8,0.2,0.2,0.2,0.8","0.8,0.2,0.2,0.2,0.8,0.2,0.2,0.2,0.8","1","",""
"","html-keyboard-response","335","128250","0.0-335.0","3HL8HNGX46NK7PKE1T6WLAD8CZB9F5","A1LRJ4U04532TM","3PEG1BH7AEDCPKTV9M6N3A4F0EHKBR","","null","<img src=""img/land1.png"" style=""width:200px;border:14px solid red;"">","null","","","","","","","","","",""
"","image-keyboard-response","336","128475","0.0-336.0","3HL8HNGX46NK7PKE1T6WLAD8CZB9F5","A1LRJ4U04532TM","3PEG1BH7AEDCPKTV9M6N3A4F0EHKBR","","222.10000002384186","img/land2.png","76","223.69999998807907","3","1","3","1","0.8,0.2,0.2,0.2,0.8,0.2,0.2,0.2,0.8","0.8,0.2,0.2,0.2,0.8,0.2,0.2,0.2,0.8","1","",""
"","html-keyboard-response","337","128777","0.0-337.0","3HL8HNGX46NK7PKE1T6WLAD8CZB9F5","A1LRJ4U04532TM","3PEG1BH7AEDCPKTV9M6N3A4F0EHKBR","","null","<img src=""img/land2.png"" style=""width:200px; border:14px solid green;"">","null","","","","","","","","","",""
"","image-keyboard-response","338","128911","0.0-338.0","3HL8HNGX46NK7PKE1T6WLAD8CZB9F5","A1LRJ4U04532TM","3PEG1BH7AEDCPKTV9M6N3A4F0EHKBR","","132.79999995231628","img/land2.png","74","134.30000001192093","1","0","3","1","0.8,0.2,0.2,0.2,0.8,0.2,0.2,0.2,0.8","0.8,0.2,0.2,0.2,0.8,0.2,0.2,0.2,0.8","1","",""
"","html-keyboard-response","339","129217","0.0-339.0","3HL8HNGX46NK7PKE1T6WLAD8CZB9F5","A1LRJ4U04532TM","3PEG1BH7AEDCPKTV9M6N3A4F0EHKBR","","null","<img src=""img/land2.png"" style=""width:200px;border:14px solid red;"">","null","","","","","","","","","",""
"","image-keyboard-response","340","129427","0.0-340.0","3HL8HNGX46NK7PKE1T6WLAD8CZB9F5","A1LRJ4U04532TM","3PEG1BH7AEDCPKTV9M6N3A4F0EHKBR","","208.89999997615814","img/land6.png","76","210.19999998807907","3","0","2","1","0.8,0.2,0.2,0.2,0.8,0.2,0.2,0.2,0.8","0.8,0.2,0.2,0.2,0.8,0.2,0.2,0.2,0.8","1","",""
"","html-keyboard-response","341","129730","0.0-341.0","3HL8HNGX46NK7PKE1T6WLAD8CZB9F5","A1LRJ4U04532TM","3PEG1BH7AEDCPKTV9M6N3A4F0EHKBR","","null","<img src=""img/land6.png"" style=""width:200px;border:14px solid red;"">","null","","","","","","","","","",""
"","image-keyboard-response","342","130279","0.0-342.0","3HL8HNGX46NK7PKE1T6WLAD8CZB9F5","A1LRJ4U04532TM","3PEG1BH7AEDCPKTV9M6N3A4F0EHKBR","","547.5","img/land2.png","75","548.6000000238419","2","0","3","1","0.8,0.2,0.2,0.2,0.8,0.2,0.2,0.2,0.8","0.8,0.2,0.2,0.2,0.8,0.2,0.2,0.2,0.8","1","",""
"","html-keyboard-response","343","130587","0.0-343.0","3HL8HNGX46NK7PKE1T6WLAD8CZB9F5","A1LRJ4U04532TM","3PEG1BH7AEDCPKTV9M6N3A4F0EHKBR","","null","<img src=""img/land2.png"" style=""width:200px;border:14px solid red;"">","null","","","","","","","","","",""
"","image-keyboard-response","344","130689","0.0-344.0","3HL8HNGX46NK7PKE1T6WLAD8CZB9F5","A1LRJ4U04532TM","3PEG1BH7AEDCPKTV9M6N3A4F0EHKBR","","101.39999997615814","img/land1.png","75","102.69999998807907","2","0","1","1","0.8,0.2,0.2,0.2,0.8,0.2,0.2,0.2,0.8","0.8,0.2,0.2,0.2,0.8,0.2,0.2,0.2,0.8","1","",""
"","html-keyboard-response","345","130993","0.0-345.0","3HL8HNGX46NK7PKE1T6WLAD8CZB9F5","A1LRJ4U04532TM","3PEG1BH7AEDCPKTV9M6N3A4F0EHKBR","","null","<img src=""img/land1.png"" style=""width:200px;border:14px solid red;"">","null","","","","","","","","","",""
"","image-keyboard-response","346","130998","0.0-346.0","3HL8HNGX46NK7PKE1T6WLAD8CZB9F5","A1LRJ4U04532TM","3PEG1BH7AEDCPKTV9M6N3A4F0EHKBR","","3.300000011920929","img/land6.png","74","5","1","0","2","1","0.8,0.2,0.2,0.2,0.8,0.2,0.2,0.2,0.8","0.8,0.2,0.2,0.2,0.8,0.2,0.2,0.2,0.8","1","",""
"","html-keyboard-response","347","131304","0.0-347.0","3HL8HNGX46NK7PKE1T6WLAD8CZB9F5","A1LRJ4U04532TM","3PEG1BH7AEDCPKTV9M6N3A4F0EHKBR","","null","<img src=""img/land6.png"" style=""width:200px;border:14px solid red;"">","null","","","","","","","","","",""
"","image-keyboard-response","348","131603","0.0-348.0","3HL8HNGX46NK7PKE1T6WLAD8CZB9F5","A1LRJ4U04532TM","3PEG1BH7AEDCPKTV9M6N3A4F0EHKBR","","297.39999997615814","img/land2.png","76","298.5","3","1","3","1","0.8,0.2,0.2,0.2,0.8,0.2,0.2,0.2,0.8","0.8,0.2,0.2,0.2,0.8,0.2,0.2,0.2,0.8","1","",""
"","html-keyboard-response","349","131912","0.0-349.0","3HL8HNGX46NK7PKE1T6WLAD8CZB9F5","A1LRJ4U04532TM","3PEG1BH7AEDCPKTV9M6N3A4F0EHKBR","","null","<img src=""img/land2.png"" style=""width:200px; border:14px solid green;"">","null","","","","","","","","","",""
"","image-keyboard-response","350","132035","0.0-350.0","3HL8HNGX46NK7PKE1T6WLAD8CZB9F5","A1LRJ4U04532TM","3PEG1BH7AEDCPKTV9M6N3A4F0EHKBR","","120.80000001192093","img/land6.png","76","122.19999998807907","3","0","2","1","0.8,0.2,0.2,0.2,0.8,0.2,0.2,0.2,0.8","0.8,0.2,0.2,0.2,0.8,0.2,0.2,0.2,0.8","1","",""
"","html-keyboard-response","351","132340","0.0-351.0","3HL8HNGX46NK7PKE1T6WLAD8CZB9F5","A1LRJ4U04532TM","3PEG1BH7AEDCPKTV9M6N3A4F0EHKBR","","null","<img src=""img/land6.png"" style=""width:200px;border:14px solid red;"">","null","","","","","","","","","",""
"","image-keyboard-response","352","132361","0.0-352.0","3HL8HNGX46NK7PKE1T6WLAD8CZB9F5","A1LRJ4U04532TM","3PEG1BH7AEDCPKTV9M6N3A4F0EHKBR","","19.900000035762787","img/land6.png","76","21.299999952316284","3","0","2","1","0.8,0.2,0.2,0.2,0.8,0.2,0.2,0.2,0.8","0.8,0.2,0.2,0.2,0.8,0.2,0.2,0.2,0.8","1","",""
"","html-keyboard-response","353","132675","0.0-353.0","3HL8HNGX46NK7PKE1T6WLAD8CZB9F5","A1LRJ4U04532TM","3PEG1BH7AEDCPKTV9M6N3A4F0EHKBR","","null","<img src=""img/land6.png"" style=""width:200px;border:14px solid red;"">","null","","","","","","","","","",""
"","image-keyboard-response","354","132750","0.0-354.0","3HL8HNGX46NK7PKE1T6WLAD8CZB9F5","A1LRJ4U04532TM","3PEG1BH7AEDCPKTV9M6N3A4F0EHKBR","","73.10000002384186","img/land6.png","74","74.80000001192093","1","0","2","1","0.8,0.2,0.2,0.2,0.8,0.2,0.2,0.2,0.8","0.8,0.2,0.2,0.2,0.8,0.2,0.2,0.2,0.8","1","",""
"","html-keyboard-response","355","133068","0.0-355.0","3HL8HNGX46NK7PKE1T6WLAD8CZB9F5","A1LRJ4U04532TM","3PEG1BH7AEDCPKTV9M6N3A4F0EHKBR","","null","<img src=""img/land6.png"" style=""width:200px;border:14px solid red;"">","null","","","","","","","","","",""
