"success","trial_type","trial_index","time_elapsed","internal_node_id","assignmentID","mturkID","hitID","view_history","rt","stimulus","key_press","reactionTime","a","r","s","cond","reward_cond","reward_cond_actual","reward_matrix_idx","responses","question_order"
"true","fullscreen","0","3089","0.0-0.0","3SB5N7Y3O4Q8PVSWCHTLAKCR90E0GV","A1NDMFN9A5G25G","3JAOYN9IHLO1QRHB9NZI45P11ZM33A","","","","","","","","","","","","","",""
"","instructions","1","16346","0.0-1.0","3SB5N7Y3O4Q8PVSWCHTLAKCR90E0GV","A1NDMFN9A5G25G","3JAOYN9IHLO1QRHB9NZI45P11ZM33A","[{""page_index"":0,""viewing_time"":1717.2000000476837},{""page_index"":1,""viewing_time"":1279.1000000238419},{""page_index"":2,""viewing_time"":1765.0999999046326},{""page_index"":3,""viewing_time"":2488.3000000715256},{""page_index"":4,""viewing_time"":2612.2999999523163},{""page_index"":5,""viewing_time"":1713.2000000476837},{""page_index"":6,""viewing_time"":1679.3999999761581}]","13255.600000023842","","","","","","","","","","","",""
"","image-keyboard-response","2","16749","0.0-2.0","3SB5N7Y3O4Q8PVSWCHTLAKCR90E0GV","A1NDMFN9A5G25G","3JAOYN9IHLO1QRHB9NZI45P11ZM33A","","397.2000000476837","img/land5.png","74","401.2999999523163","1","1","1","2","1,0.5,0.5,0.5,1,0.5,0.5,0.5,1","0.5,0.5,1,1,0.5,0.5,0.5,1,0.5","2","",""
"","html-keyboard-response","3","17055","0.0-3.0","3SB5N7Y3O4Q8PVSWCHTLAKCR90E0GV","A1NDMFN9A5G25G","3JAOYN9IHLO1QRHB9NZI45P11ZM33A","","null","<img src=""img/land5.png"" style=""width:200px; border:14px solid green;"">","null","","","","","","","","","",""
"","image-keyboard-response","4","17112","0.0-4.0","3SB5N7Y3O4Q8PVSWCHTLAKCR90E0GV","A1NDMFN9A5G25G","3JAOYN9IHLO1QRHB9NZI45P11ZM33A","","53.199999928474426","img/land5.png","74","55.5","1","1","1","2","1,0.5,0.5,0.5,1,0.5,0.5,0.5,1","0.5,0.5,1,1,0.5,0.5,0.5,1,0.5","2","",""
"","html-keyboard-response","5","17429","0.0-5.0","3SB5N7Y3O4Q8PVSWCHTLAKCR90E0GV","A1NDMFN9A5G25G","3JAOYN9IHLO1QRHB9NZI45P11ZM33A","","null","<img src=""img/land5.png"" style=""width:200px; border:14px solid green;"">","null","","","","","","","","","",""
"","image-keyboard-response","6","17570","0.0-6.0","3SB5N7Y3O4Q8PVSWCHTLAKCR90E0GV","A1NDMFN9A5G25G","3JAOYN9IHLO1QRHB9NZI45P11ZM33A","","138.10000002384186","img/land1.png","76","139.5","3","1","3","2","1,0.5,0.5,0.5,1,0.5,0.5,0.5,1","0.5,0.5,1,1,0.5,0.5,0.5,1,0.5","2","",""
"","html-keyboard-response","7","17875","0.0-7.0","3SB5N7Y3O4Q8PVSWCHTLAKCR90E0GV","A1NDMFN9A5G25G","3JAOYN9IHLO1QRHB9NZI45P11ZM33A","","null","<img src=""img/land1.png"" style=""width:200px; border:14px solid green;"">","null","","","","","","","","","",""
"","image-keyboard-response","8","17926","0.0-8.0","3SB5N7Y3O4Q8PVSWCHTLAKCR90E0GV","A1NDMFN9A5G25G","3JAOYN9IHLO1QRHB9NZI45P11ZM33A","","47.800000071525574","img/land5.png","75","49.5","2","0","1","2","1,0.5,0.5,0.5,1,0.5,0.5,0.5,1","0.5,0.5,1,1,0.5,0.5,0.5,1,0.5","2","",""
"","html-keyboard-response","9","18230","0.0-9.0","3SB5N7Y3O4Q8PVSWCHTLAKCR90E0GV","A1NDMFN9A5G25G","3JAOYN9IHLO1QRHB9NZI45P11ZM33A","","null","<img src=""img/land5.png"" style=""width:200px;border:14px solid red;"">","null","","","","","","","","","",""
"","image-keyboard-response","10","18284","0.0-10.0","3SB5N7Y3O4Q8PVSWCHTLAKCR90E0GV","A1NDMFN9A5G25G","3JAOYN9IHLO1QRHB9NZI45P11ZM33A","","52.40000009536743","img/land3.png","74","53.89999997615814","1","1","2","2","1,0.5,0.5,0.5,1,0.5,0.5,0.5,1","0.5,0.5,1,1,0.5,0.5,0.5,1,0.5","2","",""
"","html-keyboard-response","11","18594","0.0-11.0","3SB5N7Y3O4Q8PVSWCHTLAKCR90E0GV","A1NDMFN9A5G25G","3JAOYN9IHLO1QRHB9NZI45P11ZM33A","","null","<img src=""img/land3.png"" style=""width:200px; border:14px solid green;"">","null","","","","","","","","","",""
"","image-keyboard-response","12","18602","0.0-12.0","3SB5N7Y3O4Q8PVSWCHTLAKCR90E0GV","A1NDMFN9A5G25G","3JAOYN9IHLO1QRHB9NZI45P11ZM33A","","5.600000023841858","img/land5.png","74","6.800000071525574","1","0","1","2","1,0.5,0.5,0.5,1,0.5,0.5,0.5,1","0.5,0.5,1,1,0.5,0.5,0.5,1,0.5","2","",""
"","html-keyboard-response","13","18915","0.0-13.0","3SB5N7Y3O4Q8PVSWCHTLAKCR90E0GV","A1NDMFN9A5G25G","3JAOYN9IHLO1QRHB9NZI45P11ZM33A","","null","<img src=""img/land5.png"" style=""width:200px;border:14px solid red;"">","null","","","","","","","","","",""
"","image-keyboard-response","14","18948","0.0-14.0","3SB5N7Y3O4Q8PVSWCHTLAKCR90E0GV","A1NDMFN9A5G25G","3JAOYN9IHLO1QRHB9NZI45P11ZM33A","","30.100000023841858","img/land1.png","74","32","1","1","3","2","1,0.5,0.5,0.5,1,0.5,0.5,0.5,1","0.5,0.5,1,1,0.5,0.5,0.5,1,0.5","2","",""
"","html-keyboard-response","15","19255","0.0-15.0","3SB5N7Y3O4Q8PVSWCHTLAKCR90E0GV","A1NDMFN9A5G25G","3JAOYN9IHLO1QRHB9NZI45P11ZM33A","","null","<img src=""img/land1.png"" style=""width:200px; border:14px solid green;"">","null","","","","","","","","","",""
"","image-keyboard-response","16","19263","0.0-16.0","3SB5N7Y3O4Q8PVSWCHTLAKCR90E0GV","A1NDMFN9A5G25G","3JAOYN9IHLO1QRHB9NZI45P11ZM33A","","4.5","img/land5.png","75","6.5","2","0","1","2","1,0.5,0.5,0.5,1,0.5,0.5,0.5,1","0.5,0.5,1,1,0.5,0.5,0.5,1,0.5","2","",""
"","html-keyboard-response","17","19567","0.0-17.0","3SB5N7Y3O4Q8PVSWCHTLAKCR90E0GV","A1NDMFN9A5G25G","3JAOYN9IHLO1QRHB9NZI45P11ZM33A","","null","<img src=""img/land5.png"" style=""width:200px;border:14px solid red;"">","null","","","","","","","","","",""
"","image-keyboard-response","18","19681","0.0-18.0","3SB5N7Y3O4Q8PVSWCHTLAKCR90E0GV","A1NDMFN9A5G25G","3JAOYN9IHLO1QRHB9NZI45P11ZM33A","","112.60000002384186","img/land5.png","75","114.10000002384186","2","1","1","2","1,0.5,0.5,0.5,1,0.5,0.5,0.5,1","0.5,0.5,1,1,0.5,0.5,0.5,1,0.5","2","",""
"","html-keyboard-response","19","19995","0.0-19.0","3SB5N7Y3O4Q8PVSWCHTLAKCR90E0GV","A1NDMFN9A5G25G","3JAOYN9IHLO1QRHB9NZI45P11ZM33A","","null","<img src=""img/land5.png"" style=""width:200px; border:14px solid green;"">","null","","","","","","","","","",""
"","image-keyboard-response","20","20004","0.0-20.0","3SB5N7Y3O4Q8PVSWCHTLAKCR90E0GV","A1NDMFN9A5G25G","3JAOYN9IHLO1QRHB9NZI45P11ZM33A","","5.899999976158142","img/land3.png","74","8","1","1","2","2","1,0.5,0.5,0.5,1,0.5,0.5,0.5,1","0.5,0.5,1,1,0.5,0.5,0.5,1,0.5","2","",""
"","html-keyboard-response","21","20320","0.0-21.0","3SB5N7Y3O4Q8PVSWCHTLAKCR90E0GV","A1NDMFN9A5G25G","3JAOYN9IHLO1QRHB9NZI45P11ZM33A","","null","<img src=""img/land3.png"" style=""width:200px; border:14px solid green;"">","null","","","","","","","","","",""
"","image-keyboard-response","22","20463","0.0-22.0","3SB5N7Y3O4Q8PVSWCHTLAKCR90E0GV","A1NDMFN9A5G25G","3JAOYN9IHLO1QRHB9NZI45P11ZM33A","","142","img/land5.png","75","142.89999997615814","2","1","1","2","1,0.5,0.5,0.5,1,0.5,0.5,0.5,1","0.5,0.5,1,1,0.5,0.5,0.5,1,0.5","2","",""
"","html-keyboard-response","23","20767","0.0-23.0","3SB5N7Y3O4Q8PVSWCHTLAKCR90E0GV","A1NDMFN9A5G25G","3JAOYN9IHLO1QRHB9NZI45P11ZM33A","","null","<img src=""img/land5.png"" style=""width:200px; border:14px solid green;"">","null","","","","","","","","","",""
"","image-keyboard-response","24","20922","0.0-24.0","3SB5N7Y3O4Q8PVSWCHTLAKCR90E0GV","A1NDMFN9A5G25G","3JAOYN9IHLO1QRHB9NZI45P11ZM33A","","153.29999995231628","img/land1.png","74","154.70000004768372","1","1","3","2","1,0.5,0.5,0.5,1,0.5,0.5,0.5,1","0.5,0.5,1,1,0.5,0.5,0.5,1,0.5","2","",""
"","html-keyboard-response","25","21224","0.0-25.0","3SB5N7Y3O4Q8PVSWCHTLAKCR90E0GV","A1NDMFN9A5G25G","3JAOYN9IHLO1QRHB9NZI45P11ZM33A","","null","<img src=""img/land1.png"" style=""width:200px; border:14px solid green;"">","null","","","","","","","","","",""
"","image-keyboard-response","26","21290","0.0-26.0","3SB5N7Y3O4Q8PVSWCHTLAKCR90E0GV","A1NDMFN9A5G25G","3JAOYN9IHLO1QRHB9NZI45P11ZM33A","","63","img/land3.png","75","65","2","1","2","2","1,0.5,0.5,0.5,1,0.5,0.5,0.5,1","0.5,0.5,1,1,0.5,0.5,0.5,1,0.5","2","",""
"","html-keyboard-response","27","21601","0.0-27.0","3SB5N7Y3O4Q8PVSWCHTLAKCR90E0GV","A1NDMFN9A5G25G","3JAOYN9IHLO1QRHB9NZI45P11ZM33A","","null","<img src=""img/land3.png"" style=""width:200px; border:14px solid green;"">","null","","","","","","","","","",""
"","image-keyboard-response","28","21737","0.0-28.0","3SB5N7Y3O4Q8PVSWCHTLAKCR90E0GV","A1NDMFN9A5G25G","3JAOYN9IHLO1QRHB9NZI45P11ZM33A","","133.5","img/land5.png","75","134.89999997615814","2","1","1","2","1,0.5,0.5,0.5,1,0.5,0.5,0.5,1","0.5,0.5,1,1,0.5,0.5,0.5,1,0.5","2","",""
"","html-keyboard-response","29","22051","0.0-29.0","3SB5N7Y3O4Q8PVSWCHTLAKCR90E0GV","A1NDMFN9A5G25G","3JAOYN9IHLO1QRHB9NZI45P11ZM33A","","null","<img src=""img/land5.png"" style=""width:200px; border:14px solid green;"">","null","","","","","","","","","",""
"","image-keyboard-response","30","22065","0.0-30.0","3SB5N7Y3O4Q8PVSWCHTLAKCR90E0GV","A1NDMFN9A5G25G","3JAOYN9IHLO1QRHB9NZI45P11ZM33A","","11.299999952316284","img/land3.png","76","12.899999976158142","3","1","2","2","1,0.5,0.5,0.5,1,0.5,0.5,0.5,1","0.5,0.5,1,1,0.5,0.5,0.5,1,0.5","2","",""
"","html-keyboard-response","31","22375","0.0-31.0","3SB5N7Y3O4Q8PVSWCHTLAKCR90E0GV","A1NDMFN9A5G25G","3JAOYN9IHLO1QRHB9NZI45P11ZM33A","","null","<img src=""img/land3.png"" style=""width:200px; border:14px solid green;"">","null","","","","","","","","","",""
"","image-keyboard-response","32","22377","0.0-32.0","3SB5N7Y3O4Q8PVSWCHTLAKCR90E0GV","A1NDMFN9A5G25G","3JAOYN9IHLO1QRHB9NZI45P11ZM33A","","0.7999999523162842","img/land1.png","74","1.600000023841858","1","0","3","2","1,0.5,0.5,0.5,1,0.5,0.5,0.5,1","0.5,0.5,1,1,0.5,0.5,0.5,1,0.5","2","",""
"","html-keyboard-response","33","22682","0.0-33.0","3SB5N7Y3O4Q8PVSWCHTLAKCR90E0GV","A1NDMFN9A5G25G","3JAOYN9IHLO1QRHB9NZI45P11ZM33A","","null","<img src=""img/land1.png"" style=""width:200px;border:14px solid red;"">","null","","","","","","","","","",""
"","image-keyboard-response","34","22749","0.0-34.0","3SB5N7Y3O4Q8PVSWCHTLAKCR90E0GV","A1NDMFN9A5G25G","3JAOYN9IHLO1QRHB9NZI45P11ZM33A","","64.29999995231628","img/land1.png","76","65.60000002384186","3","1","3","2","1,0.5,0.5,0.5,1,0.5,0.5,0.5,1","0.5,0.5,1,1,0.5,0.5,0.5,1,0.5","2","",""
"","html-keyboard-response","35","23052","0.0-35.0","3SB5N7Y3O4Q8PVSWCHTLAKCR90E0GV","A1NDMFN9A5G25G","3JAOYN9IHLO1QRHB9NZI45P11ZM33A","","null","<img src=""img/land1.png"" style=""width:200px; border:14px solid green;"">","null","","","","","","","","","",""
"","image-keyboard-response","36","23142","0.0-36.0","3SB5N7Y3O4Q8PVSWCHTLAKCR90E0GV","A1NDMFN9A5G25G","3JAOYN9IHLO1QRHB9NZI45P11ZM33A","","88.40000009536743","img/land5.png","76","89.20000004768372","3","1","1","2","1,0.5,0.5,0.5,1,0.5,0.5,0.5,1","0.5,0.5,1,1,0.5,0.5,0.5,1,0.5","2","",""
"","html-keyboard-response","37","23448","0.0-37.0","3SB5N7Y3O4Q8PVSWCHTLAKCR90E0GV","A1NDMFN9A5G25G","3JAOYN9IHLO1QRHB9NZI45P11ZM33A","","null","<img src=""img/land5.png"" style=""width:200px; border:14px solid green;"">","null","","","","","","","","","",""
"","image-keyboard-response","38","23460","0.0-38.0","3SB5N7Y3O4Q8PVSWCHTLAKCR90E0GV","A1NDMFN9A5G25G","3JAOYN9IHLO1QRHB9NZI45P11ZM33A","","11.100000023841858","img/land5.png","76","11.600000023841858","3","1","1","2","1,0.5,0.5,0.5,1,0.5,0.5,0.5,1","0.5,0.5,1,1,0.5,0.5,0.5,1,0.5","2","",""
"","html-keyboard-response","39","23768","0.0-39.0","3SB5N7Y3O4Q8PVSWCHTLAKCR90E0GV","A1NDMFN9A5G25G","3JAOYN9IHLO1QRHB9NZI45P11ZM33A","","null","<img src=""img/land5.png"" style=""width:200px; border:14px solid green;"">","null","","","","","","","","","",""
"","image-keyboard-response","40","23772","0.0-40.0","3SB5N7Y3O4Q8PVSWCHTLAKCR90E0GV","A1NDMFN9A5G25G","3JAOYN9IHLO1QRHB9NZI45P11ZM33A","","2.6999999284744263","img/land5.png","75","3.200000047683716","2","0","1","2","1,0.5,0.5,0.5,1,0.5,0.5,0.5,1","0.5,0.5,1,1,0.5,0.5,0.5,1,0.5","2","",""
"","html-keyboard-response","41","24079","0.0-41.0","3SB5N7Y3O4Q8PVSWCHTLAKCR90E0GV","A1NDMFN9A5G25G","3JAOYN9IHLO1QRHB9NZI45P11ZM33A","","null","<img src=""img/land5.png"" style=""width:200px;border:14px solid red;"">","null","","","","","","","","","",""
"","image-keyboard-response","42","24125","0.0-42.0","3SB5N7Y3O4Q8PVSWCHTLAKCR90E0GV","A1NDMFN9A5G25G","3JAOYN9IHLO1QRHB9NZI45P11ZM33A","","45.200000047683716","img/land5.png","76","46","3","1","1","2","1,0.5,0.5,0.5,1,0.5,0.5,0.5,1","0.5,0.5,1,1,0.5,0.5,0.5,1,0.5","2","",""
"","html-keyboard-response","43","24435","0.0-43.0","3SB5N7Y3O4Q8PVSWCHTLAKCR90E0GV","A1NDMFN9A5G25G","3JAOYN9IHLO1QRHB9NZI45P11ZM33A","","null","<img src=""img/land5.png"" style=""width:200px; border:14px solid green;"">","null","","","","","","","","","",""
"","image-keyboard-response","44","24447","0.0-44.0","3SB5N7Y3O4Q8PVSWCHTLAKCR90E0GV","A1NDMFN9A5G25G","3JAOYN9IHLO1QRHB9NZI45P11ZM33A","","9","img/land5.png","76","10.900000095367432","3","1","1","2","1,0.5,0.5,0.5,1,0.5,0.5,0.5,1","0.5,0.5,1,1,0.5,0.5,0.5,1,0.5","2","",""
"","html-keyboard-response","45","24758","0.0-45.0","3SB5N7Y3O4Q8PVSWCHTLAKCR90E0GV","A1NDMFN9A5G25G","3JAOYN9IHLO1QRHB9NZI45P11ZM33A","","null","<img src=""img/land5.png"" style=""width:200px; border:14px solid green;"">","null","","","","","","","","","",""
"","image-keyboard-response","46","24868","0.0-46.0","3SB5N7Y3O4Q8PVSWCHTLAKCR90E0GV","A1NDMFN9A5G25G","3JAOYN9IHLO1QRHB9NZI45P11ZM33A","","107.5","img/land5.png","76","109","3","1","1","2","1,0.5,0.5,0.5,1,0.5,0.5,0.5,1","0.5,0.5,1,1,0.5,0.5,0.5,1,0.5","2","",""
"","html-keyboard-response","47","25174","0.0-47.0","3SB5N7Y3O4Q8PVSWCHTLAKCR90E0GV","A1NDMFN9A5G25G","3JAOYN9IHLO1QRHB9NZI45P11ZM33A","","null","<img src=""img/land5.png"" style=""width:200px; border:14px solid green;"">","null","","","","","","","","","",""
"","image-keyboard-response","48","25353","0.0-48.0","3SB5N7Y3O4Q8PVSWCHTLAKCR90E0GV","A1NDMFN9A5G25G","3JAOYN9IHLO1QRHB9NZI45P11ZM33A","","177.40000009536743","img/land1.png","74","178.5","1","1","3","2","1,0.5,0.5,0.5,1,0.5,0.5,0.5,1","0.5,0.5,1,1,0.5,0.5,0.5,1,0.5","2","",""
"","html-keyboard-response","49","25668","0.0-49.0","3SB5N7Y3O4Q8PVSWCHTLAKCR90E0GV","A1NDMFN9A5G25G","3JAOYN9IHLO1QRHB9NZI45P11ZM33A","","null","<img src=""img/land1.png"" style=""width:200px; border:14px solid green;"">","null","","","","","","","","","",""
"","image-keyboard-response","50","25718","0.0-50.0","3SB5N7Y3O4Q8PVSWCHTLAKCR90E0GV","A1NDMFN9A5G25G","3JAOYN9IHLO1QRHB9NZI45P11ZM33A","","47.699999928474426","img/land3.png","74","49.200000047683716","1","1","2","2","1,0.5,0.5,0.5,1,0.5,0.5,0.5,1","0.5,0.5,1,1,0.5,0.5,0.5,1,0.5","2","",""
"","html-keyboard-response","51","26021","0.0-51.0","3SB5N7Y3O4Q8PVSWCHTLAKCR90E0GV","A1NDMFN9A5G25G","3JAOYN9IHLO1QRHB9NZI45P11ZM33A","","null","<img src=""img/land3.png"" style=""width:200px; border:14px solid green;"">","null","","","","","","","","","",""
"","image-keyboard-response","52","26128","0.0-52.0","3SB5N7Y3O4Q8PVSWCHTLAKCR90E0GV","A1NDMFN9A5G25G","3JAOYN9IHLO1QRHB9NZI45P11ZM33A","","104.5","img/land3.png","75","105.89999997615814","2","0","2","2","1,0.5,0.5,0.5,1,0.5,0.5,0.5,1","0.5,0.5,1,1,0.5,0.5,0.5,1,0.5","2","",""
"","html-keyboard-response","53","26436","0.0-53.0","3SB5N7Y3O4Q8PVSWCHTLAKCR90E0GV","A1NDMFN9A5G25G","3JAOYN9IHLO1QRHB9NZI45P11ZM33A","","null","<img src=""img/land3.png"" style=""width:200px;border:14px solid red;"">","null","","","","","","","","","",""
"","image-keyboard-response","54","26683","0.0-54.0","3SB5N7Y3O4Q8PVSWCHTLAKCR90E0GV","A1NDMFN9A5G25G","3JAOYN9IHLO1QRHB9NZI45P11ZM33A","","246","img/land5.png","76","247.10000002384186","3","1","1","2","1,0.5,0.5,0.5,1,0.5,0.5,0.5,1","0.5,0.5,1,1,0.5,0.5,0.5,1,0.5","2","",""
"","html-keyboard-response","55","26990","0.0-55.0","3SB5N7Y3O4Q8PVSWCHTLAKCR90E0GV","A1NDMFN9A5G25G","3JAOYN9IHLO1QRHB9NZI45P11ZM33A","","null","<img src=""img/land5.png"" style=""width:200px; border:14px solid green;"">","null","","","","","","","","","",""
"","image-keyboard-response","56","27109","0.0-56.0","3SB5N7Y3O4Q8PVSWCHTLAKCR90E0GV","A1NDMFN9A5G25G","3JAOYN9IHLO1QRHB9NZI45P11ZM33A","","115.79999995231628","img/land5.png","74","117.59999990463257","1","1","1","2","1,0.5,0.5,0.5,1,0.5,0.5,0.5,1","0.5,0.5,1,1,0.5,0.5,0.5,1,0.5","2","",""
"","html-keyboard-response","57","27421","0.0-57.0","3SB5N7Y3O4Q8PVSWCHTLAKCR90E0GV","A1NDMFN9A5G25G","3JAOYN9IHLO1QRHB9NZI45P11ZM33A","","null","<img src=""img/land5.png"" style=""width:200px; border:14px solid green;"">","null","","","","","","","","","",""
"","image-keyboard-response","58","27526","0.0-58.0","3SB5N7Y3O4Q8PVSWCHTLAKCR90E0GV","A1NDMFN9A5G25G","3JAOYN9IHLO1QRHB9NZI45P11ZM33A","","102.10000002384186","img/land3.png","74","103.69999992847443","1","1","2","2","1,0.5,0.5,0.5,1,0.5,0.5,0.5,1","0.5,0.5,1,1,0.5,0.5,0.5,1,0.5","2","",""
"","html-keyboard-response","59","27838","0.0-59.0","3SB5N7Y3O4Q8PVSWCHTLAKCR90E0GV","A1NDMFN9A5G25G","3JAOYN9IHLO1QRHB9NZI45P11ZM33A","","null","<img src=""img/land3.png"" style=""width:200px; border:14px solid green;"">","null","","","","","","","","","",""
"","image-keyboard-response","60","27938","0.0-60.0","3SB5N7Y3O4Q8PVSWCHTLAKCR90E0GV","A1NDMFN9A5G25G","3JAOYN9IHLO1QRHB9NZI45P11ZM33A","","97.30000007152557","img/land5.png","75","98.89999997615814","2","0","1","2","1,0.5,0.5,0.5,1,0.5,0.5,0.5,1","0.5,0.5,1,1,0.5,0.5,0.5,1,0.5","2","",""
"","html-keyboard-response","61","28242","0.0-61.0","3SB5N7Y3O4Q8PVSWCHTLAKCR90E0GV","A1NDMFN9A5G25G","3JAOYN9IHLO1QRHB9NZI45P11ZM33A","","null","<img src=""img/land5.png"" style=""width:200px;border:14px solid red;"">","null","","","","","","","","","",""
"","image-keyboard-response","62","28280","0.0-62.0","3SB5N7Y3O4Q8PVSWCHTLAKCR90E0GV","A1NDMFN9A5G25G","3JAOYN9IHLO1QRHB9NZI45P11ZM33A","","37.09999990463257","img/land3.png","75","37.700000047683716","2","0","2","2","1,0.5,0.5,0.5,1,0.5,0.5,0.5,1","0.5,0.5,1,1,0.5,0.5,0.5,1,0.5","2","",""
"","html-keyboard-response","63","28583","0.0-63.0","3SB5N7Y3O4Q8PVSWCHTLAKCR90E0GV","A1NDMFN9A5G25G","3JAOYN9IHLO1QRHB9NZI45P11ZM33A","","null","<img src=""img/land3.png"" style=""width:200px;border:14px solid red;"">","null","","","","","","","","","",""
"","image-keyboard-response","64","28703","0.0-64.0","3SB5N7Y3O4Q8PVSWCHTLAKCR90E0GV","A1NDMFN9A5G25G","3JAOYN9IHLO1QRHB9NZI45P11ZM33A","","117.29999995231628","img/land3.png","76","118.79999995231628","3","1","2","2","1,0.5,0.5,0.5,1,0.5,0.5,0.5,1","0.5,0.5,1,1,0.5,0.5,0.5,1,0.5","2","",""
"","html-keyboard-response","65","29012","0.0-65.0","3SB5N7Y3O4Q8PVSWCHTLAKCR90E0GV","A1NDMFN9A5G25G","3JAOYN9IHLO1QRHB9NZI45P11ZM33A","","null","<img src=""img/land3.png"" style=""width:200px; border:14px solid green;"">","null","","","","","","","","","",""
"","image-keyboard-response","66","29156","0.0-66.0","3SB5N7Y3O4Q8PVSWCHTLAKCR90E0GV","A1NDMFN9A5G25G","3JAOYN9IHLO1QRHB9NZI45P11ZM33A","","143.29999995231628","img/land3.png","74","144.39999997615814","1","1","2","2","1,0.5,0.5,0.5,1,0.5,0.5,0.5,1","0.5,0.5,1,1,0.5,0.5,0.5,1,0.5","2","",""
"","html-keyboard-response","67","29462","0.0-67.0","3SB5N7Y3O4Q8PVSWCHTLAKCR90E0GV","A1NDMFN9A5G25G","3JAOYN9IHLO1QRHB9NZI45P11ZM33A","","null","<img src=""img/land3.png"" style=""width:200px; border:14px solid green;"">","null","","","","","","","","","",""
"","image-keyboard-response","68","29470","0.0-68.0","3SB5N7Y3O4Q8PVSWCHTLAKCR90E0GV","A1NDMFN9A5G25G","3JAOYN9IHLO1QRHB9NZI45P11ZM33A","","5.199999928474426","img/land1.png","74","6.600000023841858","1","0","3","2","1,0.5,0.5,0.5,1,0.5,0.5,0.5,1","0.5,0.5,1,1,0.5,0.5,0.5,1,0.5","2","",""
"","html-keyboard-response","69","29781","0.0-69.0","3SB5N7Y3O4Q8PVSWCHTLAKCR90E0GV","A1NDMFN9A5G25G","3JAOYN9IHLO1QRHB9NZI45P11ZM33A","","null","<img src=""img/land1.png"" style=""width:200px;border:14px solid red;"">","null","","","","","","","","","",""
"","image-keyboard-response","70","29950","0.0-70.0","3SB5N7Y3O4Q8PVSWCHTLAKCR90E0GV","A1NDMFN9A5G25G","3JAOYN9IHLO1QRHB9NZI45P11ZM33A","","166","img/land1.png","76","167.69999992847443","3","0","3","2","1,0.5,0.5,0.5,1,0.5,0.5,0.5,1","0.5,0.5,1,1,0.5,0.5,0.5,1,0.5","2","",""
"","html-keyboard-response","71","30253","0.0-71.0","3SB5N7Y3O4Q8PVSWCHTLAKCR90E0GV","A1NDMFN9A5G25G","3JAOYN9IHLO1QRHB9NZI45P11ZM33A","","null","<img src=""img/land1.png"" style=""width:200px;border:14px solid red;"">","null","","","","","","","","","",""
"","image-keyboard-response","72","30359","0.0-72.0","3SB5N7Y3O4Q8PVSWCHTLAKCR90E0GV","A1NDMFN9A5G25G","3JAOYN9IHLO1QRHB9NZI45P11ZM33A","","104.09999990463257","img/land5.png","75","105","2","1","1","2","1,0.5,0.5,0.5,1,0.5,0.5,0.5,1","0.5,0.5,1,1,0.5,0.5,0.5,1,0.5","2","",""
"","html-keyboard-response","73","30661","0.0-73.0","3SB5N7Y3O4Q8PVSWCHTLAKCR90E0GV","A1NDMFN9A5G25G","3JAOYN9IHLO1QRHB9NZI45P11ZM33A","","null","<img src=""img/land5.png"" style=""width:200px; border:14px solid green;"">","null","","","","","","","","","",""
"","image-keyboard-response","74","30769","0.0-74.0","3SB5N7Y3O4Q8PVSWCHTLAKCR90E0GV","A1NDMFN9A5G25G","3JAOYN9IHLO1QRHB9NZI45P11ZM33A","","105.40000009536743","img/land5.png","76","106.79999995231628","3","1","1","2","1,0.5,0.5,0.5,1,0.5,0.5,0.5,1","0.5,0.5,1,1,0.5,0.5,0.5,1,0.5","2","",""
"","html-keyboard-response","75","31070","0.0-75.0","3SB5N7Y3O4Q8PVSWCHTLAKCR90E0GV","A1NDMFN9A5G25G","3JAOYN9IHLO1QRHB9NZI45P11ZM33A","","null","<img src=""img/land5.png"" style=""width:200px; border:14px solid green;"">","null","","","","","","","","","",""
"","image-keyboard-response","76","31238","0.0-76.0","3SB5N7Y3O4Q8PVSWCHTLAKCR90E0GV","A1NDMFN9A5G25G","3JAOYN9IHLO1QRHB9NZI45P11ZM33A","","165.79999995231628","img/land5.png","75","167.20000004768372","2","1","1","2","1,0.5,0.5,0.5,1,0.5,0.5,0.5,1","0.5,0.5,1,1,0.5,0.5,0.5,1,0.5","2","",""
"","html-keyboard-response","77","31541","0.0-77.0","3SB5N7Y3O4Q8PVSWCHTLAKCR90E0GV","A1NDMFN9A5G25G","3JAOYN9IHLO1QRHB9NZI45P11ZM33A","","null","<img src=""img/land5.png"" style=""width:200px; border:14px solid green;"">","null","","","","","","","","","",""
"","image-keyboard-response","78","31605","0.0-78.0","3SB5N7Y3O4Q8PVSWCHTLAKCR90E0GV","A1NDMFN9A5G25G","3JAOYN9IHLO1QRHB9NZI45P11ZM33A","","62.5","img/land1.png","76","63.5","3","0","3","2","1,0.5,0.5,0.5,1,0.5,0.5,0.5,1","0.5,0.5,1,1,0.5,0.5,0.5,1,0.5","2","",""
"","html-keyboard-response","79","31906","0.0-79.0","3SB5N7Y3O4Q8PVSWCHTLAKCR90E0GV","A1NDMFN9A5G25G","3JAOYN9IHLO1QRHB9NZI45P11ZM33A","","null","<img src=""img/land1.png"" style=""width:200px;border:14px solid red;"">","null","","","","","","","","","",""
"","image-keyboard-response","80","31932","0.0-80.0","3SB5N7Y3O4Q8PVSWCHTLAKCR90E0GV","A1NDMFN9A5G25G","3JAOYN9IHLO1QRHB9NZI45P11ZM33A","","24.799999952316284","img/land5.png","75","25.5","2","0","1","2","1,0.5,0.5,0.5,1,0.5,0.5,0.5,1","0.5,0.5,1,1,0.5,0.5,0.5,1,0.5","2","",""
"","html-keyboard-response","81","32234","0.0-81.0","3SB5N7Y3O4Q8PVSWCHTLAKCR90E0GV","A1NDMFN9A5G25G","3JAOYN9IHLO1QRHB9NZI45P11ZM33A","","null","<img src=""img/land5.png"" style=""width:200px;border:14px solid red;"">","null","","","","","","","","","",""
"","image-keyboard-response","82","32388","0.0-82.0","3SB5N7Y3O4Q8PVSWCHTLAKCR90E0GV","A1NDMFN9A5G25G","3JAOYN9IHLO1QRHB9NZI45P11ZM33A","","153.39999997615814","img/land5.png","74","154.60000002384186","1","1","1","2","1,0.5,0.5,0.5,1,0.5,0.5,0.5,1","0.5,0.5,1,1,0.5,0.5,0.5,1,0.5","2","",""
"","html-keyboard-response","83","32693","0.0-83.0","3SB5N7Y3O4Q8PVSWCHTLAKCR90E0GV","A1NDMFN9A5G25G","3JAOYN9IHLO1QRHB9NZI45P11ZM33A","","null","<img src=""img/land5.png"" style=""width:200px; border:14px solid green;"">","null","","","","","","","","","",""
"","image-keyboard-response","84","32796","0.0-84.0","3SB5N7Y3O4Q8PVSWCHTLAKCR90E0GV","A1NDMFN9A5G25G","3JAOYN9IHLO1QRHB9NZI45P11ZM33A","","101.30000007152557","img/land5.png","75","102.60000002384186","2","1","1","2","1,0.5,0.5,0.5,1,0.5,0.5,0.5,1","0.5,0.5,1,1,0.5,0.5,0.5,1,0.5","2","",""
"","html-keyboard-response","85","33097","0.0-85.0","3SB5N7Y3O4Q8PVSWCHTLAKCR90E0GV","A1NDMFN9A5G25G","3JAOYN9IHLO1QRHB9NZI45P11ZM33A","","null","<img src=""img/land5.png"" style=""width:200px; border:14px solid green;"">","null","","","","","","","","","",""
"","image-keyboard-response","86","33141","0.0-86.0","3SB5N7Y3O4Q8PVSWCHTLAKCR90E0GV","A1NDMFN9A5G25G","3JAOYN9IHLO1QRHB9NZI45P11ZM33A","","40.59999990463257","img/land5.png","74","42.60000002384186","1","1","1","2","1,0.5,0.5,0.5,1,0.5,0.5,0.5,1","0.5,0.5,1,1,0.5,0.5,0.5,1,0.5","2","",""
"","html-keyboard-response","87","33444","0.0-87.0","3SB5N7Y3O4Q8PVSWCHTLAKCR90E0GV","A1NDMFN9A5G25G","3JAOYN9IHLO1QRHB9NZI45P11ZM33A","","null","<img src=""img/land5.png"" style=""width:200px; border:14px solid green;"">","null","","","","","","","","","",""
"","image-keyboard-response","88","33494","0.0-88.0","3SB5N7Y3O4Q8PVSWCHTLAKCR90E0GV","A1NDMFN9A5G25G","3JAOYN9IHLO1QRHB9NZI45P11ZM33A","","48","img/land5.png","76","49.40000009536743","3","1","1","2","1,0.5,0.5,0.5,1,0.5,0.5,0.5,1","0.5,0.5,1,1,0.5,0.5,0.5,1,0.5","2","",""
"","html-keyboard-response","89","33797","0.0-89.0","3SB5N7Y3O4Q8PVSWCHTLAKCR90E0GV","A1NDMFN9A5G25G","3JAOYN9IHLO1QRHB9NZI45P11ZM33A","","null","<img src=""img/land5.png"" style=""width:200px; border:14px solid green;"">","null","","","","","","","","","",""
"","image-keyboard-response","90","34003","0.0-90.0","3SB5N7Y3O4Q8PVSWCHTLAKCR90E0GV","A1NDMFN9A5G25G","3JAOYN9IHLO1QRHB9NZI45P11ZM33A","","203.70000004768372","img/land5.png","74","205.39999997615814","1","1","1","2","1,0.5,0.5,0.5,1,0.5,0.5,0.5,1","0.5,0.5,1,1,0.5,0.5,0.5,1,0.5","2","",""
"","html-keyboard-response","91","34306","0.0-91.0","3SB5N7Y3O4Q8PVSWCHTLAKCR90E0GV","A1NDMFN9A5G25G","3JAOYN9IHLO1QRHB9NZI45P11ZM33A","","null","<img src=""img/land5.png"" style=""width:200px; border:14px solid green;"">","null","","","","","","","","","",""
"","image-keyboard-response","92","34316","0.0-92.0","3SB5N7Y3O4Q8PVSWCHTLAKCR90E0GV","A1NDMFN9A5G25G","3JAOYN9IHLO1QRHB9NZI45P11ZM33A","","8.899999976158142","img/land3.png","76","10","3","0","2","2","1,0.5,0.5,0.5,1,0.5,0.5,0.5,1","0.5,0.5,1,1,0.5,0.5,0.5,1,0.5","2","",""
"","html-keyboard-response","93","34618","0.0-93.0","3SB5N7Y3O4Q8PVSWCHTLAKCR90E0GV","A1NDMFN9A5G25G","3JAOYN9IHLO1QRHB9NZI45P11ZM33A","","null","<img src=""img/land3.png"" style=""width:200px;border:14px solid red;"">","null","","","","","","","","","",""
"","image-keyboard-response","94","34639","0.0-94.0","3SB5N7Y3O4Q8PVSWCHTLAKCR90E0GV","A1NDMFN9A5G25G","3JAOYN9IHLO1QRHB9NZI45P11ZM33A","","19.799999952316284","img/land5.png","75","20.300000071525574","2","0","1","2","1,0.5,0.5,0.5,1,0.5,0.5,0.5,1","0.5,0.5,1,1,0.5,0.5,0.5,1,0.5","2","",""
"","html-keyboard-response","95","34941","0.0-95.0","3SB5N7Y3O4Q8PVSWCHTLAKCR90E0GV","A1NDMFN9A5G25G","3JAOYN9IHLO1QRHB9NZI45P11ZM33A","","null","<img src=""img/land5.png"" style=""width:200px;border:14px solid red;"">","null","","","","","","","","","",""
"","image-keyboard-response","96","35021","0.0-96.0","3SB5N7Y3O4Q8PVSWCHTLAKCR90E0GV","A1NDMFN9A5G25G","3JAOYN9IHLO1QRHB9NZI45P11ZM33A","","78.5","img/land1.png","74","79.80000007152557","1","1","3","2","1,0.5,0.5,0.5,1,0.5,0.5,0.5,1","0.5,0.5,1,1,0.5,0.5,0.5,1,0.5","2","",""
"","html-keyboard-response","97","35325","0.0-97.0","3SB5N7Y3O4Q8PVSWCHTLAKCR90E0GV","A1NDMFN9A5G25G","3JAOYN9IHLO1QRHB9NZI45P11ZM33A","","null","<img src=""img/land1.png"" style=""width:200px; border:14px solid green;"">","null","","","","","","","","","",""
"","image-keyboard-response","98","35472","0.0-98.0","3SB5N7Y3O4Q8PVSWCHTLAKCR90E0GV","A1NDMFN9A5G25G","3JAOYN9IHLO1QRHB9NZI45P11ZM33A","","144.20000004768372","img/land3.png","74","145.80000007152557","1","1","2","2","1,0.5,0.5,0.5,1,0.5,0.5,0.5,1","0.5,0.5,1,1,0.5,0.5,0.5,1,0.5","2","",""
"","html-keyboard-response","99","35774","0.0-99.0","3SB5N7Y3O4Q8PVSWCHTLAKCR90E0GV","A1NDMFN9A5G25G","3JAOYN9IHLO1QRHB9NZI45P11ZM33A","","null","<img src=""img/land3.png"" style=""width:200px; border:14px solid green;"">","null","","","","","","","","","",""
"","image-keyboard-response","100","35801","0.0-100.0","3SB5N7Y3O4Q8PVSWCHTLAKCR90E0GV","A1NDMFN9A5G25G","3JAOYN9IHLO1QRHB9NZI45P11ZM33A","","25.700000047683716","img/land5.png","75","26.5","2","0","1","2","1,0.5,0.5,0.5,1,0.5,0.5,0.5,1","0.5,0.5,1,1,0.5,0.5,0.5,1,0.5","2","",""
"","html-keyboard-response","101","36103","0.0-101.0","3SB5N7Y3O4Q8PVSWCHTLAKCR90E0GV","A1NDMFN9A5G25G","3JAOYN9IHLO1QRHB9NZI45P11ZM33A","","null","<img src=""img/land5.png"" style=""width:200px;border:14px solid red;"">","null","","","","","","","","","",""
"","image-keyboard-response","102","36131","0.0-102.0","3SB5N7Y3O4Q8PVSWCHTLAKCR90E0GV","A1NDMFN9A5G25G","3JAOYN9IHLO1QRHB9NZI45P11ZM33A","","26.299999952316284","img/land1.png","75","27.800000071525574","2","1","3","2","1,0.5,0.5,0.5,1,0.5,0.5,0.5,1","0.5,0.5,1,1,0.5,0.5,0.5,1,0.5","2","",""
"","html-keyboard-response","103","36433","0.0-103.0","3SB5N7Y3O4Q8PVSWCHTLAKCR90E0GV","A1NDMFN9A5G25G","3JAOYN9IHLO1QRHB9NZI45P11ZM33A","","null","<img src=""img/land1.png"" style=""width:200px; border:14px solid green;"">","null","","","","","","","","","",""
"","image-keyboard-response","104","36615","0.0-104.0","3SB5N7Y3O4Q8PVSWCHTLAKCR90E0GV","A1NDMFN9A5G25G","3JAOYN9IHLO1QRHB9NZI45P11ZM33A","","180.09999990463257","img/land1.png","76","181.10000002384186","3","0","3","2","1,0.5,0.5,0.5,1,0.5,0.5,0.5,1","0.5,0.5,1,1,0.5,0.5,0.5,1,0.5","2","",""
"","html-keyboard-response","105","36917","0.0-105.0","3SB5N7Y3O4Q8PVSWCHTLAKCR90E0GV","A1NDMFN9A5G25G","3JAOYN9IHLO1QRHB9NZI45P11ZM33A","","null","<img src=""img/land1.png"" style=""width:200px;border:14px solid red;"">","null","","","","","","","","","",""
"","image-keyboard-response","106","37033","0.0-106.0","3SB5N7Y3O4Q8PVSWCHTLAKCR90E0GV","A1NDMFN9A5G25G","3JAOYN9IHLO1QRHB9NZI45P11ZM33A","","113","img/land3.png","74","114.70000004768372","1","1","2","2","1,0.5,0.5,0.5,1,0.5,0.5,0.5,1","0.5,0.5,1,1,0.5,0.5,0.5,1,0.5","2","",""
"","html-keyboard-response","107","37337","0.0-107.0","3SB5N7Y3O4Q8PVSWCHTLAKCR90E0GV","A1NDMFN9A5G25G","3JAOYN9IHLO1QRHB9NZI45P11ZM33A","","null","<img src=""img/land3.png"" style=""width:200px; border:14px solid green;"">","null","","","","","","","","","",""
"","image-keyboard-response","108","37366","0.0-108.0","3SB5N7Y3O4Q8PVSWCHTLAKCR90E0GV","A1NDMFN9A5G25G","3JAOYN9IHLO1QRHB9NZI45P11ZM33A","","27.100000023841858","img/land1.png","76","28.600000023841858","3","0","3","2","1,0.5,0.5,0.5,1,0.5,0.5,0.5,1","0.5,0.5,1,1,0.5,0.5,0.5,1,0.5","2","",""
"","html-keyboard-response","109","37669","0.0-109.0","3SB5N7Y3O4Q8PVSWCHTLAKCR90E0GV","A1NDMFN9A5G25G","3JAOYN9IHLO1QRHB9NZI45P11ZM33A","","null","<img src=""img/land1.png"" style=""width:200px;border:14px solid red;"">","null","","","","","","","","","",""
"","image-keyboard-response","110","37752","0.0-110.0","3SB5N7Y3O4Q8PVSWCHTLAKCR90E0GV","A1NDMFN9A5G25G","3JAOYN9IHLO1QRHB9NZI45P11ZM33A","","82.29999995231628","img/land3.png","74","82.89999997615814","1","1","2","2","1,0.5,0.5,0.5,1,0.5,0.5,0.5,1","0.5,0.5,1,1,0.5,0.5,0.5,1,0.5","2","",""
"","html-keyboard-response","111","38053","0.0-111.0","3SB5N7Y3O4Q8PVSWCHTLAKCR90E0GV","A1NDMFN9A5G25G","3JAOYN9IHLO1QRHB9NZI45P11ZM33A","","null","<img src=""img/land3.png"" style=""width:200px; border:14px solid green;"">","null","","","","","","","","","",""
"","image-keyboard-response","112","38057","0.0-112.0","3SB5N7Y3O4Q8PVSWCHTLAKCR90E0GV","A1NDMFN9A5G25G","3JAOYN9IHLO1QRHB9NZI45P11ZM33A","","3.1999999284744263","img/land5.png","74","3.700000047683716","1","0","1","2","1,0.5,0.5,0.5,1,0.5,0.5,0.5,1","0.5,0.5,1,1,0.5,0.5,0.5,1,0.5","2","",""
"","html-keyboard-response","113","38359","0.0-113.0","3SB5N7Y3O4Q8PVSWCHTLAKCR90E0GV","A1NDMFN9A5G25G","3JAOYN9IHLO1QRHB9NZI45P11ZM33A","","null","<img src=""img/land5.png"" style=""width:200px;border:14px solid red;"">","null","","","","","","","","","",""
"","image-keyboard-response","114","38439","0.0-114.0","3SB5N7Y3O4Q8PVSWCHTLAKCR90E0GV","A1NDMFN9A5G25G","3JAOYN9IHLO1QRHB9NZI45P11ZM33A","","78.59999990463257","img/land5.png","74","79.79999995231628","1","1","1","2","1,0.5,0.5,0.5,1,0.5,0.5,0.5,1","0.5,0.5,1,1,0.5,0.5,0.5,1,0.5","2","",""
"","html-keyboard-response","115","38757","0.0-115.0","3SB5N7Y3O4Q8PVSWCHTLAKCR90E0GV","A1NDMFN9A5G25G","3JAOYN9IHLO1QRHB9NZI45P11ZM33A","","null","<img src=""img/land5.png"" style=""width:200px; border:14px solid green;"">","null","","","","","","","","","",""
"","image-keyboard-response","116","38793","0.0-116.0","3SB5N7Y3O4Q8PVSWCHTLAKCR90E0GV","A1NDMFN9A5G25G","3JAOYN9IHLO1QRHB9NZI45P11ZM33A","","35.5","img/land5.png","74","36.39999997615814","1","0","1","2","1,0.5,0.5,0.5,1,0.5,0.5,0.5,1","0.5,0.5,1,1,0.5,0.5,0.5,1,0.5","2","",""
"","html-keyboard-response","117","39096","0.0-117.0","3SB5N7Y3O4Q8PVSWCHTLAKCR90E0GV","A1NDMFN9A5G25G","3JAOYN9IHLO1QRHB9NZI45P11ZM33A","","null","<img src=""img/land5.png"" style=""width:200px;border:14px solid red;"">","null","","","","","","","","","",""
"","image-keyboard-response","118","39098","0.0-118.0","3SB5N7Y3O4Q8PVSWCHTLAKCR90E0GV","A1NDMFN9A5G25G","3JAOYN9IHLO1QRHB9NZI45P11ZM33A","","0.8999999761581421","img/land5.png","76","1.600000023841858","3","1","1","2","1,0.5,0.5,0.5,1,0.5,0.5,0.5,1","0.5,0.5,1,1,0.5,0.5,0.5,1,0.5","2","",""
"","html-keyboard-response","119","39401","0.0-119.0","3SB5N7Y3O4Q8PVSWCHTLAKCR90E0GV","A1NDMFN9A5G25G","3JAOYN9IHLO1QRHB9NZI45P11ZM33A","","null","<img src=""img/land5.png"" style=""width:200px; border:14px solid green;"">","null","","","","","","","","","",""
"","image-keyboard-response","120","39488","0.0-120.0","3SB5N7Y3O4Q8PVSWCHTLAKCR90E0GV","A1NDMFN9A5G25G","3JAOYN9IHLO1QRHB9NZI45P11ZM33A","","84.60000002384186","img/land1.png","75","86.39999997615814","2","1","3","2","1,0.5,0.5,0.5,1,0.5,0.5,0.5,1","0.5,0.5,1,1,0.5,0.5,0.5,1,0.5","2","",""
"","html-keyboard-response","121","39790","0.0-121.0","3SB5N7Y3O4Q8PVSWCHTLAKCR90E0GV","A1NDMFN9A5G25G","3JAOYN9IHLO1QRHB9NZI45P11ZM33A","","null","<img src=""img/land1.png"" style=""width:200px; border:14px solid green;"">","null","","","","","","","","","",""
"","image-keyboard-response","122","39823","0.0-122.0","3SB5N7Y3O4Q8PVSWCHTLAKCR90E0GV","A1NDMFN9A5G25G","3JAOYN9IHLO1QRHB9NZI45P11ZM33A","","31.700000047683716","img/land5.png","74","32.5","1","0","1","2","1,0.5,0.5,0.5,1,0.5,0.5,0.5,1","0.5,0.5,1,1,0.5,0.5,0.5,1,0.5","2","",""
"","html-keyboard-response","123","40125","0.0-123.0","3SB5N7Y3O4Q8PVSWCHTLAKCR90E0GV","A1NDMFN9A5G25G","3JAOYN9IHLO1QRHB9NZI45P11ZM33A","","null","<img src=""img/land5.png"" style=""width:200px;border:14px solid red;"">","null","","","","","","","","","",""
"","image-keyboard-response","124","40195","0.0-124.0","3SB5N7Y3O4Q8PVSWCHTLAKCR90E0GV","A1NDMFN9A5G25G","3JAOYN9IHLO1QRHB9NZI45P11ZM33A","","67.30000007152557","img/land1.png","76","69","3","1","3","2","1,0.5,0.5,0.5,1,0.5,0.5,0.5,1","0.5,0.5,1,1,0.5,0.5,0.5,1,0.5","2","",""
"","html-keyboard-response","125","40500","0.0-125.0","3SB5N7Y3O4Q8PVSWCHTLAKCR90E0GV","A1NDMFN9A5G25G","3JAOYN9IHLO1QRHB9NZI45P11ZM33A","","null","<img src=""img/land1.png"" style=""width:200px; border:14px solid green;"">","null","","","","","","","","","",""
"","image-keyboard-response","126","40537","0.0-126.0","3SB5N7Y3O4Q8PVSWCHTLAKCR90E0GV","A1NDMFN9A5G25G","3JAOYN9IHLO1QRHB9NZI45P11ZM33A","","34.39999997615814","img/land3.png","76","36.199999928474426","3","1","2","2","1,0.5,0.5,0.5,1,0.5,0.5,0.5,1","0.5,0.5,1,1,0.5,0.5,0.5,1,0.5","2","",""
"","html-keyboard-response","127","40840","0.0-127.0","3SB5N7Y3O4Q8PVSWCHTLAKCR90E0GV","A1NDMFN9A5G25G","3JAOYN9IHLO1QRHB9NZI45P11ZM33A","","null","<img src=""img/land3.png"" style=""width:200px; border:14px solid green;"">","null","","","","","","","","","",""
"","image-keyboard-response","128","40895","0.0-128.0","3SB5N7Y3O4Q8PVSWCHTLAKCR90E0GV","A1NDMFN9A5G25G","3JAOYN9IHLO1QRHB9NZI45P11ZM33A","","52.800000071525574","img/land1.png","75","53.700000047683716","2","1","3","2","1,0.5,0.5,0.5,1,0.5,0.5,0.5,1","0.5,0.5,1,1,0.5,0.5,0.5,1,0.5","2","",""
"","html-keyboard-response","129","41197","0.0-129.0","3SB5N7Y3O4Q8PVSWCHTLAKCR90E0GV","A1NDMFN9A5G25G","3JAOYN9IHLO1QRHB9NZI45P11ZM33A","","null","<img src=""img/land1.png"" style=""width:200px; border:14px solid green;"">","null","","","","","","","","","",""
"","image-keyboard-response","130","41273","0.0-130.0","3SB5N7Y3O4Q8PVSWCHTLAKCR90E0GV","A1NDMFN9A5G25G","3JAOYN9IHLO1QRHB9NZI45P11ZM33A","","73.29999995231628","img/land1.png","74","75.20000004768372","1","0","3","2","1,0.5,0.5,0.5,1,0.5,0.5,0.5,1","0.5,0.5,1,1,0.5,0.5,0.5,1,0.5","2","",""
"","html-keyboard-response","131","41581","0.0-131.0","3SB5N7Y3O4Q8PVSWCHTLAKCR90E0GV","A1NDMFN9A5G25G","3JAOYN9IHLO1QRHB9NZI45P11ZM33A","","null","<img src=""img/land1.png"" style=""width:200px;border:14px solid red;"">","null","","","","","","","","","",""
"","image-keyboard-response","132","41624","0.0-132.0","3SB5N7Y3O4Q8PVSWCHTLAKCR90E0GV","A1NDMFN9A5G25G","3JAOYN9IHLO1QRHB9NZI45P11ZM33A","","40","img/land1.png","76","41.699999928474426","3","0","3","2","1,0.5,0.5,0.5,1,0.5,0.5,0.5,1","0.5,0.5,1,1,0.5,0.5,0.5,1,0.5","2","",""
"","html-keyboard-response","133","41927","0.0-133.0","3SB5N7Y3O4Q8PVSWCHTLAKCR90E0GV","A1NDMFN9A5G25G","3JAOYN9IHLO1QRHB9NZI45P11ZM33A","","null","<img src=""img/land1.png"" style=""width:200px;border:14px solid red;"">","null","","","","","","","","","",""
"","image-keyboard-response","134","41942","0.0-134.0","3SB5N7Y3O4Q8PVSWCHTLAKCR90E0GV","A1NDMFN9A5G25G","3JAOYN9IHLO1QRHB9NZI45P11ZM33A","","11.599999904632568","img/land5.png","74","13.100000023841858","1","0","1","2","1,0.5,0.5,0.5,1,0.5,0.5,0.5,1","0.5,0.5,1,1,0.5,0.5,0.5,1,0.5","2","",""
"","html-keyboard-response","135","42244","0.0-135.0","3SB5N7Y3O4Q8PVSWCHTLAKCR90E0GV","A1NDMFN9A5G25G","3JAOYN9IHLO1QRHB9NZI45P11ZM33A","","null","<img src=""img/land5.png"" style=""width:200px;border:14px solid red;"">","null","","","","","","","","","",""
"","image-keyboard-response","136","42310","0.0-136.0","3SB5N7Y3O4Q8PVSWCHTLAKCR90E0GV","A1NDMFN9A5G25G","3JAOYN9IHLO1QRHB9NZI45P11ZM33A","","63.200000047683716","img/land1.png","75","64.79999995231628","2","1","3","2","1,0.5,0.5,0.5,1,0.5,0.5,0.5,1","0.5,0.5,1,1,0.5,0.5,0.5,1,0.5","2","",""
"","html-keyboard-response","137","42611","0.0-137.0","3SB5N7Y3O4Q8PVSWCHTLAKCR90E0GV","A1NDMFN9A5G25G","3JAOYN9IHLO1QRHB9NZI45P11ZM33A","","null","<img src=""img/land1.png"" style=""width:200px; border:14px solid green;"">","null","","","","","","","","","",""
"","image-keyboard-response","138","42653","0.0-138.0","3SB5N7Y3O4Q8PVSWCHTLAKCR90E0GV","A1NDMFN9A5G25G","3JAOYN9IHLO1QRHB9NZI45P11ZM33A","","41","img/land3.png","76","41.699999928474426","3","1","2","2","1,0.5,0.5,0.5,1,0.5,0.5,0.5,1","0.5,0.5,1,1,0.5,0.5,0.5,1,0.5","2","",""
"","html-keyboard-response","139","42954","0.0-139.0","3SB5N7Y3O4Q8PVSWCHTLAKCR90E0GV","A1NDMFN9A5G25G","3JAOYN9IHLO1QRHB9NZI45P11ZM33A","","null","<img src=""img/land3.png"" style=""width:200px; border:14px solid green;"">","null","","","","","","","","","",""
"","image-keyboard-response","140","42973","0.0-140.0","3SB5N7Y3O4Q8PVSWCHTLAKCR90E0GV","A1NDMFN9A5G25G","3JAOYN9IHLO1QRHB9NZI45P11ZM33A","","17.200000047683716","img/land5.png","74","18.399999976158142","1","0","1","2","1,0.5,0.5,0.5,1,0.5,0.5,0.5,1","0.5,0.5,1,1,0.5,0.5,0.5,1,0.5","2","",""
"","html-keyboard-response","141","43275","0.0-141.0","3SB5N7Y3O4Q8PVSWCHTLAKCR90E0GV","A1NDMFN9A5G25G","3JAOYN9IHLO1QRHB9NZI45P11ZM33A","","null","<img src=""img/land5.png"" style=""width:200px;border:14px solid red;"">","null","","","","","","","","","",""
"","image-keyboard-response","142","43320","0.0-142.0","3SB5N7Y3O4Q8PVSWCHTLAKCR90E0GV","A1NDMFN9A5G25G","3JAOYN9IHLO1QRHB9NZI45P11ZM33A","","42.89999997615814","img/land5.png","76","44","3","1","1","2","1,0.5,0.5,0.5,1,0.5,0.5,0.5,1","0.5,0.5,1,1,0.5,0.5,0.5,1,0.5","2","",""
"","html-keyboard-response","143","43623","0.0-143.0","3SB5N7Y3O4Q8PVSWCHTLAKCR90E0GV","A1NDMFN9A5G25G","3JAOYN9IHLO1QRHB9NZI45P11ZM33A","","null","<img src=""img/land5.png"" style=""width:200px; border:14px solid green;"">","null","","","","","","","","","",""
"","image-keyboard-response","144","43629","0.0-144.0","3SB5N7Y3O4Q8PVSWCHTLAKCR90E0GV","A1NDMFN9A5G25G","3JAOYN9IHLO1QRHB9NZI45P11ZM33A","","2.399999976158142","img/land5.png","76","4.300000071525574","3","1","1","2","1,0.5,0.5,0.5,1,0.5,0.5,0.5,1","0.5,0.5,1,1,0.5,0.5,0.5,1,0.5","2","",""
"","html-keyboard-response","145","43933","0.0-145.0","3SB5N7Y3O4Q8PVSWCHTLAKCR90E0GV","A1NDMFN9A5G25G","3JAOYN9IHLO1QRHB9NZI45P11ZM33A","","null","<img src=""img/land5.png"" style=""width:200px; border:14px solid green;"">","null","","","","","","","","","",""
"","image-keyboard-response","146","43936","0.0-146.0","3SB5N7Y3O4Q8PVSWCHTLAKCR90E0GV","A1NDMFN9A5G25G","3JAOYN9IHLO1QRHB9NZI45P11ZM33A","","0.9000000953674316","img/land5.png","74","2.399999976158142","1","0","1","2","1,0.5,0.5,0.5,1,0.5,0.5,0.5,1","0.5,0.5,1,1,0.5,0.5,0.5,1,0.5","2","",""
"","html-keyboard-response","147","44238","0.0-147.0","3SB5N7Y3O4Q8PVSWCHTLAKCR90E0GV","A1NDMFN9A5G25G","3JAOYN9IHLO1QRHB9NZI45P11ZM33A","","null","<img src=""img/land5.png"" style=""width:200px;border:14px solid red;"">","null","","","","","","","","","",""
"","image-keyboard-response","148","44475","0.0-148.0","3SB5N7Y3O4Q8PVSWCHTLAKCR90E0GV","A1NDMFN9A5G25G","3JAOYN9IHLO1QRHB9NZI45P11ZM33A","","234.30000007152557","img/land3.png","76","235.89999997615814","3","0","2","2","1,0.5,0.5,0.5,1,0.5,0.5,0.5,1","0.5,0.5,1,1,0.5,0.5,0.5,1,0.5","2","",""
"","html-keyboard-response","149","44778","0.0-149.0","3SB5N7Y3O4Q8PVSWCHTLAKCR90E0GV","A1NDMFN9A5G25G","3JAOYN9IHLO1QRHB9NZI45P11ZM33A","","null","<img src=""img/land3.png"" style=""width:200px;border:14px solid red;"">","null","","","","","","","","","",""
"","image-keyboard-response","150","44781","0.0-150.0","3SB5N7Y3O4Q8PVSWCHTLAKCR90E0GV","A1NDMFN9A5G25G","3JAOYN9IHLO1QRHB9NZI45P11ZM33A","","1.1999999284744263","img/land5.png","76","2.600000023841858","3","1","1","2","1,0.5,0.5,0.5,1,0.5,0.5,0.5,1","0.5,0.5,1,1,0.5,0.5,0.5,1,0.5","2","",""
"","html-keyboard-response","151","45083","0.0-151.0","3SB5N7Y3O4Q8PVSWCHTLAKCR90E0GV","A1NDMFN9A5G25G","3JAOYN9IHLO1QRHB9NZI45P11ZM33A","","null","<img src=""img/land5.png"" style=""width:200px; border:14px solid green;"">","null","","","","","","","","","",""
"","image-keyboard-response","152","45084","0.0-152.0","3SB5N7Y3O4Q8PVSWCHTLAKCR90E0GV","A1NDMFN9A5G25G","3JAOYN9IHLO1QRHB9NZI45P11ZM33A","","0.2999999523162842","img/land5.png","74","0.7000000476837158","1","1","1","2","1,0.5,0.5,0.5,1,0.5,0.5,0.5,1","0.5,0.5,1,1,0.5,0.5,0.5,1,0.5","2","",""
"","html-keyboard-response","153","45386","0.0-153.0","3SB5N7Y3O4Q8PVSWCHTLAKCR90E0GV","A1NDMFN9A5G25G","3JAOYN9IHLO1QRHB9NZI45P11ZM33A","","null","<img src=""img/land5.png"" style=""width:200px; border:14px solid green;"">","null","","","","","","","","","",""
"","image-keyboard-response","154","45423","0.0-154.0","3SB5N7Y3O4Q8PVSWCHTLAKCR90E0GV","A1NDMFN9A5G25G","3JAOYN9IHLO1QRHB9NZI45P11ZM33A","","35","img/land5.png","74","36.200000047683716","1","1","1","2","1,0.5,0.5,0.5,1,0.5,0.5,0.5,1","0.5,0.5,1,1,0.5,0.5,0.5,1,0.5","2","",""
"","html-keyboard-response","155","45726","0.0-155.0","3SB5N7Y3O4Q8PVSWCHTLAKCR90E0GV","A1NDMFN9A5G25G","3JAOYN9IHLO1QRHB9NZI45P11ZM33A","","null","<img src=""img/land5.png"" style=""width:200px; border:14px solid green;"">","null","","","","","","","","","",""
"","image-keyboard-response","156","45775","0.0-156.0","3SB5N7Y3O4Q8PVSWCHTLAKCR90E0GV","A1NDMFN9A5G25G","3JAOYN9IHLO1QRHB9NZI45P11ZM33A","","47.200000047683716","img/land5.png","75","48.5","2","1","1","2","1,0.5,0.5,0.5,1,0.5,0.5,0.5,1","0.5,0.5,1,1,0.5,0.5,0.5,1,0.5","2","",""
"","html-keyboard-response","157","46078","0.0-157.0","3SB5N7Y3O4Q8PVSWCHTLAKCR90E0GV","A1NDMFN9A5G25G","3JAOYN9IHLO1QRHB9NZI45P11ZM33A","","null","<img src=""img/land5.png"" style=""width:200px; border:14px solid green;"">","null","","","","","","","","","",""
"","image-keyboard-response","158","46245","0.0-158.0","3SB5N7Y3O4Q8PVSWCHTLAKCR90E0GV","A1NDMFN9A5G25G","3JAOYN9IHLO1QRHB9NZI45P11ZM33A","","164.80000007152557","img/land1.png","74","166","1","1","3","2","1,0.5,0.5,0.5,1,0.5,0.5,0.5,1","0.5,0.5,1,1,0.5,0.5,0.5,1,0.5","2","",""
"","html-keyboard-response","159","46546","0.0-159.0","3SB5N7Y3O4Q8PVSWCHTLAKCR90E0GV","A1NDMFN9A5G25G","3JAOYN9IHLO1QRHB9NZI45P11ZM33A","","null","<img src=""img/land1.png"" style=""width:200px; border:14px solid green;"">","null","","","","","","","","","",""
"","image-keyboard-response","160","46633","0.0-160.0","3SB5N7Y3O4Q8PVSWCHTLAKCR90E0GV","A1NDMFN9A5G25G","3JAOYN9IHLO1QRHB9NZI45P11ZM33A","","85.30000007152557","img/land1.png","75","86","2","1","3","2","1,0.5,0.5,0.5,1,0.5,0.5,0.5,1","0.5,0.5,1,1,0.5,0.5,0.5,1,0.5","2","",""
"","html-keyboard-response","161","46935","0.0-161.0","3SB5N7Y3O4Q8PVSWCHTLAKCR90E0GV","A1NDMFN9A5G25G","3JAOYN9IHLO1QRHB9NZI45P11ZM33A","","null","<img src=""img/land1.png"" style=""width:200px; border:14px solid green;"">","null","","","","","","","","","",""
"","image-keyboard-response","162","46946","0.0-162.0","3SB5N7Y3O4Q8PVSWCHTLAKCR90E0GV","A1NDMFN9A5G25G","3JAOYN9IHLO1QRHB9NZI45P11ZM33A","","8.299999952316284","img/land5.png","75","9.899999976158142","2","1","1","2","1,0.5,0.5,0.5,1,0.5,0.5,0.5,1","0.5,0.5,1,1,0.5,0.5,0.5,1,0.5","2","",""
"","html-keyboard-response","163","47250","0.0-163.0","3SB5N7Y3O4Q8PVSWCHTLAKCR90E0GV","A1NDMFN9A5G25G","3JAOYN9IHLO1QRHB9NZI45P11ZM33A","","null","<img src=""img/land5.png"" style=""width:200px; border:14px solid green;"">","null","","","","","","","","","",""
"","image-keyboard-response","164","47259","0.0-164.0","3SB5N7Y3O4Q8PVSWCHTLAKCR90E0GV","A1NDMFN9A5G25G","3JAOYN9IHLO1QRHB9NZI45P11ZM33A","","8.200000047683716","img/land5.png","74","9","1","1","1","2","1,0.5,0.5,0.5,1,0.5,0.5,0.5,1","0.5,0.5,1,1,0.5,0.5,0.5,1,0.5","2","",""
"","html-keyboard-response","165","47561","0.0-165.0","3SB5N7Y3O4Q8PVSWCHTLAKCR90E0GV","A1NDMFN9A5G25G","3JAOYN9IHLO1QRHB9NZI45P11ZM33A","","null","<img src=""img/land5.png"" style=""width:200px; border:14px solid green;"">","null","","","","","","","","","",""
"","image-keyboard-response","166","47609","0.0-166.0","3SB5N7Y3O4Q8PVSWCHTLAKCR90E0GV","A1NDMFN9A5G25G","3JAOYN9IHLO1QRHB9NZI45P11ZM33A","","44.60000002384186","img/land3.png","74","46.5","1","1","2","2","1,0.5,0.5,0.5,1,0.5,0.5,0.5,1","0.5,0.5,1,1,0.5,0.5,0.5,1,0.5","2","",""
"","html-keyboard-response","167","47912","0.0-167.0","3SB5N7Y3O4Q8PVSWCHTLAKCR90E0GV","A1NDMFN9A5G25G","3JAOYN9IHLO1QRHB9NZI45P11ZM33A","","null","<img src=""img/land3.png"" style=""width:200px; border:14px solid green;"">","null","","","","","","","","","",""
"","image-keyboard-response","168","47959","0.0-168.0","3SB5N7Y3O4Q8PVSWCHTLAKCR90E0GV","A1NDMFN9A5G25G","3JAOYN9IHLO1QRHB9NZI45P11ZM33A","","43.89999997615814","img/land5.png","75","45.5","2","0","1","2","1,0.5,0.5,0.5,1,0.5,0.5,0.5,1","0.5,0.5,1,1,0.5,0.5,0.5,1,0.5","2","",""
"","html-keyboard-response","169","48268","0.0-169.0","3SB5N7Y3O4Q8PVSWCHTLAKCR90E0GV","A1NDMFN9A5G25G","3JAOYN9IHLO1QRHB9NZI45P11ZM33A","","null","<img src=""img/land5.png"" style=""width:200px;border:14px solid red;"">","null","","","","","","","","","",""
"","image-keyboard-response","170","48315","0.0-170.0","3SB5N7Y3O4Q8PVSWCHTLAKCR90E0GV","A1NDMFN9A5G25G","3JAOYN9IHLO1QRHB9NZI45P11ZM33A","","44.10000002384186","img/land5.png","75","45.89999997615814","2","1","1","2","1,0.5,0.5,0.5,1,0.5,0.5,0.5,1","0.5,0.5,1,1,0.5,0.5,0.5,1,0.5","2","",""
"","html-keyboard-response","171","48618","0.0-171.0","3SB5N7Y3O4Q8PVSWCHTLAKCR90E0GV","A1NDMFN9A5G25G","3JAOYN9IHLO1QRHB9NZI45P11ZM33A","","null","<img src=""img/land5.png"" style=""width:200px; border:14px solid green;"">","null","","","","","","","","","",""
"","image-keyboard-response","172","48765","0.0-172.0","3SB5N7Y3O4Q8PVSWCHTLAKCR90E0GV","A1NDMFN9A5G25G","3JAOYN9IHLO1QRHB9NZI45P11ZM33A","","145.10000002384186","img/land5.png","76","146.09999990463257","3","1","1","2","1,0.5,0.5,0.5,1,0.5,0.5,0.5,1","0.5,0.5,1,1,0.5,0.5,0.5,1,0.5","2","",""
"","html-keyboard-response","173","49068","0.0-173.0","3SB5N7Y3O4Q8PVSWCHTLAKCR90E0GV","A1NDMFN9A5G25G","3JAOYN9IHLO1QRHB9NZI45P11ZM33A","","null","<img src=""img/land5.png"" style=""width:200px; border:14px solid green;"">","null","","","","","","","","","",""
"","image-keyboard-response","174","49253","0.0-174.0","3SB5N7Y3O4Q8PVSWCHTLAKCR90E0GV","A1NDMFN9A5G25G","3JAOYN9IHLO1QRHB9NZI45P11ZM33A","","182.60000002384186","img/land5.png","75","184.19999992847443","2","1","1","2","1,0.5,0.5,0.5,1,0.5,0.5,0.5,1","0.5,0.5,1,1,0.5,0.5,0.5,1,0.5","2","",""
"","html-keyboard-response","175","49556","0.0-175.0","3SB5N7Y3O4Q8PVSWCHTLAKCR90E0GV","A1NDMFN9A5G25G","3JAOYN9IHLO1QRHB9NZI45P11ZM33A","","null","<img src=""img/land5.png"" style=""width:200px; border:14px solid green;"">","null","","","","","","","","","",""
"","image-keyboard-response","176","49586","0.0-176.0","3SB5N7Y3O4Q8PVSWCHTLAKCR90E0GV","A1NDMFN9A5G25G","3JAOYN9IHLO1QRHB9NZI45P11ZM33A","","28.700000047683716","img/land3.png","74","29.399999976158142","1","1","2","2","1,0.5,0.5,0.5,1,0.5,0.5,0.5,1","0.5,0.5,1,1,0.5,0.5,0.5,1,0.5","2","",""
"","html-keyboard-response","177","49887","0.0-177.0","3SB5N7Y3O4Q8PVSWCHTLAKCR90E0GV","A1NDMFN9A5G25G","3JAOYN9IHLO1QRHB9NZI45P11ZM33A","","null","<img src=""img/land3.png"" style=""width:200px; border:14px solid green;"">","null","","","","","","","","","",""
"","image-keyboard-response","178","49927","0.0-178.0","3SB5N7Y3O4Q8PVSWCHTLAKCR90E0GV","A1NDMFN9A5G25G","3JAOYN9IHLO1QRHB9NZI45P11ZM33A","","36.39999997615814","img/land5.png","74","38.90000009536743","1","0","1","2","1,0.5,0.5,0.5,1,0.5,0.5,0.5,1","0.5,0.5,1,1,0.5,0.5,0.5,1,0.5","2","",""
"","html-keyboard-response","179","50232","0.0-179.0","3SB5N7Y3O4Q8PVSWCHTLAKCR90E0GV","A1NDMFN9A5G25G","3JAOYN9IHLO1QRHB9NZI45P11ZM33A","","null","<img src=""img/land5.png"" style=""width:200px;border:14px solid red;"">","null","","","","","","","","","",""
"","image-keyboard-response","180","50277","0.0-180.0","3SB5N7Y3O4Q8PVSWCHTLAKCR90E0GV","A1NDMFN9A5G25G","3JAOYN9IHLO1QRHB9NZI45P11ZM33A","","42.5","img/land5.png","74","43.799999952316284","1","0","1","2","1,0.5,0.5,0.5,1,0.5,0.5,0.5,1","0.5,0.5,1,1,0.5,0.5,0.5,1,0.5","2","",""
"","html-keyboard-response","181","50579","0.0-181.0","3SB5N7Y3O4Q8PVSWCHTLAKCR90E0GV","A1NDMFN9A5G25G","3JAOYN9IHLO1QRHB9NZI45P11ZM33A","","null","<img src=""img/land5.png"" style=""width:200px;border:14px solid red;"">","null","","","","","","","","","",""
"","image-keyboard-response","182","50766","0.0-182.0","3SB5N7Y3O4Q8PVSWCHTLAKCR90E0GV","A1NDMFN9A5G25G","3JAOYN9IHLO1QRHB9NZI45P11ZM33A","","185.89999997615814","img/land5.png","76","186.89999997615814","3","1","1","2","1,0.5,0.5,0.5,1,0.5,0.5,0.5,1","0.5,0.5,1,1,0.5,0.5,0.5,1,0.5","2","",""
"","html-keyboard-response","183","51070","0.0-183.0","3SB5N7Y3O4Q8PVSWCHTLAKCR90E0GV","A1NDMFN9A5G25G","3JAOYN9IHLO1QRHB9NZI45P11ZM33A","","null","<img src=""img/land5.png"" style=""width:200px; border:14px solid green;"">","null","","","","","","","","","",""
"","image-keyboard-response","184","51080","0.0-184.0","3SB5N7Y3O4Q8PVSWCHTLAKCR90E0GV","A1NDMFN9A5G25G","3JAOYN9IHLO1QRHB9NZI45P11ZM33A","","6.800000071525574","img/land5.png","75","8.799999952316284","2","1","1","2","1,0.5,0.5,0.5,1,0.5,0.5,0.5,1","0.5,0.5,1,1,0.5,0.5,0.5,1,0.5","2","",""
"","html-keyboard-response","185","51387","0.0-185.0","3SB5N7Y3O4Q8PVSWCHTLAKCR90E0GV","A1NDMFN9A5G25G","3JAOYN9IHLO1QRHB9NZI45P11ZM33A","","null","<img src=""img/land5.png"" style=""width:200px; border:14px solid green;"">","null","","","","","","","","","",""
"","image-keyboard-response","186","51433","0.0-186.0","3SB5N7Y3O4Q8PVSWCHTLAKCR90E0GV","A1NDMFN9A5G25G","3JAOYN9IHLO1QRHB9NZI45P11ZM33A","","43","img/land5.png","74","45","1","0","1","2","1,0.5,0.5,0.5,1,0.5,0.5,0.5,1","0.5,0.5,1,1,0.5,0.5,0.5,1,0.5","2","",""
"","html-keyboard-response","187","51741","0.0-187.0","3SB5N7Y3O4Q8PVSWCHTLAKCR90E0GV","A1NDMFN9A5G25G","3JAOYN9IHLO1QRHB9NZI45P11ZM33A","","null","<img src=""img/land5.png"" style=""width:200px;border:14px solid red;"">","null","","","","","","","","","",""
"","image-keyboard-response","188","51822","0.0-188.0","3SB5N7Y3O4Q8PVSWCHTLAKCR90E0GV","A1NDMFN9A5G25G","3JAOYN9IHLO1QRHB9NZI45P11ZM33A","","79.10000002384186","img/land5.png","76","80.39999997615814","3","1","1","2","1,0.5,0.5,0.5,1,0.5,0.5,0.5,1","0.5,0.5,1,1,0.5,0.5,0.5,1,0.5","2","",""
"","html-keyboard-response","189","52124","0.0-189.0","3SB5N7Y3O4Q8PVSWCHTLAKCR90E0GV","A1NDMFN9A5G25G","3JAOYN9IHLO1QRHB9NZI45P11ZM33A","","null","<img src=""img/land5.png"" style=""width:200px; border:14px solid green;"">","null","","","","","","","","","",""
"","image-keyboard-response","190","52242","0.0-190.0","3SB5N7Y3O4Q8PVSWCHTLAKCR90E0GV","A1NDMFN9A5G25G","3JAOYN9IHLO1QRHB9NZI45P11ZM33A","","115.29999995231628","img/land5.png","75","117.10000002384186","2","1","1","2","1,0.5,0.5,0.5,1,0.5,0.5,0.5,1","0.5,0.5,1,1,0.5,0.5,0.5,1,0.5","2","",""
"","html-keyboard-response","191","52545","0.0-191.0","3SB5N7Y3O4Q8PVSWCHTLAKCR90E0GV","A1NDMFN9A5G25G","3JAOYN9IHLO1QRHB9NZI45P11ZM33A","","null","<img src=""img/land5.png"" style=""width:200px; border:14px solid green;"">","null","","","","","","","","","",""
"","image-keyboard-response","192","52688","0.0-192.0","3SB5N7Y3O4Q8PVSWCHTLAKCR90E0GV","A1NDMFN9A5G25G","3JAOYN9IHLO1QRHB9NZI45P11ZM33A","","141.29999995231628","img/land5.png","75","142.20000004768372","2","1","1","2","1,0.5,0.5,0.5,1,0.5,0.5,0.5,1","0.5,0.5,1,1,0.5,0.5,0.5,1,0.5","2","",""
"","html-keyboard-response","193","52989","0.0-193.0","3SB5N7Y3O4Q8PVSWCHTLAKCR90E0GV","A1NDMFN9A5G25G","3JAOYN9IHLO1QRHB9NZI45P11ZM33A","","null","<img src=""img/land5.png"" style=""width:200px; border:14px solid green;"">","null","","","","","","","","","",""
"","image-keyboard-response","194","53044","0.0-194.0","3SB5N7Y3O4Q8PVSWCHTLAKCR90E0GV","A1NDMFN9A5G25G","3JAOYN9IHLO1QRHB9NZI45P11ZM33A","","53.39999997615814","img/land5.png","76","54.39999997615814","3","1","1","2","1,0.5,0.5,0.5,1,0.5,0.5,0.5,1","0.5,0.5,1,1,0.5,0.5,0.5,1,0.5","2","",""
"","html-keyboard-response","195","53346","0.0-195.0","3SB5N7Y3O4Q8PVSWCHTLAKCR90E0GV","A1NDMFN9A5G25G","3JAOYN9IHLO1QRHB9NZI45P11ZM33A","","null","<img src=""img/land5.png"" style=""width:200px; border:14px solid green;"">","null","","","","","","","","","",""
"","image-keyboard-response","196","53493","0.0-196.0","3SB5N7Y3O4Q8PVSWCHTLAKCR90E0GV","A1NDMFN9A5G25G","3JAOYN9IHLO1QRHB9NZI45P11ZM33A","","145.80000007152557","img/land5.png","75","146.70000004768372","2","1","1","2","1,0.5,0.5,0.5,1,0.5,0.5,0.5,1","0.5,0.5,1,1,0.5,0.5,0.5,1,0.5","2","",""
"","html-keyboard-response","197","53795","0.0-197.0","3SB5N7Y3O4Q8PVSWCHTLAKCR90E0GV","A1NDMFN9A5G25G","3JAOYN9IHLO1QRHB9NZI45P11ZM33A","","null","<img src=""img/land5.png"" style=""width:200px; border:14px solid green;"">","null","","","","","","","","","",""
"","image-keyboard-response","198","53912","0.0-198.0","3SB5N7Y3O4Q8PVSWCHTLAKCR90E0GV","A1NDMFN9A5G25G","3JAOYN9IHLO1QRHB9NZI45P11ZM33A","","114.29999995231628","img/land5.png","74","115.89999997615814","1","0","1","2","1,0.5,0.5,0.5,1,0.5,0.5,0.5,1","0.5,0.5,1,1,0.5,0.5,0.5,1,0.5","2","",""
"","html-keyboard-response","199","54214","0.0-199.0","3SB5N7Y3O4Q8PVSWCHTLAKCR90E0GV","A1NDMFN9A5G25G","3JAOYN9IHLO1QRHB9NZI45P11ZM33A","","null","<img src=""img/land5.png"" style=""width:200px;border:14px solid red;"">","null","","","","","","","","","",""
"","image-keyboard-response","200","54304","0.0-200.0","3SB5N7Y3O4Q8PVSWCHTLAKCR90E0GV","A1NDMFN9A5G25G","3JAOYN9IHLO1QRHB9NZI45P11ZM33A","","87.69999992847443","img/land5.png","75","89.10000002384186","2","1","1","2","1,0.5,0.5,0.5,1,0.5,0.5,0.5,1","0.5,0.5,1,1,0.5,0.5,0.5,1,0.5","2","",""
"","html-keyboard-response","201","54607","0.0-201.0","3SB5N7Y3O4Q8PVSWCHTLAKCR90E0GV","A1NDMFN9A5G25G","3JAOYN9IHLO1QRHB9NZI45P11ZM33A","","null","<img src=""img/land5.png"" style=""width:200px; border:14px solid green;"">","null","","","","","","","","","",""
"","image-keyboard-response","202","54665","0.0-202.0","3SB5N7Y3O4Q8PVSWCHTLAKCR90E0GV","A1NDMFN9A5G25G","3JAOYN9IHLO1QRHB9NZI45P11ZM33A","","56.89999997615814","img/land5.png","75","57.60000002384186","2","0","1","2","1,0.5,0.5,0.5,1,0.5,0.5,0.5,1","0.5,0.5,1,1,0.5,0.5,0.5,1,0.5","2","",""
"","html-keyboard-response","203","54967","0.0-203.0","3SB5N7Y3O4Q8PVSWCHTLAKCR90E0GV","A1NDMFN9A5G25G","3JAOYN9IHLO1QRHB9NZI45P11ZM33A","","null","<img src=""img/land5.png"" style=""width:200px;border:14px solid red;"">","null","","","","","","","","","",""
"","image-keyboard-response","204","55114","0.0-204.0","3SB5N7Y3O4Q8PVSWCHTLAKCR90E0GV","A1NDMFN9A5G25G","3JAOYN9IHLO1QRHB9NZI45P11ZM33A","","144.89999997615814","img/land5.png","76","146.39999997615814","3","1","1","2","1,0.5,0.5,0.5,1,0.5,0.5,0.5,1","0.5,0.5,1,1,0.5,0.5,0.5,1,0.5","2","",""
"","html-keyboard-response","205","55416","0.0-205.0","3SB5N7Y3O4Q8PVSWCHTLAKCR90E0GV","A1NDMFN9A5G25G","3JAOYN9IHLO1QRHB9NZI45P11ZM33A","","null","<img src=""img/land5.png"" style=""width:200px; border:14px solid green;"">","null","","","","","","","","","",""
"","image-keyboard-response","206","55549","0.0-206.0","3SB5N7Y3O4Q8PVSWCHTLAKCR90E0GV","A1NDMFN9A5G25G","3JAOYN9IHLO1QRHB9NZI45P11ZM33A","","131.89999997615814","img/land5.png","76","133.20000004768372","3","1","1","2","1,0.5,0.5,0.5,1,0.5,0.5,0.5,1","0.5,0.5,1,1,0.5,0.5,0.5,1,0.5","2","",""
"","html-keyboard-response","207","55853","0.0-207.0","3SB5N7Y3O4Q8PVSWCHTLAKCR90E0GV","A1NDMFN9A5G25G","3JAOYN9IHLO1QRHB9NZI45P11ZM33A","","null","<img src=""img/land5.png"" style=""width:200px; border:14px solid green;"">","null","","","","","","","","","",""
"","image-keyboard-response","208","55898","0.0-208.0","3SB5N7Y3O4Q8PVSWCHTLAKCR90E0GV","A1NDMFN9A5G25G","3JAOYN9IHLO1QRHB9NZI45P11ZM33A","","41.89999997615814","img/land5.png","75","43.800000071525574","2","1","1","2","1,0.5,0.5,0.5,1,0.5,0.5,0.5,1","0.5,0.5,1,1,0.5,0.5,0.5,1,0.5","2","",""
"","html-keyboard-response","209","56202","0.0-209.0","3SB5N7Y3O4Q8PVSWCHTLAKCR90E0GV","A1NDMFN9A5G25G","3JAOYN9IHLO1QRHB9NZI45P11ZM33A","","null","<img src=""img/land5.png"" style=""width:200px; border:14px solid green;"">","null","","","","","","","","","",""
"","image-keyboard-response","210","56214","0.0-210.0","3SB5N7Y3O4Q8PVSWCHTLAKCR90E0GV","A1NDMFN9A5G25G","3JAOYN9IHLO1QRHB9NZI45P11ZM33A","","10","img/land5.png","74","11.600000023841858","1","1","1","2","1,0.5,0.5,0.5,1,0.5,0.5,0.5,1","0.5,0.5,1,1,0.5,0.5,0.5,1,0.5","2","",""
"","html-keyboard-response","211","56516","0.0-211.0","3SB5N7Y3O4Q8PVSWCHTLAKCR90E0GV","A1NDMFN9A5G25G","3JAOYN9IHLO1QRHB9NZI45P11ZM33A","","null","<img src=""img/land5.png"" style=""width:200px; border:14px solid green;"">","null","","","","","","","","","",""
"","image-keyboard-response","212","56552","0.0-212.0","3SB5N7Y3O4Q8PVSWCHTLAKCR90E0GV","A1NDMFN9A5G25G","3JAOYN9IHLO1QRHB9NZI45P11ZM33A","","35.699999928474426","img/land5.png","74","36.200000047683716","1","0","1","2","1,0.5,0.5,0.5,1,0.5,0.5,0.5,1","0.5,0.5,1,1,0.5,0.5,0.5,1,0.5","2","",""
"","html-keyboard-response","213","56854","0.0-213.0","3SB5N7Y3O4Q8PVSWCHTLAKCR90E0GV","A1NDMFN9A5G25G","3JAOYN9IHLO1QRHB9NZI45P11ZM33A","","null","<img src=""img/land5.png"" style=""width:200px;border:14px solid red;"">","null","","","","","","","","","",""
"","image-keyboard-response","214","56857","0.0-214.0","3SB5N7Y3O4Q8PVSWCHTLAKCR90E0GV","A1NDMFN9A5G25G","3JAOYN9IHLO1QRHB9NZI45P11ZM33A","","0.8000000715255737","img/land3.png","74","1.6999999284744263","1","1","2","2","1,0.5,0.5,0.5,1,0.5,0.5,0.5,1","0.5,0.5,1,1,0.5,0.5,0.5,1,0.5","2","",""
"","html-keyboard-response","215","57158","0.0-215.0","3SB5N7Y3O4Q8PVSWCHTLAKCR90E0GV","A1NDMFN9A5G25G","3JAOYN9IHLO1QRHB9NZI45P11ZM33A","","null","<img src=""img/land3.png"" style=""width:200px; border:14px solid green;"">","null","","","","","","","","","",""
"","image-keyboard-response","216","57179","0.0-216.0","3SB5N7Y3O4Q8PVSWCHTLAKCR90E0GV","A1NDMFN9A5G25G","3JAOYN9IHLO1QRHB9NZI45P11ZM33A","","18.799999952316284","img/land5.png","75","20.199999928474426","2","0","1","2","1,0.5,0.5,0.5,1,0.5,0.5,0.5,1","0.5,0.5,1,1,0.5,0.5,0.5,1,0.5","2","",""
"","html-keyboard-response","217","57488","0.0-217.0","3SB5N7Y3O4Q8PVSWCHTLAKCR90E0GV","A1NDMFN9A5G25G","3JAOYN9IHLO1QRHB9NZI45P11ZM33A","","null","<img src=""img/land5.png"" style=""width:200px;border:14px solid red;"">","null","","","","","","","","","",""
"","image-keyboard-response","218","57557","0.0-218.0","3SB5N7Y3O4Q8PVSWCHTLAKCR90E0GV","A1NDMFN9A5G25G","3JAOYN9IHLO1QRHB9NZI45P11ZM33A","","67.89999997615814","img/land5.png","75","69.30000007152557","2","0","1","2","1,0.5,0.5,0.5,1,0.5,0.5,0.5,1","0.5,0.5,1,1,0.5,0.5,0.5,1,0.5","2","",""
"","html-keyboard-response","219","57860","0.0-219.0","3SB5N7Y3O4Q8PVSWCHTLAKCR90E0GV","A1NDMFN9A5G25G","3JAOYN9IHLO1QRHB9NZI45P11ZM33A","","null","<img src=""img/land5.png"" style=""width:200px;border:14px solid red;"">","null","","","","","","","","","",""
"","image-keyboard-response","220","58000","0.0-220.0","3SB5N7Y3O4Q8PVSWCHTLAKCR90E0GV","A1NDMFN9A5G25G","3JAOYN9IHLO1QRHB9NZI45P11ZM33A","","138.20000004768372","img/land5.png","76","139","3","1","1","2","1,0.5,0.5,0.5,1,0.5,0.5,0.5,1","0.5,0.5,1,1,0.5,0.5,0.5,1,0.5","2","",""
"","html-keyboard-response","221","58301","0.0-221.0","3SB5N7Y3O4Q8PVSWCHTLAKCR90E0GV","A1NDMFN9A5G25G","3JAOYN9IHLO1QRHB9NZI45P11ZM33A","","null","<img src=""img/land5.png"" style=""width:200px; border:14px solid green;"">","null","","","","","","","","","",""
"","image-keyboard-response","222","58322","0.0-222.0","3SB5N7Y3O4Q8PVSWCHTLAKCR90E0GV","A1NDMFN9A5G25G","3JAOYN9IHLO1QRHB9NZI45P11ZM33A","","20.40000009536743","img/land5.png","76","20.899999976158142","3","1","1","2","1,0.5,0.5,0.5,1,0.5,0.5,0.5,1","0.5,0.5,1,1,0.5,0.5,0.5,1,0.5","2","",""
"","html-keyboard-response","223","58625","0.0-223.0","3SB5N7Y3O4Q8PVSWCHTLAKCR90E0GV","A1NDMFN9A5G25G","3JAOYN9IHLO1QRHB9NZI45P11ZM33A","","null","<img src=""img/land5.png"" style=""width:200px; border:14px solid green;"">","null","","","","","","","","","",""
"","image-keyboard-response","224","58652","0.0-224.0","3SB5N7Y3O4Q8PVSWCHTLAKCR90E0GV","A1NDMFN9A5G25G","3JAOYN9IHLO1QRHB9NZI45P11ZM33A","","26","img/land3.png","76","27.100000023841858","3","1","2","2","1,0.5,0.5,0.5,1,0.5,0.5,0.5,1","0.5,0.5,1,1,0.5,0.5,0.5,1,0.5","2","",""
"","html-keyboard-response","225","58955","0.0-225.0","3SB5N7Y3O4Q8PVSWCHTLAKCR90E0GV","A1NDMFN9A5G25G","3JAOYN9IHLO1QRHB9NZI45P11ZM33A","","null","<img src=""img/land3.png"" style=""width:200px; border:14px solid green;"">","null","","","","","","","","","",""
"","image-keyboard-response","226","59017","0.0-226.0","3SB5N7Y3O4Q8PVSWCHTLAKCR90E0GV","A1NDMFN9A5G25G","3JAOYN9IHLO1QRHB9NZI45P11ZM33A","","59.39999997615814","img/land5.png","75","60.90000009536743","2","0","1","2","1,0.5,0.5,0.5,1,0.5,0.5,0.5,1","0.5,0.5,1,1,0.5,0.5,0.5,1,0.5","2","",""
"","html-keyboard-response","227","59320","0.0-227.0","3SB5N7Y3O4Q8PVSWCHTLAKCR90E0GV","A1NDMFN9A5G25G","3JAOYN9IHLO1QRHB9NZI45P11ZM33A","","null","<img src=""img/land5.png"" style=""width:200px;border:14px solid red;"">","null","","","","","","","","","",""
"","image-keyboard-response","228","59374","0.0-228.0","3SB5N7Y3O4Q8PVSWCHTLAKCR90E0GV","A1NDMFN9A5G25G","3JAOYN9IHLO1QRHB9NZI45P11ZM33A","","50.300000071525574","img/land1.png","76","52.299999952316284","3","1","3","2","1,0.5,0.5,0.5,1,0.5,0.5,0.5,1","0.5,0.5,1,1,0.5,0.5,0.5,1,0.5","2","",""
"","html-keyboard-response","229","59677","0.0-229.0","3SB5N7Y3O4Q8PVSWCHTLAKCR90E0GV","A1NDMFN9A5G25G","3JAOYN9IHLO1QRHB9NZI45P11ZM33A","","null","<img src=""img/land1.png"" style=""width:200px; border:14px solid green;"">","null","","","","","","","","","",""
"","image-keyboard-response","230","59720","0.0-230.0","3SB5N7Y3O4Q8PVSWCHTLAKCR90E0GV","A1NDMFN9A5G25G","3JAOYN9IHLO1QRHB9NZI45P11ZM33A","","40","img/land5.png","76","42.199999928474426","3","1","1","2","1,0.5,0.5,0.5,1,0.5,0.5,0.5,1","0.5,0.5,1,1,0.5,0.5,0.5,1,0.5","2","",""
"","html-keyboard-response","231","60023","0.0-231.0","3SB5N7Y3O4Q8PVSWCHTLAKCR90E0GV","A1NDMFN9A5G25G","3JAOYN9IHLO1QRHB9NZI45P11ZM33A","","null","<img src=""img/land5.png"" style=""width:200px; border:14px solid green;"">","null","","","","","","","","","",""
"","image-keyboard-response","232","60074","0.0-232.0","3SB5N7Y3O4Q8PVSWCHTLAKCR90E0GV","A1NDMFN9A5G25G","3JAOYN9IHLO1QRHB9NZI45P11ZM33A","","50.39999997615814","img/land1.png","76","51.09999990463257","3","1","3","2","1,0.5,0.5,0.5,1,0.5,0.5,0.5,1","0.5,0.5,1,1,0.5,0.5,0.5,1,0.5","2","",""
"","html-keyboard-response","233","60376","0.0-233.0","3SB5N7Y3O4Q8PVSWCHTLAKCR90E0GV","A1NDMFN9A5G25G","3JAOYN9IHLO1QRHB9NZI45P11ZM33A","","null","<img src=""img/land1.png"" style=""width:200px; border:14px solid green;"">","null","","","","","","","","","",""
"","image-keyboard-response","234","60745","0.0-234.0","3SB5N7Y3O4Q8PVSWCHTLAKCR90E0GV","A1NDMFN9A5G25G","3JAOYN9IHLO1QRHB9NZI45P11ZM33A","","365.60000002384186","img/land3.png","76","367.89999997615814","3","1","2","2","1,0.5,0.5,0.5,1,0.5,0.5,0.5,1","0.5,0.5,1,1,0.5,0.5,0.5,1,0.5","2","",""
"","html-keyboard-response","235","61048","0.0-235.0","3SB5N7Y3O4Q8PVSWCHTLAKCR90E0GV","A1NDMFN9A5G25G","3JAOYN9IHLO1QRHB9NZI45P11ZM33A","","null","<img src=""img/land3.png"" style=""width:200px; border:14px solid green;"">","null","","","","","","","","","",""
"","image-keyboard-response","236","61261","0.0-236.0","3SB5N7Y3O4Q8PVSWCHTLAKCR90E0GV","A1NDMFN9A5G25G","3JAOYN9IHLO1QRHB9NZI45P11ZM33A","","212.60000002384186","img/land1.png","75","213.39999997615814","2","1","3","2","1,0.5,0.5,0.5,1,0.5,0.5,0.5,1","0.5,0.5,1,1,0.5,0.5,0.5,1,0.5","2","",""
"","html-keyboard-response","237","61564","0.0-237.0","3SB5N7Y3O4Q8PVSWCHTLAKCR90E0GV","A1NDMFN9A5G25G","3JAOYN9IHLO1QRHB9NZI45P11ZM33A","","null","<img src=""img/land1.png"" style=""width:200px; border:14px solid green;"">","null","","","","","","","","","",""
"","image-keyboard-response","238","61684","0.0-238.0","3SB5N7Y3O4Q8PVSWCHTLAKCR90E0GV","A1NDMFN9A5G25G","3JAOYN9IHLO1QRHB9NZI45P11ZM33A","","118.80000007152557","img/land1.png","76","120.09999990463257","3","1","3","2","1,0.5,0.5,0.5,1,0.5,0.5,0.5,1","0.5,0.5,1,1,0.5,0.5,0.5,1,0.5","2","",""
"","html-keyboard-response","239","61988","0.0-239.0","3SB5N7Y3O4Q8PVSWCHTLAKCR90E0GV","A1NDMFN9A5G25G","3JAOYN9IHLO1QRHB9NZI45P11ZM33A","","null","<img src=""img/land1.png"" style=""width:200px; border:14px solid green;"">","null","","","","","","","","","",""
"","image-keyboard-response","240","62091","0.0-240.0","3SB5N7Y3O4Q8PVSWCHTLAKCR90E0GV","A1NDMFN9A5G25G","3JAOYN9IHLO1QRHB9NZI45P11ZM33A","","100.89999997615814","img/land5.png","75","102.5","2","0","1","2","1,0.5,0.5,0.5,1,0.5,0.5,0.5,1","0.5,0.5,1,1,0.5,0.5,0.5,1,0.5","2","",""
"","html-keyboard-response","241","62393","0.0-241.0","3SB5N7Y3O4Q8PVSWCHTLAKCR90E0GV","A1NDMFN9A5G25G","3JAOYN9IHLO1QRHB9NZI45P11ZM33A","","null","<img src=""img/land5.png"" style=""width:200px;border:14px solid red;"">","null","","","","","","","","","",""
"","image-keyboard-response","242","62426","0.0-242.0","3SB5N7Y3O4Q8PVSWCHTLAKCR90E0GV","A1NDMFN9A5G25G","3JAOYN9IHLO1QRHB9NZI45P11ZM33A","","29.699999928474426","img/land3.png","74","31.399999976158142","1","1","2","2","1,0.5,0.5,0.5,1,0.5,0.5,0.5,1","0.5,0.5,1,1,0.5,0.5,0.5,1,0.5","2","",""
"","html-keyboard-response","243","62728","0.0-243.0","3SB5N7Y3O4Q8PVSWCHTLAKCR90E0GV","A1NDMFN9A5G25G","3JAOYN9IHLO1QRHB9NZI45P11ZM33A","","null","<img src=""img/land3.png"" style=""width:200px; border:14px solid green;"">","null","","","","","","","","","",""
"","image-keyboard-response","244","62853","0.0-244.0","3SB5N7Y3O4Q8PVSWCHTLAKCR90E0GV","A1NDMFN9A5G25G","3JAOYN9IHLO1QRHB9NZI45P11ZM33A","","123.30000007152557","img/land3.png","76","124.59999990463257","3","0","2","2","1,0.5,0.5,0.5,1,0.5,0.5,0.5,1","0.5,0.5,1,1,0.5,0.5,0.5,1,0.5","2","",""
"","html-keyboard-response","245","63157","0.0-245.0","3SB5N7Y3O4Q8PVSWCHTLAKCR90E0GV","A1NDMFN9A5G25G","3JAOYN9IHLO1QRHB9NZI45P11ZM33A","","null","<img src=""img/land3.png"" style=""width:200px;border:14px solid red;"">","null","","","","","","","","","",""
"","image-keyboard-response","246","63222","0.0-246.0","3SB5N7Y3O4Q8PVSWCHTLAKCR90E0GV","A1NDMFN9A5G25G","3JAOYN9IHLO1QRHB9NZI45P11ZM33A","","63.5","img/land3.png","76","64","3","1","2","2","1,0.5,0.5,0.5,1,0.5,0.5,0.5,1","0.5,0.5,1,1,0.5,0.5,0.5,1,0.5","2","",""
"","html-keyboard-response","247","63523","0.0-247.0","3SB5N7Y3O4Q8PVSWCHTLAKCR90E0GV","A1NDMFN9A5G25G","3JAOYN9IHLO1QRHB9NZI45P11ZM33A","","null","<img src=""img/land3.png"" style=""width:200px; border:14px solid green;"">","null","","","","","","","","","",""
"","image-keyboard-response","248","63547","0.0-248.0","3SB5N7Y3O4Q8PVSWCHTLAKCR90E0GV","A1NDMFN9A5G25G","3JAOYN9IHLO1QRHB9NZI45P11ZM33A","","22.700000047683716","img/land5.png","74","23.5","1","1","1","2","1,0.5,0.5,0.5,1,0.5,0.5,0.5,1","0.5,0.5,1,1,0.5,0.5,0.5,1,0.5","2","",""
"","html-keyboard-response","249","63848","0.0-249.0","3SB5N7Y3O4Q8PVSWCHTLAKCR90E0GV","A1NDMFN9A5G25G","3JAOYN9IHLO1QRHB9NZI45P11ZM33A","","null","<img src=""img/land5.png"" style=""width:200px; border:14px solid green;"">","null","","","","","","","","","",""
"","image-keyboard-response","250","63938","0.0-250.0","3SB5N7Y3O4Q8PVSWCHTLAKCR90E0GV","A1NDMFN9A5G25G","3JAOYN9IHLO1QRHB9NZI45P11ZM33A","","88.10000002384186","img/land1.png","75","89.59999990463257","2","1","3","2","1,0.5,0.5,0.5,1,0.5,0.5,0.5,1","0.5,0.5,1,1,0.5,0.5,0.5,1,0.5","2","",""
"","html-keyboard-response","251","64242","0.0-251.0","3SB5N7Y3O4Q8PVSWCHTLAKCR90E0GV","A1NDMFN9A5G25G","3JAOYN9IHLO1QRHB9NZI45P11ZM33A","","null","<img src=""img/land1.png"" style=""width:200px; border:14px solid green;"">","null","","","","","","","","","",""
"","image-keyboard-response","252","64402","0.0-252.0","3SB5N7Y3O4Q8PVSWCHTLAKCR90E0GV","A1NDMFN9A5G25G","3JAOYN9IHLO1QRHB9NZI45P11ZM33A","","159.20000004768372","img/land3.png","75","159.89999997615814","2","0","2","2","1,0.5,0.5,0.5,1,0.5,0.5,0.5,1","0.5,0.5,1,1,0.5,0.5,0.5,1,0.5","2","",""
"","html-keyboard-response","253","64704","0.0-253.0","3SB5N7Y3O4Q8PVSWCHTLAKCR90E0GV","A1NDMFN9A5G25G","3JAOYN9IHLO1QRHB9NZI45P11ZM33A","","null","<img src=""img/land3.png"" style=""width:200px;border:14px solid red;"">","null","","","","","","","","","",""
"","image-keyboard-response","254","64795","0.0-254.0","3SB5N7Y3O4Q8PVSWCHTLAKCR90E0GV","A1NDMFN9A5G25G","3JAOYN9IHLO1QRHB9NZI45P11ZM33A","","89.5","img/land3.png","76","90.89999997615814","3","0","2","2","1,0.5,0.5,0.5,1,0.5,0.5,0.5,1","0.5,0.5,1,1,0.5,0.5,0.5,1,0.5","2","",""
"","html-keyboard-response","255","65099","0.0-255.0","3SB5N7Y3O4Q8PVSWCHTLAKCR90E0GV","A1NDMFN9A5G25G","3JAOYN9IHLO1QRHB9NZI45P11ZM33A","","null","<img src=""img/land3.png"" style=""width:200px;border:14px solid red;"">","null","","","","","","","","","",""
"","image-keyboard-response","256","65124","0.0-256.0","3SB5N7Y3O4Q8PVSWCHTLAKCR90E0GV","A1NDMFN9A5G25G","3JAOYN9IHLO1QRHB9NZI45P11ZM33A","","22.90000009536743","img/land5.png","76","24.700000047683716","3","1","1","2","1,0.5,0.5,0.5,1,0.5,0.5,0.5,1","0.5,0.5,1,1,0.5,0.5,0.5,1,0.5","2","",""
"","html-keyboard-response","257","65428","0.0-257.0","3SB5N7Y3O4Q8PVSWCHTLAKCR90E0GV","A1NDMFN9A5G25G","3JAOYN9IHLO1QRHB9NZI45P11ZM33A","","null","<img src=""img/land5.png"" style=""width:200px; border:14px solid green;"">","null","","","","","","","","","",""
"","image-keyboard-response","258","65517","0.0-258.0","3SB5N7Y3O4Q8PVSWCHTLAKCR90E0GV","A1NDMFN9A5G25G","3JAOYN9IHLO1QRHB9NZI45P11ZM33A","","87.79999995231628","img/land3.png","75","89","2","0","2","2","1,0.5,0.5,0.5,1,0.5,0.5,0.5,1","0.5,0.5,1,1,0.5,0.5,0.5,1,0.5","2","",""
"","html-keyboard-response","259","65822","0.0-259.0","3SB5N7Y3O4Q8PVSWCHTLAKCR90E0GV","A1NDMFN9A5G25G","3JAOYN9IHLO1QRHB9NZI45P11ZM33A","","null","<img src=""img/land3.png"" style=""width:200px;border:14px solid red;"">","null","","","","","","","","","",""
"","image-keyboard-response","260","66050","0.0-260.0","3SB5N7Y3O4Q8PVSWCHTLAKCR90E0GV","A1NDMFN9A5G25G","3JAOYN9IHLO1QRHB9NZI45P11ZM33A","","224.5","img/land5.png","76","226.60000002384186","3","1","1","2","1,0.5,0.5,0.5,1,0.5,0.5,0.5,1","0.5,0.5,1,1,0.5,0.5,0.5,1,0.5","2","",""
"","html-keyboard-response","261","66354","0.0-261.0","3SB5N7Y3O4Q8PVSWCHTLAKCR90E0GV","A1NDMFN9A5G25G","3JAOYN9IHLO1QRHB9NZI45P11ZM33A","","null","<img src=""img/land5.png"" style=""width:200px; border:14px solid green;"">","null","","","","","","","","","",""
"","image-keyboard-response","262","66479","0.0-262.0","3SB5N7Y3O4Q8PVSWCHTLAKCR90E0GV","A1NDMFN9A5G25G","3JAOYN9IHLO1QRHB9NZI45P11ZM33A","","123.90000009536743","img/land5.png","76","124.60000002384186","3","1","1","2","1,0.5,0.5,0.5,1,0.5,0.5,0.5,1","0.5,0.5,1,1,0.5,0.5,0.5,1,0.5","2","",""
"","html-keyboard-response","263","66782","0.0-263.0","3SB5N7Y3O4Q8PVSWCHTLAKCR90E0GV","A1NDMFN9A5G25G","3JAOYN9IHLO1QRHB9NZI45P11ZM33A","","null","<img src=""img/land5.png"" style=""width:200px; border:14px solid green;"">","null","","","","","","","","","",""
"","image-keyboard-response","264","66847","0.0-264.0","3SB5N7Y3O4Q8PVSWCHTLAKCR90E0GV","A1NDMFN9A5G25G","3JAOYN9IHLO1QRHB9NZI45P11ZM33A","","62.89999997615814","img/land5.png","74","64.69999992847443","1","0","1","2","1,0.5,0.5,0.5,1,0.5,0.5,0.5,1","0.5,0.5,1,1,0.5,0.5,0.5,1,0.5","2","",""
"","html-keyboard-response","265","67151","0.0-265.0","3SB5N7Y3O4Q8PVSWCHTLAKCR90E0GV","A1NDMFN9A5G25G","3JAOYN9IHLO1QRHB9NZI45P11ZM33A","","null","<img src=""img/land5.png"" style=""width:200px;border:14px solid red;"">","null","","","","","","","","","",""
"","image-keyboard-response","266","67508","0.0-266.0","3SB5N7Y3O4Q8PVSWCHTLAKCR90E0GV","A1NDMFN9A5G25G","3JAOYN9IHLO1QRHB9NZI45P11ZM33A","","354.8000000715256","img/land5.png","74","356.2999999523163","1","1","1","2","1,0.5,0.5,0.5,1,0.5,0.5,0.5,1","0.5,0.5,1,1,0.5,0.5,0.5,1,0.5","2","",""
"","html-keyboard-response","267","67810","0.0-267.0","3SB5N7Y3O4Q8PVSWCHTLAKCR90E0GV","A1NDMFN9A5G25G","3JAOYN9IHLO1QRHB9NZI45P11ZM33A","","null","<img src=""img/land5.png"" style=""width:200px; border:14px solid green;"">","null","","","","","","","","","",""
"","image-keyboard-response","268","67868","0.0-268.0","3SB5N7Y3O4Q8PVSWCHTLAKCR90E0GV","A1NDMFN9A5G25G","3JAOYN9IHLO1QRHB9NZI45P11ZM33A","","55.5","img/land1.png","76","57.299999952316284","3","1","3","2","1,0.5,0.5,0.5,1,0.5,0.5,0.5,1","0.5,0.5,1,1,0.5,0.5,0.5,1,0.5","2","",""
"","html-keyboard-response","269","68171","0.0-269.0","3SB5N7Y3O4Q8PVSWCHTLAKCR90E0GV","A1NDMFN9A5G25G","3JAOYN9IHLO1QRHB9NZI45P11ZM33A","","null","<img src=""img/land1.png"" style=""width:200px; border:14px solid green;"">","null","","","","","","","","","",""
"","image-keyboard-response","270","68262","0.0-270.0","3SB5N7Y3O4Q8PVSWCHTLAKCR90E0GV","A1NDMFN9A5G25G","3JAOYN9IHLO1QRHB9NZI45P11ZM33A","","88.59999990463257","img/land5.png","74","90","1","1","1","2","1,0.5,0.5,0.5,1,0.5,0.5,0.5,1","0.5,0.5,1,1,0.5,0.5,0.5,1,0.5","2","",""
"","html-keyboard-response","271","68563","0.0-271.0","3SB5N7Y3O4Q8PVSWCHTLAKCR90E0GV","A1NDMFN9A5G25G","3JAOYN9IHLO1QRHB9NZI45P11ZM33A","","null","<img src=""img/land5.png"" style=""width:200px; border:14px solid green;"">","null","","","","","","","","","",""
"","image-keyboard-response","272","68612","0.0-272.0","3SB5N7Y3O4Q8PVSWCHTLAKCR90E0GV","A1NDMFN9A5G25G","3JAOYN9IHLO1QRHB9NZI45P11ZM33A","","48","img/land5.png","74","48.800000071525574","1","0","1","2","1,0.5,0.5,0.5,1,0.5,0.5,0.5,1","0.5,0.5,1,1,0.5,0.5,0.5,1,0.5","2","",""
"","html-keyboard-response","273","68915","0.0-273.0","3SB5N7Y3O4Q8PVSWCHTLAKCR90E0GV","A1NDMFN9A5G25G","3JAOYN9IHLO1QRHB9NZI45P11ZM33A","","null","<img src=""img/land5.png"" style=""width:200px;border:14px solid red;"">","null","","","","","","","","","",""
"","image-keyboard-response","274","68976","0.0-274.0","3SB5N7Y3O4Q8PVSWCHTLAKCR90E0GV","A1NDMFN9A5G25G","3JAOYN9IHLO1QRHB9NZI45P11ZM33A","","58.5","img/land5.png","75","60.39999997615814","2","0","1","2","1,0.5,0.5,0.5,1,0.5,0.5,0.5,1","0.5,0.5,1,1,0.5,0.5,0.5,1,0.5","2","",""
"","html-keyboard-response","275","69279","0.0-275.0","3SB5N7Y3O4Q8PVSWCHTLAKCR90E0GV","A1NDMFN9A5G25G","3JAOYN9IHLO1QRHB9NZI45P11ZM33A","","null","<img src=""img/land5.png"" style=""width:200px;border:14px solid red;"">","null","","","","","","","","","",""
"","image-keyboard-response","276","69346","0.0-276.0","3SB5N7Y3O4Q8PVSWCHTLAKCR90E0GV","A1NDMFN9A5G25G","3JAOYN9IHLO1QRHB9NZI45P11ZM33A","","64.29999995231628","img/land5.png","75","66.19999992847443","2","0","1","2","1,0.5,0.5,0.5,1,0.5,0.5,0.5,1","0.5,0.5,1,1,0.5,0.5,0.5,1,0.5","2","",""
"","html-keyboard-response","277","69650","0.0-277.0","3SB5N7Y3O4Q8PVSWCHTLAKCR90E0GV","A1NDMFN9A5G25G","3JAOYN9IHLO1QRHB9NZI45P11ZM33A","","null","<img src=""img/land5.png"" style=""width:200px;border:14px solid red;"">","null","","","","","","","","","",""
"","image-keyboard-response","278","69704","0.0-278.0","3SB5N7Y3O4Q8PVSWCHTLAKCR90E0GV","A1NDMFN9A5G25G","3JAOYN9IHLO1QRHB9NZI45P11ZM33A","","53","img/land1.png","75","53.799999952316284","2","1","3","2","1,0.5,0.5,0.5,1,0.5,0.5,0.5,1","0.5,0.5,1,1,0.5,0.5,0.5,1,0.5","2","",""
"","html-keyboard-response","279","70007","0.0-279.0","3SB5N7Y3O4Q8PVSWCHTLAKCR90E0GV","A1NDMFN9A5G25G","3JAOYN9IHLO1QRHB9NZI45P11ZM33A","","null","<img src=""img/land1.png"" style=""width:200px; border:14px solid green;"">","null","","","","","","","","","",""
"","image-keyboard-response","280","70098","0.0-280.0","3SB5N7Y3O4Q8PVSWCHTLAKCR90E0GV","A1NDMFN9A5G25G","3JAOYN9IHLO1QRHB9NZI45P11ZM33A","","87.89999997615814","img/land1.png","76","89.80000007152557","3","0","3","2","1,0.5,0.5,0.5,1,0.5,0.5,0.5,1","0.5,0.5,1,1,0.5,0.5,0.5,1,0.5","2","",""
"","html-keyboard-response","281","70400","0.0-281.0","3SB5N7Y3O4Q8PVSWCHTLAKCR90E0GV","A1NDMFN9A5G25G","3JAOYN9IHLO1QRHB9NZI45P11ZM33A","","null","<img src=""img/land1.png"" style=""width:200px;border:14px solid red;"">","null","","","","","","","","","",""
"","image-keyboard-response","282","70433","0.0-282.0","3SB5N7Y3O4Q8PVSWCHTLAKCR90E0GV","A1NDMFN9A5G25G","3JAOYN9IHLO1QRHB9NZI45P11ZM33A","","29.799999952316284","img/land3.png","76","31.90000009536743","3","0","2","2","1,0.5,0.5,0.5,1,0.5,0.5,0.5,1","0.5,0.5,1,1,0.5,0.5,0.5,1,0.5","2","",""
"","html-keyboard-response","283","70737","0.0-283.0","3SB5N7Y3O4Q8PVSWCHTLAKCR90E0GV","A1NDMFN9A5G25G","3JAOYN9IHLO1QRHB9NZI45P11ZM33A","","null","<img src=""img/land3.png"" style=""width:200px;border:14px solid red;"">","null","","","","","","","","","",""
"","image-keyboard-response","284","70767","0.0-284.0","3SB5N7Y3O4Q8PVSWCHTLAKCR90E0GV","A1NDMFN9A5G25G","3JAOYN9IHLO1QRHB9NZI45P11ZM33A","","26.699999928474426","img/land1.png","76","28.800000071525574","3","0","3","2","1,0.5,0.5,0.5,1,0.5,0.5,0.5,1","0.5,0.5,1,1,0.5,0.5,0.5,1,0.5","2","",""
"","html-keyboard-response","285","71070","0.0-285.0","3SB5N7Y3O4Q8PVSWCHTLAKCR90E0GV","A1NDMFN9A5G25G","3JAOYN9IHLO1QRHB9NZI45P11ZM33A","","null","<img src=""img/land1.png"" style=""width:200px;border:14px solid red;"">","null","","","","","","","","","",""
"","image-keyboard-response","286","71100","0.0-286.0","3SB5N7Y3O4Q8PVSWCHTLAKCR90E0GV","A1NDMFN9A5G25G","3JAOYN9IHLO1QRHB9NZI45P11ZM33A","","26.700000047683716","img/land5.png","74","28.800000071525574","1","1","1","2","1,0.5,0.5,0.5,1,0.5,0.5,0.5,1","0.5,0.5,1,1,0.5,0.5,0.5,1,0.5","2","",""
"","html-keyboard-response","287","71402","0.0-287.0","3SB5N7Y3O4Q8PVSWCHTLAKCR90E0GV","A1NDMFN9A5G25G","3JAOYN9IHLO1QRHB9NZI45P11ZM33A","","null","<img src=""img/land5.png"" style=""width:200px; border:14px solid green;"">","null","","","","","","","","","",""
"","image-keyboard-response","288","71498","0.0-288.0","3SB5N7Y3O4Q8PVSWCHTLAKCR90E0GV","A1NDMFN9A5G25G","3JAOYN9IHLO1QRHB9NZI45P11ZM33A","","95.10000002384186","img/land5.png","75","96.20000004768372","2","1","1","2","1,0.5,0.5,0.5,1,0.5,0.5,0.5,1","0.5,0.5,1,1,0.5,0.5,0.5,1,0.5","2","",""
"","html-keyboard-response","289","71802","0.0-289.0","3SB5N7Y3O4Q8PVSWCHTLAKCR90E0GV","A1NDMFN9A5G25G","3JAOYN9IHLO1QRHB9NZI45P11ZM33A","","null","<img src=""img/land5.png"" style=""width:200px; border:14px solid green;"">","null","","","","","","","","","",""
"","image-keyboard-response","290","71856","0.0-290.0","3SB5N7Y3O4Q8PVSWCHTLAKCR90E0GV","A1NDMFN9A5G25G","3JAOYN9IHLO1QRHB9NZI45P11ZM33A","","51.5","img/land3.png","76","53.299999952316284","3","0","2","2","1,0.5,0.5,0.5,1,0.5,0.5,0.5,1","0.5,0.5,1,1,0.5,0.5,0.5,1,0.5","2","",""
"","html-keyboard-response","291","72159","0.0-291.0","3SB5N7Y3O4Q8PVSWCHTLAKCR90E0GV","A1NDMFN9A5G25G","3JAOYN9IHLO1QRHB9NZI45P11ZM33A","","null","<img src=""img/land3.png"" style=""width:200px;border:14px solid red;"">","null","","","","","","","","","",""
"","image-keyboard-response","292","72244","0.0-292.0","3SB5N7Y3O4Q8PVSWCHTLAKCR90E0GV","A1NDMFN9A5G25G","3JAOYN9IHLO1QRHB9NZI45P11ZM33A","","82.5","img/land5.png","76","83.89999997615814","3","1","1","2","1,0.5,0.5,0.5,1,0.5,0.5,0.5,1","0.5,0.5,1,1,0.5,0.5,0.5,1,0.5","2","",""
"","html-keyboard-response","293","72546","0.0-293.0","3SB5N7Y3O4Q8PVSWCHTLAKCR90E0GV","A1NDMFN9A5G25G","3JAOYN9IHLO1QRHB9NZI45P11ZM33A","","null","<img src=""img/land5.png"" style=""width:200px; border:14px solid green;"">","null","","","","","","","","","",""
"","image-keyboard-response","294","72631","0.0-294.0","3SB5N7Y3O4Q8PVSWCHTLAKCR90E0GV","A1NDMFN9A5G25G","3JAOYN9IHLO1QRHB9NZI45P11ZM33A","","83.5","img/land5.png","74","84.30000007152557","1","1","1","2","1,0.5,0.5,0.5,1,0.5,0.5,0.5,1","0.5,0.5,1,1,0.5,0.5,0.5,1,0.5","2","",""
"","html-keyboard-response","295","72932","0.0-295.0","3SB5N7Y3O4Q8PVSWCHTLAKCR90E0GV","A1NDMFN9A5G25G","3JAOYN9IHLO1QRHB9NZI45P11ZM33A","","null","<img src=""img/land5.png"" style=""width:200px; border:14px solid green;"">","null","","","","","","","","","",""
"","image-keyboard-response","296","72961","0.0-296.0","3SB5N7Y3O4Q8PVSWCHTLAKCR90E0GV","A1NDMFN9A5G25G","3JAOYN9IHLO1QRHB9NZI45P11ZM33A","","26.100000023841858","img/land5.png","74","27.899999976158142","1","0","1","2","1,0.5,0.5,0.5,1,0.5,0.5,0.5,1","0.5,0.5,1,1,0.5,0.5,0.5,1,0.5","2","",""
"","html-keyboard-response","297","73263","0.0-297.0","3SB5N7Y3O4Q8PVSWCHTLAKCR90E0GV","A1NDMFN9A5G25G","3JAOYN9IHLO1QRHB9NZI45P11ZM33A","","null","<img src=""img/land5.png"" style=""width:200px;border:14px solid red;"">","null","","","","","","","","","",""
"","image-keyboard-response","298","73298","0.0-298.0","3SB5N7Y3O4Q8PVSWCHTLAKCR90E0GV","A1NDMFN9A5G25G","3JAOYN9IHLO1QRHB9NZI45P11ZM33A","","32.40000009536743","img/land5.png","74","34.09999990463257","1","0","1","2","1,0.5,0.5,0.5,1,0.5,0.5,0.5,1","0.5,0.5,1,1,0.5,0.5,0.5,1,0.5","2","",""
"","html-keyboard-response","299","73603","0.0-299.0","3SB5N7Y3O4Q8PVSWCHTLAKCR90E0GV","A1NDMFN9A5G25G","3JAOYN9IHLO1QRHB9NZI45P11ZM33A","","null","<img src=""img/land5.png"" style=""width:200px;border:14px solid red;"">","null","","","","","","","","","",""
"","image-keyboard-response","300","73669","0.0-300.0","3SB5N7Y3O4Q8PVSWCHTLAKCR90E0GV","A1NDMFN9A5G25G","3JAOYN9IHLO1QRHB9NZI45P11ZM33A","","64.29999995231628","img/land5.png","76","65.79999995231628","3","1","1","2","1,0.5,0.5,0.5,1,0.5,0.5,0.5,1","0.5,0.5,1,1,0.5,0.5,0.5,1,0.5","2","",""
"","html-keyboard-response","301","73972","0.0-301.0","3SB5N7Y3O4Q8PVSWCHTLAKCR90E0GV","A1NDMFN9A5G25G","3JAOYN9IHLO1QRHB9NZI45P11ZM33A","","null","<img src=""img/land5.png"" style=""width:200px; border:14px solid green;"">","null","","","","","","","","","",""
"","image-keyboard-response","302","73976","0.0-302.0","3SB5N7Y3O4Q8PVSWCHTLAKCR90E0GV","A1NDMFN9A5G25G","3JAOYN9IHLO1QRHB9NZI45P11ZM33A","","2.399999976158142","img/land6.png","76","2.899999976158142","3","1","3","1","1,0.5,0.5,0.5,1,0.5,0.5,0.5,1","1,0.5,0.5,0.5,1,0.5,0.5,0.5,1","1","",""
"","html-keyboard-response","303","74277","0.0-303.0","3SB5N7Y3O4Q8PVSWCHTLAKCR90E0GV","A1NDMFN9A5G25G","3JAOYN9IHLO1QRHB9NZI45P11ZM33A","","null","<img src=""img/land6.png"" style=""width:200px; border:14px solid green;"">","null","","","","","","","","","",""
"","image-keyboard-response","304","74306","0.0-304.0","3SB5N7Y3O4Q8PVSWCHTLAKCR90E0GV","A1NDMFN9A5G25G","3JAOYN9IHLO1QRHB9NZI45P11ZM33A","","28","img/land6.png","76","28.700000047683716","3","1","3","1","1,0.5,0.5,0.5,1,0.5,0.5,0.5,1","1,0.5,0.5,0.5,1,0.5,0.5,0.5,1","1","",""
"","html-keyboard-response","305","74608","0.0-305.0","3SB5N7Y3O4Q8PVSWCHTLAKCR90E0GV","A1NDMFN9A5G25G","3JAOYN9IHLO1QRHB9NZI45P11ZM33A","","null","<img src=""img/land6.png"" style=""width:200px; border:14px solid green;"">","null","","","","","","","","","",""
"","image-keyboard-response","306","74632","0.0-306.0","3SB5N7Y3O4Q8PVSWCHTLAKCR90E0GV","A1NDMFN9A5G25G","3JAOYN9IHLO1QRHB9NZI45P11ZM33A","","22.899999976158142","img/land4.png","76","23.5","3","0","1","1","1,0.5,0.5,0.5,1,0.5,0.5,0.5,1","1,0.5,0.5,0.5,1,0.5,0.5,0.5,1","1","",""
"","html-keyboard-response","307","74933","0.0-307.0","3SB5N7Y3O4Q8PVSWCHTLAKCR90E0GV","A1NDMFN9A5G25G","3JAOYN9IHLO1QRHB9NZI45P11ZM33A","","null","<img src=""img/land4.png"" style=""width:200px;border:14px solid red;"">","null","","","","","","","","","",""
"","image-keyboard-response","308","74972","0.0-308.0","3SB5N7Y3O4Q8PVSWCHTLAKCR90E0GV","A1NDMFN9A5G25G","3JAOYN9IHLO1QRHB9NZI45P11ZM33A","","36","img/land4.png","76","37.60000002384186","3","1","1","1","1,0.5,0.5,0.5,1,0.5,0.5,0.5,1","1,0.5,0.5,0.5,1,0.5,0.5,0.5,1","1","",""
"","html-keyboard-response","309","75275","0.0-309.0","3SB5N7Y3O4Q8PVSWCHTLAKCR90E0GV","A1NDMFN9A5G25G","3JAOYN9IHLO1QRHB9NZI45P11ZM33A","","null","<img src=""img/land4.png"" style=""width:200px; border:14px solid green;"">","null","","","","","","","","","",""
"","image-keyboard-response","310","75327","0.0-310.0","3SB5N7Y3O4Q8PVSWCHTLAKCR90E0GV","A1NDMFN9A5G25G","3JAOYN9IHLO1QRHB9NZI45P11ZM33A","","49.199999928474426","img/land6.png","74","50.5","1","1","3","1","1,0.5,0.5,0.5,1,0.5,0.5,0.5,1","1,0.5,0.5,0.5,1,0.5,0.5,0.5,1","1","",""
"","html-keyboard-response","311","75629","0.0-311.0","3SB5N7Y3O4Q8PVSWCHTLAKCR90E0GV","A1NDMFN9A5G25G","3JAOYN9IHLO1QRHB9NZI45P11ZM33A","","null","<img src=""img/land6.png"" style=""width:200px; border:14px solid green;"">","null","","","","","","","","","",""
"","image-keyboard-response","312","75680","0.0-312.0","3SB5N7Y3O4Q8PVSWCHTLAKCR90E0GV","A1NDMFN9A5G25G","3JAOYN9IHLO1QRHB9NZI45P11ZM33A","","48.699999928474426","img/land2.png","75","50.10000002384186","2","1","2","1","1,0.5,0.5,0.5,1,0.5,0.5,0.5,1","1,0.5,0.5,0.5,1,0.5,0.5,0.5,1","1","",""
"","html-keyboard-response","313","75981","0.0-313.0","3SB5N7Y3O4Q8PVSWCHTLAKCR90E0GV","A1NDMFN9A5G25G","3JAOYN9IHLO1QRHB9NZI45P11ZM33A","","null","<img src=""img/land2.png"" style=""width:200px; border:14px solid green;"">","null","","","","","","","","","",""
"","image-keyboard-response","314","76009","0.0-314.0","3SB5N7Y3O4Q8PVSWCHTLAKCR90E0GV","A1NDMFN9A5G25G","3JAOYN9IHLO1QRHB9NZI45P11ZM33A","","24.699999928474426","img/land4.png","74","26.600000023841858","1","1","1","1","1,0.5,0.5,0.5,1,0.5,0.5,0.5,1","1,0.5,0.5,0.5,1,0.5,0.5,0.5,1","1","",""
"","html-keyboard-response","315","76311","0.0-315.0","3SB5N7Y3O4Q8PVSWCHTLAKCR90E0GV","A1NDMFN9A5G25G","3JAOYN9IHLO1QRHB9NZI45P11ZM33A","","null","<img src=""img/land4.png"" style=""width:200px; border:14px solid green;"">","null","","","","","","","","","",""
"","image-keyboard-response","316","76359","0.0-316.0","3SB5N7Y3O4Q8PVSWCHTLAKCR90E0GV","A1NDMFN9A5G25G","3JAOYN9IHLO1QRHB9NZI45P11ZM33A","","45.10000002384186","img/land4.png","74","46.89999997615814","1","1","1","1","1,0.5,0.5,0.5,1,0.5,0.5,0.5,1","1,0.5,0.5,0.5,1,0.5,0.5,0.5,1","1","",""
"","html-keyboard-response","317","76664","0.0-317.0","3SB5N7Y3O4Q8PVSWCHTLAKCR90E0GV","A1NDMFN9A5G25G","3JAOYN9IHLO1QRHB9NZI45P11ZM33A","","null","<img src=""img/land4.png"" style=""width:200px; border:14px solid green;"">","null","","","","","","","","","",""
"","image-keyboard-response","318","76702","0.0-318.0","3SB5N7Y3O4Q8PVSWCHTLAKCR90E0GV","A1NDMFN9A5G25G","3JAOYN9IHLO1QRHB9NZI45P11ZM33A","","36.5","img/land6.png","74","37.700000047683716","1","0","3","1","1,0.5,0.5,0.5,1,0.5,0.5,0.5,1","1,0.5,0.5,0.5,1,0.5,0.5,0.5,1","1","",""
"","html-keyboard-response","319","77005","0.0-319.0","3SB5N7Y3O4Q8PVSWCHTLAKCR90E0GV","A1NDMFN9A5G25G","3JAOYN9IHLO1QRHB9NZI45P11ZM33A","","null","<img src=""img/land6.png"" style=""width:200px;border:14px solid red;"">","null","","","","","","","","","",""
"","image-keyboard-response","320","77069","0.0-320.0","3SB5N7Y3O4Q8PVSWCHTLAKCR90E0GV","A1NDMFN9A5G25G","3JAOYN9IHLO1QRHB9NZI45P11ZM33A","","62","img/land6.png","76","62.89999997615814","3","1","3","1","1,0.5,0.5,0.5,1,0.5,0.5,0.5,1","1,0.5,0.5,0.5,1,0.5,0.5,0.5,1","1","",""
"","html-keyboard-response","321","77370","0.0-321.0","3SB5N7Y3O4Q8PVSWCHTLAKCR90E0GV","A1NDMFN9A5G25G","3JAOYN9IHLO1QRHB9NZI45P11ZM33A","","null","<img src=""img/land6.png"" style=""width:200px; border:14px solid green;"">","null","","","","","","","","","",""
"","image-keyboard-response","322","77417","0.0-322.0","3SB5N7Y3O4Q8PVSWCHTLAKCR90E0GV","A1NDMFN9A5G25G","3JAOYN9IHLO1QRHB9NZI45P11ZM33A","","46.200000047683716","img/land6.png","76","46.800000071525574","3","1","3","1","1,0.5,0.5,0.5,1,0.5,0.5,0.5,1","1,0.5,0.5,0.5,1,0.5,0.5,0.5,1","1","",""
"","html-keyboard-response","323","77719","0.0-323.0","3SB5N7Y3O4Q8PVSWCHTLAKCR90E0GV","A1NDMFN9A5G25G","3JAOYN9IHLO1QRHB9NZI45P11ZM33A","","null","<img src=""img/land6.png"" style=""width:200px; border:14px solid green;"">","null","","","","","","","","","",""
"","image-keyboard-response","324","77737","0.0-324.0","3SB5N7Y3O4Q8PVSWCHTLAKCR90E0GV","A1NDMFN9A5G25G","3JAOYN9IHLO1QRHB9NZI45P11ZM33A","","17.100000023841858","img/land6.png","76","18","3","1","3","1","1,0.5,0.5,0.5,1,0.5,0.5,0.5,1","1,0.5,0.5,0.5,1,0.5,0.5,0.5,1","1","",""
"","html-keyboard-response","325","78040","0.0-325.0","3SB5N7Y3O4Q8PVSWCHTLAKCR90E0GV","A1NDMFN9A5G25G","3JAOYN9IHLO1QRHB9NZI45P11ZM33A","","null","<img src=""img/land6.png"" style=""width:200px; border:14px solid green;"">","null","","","","","","","","","",""
"","image-keyboard-response","326","78059","0.0-326.0","3SB5N7Y3O4Q8PVSWCHTLAKCR90E0GV","A1NDMFN9A5G25G","3JAOYN9IHLO1QRHB9NZI45P11ZM33A","","18.399999976158142","img/land4.png","76","18.899999976158142","3","1","1","1","1,0.5,0.5,0.5,1,0.5,0.5,0.5,1","1,0.5,0.5,0.5,1,0.5,0.5,0.5,1","1","",""
"","html-keyboard-response","327","78361","0.0-327.0","3SB5N7Y3O4Q8PVSWCHTLAKCR90E0GV","A1NDMFN9A5G25G","3JAOYN9IHLO1QRHB9NZI45P11ZM33A","","null","<img src=""img/land4.png"" style=""width:200px; border:14px solid green;"">","null","","","","","","","","","",""
"","image-keyboard-response","328","78406","0.0-328.0","3SB5N7Y3O4Q8PVSWCHTLAKCR90E0GV","A1NDMFN9A5G25G","3JAOYN9IHLO1QRHB9NZI45P11ZM33A","","43.5","img/land2.png","75","44.700000047683716","2","1","2","1","1,0.5,0.5,0.5,1,0.5,0.5,0.5,1","1,0.5,0.5,0.5,1,0.5,0.5,0.5,1","1","",""
"","html-keyboard-response","329","78710","0.0-329.0","3SB5N7Y3O4Q8PVSWCHTLAKCR90E0GV","A1NDMFN9A5G25G","3JAOYN9IHLO1QRHB9NZI45P11ZM33A","","null","<img src=""img/land2.png"" style=""width:200px; border:14px solid green;"">","null","","","","","","","","","",""
"","image-keyboard-response","330","78744","0.0-330.0","3SB5N7Y3O4Q8PVSWCHTLAKCR90E0GV","A1NDMFN9A5G25G","3JAOYN9IHLO1QRHB9NZI45P11ZM33A","","31","img/land4.png","74","32.699999928474426","1","1","1","1","1,0.5,0.5,0.5,1,0.5,0.5,0.5,1","1,0.5,0.5,0.5,1,0.5,0.5,0.5,1","1","",""
"","html-keyboard-response","331","79047","0.0-331.0","3SB5N7Y3O4Q8PVSWCHTLAKCR90E0GV","A1NDMFN9A5G25G","3JAOYN9IHLO1QRHB9NZI45P11ZM33A","","null","<img src=""img/land4.png"" style=""width:200px; border:14px solid green;"">","null","","","","","","","","","",""
"","image-keyboard-response","332","79097","0.0-332.0","3SB5N7Y3O4Q8PVSWCHTLAKCR90E0GV","A1NDMFN9A5G25G","3JAOYN9IHLO1QRHB9NZI45P11ZM33A","","48","img/land4.png","74","49.10000002384186","1","1","1","1","1,0.5,0.5,0.5,1,0.5,0.5,0.5,1","1,0.5,0.5,0.5,1,0.5,0.5,0.5,1","1","",""
"","html-keyboard-response","333","79399","0.0-333.0","3SB5N7Y3O4Q8PVSWCHTLAKCR90E0GV","A1NDMFN9A5G25G","3JAOYN9IHLO1QRHB9NZI45P11ZM33A","","null","<img src=""img/land4.png"" style=""width:200px; border:14px solid green;"">","null","","","","","","","","","",""
"","image-keyboard-response","334","79448","0.0-334.0","3SB5N7Y3O4Q8PVSWCHTLAKCR90E0GV","A1NDMFN9A5G25G","3JAOYN9IHLO1QRHB9NZI45P11ZM33A","","46.59999990463257","img/land4.png","74","48.200000047683716","1","1","1","1","1,0.5,0.5,0.5,1,0.5,0.5,0.5,1","1,0.5,0.5,0.5,1,0.5,0.5,0.5,1","1","",""
"","html-keyboard-response","335","79755","0.0-335.0","3SB5N7Y3O4Q8PVSWCHTLAKCR90E0GV","A1NDMFN9A5G25G","3JAOYN9IHLO1QRHB9NZI45P11ZM33A","","null","<img src=""img/land4.png"" style=""width:200px; border:14px solid green;"">","null","","","","","","","","","",""
"","image-keyboard-response","336","79794","0.0-336.0","3SB5N7Y3O4Q8PVSWCHTLAKCR90E0GV","A1NDMFN9A5G25G","3JAOYN9IHLO1QRHB9NZI45P11ZM33A","","36.39999997615814","img/land4.png","75","38","2","0","1","1","1,0.5,0.5,0.5,1,0.5,0.5,0.5,1","1,0.5,0.5,0.5,1,0.5,0.5,0.5,1","1","",""
"","html-keyboard-response","337","80096","0.0-337.0","3SB5N7Y3O4Q8PVSWCHTLAKCR90E0GV","A1NDMFN9A5G25G","3JAOYN9IHLO1QRHB9NZI45P11ZM33A","","null","<img src=""img/land4.png"" style=""width:200px;border:14px solid red;"">","null","","","","","","","","","",""
"","image-keyboard-response","338","80164","0.0-338.0","3SB5N7Y3O4Q8PVSWCHTLAKCR90E0GV","A1NDMFN9A5G25G","3JAOYN9IHLO1QRHB9NZI45P11ZM33A","","65.30000007152557","img/land2.png","75","67","2","1","2","1","1,0.5,0.5,0.5,1,0.5,0.5,0.5,1","1,0.5,0.5,0.5,1,0.5,0.5,0.5,1","1","",""
"","html-keyboard-response","339","80466","0.0-339.0","3SB5N7Y3O4Q8PVSWCHTLAKCR90E0GV","A1NDMFN9A5G25G","3JAOYN9IHLO1QRHB9NZI45P11ZM33A","","null","<img src=""img/land2.png"" style=""width:200px; border:14px solid green;"">","null","","","","","","","","","",""
"","image-keyboard-response","340","80624","0.0-340.0","3SB5N7Y3O4Q8PVSWCHTLAKCR90E0GV","A1NDMFN9A5G25G","3JAOYN9IHLO1QRHB9NZI45P11ZM33A","","156.60000002384186","img/land2.png","74","157.29999995231628","1","1","2","1","1,0.5,0.5,0.5,1,0.5,0.5,0.5,1","1,0.5,0.5,0.5,1,0.5,0.5,0.5,1","1","",""
"","html-keyboard-response","341","80926","0.0-341.0","3SB5N7Y3O4Q8PVSWCHTLAKCR90E0GV","A1NDMFN9A5G25G","3JAOYN9IHLO1QRHB9NZI45P11ZM33A","","null","<img src=""img/land2.png"" style=""width:200px; border:14px solid green;"">","null","","","","","","","","","",""
"","image-keyboard-response","342","80988","0.0-342.0","3SB5N7Y3O4Q8PVSWCHTLAKCR90E0GV","A1NDMFN9A5G25G","3JAOYN9IHLO1QRHB9NZI45P11ZM33A","","61.10000002384186","img/land4.png","74","62.299999952316284","1","1","1","1","1,0.5,0.5,0.5,1,0.5,0.5,0.5,1","1,0.5,0.5,0.5,1,0.5,0.5,0.5,1","1","",""
"","html-keyboard-response","343","81299","0.0-343.0","3SB5N7Y3O4Q8PVSWCHTLAKCR90E0GV","A1NDMFN9A5G25G","3JAOYN9IHLO1QRHB9NZI45P11ZM33A","","null","<img src=""img/land4.png"" style=""width:200px; border:14px solid green;"">","null","","","","","","","","","",""
"","image-keyboard-response","344","81327","0.0-344.0","3SB5N7Y3O4Q8PVSWCHTLAKCR90E0GV","A1NDMFN9A5G25G","3JAOYN9IHLO1QRHB9NZI45P11ZM33A","","25.100000023841858","img/land6.png","75","26.700000047683716","2","1","3","1","1,0.5,0.5,0.5,1,0.5,0.5,0.5,1","1,0.5,0.5,0.5,1,0.5,0.5,0.5,1","1","",""
"","html-keyboard-response","345","81629","0.0-345.0","3SB5N7Y3O4Q8PVSWCHTLAKCR90E0GV","A1NDMFN9A5G25G","3JAOYN9IHLO1QRHB9NZI45P11ZM33A","","null","<img src=""img/land6.png"" style=""width:200px; border:14px solid green;"">","null","","","","","","","","","",""
"","image-keyboard-response","346","81677","0.0-346.0","3SB5N7Y3O4Q8PVSWCHTLAKCR90E0GV","A1NDMFN9A5G25G","3JAOYN9IHLO1QRHB9NZI45P11ZM33A","","45.89999997615814","img/land6.png","75","47.39999997615814","2","1","3","1","1,0.5,0.5,0.5,1,0.5,0.5,0.5,1","1,0.5,0.5,0.5,1,0.5,0.5,0.5,1","1","",""
"","html-keyboard-response","347","81981","0.0-347.0","3SB5N7Y3O4Q8PVSWCHTLAKCR90E0GV","A1NDMFN9A5G25G","3JAOYN9IHLO1QRHB9NZI45P11ZM33A","","null","<img src=""img/land6.png"" style=""width:200px; border:14px solid green;"">","null","","","","","","","","","",""
"","image-keyboard-response","348","82122","0.0-348.0","3SB5N7Y3O4Q8PVSWCHTLAKCR90E0GV","A1NDMFN9A5G25G","3JAOYN9IHLO1QRHB9NZI45P11ZM33A","","138","img/land2.png","74","139.70000004768372","1","0","2","1","1,0.5,0.5,0.5,1,0.5,0.5,0.5,1","1,0.5,0.5,0.5,1,0.5,0.5,0.5,1","1","",""
"","html-keyboard-response","349","82423","0.0-349.0","3SB5N7Y3O4Q8PVSWCHTLAKCR90E0GV","A1NDMFN9A5G25G","3JAOYN9IHLO1QRHB9NZI45P11ZM33A","","null","<img src=""img/land2.png"" style=""width:200px;border:14px solid red;"">","null","","","","","","","","","",""
"","image-keyboard-response","350","82450","0.0-350.0","3SB5N7Y3O4Q8PVSWCHTLAKCR90E0GV","A1NDMFN9A5G25G","3JAOYN9IHLO1QRHB9NZI45P11ZM33A","","25.600000023841858","img/land4.png","75","26.5","2","0","1","1","1,0.5,0.5,0.5,1,0.5,0.5,0.5,1","1,0.5,0.5,0.5,1,0.5,0.5,0.5,1","1","",""
"","html-keyboard-response","351","82752","0.0-351.0","3SB5N7Y3O4Q8PVSWCHTLAKCR90E0GV","A1NDMFN9A5G25G","3JAOYN9IHLO1QRHB9NZI45P11ZM33A","","null","<img src=""img/land4.png"" style=""width:200px;border:14px solid red;"">","null","","","","","","","","","",""
"","image-keyboard-response","352","82782","0.0-352.0","3SB5N7Y3O4Q8PVSWCHTLAKCR90E0GV","A1NDMFN9A5G25G","3JAOYN9IHLO1QRHB9NZI45P11ZM33A","","26.899999976158142","img/land2.png","76","28.899999976158142","3","1","2","1","1,0.5,0.5,0.5,1,0.5,0.5,0.5,1","1,0.5,0.5,0.5,1,0.5,0.5,0.5,1","1","",""
"","html-keyboard-response","353","83085","0.0-353.0","3SB5N7Y3O4Q8PVSWCHTLAKCR90E0GV","A1NDMFN9A5G25G","3JAOYN9IHLO1QRHB9NZI45P11ZM33A","","null","<img src=""img/land2.png"" style=""width:200px; border:14px solid green;"">","null","","","","","","","","","",""
"","image-keyboard-response","354","83094","0.0-354.0","3SB5N7Y3O4Q8PVSWCHTLAKCR90E0GV","A1NDMFN9A5G25G","3JAOYN9IHLO1QRHB9NZI45P11ZM33A","","6.5","img/land2.png","76","8.600000023841858","3","0","2","1","1,0.5,0.5,0.5,1,0.5,0.5,0.5,1","1,0.5,0.5,0.5,1,0.5,0.5,0.5,1","1","",""
"","html-keyboard-response","355","83399","0.0-355.0","3SB5N7Y3O4Q8PVSWCHTLAKCR90E0GV","A1NDMFN9A5G25G","3JAOYN9IHLO1QRHB9NZI45P11ZM33A","","null","<img src=""img/land2.png"" style=""width:200px;border:14px solid red;"">","null","","","","","","","","","",""
"","image-keyboard-response","356","83425","0.0-356.0","3SB5N7Y3O4Q8PVSWCHTLAKCR90E0GV","A1NDMFN9A5G25G","3JAOYN9IHLO1QRHB9NZI45P11ZM33A","","24.699999928474426","img/land2.png","76","25.600000023841858","3","1","2","1","1,0.5,0.5,0.5,1,0.5,0.5,0.5,1","1,0.5,0.5,0.5,1,0.5,0.5,0.5,1","1","",""
"","html-keyboard-response","357","83726","0.0-357.0","3SB5N7Y3O4Q8PVSWCHTLAKCR90E0GV","A1NDMFN9A5G25G","3JAOYN9IHLO1QRHB9NZI45P11ZM33A","","null","<img src=""img/land2.png"" style=""width:200px; border:14px solid green;"">","null","","","","","","","","","",""
"","image-keyboard-response","358","83740","0.0-358.0","3SB5N7Y3O4Q8PVSWCHTLAKCR90E0GV","A1NDMFN9A5G25G","3JAOYN9IHLO1QRHB9NZI45P11ZM33A","","11.799999952316284","img/land6.png","74","12.899999976158142","1","1","3","1","1,0.5,0.5,0.5,1,0.5,0.5,0.5,1","1,0.5,0.5,0.5,1,0.5,0.5,0.5,1","1","",""
"","html-keyboard-response","359","84043","0.0-359.0","3SB5N7Y3O4Q8PVSWCHTLAKCR90E0GV","A1NDMFN9A5G25G","3JAOYN9IHLO1QRHB9NZI45P11ZM33A","","null","<img src=""img/land6.png"" style=""width:200px; border:14px solid green;"">","null","","","","","","","","","",""
"","image-keyboard-response","360","84129","0.0-360.0","3SB5N7Y3O4Q8PVSWCHTLAKCR90E0GV","A1NDMFN9A5G25G","3JAOYN9IHLO1QRHB9NZI45P11ZM33A","","82.79999995231628","img/land2.png","74","84.20000004768372","1","0","2","1","1,0.5,0.5,0.5,1,0.5,0.5,0.5,1","1,0.5,0.5,0.5,1,0.5,0.5,0.5,1","1","",""
"","html-keyboard-response","361","84431","0.0-361.0","3SB5N7Y3O4Q8PVSWCHTLAKCR90E0GV","A1NDMFN9A5G25G","3JAOYN9IHLO1QRHB9NZI45P11ZM33A","","null","<img src=""img/land2.png"" style=""width:200px;border:14px solid red;"">","null","","","","","","","","","",""
"","image-keyboard-response","362","84474","0.0-362.0","3SB5N7Y3O4Q8PVSWCHTLAKCR90E0GV","A1NDMFN9A5G25G","3JAOYN9IHLO1QRHB9NZI45P11ZM33A","","40.10000002384186","img/land6.png","74","41.800000071525574","1","0","3","1","1,0.5,0.5,0.5,1,0.5,0.5,0.5,1","1,0.5,0.5,0.5,1,0.5,0.5,0.5,1","1","",""
"","html-keyboard-response","363","84776","0.0-363.0","3SB5N7Y3O4Q8PVSWCHTLAKCR90E0GV","A1NDMFN9A5G25G","3JAOYN9IHLO1QRHB9NZI45P11ZM33A","","null","<img src=""img/land6.png"" style=""width:200px;border:14px solid red;"">","null","","","","","","","","","",""
