"success","trial_type","trial_index","time_elapsed","internal_node_id","assignmentID","mturkID","hitID","view_history","rt","stimulus","key_press","reactionTime","a","r","s","reward_cond","responses","question_order"
"true","fullscreen","0","2517","0.0-0.0","3IKZ72A5B525WRO823P13B8SF99FNV","A1NLJ1L4VCQYV2","3T5ZXGO9DEAUILU6S56NLENRQJRQZJ","","","","","","","","","","",""
"","instructions","1","11101","0.0-1.0","3IKZ72A5B525WRO823P13B8SF99FNV","A1NLJ1L4VCQYV2","3T5ZXGO9DEAUILU6S56NLENRQJRQZJ","[{""page_index"":0,""viewing_time"":1086},{""page_index"":1,""viewing_time"":893},{""page_index"":2,""viewing_time"":1288},{""page_index"":3,""viewing_time"":1568},{""page_index"":4,""viewing_time"":1523},{""page_index"":5,""viewing_time"":1011},{""page_index"":6,""viewing_time"":1210}]","8579","","","","","","","","",""
"","image-keyboard-response","2","11743","0.0-2.0","3IKZ72A5B525WRO823P13B8SF99FNV","A1NLJ1L4VCQYV2","3T5ZXGO9DEAUILU6S56NLENRQJRQZJ","","641","img/land1.png","74","641","1","1","1","1,0.5,0.5,0.5,1,0.5,0.5,0.5,1","",""
"","html-keyboard-response","3","12047","0.0-3.0","3IKZ72A5B525WRO823P13B8SF99FNV","A1NLJ1L4VCQYV2","3T5ZXGO9DEAUILU6S56NLENRQJRQZJ","","null","<img src=""img/land1.png"" style=""width:200px; border:14px solid green;"">","null","","","","","","",""
"","image-keyboard-response","4","12601","0.0-4.0","3IKZ72A5B525WRO823P13B8SF99FNV","A1NLJ1L4VCQYV2","3T5ZXGO9DEAUILU6S56NLENRQJRQZJ","","554","img/land2.png","75","555","2","1","2","1,0.5,0.5,0.5,1,0.5,0.5,0.5,1","",""
"","html-keyboard-response","5","12907","0.0-5.0","3IKZ72A5B525WRO823P13B8SF99FNV","A1NLJ1L4VCQYV2","3T5ZXGO9DEAUILU6S56NLENRQJRQZJ","","null","<img src=""img/land2.png"" style=""width:200px; border:14px solid green;"">","null","","","","","","",""
"","image-keyboard-response","6","13472","0.0-6.0","3IKZ72A5B525WRO823P13B8SF99FNV","A1NLJ1L4VCQYV2","3T5ZXGO9DEAUILU6S56NLENRQJRQZJ","","565","img/land1.png","74","565","1","1","1","1,0.5,0.5,0.5,1,0.5,0.5,0.5,1","",""
"","html-keyboard-response","7","13783","0.0-7.0","3IKZ72A5B525WRO823P13B8SF99FNV","A1NLJ1L4VCQYV2","3T5ZXGO9DEAUILU6S56NLENRQJRQZJ","","null","<img src=""img/land1.png"" style=""width:200px; border:14px solid green;"">","null","","","","","","",""
"","image-keyboard-response","8","14267","0.0-8.0","3IKZ72A5B525WRO823P13B8SF99FNV","A1NLJ1L4VCQYV2","3T5ZXGO9DEAUILU6S56NLENRQJRQZJ","","484","img/land3.png","76","484","3","1","3","1,0.5,0.5,0.5,1,0.5,0.5,0.5,1","",""
"","html-keyboard-response","9","14581","0.0-9.0","3IKZ72A5B525WRO823P13B8SF99FNV","A1NLJ1L4VCQYV2","3T5ZXGO9DEAUILU6S56NLENRQJRQZJ","","null","<img src=""img/land3.png"" style=""width:200px; border:14px solid green;"">","null","","","","","","",""
"","image-keyboard-response","10","15160","0.0-10.0","3IKZ72A5B525WRO823P13B8SF99FNV","A1NLJ1L4VCQYV2","3T5ZXGO9DEAUILU6S56NLENRQJRQZJ","","578","img/land2.png","75","578","2","1","2","1,0.5,0.5,0.5,1,0.5,0.5,0.5,1","",""
"","html-keyboard-response","11","15472","0.0-11.0","3IKZ72A5B525WRO823P13B8SF99FNV","A1NLJ1L4VCQYV2","3T5ZXGO9DEAUILU6S56NLENRQJRQZJ","","null","<img src=""img/land2.png"" style=""width:200px; border:14px solid green;"">","null","","","","","","",""
"","image-keyboard-response","12","15942","0.0-12.0","3IKZ72A5B525WRO823P13B8SF99FNV","A1NLJ1L4VCQYV2","3T5ZXGO9DEAUILU6S56NLENRQJRQZJ","","470","img/land1.png","74","470","1","1","1","1,0.5,0.5,0.5,1,0.5,0.5,0.5,1","",""
"","html-keyboard-response","13","16257","0.0-13.0","3IKZ72A5B525WRO823P13B8SF99FNV","A1NLJ1L4VCQYV2","3T5ZXGO9DEAUILU6S56NLENRQJRQZJ","","null","<img src=""img/land1.png"" style=""width:200px; border:14px solid green;"">","null","","","","","","",""
"","image-keyboard-response","14","16655","0.0-14.0","3IKZ72A5B525WRO823P13B8SF99FNV","A1NLJ1L4VCQYV2","3T5ZXGO9DEAUILU6S56NLENRQJRQZJ","","398","img/land1.png","74","398","1","1","1","1,0.5,0.5,0.5,1,0.5,0.5,0.5,1","",""
"","html-keyboard-response","15","16963","0.0-15.0","3IKZ72A5B525WRO823P13B8SF99FNV","A1NLJ1L4VCQYV2","3T5ZXGO9DEAUILU6S56NLENRQJRQZJ","","null","<img src=""img/land1.png"" style=""width:200px; border:14px solid green;"">","null","","","","","","",""
"","image-keyboard-response","16","17376","0.0-16.0","3IKZ72A5B525WRO823P13B8SF99FNV","A1NLJ1L4VCQYV2","3T5ZXGO9DEAUILU6S56NLENRQJRQZJ","","413","img/land2.png","75","414","2","1","2","1,0.5,0.5,0.5,1,0.5,0.5,0.5,1","",""
"","html-keyboard-response","17","17686","0.0-17.0","3IKZ72A5B525WRO823P13B8SF99FNV","A1NLJ1L4VCQYV2","3T5ZXGO9DEAUILU6S56NLENRQJRQZJ","","null","<img src=""img/land2.png"" style=""width:200px; border:14px solid green;"">","null","","","","","","",""
"","image-keyboard-response","18","18006","0.0-18.0","3IKZ72A5B525WRO823P13B8SF99FNV","A1NLJ1L4VCQYV2","3T5ZXGO9DEAUILU6S56NLENRQJRQZJ","","318","img/land2.png","75","319","2","1","2","1,0.5,0.5,0.5,1,0.5,0.5,0.5,1","",""
"","html-keyboard-response","19","18315","0.0-19.0","3IKZ72A5B525WRO823P13B8SF99FNV","A1NLJ1L4VCQYV2","3T5ZXGO9DEAUILU6S56NLENRQJRQZJ","","null","<img src=""img/land2.png"" style=""width:200px; border:14px solid green;"">","null","","","","","","",""
"","image-keyboard-response","20","18680","0.0-20.0","3IKZ72A5B525WRO823P13B8SF99FNV","A1NLJ1L4VCQYV2","3T5ZXGO9DEAUILU6S56NLENRQJRQZJ","","364","img/land3.png","76","364","3","1","3","1,0.5,0.5,0.5,1,0.5,0.5,0.5,1","",""
"","html-keyboard-response","21","18992","0.0-21.0","3IKZ72A5B525WRO823P13B8SF99FNV","A1NLJ1L4VCQYV2","3T5ZXGO9DEAUILU6S56NLENRQJRQZJ","","null","<img src=""img/land3.png"" style=""width:200px; border:14px solid green;"">","null","","","","","","",""
"","image-keyboard-response","22","19511","0.0-22.0","3IKZ72A5B525WRO823P13B8SF99FNV","A1NLJ1L4VCQYV2","3T5ZXGO9DEAUILU6S56NLENRQJRQZJ","","518","img/land3.png","76","519","3","1","3","1,0.5,0.5,0.5,1,0.5,0.5,0.5,1","",""
"","html-keyboard-response","23","19821","0.0-23.0","3IKZ72A5B525WRO823P13B8SF99FNV","A1NLJ1L4VCQYV2","3T5ZXGO9DEAUILU6S56NLENRQJRQZJ","","null","<img src=""img/land3.png"" style=""width:200px; border:14px solid green;"">","null","","","","","","",""
"","image-keyboard-response","24","20297","0.0-24.0","3IKZ72A5B525WRO823P13B8SF99FNV","A1NLJ1L4VCQYV2","3T5ZXGO9DEAUILU6S56NLENRQJRQZJ","","476","img/land2.png","75","476","2","1","2","1,0.5,0.5,0.5,1,0.5,0.5,0.5,1","",""
"","html-keyboard-response","25","20606","0.0-25.0","3IKZ72A5B525WRO823P13B8SF99FNV","A1NLJ1L4VCQYV2","3T5ZXGO9DEAUILU6S56NLENRQJRQZJ","","null","<img src=""img/land2.png"" style=""width:200px; border:14px solid green;"">","null","","","","","","",""
"","image-keyboard-response","26","21059","0.0-26.0","3IKZ72A5B525WRO823P13B8SF99FNV","A1NLJ1L4VCQYV2","3T5ZXGO9DEAUILU6S56NLENRQJRQZJ","","452","img/land3.png","76","453","3","1","3","1,0.5,0.5,0.5,1,0.5,0.5,0.5,1","",""
"","html-keyboard-response","27","21360","0.0-27.0","3IKZ72A5B525WRO823P13B8SF99FNV","A1NLJ1L4VCQYV2","3T5ZXGO9DEAUILU6S56NLENRQJRQZJ","","null","<img src=""img/land3.png"" style=""width:200px; border:14px solid green;"">","null","","","","","","",""
"","image-keyboard-response","28","21704","0.0-28.0","3IKZ72A5B525WRO823P13B8SF99FNV","A1NLJ1L4VCQYV2","3T5ZXGO9DEAUILU6S56NLENRQJRQZJ","","343","img/land3.png","76","344","3","1","3","1,0.5,0.5,0.5,1,0.5,0.5,0.5,1","",""
"","html-keyboard-response","29","22006","0.0-29.0","3IKZ72A5B525WRO823P13B8SF99FNV","A1NLJ1L4VCQYV2","3T5ZXGO9DEAUILU6S56NLENRQJRQZJ","","null","<img src=""img/land3.png"" style=""width:200px; border:14px solid green;"">","null","","","","","","",""
"","image-keyboard-response","30","22326","0.0-30.0","3IKZ72A5B525WRO823P13B8SF99FNV","A1NLJ1L4VCQYV2","3T5ZXGO9DEAUILU6S56NLENRQJRQZJ","","319","img/land3.png","76","320","3","1","3","1,0.5,0.5,0.5,1,0.5,0.5,0.5,1","",""
"","html-keyboard-response","31","22635","0.0-31.0","3IKZ72A5B525WRO823P13B8SF99FNV","A1NLJ1L4VCQYV2","3T5ZXGO9DEAUILU6S56NLENRQJRQZJ","","null","<img src=""img/land3.png"" style=""width:200px; border:14px solid green;"">","null","","","","","","",""
"","image-keyboard-response","32","23100","0.0-32.0","3IKZ72A5B525WRO823P13B8SF99FNV","A1NLJ1L4VCQYV2","3T5ZXGO9DEAUILU6S56NLENRQJRQZJ","","464","img/land2.png","75","464","2","1","2","1,0.5,0.5,0.5,1,0.5,0.5,0.5,1","",""
"","html-keyboard-response","33","23404","0.0-33.0","3IKZ72A5B525WRO823P13B8SF99FNV","A1NLJ1L4VCQYV2","3T5ZXGO9DEAUILU6S56NLENRQJRQZJ","","null","<img src=""img/land2.png"" style=""width:200px; border:14px solid green;"">","null","","","","","","",""
"","image-keyboard-response","34","23752","0.0-34.0","3IKZ72A5B525WRO823P13B8SF99FNV","A1NLJ1L4VCQYV2","3T5ZXGO9DEAUILU6S56NLENRQJRQZJ","","347","img/land2.png","75","348","2","1","2","1,0.5,0.5,0.5,1,0.5,0.5,0.5,1","",""
"","html-keyboard-response","35","24065","0.0-35.0","3IKZ72A5B525WRO823P13B8SF99FNV","A1NLJ1L4VCQYV2","3T5ZXGO9DEAUILU6S56NLENRQJRQZJ","","null","<img src=""img/land2.png"" style=""width:200px; border:14px solid green;"">","null","","","","","","",""
"","image-keyboard-response","36","24568","0.0-36.0","3IKZ72A5B525WRO823P13B8SF99FNV","A1NLJ1L4VCQYV2","3T5ZXGO9DEAUILU6S56NLENRQJRQZJ","","502","img/land1.png","76","503","3","0","1","1,0.5,0.5,0.5,1,0.5,0.5,0.5,1","",""
"","html-keyboard-response","37","24879","0.0-37.0","3IKZ72A5B525WRO823P13B8SF99FNV","A1NLJ1L4VCQYV2","3T5ZXGO9DEAUILU6S56NLENRQJRQZJ","","null","<img src=""img/land1.png"" style=""width:200px;border:14px solid red;"">","null","","","","","","",""
"","image-keyboard-response","38","25473","0.0-38.0","3IKZ72A5B525WRO823P13B8SF99FNV","A1NLJ1L4VCQYV2","3T5ZXGO9DEAUILU6S56NLENRQJRQZJ","","594","img/land2.png","75","595","2","1","2","1,0.5,0.5,0.5,1,0.5,0.5,0.5,1","",""
"","html-keyboard-response","39","25787","0.0-39.0","3IKZ72A5B525WRO823P13B8SF99FNV","A1NLJ1L4VCQYV2","3T5ZXGO9DEAUILU6S56NLENRQJRQZJ","","null","<img src=""img/land2.png"" style=""width:200px; border:14px solid green;"">","null","","","","","","",""
"","image-keyboard-response","40","26251","0.0-40.0","3IKZ72A5B525WRO823P13B8SF99FNV","A1NLJ1L4VCQYV2","3T5ZXGO9DEAUILU6S56NLENRQJRQZJ","","464","img/land3.png","74","464","1","1","3","1,0.5,0.5,0.5,1,0.5,0.5,0.5,1","",""
"","html-keyboard-response","41","26572","0.0-41.0","3IKZ72A5B525WRO823P13B8SF99FNV","A1NLJ1L4VCQYV2","3T5ZXGO9DEAUILU6S56NLENRQJRQZJ","","null","<img src=""img/land3.png"" style=""width:200px; border:14px solid green;"">","null","","","","","","",""
"","image-keyboard-response","42","26980","0.0-42.0","3IKZ72A5B525WRO823P13B8SF99FNV","A1NLJ1L4VCQYV2","3T5ZXGO9DEAUILU6S56NLENRQJRQZJ","","407","img/land3.png","76","408","3","1","3","1,0.5,0.5,0.5,1,0.5,0.5,0.5,1","",""
"","html-keyboard-response","43","27296","0.0-43.0","3IKZ72A5B525WRO823P13B8SF99FNV","A1NLJ1L4VCQYV2","3T5ZXGO9DEAUILU6S56NLENRQJRQZJ","","null","<img src=""img/land3.png"" style=""width:200px; border:14px solid green;"">","null","","","","","","",""
"","image-keyboard-response","44","28074","0.0-44.0","3IKZ72A5B525WRO823P13B8SF99FNV","A1NLJ1L4VCQYV2","3T5ZXGO9DEAUILU6S56NLENRQJRQZJ","","777","img/land2.png","75","777","2","1","2","1,0.5,0.5,0.5,1,0.5,0.5,0.5,1","",""
"","html-keyboard-response","45","28374","0.0-45.0","3IKZ72A5B525WRO823P13B8SF99FNV","A1NLJ1L4VCQYV2","3T5ZXGO9DEAUILU6S56NLENRQJRQZJ","","null","<img src=""img/land2.png"" style=""width:200px; border:14px solid green;"">","null","","","","","","",""
"","image-keyboard-response","46","28713","0.0-46.0","3IKZ72A5B525WRO823P13B8SF99FNV","A1NLJ1L4VCQYV2","3T5ZXGO9DEAUILU6S56NLENRQJRQZJ","","337","img/land2.png","75","337","2","1","2","1,0.5,0.5,0.5,1,0.5,0.5,0.5,1","",""
"","html-keyboard-response","47","29020","0.0-47.0","3IKZ72A5B525WRO823P13B8SF99FNV","A1NLJ1L4VCQYV2","3T5ZXGO9DEAUILU6S56NLENRQJRQZJ","","null","<img src=""img/land2.png"" style=""width:200px; border:14px solid green;"">","null","","","","","","",""
"","image-keyboard-response","48","29540","0.0-48.0","3IKZ72A5B525WRO823P13B8SF99FNV","A1NLJ1L4VCQYV2","3T5ZXGO9DEAUILU6S56NLENRQJRQZJ","","520","img/land1.png","74","520","1","1","1","1,0.5,0.5,0.5,1,0.5,0.5,0.5,1","",""
"","html-keyboard-response","49","29850","0.0-49.0","3IKZ72A5B525WRO823P13B8SF99FNV","A1NLJ1L4VCQYV2","3T5ZXGO9DEAUILU6S56NLENRQJRQZJ","","null","<img src=""img/land1.png"" style=""width:200px; border:14px solid green;"">","null","","","","","","",""
"","image-keyboard-response","50","30166","0.0-50.0","3IKZ72A5B525WRO823P13B8SF99FNV","A1NLJ1L4VCQYV2","3T5ZXGO9DEAUILU6S56NLENRQJRQZJ","","317","img/land1.png","74","317","1","1","1","1,0.5,0.5,0.5,1,0.5,0.5,0.5,1","",""
"","html-keyboard-response","51","30481","0.0-51.0","3IKZ72A5B525WRO823P13B8SF99FNV","A1NLJ1L4VCQYV2","3T5ZXGO9DEAUILU6S56NLENRQJRQZJ","","null","<img src=""img/land1.png"" style=""width:200px; border:14px solid green;"">","null","","","","","","",""
"","image-keyboard-response","52","30964","0.0-52.0","3IKZ72A5B525WRO823P13B8SF99FNV","A1NLJ1L4VCQYV2","3T5ZXGO9DEAUILU6S56NLENRQJRQZJ","","483","img/land2.png","75","483","2","1","2","1,0.5,0.5,0.5,1,0.5,0.5,0.5,1","",""
"","html-keyboard-response","53","31265","0.0-53.0","3IKZ72A5B525WRO823P13B8SF99FNV","A1NLJ1L4VCQYV2","3T5ZXGO9DEAUILU6S56NLENRQJRQZJ","","null","<img src=""img/land2.png"" style=""width:200px; border:14px solid green;"">","null","","","","","","",""
"","image-keyboard-response","54","31823","0.0-54.0","3IKZ72A5B525WRO823P13B8SF99FNV","A1NLJ1L4VCQYV2","3T5ZXGO9DEAUILU6S56NLENRQJRQZJ","","558","img/land3.png","76","559","3","1","3","1,0.5,0.5,0.5,1,0.5,0.5,0.5,1","",""
"","html-keyboard-response","55","32126","0.0-55.0","3IKZ72A5B525WRO823P13B8SF99FNV","A1NLJ1L4VCQYV2","3T5ZXGO9DEAUILU6S56NLENRQJRQZJ","","null","<img src=""img/land3.png"" style=""width:200px; border:14px solid green;"">","null","","","","","","",""
"","image-keyboard-response","56","32592","0.0-56.0","3IKZ72A5B525WRO823P13B8SF99FNV","A1NLJ1L4VCQYV2","3T5ZXGO9DEAUILU6S56NLENRQJRQZJ","","464","img/land2.png","75","464","2","1","2","1,0.5,0.5,0.5,1,0.5,0.5,0.5,1","",""
"","html-keyboard-response","57","32897","0.0-57.0","3IKZ72A5B525WRO823P13B8SF99FNV","A1NLJ1L4VCQYV2","3T5ZXGO9DEAUILU6S56NLENRQJRQZJ","","null","<img src=""img/land2.png"" style=""width:200px; border:14px solid green;"">","null","","","","","","",""
"","image-keyboard-response","58","33420","0.0-58.0","3IKZ72A5B525WRO823P13B8SF99FNV","A1NLJ1L4VCQYV2","3T5ZXGO9DEAUILU6S56NLENRQJRQZJ","","522","img/land1.png","74","522","1","1","1","1,0.5,0.5,0.5,1,0.5,0.5,0.5,1","",""
"","html-keyboard-response","59","33727","0.0-59.0","3IKZ72A5B525WRO823P13B8SF99FNV","A1NLJ1L4VCQYV2","3T5ZXGO9DEAUILU6S56NLENRQJRQZJ","","null","<img src=""img/land1.png"" style=""width:200px; border:14px solid green;"">","null","","","","","","",""
"","image-keyboard-response","60","34182","0.0-60.0","3IKZ72A5B525WRO823P13B8SF99FNV","A1NLJ1L4VCQYV2","3T5ZXGO9DEAUILU6S56NLENRQJRQZJ","","455","img/land2.png","75","455","2","1","2","1,0.5,0.5,0.5,1,0.5,0.5,0.5,1","",""
"","html-keyboard-response","61","34496","0.0-61.0","3IKZ72A5B525WRO823P13B8SF99FNV","A1NLJ1L4VCQYV2","3T5ZXGO9DEAUILU6S56NLENRQJRQZJ","","null","<img src=""img/land2.png"" style=""width:200px; border:14px solid green;"">","null","","","","","","",""
"","image-keyboard-response","62","34872","0.0-62.0","3IKZ72A5B525WRO823P13B8SF99FNV","A1NLJ1L4VCQYV2","3T5ZXGO9DEAUILU6S56NLENRQJRQZJ","","375","img/land2.png","75","375","2","1","2","1,0.5,0.5,0.5,1,0.5,0.5,0.5,1","",""
"","html-keyboard-response","63","35174","0.0-63.0","3IKZ72A5B525WRO823P13B8SF99FNV","A1NLJ1L4VCQYV2","3T5ZXGO9DEAUILU6S56NLENRQJRQZJ","","null","<img src=""img/land2.png"" style=""width:200px; border:14px solid green;"">","null","","","","","","",""
"","image-keyboard-response","64","35649","0.0-64.0","3IKZ72A5B525WRO823P13B8SF99FNV","A1NLJ1L4VCQYV2","3T5ZXGO9DEAUILU6S56NLENRQJRQZJ","","475","img/land1.png","74","475","1","1","1","1,0.5,0.5,0.5,1,0.5,0.5,0.5,1","",""
"","html-keyboard-response","65","35958","0.0-65.0","3IKZ72A5B525WRO823P13B8SF99FNV","A1NLJ1L4VCQYV2","3T5ZXGO9DEAUILU6S56NLENRQJRQZJ","","null","<img src=""img/land1.png"" style=""width:200px; border:14px solid green;"">","null","","","","","","",""
"","image-keyboard-response","66","36426","0.0-66.0","3IKZ72A5B525WRO823P13B8SF99FNV","A1NLJ1L4VCQYV2","3T5ZXGO9DEAUILU6S56NLENRQJRQZJ","","468","img/land2.png","75","468","2","1","2","1,0.5,0.5,0.5,1,0.5,0.5,0.5,1","",""
"","html-keyboard-response","67","36741","0.0-67.0","3IKZ72A5B525WRO823P13B8SF99FNV","A1NLJ1L4VCQYV2","3T5ZXGO9DEAUILU6S56NLENRQJRQZJ","","null","<img src=""img/land2.png"" style=""width:200px; border:14px solid green;"">","null","","","","","","",""
"","image-keyboard-response","68","37199","0.0-68.0","3IKZ72A5B525WRO823P13B8SF99FNV","A1NLJ1L4VCQYV2","3T5ZXGO9DEAUILU6S56NLENRQJRQZJ","","457","img/land3.png","76","457","3","1","3","1,0.5,0.5,0.5,1,0.5,0.5,0.5,1","",""
"","html-keyboard-response","69","37509","0.0-69.0","3IKZ72A5B525WRO823P13B8SF99FNV","A1NLJ1L4VCQYV2","3T5ZXGO9DEAUILU6S56NLENRQJRQZJ","","null","<img src=""img/land3.png"" style=""width:200px; border:14px solid green;"">","null","","","","","","",""
"","image-keyboard-response","70","38040","0.0-70.0","3IKZ72A5B525WRO823P13B8SF99FNV","A1NLJ1L4VCQYV2","3T5ZXGO9DEAUILU6S56NLENRQJRQZJ","","529","img/land2.png","75","529","2","1","2","1,0.5,0.5,0.5,1,0.5,0.5,0.5,1","",""
"","html-keyboard-response","71","38355","0.0-71.0","3IKZ72A5B525WRO823P13B8SF99FNV","A1NLJ1L4VCQYV2","3T5ZXGO9DEAUILU6S56NLENRQJRQZJ","","null","<img src=""img/land2.png"" style=""width:200px; border:14px solid green;"">","null","","","","","","",""
"","image-keyboard-response","72","38937","0.0-72.0","3IKZ72A5B525WRO823P13B8SF99FNV","A1NLJ1L4VCQYV2","3T5ZXGO9DEAUILU6S56NLENRQJRQZJ","","583","img/land3.png","76","583","3","1","3","1,0.5,0.5,0.5,1,0.5,0.5,0.5,1","",""
"","html-keyboard-response","73","39246","0.0-73.0","3IKZ72A5B525WRO823P13B8SF99FNV","A1NLJ1L4VCQYV2","3T5ZXGO9DEAUILU6S56NLENRQJRQZJ","","null","<img src=""img/land3.png"" style=""width:200px; border:14px solid green;"">","null","","","","","","",""
"","image-keyboard-response","74","39944","0.0-74.0","3IKZ72A5B525WRO823P13B8SF99FNV","A1NLJ1L4VCQYV2","3T5ZXGO9DEAUILU6S56NLENRQJRQZJ","","699","img/land2.png","75","700","2","1","2","1,0.5,0.5,0.5,1,0.5,0.5,0.5,1","",""
"","html-keyboard-response","75","40245","0.0-75.0","3IKZ72A5B525WRO823P13B8SF99FNV","A1NLJ1L4VCQYV2","3T5ZXGO9DEAUILU6S56NLENRQJRQZJ","","null","<img src=""img/land2.png"" style=""width:200px; border:14px solid green;"">","null","","","","","","",""
"","image-keyboard-response","76","40751","0.0-76.0","3IKZ72A5B525WRO823P13B8SF99FNV","A1NLJ1L4VCQYV2","3T5ZXGO9DEAUILU6S56NLENRQJRQZJ","","507","img/land1.png","74","507","1","1","1","1,0.5,0.5,0.5,1,0.5,0.5,0.5,1","",""
"","html-keyboard-response","77","41060","0.0-77.0","3IKZ72A5B525WRO823P13B8SF99FNV","A1NLJ1L4VCQYV2","3T5ZXGO9DEAUILU6S56NLENRQJRQZJ","","null","<img src=""img/land1.png"" style=""width:200px; border:14px solid green;"">","null","","","","","","",""
"","image-keyboard-response","78","41636","0.0-78.0","3IKZ72A5B525WRO823P13B8SF99FNV","A1NLJ1L4VCQYV2","3T5ZXGO9DEAUILU6S56NLENRQJRQZJ","","576","img/land3.png","76","576","3","1","3","1,0.5,0.5,0.5,1,0.5,0.5,0.5,1","",""
"","html-keyboard-response","79","41937","0.0-79.0","3IKZ72A5B525WRO823P13B8SF99FNV","A1NLJ1L4VCQYV2","3T5ZXGO9DEAUILU6S56NLENRQJRQZJ","","null","<img src=""img/land3.png"" style=""width:200px; border:14px solid green;"">","null","","","","","","",""
"","image-keyboard-response","80","42437","0.0-80.0","3IKZ72A5B525WRO823P13B8SF99FNV","A1NLJ1L4VCQYV2","3T5ZXGO9DEAUILU6S56NLENRQJRQZJ","","499","img/land1.png","75","499","2","0","1","1,0.5,0.5,0.5,1,0.5,0.5,0.5,1","",""
"","html-keyboard-response","81","42753","0.0-81.0","3IKZ72A5B525WRO823P13B8SF99FNV","A1NLJ1L4VCQYV2","3T5ZXGO9DEAUILU6S56NLENRQJRQZJ","","null","<img src=""img/land1.png"" style=""width:200px;border:14px solid red;"">","null","","","","","","",""
"","image-keyboard-response","82","43312","0.0-82.0","3IKZ72A5B525WRO823P13B8SF99FNV","A1NLJ1L4VCQYV2","3T5ZXGO9DEAUILU6S56NLENRQJRQZJ","","559","img/land3.png","76","560","3","1","3","1,0.5,0.5,0.5,1,0.5,0.5,0.5,1","",""
"","html-keyboard-response","83","43627","0.0-83.0","3IKZ72A5B525WRO823P13B8SF99FNV","A1NLJ1L4VCQYV2","3T5ZXGO9DEAUILU6S56NLENRQJRQZJ","","null","<img src=""img/land3.png"" style=""width:200px; border:14px solid green;"">","null","","","","","","",""
"","image-keyboard-response","84","44068","0.0-84.0","3IKZ72A5B525WRO823P13B8SF99FNV","A1NLJ1L4VCQYV2","3T5ZXGO9DEAUILU6S56NLENRQJRQZJ","","441","img/land3.png","76","441","3","1","3","1,0.5,0.5,0.5,1,0.5,0.5,0.5,1","",""
"","html-keyboard-response","85","44379","0.0-85.0","3IKZ72A5B525WRO823P13B8SF99FNV","A1NLJ1L4VCQYV2","3T5ZXGO9DEAUILU6S56NLENRQJRQZJ","","null","<img src=""img/land3.png"" style=""width:200px; border:14px solid green;"">","null","","","","","","",""
"","image-keyboard-response","86","44883","0.0-86.0","3IKZ72A5B525WRO823P13B8SF99FNV","A1NLJ1L4VCQYV2","3T5ZXGO9DEAUILU6S56NLENRQJRQZJ","","504","img/land1.png","74","504","1","1","1","1,0.5,0.5,0.5,1,0.5,0.5,0.5,1","",""
"","html-keyboard-response","87","45194","0.0-87.0","3IKZ72A5B525WRO823P13B8SF99FNV","A1NLJ1L4VCQYV2","3T5ZXGO9DEAUILU6S56NLENRQJRQZJ","","null","<img src=""img/land1.png"" style=""width:200px; border:14px solid green;"">","null","","","","","","",""
"","image-keyboard-response","88","45711","0.0-88.0","3IKZ72A5B525WRO823P13B8SF99FNV","A1NLJ1L4VCQYV2","3T5ZXGO9DEAUILU6S56NLENRQJRQZJ","","517","img/land2.png","75","517","2","1","2","1,0.5,0.5,0.5,1,0.5,0.5,0.5,1","",""
"","html-keyboard-response","89","46025","0.0-89.0","3IKZ72A5B525WRO823P13B8SF99FNV","A1NLJ1L4VCQYV2","3T5ZXGO9DEAUILU6S56NLENRQJRQZJ","","null","<img src=""img/land2.png"" style=""width:200px; border:14px solid green;"">","null","","","","","","",""
"","image-keyboard-response","90","46541","0.0-90.0","3IKZ72A5B525WRO823P13B8SF99FNV","A1NLJ1L4VCQYV2","3T5ZXGO9DEAUILU6S56NLENRQJRQZJ","","517","img/land3.png","76","517","3","1","3","1,0.5,0.5,0.5,1,0.5,0.5,0.5,1","",""
"","html-keyboard-response","91","46854","0.0-91.0","3IKZ72A5B525WRO823P13B8SF99FNV","A1NLJ1L4VCQYV2","3T5ZXGO9DEAUILU6S56NLENRQJRQZJ","","null","<img src=""img/land3.png"" style=""width:200px; border:14px solid green;"">","null","","","","","","",""
"","image-keyboard-response","92","47470","0.0-92.0","3IKZ72A5B525WRO823P13B8SF99FNV","A1NLJ1L4VCQYV2","3T5ZXGO9DEAUILU6S56NLENRQJRQZJ","","615","img/land1.png","74","615","1","1","1","1,0.5,0.5,0.5,1,0.5,0.5,0.5,1","",""
"","html-keyboard-response","93","47778","0.0-93.0","3IKZ72A5B525WRO823P13B8SF99FNV","A1NLJ1L4VCQYV2","3T5ZXGO9DEAUILU6S56NLENRQJRQZJ","","null","<img src=""img/land1.png"" style=""width:200px; border:14px solid green;"">","null","","","","","","",""
"","image-keyboard-response","94","48216","0.0-94.0","3IKZ72A5B525WRO823P13B8SF99FNV","A1NLJ1L4VCQYV2","3T5ZXGO9DEAUILU6S56NLENRQJRQZJ","","438","img/land2.png","75","438","2","1","2","1,0.5,0.5,0.5,1,0.5,0.5,0.5,1","",""
"","html-keyboard-response","95","48547","0.0-95.0","3IKZ72A5B525WRO823P13B8SF99FNV","A1NLJ1L4VCQYV2","3T5ZXGO9DEAUILU6S56NLENRQJRQZJ","","null","<img src=""img/land2.png"" style=""width:200px; border:14px solid green;"">","null","","","","","","",""
"","image-keyboard-response","96","49085","0.0-96.0","3IKZ72A5B525WRO823P13B8SF99FNV","A1NLJ1L4VCQYV2","3T5ZXGO9DEAUILU6S56NLENRQJRQZJ","","537","img/land3.png","76","538","3","1","3","1,0.5,0.5,0.5,1,0.5,0.5,0.5,1","",""
"","html-keyboard-response","97","49394","0.0-97.0","3IKZ72A5B525WRO823P13B8SF99FNV","A1NLJ1L4VCQYV2","3T5ZXGO9DEAUILU6S56NLENRQJRQZJ","","null","<img src=""img/land3.png"" style=""width:200px; border:14px solid green;"">","null","","","","","","",""
"","image-keyboard-response","98","50056","0.0-98.0","3IKZ72A5B525WRO823P13B8SF99FNV","A1NLJ1L4VCQYV2","3T5ZXGO9DEAUILU6S56NLENRQJRQZJ","","659","img/land1.png","75","661","2","1","1","1,0.5,0.5,0.5,1,0.5,0.5,0.5,1","",""
"","html-keyboard-response","99","50364","0.0-99.0","3IKZ72A5B525WRO823P13B8SF99FNV","A1NLJ1L4VCQYV2","3T5ZXGO9DEAUILU6S56NLENRQJRQZJ","","null","<img src=""img/land1.png"" style=""width:200px; border:14px solid green;"">","null","","","","","","",""
"","image-keyboard-response","100","50755","0.0-100.0","3IKZ72A5B525WRO823P13B8SF99FNV","A1NLJ1L4VCQYV2","3T5ZXGO9DEAUILU6S56NLENRQJRQZJ","","391","img/land1.png","74","392","1","1","1","1,0.5,0.5,0.5,1,0.5,0.5,0.5,1","",""
"","html-keyboard-response","101","51087","0.0-101.0","3IKZ72A5B525WRO823P13B8SF99FNV","A1NLJ1L4VCQYV2","3T5ZXGO9DEAUILU6S56NLENRQJRQZJ","","null","<img src=""img/land1.png"" style=""width:200px; border:14px solid green;"">","null","","","","","","",""
"","image-keyboard-response","102","51617","0.0-102.0","3IKZ72A5B525WRO823P13B8SF99FNV","A1NLJ1L4VCQYV2","3T5ZXGO9DEAUILU6S56NLENRQJRQZJ","","530","img/land2.png","75","530","2","1","2","1,0.5,0.5,0.5,1,0.5,0.5,0.5,1","",""
"","html-keyboard-response","103","51918","0.0-103.0","3IKZ72A5B525WRO823P13B8SF99FNV","A1NLJ1L4VCQYV2","3T5ZXGO9DEAUILU6S56NLENRQJRQZJ","","null","<img src=""img/land2.png"" style=""width:200px; border:14px solid green;"">","null","","","","","","",""
"","image-keyboard-response","104","52243","0.0-104.0","3IKZ72A5B525WRO823P13B8SF99FNV","A1NLJ1L4VCQYV2","3T5ZXGO9DEAUILU6S56NLENRQJRQZJ","","323","img/land2.png","75","324","2","1","2","1,0.5,0.5,0.5,1,0.5,0.5,0.5,1","",""
"","html-keyboard-response","105","52547","0.0-105.0","3IKZ72A5B525WRO823P13B8SF99FNV","A1NLJ1L4VCQYV2","3T5ZXGO9DEAUILU6S56NLENRQJRQZJ","","null","<img src=""img/land2.png"" style=""width:200px; border:14px solid green;"">","null","","","","","","",""
"","image-keyboard-response","106","53134","0.0-106.0","3IKZ72A5B525WRO823P13B8SF99FNV","A1NLJ1L4VCQYV2","3T5ZXGO9DEAUILU6S56NLENRQJRQZJ","","586","img/land3.png","76","586","3","1","3","1,0.5,0.5,0.5,1,0.5,0.5,0.5,1","",""
"","html-keyboard-response","107","53439","0.0-107.0","3IKZ72A5B525WRO823P13B8SF99FNV","A1NLJ1L4VCQYV2","3T5ZXGO9DEAUILU6S56NLENRQJRQZJ","","null","<img src=""img/land3.png"" style=""width:200px; border:14px solid green;"">","null","","","","","","",""
"","image-keyboard-response","108","53930","0.0-108.0","3IKZ72A5B525WRO823P13B8SF99FNV","A1NLJ1L4VCQYV2","3T5ZXGO9DEAUILU6S56NLENRQJRQZJ","","491","img/land1.png","75","491","2","0","1","1,0.5,0.5,0.5,1,0.5,0.5,0.5,1","",""
"","html-keyboard-response","109","54238","0.0-109.0","3IKZ72A5B525WRO823P13B8SF99FNV","A1NLJ1L4VCQYV2","3T5ZXGO9DEAUILU6S56NLENRQJRQZJ","","null","<img src=""img/land1.png"" style=""width:200px;border:14px solid red;"">","null","","","","","","",""
"","image-keyboard-response","110","54739","0.0-110.0","3IKZ72A5B525WRO823P13B8SF99FNV","A1NLJ1L4VCQYV2","3T5ZXGO9DEAUILU6S56NLENRQJRQZJ","","501","img/land3.png","75","501","2","1","3","1,0.5,0.5,0.5,1,0.5,0.5,0.5,1","",""
"","html-keyboard-response","111","55084","0.0-111.0","3IKZ72A5B525WRO823P13B8SF99FNV","A1NLJ1L4VCQYV2","3T5ZXGO9DEAUILU6S56NLENRQJRQZJ","","null","<img src=""img/land3.png"" style=""width:200px; border:14px solid green;"">","null","","","","","","",""
"","image-keyboard-response","112","55788","0.0-112.0","3IKZ72A5B525WRO823P13B8SF99FNV","A1NLJ1L4VCQYV2","3T5ZXGO9DEAUILU6S56NLENRQJRQZJ","","704","img/land2.png","75","705","2","1","2","1,0.5,0.5,0.5,1,0.5,0.5,0.5,1","",""
"","html-keyboard-response","113","56101","0.0-113.0","3IKZ72A5B525WRO823P13B8SF99FNV","A1NLJ1L4VCQYV2","3T5ZXGO9DEAUILU6S56NLENRQJRQZJ","","null","<img src=""img/land2.png"" style=""width:200px; border:14px solid green;"">","null","","","","","","",""
"","image-keyboard-response","114","56603","0.0-114.0","3IKZ72A5B525WRO823P13B8SF99FNV","A1NLJ1L4VCQYV2","3T5ZXGO9DEAUILU6S56NLENRQJRQZJ","","502","img/land1.png","74","502","1","1","1","1,0.5,0.5,0.5,1,0.5,0.5,0.5,1","",""
"","html-keyboard-response","115","56916","0.0-115.0","3IKZ72A5B525WRO823P13B8SF99FNV","A1NLJ1L4VCQYV2","3T5ZXGO9DEAUILU6S56NLENRQJRQZJ","","null","<img src=""img/land1.png"" style=""width:200px; border:14px solid green;"">","null","","","","","","",""
"","image-keyboard-response","116","57267","0.0-116.0","3IKZ72A5B525WRO823P13B8SF99FNV","A1NLJ1L4VCQYV2","3T5ZXGO9DEAUILU6S56NLENRQJRQZJ","","350","img/land1.png","74","350","1","1","1","1,0.5,0.5,0.5,1,0.5,0.5,0.5,1","",""
"","html-keyboard-response","117","57577","0.0-117.0","3IKZ72A5B525WRO823P13B8SF99FNV","A1NLJ1L4VCQYV2","3T5ZXGO9DEAUILU6S56NLENRQJRQZJ","","null","<img src=""img/land1.png"" style=""width:200px; border:14px solid green;"">","null","","","","","","",""
"","image-keyboard-response","118","58345","0.0-118.0","3IKZ72A5B525WRO823P13B8SF99FNV","A1NLJ1L4VCQYV2","3T5ZXGO9DEAUILU6S56NLENRQJRQZJ","","768","img/land2.png","75","768","2","1","2","1,0.5,0.5,0.5,1,0.5,0.5,0.5,1","",""
"","html-keyboard-response","119","58652","0.0-119.0","3IKZ72A5B525WRO823P13B8SF99FNV","A1NLJ1L4VCQYV2","3T5ZXGO9DEAUILU6S56NLENRQJRQZJ","","null","<img src=""img/land2.png"" style=""width:200px; border:14px solid green;"">","null","","","","","","",""
"","image-keyboard-response","120","59288","0.0-120.0","3IKZ72A5B525WRO823P13B8SF99FNV","A1NLJ1L4VCQYV2","3T5ZXGO9DEAUILU6S56NLENRQJRQZJ","","636","img/land3.png","76","636","3","1","3","1,0.5,0.5,0.5,1,0.5,0.5,0.5,1","",""
"","html-keyboard-response","121","59589","0.0-121.0","3IKZ72A5B525WRO823P13B8SF99FNV","A1NLJ1L4VCQYV2","3T5ZXGO9DEAUILU6S56NLENRQJRQZJ","","null","<img src=""img/land3.png"" style=""width:200px; border:14px solid green;"">","null","","","","","","",""
"","image-keyboard-response","122","60202","0.0-122.0","3IKZ72A5B525WRO823P13B8SF99FNV","A1NLJ1L4VCQYV2","3T5ZXGO9DEAUILU6S56NLENRQJRQZJ","","613","img/land1.png","74","613","1","1","1","1,0.5,0.5,0.5,1,0.5,0.5,0.5,1","",""
"","html-keyboard-response","123","60510","0.0-123.0","3IKZ72A5B525WRO823P13B8SF99FNV","A1NLJ1L4VCQYV2","3T5ZXGO9DEAUILU6S56NLENRQJRQZJ","","null","<img src=""img/land1.png"" style=""width:200px; border:14px solid green;"">","null","","","","","","",""
"","image-keyboard-response","124","60870","0.0-124.0","3IKZ72A5B525WRO823P13B8SF99FNV","A1NLJ1L4VCQYV2","3T5ZXGO9DEAUILU6S56NLENRQJRQZJ","","360","img/land1.png","74","360","1","1","1","1,0.5,0.5,0.5,1,0.5,0.5,0.5,1","",""
"","html-keyboard-response","125","61170","0.0-125.0","3IKZ72A5B525WRO823P13B8SF99FNV","A1NLJ1L4VCQYV2","3T5ZXGO9DEAUILU6S56NLENRQJRQZJ","","null","<img src=""img/land1.png"" style=""width:200px; border:14px solid green;"">","null","","","","","","",""
"","image-keyboard-response","126","61459","0.0-126.0","3IKZ72A5B525WRO823P13B8SF99FNV","A1NLJ1L4VCQYV2","3T5ZXGO9DEAUILU6S56NLENRQJRQZJ","","289","img/land1.png","74","289","1","1","1","1,0.5,0.5,0.5,1,0.5,0.5,0.5,1","",""
"","html-keyboard-response","127","61770","0.0-127.0","3IKZ72A5B525WRO823P13B8SF99FNV","A1NLJ1L4VCQYV2","3T5ZXGO9DEAUILU6S56NLENRQJRQZJ","","null","<img src=""img/land1.png"" style=""width:200px; border:14px solid green;"">","null","","","","","","",""
"","image-keyboard-response","128","62429","0.0-128.0","3IKZ72A5B525WRO823P13B8SF99FNV","A1NLJ1L4VCQYV2","3T5ZXGO9DEAUILU6S56NLENRQJRQZJ","","658","img/land3.png","76","658","3","1","3","1,0.5,0.5,0.5,1,0.5,0.5,0.5,1","",""
"","html-keyboard-response","129","62739","0.0-129.0","3IKZ72A5B525WRO823P13B8SF99FNV","A1NLJ1L4VCQYV2","3T5ZXGO9DEAUILU6S56NLENRQJRQZJ","","null","<img src=""img/land3.png"" style=""width:200px; border:14px solid green;"">","null","","","","","","",""
"","image-keyboard-response","130","63055","0.0-130.0","3IKZ72A5B525WRO823P13B8SF99FNV","A1NLJ1L4VCQYV2","3T5ZXGO9DEAUILU6S56NLENRQJRQZJ","","316","img/land3.png","76","316","3","1","3","1,0.5,0.5,0.5,1,0.5,0.5,0.5,1","",""
"","html-keyboard-response","131","63370","0.0-131.0","3IKZ72A5B525WRO823P13B8SF99FNV","A1NLJ1L4VCQYV2","3T5ZXGO9DEAUILU6S56NLENRQJRQZJ","","null","<img src=""img/land3.png"" style=""width:200px; border:14px solid green;"">","null","","","","","","",""
"","image-keyboard-response","132","64119","0.0-132.0","3IKZ72A5B525WRO823P13B8SF99FNV","A1NLJ1L4VCQYV2","3T5ZXGO9DEAUILU6S56NLENRQJRQZJ","","748","img/land1.png","74","749","1","1","1","1,0.5,0.5,0.5,1,0.5,0.5,0.5,1","",""
"","html-keyboard-response","133","64429","0.0-133.0","3IKZ72A5B525WRO823P13B8SF99FNV","A1NLJ1L4VCQYV2","3T5ZXGO9DEAUILU6S56NLENRQJRQZJ","","null","<img src=""img/land1.png"" style=""width:200px; border:14px solid green;"">","null","","","","","","",""
"","image-keyboard-response","134","65056","0.0-134.0","3IKZ72A5B525WRO823P13B8SF99FNV","A1NLJ1L4VCQYV2","3T5ZXGO9DEAUILU6S56NLENRQJRQZJ","","626","img/land3.png","76","627","3","1","3","1,0.5,0.5,0.5,1,0.5,0.5,0.5,1","",""
"","html-keyboard-response","135","65367","0.0-135.0","3IKZ72A5B525WRO823P13B8SF99FNV","A1NLJ1L4VCQYV2","3T5ZXGO9DEAUILU6S56NLENRQJRQZJ","","null","<img src=""img/land3.png"" style=""width:200px; border:14px solid green;"">","null","","","","","","",""
"","image-keyboard-response","136","66054","0.0-136.0","3IKZ72A5B525WRO823P13B8SF99FNV","A1NLJ1L4VCQYV2","3T5ZXGO9DEAUILU6S56NLENRQJRQZJ","","688","img/land1.png","75","688","2","1","1","1,0.5,0.5,0.5,1,0.5,0.5,0.5,1","",""
"","html-keyboard-response","137","66368","0.0-137.0","3IKZ72A5B525WRO823P13B8SF99FNV","A1NLJ1L4VCQYV2","3T5ZXGO9DEAUILU6S56NLENRQJRQZJ","","null","<img src=""img/land1.png"" style=""width:200px; border:14px solid green;"">","null","","","","","","",""
"","image-keyboard-response","138","67151","0.0-138.0","3IKZ72A5B525WRO823P13B8SF99FNV","A1NLJ1L4VCQYV2","3T5ZXGO9DEAUILU6S56NLENRQJRQZJ","","783","img/land2.png","75","783","2","1","2","1,0.5,0.5,0.5,1,0.5,0.5,0.5,1","",""
"","html-keyboard-response","139","67460","0.0-139.0","3IKZ72A5B525WRO823P13B8SF99FNV","A1NLJ1L4VCQYV2","3T5ZXGO9DEAUILU6S56NLENRQJRQZJ","","null","<img src=""img/land2.png"" style=""width:200px; border:14px solid green;"">","null","","","","","","",""
"","image-keyboard-response","140","68136","0.0-140.0","3IKZ72A5B525WRO823P13B8SF99FNV","A1NLJ1L4VCQYV2","3T5ZXGO9DEAUILU6S56NLENRQJRQZJ","","674","img/land3.png","76","675","3","1","3","1,0.5,0.5,0.5,1,0.5,0.5,0.5,1","",""
"","html-keyboard-response","141","68459","0.0-141.0","3IKZ72A5B525WRO823P13B8SF99FNV","A1NLJ1L4VCQYV2","3T5ZXGO9DEAUILU6S56NLENRQJRQZJ","","null","<img src=""img/land3.png"" style=""width:200px; border:14px solid green;"">","null","","","","","","",""
"","image-keyboard-response","142","68953","0.0-142.0","3IKZ72A5B525WRO823P13B8SF99FNV","A1NLJ1L4VCQYV2","3T5ZXGO9DEAUILU6S56NLENRQJRQZJ","","494","img/land3.png","76","494","3","1","3","1,0.5,0.5,0.5,1,0.5,0.5,0.5,1","",""
"","html-keyboard-response","143","69258","0.0-143.0","3IKZ72A5B525WRO823P13B8SF99FNV","A1NLJ1L4VCQYV2","3T5ZXGO9DEAUILU6S56NLENRQJRQZJ","","null","<img src=""img/land3.png"" style=""width:200px; border:14px solid green;"">","null","","","","","","",""
"","image-keyboard-response","144","69873","0.0-144.0","3IKZ72A5B525WRO823P13B8SF99FNV","A1NLJ1L4VCQYV2","3T5ZXGO9DEAUILU6S56NLENRQJRQZJ","","615","img/land2.png","75","615","2","1","2","1,0.5,0.5,0.5,1,0.5,0.5,0.5,1","",""
"","html-keyboard-response","145","70182","0.0-145.0","3IKZ72A5B525WRO823P13B8SF99FNV","A1NLJ1L4VCQYV2","3T5ZXGO9DEAUILU6S56NLENRQJRQZJ","","null","<img src=""img/land2.png"" style=""width:200px; border:14px solid green;"">","null","","","","","","",""
"","image-keyboard-response","146","70655","0.0-146.0","3IKZ72A5B525WRO823P13B8SF99FNV","A1NLJ1L4VCQYV2","3T5ZXGO9DEAUILU6S56NLENRQJRQZJ","","473","img/land1.png","74","474","1","1","1","1,0.5,0.5,0.5,1,0.5,0.5,0.5,1","",""
"","html-keyboard-response","147","70966","0.0-147.0","3IKZ72A5B525WRO823P13B8SF99FNV","A1NLJ1L4VCQYV2","3T5ZXGO9DEAUILU6S56NLENRQJRQZJ","","null","<img src=""img/land1.png"" style=""width:200px; border:14px solid green;"">","null","","","","","","",""
"","image-keyboard-response","148","71337","0.0-148.0","3IKZ72A5B525WRO823P13B8SF99FNV","A1NLJ1L4VCQYV2","3T5ZXGO9DEAUILU6S56NLENRQJRQZJ","","369","img/land1.png","74","370","1","1","1","1,0.5,0.5,0.5,1,0.5,0.5,0.5,1","",""
"","html-keyboard-response","149","71642","0.0-149.0","3IKZ72A5B525WRO823P13B8SF99FNV","A1NLJ1L4VCQYV2","3T5ZXGO9DEAUILU6S56NLENRQJRQZJ","","null","<img src=""img/land1.png"" style=""width:200px; border:14px solid green;"">","null","","","","","","",""
"","image-keyboard-response","150","72259","0.0-150.0","3IKZ72A5B525WRO823P13B8SF99FNV","A1NLJ1L4VCQYV2","3T5ZXGO9DEAUILU6S56NLENRQJRQZJ","","616","img/land3.png","76","616","3","1","3","1,0.5,0.5,0.5,1,0.5,0.5,0.5,1","",""
"","html-keyboard-response","151","72566","0.0-151.0","3IKZ72A5B525WRO823P13B8SF99FNV","A1NLJ1L4VCQYV2","3T5ZXGO9DEAUILU6S56NLENRQJRQZJ","","null","<img src=""img/land3.png"" style=""width:200px; border:14px solid green;"">","null","","","","","","",""
"","image-keyboard-response","152","72902","0.0-152.0","3IKZ72A5B525WRO823P13B8SF99FNV","A1NLJ1L4VCQYV2","3T5ZXGO9DEAUILU6S56NLENRQJRQZJ","","335","img/land3.png","76","336","3","1","3","1,0.5,0.5,0.5,1,0.5,0.5,0.5,1","",""
"","html-keyboard-response","153","73211","0.0-153.0","3IKZ72A5B525WRO823P13B8SF99FNV","A1NLJ1L4VCQYV2","3T5ZXGO9DEAUILU6S56NLENRQJRQZJ","","null","<img src=""img/land3.png"" style=""width:200px; border:14px solid green;"">","null","","","","","","",""
"","image-keyboard-response","154","73759","0.0-154.0","3IKZ72A5B525WRO823P13B8SF99FNV","A1NLJ1L4VCQYV2","3T5ZXGO9DEAUILU6S56NLENRQJRQZJ","","547","img/land1.png","75","547","2","0","1","1,0.5,0.5,0.5,1,0.5,0.5,0.5,1","",""
"","html-keyboard-response","155","74073","0.0-155.0","3IKZ72A5B525WRO823P13B8SF99FNV","A1NLJ1L4VCQYV2","3T5ZXGO9DEAUILU6S56NLENRQJRQZJ","","null","<img src=""img/land1.png"" style=""width:200px;border:14px solid red;"">","null","","","","","","",""
"","image-keyboard-response","156","74672","0.0-156.0","3IKZ72A5B525WRO823P13B8SF99FNV","A1NLJ1L4VCQYV2","3T5ZXGO9DEAUILU6S56NLENRQJRQZJ","","597","img/land3.png","76","598","3","1","3","1,0.5,0.5,0.5,1,0.5,0.5,0.5,1","",""
"","html-keyboard-response","157","74980","0.0-157.0","3IKZ72A5B525WRO823P13B8SF99FNV","A1NLJ1L4VCQYV2","3T5ZXGO9DEAUILU6S56NLENRQJRQZJ","","null","<img src=""img/land3.png"" style=""width:200px; border:14px solid green;"">","null","","","","","","",""
"","image-keyboard-response","158","75282","0.0-158.0","3IKZ72A5B525WRO823P13B8SF99FNV","A1NLJ1L4VCQYV2","3T5ZXGO9DEAUILU6S56NLENRQJRQZJ","","301","img/land3.png","76","302","3","1","3","1,0.5,0.5,0.5,1,0.5,0.5,0.5,1","",""
"","html-keyboard-response","159","75595","0.0-159.0","3IKZ72A5B525WRO823P13B8SF99FNV","A1NLJ1L4VCQYV2","3T5ZXGO9DEAUILU6S56NLENRQJRQZJ","","null","<img src=""img/land3.png"" style=""width:200px; border:14px solid green;"">","null","","","","","","",""
"","image-keyboard-response","160","76182","0.0-160.0","3IKZ72A5B525WRO823P13B8SF99FNV","A1NLJ1L4VCQYV2","3T5ZXGO9DEAUILU6S56NLENRQJRQZJ","","586","img/land2.png","75","587","2","1","2","1,0.5,0.5,0.5,1,0.5,0.5,0.5,1","",""
"","html-keyboard-response","161","76488","0.0-161.0","3IKZ72A5B525WRO823P13B8SF99FNV","A1NLJ1L4VCQYV2","3T5ZXGO9DEAUILU6S56NLENRQJRQZJ","","null","<img src=""img/land2.png"" style=""width:200px; border:14px solid green;"">","null","","","","","","",""
"","image-keyboard-response","162","77002","0.0-162.0","3IKZ72A5B525WRO823P13B8SF99FNV","A1NLJ1L4VCQYV2","3T5ZXGO9DEAUILU6S56NLENRQJRQZJ","","512","img/land1.png","74","512","1","1","1","1,0.5,0.5,0.5,1,0.5,0.5,0.5,1","",""
"","html-keyboard-response","163","77317","0.0-163.0","3IKZ72A5B525WRO823P13B8SF99FNV","A1NLJ1L4VCQYV2","3T5ZXGO9DEAUILU6S56NLENRQJRQZJ","","null","<img src=""img/land1.png"" style=""width:200px; border:14px solid green;"">","null","","","","","","",""
"","image-keyboard-response","164","77645","0.0-164.0","3IKZ72A5B525WRO823P13B8SF99FNV","A1NLJ1L4VCQYV2","3T5ZXGO9DEAUILU6S56NLENRQJRQZJ","","327","img/land1.png","74","327","1","1","1","1,0.5,0.5,0.5,1,0.5,0.5,0.5,1","",""
"","html-keyboard-response","165","77946","0.0-165.0","3IKZ72A5B525WRO823P13B8SF99FNV","A1NLJ1L4VCQYV2","3T5ZXGO9DEAUILU6S56NLENRQJRQZJ","","null","<img src=""img/land1.png"" style=""width:200px; border:14px solid green;"">","null","","","","","","",""
"","image-keyboard-response","166","78526","0.0-166.0","3IKZ72A5B525WRO823P13B8SF99FNV","A1NLJ1L4VCQYV2","3T5ZXGO9DEAUILU6S56NLENRQJRQZJ","","580","img/land2.png","75","580","2","1","2","1,0.5,0.5,0.5,1,0.5,0.5,0.5,1","",""
"","html-keyboard-response","167","78838","0.0-167.0","3IKZ72A5B525WRO823P13B8SF99FNV","A1NLJ1L4VCQYV2","3T5ZXGO9DEAUILU6S56NLENRQJRQZJ","","null","<img src=""img/land2.png"" style=""width:200px; border:14px solid green;"">","null","","","","","","",""
"","image-keyboard-response","168","79177","0.0-168.0","3IKZ72A5B525WRO823P13B8SF99FNV","A1NLJ1L4VCQYV2","3T5ZXGO9DEAUILU6S56NLENRQJRQZJ","","340","img/land2.png","75","340","2","1","2","1,0.5,0.5,0.5,1,0.5,0.5,0.5,1","",""
"","html-keyboard-response","169","79483","0.0-169.0","3IKZ72A5B525WRO823P13B8SF99FNV","A1NLJ1L4VCQYV2","3T5ZXGO9DEAUILU6S56NLENRQJRQZJ","","null","<img src=""img/land2.png"" style=""width:200px; border:14px solid green;"">","null","","","","","","",""
"","html-keyboard-response","170","83516","0.0-170.0","3IKZ72A5B525WRO823P13B8SF99FNV","A1NLJ1L4VCQYV2","3T5ZXGO9DEAUILU6S56NLENRQJRQZJ","","","","","","","","","","",""
"","image-keyboard-response","171","84529","0.0-171.0","3IKZ72A5B525WRO823P13B8SF99FNV","A1NLJ1L4VCQYV2","3T5ZXGO9DEAUILU6S56NLENRQJRQZJ","","1012","img/land4.png","74","1013","1","1","1","1,0.5,0.5,0.5,1,0.5,0.5,0.5,1","",""
"","html-keyboard-response","172","84835","0.0-172.0","3IKZ72A5B525WRO823P13B8SF99FNV","A1NLJ1L4VCQYV2","3T5ZXGO9DEAUILU6S56NLENRQJRQZJ","","null","<img src=""img/land4.png"" style=""width:200px; border:14px solid green;"">","null","","","","","","",""
"","image-keyboard-response","173","85170","0.0-173.0","3IKZ72A5B525WRO823P13B8SF99FNV","A1NLJ1L4VCQYV2","3T5ZXGO9DEAUILU6S56NLENRQJRQZJ","","336","img/land4.png","74","336","1","1","1","1,0.5,0.5,0.5,1,0.5,0.5,0.5,1","",""
"","html-keyboard-response","174","85480","0.0-174.0","3IKZ72A5B525WRO823P13B8SF99FNV","A1NLJ1L4VCQYV2","3T5ZXGO9DEAUILU6S56NLENRQJRQZJ","","null","<img src=""img/land4.png"" style=""width:200px; border:14px solid green;"">","null","","","","","","",""
"","image-keyboard-response","175","86052","0.0-175.0","3IKZ72A5B525WRO823P13B8SF99FNV","A1NLJ1L4VCQYV2","3T5ZXGO9DEAUILU6S56NLENRQJRQZJ","","574","img/land6.png","76","574","3","1","3","1,0.5,0.5,0.5,1,0.5,0.5,0.5,1","",""
"","html-keyboard-response","176","86356","0.0-176.0","3IKZ72A5B525WRO823P13B8SF99FNV","A1NLJ1L4VCQYV2","3T5ZXGO9DEAUILU6S56NLENRQJRQZJ","","null","<img src=""img/land6.png"" style=""width:200px; border:14px solid green;"">","null","","","","","","",""
"","image-keyboard-response","177","86635","0.0-177.0","3IKZ72A5B525WRO823P13B8SF99FNV","A1NLJ1L4VCQYV2","3T5ZXGO9DEAUILU6S56NLENRQJRQZJ","","278","img/land6.png","76","279","3","1","3","1,0.5,0.5,0.5,1,0.5,0.5,0.5,1","",""
"","html-keyboard-response","178","86940","0.0-178.0","3IKZ72A5B525WRO823P13B8SF99FNV","A1NLJ1L4VCQYV2","3T5ZXGO9DEAUILU6S56NLENRQJRQZJ","","null","<img src=""img/land6.png"" style=""width:200px; border:14px solid green;"">","null","","","","","","",""
"","image-keyboard-response","179","87293","0.0-179.0","3IKZ72A5B525WRO823P13B8SF99FNV","A1NLJ1L4VCQYV2","3T5ZXGO9DEAUILU6S56NLENRQJRQZJ","","352","img/land6.png","76","353","3","1","3","1,0.5,0.5,0.5,1,0.5,0.5,0.5,1","",""
"","html-keyboard-response","180","87599","0.0-180.0","3IKZ72A5B525WRO823P13B8SF99FNV","A1NLJ1L4VCQYV2","3T5ZXGO9DEAUILU6S56NLENRQJRQZJ","","null","<img src=""img/land6.png"" style=""width:200px; border:14px solid green;"">","null","","","","","","",""
"","image-keyboard-response","181","88235","0.0-181.0","3IKZ72A5B525WRO823P13B8SF99FNV","A1NLJ1L4VCQYV2","3T5ZXGO9DEAUILU6S56NLENRQJRQZJ","","636","img/land4.png","74","637","1","1","1","1,0.5,0.5,0.5,1,0.5,0.5,0.5,1","",""
"","html-keyboard-response","182","88537","0.0-182.0","3IKZ72A5B525WRO823P13B8SF99FNV","A1NLJ1L4VCQYV2","3T5ZXGO9DEAUILU6S56NLENRQJRQZJ","","null","<img src=""img/land4.png"" style=""width:200px; border:14px solid green;"">","null","","","","","","",""
"","image-keyboard-response","183","88746","0.0-183.0","3IKZ72A5B525WRO823P13B8SF99FNV","A1NLJ1L4VCQYV2","3T5ZXGO9DEAUILU6S56NLENRQJRQZJ","","209","img/land4.png","74","209","1","1","1","1,0.5,0.5,0.5,1,0.5,0.5,0.5,1","",""
"","html-keyboard-response","184","89059","0.0-184.0","3IKZ72A5B525WRO823P13B8SF99FNV","A1NLJ1L4VCQYV2","3T5ZXGO9DEAUILU6S56NLENRQJRQZJ","","null","<img src=""img/land4.png"" style=""width:200px; border:14px solid green;"">","null","","","","","","",""
"","image-keyboard-response","185","89358","0.0-185.0","3IKZ72A5B525WRO823P13B8SF99FNV","A1NLJ1L4VCQYV2","3T5ZXGO9DEAUILU6S56NLENRQJRQZJ","","299","img/land4.png","74","299","1","1","1","1,0.5,0.5,0.5,1,0.5,0.5,0.5,1","",""
"","html-keyboard-response","186","89659","0.0-186.0","3IKZ72A5B525WRO823P13B8SF99FNV","A1NLJ1L4VCQYV2","3T5ZXGO9DEAUILU6S56NLENRQJRQZJ","","null","<img src=""img/land4.png"" style=""width:200px; border:14px solid green;"">","null","","","","","","",""
"","image-keyboard-response","187","90340","0.0-187.0","3IKZ72A5B525WRO823P13B8SF99FNV","A1NLJ1L4VCQYV2","3T5ZXGO9DEAUILU6S56NLENRQJRQZJ","","680","img/land5.png","75","681","2","1","2","1,0.5,0.5,0.5,1,0.5,0.5,0.5,1","",""
"","html-keyboard-response","188","90641","0.0-188.0","3IKZ72A5B525WRO823P13B8SF99FNV","A1NLJ1L4VCQYV2","3T5ZXGO9DEAUILU6S56NLENRQJRQZJ","","null","<img src=""img/land5.png"" style=""width:200px; border:14px solid green;"">","null","","","","","","",""
"","image-keyboard-response","189","90973","0.0-189.0","3IKZ72A5B525WRO823P13B8SF99FNV","A1NLJ1L4VCQYV2","3T5ZXGO9DEAUILU6S56NLENRQJRQZJ","","332","img/land5.png","75","332","2","1","2","1,0.5,0.5,0.5,1,0.5,0.5,0.5,1","",""
"","html-keyboard-response","190","91286","0.0-190.0","3IKZ72A5B525WRO823P13B8SF99FNV","A1NLJ1L4VCQYV2","3T5ZXGO9DEAUILU6S56NLENRQJRQZJ","","null","<img src=""img/land5.png"" style=""width:200px; border:14px solid green;"">","null","","","","","","",""
"","image-keyboard-response","191","91874","0.0-191.0","3IKZ72A5B525WRO823P13B8SF99FNV","A1NLJ1L4VCQYV2","3T5ZXGO9DEAUILU6S56NLENRQJRQZJ","","587","img/land6.png","76","587","3","1","3","1,0.5,0.5,0.5,1,0.5,0.5,0.5,1","",""
"","html-keyboard-response","192","92179","0.0-192.0","3IKZ72A5B525WRO823P13B8SF99FNV","A1NLJ1L4VCQYV2","3T5ZXGO9DEAUILU6S56NLENRQJRQZJ","","null","<img src=""img/land6.png"" style=""width:200px; border:14px solid green;"">","null","","","","","","",""
"","image-keyboard-response","193","92345","0.0-193.0","3IKZ72A5B525WRO823P13B8SF99FNV","A1NLJ1L4VCQYV2","3T5ZXGO9DEAUILU6S56NLENRQJRQZJ","","166","img/land4.png","76","166","3","0","1","1,0.5,0.5,0.5,1,0.5,0.5,0.5,1","",""
"","html-keyboard-response","194","92657","0.0-194.0","3IKZ72A5B525WRO823P13B8SF99FNV","A1NLJ1L4VCQYV2","3T5ZXGO9DEAUILU6S56NLENRQJRQZJ","","null","<img src=""img/land4.png"" style=""width:200px;border:14px solid red;"">","null","","","","","","",""
"","image-keyboard-response","195","93180","0.0-195.0","3IKZ72A5B525WRO823P13B8SF99FNV","A1NLJ1L4VCQYV2","3T5ZXGO9DEAUILU6S56NLENRQJRQZJ","","523","img/land6.png","76","523","3","1","3","1,0.5,0.5,0.5,1,0.5,0.5,0.5,1","",""
"","html-keyboard-response","196","93486","0.0-196.0","3IKZ72A5B525WRO823P13B8SF99FNV","A1NLJ1L4VCQYV2","3T5ZXGO9DEAUILU6S56NLENRQJRQZJ","","null","<img src=""img/land6.png"" style=""width:200px; border:14px solid green;"">","null","","","","","","",""
"","image-keyboard-response","197","93791","0.0-197.0","3IKZ72A5B525WRO823P13B8SF99FNV","A1NLJ1L4VCQYV2","3T5ZXGO9DEAUILU6S56NLENRQJRQZJ","","306","img/land6.png","76","307","3","1","3","1,0.5,0.5,0.5,1,0.5,0.5,0.5,1","",""
"","html-keyboard-response","198","94099","0.0-198.0","3IKZ72A5B525WRO823P13B8SF99FNV","A1NLJ1L4VCQYV2","3T5ZXGO9DEAUILU6S56NLENRQJRQZJ","","null","<img src=""img/land6.png"" style=""width:200px; border:14px solid green;"">","null","","","","","","",""
"","image-keyboard-response","199","94865","0.0-199.0","3IKZ72A5B525WRO823P13B8SF99FNV","A1NLJ1L4VCQYV2","3T5ZXGO9DEAUILU6S56NLENRQJRQZJ","","766","img/land5.png","75","766","2","1","2","1,0.5,0.5,0.5,1,0.5,0.5,0.5,1","",""
"","html-keyboard-response","200","95176","0.0-200.0","3IKZ72A5B525WRO823P13B8SF99FNV","A1NLJ1L4VCQYV2","3T5ZXGO9DEAUILU6S56NLENRQJRQZJ","","null","<img src=""img/land5.png"" style=""width:200px; border:14px solid green;"">","null","","","","","","",""
"","image-keyboard-response","201","95778","0.0-201.0","3IKZ72A5B525WRO823P13B8SF99FNV","A1NLJ1L4VCQYV2","3T5ZXGO9DEAUILU6S56NLENRQJRQZJ","","602","img/land4.png","74","602","1","1","1","1,0.5,0.5,0.5,1,0.5,0.5,0.5,1","",""
"","html-keyboard-response","202","96085","0.0-202.0","3IKZ72A5B525WRO823P13B8SF99FNV","A1NLJ1L4VCQYV2","3T5ZXGO9DEAUILU6S56NLENRQJRQZJ","","null","<img src=""img/land4.png"" style=""width:200px; border:14px solid green;"">","null","","","","","","",""
"","image-keyboard-response","203","96560","0.0-203.0","3IKZ72A5B525WRO823P13B8SF99FNV","A1NLJ1L4VCQYV2","3T5ZXGO9DEAUILU6S56NLENRQJRQZJ","","475","img/land5.png","76","475","3","1","2","1,0.5,0.5,0.5,1,0.5,0.5,0.5,1","",""
"","html-keyboard-response","204","96871","0.0-204.0","3IKZ72A5B525WRO823P13B8SF99FNV","A1NLJ1L4VCQYV2","3T5ZXGO9DEAUILU6S56NLENRQJRQZJ","","null","<img src=""img/land5.png"" style=""width:200px; border:14px solid green;"">","null","","","","","","",""
"","image-keyboard-response","205","97457","0.0-205.0","3IKZ72A5B525WRO823P13B8SF99FNV","A1NLJ1L4VCQYV2","3T5ZXGO9DEAUILU6S56NLENRQJRQZJ","","586","img/land6.png","75","586","2","0","3","1,0.5,0.5,0.5,1,0.5,0.5,0.5,1","",""
"","html-keyboard-response","206","97762","0.0-206.0","3IKZ72A5B525WRO823P13B8SF99FNV","A1NLJ1L4VCQYV2","3T5ZXGO9DEAUILU6S56NLENRQJRQZJ","","null","<img src=""img/land6.png"" style=""width:200px;border:14px solid red;"">","null","","","","","","",""
"","image-keyboard-response","207","98587","0.0-207.0","3IKZ72A5B525WRO823P13B8SF99FNV","A1NLJ1L4VCQYV2","3T5ZXGO9DEAUILU6S56NLENRQJRQZJ","","823","img/land5.png","75","823","2","1","2","1,0.5,0.5,0.5,1,0.5,0.5,0.5,1","",""
"","html-keyboard-response","208","98900","0.0-208.0","3IKZ72A5B525WRO823P13B8SF99FNV","A1NLJ1L4VCQYV2","3T5ZXGO9DEAUILU6S56NLENRQJRQZJ","","null","<img src=""img/land5.png"" style=""width:200px; border:14px solid green;"">","null","","","","","","",""
"","image-keyboard-response","209","99621","0.0-209.0","3IKZ72A5B525WRO823P13B8SF99FNV","A1NLJ1L4VCQYV2","3T5ZXGO9DEAUILU6S56NLENRQJRQZJ","","722","img/land4.png","74","722","1","1","1","1,0.5,0.5,0.5,1,0.5,0.5,0.5,1","",""
"","html-keyboard-response","210","99926","0.0-210.0","3IKZ72A5B525WRO823P13B8SF99FNV","A1NLJ1L4VCQYV2","3T5ZXGO9DEAUILU6S56NLENRQJRQZJ","","null","<img src=""img/land4.png"" style=""width:200px; border:14px solid green;"">","null","","","","","","",""
"","image-keyboard-response","211","100268","0.0-211.0","3IKZ72A5B525WRO823P13B8SF99FNV","A1NLJ1L4VCQYV2","3T5ZXGO9DEAUILU6S56NLENRQJRQZJ","","341","img/land4.png","74","341","1","1","1","1,0.5,0.5,0.5,1,0.5,0.5,0.5,1","",""
"","html-keyboard-response","212","100570","0.0-212.0","3IKZ72A5B525WRO823P13B8SF99FNV","A1NLJ1L4VCQYV2","3T5ZXGO9DEAUILU6S56NLENRQJRQZJ","","null","<img src=""img/land4.png"" style=""width:200px; border:14px solid green;"">","null","","","","","","",""
"","image-keyboard-response","213","100911","0.0-213.0","3IKZ72A5B525WRO823P13B8SF99FNV","A1NLJ1L4VCQYV2","3T5ZXGO9DEAUILU6S56NLENRQJRQZJ","","339","img/land4.png","74","339","1","1","1","1,0.5,0.5,0.5,1,0.5,0.5,0.5,1","",""
"","html-keyboard-response","214","101215","0.0-214.0","3IKZ72A5B525WRO823P13B8SF99FNV","A1NLJ1L4VCQYV2","3T5ZXGO9DEAUILU6S56NLENRQJRQZJ","","null","<img src=""img/land4.png"" style=""width:200px; border:14px solid green;"">","null","","","","","","",""
"","image-keyboard-response","215","101517","0.0-215.0","3IKZ72A5B525WRO823P13B8SF99FNV","A1NLJ1L4VCQYV2","3T5ZXGO9DEAUILU6S56NLENRQJRQZJ","","300","img/land5.png","74","301","1","1","2","1,0.5,0.5,0.5,1,0.5,0.5,0.5,1","",""
"","html-keyboard-response","216","101832","0.0-216.0","3IKZ72A5B525WRO823P13B8SF99FNV","A1NLJ1L4VCQYV2","3T5ZXGO9DEAUILU6S56NLENRQJRQZJ","","null","<img src=""img/land5.png"" style=""width:200px; border:14px solid green;"">","null","","","","","","",""
"","image-keyboard-response","217","102423","0.0-217.0","3IKZ72A5B525WRO823P13B8SF99FNV","A1NLJ1L4VCQYV2","3T5ZXGO9DEAUILU6S56NLENRQJRQZJ","","591","img/land4.png","74","591","1","1","1","1,0.5,0.5,0.5,1,0.5,0.5,0.5,1","",""
"","html-keyboard-response","218","102737","0.0-218.0","3IKZ72A5B525WRO823P13B8SF99FNV","A1NLJ1L4VCQYV2","3T5ZXGO9DEAUILU6S56NLENRQJRQZJ","","null","<img src=""img/land4.png"" style=""width:200px; border:14px solid green;"">","null","","","","","","",""
"","image-keyboard-response","219","103065","0.0-219.0","3IKZ72A5B525WRO823P13B8SF99FNV","A1NLJ1L4VCQYV2","3T5ZXGO9DEAUILU6S56NLENRQJRQZJ","","328","img/land4.png","74","328","1","1","1","1,0.5,0.5,0.5,1,0.5,0.5,0.5,1","",""
"","html-keyboard-response","220","103381","0.0-220.0","3IKZ72A5B525WRO823P13B8SF99FNV","A1NLJ1L4VCQYV2","3T5ZXGO9DEAUILU6S56NLENRQJRQZJ","","null","<img src=""img/land4.png"" style=""width:200px; border:14px solid green;"">","null","","","","","","",""
"","image-keyboard-response","221","103802","0.0-221.0","3IKZ72A5B525WRO823P13B8SF99FNV","A1NLJ1L4VCQYV2","3T5ZXGO9DEAUILU6S56NLENRQJRQZJ","","421","img/land5.png","74","421","1","0","2","1,0.5,0.5,0.5,1,0.5,0.5,0.5,1","",""
"","html-keyboard-response","222","104118","0.0-222.0","3IKZ72A5B525WRO823P13B8SF99FNV","A1NLJ1L4VCQYV2","3T5ZXGO9DEAUILU6S56NLENRQJRQZJ","","null","<img src=""img/land5.png"" style=""width:200px;border:14px solid red;"">","null","","","","","","",""
"","image-keyboard-response","223","104639","0.0-223.0","3IKZ72A5B525WRO823P13B8SF99FNV","A1NLJ1L4VCQYV2","3T5ZXGO9DEAUILU6S56NLENRQJRQZJ","","521","img/land4.png","74","521","1","1","1","1,0.5,0.5,0.5,1,0.5,0.5,0.5,1","",""
"","html-keyboard-response","224","104948","0.0-224.0","3IKZ72A5B525WRO823P13B8SF99FNV","A1NLJ1L4VCQYV2","3T5ZXGO9DEAUILU6S56NLENRQJRQZJ","","null","<img src=""img/land4.png"" style=""width:200px; border:14px solid green;"">","null","","","","","","",""
"","image-keyboard-response","225","105255","0.0-225.0","3IKZ72A5B525WRO823P13B8SF99FNV","A1NLJ1L4VCQYV2","3T5ZXGO9DEAUILU6S56NLENRQJRQZJ","","306","img/land6.png","74","306","1","1","3","1,0.5,0.5,0.5,1,0.5,0.5,0.5,1","",""
"","html-keyboard-response","226","105564","0.0-226.0","3IKZ72A5B525WRO823P13B8SF99FNV","A1NLJ1L4VCQYV2","3T5ZXGO9DEAUILU6S56NLENRQJRQZJ","","null","<img src=""img/land6.png"" style=""width:200px; border:14px solid green;"">","null","","","","","","",""
"","image-keyboard-response","227","106143","0.0-227.0","3IKZ72A5B525WRO823P13B8SF99FNV","A1NLJ1L4VCQYV2","3T5ZXGO9DEAUILU6S56NLENRQJRQZJ","","578","img/land4.png","74","578","1","1","1","1,0.5,0.5,0.5,1,0.5,0.5,0.5,1","",""
"","html-keyboard-response","228","106457","0.0-228.0","3IKZ72A5B525WRO823P13B8SF99FNV","A1NLJ1L4VCQYV2","3T5ZXGO9DEAUILU6S56NLENRQJRQZJ","","null","<img src=""img/land4.png"" style=""width:200px; border:14px solid green;"">","null","","","","","","",""
"","image-keyboard-response","229","106789","0.0-229.0","3IKZ72A5B525WRO823P13B8SF99FNV","A1NLJ1L4VCQYV2","3T5ZXGO9DEAUILU6S56NLENRQJRQZJ","","332","img/land4.png","74","332","1","1","1","1,0.5,0.5,0.5,1,0.5,0.5,0.5,1","",""
"","html-keyboard-response","230","107104","0.0-230.0","3IKZ72A5B525WRO823P13B8SF99FNV","A1NLJ1L4VCQYV2","3T5ZXGO9DEAUILU6S56NLENRQJRQZJ","","null","<img src=""img/land4.png"" style=""width:200px; border:14px solid green;"">","null","","","","","","",""
"","image-keyboard-response","231","107763","0.0-231.0","3IKZ72A5B525WRO823P13B8SF99FNV","A1NLJ1L4VCQYV2","3T5ZXGO9DEAUILU6S56NLENRQJRQZJ","","659","img/land5.png","75","659","2","1","2","1,0.5,0.5,0.5,1,0.5,0.5,0.5,1","",""
"","html-keyboard-response","232","108072","0.0-232.0","3IKZ72A5B525WRO823P13B8SF99FNV","A1NLJ1L4VCQYV2","3T5ZXGO9DEAUILU6S56NLENRQJRQZJ","","null","<img src=""img/land5.png"" style=""width:200px; border:14px solid green;"">","null","","","","","","",""
"","image-keyboard-response","233","108687","0.0-233.0","3IKZ72A5B525WRO823P13B8SF99FNV","A1NLJ1L4VCQYV2","3T5ZXGO9DEAUILU6S56NLENRQJRQZJ","","615","img/land4.png","74","615","1","1","1","1,0.5,0.5,0.5,1,0.5,0.5,0.5,1","",""
"","html-keyboard-response","234","108994","0.0-234.0","3IKZ72A5B525WRO823P13B8SF99FNV","A1NLJ1L4VCQYV2","3T5ZXGO9DEAUILU6S56NLENRQJRQZJ","","null","<img src=""img/land4.png"" style=""width:200px; border:14px solid green;"">","null","","","","","","",""
"","image-keyboard-response","235","109309","0.0-235.0","3IKZ72A5B525WRO823P13B8SF99FNV","A1NLJ1L4VCQYV2","3T5ZXGO9DEAUILU6S56NLENRQJRQZJ","","315","img/land4.png","74","315","1","1","1","1,0.5,0.5,0.5,1,0.5,0.5,0.5,1","",""
"","html-keyboard-response","236","109625","0.0-236.0","3IKZ72A5B525WRO823P13B8SF99FNV","A1NLJ1L4VCQYV2","3T5ZXGO9DEAUILU6S56NLENRQJRQZJ","","null","<img src=""img/land4.png"" style=""width:200px; border:14px solid green;"">","null","","","","","","",""
"","image-keyboard-response","237","109986","0.0-237.0","3IKZ72A5B525WRO823P13B8SF99FNV","A1NLJ1L4VCQYV2","3T5ZXGO9DEAUILU6S56NLENRQJRQZJ","","362","img/land4.png","74","362","1","1","1","1,0.5,0.5,0.5,1,0.5,0.5,0.5,1","",""
"","html-keyboard-response","238","110300","0.0-238.0","3IKZ72A5B525WRO823P13B8SF99FNV","A1NLJ1L4VCQYV2","3T5ZXGO9DEAUILU6S56NLENRQJRQZJ","","null","<img src=""img/land4.png"" style=""width:200px; border:14px solid green;"">","null","","","","","","",""
"","image-keyboard-response","239","110690","0.0-239.0","3IKZ72A5B525WRO823P13B8SF99FNV","A1NLJ1L4VCQYV2","3T5ZXGO9DEAUILU6S56NLENRQJRQZJ","","389","img/land5.png","75","389","2","1","2","1,0.5,0.5,0.5,1,0.5,0.5,0.5,1","",""
"","html-keyboard-response","240","110992","0.0-240.0","3IKZ72A5B525WRO823P13B8SF99FNV","A1NLJ1L4VCQYV2","3T5ZXGO9DEAUILU6S56NLENRQJRQZJ","","null","<img src=""img/land5.png"" style=""width:200px; border:14px solid green;"">","null","","","","","","",""
"","image-keyboard-response","241","111612","0.0-241.0","3IKZ72A5B525WRO823P13B8SF99FNV","A1NLJ1L4VCQYV2","3T5ZXGO9DEAUILU6S56NLENRQJRQZJ","","619","img/land6.png","76","620","3","1","3","1,0.5,0.5,0.5,1,0.5,0.5,0.5,1","",""
"","html-keyboard-response","242","111930","0.0-242.0","3IKZ72A5B525WRO823P13B8SF99FNV","A1NLJ1L4VCQYV2","3T5ZXGO9DEAUILU6S56NLENRQJRQZJ","","null","<img src=""img/land6.png"" style=""width:200px; border:14px solid green;"">","null","","","","","","",""
"","image-keyboard-response","243","112568","0.0-243.0","3IKZ72A5B525WRO823P13B8SF99FNV","A1NLJ1L4VCQYV2","3T5ZXGO9DEAUILU6S56NLENRQJRQZJ","","638","img/land5.png","75","638","2","1","2","1,0.5,0.5,0.5,1,0.5,0.5,0.5,1","",""
"","html-keyboard-response","244","112884","0.0-244.0","3IKZ72A5B525WRO823P13B8SF99FNV","A1NLJ1L4VCQYV2","3T5ZXGO9DEAUILU6S56NLENRQJRQZJ","","null","<img src=""img/land5.png"" style=""width:200px; border:14px solid green;"">","null","","","","","","",""
"","image-keyboard-response","245","113400","0.0-245.0","3IKZ72A5B525WRO823P13B8SF99FNV","A1NLJ1L4VCQYV2","3T5ZXGO9DEAUILU6S56NLENRQJRQZJ","","516","img/land6.png","76","517","3","1","3","1,0.5,0.5,0.5,1,0.5,0.5,0.5,1","",""
"","html-keyboard-response","246","113715","0.0-246.0","3IKZ72A5B525WRO823P13B8SF99FNV","A1NLJ1L4VCQYV2","3T5ZXGO9DEAUILU6S56NLENRQJRQZJ","","null","<img src=""img/land6.png"" style=""width:200px; border:14px solid green;"">","null","","","","","","",""
"","image-keyboard-response","247","114450","0.0-247.0","3IKZ72A5B525WRO823P13B8SF99FNV","A1NLJ1L4VCQYV2","3T5ZXGO9DEAUILU6S56NLENRQJRQZJ","","735","img/land4.png","74","735","1","1","1","1,0.5,0.5,0.5,1,0.5,0.5,0.5,1","",""
"","html-keyboard-response","248","114759","0.0-248.0","3IKZ72A5B525WRO823P13B8SF99FNV","A1NLJ1L4VCQYV2","3T5ZXGO9DEAUILU6S56NLENRQJRQZJ","","null","<img src=""img/land4.png"" style=""width:200px; border:14px solid green;"">","null","","","","","","",""
"","image-keyboard-response","249","115083","0.0-249.0","3IKZ72A5B525WRO823P13B8SF99FNV","A1NLJ1L4VCQYV2","3T5ZXGO9DEAUILU6S56NLENRQJRQZJ","","324","img/land4.png","74","325","1","1","1","1,0.5,0.5,0.5,1,0.5,0.5,0.5,1","",""
"","html-keyboard-response","250","115389","0.0-250.0","3IKZ72A5B525WRO823P13B8SF99FNV","A1NLJ1L4VCQYV2","3T5ZXGO9DEAUILU6S56NLENRQJRQZJ","","null","<img src=""img/land4.png"" style=""width:200px; border:14px solid green;"">","null","","","","","","",""
"","image-keyboard-response","251","115893","0.0-251.0","3IKZ72A5B525WRO823P13B8SF99FNV","A1NLJ1L4VCQYV2","3T5ZXGO9DEAUILU6S56NLENRQJRQZJ","","503","img/land5.png","75","504","2","1","2","1,0.5,0.5,0.5,1,0.5,0.5,0.5,1","",""
"","html-keyboard-response","252","116204","0.0-252.0","3IKZ72A5B525WRO823P13B8SF99FNV","A1NLJ1L4VCQYV2","3T5ZXGO9DEAUILU6S56NLENRQJRQZJ","","null","<img src=""img/land5.png"" style=""width:200px; border:14px solid green;"">","null","","","","","","",""
"","image-keyboard-response","253","116739","0.0-253.0","3IKZ72A5B525WRO823P13B8SF99FNV","A1NLJ1L4VCQYV2","3T5ZXGO9DEAUILU6S56NLENRQJRQZJ","","536","img/land4.png","74","536","1","1","1","1,0.5,0.5,0.5,1,0.5,0.5,0.5,1","",""
"","html-keyboard-response","254","117049","0.0-254.0","3IKZ72A5B525WRO823P13B8SF99FNV","A1NLJ1L4VCQYV2","3T5ZXGO9DEAUILU6S56NLENRQJRQZJ","","null","<img src=""img/land4.png"" style=""width:200px; border:14px solid green;"">","null","","","","","","",""
"","image-keyboard-response","255","117409","0.0-255.0","3IKZ72A5B525WRO823P13B8SF99FNV","A1NLJ1L4VCQYV2","3T5ZXGO9DEAUILU6S56NLENRQJRQZJ","","360","img/land4.png","74","361","1","1","1","1,0.5,0.5,0.5,1,0.5,0.5,0.5,1","",""
"","html-keyboard-response","256","117723","0.0-256.0","3IKZ72A5B525WRO823P13B8SF99FNV","A1NLJ1L4VCQYV2","3T5ZXGO9DEAUILU6S56NLENRQJRQZJ","","null","<img src=""img/land4.png"" style=""width:200px; border:14px solid green;"">","null","","","","","","",""
"","image-keyboard-response","257","118123","0.0-257.0","3IKZ72A5B525WRO823P13B8SF99FNV","A1NLJ1L4VCQYV2","3T5ZXGO9DEAUILU6S56NLENRQJRQZJ","","399","img/land6.png","75","400","2","0","3","1,0.5,0.5,0.5,1,0.5,0.5,0.5,1","",""
"","html-keyboard-response","258","118431","0.0-258.0","3IKZ72A5B525WRO823P13B8SF99FNV","A1NLJ1L4VCQYV2","3T5ZXGO9DEAUILU6S56NLENRQJRQZJ","","null","<img src=""img/land6.png"" style=""width:200px;border:14px solid red;"">","null","","","","","","",""
"","image-keyboard-response","259","119187","0.0-259.0","3IKZ72A5B525WRO823P13B8SF99FNV","A1NLJ1L4VCQYV2","3T5ZXGO9DEAUILU6S56NLENRQJRQZJ","","756","img/land5.png","75","756","2","1","2","1,0.5,0.5,0.5,1,0.5,0.5,0.5,1","",""
"","html-keyboard-response","260","119491","0.0-260.0","3IKZ72A5B525WRO823P13B8SF99FNV","A1NLJ1L4VCQYV2","3T5ZXGO9DEAUILU6S56NLENRQJRQZJ","","null","<img src=""img/land5.png"" style=""width:200px; border:14px solid green;"">","null","","","","","","",""
"","image-keyboard-response","261","119828","0.0-261.0","3IKZ72A5B525WRO823P13B8SF99FNV","A1NLJ1L4VCQYV2","3T5ZXGO9DEAUILU6S56NLENRQJRQZJ","","335","img/land5.png","75","335","2","1","2","1,0.5,0.5,0.5,1,0.5,0.5,0.5,1","",""
"","html-keyboard-response","262","120137","0.0-262.0","3IKZ72A5B525WRO823P13B8SF99FNV","A1NLJ1L4VCQYV2","3T5ZXGO9DEAUILU6S56NLENRQJRQZJ","","null","<img src=""img/land5.png"" style=""width:200px; border:14px solid green;"">","null","","","","","","",""
"","image-keyboard-response","263","120702","0.0-263.0","3IKZ72A5B525WRO823P13B8SF99FNV","A1NLJ1L4VCQYV2","3T5ZXGO9DEAUILU6S56NLENRQJRQZJ","","563","img/land4.png","74","564","1","1","1","1,0.5,0.5,0.5,1,0.5,0.5,0.5,1","",""
"","html-keyboard-response","264","121013","0.0-264.0","3IKZ72A5B525WRO823P13B8SF99FNV","A1NLJ1L4VCQYV2","3T5ZXGO9DEAUILU6S56NLENRQJRQZJ","","null","<img src=""img/land4.png"" style=""width:200px; border:14px solid green;"">","null","","","","","","",""
"","image-keyboard-response","265","121344","0.0-265.0","3IKZ72A5B525WRO823P13B8SF99FNV","A1NLJ1L4VCQYV2","3T5ZXGO9DEAUILU6S56NLENRQJRQZJ","","329","img/land4.png","74","330","1","1","1","1,0.5,0.5,0.5,1,0.5,0.5,0.5,1","",""
"","html-keyboard-response","266","121645","0.0-266.0","3IKZ72A5B525WRO823P13B8SF99FNV","A1NLJ1L4VCQYV2","3T5ZXGO9DEAUILU6S56NLENRQJRQZJ","","null","<img src=""img/land4.png"" style=""width:200px; border:14px solid green;"">","null","","","","","","",""
"","image-keyboard-response","267","121989","0.0-267.0","3IKZ72A5B525WRO823P13B8SF99FNV","A1NLJ1L4VCQYV2","3T5ZXGO9DEAUILU6S56NLENRQJRQZJ","","344","img/land4.png","74","344","1","1","1","1,0.5,0.5,0.5,1,0.5,0.5,0.5,1","",""
"","html-keyboard-response","268","122291","0.0-268.0","3IKZ72A5B525WRO823P13B8SF99FNV","A1NLJ1L4VCQYV2","3T5ZXGO9DEAUILU6S56NLENRQJRQZJ","","null","<img src=""img/land4.png"" style=""width:200px; border:14px solid green;"">","null","","","","","","",""
"","image-keyboard-response","269","123010","0.0-269.0","3IKZ72A5B525WRO823P13B8SF99FNV","A1NLJ1L4VCQYV2","3T5ZXGO9DEAUILU6S56NLENRQJRQZJ","","719","img/land6.png","76","719","3","1","3","1,0.5,0.5,0.5,1,0.5,0.5,0.5,1","",""
"","html-keyboard-response","270","123319","0.0-270.0","3IKZ72A5B525WRO823P13B8SF99FNV","A1NLJ1L4VCQYV2","3T5ZXGO9DEAUILU6S56NLENRQJRQZJ","","null","<img src=""img/land6.png"" style=""width:200px; border:14px solid green;"">","null","","","","","","",""
"","image-keyboard-response","271","123910","0.0-271.0","3IKZ72A5B525WRO823P13B8SF99FNV","A1NLJ1L4VCQYV2","3T5ZXGO9DEAUILU6S56NLENRQJRQZJ","","589","img/land5.png","75","591","2","1","2","1,0.5,0.5,0.5,1,0.5,0.5,0.5,1","",""
"","html-keyboard-response","272","124210","0.0-272.0","3IKZ72A5B525WRO823P13B8SF99FNV","A1NLJ1L4VCQYV2","3T5ZXGO9DEAUILU6S56NLENRQJRQZJ","","null","<img src=""img/land5.png"" style=""width:200px; border:14px solid green;"">","null","","","","","","",""
"","image-keyboard-response","273","124786","0.0-273.0","3IKZ72A5B525WRO823P13B8SF99FNV","A1NLJ1L4VCQYV2","3T5ZXGO9DEAUILU6S56NLENRQJRQZJ","","575","img/land4.png","74","576","1","1","1","1,0.5,0.5,0.5,1,0.5,0.5,0.5,1","",""
"","html-keyboard-response","274","125101","0.0-274.0","3IKZ72A5B525WRO823P13B8SF99FNV","A1NLJ1L4VCQYV2","3T5ZXGO9DEAUILU6S56NLENRQJRQZJ","","null","<img src=""img/land4.png"" style=""width:200px; border:14px solid green;"">","null","","","","","","",""
"","image-keyboard-response","275","125737","0.0-275.0","3IKZ72A5B525WRO823P13B8SF99FNV","A1NLJ1L4VCQYV2","3T5ZXGO9DEAUILU6S56NLENRQJRQZJ","","635","img/land6.png","76","635","3","1","3","1,0.5,0.5,0.5,1,0.5,0.5,0.5,1","",""
"","html-keyboard-response","276","126038","0.0-276.0","3IKZ72A5B525WRO823P13B8SF99FNV","A1NLJ1L4VCQYV2","3T5ZXGO9DEAUILU6S56NLENRQJRQZJ","","null","<img src=""img/land6.png"" style=""width:200px; border:14px solid green;"">","null","","","","","","",""
"","image-keyboard-response","277","126593","0.0-277.0","3IKZ72A5B525WRO823P13B8SF99FNV","A1NLJ1L4VCQYV2","3T5ZXGO9DEAUILU6S56NLENRQJRQZJ","","554","img/land4.png","74","555","1","1","1","1,0.5,0.5,0.5,1,0.5,0.5,0.5,1","",""
"","html-keyboard-response","278","126899","0.0-278.0","3IKZ72A5B525WRO823P13B8SF99FNV","A1NLJ1L4VCQYV2","3T5ZXGO9DEAUILU6S56NLENRQJRQZJ","","null","<img src=""img/land4.png"" style=""width:200px; border:14px solid green;"">","null","","","","","","",""
"","image-keyboard-response","279","127631","0.0-279.0","3IKZ72A5B525WRO823P13B8SF99FNV","A1NLJ1L4VCQYV2","3T5ZXGO9DEAUILU6S56NLENRQJRQZJ","","733","img/land6.png","76","733","3","1","3","1,0.5,0.5,0.5,1,0.5,0.5,0.5,1","",""
"","html-keyboard-response","280","127961","0.0-280.0","3IKZ72A5B525WRO823P13B8SF99FNV","A1NLJ1L4VCQYV2","3T5ZXGO9DEAUILU6S56NLENRQJRQZJ","","null","<img src=""img/land6.png"" style=""width:200px; border:14px solid green;"">","null","","","","","","",""
"","image-keyboard-response","281","128586","0.0-281.0","3IKZ72A5B525WRO823P13B8SF99FNV","A1NLJ1L4VCQYV2","3T5ZXGO9DEAUILU6S56NLENRQJRQZJ","","624","img/land4.png","74","625","1","1","1","1,0.5,0.5,0.5,1,0.5,0.5,0.5,1","",""
"","html-keyboard-response","282","128898","0.0-282.0","3IKZ72A5B525WRO823P13B8SF99FNV","A1NLJ1L4VCQYV2","3T5ZXGO9DEAUILU6S56NLENRQJRQZJ","","null","<img src=""img/land4.png"" style=""width:200px; border:14px solid green;"">","null","","","","","","",""
"","image-keyboard-response","283","129277","0.0-283.0","3IKZ72A5B525WRO823P13B8SF99FNV","A1NLJ1L4VCQYV2","3T5ZXGO9DEAUILU6S56NLENRQJRQZJ","","376","img/land4.png","74","377","1","1","1","1,0.5,0.5,0.5,1,0.5,0.5,0.5,1","",""
"","html-keyboard-response","284","129592","0.0-284.0","3IKZ72A5B525WRO823P13B8SF99FNV","A1NLJ1L4VCQYV2","3T5ZXGO9DEAUILU6S56NLENRQJRQZJ","","null","<img src=""img/land4.png"" style=""width:200px; border:14px solid green;"">","null","","","","","","",""
"","image-keyboard-response","285","129922","0.0-285.0","3IKZ72A5B525WRO823P13B8SF99FNV","A1NLJ1L4VCQYV2","3T5ZXGO9DEAUILU6S56NLENRQJRQZJ","","330","img/land4.png","74","331","1","1","1","1,0.5,0.5,0.5,1,0.5,0.5,0.5,1","",""
"","html-keyboard-response","286","130237","0.0-286.0","3IKZ72A5B525WRO823P13B8SF99FNV","A1NLJ1L4VCQYV2","3T5ZXGO9DEAUILU6S56NLENRQJRQZJ","","null","<img src=""img/land4.png"" style=""width:200px; border:14px solid green;"">","null","","","","","","",""
"","image-keyboard-response","287","130744","0.0-287.0","3IKZ72A5B525WRO823P13B8SF99FNV","A1NLJ1L4VCQYV2","3T5ZXGO9DEAUILU6S56NLENRQJRQZJ","","507","img/land5.png","75","507","2","1","2","1,0.5,0.5,0.5,1,0.5,0.5,0.5,1","",""
"","html-keyboard-response","288","131052","0.0-288.0","3IKZ72A5B525WRO823P13B8SF99FNV","A1NLJ1L4VCQYV2","3T5ZXGO9DEAUILU6S56NLENRQJRQZJ","","null","<img src=""img/land5.png"" style=""width:200px; border:14px solid green;"">","null","","","","","","",""
"","image-keyboard-response","289","131569","0.0-289.0","3IKZ72A5B525WRO823P13B8SF99FNV","A1NLJ1L4VCQYV2","3T5ZXGO9DEAUILU6S56NLENRQJRQZJ","","517","img/land4.png","74","518","1","1","1","1,0.5,0.5,0.5,1,0.5,0.5,0.5,1","",""
"","html-keyboard-response","290","131882","0.0-290.0","3IKZ72A5B525WRO823P13B8SF99FNV","A1NLJ1L4VCQYV2","3T5ZXGO9DEAUILU6S56NLENRQJRQZJ","","null","<img src=""img/land4.png"" style=""width:200px; border:14px solid green;"">","null","","","","","","",""
"","image-keyboard-response","291","132614","0.0-291.0","3IKZ72A5B525WRO823P13B8SF99FNV","A1NLJ1L4VCQYV2","3T5ZXGO9DEAUILU6S56NLENRQJRQZJ","","732","img/land5.png","75","732","2","1","2","1,0.5,0.5,0.5,1,0.5,0.5,0.5,1","",""
"","html-keyboard-response","292","132927","0.0-292.0","3IKZ72A5B525WRO823P13B8SF99FNV","A1NLJ1L4VCQYV2","3T5ZXGO9DEAUILU6S56NLENRQJRQZJ","","null","<img src=""img/land5.png"" style=""width:200px; border:14px solid green;"">","null","","","","","","",""
"","image-keyboard-response","293","133228","0.0-293.0","3IKZ72A5B525WRO823P13B8SF99FNV","A1NLJ1L4VCQYV2","3T5ZXGO9DEAUILU6S56NLENRQJRQZJ","","302","img/land5.png","75","302","2","1","2","1,0.5,0.5,0.5,1,0.5,0.5,0.5,1","",""
"","html-keyboard-response","294","133542","0.0-294.0","3IKZ72A5B525WRO823P13B8SF99FNV","A1NLJ1L4VCQYV2","3T5ZXGO9DEAUILU6S56NLENRQJRQZJ","","null","<img src=""img/land5.png"" style=""width:200px; border:14px solid green;"">","null","","","","","","",""
"","image-keyboard-response","295","134111","0.0-295.0","3IKZ72A5B525WRO823P13B8SF99FNV","A1NLJ1L4VCQYV2","3T5ZXGO9DEAUILU6S56NLENRQJRQZJ","","570","img/land4.png","74","570","1","1","1","1,0.5,0.5,0.5,1,0.5,0.5,0.5,1","",""
"","html-keyboard-response","296","134417","0.0-296.0","3IKZ72A5B525WRO823P13B8SF99FNV","A1NLJ1L4VCQYV2","3T5ZXGO9DEAUILU6S56NLENRQJRQZJ","","null","<img src=""img/land4.png"" style=""width:200px; border:14px solid green;"">","null","","","","","","",""
"","image-keyboard-response","297","135033","0.0-297.0","3IKZ72A5B525WRO823P13B8SF99FNV","A1NLJ1L4VCQYV2","3T5ZXGO9DEAUILU6S56NLENRQJRQZJ","","615","img/land6.png","76","615","3","1","3","1,0.5,0.5,0.5,1,0.5,0.5,0.5,1","",""
"","html-keyboard-response","298","135339","0.0-298.0","3IKZ72A5B525WRO823P13B8SF99FNV","A1NLJ1L4VCQYV2","3T5ZXGO9DEAUILU6S56NLENRQJRQZJ","","null","<img src=""img/land6.png"" style=""width:200px; border:14px solid green;"">","null","","","","","","",""
"","image-keyboard-response","299","135942","0.0-299.0","3IKZ72A5B525WRO823P13B8SF99FNV","A1NLJ1L4VCQYV2","3T5ZXGO9DEAUILU6S56NLENRQJRQZJ","","603","img/land4.png","74","603","1","1","1","1,0.5,0.5,0.5,1,0.5,0.5,0.5,1","",""
"","html-keyboard-response","300","136245","0.0-300.0","3IKZ72A5B525WRO823P13B8SF99FNV","A1NLJ1L4VCQYV2","3T5ZXGO9DEAUILU6S56NLENRQJRQZJ","","null","<img src=""img/land4.png"" style=""width:200px; border:14px solid green;"">","null","","","","","","",""
"","image-keyboard-response","301","136726","0.0-301.0","3IKZ72A5B525WRO823P13B8SF99FNV","A1NLJ1L4VCQYV2","3T5ZXGO9DEAUILU6S56NLENRQJRQZJ","","482","img/land6.png","76","482","3","1","3","1,0.5,0.5,0.5,1,0.5,0.5,0.5,1","",""
"","html-keyboard-response","302","137029","0.0-302.0","3IKZ72A5B525WRO823P13B8SF99FNV","A1NLJ1L4VCQYV2","3T5ZXGO9DEAUILU6S56NLENRQJRQZJ","","null","<img src=""img/land6.png"" style=""width:200px; border:14px solid green;"">","null","","","","","","",""
"","image-keyboard-response","303","137511","0.0-303.0","3IKZ72A5B525WRO823P13B8SF99FNV","A1NLJ1L4VCQYV2","3T5ZXGO9DEAUILU6S56NLENRQJRQZJ","","482","img/land4.png","74","483","1","1","1","1,0.5,0.5,0.5,1,0.5,0.5,0.5,1","",""
"","html-keyboard-response","304","137815","0.0-304.0","3IKZ72A5B525WRO823P13B8SF99FNV","A1NLJ1L4VCQYV2","3T5ZXGO9DEAUILU6S56NLENRQJRQZJ","","null","<img src=""img/land4.png"" style=""width:200px; border:14px solid green;"">","null","","","","","","",""
"","image-keyboard-response","305","138539","0.0-305.0","3IKZ72A5B525WRO823P13B8SF99FNV","A1NLJ1L4VCQYV2","3T5ZXGO9DEAUILU6S56NLENRQJRQZJ","","723","img/land6.png","76","723","3","1","3","1,0.5,0.5,0.5,1,0.5,0.5,0.5,1","",""
"","html-keyboard-response","306","138844","0.0-306.0","3IKZ72A5B525WRO823P13B8SF99FNV","A1NLJ1L4VCQYV2","3T5ZXGO9DEAUILU6S56NLENRQJRQZJ","","null","<img src=""img/land6.png"" style=""width:200px; border:14px solid green;"">","null","","","","","","",""
"","image-keyboard-response","307","139381","0.0-307.0","3IKZ72A5B525WRO823P13B8SF99FNV","A1NLJ1L4VCQYV2","3T5ZXGO9DEAUILU6S56NLENRQJRQZJ","","537","img/land4.png","74","537","1","1","1","1,0.5,0.5,0.5,1,0.5,0.5,0.5,1","",""
"","html-keyboard-response","308","139690","0.0-308.0","3IKZ72A5B525WRO823P13B8SF99FNV","A1NLJ1L4VCQYV2","3T5ZXGO9DEAUILU6S56NLENRQJRQZJ","","null","<img src=""img/land4.png"" style=""width:200px; border:14px solid green;"">","null","","","","","","",""
"","image-keyboard-response","309","140047","0.0-309.0","3IKZ72A5B525WRO823P13B8SF99FNV","A1NLJ1L4VCQYV2","3T5ZXGO9DEAUILU6S56NLENRQJRQZJ","","356","img/land4.png","74","356","1","1","1","1,0.5,0.5,0.5,1,0.5,0.5,0.5,1","",""
"","html-keyboard-response","310","140351","0.0-310.0","3IKZ72A5B525WRO823P13B8SF99FNV","A1NLJ1L4VCQYV2","3T5ZXGO9DEAUILU6S56NLENRQJRQZJ","","null","<img src=""img/land4.png"" style=""width:200px; border:14px solid green;"">","null","","","","","","",""
"","image-keyboard-response","311","140685","0.0-311.0","3IKZ72A5B525WRO823P13B8SF99FNV","A1NLJ1L4VCQYV2","3T5ZXGO9DEAUILU6S56NLENRQJRQZJ","","332","img/land4.png","74","333","1","1","1","1,0.5,0.5,0.5,1,0.5,0.5,0.5,1","",""
"","html-keyboard-response","312","140996","0.0-312.0","3IKZ72A5B525WRO823P13B8SF99FNV","A1NLJ1L4VCQYV2","3T5ZXGO9DEAUILU6S56NLENRQJRQZJ","","null","<img src=""img/land4.png"" style=""width:200px; border:14px solid green;"">","null","","","","","","",""
"","image-keyboard-response","313","141285","0.0-313.0","3IKZ72A5B525WRO823P13B8SF99FNV","A1NLJ1L4VCQYV2","3T5ZXGO9DEAUILU6S56NLENRQJRQZJ","","289","img/land4.png","74","289","1","1","1","1,0.5,0.5,0.5,1,0.5,0.5,0.5,1","",""
"","html-keyboard-response","314","141595","0.0-314.0","3IKZ72A5B525WRO823P13B8SF99FNV","A1NLJ1L4VCQYV2","3T5ZXGO9DEAUILU6S56NLENRQJRQZJ","","null","<img src=""img/land4.png"" style=""width:200px; border:14px solid green;"">","null","","","","","","",""
"","image-keyboard-response","315","141890","0.0-315.0","3IKZ72A5B525WRO823P13B8SF99FNV","A1NLJ1L4VCQYV2","3T5ZXGO9DEAUILU6S56NLENRQJRQZJ","","295","img/land4.png","74","296","1","1","1","1,0.5,0.5,0.5,1,0.5,0.5,0.5,1","",""
"","html-keyboard-response","316","142194","0.0-316.0","3IKZ72A5B525WRO823P13B8SF99FNV","A1NLJ1L4VCQYV2","3T5ZXGO9DEAUILU6S56NLENRQJRQZJ","","null","<img src=""img/land4.png"" style=""width:200px; border:14px solid green;"">","null","","","","","","",""
"","image-keyboard-response","317","142742","0.0-317.0","3IKZ72A5B525WRO823P13B8SF99FNV","A1NLJ1L4VCQYV2","3T5ZXGO9DEAUILU6S56NLENRQJRQZJ","","548","img/land6.png","76","548","3","1","3","1,0.5,0.5,0.5,1,0.5,0.5,0.5,1","",""
"","html-keyboard-response","318","143055","0.0-318.0","3IKZ72A5B525WRO823P13B8SF99FNV","A1NLJ1L4VCQYV2","3T5ZXGO9DEAUILU6S56NLENRQJRQZJ","","null","<img src=""img/land6.png"" style=""width:200px; border:14px solid green;"">","null","","","","","","",""
"","image-keyboard-response","319","143539","0.0-319.0","3IKZ72A5B525WRO823P13B8SF99FNV","A1NLJ1L4VCQYV2","3T5ZXGO9DEAUILU6S56NLENRQJRQZJ","","483","img/land4.png","74","483","1","1","1","1,0.5,0.5,0.5,1,0.5,0.5,0.5,1","",""
"","html-keyboard-response","320","143840","0.0-320.0","3IKZ72A5B525WRO823P13B8SF99FNV","A1NLJ1L4VCQYV2","3T5ZXGO9DEAUILU6S56NLENRQJRQZJ","","null","<img src=""img/land4.png"" style=""width:200px; border:14px solid green;"">","null","","","","","","",""
"","image-keyboard-response","321","144451","0.0-321.0","3IKZ72A5B525WRO823P13B8SF99FNV","A1NLJ1L4VCQYV2","3T5ZXGO9DEAUILU6S56NLENRQJRQZJ","","612","img/land5.png","75","612","2","1","2","1,0.5,0.5,0.5,1,0.5,0.5,0.5,1","",""
"","html-keyboard-response","322","144761","0.0-322.0","3IKZ72A5B525WRO823P13B8SF99FNV","A1NLJ1L4VCQYV2","3T5ZXGO9DEAUILU6S56NLENRQJRQZJ","","null","<img src=""img/land5.png"" style=""width:200px; border:14px solid green;"">","null","","","","","","",""
"","image-keyboard-response","323","145125","0.0-323.0","3IKZ72A5B525WRO823P13B8SF99FNV","A1NLJ1L4VCQYV2","3T5ZXGO9DEAUILU6S56NLENRQJRQZJ","","364","img/land5.png","75","364","2","1","2","1,0.5,0.5,0.5,1,0.5,0.5,0.5,1","",""
"","html-keyboard-response","324","145437","0.0-324.0","3IKZ72A5B525WRO823P13B8SF99FNV","A1NLJ1L4VCQYV2","3T5ZXGO9DEAUILU6S56NLENRQJRQZJ","","null","<img src=""img/land5.png"" style=""width:200px; border:14px solid green;"">","null","","","","","","",""
"","image-keyboard-response","325","145921","0.0-325.0","3IKZ72A5B525WRO823P13B8SF99FNV","A1NLJ1L4VCQYV2","3T5ZXGO9DEAUILU6S56NLENRQJRQZJ","","485","img/land4.png","74","485","1","1","1","1,0.5,0.5,0.5,1,0.5,0.5,0.5,1","",""
"","html-keyboard-response","326","146252","0.0-326.0","3IKZ72A5B525WRO823P13B8SF99FNV","A1NLJ1L4VCQYV2","3T5ZXGO9DEAUILU6S56NLENRQJRQZJ","","null","<img src=""img/land4.png"" style=""width:200px; border:14px solid green;"">","null","","","","","","",""
"","image-keyboard-response","327","146803","0.0-327.0","3IKZ72A5B525WRO823P13B8SF99FNV","A1NLJ1L4VCQYV2","3T5ZXGO9DEAUILU6S56NLENRQJRQZJ","","550","img/land5.png","76","550","3","0","2","1,0.5,0.5,0.5,1,0.5,0.5,0.5,1","",""
"","html-keyboard-response","328","147113","0.0-328.0","3IKZ72A5B525WRO823P13B8SF99FNV","A1NLJ1L4VCQYV2","3T5ZXGO9DEAUILU6S56NLENRQJRQZJ","","null","<img src=""img/land5.png"" style=""width:200px;border:14px solid red;"">","null","","","","","","",""
"","image-keyboard-response","329","147672","0.0-329.0","3IKZ72A5B525WRO823P13B8SF99FNV","A1NLJ1L4VCQYV2","3T5ZXGO9DEAUILU6S56NLENRQJRQZJ","","559","img/land6.png","74","559","1","1","3","1,0.5,0.5,0.5,1,0.5,0.5,0.5,1","",""
"","html-keyboard-response","330","147974","0.0-330.0","3IKZ72A5B525WRO823P13B8SF99FNV","A1NLJ1L4VCQYV2","3T5ZXGO9DEAUILU6S56NLENRQJRQZJ","","null","<img src=""img/land6.png"" style=""width:200px; border:14px solid green;"">","null","","","","","","",""
"","image-keyboard-response","331","148577","0.0-331.0","3IKZ72A5B525WRO823P13B8SF99FNV","A1NLJ1L4VCQYV2","3T5ZXGO9DEAUILU6S56NLENRQJRQZJ","","602","img/land4.png","74","603","1","1","1","1,0.5,0.5,0.5,1,0.5,0.5,0.5,1","",""
"","html-keyboard-response","332","148883","0.0-332.0","3IKZ72A5B525WRO823P13B8SF99FNV","A1NLJ1L4VCQYV2","3T5ZXGO9DEAUILU6S56NLENRQJRQZJ","","null","<img src=""img/land4.png"" style=""width:200px; border:14px solid green;"">","null","","","","","","",""
"","image-keyboard-response","333","149495","0.0-333.0","3IKZ72A5B525WRO823P13B8SF99FNV","A1NLJ1L4VCQYV2","3T5ZXGO9DEAUILU6S56NLENRQJRQZJ","","613","img/land6.png","76","613","3","1","3","1,0.5,0.5,0.5,1,0.5,0.5,0.5,1","",""
"","html-keyboard-response","334","149804","0.0-334.0","3IKZ72A5B525WRO823P13B8SF99FNV","A1NLJ1L4VCQYV2","3T5ZXGO9DEAUILU6S56NLENRQJRQZJ","","null","<img src=""img/land6.png"" style=""width:200px; border:14px solid green;"">","null","","","","","","",""
"","image-keyboard-response","335","150165","0.0-335.0","3IKZ72A5B525WRO823P13B8SF99FNV","A1NLJ1L4VCQYV2","3T5ZXGO9DEAUILU6S56NLENRQJRQZJ","","362","img/land6.png","76","362","3","1","3","1,0.5,0.5,0.5,1,0.5,0.5,0.5,1","",""
"","html-keyboard-response","336","150479","0.0-336.0","3IKZ72A5B525WRO823P13B8SF99FNV","A1NLJ1L4VCQYV2","3T5ZXGO9DEAUILU6S56NLENRQJRQZJ","","null","<img src=""img/land6.png"" style=""width:200px; border:14px solid green;"">","null","","","","","","",""
"","image-keyboard-response","337","151008","0.0-337.0","3IKZ72A5B525WRO823P13B8SF99FNV","A1NLJ1L4VCQYV2","3T5ZXGO9DEAUILU6S56NLENRQJRQZJ","","528","img/land5.png","74","528","1","0","2","1,0.5,0.5,0.5,1,0.5,0.5,0.5,1","",""
"","html-keyboard-response","338","151310","0.0-338.0","3IKZ72A5B525WRO823P13B8SF99FNV","A1NLJ1L4VCQYV2","3T5ZXGO9DEAUILU6S56NLENRQJRQZJ","","null","<img src=""img/land5.png"" style=""width:200px;border:14px solid red;"">","null","","","","","","",""
"","instructions","339","154627","0.0-339.0","3IKZ72A5B525WRO823P13B8SF99FNV","A1NLJ1L4VCQYV2","3T5ZXGO9DEAUILU6S56NLENRQJRQZJ","[{""page_index"":0,""viewing_time"":3317}]","3317","","","","","","","","",""
"","survey-text","340","158663","0.0-340.0-0.0","3IKZ72A5B525WRO823P13B8SF99FNV","A1NLJ1L4VCQYV2","3T5ZXGO9DEAUILU6S56NLENRQJRQZJ","","4034","","","","","","","","{""Q0"":""41""}",""
"","survey-multi-choice","341","161812","0.0-340.0-1.0","3IKZ72A5B525WRO823P13B8SF99FNV","A1NLJ1L4VCQYV2","3T5ZXGO9DEAUILU6S56NLENRQJRQZJ","","3148","","","","","","","","{""gender"":""M""}","[0]"
"","survey-text","342","170415","0.0-341.0","3IKZ72A5B525WRO823P13B8SF99FNV","A1NLJ1L4VCQYV2","3T5ZXGO9DEAUILU6S56NLENRQJRQZJ","","8602","","","","","","","","{""Q0"":""A1NLJ1L4VCQYV2""}",""
