"success","trial_type","trial_index","time_elapsed","internal_node_id","assignmentID","mturkID","hitID","view_history","rt","stimulus","key_press","reactionTime","a","r","s","cond","reward_cond","reward_cond_actual","reward_matrix_idx","responses","question_order"
"true","fullscreen","0","4796","0.0-0.0","32Z9ZLUT1M67S8FQY8DELLKANI5HOU","A1NNDQL6TSWQZB","3THR0FZ95PF7SK0MYRNAOUHTWDJOLG","","","","","","","","","","","","","",""
"","instructions","1","42540","0.0-1.0","32Z9ZLUT1M67S8FQY8DELLKANI5HOU","A1NNDQL6TSWQZB","3THR0FZ95PF7SK0MYRNAOUHTWDJOLG","[{""page_index"":0,""viewing_time"":2429},{""page_index"":1,""viewing_time"":6423},{""page_index"":2,""viewing_time"":2244},{""page_index"":3,""viewing_time"":5963},{""page_index"":4,""viewing_time"":3730},{""page_index"":5,""viewing_time"":11589},{""page_index"":6,""viewing_time"":5365}]","37743","","","","","","","","","","","",""
"","image-keyboard-response","2","43371","0.0-2.0","32Z9ZLUT1M67S8FQY8DELLKANI5HOU","A1NNDQL6TSWQZB","3THR0FZ95PF7SK0MYRNAOUHTWDJOLG","","828","img/land4.png","75","830","2","1","3","1","0.8,0.2,0.2,0.2,0.8,0.2,0.2,0.2,0.8","0.8,0.2,0.2,0.2,0.8,0.2,0.2,0.2,0.8","1","",""
"","html-keyboard-response","3","43684","0.0-3.0","32Z9ZLUT1M67S8FQY8DELLKANI5HOU","A1NNDQL6TSWQZB","3THR0FZ95PF7SK0MYRNAOUHTWDJOLG","","null","<img src=""img/land4.png"" style=""width:200px; border:14px solid green;"">","null","","","","","","","","","",""
"","image-keyboard-response","4","44667","0.0-4.0","32Z9ZLUT1M67S8FQY8DELLKANI5HOU","A1NNDQL6TSWQZB","3THR0FZ95PF7SK0MYRNAOUHTWDJOLG","","981","img/land6.png","76","982","3","0","1","1","0.8,0.2,0.2,0.2,0.8,0.2,0.2,0.2,0.8","0.8,0.2,0.2,0.2,0.8,0.2,0.2,0.2,0.8","1","",""
"","html-keyboard-response","5","44974","0.0-5.0","32Z9ZLUT1M67S8FQY8DELLKANI5HOU","A1NNDQL6TSWQZB","3THR0FZ95PF7SK0MYRNAOUHTWDJOLG","","null","<img src=""img/land6.png"" style=""width:200px;border:14px solid red;"">","null","","","","","","","","","",""
"","image-keyboard-response","6","45683","0.0-6.0","32Z9ZLUT1M67S8FQY8DELLKANI5HOU","A1NNDQL6TSWQZB","3THR0FZ95PF7SK0MYRNAOUHTWDJOLG","","707","img/land2.png","75","707","2","1","2","1","0.8,0.2,0.2,0.2,0.8,0.2,0.2,0.2,0.8","0.8,0.2,0.2,0.2,0.8,0.2,0.2,0.2,0.8","1","",""
"","html-keyboard-response","7","45998","0.0-7.0","32Z9ZLUT1M67S8FQY8DELLKANI5HOU","A1NNDQL6TSWQZB","3THR0FZ95PF7SK0MYRNAOUHTWDJOLG","","null","<img src=""img/land2.png"" style=""width:200px; border:14px solid green;"">","null","","","","","","","","","",""
"","image-keyboard-response","8","46660","0.0-8.0","32Z9ZLUT1M67S8FQY8DELLKANI5HOU","A1NNDQL6TSWQZB","3THR0FZ95PF7SK0MYRNAOUHTWDJOLG","","660","img/land2.png","75","661","2","1","2","1","0.8,0.2,0.2,0.2,0.8,0.2,0.2,0.2,0.8","0.8,0.2,0.2,0.2,0.8,0.2,0.2,0.2,0.8","1","",""
"","html-keyboard-response","9","46962","0.0-9.0","32Z9ZLUT1M67S8FQY8DELLKANI5HOU","A1NNDQL6TSWQZB","3THR0FZ95PF7SK0MYRNAOUHTWDJOLG","","null","<img src=""img/land2.png"" style=""width:200px; border:14px solid green;"">","null","","","","","","","","","",""
"","image-keyboard-response","10","47683","0.0-10.0","32Z9ZLUT1M67S8FQY8DELLKANI5HOU","A1NNDQL6TSWQZB","3THR0FZ95PF7SK0MYRNAOUHTWDJOLG","","720","img/land6.png","75","721","2","0","1","1","0.8,0.2,0.2,0.2,0.8,0.2,0.2,0.2,0.8","0.8,0.2,0.2,0.2,0.8,0.2,0.2,0.2,0.8","1","",""
"","html-keyboard-response","11","47991","0.0-11.0","32Z9ZLUT1M67S8FQY8DELLKANI5HOU","A1NNDQL6TSWQZB","3THR0FZ95PF7SK0MYRNAOUHTWDJOLG","","null","<img src=""img/land6.png"" style=""width:200px;border:14px solid red;"">","null","","","","","","","","","",""
"","image-keyboard-response","12","48402","0.0-12.0","32Z9ZLUT1M67S8FQY8DELLKANI5HOU","A1NNDQL6TSWQZB","3THR0FZ95PF7SK0MYRNAOUHTWDJOLG","","410","img/land6.png","76","412","3","0","1","1","0.8,0.2,0.2,0.2,0.8,0.2,0.2,0.2,0.8","0.8,0.2,0.2,0.2,0.8,0.2,0.2,0.2,0.8","1","",""
"","html-keyboard-response","13","48710","0.0-13.0","32Z9ZLUT1M67S8FQY8DELLKANI5HOU","A1NNDQL6TSWQZB","3THR0FZ95PF7SK0MYRNAOUHTWDJOLG","","null","<img src=""img/land6.png"" style=""width:200px;border:14px solid red;"">","null","","","","","","","","","",""
"","image-keyboard-response","14","48794","0.0-14.0","32Z9ZLUT1M67S8FQY8DELLKANI5HOU","A1NNDQL6TSWQZB","3THR0FZ95PF7SK0MYRNAOUHTWDJOLG","","83","img/land6.png","74","84","1","1","1","1","0.8,0.2,0.2,0.2,0.8,0.2,0.2,0.2,0.8","0.8,0.2,0.2,0.2,0.8,0.2,0.2,0.2,0.8","1","",""
"","html-keyboard-response","15","49095","0.0-15.0","32Z9ZLUT1M67S8FQY8DELLKANI5HOU","A1NNDQL6TSWQZB","3THR0FZ95PF7SK0MYRNAOUHTWDJOLG","","null","<img src=""img/land6.png"" style=""width:200px; border:14px solid green;"">","null","","","","","","","","","",""
"","image-keyboard-response","16","50538","0.0-16.0","32Z9ZLUT1M67S8FQY8DELLKANI5HOU","A1NNDQL6TSWQZB","3THR0FZ95PF7SK0MYRNAOUHTWDJOLG","","1443","img/land4.png","75","1443","2","0","3","1","0.8,0.2,0.2,0.2,0.8,0.2,0.2,0.2,0.8","0.8,0.2,0.2,0.2,0.8,0.2,0.2,0.2,0.8","1","",""
"","html-keyboard-response","17","50840","0.0-17.0","32Z9ZLUT1M67S8FQY8DELLKANI5HOU","A1NNDQL6TSWQZB","3THR0FZ95PF7SK0MYRNAOUHTWDJOLG","","null","<img src=""img/land4.png"" style=""width:200px;border:14px solid red;"">","null","","","","","","","","","",""
"","image-keyboard-response","18","51018","0.0-18.0","32Z9ZLUT1M67S8FQY8DELLKANI5HOU","A1NNDQL6TSWQZB","3THR0FZ95PF7SK0MYRNAOUHTWDJOLG","","177","img/land4.png","76","178","3","1","3","1","0.8,0.2,0.2,0.2,0.8,0.2,0.2,0.2,0.8","0.8,0.2,0.2,0.2,0.8,0.2,0.2,0.2,0.8","1","",""
"","html-keyboard-response","19","51333","0.0-19.0","32Z9ZLUT1M67S8FQY8DELLKANI5HOU","A1NNDQL6TSWQZB","3THR0FZ95PF7SK0MYRNAOUHTWDJOLG","","null","<img src=""img/land4.png"" style=""width:200px; border:14px solid green;"">","null","","","","","","","","","",""
"","image-keyboard-response","20","52306","0.0-20.0","32Z9ZLUT1M67S8FQY8DELLKANI5HOU","A1NNDQL6TSWQZB","3THR0FZ95PF7SK0MYRNAOUHTWDJOLG","","972","img/land6.png","75","973","2","0","1","1","0.8,0.2,0.2,0.2,0.8,0.2,0.2,0.2,0.8","0.8,0.2,0.2,0.2,0.8,0.2,0.2,0.2,0.8","1","",""
"","html-keyboard-response","21","52608","0.0-21.0","32Z9ZLUT1M67S8FQY8DELLKANI5HOU","A1NNDQL6TSWQZB","3THR0FZ95PF7SK0MYRNAOUHTWDJOLG","","null","<img src=""img/land6.png"" style=""width:200px;border:14px solid red;"">","null","","","","","","","","","",""
"","image-keyboard-response","22","52762","0.0-22.0","32Z9ZLUT1M67S8FQY8DELLKANI5HOU","A1NNDQL6TSWQZB","3THR0FZ95PF7SK0MYRNAOUHTWDJOLG","","154","img/land2.png","74","155","1","0","2","1","0.8,0.2,0.2,0.2,0.8,0.2,0.2,0.2,0.8","0.8,0.2,0.2,0.2,0.8,0.2,0.2,0.2,0.8","1","",""
"","html-keyboard-response","23","53072","0.0-23.0","32Z9ZLUT1M67S8FQY8DELLKANI5HOU","A1NNDQL6TSWQZB","3THR0FZ95PF7SK0MYRNAOUHTWDJOLG","","null","<img src=""img/land2.png"" style=""width:200px;border:14px solid red;"">","null","","","","","","","","","",""
"","image-keyboard-response","24","53561","0.0-24.0","32Z9ZLUT1M67S8FQY8DELLKANI5HOU","A1NNDQL6TSWQZB","3THR0FZ95PF7SK0MYRNAOUHTWDJOLG","","488","img/land2.png","75","490","2","1","2","1","0.8,0.2,0.2,0.2,0.8,0.2,0.2,0.2,0.8","0.8,0.2,0.2,0.2,0.8,0.2,0.2,0.2,0.8","1","",""
"","html-keyboard-response","25","53874","0.0-25.0","32Z9ZLUT1M67S8FQY8DELLKANI5HOU","A1NNDQL6TSWQZB","3THR0FZ95PF7SK0MYRNAOUHTWDJOLG","","null","<img src=""img/land2.png"" style=""width:200px; border:14px solid green;"">","null","","","","","","","","","",""
"","image-keyboard-response","26","54307","0.0-26.0","32Z9ZLUT1M67S8FQY8DELLKANI5HOU","A1NNDQL6TSWQZB","3THR0FZ95PF7SK0MYRNAOUHTWDJOLG","","432","img/land2.png","75","434","2","1","2","1","0.8,0.2,0.2,0.2,0.8,0.2,0.2,0.2,0.8","0.8,0.2,0.2,0.2,0.8,0.2,0.2,0.2,0.8","1","",""
"","html-keyboard-response","27","54612","0.0-27.0","32Z9ZLUT1M67S8FQY8DELLKANI5HOU","A1NNDQL6TSWQZB","3THR0FZ95PF7SK0MYRNAOUHTWDJOLG","","null","<img src=""img/land2.png"" style=""width:200px; border:14px solid green;"">","null","","","","","","","","","",""
"","image-keyboard-response","28","55498","0.0-28.0","32Z9ZLUT1M67S8FQY8DELLKANI5HOU","A1NNDQL6TSWQZB","3THR0FZ95PF7SK0MYRNAOUHTWDJOLG","","886","img/land4.png","74","886","1","1","3","1","0.8,0.2,0.2,0.2,0.8,0.2,0.2,0.2,0.8","0.8,0.2,0.2,0.2,0.8,0.2,0.2,0.2,0.8","1","",""
"","html-keyboard-response","29","55808","0.0-29.0","32Z9ZLUT1M67S8FQY8DELLKANI5HOU","A1NNDQL6TSWQZB","3THR0FZ95PF7SK0MYRNAOUHTWDJOLG","","null","<img src=""img/land4.png"" style=""width:200px; border:14px solid green;"">","null","","","","","","","","","",""
"","image-keyboard-response","30","57099","0.0-30.0","32Z9ZLUT1M67S8FQY8DELLKANI5HOU","A1NNDQL6TSWQZB","3THR0FZ95PF7SK0MYRNAOUHTWDJOLG","","1289","img/land2.png","75","1291","2","1","2","1","0.8,0.2,0.2,0.2,0.8,0.2,0.2,0.2,0.8","0.8,0.2,0.2,0.2,0.8,0.2,0.2,0.2,0.8","1","",""
"","html-keyboard-response","31","57405","0.0-31.0","32Z9ZLUT1M67S8FQY8DELLKANI5HOU","A1NNDQL6TSWQZB","3THR0FZ95PF7SK0MYRNAOUHTWDJOLG","","null","<img src=""img/land2.png"" style=""width:200px; border:14px solid green;"">","null","","","","","","","","","",""
"","image-keyboard-response","32","58057","0.0-32.0","32Z9ZLUT1M67S8FQY8DELLKANI5HOU","A1NNDQL6TSWQZB","3THR0FZ95PF7SK0MYRNAOUHTWDJOLG","","651","img/land6.png","76","653","3","0","1","1","0.8,0.2,0.2,0.2,0.8,0.2,0.2,0.2,0.8","0.8,0.2,0.2,0.2,0.8,0.2,0.2,0.2,0.8","1","",""
"","html-keyboard-response","33","58372","0.0-33.0","32Z9ZLUT1M67S8FQY8DELLKANI5HOU","A1NNDQL6TSWQZB","3THR0FZ95PF7SK0MYRNAOUHTWDJOLG","","null","<img src=""img/land6.png"" style=""width:200px;border:14px solid red;"">","null","","","","","","","","","",""
"","image-keyboard-response","34","59154","0.0-34.0","32Z9ZLUT1M67S8FQY8DELLKANI5HOU","A1NNDQL6TSWQZB","3THR0FZ95PF7SK0MYRNAOUHTWDJOLG","","780","img/land2.png","75","781","2","0","2","1","0.8,0.2,0.2,0.2,0.8,0.2,0.2,0.2,0.8","0.8,0.2,0.2,0.2,0.8,0.2,0.2,0.2,0.8","1","",""
"","html-keyboard-response","35","59460","0.0-35.0","32Z9ZLUT1M67S8FQY8DELLKANI5HOU","A1NNDQL6TSWQZB","3THR0FZ95PF7SK0MYRNAOUHTWDJOLG","","null","<img src=""img/land2.png"" style=""width:200px;border:14px solid red;"">","null","","","","","","","","","",""
"","image-keyboard-response","36","60442","0.0-36.0","32Z9ZLUT1M67S8FQY8DELLKANI5HOU","A1NNDQL6TSWQZB","3THR0FZ95PF7SK0MYRNAOUHTWDJOLG","","982","img/land6.png","74","982","1","1","1","1","0.8,0.2,0.2,0.2,0.8,0.2,0.2,0.2,0.8","0.8,0.2,0.2,0.2,0.8,0.2,0.2,0.2,0.8","1","",""
"","html-keyboard-response","37","60746","0.0-37.0","32Z9ZLUT1M67S8FQY8DELLKANI5HOU","A1NNDQL6TSWQZB","3THR0FZ95PF7SK0MYRNAOUHTWDJOLG","","null","<img src=""img/land6.png"" style=""width:200px; border:14px solid green;"">","null","","","","","","","","","",""
"","image-keyboard-response","38","61225","0.0-38.0","32Z9ZLUT1M67S8FQY8DELLKANI5HOU","A1NNDQL6TSWQZB","3THR0FZ95PF7SK0MYRNAOUHTWDJOLG","","478","img/land6.png","74","479","1","0","1","1","0.8,0.2,0.2,0.2,0.8,0.2,0.2,0.2,0.8","0.8,0.2,0.2,0.2,0.8,0.2,0.2,0.2,0.8","1","",""
"","html-keyboard-response","39","61528","0.0-39.0","32Z9ZLUT1M67S8FQY8DELLKANI5HOU","A1NNDQL6TSWQZB","3THR0FZ95PF7SK0MYRNAOUHTWDJOLG","","null","<img src=""img/land6.png"" style=""width:200px;border:14px solid red;"">","null","","","","","","","","","",""
"","image-keyboard-response","40","61858","0.0-40.0","32Z9ZLUT1M67S8FQY8DELLKANI5HOU","A1NNDQL6TSWQZB","3THR0FZ95PF7SK0MYRNAOUHTWDJOLG","","329","img/land6.png","75","330","2","0","1","1","0.8,0.2,0.2,0.2,0.8,0.2,0.2,0.2,0.8","0.8,0.2,0.2,0.2,0.8,0.2,0.2,0.2,0.8","1","",""
"","html-keyboard-response","41","62171","0.0-41.0","32Z9ZLUT1M67S8FQY8DELLKANI5HOU","A1NNDQL6TSWQZB","3THR0FZ95PF7SK0MYRNAOUHTWDJOLG","","null","<img src=""img/land6.png"" style=""width:200px;border:14px solid red;"">","null","","","","","","","","","",""
"","image-keyboard-response","42","63506","0.0-42.0","32Z9ZLUT1M67S8FQY8DELLKANI5HOU","A1NNDQL6TSWQZB","3THR0FZ95PF7SK0MYRNAOUHTWDJOLG","","1333","img/land4.png","74","1335","1","0","3","1","0.8,0.2,0.2,0.2,0.8,0.2,0.2,0.2,0.8","0.8,0.2,0.2,0.2,0.8,0.2,0.2,0.2,0.8","1","",""
"","html-keyboard-response","43","63809","0.0-43.0","32Z9ZLUT1M67S8FQY8DELLKANI5HOU","A1NNDQL6TSWQZB","3THR0FZ95PF7SK0MYRNAOUHTWDJOLG","","null","<img src=""img/land4.png"" style=""width:200px;border:14px solid red;"">","null","","","","","","","","","",""
"","image-keyboard-response","44","64010","0.0-44.0","32Z9ZLUT1M67S8FQY8DELLKANI5HOU","A1NNDQL6TSWQZB","3THR0FZ95PF7SK0MYRNAOUHTWDJOLG","","199","img/land6.png","75","201","2","1","1","1","0.8,0.2,0.2,0.2,0.8,0.2,0.2,0.2,0.8","0.8,0.2,0.2,0.2,0.8,0.2,0.2,0.2,0.8","1","",""
"","html-keyboard-response","45","64316","0.0-45.0","32Z9ZLUT1M67S8FQY8DELLKANI5HOU","A1NNDQL6TSWQZB","3THR0FZ95PF7SK0MYRNAOUHTWDJOLG","","null","<img src=""img/land6.png"" style=""width:200px; border:14px solid green;"">","null","","","","","","","","","",""
"","image-keyboard-response","46","65370","0.0-46.0","32Z9ZLUT1M67S8FQY8DELLKANI5HOU","A1NNDQL6TSWQZB","3THR0FZ95PF7SK0MYRNAOUHTWDJOLG","","1053","img/land4.png","74","1053","1","0","3","1","0.8,0.2,0.2,0.2,0.8,0.2,0.2,0.2,0.8","0.8,0.2,0.2,0.2,0.8,0.2,0.2,0.2,0.8","1","",""
"","html-keyboard-response","47","65683","0.0-47.0","32Z9ZLUT1M67S8FQY8DELLKANI5HOU","A1NNDQL6TSWQZB","3THR0FZ95PF7SK0MYRNAOUHTWDJOLG","","null","<img src=""img/land4.png"" style=""width:200px;border:14px solid red;"">","null","","","","","","","","","",""
"","image-keyboard-response","48","66842","0.0-48.0","32Z9ZLUT1M67S8FQY8DELLKANI5HOU","A1NNDQL6TSWQZB","3THR0FZ95PF7SK0MYRNAOUHTWDJOLG","","1159","img/land6.png","76","1159","3","0","1","1","0.8,0.2,0.2,0.2,0.8,0.2,0.2,0.2,0.8","0.8,0.2,0.2,0.2,0.8,0.2,0.2,0.2,0.8","1","",""
"","html-keyboard-response","49","67145","0.0-49.0","32Z9ZLUT1M67S8FQY8DELLKANI5HOU","A1NNDQL6TSWQZB","3THR0FZ95PF7SK0MYRNAOUHTWDJOLG","","null","<img src=""img/land6.png"" style=""width:200px;border:14px solid red;"">","null","","","","","","","","","",""
"","image-keyboard-response","50","69002","0.0-50.0","32Z9ZLUT1M67S8FQY8DELLKANI5HOU","A1NNDQL6TSWQZB","3THR0FZ95PF7SK0MYRNAOUHTWDJOLG","","1857","img/land2.png","75","1858","2","1","2","1","0.8,0.2,0.2,0.2,0.8,0.2,0.2,0.2,0.8","0.8,0.2,0.2,0.2,0.8,0.2,0.2,0.2,0.8","1","",""
"","html-keyboard-response","51","69307","0.0-51.0","32Z9ZLUT1M67S8FQY8DELLKANI5HOU","A1NNDQL6TSWQZB","3THR0FZ95PF7SK0MYRNAOUHTWDJOLG","","null","<img src=""img/land2.png"" style=""width:200px; border:14px solid green;"">","null","","","","","","","","","",""
"","image-keyboard-response","52","70466","0.0-52.0","32Z9ZLUT1M67S8FQY8DELLKANI5HOU","A1NNDQL6TSWQZB","3THR0FZ95PF7SK0MYRNAOUHTWDJOLG","","1157","img/land4.png","74","1157","1","0","3","1","0.8,0.2,0.2,0.2,0.8,0.2,0.2,0.2,0.8","0.8,0.2,0.2,0.2,0.8,0.2,0.2,0.2,0.8","1","",""
"","html-keyboard-response","53","70776","0.0-53.0","32Z9ZLUT1M67S8FQY8DELLKANI5HOU","A1NNDQL6TSWQZB","3THR0FZ95PF7SK0MYRNAOUHTWDJOLG","","null","<img src=""img/land4.png"" style=""width:200px;border:14px solid red;"">","null","","","","","","","","","",""
"","image-keyboard-response","54","71986","0.0-54.0","32Z9ZLUT1M67S8FQY8DELLKANI5HOU","A1NNDQL6TSWQZB","3THR0FZ95PF7SK0MYRNAOUHTWDJOLG","","1207","img/land6.png","75","1208","2","0","1","1","0.8,0.2,0.2,0.2,0.8,0.2,0.2,0.2,0.8","0.8,0.2,0.2,0.2,0.8,0.2,0.2,0.2,0.8","1","",""
"","html-keyboard-response","55","72297","0.0-55.0","32Z9ZLUT1M67S8FQY8DELLKANI5HOU","A1NNDQL6TSWQZB","3THR0FZ95PF7SK0MYRNAOUHTWDJOLG","","null","<img src=""img/land6.png"" style=""width:200px;border:14px solid red;"">","null","","","","","","","","","",""
"","image-keyboard-response","56","73082","0.0-56.0","32Z9ZLUT1M67S8FQY8DELLKANI5HOU","A1NNDQL6TSWQZB","3THR0FZ95PF7SK0MYRNAOUHTWDJOLG","","784","img/land4.png","76","784","3","1","3","1","0.8,0.2,0.2,0.2,0.8,0.2,0.2,0.2,0.8","0.8,0.2,0.2,0.2,0.8,0.2,0.2,0.2,0.8","1","",""
"","html-keyboard-response","57","73386","0.0-57.0","32Z9ZLUT1M67S8FQY8DELLKANI5HOU","A1NNDQL6TSWQZB","3THR0FZ95PF7SK0MYRNAOUHTWDJOLG","","null","<img src=""img/land4.png"" style=""width:200px; border:14px solid green;"">","null","","","","","","","","","",""
"","image-keyboard-response","58","74483","0.0-58.0","32Z9ZLUT1M67S8FQY8DELLKANI5HOU","A1NNDQL6TSWQZB","3THR0FZ95PF7SK0MYRNAOUHTWDJOLG","","1096","img/land6.png","75","1097","2","0","1","1","0.8,0.2,0.2,0.2,0.8,0.2,0.2,0.2,0.8","0.8,0.2,0.2,0.2,0.8,0.2,0.2,0.2,0.8","1","",""
"","html-keyboard-response","59","74797","0.0-59.0","32Z9ZLUT1M67S8FQY8DELLKANI5HOU","A1NNDQL6TSWQZB","3THR0FZ95PF7SK0MYRNAOUHTWDJOLG","","null","<img src=""img/land6.png"" style=""width:200px;border:14px solid red;"">","null","","","","","","","","","",""
"","image-keyboard-response","60","75514","0.0-60.0","32Z9ZLUT1M67S8FQY8DELLKANI5HOU","A1NNDQL6TSWQZB","3THR0FZ95PF7SK0MYRNAOUHTWDJOLG","","715","img/land4.png","74","716","1","0","3","1","0.8,0.2,0.2,0.2,0.8,0.2,0.2,0.2,0.8","0.8,0.2,0.2,0.2,0.8,0.2,0.2,0.2,0.8","1","",""
"","html-keyboard-response","61","75824","0.0-61.0","32Z9ZLUT1M67S8FQY8DELLKANI5HOU","A1NNDQL6TSWQZB","3THR0FZ95PF7SK0MYRNAOUHTWDJOLG","","null","<img src=""img/land4.png"" style=""width:200px;border:14px solid red;"">","null","","","","","","","","","",""
"","image-keyboard-response","62","76426","0.0-62.0","32Z9ZLUT1M67S8FQY8DELLKANI5HOU","A1NNDQL6TSWQZB","3THR0FZ95PF7SK0MYRNAOUHTWDJOLG","","601","img/land6.png","75","601","2","0","1","1","0.8,0.2,0.2,0.2,0.8,0.2,0.2,0.2,0.8","0.8,0.2,0.2,0.2,0.8,0.2,0.2,0.2,0.8","1","",""
"","html-keyboard-response","63","76730","0.0-63.0","32Z9ZLUT1M67S8FQY8DELLKANI5HOU","A1NNDQL6TSWQZB","3THR0FZ95PF7SK0MYRNAOUHTWDJOLG","","null","<img src=""img/land6.png"" style=""width:200px;border:14px solid red;"">","null","","","","","","","","","",""
"","image-keyboard-response","64","77442","0.0-64.0","32Z9ZLUT1M67S8FQY8DELLKANI5HOU","A1NNDQL6TSWQZB","3THR0FZ95PF7SK0MYRNAOUHTWDJOLG","","710","img/land4.png","76","711","3","0","3","1","0.8,0.2,0.2,0.2,0.8,0.2,0.2,0.2,0.8","0.8,0.2,0.2,0.2,0.8,0.2,0.2,0.2,0.8","1","",""
"","html-keyboard-response","65","77751","0.0-65.0","32Z9ZLUT1M67S8FQY8DELLKANI5HOU","A1NNDQL6TSWQZB","3THR0FZ95PF7SK0MYRNAOUHTWDJOLG","","null","<img src=""img/land4.png"" style=""width:200px;border:14px solid red;"">","null","","","","","","","","","",""
"","image-keyboard-response","66","79105","0.0-66.0","32Z9ZLUT1M67S8FQY8DELLKANI5HOU","A1NNDQL6TSWQZB","3THR0FZ95PF7SK0MYRNAOUHTWDJOLG","","1354","img/land6.png","75","1355","2","0","1","1","0.8,0.2,0.2,0.2,0.8,0.2,0.2,0.2,0.8","0.8,0.2,0.2,0.2,0.8,0.2,0.2,0.2,0.8","1","",""
"","html-keyboard-response","67","79414","0.0-67.0","32Z9ZLUT1M67S8FQY8DELLKANI5HOU","A1NNDQL6TSWQZB","3THR0FZ95PF7SK0MYRNAOUHTWDJOLG","","null","<img src=""img/land6.png"" style=""width:200px;border:14px solid red;"">","null","","","","","","","","","",""
"","image-keyboard-response","68","80618","0.0-68.0","32Z9ZLUT1M67S8FQY8DELLKANI5HOU","A1NNDQL6TSWQZB","3THR0FZ95PF7SK0MYRNAOUHTWDJOLG","","1203","img/land6.png","74","1203","1","1","1","1","0.8,0.2,0.2,0.2,0.8,0.2,0.2,0.2,0.8","0.8,0.2,0.2,0.2,0.8,0.2,0.2,0.2,0.8","1","",""
"","html-keyboard-response","69","80923","0.0-69.0","32Z9ZLUT1M67S8FQY8DELLKANI5HOU","A1NNDQL6TSWQZB","3THR0FZ95PF7SK0MYRNAOUHTWDJOLG","","null","<img src=""img/land6.png"" style=""width:200px; border:14px solid green;"">","null","","","","","","","","","",""
"","image-keyboard-response","70","82018","0.0-70.0","32Z9ZLUT1M67S8FQY8DELLKANI5HOU","A1NNDQL6TSWQZB","3THR0FZ95PF7SK0MYRNAOUHTWDJOLG","","1094","img/land2.png","74","1094","1","0","2","1","0.8,0.2,0.2,0.2,0.8,0.2,0.2,0.2,0.8","0.8,0.2,0.2,0.2,0.8,0.2,0.2,0.2,0.8","1","",""
"","html-keyboard-response","71","82328","0.0-71.0","32Z9ZLUT1M67S8FQY8DELLKANI5HOU","A1NNDQL6TSWQZB","3THR0FZ95PF7SK0MYRNAOUHTWDJOLG","","null","<img src=""img/land2.png"" style=""width:200px;border:14px solid red;"">","null","","","","","","","","","",""
"","image-keyboard-response","72","83338","0.0-72.0","32Z9ZLUT1M67S8FQY8DELLKANI5HOU","A1NNDQL6TSWQZB","3THR0FZ95PF7SK0MYRNAOUHTWDJOLG","","1010","img/land2.png","76","1010","3","0","2","1","0.8,0.2,0.2,0.2,0.8,0.2,0.2,0.2,0.8","0.8,0.2,0.2,0.2,0.8,0.2,0.2,0.2,0.8","1","",""
"","html-keyboard-response","73","83647","0.0-73.0","32Z9ZLUT1M67S8FQY8DELLKANI5HOU","A1NNDQL6TSWQZB","3THR0FZ95PF7SK0MYRNAOUHTWDJOLG","","null","<img src=""img/land2.png"" style=""width:200px;border:14px solid red;"">","null","","","","","","","","","",""
"","image-keyboard-response","74","83714","0.0-74.0","32Z9ZLUT1M67S8FQY8DELLKANI5HOU","A1NNDQL6TSWQZB","3THR0FZ95PF7SK0MYRNAOUHTWDJOLG","","66","img/land4.png","75","66","2","0","3","1","0.8,0.2,0.2,0.2,0.8,0.2,0.2,0.2,0.8","0.8,0.2,0.2,0.2,0.8,0.2,0.2,0.2,0.8","1","",""
"","html-keyboard-response","75","84029","0.0-75.0","32Z9ZLUT1M67S8FQY8DELLKANI5HOU","A1NNDQL6TSWQZB","3THR0FZ95PF7SK0MYRNAOUHTWDJOLG","","null","<img src=""img/land4.png"" style=""width:200px;border:14px solid red;"">","null","","","","","","","","","",""
"","image-keyboard-response","76","84713","0.0-76.0","32Z9ZLUT1M67S8FQY8DELLKANI5HOU","A1NNDQL6TSWQZB","3THR0FZ95PF7SK0MYRNAOUHTWDJOLG","","683","img/land4.png","74","683","1","0","3","1","0.8,0.2,0.2,0.2,0.8,0.2,0.2,0.2,0.8","0.8,0.2,0.2,0.2,0.8,0.2,0.2,0.2,0.8","1","",""
"","html-keyboard-response","77","85014","0.0-77.0","32Z9ZLUT1M67S8FQY8DELLKANI5HOU","A1NNDQL6TSWQZB","3THR0FZ95PF7SK0MYRNAOUHTWDJOLG","","null","<img src=""img/land4.png"" style=""width:200px;border:14px solid red;"">","null","","","","","","","","","",""
"","image-keyboard-response","78","85242","0.0-78.0","32Z9ZLUT1M67S8FQY8DELLKANI5HOU","A1NNDQL6TSWQZB","3THR0FZ95PF7SK0MYRNAOUHTWDJOLG","","227","img/land2.png","76","227","3","1","2","1","0.8,0.2,0.2,0.2,0.8,0.2,0.2,0.2,0.8","0.8,0.2,0.2,0.2,0.8,0.2,0.2,0.2,0.8","1","",""
"","html-keyboard-response","79","85552","0.0-79.0","32Z9ZLUT1M67S8FQY8DELLKANI5HOU","A1NNDQL6TSWQZB","3THR0FZ95PF7SK0MYRNAOUHTWDJOLG","","null","<img src=""img/land2.png"" style=""width:200px; border:14px solid green;"">","null","","","","","","","","","",""
"","image-keyboard-response","80","86330","0.0-80.0","32Z9ZLUT1M67S8FQY8DELLKANI5HOU","A1NNDQL6TSWQZB","3THR0FZ95PF7SK0MYRNAOUHTWDJOLG","","777","img/land2.png","76","777","3","0","2","1","0.8,0.2,0.2,0.2,0.8,0.2,0.2,0.2,0.8","0.8,0.2,0.2,0.2,0.8,0.2,0.2,0.2,0.8","1","",""
"","html-keyboard-response","81","86638","0.0-81.0","32Z9ZLUT1M67S8FQY8DELLKANI5HOU","A1NNDQL6TSWQZB","3THR0FZ95PF7SK0MYRNAOUHTWDJOLG","","null","<img src=""img/land2.png"" style=""width:200px;border:14px solid red;"">","null","","","","","","","","","",""
"","image-keyboard-response","82","87026","0.0-82.0","32Z9ZLUT1M67S8FQY8DELLKANI5HOU","A1NNDQL6TSWQZB","3THR0FZ95PF7SK0MYRNAOUHTWDJOLG","","387","img/land2.png","75","387","2","0","2","1","0.8,0.2,0.2,0.2,0.8,0.2,0.2,0.2,0.8","0.8,0.2,0.2,0.2,0.8,0.2,0.2,0.2,0.8","1","",""
"","html-keyboard-response","83","87328","0.0-83.0","32Z9ZLUT1M67S8FQY8DELLKANI5HOU","A1NNDQL6TSWQZB","3THR0FZ95PF7SK0MYRNAOUHTWDJOLG","","null","<img src=""img/land2.png"" style=""width:200px;border:14px solid red;"">","null","","","","","","","","","",""
"","image-keyboard-response","84","88466","0.0-84.0","32Z9ZLUT1M67S8FQY8DELLKANI5HOU","A1NNDQL6TSWQZB","3THR0FZ95PF7SK0MYRNAOUHTWDJOLG","","1136","img/land4.png","75","1137","2","1","3","1","0.8,0.2,0.2,0.2,0.8,0.2,0.2,0.2,0.8","0.8,0.2,0.2,0.2,0.8,0.2,0.2,0.2,0.8","1","",""
"","html-keyboard-response","85","88769","0.0-85.0","32Z9ZLUT1M67S8FQY8DELLKANI5HOU","A1NNDQL6TSWQZB","3THR0FZ95PF7SK0MYRNAOUHTWDJOLG","","null","<img src=""img/land4.png"" style=""width:200px; border:14px solid green;"">","null","","","","","","","","","",""
"","image-keyboard-response","86","89898","0.0-86.0","32Z9ZLUT1M67S8FQY8DELLKANI5HOU","A1NNDQL6TSWQZB","3THR0FZ95PF7SK0MYRNAOUHTWDJOLG","","1127","img/land2.png","76","1129","3","0","2","1","0.8,0.2,0.2,0.2,0.8,0.2,0.2,0.2,0.8","0.8,0.2,0.2,0.2,0.8,0.2,0.2,0.2,0.8","1","",""
"","html-keyboard-response","87","90201","0.0-87.0","32Z9ZLUT1M67S8FQY8DELLKANI5HOU","A1NNDQL6TSWQZB","3THR0FZ95PF7SK0MYRNAOUHTWDJOLG","","null","<img src=""img/land2.png"" style=""width:200px;border:14px solid red;"">","null","","","","","","","","","",""
"","image-keyboard-response","88","90738","0.0-88.0","32Z9ZLUT1M67S8FQY8DELLKANI5HOU","A1NNDQL6TSWQZB","3THR0FZ95PF7SK0MYRNAOUHTWDJOLG","","536","img/land2.png","74","537","1","0","2","1","0.8,0.2,0.2,0.2,0.8,0.2,0.2,0.2,0.8","0.8,0.2,0.2,0.2,0.8,0.2,0.2,0.2,0.8","1","",""
"","html-keyboard-response","89","91043","0.0-89.0","32Z9ZLUT1M67S8FQY8DELLKANI5HOU","A1NNDQL6TSWQZB","3THR0FZ95PF7SK0MYRNAOUHTWDJOLG","","null","<img src=""img/land2.png"" style=""width:200px;border:14px solid red;"">","null","","","","","","","","","",""
"","image-keyboard-response","90","92530","0.0-90.0","32Z9ZLUT1M67S8FQY8DELLKANI5HOU","A1NNDQL6TSWQZB","3THR0FZ95PF7SK0MYRNAOUHTWDJOLG","","1486","img/land6.png","76","1486","3","1","1","1","0.8,0.2,0.2,0.2,0.8,0.2,0.2,0.2,0.8","0.8,0.2,0.2,0.2,0.8,0.2,0.2,0.2,0.8","1","",""
"","html-keyboard-response","91","92840","0.0-91.0","32Z9ZLUT1M67S8FQY8DELLKANI5HOU","A1NNDQL6TSWQZB","3THR0FZ95PF7SK0MYRNAOUHTWDJOLG","","null","<img src=""img/land6.png"" style=""width:200px; border:14px solid green;"">","null","","","","","","","","","",""
"","image-keyboard-response","92","93489","0.0-92.0","32Z9ZLUT1M67S8FQY8DELLKANI5HOU","A1NNDQL6TSWQZB","3THR0FZ95PF7SK0MYRNAOUHTWDJOLG","","646","img/land6.png","76","648","3","0","1","1","0.8,0.2,0.2,0.2,0.8,0.2,0.2,0.2,0.8","0.8,0.2,0.2,0.2,0.8,0.2,0.2,0.2,0.8","1","",""
"","html-keyboard-response","93","93790","0.0-93.0","32Z9ZLUT1M67S8FQY8DELLKANI5HOU","A1NNDQL6TSWQZB","3THR0FZ95PF7SK0MYRNAOUHTWDJOLG","","null","<img src=""img/land6.png"" style=""width:200px;border:14px solid red;"">","null","","","","","","","","","",""
"","image-keyboard-response","94","94570","0.0-94.0","32Z9ZLUT1M67S8FQY8DELLKANI5HOU","A1NNDQL6TSWQZB","3THR0FZ95PF7SK0MYRNAOUHTWDJOLG","","779","img/land2.png","75","780","2","1","2","1","0.8,0.2,0.2,0.2,0.8,0.2,0.2,0.2,0.8","0.8,0.2,0.2,0.2,0.8,0.2,0.2,0.2,0.8","1","",""
"","html-keyboard-response","95","94878","0.0-95.0","32Z9ZLUT1M67S8FQY8DELLKANI5HOU","A1NNDQL6TSWQZB","3THR0FZ95PF7SK0MYRNAOUHTWDJOLG","","null","<img src=""img/land2.png"" style=""width:200px; border:14px solid green;"">","null","","","","","","","","","",""
"","image-keyboard-response","96","95594","0.0-96.0","32Z9ZLUT1M67S8FQY8DELLKANI5HOU","A1NNDQL6TSWQZB","3THR0FZ95PF7SK0MYRNAOUHTWDJOLG","","714","img/land6.png","75","716","2","0","1","1","0.8,0.2,0.2,0.2,0.8,0.2,0.2,0.2,0.8","0.8,0.2,0.2,0.2,0.8,0.2,0.2,0.2,0.8","1","",""
"","html-keyboard-response","97","95905","0.0-97.0","32Z9ZLUT1M67S8FQY8DELLKANI5HOU","A1NNDQL6TSWQZB","3THR0FZ95PF7SK0MYRNAOUHTWDJOLG","","null","<img src=""img/land6.png"" style=""width:200px;border:14px solid red;"">","null","","","","","","","","","",""
"","image-keyboard-response","98","96625","0.0-98.0","32Z9ZLUT1M67S8FQY8DELLKANI5HOU","A1NNDQL6TSWQZB","3THR0FZ95PF7SK0MYRNAOUHTWDJOLG","","720","img/land4.png","74","720","1","0","3","1","0.8,0.2,0.2,0.2,0.8,0.2,0.2,0.2,0.8","0.8,0.2,0.2,0.2,0.8,0.2,0.2,0.2,0.8","1","",""
"","html-keyboard-response","99","96937","0.0-99.0","32Z9ZLUT1M67S8FQY8DELLKANI5HOU","A1NNDQL6TSWQZB","3THR0FZ95PF7SK0MYRNAOUHTWDJOLG","","null","<img src=""img/land4.png"" style=""width:200px;border:14px solid red;"">","null","","","","","","","","","",""
"","image-keyboard-response","100","98138","0.0-100.0","32Z9ZLUT1M67S8FQY8DELLKANI5HOU","A1NNDQL6TSWQZB","3THR0FZ95PF7SK0MYRNAOUHTWDJOLG","","1200","img/land4.png","75","1200","2","0","3","1","0.8,0.2,0.2,0.2,0.8,0.2,0.2,0.2,0.8","0.8,0.2,0.2,0.2,0.8,0.2,0.2,0.2,0.8","1","",""
"","html-keyboard-response","101","98440","0.0-101.0","32Z9ZLUT1M67S8FQY8DELLKANI5HOU","A1NNDQL6TSWQZB","3THR0FZ95PF7SK0MYRNAOUHTWDJOLG","","null","<img src=""img/land4.png"" style=""width:200px;border:14px solid red;"">","null","","","","","","","","","",""
"","image-keyboard-response","102","99090","0.0-102.0","32Z9ZLUT1M67S8FQY8DELLKANI5HOU","A1NNDQL6TSWQZB","3THR0FZ95PF7SK0MYRNAOUHTWDJOLG","","647","img/land4.png","76","649","3","1","3","1","0.8,0.2,0.2,0.2,0.8,0.2,0.2,0.2,0.8","0.8,0.2,0.2,0.2,0.8,0.2,0.2,0.2,0.8","1","",""
"","html-keyboard-response","103","99405","0.0-103.0","32Z9ZLUT1M67S8FQY8DELLKANI5HOU","A1NNDQL6TSWQZB","3THR0FZ95PF7SK0MYRNAOUHTWDJOLG","","null","<img src=""img/land4.png"" style=""width:200px; border:14px solid green;"">","null","","","","","","","","","",""
"","image-keyboard-response","104","100002","0.0-104.0","32Z9ZLUT1M67S8FQY8DELLKANI5HOU","A1NNDQL6TSWQZB","3THR0FZ95PF7SK0MYRNAOUHTWDJOLG","","595","img/land4.png","76","597","3","1","3","1","0.8,0.2,0.2,0.2,0.8,0.2,0.2,0.2,0.8","0.8,0.2,0.2,0.2,0.8,0.2,0.2,0.2,0.8","1","",""
"","html-keyboard-response","105","100309","0.0-105.0","32Z9ZLUT1M67S8FQY8DELLKANI5HOU","A1NNDQL6TSWQZB","3THR0FZ95PF7SK0MYRNAOUHTWDJOLG","","null","<img src=""img/land4.png"" style=""width:200px; border:14px solid green;"">","null","","","","","","","","","",""
"","image-keyboard-response","106","101257","0.0-106.0","32Z9ZLUT1M67S8FQY8DELLKANI5HOU","A1NNDQL6TSWQZB","3THR0FZ95PF7SK0MYRNAOUHTWDJOLG","","947","img/land2.png","75","948","2","1","2","1","0.8,0.2,0.2,0.2,0.8,0.2,0.2,0.2,0.8","0.8,0.2,0.2,0.2,0.8,0.2,0.2,0.2,0.8","1","",""
"","html-keyboard-response","107","101566","0.0-107.0","32Z9ZLUT1M67S8FQY8DELLKANI5HOU","A1NNDQL6TSWQZB","3THR0FZ95PF7SK0MYRNAOUHTWDJOLG","","null","<img src=""img/land2.png"" style=""width:200px; border:14px solid green;"">","null","","","","","","","","","",""
"","image-keyboard-response","108","102937","0.0-108.0","32Z9ZLUT1M67S8FQY8DELLKANI5HOU","A1NNDQL6TSWQZB","3THR0FZ95PF7SK0MYRNAOUHTWDJOLG","","1370","img/land4.png","75","1370","2","0","3","1","0.8,0.2,0.2,0.2,0.8,0.2,0.2,0.2,0.8","0.8,0.2,0.2,0.2,0.8,0.2,0.2,0.2,0.8","1","",""
"","html-keyboard-response","109","103246","0.0-109.0","32Z9ZLUT1M67S8FQY8DELLKANI5HOU","A1NNDQL6TSWQZB","3THR0FZ95PF7SK0MYRNAOUHTWDJOLG","","null","<img src=""img/land4.png"" style=""width:200px;border:14px solid red;"">","null","","","","","","","","","",""
"","image-keyboard-response","110","103537","0.0-110.0","32Z9ZLUT1M67S8FQY8DELLKANI5HOU","A1NNDQL6TSWQZB","3THR0FZ95PF7SK0MYRNAOUHTWDJOLG","","290","img/land4.png","74","290","1","1","3","1","0.8,0.2,0.2,0.2,0.8,0.2,0.2,0.2,0.8","0.8,0.2,0.2,0.2,0.8,0.2,0.2,0.2,0.8","1","",""
"","html-keyboard-response","111","103848","0.0-111.0","32Z9ZLUT1M67S8FQY8DELLKANI5HOU","A1NNDQL6TSWQZB","3THR0FZ95PF7SK0MYRNAOUHTWDJOLG","","null","<img src=""img/land4.png"" style=""width:200px; border:14px solid green;"">","null","","","","","","","","","",""
"","image-keyboard-response","112","105154","0.0-112.0","32Z9ZLUT1M67S8FQY8DELLKANI5HOU","A1NNDQL6TSWQZB","3THR0FZ95PF7SK0MYRNAOUHTWDJOLG","","1305","img/land6.png","74","1305","1","0","1","1","0.8,0.2,0.2,0.2,0.8,0.2,0.2,0.2,0.8","0.8,0.2,0.2,0.2,0.8,0.2,0.2,0.2,0.8","1","",""
"","html-keyboard-response","113","105459","0.0-113.0","32Z9ZLUT1M67S8FQY8DELLKANI5HOU","A1NNDQL6TSWQZB","3THR0FZ95PF7SK0MYRNAOUHTWDJOLG","","null","<img src=""img/land6.png"" style=""width:200px;border:14px solid red;"">","null","","","","","","","","","",""
"","image-keyboard-response","114","105640","0.0-114.0","32Z9ZLUT1M67S8FQY8DELLKANI5HOU","A1NNDQL6TSWQZB","3THR0FZ95PF7SK0MYRNAOUHTWDJOLG","","181","img/land6.png","75","181","2","1","1","1","0.8,0.2,0.2,0.2,0.8,0.2,0.2,0.2,0.8","0.8,0.2,0.2,0.2,0.8,0.2,0.2,0.2,0.8","1","",""
"","html-keyboard-response","115","105956","0.0-115.0","32Z9ZLUT1M67S8FQY8DELLKANI5HOU","A1NNDQL6TSWQZB","3THR0FZ95PF7SK0MYRNAOUHTWDJOLG","","null","<img src=""img/land6.png"" style=""width:200px; border:14px solid green;"">","null","","","","","","","","","",""
"","image-keyboard-response","116","106993","0.0-116.0","32Z9ZLUT1M67S8FQY8DELLKANI5HOU","A1NNDQL6TSWQZB","3THR0FZ95PF7SK0MYRNAOUHTWDJOLG","","1036","img/land2.png","74","1037","1","0","2","1","0.8,0.2,0.2,0.2,0.8,0.2,0.2,0.2,0.8","0.8,0.2,0.2,0.2,0.8,0.2,0.2,0.2,0.8","1","",""
"","html-keyboard-response","117","107308","0.0-117.0","32Z9ZLUT1M67S8FQY8DELLKANI5HOU","A1NNDQL6TSWQZB","3THR0FZ95PF7SK0MYRNAOUHTWDJOLG","","null","<img src=""img/land2.png"" style=""width:200px;border:14px solid red;"">","null","","","","","","","","","",""
"","image-keyboard-response","118","107625","0.0-118.0","32Z9ZLUT1M67S8FQY8DELLKANI5HOU","A1NNDQL6TSWQZB","3THR0FZ95PF7SK0MYRNAOUHTWDJOLG","","317","img/land2.png","76","317","3","0","2","1","0.8,0.2,0.2,0.2,0.8,0.2,0.2,0.2,0.8","0.8,0.2,0.2,0.2,0.8,0.2,0.2,0.2,0.8","1","",""
"","html-keyboard-response","119","107938","0.0-119.0","32Z9ZLUT1M67S8FQY8DELLKANI5HOU","A1NNDQL6TSWQZB","3THR0FZ95PF7SK0MYRNAOUHTWDJOLG","","null","<img src=""img/land2.png"" style=""width:200px;border:14px solid red;"">","null","","","","","","","","","",""
"","image-keyboard-response","120","108873","0.0-120.0","32Z9ZLUT1M67S8FQY8DELLKANI5HOU","A1NNDQL6TSWQZB","3THR0FZ95PF7SK0MYRNAOUHTWDJOLG","","934","img/land2.png","75","935","2","1","2","1","0.8,0.2,0.2,0.2,0.8,0.2,0.2,0.2,0.8","0.8,0.2,0.2,0.2,0.8,0.2,0.2,0.2,0.8","1","",""
"","html-keyboard-response","121","109185","0.0-121.0","32Z9ZLUT1M67S8FQY8DELLKANI5HOU","A1NNDQL6TSWQZB","3THR0FZ95PF7SK0MYRNAOUHTWDJOLG","","null","<img src=""img/land2.png"" style=""width:200px; border:14px solid green;"">","null","","","","","","","","","",""
"","image-keyboard-response","122","109585","0.0-122.0","32Z9ZLUT1M67S8FQY8DELLKANI5HOU","A1NNDQL6TSWQZB","3THR0FZ95PF7SK0MYRNAOUHTWDJOLG","","399","img/land2.png","75","400","2","1","2","1","0.8,0.2,0.2,0.2,0.8,0.2,0.2,0.2,0.8","0.8,0.2,0.2,0.2,0.8,0.2,0.2,0.2,0.8","1","",""
"","html-keyboard-response","123","109892","0.0-123.0","32Z9ZLUT1M67S8FQY8DELLKANI5HOU","A1NNDQL6TSWQZB","3THR0FZ95PF7SK0MYRNAOUHTWDJOLG","","null","<img src=""img/land2.png"" style=""width:200px; border:14px solid green;"">","null","","","","","","","","","",""
"","image-keyboard-response","124","110186","0.0-124.0","32Z9ZLUT1M67S8FQY8DELLKANI5HOU","A1NNDQL6TSWQZB","3THR0FZ95PF7SK0MYRNAOUHTWDJOLG","","292","img/land2.png","75","294","2","1","2","1","0.8,0.2,0.2,0.2,0.8,0.2,0.2,0.2,0.8","0.8,0.2,0.2,0.2,0.8,0.2,0.2,0.2,0.8","1","",""
"","html-keyboard-response","125","110490","0.0-125.0","32Z9ZLUT1M67S8FQY8DELLKANI5HOU","A1NNDQL6TSWQZB","3THR0FZ95PF7SK0MYRNAOUHTWDJOLG","","null","<img src=""img/land2.png"" style=""width:200px; border:14px solid green;"">","null","","","","","","","","","",""
"","image-keyboard-response","126","112058","0.0-126.0","32Z9ZLUT1M67S8FQY8DELLKANI5HOU","A1NNDQL6TSWQZB","3THR0FZ95PF7SK0MYRNAOUHTWDJOLG","","1567","img/land6.png","74","1567","1","1","1","1","0.8,0.2,0.2,0.2,0.8,0.2,0.2,0.2,0.8","0.8,0.2,0.2,0.2,0.8,0.2,0.2,0.2,0.8","1","",""
"","html-keyboard-response","127","112362","0.0-127.0","32Z9ZLUT1M67S8FQY8DELLKANI5HOU","A1NNDQL6TSWQZB","3THR0FZ95PF7SK0MYRNAOUHTWDJOLG","","null","<img src=""img/land6.png"" style=""width:200px; border:14px solid green;"">","null","","","","","","","","","",""
"","image-keyboard-response","128","113345","0.0-128.0","32Z9ZLUT1M67S8FQY8DELLKANI5HOU","A1NNDQL6TSWQZB","3THR0FZ95PF7SK0MYRNAOUHTWDJOLG","","982","img/land4.png","76","983","3","1","3","1","0.8,0.2,0.2,0.2,0.8,0.2,0.2,0.2,0.8","0.8,0.2,0.2,0.2,0.8,0.2,0.2,0.2,0.8","1","",""
"","html-keyboard-response","129","113652","0.0-129.0","32Z9ZLUT1M67S8FQY8DELLKANI5HOU","A1NNDQL6TSWQZB","3THR0FZ95PF7SK0MYRNAOUHTWDJOLG","","null","<img src=""img/land4.png"" style=""width:200px; border:14px solid green;"">","null","","","","","","","","","",""
"","image-keyboard-response","130","114145","0.0-130.0","32Z9ZLUT1M67S8FQY8DELLKANI5HOU","A1NNDQL6TSWQZB","3THR0FZ95PF7SK0MYRNAOUHTWDJOLG","","492","img/land4.png","76","492","3","1","3","1","0.8,0.2,0.2,0.2,0.8,0.2,0.2,0.2,0.8","0.8,0.2,0.2,0.2,0.8,0.2,0.2,0.2,0.8","1","",""
"","html-keyboard-response","131","114449","0.0-131.0","32Z9ZLUT1M67S8FQY8DELLKANI5HOU","A1NNDQL6TSWQZB","3THR0FZ95PF7SK0MYRNAOUHTWDJOLG","","null","<img src=""img/land4.png"" style=""width:200px; border:14px solid green;"">","null","","","","","","","","","",""
"","image-keyboard-response","132","115361","0.0-132.0","32Z9ZLUT1M67S8FQY8DELLKANI5HOU","A1NNDQL6TSWQZB","3THR0FZ95PF7SK0MYRNAOUHTWDJOLG","","911","img/land2.png","75","912","2","1","2","1","0.8,0.2,0.2,0.2,0.8,0.2,0.2,0.2,0.8","0.8,0.2,0.2,0.2,0.8,0.2,0.2,0.2,0.8","1","",""
"","html-keyboard-response","133","115675","0.0-133.0","32Z9ZLUT1M67S8FQY8DELLKANI5HOU","A1NNDQL6TSWQZB","3THR0FZ95PF7SK0MYRNAOUHTWDJOLG","","null","<img src=""img/land2.png"" style=""width:200px; border:14px solid green;"">","null","","","","","","","","","",""
"","image-keyboard-response","134","116506","0.0-134.0","32Z9ZLUT1M67S8FQY8DELLKANI5HOU","A1NNDQL6TSWQZB","3THR0FZ95PF7SK0MYRNAOUHTWDJOLG","","829","img/land4.png","74","831","1","0","3","1","0.8,0.2,0.2,0.2,0.8,0.2,0.2,0.2,0.8","0.8,0.2,0.2,0.2,0.8,0.2,0.2,0.2,0.8","1","",""
"","html-keyboard-response","135","116809","0.0-135.0","32Z9ZLUT1M67S8FQY8DELLKANI5HOU","A1NNDQL6TSWQZB","3THR0FZ95PF7SK0MYRNAOUHTWDJOLG","","null","<img src=""img/land4.png"" style=""width:200px;border:14px solid red;"">","null","","","","","","","","","",""
"","image-keyboard-response","136","117655","0.0-136.0","32Z9ZLUT1M67S8FQY8DELLKANI5HOU","A1NNDQL6TSWQZB","3THR0FZ95PF7SK0MYRNAOUHTWDJOLG","","844","img/land6.png","76","846","3","0","1","1","0.8,0.2,0.2,0.2,0.8,0.2,0.2,0.2,0.8","0.8,0.2,0.2,0.2,0.8,0.2,0.2,0.2,0.8","1","",""
"","html-keyboard-response","137","117962","0.0-137.0","32Z9ZLUT1M67S8FQY8DELLKANI5HOU","A1NNDQL6TSWQZB","3THR0FZ95PF7SK0MYRNAOUHTWDJOLG","","null","<img src=""img/land6.png"" style=""width:200px;border:14px solid red;"">","null","","","","","","","","","",""
"","image-keyboard-response","138","118185","0.0-138.0","32Z9ZLUT1M67S8FQY8DELLKANI5HOU","A1NNDQL6TSWQZB","3THR0FZ95PF7SK0MYRNAOUHTWDJOLG","","223","img/land6.png","75","223","2","0","1","1","0.8,0.2,0.2,0.2,0.8,0.2,0.2,0.2,0.8","0.8,0.2,0.2,0.2,0.8,0.2,0.2,0.2,0.8","1","",""
"","html-keyboard-response","139","118501","0.0-139.0","32Z9ZLUT1M67S8FQY8DELLKANI5HOU","A1NNDQL6TSWQZB","3THR0FZ95PF7SK0MYRNAOUHTWDJOLG","","null","<img src=""img/land6.png"" style=""width:200px;border:14px solid red;"">","null","","","","","","","","","",""
"","image-keyboard-response","140","118705","0.0-140.0","32Z9ZLUT1M67S8FQY8DELLKANI5HOU","A1NNDQL6TSWQZB","3THR0FZ95PF7SK0MYRNAOUHTWDJOLG","","204","img/land4.png","74","204","1","0","3","1","0.8,0.2,0.2,0.2,0.8,0.2,0.2,0.2,0.8","0.8,0.2,0.2,0.2,0.8,0.2,0.2,0.2,0.8","1","",""
"","html-keyboard-response","141","119008","0.0-141.0","32Z9ZLUT1M67S8FQY8DELLKANI5HOU","A1NNDQL6TSWQZB","3THR0FZ95PF7SK0MYRNAOUHTWDJOLG","","null","<img src=""img/land4.png"" style=""width:200px;border:14px solid red;"">","null","","","","","","","","","",""
"","image-keyboard-response","142","119841","0.0-142.0","32Z9ZLUT1M67S8FQY8DELLKANI5HOU","A1NNDQL6TSWQZB","3THR0FZ95PF7SK0MYRNAOUHTWDJOLG","","832","img/land2.png","75","833","2","1","2","1","0.8,0.2,0.2,0.2,0.8,0.2,0.2,0.2,0.8","0.8,0.2,0.2,0.2,0.8,0.2,0.2,0.2,0.8","1","",""
"","html-keyboard-response","143","120160","0.0-143.0","32Z9ZLUT1M67S8FQY8DELLKANI5HOU","A1NNDQL6TSWQZB","3THR0FZ95PF7SK0MYRNAOUHTWDJOLG","","null","<img src=""img/land2.png"" style=""width:200px; border:14px solid green;"">","null","","","","","","","","","",""
"","image-keyboard-response","144","121457","0.0-144.0","32Z9ZLUT1M67S8FQY8DELLKANI5HOU","A1NNDQL6TSWQZB","3THR0FZ95PF7SK0MYRNAOUHTWDJOLG","","1296","img/land4.png","74","1296","1","0","3","1","0.8,0.2,0.2,0.2,0.8,0.2,0.2,0.2,0.8","0.8,0.2,0.2,0.2,0.8,0.2,0.2,0.2,0.8","1","",""
"","html-keyboard-response","145","121769","0.0-145.0","32Z9ZLUT1M67S8FQY8DELLKANI5HOU","A1NNDQL6TSWQZB","3THR0FZ95PF7SK0MYRNAOUHTWDJOLG","","null","<img src=""img/land4.png"" style=""width:200px;border:14px solid red;"">","null","","","","","","","","","",""
"","image-keyboard-response","146","122082","0.0-146.0","32Z9ZLUT1M67S8FQY8DELLKANI5HOU","A1NNDQL6TSWQZB","3THR0FZ95PF7SK0MYRNAOUHTWDJOLG","","312","img/land4.png","76","313","3","1","3","1","0.8,0.2,0.2,0.2,0.8,0.2,0.2,0.2,0.8","0.8,0.2,0.2,0.2,0.8,0.2,0.2,0.2,0.8","1","",""
"","html-keyboard-response","147","122395","0.0-147.0","32Z9ZLUT1M67S8FQY8DELLKANI5HOU","A1NNDQL6TSWQZB","3THR0FZ95PF7SK0MYRNAOUHTWDJOLG","","null","<img src=""img/land4.png"" style=""width:200px; border:14px solid green;"">","null","","","","","","","","","",""
"","image-keyboard-response","148","122882","0.0-148.0","32Z9ZLUT1M67S8FQY8DELLKANI5HOU","A1NNDQL6TSWQZB","3THR0FZ95PF7SK0MYRNAOUHTWDJOLG","","485","img/land4.png","76","485","3","0","3","1","0.8,0.2,0.2,0.2,0.8,0.2,0.2,0.2,0.8","0.8,0.2,0.2,0.2,0.8,0.2,0.2,0.2,0.8","1","",""
"","html-keyboard-response","149","123195","0.0-149.0","32Z9ZLUT1M67S8FQY8DELLKANI5HOU","A1NNDQL6TSWQZB","3THR0FZ95PF7SK0MYRNAOUHTWDJOLG","","null","<img src=""img/land4.png"" style=""width:200px;border:14px solid red;"">","null","","","","","","","","","",""
"","image-keyboard-response","150","123690","0.0-150.0","32Z9ZLUT1M67S8FQY8DELLKANI5HOU","A1NNDQL6TSWQZB","3THR0FZ95PF7SK0MYRNAOUHTWDJOLG","","493","img/land4.png","75","494","2","0","3","1","0.8,0.2,0.2,0.2,0.8,0.2,0.2,0.2,0.8","0.8,0.2,0.2,0.2,0.8,0.2,0.2,0.2,0.8","1","",""
"","html-keyboard-response","151","123992","0.0-151.0","32Z9ZLUT1M67S8FQY8DELLKANI5HOU","A1NNDQL6TSWQZB","3THR0FZ95PF7SK0MYRNAOUHTWDJOLG","","null","<img src=""img/land4.png"" style=""width:200px;border:14px solid red;"">","null","","","","","","","","","",""
"","image-keyboard-response","152","124841","0.0-152.0","32Z9ZLUT1M67S8FQY8DELLKANI5HOU","A1NNDQL6TSWQZB","3THR0FZ95PF7SK0MYRNAOUHTWDJOLG","","849","img/land2.png","75","849","2","0","2","1","0.8,0.2,0.2,0.2,0.8,0.2,0.2,0.2,0.8","0.8,0.2,0.2,0.2,0.8,0.2,0.2,0.2,0.8","1","",""
"","html-keyboard-response","153","125146","0.0-153.0","32Z9ZLUT1M67S8FQY8DELLKANI5HOU","A1NNDQL6TSWQZB","3THR0FZ95PF7SK0MYRNAOUHTWDJOLG","","null","<img src=""img/land2.png"" style=""width:200px;border:14px solid red;"">","null","","","","","","","","","",""
"","image-keyboard-response","154","125337","0.0-154.0","32Z9ZLUT1M67S8FQY8DELLKANI5HOU","A1NNDQL6TSWQZB","3THR0FZ95PF7SK0MYRNAOUHTWDJOLG","","190","img/land2.png","74","190","1","0","2","1","0.8,0.2,0.2,0.2,0.8,0.2,0.2,0.2,0.8","0.8,0.2,0.2,0.2,0.8,0.2,0.2,0.2,0.8","1","",""
"","html-keyboard-response","155","125638","0.0-155.0","32Z9ZLUT1M67S8FQY8DELLKANI5HOU","A1NNDQL6TSWQZB","3THR0FZ95PF7SK0MYRNAOUHTWDJOLG","","null","<img src=""img/land2.png"" style=""width:200px;border:14px solid red;"">","null","","","","","","","","","",""
"","image-keyboard-response","156","126201","0.0-156.0","32Z9ZLUT1M67S8FQY8DELLKANI5HOU","A1NNDQL6TSWQZB","3THR0FZ95PF7SK0MYRNAOUHTWDJOLG","","561","img/land4.png","76","562","3","1","3","1","0.8,0.2,0.2,0.2,0.8,0.2,0.2,0.2,0.8","0.8,0.2,0.2,0.2,0.8,0.2,0.2,0.2,0.8","1","",""
"","html-keyboard-response","157","126513","0.0-157.0","32Z9ZLUT1M67S8FQY8DELLKANI5HOU","A1NNDQL6TSWQZB","3THR0FZ95PF7SK0MYRNAOUHTWDJOLG","","null","<img src=""img/land4.png"" style=""width:200px; border:14px solid green;"">","null","","","","","","","","","",""
"","image-keyboard-response","158","127554","0.0-158.0","32Z9ZLUT1M67S8FQY8DELLKANI5HOU","A1NNDQL6TSWQZB","3THR0FZ95PF7SK0MYRNAOUHTWDJOLG","","1040","img/land2.png","76","1040","3","0","2","1","0.8,0.2,0.2,0.2,0.8,0.2,0.2,0.2,0.8","0.8,0.2,0.2,0.2,0.8,0.2,0.2,0.2,0.8","1","",""
"","html-keyboard-response","159","127856","0.0-159.0","32Z9ZLUT1M67S8FQY8DELLKANI5HOU","A1NNDQL6TSWQZB","3THR0FZ95PF7SK0MYRNAOUHTWDJOLG","","null","<img src=""img/land2.png"" style=""width:200px;border:14px solid red;"">","null","","","","","","","","","",""
"","image-keyboard-response","160","128952","0.0-160.0","32Z9ZLUT1M67S8FQY8DELLKANI5HOU","A1NNDQL6TSWQZB","3THR0FZ95PF7SK0MYRNAOUHTWDJOLG","","1096","img/land2.png","75","1096","2","1","2","1","0.8,0.2,0.2,0.2,0.8,0.2,0.2,0.2,0.8","0.8,0.2,0.2,0.2,0.8,0.2,0.2,0.2,0.8","1","",""
"","html-keyboard-response","161","129267","0.0-161.0","32Z9ZLUT1M67S8FQY8DELLKANI5HOU","A1NNDQL6TSWQZB","3THR0FZ95PF7SK0MYRNAOUHTWDJOLG","","null","<img src=""img/land2.png"" style=""width:200px; border:14px solid green;"">","null","","","","","","","","","",""
"","image-keyboard-response","162","130529","0.0-162.0","32Z9ZLUT1M67S8FQY8DELLKANI5HOU","A1NNDQL6TSWQZB","3THR0FZ95PF7SK0MYRNAOUHTWDJOLG","","1261","img/land6.png","76","1261","3","0","1","1","0.8,0.2,0.2,0.2,0.8,0.2,0.2,0.2,0.8","0.8,0.2,0.2,0.2,0.8,0.2,0.2,0.2,0.8","1","",""
"","html-keyboard-response","163","130834","0.0-163.0","32Z9ZLUT1M67S8FQY8DELLKANI5HOU","A1NNDQL6TSWQZB","3THR0FZ95PF7SK0MYRNAOUHTWDJOLG","","null","<img src=""img/land6.png"" style=""width:200px;border:14px solid red;"">","null","","","","","","","","","",""
"","image-keyboard-response","164","131113","0.0-164.0","32Z9ZLUT1M67S8FQY8DELLKANI5HOU","A1NNDQL6TSWQZB","3THR0FZ95PF7SK0MYRNAOUHTWDJOLG","","279","img/land4.png","74","279","1","0","3","1","0.8,0.2,0.2,0.2,0.8,0.2,0.2,0.2,0.8","0.8,0.2,0.2,0.2,0.8,0.2,0.2,0.2,0.8","1","",""
"","html-keyboard-response","165","131421","0.0-165.0","32Z9ZLUT1M67S8FQY8DELLKANI5HOU","A1NNDQL6TSWQZB","3THR0FZ95PF7SK0MYRNAOUHTWDJOLG","","null","<img src=""img/land4.png"" style=""width:200px;border:14px solid red;"">","null","","","","","","","","","",""
"","image-keyboard-response","166","132226","0.0-166.0","32Z9ZLUT1M67S8FQY8DELLKANI5HOU","A1NNDQL6TSWQZB","3THR0FZ95PF7SK0MYRNAOUHTWDJOLG","","804","img/land2.png","75","805","2","1","2","1","0.8,0.2,0.2,0.2,0.8,0.2,0.2,0.2,0.8","0.8,0.2,0.2,0.2,0.8,0.2,0.2,0.2,0.8","1","",""
"","html-keyboard-response","167","132542","0.0-167.0","32Z9ZLUT1M67S8FQY8DELLKANI5HOU","A1NNDQL6TSWQZB","3THR0FZ95PF7SK0MYRNAOUHTWDJOLG","","null","<img src=""img/land2.png"" style=""width:200px; border:14px solid green;"">","null","","","","","","","","","",""
"","image-keyboard-response","168","133768","0.0-168.0","32Z9ZLUT1M67S8FQY8DELLKANI5HOU","A1NNDQL6TSWQZB","3THR0FZ95PF7SK0MYRNAOUHTWDJOLG","","1225","img/land6.png","75","1226","2","0","1","1","0.8,0.2,0.2,0.2,0.8,0.2,0.2,0.2,0.8","0.8,0.2,0.2,0.2,0.8,0.2,0.2,0.2,0.8","1","",""
"","html-keyboard-response","169","134076","0.0-169.0","32Z9ZLUT1M67S8FQY8DELLKANI5HOU","A1NNDQL6TSWQZB","3THR0FZ95PF7SK0MYRNAOUHTWDJOLG","","null","<img src=""img/land6.png"" style=""width:200px;border:14px solid red;"">","null","","","","","","","","","",""
"","image-keyboard-response","170","136088","0.0-170.0","32Z9ZLUT1M67S8FQY8DELLKANI5HOU","A1NNDQL6TSWQZB","3THR0FZ95PF7SK0MYRNAOUHTWDJOLG","","","img/land4.png","","2012","-1","0","3","1","0.8,0.2,0.2,0.2,0.8,0.2,0.2,0.2,0.8","0.8,0.2,0.2,0.2,0.8,0.2,0.2,0.2,0.8","1","",""
"","html-keyboard-response","171","136398","0.0-171.0","32Z9ZLUT1M67S8FQY8DELLKANI5HOU","A1NNDQL6TSWQZB","3THR0FZ95PF7SK0MYRNAOUHTWDJOLG","","null","<img src=""img/land4.png"" style=""width:200px;border:14px solid red;"">","null","","","","","","","","","",""
"","image-keyboard-response","172","137450","0.0-172.0","32Z9ZLUT1M67S8FQY8DELLKANI5HOU","A1NNDQL6TSWQZB","3THR0FZ95PF7SK0MYRNAOUHTWDJOLG","","1050","img/land6.png","75","1052","2","0","1","1","0.8,0.2,0.2,0.2,0.8,0.2,0.2,0.2,0.8","0.8,0.2,0.2,0.2,0.8,0.2,0.2,0.2,0.8","1","",""
"","html-keyboard-response","173","137759","0.0-173.0","32Z9ZLUT1M67S8FQY8DELLKANI5HOU","A1NNDQL6TSWQZB","3THR0FZ95PF7SK0MYRNAOUHTWDJOLG","","null","<img src=""img/land6.png"" style=""width:200px;border:14px solid red;"">","null","","","","","","","","","",""
"","image-keyboard-response","174","138177","0.0-174.0","32Z9ZLUT1M67S8FQY8DELLKANI5HOU","A1NNDQL6TSWQZB","3THR0FZ95PF7SK0MYRNAOUHTWDJOLG","","418","img/land2.png","76","419","3","0","2","1","0.8,0.2,0.2,0.2,0.8,0.2,0.2,0.2,0.8","0.8,0.2,0.2,0.2,0.8,0.2,0.2,0.2,0.8","1","",""
"","html-keyboard-response","175","138480","0.0-175.0","32Z9ZLUT1M67S8FQY8DELLKANI5HOU","A1NNDQL6TSWQZB","3THR0FZ95PF7SK0MYRNAOUHTWDJOLG","","null","<img src=""img/land2.png"" style=""width:200px;border:14px solid red;"">","null","","","","","","","","","",""
"","image-keyboard-response","176","138921","0.0-176.0","32Z9ZLUT1M67S8FQY8DELLKANI5HOU","A1NNDQL6TSWQZB","3THR0FZ95PF7SK0MYRNAOUHTWDJOLG","","440","img/land6.png","74","440","1","0","1","1","0.8,0.2,0.2,0.2,0.8,0.2,0.2,0.2,0.8","0.8,0.2,0.2,0.2,0.8,0.2,0.2,0.2,0.8","1","",""
"","html-keyboard-response","177","139232","0.0-177.0","32Z9ZLUT1M67S8FQY8DELLKANI5HOU","A1NNDQL6TSWQZB","3THR0FZ95PF7SK0MYRNAOUHTWDJOLG","","null","<img src=""img/land6.png"" style=""width:200px;border:14px solid red;"">","null","","","","","","","","","",""
"","image-keyboard-response","178","139905","0.0-178.0","32Z9ZLUT1M67S8FQY8DELLKANI5HOU","A1NNDQL6TSWQZB","3THR0FZ95PF7SK0MYRNAOUHTWDJOLG","","672","img/land6.png","75","674","2","0","1","1","0.8,0.2,0.2,0.2,0.8,0.2,0.2,0.2,0.8","0.8,0.2,0.2,0.2,0.8,0.2,0.2,0.2,0.8","1","",""
"","html-keyboard-response","179","140215","0.0-179.0","32Z9ZLUT1M67S8FQY8DELLKANI5HOU","A1NNDQL6TSWQZB","3THR0FZ95PF7SK0MYRNAOUHTWDJOLG","","null","<img src=""img/land6.png"" style=""width:200px;border:14px solid red;"">","null","","","","","","","","","",""
"","image-keyboard-response","180","141034","0.0-180.0","32Z9ZLUT1M67S8FQY8DELLKANI5HOU","A1NNDQL6TSWQZB","3THR0FZ95PF7SK0MYRNAOUHTWDJOLG","","817","img/land6.png","76","817","3","0","1","1","0.8,0.2,0.2,0.2,0.8,0.2,0.2,0.2,0.8","0.8,0.2,0.2,0.2,0.8,0.2,0.2,0.2,0.8","1","",""
"","html-keyboard-response","181","141348","0.0-181.0","32Z9ZLUT1M67S8FQY8DELLKANI5HOU","A1NNDQL6TSWQZB","3THR0FZ95PF7SK0MYRNAOUHTWDJOLG","","null","<img src=""img/land6.png"" style=""width:200px;border:14px solid red;"">","null","","","","","","","","","",""
"","html-keyboard-response","182","149205","0.0-182.0","32Z9ZLUT1M67S8FQY8DELLKANI5HOU","A1NNDQL6TSWQZB","3THR0FZ95PF7SK0MYRNAOUHTWDJOLG","","","","","","","","","","","","","",""
"","image-keyboard-response","183","150113","0.0-183.0","32Z9ZLUT1M67S8FQY8DELLKANI5HOU","A1NNDQL6TSWQZB","3THR0FZ95PF7SK0MYRNAOUHTWDJOLG","","906","img/land1.png","75","907","2","0","1","2","0.8,0.2,0.2,0.2,0.8,0.2,0.2,0.2,0.8","0.2,0.2,0.8,0.8,0.2,0.2,0.2,0.8,0.2","2","",""
"","html-keyboard-response","184","150425","0.0-184.0","32Z9ZLUT1M67S8FQY8DELLKANI5HOU","A1NNDQL6TSWQZB","3THR0FZ95PF7SK0MYRNAOUHTWDJOLG","","null","<img src=""img/land1.png"" style=""width:200px;border:14px solid red;"">","null","","","","","","","","","",""
"","image-keyboard-response","185","151136","0.0-185.0","32Z9ZLUT1M67S8FQY8DELLKANI5HOU","A1NNDQL6TSWQZB","3THR0FZ95PF7SK0MYRNAOUHTWDJOLG","","710","img/land3.png","76","711","3","0","3","2","0.8,0.2,0.2,0.2,0.8,0.2,0.2,0.2,0.8","0.2,0.2,0.8,0.8,0.2,0.2,0.2,0.8,0.2","2","",""
"","html-keyboard-response","186","151444","0.0-186.0","32Z9ZLUT1M67S8FQY8DELLKANI5HOU","A1NNDQL6TSWQZB","3THR0FZ95PF7SK0MYRNAOUHTWDJOLG","","null","<img src=""img/land3.png"" style=""width:200px;border:14px solid red;"">","null","","","","","","","","","",""
"","image-keyboard-response","187","152800","0.0-187.0","32Z9ZLUT1M67S8FQY8DELLKANI5HOU","A1NNDQL6TSWQZB","3THR0FZ95PF7SK0MYRNAOUHTWDJOLG","","1355","img/land1.png","75","1356","2","0","1","2","0.8,0.2,0.2,0.2,0.8,0.2,0.2,0.2,0.8","0.2,0.2,0.8,0.8,0.2,0.2,0.2,0.8,0.2","2","",""
"","html-keyboard-response","188","153106","0.0-188.0","32Z9ZLUT1M67S8FQY8DELLKANI5HOU","A1NNDQL6TSWQZB","3THR0FZ95PF7SK0MYRNAOUHTWDJOLG","","null","<img src=""img/land1.png"" style=""width:200px;border:14px solid red;"">","null","","","","","","","","","",""
"","image-keyboard-response","189","153569","0.0-189.0","32Z9ZLUT1M67S8FQY8DELLKANI5HOU","A1NNDQL6TSWQZB","3THR0FZ95PF7SK0MYRNAOUHTWDJOLG","","462","img/land1.png","74","463","1","0","1","2","0.8,0.2,0.2,0.2,0.8,0.2,0.2,0.2,0.8","0.2,0.2,0.8,0.8,0.2,0.2,0.2,0.8,0.2","2","",""
"","html-keyboard-response","190","153873","0.0-190.0","32Z9ZLUT1M67S8FQY8DELLKANI5HOU","A1NNDQL6TSWQZB","3THR0FZ95PF7SK0MYRNAOUHTWDJOLG","","null","<img src=""img/land1.png"" style=""width:200px;border:14px solid red;"">","null","","","","","","","","","",""
"","image-keyboard-response","191","154241","0.0-191.0","32Z9ZLUT1M67S8FQY8DELLKANI5HOU","A1NNDQL6TSWQZB","3THR0FZ95PF7SK0MYRNAOUHTWDJOLG","","366","img/land1.png","74","367","1","0","1","2","0.8,0.2,0.2,0.2,0.8,0.2,0.2,0.2,0.8","0.2,0.2,0.8,0.8,0.2,0.2,0.2,0.8,0.2","2","",""
"","html-keyboard-response","192","154550","0.0-192.0","32Z9ZLUT1M67S8FQY8DELLKANI5HOU","A1NNDQL6TSWQZB","3THR0FZ95PF7SK0MYRNAOUHTWDJOLG","","null","<img src=""img/land1.png"" style=""width:200px;border:14px solid red;"">","null","","","","","","","","","",""
"","image-keyboard-response","193","154856","0.0-193.0","32Z9ZLUT1M67S8FQY8DELLKANI5HOU","A1NNDQL6TSWQZB","3THR0FZ95PF7SK0MYRNAOUHTWDJOLG","","305","img/land1.png","76","306","3","0","1","2","0.8,0.2,0.2,0.2,0.8,0.2,0.2,0.2,0.8","0.2,0.2,0.8,0.8,0.2,0.2,0.2,0.8,0.2","2","",""
"","html-keyboard-response","194","155160","0.0-194.0","32Z9ZLUT1M67S8FQY8DELLKANI5HOU","A1NNDQL6TSWQZB","3THR0FZ95PF7SK0MYRNAOUHTWDJOLG","","null","<img src=""img/land1.png"" style=""width:200px;border:14px solid red;"">","null","","","","","","","","","",""
"","image-keyboard-response","195","155480","0.0-195.0","32Z9ZLUT1M67S8FQY8DELLKANI5HOU","A1NNDQL6TSWQZB","3THR0FZ95PF7SK0MYRNAOUHTWDJOLG","","320","img/land1.png","75","320","2","0","1","2","0.8,0.2,0.2,0.2,0.8,0.2,0.2,0.2,0.8","0.2,0.2,0.8,0.8,0.2,0.2,0.2,0.8,0.2","2","",""
"","html-keyboard-response","196","155788","0.0-196.0","32Z9ZLUT1M67S8FQY8DELLKANI5HOU","A1NNDQL6TSWQZB","3THR0FZ95PF7SK0MYRNAOUHTWDJOLG","","null","<img src=""img/land1.png"" style=""width:200px;border:14px solid red;"">","null","","","","","","","","","",""
"","image-keyboard-response","197","156505","0.0-197.0","32Z9ZLUT1M67S8FQY8DELLKANI5HOU","A1NNDQL6TSWQZB","3THR0FZ95PF7SK0MYRNAOUHTWDJOLG","","716","img/land1.png","75","717","2","1","1","2","0.8,0.2,0.2,0.2,0.8,0.2,0.2,0.2,0.8","0.2,0.2,0.8,0.8,0.2,0.2,0.2,0.8,0.2","2","",""
"","html-keyboard-response","198","156818","0.0-198.0","32Z9ZLUT1M67S8FQY8DELLKANI5HOU","A1NNDQL6TSWQZB","3THR0FZ95PF7SK0MYRNAOUHTWDJOLG","","null","<img src=""img/land1.png"" style=""width:200px; border:14px solid green;"">","null","","","","","","","","","",""
"","image-keyboard-response","199","157441","0.0-199.0","32Z9ZLUT1M67S8FQY8DELLKANI5HOU","A1NNDQL6TSWQZB","3THR0FZ95PF7SK0MYRNAOUHTWDJOLG","","622","img/land1.png","75","624","2","0","1","2","0.8,0.2,0.2,0.2,0.8,0.2,0.2,0.2,0.8","0.2,0.2,0.8,0.8,0.2,0.2,0.2,0.8,0.2","2","",""
"","html-keyboard-response","200","157756","0.0-200.0","32Z9ZLUT1M67S8FQY8DELLKANI5HOU","A1NNDQL6TSWQZB","3THR0FZ95PF7SK0MYRNAOUHTWDJOLG","","null","<img src=""img/land1.png"" style=""width:200px;border:14px solid red;"">","null","","","","","","","","","",""
"","image-keyboard-response","201","158343","0.0-201.0","32Z9ZLUT1M67S8FQY8DELLKANI5HOU","A1NNDQL6TSWQZB","3THR0FZ95PF7SK0MYRNAOUHTWDJOLG","","587","img/land1.png","75","588","2","0","1","2","0.8,0.2,0.2,0.2,0.8,0.2,0.2,0.2,0.8","0.2,0.2,0.8,0.8,0.2,0.2,0.2,0.8,0.2","2","",""
"","html-keyboard-response","202","158656","0.0-202.0","32Z9ZLUT1M67S8FQY8DELLKANI5HOU","A1NNDQL6TSWQZB","3THR0FZ95PF7SK0MYRNAOUHTWDJOLG","","null","<img src=""img/land1.png"" style=""width:200px;border:14px solid red;"">","null","","","","","","","","","",""
"","image-keyboard-response","203","160320","0.0-203.0","32Z9ZLUT1M67S8FQY8DELLKANI5HOU","A1NNDQL6TSWQZB","3THR0FZ95PF7SK0MYRNAOUHTWDJOLG","","1663","img/land3.png","74","1663","1","0","3","2","0.8,0.2,0.2,0.2,0.8,0.2,0.2,0.2,0.8","0.2,0.2,0.8,0.8,0.2,0.2,0.2,0.8,0.2","2","",""
"","html-keyboard-response","204","160621","0.0-204.0","32Z9ZLUT1M67S8FQY8DELLKANI5HOU","A1NNDQL6TSWQZB","3THR0FZ95PF7SK0MYRNAOUHTWDJOLG","","null","<img src=""img/land3.png"" style=""width:200px;border:14px solid red;"">","null","","","","","","","","","",""
"","image-keyboard-response","205","161521","0.0-205.0","32Z9ZLUT1M67S8FQY8DELLKANI5HOU","A1NNDQL6TSWQZB","3THR0FZ95PF7SK0MYRNAOUHTWDJOLG","","900","img/land1.png","75","900","2","0","1","2","0.8,0.2,0.2,0.2,0.8,0.2,0.2,0.2,0.8","0.2,0.2,0.8,0.8,0.2,0.2,0.2,0.8,0.2","2","",""
"","html-keyboard-response","206","161822","0.0-206.0","32Z9ZLUT1M67S8FQY8DELLKANI5HOU","A1NNDQL6TSWQZB","3THR0FZ95PF7SK0MYRNAOUHTWDJOLG","","null","<img src=""img/land1.png"" style=""width:200px;border:14px solid red;"">","null","","","","","","","","","",""
"","image-keyboard-response","207","162113","0.0-207.0","32Z9ZLUT1M67S8FQY8DELLKANI5HOU","A1NNDQL6TSWQZB","3THR0FZ95PF7SK0MYRNAOUHTWDJOLG","","289","img/land1.png","75","290","2","0","1","2","0.8,0.2,0.2,0.2,0.8,0.2,0.2,0.2,0.8","0.2,0.2,0.8,0.8,0.2,0.2,0.2,0.8,0.2","2","",""
"","html-keyboard-response","208","162422","0.0-208.0","32Z9ZLUT1M67S8FQY8DELLKANI5HOU","A1NNDQL6TSWQZB","3THR0FZ95PF7SK0MYRNAOUHTWDJOLG","","null","<img src=""img/land1.png"" style=""width:200px;border:14px solid red;"">","null","","","","","","","","","",""
"","image-keyboard-response","209","162801","0.0-209.0","32Z9ZLUT1M67S8FQY8DELLKANI5HOU","A1NNDQL6TSWQZB","3THR0FZ95PF7SK0MYRNAOUHTWDJOLG","","378","img/land1.png","75","378","2","0","1","2","0.8,0.2,0.2,0.2,0.8,0.2,0.2,0.2,0.8","0.2,0.2,0.8,0.8,0.2,0.2,0.2,0.8,0.2","2","",""
"","html-keyboard-response","210","163114","0.0-210.0","32Z9ZLUT1M67S8FQY8DELLKANI5HOU","A1NNDQL6TSWQZB","3THR0FZ95PF7SK0MYRNAOUHTWDJOLG","","null","<img src=""img/land1.png"" style=""width:200px;border:14px solid red;"">","null","","","","","","","","","",""
"","image-keyboard-response","211","163832","0.0-211.0","32Z9ZLUT1M67S8FQY8DELLKANI5HOU","A1NNDQL6TSWQZB","3THR0FZ95PF7SK0MYRNAOUHTWDJOLG","","717","img/land5.png","76","718","3","0","2","2","0.8,0.2,0.2,0.2,0.8,0.2,0.2,0.2,0.8","0.2,0.2,0.8,0.8,0.2,0.2,0.2,0.8,0.2","2","",""
"","html-keyboard-response","212","164138","0.0-212.0","32Z9ZLUT1M67S8FQY8DELLKANI5HOU","A1NNDQL6TSWQZB","3THR0FZ95PF7SK0MYRNAOUHTWDJOLG","","null","<img src=""img/land5.png"" style=""width:200px;border:14px solid red;"">","null","","","","","","","","","",""
"","image-keyboard-response","213","164937","0.0-213.0","32Z9ZLUT1M67S8FQY8DELLKANI5HOU","A1NNDQL6TSWQZB","3THR0FZ95PF7SK0MYRNAOUHTWDJOLG","","797","img/land1.png","75","798","2","0","1","2","0.8,0.2,0.2,0.2,0.8,0.2,0.2,0.2,0.8","0.2,0.2,0.8,0.8,0.2,0.2,0.2,0.8,0.2","2","",""
"","html-keyboard-response","214","165245","0.0-214.0","32Z9ZLUT1M67S8FQY8DELLKANI5HOU","A1NNDQL6TSWQZB","3THR0FZ95PF7SK0MYRNAOUHTWDJOLG","","null","<img src=""img/land1.png"" style=""width:200px;border:14px solid red;"">","null","","","","","","","","","",""
"","image-keyboard-response","215","166241","0.0-215.0","32Z9ZLUT1M67S8FQY8DELLKANI5HOU","A1NNDQL6TSWQZB","3THR0FZ95PF7SK0MYRNAOUHTWDJOLG","","996","img/land3.png","75","996","2","1","3","2","0.8,0.2,0.2,0.2,0.8,0.2,0.2,0.2,0.8","0.2,0.2,0.8,0.8,0.2,0.2,0.2,0.8,0.2","2","",""
"","html-keyboard-response","216","166552","0.0-216.0","32Z9ZLUT1M67S8FQY8DELLKANI5HOU","A1NNDQL6TSWQZB","3THR0FZ95PF7SK0MYRNAOUHTWDJOLG","","null","<img src=""img/land3.png"" style=""width:200px; border:14px solid green;"">","null","","","","","","","","","",""
"","image-keyboard-response","217","167569","0.0-217.0","32Z9ZLUT1M67S8FQY8DELLKANI5HOU","A1NNDQL6TSWQZB","3THR0FZ95PF7SK0MYRNAOUHTWDJOLG","","1015","img/land5.png","75","1016","2","0","2","2","0.8,0.2,0.2,0.2,0.8,0.2,0.2,0.2,0.8","0.2,0.2,0.8,0.8,0.2,0.2,0.2,0.8,0.2","2","",""
"","html-keyboard-response","218","167874","0.0-218.0","32Z9ZLUT1M67S8FQY8DELLKANI5HOU","A1NNDQL6TSWQZB","3THR0FZ95PF7SK0MYRNAOUHTWDJOLG","","null","<img src=""img/land5.png"" style=""width:200px;border:14px solid red;"">","null","","","","","","","","","",""
"","image-keyboard-response","219","168528","0.0-219.0","32Z9ZLUT1M67S8FQY8DELLKANI5HOU","A1NNDQL6TSWQZB","3THR0FZ95PF7SK0MYRNAOUHTWDJOLG","","653","img/land1.png","76","655","3","1","1","2","0.8,0.2,0.2,0.2,0.8,0.2,0.2,0.2,0.8","0.2,0.2,0.8,0.8,0.2,0.2,0.2,0.8,0.2","2","",""
"","html-keyboard-response","220","168840","0.0-220.0","32Z9ZLUT1M67S8FQY8DELLKANI5HOU","A1NNDQL6TSWQZB","3THR0FZ95PF7SK0MYRNAOUHTWDJOLG","","null","<img src=""img/land1.png"" style=""width:200px; border:14px solid green;"">","null","","","","","","","","","",""
"","image-keyboard-response","221","169801","0.0-221.0","32Z9ZLUT1M67S8FQY8DELLKANI5HOU","A1NNDQL6TSWQZB","3THR0FZ95PF7SK0MYRNAOUHTWDJOLG","","961","img/land3.png","75","961","2","1","3","2","0.8,0.2,0.2,0.2,0.8,0.2,0.2,0.2,0.8","0.2,0.2,0.8,0.8,0.2,0.2,0.2,0.8,0.2","2","",""
"","html-keyboard-response","222","170105","0.0-222.0","32Z9ZLUT1M67S8FQY8DELLKANI5HOU","A1NNDQL6TSWQZB","3THR0FZ95PF7SK0MYRNAOUHTWDJOLG","","null","<img src=""img/land3.png"" style=""width:200px; border:14px solid green;"">","null","","","","","","","","","",""
"","image-keyboard-response","223","170824","0.0-223.0","32Z9ZLUT1M67S8FQY8DELLKANI5HOU","A1NNDQL6TSWQZB","3THR0FZ95PF7SK0MYRNAOUHTWDJOLG","","719","img/land1.png","76","720","3","1","1","2","0.8,0.2,0.2,0.2,0.8,0.2,0.2,0.2,0.8","0.2,0.2,0.8,0.8,0.2,0.2,0.2,0.8,0.2","2","",""
"","html-keyboard-response","224","171125","0.0-224.0","32Z9ZLUT1M67S8FQY8DELLKANI5HOU","A1NNDQL6TSWQZB","3THR0FZ95PF7SK0MYRNAOUHTWDJOLG","","null","<img src=""img/land1.png"" style=""width:200px; border:14px solid green;"">","null","","","","","","","","","",""
"","image-keyboard-response","225","171568","0.0-225.0","32Z9ZLUT1M67S8FQY8DELLKANI5HOU","A1NNDQL6TSWQZB","3THR0FZ95PF7SK0MYRNAOUHTWDJOLG","","442","img/land3.png","75","442","2","1","3","2","0.8,0.2,0.2,0.2,0.8,0.2,0.2,0.2,0.8","0.2,0.2,0.8,0.8,0.2,0.2,0.2,0.8,0.2","2","",""
"","html-keyboard-response","226","171870","0.0-226.0","32Z9ZLUT1M67S8FQY8DELLKANI5HOU","A1NNDQL6TSWQZB","3THR0FZ95PF7SK0MYRNAOUHTWDJOLG","","null","<img src=""img/land3.png"" style=""width:200px; border:14px solid green;"">","null","","","","","","","","","",""
"","image-keyboard-response","227","172433","0.0-227.0","32Z9ZLUT1M67S8FQY8DELLKANI5HOU","A1NNDQL6TSWQZB","3THR0FZ95PF7SK0MYRNAOUHTWDJOLG","","562","img/land1.png","76","562","3","1","1","2","0.8,0.2,0.2,0.2,0.8,0.2,0.2,0.2,0.8","0.2,0.2,0.8,0.8,0.2,0.2,0.2,0.8,0.2","2","",""
"","html-keyboard-response","228","172740","0.0-228.0","32Z9ZLUT1M67S8FQY8DELLKANI5HOU","A1NNDQL6TSWQZB","3THR0FZ95PF7SK0MYRNAOUHTWDJOLG","","null","<img src=""img/land1.png"" style=""width:200px; border:14px solid green;"">","null","","","","","","","","","",""
"","image-keyboard-response","229","173176","0.0-229.0","32Z9ZLUT1M67S8FQY8DELLKANI5HOU","A1NNDQL6TSWQZB","3THR0FZ95PF7SK0MYRNAOUHTWDJOLG","","435","img/land1.png","75","436","2","0","1","2","0.8,0.2,0.2,0.2,0.8,0.2,0.2,0.2,0.8","0.2,0.2,0.8,0.8,0.2,0.2,0.2,0.8,0.2","2","",""
"","html-keyboard-response","230","173479","0.0-230.0","32Z9ZLUT1M67S8FQY8DELLKANI5HOU","A1NNDQL6TSWQZB","3THR0FZ95PF7SK0MYRNAOUHTWDJOLG","","null","<img src=""img/land1.png"" style=""width:200px;border:14px solid red;"">","null","","","","","","","","","",""
"","image-keyboard-response","231","173792","0.0-231.0","32Z9ZLUT1M67S8FQY8DELLKANI5HOU","A1NNDQL6TSWQZB","3THR0FZ95PF7SK0MYRNAOUHTWDJOLG","","314","img/land1.png","76","314","3","1","1","2","0.8,0.2,0.2,0.2,0.8,0.2,0.2,0.2,0.8","0.2,0.2,0.8,0.8,0.2,0.2,0.2,0.8,0.2","2","",""
"","html-keyboard-response","232","174096","0.0-232.0","32Z9ZLUT1M67S8FQY8DELLKANI5HOU","A1NNDQL6TSWQZB","3THR0FZ95PF7SK0MYRNAOUHTWDJOLG","","null","<img src=""img/land1.png"" style=""width:200px; border:14px solid green;"">","null","","","","","","","","","",""
"","image-keyboard-response","233","174448","0.0-233.0","32Z9ZLUT1M67S8FQY8DELLKANI5HOU","A1NNDQL6TSWQZB","3THR0FZ95PF7SK0MYRNAOUHTWDJOLG","","351","img/land1.png","76","353","3","1","1","2","0.8,0.2,0.2,0.2,0.8,0.2,0.2,0.2,0.8","0.2,0.2,0.8,0.8,0.2,0.2,0.2,0.8,0.2","2","",""
"","html-keyboard-response","234","174763","0.0-234.0","32Z9ZLUT1M67S8FQY8DELLKANI5HOU","A1NNDQL6TSWQZB","3THR0FZ95PF7SK0MYRNAOUHTWDJOLG","","null","<img src=""img/land1.png"" style=""width:200px; border:14px solid green;"">","null","","","","","","","","","",""
"","image-keyboard-response","235","175272","0.0-235.0","32Z9ZLUT1M67S8FQY8DELLKANI5HOU","A1NNDQL6TSWQZB","3THR0FZ95PF7SK0MYRNAOUHTWDJOLG","","509","img/land3.png","75","509","2","1","3","2","0.8,0.2,0.2,0.2,0.8,0.2,0.2,0.2,0.8","0.2,0.2,0.8,0.8,0.2,0.2,0.2,0.8,0.2","2","",""
"","html-keyboard-response","236","175573","0.0-236.0","32Z9ZLUT1M67S8FQY8DELLKANI5HOU","A1NNDQL6TSWQZB","3THR0FZ95PF7SK0MYRNAOUHTWDJOLG","","null","<img src=""img/land3.png"" style=""width:200px; border:14px solid green;"">","null","","","","","","","","","",""
"","image-keyboard-response","237","176200","0.0-237.0","32Z9ZLUT1M67S8FQY8DELLKANI5HOU","A1NNDQL6TSWQZB","3THR0FZ95PF7SK0MYRNAOUHTWDJOLG","","627","img/land1.png","76","628","3","1","1","2","0.8,0.2,0.2,0.2,0.8,0.2,0.2,0.2,0.8","0.2,0.2,0.8,0.8,0.2,0.2,0.2,0.8,0.2","2","",""
"","html-keyboard-response","238","176511","0.0-238.0","32Z9ZLUT1M67S8FQY8DELLKANI5HOU","A1NNDQL6TSWQZB","3THR0FZ95PF7SK0MYRNAOUHTWDJOLG","","null","<img src=""img/land1.png"" style=""width:200px; border:14px solid green;"">","null","","","","","","","","","",""
"","image-keyboard-response","239","176921","0.0-239.0","32Z9ZLUT1M67S8FQY8DELLKANI5HOU","A1NNDQL6TSWQZB","3THR0FZ95PF7SK0MYRNAOUHTWDJOLG","","409","img/land1.png","76","409","3","0","1","2","0.8,0.2,0.2,0.2,0.8,0.2,0.2,0.2,0.8","0.2,0.2,0.8,0.8,0.2,0.2,0.2,0.8,0.2","2","",""
"","html-keyboard-response","240","177235","0.0-240.0","32Z9ZLUT1M67S8FQY8DELLKANI5HOU","A1NNDQL6TSWQZB","3THR0FZ95PF7SK0MYRNAOUHTWDJOLG","","null","<img src=""img/land1.png"" style=""width:200px;border:14px solid red;"">","null","","","","","","","","","",""
"","image-keyboard-response","241","177680","0.0-241.0","32Z9ZLUT1M67S8FQY8DELLKANI5HOU","A1NNDQL6TSWQZB","3THR0FZ95PF7SK0MYRNAOUHTWDJOLG","","444","img/land1.png","76","444","3","1","1","2","0.8,0.2,0.2,0.2,0.8,0.2,0.2,0.2,0.8","0.2,0.2,0.8,0.8,0.2,0.2,0.2,0.8,0.2","2","",""
"","html-keyboard-response","242","177985","0.0-242.0","32Z9ZLUT1M67S8FQY8DELLKANI5HOU","A1NNDQL6TSWQZB","3THR0FZ95PF7SK0MYRNAOUHTWDJOLG","","null","<img src=""img/land1.png"" style=""width:200px; border:14px solid green;"">","null","","","","","","","","","",""
"","image-keyboard-response","243","178320","0.0-243.0","32Z9ZLUT1M67S8FQY8DELLKANI5HOU","A1NNDQL6TSWQZB","3THR0FZ95PF7SK0MYRNAOUHTWDJOLG","","334","img/land1.png","76","335","3","1","1","2","0.8,0.2,0.2,0.2,0.8,0.2,0.2,0.2,0.8","0.2,0.2,0.8,0.8,0.2,0.2,0.2,0.8,0.2","2","",""
"","html-keyboard-response","244","178630","0.0-244.0","32Z9ZLUT1M67S8FQY8DELLKANI5HOU","A1NNDQL6TSWQZB","3THR0FZ95PF7SK0MYRNAOUHTWDJOLG","","null","<img src=""img/land1.png"" style=""width:200px; border:14px solid green;"">","null","","","","","","","","","",""
"","image-keyboard-response","245","178968","0.0-245.0","32Z9ZLUT1M67S8FQY8DELLKANI5HOU","A1NNDQL6TSWQZB","3THR0FZ95PF7SK0MYRNAOUHTWDJOLG","","336","img/land1.png","76","338","3","1","1","2","0.8,0.2,0.2,0.2,0.8,0.2,0.2,0.2,0.8","0.2,0.2,0.8,0.8,0.2,0.2,0.2,0.8,0.2","2","",""
"","html-keyboard-response","246","179277","0.0-246.0","32Z9ZLUT1M67S8FQY8DELLKANI5HOU","A1NNDQL6TSWQZB","3THR0FZ95PF7SK0MYRNAOUHTWDJOLG","","null","<img src=""img/land1.png"" style=""width:200px; border:14px solid green;"">","null","","","","","","","","","",""
"","image-keyboard-response","247","179576","0.0-247.0","32Z9ZLUT1M67S8FQY8DELLKANI5HOU","A1NNDQL6TSWQZB","3THR0FZ95PF7SK0MYRNAOUHTWDJOLG","","297","img/land1.png","76","299","3","1","1","2","0.8,0.2,0.2,0.2,0.8,0.2,0.2,0.2,0.8","0.2,0.2,0.8,0.8,0.2,0.2,0.2,0.8,0.2","2","",""
"","html-keyboard-response","248","179888","0.0-248.0","32Z9ZLUT1M67S8FQY8DELLKANI5HOU","A1NNDQL6TSWQZB","3THR0FZ95PF7SK0MYRNAOUHTWDJOLG","","null","<img src=""img/land1.png"" style=""width:200px; border:14px solid green;"">","null","","","","","","","","","",""
"","image-keyboard-response","249","180210","0.0-249.0","32Z9ZLUT1M67S8FQY8DELLKANI5HOU","A1NNDQL6TSWQZB","3THR0FZ95PF7SK0MYRNAOUHTWDJOLG","","321","img/land1.png","76","322","3","1","1","2","0.8,0.2,0.2,0.2,0.8,0.2,0.2,0.2,0.8","0.2,0.2,0.8,0.8,0.2,0.2,0.2,0.8,0.2","2","",""
"","html-keyboard-response","250","180517","0.0-250.0","32Z9ZLUT1M67S8FQY8DELLKANI5HOU","A1NNDQL6TSWQZB","3THR0FZ95PF7SK0MYRNAOUHTWDJOLG","","null","<img src=""img/land1.png"" style=""width:200px; border:14px solid green;"">","null","","","","","","","","","",""
"","image-keyboard-response","251","180849","0.0-251.0","32Z9ZLUT1M67S8FQY8DELLKANI5HOU","A1NNDQL6TSWQZB","3THR0FZ95PF7SK0MYRNAOUHTWDJOLG","","330","img/land1.png","76","332","3","1","1","2","0.8,0.2,0.2,0.2,0.8,0.2,0.2,0.2,0.8","0.2,0.2,0.8,0.8,0.2,0.2,0.2,0.8,0.2","2","",""
"","html-keyboard-response","252","181161","0.0-252.0","32Z9ZLUT1M67S8FQY8DELLKANI5HOU","A1NNDQL6TSWQZB","3THR0FZ95PF7SK0MYRNAOUHTWDJOLG","","null","<img src=""img/land1.png"" style=""width:200px; border:14px solid green;"">","null","","","","","","","","","",""
"","image-keyboard-response","253","181497","0.0-253.0","32Z9ZLUT1M67S8FQY8DELLKANI5HOU","A1NNDQL6TSWQZB","3THR0FZ95PF7SK0MYRNAOUHTWDJOLG","","335","img/land1.png","76","337","3","0","1","2","0.8,0.2,0.2,0.2,0.8,0.2,0.2,0.2,0.8","0.2,0.2,0.8,0.8,0.2,0.2,0.2,0.8,0.2","2","",""
"","html-keyboard-response","254","181806","0.0-254.0","32Z9ZLUT1M67S8FQY8DELLKANI5HOU","A1NNDQL6TSWQZB","3THR0FZ95PF7SK0MYRNAOUHTWDJOLG","","null","<img src=""img/land1.png"" style=""width:200px;border:14px solid red;"">","null","","","","","","","","","",""
"","image-keyboard-response","255","182104","0.0-255.0","32Z9ZLUT1M67S8FQY8DELLKANI5HOU","A1NNDQL6TSWQZB","3THR0FZ95PF7SK0MYRNAOUHTWDJOLG","","298","img/land1.png","76","298","3","1","1","2","0.8,0.2,0.2,0.2,0.8,0.2,0.2,0.2,0.8","0.2,0.2,0.8,0.8,0.2,0.2,0.2,0.8,0.2","2","",""
"","html-keyboard-response","256","182419","0.0-256.0","32Z9ZLUT1M67S8FQY8DELLKANI5HOU","A1NNDQL6TSWQZB","3THR0FZ95PF7SK0MYRNAOUHTWDJOLG","","null","<img src=""img/land1.png"" style=""width:200px; border:14px solid green;"">","null","","","","","","","","","",""
"","image-keyboard-response","257","182656","0.0-257.0","32Z9ZLUT1M67S8FQY8DELLKANI5HOU","A1NNDQL6TSWQZB","3THR0FZ95PF7SK0MYRNAOUHTWDJOLG","","235","img/land5.png","76","237","3","1","2","2","0.8,0.2,0.2,0.2,0.8,0.2,0.2,0.2,0.8","0.2,0.2,0.8,0.8,0.2,0.2,0.2,0.8,0.2","2","",""
"","html-keyboard-response","258","182971","0.0-258.0","32Z9ZLUT1M67S8FQY8DELLKANI5HOU","A1NNDQL6TSWQZB","3THR0FZ95PF7SK0MYRNAOUHTWDJOLG","","null","<img src=""img/land5.png"" style=""width:200px; border:14px solid green;"">","null","","","","","","","","","",""
"","image-keyboard-response","259","183232","0.0-259.0","32Z9ZLUT1M67S8FQY8DELLKANI5HOU","A1NNDQL6TSWQZB","3THR0FZ95PF7SK0MYRNAOUHTWDJOLG","","261","img/land1.png","75","261","2","0","1","2","0.8,0.2,0.2,0.2,0.8,0.2,0.2,0.2,0.8","0.2,0.2,0.8,0.8,0.2,0.2,0.2,0.8,0.2","2","",""
"","html-keyboard-response","260","183541","0.0-260.0","32Z9ZLUT1M67S8FQY8DELLKANI5HOU","A1NNDQL6TSWQZB","3THR0FZ95PF7SK0MYRNAOUHTWDJOLG","","null","<img src=""img/land1.png"" style=""width:200px;border:14px solid red;"">","null","","","","","","","","","",""
"","image-keyboard-response","261","184352","0.0-261.0","32Z9ZLUT1M67S8FQY8DELLKANI5HOU","A1NNDQL6TSWQZB","3THR0FZ95PF7SK0MYRNAOUHTWDJOLG","","810","img/land3.png","75","811","2","1","3","2","0.8,0.2,0.2,0.2,0.8,0.2,0.2,0.2,0.8","0.2,0.2,0.8,0.8,0.2,0.2,0.2,0.8,0.2","2","",""
"","html-keyboard-response","262","184660","0.0-262.0","32Z9ZLUT1M67S8FQY8DELLKANI5HOU","A1NNDQL6TSWQZB","3THR0FZ95PF7SK0MYRNAOUHTWDJOLG","","null","<img src=""img/land3.png"" style=""width:200px; border:14px solid green;"">","null","","","","","","","","","",""
"","image-keyboard-response","263","185321","0.0-263.0","32Z9ZLUT1M67S8FQY8DELLKANI5HOU","A1NNDQL6TSWQZB","3THR0FZ95PF7SK0MYRNAOUHTWDJOLG","","659","img/land1.png","76","660","3","0","1","2","0.8,0.2,0.2,0.2,0.8,0.2,0.2,0.2,0.8","0.2,0.2,0.8,0.8,0.2,0.2,0.2,0.8,0.2","2","",""
"","html-keyboard-response","264","185627","0.0-264.0","32Z9ZLUT1M67S8FQY8DELLKANI5HOU","A1NNDQL6TSWQZB","3THR0FZ95PF7SK0MYRNAOUHTWDJOLG","","null","<img src=""img/land1.png"" style=""width:200px;border:14px solid red;"">","null","","","","","","","","","",""
"","image-keyboard-response","265","186256","0.0-265.0","32Z9ZLUT1M67S8FQY8DELLKANI5HOU","A1NNDQL6TSWQZB","3THR0FZ95PF7SK0MYRNAOUHTWDJOLG","","630","img/land3.png","75","630","2","0","3","2","0.8,0.2,0.2,0.2,0.8,0.2,0.2,0.2,0.8","0.2,0.2,0.8,0.8,0.2,0.2,0.2,0.8,0.2","2","",""
"","html-keyboard-response","266","186569","0.0-266.0","32Z9ZLUT1M67S8FQY8DELLKANI5HOU","A1NNDQL6TSWQZB","3THR0FZ95PF7SK0MYRNAOUHTWDJOLG","","null","<img src=""img/land3.png"" style=""width:200px;border:14px solid red;"">","null","","","","","","","","","",""
"","image-keyboard-response","267","187113","0.0-267.0","32Z9ZLUT1M67S8FQY8DELLKANI5HOU","A1NNDQL6TSWQZB","3THR0FZ95PF7SK0MYRNAOUHTWDJOLG","","543","img/land1.png","76","543","3","1","1","2","0.8,0.2,0.2,0.2,0.8,0.2,0.2,0.2,0.8","0.2,0.2,0.8,0.8,0.2,0.2,0.2,0.8,0.2","2","",""
"","html-keyboard-response","268","187424","0.0-268.0","32Z9ZLUT1M67S8FQY8DELLKANI5HOU","A1NNDQL6TSWQZB","3THR0FZ95PF7SK0MYRNAOUHTWDJOLG","","null","<img src=""img/land1.png"" style=""width:200px; border:14px solid green;"">","null","","","","","","","","","",""
"","image-keyboard-response","269","187833","0.0-269.0","32Z9ZLUT1M67S8FQY8DELLKANI5HOU","A1NNDQL6TSWQZB","3THR0FZ95PF7SK0MYRNAOUHTWDJOLG","","407","img/land3.png","75","407","2","1","3","2","0.8,0.2,0.2,0.2,0.8,0.2,0.2,0.2,0.8","0.2,0.2,0.8,0.8,0.2,0.2,0.2,0.8,0.2","2","",""
"","html-keyboard-response","270","188148","0.0-270.0","32Z9ZLUT1M67S8FQY8DELLKANI5HOU","A1NNDQL6TSWQZB","3THR0FZ95PF7SK0MYRNAOUHTWDJOLG","","null","<img src=""img/land3.png"" style=""width:200px; border:14px solid green;"">","null","","","","","","","","","",""
"","image-keyboard-response","271","188520","0.0-271.0","32Z9ZLUT1M67S8FQY8DELLKANI5HOU","A1NNDQL6TSWQZB","3THR0FZ95PF7SK0MYRNAOUHTWDJOLG","","372","img/land3.png","75","372","2","1","3","2","0.8,0.2,0.2,0.2,0.8,0.2,0.2,0.2,0.8","0.2,0.2,0.8,0.8,0.2,0.2,0.2,0.8,0.2","2","",""
"","html-keyboard-response","272","188823","0.0-272.0","32Z9ZLUT1M67S8FQY8DELLKANI5HOU","A1NNDQL6TSWQZB","3THR0FZ95PF7SK0MYRNAOUHTWDJOLG","","null","<img src=""img/land3.png"" style=""width:200px; border:14px solid green;"">","null","","","","","","","","","",""
"","image-keyboard-response","273","189184","0.0-273.0","32Z9ZLUT1M67S8FQY8DELLKANI5HOU","A1NNDQL6TSWQZB","3THR0FZ95PF7SK0MYRNAOUHTWDJOLG","","360","img/land3.png","75","360","2","1","3","2","0.8,0.2,0.2,0.2,0.8,0.2,0.2,0.2,0.8","0.2,0.2,0.8,0.8,0.2,0.2,0.2,0.8,0.2","2","",""
"","html-keyboard-response","274","189500","0.0-274.0","32Z9ZLUT1M67S8FQY8DELLKANI5HOU","A1NNDQL6TSWQZB","3THR0FZ95PF7SK0MYRNAOUHTWDJOLG","","null","<img src=""img/land3.png"" style=""width:200px; border:14px solid green;"">","null","","","","","","","","","",""
"","image-keyboard-response","275","190368","0.0-275.0","32Z9ZLUT1M67S8FQY8DELLKANI5HOU","A1NNDQL6TSWQZB","3THR0FZ95PF7SK0MYRNAOUHTWDJOLG","","870","img/land1.png","76","870","3","1","1","2","0.8,0.2,0.2,0.2,0.8,0.2,0.2,0.2,0.8","0.2,0.2,0.8,0.8,0.2,0.2,0.2,0.8,0.2","2","",""
"","html-keyboard-response","276","190677","0.0-276.0","32Z9ZLUT1M67S8FQY8DELLKANI5HOU","A1NNDQL6TSWQZB","3THR0FZ95PF7SK0MYRNAOUHTWDJOLG","","null","<img src=""img/land1.png"" style=""width:200px; border:14px solid green;"">","null","","","","","","","","","",""
"","image-keyboard-response","277","191409","0.0-277.0","32Z9ZLUT1M67S8FQY8DELLKANI5HOU","A1NNDQL6TSWQZB","3THR0FZ95PF7SK0MYRNAOUHTWDJOLG","","731","img/land5.png","74","732","1","1","2","2","0.8,0.2,0.2,0.2,0.8,0.2,0.2,0.2,0.8","0.2,0.2,0.8,0.8,0.2,0.2,0.2,0.8,0.2","2","",""
"","html-keyboard-response","278","191720","0.0-278.0","32Z9ZLUT1M67S8FQY8DELLKANI5HOU","A1NNDQL6TSWQZB","3THR0FZ95PF7SK0MYRNAOUHTWDJOLG","","null","<img src=""img/land5.png"" style=""width:200px; border:14px solid green;"">","null","","","","","","","","","",""
"","image-keyboard-response","279","192161","0.0-279.0","32Z9ZLUT1M67S8FQY8DELLKANI5HOU","A1NNDQL6TSWQZB","3THR0FZ95PF7SK0MYRNAOUHTWDJOLG","","440","img/land5.png","74","440","1","0","2","2","0.8,0.2,0.2,0.2,0.8,0.2,0.2,0.2,0.8","0.2,0.2,0.8,0.8,0.2,0.2,0.2,0.8,0.2","2","",""
"","html-keyboard-response","280","192473","0.0-280.0","32Z9ZLUT1M67S8FQY8DELLKANI5HOU","A1NNDQL6TSWQZB","3THR0FZ95PF7SK0MYRNAOUHTWDJOLG","","null","<img src=""img/land5.png"" style=""width:200px;border:14px solid red;"">","null","","","","","","","","","",""
"","image-keyboard-response","281","193241","0.0-281.0","32Z9ZLUT1M67S8FQY8DELLKANI5HOU","A1NNDQL6TSWQZB","3THR0FZ95PF7SK0MYRNAOUHTWDJOLG","","768","img/land1.png","76","768","3","1","1","2","0.8,0.2,0.2,0.2,0.8,0.2,0.2,0.2,0.8","0.2,0.2,0.8,0.8,0.2,0.2,0.2,0.8,0.2","2","",""
"","html-keyboard-response","282","193548","0.0-282.0","32Z9ZLUT1M67S8FQY8DELLKANI5HOU","A1NNDQL6TSWQZB","3THR0FZ95PF7SK0MYRNAOUHTWDJOLG","","null","<img src=""img/land1.png"" style=""width:200px; border:14px solid green;"">","null","","","","","","","","","",""
"","image-keyboard-response","283","193953","0.0-283.0","32Z9ZLUT1M67S8FQY8DELLKANI5HOU","A1NNDQL6TSWQZB","3THR0FZ95PF7SK0MYRNAOUHTWDJOLG","","404","img/land1.png","76","404","3","1","1","2","0.8,0.2,0.2,0.2,0.8,0.2,0.2,0.2,0.8","0.2,0.2,0.8,0.8,0.2,0.2,0.2,0.8,0.2","2","",""
"","html-keyboard-response","284","194266","0.0-284.0","32Z9ZLUT1M67S8FQY8DELLKANI5HOU","A1NNDQL6TSWQZB","3THR0FZ95PF7SK0MYRNAOUHTWDJOLG","","null","<img src=""img/land1.png"" style=""width:200px; border:14px solid green;"">","null","","","","","","","","","",""
"","image-keyboard-response","285","194657","0.0-285.0","32Z9ZLUT1M67S8FQY8DELLKANI5HOU","A1NNDQL6TSWQZB","3THR0FZ95PF7SK0MYRNAOUHTWDJOLG","","389","img/land1.png","76","391","3","1","1","2","0.8,0.2,0.2,0.2,0.8,0.2,0.2,0.2,0.8","0.2,0.2,0.8,0.8,0.2,0.2,0.2,0.8,0.2","2","",""
"","html-keyboard-response","286","194957","0.0-286.0","32Z9ZLUT1M67S8FQY8DELLKANI5HOU","A1NNDQL6TSWQZB","3THR0FZ95PF7SK0MYRNAOUHTWDJOLG","","null","<img src=""img/land1.png"" style=""width:200px; border:14px solid green;"">","null","","","","","","","","","",""
"","image-keyboard-response","287","195816","0.0-287.0","32Z9ZLUT1M67S8FQY8DELLKANI5HOU","A1NNDQL6TSWQZB","3THR0FZ95PF7SK0MYRNAOUHTWDJOLG","","857","img/land5.png","74","858","1","0","2","2","0.8,0.2,0.2,0.2,0.8,0.2,0.2,0.2,0.8","0.2,0.2,0.8,0.8,0.2,0.2,0.2,0.8,0.2","2","",""
"","html-keyboard-response","288","196121","0.0-288.0","32Z9ZLUT1M67S8FQY8DELLKANI5HOU","A1NNDQL6TSWQZB","3THR0FZ95PF7SK0MYRNAOUHTWDJOLG","","null","<img src=""img/land5.png"" style=""width:200px;border:14px solid red;"">","null","","","","","","","","","",""
"","image-keyboard-response","289","196936","0.0-289.0","32Z9ZLUT1M67S8FQY8DELLKANI5HOU","A1NNDQL6TSWQZB","3THR0FZ95PF7SK0MYRNAOUHTWDJOLG","","814","img/land1.png","76","815","3","1","1","2","0.8,0.2,0.2,0.2,0.8,0.2,0.2,0.2,0.8","0.2,0.2,0.8,0.8,0.2,0.2,0.2,0.8,0.2","2","",""
"","html-keyboard-response","290","197244","0.0-290.0","32Z9ZLUT1M67S8FQY8DELLKANI5HOU","A1NNDQL6TSWQZB","3THR0FZ95PF7SK0MYRNAOUHTWDJOLG","","null","<img src=""img/land1.png"" style=""width:200px; border:14px solid green;"">","null","","","","","","","","","",""
"","image-keyboard-response","291","197632","0.0-291.0","32Z9ZLUT1M67S8FQY8DELLKANI5HOU","A1NNDQL6TSWQZB","3THR0FZ95PF7SK0MYRNAOUHTWDJOLG","","387","img/land1.png","76","388","3","1","1","2","0.8,0.2,0.2,0.2,0.8,0.2,0.2,0.2,0.8","0.2,0.2,0.8,0.8,0.2,0.2,0.2,0.8,0.2","2","",""
"","html-keyboard-response","292","197934","0.0-292.0","32Z9ZLUT1M67S8FQY8DELLKANI5HOU","A1NNDQL6TSWQZB","3THR0FZ95PF7SK0MYRNAOUHTWDJOLG","","null","<img src=""img/land1.png"" style=""width:200px; border:14px solid green;"">","null","","","","","","","","","",""
"","image-keyboard-response","293","198337","0.0-293.0","32Z9ZLUT1M67S8FQY8DELLKANI5HOU","A1NNDQL6TSWQZB","3THR0FZ95PF7SK0MYRNAOUHTWDJOLG","","402","img/land1.png","76","403","3","0","1","2","0.8,0.2,0.2,0.2,0.8,0.2,0.2,0.2,0.8","0.2,0.2,0.8,0.8,0.2,0.2,0.2,0.8,0.2","2","",""
"","html-keyboard-response","294","198640","0.0-294.0","32Z9ZLUT1M67S8FQY8DELLKANI5HOU","A1NNDQL6TSWQZB","3THR0FZ95PF7SK0MYRNAOUHTWDJOLG","","null","<img src=""img/land1.png"" style=""width:200px;border:14px solid red;"">","null","","","","","","","","","",""
"","image-keyboard-response","295","199360","0.0-295.0","32Z9ZLUT1M67S8FQY8DELLKANI5HOU","A1NNDQL6TSWQZB","3THR0FZ95PF7SK0MYRNAOUHTWDJOLG","","719","img/land3.png","75","721","2","1","3","2","0.8,0.2,0.2,0.2,0.8,0.2,0.2,0.2,0.8","0.2,0.2,0.8,0.8,0.2,0.2,0.2,0.8,0.2","2","",""
"","html-keyboard-response","296","199667","0.0-296.0","32Z9ZLUT1M67S8FQY8DELLKANI5HOU","A1NNDQL6TSWQZB","3THR0FZ95PF7SK0MYRNAOUHTWDJOLG","","null","<img src=""img/land3.png"" style=""width:200px; border:14px solid green;"">","null","","","","","","","","","",""
"","image-keyboard-response","297","200577","0.0-297.0","32Z9ZLUT1M67S8FQY8DELLKANI5HOU","A1NNDQL6TSWQZB","3THR0FZ95PF7SK0MYRNAOUHTWDJOLG","","908","img/land1.png","76","910","3","1","1","2","0.8,0.2,0.2,0.2,0.8,0.2,0.2,0.2,0.8","0.2,0.2,0.8,0.8,0.2,0.2,0.2,0.8,0.2","2","",""
"","html-keyboard-response","298","200882","0.0-298.0","32Z9ZLUT1M67S8FQY8DELLKANI5HOU","A1NNDQL6TSWQZB","3THR0FZ95PF7SK0MYRNAOUHTWDJOLG","","null","<img src=""img/land1.png"" style=""width:200px; border:14px solid green;"">","null","","","","","","","","","",""
"","image-keyboard-response","299","201272","0.0-299.0","32Z9ZLUT1M67S8FQY8DELLKANI5HOU","A1NNDQL6TSWQZB","3THR0FZ95PF7SK0MYRNAOUHTWDJOLG","","390","img/land1.png","76","391","3","1","1","2","0.8,0.2,0.2,0.2,0.8,0.2,0.2,0.2,0.8","0.2,0.2,0.8,0.8,0.2,0.2,0.2,0.8,0.2","2","",""
"","html-keyboard-response","300","201574","0.0-300.0","32Z9ZLUT1M67S8FQY8DELLKANI5HOU","A1NNDQL6TSWQZB","3THR0FZ95PF7SK0MYRNAOUHTWDJOLG","","null","<img src=""img/land1.png"" style=""width:200px; border:14px solid green;"">","null","","","","","","","","","",""
"","image-keyboard-response","301","202208","0.0-301.0","32Z9ZLUT1M67S8FQY8DELLKANI5HOU","A1NNDQL6TSWQZB","3THR0FZ95PF7SK0MYRNAOUHTWDJOLG","","634","img/land1.png","76","634","3","1","1","2","0.8,0.2,0.2,0.2,0.8,0.2,0.2,0.2,0.8","0.2,0.2,0.8,0.8,0.2,0.2,0.2,0.8,0.2","2","",""
"","html-keyboard-response","302","202523","0.0-302.0","32Z9ZLUT1M67S8FQY8DELLKANI5HOU","A1NNDQL6TSWQZB","3THR0FZ95PF7SK0MYRNAOUHTWDJOLG","","null","<img src=""img/land1.png"" style=""width:200px; border:14px solid green;"">","null","","","","","","","","","",""
"","image-keyboard-response","303","203256","0.0-303.0","32Z9ZLUT1M67S8FQY8DELLKANI5HOU","A1NNDQL6TSWQZB","3THR0FZ95PF7SK0MYRNAOUHTWDJOLG","","732","img/land5.png","74","732","1","1","2","2","0.8,0.2,0.2,0.2,0.8,0.2,0.2,0.2,0.8","0.2,0.2,0.8,0.8,0.2,0.2,0.2,0.8,0.2","2","",""
"","html-keyboard-response","304","203561","0.0-304.0","32Z9ZLUT1M67S8FQY8DELLKANI5HOU","A1NNDQL6TSWQZB","3THR0FZ95PF7SK0MYRNAOUHTWDJOLG","","null","<img src=""img/land5.png"" style=""width:200px; border:14px solid green;"">","null","","","","","","","","","",""
"","image-keyboard-response","305","204383","0.0-305.0","32Z9ZLUT1M67S8FQY8DELLKANI5HOU","A1NNDQL6TSWQZB","3THR0FZ95PF7SK0MYRNAOUHTWDJOLG","","822","img/land1.png","76","822","3","1","1","2","0.8,0.2,0.2,0.2,0.8,0.2,0.2,0.2,0.8","0.2,0.2,0.8,0.8,0.2,0.2,0.2,0.8,0.2","2","",""
"","html-keyboard-response","306","204697","0.0-306.0","32Z9ZLUT1M67S8FQY8DELLKANI5HOU","A1NNDQL6TSWQZB","3THR0FZ95PF7SK0MYRNAOUHTWDJOLG","","null","<img src=""img/land1.png"" style=""width:200px; border:14px solid green;"">","null","","","","","","","","","",""
"","image-keyboard-response","307","205089","0.0-307.0","32Z9ZLUT1M67S8FQY8DELLKANI5HOU","A1NNDQL6TSWQZB","3THR0FZ95PF7SK0MYRNAOUHTWDJOLG","","390","img/land1.png","76","390","3","1","1","2","0.8,0.2,0.2,0.2,0.8,0.2,0.2,0.2,0.8","0.2,0.2,0.8,0.8,0.2,0.2,0.2,0.8,0.2","2","",""
"","html-keyboard-response","308","205405","0.0-308.0","32Z9ZLUT1M67S8FQY8DELLKANI5HOU","A1NNDQL6TSWQZB","3THR0FZ95PF7SK0MYRNAOUHTWDJOLG","","null","<img src=""img/land1.png"" style=""width:200px; border:14px solid green;"">","null","","","","","","","","","",""
"","image-keyboard-response","309","205816","0.0-309.0","32Z9ZLUT1M67S8FQY8DELLKANI5HOU","A1NNDQL6TSWQZB","3THR0FZ95PF7SK0MYRNAOUHTWDJOLG","","410","img/land1.png","76","412","3","1","1","2","0.8,0.2,0.2,0.2,0.8,0.2,0.2,0.2,0.8","0.2,0.2,0.8,0.8,0.2,0.2,0.2,0.8,0.2","2","",""
"","html-keyboard-response","310","206123","0.0-310.0","32Z9ZLUT1M67S8FQY8DELLKANI5HOU","A1NNDQL6TSWQZB","3THR0FZ95PF7SK0MYRNAOUHTWDJOLG","","null","<img src=""img/land1.png"" style=""width:200px; border:14px solid green;"">","null","","","","","","","","","",""
"","image-keyboard-response","311","206600","0.0-311.0","32Z9ZLUT1M67S8FQY8DELLKANI5HOU","A1NNDQL6TSWQZB","3THR0FZ95PF7SK0MYRNAOUHTWDJOLG","","476","img/land1.png","76","476","3","1","1","2","0.8,0.2,0.2,0.2,0.8,0.2,0.2,0.2,0.8","0.2,0.2,0.8,0.8,0.2,0.2,0.2,0.8,0.2","2","",""
"","html-keyboard-response","312","206907","0.0-312.0","32Z9ZLUT1M67S8FQY8DELLKANI5HOU","A1NNDQL6TSWQZB","3THR0FZ95PF7SK0MYRNAOUHTWDJOLG","","null","<img src=""img/land1.png"" style=""width:200px; border:14px solid green;"">","null","","","","","","","","","",""
"","image-keyboard-response","313","207337","0.0-313.0","32Z9ZLUT1M67S8FQY8DELLKANI5HOU","A1NNDQL6TSWQZB","3THR0FZ95PF7SK0MYRNAOUHTWDJOLG","","429","img/land1.png","76","430","3","0","1","2","0.8,0.2,0.2,0.2,0.8,0.2,0.2,0.2,0.8","0.2,0.2,0.8,0.8,0.2,0.2,0.2,0.8,0.2","2","",""
"","html-keyboard-response","314","207642","0.0-314.0","32Z9ZLUT1M67S8FQY8DELLKANI5HOU","A1NNDQL6TSWQZB","3THR0FZ95PF7SK0MYRNAOUHTWDJOLG","","null","<img src=""img/land1.png"" style=""width:200px;border:14px solid red;"">","null","","","","","","","","","",""
"","image-keyboard-response","315","208344","0.0-315.0","32Z9ZLUT1M67S8FQY8DELLKANI5HOU","A1NNDQL6TSWQZB","3THR0FZ95PF7SK0MYRNAOUHTWDJOLG","","701","img/land5.png","74","701","1","1","2","2","0.8,0.2,0.2,0.2,0.8,0.2,0.2,0.2,0.8","0.2,0.2,0.8,0.8,0.2,0.2,0.2,0.8,0.2","2","",""
"","html-keyboard-response","316","208656","0.0-316.0","32Z9ZLUT1M67S8FQY8DELLKANI5HOU","A1NNDQL6TSWQZB","3THR0FZ95PF7SK0MYRNAOUHTWDJOLG","","null","<img src=""img/land5.png"" style=""width:200px; border:14px solid green;"">","null","","","","","","","","","",""
"","image-keyboard-response","317","209337","0.0-317.0","32Z9ZLUT1M67S8FQY8DELLKANI5HOU","A1NNDQL6TSWQZB","3THR0FZ95PF7SK0MYRNAOUHTWDJOLG","","681","img/land1.png","76","681","3","1","1","2","0.8,0.2,0.2,0.2,0.8,0.2,0.2,0.2,0.8","0.2,0.2,0.8,0.8,0.2,0.2,0.2,0.8,0.2","2","",""
"","html-keyboard-response","318","209652","0.0-318.0","32Z9ZLUT1M67S8FQY8DELLKANI5HOU","A1NNDQL6TSWQZB","3THR0FZ95PF7SK0MYRNAOUHTWDJOLG","","null","<img src=""img/land1.png"" style=""width:200px; border:14px solid green;"">","null","","","","","","","","","",""
"","image-keyboard-response","319","210088","0.0-319.0","32Z9ZLUT1M67S8FQY8DELLKANI5HOU","A1NNDQL6TSWQZB","3THR0FZ95PF7SK0MYRNAOUHTWDJOLG","","435","img/land1.png","76","435","3","1","1","2","0.8,0.2,0.2,0.2,0.8,0.2,0.2,0.2,0.8","0.2,0.2,0.8,0.8,0.2,0.2,0.2,0.8,0.2","2","",""
"","html-keyboard-response","320","210390","0.0-320.0","32Z9ZLUT1M67S8FQY8DELLKANI5HOU","A1NNDQL6TSWQZB","3THR0FZ95PF7SK0MYRNAOUHTWDJOLG","","null","<img src=""img/land1.png"" style=""width:200px; border:14px solid green;"">","null","","","","","","","","","",""
"","image-keyboard-response","321","211088","0.0-321.0","32Z9ZLUT1M67S8FQY8DELLKANI5HOU","A1NNDQL6TSWQZB","3THR0FZ95PF7SK0MYRNAOUHTWDJOLG","","698","img/land5.png","74","698","1","1","2","2","0.8,0.2,0.2,0.2,0.8,0.2,0.2,0.2,0.8","0.2,0.2,0.8,0.8,0.2,0.2,0.2,0.8,0.2","2","",""
"","html-keyboard-response","322","211391","0.0-322.0","32Z9ZLUT1M67S8FQY8DELLKANI5HOU","A1NNDQL6TSWQZB","3THR0FZ95PF7SK0MYRNAOUHTWDJOLG","","null","<img src=""img/land5.png"" style=""width:200px; border:14px solid green;"">","null","","","","","","","","","",""
"","image-keyboard-response","323","212151","0.0-323.0","32Z9ZLUT1M67S8FQY8DELLKANI5HOU","A1NNDQL6TSWQZB","3THR0FZ95PF7SK0MYRNAOUHTWDJOLG","","759","img/land1.png","76","761","3","1","1","2","0.8,0.2,0.2,0.2,0.8,0.2,0.2,0.2,0.8","0.2,0.2,0.8,0.8,0.2,0.2,0.2,0.8,0.2","2","",""
"","html-keyboard-response","324","212461","0.0-324.0","32Z9ZLUT1M67S8FQY8DELLKANI5HOU","A1NNDQL6TSWQZB","3THR0FZ95PF7SK0MYRNAOUHTWDJOLG","","null","<img src=""img/land1.png"" style=""width:200px; border:14px solid green;"">","null","","","","","","","","","",""
"","image-keyboard-response","325","212857","0.0-325.0","32Z9ZLUT1M67S8FQY8DELLKANI5HOU","A1NNDQL6TSWQZB","3THR0FZ95PF7SK0MYRNAOUHTWDJOLG","","394","img/land1.png","76","395","3","1","1","2","0.8,0.2,0.2,0.2,0.8,0.2,0.2,0.2,0.8","0.2,0.2,0.8,0.8,0.2,0.2,0.2,0.8,0.2","2","",""
"","html-keyboard-response","326","213165","0.0-326.0","32Z9ZLUT1M67S8FQY8DELLKANI5HOU","A1NNDQL6TSWQZB","3THR0FZ95PF7SK0MYRNAOUHTWDJOLG","","null","<img src=""img/land1.png"" style=""width:200px; border:14px solid green;"">","null","","","","","","","","","",""
"","image-keyboard-response","327","214328","0.0-327.0","32Z9ZLUT1M67S8FQY8DELLKANI5HOU","A1NNDQL6TSWQZB","3THR0FZ95PF7SK0MYRNAOUHTWDJOLG","","1162","img/land5.png","74","1162","1","1","2","2","0.8,0.2,0.2,0.2,0.8,0.2,0.2,0.2,0.8","0.2,0.2,0.8,0.8,0.2,0.2,0.2,0.8,0.2","2","",""
"","html-keyboard-response","328","214637","0.0-328.0","32Z9ZLUT1M67S8FQY8DELLKANI5HOU","A1NNDQL6TSWQZB","3THR0FZ95PF7SK0MYRNAOUHTWDJOLG","","null","<img src=""img/land5.png"" style=""width:200px; border:14px solid green;"">","null","","","","","","","","","",""
"","image-keyboard-response","329","215064","0.0-329.0","32Z9ZLUT1M67S8FQY8DELLKANI5HOU","A1NNDQL6TSWQZB","3THR0FZ95PF7SK0MYRNAOUHTWDJOLG","","426","img/land5.png","74","426","1","1","2","2","0.8,0.2,0.2,0.2,0.8,0.2,0.2,0.2,0.8","0.2,0.2,0.8,0.8,0.2,0.2,0.2,0.8,0.2","2","",""
"","html-keyboard-response","330","215379","0.0-330.0","32Z9ZLUT1M67S8FQY8DELLKANI5HOU","A1NNDQL6TSWQZB","3THR0FZ95PF7SK0MYRNAOUHTWDJOLG","","null","<img src=""img/land5.png"" style=""width:200px; border:14px solid green;"">","null","","","","","","","","","",""
"","image-keyboard-response","331","215761","0.0-331.0","32Z9ZLUT1M67S8FQY8DELLKANI5HOU","A1NNDQL6TSWQZB","3THR0FZ95PF7SK0MYRNAOUHTWDJOLG","","380","img/land5.png","74","381","1","1","2","2","0.8,0.2,0.2,0.2,0.8,0.2,0.2,0.2,0.8","0.2,0.2,0.8,0.8,0.2,0.2,0.2,0.8,0.2","2","",""
"","html-keyboard-response","332","216067","0.0-332.0","32Z9ZLUT1M67S8FQY8DELLKANI5HOU","A1NNDQL6TSWQZB","3THR0FZ95PF7SK0MYRNAOUHTWDJOLG","","null","<img src=""img/land5.png"" style=""width:200px; border:14px solid green;"">","null","","","","","","","","","",""
"","image-keyboard-response","333","216417","0.0-333.0","32Z9ZLUT1M67S8FQY8DELLKANI5HOU","A1NNDQL6TSWQZB","3THR0FZ95PF7SK0MYRNAOUHTWDJOLG","","348","img/land5.png","74","349","1","0","2","2","0.8,0.2,0.2,0.2,0.8,0.2,0.2,0.2,0.8","0.2,0.2,0.8,0.8,0.2,0.2,0.2,0.8,0.2","2","",""
"","html-keyboard-response","334","216725","0.0-334.0","32Z9ZLUT1M67S8FQY8DELLKANI5HOU","A1NNDQL6TSWQZB","3THR0FZ95PF7SK0MYRNAOUHTWDJOLG","","null","<img src=""img/land5.png"" style=""width:200px;border:14px solid red;"">","null","","","","","","","","","",""
"","image-keyboard-response","335","217545","0.0-335.0","32Z9ZLUT1M67S8FQY8DELLKANI5HOU","A1NNDQL6TSWQZB","3THR0FZ95PF7SK0MYRNAOUHTWDJOLG","","818","img/land1.png","76","819","3","1","1","2","0.8,0.2,0.2,0.2,0.8,0.2,0.2,0.2,0.8","0.2,0.2,0.8,0.8,0.2,0.2,0.2,0.8,0.2","2","",""
"","html-keyboard-response","336","217850","0.0-336.0","32Z9ZLUT1M67S8FQY8DELLKANI5HOU","A1NNDQL6TSWQZB","3THR0FZ95PF7SK0MYRNAOUHTWDJOLG","","null","<img src=""img/land1.png"" style=""width:200px; border:14px solid green;"">","null","","","","","","","","","",""
"","image-keyboard-response","337","218472","0.0-337.0","32Z9ZLUT1M67S8FQY8DELLKANI5HOU","A1NNDQL6TSWQZB","3THR0FZ95PF7SK0MYRNAOUHTWDJOLG","","621","img/land3.png","75","622","2","1","3","2","0.8,0.2,0.2,0.2,0.8,0.2,0.2,0.2,0.8","0.2,0.2,0.8,0.8,0.2,0.2,0.2,0.8,0.2","2","",""
"","html-keyboard-response","338","218786","0.0-338.0","32Z9ZLUT1M67S8FQY8DELLKANI5HOU","A1NNDQL6TSWQZB","3THR0FZ95PF7SK0MYRNAOUHTWDJOLG","","null","<img src=""img/land3.png"" style=""width:200px; border:14px solid green;"">","null","","","","","","","","","",""
"","image-keyboard-response","339","219528","0.0-339.0","32Z9ZLUT1M67S8FQY8DELLKANI5HOU","A1NNDQL6TSWQZB","3THR0FZ95PF7SK0MYRNAOUHTWDJOLG","","741","img/land5.png","74","741","1","1","2","2","0.8,0.2,0.2,0.2,0.8,0.2,0.2,0.2,0.8","0.2,0.2,0.8,0.8,0.2,0.2,0.2,0.8,0.2","2","",""
"","html-keyboard-response","340","219831","0.0-340.0","32Z9ZLUT1M67S8FQY8DELLKANI5HOU","A1NNDQL6TSWQZB","3THR0FZ95PF7SK0MYRNAOUHTWDJOLG","","null","<img src=""img/land5.png"" style=""width:200px; border:14px solid green;"">","null","","","","","","","","","",""
"","image-keyboard-response","341","220480","0.0-341.0","32Z9ZLUT1M67S8FQY8DELLKANI5HOU","A1NNDQL6TSWQZB","3THR0FZ95PF7SK0MYRNAOUHTWDJOLG","","649","img/land5.png","74","649","1","1","2","2","0.8,0.2,0.2,0.2,0.8,0.2,0.2,0.2,0.8","0.2,0.2,0.8,0.8,0.2,0.2,0.2,0.8,0.2","2","",""
"","html-keyboard-response","342","220784","0.0-342.0","32Z9ZLUT1M67S8FQY8DELLKANI5HOU","A1NNDQL6TSWQZB","3THR0FZ95PF7SK0MYRNAOUHTWDJOLG","","null","<img src=""img/land5.png"" style=""width:200px; border:14px solid green;"">","null","","","","","","","","","",""
"","image-keyboard-response","343","221535","0.0-343.0","32Z9ZLUT1M67S8FQY8DELLKANI5HOU","A1NNDQL6TSWQZB","3THR0FZ95PF7SK0MYRNAOUHTWDJOLG","","750","img/land1.png","76","751","3","1","1","2","0.8,0.2,0.2,0.2,0.8,0.2,0.2,0.2,0.8","0.2,0.2,0.8,0.8,0.2,0.2,0.2,0.8,0.2","2","",""
"","html-keyboard-response","344","221843","0.0-344.0","32Z9ZLUT1M67S8FQY8DELLKANI5HOU","A1NNDQL6TSWQZB","3THR0FZ95PF7SK0MYRNAOUHTWDJOLG","","null","<img src=""img/land1.png"" style=""width:200px; border:14px solid green;"">","null","","","","","","","","","",""
"","image-keyboard-response","345","223584","0.0-345.0","32Z9ZLUT1M67S8FQY8DELLKANI5HOU","A1NNDQL6TSWQZB","3THR0FZ95PF7SK0MYRNAOUHTWDJOLG","","1740","img/land5.png","74","1740","1","1","2","2","0.8,0.2,0.2,0.2,0.8,0.2,0.2,0.2,0.8","0.2,0.2,0.8,0.8,0.2,0.2,0.2,0.8,0.2","2","",""
"","html-keyboard-response","346","223898","0.0-346.0","32Z9ZLUT1M67S8FQY8DELLKANI5HOU","A1NNDQL6TSWQZB","3THR0FZ95PF7SK0MYRNAOUHTWDJOLG","","null","<img src=""img/land5.png"" style=""width:200px; border:14px solid green;"">","null","","","","","","","","","",""
"","image-keyboard-response","347","224672","0.0-347.0","32Z9ZLUT1M67S8FQY8DELLKANI5HOU","A1NNDQL6TSWQZB","3THR0FZ95PF7SK0MYRNAOUHTWDJOLG","","772","img/land1.png","76","773","3","1","1","2","0.8,0.2,0.2,0.2,0.8,0.2,0.2,0.2,0.8","0.2,0.2,0.8,0.8,0.2,0.2,0.2,0.8,0.2","2","",""
"","html-keyboard-response","348","224987","0.0-348.0","32Z9ZLUT1M67S8FQY8DELLKANI5HOU","A1NNDQL6TSWQZB","3THR0FZ95PF7SK0MYRNAOUHTWDJOLG","","null","<img src=""img/land1.png"" style=""width:200px; border:14px solid green;"">","null","","","","","","","","","",""
"","image-keyboard-response","349","225608","0.0-349.0","32Z9ZLUT1M67S8FQY8DELLKANI5HOU","A1NNDQL6TSWQZB","3THR0FZ95PF7SK0MYRNAOUHTWDJOLG","","619","img/land1.png","76","620","3","1","1","2","0.8,0.2,0.2,0.2,0.8,0.2,0.2,0.2,0.8","0.2,0.2,0.8,0.8,0.2,0.2,0.2,0.8,0.2","2","",""
"","html-keyboard-response","350","225921","0.0-350.0","32Z9ZLUT1M67S8FQY8DELLKANI5HOU","A1NNDQL6TSWQZB","3THR0FZ95PF7SK0MYRNAOUHTWDJOLG","","null","<img src=""img/land1.png"" style=""width:200px; border:14px solid green;"">","null","","","","","","","","","",""
"","image-keyboard-response","351","226328","0.0-351.0","32Z9ZLUT1M67S8FQY8DELLKANI5HOU","A1NNDQL6TSWQZB","3THR0FZ95PF7SK0MYRNAOUHTWDJOLG","","405","img/land1.png","76","406","3","1","1","2","0.8,0.2,0.2,0.2,0.8,0.2,0.2,0.2,0.8","0.2,0.2,0.8,0.8,0.2,0.2,0.2,0.8,0.2","2","",""
"","html-keyboard-response","352","226643","0.0-352.0","32Z9ZLUT1M67S8FQY8DELLKANI5HOU","A1NNDQL6TSWQZB","3THR0FZ95PF7SK0MYRNAOUHTWDJOLG","","null","<img src=""img/land1.png"" style=""width:200px; border:14px solid green;"">","null","","","","","","","","","",""
"","image-keyboard-response","353","227280","0.0-353.0","32Z9ZLUT1M67S8FQY8DELLKANI5HOU","A1NNDQL6TSWQZB","3THR0FZ95PF7SK0MYRNAOUHTWDJOLG","","637","img/land5.png","74","637","1","1","2","2","0.8,0.2,0.2,0.2,0.8,0.2,0.2,0.2,0.8","0.2,0.2,0.8,0.8,0.2,0.2,0.2,0.8,0.2","2","",""
"","html-keyboard-response","354","227597","0.0-354.0","32Z9ZLUT1M67S8FQY8DELLKANI5HOU","A1NNDQL6TSWQZB","3THR0FZ95PF7SK0MYRNAOUHTWDJOLG","","null","<img src=""img/land5.png"" style=""width:200px; border:14px solid green;"">","null","","","","","","","","","",""
"","image-keyboard-response","355","228264","0.0-355.0","32Z9ZLUT1M67S8FQY8DELLKANI5HOU","A1NNDQL6TSWQZB","3THR0FZ95PF7SK0MYRNAOUHTWDJOLG","","666","img/land1.png","76","666","3","1","1","2","0.8,0.2,0.2,0.2,0.8,0.2,0.2,0.2,0.8","0.2,0.2,0.8,0.8,0.2,0.2,0.2,0.8,0.2","2","",""
"","html-keyboard-response","356","228576","0.0-356.0","32Z9ZLUT1M67S8FQY8DELLKANI5HOU","A1NNDQL6TSWQZB","3THR0FZ95PF7SK0MYRNAOUHTWDJOLG","","null","<img src=""img/land1.png"" style=""width:200px; border:14px solid green;"">","null","","","","","","","","","",""
"","image-keyboard-response","357","229264","0.0-357.0","32Z9ZLUT1M67S8FQY8DELLKANI5HOU","A1NNDQL6TSWQZB","3THR0FZ95PF7SK0MYRNAOUHTWDJOLG","","687","img/land3.png","75","687","2","1","3","2","0.8,0.2,0.2,0.2,0.8,0.2,0.2,0.2,0.8","0.2,0.2,0.8,0.8,0.2,0.2,0.2,0.8,0.2","2","",""
"","html-keyboard-response","358","229575","0.0-358.0","32Z9ZLUT1M67S8FQY8DELLKANI5HOU","A1NNDQL6TSWQZB","3THR0FZ95PF7SK0MYRNAOUHTWDJOLG","","null","<img src=""img/land3.png"" style=""width:200px; border:14px solid green;"">","null","","","","","","","","","",""
"","image-keyboard-response","359","230392","0.0-359.0","32Z9ZLUT1M67S8FQY8DELLKANI5HOU","A1NNDQL6TSWQZB","3THR0FZ95PF7SK0MYRNAOUHTWDJOLG","","815","img/land1.png","76","816","3","1","1","2","0.8,0.2,0.2,0.2,0.8,0.2,0.2,0.2,0.8","0.2,0.2,0.8,0.8,0.2,0.2,0.2,0.8,0.2","2","",""
"","html-keyboard-response","360","230697","0.0-360.0","32Z9ZLUT1M67S8FQY8DELLKANI5HOU","A1NNDQL6TSWQZB","3THR0FZ95PF7SK0MYRNAOUHTWDJOLG","","null","<img src=""img/land1.png"" style=""width:200px; border:14px solid green;"">","null","","","","","","","","","",""
"","image-keyboard-response","361","231128","0.0-361.0","32Z9ZLUT1M67S8FQY8DELLKANI5HOU","A1NNDQL6TSWQZB","3THR0FZ95PF7SK0MYRNAOUHTWDJOLG","","431","img/land1.png","76","432","3","0","1","2","0.8,0.2,0.2,0.2,0.8,0.2,0.2,0.2,0.8","0.2,0.2,0.8,0.8,0.2,0.2,0.2,0.8,0.2","2","",""
"","html-keyboard-response","362","231432","0.0-362.0","32Z9ZLUT1M67S8FQY8DELLKANI5HOU","A1NNDQL6TSWQZB","3THR0FZ95PF7SK0MYRNAOUHTWDJOLG","","null","<img src=""img/land1.png"" style=""width:200px;border:14px solid red;"">","null","","","","","","","","","",""
"","image-keyboard-response","363","232184","0.0-363.0","32Z9ZLUT1M67S8FQY8DELLKANI5HOU","A1NNDQL6TSWQZB","3THR0FZ95PF7SK0MYRNAOUHTWDJOLG","","750","img/land5.png","74","752","1","1","2","2","0.8,0.2,0.2,0.2,0.8,0.2,0.2,0.2,0.8","0.2,0.2,0.8,0.8,0.2,0.2,0.2,0.8,0.2","2","",""
"","html-keyboard-response","364","232489","0.0-364.0","32Z9ZLUT1M67S8FQY8DELLKANI5HOU","A1NNDQL6TSWQZB","3THR0FZ95PF7SK0MYRNAOUHTWDJOLG","","null","<img src=""img/land5.png"" style=""width:200px; border:14px solid green;"">","null","","","","","","","","","",""
"","image-keyboard-response","365","234007","0.0-365.0","32Z9ZLUT1M67S8FQY8DELLKANI5HOU","A1NNDQL6TSWQZB","3THR0FZ95PF7SK0MYRNAOUHTWDJOLG","","1517","img/land1.png","76","1517","3","1","1","2","0.8,0.2,0.2,0.2,0.8,0.2,0.2,0.2,0.8","0.2,0.2,0.8,0.8,0.2,0.2,0.2,0.8,0.2","2","",""
"","html-keyboard-response","366","234312","0.0-366.0","32Z9ZLUT1M67S8FQY8DELLKANI5HOU","A1NNDQL6TSWQZB","3THR0FZ95PF7SK0MYRNAOUHTWDJOLG","","null","<img src=""img/land1.png"" style=""width:200px; border:14px solid green;"">","null","","","","","","","","","",""
"","image-keyboard-response","367","234871","0.0-367.0","32Z9ZLUT1M67S8FQY8DELLKANI5HOU","A1NNDQL6TSWQZB","3THR0FZ95PF7SK0MYRNAOUHTWDJOLG","","558","img/land1.png","76","559","3","1","1","2","0.8,0.2,0.2,0.2,0.8,0.2,0.2,0.2,0.8","0.2,0.2,0.8,0.8,0.2,0.2,0.2,0.8,0.2","2","",""
"","html-keyboard-response","368","235175","0.0-368.0","32Z9ZLUT1M67S8FQY8DELLKANI5HOU","A1NNDQL6TSWQZB","3THR0FZ95PF7SK0MYRNAOUHTWDJOLG","","null","<img src=""img/land1.png"" style=""width:200px; border:14px solid green;"">","null","","","","","","","","","",""
"","image-keyboard-response","369","235847","0.0-369.0","32Z9ZLUT1M67S8FQY8DELLKANI5HOU","A1NNDQL6TSWQZB","3THR0FZ95PF7SK0MYRNAOUHTWDJOLG","","672","img/land5.png","74","672","1","1","2","2","0.8,0.2,0.2,0.2,0.8,0.2,0.2,0.2,0.8","0.2,0.2,0.8,0.8,0.2,0.2,0.2,0.8,0.2","2","",""
"","html-keyboard-response","370","236153","0.0-370.0","32Z9ZLUT1M67S8FQY8DELLKANI5HOU","A1NNDQL6TSWQZB","3THR0FZ95PF7SK0MYRNAOUHTWDJOLG","","null","<img src=""img/land5.png"" style=""width:200px; border:14px solid green;"">","null","","","","","","","","","",""
