"success","trial_type","trial_index","time_elapsed","internal_node_id","assignmentID","mturkID","hitID","view_history","rt","stimulus","key_press","reactionTime","a","r","s","reward_cond","responses","question_order"
"true","fullscreen","0","2017","0.0-0.0","3H7Z272LX8TRZ4AH4T5R2DI7DVHLPA","A1OOCYEFLAJD98","3KVQ0UJWPX71V463XQYDOZYIDLRW5D","","","","","","","","","","",""
"","instructions","1","12347","0.0-1.0","3H7Z272LX8TRZ4AH4T5R2DI7DVHLPA","A1OOCYEFLAJD98","3KVQ0UJWPX71V463XQYDOZYIDLRW5D","[{""page_index"":0,""viewing_time"":1088.7000000476837},{""page_index"":1,""viewing_time"":759.0999999046326},{""page_index"":2,""viewing_time"":595},{""page_index"":3,""viewing_time"":3187.9000000953674},{""page_index"":4,""viewing_time"":1404},{""page_index"":5,""viewing_time"":1561},{""page_index"":6,""viewing_time"":1733}]","10329.200000047684","","","","","","","","",""
"","image-keyboard-response","2","14285","0.0-2.0","3H7Z272LX8TRZ4AH4T5R2DI7DVHLPA","A1OOCYEFLAJD98","3KVQ0UJWPX71V463XQYDOZYIDLRW5D","","1937","img/land3.png","74","1937.7999999523163","1","0","3","1,0.7,0.7,0.7,1,0.7,0.7,0.7,1","",""
"","html-keyboard-response","3","14594","0.0-3.0","3H7Z272LX8TRZ4AH4T5R2DI7DVHLPA","A1OOCYEFLAJD98","3KVQ0UJWPX71V463XQYDOZYIDLRW5D","","null","<img src=""img/land3.png"" style=""width:200px;border:14px solid red;"">","null","","","","","","",""
"","image-keyboard-response","4","15769","0.0-4.0","3H7Z272LX8TRZ4AH4T5R2DI7DVHLPA","A1OOCYEFLAJD98","3KVQ0UJWPX71V463XQYDOZYIDLRW5D","","1174.7000000476837","img/land2.png","74","1175.3000001907349","1","1","2","1,0.7,0.7,0.7,1,0.7,0.7,0.7,1","",""
"","html-keyboard-response","5","16071","0.0-5.0","3H7Z272LX8TRZ4AH4T5R2DI7DVHLPA","A1OOCYEFLAJD98","3KVQ0UJWPX71V463XQYDOZYIDLRW5D","","null","<img src=""img/land2.png"" style=""width:200px; border:14px solid green;"">","null","","","","","","",""
"","image-keyboard-response","6","16905","0.0-6.0","3H7Z272LX8TRZ4AH4T5R2DI7DVHLPA","A1OOCYEFLAJD98","3KVQ0UJWPX71V463XQYDOZYIDLRW5D","","834.1000001430511","img/land1.png","76","834.5999999046326","3","0","1","1,0.7,0.7,0.7,1,0.7,0.7,0.7,1","",""
"","html-keyboard-response","7","17218","0.0-7.0","3H7Z272LX8TRZ4AH4T5R2DI7DVHLPA","A1OOCYEFLAJD98","3KVQ0UJWPX71V463XQYDOZYIDLRW5D","","null","<img src=""img/land1.png"" style=""width:200px;border:14px solid red;"">","null","","","","","","",""
"","image-keyboard-response","8","18361","0.0-8.0","3H7Z272LX8TRZ4AH4T5R2DI7DVHLPA","A1OOCYEFLAJD98","3KVQ0UJWPX71V463XQYDOZYIDLRW5D","","1142","img/land3.png","75","1142.5999999046326","2","1","3","1,0.7,0.7,0.7,1,0.7,0.7,0.7,1","",""
"","html-keyboard-response","9","18669","0.0-9.0","3H7Z272LX8TRZ4AH4T5R2DI7DVHLPA","A1OOCYEFLAJD98","3KVQ0UJWPX71V463XQYDOZYIDLRW5D","","null","<img src=""img/land3.png"" style=""width:200px; border:14px solid green;"">","null","","","","","","",""
"","image-keyboard-response","10","19441","0.0-10.0","3H7Z272LX8TRZ4AH4T5R2DI7DVHLPA","A1OOCYEFLAJD98","3KVQ0UJWPX71V463XQYDOZYIDLRW5D","","771.7999999523163","img/land1.png","76","772.4000000953674","3","1","1","1,0.7,0.7,0.7,1,0.7,0.7,0.7,1","",""
"","html-keyboard-response","11","19752","0.0-11.0","3H7Z272LX8TRZ4AH4T5R2DI7DVHLPA","A1OOCYEFLAJD98","3KVQ0UJWPX71V463XQYDOZYIDLRW5D","","null","<img src=""img/land1.png"" style=""width:200px; border:14px solid green;"">","null","","","","","","",""
"","image-keyboard-response","12","20637","0.0-12.0","3H7Z272LX8TRZ4AH4T5R2DI7DVHLPA","A1OOCYEFLAJD98","3KVQ0UJWPX71V463XQYDOZYIDLRW5D","","884.1000001430511","img/land3.png","75","884.5999999046326","2","0","3","1,0.7,0.7,0.7,1,0.7,0.7,0.7,1","",""
"","html-keyboard-response","13","20947","0.0-13.0","3H7Z272LX8TRZ4AH4T5R2DI7DVHLPA","A1OOCYEFLAJD98","3KVQ0UJWPX71V463XQYDOZYIDLRW5D","","null","<img src=""img/land3.png"" style=""width:200px;border:14px solid red;"">","null","","","","","","",""
"","image-keyboard-response","14","22073","0.0-14.0","3H7Z272LX8TRZ4AH4T5R2DI7DVHLPA","A1OOCYEFLAJD98","3KVQ0UJWPX71V463XQYDOZYIDLRW5D","","1124.8999998569489","img/land3.png","76","1125.4000000953674","3","1","3","1,0.7,0.7,0.7,1,0.7,0.7,0.7,1","",""
"","html-keyboard-response","15","22377","0.0-15.0","3H7Z272LX8TRZ4AH4T5R2DI7DVHLPA","A1OOCYEFLAJD98","3KVQ0UJWPX71V463XQYDOZYIDLRW5D","","null","<img src=""img/land3.png"" style=""width:200px; border:14px solid green;"">","null","","","","","","",""
"","image-keyboard-response","16","22801","0.0-16.0","3H7Z272LX8TRZ4AH4T5R2DI7DVHLPA","A1OOCYEFLAJD98","3KVQ0UJWPX71V463XQYDOZYIDLRW5D","","423.89999985694885","img/land3.png","76","424.5","3","1","3","1,0.7,0.7,0.7,1,0.7,0.7,0.7,1","",""
"","html-keyboard-response","17","23109","0.0-17.0","3H7Z272LX8TRZ4AH4T5R2DI7DVHLPA","A1OOCYEFLAJD98","3KVQ0UJWPX71V463XQYDOZYIDLRW5D","","null","<img src=""img/land3.png"" style=""width:200px; border:14px solid green;"">","null","","","","","","",""
"","image-keyboard-response","18","24297","0.0-18.0","3H7Z272LX8TRZ4AH4T5R2DI7DVHLPA","A1OOCYEFLAJD98","3KVQ0UJWPX71V463XQYDOZYIDLRW5D","","1187.8999998569489","img/land2.png","74","1188.3999998569489","1","0","2","1,0.7,0.7,0.7,1,0.7,0.7,0.7,1","",""
"","html-keyboard-response","19","24601","0.0-19.0","3H7Z272LX8TRZ4AH4T5R2DI7DVHLPA","A1OOCYEFLAJD98","3KVQ0UJWPX71V463XQYDOZYIDLRW5D","","null","<img src=""img/land2.png"" style=""width:200px;border:14px solid red;"">","null","","","","","","",""
"","image-keyboard-response","20","25517","0.0-20.0","3H7Z272LX8TRZ4AH4T5R2DI7DVHLPA","A1OOCYEFLAJD98","3KVQ0UJWPX71V463XQYDOZYIDLRW5D","","915.7999999523163","img/land3.png","76","916.3999998569489","3","1","3","1,0.7,0.7,0.7,1,0.7,0.7,0.7,1","",""
"","html-keyboard-response","21","25819","0.0-21.0","3H7Z272LX8TRZ4AH4T5R2DI7DVHLPA","A1OOCYEFLAJD98","3KVQ0UJWPX71V463XQYDOZYIDLRW5D","","null","<img src=""img/land3.png"" style=""width:200px; border:14px solid green;"">","null","","","","","","",""
"","image-keyboard-response","22","26129","0.0-22.0","3H7Z272LX8TRZ4AH4T5R2DI7DVHLPA","A1OOCYEFLAJD98","3KVQ0UJWPX71V463XQYDOZYIDLRW5D","","309.59999990463257","img/land3.png","76","310.10000014305115","3","1","3","1,0.7,0.7,0.7,1,0.7,0.7,0.7,1","",""
"","html-keyboard-response","23","26443","0.0-23.0","3H7Z272LX8TRZ4AH4T5R2DI7DVHLPA","A1OOCYEFLAJD98","3KVQ0UJWPX71V463XQYDOZYIDLRW5D","","null","<img src=""img/land3.png"" style=""width:200px; border:14px solid green;"">","null","","","","","","",""
"","image-keyboard-response","24","27125","0.0-24.0","3H7Z272LX8TRZ4AH4T5R2DI7DVHLPA","A1OOCYEFLAJD98","3KVQ0UJWPX71V463XQYDOZYIDLRW5D","","681.5999999046326","img/land2.png","75","682.2000000476837","2","1","2","1,0.7,0.7,0.7,1,0.7,0.7,0.7,1","",""
"","html-keyboard-response","25","27429","0.0-25.0","3H7Z272LX8TRZ4AH4T5R2DI7DVHLPA","A1OOCYEFLAJD98","3KVQ0UJWPX71V463XQYDOZYIDLRW5D","","null","<img src=""img/land2.png"" style=""width:200px; border:14px solid green;"">","null","","","","","","",""
"","image-keyboard-response","26","27773","0.0-26.0","3H7Z272LX8TRZ4AH4T5R2DI7DVHLPA","A1OOCYEFLAJD98","3KVQ0UJWPX71V463XQYDOZYIDLRW5D","","343.7000000476837","img/land2.png","75","344.2000000476837","2","1","2","1,0.7,0.7,0.7,1,0.7,0.7,0.7,1","",""
"","html-keyboard-response","27","28084","0.0-27.0","3H7Z272LX8TRZ4AH4T5R2DI7DVHLPA","A1OOCYEFLAJD98","3KVQ0UJWPX71V463XQYDOZYIDLRW5D","","null","<img src=""img/land2.png"" style=""width:200px; border:14px solid green;"">","null","","","","","","",""
"","image-keyboard-response","28","28713","0.0-28.0","3H7Z272LX8TRZ4AH4T5R2DI7DVHLPA","A1OOCYEFLAJD98","3KVQ0UJWPX71V463XQYDOZYIDLRW5D","","628.5","img/land1.png","74","629","1","1","1","1,0.7,0.7,0.7,1,0.7,0.7,0.7,1","",""
"","html-keyboard-response","29","29024","0.0-29.0","3H7Z272LX8TRZ4AH4T5R2DI7DVHLPA","A1OOCYEFLAJD98","3KVQ0UJWPX71V463XQYDOZYIDLRW5D","","null","<img src=""img/land1.png"" style=""width:200px; border:14px solid green;"">","null","","","","","","",""
"","image-keyboard-response","30","29317","0.0-30.0","3H7Z272LX8TRZ4AH4T5R2DI7DVHLPA","A1OOCYEFLAJD98","3KVQ0UJWPX71V463XQYDOZYIDLRW5D","","293","img/land1.png","74","293.39999985694885","1","1","1","1,0.7,0.7,0.7,1,0.7,0.7,0.7,1","",""
"","html-keyboard-response","31","29618","0.0-31.0","3H7Z272LX8TRZ4AH4T5R2DI7DVHLPA","A1OOCYEFLAJD98","3KVQ0UJWPX71V463XQYDOZYIDLRW5D","","null","<img src=""img/land1.png"" style=""width:200px; border:14px solid green;"">","null","","","","","","",""
"","image-keyboard-response","32","29973","0.0-32.0","3H7Z272LX8TRZ4AH4T5R2DI7DVHLPA","A1OOCYEFLAJD98","3KVQ0UJWPX71V463XQYDOZYIDLRW5D","","354.60000014305115","img/land1.png","74","355.2000000476837","1","1","1","1,0.7,0.7,0.7,1,0.7,0.7,0.7,1","",""
"","html-keyboard-response","33","30290","0.0-33.0","3H7Z272LX8TRZ4AH4T5R2DI7DVHLPA","A1OOCYEFLAJD98","3KVQ0UJWPX71V463XQYDOZYIDLRW5D","","null","<img src=""img/land1.png"" style=""width:200px; border:14px solid green;"">","null","","","","","","",""
"","image-keyboard-response","34","31229","0.0-34.0","3H7Z272LX8TRZ4AH4T5R2DI7DVHLPA","A1OOCYEFLAJD98","3KVQ0UJWPX71V463XQYDOZYIDLRW5D","","939.0999999046326","img/land2.png","75","939.5999999046326","2","1","2","1,0.7,0.7,0.7,1,0.7,0.7,0.7,1","",""
"","html-keyboard-response","35","31530","0.0-35.0","3H7Z272LX8TRZ4AH4T5R2DI7DVHLPA","A1OOCYEFLAJD98","3KVQ0UJWPX71V463XQYDOZYIDLRW5D","","null","<img src=""img/land2.png"" style=""width:200px; border:14px solid green;"">","null","","","","","","",""
"","image-keyboard-response","36","32662","0.0-36.0","3H7Z272LX8TRZ4AH4T5R2DI7DVHLPA","A1OOCYEFLAJD98","3KVQ0UJWPX71V463XQYDOZYIDLRW5D","","1130.5","img/land1.png","74","1131.0999999046326","1","1","1","1,0.7,0.7,0.7,1,0.7,0.7,0.7,1","",""
"","html-keyboard-response","37","32963","0.0-37.0","3H7Z272LX8TRZ4AH4T5R2DI7DVHLPA","A1OOCYEFLAJD98","3KVQ0UJWPX71V463XQYDOZYIDLRW5D","","null","<img src=""img/land1.png"" style=""width:200px; border:14px solid green;"">","null","","","","","","",""
"","image-keyboard-response","38","33941","0.0-38.0","3H7Z272LX8TRZ4AH4T5R2DI7DVHLPA","A1OOCYEFLAJD98","3KVQ0UJWPX71V463XQYDOZYIDLRW5D","","978","img/land3.png","76","978.5999999046326","3","1","3","1,0.7,0.7,0.7,1,0.7,0.7,0.7,1","",""
"","html-keyboard-response","39","34243","0.0-39.0","3H7Z272LX8TRZ4AH4T5R2DI7DVHLPA","A1OOCYEFLAJD98","3KVQ0UJWPX71V463XQYDOZYIDLRW5D","","null","<img src=""img/land3.png"" style=""width:200px; border:14px solid green;"">","null","","","","","","",""
"","image-keyboard-response","40","45889","0.0-40.0","3H7Z272LX8TRZ4AH4T5R2DI7DVHLPA","A1OOCYEFLAJD98","3KVQ0UJWPX71V463XQYDOZYIDLRW5D","","11646.399999856949","img/land3.png","76","11646.800000190735","3","1","3","1,0.7,0.7,0.7,1,0.7,0.7,0.7,1","",""
"","html-keyboard-response","41","46190","0.0-41.0","3H7Z272LX8TRZ4AH4T5R2DI7DVHLPA","A1OOCYEFLAJD98","3KVQ0UJWPX71V463XQYDOZYIDLRW5D","","null","<img src=""img/land3.png"" style=""width:200px; border:14px solid green;"">","null","","","","","","",""
"","image-keyboard-response","42","47501","0.0-42.0","3H7Z272LX8TRZ4AH4T5R2DI7DVHLPA","A1OOCYEFLAJD98","3KVQ0UJWPX71V463XQYDOZYIDLRW5D","","1310.0999999046326","img/land1.png","74","1310.7999999523163","1","1","1","1,0.7,0.7,0.7,1,0.7,0.7,0.7,1","",""
"","html-keyboard-response","43","47803","0.0-43.0","3H7Z272LX8TRZ4AH4T5R2DI7DVHLPA","A1OOCYEFLAJD98","3KVQ0UJWPX71V463XQYDOZYIDLRW5D","","null","<img src=""img/land1.png"" style=""width:200px; border:14px solid green;"">","null","","","","","","",""
"","image-keyboard-response","44","48393","0.0-44.0","3H7Z272LX8TRZ4AH4T5R2DI7DVHLPA","A1OOCYEFLAJD98","3KVQ0UJWPX71V463XQYDOZYIDLRW5D","","590.2000000476837","img/land3.png","76","590.7000000476837","3","1","3","1,0.7,0.7,0.7,1,0.7,0.7,0.7,1","",""
"","html-keyboard-response","45","48695","0.0-45.0","3H7Z272LX8TRZ4AH4T5R2DI7DVHLPA","A1OOCYEFLAJD98","3KVQ0UJWPX71V463XQYDOZYIDLRW5D","","null","<img src=""img/land3.png"" style=""width:200px; border:14px solid green;"">","null","","","","","","",""
"","image-keyboard-response","46","49093","0.0-46.0","3H7Z272LX8TRZ4AH4T5R2DI7DVHLPA","A1OOCYEFLAJD98","3KVQ0UJWPX71V463XQYDOZYIDLRW5D","","397.89999985694885","img/land2.png","74","398.5","1","1","2","1,0.7,0.7,0.7,1,0.7,0.7,0.7,1","",""
"","html-keyboard-response","47","49394","0.0-47.0","3H7Z272LX8TRZ4AH4T5R2DI7DVHLPA","A1OOCYEFLAJD98","3KVQ0UJWPX71V463XQYDOZYIDLRW5D","","null","<img src=""img/land2.png"" style=""width:200px; border:14px solid green;"">","null","","","","","","",""
"","image-keyboard-response","48","50313","0.0-48.0","3H7Z272LX8TRZ4AH4T5R2DI7DVHLPA","A1OOCYEFLAJD98","3KVQ0UJWPX71V463XQYDOZYIDLRW5D","","918.2999999523163","img/land3.png","76","918.7000000476837","3","1","3","1,0.7,0.7,0.7,1,0.7,0.7,0.7,1","",""
"","html-keyboard-response","49","50614","0.0-49.0","3H7Z272LX8TRZ4AH4T5R2DI7DVHLPA","A1OOCYEFLAJD98","3KVQ0UJWPX71V463XQYDOZYIDLRW5D","","null","<img src=""img/land3.png"" style=""width:200px; border:14px solid green;"">","null","","","","","","",""
"","image-keyboard-response","50","52061","0.0-50.0","3H7Z272LX8TRZ4AH4T5R2DI7DVHLPA","A1OOCYEFLAJD98","3KVQ0UJWPX71V463XQYDOZYIDLRW5D","","1446.3999998569489","img/land1.png","74","1446.9000000953674","1","1","1","1,0.7,0.7,0.7,1,0.7,0.7,0.7,1","",""
"","html-keyboard-response","51","52363","0.0-51.0","3H7Z272LX8TRZ4AH4T5R2DI7DVHLPA","A1OOCYEFLAJD98","3KVQ0UJWPX71V463XQYDOZYIDLRW5D","","null","<img src=""img/land1.png"" style=""width:200px; border:14px solid green;"">","null","","","","","","",""
"","image-keyboard-response","52","52801","0.0-52.0","3H7Z272LX8TRZ4AH4T5R2DI7DVHLPA","A1OOCYEFLAJD98","3KVQ0UJWPX71V463XQYDOZYIDLRW5D","","438","img/land1.png","74","438.5","1","1","1","1,0.7,0.7,0.7,1,0.7,0.7,0.7,1","",""
"","html-keyboard-response","53","53102","0.0-53.0","3H7Z272LX8TRZ4AH4T5R2DI7DVHLPA","A1OOCYEFLAJD98","3KVQ0UJWPX71V463XQYDOZYIDLRW5D","","null","<img src=""img/land1.png"" style=""width:200px; border:14px solid green;"">","null","","","","","","",""
"","image-keyboard-response","54","53545","0.0-54.0","3H7Z272LX8TRZ4AH4T5R2DI7DVHLPA","A1OOCYEFLAJD98","3KVQ0UJWPX71V463XQYDOZYIDLRW5D","","442.7999999523163","img/land2.png","75","443.2999999523163","2","1","2","1,0.7,0.7,0.7,1,0.7,0.7,0.7,1","",""
"","html-keyboard-response","55","53847","0.0-55.0","3H7Z272LX8TRZ4AH4T5R2DI7DVHLPA","A1OOCYEFLAJD98","3KVQ0UJWPX71V463XQYDOZYIDLRW5D","","null","<img src=""img/land2.png"" style=""width:200px; border:14px solid green;"">","null","","","","","","",""
"","image-keyboard-response","56","54177","0.0-56.0","3H7Z272LX8TRZ4AH4T5R2DI7DVHLPA","A1OOCYEFLAJD98","3KVQ0UJWPX71V463XQYDOZYIDLRW5D","","329.60000014305115","img/land2.png","75","330","2","1","2","1,0.7,0.7,0.7,1,0.7,0.7,0.7,1","",""
"","html-keyboard-response","57","54479","0.0-57.0","3H7Z272LX8TRZ4AH4T5R2DI7DVHLPA","A1OOCYEFLAJD98","3KVQ0UJWPX71V463XQYDOZYIDLRW5D","","null","<img src=""img/land2.png"" style=""width:200px; border:14px solid green;"">","null","","","","","","",""
"","image-keyboard-response","58","54825","0.0-58.0","3H7Z272LX8TRZ4AH4T5R2DI7DVHLPA","A1OOCYEFLAJD98","3KVQ0UJWPX71V463XQYDOZYIDLRW5D","","346.09999990463257","img/land2.png","75","346.5","2","1","2","1,0.7,0.7,0.7,1,0.7,0.7,0.7,1","",""
"","html-keyboard-response","59","55127","0.0-59.0","3H7Z272LX8TRZ4AH4T5R2DI7DVHLPA","A1OOCYEFLAJD98","3KVQ0UJWPX71V463XQYDOZYIDLRW5D","","null","<img src=""img/land2.png"" style=""width:200px; border:14px solid green;"">","null","","","","","","",""
"","image-keyboard-response","60","55669","0.0-60.0","3H7Z272LX8TRZ4AH4T5R2DI7DVHLPA","A1OOCYEFLAJD98","3KVQ0UJWPX71V463XQYDOZYIDLRW5D","","542.0999999046326","img/land1.png","74","542.5","1","1","1","1,0.7,0.7,0.7,1,0.7,0.7,0.7,1","",""
"","html-keyboard-response","61","55971","0.0-61.0","3H7Z272LX8TRZ4AH4T5R2DI7DVHLPA","A1OOCYEFLAJD98","3KVQ0UJWPX71V463XQYDOZYIDLRW5D","","null","<img src=""img/land1.png"" style=""width:200px; border:14px solid green;"">","null","","","","","","",""
"","image-keyboard-response","62","56521","0.0-62.0","3H7Z272LX8TRZ4AH4T5R2DI7DVHLPA","A1OOCYEFLAJD98","3KVQ0UJWPX71V463XQYDOZYIDLRW5D","","549.9000000953674","img/land3.png","76","550.4000000953674","3","1","3","1,0.7,0.7,0.7,1,0.7,0.7,0.7,1","",""
"","html-keyboard-response","63","56823","0.0-63.0","3H7Z272LX8TRZ4AH4T5R2DI7DVHLPA","A1OOCYEFLAJD98","3KVQ0UJWPX71V463XQYDOZYIDLRW5D","","null","<img src=""img/land3.png"" style=""width:200px; border:14px solid green;"">","null","","","","","","",""
"","image-keyboard-response","64","57509","0.0-64.0","3H7Z272LX8TRZ4AH4T5R2DI7DVHLPA","A1OOCYEFLAJD98","3KVQ0UJWPX71V463XQYDOZYIDLRW5D","","686.0999999046326","img/land1.png","74","686.7000000476837","1","1","1","1,0.7,0.7,0.7,1,0.7,0.7,0.7,1","",""
"","html-keyboard-response","65","57812","0.0-65.0","3H7Z272LX8TRZ4AH4T5R2DI7DVHLPA","A1OOCYEFLAJD98","3KVQ0UJWPX71V463XQYDOZYIDLRW5D","","null","<img src=""img/land1.png"" style=""width:200px; border:14px solid green;"">","null","","","","","","",""
"","image-keyboard-response","66","58185","0.0-66.0","3H7Z272LX8TRZ4AH4T5R2DI7DVHLPA","A1OOCYEFLAJD98","3KVQ0UJWPX71V463XQYDOZYIDLRW5D","","372.89999985694885","img/land1.png","74","373.2999999523163","1","1","1","1,0.7,0.7,0.7,1,0.7,0.7,0.7,1","",""
"","html-keyboard-response","67","58486","0.0-67.0","3H7Z272LX8TRZ4AH4T5R2DI7DVHLPA","A1OOCYEFLAJD98","3KVQ0UJWPX71V463XQYDOZYIDLRW5D","","null","<img src=""img/land1.png"" style=""width:200px; border:14px solid green;"">","null","","","","","","",""
"","image-keyboard-response","68","58989","0.0-68.0","3H7Z272LX8TRZ4AH4T5R2DI7DVHLPA","A1OOCYEFLAJD98","3KVQ0UJWPX71V463XQYDOZYIDLRW5D","","502.19999980926514","img/land2.png","75","502.7000000476837","2","1","2","1,0.7,0.7,0.7,1,0.7,0.7,0.7,1","",""
"","html-keyboard-response","69","59290","0.0-69.0","3H7Z272LX8TRZ4AH4T5R2DI7DVHLPA","A1OOCYEFLAJD98","3KVQ0UJWPX71V463XQYDOZYIDLRW5D","","null","<img src=""img/land2.png"" style=""width:200px; border:14px solid green;"">","null","","","","","","",""
"","image-keyboard-response","70","59989","0.0-70.0","3H7Z272LX8TRZ4AH4T5R2DI7DVHLPA","A1OOCYEFLAJD98","3KVQ0UJWPX71V463XQYDOZYIDLRW5D","","698.5","img/land3.png","76","699","3","1","3","1,0.7,0.7,0.7,1,0.7,0.7,0.7,1","",""
"","html-keyboard-response","71","60290","0.0-71.0","3H7Z272LX8TRZ4AH4T5R2DI7DVHLPA","A1OOCYEFLAJD98","3KVQ0UJWPX71V463XQYDOZYIDLRW5D","","null","<img src=""img/land3.png"" style=""width:200px; border:14px solid green;"">","null","","","","","","",""
"","image-keyboard-response","72","61101","0.0-72.0","3H7Z272LX8TRZ4AH4T5R2DI7DVHLPA","A1OOCYEFLAJD98","3KVQ0UJWPX71V463XQYDOZYIDLRW5D","","810.7999999523163","img/land1.png","74","811.2999999523163","1","1","1","1,0.7,0.7,0.7,1,0.7,0.7,0.7,1","",""
"","html-keyboard-response","73","61403","0.0-73.0","3H7Z272LX8TRZ4AH4T5R2DI7DVHLPA","A1OOCYEFLAJD98","3KVQ0UJWPX71V463XQYDOZYIDLRW5D","","null","<img src=""img/land1.png"" style=""width:200px; border:14px solid green;"">","null","","","","","","",""
"","image-keyboard-response","74","61717","0.0-74.0","3H7Z272LX8TRZ4AH4T5R2DI7DVHLPA","A1OOCYEFLAJD98","3KVQ0UJWPX71V463XQYDOZYIDLRW5D","","314.19999980926514","img/land1.png","74","314.7000000476837","1","1","1","1,0.7,0.7,0.7,1,0.7,0.7,0.7,1","",""
"","html-keyboard-response","75","62019","0.0-75.0","3H7Z272LX8TRZ4AH4T5R2DI7DVHLPA","A1OOCYEFLAJD98","3KVQ0UJWPX71V463XQYDOZYIDLRW5D","","null","<img src=""img/land1.png"" style=""width:200px; border:14px solid green;"">","null","","","","","","",""
"","image-keyboard-response","76","62357","0.0-76.0","3H7Z272LX8TRZ4AH4T5R2DI7DVHLPA","A1OOCYEFLAJD98","3KVQ0UJWPX71V463XQYDOZYIDLRW5D","","337.89999985694885","img/land1.png","74","338.39999985694885","1","1","1","1,0.7,0.7,0.7,1,0.7,0.7,0.7,1","",""
"","html-keyboard-response","77","62659","0.0-77.0","3H7Z272LX8TRZ4AH4T5R2DI7DVHLPA","A1OOCYEFLAJD98","3KVQ0UJWPX71V463XQYDOZYIDLRW5D","","null","<img src=""img/land1.png"" style=""width:200px; border:14px solid green;"">","null","","","","","","",""
"","image-keyboard-response","78","63025","0.0-78.0","3H7Z272LX8TRZ4AH4T5R2DI7DVHLPA","A1OOCYEFLAJD98","3KVQ0UJWPX71V463XQYDOZYIDLRW5D","","365.7999999523163","img/land1.png","74","366.5","1","1","1","1,0.7,0.7,0.7,1,0.7,0.7,0.7,1","",""
"","html-keyboard-response","79","63327","0.0-79.0","3H7Z272LX8TRZ4AH4T5R2DI7DVHLPA","A1OOCYEFLAJD98","3KVQ0UJWPX71V463XQYDOZYIDLRW5D","","null","<img src=""img/land1.png"" style=""width:200px; border:14px solid green;"">","null","","","","","","",""
"","image-keyboard-response","80","63865","0.0-80.0","3H7Z272LX8TRZ4AH4T5R2DI7DVHLPA","A1OOCYEFLAJD98","3KVQ0UJWPX71V463XQYDOZYIDLRW5D","","537.2999999523163","img/land2.png","75","537.7999999523163","2","1","2","1,0.7,0.7,0.7,1,0.7,0.7,0.7,1","",""
"","html-keyboard-response","81","64166","0.0-81.0","3H7Z272LX8TRZ4AH4T5R2DI7DVHLPA","A1OOCYEFLAJD98","3KVQ0UJWPX71V463XQYDOZYIDLRW5D","","null","<img src=""img/land2.png"" style=""width:200px; border:14px solid green;"">","null","","","","","","",""
"","image-keyboard-response","82","64773","0.0-82.0","3H7Z272LX8TRZ4AH4T5R2DI7DVHLPA","A1OOCYEFLAJD98","3KVQ0UJWPX71V463XQYDOZYIDLRW5D","","606.8999998569489","img/land1.png","74","607.2000000476837","1","1","1","1,0.7,0.7,0.7,1,0.7,0.7,0.7,1","",""
"","html-keyboard-response","83","65075","0.0-83.0","3H7Z272LX8TRZ4AH4T5R2DI7DVHLPA","A1OOCYEFLAJD98","3KVQ0UJWPX71V463XQYDOZYIDLRW5D","","null","<img src=""img/land1.png"" style=""width:200px; border:14px solid green;"">","null","","","","","","",""
"","image-keyboard-response","84","65473","0.0-84.0","3H7Z272LX8TRZ4AH4T5R2DI7DVHLPA","A1OOCYEFLAJD98","3KVQ0UJWPX71V463XQYDOZYIDLRW5D","","397.89999985694885","img/land2.png","75","398.5","2","1","2","1,0.7,0.7,0.7,1,0.7,0.7,0.7,1","",""
"","html-keyboard-response","85","65775","0.0-85.0","3H7Z272LX8TRZ4AH4T5R2DI7DVHLPA","A1OOCYEFLAJD98","3KVQ0UJWPX71V463XQYDOZYIDLRW5D","","null","<img src=""img/land2.png"" style=""width:200px; border:14px solid green;"">","null","","","","","","",""
"","image-keyboard-response","86","66129","0.0-86.0","3H7Z272LX8TRZ4AH4T5R2DI7DVHLPA","A1OOCYEFLAJD98","3KVQ0UJWPX71V463XQYDOZYIDLRW5D","","354.09999990463257","img/land2.png","75","354.59999990463257","2","1","2","1,0.7,0.7,0.7,1,0.7,0.7,0.7,1","",""
"","html-keyboard-response","87","66431","0.0-87.0","3H7Z272LX8TRZ4AH4T5R2DI7DVHLPA","A1OOCYEFLAJD98","3KVQ0UJWPX71V463XQYDOZYIDLRW5D","","null","<img src=""img/land2.png"" style=""width:200px; border:14px solid green;"">","null","","","","","","",""
"","image-keyboard-response","88","66797","0.0-88.0","3H7Z272LX8TRZ4AH4T5R2DI7DVHLPA","A1OOCYEFLAJD98","3KVQ0UJWPX71V463XQYDOZYIDLRW5D","","366.2000000476837","img/land2.png","75","366.60000014305115","2","1","2","1,0.7,0.7,0.7,1,0.7,0.7,0.7,1","",""
"","html-keyboard-response","89","67099","0.0-89.0","3H7Z272LX8TRZ4AH4T5R2DI7DVHLPA","A1OOCYEFLAJD98","3KVQ0UJWPX71V463XQYDOZYIDLRW5D","","null","<img src=""img/land2.png"" style=""width:200px; border:14px solid green;"">","null","","","","","","",""
"","image-keyboard-response","90","67677","0.0-90.0","3H7Z272LX8TRZ4AH4T5R2DI7DVHLPA","A1OOCYEFLAJD98","3KVQ0UJWPX71V463XQYDOZYIDLRW5D","","578","img/land1.png","74","578.5","1","1","1","1,0.7,0.7,0.7,1,0.7,0.7,0.7,1","",""
"","html-keyboard-response","91","67978","0.0-91.0","3H7Z272LX8TRZ4AH4T5R2DI7DVHLPA","A1OOCYEFLAJD98","3KVQ0UJWPX71V463XQYDOZYIDLRW5D","","null","<img src=""img/land1.png"" style=""width:200px; border:14px solid green;"">","null","","","","","","",""
"","image-keyboard-response","92","68405","0.0-92.0","3H7Z272LX8TRZ4AH4T5R2DI7DVHLPA","A1OOCYEFLAJD98","3KVQ0UJWPX71V463XQYDOZYIDLRW5D","","426.19999980926514","img/land2.png","75","426.7999999523163","2","1","2","1,0.7,0.7,0.7,1,0.7,0.7,0.7,1","",""
"","html-keyboard-response","93","68706","0.0-93.0","3H7Z272LX8TRZ4AH4T5R2DI7DVHLPA","A1OOCYEFLAJD98","3KVQ0UJWPX71V463XQYDOZYIDLRW5D","","null","<img src=""img/land2.png"" style=""width:200px; border:14px solid green;"">","null","","","","","","",""
"","image-keyboard-response","94","69085","0.0-94.0","3H7Z272LX8TRZ4AH4T5R2DI7DVHLPA","A1OOCYEFLAJD98","3KVQ0UJWPX71V463XQYDOZYIDLRW5D","","378.19999980926514","img/land2.png","75","378.7000000476837","2","1","2","1,0.7,0.7,0.7,1,0.7,0.7,0.7,1","",""
"","html-keyboard-response","95","69386","0.0-95.0","3H7Z272LX8TRZ4AH4T5R2DI7DVHLPA","A1OOCYEFLAJD98","3KVQ0UJWPX71V463XQYDOZYIDLRW5D","","null","<img src=""img/land2.png"" style=""width:200px; border:14px solid green;"">","null","","","","","","",""
"","image-keyboard-response","96","69765","0.0-96.0","3H7Z272LX8TRZ4AH4T5R2DI7DVHLPA","A1OOCYEFLAJD98","3KVQ0UJWPX71V463XQYDOZYIDLRW5D","","378.5","img/land3.png","76","379","3","1","3","1,0.7,0.7,0.7,1,0.7,0.7,0.7,1","",""
"","html-keyboard-response","97","70067","0.0-97.0","3H7Z272LX8TRZ4AH4T5R2DI7DVHLPA","A1OOCYEFLAJD98","3KVQ0UJWPX71V463XQYDOZYIDLRW5D","","null","<img src=""img/land3.png"" style=""width:200px; border:14px solid green;"">","null","","","","","","",""
"","image-keyboard-response","98","70633","0.0-98.0","3H7Z272LX8TRZ4AH4T5R2DI7DVHLPA","A1OOCYEFLAJD98","3KVQ0UJWPX71V463XQYDOZYIDLRW5D","","566","img/land2.png","75","566.5","2","1","2","1,0.7,0.7,0.7,1,0.7,0.7,0.7,1","",""
"","html-keyboard-response","99","70934","0.0-99.0","3H7Z272LX8TRZ4AH4T5R2DI7DVHLPA","A1OOCYEFLAJD98","3KVQ0UJWPX71V463XQYDOZYIDLRW5D","","null","<img src=""img/land2.png"" style=""width:200px; border:14px solid green;"">","null","","","","","","",""
"","image-keyboard-response","100","71473","0.0-100.0","3H7Z272LX8TRZ4AH4T5R2DI7DVHLPA","A1OOCYEFLAJD98","3KVQ0UJWPX71V463XQYDOZYIDLRW5D","","538.5","img/land1.png","74","539","1","1","1","1,0.7,0.7,0.7,1,0.7,0.7,0.7,1","",""
"","html-keyboard-response","101","71776","0.0-101.0","3H7Z272LX8TRZ4AH4T5R2DI7DVHLPA","A1OOCYEFLAJD98","3KVQ0UJWPX71V463XQYDOZYIDLRW5D","","null","<img src=""img/land1.png"" style=""width:200px; border:14px solid green;"">","null","","","","","","",""
"","image-keyboard-response","102","72329","0.0-102.0","3H7Z272LX8TRZ4AH4T5R2DI7DVHLPA","A1OOCYEFLAJD98","3KVQ0UJWPX71V463XQYDOZYIDLRW5D","","553.2999999523163","img/land3.png","76","553.8000001907349","3","1","3","1,0.7,0.7,0.7,1,0.7,0.7,0.7,1","",""
"","html-keyboard-response","103","72631","0.0-103.0","3H7Z272LX8TRZ4AH4T5R2DI7DVHLPA","A1OOCYEFLAJD98","3KVQ0UJWPX71V463XQYDOZYIDLRW5D","","null","<img src=""img/land3.png"" style=""width:200px; border:14px solid green;"">","null","","","","","","",""
"","image-keyboard-response","104","73257","0.0-104.0","3H7Z272LX8TRZ4AH4T5R2DI7DVHLPA","A1OOCYEFLAJD98","3KVQ0UJWPX71V463XQYDOZYIDLRW5D","","625.7999999523163","img/land2.png","75","626.2000000476837","2","1","2","1,0.7,0.7,0.7,1,0.7,0.7,0.7,1","",""
"","html-keyboard-response","105","73558","0.0-105.0","3H7Z272LX8TRZ4AH4T5R2DI7DVHLPA","A1OOCYEFLAJD98","3KVQ0UJWPX71V463XQYDOZYIDLRW5D","","null","<img src=""img/land2.png"" style=""width:200px; border:14px solid green;"">","null","","","","","","",""
"","image-keyboard-response","106","74113","0.0-106.0","3H7Z272LX8TRZ4AH4T5R2DI7DVHLPA","A1OOCYEFLAJD98","3KVQ0UJWPX71V463XQYDOZYIDLRW5D","","554.2999999523163","img/land3.png","76","554.9000000953674","3","1","3","1,0.7,0.7,0.7,1,0.7,0.7,0.7,1","",""
"","html-keyboard-response","107","74415","0.0-107.0","3H7Z272LX8TRZ4AH4T5R2DI7DVHLPA","A1OOCYEFLAJD98","3KVQ0UJWPX71V463XQYDOZYIDLRW5D","","null","<img src=""img/land3.png"" style=""width:200px; border:14px solid green;"">","null","","","","","","",""
"","image-keyboard-response","108","75057","0.0-108.0","3H7Z272LX8TRZ4AH4T5R2DI7DVHLPA","A1OOCYEFLAJD98","3KVQ0UJWPX71V463XQYDOZYIDLRW5D","","642.1000001430511","img/land1.png","74","642.5999999046326","1","1","1","1,0.7,0.7,0.7,1,0.7,0.7,0.7,1","",""
"","html-keyboard-response","109","75359","0.0-109.0","3H7Z272LX8TRZ4AH4T5R2DI7DVHLPA","A1OOCYEFLAJD98","3KVQ0UJWPX71V463XQYDOZYIDLRW5D","","null","<img src=""img/land1.png"" style=""width:200px; border:14px solid green;"">","null","","","","","","",""
"","image-keyboard-response","110","75849","0.0-110.0","3H7Z272LX8TRZ4AH4T5R2DI7DVHLPA","A1OOCYEFLAJD98","3KVQ0UJWPX71V463XQYDOZYIDLRW5D","","489.7999999523163","img/land3.png","76","490.40000009536743","3","1","3","1,0.7,0.7,0.7,1,0.7,0.7,0.7,1","",""
"","html-keyboard-response","111","76150","0.0-111.0","3H7Z272LX8TRZ4AH4T5R2DI7DVHLPA","A1OOCYEFLAJD98","3KVQ0UJWPX71V463XQYDOZYIDLRW5D","","null","<img src=""img/land3.png"" style=""width:200px; border:14px solid green;"">","null","","","","","","",""
"","image-keyboard-response","112","76541","0.0-112.0","3H7Z272LX8TRZ4AH4T5R2DI7DVHLPA","A1OOCYEFLAJD98","3KVQ0UJWPX71V463XQYDOZYIDLRW5D","","390.59999990463257","img/land3.png","76","391.10000014305115","3","1","3","1,0.7,0.7,0.7,1,0.7,0.7,0.7,1","",""
"","html-keyboard-response","113","76842","0.0-113.0","3H7Z272LX8TRZ4AH4T5R2DI7DVHLPA","A1OOCYEFLAJD98","3KVQ0UJWPX71V463XQYDOZYIDLRW5D","","null","<img src=""img/land3.png"" style=""width:200px; border:14px solid green;"">","null","","","","","","",""
"","image-keyboard-response","114","77382","0.0-114.0","3H7Z272LX8TRZ4AH4T5R2DI7DVHLPA","A1OOCYEFLAJD98","3KVQ0UJWPX71V463XQYDOZYIDLRW5D","","538.6000001430511","img/land2.png","75","539.0999999046326","2","1","2","1,0.7,0.7,0.7,1,0.7,0.7,0.7,1","",""
"","html-keyboard-response","115","77683","0.0-115.0","3H7Z272LX8TRZ4AH4T5R2DI7DVHLPA","A1OOCYEFLAJD98","3KVQ0UJWPX71V463XQYDOZYIDLRW5D","","null","<img src=""img/land2.png"" style=""width:200px; border:14px solid green;"">","null","","","","","","",""
"","image-keyboard-response","116","78177","0.0-116.0","3H7Z272LX8TRZ4AH4T5R2DI7DVHLPA","A1OOCYEFLAJD98","3KVQ0UJWPX71V463XQYDOZYIDLRW5D","","493.59999990463257","img/land3.png","76","494.2000000476837","3","1","3","1,0.7,0.7,0.7,1,0.7,0.7,0.7,1","",""
"","html-keyboard-response","117","78479","0.0-117.0","3H7Z272LX8TRZ4AH4T5R2DI7DVHLPA","A1OOCYEFLAJD98","3KVQ0UJWPX71V463XQYDOZYIDLRW5D","","null","<img src=""img/land3.png"" style=""width:200px; border:14px solid green;"">","null","","","","","","",""
"","image-keyboard-response","118","78849","0.0-118.0","3H7Z272LX8TRZ4AH4T5R2DI7DVHLPA","A1OOCYEFLAJD98","3KVQ0UJWPX71V463XQYDOZYIDLRW5D","","370.19999980926514","img/land3.png","76","370.60000014305115","3","1","3","1,0.7,0.7,0.7,1,0.7,0.7,0.7,1","",""
"","html-keyboard-response","119","79152","0.0-119.0","3H7Z272LX8TRZ4AH4T5R2DI7DVHLPA","A1OOCYEFLAJD98","3KVQ0UJWPX71V463XQYDOZYIDLRW5D","","null","<img src=""img/land3.png"" style=""width:200px; border:14px solid green;"">","null","","","","","","",""
"","image-keyboard-response","120","79533","0.0-120.0","3H7Z272LX8TRZ4AH4T5R2DI7DVHLPA","A1OOCYEFLAJD98","3KVQ0UJWPX71V463XQYDOZYIDLRW5D","","381","img/land3.png","76","381.5","3","1","3","1,0.7,0.7,0.7,1,0.7,0.7,0.7,1","",""
"","html-keyboard-response","121","79835","0.0-121.0","3H7Z272LX8TRZ4AH4T5R2DI7DVHLPA","A1OOCYEFLAJD98","3KVQ0UJWPX71V463XQYDOZYIDLRW5D","","null","<img src=""img/land3.png"" style=""width:200px; border:14px solid green;"">","null","","","","","","",""
"","image-keyboard-response","122","80313","0.0-122.0","3H7Z272LX8TRZ4AH4T5R2DI7DVHLPA","A1OOCYEFLAJD98","3KVQ0UJWPX71V463XQYDOZYIDLRW5D","","477.59999990463257","img/land2.png","75","478.09999990463257","2","1","2","1,0.7,0.7,0.7,1,0.7,0.7,0.7,1","",""
"","html-keyboard-response","123","80615","0.0-123.0","3H7Z272LX8TRZ4AH4T5R2DI7DVHLPA","A1OOCYEFLAJD98","3KVQ0UJWPX71V463XQYDOZYIDLRW5D","","null","<img src=""img/land2.png"" style=""width:200px; border:14px solid green;"">","null","","","","","","",""
"","image-keyboard-response","124","81153","0.0-124.0","3H7Z272LX8TRZ4AH4T5R2DI7DVHLPA","A1OOCYEFLAJD98","3KVQ0UJWPX71V463XQYDOZYIDLRW5D","","537.3999998569489","img/land1.png","74","538","1","1","1","1,0.7,0.7,0.7,1,0.7,0.7,0.7,1","",""
"","html-keyboard-response","125","81454","0.0-125.0","3H7Z272LX8TRZ4AH4T5R2DI7DVHLPA","A1OOCYEFLAJD98","3KVQ0UJWPX71V463XQYDOZYIDLRW5D","","null","<img src=""img/land1.png"" style=""width:200px; border:14px solid green;"">","null","","","","","","",""
"","image-keyboard-response","126","81961","0.0-126.0","3H7Z272LX8TRZ4AH4T5R2DI7DVHLPA","A1OOCYEFLAJD98","3KVQ0UJWPX71V463XQYDOZYIDLRW5D","","506.5","img/land3.png","76","507","3","1","3","1,0.7,0.7,0.7,1,0.7,0.7,0.7,1","",""
"","html-keyboard-response","127","82262","0.0-127.0","3H7Z272LX8TRZ4AH4T5R2DI7DVHLPA","A1OOCYEFLAJD98","3KVQ0UJWPX71V463XQYDOZYIDLRW5D","","null","<img src=""img/land3.png"" style=""width:200px; border:14px solid green;"">","null","","","","","","",""
"","image-keyboard-response","128","82669","0.0-128.0","3H7Z272LX8TRZ4AH4T5R2DI7DVHLPA","A1OOCYEFLAJD98","3KVQ0UJWPX71V463XQYDOZYIDLRW5D","","406.5","img/land3.png","76","407","3","1","3","1,0.7,0.7,0.7,1,0.7,0.7,0.7,1","",""
"","html-keyboard-response","129","82970","0.0-129.0","3H7Z272LX8TRZ4AH4T5R2DI7DVHLPA","A1OOCYEFLAJD98","3KVQ0UJWPX71V463XQYDOZYIDLRW5D","","null","<img src=""img/land3.png"" style=""width:200px; border:14px solid green;"">","null","","","","","","",""
"","image-keyboard-response","130","83961","0.0-130.0","3H7Z272LX8TRZ4AH4T5R2DI7DVHLPA","A1OOCYEFLAJD98","3KVQ0UJWPX71V463XQYDOZYIDLRW5D","","990.2000000476837","img/land1.png","74","990.7999999523163","1","1","1","1,0.7,0.7,0.7,1,0.7,0.7,0.7,1","",""
"","html-keyboard-response","131","84262","0.0-131.0","3H7Z272LX8TRZ4AH4T5R2DI7DVHLPA","A1OOCYEFLAJD98","3KVQ0UJWPX71V463XQYDOZYIDLRW5D","","null","<img src=""img/land1.png"" style=""width:200px; border:14px solid green;"">","null","","","","","","",""
"","image-keyboard-response","132","84881","0.0-132.0","3H7Z272LX8TRZ4AH4T5R2DI7DVHLPA","A1OOCYEFLAJD98","3KVQ0UJWPX71V463XQYDOZYIDLRW5D","","618","img/land3.png","76","618.5","3","1","3","1,0.7,0.7,0.7,1,0.7,0.7,0.7,1","",""
"","html-keyboard-response","133","85182","0.0-133.0","3H7Z272LX8TRZ4AH4T5R2DI7DVHLPA","A1OOCYEFLAJD98","3KVQ0UJWPX71V463XQYDOZYIDLRW5D","","null","<img src=""img/land3.png"" style=""width:200px; border:14px solid green;"">","null","","","","","","",""
"","image-keyboard-response","134","85541","0.0-134.0","3H7Z272LX8TRZ4AH4T5R2DI7DVHLPA","A1OOCYEFLAJD98","3KVQ0UJWPX71V463XQYDOZYIDLRW5D","","358","img/land3.png","76","358.59999990463257","3","1","3","1,0.7,0.7,0.7,1,0.7,0.7,0.7,1","",""
"","html-keyboard-response","135","85842","0.0-135.0","3H7Z272LX8TRZ4AH4T5R2DI7DVHLPA","A1OOCYEFLAJD98","3KVQ0UJWPX71V463XQYDOZYIDLRW5D","","null","<img src=""img/land3.png"" style=""width:200px; border:14px solid green;"">","null","","","","","","",""
"","image-keyboard-response","136","86433","0.0-136.0","3H7Z272LX8TRZ4AH4T5R2DI7DVHLPA","A1OOCYEFLAJD98","3KVQ0UJWPX71V463XQYDOZYIDLRW5D","","589.7000000476837","img/land2.png","75","590.3000001907349","2","1","2","1,0.7,0.7,0.7,1,0.7,0.7,0.7,1","",""
"","html-keyboard-response","137","86735","0.0-137.0","3H7Z272LX8TRZ4AH4T5R2DI7DVHLPA","A1OOCYEFLAJD98","3KVQ0UJWPX71V463XQYDOZYIDLRW5D","","null","<img src=""img/land2.png"" style=""width:200px; border:14px solid green;"">","null","","","","","","",""
"","image-keyboard-response","138","87080","0.0-138.0","3H7Z272LX8TRZ4AH4T5R2DI7DVHLPA","A1OOCYEFLAJD98","3KVQ0UJWPX71V463XQYDOZYIDLRW5D","","345.2999999523163","img/land2.png","75","345.7999999523163","2","1","2","1,0.7,0.7,0.7,1,0.7,0.7,0.7,1","",""
"","html-keyboard-response","139","87382","0.0-139.0","3H7Z272LX8TRZ4AH4T5R2DI7DVHLPA","A1OOCYEFLAJD98","3KVQ0UJWPX71V463XQYDOZYIDLRW5D","","null","<img src=""img/land2.png"" style=""width:200px; border:14px solid green;"">","null","","","","","","",""
"","image-keyboard-response","140","87669","0.0-140.0","3H7Z272LX8TRZ4AH4T5R2DI7DVHLPA","A1OOCYEFLAJD98","3KVQ0UJWPX71V463XQYDOZYIDLRW5D","","286.39999985694885","img/land2.png","75","286.90000009536743","2","1","2","1,0.7,0.7,0.7,1,0.7,0.7,0.7,1","",""
"","html-keyboard-response","141","87970","0.0-141.0","3H7Z272LX8TRZ4AH4T5R2DI7DVHLPA","A1OOCYEFLAJD98","3KVQ0UJWPX71V463XQYDOZYIDLRW5D","","null","<img src=""img/land2.png"" style=""width:200px; border:14px solid green;"">","null","","","","","","",""
"","image-keyboard-response","142","88677","0.0-142.0","3H7Z272LX8TRZ4AH4T5R2DI7DVHLPA","A1OOCYEFLAJD98","3KVQ0UJWPX71V463XQYDOZYIDLRW5D","","706.1999998092651","img/land3.png","76","706.7999999523163","3","1","3","1,0.7,0.7,0.7,1,0.7,0.7,0.7,1","",""
"","html-keyboard-response","143","88985","0.0-143.0","3H7Z272LX8TRZ4AH4T5R2DI7DVHLPA","A1OOCYEFLAJD98","3KVQ0UJWPX71V463XQYDOZYIDLRW5D","","null","<img src=""img/land3.png"" style=""width:200px; border:14px solid green;"">","null","","","","","","",""
"","image-keyboard-response","144","89656","0.0-144.0","3H7Z272LX8TRZ4AH4T5R2DI7DVHLPA","A1OOCYEFLAJD98","3KVQ0UJWPX71V463XQYDOZYIDLRW5D","","670.8999998569489","img/land2.png","75","671.5","2","1","2","1,0.7,0.7,0.7,1,0.7,0.7,0.7,1","",""
"","html-keyboard-response","145","89957","0.0-145.0","3H7Z272LX8TRZ4AH4T5R2DI7DVHLPA","A1OOCYEFLAJD98","3KVQ0UJWPX71V463XQYDOZYIDLRW5D","","null","<img src=""img/land2.png"" style=""width:200px; border:14px solid green;"">","null","","","","","","",""
"","image-keyboard-response","146","90373","0.0-146.0","3H7Z272LX8TRZ4AH4T5R2DI7DVHLPA","A1OOCYEFLAJD98","3KVQ0UJWPX71V463XQYDOZYIDLRW5D","","414.59999990463257","img/land2.png","75","415.09999990463257","2","1","2","1,0.7,0.7,0.7,1,0.7,0.7,0.7,1","",""
"","html-keyboard-response","147","90674","0.0-147.0","3H7Z272LX8TRZ4AH4T5R2DI7DVHLPA","A1OOCYEFLAJD98","3KVQ0UJWPX71V463XQYDOZYIDLRW5D","","null","<img src=""img/land2.png"" style=""width:200px; border:14px solid green;"">","null","","","","","","",""
"","image-keyboard-response","148","91037","0.0-148.0","3H7Z272LX8TRZ4AH4T5R2DI7DVHLPA","A1OOCYEFLAJD98","3KVQ0UJWPX71V463XQYDOZYIDLRW5D","","362.19999980926514","img/land2.png","75","362.7000000476837","2","1","2","1,0.7,0.7,0.7,1,0.7,0.7,0.7,1","",""
"","html-keyboard-response","149","91338","0.0-149.0","3H7Z272LX8TRZ4AH4T5R2DI7DVHLPA","A1OOCYEFLAJD98","3KVQ0UJWPX71V463XQYDOZYIDLRW5D","","null","<img src=""img/land2.png"" style=""width:200px; border:14px solid green;"">","null","","","","","","",""
"","image-keyboard-response","150","92557","0.0-150.0","3H7Z272LX8TRZ4AH4T5R2DI7DVHLPA","A1OOCYEFLAJD98","3KVQ0UJWPX71V463XQYDOZYIDLRW5D","","1218","img/land3.png","76","1218.5","3","1","3","1,0.7,0.7,0.7,1,0.7,0.7,0.7,1","",""
"","html-keyboard-response","151","92858","0.0-151.0","3H7Z272LX8TRZ4AH4T5R2DI7DVHLPA","A1OOCYEFLAJD98","3KVQ0UJWPX71V463XQYDOZYIDLRW5D","","null","<img src=""img/land3.png"" style=""width:200px; border:14px solid green;"">","null","","","","","","",""
"","image-keyboard-response","152","93477","0.0-152.0","3H7Z272LX8TRZ4AH4T5R2DI7DVHLPA","A1OOCYEFLAJD98","3KVQ0UJWPX71V463XQYDOZYIDLRW5D","","617.7999999523163","img/land1.png","74","618.2999999523163","1","1","1","1,0.7,0.7,0.7,1,0.7,0.7,0.7,1","",""
"","html-keyboard-response","153","93784","0.0-153.0","3H7Z272LX8TRZ4AH4T5R2DI7DVHLPA","A1OOCYEFLAJD98","3KVQ0UJWPX71V463XQYDOZYIDLRW5D","","null","<img src=""img/land1.png"" style=""width:200px; border:14px solid green;"">","null","","","","","","",""
"","image-keyboard-response","154","94433","0.0-154.0","3H7Z272LX8TRZ4AH4T5R2DI7DVHLPA","A1OOCYEFLAJD98","3KVQ0UJWPX71V463XQYDOZYIDLRW5D","","648.2000000476837","img/land2.png","75","648.7000000476837","2","1","2","1,0.7,0.7,0.7,1,0.7,0.7,0.7,1","",""
"","html-keyboard-response","155","94734","0.0-155.0","3H7Z272LX8TRZ4AH4T5R2DI7DVHLPA","A1OOCYEFLAJD98","3KVQ0UJWPX71V463XQYDOZYIDLRW5D","","null","<img src=""img/land2.png"" style=""width:200px; border:14px solid green;"">","null","","","","","","",""
"","image-keyboard-response","156","95565","0.0-156.0","3H7Z272LX8TRZ4AH4T5R2DI7DVHLPA","A1OOCYEFLAJD98","3KVQ0UJWPX71V463XQYDOZYIDLRW5D","","830","img/land1.png","74","830.6000001430511","1","1","1","1,0.7,0.7,0.7,1,0.7,0.7,0.7,1","",""
"","html-keyboard-response","157","95866","0.0-157.0","3H7Z272LX8TRZ4AH4T5R2DI7DVHLPA","A1OOCYEFLAJD98","3KVQ0UJWPX71V463XQYDOZYIDLRW5D","","null","<img src=""img/land1.png"" style=""width:200px; border:14px solid green;"">","null","","","","","","",""
"","image-keyboard-response","158","96313","0.0-158.0","3H7Z272LX8TRZ4AH4T5R2DI7DVHLPA","A1OOCYEFLAJD98","3KVQ0UJWPX71V463XQYDOZYIDLRW5D","","446.39999985694885","img/land1.png","74","447","1","1","1","1,0.7,0.7,0.7,1,0.7,0.7,0.7,1","",""
"","html-keyboard-response","159","96614","0.0-159.0","3H7Z272LX8TRZ4AH4T5R2DI7DVHLPA","A1OOCYEFLAJD98","3KVQ0UJWPX71V463XQYDOZYIDLRW5D","","null","<img src=""img/land1.png"" style=""width:200px; border:14px solid green;"">","null","","","","","","",""
"","image-keyboard-response","160","97213","0.0-160.0","3H7Z272LX8TRZ4AH4T5R2DI7DVHLPA","A1OOCYEFLAJD98","3KVQ0UJWPX71V463XQYDOZYIDLRW5D","","597.7999999523163","img/land3.png","76","598.3999998569489","3","1","3","1,0.7,0.7,0.7,1,0.7,0.7,0.7,1","",""
"","html-keyboard-response","161","97514","0.0-161.0","3H7Z272LX8TRZ4AH4T5R2DI7DVHLPA","A1OOCYEFLAJD98","3KVQ0UJWPX71V463XQYDOZYIDLRW5D","","null","<img src=""img/land3.png"" style=""width:200px; border:14px solid green;"">","null","","","","","","",""
"","image-keyboard-response","162","98053","0.0-162.0","3H7Z272LX8TRZ4AH4T5R2DI7DVHLPA","A1OOCYEFLAJD98","3KVQ0UJWPX71V463XQYDOZYIDLRW5D","","538.2999999523163","img/land2.png","75","538.9000000953674","2","1","2","1,0.7,0.7,0.7,1,0.7,0.7,0.7,1","",""
"","html-keyboard-response","163","98354","0.0-163.0","3H7Z272LX8TRZ4AH4T5R2DI7DVHLPA","A1OOCYEFLAJD98","3KVQ0UJWPX71V463XQYDOZYIDLRW5D","","null","<img src=""img/land2.png"" style=""width:200px; border:14px solid green;"">","null","","","","","","",""
"","image-keyboard-response","164","98973","0.0-164.0","3H7Z272LX8TRZ4AH4T5R2DI7DVHLPA","A1OOCYEFLAJD98","3KVQ0UJWPX71V463XQYDOZYIDLRW5D","","618.2000000476837","img/land1.png","74","618.7000000476837","1","1","1","1,0.7,0.7,0.7,1,0.7,0.7,0.7,1","",""
"","html-keyboard-response","165","99274","0.0-165.0","3H7Z272LX8TRZ4AH4T5R2DI7DVHLPA","A1OOCYEFLAJD98","3KVQ0UJWPX71V463XQYDOZYIDLRW5D","","null","<img src=""img/land1.png"" style=""width:200px; border:14px solid green;"">","null","","","","","","",""
"","image-keyboard-response","166","99680","0.0-166.0","3H7Z272LX8TRZ4AH4T5R2DI7DVHLPA","A1OOCYEFLAJD98","3KVQ0UJWPX71V463XQYDOZYIDLRW5D","","406.2000000476837","img/land1.png","74","406.7000000476837","1","1","1","1,0.7,0.7,0.7,1,0.7,0.7,0.7,1","",""
"","html-keyboard-response","167","99981","0.0-167.0","3H7Z272LX8TRZ4AH4T5R2DI7DVHLPA","A1OOCYEFLAJD98","3KVQ0UJWPX71V463XQYDOZYIDLRW5D","","null","<img src=""img/land1.png"" style=""width:200px; border:14px solid green;"">","null","","","","","","",""
"","image-keyboard-response","168","100365","0.0-168.0","3H7Z272LX8TRZ4AH4T5R2DI7DVHLPA","A1OOCYEFLAJD98","3KVQ0UJWPX71V463XQYDOZYIDLRW5D","","382.39999985694885","img/land1.png","74","383","1","1","1","1,0.7,0.7,0.7,1,0.7,0.7,0.7,1","",""
"","html-keyboard-response","169","100665","0.0-169.0","3H7Z272LX8TRZ4AH4T5R2DI7DVHLPA","A1OOCYEFLAJD98","3KVQ0UJWPX71V463XQYDOZYIDLRW5D","","null","<img src=""img/land1.png"" style=""width:200px; border:14px solid green;"">","null","","","","","","",""
"","html-keyboard-response","170","103328","0.0-170.0","3H7Z272LX8TRZ4AH4T5R2DI7DVHLPA","A1OOCYEFLAJD98","3KVQ0UJWPX71V463XQYDOZYIDLRW5D","","","","","","","","","","",""
"","image-keyboard-response","171","106705","0.0-171.0","3H7Z272LX8TRZ4AH4T5R2DI7DVHLPA","A1OOCYEFLAJD98","3KVQ0UJWPX71V463XQYDOZYIDLRW5D","","3375.199999809265","img/land6.png","76","3376","3","1","3","1,0.7,0.7,0.7,1,0.7,0.7,0.7,1","",""
"","html-keyboard-response","172","107006","0.0-172.0","3H7Z272LX8TRZ4AH4T5R2DI7DVHLPA","A1OOCYEFLAJD98","3KVQ0UJWPX71V463XQYDOZYIDLRW5D","","null","<img src=""img/land6.png"" style=""width:200px; border:14px solid green;"">","null","","","","","","",""
"","image-keyboard-response","173","107437","0.0-173.0","3H7Z272LX8TRZ4AH4T5R2DI7DVHLPA","A1OOCYEFLAJD98","3KVQ0UJWPX71V463XQYDOZYIDLRW5D","","430.2999999523163","img/land6.png","76","430.80000019073486","3","1","3","1,0.7,0.7,0.7,1,0.7,0.7,0.7,1","",""
"","html-keyboard-response","174","107738","0.0-174.0","3H7Z272LX8TRZ4AH4T5R2DI7DVHLPA","A1OOCYEFLAJD98","3KVQ0UJWPX71V463XQYDOZYIDLRW5D","","null","<img src=""img/land6.png"" style=""width:200px; border:14px solid green;"">","null","","","","","","",""
"","image-keyboard-response","175","109185","0.0-175.0","3H7Z272LX8TRZ4AH4T5R2DI7DVHLPA","A1OOCYEFLAJD98","3KVQ0UJWPX71V463XQYDOZYIDLRW5D","","1446.5","img/land5.png","75","1446.9000000953674","2","1","2","1,0.7,0.7,0.7,1,0.7,0.7,0.7,1","",""
"","html-keyboard-response","176","109486","0.0-176.0","3H7Z272LX8TRZ4AH4T5R2DI7DVHLPA","A1OOCYEFLAJD98","3KVQ0UJWPX71V463XQYDOZYIDLRW5D","","null","<img src=""img/land5.png"" style=""width:200px; border:14px solid green;"">","null","","","","","","",""
"","image-keyboard-response","177","111253","0.0-177.0","3H7Z272LX8TRZ4AH4T5R2DI7DVHLPA","A1OOCYEFLAJD98","3KVQ0UJWPX71V463XQYDOZYIDLRW5D","","1765.6999998092651","img/land4.png","74","1766.2999999523163","1","1","1","1,0.7,0.7,0.7,1,0.7,0.7,0.7,1","",""
"","html-keyboard-response","178","111554","0.0-178.0","3H7Z272LX8TRZ4AH4T5R2DI7DVHLPA","A1OOCYEFLAJD98","3KVQ0UJWPX71V463XQYDOZYIDLRW5D","","null","<img src=""img/land4.png"" style=""width:200px; border:14px solid green;"">","null","","","","","","",""
"","image-keyboard-response","179","112342","0.0-179.0","3H7Z272LX8TRZ4AH4T5R2DI7DVHLPA","A1OOCYEFLAJD98","3KVQ0UJWPX71V463XQYDOZYIDLRW5D","","787.1000001430511","img/land6.png","76","787.5999999046326","3","1","3","1,0.7,0.7,0.7,1,0.7,0.7,0.7,1","",""
"","html-keyboard-response","180","112643","0.0-180.0","3H7Z272LX8TRZ4AH4T5R2DI7DVHLPA","A1OOCYEFLAJD98","3KVQ0UJWPX71V463XQYDOZYIDLRW5D","","null","<img src=""img/land6.png"" style=""width:200px; border:14px solid green;"">","null","","","","","","",""
"","image-keyboard-response","181","114469","0.0-181.0","3H7Z272LX8TRZ4AH4T5R2DI7DVHLPA","A1OOCYEFLAJD98","3KVQ0UJWPX71V463XQYDOZYIDLRW5D","","1824.7999999523163","img/land4.png","74","1825.3999998569489","1","1","1","1,0.7,0.7,0.7,1,0.7,0.7,0.7,1","",""
"","html-keyboard-response","182","114771","0.0-182.0","3H7Z272LX8TRZ4AH4T5R2DI7DVHLPA","A1OOCYEFLAJD98","3KVQ0UJWPX71V463XQYDOZYIDLRW5D","","null","<img src=""img/land4.png"" style=""width:200px; border:14px solid green;"">","null","","","","","","",""
"","image-keyboard-response","183","127309","0.0-183.0","3H7Z272LX8TRZ4AH4T5R2DI7DVHLPA","A1OOCYEFLAJD98","3KVQ0UJWPX71V463XQYDOZYIDLRW5D","","12537.599999904633","img/land6.png","76","12538.199999809265","3","1","3","1,0.7,0.7,0.7,1,0.7,0.7,0.7,1","",""
"","html-keyboard-response","184","127610","0.0-184.0","3H7Z272LX8TRZ4AH4T5R2DI7DVHLPA","A1OOCYEFLAJD98","3KVQ0UJWPX71V463XQYDOZYIDLRW5D","","null","<img src=""img/land6.png"" style=""width:200px; border:14px solid green;"">","null","","","","","","",""
"","image-keyboard-response","185","128589","0.0-185.0","3H7Z272LX8TRZ4AH4T5R2DI7DVHLPA","A1OOCYEFLAJD98","3KVQ0UJWPX71V463XQYDOZYIDLRW5D","","977.6000001430511","img/land5.png","75","978","2","1","2","1,0.7,0.7,0.7,1,0.7,0.7,0.7,1","",""
"","html-keyboard-response","186","128889","0.0-186.0","3H7Z272LX8TRZ4AH4T5R2DI7DVHLPA","A1OOCYEFLAJD98","3KVQ0UJWPX71V463XQYDOZYIDLRW5D","","null","<img src=""img/land5.png"" style=""width:200px; border:14px solid green;"">","null","","","","","","",""
"","image-keyboard-response","187","129757","0.0-187.0","3H7Z272LX8TRZ4AH4T5R2DI7DVHLPA","A1OOCYEFLAJD98","3KVQ0UJWPX71V463XQYDOZYIDLRW5D","","866.5","img/land4.png","74","867","1","1","1","1,0.7,0.7,0.7,1,0.7,0.7,0.7,1","",""
"","html-keyboard-response","188","130058","0.0-188.0","3H7Z272LX8TRZ4AH4T5R2DI7DVHLPA","A1OOCYEFLAJD98","3KVQ0UJWPX71V463XQYDOZYIDLRW5D","","null","<img src=""img/land4.png"" style=""width:200px; border:14px solid green;"">","null","","","","","","",""
"","image-keyboard-response","189","130701","0.0-189.0","3H7Z272LX8TRZ4AH4T5R2DI7DVHLPA","A1OOCYEFLAJD98","3KVQ0UJWPX71V463XQYDOZYIDLRW5D","","641.8999998569489","img/land5.png","75","642.3999998569489","2","1","2","1,0.7,0.7,0.7,1,0.7,0.7,0.7,1","",""
"","html-keyboard-response","190","131003","0.0-190.0","3H7Z272LX8TRZ4AH4T5R2DI7DVHLPA","A1OOCYEFLAJD98","3KVQ0UJWPX71V463XQYDOZYIDLRW5D","","null","<img src=""img/land5.png"" style=""width:200px; border:14px solid green;"">","null","","","","","","",""
"","image-keyboard-response","191","132241","0.0-191.0","3H7Z272LX8TRZ4AH4T5R2DI7DVHLPA","A1OOCYEFLAJD98","3KVQ0UJWPX71V463XQYDOZYIDLRW5D","","1236.7999999523163","img/land4.png","74","1237.4000000953674","1","1","1","1,0.7,0.7,0.7,1,0.7,0.7,0.7,1","",""
"","html-keyboard-response","192","132541","0.0-192.0","3H7Z272LX8TRZ4AH4T5R2DI7DVHLPA","A1OOCYEFLAJD98","3KVQ0UJWPX71V463XQYDOZYIDLRW5D","","null","<img src=""img/land4.png"" style=""width:200px; border:14px solid green;"">","null","","","","","","",""
"","image-keyboard-response","193","133009","0.0-193.0","3H7Z272LX8TRZ4AH4T5R2DI7DVHLPA","A1OOCYEFLAJD98","3KVQ0UJWPX71V463XQYDOZYIDLRW5D","","466.59999990463257","img/land6.png","75","467.2000000476837","2","0","3","1,0.7,0.7,0.7,1,0.7,0.7,0.7,1","",""
"","html-keyboard-response","194","133309","0.0-194.0","3H7Z272LX8TRZ4AH4T5R2DI7DVHLPA","A1OOCYEFLAJD98","3KVQ0UJWPX71V463XQYDOZYIDLRW5D","","null","<img src=""img/land6.png"" style=""width:200px;border:14px solid red;"">","null","","","","","","",""
"","image-keyboard-response","195","134185","0.0-195.0","3H7Z272LX8TRZ4AH4T5R2DI7DVHLPA","A1OOCYEFLAJD98","3KVQ0UJWPX71V463XQYDOZYIDLRW5D","","874.5","img/land5.png","75","875","2","1","2","1,0.7,0.7,0.7,1,0.7,0.7,0.7,1","",""
"","html-keyboard-response","196","134486","0.0-196.0","3H7Z272LX8TRZ4AH4T5R2DI7DVHLPA","A1OOCYEFLAJD98","3KVQ0UJWPX71V463XQYDOZYIDLRW5D","","null","<img src=""img/land5.png"" style=""width:200px; border:14px solid green;"">","null","","","","","","",""
"","image-keyboard-response","197","135104","0.0-197.0","3H7Z272LX8TRZ4AH4T5R2DI7DVHLPA","A1OOCYEFLAJD98","3KVQ0UJWPX71V463XQYDOZYIDLRW5D","","618.1999998092651","img/land6.png","76","618.6000001430511","3","1","3","1,0.7,0.7,0.7,1,0.7,0.7,0.7,1","",""
"","html-keyboard-response","198","135405","0.0-198.0","3H7Z272LX8TRZ4AH4T5R2DI7DVHLPA","A1OOCYEFLAJD98","3KVQ0UJWPX71V463XQYDOZYIDLRW5D","","null","<img src=""img/land6.png"" style=""width:200px; border:14px solid green;"">","null","","","","","","",""
"","image-keyboard-response","199","136081","0.0-199.0","3H7Z272LX8TRZ4AH4T5R2DI7DVHLPA","A1OOCYEFLAJD98","3KVQ0UJWPX71V463XQYDOZYIDLRW5D","","673.9000000953674","img/land4.png","74","674.3999998569489","1","1","1","1,0.7,0.7,0.7,1,0.7,0.7,0.7,1","",""
"","html-keyboard-response","200","136382","0.0-200.0","3H7Z272LX8TRZ4AH4T5R2DI7DVHLPA","A1OOCYEFLAJD98","3KVQ0UJWPX71V463XQYDOZYIDLRW5D","","null","<img src=""img/land4.png"" style=""width:200px; border:14px solid green;"">","null","","","","","","",""
"","image-keyboard-response","201","136808","0.0-201.0","3H7Z272LX8TRZ4AH4T5R2DI7DVHLPA","A1OOCYEFLAJD98","3KVQ0UJWPX71V463XQYDOZYIDLRW5D","","426.09999990463257","img/land4.png","74","426.60000014305115","1","1","1","1,0.7,0.7,0.7,1,0.7,0.7,0.7,1","",""
"","html-keyboard-response","202","137109","0.0-202.0","3H7Z272LX8TRZ4AH4T5R2DI7DVHLPA","A1OOCYEFLAJD98","3KVQ0UJWPX71V463XQYDOZYIDLRW5D","","null","<img src=""img/land4.png"" style=""width:200px; border:14px solid green;"">","null","","","","","","",""
"","image-keyboard-response","203","137777","0.0-203.0","3H7Z272LX8TRZ4AH4T5R2DI7DVHLPA","A1OOCYEFLAJD98","3KVQ0UJWPX71V463XQYDOZYIDLRW5D","","666.7999999523163","img/land6.png","76","667.2999999523163","3","1","3","1,0.7,0.7,0.7,1,0.7,0.7,0.7,1","",""
"","html-keyboard-response","204","138078","0.0-204.0","3H7Z272LX8TRZ4AH4T5R2DI7DVHLPA","A1OOCYEFLAJD98","3KVQ0UJWPX71V463XQYDOZYIDLRW5D","","null","<img src=""img/land6.png"" style=""width:200px; border:14px solid green;"">","null","","","","","","",""
"","image-keyboard-response","205","139080","0.0-205.0","3H7Z272LX8TRZ4AH4T5R2DI7DVHLPA","A1OOCYEFLAJD98","3KVQ0UJWPX71V463XQYDOZYIDLRW5D","","1001.4000000953674","img/land4.png","74","1002.1000001430511","1","1","1","1,0.7,0.7,0.7,1,0.7,0.7,0.7,1","",""
"","html-keyboard-response","206","139382","0.0-206.0","3H7Z272LX8TRZ4AH4T5R2DI7DVHLPA","A1OOCYEFLAJD98","3KVQ0UJWPX71V463XQYDOZYIDLRW5D","","null","<img src=""img/land4.png"" style=""width:200px; border:14px solid green;"">","null","","","","","","",""
"","image-keyboard-response","207","139860","0.0-207.0","3H7Z272LX8TRZ4AH4T5R2DI7DVHLPA","A1OOCYEFLAJD98","3KVQ0UJWPX71V463XQYDOZYIDLRW5D","","478.19999980926514","img/land6.png","76","478.7999999523163","3","1","3","1,0.7,0.7,0.7,1,0.7,0.7,0.7,1","",""
"","html-keyboard-response","208","140174","0.0-208.0","3H7Z272LX8TRZ4AH4T5R2DI7DVHLPA","A1OOCYEFLAJD98","3KVQ0UJWPX71V463XQYDOZYIDLRW5D","","null","<img src=""img/land6.png"" style=""width:200px; border:14px solid green;"">","null","","","","","","",""
"","image-keyboard-response","209","140798","0.0-209.0","3H7Z272LX8TRZ4AH4T5R2DI7DVHLPA","A1OOCYEFLAJD98","3KVQ0UJWPX71V463XQYDOZYIDLRW5D","","622.5999999046326","img/land4.png","74","623.0999999046326","1","1","1","1,0.7,0.7,0.7,1,0.7,0.7,0.7,1","",""
"","html-keyboard-response","210","141099","0.0-210.0","3H7Z272LX8TRZ4AH4T5R2DI7DVHLPA","A1OOCYEFLAJD98","3KVQ0UJWPX71V463XQYDOZYIDLRW5D","","null","<img src=""img/land4.png"" style=""width:200px; border:14px solid green;"">","null","","","","","","",""
"","image-keyboard-response","211","141473","0.0-211.0","3H7Z272LX8TRZ4AH4T5R2DI7DVHLPA","A1OOCYEFLAJD98","3KVQ0UJWPX71V463XQYDOZYIDLRW5D","","373.2000000476837","img/land4.png","74","373.59999990463257","1","1","1","1,0.7,0.7,0.7,1,0.7,0.7,0.7,1","",""
"","html-keyboard-response","212","141774","0.0-212.0","3H7Z272LX8TRZ4AH4T5R2DI7DVHLPA","A1OOCYEFLAJD98","3KVQ0UJWPX71V463XQYDOZYIDLRW5D","","null","<img src=""img/land4.png"" style=""width:200px; border:14px solid green;"">","null","","","","","","",""
"","image-keyboard-response","213","142184","0.0-213.0","3H7Z272LX8TRZ4AH4T5R2DI7DVHLPA","A1OOCYEFLAJD98","3KVQ0UJWPX71V463XQYDOZYIDLRW5D","","409.7999999523163","img/land6.png","76","410.2999999523163","3","1","3","1,0.7,0.7,0.7,1,0.7,0.7,0.7,1","",""
"","html-keyboard-response","214","142486","0.0-214.0","3H7Z272LX8TRZ4AH4T5R2DI7DVHLPA","A1OOCYEFLAJD98","3KVQ0UJWPX71V463XQYDOZYIDLRW5D","","null","<img src=""img/land6.png"" style=""width:200px; border:14px solid green;"">","null","","","","","","",""
"","image-keyboard-response","215","143069","0.0-215.0","3H7Z272LX8TRZ4AH4T5R2DI7DVHLPA","A1OOCYEFLAJD98","3KVQ0UJWPX71V463XQYDOZYIDLRW5D","","582.1999998092651","img/land5.png","75","582.7999999523163","2","1","2","1,0.7,0.7,0.7,1,0.7,0.7,0.7,1","",""
"","html-keyboard-response","216","143371","0.0-216.0","3H7Z272LX8TRZ4AH4T5R2DI7DVHLPA","A1OOCYEFLAJD98","3KVQ0UJWPX71V463XQYDOZYIDLRW5D","","null","<img src=""img/land5.png"" style=""width:200px; border:14px solid green;"">","null","","","","","","",""
"","image-keyboard-response","217","143762","0.0-217.0","3H7Z272LX8TRZ4AH4T5R2DI7DVHLPA","A1OOCYEFLAJD98","3KVQ0UJWPX71V463XQYDOZYIDLRW5D","","390","img/land5.png","75","390.5","2","1","2","1,0.7,0.7,0.7,1,0.7,0.7,0.7,1","",""
"","html-keyboard-response","218","144063","0.0-218.0","3H7Z272LX8TRZ4AH4T5R2DI7DVHLPA","A1OOCYEFLAJD98","3KVQ0UJWPX71V463XQYDOZYIDLRW5D","","null","<img src=""img/land5.png"" style=""width:200px; border:14px solid green;"">","null","","","","","","",""
"","image-keyboard-response","219","144774","0.0-219.0","3H7Z272LX8TRZ4AH4T5R2DI7DVHLPA","A1OOCYEFLAJD98","3KVQ0UJWPX71V463XQYDOZYIDLRW5D","","710","img/land4.png","74","710.5","1","1","1","1,0.7,0.7,0.7,1,0.7,0.7,0.7,1","",""
"","html-keyboard-response","220","145075","0.0-220.0","3H7Z272LX8TRZ4AH4T5R2DI7DVHLPA","A1OOCYEFLAJD98","3KVQ0UJWPX71V463XQYDOZYIDLRW5D","","null","<img src=""img/land4.png"" style=""width:200px; border:14px solid green;"">","null","","","","","","",""
"","image-keyboard-response","221","145457","0.0-221.0","3H7Z272LX8TRZ4AH4T5R2DI7DVHLPA","A1OOCYEFLAJD98","3KVQ0UJWPX71V463XQYDOZYIDLRW5D","","382.19999980926514","img/land4.png","74","382.59999990463257","1","1","1","1,0.7,0.7,0.7,1,0.7,0.7,0.7,1","",""
"","html-keyboard-response","222","145759","0.0-222.0","3H7Z272LX8TRZ4AH4T5R2DI7DVHLPA","A1OOCYEFLAJD98","3KVQ0UJWPX71V463XQYDOZYIDLRW5D","","null","<img src=""img/land4.png"" style=""width:200px; border:14px solid green;"">","null","","","","","","",""
"","image-keyboard-response","223","146413","0.0-223.0","3H7Z272LX8TRZ4AH4T5R2DI7DVHLPA","A1OOCYEFLAJD98","3KVQ0UJWPX71V463XQYDOZYIDLRW5D","","653.5999999046326","img/land5.png","75","654.1000001430511","2","1","2","1,0.7,0.7,0.7,1,0.7,0.7,0.7,1","",""
"","html-keyboard-response","224","146715","0.0-224.0","3H7Z272LX8TRZ4AH4T5R2DI7DVHLPA","A1OOCYEFLAJD98","3KVQ0UJWPX71V463XQYDOZYIDLRW5D","","null","<img src=""img/land5.png"" style=""width:200px; border:14px solid green;"">","null","","","","","","",""
"","image-keyboard-response","225","147305","0.0-225.0","3H7Z272LX8TRZ4AH4T5R2DI7DVHLPA","A1OOCYEFLAJD98","3KVQ0UJWPX71V463XQYDOZYIDLRW5D","","590.2999999523163","img/land4.png","74","590.7000000476837","1","1","1","1,0.7,0.7,0.7,1,0.7,0.7,0.7,1","",""
"","html-keyboard-response","226","147607","0.0-226.0","3H7Z272LX8TRZ4AH4T5R2DI7DVHLPA","A1OOCYEFLAJD98","3KVQ0UJWPX71V463XQYDOZYIDLRW5D","","null","<img src=""img/land4.png"" style=""width:200px; border:14px solid green;"">","null","","","","","","",""
"","image-keyboard-response","227","147958","0.0-227.0","3H7Z272LX8TRZ4AH4T5R2DI7DVHLPA","A1OOCYEFLAJD98","3KVQ0UJWPX71V463XQYDOZYIDLRW5D","","349.90000009536743","img/land4.png","74","350.5","1","1","1","1,0.7,0.7,0.7,1,0.7,0.7,0.7,1","",""
"","html-keyboard-response","228","148258","0.0-228.0","3H7Z272LX8TRZ4AH4T5R2DI7DVHLPA","A1OOCYEFLAJD98","3KVQ0UJWPX71V463XQYDOZYIDLRW5D","","null","<img src=""img/land4.png"" style=""width:200px; border:14px solid green;"">","null","","","","","","",""
"","image-keyboard-response","229","148657","0.0-229.0","3H7Z272LX8TRZ4AH4T5R2DI7DVHLPA","A1OOCYEFLAJD98","3KVQ0UJWPX71V463XQYDOZYIDLRW5D","","398.39999985694885","img/land4.png","74","399","1","1","1","1,0.7,0.7,0.7,1,0.7,0.7,0.7,1","",""
"","html-keyboard-response","230","148973","0.0-230.0","3H7Z272LX8TRZ4AH4T5R2DI7DVHLPA","A1OOCYEFLAJD98","3KVQ0UJWPX71V463XQYDOZYIDLRW5D","","null","<img src=""img/land4.png"" style=""width:200px; border:14px solid green;"">","null","","","","","","",""
"","image-keyboard-response","231","149313","0.0-231.0","3H7Z272LX8TRZ4AH4T5R2DI7DVHLPA","A1OOCYEFLAJD98","3KVQ0UJWPX71V463XQYDOZYIDLRW5D","","339.60000014305115","img/land4.png","74","340","1","1","1","1,0.7,0.7,0.7,1,0.7,0.7,0.7,1","",""
"","html-keyboard-response","232","149615","0.0-232.0","3H7Z272LX8TRZ4AH4T5R2DI7DVHLPA","A1OOCYEFLAJD98","3KVQ0UJWPX71V463XQYDOZYIDLRW5D","","null","<img src=""img/land4.png"" style=""width:200px; border:14px solid green;"">","null","","","","","","",""
"","image-keyboard-response","233","150129","0.0-233.0","3H7Z272LX8TRZ4AH4T5R2DI7DVHLPA","A1OOCYEFLAJD98","3KVQ0UJWPX71V463XQYDOZYIDLRW5D","","514","img/land5.png","75","514.6000001430511","2","1","2","1,0.7,0.7,0.7,1,0.7,0.7,0.7,1","",""
"","html-keyboard-response","234","150431","0.0-234.0","3H7Z272LX8TRZ4AH4T5R2DI7DVHLPA","A1OOCYEFLAJD98","3KVQ0UJWPX71V463XQYDOZYIDLRW5D","","null","<img src=""img/land5.png"" style=""width:200px; border:14px solid green;"">","null","","","","","","",""
"","image-keyboard-response","235","150869","0.0-235.0","3H7Z272LX8TRZ4AH4T5R2DI7DVHLPA","A1OOCYEFLAJD98","3KVQ0UJWPX71V463XQYDOZYIDLRW5D","","438.09999990463257","img/land4.png","74","438.59999990463257","1","1","1","1,0.7,0.7,0.7,1,0.7,0.7,0.7,1","",""
"","html-keyboard-response","236","151170","0.0-236.0","3H7Z272LX8TRZ4AH4T5R2DI7DVHLPA","A1OOCYEFLAJD98","3KVQ0UJWPX71V463XQYDOZYIDLRW5D","","null","<img src=""img/land4.png"" style=""width:200px; border:14px solid green;"">","null","","","","","","",""
"","image-keyboard-response","237","151553","0.0-237.0","3H7Z272LX8TRZ4AH4T5R2DI7DVHLPA","A1OOCYEFLAJD98","3KVQ0UJWPX71V463XQYDOZYIDLRW5D","","382.39999985694885","img/land4.png","74","383","1","1","1","1,0.7,0.7,0.7,1,0.7,0.7,0.7,1","",""
"","html-keyboard-response","238","151855","0.0-238.0","3H7Z272LX8TRZ4AH4T5R2DI7DVHLPA","A1OOCYEFLAJD98","3KVQ0UJWPX71V463XQYDOZYIDLRW5D","","null","<img src=""img/land4.png"" style=""width:200px; border:14px solid green;"">","null","","","","","","",""
"","image-keyboard-response","239","152381","0.0-239.0","3H7Z272LX8TRZ4AH4T5R2DI7DVHLPA","A1OOCYEFLAJD98","3KVQ0UJWPX71V463XQYDOZYIDLRW5D","","525.7000000476837","img/land5.png","75","526.2000000476837","2","1","2","1,0.7,0.7,0.7,1,0.7,0.7,0.7,1","",""
"","html-keyboard-response","240","152683","0.0-240.0","3H7Z272LX8TRZ4AH4T5R2DI7DVHLPA","A1OOCYEFLAJD98","3KVQ0UJWPX71V463XQYDOZYIDLRW5D","","null","<img src=""img/land5.png"" style=""width:200px; border:14px solid green;"">","null","","","","","","",""
"","image-keyboard-response","241","153173","0.0-241.0","3H7Z272LX8TRZ4AH4T5R2DI7DVHLPA","A1OOCYEFLAJD98","3KVQ0UJWPX71V463XQYDOZYIDLRW5D","","490.19999980926514","img/land4.png","74","490.7999999523163","1","1","1","1,0.7,0.7,0.7,1,0.7,0.7,0.7,1","",""
"","html-keyboard-response","242","153477","0.0-242.0","3H7Z272LX8TRZ4AH4T5R2DI7DVHLPA","A1OOCYEFLAJD98","3KVQ0UJWPX71V463XQYDOZYIDLRW5D","","null","<img src=""img/land4.png"" style=""width:200px; border:14px solid green;"">","null","","","","","","",""
"","image-keyboard-response","243","153829","0.0-243.0","3H7Z272LX8TRZ4AH4T5R2DI7DVHLPA","A1OOCYEFLAJD98","3KVQ0UJWPX71V463XQYDOZYIDLRW5D","","352.09999990463257","img/land4.png","74","352.7999999523163","1","1","1","1,0.7,0.7,0.7,1,0.7,0.7,0.7,1","",""
"","html-keyboard-response","244","154131","0.0-244.0","3H7Z272LX8TRZ4AH4T5R2DI7DVHLPA","A1OOCYEFLAJD98","3KVQ0UJWPX71V463XQYDOZYIDLRW5D","","null","<img src=""img/land4.png"" style=""width:200px; border:14px solid green;"">","null","","","","","","",""
"","image-keyboard-response","245","154590","0.0-245.0","3H7Z272LX8TRZ4AH4T5R2DI7DVHLPA","A1OOCYEFLAJD98","3KVQ0UJWPX71V463XQYDOZYIDLRW5D","","457.90000009536743","img/land6.png","76","458.40000009536743","3","1","3","1,0.7,0.7,0.7,1,0.7,0.7,0.7,1","",""
"","html-keyboard-response","246","154891","0.0-246.0","3H7Z272LX8TRZ4AH4T5R2DI7DVHLPA","A1OOCYEFLAJD98","3KVQ0UJWPX71V463XQYDOZYIDLRW5D","","null","<img src=""img/land6.png"" style=""width:200px; border:14px solid green;"">","null","","","","","","",""
"","image-keyboard-response","247","155353","0.0-247.0","3H7Z272LX8TRZ4AH4T5R2DI7DVHLPA","A1OOCYEFLAJD98","3KVQ0UJWPX71V463XQYDOZYIDLRW5D","","461.89999985694885","img/land5.png","75","462.5","2","1","2","1,0.7,0.7,0.7,1,0.7,0.7,0.7,1","",""
"","html-keyboard-response","248","155655","0.0-248.0","3H7Z272LX8TRZ4AH4T5R2DI7DVHLPA","A1OOCYEFLAJD98","3KVQ0UJWPX71V463XQYDOZYIDLRW5D","","null","<img src=""img/land5.png"" style=""width:200px; border:14px solid green;"">","null","","","","","","",""
"","image-keyboard-response","249","156307","0.0-249.0","3H7Z272LX8TRZ4AH4T5R2DI7DVHLPA","A1OOCYEFLAJD98","3KVQ0UJWPX71V463XQYDOZYIDLRW5D","","651.1000001430511","img/land4.png","74","651.6000001430511","1","1","1","1,0.7,0.7,0.7,1,0.7,0.7,0.7,1","",""
"","html-keyboard-response","250","156608","0.0-250.0","3H7Z272LX8TRZ4AH4T5R2DI7DVHLPA","A1OOCYEFLAJD98","3KVQ0UJWPX71V463XQYDOZYIDLRW5D","","null","<img src=""img/land4.png"" style=""width:200px; border:14px solid green;"">","null","","","","","","",""
"","image-keyboard-response","251","157133","0.0-251.0","3H7Z272LX8TRZ4AH4T5R2DI7DVHLPA","A1OOCYEFLAJD98","3KVQ0UJWPX71V463XQYDOZYIDLRW5D","","525.0999999046326","img/land5.png","76","525.5999999046326","3","1","2","1,0.7,0.7,0.7,1,0.7,0.7,0.7,1","",""
"","html-keyboard-response","252","157435","0.0-252.0","3H7Z272LX8TRZ4AH4T5R2DI7DVHLPA","A1OOCYEFLAJD98","3KVQ0UJWPX71V463XQYDOZYIDLRW5D","","null","<img src=""img/land5.png"" style=""width:200px; border:14px solid green;"">","null","","","","","","",""
"","image-keyboard-response","253","157477","0.0-253.0","3H7Z272LX8TRZ4AH4T5R2DI7DVHLPA","A1OOCYEFLAJD98","3KVQ0UJWPX71V463XQYDOZYIDLRW5D","","41.89999985694885","img/land5.png","75","42.299999952316284","2","1","2","1,0.7,0.7,0.7,1,0.7,0.7,0.7,1","",""
"","html-keyboard-response","254","157779","0.0-254.0","3H7Z272LX8TRZ4AH4T5R2DI7DVHLPA","A1OOCYEFLAJD98","3KVQ0UJWPX71V463XQYDOZYIDLRW5D","","null","<img src=""img/land5.png"" style=""width:200px; border:14px solid green;"">","null","","","","","","",""
"","image-keyboard-response","255","158978","0.0-255.0","3H7Z272LX8TRZ4AH4T5R2DI7DVHLPA","A1OOCYEFLAJD98","3KVQ0UJWPX71V463XQYDOZYIDLRW5D","","1198.2000000476837","img/land6.png","76","1198.7000000476837","3","1","3","1,0.7,0.7,0.7,1,0.7,0.7,0.7,1","",""
"","html-keyboard-response","256","159279","0.0-256.0","3H7Z272LX8TRZ4AH4T5R2DI7DVHLPA","A1OOCYEFLAJD98","3KVQ0UJWPX71V463XQYDOZYIDLRW5D","","null","<img src=""img/land6.png"" style=""width:200px; border:14px solid green;"">","null","","","","","","",""
"","image-keyboard-response","257","159838","0.0-257.0","3H7Z272LX8TRZ4AH4T5R2DI7DVHLPA","A1OOCYEFLAJD98","3KVQ0UJWPX71V463XQYDOZYIDLRW5D","","558.2999999523163","img/land5.png","75","558.8000001907349","2","1","2","1,0.7,0.7,0.7,1,0.7,0.7,0.7,1","",""
"","html-keyboard-response","258","160138","0.0-258.0","3H7Z272LX8TRZ4AH4T5R2DI7DVHLPA","A1OOCYEFLAJD98","3KVQ0UJWPX71V463XQYDOZYIDLRW5D","","null","<img src=""img/land5.png"" style=""width:200px; border:14px solid green;"">","null","","","","","","",""
"","image-keyboard-response","259","160781","0.0-259.0","3H7Z272LX8TRZ4AH4T5R2DI7DVHLPA","A1OOCYEFLAJD98","3KVQ0UJWPX71V463XQYDOZYIDLRW5D","","642.5","img/land4.png","74","643","1","1","1","1,0.7,0.7,0.7,1,0.7,0.7,0.7,1","",""
"","html-keyboard-response","260","161083","0.0-260.0","3H7Z272LX8TRZ4AH4T5R2DI7DVHLPA","A1OOCYEFLAJD98","3KVQ0UJWPX71V463XQYDOZYIDLRW5D","","null","<img src=""img/land4.png"" style=""width:200px; border:14px solid green;"">","null","","","","","","",""
"","image-keyboard-response","261","161714","0.0-261.0","3H7Z272LX8TRZ4AH4T5R2DI7DVHLPA","A1OOCYEFLAJD98","3KVQ0UJWPX71V463XQYDOZYIDLRW5D","","630.5","img/land6.png","76","630.9000000953674","3","1","3","1,0.7,0.7,0.7,1,0.7,0.7,0.7,1","",""
"","html-keyboard-response","262","162015","0.0-262.0","3H7Z272LX8TRZ4AH4T5R2DI7DVHLPA","A1OOCYEFLAJD98","3KVQ0UJWPX71V463XQYDOZYIDLRW5D","","null","<img src=""img/land6.png"" style=""width:200px; border:14px solid green;"">","null","","","","","","",""
"","image-keyboard-response","263","162649","0.0-263.0","3H7Z272LX8TRZ4AH4T5R2DI7DVHLPA","A1OOCYEFLAJD98","3KVQ0UJWPX71V463XQYDOZYIDLRW5D","","634.1999998092651","img/land5.png","75","634.5999999046326","2","1","2","1,0.7,0.7,0.7,1,0.7,0.7,0.7,1","",""
"","html-keyboard-response","264","162951","0.0-264.0","3H7Z272LX8TRZ4AH4T5R2DI7DVHLPA","A1OOCYEFLAJD98","3KVQ0UJWPX71V463XQYDOZYIDLRW5D","","null","<img src=""img/land5.png"" style=""width:200px; border:14px solid green;"">","null","","","","","","",""
"","image-keyboard-response","265","163437","0.0-265.0","3H7Z272LX8TRZ4AH4T5R2DI7DVHLPA","A1OOCYEFLAJD98","3KVQ0UJWPX71V463XQYDOZYIDLRW5D","","486","img/land5.png","75","486.7000000476837","2","1","2","1,0.7,0.7,0.7,1,0.7,0.7,0.7,1","",""
"","html-keyboard-response","266","163738","0.0-266.0","3H7Z272LX8TRZ4AH4T5R2DI7DVHLPA","A1OOCYEFLAJD98","3KVQ0UJWPX71V463XQYDOZYIDLRW5D","","null","<img src=""img/land5.png"" style=""width:200px; border:14px solid green;"">","null","","","","","","",""
"","image-keyboard-response","267","164617","0.0-267.0","3H7Z272LX8TRZ4AH4T5R2DI7DVHLPA","A1OOCYEFLAJD98","3KVQ0UJWPX71V463XQYDOZYIDLRW5D","","878.5","img/land4.png","74","879.0999999046326","1","1","1","1,0.7,0.7,0.7,1,0.7,0.7,0.7,1","",""
"","html-keyboard-response","268","164919","0.0-268.0","3H7Z272LX8TRZ4AH4T5R2DI7DVHLPA","A1OOCYEFLAJD98","3KVQ0UJWPX71V463XQYDOZYIDLRW5D","","null","<img src=""img/land4.png"" style=""width:200px; border:14px solid green;"">","null","","","","","","",""
"","image-keyboard-response","269","165605","0.0-269.0","3H7Z272LX8TRZ4AH4T5R2DI7DVHLPA","A1OOCYEFLAJD98","3KVQ0UJWPX71V463XQYDOZYIDLRW5D","","686.3999998569489","img/land5.png","75","686.7999999523163","2","1","2","1,0.7,0.7,0.7,1,0.7,0.7,0.7,1","",""
"","html-keyboard-response","270","165908","0.0-270.0","3H7Z272LX8TRZ4AH4T5R2DI7DVHLPA","A1OOCYEFLAJD98","3KVQ0UJWPX71V463XQYDOZYIDLRW5D","","null","<img src=""img/land5.png"" style=""width:200px; border:14px solid green;"">","null","","","","","","",""
"","image-keyboard-response","271","166245","0.0-271.0","3H7Z272LX8TRZ4AH4T5R2DI7DVHLPA","A1OOCYEFLAJD98","3KVQ0UJWPX71V463XQYDOZYIDLRW5D","","337.40000009536743","img/land5.png","75","337.7999999523163","2","1","2","1,0.7,0.7,0.7,1,0.7,0.7,0.7,1","",""
"","html-keyboard-response","272","166547","0.0-272.0","3H7Z272LX8TRZ4AH4T5R2DI7DVHLPA","A1OOCYEFLAJD98","3KVQ0UJWPX71V463XQYDOZYIDLRW5D","","null","<img src=""img/land5.png"" style=""width:200px; border:14px solid green;"">","null","","","","","","",""
"","image-keyboard-response","273","167745","0.0-273.0","3H7Z272LX8TRZ4AH4T5R2DI7DVHLPA","A1OOCYEFLAJD98","3KVQ0UJWPX71V463XQYDOZYIDLRW5D","","1197.8999998569489","img/land4.png","74","1198.3999998569489","1","1","1","1,0.7,0.7,0.7,1,0.7,0.7,0.7,1","",""
"","html-keyboard-response","274","168047","0.0-274.0","3H7Z272LX8TRZ4AH4T5R2DI7DVHLPA","A1OOCYEFLAJD98","3KVQ0UJWPX71V463XQYDOZYIDLRW5D","","null","<img src=""img/land4.png"" style=""width:200px; border:14px solid green;"">","null","","","","","","",""
"","image-keyboard-response","275","168409","0.0-275.0","3H7Z272LX8TRZ4AH4T5R2DI7DVHLPA","A1OOCYEFLAJD98","3KVQ0UJWPX71V463XQYDOZYIDLRW5D","","361.89999985694885","img/land4.png","74","362.39999985694885","1","1","1","1,0.7,0.7,0.7,1,0.7,0.7,0.7,1","",""
"","html-keyboard-response","276","168711","0.0-276.0","3H7Z272LX8TRZ4AH4T5R2DI7DVHLPA","A1OOCYEFLAJD98","3KVQ0UJWPX71V463XQYDOZYIDLRW5D","","null","<img src=""img/land4.png"" style=""width:200px; border:14px solid green;"">","null","","","","","","",""
"","image-keyboard-response","277","169110","0.0-277.0","3H7Z272LX8TRZ4AH4T5R2DI7DVHLPA","A1OOCYEFLAJD98","3KVQ0UJWPX71V463XQYDOZYIDLRW5D","","398.2000000476837","img/land4.png","74","398.80000019073486","1","1","1","1,0.7,0.7,0.7,1,0.7,0.7,0.7,1","",""
"","html-keyboard-response","278","169411","0.0-278.0","3H7Z272LX8TRZ4AH4T5R2DI7DVHLPA","A1OOCYEFLAJD98","3KVQ0UJWPX71V463XQYDOZYIDLRW5D","","null","<img src=""img/land4.png"" style=""width:200px; border:14px solid green;"">","null","","","","","","",""
"","image-keyboard-response","279","169794","0.0-279.0","3H7Z272LX8TRZ4AH4T5R2DI7DVHLPA","A1OOCYEFLAJD98","3KVQ0UJWPX71V463XQYDOZYIDLRW5D","","382.30000019073486","img/land6.png","75","382.7999999523163","2","1","3","1,0.7,0.7,0.7,1,0.7,0.7,0.7,1","",""
"","html-keyboard-response","280","170103","0.0-280.0","3H7Z272LX8TRZ4AH4T5R2DI7DVHLPA","A1OOCYEFLAJD98","3KVQ0UJWPX71V463XQYDOZYIDLRW5D","","null","<img src=""img/land6.png"" style=""width:200px; border:14px solid green;"">","null","","","","","","",""
"","image-keyboard-response","281","170985","0.0-281.0","3H7Z272LX8TRZ4AH4T5R2DI7DVHLPA","A1OOCYEFLAJD98","3KVQ0UJWPX71V463XQYDOZYIDLRW5D","","881.6999998092651","img/land4.png","74","882.2000000476837","1","1","1","1,0.7,0.7,0.7,1,0.7,0.7,0.7,1","",""
"","html-keyboard-response","282","171287","0.0-282.0","3H7Z272LX8TRZ4AH4T5R2DI7DVHLPA","A1OOCYEFLAJD98","3KVQ0UJWPX71V463XQYDOZYIDLRW5D","","null","<img src=""img/land4.png"" style=""width:200px; border:14px solid green;"">","null","","","","","","",""
"","image-keyboard-response","283","171685","0.0-283.0","3H7Z272LX8TRZ4AH4T5R2DI7DVHLPA","A1OOCYEFLAJD98","3KVQ0UJWPX71V463XQYDOZYIDLRW5D","","398.19999980926514","img/land6.png","76","398.7999999523163","3","1","3","1,0.7,0.7,0.7,1,0.7,0.7,0.7,1","",""
"","html-keyboard-response","284","171987","0.0-284.0","3H7Z272LX8TRZ4AH4T5R2DI7DVHLPA","A1OOCYEFLAJD98","3KVQ0UJWPX71V463XQYDOZYIDLRW5D","","null","<img src=""img/land6.png"" style=""width:200px; border:14px solid green;"">","null","","","","","","",""
"","image-keyboard-response","285","172970","0.0-285.0","3H7Z272LX8TRZ4AH4T5R2DI7DVHLPA","A1OOCYEFLAJD98","3KVQ0UJWPX71V463XQYDOZYIDLRW5D","","981.5","img/land4.png","74","982.1000001430511","1","1","1","1,0.7,0.7,0.7,1,0.7,0.7,0.7,1","",""
"","html-keyboard-response","286","173271","0.0-286.0","3H7Z272LX8TRZ4AH4T5R2DI7DVHLPA","A1OOCYEFLAJD98","3KVQ0UJWPX71V463XQYDOZYIDLRW5D","","null","<img src=""img/land4.png"" style=""width:200px; border:14px solid green;"">","null","","","","","","",""
"","image-keyboard-response","287","173766","0.0-287.0","3H7Z272LX8TRZ4AH4T5R2DI7DVHLPA","A1OOCYEFLAJD98","3KVQ0UJWPX71V463XQYDOZYIDLRW5D","","493.89999985694885","img/land4.png","74","494.59999990463257","1","1","1","1,0.7,0.7,0.7,1,0.7,0.7,0.7,1","",""
"","html-keyboard-response","288","174067","0.0-288.0","3H7Z272LX8TRZ4AH4T5R2DI7DVHLPA","A1OOCYEFLAJD98","3KVQ0UJWPX71V463XQYDOZYIDLRW5D","","null","<img src=""img/land4.png"" style=""width:200px; border:14px solid green;"">","null","","","","","","",""
"","image-keyboard-response","289","174574","0.0-289.0","3H7Z272LX8TRZ4AH4T5R2DI7DVHLPA","A1OOCYEFLAJD98","3KVQ0UJWPX71V463XQYDOZYIDLRW5D","","505.90000009536743","img/land6.png","76","506.40000009536743","3","1","3","1,0.7,0.7,0.7,1,0.7,0.7,0.7,1","",""
"","html-keyboard-response","290","174875","0.0-290.0","3H7Z272LX8TRZ4AH4T5R2DI7DVHLPA","A1OOCYEFLAJD98","3KVQ0UJWPX71V463XQYDOZYIDLRW5D","","null","<img src=""img/land6.png"" style=""width:200px; border:14px solid green;"">","null","","","","","","",""
"","image-keyboard-response","291","175534","0.0-291.0","3H7Z272LX8TRZ4AH4T5R2DI7DVHLPA","A1OOCYEFLAJD98","3KVQ0UJWPX71V463XQYDOZYIDLRW5D","","658.0999999046326","img/land4.png","74","658.7000000476837","1","1","1","1,0.7,0.7,0.7,1,0.7,0.7,0.7,1","",""
"","html-keyboard-response","292","175839","0.0-292.0","3H7Z272LX8TRZ4AH4T5R2DI7DVHLPA","A1OOCYEFLAJD98","3KVQ0UJWPX71V463XQYDOZYIDLRW5D","","null","<img src=""img/land4.png"" style=""width:200px; border:14px solid green;"">","null","","","","","","",""
"","image-keyboard-response","293","176186","0.0-293.0","3H7Z272LX8TRZ4AH4T5R2DI7DVHLPA","A1OOCYEFLAJD98","3KVQ0UJWPX71V463XQYDOZYIDLRW5D","","345.60000014305115","img/land4.png","74","346.10000014305115","1","1","1","1,0.7,0.7,0.7,1,0.7,0.7,0.7,1","",""
"","html-keyboard-response","294","176487","0.0-294.0","3H7Z272LX8TRZ4AH4T5R2DI7DVHLPA","A1OOCYEFLAJD98","3KVQ0UJWPX71V463XQYDOZYIDLRW5D","","null","<img src=""img/land4.png"" style=""width:200px; border:14px solid green;"">","null","","","","","","",""
"","image-keyboard-response","295","176850","0.0-295.0","3H7Z272LX8TRZ4AH4T5R2DI7DVHLPA","A1OOCYEFLAJD98","3KVQ0UJWPX71V463XQYDOZYIDLRW5D","","362.2999999523163","img/land4.png","74","362.80000019073486","1","1","1","1,0.7,0.7,0.7,1,0.7,0.7,0.7,1","",""
"","html-keyboard-response","296","177151","0.0-296.0","3H7Z272LX8TRZ4AH4T5R2DI7DVHLPA","A1OOCYEFLAJD98","3KVQ0UJWPX71V463XQYDOZYIDLRW5D","","null","<img src=""img/land4.png"" style=""width:200px; border:14px solid green;"">","null","","","","","","",""
"","image-keyboard-response","297","177626","0.0-297.0","3H7Z272LX8TRZ4AH4T5R2DI7DVHLPA","A1OOCYEFLAJD98","3KVQ0UJWPX71V463XQYDOZYIDLRW5D","","474.10000014305115","img/land5.png","75","474.5","2","1","2","1,0.7,0.7,0.7,1,0.7,0.7,0.7,1","",""
"","html-keyboard-response","298","177927","0.0-298.0","3H7Z272LX8TRZ4AH4T5R2DI7DVHLPA","A1OOCYEFLAJD98","3KVQ0UJWPX71V463XQYDOZYIDLRW5D","","null","<img src=""img/land5.png"" style=""width:200px; border:14px solid green;"">","null","","","","","","",""
"","image-keyboard-response","299","178762","0.0-299.0","3H7Z272LX8TRZ4AH4T5R2DI7DVHLPA","A1OOCYEFLAJD98","3KVQ0UJWPX71V463XQYDOZYIDLRW5D","","834","img/land4.png","74","834.5","1","1","1","1,0.7,0.7,0.7,1,0.7,0.7,0.7,1","",""
"","html-keyboard-response","300","179063","0.0-300.0","3H7Z272LX8TRZ4AH4T5R2DI7DVHLPA","A1OOCYEFLAJD98","3KVQ0UJWPX71V463XQYDOZYIDLRW5D","","null","<img src=""img/land4.png"" style=""width:200px; border:14px solid green;"">","null","","","","","","",""
"","image-keyboard-response","301","179770","0.0-301.0","3H7Z272LX8TRZ4AH4T5R2DI7DVHLPA","A1OOCYEFLAJD98","3KVQ0UJWPX71V463XQYDOZYIDLRW5D","","705.8999998569489","img/land6.png","76","706.4000000953674","3","1","3","1,0.7,0.7,0.7,1,0.7,0.7,0.7,1","",""
"","html-keyboard-response","302","180071","0.0-302.0","3H7Z272LX8TRZ4AH4T5R2DI7DVHLPA","A1OOCYEFLAJD98","3KVQ0UJWPX71V463XQYDOZYIDLRW5D","","null","<img src=""img/land6.png"" style=""width:200px; border:14px solid green;"">","null","","","","","","",""
"","image-keyboard-response","303","181461","0.0-303.0","3H7Z272LX8TRZ4AH4T5R2DI7DVHLPA","A1OOCYEFLAJD98","3KVQ0UJWPX71V463XQYDOZYIDLRW5D","","1389.8999998569489","img/land4.png","74","1390.3999998569489","1","1","1","1,0.7,0.7,0.7,1,0.7,0.7,0.7,1","",""
"","html-keyboard-response","304","181763","0.0-304.0","3H7Z272LX8TRZ4AH4T5R2DI7DVHLPA","A1OOCYEFLAJD98","3KVQ0UJWPX71V463XQYDOZYIDLRW5D","","null","<img src=""img/land4.png"" style=""width:200px; border:14px solid green;"">","null","","","","","","",""
"","image-keyboard-response","305","182329","0.0-305.0","3H7Z272LX8TRZ4AH4T5R2DI7DVHLPA","A1OOCYEFLAJD98","3KVQ0UJWPX71V463XQYDOZYIDLRW5D","","565.6999998092651","img/land5.png","75","566.2999999523163","2","1","2","1,0.7,0.7,0.7,1,0.7,0.7,0.7,1","",""
"","html-keyboard-response","306","182630","0.0-306.0","3H7Z272LX8TRZ4AH4T5R2DI7DVHLPA","A1OOCYEFLAJD98","3KVQ0UJWPX71V463XQYDOZYIDLRW5D","","null","<img src=""img/land5.png"" style=""width:200px; border:14px solid green;"">","null","","","","","","",""
"","image-keyboard-response","307","183497","0.0-307.0","3H7Z272LX8TRZ4AH4T5R2DI7DVHLPA","A1OOCYEFLAJD98","3KVQ0UJWPX71V463XQYDOZYIDLRW5D","","866.7000000476837","img/land4.png","74","867.0999999046326","1","1","1","1,0.7,0.7,0.7,1,0.7,0.7,0.7,1","",""
"","html-keyboard-response","308","183798","0.0-308.0","3H7Z272LX8TRZ4AH4T5R2DI7DVHLPA","A1OOCYEFLAJD98","3KVQ0UJWPX71V463XQYDOZYIDLRW5D","","null","<img src=""img/land4.png"" style=""width:200px; border:14px solid green;"">","null","","","","","","",""
"","image-keyboard-response","309","184293","0.0-309.0","3H7Z272LX8TRZ4AH4T5R2DI7DVHLPA","A1OOCYEFLAJD98","3KVQ0UJWPX71V463XQYDOZYIDLRW5D","","494.5","img/land5.png","75","494.89999985694885","2","1","2","1,0.7,0.7,0.7,1,0.7,0.7,0.7,1","",""
"","html-keyboard-response","310","184603","0.0-310.0","3H7Z272LX8TRZ4AH4T5R2DI7DVHLPA","A1OOCYEFLAJD98","3KVQ0UJWPX71V463XQYDOZYIDLRW5D","","null","<img src=""img/land5.png"" style=""width:200px; border:14px solid green;"">","null","","","","","","",""
"","image-keyboard-response","311","185129","0.0-311.0","3H7Z272LX8TRZ4AH4T5R2DI7DVHLPA","A1OOCYEFLAJD98","3KVQ0UJWPX71V463XQYDOZYIDLRW5D","","526","img/land4.png","74","526.5999999046326","1","1","1","1,0.7,0.7,0.7,1,0.7,0.7,0.7,1","",""
"","html-keyboard-response","312","185431","0.0-312.0","3H7Z272LX8TRZ4AH4T5R2DI7DVHLPA","A1OOCYEFLAJD98","3KVQ0UJWPX71V463XQYDOZYIDLRW5D","","null","<img src=""img/land4.png"" style=""width:200px; border:14px solid green;"">","null","","","","","","",""
"","image-keyboard-response","313","185902","0.0-313.0","3H7Z272LX8TRZ4AH4T5R2DI7DVHLPA","A1OOCYEFLAJD98","3KVQ0UJWPX71V463XQYDOZYIDLRW5D","","470.5","img/land6.png","76","470.90000009536743","3","1","3","1,0.7,0.7,0.7,1,0.7,0.7,0.7,1","",""
"","html-keyboard-response","314","186203","0.0-314.0","3H7Z272LX8TRZ4AH4T5R2DI7DVHLPA","A1OOCYEFLAJD98","3KVQ0UJWPX71V463XQYDOZYIDLRW5D","","null","<img src=""img/land6.png"" style=""width:200px; border:14px solid green;"">","null","","","","","","",""
"","image-keyboard-response","315","186562","0.0-315.0","3H7Z272LX8TRZ4AH4T5R2DI7DVHLPA","A1OOCYEFLAJD98","3KVQ0UJWPX71V463XQYDOZYIDLRW5D","","357.89999985694885","img/land6.png","76","358.5","3","1","3","1,0.7,0.7,0.7,1,0.7,0.7,0.7,1","",""
"","html-keyboard-response","316","186863","0.0-316.0","3H7Z272LX8TRZ4AH4T5R2DI7DVHLPA","A1OOCYEFLAJD98","3KVQ0UJWPX71V463XQYDOZYIDLRW5D","","null","<img src=""img/land6.png"" style=""width:200px; border:14px solid green;"">","null","","","","","","",""
"","image-keyboard-response","317","187274","0.0-317.0","3H7Z272LX8TRZ4AH4T5R2DI7DVHLPA","A1OOCYEFLAJD98","3KVQ0UJWPX71V463XQYDOZYIDLRW5D","","409.7999999523163","img/land5.png","75","410.2999999523163","2","1","2","1,0.7,0.7,0.7,1,0.7,0.7,0.7,1","",""
"","html-keyboard-response","318","187574","0.0-318.0","3H7Z272LX8TRZ4AH4T5R2DI7DVHLPA","A1OOCYEFLAJD98","3KVQ0UJWPX71V463XQYDOZYIDLRW5D","","null","<img src=""img/land5.png"" style=""width:200px; border:14px solid green;"">","null","","","","","","",""
"","image-keyboard-response","319","188434","0.0-319.0","3H7Z272LX8TRZ4AH4T5R2DI7DVHLPA","A1OOCYEFLAJD98","3KVQ0UJWPX71V463XQYDOZYIDLRW5D","","858.7000000476837","img/land4.png","74","859.2000000476837","1","1","1","1,0.7,0.7,0.7,1,0.7,0.7,0.7,1","",""
"","html-keyboard-response","320","188735","0.0-320.0","3H7Z272LX8TRZ4AH4T5R2DI7DVHLPA","A1OOCYEFLAJD98","3KVQ0UJWPX71V463XQYDOZYIDLRW5D","","null","<img src=""img/land4.png"" style=""width:200px; border:14px solid green;"">","null","","","","","","",""
"","image-keyboard-response","321","189146","0.0-321.0","3H7Z272LX8TRZ4AH4T5R2DI7DVHLPA","A1OOCYEFLAJD98","3KVQ0UJWPX71V463XQYDOZYIDLRW5D","","409.80000019073486","img/land4.png","74","410.2999999523163","1","1","1","1,0.7,0.7,0.7,1,0.7,0.7,0.7,1","",""
"","html-keyboard-response","322","189447","0.0-322.0","3H7Z272LX8TRZ4AH4T5R2DI7DVHLPA","A1OOCYEFLAJD98","3KVQ0UJWPX71V463XQYDOZYIDLRW5D","","null","<img src=""img/land4.png"" style=""width:200px; border:14px solid green;"">","null","","","","","","",""
"","image-keyboard-response","323","190038","0.0-323.0","3H7Z272LX8TRZ4AH4T5R2DI7DVHLPA","A1OOCYEFLAJD98","3KVQ0UJWPX71V463XQYDOZYIDLRW5D","","589.7000000476837","img/land6.png","76","590.2000000476837","3","1","3","1,0.7,0.7,0.7,1,0.7,0.7,0.7,1","",""
"","html-keyboard-response","324","190339","0.0-324.0","3H7Z272LX8TRZ4AH4T5R2DI7DVHLPA","A1OOCYEFLAJD98","3KVQ0UJWPX71V463XQYDOZYIDLRW5D","","null","<img src=""img/land6.png"" style=""width:200px; border:14px solid green;"">","null","","","","","","",""
"","image-keyboard-response","325","190865","0.0-325.0","3H7Z272LX8TRZ4AH4T5R2DI7DVHLPA","A1OOCYEFLAJD98","3KVQ0UJWPX71V463XQYDOZYIDLRW5D","","525.5999999046326","img/land4.png","75","526.0999999046326","2","1","1","1,0.7,0.7,0.7,1,0.7,0.7,0.7,1","",""
"","html-keyboard-response","326","191167","0.0-326.0","3H7Z272LX8TRZ4AH4T5R2DI7DVHLPA","A1OOCYEFLAJD98","3KVQ0UJWPX71V463XQYDOZYIDLRW5D","","null","<img src=""img/land4.png"" style=""width:200px; border:14px solid green;"">","null","","","","","","",""
"","image-keyboard-response","327","191642","0.0-327.0","3H7Z272LX8TRZ4AH4T5R2DI7DVHLPA","A1OOCYEFLAJD98","3KVQ0UJWPX71V463XQYDOZYIDLRW5D","","473.7000000476837","img/land4.png","74","474.2000000476837","1","1","1","1,0.7,0.7,0.7,1,0.7,0.7,0.7,1","",""
"","html-keyboard-response","328","191942","0.0-328.0","3H7Z272LX8TRZ4AH4T5R2DI7DVHLPA","A1OOCYEFLAJD98","3KVQ0UJWPX71V463XQYDOZYIDLRW5D","","null","<img src=""img/land4.png"" style=""width:200px; border:14px solid green;"">","null","","","","","","",""
"","image-keyboard-response","329","192345","0.0-329.0","3H7Z272LX8TRZ4AH4T5R2DI7DVHLPA","A1OOCYEFLAJD98","3KVQ0UJWPX71V463XQYDOZYIDLRW5D","","402.39999985694885","img/land4.png","74","402.7999999523163","1","1","1","1,0.7,0.7,0.7,1,0.7,0.7,0.7,1","",""
"","html-keyboard-response","330","192647","0.0-330.0","3H7Z272LX8TRZ4AH4T5R2DI7DVHLPA","A1OOCYEFLAJD98","3KVQ0UJWPX71V463XQYDOZYIDLRW5D","","null","<img src=""img/land4.png"" style=""width:200px; border:14px solid green;"">","null","","","","","","",""
"","image-keyboard-response","331","193206","0.0-331.0","3H7Z272LX8TRZ4AH4T5R2DI7DVHLPA","A1OOCYEFLAJD98","3KVQ0UJWPX71V463XQYDOZYIDLRW5D","","558.2000000476837","img/land6.png","76","558.7000000476837","3","1","3","1,0.7,0.7,0.7,1,0.7,0.7,0.7,1","",""
"","html-keyboard-response","332","193507","0.0-332.0","3H7Z272LX8TRZ4AH4T5R2DI7DVHLPA","A1OOCYEFLAJD98","3KVQ0UJWPX71V463XQYDOZYIDLRW5D","","null","<img src=""img/land6.png"" style=""width:200px; border:14px solid green;"">","null","","","","","","",""
"","image-keyboard-response","333","194146","0.0-333.0","3H7Z272LX8TRZ4AH4T5R2DI7DVHLPA","A1OOCYEFLAJD98","3KVQ0UJWPX71V463XQYDOZYIDLRW5D","","638.2999999523163","img/land4.png","74","638.9000000953674","1","1","1","1,0.7,0.7,0.7,1,0.7,0.7,0.7,1","",""
"","html-keyboard-response","334","194447","0.0-334.0","3H7Z272LX8TRZ4AH4T5R2DI7DVHLPA","A1OOCYEFLAJD98","3KVQ0UJWPX71V463XQYDOZYIDLRW5D","","null","<img src=""img/land4.png"" style=""width:200px; border:14px solid green;"">","null","","","","","","",""
"","image-keyboard-response","335","194973","0.0-335.0","3H7Z272LX8TRZ4AH4T5R2DI7DVHLPA","A1OOCYEFLAJD98","3KVQ0UJWPX71V463XQYDOZYIDLRW5D","","525.5999999046326","img/land6.png","76","526.2000000476837","3","1","3","1,0.7,0.7,0.7,1,0.7,0.7,0.7,1","",""
"","html-keyboard-response","336","195275","0.0-336.0","3H7Z272LX8TRZ4AH4T5R2DI7DVHLPA","A1OOCYEFLAJD98","3KVQ0UJWPX71V463XQYDOZYIDLRW5D","","null","<img src=""img/land6.png"" style=""width:200px; border:14px solid green;"">","null","","","","","","",""
"","image-keyboard-response","337","195733","0.0-337.0","3H7Z272LX8TRZ4AH4T5R2DI7DVHLPA","A1OOCYEFLAJD98","3KVQ0UJWPX71V463XQYDOZYIDLRW5D","","457.7999999523163","img/land4.png","74","458.5","1","1","1","1,0.7,0.7,0.7,1,0.7,0.7,0.7,1","",""
"","html-keyboard-response","338","196034","0.0-338.0","3H7Z272LX8TRZ4AH4T5R2DI7DVHLPA","A1OOCYEFLAJD98","3KVQ0UJWPX71V463XQYDOZYIDLRW5D","","null","<img src=""img/land4.png"" style=""width:200px; border:14px solid green;"">","null","","","","","","",""
"","instructions","339","198693","0.0-339.0","3H7Z272LX8TRZ4AH4T5R2DI7DVHLPA","A1OOCYEFLAJD98","3KVQ0UJWPX71V463XQYDOZYIDLRW5D","[{""page_index"":0,""viewing_time"":2658.4000000953674}]","2658.600000143051","","","","","","","","",""
"","survey-text","340","201685","0.0-340.0-0.0","3H7Z272LX8TRZ4AH4T5R2DI7DVHLPA","A1OOCYEFLAJD98","3KVQ0UJWPX71V463XQYDOZYIDLRW5D","","2989.7999999523163","","","","","","","","{""Q0"":""45""}",""
"","survey-multi-choice","341","203926","0.0-340.0-1.0","3H7Z272LX8TRZ4AH4T5R2DI7DVHLPA","A1OOCYEFLAJD98","3KVQ0UJWPX71V463XQYDOZYIDLRW5D","","2240","","","","","","","","{""gender"":""M""}","[0]"
"","survey-text","342","210182","0.0-341.0","3H7Z272LX8TRZ4AH4T5R2DI7DVHLPA","A1OOCYEFLAJD98","3KVQ0UJWPX71V463XQYDOZYIDLRW5D","","6254.699999809265","","","","","","","","{""Q0"":""A1OOCYEFLAJD98""}",""
