"success","trial_type","trial_index","time_elapsed","internal_node_id","assignmentID","mturkID","hitID","view_history","rt","stimulus","key_press","reactionTime","a","r","warning","s","reward_cond","responses","question_order"
"true","fullscreen","0","2224","0.0-0.0","33F859I567ZN9EQHU38SF1KBCZIHBE","A1OZPLHNIU1519","3FW4EL5A3LANKRP91N782LFHPY722Q","","","","","","","","","","","",""
"","instructions","1","24787","0.0-1.0","33F859I567ZN9EQHU38SF1KBCZIHBE","A1OZPLHNIU1519","3FW4EL5A3LANKRP91N782LFHPY722Q","[{""page_index"":0,""viewing_time"":10191.100000023842},{""page_index"":1,""viewing_time"":909.3999999761581},{""page_index"":2,""viewing_time"":878.1999999880791},{""page_index"":3,""viewing_time"":681.6000000238419},{""page_index"":4,""viewing_time"":5090.5},{""page_index"":5,""viewing_time"":1514.199999988079},{""page_index"":6,""viewing_time"":2305.699999988079},{""page_index"":7,""viewing_time"":989.9000000357628}]","22561.19999998808","","","","","","","","","",""
"","image-keyboard-response","2","25790","0.0-2.0","33F859I567ZN9EQHU38SF1KBCZIHBE","A1OZPLHNIU1519","3FW4EL5A3LANKRP91N782LFHPY722Q","","","img/land4.png","","1002.1999999880791","-1","0","true","3","0.8,0.2,0.2,0.2,0.8,0.2,0.2,0.2,0.8","",""
"","html-keyboard-response","3","26103","0.0-3.0","33F859I567ZN9EQHU38SF1KBCZIHBE","A1OZPLHNIU1519","3FW4EL5A3LANKRP91N782LFHPY722Q","","null","<img src=""img/land4.png"" style=""width:200px;border:14px solid red;"">","null","","","","","","","",""
"","html-keyboard-response","4","38741","0.0-4.0-0.0","33F859I567ZN9EQHU38SF1KBCZIHBE","A1OZPLHNIU1519","3FW4EL5A3LANKRP91N782LFHPY722Q","","","","","","","","","","","",""
"","image-keyboard-response","5","39269","0.0-5.0","33F859I567ZN9EQHU38SF1KBCZIHBE","A1OZPLHNIU1519","3FW4EL5A3LANKRP91N782LFHPY722Q","","526.6999999880791","img/land4.png","74","527.7999999523163","1","0","false","3","0.8,0.2,0.2,0.2,0.8,0.2,0.2,0.2,0.8","",""
"","html-keyboard-response","6","39572","0.0-6.0","33F859I567ZN9EQHU38SF1KBCZIHBE","A1OZPLHNIU1519","3FW4EL5A3LANKRP91N782LFHPY722Q","","null","<img src=""img/land4.png"" style=""width:200px;border:14px solid red;"">","null","","","","","","","",""
"","image-keyboard-response","7","39980","0.0-8.0","33F859I567ZN9EQHU38SF1KBCZIHBE","A1OZPLHNIU1519","3FW4EL5A3LANKRP91N782LFHPY722Q","","407.30000001192093","img/land7.png","75","408.2999999523163","2","1","false","2","0.8,0.2,0.2,0.2,0.8,0.2,0.2,0.2,0.8","",""
"","html-keyboard-response","8","40283","0.0-9.0","33F859I567ZN9EQHU38SF1KBCZIHBE","A1OZPLHNIU1519","3FW4EL5A3LANKRP91N782LFHPY722Q","","null","<img src=""img/land7.png"" style=""width:200px; border:14px solid green;"">","null","","","","","","","",""
"","image-keyboard-response","9","41156","0.0-11.0","33F859I567ZN9EQHU38SF1KBCZIHBE","A1OZPLHNIU1519","3FW4EL5A3LANKRP91N782LFHPY722Q","","872.3999999761581","img/land4.png","75","873.3000000119209","2","1","false","3","0.8,0.2,0.2,0.2,0.8,0.2,0.2,0.2,0.8","",""
"","html-keyboard-response","10","41458","0.0-12.0","33F859I567ZN9EQHU38SF1KBCZIHBE","A1OZPLHNIU1519","3FW4EL5A3LANKRP91N782LFHPY722Q","","null","<img src=""img/land4.png"" style=""width:200px; border:14px solid green;"">","null","","","","","","","",""
"","image-keyboard-response","11","42020","0.0-14.0","33F859I567ZN9EQHU38SF1KBCZIHBE","A1OZPLHNIU1519","3FW4EL5A3LANKRP91N782LFHPY722Q","","561.1000000238419","img/land1.png","75","561.8000000119209","2","0","false","1","0.8,0.2,0.2,0.2,0.8,0.2,0.2,0.2,0.8","",""
"","html-keyboard-response","12","42323","0.0-15.0","33F859I567ZN9EQHU38SF1KBCZIHBE","A1OZPLHNIU1519","3FW4EL5A3LANKRP91N782LFHPY722Q","","null","<img src=""img/land1.png"" style=""width:200px;border:14px solid red;"">","null","","","","","","","",""
"","image-keyboard-response","13","42724","0.0-17.0","33F859I567ZN9EQHU38SF1KBCZIHBE","A1OZPLHNIU1519","3FW4EL5A3LANKRP91N782LFHPY722Q","","399.89999997615814","img/land1.png","74","400.80000001192093","1","1","false","1","0.8,0.2,0.2,0.2,0.8,0.2,0.2,0.2,0.8","",""
"","html-keyboard-response","14","43035","0.0-18.0","33F859I567ZN9EQHU38SF1KBCZIHBE","A1OZPLHNIU1519","3FW4EL5A3LANKRP91N782LFHPY722Q","","null","<img src=""img/land1.png"" style=""width:200px; border:14px solid green;"">","null","","","","","","","",""
"","image-keyboard-response","15","43828","0.0-20.0","33F859I567ZN9EQHU38SF1KBCZIHBE","A1OZPLHNIU1519","3FW4EL5A3LANKRP91N782LFHPY722Q","","791.8999999761581","img/land4.png","75","792.8999999761581","2","0","false","3","0.8,0.2,0.2,0.2,0.8,0.2,0.2,0.2,0.8","",""
"","html-keyboard-response","16","44130","0.0-21.0","33F859I567ZN9EQHU38SF1KBCZIHBE","A1OZPLHNIU1519","3FW4EL5A3LANKRP91N782LFHPY722Q","","null","<img src=""img/land4.png"" style=""width:200px;border:14px solid red;"">","null","","","","","","","",""
"","image-keyboard-response","17","44883","0.0-23.0","33F859I567ZN9EQHU38SF1KBCZIHBE","A1OZPLHNIU1519","3FW4EL5A3LANKRP91N782LFHPY722Q","","752.4000000357628","img/land7.png","75","753","2","1","false","2","0.8,0.2,0.2,0.2,0.8,0.2,0.2,0.2,0.8","",""
"","html-keyboard-response","18","45186","0.0-24.0","33F859I567ZN9EQHU38SF1KBCZIHBE","A1OZPLHNIU1519","3FW4EL5A3LANKRP91N782LFHPY722Q","","null","<img src=""img/land7.png"" style=""width:200px; border:14px solid green;"">","null","","","","","","","",""
"","image-keyboard-response","19","45996","0.0-26.0","33F859I567ZN9EQHU38SF1KBCZIHBE","A1OZPLHNIU1519","3FW4EL5A3LANKRP91N782LFHPY722Q","","808.8999999761581","img/land4.png","75","809.8999999761581","2","0","false","3","0.8,0.2,0.2,0.2,0.8,0.2,0.2,0.2,0.8","",""
"","html-keyboard-response","20","46299","0.0-27.0","33F859I567ZN9EQHU38SF1KBCZIHBE","A1OZPLHNIU1519","3FW4EL5A3LANKRP91N782LFHPY722Q","","null","<img src=""img/land4.png"" style=""width:200px;border:14px solid red;"">","null","","","","","","","",""
"","image-keyboard-response","21","47012","0.0-29.0","33F859I567ZN9EQHU38SF1KBCZIHBE","A1OZPLHNIU1519","3FW4EL5A3LANKRP91N782LFHPY722Q","","712.0999999642372","img/land7.png","75","713","2","1","false","2","0.8,0.2,0.2,0.2,0.8,0.2,0.2,0.2,0.8","",""
"","html-keyboard-response","22","47326","0.0-30.0","33F859I567ZN9EQHU38SF1KBCZIHBE","A1OZPLHNIU1519","3FW4EL5A3LANKRP91N782LFHPY722Q","","null","<img src=""img/land7.png"" style=""width:200px; border:14px solid green;"">","null","","","","","","","",""
"","image-keyboard-response","23","47652","0.0-32.0","33F859I567ZN9EQHU38SF1KBCZIHBE","A1OZPLHNIU1519","3FW4EL5A3LANKRP91N782LFHPY722Q","","325.39999997615814","img/land7.png","75","326.30000001192093","2","1","false","2","0.8,0.2,0.2,0.2,0.8,0.2,0.2,0.2,0.8","",""
"","html-keyboard-response","24","47954","0.0-33.0","33F859I567ZN9EQHU38SF1KBCZIHBE","A1OZPLHNIU1519","3FW4EL5A3LANKRP91N782LFHPY722Q","","null","<img src=""img/land7.png"" style=""width:200px; border:14px solid green;"">","null","","","","","","","",""
"","image-keyboard-response","25","48236","0.0-35.0","33F859I567ZN9EQHU38SF1KBCZIHBE","A1OZPLHNIU1519","3FW4EL5A3LANKRP91N782LFHPY722Q","","280.9000000357628","img/land7.png","75","281.5999999642372","2","1","false","2","0.8,0.2,0.2,0.2,0.8,0.2,0.2,0.2,0.8","",""
"","html-keyboard-response","26","48544","0.0-36.0","33F859I567ZN9EQHU38SF1KBCZIHBE","A1OZPLHNIU1519","3FW4EL5A3LANKRP91N782LFHPY722Q","","null","<img src=""img/land7.png"" style=""width:200px; border:14px solid green;"">","null","","","","","","","",""
"","image-keyboard-response","27","49546","0.0-38.0","33F859I567ZN9EQHU38SF1KBCZIHBE","A1OZPLHNIU1519","3FW4EL5A3LANKRP91N782LFHPY722Q","","","img/land4.png","","1002","-1","0","true","3","0.8,0.2,0.2,0.2,0.8,0.2,0.2,0.2,0.8","",""
"","html-keyboard-response","28","49847","0.0-39.0","33F859I567ZN9EQHU38SF1KBCZIHBE","A1OZPLHNIU1519","3FW4EL5A3LANKRP91N782LFHPY722Q","","null","<img src=""img/land4.png"" style=""width:200px;border:14px solid red;"">","null","","","","","","","",""
"","html-keyboard-response","29","52434","0.0-40.0-0.0","33F859I567ZN9EQHU38SF1KBCZIHBE","A1OZPLHNIU1519","3FW4EL5A3LANKRP91N782LFHPY722Q","","","","","","","","","","","",""
"","image-keyboard-response","30","52916","0.0-41.0","33F859I567ZN9EQHU38SF1KBCZIHBE","A1OZPLHNIU1519","3FW4EL5A3LANKRP91N782LFHPY722Q","","480.5999999642372","img/land1.png","74","481.4000000357628","1","1","false","1","0.8,0.2,0.2,0.2,0.8,0.2,0.2,0.2,0.8","",""
"","html-keyboard-response","31","53217","0.0-42.0","33F859I567ZN9EQHU38SF1KBCZIHBE","A1OZPLHNIU1519","3FW4EL5A3LANKRP91N782LFHPY722Q","","null","<img src=""img/land1.png"" style=""width:200px; border:14px solid green;"">","null","","","","","","","",""
"","image-keyboard-response","32","53892","0.0-44.0","33F859I567ZN9EQHU38SF1KBCZIHBE","A1OZPLHNIU1519","3FW4EL5A3LANKRP91N782LFHPY722Q","","673.5999999642372","img/land7.png","75","674.5","2","1","false","2","0.8,0.2,0.2,0.2,0.8,0.2,0.2,0.2,0.8","",""
"","html-keyboard-response","33","54194","0.0-45.0","33F859I567ZN9EQHU38SF1KBCZIHBE","A1OZPLHNIU1519","3FW4EL5A3LANKRP91N782LFHPY722Q","","null","<img src=""img/land7.png"" style=""width:200px; border:14px solid green;"">","null","","","","","","","",""
"","image-keyboard-response","34","54700","0.0-47.0","33F859I567ZN9EQHU38SF1KBCZIHBE","A1OZPLHNIU1519","3FW4EL5A3LANKRP91N782LFHPY722Q","","505.10000002384186","img/land1.png","74","506.0999999642372","1","1","false","1","0.8,0.2,0.2,0.2,0.8,0.2,0.2,0.2,0.8","",""
"","html-keyboard-response","35","55002","0.0-48.0","33F859I567ZN9EQHU38SF1KBCZIHBE","A1OZPLHNIU1519","3FW4EL5A3LANKRP91N782LFHPY722Q","","null","<img src=""img/land1.png"" style=""width:200px; border:14px solid green;"">","null","","","","","","","",""
"","image-keyboard-response","36","55316","0.0-50.0","33F859I567ZN9EQHU38SF1KBCZIHBE","A1OZPLHNIU1519","3FW4EL5A3LANKRP91N782LFHPY722Q","","312.80000001192093","img/land1.png","74","313.80000001192093","1","1","false","1","0.8,0.2,0.2,0.2,0.8,0.2,0.2,0.2,0.8","",""
"","html-keyboard-response","37","55619","0.0-51.0","33F859I567ZN9EQHU38SF1KBCZIHBE","A1OZPLHNIU1519","3FW4EL5A3LANKRP91N782LFHPY722Q","","null","<img src=""img/land1.png"" style=""width:200px; border:14px solid green;"">","null","","","","","","","",""
"","image-keyboard-response","38","56196","0.0-53.0","33F859I567ZN9EQHU38SF1KBCZIHBE","A1OZPLHNIU1519","3FW4EL5A3LANKRP91N782LFHPY722Q","","575.8999999761581","img/land4.png","75","576.8999999761581","2","0","false","3","0.8,0.2,0.2,0.2,0.8,0.2,0.2,0.2,0.8","",""
"","html-keyboard-response","39","56498","0.0-54.0","33F859I567ZN9EQHU38SF1KBCZIHBE","A1OZPLHNIU1519","3FW4EL5A3LANKRP91N782LFHPY722Q","","null","<img src=""img/land4.png"" style=""width:200px;border:14px solid red;"">","null","","","","","","","",""
"","image-keyboard-response","40","56972","0.0-56.0","33F859I567ZN9EQHU38SF1KBCZIHBE","A1OZPLHNIU1519","3FW4EL5A3LANKRP91N782LFHPY722Q","","472.9000000357628","img/land1.png","74","474","1","1","false","1","0.8,0.2,0.2,0.2,0.8,0.2,0.2,0.2,0.8","",""
"","html-keyboard-response","41","57275","0.0-57.0","33F859I567ZN9EQHU38SF1KBCZIHBE","A1OZPLHNIU1519","3FW4EL5A3LANKRP91N782LFHPY722Q","","null","<img src=""img/land1.png"" style=""width:200px; border:14px solid green;"">","null","","","","","","","",""
"","image-keyboard-response","42","57908","0.0-59.0","33F859I567ZN9EQHU38SF1KBCZIHBE","A1OZPLHNIU1519","3FW4EL5A3LANKRP91N782LFHPY722Q","","631.9000000357628","img/land7.png","75","632.6999999880791","2","0","false","2","0.8,0.2,0.2,0.2,0.8,0.2,0.2,0.2,0.8","",""
"","html-keyboard-response","43","58210","0.0-60.0","33F859I567ZN9EQHU38SF1KBCZIHBE","A1OZPLHNIU1519","3FW4EL5A3LANKRP91N782LFHPY722Q","","null","<img src=""img/land7.png"" style=""width:200px;border:14px solid red;"">","null","","","","","","","",""
"","image-keyboard-response","44","58524","0.0-62.0","33F859I567ZN9EQHU38SF1KBCZIHBE","A1OZPLHNIU1519","3FW4EL5A3LANKRP91N782LFHPY722Q","","312.60000002384186","img/land4.png","75","313.5","2","0","false","3","0.8,0.2,0.2,0.2,0.8,0.2,0.2,0.2,0.8","",""
"","html-keyboard-response","45","58826","0.0-63.0","33F859I567ZN9EQHU38SF1KBCZIHBE","A1OZPLHNIU1519","3FW4EL5A3LANKRP91N782LFHPY722Q","","null","<img src=""img/land4.png"" style=""width:200px;border:14px solid red;"">","null","","","","","","","",""
"","image-keyboard-response","46","59204","0.0-65.0","33F859I567ZN9EQHU38SF1KBCZIHBE","A1OZPLHNIU1519","3FW4EL5A3LANKRP91N782LFHPY722Q","","377.30000001192093","img/land7.png","75","378.0999999642372","2","1","false","2","0.8,0.2,0.2,0.2,0.8,0.2,0.2,0.2,0.8","",""
"","html-keyboard-response","47","59506","0.0-66.0","33F859I567ZN9EQHU38SF1KBCZIHBE","A1OZPLHNIU1519","3FW4EL5A3LANKRP91N782LFHPY722Q","","null","<img src=""img/land7.png"" style=""width:200px; border:14px solid green;"">","null","","","","","","","",""
"","image-keyboard-response","48","59847","0.0-68.0","33F859I567ZN9EQHU38SF1KBCZIHBE","A1OZPLHNIU1519","3FW4EL5A3LANKRP91N782LFHPY722Q","","339.60000002384186","img/land1.png","75","340.30000001192093","2","0","false","1","0.8,0.2,0.2,0.2,0.8,0.2,0.2,0.2,0.8","",""
"","html-keyboard-response","49","60149","0.0-69.0","33F859I567ZN9EQHU38SF1KBCZIHBE","A1OZPLHNIU1519","3FW4EL5A3LANKRP91N782LFHPY722Q","","null","<img src=""img/land1.png"" style=""width:200px;border:14px solid red;"">","null","","","","","","","",""
"","image-keyboard-response","50","60548","0.0-71.0","33F859I567ZN9EQHU38SF1KBCZIHBE","A1OZPLHNIU1519","3FW4EL5A3LANKRP91N782LFHPY722Q","","398.0999999642372","img/land1.png","75","399","2","0","false","1","0.8,0.2,0.2,0.2,0.8,0.2,0.2,0.2,0.8","",""
"","html-keyboard-response","51","60850","0.0-72.0","33F859I567ZN9EQHU38SF1KBCZIHBE","A1OZPLHNIU1519","3FW4EL5A3LANKRP91N782LFHPY722Q","","null","<img src=""img/land1.png"" style=""width:200px;border:14px solid red;"">","null","","","","","","","",""
"","image-keyboard-response","52","60860","0.0-74.0","33F859I567ZN9EQHU38SF1KBCZIHBE","A1OZPLHNIU1519","3FW4EL5A3LANKRP91N782LFHPY722Q","","8.5","img/land1.png","74","9.300000011920929","1","1","false","1","0.8,0.2,0.2,0.2,0.8,0.2,0.2,0.2,0.8","",""
"","html-keyboard-response","53","61163","0.0-75.0","33F859I567ZN9EQHU38SF1KBCZIHBE","A1OZPLHNIU1519","3FW4EL5A3LANKRP91N782LFHPY722Q","","null","<img src=""img/land1.png"" style=""width:200px; border:14px solid green;"">","null","","","","","","","",""
"","image-keyboard-response","54","61812","0.0-77.0","33F859I567ZN9EQHU38SF1KBCZIHBE","A1OZPLHNIU1519","3FW4EL5A3LANKRP91N782LFHPY722Q","","648.3999999761581","img/land4.png","74","649.1999999880791","1","0","false","3","0.8,0.2,0.2,0.2,0.8,0.2,0.2,0.2,0.8","",""
"","html-keyboard-response","55","62114","0.0-78.0","33F859I567ZN9EQHU38SF1KBCZIHBE","A1OZPLHNIU1519","3FW4EL5A3LANKRP91N782LFHPY722Q","","null","<img src=""img/land4.png"" style=""width:200px;border:14px solid red;"">","null","","","","","","","",""
"","image-keyboard-response","56","62884","0.0-80.0","33F859I567ZN9EQHU38SF1KBCZIHBE","A1OZPLHNIU1519","3FW4EL5A3LANKRP91N782LFHPY722Q","","768.8999999761581","img/land7.png","75","769.8999999761581","2","1","false","2","0.8,0.2,0.2,0.2,0.8,0.2,0.2,0.2,0.8","",""
"","html-keyboard-response","57","63187","0.0-81.0","33F859I567ZN9EQHU38SF1KBCZIHBE","A1OZPLHNIU1519","3FW4EL5A3LANKRP91N782LFHPY722Q","","null","<img src=""img/land7.png"" style=""width:200px; border:14px solid green;"">","null","","","","","","","",""
"","image-keyboard-response","58","63612","0.0-83.0","33F859I567ZN9EQHU38SF1KBCZIHBE","A1OZPLHNIU1519","3FW4EL5A3LANKRP91N782LFHPY722Q","","424.60000002384186","img/land4.png","75","425.60000002384186","2","1","false","3","0.8,0.2,0.2,0.2,0.8,0.2,0.2,0.2,0.8","",""
"","html-keyboard-response","59","63914","0.0-84.0","33F859I567ZN9EQHU38SF1KBCZIHBE","A1OZPLHNIU1519","3FW4EL5A3LANKRP91N782LFHPY722Q","","null","<img src=""img/land4.png"" style=""width:200px; border:14px solid green;"">","null","","","","","","","",""
"","image-keyboard-response","60","64236","0.0-86.0","33F859I567ZN9EQHU38SF1KBCZIHBE","A1OZPLHNIU1519","3FW4EL5A3LANKRP91N782LFHPY722Q","","320.60000002384186","img/land4.png","75","321.5","2","0","false","3","0.8,0.2,0.2,0.2,0.8,0.2,0.2,0.2,0.8","",""
"","html-keyboard-response","61","64537","0.0-87.0","33F859I567ZN9EQHU38SF1KBCZIHBE","A1OZPLHNIU1519","3FW4EL5A3LANKRP91N782LFHPY722Q","","null","<img src=""img/land4.png"" style=""width:200px;border:14px solid red;"">","null","","","","","","","",""
"","image-keyboard-response","62","64924","0.0-89.0","33F859I567ZN9EQHU38SF1KBCZIHBE","A1OZPLHNIU1519","3FW4EL5A3LANKRP91N782LFHPY722Q","","385.5","img/land4.png","75","386.5","2","0","false","3","0.8,0.2,0.2,0.2,0.8,0.2,0.2,0.2,0.8","",""
"","html-keyboard-response","63","65226","0.0-90.0","33F859I567ZN9EQHU38SF1KBCZIHBE","A1OZPLHNIU1519","3FW4EL5A3LANKRP91N782LFHPY722Q","","null","<img src=""img/land4.png"" style=""width:200px;border:14px solid red;"">","null","","","","","","","",""
"","image-keyboard-response","64","66084","0.0-92.0","33F859I567ZN9EQHU38SF1KBCZIHBE","A1OZPLHNIU1519","3FW4EL5A3LANKRP91N782LFHPY722Q","","856.6999999880791","img/land7.png","76","857.4000000357628","3","0","false","2","0.8,0.2,0.2,0.2,0.8,0.2,0.2,0.2,0.8","",""
"","html-keyboard-response","65","66385","0.0-93.0","33F859I567ZN9EQHU38SF1KBCZIHBE","A1OZPLHNIU1519","3FW4EL5A3LANKRP91N782LFHPY722Q","","null","<img src=""img/land7.png"" style=""width:200px;border:14px solid red;"">","null","","","","","","","",""
"","image-keyboard-response","66","67388","0.0-95.0","33F859I567ZN9EQHU38SF1KBCZIHBE","A1OZPLHNIU1519","3FW4EL5A3LANKRP91N782LFHPY722Q","","","img/land4.png","","1002.4000000357628","-1","0","true","3","0.8,0.2,0.2,0.2,0.8,0.2,0.2,0.2,0.8","",""
"","html-keyboard-response","67","67690","0.0-96.0","33F859I567ZN9EQHU38SF1KBCZIHBE","A1OZPLHNIU1519","3FW4EL5A3LANKRP91N782LFHPY722Q","","null","<img src=""img/land4.png"" style=""width:200px;border:14px solid red;"">","null","","","","","","","",""
"","html-keyboard-response","68","71671","0.0-97.0-0.0","33F859I567ZN9EQHU38SF1KBCZIHBE","A1OZPLHNIU1519","3FW4EL5A3LANKRP91N782LFHPY722Q","","","","","","","","","","","",""
"","image-keyboard-response","69","72460","0.0-98.0","33F859I567ZN9EQHU38SF1KBCZIHBE","A1OZPLHNIU1519","3FW4EL5A3LANKRP91N782LFHPY722Q","","788.1000000238419","img/land7.png","76","789.0999999642372","3","0","false","2","0.8,0.2,0.2,0.2,0.8,0.2,0.2,0.2,0.8","",""
"","html-keyboard-response","70","72777","0.0-99.0","33F859I567ZN9EQHU38SF1KBCZIHBE","A1OZPLHNIU1519","3FW4EL5A3LANKRP91N782LFHPY722Q","","null","<img src=""img/land7.png"" style=""width:200px;border:14px solid red;"">","null","","","","","","","",""
"","image-keyboard-response","71","73140","0.0-101.0","33F859I567ZN9EQHU38SF1KBCZIHBE","A1OZPLHNIU1519","3FW4EL5A3LANKRP91N782LFHPY722Q","","361.5","img/land1.png","75","362.30000001192093","2","1","false","1","0.8,0.2,0.2,0.2,0.8,0.2,0.2,0.2,0.8","",""
"","html-keyboard-response","72","73442","0.0-102.0","33F859I567ZN9EQHU38SF1KBCZIHBE","A1OZPLHNIU1519","3FW4EL5A3LANKRP91N782LFHPY722Q","","null","<img src=""img/land1.png"" style=""width:200px; border:14px solid green;"">","null","","","","","","","",""
"","image-keyboard-response","73","74004","0.0-104.0","33F859I567ZN9EQHU38SF1KBCZIHBE","A1OZPLHNIU1519","3FW4EL5A3LANKRP91N782LFHPY722Q","","560.8000000119209","img/land7.png","75","561.7000000476837","2","1","false","2","0.8,0.2,0.2,0.2,0.8,0.2,0.2,0.2,0.8","",""
"","html-keyboard-response","74","74306","0.0-105.0","33F859I567ZN9EQHU38SF1KBCZIHBE","A1OZPLHNIU1519","3FW4EL5A3LANKRP91N782LFHPY722Q","","null","<img src=""img/land7.png"" style=""width:200px; border:14px solid green;"">","null","","","","","","","",""
"","image-keyboard-response","75","75060","0.0-107.0","33F859I567ZN9EQHU38SF1KBCZIHBE","A1OZPLHNIU1519","3FW4EL5A3LANKRP91N782LFHPY722Q","","752.3000000119209","img/land4.png","75","753.4000000357628","2","0","false","3","0.8,0.2,0.2,0.2,0.8,0.2,0.2,0.2,0.8","",""
"","html-keyboard-response","76","75361","0.0-108.0","33F859I567ZN9EQHU38SF1KBCZIHBE","A1OZPLHNIU1519","3FW4EL5A3LANKRP91N782LFHPY722Q","","null","<img src=""img/land4.png"" style=""width:200px;border:14px solid red;"">","null","","","","","","","",""
"","image-keyboard-response","77","75804","0.0-110.0","33F859I567ZN9EQHU38SF1KBCZIHBE","A1OZPLHNIU1519","3FW4EL5A3LANKRP91N782LFHPY722Q","","441.5999999642372","img/land1.png","74","442.19999998807907","1","0","false","1","0.8,0.2,0.2,0.2,0.8,0.2,0.2,0.2,0.8","",""
"","html-keyboard-response","78","76106","0.0-111.0","33F859I567ZN9EQHU38SF1KBCZIHBE","A1OZPLHNIU1519","3FW4EL5A3LANKRP91N782LFHPY722Q","","null","<img src=""img/land1.png"" style=""width:200px;border:14px solid red;"">","null","","","","","","","",""
"","image-keyboard-response","79","76484","0.0-113.0","33F859I567ZN9EQHU38SF1KBCZIHBE","A1OZPLHNIU1519","3FW4EL5A3LANKRP91N782LFHPY722Q","","376.5999999642372","img/land4.png","74","377.60000002384186","1","0","false","3","0.8,0.2,0.2,0.2,0.8,0.2,0.2,0.2,0.8","",""
"","html-keyboard-response","80","76787","0.0-114.0","33F859I567ZN9EQHU38SF1KBCZIHBE","A1OZPLHNIU1519","3FW4EL5A3LANKRP91N782LFHPY722Q","","null","<img src=""img/land4.png"" style=""width:200px;border:14px solid red;"">","null","","","","","","","",""
"","image-keyboard-response","81","77380","0.0-116.0","33F859I567ZN9EQHU38SF1KBCZIHBE","A1OZPLHNIU1519","3FW4EL5A3LANKRP91N782LFHPY722Q","","591.1999999880791","img/land1.png","76","592.6000000238419","3","0","false","1","0.8,0.2,0.2,0.2,0.8,0.2,0.2,0.2,0.8","",""
"","html-keyboard-response","82","77682","0.0-117.0","33F859I567ZN9EQHU38SF1KBCZIHBE","A1OZPLHNIU1519","3FW4EL5A3LANKRP91N782LFHPY722Q","","null","<img src=""img/land1.png"" style=""width:200px;border:14px solid red;"">","null","","","","","","","",""
"","image-keyboard-response","83","78244","0.0-119.0","33F859I567ZN9EQHU38SF1KBCZIHBE","A1OZPLHNIU1519","3FW4EL5A3LANKRP91N782LFHPY722Q","","560.8000000119209","img/land7.png","74","561.5999999642372","1","0","false","2","0.8,0.2,0.2,0.2,0.8,0.2,0.2,0.2,0.8","",""
"","html-keyboard-response","84","78546","0.0-120.0","33F859I567ZN9EQHU38SF1KBCZIHBE","A1OZPLHNIU1519","3FW4EL5A3LANKRP91N782LFHPY722Q","","null","<img src=""img/land7.png"" style=""width:200px;border:14px solid red;"">","null","","","","","","","",""
"","image-keyboard-response","85","78692","0.0-122.0","33F859I567ZN9EQHU38SF1KBCZIHBE","A1OZPLHNIU1519","3FW4EL5A3LANKRP91N782LFHPY722Q","","145.19999998807907","img/land7.png","75","146.19999998807907","2","1","false","2","0.8,0.2,0.2,0.2,0.8,0.2,0.2,0.2,0.8","",""
"","html-keyboard-response","86","78994","0.0-123.0","33F859I567ZN9EQHU38SF1KBCZIHBE","A1OZPLHNIU1519","3FW4EL5A3LANKRP91N782LFHPY722Q","","null","<img src=""img/land7.png"" style=""width:200px; border:14px solid green;"">","null","","","","","","","",""
"","image-keyboard-response","87","79124","0.0-125.0","33F859I567ZN9EQHU38SF1KBCZIHBE","A1OZPLHNIU1519","3FW4EL5A3LANKRP91N782LFHPY722Q","","127.29999995231628","img/land4.png","75","128.30000001192093","2","0","false","3","0.8,0.2,0.2,0.2,0.8,0.2,0.2,0.2,0.8","",""
"","html-keyboard-response","88","79426","0.0-126.0","33F859I567ZN9EQHU38SF1KBCZIHBE","A1OZPLHNIU1519","3FW4EL5A3LANKRP91N782LFHPY722Q","","null","<img src=""img/land4.png"" style=""width:200px;border:14px solid red;"">","null","","","","","","","",""
"","image-keyboard-response","89","79812","0.0-128.0","33F859I567ZN9EQHU38SF1KBCZIHBE","A1OZPLHNIU1519","3FW4EL5A3LANKRP91N782LFHPY722Q","","385.39999997615814","img/land7.png","75","386.0999999642372","2","1","false","2","0.8,0.2,0.2,0.2,0.8,0.2,0.2,0.2,0.8","",""
"","html-keyboard-response","90","80113","0.0-129.0","33F859I567ZN9EQHU38SF1KBCZIHBE","A1OZPLHNIU1519","3FW4EL5A3LANKRP91N782LFHPY722Q","","null","<img src=""img/land7.png"" style=""width:200px; border:14px solid green;"">","null","","","","","","","",""
"","image-keyboard-response","91","80276","0.0-131.0","33F859I567ZN9EQHU38SF1KBCZIHBE","A1OZPLHNIU1519","3FW4EL5A3LANKRP91N782LFHPY722Q","","161.30000001192093","img/land4.png","75","162.30000001192093","2","0","false","3","0.8,0.2,0.2,0.2,0.8,0.2,0.2,0.2,0.8","",""
"","html-keyboard-response","92","80578","0.0-132.0","33F859I567ZN9EQHU38SF1KBCZIHBE","A1OZPLHNIU1519","3FW4EL5A3LANKRP91N782LFHPY722Q","","null","<img src=""img/land4.png"" style=""width:200px;border:14px solid red;"">","null","","","","","","","",""
"","image-keyboard-response","93","80932","0.0-134.0","33F859I567ZN9EQHU38SF1KBCZIHBE","A1OZPLHNIU1519","3FW4EL5A3LANKRP91N782LFHPY722Q","","353","img/land7.png","75","353.80000001192093","2","1","false","2","0.8,0.2,0.2,0.2,0.8,0.2,0.2,0.2,0.8","",""
"","html-keyboard-response","94","81234","0.0-135.0","33F859I567ZN9EQHU38SF1KBCZIHBE","A1OZPLHNIU1519","3FW4EL5A3LANKRP91N782LFHPY722Q","","null","<img src=""img/land7.png"" style=""width:200px; border:14px solid green;"">","null","","","","","","","",""
"","image-keyboard-response","95","81468","0.0-137.0","33F859I567ZN9EQHU38SF1KBCZIHBE","A1OZPLHNIU1519","3FW4EL5A3LANKRP91N782LFHPY722Q","","232.89999997615814","img/land7.png","75","233.79999995231628","2","1","false","2","0.8,0.2,0.2,0.2,0.8,0.2,0.2,0.2,0.8","",""
"","html-keyboard-response","96","81769","0.0-138.0","33F859I567ZN9EQHU38SF1KBCZIHBE","A1OZPLHNIU1519","3FW4EL5A3LANKRP91N782LFHPY722Q","","null","<img src=""img/land7.png"" style=""width:200px; border:14px solid green;"">","null","","","","","","","",""
"","image-keyboard-response","97","82031","0.0-140.0","33F859I567ZN9EQHU38SF1KBCZIHBE","A1OZPLHNIU1519","3FW4EL5A3LANKRP91N782LFHPY722Q","","260.19999998807907","img/land1.png","75","261","2","0","false","1","0.8,0.2,0.2,0.2,0.8,0.2,0.2,0.2,0.8","",""
"","html-keyboard-response","98","82332","0.0-141.0","33F859I567ZN9EQHU38SF1KBCZIHBE","A1OZPLHNIU1519","3FW4EL5A3LANKRP91N782LFHPY722Q","","null","<img src=""img/land1.png"" style=""width:200px;border:14px solid red;"">","null","","","","","","","",""
"","image-keyboard-response","99","82732","0.0-143.0","33F859I567ZN9EQHU38SF1KBCZIHBE","A1OZPLHNIU1519","3FW4EL5A3LANKRP91N782LFHPY722Q","","398.69999998807907","img/land1.png","74","399.69999998807907","1","0","false","1","0.8,0.2,0.2,0.2,0.8,0.2,0.2,0.2,0.8","",""
"","html-keyboard-response","100","83035","0.0-144.0","33F859I567ZN9EQHU38SF1KBCZIHBE","A1OZPLHNIU1519","3FW4EL5A3LANKRP91N782LFHPY722Q","","null","<img src=""img/land1.png"" style=""width:200px;border:14px solid red;"">","null","","","","","","","",""
"","image-keyboard-response","101","83244","0.0-146.0","33F859I567ZN9EQHU38SF1KBCZIHBE","A1OZPLHNIU1519","3FW4EL5A3LANKRP91N782LFHPY722Q","","208.0999999642372","img/land4.png","74","208.9000000357628","1","1","false","3","0.8,0.2,0.2,0.2,0.8,0.2,0.2,0.2,0.8","",""
"","html-keyboard-response","102","83552","0.0-147.0","33F859I567ZN9EQHU38SF1KBCZIHBE","A1OZPLHNIU1519","3FW4EL5A3LANKRP91N782LFHPY722Q","","null","<img src=""img/land4.png"" style=""width:200px; border:14px solid green;"">","null","","","","","","","",""
"","image-keyboard-response","103","83884","0.0-149.0","33F859I567ZN9EQHU38SF1KBCZIHBE","A1OZPLHNIU1519","3FW4EL5A3LANKRP91N782LFHPY722Q","","331.0999999642372","img/land4.png","75","332","2","0","false","3","0.8,0.2,0.2,0.2,0.8,0.2,0.2,0.2,0.8","",""
"","html-keyboard-response","104","84186","0.0-150.0","33F859I567ZN9EQHU38SF1KBCZIHBE","A1OZPLHNIU1519","3FW4EL5A3LANKRP91N782LFHPY722Q","","null","<img src=""img/land4.png"" style=""width:200px;border:14px solid red;"">","null","","","","","","","",""
"","image-keyboard-response","105","84548","0.0-152.0","33F859I567ZN9EQHU38SF1KBCZIHBE","A1OZPLHNIU1519","3FW4EL5A3LANKRP91N782LFHPY722Q","","361.2999999523163","img/land7.png","75","362","2","1","false","2","0.8,0.2,0.2,0.2,0.8,0.2,0.2,0.2,0.8","",""
"","html-keyboard-response","106","84850","0.0-153.0","33F859I567ZN9EQHU38SF1KBCZIHBE","A1OZPLHNIU1519","3FW4EL5A3LANKRP91N782LFHPY722Q","","null","<img src=""img/land7.png"" style=""width:200px; border:14px solid green;"">","null","","","","","","","",""
"","image-keyboard-response","107","85148","0.0-155.0","33F859I567ZN9EQHU38SF1KBCZIHBE","A1OZPLHNIU1519","3FW4EL5A3LANKRP91N782LFHPY722Q","","296.89999997615814","img/land1.png","75","297.7999999523163","2","1","false","1","0.8,0.2,0.2,0.2,0.8,0.2,0.2,0.2,0.8","",""
"","html-keyboard-response","108","85463","0.0-156.0","33F859I567ZN9EQHU38SF1KBCZIHBE","A1OZPLHNIU1519","3FW4EL5A3LANKRP91N782LFHPY722Q","","null","<img src=""img/land1.png"" style=""width:200px; border:14px solid green;"">","null","","","","","","","",""
"","image-keyboard-response","109","85588","0.0-158.0","33F859I567ZN9EQHU38SF1KBCZIHBE","A1OZPLHNIU1519","3FW4EL5A3LANKRP91N782LFHPY722Q","","123.89999997615814","img/land7.png","74","124.80000001192093","1","0","false","2","0.8,0.2,0.2,0.2,0.8,0.2,0.2,0.2,0.8","",""
"","html-keyboard-response","110","85890","0.0-159.0","33F859I567ZN9EQHU38SF1KBCZIHBE","A1OZPLHNIU1519","3FW4EL5A3LANKRP91N782LFHPY722Q","","null","<img src=""img/land7.png"" style=""width:200px;border:14px solid red;"">","null","","","","","","","",""
"","image-keyboard-response","111","86212","0.0-161.0","33F859I567ZN9EQHU38SF1KBCZIHBE","A1OZPLHNIU1519","3FW4EL5A3LANKRP91N782LFHPY722Q","","320.69999998807907","img/land1.png","74","321.5999999642372","1","1","false","1","0.8,0.2,0.2,0.2,0.8,0.2,0.2,0.2,0.8","",""
"","html-keyboard-response","112","86514","0.0-162.0","33F859I567ZN9EQHU38SF1KBCZIHBE","A1OZPLHNIU1519","3FW4EL5A3LANKRP91N782LFHPY722Q","","null","<img src=""img/land1.png"" style=""width:200px; border:14px solid green;"">","null","","","","","","","",""
"","image-keyboard-response","113","86708","0.0-164.0","33F859I567ZN9EQHU38SF1KBCZIHBE","A1OZPLHNIU1519","3FW4EL5A3LANKRP91N782LFHPY722Q","","192.89999997615814","img/land4.png","74","193.79999995231628","1","0","false","3","0.8,0.2,0.2,0.2,0.8,0.2,0.2,0.2,0.8","",""
"","html-keyboard-response","114","87010","0.0-165.0","33F859I567ZN9EQHU38SF1KBCZIHBE","A1OZPLHNIU1519","3FW4EL5A3LANKRP91N782LFHPY722Q","","null","<img src=""img/land4.png"" style=""width:200px;border:14px solid red;"">","null","","","","","","","",""
"","image-keyboard-response","115","87228","0.0-167.0","33F859I567ZN9EQHU38SF1KBCZIHBE","A1OZPLHNIU1519","3FW4EL5A3LANKRP91N782LFHPY722Q","","216.69999998807907","img/land1.png","75","217.5999999642372","2","0","false","1","0.8,0.2,0.2,0.2,0.8,0.2,0.2,0.2,0.8","",""
"","html-keyboard-response","116","87529","0.0-168.0","33F859I567ZN9EQHU38SF1KBCZIHBE","A1OZPLHNIU1519","3FW4EL5A3LANKRP91N782LFHPY722Q","","null","<img src=""img/land1.png"" style=""width:200px;border:14px solid red;"">","null","","","","","","","",""
"","image-keyboard-response","117","87732","0.0-170.0","33F859I567ZN9EQHU38SF1KBCZIHBE","A1OZPLHNIU1519","3FW4EL5A3LANKRP91N782LFHPY722Q","","201.89999997615814","img/land1.png","74","202.69999998807907","1","0","false","1","0.8,0.2,0.2,0.2,0.8,0.2,0.2,0.2,0.8","",""
"","html-keyboard-response","118","88042","0.0-171.0","33F859I567ZN9EQHU38SF1KBCZIHBE","A1OZPLHNIU1519","3FW4EL5A3LANKRP91N782LFHPY722Q","","null","<img src=""img/land1.png"" style=""width:200px;border:14px solid red;"">","null","","","","","","","",""
"","image-keyboard-response","119","88196","0.0-173.0","33F859I567ZN9EQHU38SF1KBCZIHBE","A1OZPLHNIU1519","3FW4EL5A3LANKRP91N782LFHPY722Q","","153","img/land7.png","74","153.89999997615814","1","0","false","2","0.8,0.2,0.2,0.2,0.8,0.2,0.2,0.2,0.8","",""
"","html-keyboard-response","120","88498","0.0-174.0","33F859I567ZN9EQHU38SF1KBCZIHBE","A1OZPLHNIU1519","3FW4EL5A3LANKRP91N782LFHPY722Q","","null","<img src=""img/land7.png"" style=""width:200px;border:14px solid red;"">","null","","","","","","","",""
"","image-keyboard-response","121","88708","0.0-176.0","33F859I567ZN9EQHU38SF1KBCZIHBE","A1OZPLHNIU1519","3FW4EL5A3LANKRP91N782LFHPY722Q","","209.29999995231628","img/land7.png","75","210.0999999642372","2","1","false","2","0.8,0.2,0.2,0.2,0.8,0.2,0.2,0.2,0.8","",""
"","html-keyboard-response","122","89010","0.0-177.0","33F859I567ZN9EQHU38SF1KBCZIHBE","A1OZPLHNIU1519","3FW4EL5A3LANKRP91N782LFHPY722Q","","null","<img src=""img/land7.png"" style=""width:200px; border:14px solid green;"">","null","","","","","","","",""
"","image-keyboard-response","123","89252","0.0-179.0","33F859I567ZN9EQHU38SF1KBCZIHBE","A1OZPLHNIU1519","3FW4EL5A3LANKRP91N782LFHPY722Q","","240.60000002384186","img/land1.png","75","241.4000000357628","2","0","false","1","0.8,0.2,0.2,0.2,0.8,0.2,0.2,0.2,0.8","",""
"","html-keyboard-response","124","89554","0.0-180.0","33F859I567ZN9EQHU38SF1KBCZIHBE","A1OZPLHNIU1519","3FW4EL5A3LANKRP91N782LFHPY722Q","","null","<img src=""img/land1.png"" style=""width:200px;border:14px solid red;"">","null","","","","","","","",""
"","image-keyboard-response","125","89876","0.0-182.0","33F859I567ZN9EQHU38SF1KBCZIHBE","A1OZPLHNIU1519","3FW4EL5A3LANKRP91N782LFHPY722Q","","320.5","img/land1.png","75","321.5","2","1","false","1","0.8,0.2,0.2,0.2,0.8,0.2,0.2,0.2,0.8","",""
"","html-keyboard-response","126","90178","0.0-183.0","33F859I567ZN9EQHU38SF1KBCZIHBE","A1OZPLHNIU1519","3FW4EL5A3LANKRP91N782LFHPY722Q","","null","<img src=""img/land1.png"" style=""width:200px; border:14px solid green;"">","null","","","","","","","",""
"","image-keyboard-response","127","90372","0.0-185.0","33F859I567ZN9EQHU38SF1KBCZIHBE","A1OZPLHNIU1519","3FW4EL5A3LANKRP91N782LFHPY722Q","","193.5","img/land1.png","75","194.5","2","0","false","1","0.8,0.2,0.2,0.2,0.8,0.2,0.2,0.2,0.8","",""
"","html-keyboard-response","128","90674","0.0-186.0","33F859I567ZN9EQHU38SF1KBCZIHBE","A1OZPLHNIU1519","3FW4EL5A3LANKRP91N782LFHPY722Q","","null","<img src=""img/land1.png"" style=""width:200px;border:14px solid red;"">","null","","","","","","","",""
"","image-keyboard-response","129","91428","0.0-188.0","33F859I567ZN9EQHU38SF1KBCZIHBE","A1OZPLHNIU1519","3FW4EL5A3LANKRP91N782LFHPY722Q","","752.6000000238419","img/land4.png","75","753.5","2","0","false","3","0.8,0.2,0.2,0.2,0.8,0.2,0.2,0.2,0.8","",""
"","html-keyboard-response","130","91729","0.0-189.0","33F859I567ZN9EQHU38SF1KBCZIHBE","A1OZPLHNIU1519","3FW4EL5A3LANKRP91N782LFHPY722Q","","null","<img src=""img/land4.png"" style=""width:200px;border:14px solid red;"">","null","","","","","","","",""
"","image-keyboard-response","131","92239","0.0-191.0","33F859I567ZN9EQHU38SF1KBCZIHBE","A1OZPLHNIU1519","3FW4EL5A3LANKRP91N782LFHPY722Q","","508.60000002384186","img/land1.png","74","509.80000001192093","1","1","false","1","0.8,0.2,0.2,0.2,0.8,0.2,0.2,0.2,0.8","",""
"","html-keyboard-response","132","92542","0.0-192.0","33F859I567ZN9EQHU38SF1KBCZIHBE","A1OZPLHNIU1519","3FW4EL5A3LANKRP91N782LFHPY722Q","","null","<img src=""img/land1.png"" style=""width:200px; border:14px solid green;"">","null","","","","","","","",""
"","image-keyboard-response","133","92964","0.0-194.0","33F859I567ZN9EQHU38SF1KBCZIHBE","A1OZPLHNIU1519","3FW4EL5A3LANKRP91N782LFHPY722Q","","420.89999997615814","img/land4.png","74","421.69999998807907","1","0","false","3","0.8,0.2,0.2,0.2,0.8,0.2,0.2,0.2,0.8","",""
"","html-keyboard-response","134","93266","0.0-195.0","33F859I567ZN9EQHU38SF1KBCZIHBE","A1OZPLHNIU1519","3FW4EL5A3LANKRP91N782LFHPY722Q","","null","<img src=""img/land4.png"" style=""width:200px;border:14px solid red;"">","null","","","","","","","",""
"","image-keyboard-response","135","93468","0.0-197.0","33F859I567ZN9EQHU38SF1KBCZIHBE","A1OZPLHNIU1519","3FW4EL5A3LANKRP91N782LFHPY722Q","","201.19999998807907","img/land7.png","75","202","2","1","false","2","0.8,0.2,0.2,0.2,0.8,0.2,0.2,0.2,0.8","",""
"","html-keyboard-response","136","93771","0.0-198.0","33F859I567ZN9EQHU38SF1KBCZIHBE","A1OZPLHNIU1519","3FW4EL5A3LANKRP91N782LFHPY722Q","","null","<img src=""img/land7.png"" style=""width:200px; border:14px solid green;"">","null","","","","","","","",""
"","image-keyboard-response","137","94220","0.0-200.0","33F859I567ZN9EQHU38SF1KBCZIHBE","A1OZPLHNIU1519","3FW4EL5A3LANKRP91N782LFHPY722Q","","447.69999998807907","img/land7.png","75","448.80000001192093","2","0","false","2","0.8,0.2,0.2,0.2,0.8,0.2,0.2,0.2,0.8","",""
"","html-keyboard-response","138","94522","0.0-201.0","33F859I567ZN9EQHU38SF1KBCZIHBE","A1OZPLHNIU1519","3FW4EL5A3LANKRP91N782LFHPY722Q","","null","<img src=""img/land7.png"" style=""width:200px;border:14px solid red;"">","null","","","","","","","",""
"","image-keyboard-response","139","95068","0.0-203.0","33F859I567ZN9EQHU38SF1KBCZIHBE","A1OZPLHNIU1519","3FW4EL5A3LANKRP91N782LFHPY722Q","","544.6999999880791","img/land1.png","74","545.8000000119209","1","1","false","1","0.8,0.2,0.2,0.2,0.8,0.2,0.2,0.2,0.8","",""
"","html-keyboard-response","140","95370","0.0-204.0","33F859I567ZN9EQHU38SF1KBCZIHBE","A1OZPLHNIU1519","3FW4EL5A3LANKRP91N782LFHPY722Q","","null","<img src=""img/land1.png"" style=""width:200px; border:14px solid green;"">","null","","","","","","","",""
"","image-keyboard-response","141","95700","0.0-206.0","33F859I567ZN9EQHU38SF1KBCZIHBE","A1OZPLHNIU1519","3FW4EL5A3LANKRP91N782LFHPY722Q","","329.5","img/land1.png","74","330.2999999523163","1","0","false","1","0.8,0.2,0.2,0.2,0.8,0.2,0.2,0.2,0.8","",""
"","html-keyboard-response","142","96002","0.0-207.0","33F859I567ZN9EQHU38SF1KBCZIHBE","A1OZPLHNIU1519","3FW4EL5A3LANKRP91N782LFHPY722Q","","null","<img src=""img/land1.png"" style=""width:200px;border:14px solid red;"">","null","","","","","","","",""
"","image-keyboard-response","143","96276","0.0-209.0","33F859I567ZN9EQHU38SF1KBCZIHBE","A1OZPLHNIU1519","3FW4EL5A3LANKRP91N782LFHPY722Q","","272.5999999642372","img/land4.png","74","273.5","1","0","false","3","0.8,0.2,0.2,0.2,0.8,0.2,0.2,0.2,0.8","",""
"","html-keyboard-response","144","96578","0.0-210.0","33F859I567ZN9EQHU38SF1KBCZIHBE","A1OZPLHNIU1519","3FW4EL5A3LANKRP91N782LFHPY722Q","","null","<img src=""img/land4.png"" style=""width:200px;border:14px solid red;"">","null","","","","","","","",""
"","image-keyboard-response","145","96940","0.0-212.0","33F859I567ZN9EQHU38SF1KBCZIHBE","A1OZPLHNIU1519","3FW4EL5A3LANKRP91N782LFHPY722Q","","361.10000002384186","img/land4.png","75","361.89999997615814","2","1","false","3","0.8,0.2,0.2,0.2,0.8,0.2,0.2,0.2,0.8","",""
"","html-keyboard-response","146","97242","0.0-213.0","33F859I567ZN9EQHU38SF1KBCZIHBE","A1OZPLHNIU1519","3FW4EL5A3LANKRP91N782LFHPY722Q","","null","<img src=""img/land4.png"" style=""width:200px; border:14px solid green;"">","null","","","","","","","",""
"","image-keyboard-response","147","97996","0.0-215.0","33F859I567ZN9EQHU38SF1KBCZIHBE","A1OZPLHNIU1519","3FW4EL5A3LANKRP91N782LFHPY722Q","","752.6000000238419","img/land7.png","76","753.4000000357628","3","0","false","2","0.8,0.2,0.2,0.2,0.8,0.2,0.2,0.2,0.8","",""
"","html-keyboard-response","148","98297","0.0-216.0","33F859I567ZN9EQHU38SF1KBCZIHBE","A1OZPLHNIU1519","3FW4EL5A3LANKRP91N782LFHPY722Q","","null","<img src=""img/land7.png"" style=""width:200px;border:14px solid red;"">","null","","","","","","","",""
"","image-keyboard-response","149","98804","0.0-218.0","33F859I567ZN9EQHU38SF1KBCZIHBE","A1OZPLHNIU1519","3FW4EL5A3LANKRP91N782LFHPY722Q","","505.4000000357628","img/land4.png","75","506.0999999642372","2","0","false","3","0.8,0.2,0.2,0.2,0.8,0.2,0.2,0.2,0.8","",""
"","html-keyboard-response","150","99106","0.0-219.0","33F859I567ZN9EQHU38SF1KBCZIHBE","A1OZPLHNIU1519","3FW4EL5A3LANKRP91N782LFHPY722Q","","null","<img src=""img/land4.png"" style=""width:200px;border:14px solid red;"">","null","","","","","","","",""
"","image-keyboard-response","151","99460","0.0-221.0","33F859I567ZN9EQHU38SF1KBCZIHBE","A1OZPLHNIU1519","3FW4EL5A3LANKRP91N782LFHPY722Q","","353.2000000476837","img/land1.png","75","354","2","0","false","1","0.8,0.2,0.2,0.2,0.8,0.2,0.2,0.2,0.8","",""
"","html-keyboard-response","152","99762","0.0-222.0","33F859I567ZN9EQHU38SF1KBCZIHBE","A1OZPLHNIU1519","3FW4EL5A3LANKRP91N782LFHPY722Q","","null","<img src=""img/land1.png"" style=""width:200px;border:14px solid red;"">","null","","","","","","","",""
"","image-keyboard-response","153","99908","0.0-224.0","33F859I567ZN9EQHU38SF1KBCZIHBE","A1OZPLHNIU1519","3FW4EL5A3LANKRP91N782LFHPY722Q","","145.30000001192093","img/land7.png","74","146.30000001192093","1","1","false","2","0.8,0.2,0.2,0.2,0.8,0.2,0.2,0.2,0.8","",""
"","html-keyboard-response","154","100210","0.0-225.0","33F859I567ZN9EQHU38SF1KBCZIHBE","A1OZPLHNIU1519","3FW4EL5A3LANKRP91N782LFHPY722Q","","null","<img src=""img/land7.png"" style=""width:200px; border:14px solid green;"">","null","","","","","","","",""
"","image-keyboard-response","155","100508","0.0-227.0","33F859I567ZN9EQHU38SF1KBCZIHBE","A1OZPLHNIU1519","3FW4EL5A3LANKRP91N782LFHPY722Q","","297.0999999642372","img/land1.png","75","298","2","0","false","1","0.8,0.2,0.2,0.2,0.8,0.2,0.2,0.2,0.8","",""
"","html-keyboard-response","156","100811","0.0-228.0","33F859I567ZN9EQHU38SF1KBCZIHBE","A1OZPLHNIU1519","3FW4EL5A3LANKRP91N782LFHPY722Q","","null","<img src=""img/land1.png"" style=""width:200px;border:14px solid red;"">","null","","","","","","","",""
"","image-keyboard-response","157","101108","0.0-230.0","33F859I567ZN9EQHU38SF1KBCZIHBE","A1OZPLHNIU1519","3FW4EL5A3LANKRP91N782LFHPY722Q","","296.0999999642372","img/land1.png","74","297","1","1","false","1","0.8,0.2,0.2,0.2,0.8,0.2,0.2,0.2,0.8","",""
"","html-keyboard-response","158","101410","0.0-231.0","33F859I567ZN9EQHU38SF1KBCZIHBE","A1OZPLHNIU1519","3FW4EL5A3LANKRP91N782LFHPY722Q","","null","<img src=""img/land1.png"" style=""width:200px; border:14px solid green;"">","null","","","","","","","",""
"","image-keyboard-response","159","102228","0.0-233.0","33F859I567ZN9EQHU38SF1KBCZIHBE","A1OZPLHNIU1519","3FW4EL5A3LANKRP91N782LFHPY722Q","","817.3999999761581","img/land4.png","74","818.0999999642372","1","0","false","3","0.8,0.2,0.2,0.2,0.8,0.2,0.2,0.2,0.8","",""
"","html-keyboard-response","160","102530","0.0-234.0","33F859I567ZN9EQHU38SF1KBCZIHBE","A1OZPLHNIU1519","3FW4EL5A3LANKRP91N782LFHPY722Q","","null","<img src=""img/land4.png"" style=""width:200px;border:14px solid red;"">","null","","","","","","","",""
"","image-keyboard-response","161","103079","0.0-236.0","33F859I567ZN9EQHU38SF1KBCZIHBE","A1OZPLHNIU1519","3FW4EL5A3LANKRP91N782LFHPY722Q","","548","img/land7.png","75","549.0999999642372","2","1","false","2","0.8,0.2,0.2,0.2,0.8,0.2,0.2,0.2,0.8","",""
"","html-keyboard-response","162","103381","0.0-237.0","33F859I567ZN9EQHU38SF1KBCZIHBE","A1OZPLHNIU1519","3FW4EL5A3LANKRP91N782LFHPY722Q","","null","<img src=""img/land7.png"" style=""width:200px; border:14px solid green;"">","null","","","","","","","",""
"","image-keyboard-response","163","103716","0.0-239.0","33F859I567ZN9EQHU38SF1KBCZIHBE","A1OZPLHNIU1519","3FW4EL5A3LANKRP91N782LFHPY722Q","","334.0999999642372","img/land7.png","75","335","2","1","false","2","0.8,0.2,0.2,0.2,0.8,0.2,0.2,0.2,0.8","",""
"","html-keyboard-response","164","104018","0.0-240.0","33F859I567ZN9EQHU38SF1KBCZIHBE","A1OZPLHNIU1519","3FW4EL5A3LANKRP91N782LFHPY722Q","","null","<img src=""img/land7.png"" style=""width:200px; border:14px solid green;"">","null","","","","","","","",""
"","image-keyboard-response","165","104372","0.0-242.0","33F859I567ZN9EQHU38SF1KBCZIHBE","A1OZPLHNIU1519","3FW4EL5A3LANKRP91N782LFHPY722Q","","353.60000002384186","img/land7.png","75","354.2999999523163","2","1","false","2","0.8,0.2,0.2,0.2,0.8,0.2,0.2,0.2,0.8","",""
"","html-keyboard-response","166","104675","0.0-243.0","33F859I567ZN9EQHU38SF1KBCZIHBE","A1OZPLHNIU1519","3FW4EL5A3LANKRP91N782LFHPY722Q","","null","<img src=""img/land7.png"" style=""width:200px; border:14px solid green;"">","null","","","","","","","",""
"","image-keyboard-response","167","105164","0.0-245.0","33F859I567ZN9EQHU38SF1KBCZIHBE","A1OZPLHNIU1519","3FW4EL5A3LANKRP91N782LFHPY722Q","","488","img/land1.png","74","488.69999998807907","1","1","false","1","0.8,0.2,0.2,0.2,0.8,0.2,0.2,0.2,0.8","",""
"","html-keyboard-response","168","105466","0.0-246.0","33F859I567ZN9EQHU38SF1KBCZIHBE","A1OZPLHNIU1519","3FW4EL5A3LANKRP91N782LFHPY722Q","","null","<img src=""img/land1.png"" style=""width:200px; border:14px solid green;"">","null","","","","","","","",""
"","image-keyboard-response","169","106076","0.0-248.0","33F859I567ZN9EQHU38SF1KBCZIHBE","A1OZPLHNIU1519","3FW4EL5A3LANKRP91N782LFHPY722Q","","608.6000000238419","img/land4.png","75","609.5999999642372","2","0","false","3","0.8,0.2,0.2,0.2,0.8,0.2,0.2,0.2,0.8","",""
"","html-keyboard-response","170","106378","0.0-249.0","33F859I567ZN9EQHU38SF1KBCZIHBE","A1OZPLHNIU1519","3FW4EL5A3LANKRP91N782LFHPY722Q","","null","<img src=""img/land4.png"" style=""width:200px;border:14px solid red;"">","null","","","","","","","",""
"","image-keyboard-response","171","106772","0.0-251.0","33F859I567ZN9EQHU38SF1KBCZIHBE","A1OZPLHNIU1519","3FW4EL5A3LANKRP91N782LFHPY722Q","","392.89999997615814","img/land4.png","75","393.7999999523163","2","0","false","3","0.8,0.2,0.2,0.2,0.8,0.2,0.2,0.2,0.8","",""
"","html-keyboard-response","172","107075","0.0-252.0","33F859I567ZN9EQHU38SF1KBCZIHBE","A1OZPLHNIU1519","3FW4EL5A3LANKRP91N782LFHPY722Q","","null","<img src=""img/land4.png"" style=""width:200px;border:14px solid red;"">","null","","","","","","","",""
"","image-keyboard-response","173","107540","0.0-254.0","33F859I567ZN9EQHU38SF1KBCZIHBE","A1OZPLHNIU1519","3FW4EL5A3LANKRP91N782LFHPY722Q","","464.4000000357628","img/land4.png","76","465.30000001192093","3","1","false","3","0.8,0.2,0.2,0.2,0.8,0.2,0.2,0.2,0.8","",""
"","html-keyboard-response","174","107843","0.0-255.0","33F859I567ZN9EQHU38SF1KBCZIHBE","A1OZPLHNIU1519","3FW4EL5A3LANKRP91N782LFHPY722Q","","null","<img src=""img/land4.png"" style=""width:200px; border:14px solid green;"">","null","","","","","","","",""
"","image-keyboard-response","175","108500","0.0-257.0","33F859I567ZN9EQHU38SF1KBCZIHBE","A1OZPLHNIU1519","3FW4EL5A3LANKRP91N782LFHPY722Q","","656.5","img/land1.png","74","657.3000000119209","1","1","false","1","0.8,0.2,0.2,0.2,0.8,0.2,0.2,0.2,0.8","",""
"","html-keyboard-response","176","108802","0.0-258.0","33F859I567ZN9EQHU38SF1KBCZIHBE","A1OZPLHNIU1519","3FW4EL5A3LANKRP91N782LFHPY722Q","","null","<img src=""img/land1.png"" style=""width:200px; border:14px solid green;"">","null","","","","","","","",""
"","image-keyboard-response","177","109364","0.0-260.0","33F859I567ZN9EQHU38SF1KBCZIHBE","A1OZPLHNIU1519","3FW4EL5A3LANKRP91N782LFHPY722Q","","561.1999999880791","img/land7.png","76","562.1999999880791","3","0","false","2","0.8,0.2,0.2,0.2,0.8,0.2,0.2,0.2,0.8","",""
"","html-keyboard-response","178","109666","0.0-261.0","33F859I567ZN9EQHU38SF1KBCZIHBE","A1OZPLHNIU1519","3FW4EL5A3LANKRP91N782LFHPY722Q","","null","<img src=""img/land7.png"" style=""width:200px;border:14px solid red;"">","null","","","","","","","",""
"","image-keyboard-response","179","110340","0.0-263.0","33F859I567ZN9EQHU38SF1KBCZIHBE","A1OZPLHNIU1519","3FW4EL5A3LANKRP91N782LFHPY722Q","","673.3000000119209","img/land1.png","74","674.1999999880791","1","1","false","1","0.8,0.2,0.2,0.2,0.8,0.2,0.2,0.2,0.8","",""
"","html-keyboard-response","180","110643","0.0-264.0","33F859I567ZN9EQHU38SF1KBCZIHBE","A1OZPLHNIU1519","3FW4EL5A3LANKRP91N782LFHPY722Q","","null","<img src=""img/land1.png"" style=""width:200px; border:14px solid green;"">","null","","","","","","","",""
"","image-keyboard-response","181","111156","0.0-266.0","33F859I567ZN9EQHU38SF1KBCZIHBE","A1OZPLHNIU1519","3FW4EL5A3LANKRP91N782LFHPY722Q","","511.89999997615814","img/land4.png","75","512.8000000119209","2","1","false","3","0.8,0.2,0.2,0.2,0.8,0.2,0.2,0.2,0.8","",""
"","html-keyboard-response","182","111458","0.0-267.0","33F859I567ZN9EQHU38SF1KBCZIHBE","A1OZPLHNIU1519","3FW4EL5A3LANKRP91N782LFHPY722Q","","null","<img src=""img/land4.png"" style=""width:200px; border:14px solid green;"">","null","","","","","","","",""
"","image-keyboard-response","183","111820","0.0-269.0","33F859I567ZN9EQHU38SF1KBCZIHBE","A1OZPLHNIU1519","3FW4EL5A3LANKRP91N782LFHPY722Q","","360.5","img/land7.png","75","361.60000002384186","2","1","false","2","0.8,0.2,0.2,0.2,0.8,0.2,0.2,0.2,0.8","",""
"","html-keyboard-response","184","112123","0.0-270.0","33F859I567ZN9EQHU38SF1KBCZIHBE","A1OZPLHNIU1519","3FW4EL5A3LANKRP91N782LFHPY722Q","","null","<img src=""img/land7.png"" style=""width:200px; border:14px solid green;"">","null","","","","","","","",""
"","html-keyboard-response","185","129693","0.0-272.0","33F859I567ZN9EQHU38SF1KBCZIHBE","A1OZPLHNIU1519","3FW4EL5A3LANKRP91N782LFHPY722Q","","","","","","","","","","","",""
"","image-keyboard-response","186","130412","0.0-273.0","33F859I567ZN9EQHU38SF1KBCZIHBE","A1OZPLHNIU1519","3FW4EL5A3LANKRP91N782LFHPY722Q","","717.6999999880791","img/land5.png","74","718.6999999880791","1","1","false","3","0.8,0.8,0.2,0.2,0.8,0.8,0.8,0.2,0.8","",""
"","html-keyboard-response","187","130714","0.0-274.0","33F859I567ZN9EQHU38SF1KBCZIHBE","A1OZPLHNIU1519","3FW4EL5A3LANKRP91N782LFHPY722Q","","null","<img src=""img/land5.png"" style=""width:200px; border:14px solid green;"">","null","","","","","","","",""
"","image-keyboard-response","188","131196","0.0-276.0","33F859I567ZN9EQHU38SF1KBCZIHBE","A1OZPLHNIU1519","3FW4EL5A3LANKRP91N782LFHPY722Q","","481","img/land9.png","75","482","2","1","false","1","0.8,0.8,0.2,0.2,0.8,0.8,0.8,0.2,0.8","",""
"","html-keyboard-response","189","131498","0.0-277.0","33F859I567ZN9EQHU38SF1KBCZIHBE","A1OZPLHNIU1519","3FW4EL5A3LANKRP91N782LFHPY722Q","","null","<img src=""img/land9.png"" style=""width:200px; border:14px solid green;"">","null","","","","","","","",""
"","image-keyboard-response","190","132204","0.0-279.0","33F859I567ZN9EQHU38SF1KBCZIHBE","A1OZPLHNIU1519","3FW4EL5A3LANKRP91N782LFHPY722Q","","705.1999999880791","img/land3.png","74","706.0999999642372","1","0","false","2","0.8,0.8,0.2,0.2,0.8,0.8,0.8,0.2,0.8","",""
"","html-keyboard-response","191","132507","0.0-280.0","33F859I567ZN9EQHU38SF1KBCZIHBE","A1OZPLHNIU1519","3FW4EL5A3LANKRP91N782LFHPY722Q","","null","<img src=""img/land3.png"" style=""width:200px;border:14px solid red;"">","null","","","","","","","",""
"","image-keyboard-response","192","132988","0.0-282.0","33F859I567ZN9EQHU38SF1KBCZIHBE","A1OZPLHNIU1519","3FW4EL5A3LANKRP91N782LFHPY722Q","","480.10000002384186","img/land9.png","74","481.10000002384186","1","0","false","1","0.8,0.8,0.2,0.2,0.8,0.8,0.8,0.2,0.8","",""
"","html-keyboard-response","193","133291","0.0-283.0","33F859I567ZN9EQHU38SF1KBCZIHBE","A1OZPLHNIU1519","3FW4EL5A3LANKRP91N782LFHPY722Q","","null","<img src=""img/land9.png"" style=""width:200px;border:14px solid red;"">","null","","","","","","","",""
"","image-keyboard-response","194","133551","0.0-285.0","33F859I567ZN9EQHU38SF1KBCZIHBE","A1OZPLHNIU1519","3FW4EL5A3LANKRP91N782LFHPY722Q","","258.89999997615814","img/land3.png","74","259.89999997615814","1","0","false","2","0.8,0.8,0.2,0.2,0.8,0.8,0.8,0.2,0.8","",""
"","html-keyboard-response","195","133853","0.0-286.0","33F859I567ZN9EQHU38SF1KBCZIHBE","A1OZPLHNIU1519","3FW4EL5A3LANKRP91N782LFHPY722Q","","null","<img src=""img/land3.png"" style=""width:200px;border:14px solid red;"">","null","","","","","","","",""
"","image-keyboard-response","196","134628","0.0-288.0","33F859I567ZN9EQHU38SF1KBCZIHBE","A1OZPLHNIU1519","3FW4EL5A3LANKRP91N782LFHPY722Q","","773.1999999880791","img/land9.png","76","774","3","0","false","1","0.8,0.8,0.2,0.2,0.8,0.8,0.8,0.2,0.8","",""
"","html-keyboard-response","197","134930","0.0-289.0","33F859I567ZN9EQHU38SF1KBCZIHBE","A1OZPLHNIU1519","3FW4EL5A3LANKRP91N782LFHPY722Q","","null","<img src=""img/land9.png"" style=""width:200px;border:14px solid red;"">","null","","","","","","","",""
"","image-keyboard-response","198","135596","0.0-291.0","33F859I567ZN9EQHU38SF1KBCZIHBE","A1OZPLHNIU1519","3FW4EL5A3LANKRP91N782LFHPY722Q","","664.8999999761581","img/land5.png","74","665.6999999880791","1","1","false","3","0.8,0.8,0.2,0.2,0.8,0.8,0.8,0.2,0.8","",""
"","html-keyboard-response","199","135898","0.0-292.0","33F859I567ZN9EQHU38SF1KBCZIHBE","A1OZPLHNIU1519","3FW4EL5A3LANKRP91N782LFHPY722Q","","null","<img src=""img/land5.png"" style=""width:200px; border:14px solid green;"">","null","","","","","","","",""
"","image-keyboard-response","200","136540","0.0-294.0","33F859I567ZN9EQHU38SF1KBCZIHBE","A1OZPLHNIU1519","3FW4EL5A3LANKRP91N782LFHPY722Q","","641.1000000238419","img/land9.png","74","642","1","1","false","1","0.8,0.8,0.2,0.2,0.8,0.8,0.8,0.2,0.8","",""
"","html-keyboard-response","201","136847","0.0-295.0","33F859I567ZN9EQHU38SF1KBCZIHBE","A1OZPLHNIU1519","3FW4EL5A3LANKRP91N782LFHPY722Q","","null","<img src=""img/land9.png"" style=""width:200px; border:14px solid green;"">","null","","","","","","","",""
"","image-keyboard-response","202","137212","0.0-297.0","33F859I567ZN9EQHU38SF1KBCZIHBE","A1OZPLHNIU1519","3FW4EL5A3LANKRP91N782LFHPY722Q","","363.9000000357628","img/land9.png","74","364.69999998807907","1","1","false","1","0.8,0.8,0.2,0.2,0.8,0.8,0.8,0.2,0.8","",""
"","html-keyboard-response","203","137514","0.0-298.0","33F859I567ZN9EQHU38SF1KBCZIHBE","A1OZPLHNIU1519","3FW4EL5A3LANKRP91N782LFHPY722Q","","null","<img src=""img/land9.png"" style=""width:200px; border:14px solid green;"">","null","","","","","","","",""
"","image-keyboard-response","204","138132","0.0-300.0","33F859I567ZN9EQHU38SF1KBCZIHBE","A1OZPLHNIU1519","3FW4EL5A3LANKRP91N782LFHPY722Q","","616.6999999880791","img/land5.png","75","617.5","2","1","false","3","0.8,0.8,0.2,0.2,0.8,0.8,0.8,0.2,0.8","",""
"","html-keyboard-response","205","138435","0.0-301.0","33F859I567ZN9EQHU38SF1KBCZIHBE","A1OZPLHNIU1519","3FW4EL5A3LANKRP91N782LFHPY722Q","","null","<img src=""img/land5.png"" style=""width:200px; border:14px solid green;"">","null","","","","","","","",""
"","image-keyboard-response","206","138748","0.0-303.0","33F859I567ZN9EQHU38SF1KBCZIHBE","A1OZPLHNIU1519","3FW4EL5A3LANKRP91N782LFHPY722Q","","311.89999997615814","img/land5.png","75","312.7999999523163","2","0","false","3","0.8,0.8,0.2,0.2,0.8,0.8,0.8,0.2,0.8","",""
"","html-keyboard-response","207","139056","0.0-304.0","33F859I567ZN9EQHU38SF1KBCZIHBE","A1OZPLHNIU1519","3FW4EL5A3LANKRP91N782LFHPY722Q","","null","<img src=""img/land5.png"" style=""width:200px;border:14px solid red;"">","null","","","","","","","",""
"","image-keyboard-response","208","139644","0.0-306.0","33F859I567ZN9EQHU38SF1KBCZIHBE","A1OZPLHNIU1519","3FW4EL5A3LANKRP91N782LFHPY722Q","","587","img/land3.png","76","587.6999999880791","3","1","false","2","0.8,0.8,0.2,0.2,0.8,0.8,0.8,0.2,0.8","",""
"","html-keyboard-response","209","139945","0.0-307.0","33F859I567ZN9EQHU38SF1KBCZIHBE","A1OZPLHNIU1519","3FW4EL5A3LANKRP91N782LFHPY722Q","","null","<img src=""img/land3.png"" style=""width:200px; border:14px solid green;"">","null","","","","","","","",""
"","image-keyboard-response","210","140220","0.0-309.0","33F859I567ZN9EQHU38SF1KBCZIHBE","A1OZPLHNIU1519","3FW4EL5A3LANKRP91N782LFHPY722Q","","273.7999999523163","img/land3.png","76","274.5","3","1","false","2","0.8,0.8,0.2,0.2,0.8,0.8,0.8,0.2,0.8","",""
"","html-keyboard-response","211","140528","0.0-310.0","33F859I567ZN9EQHU38SF1KBCZIHBE","A1OZPLHNIU1519","3FW4EL5A3LANKRP91N782LFHPY722Q","","null","<img src=""img/land3.png"" style=""width:200px; border:14px solid green;"">","null","","","","","","","",""
"","image-keyboard-response","212","141124","0.0-312.0","33F859I567ZN9EQHU38SF1KBCZIHBE","A1OZPLHNIU1519","3FW4EL5A3LANKRP91N782LFHPY722Q","","594.5","img/land9.png","74","595.3000000119209","1","1","false","1","0.8,0.8,0.2,0.2,0.8,0.8,0.8,0.2,0.8","",""
"","html-keyboard-response","213","141426","0.0-313.0","33F859I567ZN9EQHU38SF1KBCZIHBE","A1OZPLHNIU1519","3FW4EL5A3LANKRP91N782LFHPY722Q","","null","<img src=""img/land9.png"" style=""width:200px; border:14px solid green;"">","null","","","","","","","",""
"","image-keyboard-response","214","141732","0.0-315.0","33F859I567ZN9EQHU38SF1KBCZIHBE","A1OZPLHNIU1519","3FW4EL5A3LANKRP91N782LFHPY722Q","","304.39999997615814","img/land9.png","74","305.19999998807907","1","1","false","1","0.8,0.8,0.2,0.2,0.8,0.8,0.8,0.2,0.8","",""
"","html-keyboard-response","215","142034","0.0-316.0","33F859I567ZN9EQHU38SF1KBCZIHBE","A1OZPLHNIU1519","3FW4EL5A3LANKRP91N782LFHPY722Q","","null","<img src=""img/land9.png"" style=""width:200px; border:14px solid green;"">","null","","","","","","","",""
"","image-keyboard-response","216","142428","0.0-318.0","33F859I567ZN9EQHU38SF1KBCZIHBE","A1OZPLHNIU1519","3FW4EL5A3LANKRP91N782LFHPY722Q","","392.89999997615814","img/land5.png","75","393.89999997615814","2","0","false","3","0.8,0.8,0.2,0.2,0.8,0.8,0.8,0.2,0.8","",""
"","html-keyboard-response","217","142731","0.0-319.0","33F859I567ZN9EQHU38SF1KBCZIHBE","A1OZPLHNIU1519","3FW4EL5A3LANKRP91N782LFHPY722Q","","null","<img src=""img/land5.png"" style=""width:200px;border:14px solid red;"">","null","","","","","","","",""
"","image-keyboard-response","218","143268","0.0-321.0","33F859I567ZN9EQHU38SF1KBCZIHBE","A1OZPLHNIU1519","3FW4EL5A3LANKRP91N782LFHPY722Q","","536.3000000119209","img/land3.png","76","537.3000000119209","3","1","false","2","0.8,0.8,0.2,0.2,0.8,0.8,0.8,0.2,0.8","",""
"","html-keyboard-response","219","143576","0.0-322.0","33F859I567ZN9EQHU38SF1KBCZIHBE","A1OZPLHNIU1519","3FW4EL5A3LANKRP91N782LFHPY722Q","","null","<img src=""img/land3.png"" style=""width:200px; border:14px solid green;"">","null","","","","","","","",""
"","image-keyboard-response","220","143832","0.0-324.0","33F859I567ZN9EQHU38SF1KBCZIHBE","A1OZPLHNIU1519","3FW4EL5A3LANKRP91N782LFHPY722Q","","254.5","img/land5.png","76","255.39999997615814","3","1","false","3","0.8,0.8,0.2,0.2,0.8,0.8,0.8,0.2,0.8","",""
"","html-keyboard-response","221","144133","0.0-325.0","33F859I567ZN9EQHU38SF1KBCZIHBE","A1OZPLHNIU1519","3FW4EL5A3LANKRP91N782LFHPY722Q","","null","<img src=""img/land5.png"" style=""width:200px; border:14px solid green;"">","null","","","","","","","",""
"","image-keyboard-response","222","144556","0.0-327.0","33F859I567ZN9EQHU38SF1KBCZIHBE","A1OZPLHNIU1519","3FW4EL5A3LANKRP91N782LFHPY722Q","","421.89999997615814","img/land3.png","76","422.89999997615814","3","1","false","2","0.8,0.8,0.2,0.2,0.8,0.8,0.8,0.2,0.8","",""
"","html-keyboard-response","223","144859","0.0-328.0","33F859I567ZN9EQHU38SF1KBCZIHBE","A1OZPLHNIU1519","3FW4EL5A3LANKRP91N782LFHPY722Q","","null","<img src=""img/land3.png"" style=""width:200px; border:14px solid green;"">","null","","","","","","","",""
"","image-keyboard-response","224","145484","0.0-330.0","33F859I567ZN9EQHU38SF1KBCZIHBE","A1OZPLHNIU1519","3FW4EL5A3LANKRP91N782LFHPY722Q","","624.1999999880791","img/land5.png","74","625.1999999880791","1","1","false","3","0.8,0.8,0.2,0.2,0.8,0.8,0.8,0.2,0.8","",""
"","html-keyboard-response","225","145786","0.0-331.0","33F859I567ZN9EQHU38SF1KBCZIHBE","A1OZPLHNIU1519","3FW4EL5A3LANKRP91N782LFHPY722Q","","null","<img src=""img/land5.png"" style=""width:200px; border:14px solid green;"">","null","","","","","","","",""
"","image-keyboard-response","226","145916","0.0-333.0","33F859I567ZN9EQHU38SF1KBCZIHBE","A1OZPLHNIU1519","3FW4EL5A3LANKRP91N782LFHPY722Q","","129.39999997615814","img/land9.png","76","130","3","0","false","1","0.8,0.8,0.2,0.2,0.8,0.8,0.8,0.2,0.8","",""
"","html-keyboard-response","227","146218","0.0-334.0","33F859I567ZN9EQHU38SF1KBCZIHBE","A1OZPLHNIU1519","3FW4EL5A3LANKRP91N782LFHPY722Q","","null","<img src=""img/land9.png"" style=""width:200px;border:14px solid red;"">","null","","","","","","","",""
"","image-keyboard-response","228","146788","0.0-336.0","33F859I567ZN9EQHU38SF1KBCZIHBE","A1OZPLHNIU1519","3FW4EL5A3LANKRP91N782LFHPY722Q","","569.3999999761581","img/land3.png","74","570.1999999880791","1","0","false","2","0.8,0.8,0.2,0.2,0.8,0.8,0.8,0.2,0.8","",""
"","html-keyboard-response","229","147090","0.0-337.0","33F859I567ZN9EQHU38SF1KBCZIHBE","A1OZPLHNIU1519","3FW4EL5A3LANKRP91N782LFHPY722Q","","null","<img src=""img/land3.png"" style=""width:200px;border:14px solid red;"">","null","","","","","","","",""
"","image-keyboard-response","230","147588","0.0-339.0","33F859I567ZN9EQHU38SF1KBCZIHBE","A1OZPLHNIU1519","3FW4EL5A3LANKRP91N782LFHPY722Q","","497.60000002384186","img/land3.png","75","498.60000002384186","2","1","false","2","0.8,0.8,0.2,0.2,0.8,0.8,0.8,0.2,0.8","",""
"","html-keyboard-response","231","147890","0.0-340.0","33F859I567ZN9EQHU38SF1KBCZIHBE","A1OZPLHNIU1519","3FW4EL5A3LANKRP91N782LFHPY722Q","","null","<img src=""img/land3.png"" style=""width:200px; border:14px solid green;"">","null","","","","","","","",""
"","image-keyboard-response","232","148652","0.0-342.0","33F859I567ZN9EQHU38SF1KBCZIHBE","A1OZPLHNIU1519","3FW4EL5A3LANKRP91N782LFHPY722Q","","761.1000000238419","img/land5.png","76","761.6999999880791","3","1","false","3","0.8,0.8,0.2,0.2,0.8,0.8,0.8,0.2,0.8","",""
"","html-keyboard-response","233","148955","0.0-343.0","33F859I567ZN9EQHU38SF1KBCZIHBE","A1OZPLHNIU1519","3FW4EL5A3LANKRP91N782LFHPY722Q","","null","<img src=""img/land5.png"" style=""width:200px; border:14px solid green;"">","null","","","","","","","",""
"","image-keyboard-response","234","149292","0.0-345.0","33F859I567ZN9EQHU38SF1KBCZIHBE","A1OZPLHNIU1519","3FW4EL5A3LANKRP91N782LFHPY722Q","","336","img/land5.png","76","336.80000001192093","3","1","false","3","0.8,0.8,0.2,0.2,0.8,0.8,0.8,0.2,0.8","",""
"","html-keyboard-response","235","149594","0.0-346.0","33F859I567ZN9EQHU38SF1KBCZIHBE","A1OZPLHNIU1519","3FW4EL5A3LANKRP91N782LFHPY722Q","","null","<img src=""img/land5.png"" style=""width:200px; border:14px solid green;"">","null","","","","","","","",""
"","image-keyboard-response","236","149820","0.0-348.0","33F859I567ZN9EQHU38SF1KBCZIHBE","A1OZPLHNIU1519","3FW4EL5A3LANKRP91N782LFHPY722Q","","225.0999999642372","img/land9.png","76","226","3","0","false","1","0.8,0.8,0.2,0.2,0.8,0.8,0.8,0.2,0.8","",""
"","html-keyboard-response","237","150122","0.0-349.0","33F859I567ZN9EQHU38SF1KBCZIHBE","A1OZPLHNIU1519","3FW4EL5A3LANKRP91N782LFHPY722Q","","null","<img src=""img/land9.png"" style=""width:200px;border:14px solid red;"">","null","","","","","","","",""
"","image-keyboard-response","238","150388","0.0-351.0","33F859I567ZN9EQHU38SF1KBCZIHBE","A1OZPLHNIU1519","3FW4EL5A3LANKRP91N782LFHPY722Q","","264.89999997615814","img/land9.png","76","265.89999997615814","3","0","false","1","0.8,0.8,0.2,0.2,0.8,0.8,0.8,0.2,0.8","",""
"","html-keyboard-response","239","150690","0.0-352.0","33F859I567ZN9EQHU38SF1KBCZIHBE","A1OZPLHNIU1519","3FW4EL5A3LANKRP91N782LFHPY722Q","","null","<img src=""img/land9.png"" style=""width:200px;border:14px solid red;"">","null","","","","","","","",""
"","image-keyboard-response","240","150924","0.0-354.0","33F859I567ZN9EQHU38SF1KBCZIHBE","A1OZPLHNIU1519","3FW4EL5A3LANKRP91N782LFHPY722Q","","232.39999997615814","img/land3.png","74","233.19999998807907","1","0","false","2","0.8,0.8,0.2,0.2,0.8,0.8,0.8,0.2,0.8","",""
"","html-keyboard-response","241","151226","0.0-355.0","33F859I567ZN9EQHU38SF1KBCZIHBE","A1OZPLHNIU1519","3FW4EL5A3LANKRP91N782LFHPY722Q","","null","<img src=""img/land3.png"" style=""width:200px;border:14px solid red;"">","null","","","","","","","",""
"","image-keyboard-response","242","151588","0.0-357.0","33F859I567ZN9EQHU38SF1KBCZIHBE","A1OZPLHNIU1519","3FW4EL5A3LANKRP91N782LFHPY722Q","","360.7999999523163","img/land9.png","76","361.89999997615814","3","0","false","1","0.8,0.8,0.2,0.2,0.8,0.8,0.8,0.2,0.8","",""
"","html-keyboard-response","243","151890","0.0-358.0","33F859I567ZN9EQHU38SF1KBCZIHBE","A1OZPLHNIU1519","3FW4EL5A3LANKRP91N782LFHPY722Q","","null","<img src=""img/land9.png"" style=""width:200px;border:14px solid red;"">","null","","","","","","","",""
"","image-keyboard-response","244","152412","0.0-360.0","33F859I567ZN9EQHU38SF1KBCZIHBE","A1OZPLHNIU1519","3FW4EL5A3LANKRP91N782LFHPY722Q","","520.6999999880791","img/land5.png","74","521.6999999880791","1","1","false","3","0.8,0.8,0.2,0.2,0.8,0.8,0.8,0.2,0.8","",""
"","html-keyboard-response","245","152714","0.0-361.0","33F859I567ZN9EQHU38SF1KBCZIHBE","A1OZPLHNIU1519","3FW4EL5A3LANKRP91N782LFHPY722Q","","null","<img src=""img/land5.png"" style=""width:200px; border:14px solid green;"">","null","","","","","","","",""
"","image-keyboard-response","246","153012","0.0-363.0","33F859I567ZN9EQHU38SF1KBCZIHBE","A1OZPLHNIU1519","3FW4EL5A3LANKRP91N782LFHPY722Q","","297","img/land5.png","74","297.89999997615814","1","1","false","3","0.8,0.8,0.2,0.2,0.8,0.8,0.8,0.2,0.8","",""
"","html-keyboard-response","247","153314","0.0-364.0","33F859I567ZN9EQHU38SF1KBCZIHBE","A1OZPLHNIU1519","3FW4EL5A3LANKRP91N782LFHPY722Q","","null","<img src=""img/land5.png"" style=""width:200px; border:14px solid green;"">","null","","","","","","","",""
"","image-keyboard-response","248","153943","0.0-366.0","33F859I567ZN9EQHU38SF1KBCZIHBE","A1OZPLHNIU1519","3FW4EL5A3LANKRP91N782LFHPY722Q","","627.5","img/land9.png","74","628.5","1","1","false","1","0.8,0.8,0.2,0.2,0.8,0.8,0.8,0.2,0.8","",""
"","html-keyboard-response","249","154253","0.0-367.0","33F859I567ZN9EQHU38SF1KBCZIHBE","A1OZPLHNIU1519","3FW4EL5A3LANKRP91N782LFHPY722Q","","null","<img src=""img/land9.png"" style=""width:200px; border:14px solid green;"">","null","","","","","","","",""
"","image-keyboard-response","250","154572","0.0-369.0","33F859I567ZN9EQHU38SF1KBCZIHBE","A1OZPLHNIU1519","3FW4EL5A3LANKRP91N782LFHPY722Q","","317.5","img/land9.png","74","318.5","1","1","false","1","0.8,0.8,0.2,0.2,0.8,0.8,0.8,0.2,0.8","",""
"","html-keyboard-response","251","154874","0.0-370.0","33F859I567ZN9EQHU38SF1KBCZIHBE","A1OZPLHNIU1519","3FW4EL5A3LANKRP91N782LFHPY722Q","","null","<img src=""img/land9.png"" style=""width:200px; border:14px solid green;"">","null","","","","","","","",""
"","image-keyboard-response","252","155180","0.0-372.0","33F859I567ZN9EQHU38SF1KBCZIHBE","A1OZPLHNIU1519","3FW4EL5A3LANKRP91N782LFHPY722Q","","304.60000002384186","img/land9.png","74","305.9000000357628","1","1","false","1","0.8,0.8,0.2,0.2,0.8,0.8,0.8,0.2,0.8","",""
"","html-keyboard-response","253","155482","0.0-373.0","33F859I567ZN9EQHU38SF1KBCZIHBE","A1OZPLHNIU1519","3FW4EL5A3LANKRP91N782LFHPY722Q","","null","<img src=""img/land9.png"" style=""width:200px; border:14px solid green;"">","null","","","","","","","",""
"","image-keyboard-response","254","155788","0.0-375.0","33F859I567ZN9EQHU38SF1KBCZIHBE","A1OZPLHNIU1519","3FW4EL5A3LANKRP91N782LFHPY722Q","","305.19999998807907","img/land9.png","74","306","1","0","false","1","0.8,0.8,0.2,0.2,0.8,0.8,0.8,0.2,0.8","",""
"","html-keyboard-response","255","156090","0.0-376.0","33F859I567ZN9EQHU38SF1KBCZIHBE","A1OZPLHNIU1519","3FW4EL5A3LANKRP91N782LFHPY722Q","","null","<img src=""img/land9.png"" style=""width:200px;border:14px solid red;"">","null","","","","","","","",""
"","image-keyboard-response","256","156476","0.0-378.0","33F859I567ZN9EQHU38SF1KBCZIHBE","A1OZPLHNIU1519","3FW4EL5A3LANKRP91N782LFHPY722Q","","385.0999999642372","img/land9.png","74","386.0999999642372","1","0","false","1","0.8,0.8,0.2,0.2,0.8,0.8,0.8,0.2,0.8","",""
"","html-keyboard-response","257","156779","0.0-379.0","33F859I567ZN9EQHU38SF1KBCZIHBE","A1OZPLHNIU1519","3FW4EL5A3LANKRP91N782LFHPY722Q","","null","<img src=""img/land9.png"" style=""width:200px;border:14px solid red;"">","null","","","","","","","",""
"","image-keyboard-response","258","157188","0.0-381.0","33F859I567ZN9EQHU38SF1KBCZIHBE","A1OZPLHNIU1519","3FW4EL5A3LANKRP91N782LFHPY722Q","","408.19999998807907","img/land9.png","74","409.19999998807907","1","0","false","1","0.8,0.8,0.2,0.2,0.8,0.8,0.8,0.2,0.8","",""
"","html-keyboard-response","259","157490","0.0-382.0","33F859I567ZN9EQHU38SF1KBCZIHBE","A1OZPLHNIU1519","3FW4EL5A3LANKRP91N782LFHPY722Q","","null","<img src=""img/land9.png"" style=""width:200px;border:14px solid red;"">","null","","","","","","","",""
"","image-keyboard-response","260","158028","0.0-384.0","33F859I567ZN9EQHU38SF1KBCZIHBE","A1OZPLHNIU1519","3FW4EL5A3LANKRP91N782LFHPY722Q","","536.7999999523163","img/land5.png","76","537.6999999880791","3","1","false","3","0.8,0.8,0.2,0.2,0.8,0.8,0.8,0.2,0.8","",""
"","html-keyboard-response","261","158331","0.0-385.0","33F859I567ZN9EQHU38SF1KBCZIHBE","A1OZPLHNIU1519","3FW4EL5A3LANKRP91N782LFHPY722Q","","null","<img src=""img/land5.png"" style=""width:200px; border:14px solid green;"">","null","","","","","","","",""
"","image-keyboard-response","262","158604","0.0-387.0","33F859I567ZN9EQHU38SF1KBCZIHBE","A1OZPLHNIU1519","3FW4EL5A3LANKRP91N782LFHPY722Q","","271.80000001192093","img/land3.png","76","272.60000002384186","3","1","false","2","0.8,0.8,0.2,0.2,0.8,0.8,0.8,0.2,0.8","",""
"","html-keyboard-response","263","158907","0.0-388.0","33F859I567ZN9EQHU38SF1KBCZIHBE","A1OZPLHNIU1519","3FW4EL5A3LANKRP91N782LFHPY722Q","","null","<img src=""img/land3.png"" style=""width:200px; border:14px solid green;"">","null","","","","","","","",""
"","image-keyboard-response","264","159212","0.0-390.0","33F859I567ZN9EQHU38SF1KBCZIHBE","A1OZPLHNIU1519","3FW4EL5A3LANKRP91N782LFHPY722Q","","304.39999997615814","img/land5.png","76","305.2000000476837","3","1","false","3","0.8,0.8,0.2,0.2,0.8,0.8,0.8,0.2,0.8","",""
"","html-keyboard-response","265","159514","0.0-391.0","33F859I567ZN9EQHU38SF1KBCZIHBE","A1OZPLHNIU1519","3FW4EL5A3LANKRP91N782LFHPY722Q","","null","<img src=""img/land5.png"" style=""width:200px; border:14px solid green;"">","null","","","","","","","",""
"","image-keyboard-response","266","159804","0.0-393.0","33F859I567ZN9EQHU38SF1KBCZIHBE","A1OZPLHNIU1519","3FW4EL5A3LANKRP91N782LFHPY722Q","","288.60000002384186","img/land5.png","76","289.39999997615814","3","0","false","3","0.8,0.8,0.2,0.2,0.8,0.8,0.8,0.2,0.8","",""
"","html-keyboard-response","267","160106","0.0-394.0","33F859I567ZN9EQHU38SF1KBCZIHBE","A1OZPLHNIU1519","3FW4EL5A3LANKRP91N782LFHPY722Q","","null","<img src=""img/land5.png"" style=""width:200px;border:14px solid red;"">","null","","","","","","","",""
"","image-keyboard-response","268","160556","0.0-396.0","33F859I567ZN9EQHU38SF1KBCZIHBE","A1OZPLHNIU1519","3FW4EL5A3LANKRP91N782LFHPY722Q","","449.30000001192093","img/land9.png","76","450.19999998807907","3","0","false","1","0.8,0.8,0.2,0.2,0.8,0.8,0.8,0.2,0.8","",""
"","html-keyboard-response","269","160858","0.0-397.0","33F859I567ZN9EQHU38SF1KBCZIHBE","A1OZPLHNIU1519","3FW4EL5A3LANKRP91N782LFHPY722Q","","null","<img src=""img/land9.png"" style=""width:200px;border:14px solid red;"">","null","","","","","","","",""
"","image-keyboard-response","270","161028","0.0-399.0","33F859I567ZN9EQHU38SF1KBCZIHBE","A1OZPLHNIU1519","3FW4EL5A3LANKRP91N782LFHPY722Q","","169.0999999642372","img/land3.png","74","170.10000002384186","1","0","false","2","0.8,0.8,0.2,0.2,0.8,0.8,0.8,0.2,0.8","",""
"","html-keyboard-response","271","161331","0.0-400.0","33F859I567ZN9EQHU38SF1KBCZIHBE","A1OZPLHNIU1519","3FW4EL5A3LANKRP91N782LFHPY722Q","","null","<img src=""img/land3.png"" style=""width:200px;border:14px solid red;"">","null","","","","","","","",""
"","image-keyboard-response","272","161732","0.0-402.0","33F859I567ZN9EQHU38SF1KBCZIHBE","A1OZPLHNIU1519","3FW4EL5A3LANKRP91N782LFHPY722Q","","400.10000002384186","img/land9.png","76","401.19999998807907","3","0","false","1","0.8,0.8,0.2,0.2,0.8,0.8,0.8,0.2,0.8","",""
"","html-keyboard-response","273","162042","0.0-403.0","33F859I567ZN9EQHU38SF1KBCZIHBE","A1OZPLHNIU1519","3FW4EL5A3LANKRP91N782LFHPY722Q","","null","<img src=""img/land9.png"" style=""width:200px;border:14px solid red;"">","null","","","","","","","",""
"","image-keyboard-response","274","162580","0.0-405.0","33F859I567ZN9EQHU38SF1KBCZIHBE","A1OZPLHNIU1519","3FW4EL5A3LANKRP91N782LFHPY722Q","","537.3999999761581","img/land3.png","76","538.3000000119209","3","0","false","2","0.8,0.8,0.2,0.2,0.8,0.8,0.8,0.2,0.8","",""
"","html-keyboard-response","275","162883","0.0-406.0","33F859I567ZN9EQHU38SF1KBCZIHBE","A1OZPLHNIU1519","3FW4EL5A3LANKRP91N782LFHPY722Q","","null","<img src=""img/land3.png"" style=""width:200px;border:14px solid red;"">","null","","","","","","","",""
"","image-keyboard-response","276","163396","0.0-408.0","33F859I567ZN9EQHU38SF1KBCZIHBE","A1OZPLHNIU1519","3FW4EL5A3LANKRP91N782LFHPY722Q","","511.39999997615814","img/land3.png","76","512.1999999880791","3","1","false","2","0.8,0.8,0.2,0.2,0.8,0.8,0.8,0.2,0.8","",""
"","html-keyboard-response","277","163698","0.0-409.0","33F859I567ZN9EQHU38SF1KBCZIHBE","A1OZPLHNIU1519","3FW4EL5A3LANKRP91N782LFHPY722Q","","null","<img src=""img/land3.png"" style=""width:200px; border:14px solid green;"">","null","","","","","","","",""
"","image-keyboard-response","278","164071","0.0-411.0","33F859I567ZN9EQHU38SF1KBCZIHBE","A1OZPLHNIU1519","3FW4EL5A3LANKRP91N782LFHPY722Q","","371.69999998807907","img/land3.png","75","372.5","2","1","false","2","0.8,0.8,0.2,0.2,0.8,0.8,0.8,0.2,0.8","",""
"","html-keyboard-response","279","164374","0.0-412.0","33F859I567ZN9EQHU38SF1KBCZIHBE","A1OZPLHNIU1519","3FW4EL5A3LANKRP91N782LFHPY722Q","","null","<img src=""img/land3.png"" style=""width:200px; border:14px solid green;"">","null","","","","","","","",""
"","image-keyboard-response","280","164660","0.0-414.0","33F859I567ZN9EQHU38SF1KBCZIHBE","A1OZPLHNIU1519","3FW4EL5A3LANKRP91N782LFHPY722Q","","285.4000000357628","img/land9.png","75","286.10000002384186","2","1","false","1","0.8,0.8,0.2,0.2,0.8,0.8,0.8,0.2,0.8","",""
"","html-keyboard-response","281","164969","0.0-415.0","33F859I567ZN9EQHU38SF1KBCZIHBE","A1OZPLHNIU1519","3FW4EL5A3LANKRP91N782LFHPY722Q","","null","<img src=""img/land9.png"" style=""width:200px; border:14px solid green;"">","null","","","","","","","",""
"","image-keyboard-response","282","165460","0.0-417.0","33F859I567ZN9EQHU38SF1KBCZIHBE","A1OZPLHNIU1519","3FW4EL5A3LANKRP91N782LFHPY722Q","","490.30000001192093","img/land3.png","75","491.10000002384186","2","0","false","2","0.8,0.8,0.2,0.2,0.8,0.8,0.8,0.2,0.8","",""
"","html-keyboard-response","283","165762","0.0-418.0","33F859I567ZN9EQHU38SF1KBCZIHBE","A1OZPLHNIU1519","3FW4EL5A3LANKRP91N782LFHPY722Q","","null","<img src=""img/land3.png"" style=""width:200px;border:14px solid red;"">","null","","","","","","","",""
"","image-keyboard-response","284","166036","0.0-420.0","33F859I567ZN9EQHU38SF1KBCZIHBE","A1OZPLHNIU1519","3FW4EL5A3LANKRP91N782LFHPY722Q","","272.39999997615814","img/land3.png","76","273.2999999523163","3","0","false","2","0.8,0.8,0.2,0.2,0.8,0.8,0.8,0.2,0.8","",""
"","html-keyboard-response","285","166340","0.0-421.0","33F859I567ZN9EQHU38SF1KBCZIHBE","A1OZPLHNIU1519","3FW4EL5A3LANKRP91N782LFHPY722Q","","null","<img src=""img/land3.png"" style=""width:200px;border:14px solid red;"">","null","","","","","","","",""
"","image-keyboard-response","286","167116","0.0-423.0","33F859I567ZN9EQHU38SF1KBCZIHBE","A1OZPLHNIU1519","3FW4EL5A3LANKRP91N782LFHPY722Q","","774.9000000357628","img/land9.png","74","775.7000000476837","1","1","false","1","0.8,0.8,0.2,0.2,0.8,0.8,0.8,0.2,0.8","",""
"","html-keyboard-response","287","167419","0.0-424.0","33F859I567ZN9EQHU38SF1KBCZIHBE","A1OZPLHNIU1519","3FW4EL5A3LANKRP91N782LFHPY722Q","","null","<img src=""img/land9.png"" style=""width:200px; border:14px solid green;"">","null","","","","","","","",""
"","image-keyboard-response","288","167748","0.0-426.0","33F859I567ZN9EQHU38SF1KBCZIHBE","A1OZPLHNIU1519","3FW4EL5A3LANKRP91N782LFHPY722Q","","328.10000002384186","img/land5.png","74","329.2000000476837","1","1","false","3","0.8,0.8,0.2,0.2,0.8,0.8,0.8,0.2,0.8","",""
"","html-keyboard-response","289","168050","0.0-427.0","33F859I567ZN9EQHU38SF1KBCZIHBE","A1OZPLHNIU1519","3FW4EL5A3LANKRP91N782LFHPY722Q","","null","<img src=""img/land5.png"" style=""width:200px; border:14px solid green;"">","null","","","","","","","",""
"","image-keyboard-response","290","168828","0.0-429.0","33F859I567ZN9EQHU38SF1KBCZIHBE","A1OZPLHNIU1519","3FW4EL5A3LANKRP91N782LFHPY722Q","","776.7999999523163","img/land9.png","74","777.6999999880791","1","0","false","1","0.8,0.8,0.2,0.2,0.8,0.8,0.8,0.2,0.8","",""
"","html-keyboard-response","291","169131","0.0-430.0","33F859I567ZN9EQHU38SF1KBCZIHBE","A1OZPLHNIU1519","3FW4EL5A3LANKRP91N782LFHPY722Q","","null","<img src=""img/land9.png"" style=""width:200px;border:14px solid red;"">","null","","","","","","","",""
"","image-keyboard-response","292","169492","0.0-432.0","33F859I567ZN9EQHU38SF1KBCZIHBE","A1OZPLHNIU1519","3FW4EL5A3LANKRP91N782LFHPY722Q","","360.19999998807907","img/land5.png","74","361.19999998807907","1","1","false","3","0.8,0.8,0.2,0.2,0.8,0.8,0.8,0.2,0.8","",""
"","html-keyboard-response","293","169795","0.0-433.0","33F859I567ZN9EQHU38SF1KBCZIHBE","A1OZPLHNIU1519","3FW4EL5A3LANKRP91N782LFHPY722Q","","null","<img src=""img/land5.png"" style=""width:200px; border:14px solid green;"">","null","","","","","","","",""
"","image-keyboard-response","294","170556","0.0-435.0","33F859I567ZN9EQHU38SF1KBCZIHBE","A1OZPLHNIU1519","3FW4EL5A3LANKRP91N782LFHPY722Q","","760.1000000238419","img/land3.png","76","760.8999999761581","3","1","false","2","0.8,0.8,0.2,0.2,0.8,0.8,0.8,0.2,0.8","",""
"","html-keyboard-response","295","170858","0.0-436.0","33F859I567ZN9EQHU38SF1KBCZIHBE","A1OZPLHNIU1519","3FW4EL5A3LANKRP91N782LFHPY722Q","","null","<img src=""img/land3.png"" style=""width:200px; border:14px solid green;"">","null","","","","","","","",""
"","image-keyboard-response","296","171628","0.0-438.0","33F859I567ZN9EQHU38SF1KBCZIHBE","A1OZPLHNIU1519","3FW4EL5A3LANKRP91N782LFHPY722Q","","768","img/land5.png","75","769","2","0","false","3","0.8,0.8,0.2,0.2,0.8,0.8,0.8,0.2,0.8","",""
"","html-keyboard-response","297","171930","0.0-439.0","33F859I567ZN9EQHU38SF1KBCZIHBE","A1OZPLHNIU1519","3FW4EL5A3LANKRP91N782LFHPY722Q","","null","<img src=""img/land5.png"" style=""width:200px;border:14px solid red;"">","null","","","","","","","",""
"","image-keyboard-response","298","172173","0.0-441.0","33F859I567ZN9EQHU38SF1KBCZIHBE","A1OZPLHNIU1519","3FW4EL5A3LANKRP91N782LFHPY722Q","","241.69999998807907","img/land5.png","76","242.60000002384186","3","1","false","3","0.8,0.8,0.2,0.2,0.8,0.8,0.8,0.2,0.8","",""
"","html-keyboard-response","299","172474","0.0-442.0","33F859I567ZN9EQHU38SF1KBCZIHBE","A1OZPLHNIU1519","3FW4EL5A3LANKRP91N782LFHPY722Q","","null","<img src=""img/land5.png"" style=""width:200px; border:14px solid green;"">","null","","","","","","","",""
"","image-keyboard-response","300","172724","0.0-444.0","33F859I567ZN9EQHU38SF1KBCZIHBE","A1OZPLHNIU1519","3FW4EL5A3LANKRP91N782LFHPY722Q","","248.69999998807907","img/land5.png","76","249.69999998807907","3","1","false","3","0.8,0.8,0.2,0.2,0.8,0.8,0.8,0.2,0.8","",""
"","html-keyboard-response","301","173026","0.0-445.0","33F859I567ZN9EQHU38SF1KBCZIHBE","A1OZPLHNIU1519","3FW4EL5A3LANKRP91N782LFHPY722Q","","null","<img src=""img/land5.png"" style=""width:200px; border:14px solid green;"">","null","","","","","","","",""
"","image-keyboard-response","302","173308","0.0-447.0","33F859I567ZN9EQHU38SF1KBCZIHBE","A1OZPLHNIU1519","3FW4EL5A3LANKRP91N782LFHPY722Q","","281.30000001192093","img/land3.png","76","282.30000001192093","3","1","false","2","0.8,0.8,0.2,0.2,0.8,0.8,0.8,0.2,0.8","",""
"","html-keyboard-response","303","173610","0.0-448.0","33F859I567ZN9EQHU38SF1KBCZIHBE","A1OZPLHNIU1519","3FW4EL5A3LANKRP91N782LFHPY722Q","","null","<img src=""img/land3.png"" style=""width:200px; border:14px solid green;"">","null","","","","","","","",""
"","image-keyboard-response","304","173860","0.0-450.0","33F859I567ZN9EQHU38SF1KBCZIHBE","A1OZPLHNIU1519","3FW4EL5A3LANKRP91N782LFHPY722Q","","249","img/land5.png","76","250","3","1","false","3","0.8,0.8,0.2,0.2,0.8,0.8,0.8,0.2,0.8","",""
"","html-keyboard-response","305","174162","0.0-451.0","33F859I567ZN9EQHU38SF1KBCZIHBE","A1OZPLHNIU1519","3FW4EL5A3LANKRP91N782LFHPY722Q","","null","<img src=""img/land5.png"" style=""width:200px; border:14px solid green;"">","null","","","","","","","",""
"","image-keyboard-response","306","174552","0.0-453.0","33F859I567ZN9EQHU38SF1KBCZIHBE","A1OZPLHNIU1519","3FW4EL5A3LANKRP91N782LFHPY722Q","","388.9000000357628","img/land3.png","76","389.7999999523163","3","1","false","2","0.8,0.8,0.2,0.2,0.8,0.8,0.8,0.2,0.8","",""
"","html-keyboard-response","307","174854","0.0-454.0","33F859I567ZN9EQHU38SF1KBCZIHBE","A1OZPLHNIU1519","3FW4EL5A3LANKRP91N782LFHPY722Q","","null","<img src=""img/land3.png"" style=""width:200px; border:14px solid green;"">","null","","","","","","","",""
"","image-keyboard-response","308","175180","0.0-456.0","33F859I567ZN9EQHU38SF1KBCZIHBE","A1OZPLHNIU1519","3FW4EL5A3LANKRP91N782LFHPY722Q","","324.80000001192093","img/land3.png","76","325.80000001192093","3","1","false","2","0.8,0.8,0.2,0.2,0.8,0.8,0.8,0.2,0.8","",""
"","html-keyboard-response","309","175484","0.0-457.0","33F859I567ZN9EQHU38SF1KBCZIHBE","A1OZPLHNIU1519","3FW4EL5A3LANKRP91N782LFHPY722Q","","null","<img src=""img/land3.png"" style=""width:200px; border:14px solid green;"">","null","","","","","","","",""
"","image-keyboard-response","310","175861","0.0-459.0","33F859I567ZN9EQHU38SF1KBCZIHBE","A1OZPLHNIU1519","3FW4EL5A3LANKRP91N782LFHPY722Q","","374.80000001192093","img/land5.png","76","376.0999999642372","3","1","false","3","0.8,0.8,0.2,0.2,0.8,0.8,0.8,0.2,0.8","",""
"","html-keyboard-response","311","176163","0.0-460.0","33F859I567ZN9EQHU38SF1KBCZIHBE","A1OZPLHNIU1519","3FW4EL5A3LANKRP91N782LFHPY722Q","","null","<img src=""img/land5.png"" style=""width:200px; border:14px solid green;"">","null","","","","","","","",""
"","image-keyboard-response","312","176476","0.0-462.0","33F859I567ZN9EQHU38SF1KBCZIHBE","A1OZPLHNIU1519","3FW4EL5A3LANKRP91N782LFHPY722Q","","312.10000002384186","img/land5.png","76","313","3","0","false","3","0.8,0.8,0.2,0.2,0.8,0.8,0.8,0.2,0.8","",""
"","html-keyboard-response","313","176779","0.0-463.0","33F859I567ZN9EQHU38SF1KBCZIHBE","A1OZPLHNIU1519","3FW4EL5A3LANKRP91N782LFHPY722Q","","null","<img src=""img/land5.png"" style=""width:200px;border:14px solid red;"">","null","","","","","","","",""
"","image-keyboard-response","314","177412","0.0-465.0","33F859I567ZN9EQHU38SF1KBCZIHBE","A1OZPLHNIU1519","3FW4EL5A3LANKRP91N782LFHPY722Q","","631.8000000119209","img/land9.png","74","632.6000000238419","1","1","false","1","0.8,0.8,0.2,0.2,0.8,0.8,0.8,0.2,0.8","",""
"","html-keyboard-response","315","177715","0.0-466.0","33F859I567ZN9EQHU38SF1KBCZIHBE","A1OZPLHNIU1519","3FW4EL5A3LANKRP91N782LFHPY722Q","","null","<img src=""img/land9.png"" style=""width:200px; border:14px solid green;"">","null","","","","","","","",""
"","image-keyboard-response","316","178196","0.0-468.0","33F859I567ZN9EQHU38SF1KBCZIHBE","A1OZPLHNIU1519","3FW4EL5A3LANKRP91N782LFHPY722Q","","480.19999998807907","img/land3.png","76","481","3","1","false","2","0.8,0.8,0.2,0.2,0.8,0.8,0.8,0.2,0.8","",""
"","html-keyboard-response","317","178497","0.0-469.0","33F859I567ZN9EQHU38SF1KBCZIHBE","A1OZPLHNIU1519","3FW4EL5A3LANKRP91N782LFHPY722Q","","null","<img src=""img/land3.png"" style=""width:200px; border:14px solid green;"">","null","","","","","","","",""
"","image-keyboard-response","318","178844","0.0-471.0","33F859I567ZN9EQHU38SF1KBCZIHBE","A1OZPLHNIU1519","3FW4EL5A3LANKRP91N782LFHPY722Q","","345.60000002384186","img/land3.png","76","346.5999999642372","3","1","false","2","0.8,0.8,0.2,0.2,0.8,0.8,0.8,0.2,0.8","",""
"","html-keyboard-response","319","179154","0.0-472.0","33F859I567ZN9EQHU38SF1KBCZIHBE","A1OZPLHNIU1519","3FW4EL5A3LANKRP91N782LFHPY722Q","","null","<img src=""img/land3.png"" style=""width:200px; border:14px solid green;"">","null","","","","","","","",""
"","image-keyboard-response","320","179644","0.0-474.0","33F859I567ZN9EQHU38SF1KBCZIHBE","A1OZPLHNIU1519","3FW4EL5A3LANKRP91N782LFHPY722Q","","488.39999997615814","img/land9.png","74","489.39999997615814","1","1","false","1","0.8,0.8,0.2,0.2,0.8,0.8,0.8,0.2,0.8","",""
"","html-keyboard-response","321","179947","0.0-475.0","33F859I567ZN9EQHU38SF1KBCZIHBE","A1OZPLHNIU1519","3FW4EL5A3LANKRP91N782LFHPY722Q","","null","<img src=""img/land9.png"" style=""width:200px; border:14px solid green;"">","null","","","","","","","",""
"","image-keyboard-response","322","180412","0.0-477.0","33F859I567ZN9EQHU38SF1KBCZIHBE","A1OZPLHNIU1519","3FW4EL5A3LANKRP91N782LFHPY722Q","","464.30000001192093","img/land9.png","74","465","1","1","false","1","0.8,0.8,0.2,0.2,0.8,0.8,0.8,0.2,0.8","",""
"","html-keyboard-response","323","180714","0.0-478.0","33F859I567ZN9EQHU38SF1KBCZIHBE","A1OZPLHNIU1519","3FW4EL5A3LANKRP91N782LFHPY722Q","","null","<img src=""img/land9.png"" style=""width:200px; border:14px solid green;"">","null","","","","","","","",""
"","image-keyboard-response","324","181124","0.0-480.0","33F859I567ZN9EQHU38SF1KBCZIHBE","A1OZPLHNIU1519","3FW4EL5A3LANKRP91N782LFHPY722Q","","409.19999998807907","img/land5.png","76","410.19999998807907","3","1","false","3","0.8,0.8,0.2,0.2,0.8,0.8,0.8,0.2,0.8","",""
"","html-keyboard-response","325","181426","0.0-481.0","33F859I567ZN9EQHU38SF1KBCZIHBE","A1OZPLHNIU1519","3FW4EL5A3LANKRP91N782LFHPY722Q","","null","<img src=""img/land5.png"" style=""width:200px; border:14px solid green;"">","null","","","","","","","",""
"","image-keyboard-response","326","181716","0.0-483.0","33F859I567ZN9EQHU38SF1KBCZIHBE","A1OZPLHNIU1519","3FW4EL5A3LANKRP91N782LFHPY722Q","","288.5999999642372","img/land5.png","76","289.5","3","0","false","3","0.8,0.8,0.2,0.2,0.8,0.8,0.8,0.2,0.8","",""
"","html-keyboard-response","327","182018","0.0-484.0","33F859I567ZN9EQHU38SF1KBCZIHBE","A1OZPLHNIU1519","3FW4EL5A3LANKRP91N782LFHPY722Q","","null","<img src=""img/land5.png"" style=""width:200px;border:14px solid red;"">","null","","","","","","","",""
"","image-keyboard-response","328","182612","0.0-486.0","33F859I567ZN9EQHU38SF1KBCZIHBE","A1OZPLHNIU1519","3FW4EL5A3LANKRP91N782LFHPY722Q","","593.1999999880791","img/land3.png","76","594.1000000238419","3","1","false","2","0.8,0.8,0.2,0.2,0.8,0.8,0.8,0.2,0.8","",""
"","html-keyboard-response","329","182915","0.0-487.0","33F859I567ZN9EQHU38SF1KBCZIHBE","A1OZPLHNIU1519","3FW4EL5A3LANKRP91N782LFHPY722Q","","null","<img src=""img/land3.png"" style=""width:200px; border:14px solid green;"">","null","","","","","","","",""
"","image-keyboard-response","330","183228","0.0-489.0","33F859I567ZN9EQHU38SF1KBCZIHBE","A1OZPLHNIU1519","3FW4EL5A3LANKRP91N782LFHPY722Q","","312.19999998807907","img/land3.png","76","313.10000002384186","3","1","false","2","0.8,0.8,0.2,0.2,0.8,0.8,0.8,0.2,0.8","",""
"","html-keyboard-response","331","183530","0.0-490.0","33F859I567ZN9EQHU38SF1KBCZIHBE","A1OZPLHNIU1519","3FW4EL5A3LANKRP91N782LFHPY722Q","","null","<img src=""img/land3.png"" style=""width:200px; border:14px solid green;"">","null","","","","","","","",""
"","image-keyboard-response","332","184436","0.0-492.0","33F859I567ZN9EQHU38SF1KBCZIHBE","A1OZPLHNIU1519","3FW4EL5A3LANKRP91N782LFHPY722Q","","904.6999999880791","img/land5.png","75","905.5","2","0","false","3","0.8,0.8,0.2,0.2,0.8,0.8,0.8,0.2,0.8","",""
"","html-keyboard-response","333","184738","0.0-493.0","33F859I567ZN9EQHU38SF1KBCZIHBE","A1OZPLHNIU1519","3FW4EL5A3LANKRP91N782LFHPY722Q","","null","<img src=""img/land5.png"" style=""width:200px;border:14px solid red;"">","null","","","","","","","",""
"","image-keyboard-response","334","184984","0.0-495.0","33F859I567ZN9EQHU38SF1KBCZIHBE","A1OZPLHNIU1519","3FW4EL5A3LANKRP91N782LFHPY722Q","","244.19999998807907","img/land5.png","75","245","2","1","false","3","0.8,0.8,0.2,0.2,0.8,0.8,0.8,0.2,0.8","",""
"","html-keyboard-response","335","185286","0.0-496.0","33F859I567ZN9EQHU38SF1KBCZIHBE","A1OZPLHNIU1519","3FW4EL5A3LANKRP91N782LFHPY722Q","","null","<img src=""img/land5.png"" style=""width:200px; border:14px solid green;"">","null","","","","","","","",""
"","image-keyboard-response","336","185588","0.0-498.0","33F859I567ZN9EQHU38SF1KBCZIHBE","A1OZPLHNIU1519","3FW4EL5A3LANKRP91N782LFHPY722Q","","301","img/land5.png","75","302","2","0","false","3","0.8,0.8,0.2,0.2,0.8,0.8,0.8,0.2,0.8","",""
"","html-keyboard-response","337","185891","0.0-499.0","33F859I567ZN9EQHU38SF1KBCZIHBE","A1OZPLHNIU1519","3FW4EL5A3LANKRP91N782LFHPY722Q","","null","<img src=""img/land5.png"" style=""width:200px;border:14px solid red;"">","null","","","","","","","",""
"","image-keyboard-response","338","186196","0.0-501.0","33F859I567ZN9EQHU38SF1KBCZIHBE","A1OZPLHNIU1519","3FW4EL5A3LANKRP91N782LFHPY722Q","","303.39999997615814","img/land5.png","76","304.19999998807907","3","1","false","3","0.8,0.8,0.2,0.2,0.8,0.8,0.8,0.2,0.8","",""
"","html-keyboard-response","339","186498","0.0-502.0","33F859I567ZN9EQHU38SF1KBCZIHBE","A1OZPLHNIU1519","3FW4EL5A3LANKRP91N782LFHPY722Q","","null","<img src=""img/land5.png"" style=""width:200px; border:14px solid green;"">","null","","","","","","","",""
"","image-keyboard-response","340","187068","0.0-504.0","33F859I567ZN9EQHU38SF1KBCZIHBE","A1OZPLHNIU1519","3FW4EL5A3LANKRP91N782LFHPY722Q","","569","img/land3.png","76","569.8999999761581","3","1","false","2","0.8,0.8,0.2,0.2,0.8,0.8,0.8,0.2,0.8","",""
"","html-keyboard-response","341","187371","0.0-505.0","33F859I567ZN9EQHU38SF1KBCZIHBE","A1OZPLHNIU1519","3FW4EL5A3LANKRP91N782LFHPY722Q","","null","<img src=""img/land3.png"" style=""width:200px; border:14px solid green;"">","null","","","","","","","",""
"","image-keyboard-response","342","187916","0.0-507.0","33F859I567ZN9EQHU38SF1KBCZIHBE","A1OZPLHNIU1519","3FW4EL5A3LANKRP91N782LFHPY722Q","","544","img/land9.png","74","544.8999999761581","1","1","false","1","0.8,0.8,0.2,0.2,0.8,0.8,0.8,0.2,0.8","",""
"","html-keyboard-response","343","188218","0.0-508.0","33F859I567ZN9EQHU38SF1KBCZIHBE","A1OZPLHNIU1519","3FW4EL5A3LANKRP91N782LFHPY722Q","","null","<img src=""img/land9.png"" style=""width:200px; border:14px solid green;"">","null","","","","","","","",""
"","image-keyboard-response","344","188756","0.0-510.0","33F859I567ZN9EQHU38SF1KBCZIHBE","A1OZPLHNIU1519","3FW4EL5A3LANKRP91N782LFHPY722Q","","536.5999999642372","img/land3.png","76","537.3999999761581","3","0","false","2","0.8,0.8,0.2,0.2,0.8,0.8,0.8,0.2,0.8","",""
"","html-keyboard-response","345","189058","0.0-511.0","33F859I567ZN9EQHU38SF1KBCZIHBE","A1OZPLHNIU1519","3FW4EL5A3LANKRP91N782LFHPY722Q","","null","<img src=""img/land3.png"" style=""width:200px;border:14px solid red;"">","null","","","","","","","",""
"","image-keyboard-response","346","189292","0.0-513.0","33F859I567ZN9EQHU38SF1KBCZIHBE","A1OZPLHNIU1519","3FW4EL5A3LANKRP91N782LFHPY722Q","","232.89999997615814","img/land3.png","76","233.89999997615814","3","1","false","2","0.8,0.8,0.2,0.2,0.8,0.8,0.8,0.2,0.8","",""
"","html-keyboard-response","347","189594","0.0-514.0","33F859I567ZN9EQHU38SF1KBCZIHBE","A1OZPLHNIU1519","3FW4EL5A3LANKRP91N782LFHPY722Q","","null","<img src=""img/land3.png"" style=""width:200px; border:14px solid green;"">","null","","","","","","","",""
"","image-keyboard-response","348","189868","0.0-516.0","33F859I567ZN9EQHU38SF1KBCZIHBE","A1OZPLHNIU1519","3FW4EL5A3LANKRP91N782LFHPY722Q","","273.19999998807907","img/land3.png","76","274","3","0","false","2","0.8,0.8,0.2,0.2,0.8,0.8,0.8,0.2,0.8","",""
"","html-keyboard-response","349","190170","0.0-517.0","33F859I567ZN9EQHU38SF1KBCZIHBE","A1OZPLHNIU1519","3FW4EL5A3LANKRP91N782LFHPY722Q","","null","<img src=""img/land3.png"" style=""width:200px;border:14px solid red;"">","null","","","","","","","",""
"","image-keyboard-response","350","190460","0.0-519.0","33F859I567ZN9EQHU38SF1KBCZIHBE","A1OZPLHNIU1519","3FW4EL5A3LANKRP91N782LFHPY722Q","","288.80000001192093","img/land3.png","76","289.80000001192093","3","1","false","2","0.8,0.8,0.2,0.2,0.8,0.8,0.8,0.2,0.8","",""
"","html-keyboard-response","351","190762","0.0-520.0","33F859I567ZN9EQHU38SF1KBCZIHBE","A1OZPLHNIU1519","3FW4EL5A3LANKRP91N782LFHPY722Q","","null","<img src=""img/land3.png"" style=""width:200px; border:14px solid green;"">","null","","","","","","","",""
"","image-keyboard-response","352","191308","0.0-522.0","33F859I567ZN9EQHU38SF1KBCZIHBE","A1OZPLHNIU1519","3FW4EL5A3LANKRP91N782LFHPY722Q","","544.6000000238419","img/land9.png","74","545.6000000238419","1","1","false","1","0.8,0.8,0.2,0.2,0.8,0.8,0.8,0.2,0.8","",""
"","html-keyboard-response","353","191610","0.0-523.0","33F859I567ZN9EQHU38SF1KBCZIHBE","A1OZPLHNIU1519","3FW4EL5A3LANKRP91N782LFHPY722Q","","null","<img src=""img/land9.png"" style=""width:200px; border:14px solid green;"">","null","","","","","","","",""
"","image-keyboard-response","354","191844","0.0-525.0","33F859I567ZN9EQHU38SF1KBCZIHBE","A1OZPLHNIU1519","3FW4EL5A3LANKRP91N782LFHPY722Q","","233.10000002384186","img/land3.png","74","234.10000002384186","1","0","false","2","0.8,0.8,0.2,0.2,0.8,0.8,0.8,0.2,0.8","",""
"","html-keyboard-response","355","192151","0.0-526.0","33F859I567ZN9EQHU38SF1KBCZIHBE","A1OZPLHNIU1519","3FW4EL5A3LANKRP91N782LFHPY722Q","","null","<img src=""img/land3.png"" style=""width:200px;border:14px solid red;"">","null","","","","","","","",""
"","image-keyboard-response","356","192404","0.0-528.0","33F859I567ZN9EQHU38SF1KBCZIHBE","A1OZPLHNIU1519","3FW4EL5A3LANKRP91N782LFHPY722Q","","251.69999998807907","img/land9.png","76","252.5999999642372","3","0","false","1","0.8,0.8,0.2,0.2,0.8,0.8,0.8,0.2,0.8","",""
"","html-keyboard-response","357","192721","0.0-529.0","33F859I567ZN9EQHU38SF1KBCZIHBE","A1OZPLHNIU1519","3FW4EL5A3LANKRP91N782LFHPY722Q","","null","<img src=""img/land9.png"" style=""width:200px;border:14px solid red;"">","null","","","","","","","",""
"","image-keyboard-response","358","193148","0.0-531.0","33F859I567ZN9EQHU38SF1KBCZIHBE","A1OZPLHNIU1519","3FW4EL5A3LANKRP91N782LFHPY722Q","","425.69999998807907","img/land5.png","74","426.69999998807907","1","1","false","3","0.8,0.8,0.2,0.2,0.8,0.8,0.8,0.2,0.8","",""
"","html-keyboard-response","359","193451","0.0-532.0","33F859I567ZN9EQHU38SF1KBCZIHBE","A1OZPLHNIU1519","3FW4EL5A3LANKRP91N782LFHPY722Q","","null","<img src=""img/land5.png"" style=""width:200px; border:14px solid green;"">","null","","","","","","","",""
"","image-keyboard-response","360","194076","0.0-534.0","33F859I567ZN9EQHU38SF1KBCZIHBE","A1OZPLHNIU1519","3FW4EL5A3LANKRP91N782LFHPY722Q","","624.6000000238419","img/land9.png","74","625.3999999761581","1","0","false","1","0.8,0.8,0.2,0.2,0.8,0.8,0.8,0.2,0.8","",""
"","html-keyboard-response","361","194378","0.0-535.0","33F859I567ZN9EQHU38SF1KBCZIHBE","A1OZPLHNIU1519","3FW4EL5A3LANKRP91N782LFHPY722Q","","null","<img src=""img/land9.png"" style=""width:200px;border:14px solid red;"">","null","","","","","","","",""
"","image-keyboard-response","362","194676","0.0-537.0","33F859I567ZN9EQHU38SF1KBCZIHBE","A1OZPLHNIU1519","3FW4EL5A3LANKRP91N782LFHPY722Q","","296.5999999642372","img/land9.png","74","297.69999998807907","1","1","false","1","0.8,0.8,0.2,0.2,0.8,0.8,0.8,0.2,0.8","",""
"","html-keyboard-response","363","194978","0.0-538.0","33F859I567ZN9EQHU38SF1KBCZIHBE","A1OZPLHNIU1519","3FW4EL5A3LANKRP91N782LFHPY722Q","","null","<img src=""img/land9.png"" style=""width:200px; border:14px solid green;"">","null","","","","","","","",""
"","image-keyboard-response","364","195503","0.0-540.0","33F859I567ZN9EQHU38SF1KBCZIHBE","A1OZPLHNIU1519","3FW4EL5A3LANKRP91N782LFHPY722Q","","523.5999999642372","img/land5.png","76","524.5","3","1","false","3","0.8,0.8,0.2,0.2,0.8,0.8,0.8,0.2,0.8","",""
"","html-keyboard-response","365","195805","0.0-541.0","33F859I567ZN9EQHU38SF1KBCZIHBE","A1OZPLHNIU1519","3FW4EL5A3LANKRP91N782LFHPY722Q","","null","<img src=""img/land5.png"" style=""width:200px; border:14px solid green;"">","null","","","","","","","",""
"","html-keyboard-response","366","198318","0.0-543.0","33F859I567ZN9EQHU38SF1KBCZIHBE","A1OZPLHNIU1519","3FW4EL5A3LANKRP91N782LFHPY722Q","","","","","","","","","","","",""
"","image-keyboard-response","367","199320","0.0-544.0","33F859I567ZN9EQHU38SF1KBCZIHBE","A1OZPLHNIU1519","3FW4EL5A3LANKRP91N782LFHPY722Q","","","img/land2.png","","1001.3000000119209","-1","0","true","2","0.6,0.6,0,0,0.6,0.6,0.6,0,0.6","",""
"","html-keyboard-response","368","199621","0.0-545.0","33F859I567ZN9EQHU38SF1KBCZIHBE","A1OZPLHNIU1519","3FW4EL5A3LANKRP91N782LFHPY722Q","","null","<img src=""img/land2.png"" style=""width:200px;border:14px solid red;"">","null","","","","","","","",""
"","html-keyboard-response","369","204596","0.0-546.0-0.0","33F859I567ZN9EQHU38SF1KBCZIHBE","A1OZPLHNIU1519","3FW4EL5A3LANKRP91N782LFHPY722Q","","","","","","","","","","","",""
"","image-keyboard-response","370","205084","0.0-547.0","33F859I567ZN9EQHU38SF1KBCZIHBE","A1OZPLHNIU1519","3FW4EL5A3LANKRP91N782LFHPY722Q","","486.2999999523163","img/land8.png","74","487.4000000357628","1","1","false","3","0.6,0.6,0,0,0.6,0.6,0.6,0,0.6","",""
"","html-keyboard-response","371","205386","0.0-548.0","33F859I567ZN9EQHU38SF1KBCZIHBE","A1OZPLHNIU1519","3FW4EL5A3LANKRP91N782LFHPY722Q","","null","<img src=""img/land8.png"" style=""width:200px; border:14px solid green;"">","null","","","","","","","",""
"","image-keyboard-response","372","205839","0.0-550.0","33F859I567ZN9EQHU38SF1KBCZIHBE","A1OZPLHNIU1519","3FW4EL5A3LANKRP91N782LFHPY722Q","","452","img/land6.png","75","452.9000000357628","2","0","false","1","0.6,0.6,0,0,0.6,0.6,0.6,0,0.6","",""
"","html-keyboard-response","373","206141","0.0-551.0","33F859I567ZN9EQHU38SF1KBCZIHBE","A1OZPLHNIU1519","3FW4EL5A3LANKRP91N782LFHPY722Q","","null","<img src=""img/land6.png"" style=""width:200px;border:14px solid red;"">","null","","","","","","","",""
"","image-keyboard-response","374","206772","0.0-553.0","33F859I567ZN9EQHU38SF1KBCZIHBE","A1OZPLHNIU1519","3FW4EL5A3LANKRP91N782LFHPY722Q","","630.2000000476837","img/land8.png","74","631.1999999880791","1","0","false","3","0.6,0.6,0,0,0.6,0.6,0.6,0,0.6","",""
"","html-keyboard-response","375","207074","0.0-554.0","33F859I567ZN9EQHU38SF1KBCZIHBE","A1OZPLHNIU1519","3FW4EL5A3LANKRP91N782LFHPY722Q","","null","<img src=""img/land8.png"" style=""width:200px;border:14px solid red;"">","null","","","","","","","",""
"","image-keyboard-response","376","207604","0.0-556.0","33F859I567ZN9EQHU38SF1KBCZIHBE","A1OZPLHNIU1519","3FW4EL5A3LANKRP91N782LFHPY722Q","","528.7999999523163","img/land6.png","75","529.6999999880791","2","1","false","1","0.6,0.6,0,0,0.6,0.6,0.6,0,0.6","",""
"","html-keyboard-response","377","207906","0.0-557.0","33F859I567ZN9EQHU38SF1KBCZIHBE","A1OZPLHNIU1519","3FW4EL5A3LANKRP91N782LFHPY722Q","","null","<img src=""img/land6.png"" style=""width:200px; border:14px solid green;"">","null","","","","","","","",""
"","image-keyboard-response","378","208204","0.0-559.0","33F859I567ZN9EQHU38SF1KBCZIHBE","A1OZPLHNIU1519","3FW4EL5A3LANKRP91N782LFHPY722Q","","297.10000002384186","img/land6.png","75","298.10000002384186","2","0","false","1","0.6,0.6,0,0,0.6,0.6,0.6,0,0.6","",""
"","html-keyboard-response","379","208507","0.0-560.0","33F859I567ZN9EQHU38SF1KBCZIHBE","A1OZPLHNIU1519","3FW4EL5A3LANKRP91N782LFHPY722Q","","null","<img src=""img/land6.png"" style=""width:200px;border:14px solid red;"">","null","","","","","","","",""
"","image-keyboard-response","380","208804","0.0-562.0","33F859I567ZN9EQHU38SF1KBCZIHBE","A1OZPLHNIU1519","3FW4EL5A3LANKRP91N782LFHPY722Q","","295.69999998807907","img/land6.png","75","296.60000002384186","2","1","false","1","0.6,0.6,0,0,0.6,0.6,0.6,0,0.6","",""
"","html-keyboard-response","381","209110","0.0-563.0","33F859I567ZN9EQHU38SF1KBCZIHBE","A1OZPLHNIU1519","3FW4EL5A3LANKRP91N782LFHPY722Q","","null","<img src=""img/land6.png"" style=""width:200px; border:14px solid green;"">","null","","","","","","","",""
"","image-keyboard-response","382","209820","0.0-565.0","33F859I567ZN9EQHU38SF1KBCZIHBE","A1OZPLHNIU1519","3FW4EL5A3LANKRP91N782LFHPY722Q","","709.1000000238419","img/land2.png","74","710.1999999880791","1","0","false","2","0.6,0.6,0,0,0.6,0.6,0.6,0,0.6","",""
"","html-keyboard-response","383","210123","0.0-566.0","33F859I567ZN9EQHU38SF1KBCZIHBE","A1OZPLHNIU1519","3FW4EL5A3LANKRP91N782LFHPY722Q","","null","<img src=""img/land2.png"" style=""width:200px;border:14px solid red;"">","null","","","","","","","",""
"","image-keyboard-response","384","210756","0.0-568.0","33F859I567ZN9EQHU38SF1KBCZIHBE","A1OZPLHNIU1519","3FW4EL5A3LANKRP91N782LFHPY722Q","","632.1000000238419","img/land6.png","75","633.0999999642372","2","0","false","1","0.6,0.6,0,0,0.6,0.6,0.6,0,0.6","",""
"","html-keyboard-response","385","211059","0.0-569.0","33F859I567ZN9EQHU38SF1KBCZIHBE","A1OZPLHNIU1519","3FW4EL5A3LANKRP91N782LFHPY722Q","","null","<img src=""img/land6.png"" style=""width:200px;border:14px solid red;"">","null","","","","","","","",""
"","image-keyboard-response","386","211276","0.0-571.0","33F859I567ZN9EQHU38SF1KBCZIHBE","A1OZPLHNIU1519","3FW4EL5A3LANKRP91N782LFHPY722Q","","216.19999998807907","img/land6.png","75","217.10000002384186","2","1","false","1","0.6,0.6,0,0,0.6,0.6,0.6,0,0.6","",""
