"success","trial_type","trial_index","time_elapsed","internal_node_id","assignmentID","mturkID","hitID","view_history","rt","stimulus","key_press","reactionTime","a","r","s","cond","reward_cond","reward_cond_actual","reward_matrix_idx","responses","question_order"
"true","fullscreen","0","3472","0.0-0.0","3TDXMTX3CCGHZXK64U954XZY2JII63","A1PRZC0JL283H7","356TQKY9XFJ5S7O4NGX4839SMNB87N","","","","","","","","","","","","","",""
"","instructions","1","18925","0.0-1.0","3TDXMTX3CCGHZXK64U954XZY2JII63","A1PRZC0JL283H7","356TQKY9XFJ5S7O4NGX4839SMNB87N","[{""page_index"":0,""viewing_time"":2380},{""page_index"":1,""viewing_time"":1038},{""page_index"":2,""viewing_time"":920},{""page_index"":3,""viewing_time"":2662},{""page_index"":4,""viewing_time"":4419},{""page_index"":5,""viewing_time"":2020},{""page_index"":6,""viewing_time"":2004}]","15445","","","","","","","","","","","",""
"","image-keyboard-response","2","20326","0.0-2.0","3TDXMTX3CCGHZXK64U954XZY2JII63","A1PRZC0JL283H7","356TQKY9XFJ5S7O4NGX4839SMNB87N","","1395","img/land2.png","76","1400","3","1","3","1","0.8,0.2,0.2,0.2,0.8,0.2,0.2,0.2,0.8","0.8,0.2,0.2,0.2,0.8,0.2,0.2,0.2,0.8","1","",""
"","html-keyboard-response","3","20631","0.0-3.0","3TDXMTX3CCGHZXK64U954XZY2JII63","A1PRZC0JL283H7","356TQKY9XFJ5S7O4NGX4839SMNB87N","","null","<img src=""img/land2.png"" style=""width:200px; border:14px solid green;"">","null","","","","","","","","","",""
"","image-keyboard-response","4","21428","0.0-4.0","3TDXMTX3CCGHZXK64U954XZY2JII63","A1PRZC0JL283H7","356TQKY9XFJ5S7O4NGX4839SMNB87N","","795","img/land2.png","76","796","3","1","3","1","0.8,0.2,0.2,0.2,0.8,0.2,0.2,0.2,0.8","0.8,0.2,0.2,0.2,0.8,0.2,0.2,0.2,0.8","1","",""
"","html-keyboard-response","5","21730","0.0-5.0","3TDXMTX3CCGHZXK64U954XZY2JII63","A1PRZC0JL283H7","356TQKY9XFJ5S7O4NGX4839SMNB87N","","null","<img src=""img/land2.png"" style=""width:200px; border:14px solid green;"">","null","","","","","","","","","",""
"","image-keyboard-response","6","22659","0.0-6.0","3TDXMTX3CCGHZXK64U954XZY2JII63","A1PRZC0JL283H7","356TQKY9XFJ5S7O4NGX4839SMNB87N","","926","img/land3.png","75","929","2","0","1","1","0.8,0.2,0.2,0.2,0.8,0.2,0.2,0.2,0.8","0.8,0.2,0.2,0.2,0.8,0.2,0.2,0.2,0.8","1","",""
"","html-keyboard-response","7","22962","0.0-7.0","3TDXMTX3CCGHZXK64U954XZY2JII63","A1PRZC0JL283H7","356TQKY9XFJ5S7O4NGX4839SMNB87N","","null","<img src=""img/land3.png"" style=""width:200px;border:14px solid red;"">","null","","","","","","","","","",""
"","image-keyboard-response","8","23826","0.0-8.0","3TDXMTX3CCGHZXK64U954XZY2JII63","A1PRZC0JL283H7","356TQKY9XFJ5S7O4NGX4839SMNB87N","","862","img/land4.png","76","863","3","0","2","1","0.8,0.2,0.2,0.2,0.8,0.2,0.2,0.2,0.8","0.8,0.2,0.2,0.2,0.8,0.2,0.2,0.2,0.8","1","",""
"","html-keyboard-response","9","24131","0.0-9.0","3TDXMTX3CCGHZXK64U954XZY2JII63","A1PRZC0JL283H7","356TQKY9XFJ5S7O4NGX4839SMNB87N","","null","<img src=""img/land4.png"" style=""width:200px;border:14px solid red;"">","null","","","","","","","","","",""
"","image-keyboard-response","10","24858","0.0-10.0","3TDXMTX3CCGHZXK64U954XZY2JII63","A1PRZC0JL283H7","356TQKY9XFJ5S7O4NGX4839SMNB87N","","723","img/land4.png","74","727","1","0","2","1","0.8,0.2,0.2,0.2,0.8,0.2,0.2,0.2,0.8","0.8,0.2,0.2,0.2,0.8,0.2,0.2,0.2,0.8","1","",""
"","html-keyboard-response","11","25231","0.0-11.0","3TDXMTX3CCGHZXK64U954XZY2JII63","A1PRZC0JL283H7","356TQKY9XFJ5S7O4NGX4839SMNB87N","","null","<img src=""img/land4.png"" style=""width:200px;border:14px solid red;"">","null","","","","","","","","","",""
"","image-keyboard-response","12","26100","0.0-12.0","3TDXMTX3CCGHZXK64U954XZY2JII63","A1PRZC0JL283H7","356TQKY9XFJ5S7O4NGX4839SMNB87N","","863","img/land3.png","75","868","2","0","1","1","0.8,0.2,0.2,0.2,0.8,0.2,0.2,0.2,0.8","0.8,0.2,0.2,0.2,0.8,0.2,0.2,0.2,0.8","1","",""
"","html-keyboard-response","13","26402","0.0-13.0","3TDXMTX3CCGHZXK64U954XZY2JII63","A1PRZC0JL283H7","356TQKY9XFJ5S7O4NGX4839SMNB87N","","null","<img src=""img/land3.png"" style=""width:200px;border:14px solid red;"">","null","","","","","","","","","",""
"","image-keyboard-response","14","27685","0.0-14.0","3TDXMTX3CCGHZXK64U954XZY2JII63","A1PRZC0JL283H7","356TQKY9XFJ5S7O4NGX4839SMNB87N","","1282","img/land3.png","76","1284","3","0","1","1","0.8,0.2,0.2,0.2,0.8,0.2,0.2,0.2,0.8","0.8,0.2,0.2,0.2,0.8,0.2,0.2,0.2,0.8","1","",""
"","html-keyboard-response","15","27989","0.0-15.0","3TDXMTX3CCGHZXK64U954XZY2JII63","A1PRZC0JL283H7","356TQKY9XFJ5S7O4NGX4839SMNB87N","","null","<img src=""img/land3.png"" style=""width:200px;border:14px solid red;"">","null","","","","","","","","","",""
"","image-keyboard-response","16","28822","0.0-16.0","3TDXMTX3CCGHZXK64U954XZY2JII63","A1PRZC0JL283H7","356TQKY9XFJ5S7O4NGX4839SMNB87N","","830","img/land3.png","74","832","1","0","1","1","0.8,0.2,0.2,0.2,0.8,0.2,0.2,0.2,0.8","0.8,0.2,0.2,0.2,0.8,0.2,0.2,0.2,0.8","1","",""
"","html-keyboard-response","17","29124","0.0-17.0","3TDXMTX3CCGHZXK64U954XZY2JII63","A1PRZC0JL283H7","356TQKY9XFJ5S7O4NGX4839SMNB87N","","null","<img src=""img/land3.png"" style=""width:200px;border:14px solid red;"">","null","","","","","","","","","",""
"","image-keyboard-response","18","30102","0.0-18.0","3TDXMTX3CCGHZXK64U954XZY2JII63","A1PRZC0JL283H7","356TQKY9XFJ5S7O4NGX4839SMNB87N","","976","img/land3.png","76","977","3","0","1","1","0.8,0.2,0.2,0.2,0.8,0.2,0.2,0.2,0.8","0.8,0.2,0.2,0.2,0.8,0.2,0.2,0.2,0.8","1","",""
"","html-keyboard-response","19","30405","0.0-19.0","3TDXMTX3CCGHZXK64U954XZY2JII63","A1PRZC0JL283H7","356TQKY9XFJ5S7O4NGX4839SMNB87N","","null","<img src=""img/land3.png"" style=""width:200px;border:14px solid red;"">","null","","","","","","","","","",""
"","image-keyboard-response","20","32099","0.0-20.0","3TDXMTX3CCGHZXK64U954XZY2JII63","A1PRZC0JL283H7","356TQKY9XFJ5S7O4NGX4839SMNB87N","","1691","img/land4.png","76","1694","3","1","2","1","0.8,0.2,0.2,0.2,0.8,0.2,0.2,0.2,0.8","0.8,0.2,0.2,0.2,0.8,0.2,0.2,0.2,0.8","1","",""
"","html-keyboard-response","21","32400","0.0-21.0","3TDXMTX3CCGHZXK64U954XZY2JII63","A1PRZC0JL283H7","356TQKY9XFJ5S7O4NGX4839SMNB87N","","null","<img src=""img/land4.png"" style=""width:200px; border:14px solid green;"">","null","","","","","","","","","",""
"","image-keyboard-response","22","33317","0.0-22.0","3TDXMTX3CCGHZXK64U954XZY2JII63","A1PRZC0JL283H7","356TQKY9XFJ5S7O4NGX4839SMNB87N","","915","img/land4.png","76","916","3","0","2","1","0.8,0.2,0.2,0.2,0.8,0.2,0.2,0.2,0.8","0.8,0.2,0.2,0.2,0.8,0.2,0.2,0.2,0.8","1","",""
"","html-keyboard-response","23","33619","0.0-23.0","3TDXMTX3CCGHZXK64U954XZY2JII63","A1PRZC0JL283H7","356TQKY9XFJ5S7O4NGX4839SMNB87N","","null","<img src=""img/land4.png"" style=""width:200px;border:14px solid red;"">","null","","","","","","","","","",""
"","image-keyboard-response","24","34681","0.0-24.0","3TDXMTX3CCGHZXK64U954XZY2JII63","A1PRZC0JL283H7","356TQKY9XFJ5S7O4NGX4839SMNB87N","","1059","img/land2.png","75","1061","2","1","3","1","0.8,0.2,0.2,0.2,0.8,0.2,0.2,0.2,0.8","0.8,0.2,0.2,0.2,0.8,0.2,0.2,0.2,0.8","1","",""
"","html-keyboard-response","25","34984","0.0-25.0","3TDXMTX3CCGHZXK64U954XZY2JII63","A1PRZC0JL283H7","356TQKY9XFJ5S7O4NGX4839SMNB87N","","null","<img src=""img/land2.png"" style=""width:200px; border:14px solid green;"">","null","","","","","","","","","",""
"","image-keyboard-response","26","35860","0.0-26.0","3TDXMTX3CCGHZXK64U954XZY2JII63","A1PRZC0JL283H7","356TQKY9XFJ5S7O4NGX4839SMNB87N","","874","img/land2.png","75","877","2","0","3","1","0.8,0.2,0.2,0.2,0.8,0.2,0.2,0.2,0.8","0.8,0.2,0.2,0.2,0.8,0.2,0.2,0.2,0.8","1","",""
"","html-keyboard-response","27","36163","0.0-27.0","3TDXMTX3CCGHZXK64U954XZY2JII63","A1PRZC0JL283H7","356TQKY9XFJ5S7O4NGX4839SMNB87N","","null","<img src=""img/land2.png"" style=""width:200px;border:14px solid red;"">","null","","","","","","","","","",""
"","image-keyboard-response","28","37296","0.0-28.0","3TDXMTX3CCGHZXK64U954XZY2JII63","A1PRZC0JL283H7","356TQKY9XFJ5S7O4NGX4839SMNB87N","","1130","img/land2.png","76","1132","3","1","3","1","0.8,0.2,0.2,0.2,0.8,0.2,0.2,0.2,0.8","0.8,0.2,0.2,0.2,0.8,0.2,0.2,0.2,0.8","1","",""
"","html-keyboard-response","29","37598","0.0-29.0","3TDXMTX3CCGHZXK64U954XZY2JII63","A1PRZC0JL283H7","356TQKY9XFJ5S7O4NGX4839SMNB87N","","null","<img src=""img/land2.png"" style=""width:200px; border:14px solid green;"">","null","","","","","","","","","",""
"","image-keyboard-response","30","38621","0.0-30.0","3TDXMTX3CCGHZXK64U954XZY2JII63","A1PRZC0JL283H7","356TQKY9XFJ5S7O4NGX4839SMNB87N","","1020","img/land4.png","75","1023","2","1","2","1","0.8,0.2,0.2,0.2,0.8,0.2,0.2,0.2,0.8","0.8,0.2,0.2,0.2,0.8,0.2,0.2,0.2,0.8","1","",""
"","html-keyboard-response","31","38925","0.0-31.0","3TDXMTX3CCGHZXK64U954XZY2JII63","A1PRZC0JL283H7","356TQKY9XFJ5S7O4NGX4839SMNB87N","","null","<img src=""img/land4.png"" style=""width:200px; border:14px solid green;"">","null","","","","","","","","","",""
"","image-keyboard-response","32","39799","0.0-32.0","3TDXMTX3CCGHZXK64U954XZY2JII63","A1PRZC0JL283H7","356TQKY9XFJ5S7O4NGX4839SMNB87N","","872","img/land3.png","76","874","3","0","1","1","0.8,0.2,0.2,0.2,0.8,0.2,0.2,0.2,0.8","0.8,0.2,0.2,0.2,0.8,0.2,0.2,0.2,0.8","1","",""
"","html-keyboard-response","33","40103","0.0-33.0","3TDXMTX3CCGHZXK64U954XZY2JII63","A1PRZC0JL283H7","356TQKY9XFJ5S7O4NGX4839SMNB87N","","null","<img src=""img/land3.png"" style=""width:200px;border:14px solid red;"">","null","","","","","","","","","",""
"","image-keyboard-response","34","41173","0.0-34.0","3TDXMTX3CCGHZXK64U954XZY2JII63","A1PRZC0JL283H7","356TQKY9XFJ5S7O4NGX4839SMNB87N","","1068","img/land4.png","74","1070","1","0","2","1","0.8,0.2,0.2,0.2,0.8,0.2,0.2,0.2,0.8","0.8,0.2,0.2,0.2,0.8,0.2,0.2,0.2,0.8","1","",""
"","html-keyboard-response","35","41604","0.0-35.0","3TDXMTX3CCGHZXK64U954XZY2JII63","A1PRZC0JL283H7","356TQKY9XFJ5S7O4NGX4839SMNB87N","","null","<img src=""img/land4.png"" style=""width:200px;border:14px solid red;"">","null","","","","","","","","","",""
"","image-keyboard-response","36","42538","0.0-36.0","3TDXMTX3CCGHZXK64U954XZY2JII63","A1PRZC0JL283H7","356TQKY9XFJ5S7O4NGX4839SMNB87N","","933","img/land2.png","75","934","2","0","3","1","0.8,0.2,0.2,0.2,0.8,0.2,0.2,0.2,0.8","0.8,0.2,0.2,0.2,0.8,0.2,0.2,0.2,0.8","1","",""
"","html-keyboard-response","37","42841","0.0-37.0","3TDXMTX3CCGHZXK64U954XZY2JII63","A1PRZC0JL283H7","356TQKY9XFJ5S7O4NGX4839SMNB87N","","null","<img src=""img/land2.png"" style=""width:200px;border:14px solid red;"">","null","","","","","","","","","",""
"","image-keyboard-response","38","43921","0.0-38.0","3TDXMTX3CCGHZXK64U954XZY2JII63","A1PRZC0JL283H7","356TQKY9XFJ5S7O4NGX4839SMNB87N","","1076","img/land4.png","76","1079","3","0","2","1","0.8,0.2,0.2,0.2,0.8,0.2,0.2,0.2,0.8","0.8,0.2,0.2,0.2,0.8,0.2,0.2,0.2,0.8","1","",""
"","html-keyboard-response","39","44222","0.0-39.0","3TDXMTX3CCGHZXK64U954XZY2JII63","A1PRZC0JL283H7","356TQKY9XFJ5S7O4NGX4839SMNB87N","","null","<img src=""img/land4.png"" style=""width:200px;border:14px solid red;"">","null","","","","","","","","","",""
"","image-keyboard-response","40","45421","0.0-40.0","3TDXMTX3CCGHZXK64U954XZY2JII63","A1PRZC0JL283H7","356TQKY9XFJ5S7O4NGX4839SMNB87N","","1197","img/land2.png","75","1198","2","0","3","1","0.8,0.2,0.2,0.2,0.8,0.2,0.2,0.2,0.8","0.8,0.2,0.2,0.2,0.8,0.2,0.2,0.2,0.8","1","",""
"","html-keyboard-response","41","45724","0.0-41.0","3TDXMTX3CCGHZXK64U954XZY2JII63","A1PRZC0JL283H7","356TQKY9XFJ5S7O4NGX4839SMNB87N","","null","<img src=""img/land2.png"" style=""width:200px;border:14px solid red;"">","null","","","","","","","","","",""
"","image-keyboard-response","42","46780","0.0-42.0","3TDXMTX3CCGHZXK64U954XZY2JII63","A1PRZC0JL283H7","356TQKY9XFJ5S7O4NGX4839SMNB87N","","1054","img/land2.png","76","1055","3","1","3","1","0.8,0.2,0.2,0.2,0.8,0.2,0.2,0.2,0.8","0.8,0.2,0.2,0.2,0.8,0.2,0.2,0.2,0.8","1","",""
"","html-keyboard-response","43","47087","0.0-43.0","3TDXMTX3CCGHZXK64U954XZY2JII63","A1PRZC0JL283H7","356TQKY9XFJ5S7O4NGX4839SMNB87N","","null","<img src=""img/land2.png"" style=""width:200px; border:14px solid green;"">","null","","","","","","","","","",""
"","image-keyboard-response","44","47960","0.0-44.0","3TDXMTX3CCGHZXK64U954XZY2JII63","A1PRZC0JL283H7","356TQKY9XFJ5S7O4NGX4839SMNB87N","","871","img/land3.png","76","873","3","0","1","1","0.8,0.2,0.2,0.2,0.8,0.2,0.2,0.2,0.8","0.8,0.2,0.2,0.2,0.8,0.2,0.2,0.2,0.8","1","",""
"","html-keyboard-response","45","48264","0.0-45.0","3TDXMTX3CCGHZXK64U954XZY2JII63","A1PRZC0JL283H7","356TQKY9XFJ5S7O4NGX4839SMNB87N","","null","<img src=""img/land3.png"" style=""width:200px;border:14px solid red;"">","null","","","","","","","","","",""
"","image-keyboard-response","46","49490","0.0-46.0","3TDXMTX3CCGHZXK64U954XZY2JII63","A1PRZC0JL283H7","356TQKY9XFJ5S7O4NGX4839SMNB87N","","1223","img/land2.png","76","1226","3","1","3","1","0.8,0.2,0.2,0.2,0.8,0.2,0.2,0.2,0.8","0.8,0.2,0.2,0.2,0.8,0.2,0.2,0.2,0.8","1","",""
"","html-keyboard-response","47","49791","0.0-47.0","3TDXMTX3CCGHZXK64U954XZY2JII63","A1PRZC0JL283H7","356TQKY9XFJ5S7O4NGX4839SMNB87N","","null","<img src=""img/land2.png"" style=""width:200px; border:14px solid green;"">","null","","","","","","","","","",""
"","image-keyboard-response","48","50631","0.0-48.0","3TDXMTX3CCGHZXK64U954XZY2JII63","A1PRZC0JL283H7","356TQKY9XFJ5S7O4NGX4839SMNB87N","","838","img/land3.png","75","840","2","1","1","1","0.8,0.2,0.2,0.2,0.8,0.2,0.2,0.2,0.8","0.8,0.2,0.2,0.2,0.8,0.2,0.2,0.2,0.8","1","",""
"","html-keyboard-response","49","50934","0.0-49.0","3TDXMTX3CCGHZXK64U954XZY2JII63","A1PRZC0JL283H7","356TQKY9XFJ5S7O4NGX4839SMNB87N","","null","<img src=""img/land3.png"" style=""width:200px; border:14px solid green;"">","null","","","","","","","","","",""
"","image-keyboard-response","50","51884","0.0-50.0","3TDXMTX3CCGHZXK64U954XZY2JII63","A1PRZC0JL283H7","356TQKY9XFJ5S7O4NGX4839SMNB87N","","947","img/land4.png","76","950","3","0","2","1","0.8,0.2,0.2,0.2,0.8,0.2,0.2,0.2,0.8","0.8,0.2,0.2,0.2,0.8,0.2,0.2,0.2,0.8","1","",""
"","html-keyboard-response","51","52188","0.0-51.0","3TDXMTX3CCGHZXK64U954XZY2JII63","A1PRZC0JL283H7","356TQKY9XFJ5S7O4NGX4839SMNB87N","","null","<img src=""img/land4.png"" style=""width:200px;border:14px solid red;"">","null","","","","","","","","","",""
"","image-keyboard-response","52","53423","0.0-52.0","3TDXMTX3CCGHZXK64U954XZY2JII63","A1PRZC0JL283H7","356TQKY9XFJ5S7O4NGX4839SMNB87N","","1233","img/land3.png","75","1234","2","1","1","1","0.8,0.2,0.2,0.2,0.8,0.2,0.2,0.2,0.8","0.8,0.2,0.2,0.2,0.8,0.2,0.2,0.2,0.8","1","",""
"","html-keyboard-response","53","53762","0.0-53.0","3TDXMTX3CCGHZXK64U954XZY2JII63","A1PRZC0JL283H7","356TQKY9XFJ5S7O4NGX4839SMNB87N","","null","<img src=""img/land3.png"" style=""width:200px; border:14px solid green;"">","null","","","","","","","","","",""
"","image-keyboard-response","54","55282","0.0-54.0","3TDXMTX3CCGHZXK64U954XZY2JII63","A1PRZC0JL283H7","356TQKY9XFJ5S7O4NGX4839SMNB87N","","1510","img/land2.png","74","1520","1","1","3","1","0.8,0.2,0.2,0.2,0.8,0.2,0.2,0.2,0.8","0.8,0.2,0.2,0.2,0.8,0.2,0.2,0.2,0.8","1","",""
"","html-keyboard-response","55","55588","0.0-55.0","3TDXMTX3CCGHZXK64U954XZY2JII63","A1PRZC0JL283H7","356TQKY9XFJ5S7O4NGX4839SMNB87N","","null","<img src=""img/land2.png"" style=""width:200px; border:14px solid green;"">","null","","","","","","","","","",""
"","image-keyboard-response","56","56779","0.0-56.0","3TDXMTX3CCGHZXK64U954XZY2JII63","A1PRZC0JL283H7","356TQKY9XFJ5S7O4NGX4839SMNB87N","","1190","img/land4.png","76","1191","3","0","2","1","0.8,0.2,0.2,0.2,0.8,0.2,0.2,0.2,0.8","0.8,0.2,0.2,0.2,0.8,0.2,0.2,0.2,0.8","1","",""
"","html-keyboard-response","57","57082","0.0-57.0","3TDXMTX3CCGHZXK64U954XZY2JII63","A1PRZC0JL283H7","356TQKY9XFJ5S7O4NGX4839SMNB87N","","null","<img src=""img/land4.png"" style=""width:200px;border:14px solid red;"">","null","","","","","","","","","",""
"","image-keyboard-response","58","57880","0.0-58.0","3TDXMTX3CCGHZXK64U954XZY2JII63","A1PRZC0JL283H7","356TQKY9XFJ5S7O4NGX4839SMNB87N","","796","img/land3.png","75","800","2","0","1","1","0.8,0.2,0.2,0.2,0.8,0.2,0.2,0.2,0.8","0.8,0.2,0.2,0.2,0.8,0.2,0.2,0.2,0.8","1","",""
"","html-keyboard-response","59","58186","0.0-59.0","3TDXMTX3CCGHZXK64U954XZY2JII63","A1PRZC0JL283H7","356TQKY9XFJ5S7O4NGX4839SMNB87N","","null","<img src=""img/land3.png"" style=""width:200px;border:14px solid red;"">","null","","","","","","","","","",""
"","image-keyboard-response","60","59602","0.0-60.0","3TDXMTX3CCGHZXK64U954XZY2JII63","A1PRZC0JL283H7","356TQKY9XFJ5S7O4NGX4839SMNB87N","","1413","img/land4.png","74","1415","1","0","2","1","0.8,0.2,0.2,0.2,0.8,0.2,0.2,0.2,0.8","0.8,0.2,0.2,0.2,0.8,0.2,0.2,0.2,0.8","1","",""
"","html-keyboard-response","61","59904","0.0-61.0","3TDXMTX3CCGHZXK64U954XZY2JII63","A1PRZC0JL283H7","356TQKY9XFJ5S7O4NGX4839SMNB87N","","null","<img src=""img/land4.png"" style=""width:200px;border:14px solid red;"">","null","","","","","","","","","",""
"","image-keyboard-response","62","60679","0.0-62.0","3TDXMTX3CCGHZXK64U954XZY2JII63","A1PRZC0JL283H7","356TQKY9XFJ5S7O4NGX4839SMNB87N","","772","img/land4.png","74","774","1","1","2","1","0.8,0.2,0.2,0.2,0.8,0.2,0.2,0.2,0.8","0.8,0.2,0.2,0.2,0.8,0.2,0.2,0.2,0.8","1","",""
"","html-keyboard-response","63","60980","0.0-63.0","3TDXMTX3CCGHZXK64U954XZY2JII63","A1PRZC0JL283H7","356TQKY9XFJ5S7O4NGX4839SMNB87N","","null","<img src=""img/land4.png"" style=""width:200px; border:14px solid green;"">","null","","","","","","","","","",""
"","image-keyboard-response","64","61821","0.0-64.0","3TDXMTX3CCGHZXK64U954XZY2JII63","A1PRZC0JL283H7","356TQKY9XFJ5S7O4NGX4839SMNB87N","","839","img/land3.png","75","839","2","0","1","1","0.8,0.2,0.2,0.2,0.8,0.2,0.2,0.2,0.8","0.8,0.2,0.2,0.2,0.8,0.2,0.2,0.2,0.8","1","",""
"","html-keyboard-response","65","62126","0.0-65.0","3TDXMTX3CCGHZXK64U954XZY2JII63","A1PRZC0JL283H7","356TQKY9XFJ5S7O4NGX4839SMNB87N","","null","<img src=""img/land3.png"" style=""width:200px;border:14px solid red;"">","null","","","","","","","","","",""
"","image-keyboard-response","66","63600","0.0-66.0","3TDXMTX3CCGHZXK64U954XZY2JII63","A1PRZC0JL283H7","356TQKY9XFJ5S7O4NGX4839SMNB87N","","1469","img/land4.png","74","1472","1","0","2","1","0.8,0.2,0.2,0.2,0.8,0.2,0.2,0.2,0.8","0.8,0.2,0.2,0.2,0.8,0.2,0.2,0.2,0.8","1","",""
"","html-keyboard-response","67","63903","0.0-67.0","3TDXMTX3CCGHZXK64U954XZY2JII63","A1PRZC0JL283H7","356TQKY9XFJ5S7O4NGX4839SMNB87N","","null","<img src=""img/land4.png"" style=""width:200px;border:14px solid red;"">","null","","","","","","","","","",""
"","image-keyboard-response","68","64741","0.0-68.0","3TDXMTX3CCGHZXK64U954XZY2JII63","A1PRZC0JL283H7","356TQKY9XFJ5S7O4NGX4839SMNB87N","","836","img/land4.png","76","837","3","0","2","1","0.8,0.2,0.2,0.2,0.8,0.2,0.2,0.2,0.8","0.8,0.2,0.2,0.2,0.8,0.2,0.2,0.2,0.8","1","",""
"","html-keyboard-response","69","65050","0.0-69.0","3TDXMTX3CCGHZXK64U954XZY2JII63","A1PRZC0JL283H7","356TQKY9XFJ5S7O4NGX4839SMNB87N","","null","<img src=""img/land4.png"" style=""width:200px;border:14px solid red;"">","null","","","","","","","","","",""
"","image-keyboard-response","70","65962","0.0-70.0","3TDXMTX3CCGHZXK64U954XZY2JII63","A1PRZC0JL283H7","356TQKY9XFJ5S7O4NGX4839SMNB87N","","910","img/land2.png","75","912","2","1","3","1","0.8,0.2,0.2,0.2,0.8,0.2,0.2,0.2,0.8","0.8,0.2,0.2,0.2,0.8,0.2,0.2,0.2,0.8","1","",""
"","html-keyboard-response","71","66269","0.0-71.0","3TDXMTX3CCGHZXK64U954XZY2JII63","A1PRZC0JL283H7","356TQKY9XFJ5S7O4NGX4839SMNB87N","","null","<img src=""img/land2.png"" style=""width:200px; border:14px solid green;"">","null","","","","","","","","","",""
"","image-keyboard-response","72","67239","0.0-72.0","3TDXMTX3CCGHZXK64U954XZY2JII63","A1PRZC0JL283H7","356TQKY9XFJ5S7O4NGX4839SMNB87N","","969","img/land3.png","76","971","3","0","1","1","0.8,0.2,0.2,0.2,0.8,0.2,0.2,0.2,0.8","0.8,0.2,0.2,0.2,0.8,0.2,0.2,0.2,0.8","1","",""
"","html-keyboard-response","73","67544","0.0-73.0","3TDXMTX3CCGHZXK64U954XZY2JII63","A1PRZC0JL283H7","356TQKY9XFJ5S7O4NGX4839SMNB87N","","null","<img src=""img/land3.png"" style=""width:200px;border:14px solid red;"">","null","","","","","","","","","",""
"","image-keyboard-response","74","68386","0.0-74.0","3TDXMTX3CCGHZXK64U954XZY2JII63","A1PRZC0JL283H7","356TQKY9XFJ5S7O4NGX4839SMNB87N","","839","img/land2.png","75","840","2","1","3","1","0.8,0.2,0.2,0.2,0.8,0.2,0.2,0.2,0.8","0.8,0.2,0.2,0.2,0.8,0.2,0.2,0.2,0.8","1","",""
"","html-keyboard-response","75","68688","0.0-75.0","3TDXMTX3CCGHZXK64U954XZY2JII63","A1PRZC0JL283H7","356TQKY9XFJ5S7O4NGX4839SMNB87N","","null","<img src=""img/land2.png"" style=""width:200px; border:14px solid green;"">","null","","","","","","","","","",""
"","image-keyboard-response","76","69482","0.0-76.0","3TDXMTX3CCGHZXK64U954XZY2JII63","A1PRZC0JL283H7","356TQKY9XFJ5S7O4NGX4839SMNB87N","","791","img/land3.png","74","794","1","1","1","1","0.8,0.2,0.2,0.2,0.8,0.2,0.2,0.2,0.8","0.8,0.2,0.2,0.2,0.8,0.2,0.2,0.2,0.8","1","",""
"","html-keyboard-response","77","69787","0.0-77.0","3TDXMTX3CCGHZXK64U954XZY2JII63","A1PRZC0JL283H7","356TQKY9XFJ5S7O4NGX4839SMNB87N","","null","<img src=""img/land3.png"" style=""width:200px; border:14px solid green;"">","null","","","","","","","","","",""
"","image-keyboard-response","78","71134","0.0-78.0","3TDXMTX3CCGHZXK64U954XZY2JII63","A1PRZC0JL283H7","356TQKY9XFJ5S7O4NGX4839SMNB87N","","1343","img/land2.png","75","1345","2","0","3","1","0.8,0.2,0.2,0.2,0.8,0.2,0.2,0.2,0.8","0.8,0.2,0.2,0.2,0.8,0.2,0.2,0.2,0.8","1","",""
"","html-keyboard-response","79","71437","0.0-79.0","3TDXMTX3CCGHZXK64U954XZY2JII63","A1PRZC0JL283H7","356TQKY9XFJ5S7O4NGX4839SMNB87N","","null","<img src=""img/land2.png"" style=""width:200px;border:14px solid red;"">","null","","","","","","","","","",""
"","image-keyboard-response","80","72286","0.0-80.0","3TDXMTX3CCGHZXK64U954XZY2JII63","A1PRZC0JL283H7","356TQKY9XFJ5S7O4NGX4839SMNB87N","","846","img/land2.png","74","849","1","0","3","1","0.8,0.2,0.2,0.2,0.8,0.2,0.2,0.2,0.8","0.8,0.2,0.2,0.2,0.8,0.2,0.2,0.2,0.8","1","",""
"","html-keyboard-response","81","72588","0.0-81.0","3TDXMTX3CCGHZXK64U954XZY2JII63","A1PRZC0JL283H7","356TQKY9XFJ5S7O4NGX4839SMNB87N","","null","<img src=""img/land2.png"" style=""width:200px;border:14px solid red;"">","null","","","","","","","","","",""
"","image-keyboard-response","82","73589","0.0-82.0","3TDXMTX3CCGHZXK64U954XZY2JII63","A1PRZC0JL283H7","356TQKY9XFJ5S7O4NGX4839SMNB87N","","1000","img/land4.png","76","1002","3","0","2","1","0.8,0.2,0.2,0.2,0.8,0.2,0.2,0.2,0.8","0.8,0.2,0.2,0.2,0.8,0.2,0.2,0.2,0.8","1","",""
"","html-keyboard-response","83","73893","0.0-83.0","3TDXMTX3CCGHZXK64U954XZY2JII63","A1PRZC0JL283H7","356TQKY9XFJ5S7O4NGX4839SMNB87N","","null","<img src=""img/land4.png"" style=""width:200px;border:14px solid red;"">","null","","","","","","","","","",""
"","image-keyboard-response","84","74764","0.0-84.0","3TDXMTX3CCGHZXK64U954XZY2JII63","A1PRZC0JL283H7","356TQKY9XFJ5S7O4NGX4839SMNB87N","","866","img/land4.png","76","871","3","0","2","1","0.8,0.2,0.2,0.2,0.8,0.2,0.2,0.2,0.8","0.8,0.2,0.2,0.2,0.8,0.2,0.2,0.2,0.8","1","",""
"","html-keyboard-response","85","75069","0.0-85.0","3TDXMTX3CCGHZXK64U954XZY2JII63","A1PRZC0JL283H7","356TQKY9XFJ5S7O4NGX4839SMNB87N","","null","<img src=""img/land4.png"" style=""width:200px;border:14px solid red;"">","null","","","","","","","","","",""
"","image-keyboard-response","86","75862","0.0-86.0","3TDXMTX3CCGHZXK64U954XZY2JII63","A1PRZC0JL283H7","356TQKY9XFJ5S7O4NGX4839SMNB87N","","778","img/land4.png","75","792","2","1","2","1","0.8,0.2,0.2,0.2,0.8,0.2,0.2,0.2,0.8","0.8,0.2,0.2,0.2,0.8,0.2,0.2,0.2,0.8","1","",""
"","html-keyboard-response","87","76165","0.0-87.0","3TDXMTX3CCGHZXK64U954XZY2JII63","A1PRZC0JL283H7","356TQKY9XFJ5S7O4NGX4839SMNB87N","","null","<img src=""img/land4.png"" style=""width:200px; border:14px solid green;"">","null","","","","","","","","","",""
"","image-keyboard-response","88","77415","0.0-88.0","3TDXMTX3CCGHZXK64U954XZY2JII63","A1PRZC0JL283H7","356TQKY9XFJ5S7O4NGX4839SMNB87N","","1248","img/land4.png","75","1257","2","1","2","1","0.8,0.2,0.2,0.2,0.8,0.2,0.2,0.2,0.8","0.8,0.2,0.2,0.2,0.8,0.2,0.2,0.2,0.8","1","",""
"","html-keyboard-response","89","77725","0.0-89.0","3TDXMTX3CCGHZXK64U954XZY2JII63","A1PRZC0JL283H7","356TQKY9XFJ5S7O4NGX4839SMNB87N","","null","<img src=""img/land4.png"" style=""width:200px; border:14px solid green;"">","null","","","","","","","","","",""
"","image-keyboard-response","90","79725","0.0-90.0","3TDXMTX3CCGHZXK64U954XZY2JII63","A1PRZC0JL283H7","356TQKY9XFJ5S7O4NGX4839SMNB87N","","1997","img/land3.png","76","1999","3","1","1","1","0.8,0.2,0.2,0.2,0.8,0.2,0.2,0.2,0.8","0.8,0.2,0.2,0.2,0.8,0.2,0.2,0.2,0.8","1","",""
"","html-keyboard-response","91","80029","0.0-91.0","3TDXMTX3CCGHZXK64U954XZY2JII63","A1PRZC0JL283H7","356TQKY9XFJ5S7O4NGX4839SMNB87N","","null","<img src=""img/land3.png"" style=""width:200px; border:14px solid green;"">","null","","","","","","","","","",""
"","image-keyboard-response","92","81088","0.0-92.0","3TDXMTX3CCGHZXK64U954XZY2JII63","A1PRZC0JL283H7","356TQKY9XFJ5S7O4NGX4839SMNB87N","","1058","img/land3.png","76","1059","3","0","1","1","0.8,0.2,0.2,0.2,0.8,0.2,0.2,0.2,0.8","0.8,0.2,0.2,0.2,0.8,0.2,0.2,0.2,0.8","1","",""
"","html-keyboard-response","93","81392","0.0-93.0","3TDXMTX3CCGHZXK64U954XZY2JII63","A1PRZC0JL283H7","356TQKY9XFJ5S7O4NGX4839SMNB87N","","null","<img src=""img/land3.png"" style=""width:200px;border:14px solid red;"">","null","","","","","","","","","",""
"","image-keyboard-response","94","82459","0.0-94.0","3TDXMTX3CCGHZXK64U954XZY2JII63","A1PRZC0JL283H7","356TQKY9XFJ5S7O4NGX4839SMNB87N","","1065","img/land3.png","76","1067","3","0","1","1","0.8,0.2,0.2,0.2,0.8,0.2,0.2,0.2,0.8","0.8,0.2,0.2,0.2,0.8,0.2,0.2,0.2,0.8","1","",""
"","html-keyboard-response","95","82760","0.0-95.0","3TDXMTX3CCGHZXK64U954XZY2JII63","A1PRZC0JL283H7","356TQKY9XFJ5S7O4NGX4839SMNB87N","","null","<img src=""img/land3.png"" style=""width:200px;border:14px solid red;"">","null","","","","","","","","","",""
"","image-keyboard-response","96","83707","0.0-96.0","3TDXMTX3CCGHZXK64U954XZY2JII63","A1PRZC0JL283H7","356TQKY9XFJ5S7O4NGX4839SMNB87N","","945","img/land3.png","74","947","1","1","1","1","0.8,0.2,0.2,0.2,0.8,0.2,0.2,0.2,0.8","0.8,0.2,0.2,0.2,0.8,0.2,0.2,0.2,0.8","1","",""
"","html-keyboard-response","97","84010","0.0-97.0","3TDXMTX3CCGHZXK64U954XZY2JII63","A1PRZC0JL283H7","356TQKY9XFJ5S7O4NGX4839SMNB87N","","null","<img src=""img/land3.png"" style=""width:200px; border:14px solid green;"">","null","","","","","","","","","",""
"","image-keyboard-response","98","85223","0.0-98.0","3TDXMTX3CCGHZXK64U954XZY2JII63","A1PRZC0JL283H7","356TQKY9XFJ5S7O4NGX4839SMNB87N","","1208","img/land4.png","75","1213","2","1","2","1","0.8,0.2,0.2,0.2,0.8,0.2,0.2,0.2,0.8","0.8,0.2,0.2,0.2,0.8,0.2,0.2,0.2,0.8","1","",""
"","html-keyboard-response","99","85525","0.0-99.0","3TDXMTX3CCGHZXK64U954XZY2JII63","A1PRZC0JL283H7","356TQKY9XFJ5S7O4NGX4839SMNB87N","","null","<img src=""img/land4.png"" style=""width:200px; border:14px solid green;"">","null","","","","","","","","","",""
"","image-keyboard-response","100","86692","0.0-100.0","3TDXMTX3CCGHZXK64U954XZY2JII63","A1PRZC0JL283H7","356TQKY9XFJ5S7O4NGX4839SMNB87N","","1164","img/land4.png","75","1167","2","0","2","1","0.8,0.2,0.2,0.2,0.8,0.2,0.2,0.2,0.8","0.8,0.2,0.2,0.2,0.8,0.2,0.2,0.2,0.8","1","",""
"","html-keyboard-response","101","86994","0.0-101.0","3TDXMTX3CCGHZXK64U954XZY2JII63","A1PRZC0JL283H7","356TQKY9XFJ5S7O4NGX4839SMNB87N","","null","<img src=""img/land4.png"" style=""width:200px;border:14px solid red;"">","null","","","","","","","","","",""
"","image-keyboard-response","102","87741","0.0-102.0","3TDXMTX3CCGHZXK64U954XZY2JII63","A1PRZC0JL283H7","356TQKY9XFJ5S7O4NGX4839SMNB87N","","742","img/land2.png","74","745","1","1","3","1","0.8,0.2,0.2,0.2,0.8,0.2,0.2,0.2,0.8","0.8,0.2,0.2,0.2,0.8,0.2,0.2,0.2,0.8","1","",""
"","html-keyboard-response","103","88044","0.0-103.0","3TDXMTX3CCGHZXK64U954XZY2JII63","A1PRZC0JL283H7","356TQKY9XFJ5S7O4NGX4839SMNB87N","","null","<img src=""img/land2.png"" style=""width:200px; border:14px solid green;"">","null","","","","","","","","","",""
"","image-keyboard-response","104","89344","0.0-104.0","3TDXMTX3CCGHZXK64U954XZY2JII63","A1PRZC0JL283H7","356TQKY9XFJ5S7O4NGX4839SMNB87N","","1296","img/land3.png","74","1299","1","1","1","1","0.8,0.2,0.2,0.2,0.8,0.2,0.2,0.2,0.8","0.8,0.2,0.2,0.2,0.8,0.2,0.2,0.2,0.8","1","",""
"","html-keyboard-response","105","89832","0.0-105.0","3TDXMTX3CCGHZXK64U954XZY2JII63","A1PRZC0JL283H7","356TQKY9XFJ5S7O4NGX4839SMNB87N","","null","<img src=""img/land3.png"" style=""width:200px; border:14px solid green;"">","null","","","","","","","","","",""
"","image-keyboard-response","106","91547","0.0-106.0","3TDXMTX3CCGHZXK64U954XZY2JII63","A1PRZC0JL283H7","356TQKY9XFJ5S7O4NGX4839SMNB87N","","1672","img/land3.png","76","1687","3","1","1","1","0.8,0.2,0.2,0.2,0.8,0.2,0.2,0.2,0.8","0.8,0.2,0.2,0.2,0.8,0.2,0.2,0.2,0.8","1","",""
"","html-keyboard-response","107","91850","0.0-107.0","3TDXMTX3CCGHZXK64U954XZY2JII63","A1PRZC0JL283H7","356TQKY9XFJ5S7O4NGX4839SMNB87N","","null","<img src=""img/land3.png"" style=""width:200px; border:14px solid green;"">","null","","","","","","","","","",""
"","image-keyboard-response","108","92757","0.0-108.0","3TDXMTX3CCGHZXK64U954XZY2JII63","A1PRZC0JL283H7","356TQKY9XFJ5S7O4NGX4839SMNB87N","","904","img/land2.png","74","907","1","0","3","1","0.8,0.2,0.2,0.2,0.8,0.2,0.2,0.2,0.8","0.8,0.2,0.2,0.2,0.8,0.2,0.2,0.2,0.8","1","",""
"","html-keyboard-response","109","93061","0.0-109.0","3TDXMTX3CCGHZXK64U954XZY2JII63","A1PRZC0JL283H7","356TQKY9XFJ5S7O4NGX4839SMNB87N","","null","<img src=""img/land2.png"" style=""width:200px;border:14px solid red;"">","null","","","","","","","","","",""
"","image-keyboard-response","110","93801","0.0-110.0","3TDXMTX3CCGHZXK64U954XZY2JII63","A1PRZC0JL283H7","356TQKY9XFJ5S7O4NGX4839SMNB87N","","737","img/land4.png","75","740","2","0","2","1","0.8,0.2,0.2,0.2,0.8,0.2,0.2,0.2,0.8","0.8,0.2,0.2,0.2,0.8,0.2,0.2,0.2,0.8","1","",""
"","html-keyboard-response","111","94104","0.0-111.0","3TDXMTX3CCGHZXK64U954XZY2JII63","A1PRZC0JL283H7","356TQKY9XFJ5S7O4NGX4839SMNB87N","","null","<img src=""img/land4.png"" style=""width:200px;border:14px solid red;"">","null","","","","","","","","","",""
"","image-keyboard-response","112","94919","0.0-112.0","3TDXMTX3CCGHZXK64U954XZY2JII63","A1PRZC0JL283H7","356TQKY9XFJ5S7O4NGX4839SMNB87N","","814","img/land3.png","74","814","1","1","1","1","0.8,0.2,0.2,0.2,0.8,0.2,0.2,0.2,0.8","0.8,0.2,0.2,0.2,0.8,0.2,0.2,0.2,0.8","1","",""
"","html-keyboard-response","113","95223","0.0-113.0","3TDXMTX3CCGHZXK64U954XZY2JII63","A1PRZC0JL283H7","356TQKY9XFJ5S7O4NGX4839SMNB87N","","null","<img src=""img/land3.png"" style=""width:200px; border:14px solid green;"">","null","","","","","","","","","",""
"","image-keyboard-response","114","96039","0.0-114.0","3TDXMTX3CCGHZXK64U954XZY2JII63","A1PRZC0JL283H7","356TQKY9XFJ5S7O4NGX4839SMNB87N","","812","img/land3.png","74","816","1","1","1","1","0.8,0.2,0.2,0.2,0.8,0.2,0.2,0.2,0.8","0.8,0.2,0.2,0.2,0.8,0.2,0.2,0.2,0.8","1","",""
"","html-keyboard-response","115","96341","0.0-115.0","3TDXMTX3CCGHZXK64U954XZY2JII63","A1PRZC0JL283H7","356TQKY9XFJ5S7O4NGX4839SMNB87N","","null","<img src=""img/land3.png"" style=""width:200px; border:14px solid green;"">","null","","","","","","","","","",""
"","image-keyboard-response","116","97396","0.0-116.0","3TDXMTX3CCGHZXK64U954XZY2JII63","A1PRZC0JL283H7","356TQKY9XFJ5S7O4NGX4839SMNB87N","","1053","img/land4.png","74","1054","1","0","2","1","0.8,0.2,0.2,0.2,0.8,0.2,0.2,0.2,0.8","0.8,0.2,0.2,0.2,0.8,0.2,0.2,0.2,0.8","1","",""
"","html-keyboard-response","117","97702","0.0-117.0","3TDXMTX3CCGHZXK64U954XZY2JII63","A1PRZC0JL283H7","356TQKY9XFJ5S7O4NGX4839SMNB87N","","null","<img src=""img/land4.png"" style=""width:200px;border:14px solid red;"">","null","","","","","","","","","",""
"","image-keyboard-response","118","98541","0.0-118.0","3TDXMTX3CCGHZXK64U954XZY2JII63","A1PRZC0JL283H7","356TQKY9XFJ5S7O4NGX4839SMNB87N","","834","img/land3.png","76","838","3","0","1","1","0.8,0.2,0.2,0.2,0.8,0.2,0.2,0.2,0.8","0.8,0.2,0.2,0.2,0.8,0.2,0.2,0.2,0.8","1","",""
"","html-keyboard-response","119","98842","0.0-119.0","3TDXMTX3CCGHZXK64U954XZY2JII63","A1PRZC0JL283H7","356TQKY9XFJ5S7O4NGX4839SMNB87N","","null","<img src=""img/land3.png"" style=""width:200px;border:14px solid red;"">","null","","","","","","","","","",""
"","image-keyboard-response","120","99798","0.0-120.0","3TDXMTX3CCGHZXK64U954XZY2JII63","A1PRZC0JL283H7","356TQKY9XFJ5S7O4NGX4839SMNB87N","","952","img/land4.png","76","955","3","0","2","1","0.8,0.2,0.2,0.2,0.8,0.2,0.2,0.2,0.8","0.8,0.2,0.2,0.2,0.8,0.2,0.2,0.2,0.8","1","",""
"","html-keyboard-response","121","100104","0.0-121.0","3TDXMTX3CCGHZXK64U954XZY2JII63","A1PRZC0JL283H7","356TQKY9XFJ5S7O4NGX4839SMNB87N","","null","<img src=""img/land4.png"" style=""width:200px;border:14px solid red;"">","null","","","","","","","","","",""
"","image-keyboard-response","122","100974","0.0-122.0","3TDXMTX3CCGHZXK64U954XZY2JII63","A1PRZC0JL283H7","356TQKY9XFJ5S7O4NGX4839SMNB87N","","866","img/land4.png","75","869","2","1","2","1","0.8,0.2,0.2,0.2,0.8,0.2,0.2,0.2,0.8","0.8,0.2,0.2,0.2,0.8,0.2,0.2,0.2,0.8","1","",""
"","html-keyboard-response","123","101278","0.0-123.0","3TDXMTX3CCGHZXK64U954XZY2JII63","A1PRZC0JL283H7","356TQKY9XFJ5S7O4NGX4839SMNB87N","","null","<img src=""img/land4.png"" style=""width:200px; border:14px solid green;"">","null","","","","","","","","","",""
"","image-keyboard-response","124","102378","0.0-124.0","3TDXMTX3CCGHZXK64U954XZY2JII63","A1PRZC0JL283H7","356TQKY9XFJ5S7O4NGX4839SMNB87N","","1097","img/land2.png","75","1099","2","0","3","1","0.8,0.2,0.2,0.2,0.8,0.2,0.2,0.2,0.8","0.8,0.2,0.2,0.2,0.8,0.2,0.2,0.2,0.8","1","",""
"","html-keyboard-response","125","102681","0.0-125.0","3TDXMTX3CCGHZXK64U954XZY2JII63","A1PRZC0JL283H7","356TQKY9XFJ5S7O4NGX4839SMNB87N","","null","<img src=""img/land2.png"" style=""width:200px;border:14px solid red;"">","null","","","","","","","","","",""
"","image-keyboard-response","126","103744","0.0-126.0","3TDXMTX3CCGHZXK64U954XZY2JII63","A1PRZC0JL283H7","356TQKY9XFJ5S7O4NGX4839SMNB87N","","1061","img/land3.png","74","1063","1","0","1","1","0.8,0.2,0.2,0.2,0.8,0.2,0.2,0.2,0.8","0.8,0.2,0.2,0.2,0.8,0.2,0.2,0.2,0.8","1","",""
"","html-keyboard-response","127","104047","0.0-127.0","3TDXMTX3CCGHZXK64U954XZY2JII63","A1PRZC0JL283H7","356TQKY9XFJ5S7O4NGX4839SMNB87N","","null","<img src=""img/land3.png"" style=""width:200px;border:14px solid red;"">","null","","","","","","","","","",""
"","image-keyboard-response","128","104839","0.0-128.0","3TDXMTX3CCGHZXK64U954XZY2JII63","A1PRZC0JL283H7","356TQKY9XFJ5S7O4NGX4839SMNB87N","","788","img/land3.png","76","791","3","0","1","1","0.8,0.2,0.2,0.2,0.8,0.2,0.2,0.2,0.8","0.8,0.2,0.2,0.2,0.8,0.2,0.2,0.2,0.8","1","",""
"","html-keyboard-response","129","105227","0.0-129.0","3TDXMTX3CCGHZXK64U954XZY2JII63","A1PRZC0JL283H7","356TQKY9XFJ5S7O4NGX4839SMNB87N","","null","<img src=""img/land3.png"" style=""width:200px;border:14px solid red;"">","null","","","","","","","","","",""
"","image-keyboard-response","130","106062","0.0-130.0","3TDXMTX3CCGHZXK64U954XZY2JII63","A1PRZC0JL283H7","356TQKY9XFJ5S7O4NGX4839SMNB87N","","830","img/land2.png","76","835","3","0","3","1","0.8,0.2,0.2,0.2,0.8,0.2,0.2,0.2,0.8","0.8,0.2,0.2,0.2,0.8,0.2,0.2,0.2,0.8","1","",""
"","html-keyboard-response","131","106364","0.0-131.0","3TDXMTX3CCGHZXK64U954XZY2JII63","A1PRZC0JL283H7","356TQKY9XFJ5S7O4NGX4839SMNB87N","","null","<img src=""img/land2.png"" style=""width:200px;border:14px solid red;"">","null","","","","","","","","","",""
"","image-keyboard-response","132","107224","0.0-132.0","3TDXMTX3CCGHZXK64U954XZY2JII63","A1PRZC0JL283H7","356TQKY9XFJ5S7O4NGX4839SMNB87N","","857","img/land4.png","75","859","2","0","2","1","0.8,0.2,0.2,0.2,0.8,0.2,0.2,0.2,0.8","0.8,0.2,0.2,0.2,0.8,0.2,0.2,0.2,0.8","1","",""
"","html-keyboard-response","133","107525","0.0-133.0","3TDXMTX3CCGHZXK64U954XZY2JII63","A1PRZC0JL283H7","356TQKY9XFJ5S7O4NGX4839SMNB87N","","null","<img src=""img/land4.png"" style=""width:200px;border:14px solid red;"">","null","","","","","","","","","",""
"","image-keyboard-response","134","108320","0.0-134.0","3TDXMTX3CCGHZXK64U954XZY2JII63","A1PRZC0JL283H7","356TQKY9XFJ5S7O4NGX4839SMNB87N","","793","img/land4.png","74","795","1","0","2","1","0.8,0.2,0.2,0.2,0.8,0.2,0.2,0.2,0.8","0.8,0.2,0.2,0.2,0.8,0.2,0.2,0.2,0.8","1","",""
"","html-keyboard-response","135","108623","0.0-135.0","3TDXMTX3CCGHZXK64U954XZY2JII63","A1PRZC0JL283H7","356TQKY9XFJ5S7O4NGX4839SMNB87N","","null","<img src=""img/land4.png"" style=""width:200px;border:14px solid red;"">","null","","","","","","","","","",""
"","image-keyboard-response","136","109472","0.0-136.0","3TDXMTX3CCGHZXK64U954XZY2JII63","A1PRZC0JL283H7","356TQKY9XFJ5S7O4NGX4839SMNB87N","","848","img/land4.png","76","848","3","1","2","1","0.8,0.2,0.2,0.2,0.8,0.2,0.2,0.2,0.8","0.8,0.2,0.2,0.2,0.8,0.2,0.2,0.2,0.8","1","",""
"","html-keyboard-response","137","109778","0.0-137.0","3TDXMTX3CCGHZXK64U954XZY2JII63","A1PRZC0JL283H7","356TQKY9XFJ5S7O4NGX4839SMNB87N","","null","<img src=""img/land4.png"" style=""width:200px; border:14px solid green;"">","null","","","","","","","","","",""
"","image-keyboard-response","138","111527","0.0-138.0","3TDXMTX3CCGHZXK64U954XZY2JII63","A1PRZC0JL283H7","356TQKY9XFJ5S7O4NGX4839SMNB87N","","1745","img/land2.png","75","1748","2","0","3","1","0.8,0.2,0.2,0.2,0.8,0.2,0.2,0.2,0.8","0.8,0.2,0.2,0.2,0.8,0.2,0.2,0.2,0.8","1","",""
"","html-keyboard-response","139","111829","0.0-139.0","3TDXMTX3CCGHZXK64U954XZY2JII63","A1PRZC0JL283H7","356TQKY9XFJ5S7O4NGX4839SMNB87N","","null","<img src=""img/land2.png"" style=""width:200px;border:14px solid red;"">","null","","","","","","","","","",""
"","image-keyboard-response","140","112620","0.0-140.0","3TDXMTX3CCGHZXK64U954XZY2JII63","A1PRZC0JL283H7","356TQKY9XFJ5S7O4NGX4839SMNB87N","","789","img/land2.png","76","790","3","0","3","1","0.8,0.2,0.2,0.2,0.8,0.2,0.2,0.2,0.8","0.8,0.2,0.2,0.2,0.8,0.2,0.2,0.2,0.8","1","",""
"","html-keyboard-response","141","112923","0.0-141.0","3TDXMTX3CCGHZXK64U954XZY2JII63","A1PRZC0JL283H7","356TQKY9XFJ5S7O4NGX4839SMNB87N","","null","<img src=""img/land2.png"" style=""width:200px;border:14px solid red;"">","null","","","","","","","","","",""
"","image-keyboard-response","142","113702","0.0-142.0","3TDXMTX3CCGHZXK64U954XZY2JII63","A1PRZC0JL283H7","356TQKY9XFJ5S7O4NGX4839SMNB87N","","775","img/land3.png","74","778","1","0","1","1","0.8,0.2,0.2,0.2,0.8,0.2,0.2,0.2,0.8","0.8,0.2,0.2,0.2,0.8,0.2,0.2,0.2,0.8","1","",""
"","html-keyboard-response","143","114006","0.0-143.0","3TDXMTX3CCGHZXK64U954XZY2JII63","A1PRZC0JL283H7","356TQKY9XFJ5S7O4NGX4839SMNB87N","","null","<img src=""img/land3.png"" style=""width:200px;border:14px solid red;"">","null","","","","","","","","","",""
"","image-keyboard-response","144","114861","0.0-144.0","3TDXMTX3CCGHZXK64U954XZY2JII63","A1PRZC0JL283H7","356TQKY9XFJ5S7O4NGX4839SMNB87N","","851","img/land3.png","74","854","1","1","1","1","0.8,0.2,0.2,0.2,0.8,0.2,0.2,0.2,0.8","0.8,0.2,0.2,0.2,0.8,0.2,0.2,0.2,0.8","1","",""
"","html-keyboard-response","145","115164","0.0-145.0","3TDXMTX3CCGHZXK64U954XZY2JII63","A1PRZC0JL283H7","356TQKY9XFJ5S7O4NGX4839SMNB87N","","null","<img src=""img/land3.png"" style=""width:200px; border:14px solid green;"">","null","","","","","","","","","",""
"","image-keyboard-response","146","116261","0.0-146.0","3TDXMTX3CCGHZXK64U954XZY2JII63","A1PRZC0JL283H7","356TQKY9XFJ5S7O4NGX4839SMNB87N","","1094","img/land2.png","75","1097","2","0","3","1","0.8,0.2,0.2,0.2,0.8,0.2,0.2,0.2,0.8","0.8,0.2,0.2,0.2,0.8,0.2,0.2,0.2,0.8","1","",""
"","html-keyboard-response","147","116561","0.0-147.0","3TDXMTX3CCGHZXK64U954XZY2JII63","A1PRZC0JL283H7","356TQKY9XFJ5S7O4NGX4839SMNB87N","","null","<img src=""img/land2.png"" style=""width:200px;border:14px solid red;"">","null","","","","","","","","","",""
"","image-keyboard-response","148","117249","0.0-148.0","3TDXMTX3CCGHZXK64U954XZY2JII63","A1PRZC0JL283H7","356TQKY9XFJ5S7O4NGX4839SMNB87N","","687","img/land2.png","75","687","2","0","3","1","0.8,0.2,0.2,0.2,0.8,0.2,0.2,0.2,0.8","0.8,0.2,0.2,0.2,0.8,0.2,0.2,0.2,0.8","1","",""
"","html-keyboard-response","149","117561","0.0-149.0","3TDXMTX3CCGHZXK64U954XZY2JII63","A1PRZC0JL283H7","356TQKY9XFJ5S7O4NGX4839SMNB87N","","null","<img src=""img/land2.png"" style=""width:200px;border:14px solid red;"">","null","","","","","","","","","",""
"","image-keyboard-response","150","118539","0.0-150.0","3TDXMTX3CCGHZXK64U954XZY2JII63","A1PRZC0JL283H7","356TQKY9XFJ5S7O4NGX4839SMNB87N","","962","img/land2.png","76","978","3","1","3","1","0.8,0.2,0.2,0.2,0.8,0.2,0.2,0.2,0.8","0.8,0.2,0.2,0.2,0.8,0.2,0.2,0.2,0.8","1","",""
"","html-keyboard-response","151","118841","0.0-151.0","3TDXMTX3CCGHZXK64U954XZY2JII63","A1PRZC0JL283H7","356TQKY9XFJ5S7O4NGX4839SMNB87N","","null","<img src=""img/land2.png"" style=""width:200px; border:14px solid green;"">","null","","","","","","","","","",""
"","image-keyboard-response","152","120100","0.0-152.0","3TDXMTX3CCGHZXK64U954XZY2JII63","A1PRZC0JL283H7","356TQKY9XFJ5S7O4NGX4839SMNB87N","","1258","img/land3.png","74","1259","1","1","1","1","0.8,0.2,0.2,0.2,0.8,0.2,0.2,0.2,0.8","0.8,0.2,0.2,0.2,0.8,0.2,0.2,0.2,0.8","1","",""
"","html-keyboard-response","153","120402","0.0-153.0","3TDXMTX3CCGHZXK64U954XZY2JII63","A1PRZC0JL283H7","356TQKY9XFJ5S7O4NGX4839SMNB87N","","null","<img src=""img/land3.png"" style=""width:200px; border:14px solid green;"">","null","","","","","","","","","",""
"","image-keyboard-response","154","121492","0.0-154.0","3TDXMTX3CCGHZXK64U954XZY2JII63","A1PRZC0JL283H7","356TQKY9XFJ5S7O4NGX4839SMNB87N","","1086","img/land4.png","76","1089","3","0","2","1","0.8,0.2,0.2,0.2,0.8,0.2,0.2,0.2,0.8","0.8,0.2,0.2,0.2,0.8,0.2,0.2,0.2,0.8","1","",""
"","html-keyboard-response","155","121793","0.0-155.0","3TDXMTX3CCGHZXK64U954XZY2JII63","A1PRZC0JL283H7","356TQKY9XFJ5S7O4NGX4839SMNB87N","","null","<img src=""img/land4.png"" style=""width:200px;border:14px solid red;"">","null","","","","","","","","","",""
"","image-keyboard-response","156","122541","0.0-156.0","3TDXMTX3CCGHZXK64U954XZY2JII63","A1PRZC0JL283H7","356TQKY9XFJ5S7O4NGX4839SMNB87N","","747","img/land2.png","75","749","2","0","3","1","0.8,0.2,0.2,0.2,0.8,0.2,0.2,0.2,0.8","0.8,0.2,0.2,0.2,0.8,0.2,0.2,0.2,0.8","1","",""
"","html-keyboard-response","157","122844","0.0-157.0","3TDXMTX3CCGHZXK64U954XZY2JII63","A1PRZC0JL283H7","356TQKY9XFJ5S7O4NGX4839SMNB87N","","null","<img src=""img/land2.png"" style=""width:200px;border:14px solid red;"">","null","","","","","","","","","",""
"","image-keyboard-response","158","123607","0.0-158.0","3TDXMTX3CCGHZXK64U954XZY2JII63","A1PRZC0JL283H7","356TQKY9XFJ5S7O4NGX4839SMNB87N","","761","img/land3.png","76","763","3","0","1","1","0.8,0.2,0.2,0.2,0.8,0.2,0.2,0.2,0.8","0.8,0.2,0.2,0.2,0.8,0.2,0.2,0.2,0.8","1","",""
"","html-keyboard-response","159","123911","0.0-159.0","3TDXMTX3CCGHZXK64U954XZY2JII63","A1PRZC0JL283H7","356TQKY9XFJ5S7O4NGX4839SMNB87N","","null","<img src=""img/land3.png"" style=""width:200px;border:14px solid red;"">","null","","","","","","","","","",""
"","image-keyboard-response","160","124859","0.0-160.0","3TDXMTX3CCGHZXK64U954XZY2JII63","A1PRZC0JL283H7","356TQKY9XFJ5S7O4NGX4839SMNB87N","","945","img/land2.png","76","949","3","1","3","1","0.8,0.2,0.2,0.2,0.8,0.2,0.2,0.2,0.8","0.8,0.2,0.2,0.2,0.8,0.2,0.2,0.2,0.8","1","",""
"","html-keyboard-response","161","125163","0.0-161.0","3TDXMTX3CCGHZXK64U954XZY2JII63","A1PRZC0JL283H7","356TQKY9XFJ5S7O4NGX4839SMNB87N","","null","<img src=""img/land2.png"" style=""width:200px; border:14px solid green;"">","null","","","","","","","","","",""
"","image-keyboard-response","162","126110","0.0-162.0","3TDXMTX3CCGHZXK64U954XZY2JII63","A1PRZC0JL283H7","356TQKY9XFJ5S7O4NGX4839SMNB87N","","941","img/land2.png","76","946","3","1","3","1","0.8,0.2,0.2,0.2,0.8,0.2,0.2,0.2,0.8","0.8,0.2,0.2,0.2,0.8,0.2,0.2,0.2,0.8","1","",""
"","html-keyboard-response","163","126414","0.0-163.0","3TDXMTX3CCGHZXK64U954XZY2JII63","A1PRZC0JL283H7","356TQKY9XFJ5S7O4NGX4839SMNB87N","","null","<img src=""img/land2.png"" style=""width:200px; border:14px solid green;"">","null","","","","","","","","","",""
"","image-keyboard-response","164","127708","0.0-164.0","3TDXMTX3CCGHZXK64U954XZY2JII63","A1PRZC0JL283H7","356TQKY9XFJ5S7O4NGX4839SMNB87N","","1291","img/land4.png","74","1294","1","0","2","1","0.8,0.2,0.2,0.2,0.8,0.2,0.2,0.2,0.8","0.8,0.2,0.2,0.2,0.8,0.2,0.2,0.2,0.8","1","",""
"","html-keyboard-response","165","128011","0.0-165.0","3TDXMTX3CCGHZXK64U954XZY2JII63","A1PRZC0JL283H7","356TQKY9XFJ5S7O4NGX4839SMNB87N","","null","<img src=""img/land4.png"" style=""width:200px;border:14px solid red;"">","null","","","","","","","","","",""
"","image-keyboard-response","166","128840","0.0-166.0","3TDXMTX3CCGHZXK64U954XZY2JII63","A1PRZC0JL283H7","356TQKY9XFJ5S7O4NGX4839SMNB87N","","814","img/land4.png","75","816","2","1","2","1","0.8,0.2,0.2,0.2,0.8,0.2,0.2,0.2,0.8","0.8,0.2,0.2,0.2,0.8,0.2,0.2,0.2,0.8","1","",""
"","html-keyboard-response","167","129147","0.0-167.0","3TDXMTX3CCGHZXK64U954XZY2JII63","A1PRZC0JL283H7","356TQKY9XFJ5S7O4NGX4839SMNB87N","","null","<img src=""img/land4.png"" style=""width:200px; border:14px solid green;"">","null","","","","","","","","","",""
"","image-keyboard-response","168","130120","0.0-168.0","3TDXMTX3CCGHZXK64U954XZY2JII63","A1PRZC0JL283H7","356TQKY9XFJ5S7O4NGX4839SMNB87N","","971","img/land2.png","76","973","3","1","3","1","0.8,0.2,0.2,0.2,0.8,0.2,0.2,0.2,0.8","0.8,0.2,0.2,0.2,0.8,0.2,0.2,0.2,0.8","1","",""
"","html-keyboard-response","169","130421","0.0-169.0","3TDXMTX3CCGHZXK64U954XZY2JII63","A1PRZC0JL283H7","356TQKY9XFJ5S7O4NGX4839SMNB87N","","null","<img src=""img/land2.png"" style=""width:200px; border:14px solid green;"">","null","","","","","","","","","",""
"","image-keyboard-response","170","131722","0.0-170.0","3TDXMTX3CCGHZXK64U954XZY2JII63","A1PRZC0JL283H7","356TQKY9XFJ5S7O4NGX4839SMNB87N","","1298","img/land3.png","74","1300","1","1","1","1","0.8,0.2,0.2,0.2,0.8,0.2,0.2,0.2,0.8","0.8,0.2,0.2,0.2,0.8,0.2,0.2,0.2,0.8","1","",""
"","html-keyboard-response","171","132026","0.0-171.0","3TDXMTX3CCGHZXK64U954XZY2JII63","A1PRZC0JL283H7","356TQKY9XFJ5S7O4NGX4839SMNB87N","","null","<img src=""img/land3.png"" style=""width:200px; border:14px solid green;"">","null","","","","","","","","","",""
"","image-keyboard-response","172","132981","0.0-172.0","3TDXMTX3CCGHZXK64U954XZY2JII63","A1PRZC0JL283H7","356TQKY9XFJ5S7O4NGX4839SMNB87N","","952","img/land3.png","76","954","3","0","1","1","0.8,0.2,0.2,0.2,0.8,0.2,0.2,0.2,0.8","0.8,0.2,0.2,0.2,0.8,0.2,0.2,0.2,0.8","1","",""
"","html-keyboard-response","173","133360","0.0-173.0","3TDXMTX3CCGHZXK64U954XZY2JII63","A1PRZC0JL283H7","356TQKY9XFJ5S7O4NGX4839SMNB87N","","null","<img src=""img/land3.png"" style=""width:200px;border:14px solid red;"">","null","","","","","","","","","",""
"","image-keyboard-response","174","134138","0.0-174.0","3TDXMTX3CCGHZXK64U954XZY2JII63","A1PRZC0JL283H7","356TQKY9XFJ5S7O4NGX4839SMNB87N","","777","img/land2.png","74","778","1","0","3","1","0.8,0.2,0.2,0.2,0.8,0.2,0.2,0.2,0.8","0.8,0.2,0.2,0.2,0.8,0.2,0.2,0.2,0.8","1","",""
"","html-keyboard-response","175","134441","0.0-175.0","3TDXMTX3CCGHZXK64U954XZY2JII63","A1PRZC0JL283H7","356TQKY9XFJ5S7O4NGX4839SMNB87N","","null","<img src=""img/land2.png"" style=""width:200px;border:14px solid red;"">","null","","","","","","","","","",""
"","image-keyboard-response","176","135106","0.0-176.0","3TDXMTX3CCGHZXK64U954XZY2JII63","A1PRZC0JL283H7","356TQKY9XFJ5S7O4NGX4839SMNB87N","","663","img/land4.png","75","664","2","1","2","1","0.8,0.2,0.2,0.2,0.8,0.2,0.2,0.2,0.8","0.8,0.2,0.2,0.2,0.8,0.2,0.2,0.2,0.8","1","",""
"","html-keyboard-response","177","135409","0.0-177.0","3TDXMTX3CCGHZXK64U954XZY2JII63","A1PRZC0JL283H7","356TQKY9XFJ5S7O4NGX4839SMNB87N","","null","<img src=""img/land4.png"" style=""width:200px; border:14px solid green;"">","null","","","","","","","","","",""
"","image-keyboard-response","178","136699","0.0-178.0","3TDXMTX3CCGHZXK64U954XZY2JII63","A1PRZC0JL283H7","356TQKY9XFJ5S7O4NGX4839SMNB87N","","1288","img/land2.png","76","1290","3","1","3","1","0.8,0.2,0.2,0.2,0.8,0.2,0.2,0.2,0.8","0.8,0.2,0.2,0.2,0.8,0.2,0.2,0.2,0.8","1","",""
"","html-keyboard-response","179","137003","0.0-179.0","3TDXMTX3CCGHZXK64U954XZY2JII63","A1PRZC0JL283H7","356TQKY9XFJ5S7O4NGX4839SMNB87N","","null","<img src=""img/land2.png"" style=""width:200px; border:14px solid green;"">","null","","","","","","","","","",""
"","image-keyboard-response","180","137982","0.0-180.0","3TDXMTX3CCGHZXK64U954XZY2JII63","A1PRZC0JL283H7","356TQKY9XFJ5S7O4NGX4839SMNB87N","","977","img/land2.png","76","979","3","0","3","1","0.8,0.2,0.2,0.2,0.8,0.2,0.2,0.2,0.8","0.8,0.2,0.2,0.2,0.8,0.2,0.2,0.2,0.8","1","",""
"","html-keyboard-response","181","138284","0.0-181.0","3TDXMTX3CCGHZXK64U954XZY2JII63","A1PRZC0JL283H7","356TQKY9XFJ5S7O4NGX4839SMNB87N","","null","<img src=""img/land2.png"" style=""width:200px;border:14px solid red;"">","null","","","","","","","","","",""
"","html-keyboard-response","182","142422","0.0-182.0","3TDXMTX3CCGHZXK64U954XZY2JII63","A1PRZC0JL283H7","356TQKY9XFJ5S7O4NGX4839SMNB87N","","","","","","","","","","","","","",""
"","image-keyboard-response","183","143936","0.0-183.0","3TDXMTX3CCGHZXK64U954XZY2JII63","A1PRZC0JL283H7","356TQKY9XFJ5S7O4NGX4839SMNB87N","","1505","img/land6.png","76","1513","3","0","3","2","0.8,0.2,0.2,0.2,0.8,0.2,0.2,0.2,0.8","0.2,0.2,0.8,0.8,0.2,0.2,0.2,0.8,0.2","2","",""
"","html-keyboard-response","184","144243","0.0-184.0","3TDXMTX3CCGHZXK64U954XZY2JII63","A1PRZC0JL283H7","356TQKY9XFJ5S7O4NGX4839SMNB87N","","null","<img src=""img/land6.png"" style=""width:200px;border:14px solid red;"">","null","","","","","","","","","",""
"","image-keyboard-response","185","145146","0.0-185.0","3TDXMTX3CCGHZXK64U954XZY2JII63","A1PRZC0JL283H7","356TQKY9XFJ5S7O4NGX4839SMNB87N","","897","img/land1.png","75","902","2","1","1","2","0.8,0.2,0.2,0.2,0.8,0.2,0.2,0.2,0.8","0.2,0.2,0.8,0.8,0.2,0.2,0.2,0.8,0.2","2","",""
"","html-keyboard-response","186","145448","0.0-186.0","3TDXMTX3CCGHZXK64U954XZY2JII63","A1PRZC0JL283H7","356TQKY9XFJ5S7O4NGX4839SMNB87N","","null","<img src=""img/land1.png"" style=""width:200px; border:14px solid green;"">","null","","","","","","","","","",""
"","image-keyboard-response","187","146220","0.0-187.0","3TDXMTX3CCGHZXK64U954XZY2JII63","A1PRZC0JL283H7","356TQKY9XFJ5S7O4NGX4839SMNB87N","","768","img/land1.png","75","771","2","0","1","2","0.8,0.2,0.2,0.2,0.8,0.2,0.2,0.2,0.8","0.2,0.2,0.8,0.8,0.2,0.2,0.2,0.8,0.2","2","",""
"","html-keyboard-response","188","146522","0.0-188.0","3TDXMTX3CCGHZXK64U954XZY2JII63","A1PRZC0JL283H7","356TQKY9XFJ5S7O4NGX4839SMNB87N","","null","<img src=""img/land1.png"" style=""width:200px;border:14px solid red;"">","null","","","","","","","","","",""
"","image-keyboard-response","189","147268","0.0-189.0","3TDXMTX3CCGHZXK64U954XZY2JII63","A1PRZC0JL283H7","356TQKY9XFJ5S7O4NGX4839SMNB87N","","742","img/land1.png","74","746","1","0","1","2","0.8,0.2,0.2,0.2,0.8,0.2,0.2,0.2,0.8","0.2,0.2,0.8,0.8,0.2,0.2,0.2,0.8,0.2","2","",""
"","html-keyboard-response","190","147570","0.0-190.0","3TDXMTX3CCGHZXK64U954XZY2JII63","A1PRZC0JL283H7","356TQKY9XFJ5S7O4NGX4839SMNB87N","","null","<img src=""img/land1.png"" style=""width:200px;border:14px solid red;"">","null","","","","","","","","","",""
"","image-keyboard-response","191","148380","0.0-191.0","3TDXMTX3CCGHZXK64U954XZY2JII63","A1PRZC0JL283H7","356TQKY9XFJ5S7O4NGX4839SMNB87N","","808","img/land1.png","76","810","3","1","1","2","0.8,0.2,0.2,0.2,0.8,0.2,0.2,0.2,0.8","0.2,0.2,0.8,0.8,0.2,0.2,0.2,0.8,0.2","2","",""
"","html-keyboard-response","192","148682","0.0-192.0","3TDXMTX3CCGHZXK64U954XZY2JII63","A1PRZC0JL283H7","356TQKY9XFJ5S7O4NGX4839SMNB87N","","null","<img src=""img/land1.png"" style=""width:200px; border:14px solid green;"">","null","","","","","","","","","",""
"","image-keyboard-response","193","150199","0.0-193.0","3TDXMTX3CCGHZXK64U954XZY2JII63","A1PRZC0JL283H7","356TQKY9XFJ5S7O4NGX4839SMNB87N","","1516","img/land5.png","75","1518","2","0","2","2","0.8,0.2,0.2,0.2,0.8,0.2,0.2,0.2,0.8","0.2,0.2,0.8,0.8,0.2,0.2,0.2,0.8,0.2","2","",""
"","html-keyboard-response","194","150503","0.0-194.0","3TDXMTX3CCGHZXK64U954XZY2JII63","A1PRZC0JL283H7","356TQKY9XFJ5S7O4NGX4839SMNB87N","","null","<img src=""img/land5.png"" style=""width:200px;border:14px solid red;"">","null","","","","","","","","","",""
"","image-keyboard-response","195","151478","0.0-195.0","3TDXMTX3CCGHZXK64U954XZY2JII63","A1PRZC0JL283H7","356TQKY9XFJ5S7O4NGX4839SMNB87N","","973","img/land1.png","74","974","1","0","1","2","0.8,0.2,0.2,0.2,0.8,0.2,0.2,0.2,0.8","0.2,0.2,0.8,0.8,0.2,0.2,0.2,0.8,0.2","2","",""
"","html-keyboard-response","196","151781","0.0-196.0","3TDXMTX3CCGHZXK64U954XZY2JII63","A1PRZC0JL283H7","356TQKY9XFJ5S7O4NGX4839SMNB87N","","null","<img src=""img/land1.png"" style=""width:200px;border:14px solid red;"">","null","","","","","","","","","",""
"","image-keyboard-response","197","152521","0.0-197.0","3TDXMTX3CCGHZXK64U954XZY2JII63","A1PRZC0JL283H7","356TQKY9XFJ5S7O4NGX4839SMNB87N","","736","img/land1.png","76","740","3","0","1","2","0.8,0.2,0.2,0.2,0.8,0.2,0.2,0.2,0.8","0.2,0.2,0.8,0.8,0.2,0.2,0.2,0.8,0.2","2","",""
"","html-keyboard-response","198","152826","0.0-198.0","3TDXMTX3CCGHZXK64U954XZY2JII63","A1PRZC0JL283H7","356TQKY9XFJ5S7O4NGX4839SMNB87N","","null","<img src=""img/land1.png"" style=""width:200px;border:14px solid red;"">","null","","","","","","","","","",""
"","image-keyboard-response","199","153762","0.0-199.0","3TDXMTX3CCGHZXK64U954XZY2JII63","A1PRZC0JL283H7","356TQKY9XFJ5S7O4NGX4839SMNB87N","","935","img/land1.png","75","936","2","0","1","2","0.8,0.2,0.2,0.2,0.8,0.2,0.2,0.2,0.8","0.2,0.2,0.8,0.8,0.2,0.2,0.2,0.8,0.2","2","",""
"","html-keyboard-response","200","154064","0.0-200.0","3TDXMTX3CCGHZXK64U954XZY2JII63","A1PRZC0JL283H7","356TQKY9XFJ5S7O4NGX4839SMNB87N","","null","<img src=""img/land1.png"" style=""width:200px;border:14px solid red;"">","null","","","","","","","","","",""
"","image-keyboard-response","201","155398","0.0-201.0","3TDXMTX3CCGHZXK64U954XZY2JII63","A1PRZC0JL283H7","356TQKY9XFJ5S7O4NGX4839SMNB87N","","1333","img/land6.png","76","1334","3","0","3","2","0.8,0.2,0.2,0.2,0.8,0.2,0.2,0.2,0.8","0.2,0.2,0.8,0.8,0.2,0.2,0.2,0.8,0.2","2","",""
"","html-keyboard-response","202","155708","0.0-202.0","3TDXMTX3CCGHZXK64U954XZY2JII63","A1PRZC0JL283H7","356TQKY9XFJ5S7O4NGX4839SMNB87N","","null","<img src=""img/land6.png"" style=""width:200px;border:14px solid red;"">","null","","","","","","","","","",""
"","image-keyboard-response","203","156498","0.0-203.0","3TDXMTX3CCGHZXK64U954XZY2JII63","A1PRZC0JL283H7","356TQKY9XFJ5S7O4NGX4839SMNB87N","","788","img/land1.png","75","790","2","0","1","2","0.8,0.2,0.2,0.2,0.8,0.2,0.2,0.2,0.8","0.2,0.2,0.8,0.8,0.2,0.2,0.2,0.8,0.2","2","",""
"","html-keyboard-response","204","156800","0.0-204.0","3TDXMTX3CCGHZXK64U954XZY2JII63","A1PRZC0JL283H7","356TQKY9XFJ5S7O4NGX4839SMNB87N","","null","<img src=""img/land1.png"" style=""width:200px;border:14px solid red;"">","null","","","","","","","","","",""
"","image-keyboard-response","205","158248","0.0-205.0","3TDXMTX3CCGHZXK64U954XZY2JII63","A1PRZC0JL283H7","356TQKY9XFJ5S7O4NGX4839SMNB87N","","1447","img/land5.png","74","1448","1","1","2","2","0.8,0.2,0.2,0.2,0.8,0.2,0.2,0.2,0.8","0.2,0.2,0.8,0.8,0.2,0.2,0.2,0.8,0.2","2","",""
"","html-keyboard-response","206","158550","0.0-206.0","3TDXMTX3CCGHZXK64U954XZY2JII63","A1PRZC0JL283H7","356TQKY9XFJ5S7O4NGX4839SMNB87N","","null","<img src=""img/land5.png"" style=""width:200px; border:14px solid green;"">","null","","","","","","","","","",""
"","image-keyboard-response","207","159612","0.0-207.0","3TDXMTX3CCGHZXK64U954XZY2JII63","A1PRZC0JL283H7","356TQKY9XFJ5S7O4NGX4839SMNB87N","","1059","img/land1.png","74","1061","1","0","1","2","0.8,0.2,0.2,0.2,0.8,0.2,0.2,0.2,0.8","0.2,0.2,0.8,0.8,0.2,0.2,0.2,0.8,0.2","2","",""
"","html-keyboard-response","208","159916","0.0-208.0","3TDXMTX3CCGHZXK64U954XZY2JII63","A1PRZC0JL283H7","356TQKY9XFJ5S7O4NGX4839SMNB87N","","null","<img src=""img/land1.png"" style=""width:200px;border:14px solid red;"">","null","","","","","","","","","",""
"","image-keyboard-response","209","160637","0.0-209.0","3TDXMTX3CCGHZXK64U954XZY2JII63","A1PRZC0JL283H7","356TQKY9XFJ5S7O4NGX4839SMNB87N","","719","img/land1.png","75","721","2","1","1","2","0.8,0.2,0.2,0.2,0.8,0.2,0.2,0.2,0.8","0.2,0.2,0.8,0.8,0.2,0.2,0.2,0.8,0.2","2","",""
"","html-keyboard-response","210","160940","0.0-210.0","3TDXMTX3CCGHZXK64U954XZY2JII63","A1PRZC0JL283H7","356TQKY9XFJ5S7O4NGX4839SMNB87N","","null","<img src=""img/land1.png"" style=""width:200px; border:14px solid green;"">","null","","","","","","","","","",""
"","image-keyboard-response","211","161729","0.0-211.0","3TDXMTX3CCGHZXK64U954XZY2JII63","A1PRZC0JL283H7","356TQKY9XFJ5S7O4NGX4839SMNB87N","","786","img/land1.png","75","788","2","0","1","2","0.8,0.2,0.2,0.2,0.8,0.2,0.2,0.2,0.8","0.2,0.2,0.8,0.8,0.2,0.2,0.2,0.8,0.2","2","",""
"","html-keyboard-response","212","162032","0.0-212.0","3TDXMTX3CCGHZXK64U954XZY2JII63","A1PRZC0JL283H7","356TQKY9XFJ5S7O4NGX4839SMNB87N","","null","<img src=""img/land1.png"" style=""width:200px;border:14px solid red;"">","null","","","","","","","","","",""
"","image-keyboard-response","213","162701","0.0-213.0","3TDXMTX3CCGHZXK64U954XZY2JII63","A1PRZC0JL283H7","356TQKY9XFJ5S7O4NGX4839SMNB87N","","665","img/land5.png","76","668","3","0","2","2","0.8,0.2,0.2,0.2,0.8,0.2,0.2,0.2,0.8","0.2,0.2,0.8,0.8,0.2,0.2,0.2,0.8,0.2","2","",""
"","html-keyboard-response","214","163002","0.0-214.0","3TDXMTX3CCGHZXK64U954XZY2JII63","A1PRZC0JL283H7","356TQKY9XFJ5S7O4NGX4839SMNB87N","","null","<img src=""img/land5.png"" style=""width:200px;border:14px solid red;"">","null","","","","","","","","","",""
"","image-keyboard-response","215","164043","0.0-215.0","3TDXMTX3CCGHZXK64U954XZY2JII63","A1PRZC0JL283H7","356TQKY9XFJ5S7O4NGX4839SMNB87N","","1037","img/land5.png","74","1040","1","1","2","2","0.8,0.2,0.2,0.2,0.8,0.2,0.2,0.2,0.8","0.2,0.2,0.8,0.8,0.2,0.2,0.2,0.8,0.2","2","",""
"","html-keyboard-response","216","164347","0.0-216.0","3TDXMTX3CCGHZXK64U954XZY2JII63","A1PRZC0JL283H7","356TQKY9XFJ5S7O4NGX4839SMNB87N","","null","<img src=""img/land5.png"" style=""width:200px; border:14px solid green;"">","null","","","","","","","","","",""
"","image-keyboard-response","217","165438","0.0-217.0","3TDXMTX3CCGHZXK64U954XZY2JII63","A1PRZC0JL283H7","356TQKY9XFJ5S7O4NGX4839SMNB87N","","1089","img/land1.png","76","1090","3","1","1","2","0.8,0.2,0.2,0.2,0.8,0.2,0.2,0.2,0.8","0.2,0.2,0.8,0.8,0.2,0.2,0.2,0.8,0.2","2","",""
"","html-keyboard-response","218","165739","0.0-218.0","3TDXMTX3CCGHZXK64U954XZY2JII63","A1PRZC0JL283H7","356TQKY9XFJ5S7O4NGX4839SMNB87N","","null","<img src=""img/land1.png"" style=""width:200px; border:14px solid green;"">","null","","","","","","","","","",""
"","image-keyboard-response","219","166562","0.0-219.0","3TDXMTX3CCGHZXK64U954XZY2JII63","A1PRZC0JL283H7","356TQKY9XFJ5S7O4NGX4839SMNB87N","","816","img/land1.png","76","821","3","1","1","2","0.8,0.2,0.2,0.2,0.8,0.2,0.2,0.2,0.8","0.2,0.2,0.8,0.8,0.2,0.2,0.2,0.8,0.2","2","",""
"","html-keyboard-response","220","166869","0.0-220.0","3TDXMTX3CCGHZXK64U954XZY2JII63","A1PRZC0JL283H7","356TQKY9XFJ5S7O4NGX4839SMNB87N","","null","<img src=""img/land1.png"" style=""width:200px; border:14px solid green;"">","null","","","","","","","","","",""
"","image-keyboard-response","221","167849","0.0-221.0","3TDXMTX3CCGHZXK64U954XZY2JII63","A1PRZC0JL283H7","356TQKY9XFJ5S7O4NGX4839SMNB87N","","710","img/land1.png","76","963","3","1","1","2","0.8,0.2,0.2,0.2,0.8,0.2,0.2,0.2,0.8","0.2,0.2,0.8,0.8,0.2,0.2,0.2,0.8,0.2","2","",""
"","html-keyboard-response","222","168154","0.0-222.0","3TDXMTX3CCGHZXK64U954XZY2JII63","A1PRZC0JL283H7","356TQKY9XFJ5S7O4NGX4839SMNB87N","","null","<img src=""img/land1.png"" style=""width:200px; border:14px solid green;"">","null","","","","","","","","","",""
"","image-keyboard-response","223","169452","0.0-223.0","3TDXMTX3CCGHZXK64U954XZY2JII63","A1PRZC0JL283H7","356TQKY9XFJ5S7O4NGX4839SMNB87N","","1291","img/land5.png","75","1297","2","0","2","2","0.8,0.2,0.2,0.2,0.8,0.2,0.2,0.2,0.8","0.2,0.2,0.8,0.8,0.2,0.2,0.2,0.8,0.2","2","",""
"","html-keyboard-response","224","169767","0.0-224.0","3TDXMTX3CCGHZXK64U954XZY2JII63","A1PRZC0JL283H7","356TQKY9XFJ5S7O4NGX4839SMNB87N","","null","<img src=""img/land5.png"" style=""width:200px;border:14px solid red;"">","null","","","","","","","","","",""
"","image-keyboard-response","225","170443","0.0-225.0","3TDXMTX3CCGHZXK64U954XZY2JII63","A1PRZC0JL283H7","356TQKY9XFJ5S7O4NGX4839SMNB87N","","675","img/land1.png","74","676","1","0","1","2","0.8,0.2,0.2,0.2,0.8,0.2,0.2,0.2,0.8","0.2,0.2,0.8,0.8,0.2,0.2,0.2,0.8,0.2","2","",""
"","html-keyboard-response","226","170750","0.0-226.0","3TDXMTX3CCGHZXK64U954XZY2JII63","A1PRZC0JL283H7","356TQKY9XFJ5S7O4NGX4839SMNB87N","","null","<img src=""img/land1.png"" style=""width:200px;border:14px solid red;"">","null","","","","","","","","","",""
"","image-keyboard-response","227","171501","0.0-227.0","3TDXMTX3CCGHZXK64U954XZY2JII63","A1PRZC0JL283H7","356TQKY9XFJ5S7O4NGX4839SMNB87N","","745","img/land6.png","76","750","3","1","3","2","0.8,0.2,0.2,0.2,0.8,0.2,0.2,0.2,0.8","0.2,0.2,0.8,0.8,0.2,0.2,0.2,0.8,0.2","2","",""
"","html-keyboard-response","228","171807","0.0-228.0","3TDXMTX3CCGHZXK64U954XZY2JII63","A1PRZC0JL283H7","356TQKY9XFJ5S7O4NGX4839SMNB87N","","null","<img src=""img/land6.png"" style=""width:200px; border:14px solid green;"">","null","","","","","","","","","",""
"","image-keyboard-response","229","172650","0.0-229.0","3TDXMTX3CCGHZXK64U954XZY2JII63","A1PRZC0JL283H7","356TQKY9XFJ5S7O4NGX4839SMNB87N","","841","img/land6.png","76","842","3","0","3","2","0.8,0.2,0.2,0.2,0.8,0.2,0.2,0.2,0.8","0.2,0.2,0.8,0.8,0.2,0.2,0.2,0.8,0.2","2","",""
"","html-keyboard-response","230","172954","0.0-230.0","3TDXMTX3CCGHZXK64U954XZY2JII63","A1PRZC0JL283H7","356TQKY9XFJ5S7O4NGX4839SMNB87N","","null","<img src=""img/land6.png"" style=""width:200px;border:14px solid red;"">","null","","","","","","","","","",""
"","image-keyboard-response","231","173721","0.0-231.0","3TDXMTX3CCGHZXK64U954XZY2JII63","A1PRZC0JL283H7","356TQKY9XFJ5S7O4NGX4839SMNB87N","","765","img/land1.png","75","766","2","0","1","2","0.8,0.2,0.2,0.2,0.8,0.2,0.2,0.2,0.8","0.2,0.2,0.8,0.8,0.2,0.2,0.2,0.8,0.2","2","",""
"","html-keyboard-response","232","174026","0.0-232.0","3TDXMTX3CCGHZXK64U954XZY2JII63","A1PRZC0JL283H7","356TQKY9XFJ5S7O4NGX4839SMNB87N","","null","<img src=""img/land1.png"" style=""width:200px;border:14px solid red;"">","null","","","","","","","","","",""
"","image-keyboard-response","233","174739","0.0-233.0","3TDXMTX3CCGHZXK64U954XZY2JII63","A1PRZC0JL283H7","356TQKY9XFJ5S7O4NGX4839SMNB87N","","710","img/land1.png","74","712","1","0","1","2","0.8,0.2,0.2,0.2,0.8,0.2,0.2,0.2,0.8","0.2,0.2,0.8,0.8,0.2,0.2,0.2,0.8,0.2","2","",""
"","html-keyboard-response","234","175045","0.0-234.0","3TDXMTX3CCGHZXK64U954XZY2JII63","A1PRZC0JL283H7","356TQKY9XFJ5S7O4NGX4839SMNB87N","","null","<img src=""img/land1.png"" style=""width:200px;border:14px solid red;"">","null","","","","","","","","","",""
"","image-keyboard-response","235","175960","0.0-235.0","3TDXMTX3CCGHZXK64U954XZY2JII63","A1PRZC0JL283H7","356TQKY9XFJ5S7O4NGX4839SMNB87N","","912","img/land5.png","76","914","3","0","2","2","0.8,0.2,0.2,0.2,0.8,0.2,0.2,0.2,0.8","0.2,0.2,0.8,0.8,0.2,0.2,0.2,0.8,0.2","2","",""
"","html-keyboard-response","236","176262","0.0-236.0","3TDXMTX3CCGHZXK64U954XZY2JII63","A1PRZC0JL283H7","356TQKY9XFJ5S7O4NGX4839SMNB87N","","null","<img src=""img/land5.png"" style=""width:200px;border:14px solid red;"">","null","","","","","","","","","",""
"","image-keyboard-response","237","177080","0.0-237.0","3TDXMTX3CCGHZXK64U954XZY2JII63","A1PRZC0JL283H7","356TQKY9XFJ5S7O4NGX4839SMNB87N","","816","img/land1.png","76","818","3","0","1","2","0.8,0.2,0.2,0.2,0.8,0.2,0.2,0.2,0.8","0.2,0.2,0.8,0.8,0.2,0.2,0.2,0.8,0.2","2","",""
"","html-keyboard-response","238","177382","0.0-238.0","3TDXMTX3CCGHZXK64U954XZY2JII63","A1PRZC0JL283H7","356TQKY9XFJ5S7O4NGX4839SMNB87N","","null","<img src=""img/land1.png"" style=""width:200px;border:14px solid red;"">","null","","","","","","","","","",""
"","image-keyboard-response","239","178140","0.0-239.0","3TDXMTX3CCGHZXK64U954XZY2JII63","A1PRZC0JL283H7","356TQKY9XFJ5S7O4NGX4839SMNB87N","","757","img/land6.png","76","758","3","0","3","2","0.8,0.2,0.2,0.2,0.8,0.2,0.2,0.2,0.8","0.2,0.2,0.8,0.8,0.2,0.2,0.2,0.8,0.2","2","",""
"","html-keyboard-response","240","178443","0.0-240.0","3TDXMTX3CCGHZXK64U954XZY2JII63","A1PRZC0JL283H7","356TQKY9XFJ5S7O4NGX4839SMNB87N","","null","<img src=""img/land6.png"" style=""width:200px;border:14px solid red;"">","null","","","","","","","","","",""
"","image-keyboard-response","241","179038","0.0-241.0","3TDXMTX3CCGHZXK64U954XZY2JII63","A1PRZC0JL283H7","356TQKY9XFJ5S7O4NGX4839SMNB87N","","594","img/land1.png","75","594","2","1","1","2","0.8,0.2,0.2,0.2,0.8,0.2,0.2,0.2,0.8","0.2,0.2,0.8,0.8,0.2,0.2,0.2,0.8,0.2","2","",""
"","html-keyboard-response","242","179343","0.0-242.0","3TDXMTX3CCGHZXK64U954XZY2JII63","A1PRZC0JL283H7","356TQKY9XFJ5S7O4NGX4839SMNB87N","","null","<img src=""img/land1.png"" style=""width:200px; border:14px solid green;"">","null","","","","","","","","","",""
"","image-keyboard-response","243","180220","0.0-243.0","3TDXMTX3CCGHZXK64U954XZY2JII63","A1PRZC0JL283H7","356TQKY9XFJ5S7O4NGX4839SMNB87N","","872","img/land1.png","75","876","2","1","1","2","0.8,0.2,0.2,0.2,0.8,0.2,0.2,0.2,0.8","0.2,0.2,0.8,0.8,0.2,0.2,0.2,0.8,0.2","2","",""
"","html-keyboard-response","244","180523","0.0-244.0","3TDXMTX3CCGHZXK64U954XZY2JII63","A1PRZC0JL283H7","356TQKY9XFJ5S7O4NGX4839SMNB87N","","null","<img src=""img/land1.png"" style=""width:200px; border:14px solid green;"">","null","","","","","","","","","",""
"","image-keyboard-response","245","181559","0.0-245.0","3TDXMTX3CCGHZXK64U954XZY2JII63","A1PRZC0JL283H7","356TQKY9XFJ5S7O4NGX4839SMNB87N","","1034","img/land1.png","75","1035","2","0","1","2","0.8,0.2,0.2,0.2,0.8,0.2,0.2,0.2,0.8","0.2,0.2,0.8,0.8,0.2,0.2,0.2,0.8,0.2","2","",""
"","html-keyboard-response","246","181860","0.0-246.0","3TDXMTX3CCGHZXK64U954XZY2JII63","A1PRZC0JL283H7","356TQKY9XFJ5S7O4NGX4839SMNB87N","","null","<img src=""img/land1.png"" style=""width:200px;border:14px solid red;"">","null","","","","","","","","","",""
"","image-keyboard-response","247","182521","0.0-247.0","3TDXMTX3CCGHZXK64U954XZY2JII63","A1PRZC0JL283H7","356TQKY9XFJ5S7O4NGX4839SMNB87N","","656","img/land1.png","74","661","1","0","1","2","0.8,0.2,0.2,0.2,0.8,0.2,0.2,0.2,0.8","0.2,0.2,0.8,0.8,0.2,0.2,0.2,0.8,0.2","2","",""
"","html-keyboard-response","248","182823","0.0-248.0","3TDXMTX3CCGHZXK64U954XZY2JII63","A1PRZC0JL283H7","356TQKY9XFJ5S7O4NGX4839SMNB87N","","null","<img src=""img/land1.png"" style=""width:200px;border:14px solid red;"">","null","","","","","","","","","",""
"","image-keyboard-response","249","183540","0.0-249.0","3TDXMTX3CCGHZXK64U954XZY2JII63","A1PRZC0JL283H7","356TQKY9XFJ5S7O4NGX4839SMNB87N","","714","img/land1.png","76","716","3","1","1","2","0.8,0.2,0.2,0.2,0.8,0.2,0.2,0.2,0.8","0.2,0.2,0.8,0.8,0.2,0.2,0.2,0.8,0.2","2","",""
"","html-keyboard-response","250","183842","0.0-250.0","3TDXMTX3CCGHZXK64U954XZY2JII63","A1PRZC0JL283H7","356TQKY9XFJ5S7O4NGX4839SMNB87N","","null","<img src=""img/land1.png"" style=""width:200px; border:14px solid green;"">","null","","","","","","","","","",""
"","image-keyboard-response","251","184828","0.0-251.0","3TDXMTX3CCGHZXK64U954XZY2JII63","A1PRZC0JL283H7","356TQKY9XFJ5S7O4NGX4839SMNB87N","","983","img/land1.png","76","986","3","1","1","2","0.8,0.2,0.2,0.2,0.8,0.2,0.2,0.2,0.8","0.2,0.2,0.8,0.8,0.2,0.2,0.2,0.8,0.2","2","",""
"","html-keyboard-response","252","185219","0.0-252.0","3TDXMTX3CCGHZXK64U954XZY2JII63","A1PRZC0JL283H7","356TQKY9XFJ5S7O4NGX4839SMNB87N","","null","<img src=""img/land1.png"" style=""width:200px; border:14px solid green;"">","null","","","","","","","","","",""
"","image-keyboard-response","253","186273","0.0-253.0","3TDXMTX3CCGHZXK64U954XZY2JII63","A1PRZC0JL283H7","356TQKY9XFJ5S7O4NGX4839SMNB87N","","1050","img/land5.png","75","1054","2","0","2","2","0.8,0.2,0.2,0.2,0.8,0.2,0.2,0.2,0.8","0.2,0.2,0.8,0.8,0.2,0.2,0.2,0.8,0.2","2","",""
"","html-keyboard-response","254","186575","0.0-254.0","3TDXMTX3CCGHZXK64U954XZY2JII63","A1PRZC0JL283H7","356TQKY9XFJ5S7O4NGX4839SMNB87N","","null","<img src=""img/land5.png"" style=""width:200px;border:14px solid red;"">","null","","","","","","","","","",""
"","image-keyboard-response","255","187339","0.0-255.0","3TDXMTX3CCGHZXK64U954XZY2JII63","A1PRZC0JL283H7","356TQKY9XFJ5S7O4NGX4839SMNB87N","","762","img/land1.png","74","764","1","0","1","2","0.8,0.2,0.2,0.2,0.8,0.2,0.2,0.2,0.8","0.2,0.2,0.8,0.8,0.2,0.2,0.2,0.8,0.2","2","",""
"","html-keyboard-response","256","187642","0.0-256.0","3TDXMTX3CCGHZXK64U954XZY2JII63","A1PRZC0JL283H7","356TQKY9XFJ5S7O4NGX4839SMNB87N","","null","<img src=""img/land1.png"" style=""width:200px;border:14px solid red;"">","null","","","","","","","","","",""
"","image-keyboard-response","257","188319","0.0-257.0","3TDXMTX3CCGHZXK64U954XZY2JII63","A1PRZC0JL283H7","356TQKY9XFJ5S7O4NGX4839SMNB87N","","676","img/land1.png","76","676","3","0","1","2","0.8,0.2,0.2,0.2,0.8,0.2,0.2,0.2,0.8","0.2,0.2,0.8,0.8,0.2,0.2,0.2,0.8,0.2","2","",""
"","html-keyboard-response","258","188620","0.0-258.0","3TDXMTX3CCGHZXK64U954XZY2JII63","A1PRZC0JL283H7","356TQKY9XFJ5S7O4NGX4839SMNB87N","","null","<img src=""img/land1.png"" style=""width:200px;border:14px solid red;"">","null","","","","","","","","","",""
"","image-keyboard-response","259","189272","0.0-259.0","3TDXMTX3CCGHZXK64U954XZY2JII63","A1PRZC0JL283H7","356TQKY9XFJ5S7O4NGX4839SMNB87N","","648","img/land6.png","75","651","2","1","3","2","0.8,0.2,0.2,0.2,0.8,0.2,0.2,0.2,0.8","0.2,0.2,0.8,0.8,0.2,0.2,0.2,0.8,0.2","2","",""
"","html-keyboard-response","260","189573","0.0-260.0","3TDXMTX3CCGHZXK64U954XZY2JII63","A1PRZC0JL283H7","356TQKY9XFJ5S7O4NGX4839SMNB87N","","null","<img src=""img/land6.png"" style=""width:200px; border:14px solid green;"">","null","","","","","","","","","",""
"","image-keyboard-response","261","190498","0.0-261.0","3TDXMTX3CCGHZXK64U954XZY2JII63","A1PRZC0JL283H7","356TQKY9XFJ5S7O4NGX4839SMNB87N","","923","img/land1.png","75","925","2","0","1","2","0.8,0.2,0.2,0.2,0.8,0.2,0.2,0.2,0.8","0.2,0.2,0.8,0.8,0.2,0.2,0.2,0.8,0.2","2","",""
"","html-keyboard-response","262","190800","0.0-262.0","3TDXMTX3CCGHZXK64U954XZY2JII63","A1PRZC0JL283H7","356TQKY9XFJ5S7O4NGX4839SMNB87N","","null","<img src=""img/land1.png"" style=""width:200px;border:14px solid red;"">","null","","","","","","","","","",""
"","image-keyboard-response","263","191914","0.0-263.0","3TDXMTX3CCGHZXK64U954XZY2JII63","A1PRZC0JL283H7","356TQKY9XFJ5S7O4NGX4839SMNB87N","","1113","img/land6.png","76","1115","3","1","3","2","0.8,0.2,0.2,0.2,0.8,0.2,0.2,0.2,0.8","0.2,0.2,0.8,0.8,0.2,0.2,0.2,0.8,0.2","2","",""
"","html-keyboard-response","264","192219","0.0-264.0","3TDXMTX3CCGHZXK64U954XZY2JII63","A1PRZC0JL283H7","356TQKY9XFJ5S7O4NGX4839SMNB87N","","null","<img src=""img/land6.png"" style=""width:200px; border:14px solid green;"">","null","","","","","","","","","",""
"","image-keyboard-response","265","193580","0.0-265.0","3TDXMTX3CCGHZXK64U954XZY2JII63","A1PRZC0JL283H7","356TQKY9XFJ5S7O4NGX4839SMNB87N","","1356","img/land1.png","76","1359","3","1","1","2","0.8,0.2,0.2,0.2,0.8,0.2,0.2,0.2,0.8","0.2,0.2,0.8,0.8,0.2,0.2,0.2,0.8,0.2","2","",""
"","html-keyboard-response","266","193881","0.0-266.0","3TDXMTX3CCGHZXK64U954XZY2JII63","A1PRZC0JL283H7","356TQKY9XFJ5S7O4NGX4839SMNB87N","","null","<img src=""img/land1.png"" style=""width:200px; border:14px solid green;"">","null","","","","","","","","","",""
"","image-keyboard-response","267","194918","0.0-267.0","3TDXMTX3CCGHZXK64U954XZY2JII63","A1PRZC0JL283H7","356TQKY9XFJ5S7O4NGX4839SMNB87N","","1036","img/land1.png","76","1038","3","1","1","2","0.8,0.2,0.2,0.2,0.8,0.2,0.2,0.2,0.8","0.2,0.2,0.8,0.8,0.2,0.2,0.2,0.8,0.2","2","",""
"","html-keyboard-response","268","195234","0.0-268.0","3TDXMTX3CCGHZXK64U954XZY2JII63","A1PRZC0JL283H7","356TQKY9XFJ5S7O4NGX4839SMNB87N","","null","<img src=""img/land1.png"" style=""width:200px; border:14px solid green;"">","null","","","","","","","","","",""
"","image-keyboard-response","269","196000","0.0-269.0","3TDXMTX3CCGHZXK64U954XZY2JII63","A1PRZC0JL283H7","356TQKY9XFJ5S7O4NGX4839SMNB87N","","765","img/land5.png","76","766","3","0","2","2","0.8,0.2,0.2,0.2,0.8,0.2,0.2,0.2,0.8","0.2,0.2,0.8,0.8,0.2,0.2,0.2,0.8,0.2","2","",""
"","html-keyboard-response","270","196304","0.0-270.0","3TDXMTX3CCGHZXK64U954XZY2JII63","A1PRZC0JL283H7","356TQKY9XFJ5S7O4NGX4839SMNB87N","","null","<img src=""img/land5.png"" style=""width:200px;border:14px solid red;"">","null","","","","","","","","","",""
"","image-keyboard-response","271","197189","0.0-271.0","3TDXMTX3CCGHZXK64U954XZY2JII63","A1PRZC0JL283H7","356TQKY9XFJ5S7O4NGX4839SMNB87N","","883","img/land1.png","75","884","2","0","1","2","0.8,0.2,0.2,0.2,0.8,0.2,0.2,0.2,0.8","0.2,0.2,0.8,0.8,0.2,0.2,0.2,0.8,0.2","2","",""
"","html-keyboard-response","272","197490","0.0-272.0","3TDXMTX3CCGHZXK64U954XZY2JII63","A1PRZC0JL283H7","356TQKY9XFJ5S7O4NGX4839SMNB87N","","null","<img src=""img/land1.png"" style=""width:200px;border:14px solid red;"">","null","","","","","","","","","",""
"","image-keyboard-response","273","198078","0.0-273.0","3TDXMTX3CCGHZXK64U954XZY2JII63","A1PRZC0JL283H7","356TQKY9XFJ5S7O4NGX4839SMNB87N","","585","img/land1.png","76","587","3","1","1","2","0.8,0.2,0.2,0.2,0.8,0.2,0.2,0.2,0.8","0.2,0.2,0.8,0.8,0.2,0.2,0.2,0.8,0.2","2","",""
"","html-keyboard-response","274","198381","0.0-274.0","3TDXMTX3CCGHZXK64U954XZY2JII63","A1PRZC0JL283H7","356TQKY9XFJ5S7O4NGX4839SMNB87N","","null","<img src=""img/land1.png"" style=""width:200px; border:14px solid green;"">","null","","","","","","","","","",""
"","image-keyboard-response","275","199230","0.0-275.0","3TDXMTX3CCGHZXK64U954XZY2JII63","A1PRZC0JL283H7","356TQKY9XFJ5S7O4NGX4839SMNB87N","","848","img/land6.png","76","849","3","0","3","2","0.8,0.2,0.2,0.2,0.8,0.2,0.2,0.2,0.8","0.2,0.2,0.8,0.8,0.2,0.2,0.2,0.8,0.2","2","",""
"","html-keyboard-response","276","199534","0.0-276.0","3TDXMTX3CCGHZXK64U954XZY2JII63","A1PRZC0JL283H7","356TQKY9XFJ5S7O4NGX4839SMNB87N","","null","<img src=""img/land6.png"" style=""width:200px;border:14px solid red;"">","null","","","","","","","","","",""
"","image-keyboard-response","277","200380","0.0-277.0","3TDXMTX3CCGHZXK64U954XZY2JII63","A1PRZC0JL283H7","356TQKY9XFJ5S7O4NGX4839SMNB87N","","844","img/land1.png","75","846","2","0","1","2","0.8,0.2,0.2,0.2,0.8,0.2,0.2,0.2,0.8","0.2,0.2,0.8,0.8,0.2,0.2,0.2,0.8,0.2","2","",""
"","html-keyboard-response","278","200682","0.0-278.0","3TDXMTX3CCGHZXK64U954XZY2JII63","A1PRZC0JL283H7","356TQKY9XFJ5S7O4NGX4839SMNB87N","","null","<img src=""img/land1.png"" style=""width:200px;border:14px solid red;"">","null","","","","","","","","","",""
"","image-keyboard-response","279","201437","0.0-279.0","3TDXMTX3CCGHZXK64U954XZY2JII63","A1PRZC0JL283H7","356TQKY9XFJ5S7O4NGX4839SMNB87N","","746","img/land5.png","76","758","3","0","2","2","0.8,0.2,0.2,0.2,0.8,0.2,0.2,0.2,0.8","0.2,0.2,0.8,0.8,0.2,0.2,0.2,0.8,0.2","2","",""
"","html-keyboard-response","280","201781","0.0-280.0","3TDXMTX3CCGHZXK64U954XZY2JII63","A1PRZC0JL283H7","356TQKY9XFJ5S7O4NGX4839SMNB87N","","null","<img src=""img/land5.png"" style=""width:200px;border:14px solid red;"">","null","","","","","","","","","",""
"","image-keyboard-response","281","202639","0.0-281.0","3TDXMTX3CCGHZXK64U954XZY2JII63","A1PRZC0JL283H7","356TQKY9XFJ5S7O4NGX4839SMNB87N","","835","img/land1.png","76","851","3","1","1","2","0.8,0.2,0.2,0.2,0.8,0.2,0.2,0.2,0.8","0.2,0.2,0.8,0.8,0.2,0.2,0.2,0.8,0.2","2","",""
"","html-keyboard-response","282","202940","0.0-282.0","3TDXMTX3CCGHZXK64U954XZY2JII63","A1PRZC0JL283H7","356TQKY9XFJ5S7O4NGX4839SMNB87N","","null","<img src=""img/land1.png"" style=""width:200px; border:14px solid green;"">","null","","","","","","","","","",""
"","image-keyboard-response","283","204281","0.0-283.0","3TDXMTX3CCGHZXK64U954XZY2JII63","A1PRZC0JL283H7","356TQKY9XFJ5S7O4NGX4839SMNB87N","","1338","img/land6.png","74","1340","1","0","3","2","0.8,0.2,0.2,0.2,0.8,0.2,0.2,0.2,0.8","0.2,0.2,0.8,0.8,0.2,0.2,0.2,0.8,0.2","2","",""
"","html-keyboard-response","284","204584","0.0-284.0","3TDXMTX3CCGHZXK64U954XZY2JII63","A1PRZC0JL283H7","356TQKY9XFJ5S7O4NGX4839SMNB87N","","null","<img src=""img/land6.png"" style=""width:200px;border:14px solid red;"">","null","","","","","","","","","",""
"","image-keyboard-response","285","205462","0.0-285.0","3TDXMTX3CCGHZXK64U954XZY2JII63","A1PRZC0JL283H7","356TQKY9XFJ5S7O4NGX4839SMNB87N","","876","img/land5.png","75","878","2","0","2","2","0.8,0.2,0.2,0.2,0.8,0.2,0.2,0.2,0.8","0.2,0.2,0.8,0.8,0.2,0.2,0.2,0.8,0.2","2","",""
"","html-keyboard-response","286","205763","0.0-286.0","3TDXMTX3CCGHZXK64U954XZY2JII63","A1PRZC0JL283H7","356TQKY9XFJ5S7O4NGX4839SMNB87N","","null","<img src=""img/land5.png"" style=""width:200px;border:14px solid red;"">","null","","","","","","","","","",""
"","image-keyboard-response","287","206600","0.0-287.0","3TDXMTX3CCGHZXK64U954XZY2JII63","A1PRZC0JL283H7","356TQKY9XFJ5S7O4NGX4839SMNB87N","","834","img/land1.png","76","836","3","1","1","2","0.8,0.2,0.2,0.2,0.8,0.2,0.2,0.2,0.8","0.2,0.2,0.8,0.8,0.2,0.2,0.2,0.8,0.2","2","",""
"","html-keyboard-response","288","206902","0.0-288.0","3TDXMTX3CCGHZXK64U954XZY2JII63","A1PRZC0JL283H7","356TQKY9XFJ5S7O4NGX4839SMNB87N","","null","<img src=""img/land1.png"" style=""width:200px; border:14px solid green;"">","null","","","","","","","","","",""
"","image-keyboard-response","289","207880","0.0-289.0","3TDXMTX3CCGHZXK64U954XZY2JII63","A1PRZC0JL283H7","356TQKY9XFJ5S7O4NGX4839SMNB87N","","977","img/land1.png","76","978","3","1","1","2","0.8,0.2,0.2,0.2,0.8,0.2,0.2,0.2,0.8","0.2,0.2,0.8,0.8,0.2,0.2,0.2,0.8,0.2","2","",""
"","html-keyboard-response","290","208183","0.0-290.0","3TDXMTX3CCGHZXK64U954XZY2JII63","A1PRZC0JL283H7","356TQKY9XFJ5S7O4NGX4839SMNB87N","","null","<img src=""img/land1.png"" style=""width:200px; border:14px solid green;"">","null","","","","","","","","","",""
"","image-keyboard-response","291","209055","0.0-291.0","3TDXMTX3CCGHZXK64U954XZY2JII63","A1PRZC0JL283H7","356TQKY9XFJ5S7O4NGX4839SMNB87N","","869","img/land1.png","76","871","3","1","1","2","0.8,0.2,0.2,0.2,0.8,0.2,0.2,0.2,0.8","0.2,0.2,0.8,0.8,0.2,0.2,0.2,0.8,0.2","2","",""
"","html-keyboard-response","292","209361","0.0-292.0","3TDXMTX3CCGHZXK64U954XZY2JII63","A1PRZC0JL283H7","356TQKY9XFJ5S7O4NGX4839SMNB87N","","null","<img src=""img/land1.png"" style=""width:200px; border:14px solid green;"">","null","","","","","","","","","",""
"","image-keyboard-response","293","210679","0.0-293.0","3TDXMTX3CCGHZXK64U954XZY2JII63","A1PRZC0JL283H7","356TQKY9XFJ5S7O4NGX4839SMNB87N","","1316","img/land6.png","74","1317","1","0","3","2","0.8,0.2,0.2,0.2,0.8,0.2,0.2,0.2,0.8","0.2,0.2,0.8,0.8,0.2,0.2,0.2,0.8,0.2","2","",""
"","html-keyboard-response","294","210982","0.0-294.0","3TDXMTX3CCGHZXK64U954XZY2JII63","A1PRZC0JL283H7","356TQKY9XFJ5S7O4NGX4839SMNB87N","","null","<img src=""img/land6.png"" style=""width:200px;border:14px solid red;"">","null","","","","","","","","","",""
"","image-keyboard-response","295","211742","0.0-295.0","3TDXMTX3CCGHZXK64U954XZY2JII63","A1PRZC0JL283H7","356TQKY9XFJ5S7O4NGX4839SMNB87N","","756","img/land5.png","76","760","3","0","2","2","0.8,0.2,0.2,0.2,0.8,0.2,0.2,0.2,0.8","0.2,0.2,0.8,0.8,0.2,0.2,0.2,0.8,0.2","2","",""
"","html-keyboard-response","296","212045","0.0-296.0","3TDXMTX3CCGHZXK64U954XZY2JII63","A1PRZC0JL283H7","356TQKY9XFJ5S7O4NGX4839SMNB87N","","null","<img src=""img/land5.png"" style=""width:200px;border:14px solid red;"">","null","","","","","","","","","",""
"","image-keyboard-response","297","212841","0.0-297.0","3TDXMTX3CCGHZXK64U954XZY2JII63","A1PRZC0JL283H7","356TQKY9XFJ5S7O4NGX4839SMNB87N","","793","img/land1.png","75","796","2","0","1","2","0.8,0.2,0.2,0.2,0.8,0.2,0.2,0.2,0.8","0.2,0.2,0.8,0.8,0.2,0.2,0.2,0.8,0.2","2","",""
"","html-keyboard-response","298","213146","0.0-298.0","3TDXMTX3CCGHZXK64U954XZY2JII63","A1PRZC0JL283H7","356TQKY9XFJ5S7O4NGX4839SMNB87N","","null","<img src=""img/land1.png"" style=""width:200px;border:14px solid red;"">","null","","","","","","","","","",""
"","image-keyboard-response","299","214279","0.0-299.0","3TDXMTX3CCGHZXK64U954XZY2JII63","A1PRZC0JL283H7","356TQKY9XFJ5S7O4NGX4839SMNB87N","","1130","img/land5.png","76","1133","3","0","2","2","0.8,0.2,0.2,0.2,0.8,0.2,0.2,0.2,0.8","0.2,0.2,0.8,0.8,0.2,0.2,0.2,0.8,0.2","2","",""
"","html-keyboard-response","300","214583","0.0-300.0","3TDXMTX3CCGHZXK64U954XZY2JII63","A1PRZC0JL283H7","356TQKY9XFJ5S7O4NGX4839SMNB87N","","null","<img src=""img/land5.png"" style=""width:200px;border:14px solid red;"">","null","","","","","","","","","",""
"","image-keyboard-response","301","215422","0.0-301.0","3TDXMTX3CCGHZXK64U954XZY2JII63","A1PRZC0JL283H7","356TQKY9XFJ5S7O4NGX4839SMNB87N","","835","img/land6.png","75","837","2","0","3","2","0.8,0.2,0.2,0.2,0.8,0.2,0.2,0.2,0.8","0.2,0.2,0.8,0.8,0.2,0.2,0.2,0.8,0.2","2","",""
"","html-keyboard-response","302","215726","0.0-302.0","3TDXMTX3CCGHZXK64U954XZY2JII63","A1PRZC0JL283H7","356TQKY9XFJ5S7O4NGX4839SMNB87N","","null","<img src=""img/land6.png"" style=""width:200px;border:14px solid red;"">","null","","","","","","","","","",""
"","image-keyboard-response","303","216278","0.0-303.0","3TDXMTX3CCGHZXK64U954XZY2JII63","A1PRZC0JL283H7","356TQKY9XFJ5S7O4NGX4839SMNB87N","","550","img/land1.png","74","552","1","0","1","2","0.8,0.2,0.2,0.2,0.8,0.2,0.2,0.2,0.8","0.2,0.2,0.8,0.8,0.2,0.2,0.2,0.8,0.2","2","",""
"","html-keyboard-response","304","216580","0.0-304.0","3TDXMTX3CCGHZXK64U954XZY2JII63","A1PRZC0JL283H7","356TQKY9XFJ5S7O4NGX4839SMNB87N","","null","<img src=""img/land1.png"" style=""width:200px;border:14px solid red;"">","null","","","","","","","","","",""
"","image-keyboard-response","305","217379","0.0-305.0","3TDXMTX3CCGHZXK64U954XZY2JII63","A1PRZC0JL283H7","356TQKY9XFJ5S7O4NGX4839SMNB87N","","797","img/land1.png","76","798","3","0","1","2","0.8,0.2,0.2,0.2,0.8,0.2,0.2,0.2,0.8","0.2,0.2,0.8,0.8,0.2,0.2,0.2,0.8,0.2","2","",""
"","html-keyboard-response","306","217697","0.0-306.0","3TDXMTX3CCGHZXK64U954XZY2JII63","A1PRZC0JL283H7","356TQKY9XFJ5S7O4NGX4839SMNB87N","","null","<img src=""img/land1.png"" style=""width:200px;border:14px solid red;"">","null","","","","","","","","","",""
"","image-keyboard-response","307","218780","0.0-307.0","3TDXMTX3CCGHZXK64U954XZY2JII63","A1PRZC0JL283H7","356TQKY9XFJ5S7O4NGX4839SMNB87N","","1067","img/land1.png","76","1076","3","1","1","2","0.8,0.2,0.2,0.2,0.8,0.2,0.2,0.2,0.8","0.2,0.2,0.8,0.8,0.2,0.2,0.2,0.8,0.2","2","",""
"","html-keyboard-response","308","219087","0.0-308.0","3TDXMTX3CCGHZXK64U954XZY2JII63","A1PRZC0JL283H7","356TQKY9XFJ5S7O4NGX4839SMNB87N","","null","<img src=""img/land1.png"" style=""width:200px; border:14px solid green;"">","null","","","","","","","","","",""
"","image-keyboard-response","309","219798","0.0-309.0","3TDXMTX3CCGHZXK64U954XZY2JII63","A1PRZC0JL283H7","356TQKY9XFJ5S7O4NGX4839SMNB87N","","710","img/land1.png","76","711","3","1","1","2","0.8,0.2,0.2,0.2,0.8,0.2,0.2,0.2,0.8","0.2,0.2,0.8,0.8,0.2,0.2,0.2,0.8,0.2","2","",""
"","html-keyboard-response","310","220101","0.0-310.0","3TDXMTX3CCGHZXK64U954XZY2JII63","A1PRZC0JL283H7","356TQKY9XFJ5S7O4NGX4839SMNB87N","","null","<img src=""img/land1.png"" style=""width:200px; border:14px solid green;"">","null","","","","","","","","","",""
"","image-keyboard-response","311","220817","0.0-311.0","3TDXMTX3CCGHZXK64U954XZY2JII63","A1PRZC0JL283H7","356TQKY9XFJ5S7O4NGX4839SMNB87N","","712","img/land1.png","76","714","3","1","1","2","0.8,0.2,0.2,0.2,0.8,0.2,0.2,0.2,0.8","0.2,0.2,0.8,0.8,0.2,0.2,0.2,0.8,0.2","2","",""
"","html-keyboard-response","312","221130","0.0-312.0","3TDXMTX3CCGHZXK64U954XZY2JII63","A1PRZC0JL283H7","356TQKY9XFJ5S7O4NGX4839SMNB87N","","null","<img src=""img/land1.png"" style=""width:200px; border:14px solid green;"">","null","","","","","","","","","",""
"","image-keyboard-response","313","222882","0.0-313.0","3TDXMTX3CCGHZXK64U954XZY2JII63","A1PRZC0JL283H7","356TQKY9XFJ5S7O4NGX4839SMNB87N","","1738","img/land6.png","76","1751","3","0","3","2","0.8,0.2,0.2,0.2,0.8,0.2,0.2,0.2,0.8","0.2,0.2,0.8,0.8,0.2,0.2,0.2,0.8,0.2","2","",""
"","html-keyboard-response","314","223226","0.0-314.0","3TDXMTX3CCGHZXK64U954XZY2JII63","A1PRZC0JL283H7","356TQKY9XFJ5S7O4NGX4839SMNB87N","","null","<img src=""img/land6.png"" style=""width:200px;border:14px solid red;"">","null","","","","","","","","","",""
"","image-keyboard-response","315","223980","0.0-315.0","3TDXMTX3CCGHZXK64U954XZY2JII63","A1PRZC0JL283H7","356TQKY9XFJ5S7O4NGX4839SMNB87N","","754","img/land1.png","75","755","2","0","1","2","0.8,0.2,0.2,0.2,0.8,0.2,0.2,0.2,0.8","0.2,0.2,0.8,0.8,0.2,0.2,0.2,0.8,0.2","2","",""
"","html-keyboard-response","316","224285","0.0-316.0","3TDXMTX3CCGHZXK64U954XZY2JII63","A1PRZC0JL283H7","356TQKY9XFJ5S7O4NGX4839SMNB87N","","null","<img src=""img/land1.png"" style=""width:200px;border:14px solid red;"">","null","","","","","","","","","",""
"","image-keyboard-response","317","224943","0.0-317.0","3TDXMTX3CCGHZXK64U954XZY2JII63","A1PRZC0JL283H7","356TQKY9XFJ5S7O4NGX4839SMNB87N","","655","img/land1.png","76","658","3","1","1","2","0.8,0.2,0.2,0.2,0.8,0.2,0.2,0.2,0.8","0.2,0.2,0.8,0.8,0.2,0.2,0.2,0.8,0.2","2","",""
"","html-keyboard-response","318","225276","0.0-318.0","3TDXMTX3CCGHZXK64U954XZY2JII63","A1PRZC0JL283H7","356TQKY9XFJ5S7O4NGX4839SMNB87N","","null","<img src=""img/land1.png"" style=""width:200px; border:14px solid green;"">","null","","","","","","","","","",""
"","image-keyboard-response","319","226224","0.0-319.0","3TDXMTX3CCGHZXK64U954XZY2JII63","A1PRZC0JL283H7","356TQKY9XFJ5S7O4NGX4839SMNB87N","","946","img/land5.png","76","948","3","1","2","2","0.8,0.2,0.2,0.2,0.8,0.2,0.2,0.2,0.8","0.2,0.2,0.8,0.8,0.2,0.2,0.2,0.8,0.2","2","",""
"","html-keyboard-response","320","226528","0.0-320.0","3TDXMTX3CCGHZXK64U954XZY2JII63","A1PRZC0JL283H7","356TQKY9XFJ5S7O4NGX4839SMNB87N","","null","<img src=""img/land5.png"" style=""width:200px; border:14px solid green;"">","null","","","","","","","","","",""
"","image-keyboard-response","321","227822","0.0-321.0","3TDXMTX3CCGHZXK64U954XZY2JII63","A1PRZC0JL283H7","356TQKY9XFJ5S7O4NGX4839SMNB87N","","1291","img/land1.png","76","1293","3","1","1","2","0.8,0.2,0.2,0.2,0.8,0.2,0.2,0.2,0.8","0.2,0.2,0.8,0.8,0.2,0.2,0.2,0.8,0.2","2","",""
"","html-keyboard-response","322","228124","0.0-322.0","3TDXMTX3CCGHZXK64U954XZY2JII63","A1PRZC0JL283H7","356TQKY9XFJ5S7O4NGX4839SMNB87N","","null","<img src=""img/land1.png"" style=""width:200px; border:14px solid green;"">","null","","","","","","","","","",""
"","image-keyboard-response","323","228823","0.0-323.0","3TDXMTX3CCGHZXK64U954XZY2JII63","A1PRZC0JL283H7","356TQKY9XFJ5S7O4NGX4839SMNB87N","","696","img/land5.png","76","698","3","0","2","2","0.8,0.2,0.2,0.2,0.8,0.2,0.2,0.2,0.8","0.2,0.2,0.8,0.8,0.2,0.2,0.2,0.8,0.2","2","",""
"","html-keyboard-response","324","229125","0.0-324.0","3TDXMTX3CCGHZXK64U954XZY2JII63","A1PRZC0JL283H7","356TQKY9XFJ5S7O4NGX4839SMNB87N","","null","<img src=""img/land5.png"" style=""width:200px;border:14px solid red;"">","null","","","","","","","","","",""
"","image-keyboard-response","325","229919","0.0-325.0","3TDXMTX3CCGHZXK64U954XZY2JII63","A1PRZC0JL283H7","356TQKY9XFJ5S7O4NGX4839SMNB87N","","792","img/land1.png","74","793","1","0","1","2","0.8,0.2,0.2,0.2,0.8,0.2,0.2,0.2,0.8","0.2,0.2,0.8,0.8,0.2,0.2,0.2,0.8,0.2","2","",""
"","html-keyboard-response","326","230220","0.0-326.0","3TDXMTX3CCGHZXK64U954XZY2JII63","A1PRZC0JL283H7","356TQKY9XFJ5S7O4NGX4839SMNB87N","","null","<img src=""img/land1.png"" style=""width:200px;border:14px solid red;"">","null","","","","","","","","","",""
"","image-keyboard-response","327","230837","0.0-327.0","3TDXMTX3CCGHZXK64U954XZY2JII63","A1PRZC0JL283H7","356TQKY9XFJ5S7O4NGX4839SMNB87N","","614","img/land6.png","76","617","3","0","3","2","0.8,0.2,0.2,0.2,0.8,0.2,0.2,0.2,0.8","0.2,0.2,0.8,0.8,0.2,0.2,0.2,0.8,0.2","2","",""
"","html-keyboard-response","328","231140","0.0-328.0","3TDXMTX3CCGHZXK64U954XZY2JII63","A1PRZC0JL283H7","356TQKY9XFJ5S7O4NGX4839SMNB87N","","null","<img src=""img/land6.png"" style=""width:200px;border:14px solid red;"">","null","","","","","","","","","",""
"","image-keyboard-response","329","232123","0.0-329.0","3TDXMTX3CCGHZXK64U954XZY2JII63","A1PRZC0JL283H7","356TQKY9XFJ5S7O4NGX4839SMNB87N","","981","img/land1.png","76","984","3","1","1","2","0.8,0.2,0.2,0.2,0.8,0.2,0.2,0.2,0.8","0.2,0.2,0.8,0.8,0.2,0.2,0.2,0.8,0.2","2","",""
"","html-keyboard-response","330","232428","0.0-330.0","3TDXMTX3CCGHZXK64U954XZY2JII63","A1PRZC0JL283H7","356TQKY9XFJ5S7O4NGX4839SMNB87N","","null","<img src=""img/land1.png"" style=""width:200px; border:14px solid green;"">","null","","","","","","","","","",""
"","image-keyboard-response","331","233298","0.0-331.0","3TDXMTX3CCGHZXK64U954XZY2JII63","A1PRZC0JL283H7","356TQKY9XFJ5S7O4NGX4839SMNB87N","","868","img/land5.png","74","869","1","1","2","2","0.8,0.2,0.2,0.2,0.8,0.2,0.2,0.2,0.8","0.2,0.2,0.8,0.8,0.2,0.2,0.2,0.8,0.2","2","",""
"","html-keyboard-response","332","233599","0.0-332.0","3TDXMTX3CCGHZXK64U954XZY2JII63","A1PRZC0JL283H7","356TQKY9XFJ5S7O4NGX4839SMNB87N","","null","<img src=""img/land5.png"" style=""width:200px; border:14px solid green;"">","null","","","","","","","","","",""
"","image-keyboard-response","333","234761","0.0-333.0","3TDXMTX3CCGHZXK64U954XZY2JII63","A1PRZC0JL283H7","356TQKY9XFJ5S7O4NGX4839SMNB87N","","1160","img/land6.png","76","1162","3","1","3","2","0.8,0.2,0.2,0.2,0.8,0.2,0.2,0.2,0.8","0.2,0.2,0.8,0.8,0.2,0.2,0.2,0.8,0.2","2","",""
"","html-keyboard-response","334","235066","0.0-334.0","3TDXMTX3CCGHZXK64U954XZY2JII63","A1PRZC0JL283H7","356TQKY9XFJ5S7O4NGX4839SMNB87N","","null","<img src=""img/land6.png"" style=""width:200px; border:14px solid green;"">","null","","","","","","","","","",""
"","image-keyboard-response","335","236240","0.0-335.0","3TDXMTX3CCGHZXK64U954XZY2JII63","A1PRZC0JL283H7","356TQKY9XFJ5S7O4NGX4839SMNB87N","","1172","img/land1.png","76","1174","3","1","1","2","0.8,0.2,0.2,0.2,0.8,0.2,0.2,0.2,0.8","0.2,0.2,0.8,0.8,0.2,0.2,0.2,0.8,0.2","2","",""
"","html-keyboard-response","336","236542","0.0-336.0","3TDXMTX3CCGHZXK64U954XZY2JII63","A1PRZC0JL283H7","356TQKY9XFJ5S7O4NGX4839SMNB87N","","null","<img src=""img/land1.png"" style=""width:200px; border:14px solid green;"">","null","","","","","","","","","",""
"","image-keyboard-response","337","237503","0.0-337.0","3TDXMTX3CCGHZXK64U954XZY2JII63","A1PRZC0JL283H7","356TQKY9XFJ5S7O4NGX4839SMNB87N","","956","img/land1.png","76","960","3","1","1","2","0.8,0.2,0.2,0.2,0.8,0.2,0.2,0.2,0.8","0.2,0.2,0.8,0.8,0.2,0.2,0.2,0.8,0.2","2","",""
"","html-keyboard-response","338","237804","0.0-338.0","3TDXMTX3CCGHZXK64U954XZY2JII63","A1PRZC0JL283H7","356TQKY9XFJ5S7O4NGX4839SMNB87N","","null","<img src=""img/land1.png"" style=""width:200px; border:14px solid green;"">","null","","","","","","","","","",""
"","image-keyboard-response","339","238539","0.0-339.0","3TDXMTX3CCGHZXK64U954XZY2JII63","A1PRZC0JL283H7","356TQKY9XFJ5S7O4NGX4839SMNB87N","","733","img/land5.png","76","735","3","0","2","2","0.8,0.2,0.2,0.2,0.8,0.2,0.2,0.2,0.8","0.2,0.2,0.8,0.8,0.2,0.2,0.2,0.8,0.2","2","",""
"","html-keyboard-response","340","238843","0.0-340.0","3TDXMTX3CCGHZXK64U954XZY2JII63","A1PRZC0JL283H7","356TQKY9XFJ5S7O4NGX4839SMNB87N","","null","<img src=""img/land5.png"" style=""width:200px;border:14px solid red;"">","null","","","","","","","","","",""
"","image-keyboard-response","341","239742","0.0-341.0","3TDXMTX3CCGHZXK64U954XZY2JII63","A1PRZC0JL283H7","356TQKY9XFJ5S7O4NGX4839SMNB87N","","896","img/land6.png","74","899","1","0","3","2","0.8,0.2,0.2,0.2,0.8,0.2,0.2,0.2,0.8","0.2,0.2,0.8,0.8,0.2,0.2,0.2,0.8,0.2","2","",""
"","html-keyboard-response","342","240047","0.0-342.0","3TDXMTX3CCGHZXK64U954XZY2JII63","A1PRZC0JL283H7","356TQKY9XFJ5S7O4NGX4839SMNB87N","","null","<img src=""img/land6.png"" style=""width:200px;border:14px solid red;"">","null","","","","","","","","","",""
"","image-keyboard-response","343","240840","0.0-343.0","3TDXMTX3CCGHZXK64U954XZY2JII63","A1PRZC0JL283H7","356TQKY9XFJ5S7O4NGX4839SMNB87N","","791","img/land5.png","76","793","3","0","2","2","0.8,0.2,0.2,0.2,0.8,0.2,0.2,0.2,0.8","0.2,0.2,0.8,0.8,0.2,0.2,0.2,0.8,0.2","2","",""
"","html-keyboard-response","344","241153","0.0-344.0","3TDXMTX3CCGHZXK64U954XZY2JII63","A1PRZC0JL283H7","356TQKY9XFJ5S7O4NGX4839SMNB87N","","null","<img src=""img/land5.png"" style=""width:200px;border:14px solid red;"">","null","","","","","","","","","",""
"","image-keyboard-response","345","242082","0.0-345.0","3TDXMTX3CCGHZXK64U954XZY2JII63","A1PRZC0JL283H7","356TQKY9XFJ5S7O4NGX4839SMNB87N","","927","img/land6.png","76","928","3","0","3","2","0.8,0.2,0.2,0.2,0.8,0.2,0.2,0.2,0.8","0.2,0.2,0.8,0.8,0.2,0.2,0.2,0.8,0.2","2","",""
"","html-keyboard-response","346","242386","0.0-346.0","3TDXMTX3CCGHZXK64U954XZY2JII63","A1PRZC0JL283H7","356TQKY9XFJ5S7O4NGX4839SMNB87N","","null","<img src=""img/land6.png"" style=""width:200px;border:14px solid red;"">","null","","","","","","","","","",""
"","image-keyboard-response","347","243808","0.0-347.0","3TDXMTX3CCGHZXK64U954XZY2JII63","A1PRZC0JL283H7","356TQKY9XFJ5S7O4NGX4839SMNB87N","","1419","img/land6.png","75","1421","2","1","3","2","0.8,0.2,0.2,0.2,0.8,0.2,0.2,0.2,0.8","0.2,0.2,0.8,0.8,0.2,0.2,0.2,0.8,0.2","2","",""
"","html-keyboard-response","348","244110","0.0-348.0","3TDXMTX3CCGHZXK64U954XZY2JII63","A1PRZC0JL283H7","356TQKY9XFJ5S7O4NGX4839SMNB87N","","null","<img src=""img/land6.png"" style=""width:200px; border:14px solid green;"">","null","","","","","","","","","",""
"","image-keyboard-response","349","245081","0.0-349.0","3TDXMTX3CCGHZXK64U954XZY2JII63","A1PRZC0JL283H7","356TQKY9XFJ5S7O4NGX4839SMNB87N","","967","img/land5.png","76","970","3","0","2","2","0.8,0.2,0.2,0.2,0.8,0.2,0.2,0.2,0.8","0.2,0.2,0.8,0.8,0.2,0.2,0.2,0.8,0.2","2","",""
"","html-keyboard-response","350","245382","0.0-350.0","3TDXMTX3CCGHZXK64U954XZY2JII63","A1PRZC0JL283H7","356TQKY9XFJ5S7O4NGX4839SMNB87N","","null","<img src=""img/land5.png"" style=""width:200px;border:14px solid red;"">","null","","","","","","","","","",""
"","image-keyboard-response","351","246053","0.0-351.0","3TDXMTX3CCGHZXK64U954XZY2JII63","A1PRZC0JL283H7","356TQKY9XFJ5S7O4NGX4839SMNB87N","","670","img/land1.png","75","671","2","0","1","2","0.8,0.2,0.2,0.2,0.8,0.2,0.2,0.2,0.8","0.2,0.2,0.8,0.8,0.2,0.2,0.2,0.8,0.2","2","",""
"","html-keyboard-response","352","246355","0.0-352.0","3TDXMTX3CCGHZXK64U954XZY2JII63","A1PRZC0JL283H7","356TQKY9XFJ5S7O4NGX4839SMNB87N","","null","<img src=""img/land1.png"" style=""width:200px;border:14px solid red;"">","null","","","","","","","","","",""
"","image-keyboard-response","353","247251","0.0-353.0","3TDXMTX3CCGHZXK64U954XZY2JII63","A1PRZC0JL283H7","356TQKY9XFJ5S7O4NGX4839SMNB87N","","893","img/land1.png","74","895","1","0","1","2","0.8,0.2,0.2,0.2,0.8,0.2,0.2,0.2,0.8","0.2,0.2,0.8,0.8,0.2,0.2,0.2,0.8,0.2","2","",""
"","html-keyboard-response","354","247553","0.0-354.0","3TDXMTX3CCGHZXK64U954XZY2JII63","A1PRZC0JL283H7","356TQKY9XFJ5S7O4NGX4839SMNB87N","","null","<img src=""img/land1.png"" style=""width:200px;border:14px solid red;"">","null","","","","","","","","","",""
"","image-keyboard-response","355","248340","0.0-355.0","3TDXMTX3CCGHZXK64U954XZY2JII63","A1PRZC0JL283H7","356TQKY9XFJ5S7O4NGX4839SMNB87N","","785","img/land1.png","76","786","3","1","1","2","0.8,0.2,0.2,0.2,0.8,0.2,0.2,0.2,0.8","0.2,0.2,0.8,0.8,0.2,0.2,0.2,0.8,0.2","2","",""
"","html-keyboard-response","356","248642","0.0-356.0","3TDXMTX3CCGHZXK64U954XZY2JII63","A1PRZC0JL283H7","356TQKY9XFJ5S7O4NGX4839SMNB87N","","null","<img src=""img/land1.png"" style=""width:200px; border:14px solid green;"">","null","","","","","","","","","",""
"","image-keyboard-response","357","249423","0.0-357.0","3TDXMTX3CCGHZXK64U954XZY2JII63","A1PRZC0JL283H7","356TQKY9XFJ5S7O4NGX4839SMNB87N","","778","img/land1.png","76","780","3","1","1","2","0.8,0.2,0.2,0.2,0.8,0.2,0.2,0.2,0.8","0.2,0.2,0.8,0.8,0.2,0.2,0.2,0.8,0.2","2","",""
"","html-keyboard-response","358","249724","0.0-358.0","3TDXMTX3CCGHZXK64U954XZY2JII63","A1PRZC0JL283H7","356TQKY9XFJ5S7O4NGX4839SMNB87N","","null","<img src=""img/land1.png"" style=""width:200px; border:14px solid green;"">","null","","","","","","","","","",""
"","image-keyboard-response","359","250240","0.0-359.0","3TDXMTX3CCGHZXK64U954XZY2JII63","A1PRZC0JL283H7","356TQKY9XFJ5S7O4NGX4839SMNB87N","","515","img/land1.png","76","516","3","1","1","2","0.8,0.2,0.2,0.2,0.8,0.2,0.2,0.2,0.8","0.2,0.2,0.8,0.8,0.2,0.2,0.2,0.8,0.2","2","",""
"","html-keyboard-response","360","250546","0.0-360.0","3TDXMTX3CCGHZXK64U954XZY2JII63","A1PRZC0JL283H7","356TQKY9XFJ5S7O4NGX4839SMNB87N","","null","<img src=""img/land1.png"" style=""width:200px; border:14px solid green;"">","null","","","","","","","","","",""
"","image-keyboard-response","361","251362","0.0-361.0","3TDXMTX3CCGHZXK64U954XZY2JII63","A1PRZC0JL283H7","356TQKY9XFJ5S7O4NGX4839SMNB87N","","812","img/land1.png","76","817","3","1","1","2","0.8,0.2,0.2,0.2,0.8,0.2,0.2,0.2,0.8","0.2,0.2,0.8,0.8,0.2,0.2,0.2,0.8,0.2","2","",""
"","html-keyboard-response","362","251667","0.0-362.0","3TDXMTX3CCGHZXK64U954XZY2JII63","A1PRZC0JL283H7","356TQKY9XFJ5S7O4NGX4839SMNB87N","","null","<img src=""img/land1.png"" style=""width:200px; border:14px solid green;"">","null","","","","","","","","","",""
"","image-keyboard-response","363","252928","0.0-363.0","3TDXMTX3CCGHZXK64U954XZY2JII63","A1PRZC0JL283H7","356TQKY9XFJ5S7O4NGX4839SMNB87N","","1260","img/land5.png","74","1261","1","1","2","2","0.8,0.2,0.2,0.2,0.8,0.2,0.2,0.2,0.8","0.2,0.2,0.8,0.8,0.2,0.2,0.2,0.8,0.2","2","",""
"","html-keyboard-response","364","253235","0.0-364.0","3TDXMTX3CCGHZXK64U954XZY2JII63","A1PRZC0JL283H7","356TQKY9XFJ5S7O4NGX4839SMNB87N","","null","<img src=""img/land5.png"" style=""width:200px; border:14px solid green;"">","null","","","","","","","","","",""
"","image-keyboard-response","365","254303","0.0-365.0","3TDXMTX3CCGHZXK64U954XZY2JII63","A1PRZC0JL283H7","356TQKY9XFJ5S7O4NGX4839SMNB87N","","1037","img/land6.png","76","1061","3","0","3","2","0.8,0.2,0.2,0.2,0.8,0.2,0.2,0.2,0.8","0.2,0.2,0.8,0.8,0.2,0.2,0.2,0.8,0.2","2","",""
"","html-keyboard-response","366","254606","0.0-366.0","3TDXMTX3CCGHZXK64U954XZY2JII63","A1PRZC0JL283H7","356TQKY9XFJ5S7O4NGX4839SMNB87N","","null","<img src=""img/land6.png"" style=""width:200px;border:14px solid red;"">","null","","","","","","","","","",""
"","image-keyboard-response","367","255451","0.0-367.0","3TDXMTX3CCGHZXK64U954XZY2JII63","A1PRZC0JL283H7","356TQKY9XFJ5S7O4NGX4839SMNB87N","","843","img/land1.png","74","844","1","0","1","2","0.8,0.2,0.2,0.2,0.8,0.2,0.2,0.2,0.8","0.2,0.2,0.8,0.8,0.2,0.2,0.2,0.8,0.2","2","",""
"","html-keyboard-response","368","255756","0.0-368.0","3TDXMTX3CCGHZXK64U954XZY2JII63","A1PRZC0JL283H7","356TQKY9XFJ5S7O4NGX4839SMNB87N","","null","<img src=""img/land1.png"" style=""width:200px;border:14px solid red;"">","null","","","","","","","","","",""
"","image-keyboard-response","369","256342","0.0-369.0","3TDXMTX3CCGHZXK64U954XZY2JII63","A1PRZC0JL283H7","356TQKY9XFJ5S7O4NGX4839SMNB87N","","579","img/land1.png","76","583","3","1","1","2","0.8,0.2,0.2,0.2,0.8,0.2,0.2,0.2,0.8","0.2,0.2,0.8,0.8,0.2,0.2,0.2,0.8,0.2","2","",""
"","html-keyboard-response","370","256645","0.0-370.0","3TDXMTX3CCGHZXK64U954XZY2JII63","A1PRZC0JL283H7","356TQKY9XFJ5S7O4NGX4839SMNB87N","","null","<img src=""img/land1.png"" style=""width:200px; border:14px solid green;"">","null","","","","","","","","","",""
