"success","trial_type","trial_index","time_elapsed","internal_node_id","assignmentID","mturkID","hitID","view_history","rt","stimulus","key_press","reactionTime","a","r","s","cond","reward_cond","reward_cond_actual","reward_matrix_idx","responses","question_order"
"true","fullscreen","0","3539","0.0-0.0","3YT88D1N09K989NCLVWJAA2RKY53KX","A1ROEDVMTO9Y3X","3UDTAB6HH6LRO17U79I9TKUGYFV09C","","","","","","","","","","","","","",""
"","instructions","1","22846","0.0-1.0","3YT88D1N09K989NCLVWJAA2RKY53KX","A1ROEDVMTO9Y3X","3UDTAB6HH6LRO17U79I9TKUGYFV09C","[{""page_index"":0,""viewing_time"":2249.5},{""page_index"":1,""viewing_time"":2470.9000000059605},{""page_index"":2,""viewing_time"":1295.7999999970198},{""page_index"":3,""viewing_time"":5863.79999999702},{""page_index"":4,""viewing_time"":2296.1000000089407},{""page_index"":5,""viewing_time"":3719.8999999910593},{""page_index"":6,""viewing_time"":1408.4000000059605}]","19304.70000000298","","","","","","","","","","","",""
"","image-keyboard-response","2","23521","0.0-2.0","3YT88D1N09K989NCLVWJAA2RKY53KX","A1ROEDVMTO9Y3X","3UDTAB6HH6LRO17U79I9TKUGYFV09C","","673.7999999970198","img/land2.png","74","674.7000000029802","1","1","1","2","0.8,0.2,0.2,0.2,0.8,0.2,0.2,0.2,0.8","0.8,0.2,0.2,0.2,0.8,0.2,0.2,0.2,0.8","1","",""
"","html-keyboard-response","3","23827","0.0-3.0","3YT88D1N09K989NCLVWJAA2RKY53KX","A1ROEDVMTO9Y3X","3UDTAB6HH6LRO17U79I9TKUGYFV09C","","null","<img src=""img/land2.png"" style=""width:200px; border:14px solid green;"">","null","","","","","","","","","",""
"","image-keyboard-response","4","24613","0.0-4.0","3YT88D1N09K989NCLVWJAA2RKY53KX","A1ROEDVMTO9Y3X","3UDTAB6HH6LRO17U79I9TKUGYFV09C","","784.2999999970198","img/land5.png","75","785.9000000059605","2","0","3","2","0.8,0.2,0.2,0.2,0.8,0.2,0.2,0.2,0.8","0.8,0.2,0.2,0.2,0.8,0.2,0.2,0.2,0.8","1","",""
"","html-keyboard-response","5","24921","0.0-5.0","3YT88D1N09K989NCLVWJAA2RKY53KX","A1ROEDVMTO9Y3X","3UDTAB6HH6LRO17U79I9TKUGYFV09C","","null","<img src=""img/land5.png"" style=""width:200px;border:14px solid red;"">","null","","","","","","","","","",""
"","image-keyboard-response","6","25708","0.0-6.0","3YT88D1N09K989NCLVWJAA2RKY53KX","A1ROEDVMTO9Y3X","3UDTAB6HH6LRO17U79I9TKUGYFV09C","","784.2999999970198","img/land2.png","74","785.7999999970198","1","0","1","2","0.8,0.2,0.2,0.2,0.8,0.2,0.2,0.2,0.8","0.8,0.2,0.2,0.2,0.8,0.2,0.2,0.2,0.8","1","",""
"","html-keyboard-response","7","26025","0.0-7.0","3YT88D1N09K989NCLVWJAA2RKY53KX","A1ROEDVMTO9Y3X","3UDTAB6HH6LRO17U79I9TKUGYFV09C","","null","<img src=""img/land2.png"" style=""width:200px;border:14px solid red;"">","null","","","","","","","","","",""
"","image-keyboard-response","8","26617","0.0-8.0","3YT88D1N09K989NCLVWJAA2RKY53KX","A1ROEDVMTO9Y3X","3UDTAB6HH6LRO17U79I9TKUGYFV09C","","590.5","img/land3.png","76","591.6000000089407","3","1","2","2","0.8,0.2,0.2,0.2,0.8,0.2,0.2,0.2,0.8","0.8,0.2,0.2,0.2,0.8,0.2,0.2,0.2,0.8","1","",""
"","html-keyboard-response","9","26930","0.0-9.0","3YT88D1N09K989NCLVWJAA2RKY53KX","A1ROEDVMTO9Y3X","3UDTAB6HH6LRO17U79I9TKUGYFV09C","","null","<img src=""img/land3.png"" style=""width:200px; border:14px solid green;"">","null","","","","","","","","","",""
"","image-keyboard-response","10","27941","0.0-10.0","3YT88D1N09K989NCLVWJAA2RKY53KX","A1ROEDVMTO9Y3X","3UDTAB6HH6LRO17U79I9TKUGYFV09C","","1008.9000000059605","img/land2.png","74","1010.5","1","1","1","2","0.8,0.2,0.2,0.2,0.8,0.2,0.2,0.2,0.8","0.8,0.2,0.2,0.2,0.8,0.2,0.2,0.2,0.8","1","",""
"","html-keyboard-response","11","28258","0.0-11.0","3YT88D1N09K989NCLVWJAA2RKY53KX","A1ROEDVMTO9Y3X","3UDTAB6HH6LRO17U79I9TKUGYFV09C","","null","<img src=""img/land2.png"" style=""width:200px; border:14px solid green;"">","null","","","","","","","","","",""
"","image-keyboard-response","12","29171","0.0-12.0","3YT88D1N09K989NCLVWJAA2RKY53KX","A1ROEDVMTO9Y3X","3UDTAB6HH6LRO17U79I9TKUGYFV09C","","911.2999999970198","img/land2.png","74","912.2000000029802","1","1","1","2","0.8,0.2,0.2,0.2,0.8,0.2,0.2,0.2,0.8","0.8,0.2,0.2,0.2,0.8,0.2,0.2,0.2,0.8","1","",""
"","html-keyboard-response","13","29472","0.0-13.0","3YT88D1N09K989NCLVWJAA2RKY53KX","A1ROEDVMTO9Y3X","3UDTAB6HH6LRO17U79I9TKUGYFV09C","","null","<img src=""img/land2.png"" style=""width:200px; border:14px solid green;"">","null","","","","","","","","","",""
"","image-keyboard-response","14","30408","0.0-14.0","3YT88D1N09K989NCLVWJAA2RKY53KX","A1ROEDVMTO9Y3X","3UDTAB6HH6LRO17U79I9TKUGYFV09C","","934.4000000059605","img/land2.png","74","935.5","1","1","1","2","0.8,0.2,0.2,0.2,0.8,0.2,0.2,0.2,0.8","0.8,0.2,0.2,0.2,0.8,0.2,0.2,0.2,0.8","1","",""
"","html-keyboard-response","15","30709","0.0-15.0","3YT88D1N09K989NCLVWJAA2RKY53KX","A1ROEDVMTO9Y3X","3UDTAB6HH6LRO17U79I9TKUGYFV09C","","null","<img src=""img/land2.png"" style=""width:200px; border:14px solid green;"">","null","","","","","","","","","",""
"","image-keyboard-response","16","31582","0.0-16.0","3YT88D1N09K989NCLVWJAA2RKY53KX","A1ROEDVMTO9Y3X","3UDTAB6HH6LRO17U79I9TKUGYFV09C","","870.8999999910593","img/land3.png","76","872","3","0","2","2","0.8,0.2,0.2,0.2,0.8,0.2,0.2,0.2,0.8","0.8,0.2,0.2,0.2,0.8,0.2,0.2,0.2,0.8","1","",""
"","html-keyboard-response","17","31884","0.0-17.0","3YT88D1N09K989NCLVWJAA2RKY53KX","A1ROEDVMTO9Y3X","3UDTAB6HH6LRO17U79I9TKUGYFV09C","","null","<img src=""img/land3.png"" style=""width:200px;border:14px solid red;"">","null","","","","","","","","","",""
"","image-keyboard-response","18","33178","0.0-18.0","3YT88D1N09K989NCLVWJAA2RKY53KX","A1ROEDVMTO9Y3X","3UDTAB6HH6LRO17U79I9TKUGYFV09C","","1294.2000000029802","img/land5.png","75","1294.800000011921","2","0","3","2","0.8,0.2,0.2,0.2,0.8,0.2,0.2,0.2,0.8","0.8,0.2,0.2,0.2,0.8,0.2,0.2,0.2,0.8","1","",""
"","html-keyboard-response","19","33480","0.0-19.0","3YT88D1N09K989NCLVWJAA2RKY53KX","A1ROEDVMTO9Y3X","3UDTAB6HH6LRO17U79I9TKUGYFV09C","","null","<img src=""img/land5.png"" style=""width:200px;border:14px solid red;"">","null","","","","","","","","","",""
"","image-keyboard-response","20","33666","0.0-20.0","3YT88D1N09K989NCLVWJAA2RKY53KX","A1ROEDVMTO9Y3X","3UDTAB6HH6LRO17U79I9TKUGYFV09C","","185.20000000298023","img/land2.png","74","186.1000000089407","1","1","1","2","0.8,0.2,0.2,0.2,0.8,0.2,0.2,0.2,0.8","0.8,0.2,0.2,0.2,0.8,0.2,0.2,0.2,0.8","1","",""
"","html-keyboard-response","21","33969","0.0-21.0","3YT88D1N09K989NCLVWJAA2RKY53KX","A1ROEDVMTO9Y3X","3UDTAB6HH6LRO17U79I9TKUGYFV09C","","null","<img src=""img/land2.png"" style=""width:200px; border:14px solid green;"">","null","","","","","","","","","",""
"","image-keyboard-response","22","34663","0.0-22.0","3YT88D1N09K989NCLVWJAA2RKY53KX","A1ROEDVMTO9Y3X","3UDTAB6HH6LRO17U79I9TKUGYFV09C","","691.4000000059605","img/land5.png","74","692.6999999880791","1","1","3","2","0.8,0.2,0.2,0.2,0.8,0.2,0.2,0.2,0.8","0.8,0.2,0.2,0.2,0.8,0.2,0.2,0.2,0.8","1","",""
"","html-keyboard-response","23","34965","0.0-23.0","3YT88D1N09K989NCLVWJAA2RKY53KX","A1ROEDVMTO9Y3X","3UDTAB6HH6LRO17U79I9TKUGYFV09C","","null","<img src=""img/land5.png"" style=""width:200px; border:14px solid green;"">","null","","","","","","","","","",""
"","image-keyboard-response","24","35540","0.0-24.0","3YT88D1N09K989NCLVWJAA2RKY53KX","A1ROEDVMTO9Y3X","3UDTAB6HH6LRO17U79I9TKUGYFV09C","","573.6000000089407","img/land2.png","75","574.7000000029802","2","0","1","2","0.8,0.2,0.2,0.2,0.8,0.2,0.2,0.2,0.8","0.8,0.2,0.2,0.2,0.8,0.2,0.2,0.2,0.8","1","",""
"","html-keyboard-response","25","35842","0.0-25.0","3YT88D1N09K989NCLVWJAA2RKY53KX","A1ROEDVMTO9Y3X","3UDTAB6HH6LRO17U79I9TKUGYFV09C","","null","<img src=""img/land2.png"" style=""width:200px;border:14px solid red;"">","null","","","","","","","","","",""
"","image-keyboard-response","26","36434","0.0-26.0","3YT88D1N09K989NCLVWJAA2RKY53KX","A1ROEDVMTO9Y3X","3UDTAB6HH6LRO17U79I9TKUGYFV09C","","590","img/land2.png","74","591.3999999910593","1","1","1","2","0.8,0.2,0.2,0.2,0.8,0.2,0.2,0.2,0.8","0.8,0.2,0.2,0.2,0.8,0.2,0.2,0.2,0.8","1","",""
"","html-keyboard-response","27","36736","0.0-27.0","3YT88D1N09K989NCLVWJAA2RKY53KX","A1ROEDVMTO9Y3X","3UDTAB6HH6LRO17U79I9TKUGYFV09C","","null","<img src=""img/land2.png"" style=""width:200px; border:14px solid green;"">","null","","","","","","","","","",""
"","image-keyboard-response","28","37791","0.0-28.0","3YT88D1N09K989NCLVWJAA2RKY53KX","A1ROEDVMTO9Y3X","3UDTAB6HH6LRO17U79I9TKUGYFV09C","","1053.2000000029802","img/land2.png","74","1054.5","1","0","1","2","0.8,0.2,0.2,0.2,0.8,0.2,0.2,0.2,0.8","0.8,0.2,0.2,0.2,0.8,0.2,0.2,0.2,0.8","1","",""
"","html-keyboard-response","29","38093","0.0-29.0","3YT88D1N09K989NCLVWJAA2RKY53KX","A1ROEDVMTO9Y3X","3UDTAB6HH6LRO17U79I9TKUGYFV09C","","null","<img src=""img/land2.png"" style=""width:200px;border:14px solid red;"">","null","","","","","","","","","",""
"","image-keyboard-response","30","38901","0.0-30.0","3YT88D1N09K989NCLVWJAA2RKY53KX","A1ROEDVMTO9Y3X","3UDTAB6HH6LRO17U79I9TKUGYFV09C","","806.7000000029802","img/land2.png","74","808.2999999970198","1","1","1","2","0.8,0.2,0.2,0.2,0.8,0.2,0.2,0.2,0.8","0.8,0.2,0.2,0.2,0.8,0.2,0.2,0.2,0.8","1","",""
"","html-keyboard-response","31","39204","0.0-31.0","3YT88D1N09K989NCLVWJAA2RKY53KX","A1ROEDVMTO9Y3X","3UDTAB6HH6LRO17U79I9TKUGYFV09C","","null","<img src=""img/land2.png"" style=""width:200px; border:14px solid green;"">","null","","","","","","","","","",""
"","image-keyboard-response","32","39403","0.0-32.0","3YT88D1N09K989NCLVWJAA2RKY53KX","A1ROEDVMTO9Y3X","3UDTAB6HH6LRO17U79I9TKUGYFV09C","","198.40000000596046","img/land5.png","76","199.20000000298023","3","1","3","2","0.8,0.2,0.2,0.2,0.8,0.2,0.2,0.2,0.8","0.8,0.2,0.2,0.2,0.8,0.2,0.2,0.2,0.8","1","",""
"","html-keyboard-response","33","39705","0.0-33.0","3YT88D1N09K989NCLVWJAA2RKY53KX","A1ROEDVMTO9Y3X","3UDTAB6HH6LRO17U79I9TKUGYFV09C","","null","<img src=""img/land5.png"" style=""width:200px; border:14px solid green;"">","null","","","","","","","","","",""
"","image-keyboard-response","34","40502","0.0-34.0","3YT88D1N09K989NCLVWJAA2RKY53KX","A1ROEDVMTO9Y3X","3UDTAB6HH6LRO17U79I9TKUGYFV09C","","794.5","img/land2.png","74","795.9000000059605","1","1","1","2","0.8,0.2,0.2,0.2,0.8,0.2,0.2,0.2,0.8","0.8,0.2,0.2,0.2,0.8,0.2,0.2,0.2,0.8","1","",""
"","html-keyboard-response","35","40804","0.0-35.0","3YT88D1N09K989NCLVWJAA2RKY53KX","A1ROEDVMTO9Y3X","3UDTAB6HH6LRO17U79I9TKUGYFV09C","","null","<img src=""img/land2.png"" style=""width:200px; border:14px solid green;"">","null","","","","","","","","","",""
"","image-keyboard-response","36","41275","0.0-36.0","3YT88D1N09K989NCLVWJAA2RKY53KX","A1ROEDVMTO9Y3X","3UDTAB6HH6LRO17U79I9TKUGYFV09C","","470.09999999403954","img/land5.png","75","470.70000000298023","2","0","3","2","0.8,0.2,0.2,0.2,0.8,0.2,0.2,0.2,0.8","0.8,0.2,0.2,0.2,0.8,0.2,0.2,0.2,0.8","1","",""
"","html-keyboard-response","37","41576","0.0-37.0","3YT88D1N09K989NCLVWJAA2RKY53KX","A1ROEDVMTO9Y3X","3UDTAB6HH6LRO17U79I9TKUGYFV09C","","null","<img src=""img/land5.png"" style=""width:200px;border:14px solid red;"">","null","","","","","","","","","",""
"","image-keyboard-response","38","41890","0.0-38.0","3YT88D1N09K989NCLVWJAA2RKY53KX","A1ROEDVMTO9Y3X","3UDTAB6HH6LRO17U79I9TKUGYFV09C","","312.09999999403954","img/land2.png","74","313.29999999701977","1","0","1","2","0.8,0.2,0.2,0.2,0.8,0.2,0.2,0.2,0.8","0.8,0.2,0.2,0.2,0.8,0.2,0.2,0.2,0.8","1","",""
"","html-keyboard-response","39","42191","0.0-39.0","3YT88D1N09K989NCLVWJAA2RKY53KX","A1ROEDVMTO9Y3X","3UDTAB6HH6LRO17U79I9TKUGYFV09C","","null","<img src=""img/land2.png"" style=""width:200px;border:14px solid red;"">","null","","","","","","","","","",""
"","image-keyboard-response","40","42681","0.0-40.0","3YT88D1N09K989NCLVWJAA2RKY53KX","A1ROEDVMTO9Y3X","3UDTAB6HH6LRO17U79I9TKUGYFV09C","","489.6000000089407","img/land2.png","76","490","3","1","1","2","0.8,0.2,0.2,0.2,0.8,0.2,0.2,0.2,0.8","0.8,0.2,0.2,0.2,0.8,0.2,0.2,0.2,0.8","1","",""
"","html-keyboard-response","41","42983","0.0-41.0","3YT88D1N09K989NCLVWJAA2RKY53KX","A1ROEDVMTO9Y3X","3UDTAB6HH6LRO17U79I9TKUGYFV09C","","null","<img src=""img/land2.png"" style=""width:200px; border:14px solid green;"">","null","","","","","","","","","",""
"","image-keyboard-response","42","43493","0.0-42.0","3YT88D1N09K989NCLVWJAA2RKY53KX","A1ROEDVMTO9Y3X","3UDTAB6HH6LRO17U79I9TKUGYFV09C","","508.20000000298023","img/land2.png","76","509.59999999403954","3","0","1","2","0.8,0.2,0.2,0.2,0.8,0.2,0.2,0.2,0.8","0.8,0.2,0.2,0.2,0.8,0.2,0.2,0.2,0.8","1","",""
"","html-keyboard-response","43","43795","0.0-43.0","3YT88D1N09K989NCLVWJAA2RKY53KX","A1ROEDVMTO9Y3X","3UDTAB6HH6LRO17U79I9TKUGYFV09C","","null","<img src=""img/land2.png"" style=""width:200px;border:14px solid red;"">","null","","","","","","","","","",""
"","image-keyboard-response","44","44238","0.0-44.0","3YT88D1N09K989NCLVWJAA2RKY53KX","A1ROEDVMTO9Y3X","3UDTAB6HH6LRO17U79I9TKUGYFV09C","","440.8999999910593","img/land5.png","74","442","1","1","3","2","0.8,0.2,0.2,0.2,0.8,0.2,0.2,0.2,0.8","0.8,0.2,0.2,0.2,0.8,0.2,0.2,0.2,0.8","1","",""
"","html-keyboard-response","45","44539","0.0-45.0","3YT88D1N09K989NCLVWJAA2RKY53KX","A1ROEDVMTO9Y3X","3UDTAB6HH6LRO17U79I9TKUGYFV09C","","null","<img src=""img/land5.png"" style=""width:200px; border:14px solid green;"">","null","","","","","","","","","",""
"","image-keyboard-response","46","45124","0.0-46.0","3YT88D1N09K989NCLVWJAA2RKY53KX","A1ROEDVMTO9Y3X","3UDTAB6HH6LRO17U79I9TKUGYFV09C","","583","img/land2.png","74","584.2999999970198","1","1","1","2","0.8,0.2,0.2,0.2,0.8,0.2,0.2,0.2,0.8","0.8,0.2,0.2,0.2,0.8,0.2,0.2,0.2,0.8","1","",""
"","html-keyboard-response","47","45427","0.0-47.0","3YT88D1N09K989NCLVWJAA2RKY53KX","A1ROEDVMTO9Y3X","3UDTAB6HH6LRO17U79I9TKUGYFV09C","","null","<img src=""img/land2.png"" style=""width:200px; border:14px solid green;"">","null","","","","","","","","","",""
"","image-keyboard-response","48","45728","0.0-48.0","3YT88D1N09K989NCLVWJAA2RKY53KX","A1ROEDVMTO9Y3X","3UDTAB6HH6LRO17U79I9TKUGYFV09C","","300.29999999701977","img/land5.png","75","301.5","2","0","3","2","0.8,0.2,0.2,0.2,0.8,0.2,0.2,0.2,0.8","0.8,0.2,0.2,0.2,0.8,0.2,0.2,0.2,0.8","1","",""
"","html-keyboard-response","49","46030","0.0-49.0","3YT88D1N09K989NCLVWJAA2RKY53KX","A1ROEDVMTO9Y3X","3UDTAB6HH6LRO17U79I9TKUGYFV09C","","null","<img src=""img/land5.png"" style=""width:200px;border:14px solid red;"">","null","","","","","","","","","",""
"","image-keyboard-response","50","46429","0.0-50.0","3YT88D1N09K989NCLVWJAA2RKY53KX","A1ROEDVMTO9Y3X","3UDTAB6HH6LRO17U79I9TKUGYFV09C","","396.79999999701977","img/land5.png","74","398.09999999403954","1","0","3","2","0.8,0.2,0.2,0.2,0.8,0.2,0.2,0.2,0.8","0.8,0.2,0.2,0.2,0.8,0.2,0.2,0.2,0.8","1","",""
"","html-keyboard-response","51","46731","0.0-51.0","3YT88D1N09K989NCLVWJAA2RKY53KX","A1ROEDVMTO9Y3X","3UDTAB6HH6LRO17U79I9TKUGYFV09C","","null","<img src=""img/land5.png"" style=""width:200px;border:14px solid red;"">","null","","","","","","","","","",""
"","image-keyboard-response","52","47316","0.0-52.0","3YT88D1N09K989NCLVWJAA2RKY53KX","A1ROEDVMTO9Y3X","3UDTAB6HH6LRO17U79I9TKUGYFV09C","","583.7000000029802","img/land2.png","76","585.1999999880791","3","0","1","2","0.8,0.2,0.2,0.2,0.8,0.2,0.2,0.2,0.8","0.8,0.2,0.2,0.2,0.8,0.2,0.2,0.2,0.8","1","",""
"","html-keyboard-response","53","47619","0.0-53.0","3YT88D1N09K989NCLVWJAA2RKY53KX","A1ROEDVMTO9Y3X","3UDTAB6HH6LRO17U79I9TKUGYFV09C","","null","<img src=""img/land2.png"" style=""width:200px;border:14px solid red;"">","null","","","","","","","","","",""
"","image-keyboard-response","54","48453","0.0-54.0","3YT88D1N09K989NCLVWJAA2RKY53KX","A1ROEDVMTO9Y3X","3UDTAB6HH6LRO17U79I9TKUGYFV09C","","833.0999999940395","img/land5.png","74","834.2000000029802","1","1","3","2","0.8,0.2,0.2,0.2,0.8,0.2,0.2,0.2,0.8","0.8,0.2,0.2,0.2,0.8,0.2,0.2,0.2,0.8","1","",""
"","html-keyboard-response","55","48755","0.0-55.0","3YT88D1N09K989NCLVWJAA2RKY53KX","A1ROEDVMTO9Y3X","3UDTAB6HH6LRO17U79I9TKUGYFV09C","","null","<img src=""img/land5.png"" style=""width:200px; border:14px solid green;"">","null","","","","","","","","","",""
"","image-keyboard-response","56","49310","0.0-56.0","3YT88D1N09K989NCLVWJAA2RKY53KX","A1ROEDVMTO9Y3X","3UDTAB6HH6LRO17U79I9TKUGYFV09C","","553.8999999910593","img/land3.png","74","555","1","0","2","2","0.8,0.2,0.2,0.2,0.8,0.2,0.2,0.2,0.8","0.8,0.2,0.2,0.2,0.8,0.2,0.2,0.2,0.8","1","",""
"","html-keyboard-response","57","49611","0.0-57.0","3YT88D1N09K989NCLVWJAA2RKY53KX","A1ROEDVMTO9Y3X","3UDTAB6HH6LRO17U79I9TKUGYFV09C","","null","<img src=""img/land3.png"" style=""width:200px;border:14px solid red;"">","null","","","","","","","","","",""
"","image-keyboard-response","58","50302","0.0-58.0","3YT88D1N09K989NCLVWJAA2RKY53KX","A1ROEDVMTO9Y3X","3UDTAB6HH6LRO17U79I9TKUGYFV09C","","689","img/land5.png","76","690.2999999970198","3","1","3","2","0.8,0.2,0.2,0.2,0.8,0.2,0.2,0.2,0.8","0.8,0.2,0.2,0.2,0.8,0.2,0.2,0.2,0.8","1","",""
"","html-keyboard-response","59","50605","0.0-59.0","3YT88D1N09K989NCLVWJAA2RKY53KX","A1ROEDVMTO9Y3X","3UDTAB6HH6LRO17U79I9TKUGYFV09C","","null","<img src=""img/land5.png"" style=""width:200px; border:14px solid green;"">","null","","","","","","","","","",""
"","image-keyboard-response","60","51142","0.0-60.0","3YT88D1N09K989NCLVWJAA2RKY53KX","A1ROEDVMTO9Y3X","3UDTAB6HH6LRO17U79I9TKUGYFV09C","","536.0999999940395","img/land2.png","76","537.2000000029802","3","0","1","2","0.8,0.2,0.2,0.2,0.8,0.2,0.2,0.2,0.8","0.8,0.2,0.2,0.2,0.8,0.2,0.2,0.2,0.8","1","",""
"","html-keyboard-response","61","51444","0.0-61.0","3YT88D1N09K989NCLVWJAA2RKY53KX","A1ROEDVMTO9Y3X","3UDTAB6HH6LRO17U79I9TKUGYFV09C","","null","<img src=""img/land2.png"" style=""width:200px;border:14px solid red;"">","null","","","","","","","","","",""
"","image-keyboard-response","62","52149","0.0-62.0","3YT88D1N09K989NCLVWJAA2RKY53KX","A1ROEDVMTO9Y3X","3UDTAB6HH6LRO17U79I9TKUGYFV09C","","704","img/land2.png","75","705.1000000089407","2","1","1","2","0.8,0.2,0.2,0.2,0.8,0.2,0.2,0.2,0.8","0.8,0.2,0.2,0.2,0.8,0.2,0.2,0.2,0.8","1","",""
"","html-keyboard-response","63","52451","0.0-63.0","3YT88D1N09K989NCLVWJAA2RKY53KX","A1ROEDVMTO9Y3X","3UDTAB6HH6LRO17U79I9TKUGYFV09C","","null","<img src=""img/land2.png"" style=""width:200px; border:14px solid green;"">","null","","","","","","","","","",""
"","image-keyboard-response","64","53386","0.0-64.0","3YT88D1N09K989NCLVWJAA2RKY53KX","A1ROEDVMTO9Y3X","3UDTAB6HH6LRO17U79I9TKUGYFV09C","","933.7999999970198","img/land2.png","75","934.7000000029802","2","1","1","2","0.8,0.2,0.2,0.2,0.8,0.2,0.2,0.2,0.8","0.8,0.2,0.2,0.2,0.8,0.2,0.2,0.2,0.8","1","",""
"","html-keyboard-response","65","53688","0.0-65.0","3YT88D1N09K989NCLVWJAA2RKY53KX","A1ROEDVMTO9Y3X","3UDTAB6HH6LRO17U79I9TKUGYFV09C","","null","<img src=""img/land2.png"" style=""width:200px; border:14px solid green;"">","null","","","","","","","","","",""
"","image-keyboard-response","66","54379","0.0-66.0","3YT88D1N09K989NCLVWJAA2RKY53KX","A1ROEDVMTO9Y3X","3UDTAB6HH6LRO17U79I9TKUGYFV09C","","689.3999999910593","img/land5.png","74","690.7999999970198","1","1","3","2","0.8,0.2,0.2,0.2,0.8,0.2,0.2,0.2,0.8","0.8,0.2,0.2,0.2,0.8,0.2,0.2,0.2,0.8","1","",""
"","html-keyboard-response","67","54682","0.0-67.0","3YT88D1N09K989NCLVWJAA2RKY53KX","A1ROEDVMTO9Y3X","3UDTAB6HH6LRO17U79I9TKUGYFV09C","","null","<img src=""img/land5.png"" style=""width:200px; border:14px solid green;"">","null","","","","","","","","","",""
"","image-keyboard-response","68","55443","0.0-68.0","3YT88D1N09K989NCLVWJAA2RKY53KX","A1ROEDVMTO9Y3X","3UDTAB6HH6LRO17U79I9TKUGYFV09C","","760.1000000089407","img/land2.png","74","761.1000000089407","1","1","1","2","0.8,0.2,0.2,0.2,0.8,0.2,0.2,0.2,0.8","0.8,0.2,0.2,0.2,0.8,0.2,0.2,0.2,0.8","1","",""
"","html-keyboard-response","69","55745","0.0-69.0","3YT88D1N09K989NCLVWJAA2RKY53KX","A1ROEDVMTO9Y3X","3UDTAB6HH6LRO17U79I9TKUGYFV09C","","null","<img src=""img/land2.png"" style=""width:200px; border:14px solid green;"">","null","","","","","","","","","",""
"","image-keyboard-response","70","56476","0.0-70.0","3YT88D1N09K989NCLVWJAA2RKY53KX","A1ROEDVMTO9Y3X","3UDTAB6HH6LRO17U79I9TKUGYFV09C","","730.6000000089407","img/land2.png","74","731.2000000029802","1","1","1","2","0.8,0.2,0.2,0.2,0.8,0.2,0.2,0.2,0.8","0.8,0.2,0.2,0.2,0.8,0.2,0.2,0.2,0.8","1","",""
"","html-keyboard-response","71","56778","0.0-71.0","3YT88D1N09K989NCLVWJAA2RKY53KX","A1ROEDVMTO9Y3X","3UDTAB6HH6LRO17U79I9TKUGYFV09C","","null","<img src=""img/land2.png"" style=""width:200px; border:14px solid green;"">","null","","","","","","","","","",""
"","image-keyboard-response","72","57604","0.0-72.0","3YT88D1N09K989NCLVWJAA2RKY53KX","A1ROEDVMTO9Y3X","3UDTAB6HH6LRO17U79I9TKUGYFV09C","","824.9000000059605","img/land2.png","74","826.2000000029802","1","1","1","2","0.8,0.2,0.2,0.2,0.8,0.2,0.2,0.2,0.8","0.8,0.2,0.2,0.2,0.8,0.2,0.2,0.2,0.8","1","",""
"","html-keyboard-response","73","57907","0.0-73.0","3YT88D1N09K989NCLVWJAA2RKY53KX","A1ROEDVMTO9Y3X","3UDTAB6HH6LRO17U79I9TKUGYFV09C","","null","<img src=""img/land2.png"" style=""width:200px; border:14px solid green;"">","null","","","","","","","","","",""
"","image-keyboard-response","74","58378","0.0-74.0","3YT88D1N09K989NCLVWJAA2RKY53KX","A1ROEDVMTO9Y3X","3UDTAB6HH6LRO17U79I9TKUGYFV09C","","469.1000000089407","img/land5.png","74","470.5","1","0","3","2","0.8,0.2,0.2,0.2,0.8,0.2,0.2,0.2,0.8","0.8,0.2,0.2,0.2,0.8,0.2,0.2,0.2,0.8","1","",""
"","html-keyboard-response","75","58680","0.0-75.0","3YT88D1N09K989NCLVWJAA2RKY53KX","A1ROEDVMTO9Y3X","3UDTAB6HH6LRO17U79I9TKUGYFV09C","","null","<img src=""img/land5.png"" style=""width:200px;border:14px solid red;"">","null","","","","","","","","","",""
"","image-keyboard-response","76","59277","0.0-76.0","3YT88D1N09K989NCLVWJAA2RKY53KX","A1ROEDVMTO9Y3X","3UDTAB6HH6LRO17U79I9TKUGYFV09C","","596.5","img/land2.png","74","597","1","1","1","2","0.8,0.2,0.2,0.2,0.8,0.2,0.2,0.2,0.8","0.8,0.2,0.2,0.2,0.8,0.2,0.2,0.2,0.8","1","",""
"","html-keyboard-response","77","59578","0.0-77.0","3YT88D1N09K989NCLVWJAA2RKY53KX","A1ROEDVMTO9Y3X","3UDTAB6HH6LRO17U79I9TKUGYFV09C","","null","<img src=""img/land2.png"" style=""width:200px; border:14px solid green;"">","null","","","","","","","","","",""
"","image-keyboard-response","78","60089","0.0-78.0","3YT88D1N09K989NCLVWJAA2RKY53KX","A1ROEDVMTO9Y3X","3UDTAB6HH6LRO17U79I9TKUGYFV09C","","509.79999999701977","img/land5.png","76","511","3","1","3","2","0.8,0.2,0.2,0.2,0.8,0.2,0.2,0.2,0.8","0.8,0.2,0.2,0.2,0.8,0.2,0.2,0.2,0.8","1","",""
"","html-keyboard-response","79","60392","0.0-79.0","3YT88D1N09K989NCLVWJAA2RKY53KX","A1ROEDVMTO9Y3X","3UDTAB6HH6LRO17U79I9TKUGYFV09C","","null","<img src=""img/land5.png"" style=""width:200px; border:14px solid green;"">","null","","","","","","","","","",""
"","image-keyboard-response","80","60717","0.0-80.0","3YT88D1N09K989NCLVWJAA2RKY53KX","A1ROEDVMTO9Y3X","3UDTAB6HH6LRO17U79I9TKUGYFV09C","","323.70000000298023","img/land2.png","75","324.59999999403954","2","0","1","2","0.8,0.2,0.2,0.2,0.8,0.2,0.2,0.2,0.8","0.8,0.2,0.2,0.2,0.8,0.2,0.2,0.2,0.8","1","",""
"","html-keyboard-response","81","61019","0.0-81.0","3YT88D1N09K989NCLVWJAA2RKY53KX","A1ROEDVMTO9Y3X","3UDTAB6HH6LRO17U79I9TKUGYFV09C","","null","<img src=""img/land2.png"" style=""width:200px;border:14px solid red;"">","null","","","","","","","","","",""
"","image-keyboard-response","82","61539","0.0-82.0","3YT88D1N09K989NCLVWJAA2RKY53KX","A1ROEDVMTO9Y3X","3UDTAB6HH6LRO17U79I9TKUGYFV09C","","518.7999999970198","img/land2.png","76","520","3","0","1","2","0.8,0.2,0.2,0.2,0.8,0.2,0.2,0.2,0.8","0.8,0.2,0.2,0.2,0.8,0.2,0.2,0.2,0.8","1","",""
"","html-keyboard-response","83","61840","0.0-83.0","3YT88D1N09K989NCLVWJAA2RKY53KX","A1ROEDVMTO9Y3X","3UDTAB6HH6LRO17U79I9TKUGYFV09C","","null","<img src=""img/land2.png"" style=""width:200px;border:14px solid red;"">","null","","","","","","","","","",""
"","image-keyboard-response","84","62274","0.0-84.0","3YT88D1N09K989NCLVWJAA2RKY53KX","A1ROEDVMTO9Y3X","3UDTAB6HH6LRO17U79I9TKUGYFV09C","","433.29999999701977","img/land2.png","74","434.09999999403954","1","1","1","2","0.8,0.2,0.2,0.2,0.8,0.2,0.2,0.2,0.8","0.8,0.2,0.2,0.2,0.8,0.2,0.2,0.2,0.8","1","",""
"","html-keyboard-response","85","62577","0.0-85.0","3YT88D1N09K989NCLVWJAA2RKY53KX","A1ROEDVMTO9Y3X","3UDTAB6HH6LRO17U79I9TKUGYFV09C","","null","<img src=""img/land2.png"" style=""width:200px; border:14px solid green;"">","null","","","","","","","","","",""
"","image-keyboard-response","86","63029","0.0-86.0","3YT88D1N09K989NCLVWJAA2RKY53KX","A1ROEDVMTO9Y3X","3UDTAB6HH6LRO17U79I9TKUGYFV09C","","450.59999999403954","img/land5.png","74","451.5","1","0","3","2","0.8,0.2,0.2,0.2,0.8,0.2,0.2,0.2,0.8","0.8,0.2,0.2,0.2,0.8,0.2,0.2,0.2,0.8","1","",""
"","html-keyboard-response","87","63331","0.0-87.0","3YT88D1N09K989NCLVWJAA2RKY53KX","A1ROEDVMTO9Y3X","3UDTAB6HH6LRO17U79I9TKUGYFV09C","","null","<img src=""img/land5.png"" style=""width:200px;border:14px solid red;"">","null","","","","","","","","","",""
"","image-keyboard-response","88","64141","0.0-88.0","3YT88D1N09K989NCLVWJAA2RKY53KX","A1ROEDVMTO9Y3X","3UDTAB6HH6LRO17U79I9TKUGYFV09C","","808.2999999970198","img/land2.png","75","809.4000000059605","2","0","1","2","0.8,0.2,0.2,0.2,0.8,0.2,0.2,0.2,0.8","0.8,0.2,0.2,0.2,0.8,0.2,0.2,0.2,0.8","1","",""
"","html-keyboard-response","89","64443","0.0-89.0","3YT88D1N09K989NCLVWJAA2RKY53KX","A1ROEDVMTO9Y3X","3UDTAB6HH6LRO17U79I9TKUGYFV09C","","null","<img src=""img/land2.png"" style=""width:200px;border:14px solid red;"">","null","","","","","","","","","",""
"","image-keyboard-response","90","65012","0.0-90.0","3YT88D1N09K989NCLVWJAA2RKY53KX","A1ROEDVMTO9Y3X","3UDTAB6HH6LRO17U79I9TKUGYFV09C","","566.8999999910593","img/land5.png","74","568.2000000029802","1","0","3","2","0.8,0.2,0.2,0.2,0.8,0.2,0.2,0.2,0.8","0.8,0.2,0.2,0.2,0.8,0.2,0.2,0.2,0.8","1","",""
"","html-keyboard-response","91","65313","0.0-91.0","3YT88D1N09K989NCLVWJAA2RKY53KX","A1ROEDVMTO9Y3X","3UDTAB6HH6LRO17U79I9TKUGYFV09C","","null","<img src=""img/land5.png"" style=""width:200px;border:14px solid red;"">","null","","","","","","","","","",""
"","image-keyboard-response","92","65856","0.0-92.0","3YT88D1N09K989NCLVWJAA2RKY53KX","A1ROEDVMTO9Y3X","3UDTAB6HH6LRO17U79I9TKUGYFV09C","","541.7999999970198","img/land5.png","76","542.5","3","0","3","2","0.8,0.2,0.2,0.2,0.8,0.2,0.2,0.2,0.8","0.8,0.2,0.2,0.2,0.8,0.2,0.2,0.2,0.8","1","",""
"","html-keyboard-response","93","66157","0.0-93.0","3YT88D1N09K989NCLVWJAA2RKY53KX","A1ROEDVMTO9Y3X","3UDTAB6HH6LRO17U79I9TKUGYFV09C","","null","<img src=""img/land5.png"" style=""width:200px;border:14px solid red;"">","null","","","","","","","","","",""
"","image-keyboard-response","94","66976","0.0-94.0","3YT88D1N09K989NCLVWJAA2RKY53KX","A1ROEDVMTO9Y3X","3UDTAB6HH6LRO17U79I9TKUGYFV09C","","818.2999999970198","img/land3.png","76","818.9000000059605","3","0","2","2","0.8,0.2,0.2,0.2,0.8,0.2,0.2,0.2,0.8","0.8,0.2,0.2,0.2,0.8,0.2,0.2,0.2,0.8","1","",""
"","html-keyboard-response","95","67278","0.0-95.0","3YT88D1N09K989NCLVWJAA2RKY53KX","A1ROEDVMTO9Y3X","3UDTAB6HH6LRO17U79I9TKUGYFV09C","","null","<img src=""img/land3.png"" style=""width:200px;border:14px solid red;"">","null","","","","","","","","","",""
"","image-keyboard-response","96","68066","0.0-96.0","3YT88D1N09K989NCLVWJAA2RKY53KX","A1ROEDVMTO9Y3X","3UDTAB6HH6LRO17U79I9TKUGYFV09C","","786.7999999970198","img/land5.png","75","788.1000000089407","2","0","3","2","0.8,0.2,0.2,0.2,0.8,0.2,0.2,0.2,0.8","0.8,0.2,0.2,0.2,0.8,0.2,0.2,0.2,0.8","1","",""
"","html-keyboard-response","97","68369","0.0-97.0","3YT88D1N09K989NCLVWJAA2RKY53KX","A1ROEDVMTO9Y3X","3UDTAB6HH6LRO17U79I9TKUGYFV09C","","null","<img src=""img/land5.png"" style=""width:200px;border:14px solid red;"">","null","","","","","","","","","",""
"","image-keyboard-response","98","68783","0.0-98.0","3YT88D1N09K989NCLVWJAA2RKY53KX","A1ROEDVMTO9Y3X","3UDTAB6HH6LRO17U79I9TKUGYFV09C","","412.29999999701977","img/land2.png","74","413.59999999403954","1","1","1","2","0.8,0.2,0.2,0.2,0.8,0.2,0.2,0.2,0.8","0.8,0.2,0.2,0.2,0.8,0.2,0.2,0.2,0.8","1","",""
"","html-keyboard-response","99","69085","0.0-99.0","3YT88D1N09K989NCLVWJAA2RKY53KX","A1ROEDVMTO9Y3X","3UDTAB6HH6LRO17U79I9TKUGYFV09C","","null","<img src=""img/land2.png"" style=""width:200px; border:14px solid green;"">","null","","","","","","","","","",""
"","image-keyboard-response","100","69530","0.0-100.0","3YT88D1N09K989NCLVWJAA2RKY53KX","A1ROEDVMTO9Y3X","3UDTAB6HH6LRO17U79I9TKUGYFV09C","","444.09999999403954","img/land2.png","74","445.29999999701977","1","1","1","2","0.8,0.2,0.2,0.2,0.8,0.2,0.2,0.2,0.8","0.8,0.2,0.2,0.2,0.8,0.2,0.2,0.2,0.8","1","",""
"","html-keyboard-response","101","69832","0.0-101.0","3YT88D1N09K989NCLVWJAA2RKY53KX","A1ROEDVMTO9Y3X","3UDTAB6HH6LRO17U79I9TKUGYFV09C","","null","<img src=""img/land2.png"" style=""width:200px; border:14px solid green;"">","null","","","","","","","","","",""
"","image-keyboard-response","102","70504","0.0-102.0","3YT88D1N09K989NCLVWJAA2RKY53KX","A1ROEDVMTO9Y3X","3UDTAB6HH6LRO17U79I9TKUGYFV09C","","670.4000000059605","img/land3.png","74","671.7000000029802","1","0","2","2","0.8,0.2,0.2,0.2,0.8,0.2,0.2,0.2,0.8","0.8,0.2,0.2,0.2,0.8,0.2,0.2,0.2,0.8","1","",""
"","html-keyboard-response","103","70807","0.0-103.0","3YT88D1N09K989NCLVWJAA2RKY53KX","A1ROEDVMTO9Y3X","3UDTAB6HH6LRO17U79I9TKUGYFV09C","","null","<img src=""img/land3.png"" style=""width:200px;border:14px solid red;"">","null","","","","","","","","","",""
"","image-keyboard-response","104","72019","0.0-104.0","3YT88D1N09K989NCLVWJAA2RKY53KX","A1ROEDVMTO9Y3X","3UDTAB6HH6LRO17U79I9TKUGYFV09C","","1210.8999999910593","img/land5.png","75","1212","2","0","3","2","0.8,0.2,0.2,0.2,0.8,0.2,0.2,0.2,0.8","0.8,0.2,0.2,0.2,0.8,0.2,0.2,0.2,0.8","1","",""
"","html-keyboard-response","105","72321","0.0-105.0","3YT88D1N09K989NCLVWJAA2RKY53KX","A1ROEDVMTO9Y3X","3UDTAB6HH6LRO17U79I9TKUGYFV09C","","null","<img src=""img/land5.png"" style=""width:200px;border:14px solid red;"">","null","","","","","","","","","",""
"","image-keyboard-response","106","72624","0.0-106.0","3YT88D1N09K989NCLVWJAA2RKY53KX","A1ROEDVMTO9Y3X","3UDTAB6HH6LRO17U79I9TKUGYFV09C","","300.59999999403954","img/land3.png","74","301.90000000596046","1","1","2","2","0.8,0.2,0.2,0.2,0.8,0.2,0.2,0.2,0.8","0.8,0.2,0.2,0.2,0.8,0.2,0.2,0.2,0.8","1","",""
"","html-keyboard-response","107","72926","0.0-107.0","3YT88D1N09K989NCLVWJAA2RKY53KX","A1ROEDVMTO9Y3X","3UDTAB6HH6LRO17U79I9TKUGYFV09C","","null","<img src=""img/land3.png"" style=""width:200px; border:14px solid green;"">","null","","","","","","","","","",""
"","image-keyboard-response","108","73481","0.0-108.0","3YT88D1N09K989NCLVWJAA2RKY53KX","A1ROEDVMTO9Y3X","3UDTAB6HH6LRO17U79I9TKUGYFV09C","","554.8000000119209","img/land2.png","76","555.7000000029802","3","1","1","2","0.8,0.2,0.2,0.2,0.8,0.2,0.2,0.2,0.8","0.8,0.2,0.2,0.2,0.8,0.2,0.2,0.2,0.8","1","",""
"","html-keyboard-response","109","73783","0.0-109.0","3YT88D1N09K989NCLVWJAA2RKY53KX","A1ROEDVMTO9Y3X","3UDTAB6HH6LRO17U79I9TKUGYFV09C","","null","<img src=""img/land2.png"" style=""width:200px; border:14px solid green;"">","null","","","","","","","","","",""
"","image-keyboard-response","110","74189","0.0-110.0","3YT88D1N09K989NCLVWJAA2RKY53KX","A1ROEDVMTO9Y3X","3UDTAB6HH6LRO17U79I9TKUGYFV09C","","404.59999999403954","img/land2.png","74","405.1000000089407","1","1","1","2","0.8,0.2,0.2,0.2,0.8,0.2,0.2,0.2,0.8","0.8,0.2,0.2,0.2,0.8,0.2,0.2,0.2,0.8","1","",""
"","html-keyboard-response","111","74490","0.0-111.0","3YT88D1N09K989NCLVWJAA2RKY53KX","A1ROEDVMTO9Y3X","3UDTAB6HH6LRO17U79I9TKUGYFV09C","","null","<img src=""img/land2.png"" style=""width:200px; border:14px solid green;"">","null","","","","","","","","","",""
"","image-keyboard-response","112","74985","0.0-112.0","3YT88D1N09K989NCLVWJAA2RKY53KX","A1ROEDVMTO9Y3X","3UDTAB6HH6LRO17U79I9TKUGYFV09C","","493.70000000298023","img/land2.png","74","494.80000001192093","1","1","1","2","0.8,0.2,0.2,0.2,0.8,0.2,0.2,0.2,0.8","0.8,0.2,0.2,0.2,0.8,0.2,0.2,0.2,0.8","1","",""
"","html-keyboard-response","113","75287","0.0-113.0","3YT88D1N09K989NCLVWJAA2RKY53KX","A1ROEDVMTO9Y3X","3UDTAB6HH6LRO17U79I9TKUGYFV09C","","null","<img src=""img/land2.png"" style=""width:200px; border:14px solid green;"">","null","","","","","","","","","",""
"","image-keyboard-response","114","75817","0.0-114.0","3YT88D1N09K989NCLVWJAA2RKY53KX","A1ROEDVMTO9Y3X","3UDTAB6HH6LRO17U79I9TKUGYFV09C","","529.3000000119209","img/land2.png","75","530.2000000029802","2","0","1","2","0.8,0.2,0.2,0.2,0.8,0.2,0.2,0.2,0.8","0.8,0.2,0.2,0.2,0.8,0.2,0.2,0.2,0.8","1","",""
"","html-keyboard-response","115","76119","0.0-115.0","3YT88D1N09K989NCLVWJAA2RKY53KX","A1ROEDVMTO9Y3X","3UDTAB6HH6LRO17U79I9TKUGYFV09C","","null","<img src=""img/land2.png"" style=""width:200px;border:14px solid red;"">","null","","","","","","","","","",""
"","image-keyboard-response","116","76510","0.0-116.0","3YT88D1N09K989NCLVWJAA2RKY53KX","A1ROEDVMTO9Y3X","3UDTAB6HH6LRO17U79I9TKUGYFV09C","","388.8999999910593","img/land3.png","74","390.20000000298023","1","0","2","2","0.8,0.2,0.2,0.2,0.8,0.2,0.2,0.2,0.8","0.8,0.2,0.2,0.2,0.8,0.2,0.2,0.2,0.8","1","",""
"","html-keyboard-response","117","76812","0.0-117.0","3YT88D1N09K989NCLVWJAA2RKY53KX","A1ROEDVMTO9Y3X","3UDTAB6HH6LRO17U79I9TKUGYFV09C","","null","<img src=""img/land3.png"" style=""width:200px;border:14px solid red;"">","null","","","","","","","","","",""
"","image-keyboard-response","118","77233","0.0-118.0","3YT88D1N09K989NCLVWJAA2RKY53KX","A1ROEDVMTO9Y3X","3UDTAB6HH6LRO17U79I9TKUGYFV09C","","419.29999999701977","img/land3.png","76","420.40000000596046","3","0","2","2","0.8,0.2,0.2,0.2,0.8,0.2,0.2,0.2,0.8","0.8,0.2,0.2,0.2,0.8,0.2,0.2,0.2,0.8","1","",""
"","html-keyboard-response","119","77534","0.0-119.0","3YT88D1N09K989NCLVWJAA2RKY53KX","A1ROEDVMTO9Y3X","3UDTAB6HH6LRO17U79I9TKUGYFV09C","","null","<img src=""img/land3.png"" style=""width:200px;border:14px solid red;"">","null","","","","","","","","","",""
"","image-keyboard-response","120","77870","0.0-120.0","3YT88D1N09K989NCLVWJAA2RKY53KX","A1ROEDVMTO9Y3X","3UDTAB6HH6LRO17U79I9TKUGYFV09C","","333.79999999701977","img/land2.png","75","335.29999999701977","2","1","1","2","0.8,0.2,0.2,0.2,0.8,0.2,0.2,0.2,0.8","0.8,0.2,0.2,0.2,0.8,0.2,0.2,0.2,0.8","1","",""
"","html-keyboard-response","121","78171","0.0-121.0","3YT88D1N09K989NCLVWJAA2RKY53KX","A1ROEDVMTO9Y3X","3UDTAB6HH6LRO17U79I9TKUGYFV09C","","null","<img src=""img/land2.png"" style=""width:200px; border:14px solid green;"">","null","","","","","","","","","",""
"","image-keyboard-response","122","78752","0.0-122.0","3YT88D1N09K989NCLVWJAA2RKY53KX","A1ROEDVMTO9Y3X","3UDTAB6HH6LRO17U79I9TKUGYFV09C","","579.7000000029802","img/land2.png","74","580.2999999970198","1","1","1","2","0.8,0.2,0.2,0.2,0.8,0.2,0.2,0.2,0.8","0.8,0.2,0.2,0.2,0.8,0.2,0.2,0.2,0.8","1","",""
"","html-keyboard-response","123","79053","0.0-123.0","3YT88D1N09K989NCLVWJAA2RKY53KX","A1ROEDVMTO9Y3X","3UDTAB6HH6LRO17U79I9TKUGYFV09C","","null","<img src=""img/land2.png"" style=""width:200px; border:14px solid green;"">","null","","","","","","","","","",""
"","image-keyboard-response","124","79436","0.0-124.0","3YT88D1N09K989NCLVWJAA2RKY53KX","A1ROEDVMTO9Y3X","3UDTAB6HH6LRO17U79I9TKUGYFV09C","","381","img/land3.png","75","382.29999999701977","2","1","2","2","0.8,0.2,0.2,0.2,0.8,0.2,0.2,0.2,0.8","0.8,0.2,0.2,0.2,0.8,0.2,0.2,0.2,0.8","1","",""
"","html-keyboard-response","125","79739","0.0-125.0","3YT88D1N09K989NCLVWJAA2RKY53KX","A1ROEDVMTO9Y3X","3UDTAB6HH6LRO17U79I9TKUGYFV09C","","null","<img src=""img/land3.png"" style=""width:200px; border:14px solid green;"">","null","","","","","","","","","",""
"","image-keyboard-response","126","80019","0.0-126.0","3YT88D1N09K989NCLVWJAA2RKY53KX","A1ROEDVMTO9Y3X","3UDTAB6HH6LRO17U79I9TKUGYFV09C","","278.59999999403954","img/land2.png","74","279.70000000298023","1","1","1","2","0.8,0.2,0.2,0.2,0.8,0.2,0.2,0.2,0.8","0.8,0.2,0.2,0.2,0.8,0.2,0.2,0.2,0.8","1","",""
"","html-keyboard-response","127","80320","0.0-127.0","3YT88D1N09K989NCLVWJAA2RKY53KX","A1ROEDVMTO9Y3X","3UDTAB6HH6LRO17U79I9TKUGYFV09C","","null","<img src=""img/land2.png"" style=""width:200px; border:14px solid green;"">","null","","","","","","","","","",""
"","image-keyboard-response","128","80876","0.0-128.0","3YT88D1N09K989NCLVWJAA2RKY53KX","A1ROEDVMTO9Y3X","3UDTAB6HH6LRO17U79I9TKUGYFV09C","","554.2000000029802","img/land2.png","75","555.3000000119209","2","1","1","2","0.8,0.2,0.2,0.2,0.8,0.2,0.2,0.2,0.8","0.8,0.2,0.2,0.2,0.8,0.2,0.2,0.2,0.8","1","",""
"","html-keyboard-response","129","81178","0.0-129.0","3YT88D1N09K989NCLVWJAA2RKY53KX","A1ROEDVMTO9Y3X","3UDTAB6HH6LRO17U79I9TKUGYFV09C","","null","<img src=""img/land2.png"" style=""width:200px; border:14px solid green;"">","null","","","","","","","","","",""
"","image-keyboard-response","130","81646","0.0-130.0","3YT88D1N09K989NCLVWJAA2RKY53KX","A1ROEDVMTO9Y3X","3UDTAB6HH6LRO17U79I9TKUGYFV09C","","466.8999999910593","img/land3.png","75","467.69999998807907","2","1","2","2","0.8,0.2,0.2,0.2,0.8,0.2,0.2,0.2,0.8","0.8,0.2,0.2,0.2,0.8,0.2,0.2,0.2,0.8","1","",""
"","html-keyboard-response","131","81948","0.0-131.0","3YT88D1N09K989NCLVWJAA2RKY53KX","A1ROEDVMTO9Y3X","3UDTAB6HH6LRO17U79I9TKUGYFV09C","","null","<img src=""img/land3.png"" style=""width:200px; border:14px solid green;"">","null","","","","","","","","","",""
"","image-keyboard-response","132","82586","0.0-132.0","3YT88D1N09K989NCLVWJAA2RKY53KX","A1ROEDVMTO9Y3X","3UDTAB6HH6LRO17U79I9TKUGYFV09C","","637.6000000089407","img/land2.png","75","638.6000000089407","2","0","1","2","0.8,0.2,0.2,0.2,0.8,0.2,0.2,0.2,0.8","0.8,0.2,0.2,0.2,0.8,0.2,0.2,0.2,0.8","1","",""
"","html-keyboard-response","133","82889","0.0-133.0","3YT88D1N09K989NCLVWJAA2RKY53KX","A1ROEDVMTO9Y3X","3UDTAB6HH6LRO17U79I9TKUGYFV09C","","null","<img src=""img/land2.png"" style=""width:200px;border:14px solid red;"">","null","","","","","","","","","",""
"","image-keyboard-response","134","83367","0.0-134.0","3YT88D1N09K989NCLVWJAA2RKY53KX","A1ROEDVMTO9Y3X","3UDTAB6HH6LRO17U79I9TKUGYFV09C","","476.69999998807907","img/land2.png","74","477.79999999701977","1","1","1","2","0.8,0.2,0.2,0.2,0.8,0.2,0.2,0.2,0.8","0.8,0.2,0.2,0.2,0.8,0.2,0.2,0.2,0.8","1","",""
"","html-keyboard-response","135","83670","0.0-135.0","3YT88D1N09K989NCLVWJAA2RKY53KX","A1ROEDVMTO9Y3X","3UDTAB6HH6LRO17U79I9TKUGYFV09C","","null","<img src=""img/land2.png"" style=""width:200px; border:14px solid green;"">","null","","","","","","","","","",""
"","image-keyboard-response","136","84750","0.0-136.0","3YT88D1N09K989NCLVWJAA2RKY53KX","A1ROEDVMTO9Y3X","3UDTAB6HH6LRO17U79I9TKUGYFV09C","","1078.2000000029802","img/land2.png","74","1079.5","1","1","1","2","0.8,0.2,0.2,0.2,0.8,0.2,0.2,0.2,0.8","0.8,0.2,0.2,0.2,0.8,0.2,0.2,0.2,0.8","1","",""
"","html-keyboard-response","137","85052","0.0-137.0","3YT88D1N09K989NCLVWJAA2RKY53KX","A1ROEDVMTO9Y3X","3UDTAB6HH6LRO17U79I9TKUGYFV09C","","null","<img src=""img/land2.png"" style=""width:200px; border:14px solid green;"">","null","","","","","","","","","",""
"","image-keyboard-response","138","85524","0.0-138.0","3YT88D1N09K989NCLVWJAA2RKY53KX","A1ROEDVMTO9Y3X","3UDTAB6HH6LRO17U79I9TKUGYFV09C","","471","img/land3.png","76","472.09999999403954","3","0","2","2","0.8,0.2,0.2,0.2,0.8,0.2,0.2,0.2,0.8","0.8,0.2,0.2,0.2,0.8,0.2,0.2,0.2,0.8","1","",""
"","html-keyboard-response","139","85826","0.0-139.0","3YT88D1N09K989NCLVWJAA2RKY53KX","A1ROEDVMTO9Y3X","3UDTAB6HH6LRO17U79I9TKUGYFV09C","","null","<img src=""img/land3.png"" style=""width:200px;border:14px solid red;"">","null","","","","","","","","","",""
"","image-keyboard-response","140","86008","0.0-140.0","3YT88D1N09K989NCLVWJAA2RKY53KX","A1ROEDVMTO9Y3X","3UDTAB6HH6LRO17U79I9TKUGYFV09C","","180.6000000089407","img/land2.png","74","181.70000000298023","1","1","1","2","0.8,0.2,0.2,0.2,0.8,0.2,0.2,0.2,0.8","0.8,0.2,0.2,0.2,0.8,0.2,0.2,0.2,0.8","1","",""
"","html-keyboard-response","141","86310","0.0-141.0","3YT88D1N09K989NCLVWJAA2RKY53KX","A1ROEDVMTO9Y3X","3UDTAB6HH6LRO17U79I9TKUGYFV09C","","null","<img src=""img/land2.png"" style=""width:200px; border:14px solid green;"">","null","","","","","","","","","",""
"","image-keyboard-response","142","86703","0.0-142.0","3YT88D1N09K989NCLVWJAA2RKY53KX","A1ROEDVMTO9Y3X","3UDTAB6HH6LRO17U79I9TKUGYFV09C","","392.20000000298023","img/land3.png","74","393.29999999701977","1","0","2","2","0.8,0.2,0.2,0.2,0.8,0.2,0.2,0.2,0.8","0.8,0.2,0.2,0.2,0.8,0.2,0.2,0.2,0.8","1","",""
"","html-keyboard-response","143","87006","0.0-143.0","3YT88D1N09K989NCLVWJAA2RKY53KX","A1ROEDVMTO9Y3X","3UDTAB6HH6LRO17U79I9TKUGYFV09C","","null","<img src=""img/land3.png"" style=""width:200px;border:14px solid red;"">","null","","","","","","","","","",""
"","image-keyboard-response","144","87557","0.0-144.0","3YT88D1N09K989NCLVWJAA2RKY53KX","A1ROEDVMTO9Y3X","3UDTAB6HH6LRO17U79I9TKUGYFV09C","","550","img/land5.png","74","551.5","1","0","3","2","0.8,0.2,0.2,0.2,0.8,0.2,0.2,0.2,0.8","0.8,0.2,0.2,0.2,0.8,0.2,0.2,0.2,0.8","1","",""
"","html-keyboard-response","145","87866","0.0-145.0","3YT88D1N09K989NCLVWJAA2RKY53KX","A1ROEDVMTO9Y3X","3UDTAB6HH6LRO17U79I9TKUGYFV09C","","null","<img src=""img/land5.png"" style=""width:200px;border:14px solid red;"">","null","","","","","","","","","",""
"","image-keyboard-response","146","88291","0.0-146.0","3YT88D1N09K989NCLVWJAA2RKY53KX","A1ROEDVMTO9Y3X","3UDTAB6HH6LRO17U79I9TKUGYFV09C","","424.20000000298023","img/land2.png","75","424.70000000298023","2","1","1","2","0.8,0.2,0.2,0.2,0.8,0.2,0.2,0.2,0.8","0.8,0.2,0.2,0.2,0.8,0.2,0.2,0.2,0.8","1","",""
"","html-keyboard-response","147","88593","0.0-147.0","3YT88D1N09K989NCLVWJAA2RKY53KX","A1ROEDVMTO9Y3X","3UDTAB6HH6LRO17U79I9TKUGYFV09C","","null","<img src=""img/land2.png"" style=""width:200px; border:14px solid green;"">","null","","","","","","","","","",""
"","image-keyboard-response","148","89044","0.0-148.0","3YT88D1N09K989NCLVWJAA2RKY53KX","A1ROEDVMTO9Y3X","3UDTAB6HH6LRO17U79I9TKUGYFV09C","","449.5","img/land2.png","74","450.70000000298023","1","1","1","2","0.8,0.2,0.2,0.2,0.8,0.2,0.2,0.2,0.8","0.8,0.2,0.2,0.2,0.8,0.2,0.2,0.2,0.8","1","",""
"","html-keyboard-response","149","89346","0.0-149.0","3YT88D1N09K989NCLVWJAA2RKY53KX","A1ROEDVMTO9Y3X","3UDTAB6HH6LRO17U79I9TKUGYFV09C","","null","<img src=""img/land2.png"" style=""width:200px; border:14px solid green;"">","null","","","","","","","","","",""
"","image-keyboard-response","150","89927","0.0-150.0","3YT88D1N09K989NCLVWJAA2RKY53KX","A1ROEDVMTO9Y3X","3UDTAB6HH6LRO17U79I9TKUGYFV09C","","578.6999999880791","img/land2.png","75","580","2","0","1","2","0.8,0.2,0.2,0.2,0.8,0.2,0.2,0.2,0.8","0.8,0.2,0.2,0.2,0.8,0.2,0.2,0.2,0.8","1","",""
"","html-keyboard-response","151","90229","0.0-151.0","3YT88D1N09K989NCLVWJAA2RKY53KX","A1ROEDVMTO9Y3X","3UDTAB6HH6LRO17U79I9TKUGYFV09C","","null","<img src=""img/land2.png"" style=""width:200px;border:14px solid red;"">","null","","","","","","","","","",""
"","image-keyboard-response","152","90658","0.0-152.0","3YT88D1N09K989NCLVWJAA2RKY53KX","A1ROEDVMTO9Y3X","3UDTAB6HH6LRO17U79I9TKUGYFV09C","","426.70000000298023","img/land2.png","74","428","1","1","1","2","0.8,0.2,0.2,0.2,0.8,0.2,0.2,0.2,0.8","0.8,0.2,0.2,0.2,0.8,0.2,0.2,0.2,0.8","1","",""
"","html-keyboard-response","153","90959","0.0-153.0","3YT88D1N09K989NCLVWJAA2RKY53KX","A1ROEDVMTO9Y3X","3UDTAB6HH6LRO17U79I9TKUGYFV09C","","null","<img src=""img/land2.png"" style=""width:200px; border:14px solid green;"">","null","","","","","","","","","",""
"","image-keyboard-response","154","91392","0.0-154.0","3YT88D1N09K989NCLVWJAA2RKY53KX","A1ROEDVMTO9Y3X","3UDTAB6HH6LRO17U79I9TKUGYFV09C","","431.40000000596046","img/land5.png","74","432.70000000298023","1","0","3","2","0.8,0.2,0.2,0.2,0.8,0.2,0.2,0.2,0.8","0.8,0.2,0.2,0.2,0.8,0.2,0.2,0.2,0.8","1","",""
"","html-keyboard-response","155","91694","0.0-155.0","3YT88D1N09K989NCLVWJAA2RKY53KX","A1ROEDVMTO9Y3X","3UDTAB6HH6LRO17U79I9TKUGYFV09C","","null","<img src=""img/land5.png"" style=""width:200px;border:14px solid red;"">","null","","","","","","","","","",""
"","image-keyboard-response","156","91943","0.0-156.0","3YT88D1N09K989NCLVWJAA2RKY53KX","A1ROEDVMTO9Y3X","3UDTAB6HH6LRO17U79I9TKUGYFV09C","","247.59999999403954","img/land2.png","76","249","3","0","1","2","0.8,0.2,0.2,0.2,0.8,0.2,0.2,0.2,0.8","0.8,0.2,0.2,0.2,0.8,0.2,0.2,0.2,0.8","1","",""
"","html-keyboard-response","157","92246","0.0-157.0","3YT88D1N09K989NCLVWJAA2RKY53KX","A1ROEDVMTO9Y3X","3UDTAB6HH6LRO17U79I9TKUGYFV09C","","null","<img src=""img/land2.png"" style=""width:200px;border:14px solid red;"">","null","","","","","","","","","",""
"","image-keyboard-response","158","92811","0.0-158.0","3YT88D1N09K989NCLVWJAA2RKY53KX","A1ROEDVMTO9Y3X","3UDTAB6HH6LRO17U79I9TKUGYFV09C","","563.5","img/land2.png","76","564.7999999970198","3","1","1","2","0.8,0.2,0.2,0.2,0.8,0.2,0.2,0.2,0.8","0.8,0.2,0.2,0.2,0.8,0.2,0.2,0.2,0.8","1","",""
"","html-keyboard-response","159","93114","0.0-159.0","3YT88D1N09K989NCLVWJAA2RKY53KX","A1ROEDVMTO9Y3X","3UDTAB6HH6LRO17U79I9TKUGYFV09C","","null","<img src=""img/land2.png"" style=""width:200px; border:14px solid green;"">","null","","","","","","","","","",""
"","image-keyboard-response","160","93420","0.0-160.0","3YT88D1N09K989NCLVWJAA2RKY53KX","A1ROEDVMTO9Y3X","3UDTAB6HH6LRO17U79I9TKUGYFV09C","","305.19999998807907","img/land2.png","74","306.29999999701977","1","1","1","2","0.8,0.2,0.2,0.2,0.8,0.2,0.2,0.2,0.8","0.8,0.2,0.2,0.2,0.8,0.2,0.2,0.2,0.8","1","",""
"","html-keyboard-response","161","93723","0.0-161.0","3YT88D1N09K989NCLVWJAA2RKY53KX","A1ROEDVMTO9Y3X","3UDTAB6HH6LRO17U79I9TKUGYFV09C","","null","<img src=""img/land2.png"" style=""width:200px; border:14px solid green;"">","null","","","","","","","","","",""
"","image-keyboard-response","162","93997","0.0-162.0","3YT88D1N09K989NCLVWJAA2RKY53KX","A1ROEDVMTO9Y3X","3UDTAB6HH6LRO17U79I9TKUGYFV09C","","272.19999998807907","img/land2.png","74","273.5","1","1","1","2","0.8,0.2,0.2,0.2,0.8,0.2,0.2,0.2,0.8","0.8,0.2,0.2,0.2,0.8,0.2,0.2,0.2,0.8","1","",""
"","html-keyboard-response","163","94299","0.0-163.0","3YT88D1N09K989NCLVWJAA2RKY53KX","A1ROEDVMTO9Y3X","3UDTAB6HH6LRO17U79I9TKUGYFV09C","","null","<img src=""img/land2.png"" style=""width:200px; border:14px solid green;"">","null","","","","","","","","","",""
"","image-keyboard-response","164","94621","0.0-164.0","3YT88D1N09K989NCLVWJAA2RKY53KX","A1ROEDVMTO9Y3X","3UDTAB6HH6LRO17U79I9TKUGYFV09C","","321.5","img/land2.png","75","322.40000000596046","2","0","1","2","0.8,0.2,0.2,0.2,0.8,0.2,0.2,0.2,0.8","0.8,0.2,0.2,0.2,0.8,0.2,0.2,0.2,0.8","1","",""
"","html-keyboard-response","165","94923","0.0-165.0","3YT88D1N09K989NCLVWJAA2RKY53KX","A1ROEDVMTO9Y3X","3UDTAB6HH6LRO17U79I9TKUGYFV09C","","null","<img src=""img/land2.png"" style=""width:200px;border:14px solid red;"">","null","","","","","","","","","",""
"","image-keyboard-response","166","95467","0.0-166.0","3YT88D1N09K989NCLVWJAA2RKY53KX","A1ROEDVMTO9Y3X","3UDTAB6HH6LRO17U79I9TKUGYFV09C","","542.6999999880791","img/land2.png","76","543.5","3","0","1","2","0.8,0.2,0.2,0.2,0.8,0.2,0.2,0.2,0.8","0.8,0.2,0.2,0.2,0.8,0.2,0.2,0.2,0.8","1","",""
"","html-keyboard-response","167","95769","0.0-167.0","3YT88D1N09K989NCLVWJAA2RKY53KX","A1ROEDVMTO9Y3X","3UDTAB6HH6LRO17U79I9TKUGYFV09C","","null","<img src=""img/land2.png"" style=""width:200px;border:14px solid red;"">","null","","","","","","","","","",""
"","image-keyboard-response","168","96408","0.0-168.0","3YT88D1N09K989NCLVWJAA2RKY53KX","A1ROEDVMTO9Y3X","3UDTAB6HH6LRO17U79I9TKUGYFV09C","","637.0999999940395","img/land2.png","74","638.4000000059605","1","1","1","2","0.8,0.2,0.2,0.2,0.8,0.2,0.2,0.2,0.8","0.8,0.2,0.2,0.2,0.8,0.2,0.2,0.2,0.8","1","",""
"","html-keyboard-response","169","96710","0.0-169.0","3YT88D1N09K989NCLVWJAA2RKY53KX","A1ROEDVMTO9Y3X","3UDTAB6HH6LRO17U79I9TKUGYFV09C","","null","<img src=""img/land2.png"" style=""width:200px; border:14px solid green;"">","null","","","","","","","","","",""
"","image-keyboard-response","170","97105","0.0-170.0","3YT88D1N09K989NCLVWJAA2RKY53KX","A1ROEDVMTO9Y3X","3UDTAB6HH6LRO17U79I9TKUGYFV09C","","393.1000000089407","img/land2.png","75","394.3999999910593","2","0","1","2","0.8,0.2,0.2,0.2,0.8,0.2,0.2,0.2,0.8","0.8,0.2,0.2,0.2,0.8,0.2,0.2,0.2,0.8","1","",""
"","html-keyboard-response","171","97408","0.0-171.0","3YT88D1N09K989NCLVWJAA2RKY53KX","A1ROEDVMTO9Y3X","3UDTAB6HH6LRO17U79I9TKUGYFV09C","","null","<img src=""img/land2.png"" style=""width:200px;border:14px solid red;"">","null","","","","","","","","","",""
"","image-keyboard-response","172","97685","0.0-172.0","3YT88D1N09K989NCLVWJAA2RKY53KX","A1ROEDVMTO9Y3X","3UDTAB6HH6LRO17U79I9TKUGYFV09C","","276","img/land3.png","74","277.40000000596046","1","0","2","2","0.8,0.2,0.2,0.2,0.8,0.2,0.2,0.2,0.8","0.8,0.2,0.2,0.2,0.8,0.2,0.2,0.2,0.8","1","",""
"","html-keyboard-response","173","97988","0.0-173.0","3YT88D1N09K989NCLVWJAA2RKY53KX","A1ROEDVMTO9Y3X","3UDTAB6HH6LRO17U79I9TKUGYFV09C","","null","<img src=""img/land3.png"" style=""width:200px;border:14px solid red;"">","null","","","","","","","","","",""
"","image-keyboard-response","174","98262","0.0-174.0","3YT88D1N09K989NCLVWJAA2RKY53KX","A1ROEDVMTO9Y3X","3UDTAB6HH6LRO17U79I9TKUGYFV09C","","272.40000000596046","img/land2.png","76","273.70000000298023","3","0","1","2","0.8,0.2,0.2,0.2,0.8,0.2,0.2,0.2,0.8","0.8,0.2,0.2,0.2,0.8,0.2,0.2,0.2,0.8","1","",""
"","html-keyboard-response","175","98565","0.0-175.0","3YT88D1N09K989NCLVWJAA2RKY53KX","A1ROEDVMTO9Y3X","3UDTAB6HH6LRO17U79I9TKUGYFV09C","","null","<img src=""img/land2.png"" style=""width:200px;border:14px solid red;"">","null","","","","","","","","","",""
"","image-keyboard-response","176","98922","0.0-176.0","3YT88D1N09K989NCLVWJAA2RKY53KX","A1ROEDVMTO9Y3X","3UDTAB6HH6LRO17U79I9TKUGYFV09C","","356.19999998807907","img/land2.png","74","356.6000000089407","1","1","1","2","0.8,0.2,0.2,0.2,0.8,0.2,0.2,0.2,0.8","0.8,0.2,0.2,0.2,0.8,0.2,0.2,0.2,0.8","1","",""
"","html-keyboard-response","177","99223","0.0-177.0","3YT88D1N09K989NCLVWJAA2RKY53KX","A1ROEDVMTO9Y3X","3UDTAB6HH6LRO17U79I9TKUGYFV09C","","null","<img src=""img/land2.png"" style=""width:200px; border:14px solid green;"">","null","","","","","","","","","",""
"","image-keyboard-response","178","99780","0.0-178.0","3YT88D1N09K989NCLVWJAA2RKY53KX","A1ROEDVMTO9Y3X","3UDTAB6HH6LRO17U79I9TKUGYFV09C","","556.0999999940395","img/land2.png","74","557","1","1","1","2","0.8,0.2,0.2,0.2,0.8,0.2,0.2,0.2,0.8","0.8,0.2,0.2,0.2,0.8,0.2,0.2,0.2,0.8","1","",""
"","html-keyboard-response","179","100083","0.0-179.0","3YT88D1N09K989NCLVWJAA2RKY53KX","A1ROEDVMTO9Y3X","3UDTAB6HH6LRO17U79I9TKUGYFV09C","","null","<img src=""img/land2.png"" style=""width:200px; border:14px solid green;"">","null","","","","","","","","","",""
"","image-keyboard-response","180","100791","0.0-180.0","3YT88D1N09K989NCLVWJAA2RKY53KX","A1ROEDVMTO9Y3X","3UDTAB6HH6LRO17U79I9TKUGYFV09C","","707.2999999970198","img/land3.png","74","708.2999999970198","1","0","2","2","0.8,0.2,0.2,0.2,0.8,0.2,0.2,0.2,0.8","0.8,0.2,0.2,0.2,0.8,0.2,0.2,0.2,0.8","1","",""
"","html-keyboard-response","181","101094","0.0-181.0","3YT88D1N09K989NCLVWJAA2RKY53KX","A1ROEDVMTO9Y3X","3UDTAB6HH6LRO17U79I9TKUGYFV09C","","null","<img src=""img/land3.png"" style=""width:200px;border:14px solid red;"">","null","","","","","","","","","",""
"","image-keyboard-response","182","101687","0.0-182.0","3YT88D1N09K989NCLVWJAA2RKY53KX","A1ROEDVMTO9Y3X","3UDTAB6HH6LRO17U79I9TKUGYFV09C","","591.2999999970198","img/land2.png","76","592.5","3","0","1","2","0.8,0.2,0.2,0.2,0.8,0.2,0.2,0.2,0.8","0.8,0.2,0.2,0.2,0.8,0.2,0.2,0.2,0.8","1","",""
"","html-keyboard-response","183","101988","0.0-183.0","3YT88D1N09K989NCLVWJAA2RKY53KX","A1ROEDVMTO9Y3X","3UDTAB6HH6LRO17U79I9TKUGYFV09C","","null","<img src=""img/land2.png"" style=""width:200px;border:14px solid red;"">","null","","","","","","","","","",""
"","image-keyboard-response","184","102363","0.0-184.0","3YT88D1N09K989NCLVWJAA2RKY53KX","A1ROEDVMTO9Y3X","3UDTAB6HH6LRO17U79I9TKUGYFV09C","","374.90000000596046","img/land2.png","74","375.80000001192093","1","1","1","2","0.8,0.2,0.2,0.2,0.8,0.2,0.2,0.2,0.8","0.8,0.2,0.2,0.2,0.8,0.2,0.2,0.2,0.8","1","",""
"","html-keyboard-response","185","102665","0.0-185.0","3YT88D1N09K989NCLVWJAA2RKY53KX","A1ROEDVMTO9Y3X","3UDTAB6HH6LRO17U79I9TKUGYFV09C","","null","<img src=""img/land2.png"" style=""width:200px; border:14px solid green;"">","null","","","","","","","","","",""
"","image-keyboard-response","186","103174","0.0-186.0","3YT88D1N09K989NCLVWJAA2RKY53KX","A1ROEDVMTO9Y3X","3UDTAB6HH6LRO17U79I9TKUGYFV09C","","507.09999999403954","img/land2.png","74","508.09999999403954","1","1","1","2","0.8,0.2,0.2,0.2,0.8,0.2,0.2,0.2,0.8","0.8,0.2,0.2,0.2,0.8,0.2,0.2,0.2,0.8","1","",""
"","html-keyboard-response","187","103475","0.0-187.0","3YT88D1N09K989NCLVWJAA2RKY53KX","A1ROEDVMTO9Y3X","3UDTAB6HH6LRO17U79I9TKUGYFV09C","","null","<img src=""img/land2.png"" style=""width:200px; border:14px solid green;"">","null","","","","","","","","","",""
"","image-keyboard-response","188","105188","0.0-188.0","3YT88D1N09K989NCLVWJAA2RKY53KX","A1ROEDVMTO9Y3X","3UDTAB6HH6LRO17U79I9TKUGYFV09C","","1712","img/land2.png","76","1713.0999999940395","3","0","1","2","0.8,0.2,0.2,0.2,0.8,0.2,0.2,0.2,0.8","0.8,0.2,0.2,0.2,0.8,0.2,0.2,0.2,0.8","1","",""
"","html-keyboard-response","189","105490","0.0-189.0","3YT88D1N09K989NCLVWJAA2RKY53KX","A1ROEDVMTO9Y3X","3UDTAB6HH6LRO17U79I9TKUGYFV09C","","null","<img src=""img/land2.png"" style=""width:200px;border:14px solid red;"">","null","","","","","","","","","",""
"","image-keyboard-response","190","106189","0.0-190.0","3YT88D1N09K989NCLVWJAA2RKY53KX","A1ROEDVMTO9Y3X","3UDTAB6HH6LRO17U79I9TKUGYFV09C","","698.4000000059605","img/land2.png","74","698.9000000059605","1","1","1","2","0.8,0.2,0.2,0.2,0.8,0.2,0.2,0.2,0.8","0.8,0.2,0.2,0.2,0.8,0.2,0.2,0.2,0.8","1","",""
"","html-keyboard-response","191","106502","0.0-191.0","3YT88D1N09K989NCLVWJAA2RKY53KX","A1ROEDVMTO9Y3X","3UDTAB6HH6LRO17U79I9TKUGYFV09C","","null","<img src=""img/land2.png"" style=""width:200px; border:14px solid green;"">","null","","","","","","","","","",""
"","image-keyboard-response","192","107390","0.0-192.0","3YT88D1N09K989NCLVWJAA2RKY53KX","A1ROEDVMTO9Y3X","3UDTAB6HH6LRO17U79I9TKUGYFV09C","","886.7999999970198","img/land3.png","75","888.2000000029802","2","1","2","2","0.8,0.2,0.2,0.2,0.8,0.2,0.2,0.2,0.8","0.8,0.2,0.2,0.2,0.8,0.2,0.2,0.2,0.8","1","",""
"","html-keyboard-response","193","107693","0.0-193.0","3YT88D1N09K989NCLVWJAA2RKY53KX","A1ROEDVMTO9Y3X","3UDTAB6HH6LRO17U79I9TKUGYFV09C","","null","<img src=""img/land3.png"" style=""width:200px; border:14px solid green;"">","null","","","","","","","","","",""
"","image-keyboard-response","194","108784","0.0-194.0","3YT88D1N09K989NCLVWJAA2RKY53KX","A1ROEDVMTO9Y3X","3UDTAB6HH6LRO17U79I9TKUGYFV09C","","1089.5","img/land3.png","76","1090.7999999970198","3","0","2","2","0.8,0.2,0.2,0.2,0.8,0.2,0.2,0.2,0.8","0.8,0.2,0.2,0.2,0.8,0.2,0.2,0.2,0.8","1","",""
"","html-keyboard-response","195","109087","0.0-195.0","3YT88D1N09K989NCLVWJAA2RKY53KX","A1ROEDVMTO9Y3X","3UDTAB6HH6LRO17U79I9TKUGYFV09C","","null","<img src=""img/land3.png"" style=""width:200px;border:14px solid red;"">","null","","","","","","","","","",""
"","image-keyboard-response","196","109648","0.0-196.0","3YT88D1N09K989NCLVWJAA2RKY53KX","A1ROEDVMTO9Y3X","3UDTAB6HH6LRO17U79I9TKUGYFV09C","","559.1999999880791","img/land5.png","74","560.5","1","1","3","2","0.8,0.2,0.2,0.2,0.8,0.2,0.2,0.2,0.8","0.8,0.2,0.2,0.2,0.8,0.2,0.2,0.2,0.8","1","",""
"","html-keyboard-response","197","109949","0.0-197.0","3YT88D1N09K989NCLVWJAA2RKY53KX","A1ROEDVMTO9Y3X","3UDTAB6HH6LRO17U79I9TKUGYFV09C","","null","<img src=""img/land5.png"" style=""width:200px; border:14px solid green;"">","null","","","","","","","","","",""
"","image-keyboard-response","198","110444","0.0-198.0","3YT88D1N09K989NCLVWJAA2RKY53KX","A1ROEDVMTO9Y3X","3UDTAB6HH6LRO17U79I9TKUGYFV09C","","492.90000000596046","img/land5.png","75","494.09999999403954","2","0","3","2","0.8,0.2,0.2,0.2,0.8,0.2,0.2,0.2,0.8","0.8,0.2,0.2,0.2,0.8,0.2,0.2,0.2,0.8","1","",""
"","html-keyboard-response","199","110746","0.0-199.0","3YT88D1N09K989NCLVWJAA2RKY53KX","A1ROEDVMTO9Y3X","3UDTAB6HH6LRO17U79I9TKUGYFV09C","","null","<img src=""img/land5.png"" style=""width:200px;border:14px solid red;"">","null","","","","","","","","","",""
"","image-keyboard-response","200","111346","0.0-200.0","3YT88D1N09K989NCLVWJAA2RKY53KX","A1ROEDVMTO9Y3X","3UDTAB6HH6LRO17U79I9TKUGYFV09C","","598.8000000119209","img/land3.png","74","600","1","0","2","2","0.8,0.2,0.2,0.2,0.8,0.2,0.2,0.2,0.8","0.8,0.2,0.2,0.2,0.8,0.2,0.2,0.2,0.8","1","",""
"","html-keyboard-response","201","111649","0.0-201.0","3YT88D1N09K989NCLVWJAA2RKY53KX","A1ROEDVMTO9Y3X","3UDTAB6HH6LRO17U79I9TKUGYFV09C","","null","<img src=""img/land3.png"" style=""width:200px;border:14px solid red;"">","null","","","","","","","","","",""
"","image-keyboard-response","202","112088","0.0-202.0","3YT88D1N09K989NCLVWJAA2RKY53KX","A1ROEDVMTO9Y3X","3UDTAB6HH6LRO17U79I9TKUGYFV09C","","438.59999999403954","img/land2.png","76","439.29999999701977","3","0","1","2","0.8,0.2,0.2,0.2,0.8,0.2,0.2,0.2,0.8","0.8,0.2,0.2,0.2,0.8,0.2,0.2,0.2,0.8","1","",""
"","html-keyboard-response","203","112391","0.0-203.0","3YT88D1N09K989NCLVWJAA2RKY53KX","A1ROEDVMTO9Y3X","3UDTAB6HH6LRO17U79I9TKUGYFV09C","","null","<img src=""img/land2.png"" style=""width:200px;border:14px solid red;"">","null","","","","","","","","","",""
"","image-keyboard-response","204","113659","0.0-204.0","3YT88D1N09K989NCLVWJAA2RKY53KX","A1ROEDVMTO9Y3X","3UDTAB6HH6LRO17U79I9TKUGYFV09C","","1266.8999999910593","img/land2.png","74","1267.7000000029802","1","1","1","2","0.8,0.2,0.2,0.2,0.8,0.2,0.2,0.2,0.8","0.8,0.2,0.2,0.2,0.8,0.2,0.2,0.2,0.8","1","",""
"","html-keyboard-response","205","113961","0.0-205.0","3YT88D1N09K989NCLVWJAA2RKY53KX","A1ROEDVMTO9Y3X","3UDTAB6HH6LRO17U79I9TKUGYFV09C","","null","<img src=""img/land2.png"" style=""width:200px; border:14px solid green;"">","null","","","","","","","","","",""
"","image-keyboard-response","206","114994","0.0-206.0","3YT88D1N09K989NCLVWJAA2RKY53KX","A1ROEDVMTO9Y3X","3UDTAB6HH6LRO17U79I9TKUGYFV09C","","1033","img/land2.png","74","1033.6000000089407","1","1","1","2","0.8,0.2,0.2,0.2,0.8,0.2,0.2,0.2,0.8","0.8,0.2,0.2,0.2,0.8,0.2,0.2,0.2,0.8","1","",""
"","html-keyboard-response","207","115296","0.0-207.0","3YT88D1N09K989NCLVWJAA2RKY53KX","A1ROEDVMTO9Y3X","3UDTAB6HH6LRO17U79I9TKUGYFV09C","","null","<img src=""img/land2.png"" style=""width:200px; border:14px solid green;"">","null","","","","","","","","","",""
"","image-keyboard-response","208","115773","0.0-208.0","3YT88D1N09K989NCLVWJAA2RKY53KX","A1ROEDVMTO9Y3X","3UDTAB6HH6LRO17U79I9TKUGYFV09C","","475.3999999910593","img/land3.png","74","476.40000000596046","1","0","2","2","0.8,0.2,0.2,0.2,0.8,0.2,0.2,0.2,0.8","0.8,0.2,0.2,0.2,0.8,0.2,0.2,0.2,0.8","1","",""
"","html-keyboard-response","209","116074","0.0-209.0","3YT88D1N09K989NCLVWJAA2RKY53KX","A1ROEDVMTO9Y3X","3UDTAB6HH6LRO17U79I9TKUGYFV09C","","null","<img src=""img/land3.png"" style=""width:200px;border:14px solid red;"">","null","","","","","","","","","",""
"","image-keyboard-response","210","116506","0.0-210.0","3YT88D1N09K989NCLVWJAA2RKY53KX","A1ROEDVMTO9Y3X","3UDTAB6HH6LRO17U79I9TKUGYFV09C","","429.8999999910593","img/land2.png","75","431.20000000298023","2","0","1","2","0.8,0.2,0.2,0.2,0.8,0.2,0.2,0.2,0.8","0.8,0.2,0.2,0.2,0.8,0.2,0.2,0.2,0.8","1","",""
"","html-keyboard-response","211","116809","0.0-211.0","3YT88D1N09K989NCLVWJAA2RKY53KX","A1ROEDVMTO9Y3X","3UDTAB6HH6LRO17U79I9TKUGYFV09C","","null","<img src=""img/land2.png"" style=""width:200px;border:14px solid red;"">","null","","","","","","","","","",""
"","image-keyboard-response","212","118813","0.0-212.0","3YT88D1N09K989NCLVWJAA2RKY53KX","A1ROEDVMTO9Y3X","3UDTAB6HH6LRO17U79I9TKUGYFV09C","","","img/land3.png","","2003.199999988079","-1","0","2","2","0.8,0.2,0.2,0.2,0.8,0.2,0.2,0.2,0.8","0.8,0.2,0.2,0.2,0.8,0.2,0.2,0.2,0.8","1","",""
"","html-keyboard-response","213","119115","0.0-213.0","3YT88D1N09K989NCLVWJAA2RKY53KX","A1ROEDVMTO9Y3X","3UDTAB6HH6LRO17U79I9TKUGYFV09C","","null","<img src=""img/land3.png"" style=""width:200px;border:14px solid red;"">","null","","","","","","","","","",""
"","image-keyboard-response","214","119676","0.0-214.0","3YT88D1N09K989NCLVWJAA2RKY53KX","A1ROEDVMTO9Y3X","3UDTAB6HH6LRO17U79I9TKUGYFV09C","","559.0999999940395","img/land2.png","76","560.3000000119209","3","0","1","2","0.8,0.2,0.2,0.2,0.8,0.2,0.2,0.2,0.8","0.8,0.2,0.2,0.2,0.8,0.2,0.2,0.2,0.8","1","",""
"","html-keyboard-response","215","119978","0.0-215.0","3YT88D1N09K989NCLVWJAA2RKY53KX","A1ROEDVMTO9Y3X","3UDTAB6HH6LRO17U79I9TKUGYFV09C","","null","<img src=""img/land2.png"" style=""width:200px;border:14px solid red;"">","null","","","","","","","","","",""
"","image-keyboard-response","216","120436","0.0-216.0","3YT88D1N09K989NCLVWJAA2RKY53KX","A1ROEDVMTO9Y3X","3UDTAB6HH6LRO17U79I9TKUGYFV09C","","455.59999999403954","img/land3.png","74","457","1","0","2","2","0.8,0.2,0.2,0.2,0.8,0.2,0.2,0.2,0.8","0.8,0.2,0.2,0.2,0.8,0.2,0.2,0.2,0.8","1","",""
"","html-keyboard-response","217","120739","0.0-217.0","3YT88D1N09K989NCLVWJAA2RKY53KX","A1ROEDVMTO9Y3X","3UDTAB6HH6LRO17U79I9TKUGYFV09C","","null","<img src=""img/land3.png"" style=""width:200px;border:14px solid red;"">","null","","","","","","","","","",""
"","image-keyboard-response","218","120925","0.0-218.0","3YT88D1N09K989NCLVWJAA2RKY53KX","A1ROEDVMTO9Y3X","3UDTAB6HH6LRO17U79I9TKUGYFV09C","","185","img/land2.png","75","186","2","0","1","2","0.8,0.2,0.2,0.2,0.8,0.2,0.2,0.2,0.8","0.8,0.2,0.2,0.2,0.8,0.2,0.2,0.2,0.8","1","",""
"","html-keyboard-response","219","121227","0.0-219.0","3YT88D1N09K989NCLVWJAA2RKY53KX","A1ROEDVMTO9Y3X","3UDTAB6HH6LRO17U79I9TKUGYFV09C","","null","<img src=""img/land2.png"" style=""width:200px;border:14px solid red;"">","null","","","","","","","","","",""
"","image-keyboard-response","220","121715","0.0-220.0","3YT88D1N09K989NCLVWJAA2RKY53KX","A1ROEDVMTO9Y3X","3UDTAB6HH6LRO17U79I9TKUGYFV09C","","486.1000000089407","img/land2.png","74","487.19999998807907","1","1","1","2","0.8,0.2,0.2,0.2,0.8,0.2,0.2,0.2,0.8","0.8,0.2,0.2,0.2,0.8,0.2,0.2,0.2,0.8","1","",""
"","html-keyboard-response","221","122016","0.0-221.0","3YT88D1N09K989NCLVWJAA2RKY53KX","A1ROEDVMTO9Y3X","3UDTAB6HH6LRO17U79I9TKUGYFV09C","","null","<img src=""img/land2.png"" style=""width:200px; border:14px solid green;"">","null","","","","","","","","","",""
"","image-keyboard-response","222","122272","0.0-222.0","3YT88D1N09K989NCLVWJAA2RKY53KX","A1ROEDVMTO9Y3X","3UDTAB6HH6LRO17U79I9TKUGYFV09C","","254.09999999403954","img/land2.png","76","255.30000001192093","3","0","1","2","0.8,0.2,0.2,0.2,0.8,0.2,0.2,0.2,0.8","0.8,0.2,0.2,0.2,0.8,0.2,0.2,0.2,0.8","1","",""
"","html-keyboard-response","223","122575","0.0-223.0","3YT88D1N09K989NCLVWJAA2RKY53KX","A1ROEDVMTO9Y3X","3UDTAB6HH6LRO17U79I9TKUGYFV09C","","null","<img src=""img/land2.png"" style=""width:200px;border:14px solid red;"">","null","","","","","","","","","",""
"","image-keyboard-response","224","122839","0.0-224.0","3YT88D1N09K989NCLVWJAA2RKY53KX","A1ROEDVMTO9Y3X","3UDTAB6HH6LRO17U79I9TKUGYFV09C","","263","img/land2.png","74","264","1","0","1","2","0.8,0.2,0.2,0.2,0.8,0.2,0.2,0.2,0.8","0.8,0.2,0.2,0.2,0.8,0.2,0.2,0.2,0.8","1","",""
"","html-keyboard-response","225","123140","0.0-225.0","3YT88D1N09K989NCLVWJAA2RKY53KX","A1ROEDVMTO9Y3X","3UDTAB6HH6LRO17U79I9TKUGYFV09C","","null","<img src=""img/land2.png"" style=""width:200px;border:14px solid red;"">","null","","","","","","","","","",""
"","image-keyboard-response","226","123271","0.0-226.0","3YT88D1N09K989NCLVWJAA2RKY53KX","A1ROEDVMTO9Y3X","3UDTAB6HH6LRO17U79I9TKUGYFV09C","","129.79999999701977","img/land2.png","75","130.5","2","1","1","2","0.8,0.2,0.2,0.2,0.8,0.2,0.2,0.2,0.8","0.8,0.2,0.2,0.2,0.8,0.2,0.2,0.2,0.8","1","",""
"","html-keyboard-response","227","123573","0.0-227.0","3YT88D1N09K989NCLVWJAA2RKY53KX","A1ROEDVMTO9Y3X","3UDTAB6HH6LRO17U79I9TKUGYFV09C","","null","<img src=""img/land2.png"" style=""width:200px; border:14px solid green;"">","null","","","","","","","","","",""
"","image-keyboard-response","228","123888","0.0-228.0","3YT88D1N09K989NCLVWJAA2RKY53KX","A1ROEDVMTO9Y3X","3UDTAB6HH6LRO17U79I9TKUGYFV09C","","313.3999999910593","img/land2.png","74","314.5","1","1","1","2","0.8,0.2,0.2,0.2,0.8,0.2,0.2,0.2,0.8","0.8,0.2,0.2,0.2,0.8,0.2,0.2,0.2,0.8","1","",""
"","html-keyboard-response","229","124188","0.0-229.0","3YT88D1N09K989NCLVWJAA2RKY53KX","A1ROEDVMTO9Y3X","3UDTAB6HH6LRO17U79I9TKUGYFV09C","","null","<img src=""img/land2.png"" style=""width:200px; border:14px solid green;"">","null","","","","","","","","","",""
"","image-keyboard-response","230","124655","0.0-230.0","3YT88D1N09K989NCLVWJAA2RKY53KX","A1ROEDVMTO9Y3X","3UDTAB6HH6LRO17U79I9TKUGYFV09C","","466.29999999701977","img/land2.png","74","466.70000000298023","1","1","1","2","0.8,0.2,0.2,0.2,0.8,0.2,0.2,0.2,0.8","0.8,0.2,0.2,0.2,0.8,0.2,0.2,0.2,0.8","1","",""
"","html-keyboard-response","231","124960","0.0-231.0","3YT88D1N09K989NCLVWJAA2RKY53KX","A1ROEDVMTO9Y3X","3UDTAB6HH6LRO17U79I9TKUGYFV09C","","null","<img src=""img/land2.png"" style=""width:200px; border:14px solid green;"">","null","","","","","","","","","",""
"","image-keyboard-response","232","126051","0.0-232.0","3YT88D1N09K989NCLVWJAA2RKY53KX","A1ROEDVMTO9Y3X","3UDTAB6HH6LRO17U79I9TKUGYFV09C","","1088.5","img/land2.png","75","1089.9000000059605","2","1","1","2","0.8,0.2,0.2,0.2,0.8,0.2,0.2,0.2,0.8","0.8,0.2,0.2,0.2,0.8,0.2,0.2,0.2,0.8","1","",""
"","html-keyboard-response","233","126354","0.0-233.0","3YT88D1N09K989NCLVWJAA2RKY53KX","A1ROEDVMTO9Y3X","3UDTAB6HH6LRO17U79I9TKUGYFV09C","","null","<img src=""img/land2.png"" style=""width:200px; border:14px solid green;"">","null","","","","","","","","","",""
"","image-keyboard-response","234","126836","0.0-234.0","3YT88D1N09K989NCLVWJAA2RKY53KX","A1ROEDVMTO9Y3X","3UDTAB6HH6LRO17U79I9TKUGYFV09C","","481","img/land2.png","75","481.69999998807907","2","1","1","2","0.8,0.2,0.2,0.2,0.8,0.2,0.2,0.2,0.8","0.8,0.2,0.2,0.2,0.8,0.2,0.2,0.2,0.8","1","",""
"","html-keyboard-response","235","127137","0.0-235.0","3YT88D1N09K989NCLVWJAA2RKY53KX","A1ROEDVMTO9Y3X","3UDTAB6HH6LRO17U79I9TKUGYFV09C","","null","<img src=""img/land2.png"" style=""width:200px; border:14px solid green;"">","null","","","","","","","","","",""
"","image-keyboard-response","236","127648","0.0-236.0","3YT88D1N09K989NCLVWJAA2RKY53KX","A1ROEDVMTO9Y3X","3UDTAB6HH6LRO17U79I9TKUGYFV09C","","509.79999999701977","img/land3.png","74","511.20000000298023","1","0","2","2","0.8,0.2,0.2,0.2,0.8,0.2,0.2,0.2,0.8","0.8,0.2,0.2,0.2,0.8,0.2,0.2,0.2,0.8","1","",""
"","html-keyboard-response","237","127951","0.0-237.0","3YT88D1N09K989NCLVWJAA2RKY53KX","A1ROEDVMTO9Y3X","3UDTAB6HH6LRO17U79I9TKUGYFV09C","","null","<img src=""img/land3.png"" style=""width:200px;border:14px solid red;"">","null","","","","","","","","","",""
"","image-keyboard-response","238","128198","0.0-238.0","3YT88D1N09K989NCLVWJAA2RKY53KX","A1ROEDVMTO9Y3X","3UDTAB6HH6LRO17U79I9TKUGYFV09C","","246.30000001192093","img/land2.png","76","247.29999999701977","3","0","1","2","0.8,0.2,0.2,0.2,0.8,0.2,0.2,0.2,0.8","0.8,0.2,0.2,0.2,0.8,0.2,0.2,0.2,0.8","1","",""
"","html-keyboard-response","239","128500","0.0-239.0","3YT88D1N09K989NCLVWJAA2RKY53KX","A1ROEDVMTO9Y3X","3UDTAB6HH6LRO17U79I9TKUGYFV09C","","null","<img src=""img/land2.png"" style=""width:200px;border:14px solid red;"">","null","","","","","","","","","",""
"","image-keyboard-response","240","128850","0.0-240.0","3YT88D1N09K989NCLVWJAA2RKY53KX","A1ROEDVMTO9Y3X","3UDTAB6HH6LRO17U79I9TKUGYFV09C","","348.30000001192093","img/land2.png","76","349.5","3","0","1","2","0.8,0.2,0.2,0.2,0.8,0.2,0.2,0.2,0.8","0.8,0.2,0.2,0.2,0.8,0.2,0.2,0.2,0.8","1","",""
"","html-keyboard-response","241","129152","0.0-241.0","3YT88D1N09K989NCLVWJAA2RKY53KX","A1ROEDVMTO9Y3X","3UDTAB6HH6LRO17U79I9TKUGYFV09C","","null","<img src=""img/land2.png"" style=""width:200px;border:14px solid red;"">","null","","","","","","","","","",""
"","image-keyboard-response","242","129302","0.0-242.0","3YT88D1N09K989NCLVWJAA2RKY53KX","A1ROEDVMTO9Y3X","3UDTAB6HH6LRO17U79I9TKUGYFV09C","","148.70000000298023","img/land3.png","74","149.40000000596046","1","0","2","2","0.8,0.2,0.2,0.2,0.8,0.2,0.2,0.2,0.8","0.8,0.2,0.2,0.2,0.8,0.2,0.2,0.2,0.8","1","",""
"","html-keyboard-response","243","129611","0.0-243.0","3YT88D1N09K989NCLVWJAA2RKY53KX","A1ROEDVMTO9Y3X","3UDTAB6HH6LRO17U79I9TKUGYFV09C","","null","<img src=""img/land3.png"" style=""width:200px;border:14px solid red;"">","null","","","","","","","","","",""
"","image-keyboard-response","244","130222","0.0-244.0","3YT88D1N09K989NCLVWJAA2RKY53KX","A1ROEDVMTO9Y3X","3UDTAB6HH6LRO17U79I9TKUGYFV09C","","609.4000000059605","img/land2.png","75","610.3000000119209","2","0","1","2","0.8,0.2,0.2,0.2,0.8,0.2,0.2,0.2,0.8","0.8,0.2,0.2,0.2,0.8,0.2,0.2,0.2,0.8","1","",""
"","html-keyboard-response","245","130524","0.0-245.0","3YT88D1N09K989NCLVWJAA2RKY53KX","A1ROEDVMTO9Y3X","3UDTAB6HH6LRO17U79I9TKUGYFV09C","","null","<img src=""img/land2.png"" style=""width:200px;border:14px solid red;"">","null","","","","","","","","","",""
"","image-keyboard-response","246","130848","0.0-246.0","3YT88D1N09K989NCLVWJAA2RKY53KX","A1ROEDVMTO9Y3X","3UDTAB6HH6LRO17U79I9TKUGYFV09C","","323.70000000298023","img/land5.png","74","324.3999999910593","1","0","3","2","0.8,0.2,0.2,0.2,0.8,0.2,0.2,0.2,0.8","0.8,0.2,0.2,0.2,0.8,0.2,0.2,0.2,0.8","1","",""
"","html-keyboard-response","247","131150","0.0-247.0","3YT88D1N09K989NCLVWJAA2RKY53KX","A1ROEDVMTO9Y3X","3UDTAB6HH6LRO17U79I9TKUGYFV09C","","null","<img src=""img/land5.png"" style=""width:200px;border:14px solid red;"">","null","","","","","","","","","",""
"","image-keyboard-response","248","131654","0.0-248.0","3YT88D1N09K989NCLVWJAA2RKY53KX","A1ROEDVMTO9Y3X","3UDTAB6HH6LRO17U79I9TKUGYFV09C","","503.90000000596046","img/land5.png","76","504.70000000298023","3","1","3","2","0.8,0.2,0.2,0.2,0.8,0.2,0.2,0.2,0.8","0.8,0.2,0.2,0.2,0.8,0.2,0.2,0.2,0.8","1","",""
"","html-keyboard-response","249","131957","0.0-249.0","3YT88D1N09K989NCLVWJAA2RKY53KX","A1ROEDVMTO9Y3X","3UDTAB6HH6LRO17U79I9TKUGYFV09C","","null","<img src=""img/land5.png"" style=""width:200px; border:14px solid green;"">","null","","","","","","","","","",""
"","image-keyboard-response","250","132560","0.0-250.0","3YT88D1N09K989NCLVWJAA2RKY53KX","A1ROEDVMTO9Y3X","3UDTAB6HH6LRO17U79I9TKUGYFV09C","","601","img/land2.png","76","602.4000000059605","3","1","1","2","0.8,0.2,0.2,0.2,0.8,0.2,0.2,0.2,0.8","0.8,0.2,0.2,0.2,0.8,0.2,0.2,0.2,0.8","1","",""
"","html-keyboard-response","251","132863","0.0-251.0","3YT88D1N09K989NCLVWJAA2RKY53KX","A1ROEDVMTO9Y3X","3UDTAB6HH6LRO17U79I9TKUGYFV09C","","null","<img src=""img/land2.png"" style=""width:200px; border:14px solid green;"">","null","","","","","","","","","",""
"","image-keyboard-response","252","133520","0.0-252.0","3YT88D1N09K989NCLVWJAA2RKY53KX","A1ROEDVMTO9Y3X","3UDTAB6HH6LRO17U79I9TKUGYFV09C","","656.5","img/land3.png","75","657.2000000029802","2","1","2","2","0.8,0.2,0.2,0.2,0.8,0.2,0.2,0.2,0.8","0.8,0.2,0.2,0.2,0.8,0.2,0.2,0.2,0.8","1","",""
"","html-keyboard-response","253","133822","0.0-253.0","3YT88D1N09K989NCLVWJAA2RKY53KX","A1ROEDVMTO9Y3X","3UDTAB6HH6LRO17U79I9TKUGYFV09C","","null","<img src=""img/land3.png"" style=""width:200px; border:14px solid green;"">","null","","","","","","","","","",""
"","image-keyboard-response","254","134289","0.0-254.0","3YT88D1N09K989NCLVWJAA2RKY53KX","A1ROEDVMTO9Y3X","3UDTAB6HH6LRO17U79I9TKUGYFV09C","","465","img/land3.png","76","466.20000000298023","3","0","2","2","0.8,0.2,0.2,0.2,0.8,0.2,0.2,0.2,0.8","0.8,0.2,0.2,0.2,0.8,0.2,0.2,0.2,0.8","1","",""
"","html-keyboard-response","255","134591","0.0-255.0","3YT88D1N09K989NCLVWJAA2RKY53KX","A1ROEDVMTO9Y3X","3UDTAB6HH6LRO17U79I9TKUGYFV09C","","null","<img src=""img/land3.png"" style=""width:200px;border:14px solid red;"">","null","","","","","","","","","",""
"","image-keyboard-response","256","134957","0.0-256.0","3YT88D1N09K989NCLVWJAA2RKY53KX","A1ROEDVMTO9Y3X","3UDTAB6HH6LRO17U79I9TKUGYFV09C","","364.6000000089407","img/land5.png","74","366.20000000298023","1","1","3","2","0.8,0.2,0.2,0.2,0.8,0.2,0.2,0.2,0.8","0.8,0.2,0.2,0.2,0.8,0.2,0.2,0.2,0.8","1","",""
"","html-keyboard-response","257","135260","0.0-257.0","3YT88D1N09K989NCLVWJAA2RKY53KX","A1ROEDVMTO9Y3X","3UDTAB6HH6LRO17U79I9TKUGYFV09C","","null","<img src=""img/land5.png"" style=""width:200px; border:14px solid green;"">","null","","","","","","","","","",""
"","image-keyboard-response","258","136034","0.0-258.0","3YT88D1N09K989NCLVWJAA2RKY53KX","A1ROEDVMTO9Y3X","3UDTAB6HH6LRO17U79I9TKUGYFV09C","","772.7000000029802","img/land2.png","76","773.6000000089407","3","0","1","2","0.8,0.2,0.2,0.2,0.8,0.2,0.2,0.2,0.8","0.8,0.2,0.2,0.2,0.8,0.2,0.2,0.2,0.8","1","",""
"","html-keyboard-response","259","136336","0.0-259.0","3YT88D1N09K989NCLVWJAA2RKY53KX","A1ROEDVMTO9Y3X","3UDTAB6HH6LRO17U79I9TKUGYFV09C","","null","<img src=""img/land2.png"" style=""width:200px;border:14px solid red;"">","null","","","","","","","","","",""
"","image-keyboard-response","260","137047","0.0-260.0","3YT88D1N09K989NCLVWJAA2RKY53KX","A1ROEDVMTO9Y3X","3UDTAB6HH6LRO17U79I9TKUGYFV09C","","709.4000000059605","img/land2.png","74","710","1","1","1","2","0.8,0.2,0.2,0.2,0.8,0.2,0.2,0.2,0.8","0.8,0.2,0.2,0.2,0.8,0.2,0.2,0.2,0.8","1","",""
"","html-keyboard-response","261","137348","0.0-261.0","3YT88D1N09K989NCLVWJAA2RKY53KX","A1ROEDVMTO9Y3X","3UDTAB6HH6LRO17U79I9TKUGYFV09C","","null","<img src=""img/land2.png"" style=""width:200px; border:14px solid green;"">","null","","","","","","","","","",""
"","image-keyboard-response","262","138867","0.0-262.0","3YT88D1N09K989NCLVWJAA2RKY53KX","A1ROEDVMTO9Y3X","3UDTAB6HH6LRO17U79I9TKUGYFV09C","","1518.3999999910593","img/land3.png","74","1518.9000000059605","1","1","2","2","0.8,0.2,0.2,0.2,0.8,0.2,0.2,0.2,0.8","0.8,0.2,0.2,0.2,0.8,0.2,0.2,0.2,0.8","1","",""
"","html-keyboard-response","263","139169","0.0-263.0","3YT88D1N09K989NCLVWJAA2RKY53KX","A1ROEDVMTO9Y3X","3UDTAB6HH6LRO17U79I9TKUGYFV09C","","null","<img src=""img/land3.png"" style=""width:200px; border:14px solid green;"">","null","","","","","","","","","",""
"","image-keyboard-response","264","139361","0.0-264.0","3YT88D1N09K989NCLVWJAA2RKY53KX","A1ROEDVMTO9Y3X","3UDTAB6HH6LRO17U79I9TKUGYFV09C","","190.79999999701977","img/land2.png","75","191.70000000298023","2","0","1","2","0.8,0.2,0.2,0.2,0.8,0.2,0.2,0.2,0.8","0.8,0.2,0.2,0.2,0.8,0.2,0.2,0.2,0.8","1","",""
"","html-keyboard-response","265","139663","0.0-265.0","3YT88D1N09K989NCLVWJAA2RKY53KX","A1ROEDVMTO9Y3X","3UDTAB6HH6LRO17U79I9TKUGYFV09C","","null","<img src=""img/land2.png"" style=""width:200px;border:14px solid red;"">","null","","","","","","","","","",""
"","image-keyboard-response","266","140044","0.0-266.0","3YT88D1N09K989NCLVWJAA2RKY53KX","A1ROEDVMTO9Y3X","3UDTAB6HH6LRO17U79I9TKUGYFV09C","","379.5","img/land2.png","76","380.59999999403954","3","0","1","2","0.8,0.2,0.2,0.2,0.8,0.2,0.2,0.2,0.8","0.8,0.2,0.2,0.2,0.8,0.2,0.2,0.2,0.8","1","",""
"","html-keyboard-response","267","140346","0.0-267.0","3YT88D1N09K989NCLVWJAA2RKY53KX","A1ROEDVMTO9Y3X","3UDTAB6HH6LRO17U79I9TKUGYFV09C","","null","<img src=""img/land2.png"" style=""width:200px;border:14px solid red;"">","null","","","","","","","","","",""
"","image-keyboard-response","268","140832","0.0-268.0","3YT88D1N09K989NCLVWJAA2RKY53KX","A1ROEDVMTO9Y3X","3UDTAB6HH6LRO17U79I9TKUGYFV09C","","484.70000000298023","img/land2.png","74","485.90000000596046","1","0","1","2","0.8,0.2,0.2,0.2,0.8,0.2,0.2,0.2,0.8","0.8,0.2,0.2,0.2,0.8,0.2,0.2,0.2,0.8","1","",""
"","html-keyboard-response","269","141134","0.0-269.0","3YT88D1N09K989NCLVWJAA2RKY53KX","A1ROEDVMTO9Y3X","3UDTAB6HH6LRO17U79I9TKUGYFV09C","","null","<img src=""img/land2.png"" style=""width:200px;border:14px solid red;"">","null","","","","","","","","","",""
"","image-keyboard-response","270","141724","0.0-270.0","3YT88D1N09K989NCLVWJAA2RKY53KX","A1ROEDVMTO9Y3X","3UDTAB6HH6LRO17U79I9TKUGYFV09C","","589.0999999940395","img/land5.png","74","590.2000000029802","1","0","3","2","0.8,0.2,0.2,0.2,0.8,0.2,0.2,0.2,0.8","0.8,0.2,0.2,0.2,0.8,0.2,0.2,0.2,0.8","1","",""
"","html-keyboard-response","271","142029","0.0-271.0","3YT88D1N09K989NCLVWJAA2RKY53KX","A1ROEDVMTO9Y3X","3UDTAB6HH6LRO17U79I9TKUGYFV09C","","null","<img src=""img/land5.png"" style=""width:200px;border:14px solid red;"">","null","","","","","","","","","",""
"","image-keyboard-response","272","142775","0.0-272.0","3YT88D1N09K989NCLVWJAA2RKY53KX","A1ROEDVMTO9Y3X","3UDTAB6HH6LRO17U79I9TKUGYFV09C","","743.7000000029802","img/land2.png","74","745","1","1","1","2","0.8,0.2,0.2,0.2,0.8,0.2,0.2,0.2,0.8","0.8,0.2,0.2,0.2,0.8,0.2,0.2,0.2,0.8","1","",""
"","html-keyboard-response","273","143078","0.0-273.0","3YT88D1N09K989NCLVWJAA2RKY53KX","A1ROEDVMTO9Y3X","3UDTAB6HH6LRO17U79I9TKUGYFV09C","","null","<img src=""img/land2.png"" style=""width:200px; border:14px solid green;"">","null","","","","","","","","","",""
"","image-keyboard-response","274","143737","0.0-274.0","3YT88D1N09K989NCLVWJAA2RKY53KX","A1ROEDVMTO9Y3X","3UDTAB6HH6LRO17U79I9TKUGYFV09C","","658","img/land2.png","74","659.2999999970198","1","1","1","2","0.8,0.2,0.2,0.2,0.8,0.2,0.2,0.2,0.8","0.8,0.2,0.2,0.2,0.8,0.2,0.2,0.2,0.8","1","",""
"","html-keyboard-response","275","144039","0.0-275.0","3YT88D1N09K989NCLVWJAA2RKY53KX","A1ROEDVMTO9Y3X","3UDTAB6HH6LRO17U79I9TKUGYFV09C","","null","<img src=""img/land2.png"" style=""width:200px; border:14px solid green;"">","null","","","","","","","","","",""
"","image-keyboard-response","276","144470","0.0-276.0","3YT88D1N09K989NCLVWJAA2RKY53KX","A1ROEDVMTO9Y3X","3UDTAB6HH6LRO17U79I9TKUGYFV09C","","427.19999998807907","img/land2.png","74","428.59999999403954","1","1","1","2","0.8,0.2,0.2,0.2,0.8,0.2,0.2,0.2,0.8","0.8,0.2,0.2,0.2,0.8,0.2,0.2,0.2,0.8","1","",""
"","html-keyboard-response","277","144772","0.0-277.0","3YT88D1N09K989NCLVWJAA2RKY53KX","A1ROEDVMTO9Y3X","3UDTAB6HH6LRO17U79I9TKUGYFV09C","","null","<img src=""img/land2.png"" style=""width:200px; border:14px solid green;"">","null","","","","","","","","","",""
"","image-keyboard-response","278","145611","0.0-278.0","3YT88D1N09K989NCLVWJAA2RKY53KX","A1ROEDVMTO9Y3X","3UDTAB6HH6LRO17U79I9TKUGYFV09C","","837.7999999970198","img/land3.png","76","839","3","1","2","2","0.8,0.2,0.2,0.2,0.8,0.2,0.2,0.2,0.8","0.8,0.2,0.2,0.2,0.8,0.2,0.2,0.2,0.8","1","",""
"","html-keyboard-response","279","145913","0.0-279.0","3YT88D1N09K989NCLVWJAA2RKY53KX","A1ROEDVMTO9Y3X","3UDTAB6HH6LRO17U79I9TKUGYFV09C","","null","<img src=""img/land3.png"" style=""width:200px; border:14px solid green;"">","null","","","","","","","","","",""
"","image-keyboard-response","280","146618","0.0-280.0","3YT88D1N09K989NCLVWJAA2RKY53KX","A1ROEDVMTO9Y3X","3UDTAB6HH6LRO17U79I9TKUGYFV09C","","702.7999999970198","img/land3.png","76","704.3000000119209","3","0","2","2","0.8,0.2,0.2,0.2,0.8,0.2,0.2,0.2,0.8","0.8,0.2,0.2,0.2,0.8,0.2,0.2,0.2,0.8","1","",""
"","html-keyboard-response","281","146920","0.0-281.0","3YT88D1N09K989NCLVWJAA2RKY53KX","A1ROEDVMTO9Y3X","3UDTAB6HH6LRO17U79I9TKUGYFV09C","","null","<img src=""img/land3.png"" style=""width:200px;border:14px solid red;"">","null","","","","","","","","","",""
"","image-keyboard-response","282","147104","0.0-282.0","3YT88D1N09K989NCLVWJAA2RKY53KX","A1ROEDVMTO9Y3X","3UDTAB6HH6LRO17U79I9TKUGYFV09C","","182.29999999701977","img/land2.png","75","183.80000001192093","2","0","1","2","0.8,0.2,0.2,0.2,0.8,0.2,0.2,0.2,0.8","0.8,0.2,0.2,0.2,0.8,0.2,0.2,0.2,0.8","1","",""
"","html-keyboard-response","283","147406","0.0-283.0","3YT88D1N09K989NCLVWJAA2RKY53KX","A1ROEDVMTO9Y3X","3UDTAB6HH6LRO17U79I9TKUGYFV09C","","null","<img src=""img/land2.png"" style=""width:200px;border:14px solid red;"">","null","","","","","","","","","",""
"","image-keyboard-response","284","148330","0.0-284.0","3YT88D1N09K989NCLVWJAA2RKY53KX","A1ROEDVMTO9Y3X","3UDTAB6HH6LRO17U79I9TKUGYFV09C","","921.5","img/land3.png","75","922.9000000059605","2","1","2","2","0.8,0.2,0.2,0.2,0.8,0.2,0.2,0.2,0.8","0.8,0.2,0.2,0.2,0.8,0.2,0.2,0.2,0.8","1","",""
"","html-keyboard-response","285","148633","0.0-285.0","3YT88D1N09K989NCLVWJAA2RKY53KX","A1ROEDVMTO9Y3X","3UDTAB6HH6LRO17U79I9TKUGYFV09C","","null","<img src=""img/land3.png"" style=""width:200px; border:14px solid green;"">","null","","","","","","","","","",""
"","image-keyboard-response","286","149103","0.0-286.0","3YT88D1N09K989NCLVWJAA2RKY53KX","A1ROEDVMTO9Y3X","3UDTAB6HH6LRO17U79I9TKUGYFV09C","","468.5","img/land5.png","74","469.70000000298023","1","0","3","2","0.8,0.2,0.2,0.2,0.8,0.2,0.2,0.2,0.8","0.8,0.2,0.2,0.2,0.8,0.2,0.2,0.2,0.8","1","",""
"","html-keyboard-response","287","149404","0.0-287.0","3YT88D1N09K989NCLVWJAA2RKY53KX","A1ROEDVMTO9Y3X","3UDTAB6HH6LRO17U79I9TKUGYFV09C","","null","<img src=""img/land5.png"" style=""width:200px;border:14px solid red;"">","null","","","","","","","","","",""
"","image-keyboard-response","288","149758","0.0-288.0","3YT88D1N09K989NCLVWJAA2RKY53KX","A1ROEDVMTO9Y3X","3UDTAB6HH6LRO17U79I9TKUGYFV09C","","352.90000000596046","img/land5.png","76","354.1000000089407","3","1","3","2","0.8,0.2,0.2,0.2,0.8,0.2,0.2,0.2,0.8","0.8,0.2,0.2,0.2,0.8,0.2,0.2,0.2,0.8","1","",""
"","html-keyboard-response","289","150059","0.0-289.0","3YT88D1N09K989NCLVWJAA2RKY53KX","A1ROEDVMTO9Y3X","3UDTAB6HH6LRO17U79I9TKUGYFV09C","","null","<img src=""img/land5.png"" style=""width:200px; border:14px solid green;"">","null","","","","","","","","","",""
"","image-keyboard-response","290","150823","0.0-290.0","3YT88D1N09K989NCLVWJAA2RKY53KX","A1ROEDVMTO9Y3X","3UDTAB6HH6LRO17U79I9TKUGYFV09C","","762.5","img/land5.png","74","763.5999999940395","1","0","3","2","0.8,0.2,0.2,0.2,0.8,0.2,0.2,0.2,0.8","0.8,0.2,0.2,0.2,0.8,0.2,0.2,0.2,0.8","1","",""
"","html-keyboard-response","291","151126","0.0-291.0","3YT88D1N09K989NCLVWJAA2RKY53KX","A1ROEDVMTO9Y3X","3UDTAB6HH6LRO17U79I9TKUGYFV09C","","null","<img src=""img/land5.png"" style=""width:200px;border:14px solid red;"">","null","","","","","","","","","",""
"","image-keyboard-response","292","152140","0.0-292.0","3YT88D1N09K989NCLVWJAA2RKY53KX","A1ROEDVMTO9Y3X","3UDTAB6HH6LRO17U79I9TKUGYFV09C","","1012.3000000119209","img/land5.png","75","1013.7000000029802","2","0","3","2","0.8,0.2,0.2,0.2,0.8,0.2,0.2,0.2,0.8","0.8,0.2,0.2,0.2,0.8,0.2,0.2,0.2,0.8","1","",""
"","html-keyboard-response","293","152443","0.0-293.0","3YT88D1N09K989NCLVWJAA2RKY53KX","A1ROEDVMTO9Y3X","3UDTAB6HH6LRO17U79I9TKUGYFV09C","","null","<img src=""img/land5.png"" style=""width:200px;border:14px solid red;"">","null","","","","","","","","","",""
"","image-keyboard-response","294","153148","0.0-294.0","3YT88D1N09K989NCLVWJAA2RKY53KX","A1ROEDVMTO9Y3X","3UDTAB6HH6LRO17U79I9TKUGYFV09C","","704.5","img/land3.png","75","705","2","0","2","2","0.8,0.2,0.2,0.2,0.8,0.2,0.2,0.2,0.8","0.8,0.2,0.2,0.2,0.8,0.2,0.2,0.2,0.8","1","",""
"","html-keyboard-response","295","153449","0.0-295.0","3YT88D1N09K989NCLVWJAA2RKY53KX","A1ROEDVMTO9Y3X","3UDTAB6HH6LRO17U79I9TKUGYFV09C","","null","<img src=""img/land3.png"" style=""width:200px;border:14px solid red;"">","null","","","","","","","","","",""
"","image-keyboard-response","296","153832","0.0-296.0","3YT88D1N09K989NCLVWJAA2RKY53KX","A1ROEDVMTO9Y3X","3UDTAB6HH6LRO17U79I9TKUGYFV09C","","381.40000000596046","img/land2.png","74","382.3999999910593","1","1","1","2","0.8,0.2,0.2,0.2,0.8,0.2,0.2,0.2,0.8","0.8,0.2,0.2,0.2,0.8,0.2,0.2,0.2,0.8","1","",""
"","html-keyboard-response","297","154134","0.0-297.0","3YT88D1N09K989NCLVWJAA2RKY53KX","A1ROEDVMTO9Y3X","3UDTAB6HH6LRO17U79I9TKUGYFV09C","","null","<img src=""img/land2.png"" style=""width:200px; border:14px solid green;"">","null","","","","","","","","","",""
"","image-keyboard-response","298","154503","0.0-298.0","3YT88D1N09K989NCLVWJAA2RKY53KX","A1ROEDVMTO9Y3X","3UDTAB6HH6LRO17U79I9TKUGYFV09C","","368.19999998807907","img/land2.png","76","369.40000000596046","3","0","1","2","0.8,0.2,0.2,0.2,0.8,0.2,0.2,0.2,0.8","0.8,0.2,0.2,0.2,0.8,0.2,0.2,0.2,0.8","1","",""
"","html-keyboard-response","299","154811","0.0-299.0","3YT88D1N09K989NCLVWJAA2RKY53KX","A1ROEDVMTO9Y3X","3UDTAB6HH6LRO17U79I9TKUGYFV09C","","null","<img src=""img/land2.png"" style=""width:200px;border:14px solid red;"">","null","","","","","","","","","",""
"","image-keyboard-response","300","155243","0.0-300.0","3YT88D1N09K989NCLVWJAA2RKY53KX","A1ROEDVMTO9Y3X","3UDTAB6HH6LRO17U79I9TKUGYFV09C","","430","img/land3.png","76","431.29999999701977","3","0","2","2","0.8,0.2,0.2,0.2,0.8,0.2,0.2,0.2,0.8","0.8,0.2,0.2,0.2,0.8,0.2,0.2,0.2,0.8","1","",""
"","html-keyboard-response","301","155545","0.0-301.0","3YT88D1N09K989NCLVWJAA2RKY53KX","A1ROEDVMTO9Y3X","3UDTAB6HH6LRO17U79I9TKUGYFV09C","","null","<img src=""img/land3.png"" style=""width:200px;border:14px solid red;"">","null","","","","","","","","","",""
"","image-keyboard-response","302","156048","0.0-302.0","3YT88D1N09K989NCLVWJAA2RKY53KX","A1ROEDVMTO9Y3X","3UDTAB6HH6LRO17U79I9TKUGYFV09C","","501.69999998807907","img/land1.png","76","503.09999999403954","3","1","3","1","0.8,0.2,0.2,0.2,0.8,0.2,0.2,0.2,0.8","0.8,0.2,0.2,0.2,0.8,0.2,0.2,0.2,0.8","1","",""
"","html-keyboard-response","303","156351","0.0-303.0","3YT88D1N09K989NCLVWJAA2RKY53KX","A1ROEDVMTO9Y3X","3UDTAB6HH6LRO17U79I9TKUGYFV09C","","null","<img src=""img/land1.png"" style=""width:200px; border:14px solid green;"">","null","","","","","","","","","",""
"","image-keyboard-response","304","157029","0.0-304.0","3YT88D1N09K989NCLVWJAA2RKY53KX","A1ROEDVMTO9Y3X","3UDTAB6HH6LRO17U79I9TKUGYFV09C","","676","img/land6.png","74","677.4000000059605","1","1","1","1","0.8,0.2,0.2,0.2,0.8,0.2,0.2,0.2,0.8","0.8,0.2,0.2,0.2,0.8,0.2,0.2,0.2,0.8","1","",""
"","html-keyboard-response","305","157332","0.0-305.0","3YT88D1N09K989NCLVWJAA2RKY53KX","A1ROEDVMTO9Y3X","3UDTAB6HH6LRO17U79I9TKUGYFV09C","","null","<img src=""img/land6.png"" style=""width:200px; border:14px solid green;"">","null","","","","","","","","","",""
"","image-keyboard-response","306","157977","0.0-306.0","3YT88D1N09K989NCLVWJAA2RKY53KX","A1ROEDVMTO9Y3X","3UDTAB6HH6LRO17U79I9TKUGYFV09C","","643.2999999970198","img/land6.png","75","644.5","2","0","1","1","0.8,0.2,0.2,0.2,0.8,0.2,0.2,0.2,0.8","0.8,0.2,0.2,0.2,0.8,0.2,0.2,0.2,0.8","1","",""
"","html-keyboard-response","307","158279","0.0-307.0","3YT88D1N09K989NCLVWJAA2RKY53KX","A1ROEDVMTO9Y3X","3UDTAB6HH6LRO17U79I9TKUGYFV09C","","null","<img src=""img/land6.png"" style=""width:200px;border:14px solid red;"">","null","","","","","","","","","",""
"","image-keyboard-response","308","158965","0.0-308.0","3YT88D1N09K989NCLVWJAA2RKY53KX","A1ROEDVMTO9Y3X","3UDTAB6HH6LRO17U79I9TKUGYFV09C","","685.2000000029802","img/land4.png","74","686.3999999910593","1","0","2","1","0.8,0.2,0.2,0.2,0.8,0.2,0.2,0.2,0.8","0.8,0.2,0.2,0.2,0.8,0.2,0.2,0.2,0.8","1","",""
"","html-keyboard-response","309","159268","0.0-309.0","3YT88D1N09K989NCLVWJAA2RKY53KX","A1ROEDVMTO9Y3X","3UDTAB6HH6LRO17U79I9TKUGYFV09C","","null","<img src=""img/land4.png"" style=""width:200px;border:14px solid red;"">","null","","","","","","","","","",""
"","image-keyboard-response","310","159732","0.0-310.0","3YT88D1N09K989NCLVWJAA2RKY53KX","A1ROEDVMTO9Y3X","3UDTAB6HH6LRO17U79I9TKUGYFV09C","","462.30000001192093","img/land4.png","76","463.6000000089407","3","0","2","1","0.8,0.2,0.2,0.2,0.8,0.2,0.2,0.2,0.8","0.8,0.2,0.2,0.2,0.8,0.2,0.2,0.2,0.8","1","",""
"","html-keyboard-response","311","160033","0.0-311.0","3YT88D1N09K989NCLVWJAA2RKY53KX","A1ROEDVMTO9Y3X","3UDTAB6HH6LRO17U79I9TKUGYFV09C","","null","<img src=""img/land4.png"" style=""width:200px;border:14px solid red;"">","null","","","","","","","","","",""
"","image-keyboard-response","312","160310","0.0-312.0","3YT88D1N09K989NCLVWJAA2RKY53KX","A1ROEDVMTO9Y3X","3UDTAB6HH6LRO17U79I9TKUGYFV09C","","274.70000000298023","img/land4.png","75","275.90000000596046","2","1","2","1","0.8,0.2,0.2,0.2,0.8,0.2,0.2,0.2,0.8","0.8,0.2,0.2,0.2,0.8,0.2,0.2,0.2,0.8","1","",""
"","html-keyboard-response","313","160613","0.0-313.0","3YT88D1N09K989NCLVWJAA2RKY53KX","A1ROEDVMTO9Y3X","3UDTAB6HH6LRO17U79I9TKUGYFV09C","","null","<img src=""img/land4.png"" style=""width:200px; border:14px solid green;"">","null","","","","","","","","","",""
"","image-keyboard-response","314","161092","0.0-314.0","3YT88D1N09K989NCLVWJAA2RKY53KX","A1ROEDVMTO9Y3X","3UDTAB6HH6LRO17U79I9TKUGYFV09C","","477","img/land6.png","75","478.40000000596046","2","1","1","1","0.8,0.2,0.2,0.2,0.8,0.2,0.2,0.2,0.8","0.8,0.2,0.2,0.2,0.8,0.2,0.2,0.2,0.8","1","",""
"","html-keyboard-response","315","161394","0.0-315.0","3YT88D1N09K989NCLVWJAA2RKY53KX","A1ROEDVMTO9Y3X","3UDTAB6HH6LRO17U79I9TKUGYFV09C","","null","<img src=""img/land6.png"" style=""width:200px; border:14px solid green;"">","null","","","","","","","","","",""
"","image-keyboard-response","316","162114","0.0-316.0","3YT88D1N09K989NCLVWJAA2RKY53KX","A1ROEDVMTO9Y3X","3UDTAB6HH6LRO17U79I9TKUGYFV09C","","718.5","img/land6.png","75","719.7999999970198","2","0","1","1","0.8,0.2,0.2,0.2,0.8,0.2,0.2,0.2,0.8","0.8,0.2,0.2,0.2,0.8,0.2,0.2,0.2,0.8","1","",""
"","html-keyboard-response","317","162417","0.0-317.0","3YT88D1N09K989NCLVWJAA2RKY53KX","A1ROEDVMTO9Y3X","3UDTAB6HH6LRO17U79I9TKUGYFV09C","","null","<img src=""img/land6.png"" style=""width:200px;border:14px solid red;"">","null","","","","","","","","","",""
"","image-keyboard-response","318","162650","0.0-318.0","3YT88D1N09K989NCLVWJAA2RKY53KX","A1ROEDVMTO9Y3X","3UDTAB6HH6LRO17U79I9TKUGYFV09C","","231.80000001192093","img/land6.png","74","233.09999999403954","1","1","1","1","0.8,0.2,0.2,0.2,0.8,0.2,0.2,0.2,0.8","0.8,0.2,0.2,0.2,0.8,0.2,0.2,0.2,0.8","1","",""
"","html-keyboard-response","319","162953","0.0-319.0","3YT88D1N09K989NCLVWJAA2RKY53KX","A1ROEDVMTO9Y3X","3UDTAB6HH6LRO17U79I9TKUGYFV09C","","null","<img src=""img/land6.png"" style=""width:200px; border:14px solid green;"">","null","","","","","","","","","",""
"","image-keyboard-response","320","163309","0.0-320.0","3YT88D1N09K989NCLVWJAA2RKY53KX","A1ROEDVMTO9Y3X","3UDTAB6HH6LRO17U79I9TKUGYFV09C","","355.3999999910593","img/land1.png","76","356.19999998807907","3","1","3","1","0.8,0.2,0.2,0.2,0.8,0.2,0.2,0.2,0.8","0.8,0.2,0.2,0.2,0.8,0.2,0.2,0.2,0.8","1","",""
"","html-keyboard-response","321","163612","0.0-321.0","3YT88D1N09K989NCLVWJAA2RKY53KX","A1ROEDVMTO9Y3X","3UDTAB6HH6LRO17U79I9TKUGYFV09C","","null","<img src=""img/land1.png"" style=""width:200px; border:14px solid green;"">","null","","","","","","","","","",""
"","image-keyboard-response","322","164065","0.0-322.0","3YT88D1N09K989NCLVWJAA2RKY53KX","A1ROEDVMTO9Y3X","3UDTAB6HH6LRO17U79I9TKUGYFV09C","","451.90000000596046","img/land4.png","75","453.20000000298023","2","1","2","1","0.8,0.2,0.2,0.2,0.8,0.2,0.2,0.2,0.8","0.8,0.2,0.2,0.2,0.8,0.2,0.2,0.2,0.8","1","",""
"","html-keyboard-response","323","164368","0.0-323.0","3YT88D1N09K989NCLVWJAA2RKY53KX","A1ROEDVMTO9Y3X","3UDTAB6HH6LRO17U79I9TKUGYFV09C","","null","<img src=""img/land4.png"" style=""width:200px; border:14px solid green;"">","null","","","","","","","","","",""
"","image-keyboard-response","324","165045","0.0-324.0","3YT88D1N09K989NCLVWJAA2RKY53KX","A1ROEDVMTO9Y3X","3UDTAB6HH6LRO17U79I9TKUGYFV09C","","675.1999999880791","img/land1.png","75","676.4000000059605","2","0","3","1","0.8,0.2,0.2,0.2,0.8,0.2,0.2,0.2,0.8","0.8,0.2,0.2,0.2,0.8,0.2,0.2,0.2,0.8","1","",""
"","html-keyboard-response","325","165347","0.0-325.0","3YT88D1N09K989NCLVWJAA2RKY53KX","A1ROEDVMTO9Y3X","3UDTAB6HH6LRO17U79I9TKUGYFV09C","","null","<img src=""img/land1.png"" style=""width:200px;border:14px solid red;"">","null","","","","","","","","","",""
"","image-keyboard-response","326","165625","0.0-326.0","3YT88D1N09K989NCLVWJAA2RKY53KX","A1ROEDVMTO9Y3X","3UDTAB6HH6LRO17U79I9TKUGYFV09C","","276.29999999701977","img/land4.png","74","277.69999998807907","1","0","2","1","0.8,0.2,0.2,0.2,0.8,0.2,0.2,0.2,0.8","0.8,0.2,0.2,0.2,0.8,0.2,0.2,0.2,0.8","1","",""
"","html-keyboard-response","327","165927","0.0-327.0","3YT88D1N09K989NCLVWJAA2RKY53KX","A1ROEDVMTO9Y3X","3UDTAB6HH6LRO17U79I9TKUGYFV09C","","null","<img src=""img/land4.png"" style=""width:200px;border:14px solid red;"">","null","","","","","","","","","",""
"","image-keyboard-response","328","166282","0.0-328.0","3YT88D1N09K989NCLVWJAA2RKY53KX","A1ROEDVMTO9Y3X","3UDTAB6HH6LRO17U79I9TKUGYFV09C","","352.79999999701977","img/land6.png","76","354","3","1","1","1","0.8,0.2,0.2,0.2,0.8,0.2,0.2,0.2,0.8","0.8,0.2,0.2,0.2,0.8,0.2,0.2,0.2,0.8","1","",""
"","html-keyboard-response","329","166584","0.0-329.0","3YT88D1N09K989NCLVWJAA2RKY53KX","A1ROEDVMTO9Y3X","3UDTAB6HH6LRO17U79I9TKUGYFV09C","","null","<img src=""img/land6.png"" style=""width:200px; border:14px solid green;"">","null","","","","","","","","","",""
"","image-keyboard-response","330","167071","0.0-330.0","3YT88D1N09K989NCLVWJAA2RKY53KX","A1ROEDVMTO9Y3X","3UDTAB6HH6LRO17U79I9TKUGYFV09C","","486.8999999910593","img/land1.png","76","487.5","3","1","3","1","0.8,0.2,0.2,0.2,0.8,0.2,0.2,0.2,0.8","0.8,0.2,0.2,0.2,0.8,0.2,0.2,0.2,0.8","1","",""
"","html-keyboard-response","331","167373","0.0-331.0","3YT88D1N09K989NCLVWJAA2RKY53KX","A1ROEDVMTO9Y3X","3UDTAB6HH6LRO17U79I9TKUGYFV09C","","null","<img src=""img/land1.png"" style=""width:200px; border:14px solid green;"">","null","","","","","","","","","",""
"","image-keyboard-response","332","168013","0.0-332.0","3YT88D1N09K989NCLVWJAA2RKY53KX","A1ROEDVMTO9Y3X","3UDTAB6HH6LRO17U79I9TKUGYFV09C","","638.1999999880791","img/land4.png","76","639.2999999970198","3","0","2","1","0.8,0.2,0.2,0.2,0.8,0.2,0.2,0.2,0.8","0.8,0.2,0.2,0.2,0.8,0.2,0.2,0.2,0.8","1","",""
"","html-keyboard-response","333","168323","0.0-333.0","3YT88D1N09K989NCLVWJAA2RKY53KX","A1ROEDVMTO9Y3X","3UDTAB6HH6LRO17U79I9TKUGYFV09C","","null","<img src=""img/land4.png"" style=""width:200px;border:14px solid red;"">","null","","","","","","","","","",""
"","image-keyboard-response","334","168728","0.0-334.0","3YT88D1N09K989NCLVWJAA2RKY53KX","A1ROEDVMTO9Y3X","3UDTAB6HH6LRO17U79I9TKUGYFV09C","","403.20000000298023","img/land6.png","75","404.59999999403954","2","0","1","1","0.8,0.2,0.2,0.2,0.8,0.2,0.2,0.2,0.8","0.8,0.2,0.2,0.2,0.8,0.2,0.2,0.2,0.8","1","",""
"","html-keyboard-response","335","169031","0.0-335.0","3YT88D1N09K989NCLVWJAA2RKY53KX","A1ROEDVMTO9Y3X","3UDTAB6HH6LRO17U79I9TKUGYFV09C","","null","<img src=""img/land6.png"" style=""width:200px;border:14px solid red;"">","null","","","","","","","","","",""
"","image-keyboard-response","336","169451","0.0-336.0","3YT88D1N09K989NCLVWJAA2RKY53KX","A1ROEDVMTO9Y3X","3UDTAB6HH6LRO17U79I9TKUGYFV09C","","418.70000000298023","img/land6.png","74","419.69999998807907","1","1","1","1","0.8,0.2,0.2,0.2,0.8,0.2,0.2,0.2,0.8","0.8,0.2,0.2,0.2,0.8,0.2,0.2,0.2,0.8","1","",""
"","html-keyboard-response","337","169753","0.0-337.0","3YT88D1N09K989NCLVWJAA2RKY53KX","A1ROEDVMTO9Y3X","3UDTAB6HH6LRO17U79I9TKUGYFV09C","","null","<img src=""img/land6.png"" style=""width:200px; border:14px solid green;"">","null","","","","","","","","","",""
"","image-keyboard-response","338","170283","0.0-338.0","3YT88D1N09K989NCLVWJAA2RKY53KX","A1ROEDVMTO9Y3X","3UDTAB6HH6LRO17U79I9TKUGYFV09C","","529","img/land6.png","74","530","1","1","1","1","0.8,0.2,0.2,0.2,0.8,0.2,0.2,0.2,0.8","0.8,0.2,0.2,0.2,0.8,0.2,0.2,0.2,0.8","1","",""
"","html-keyboard-response","339","170584","0.0-339.0","3YT88D1N09K989NCLVWJAA2RKY53KX","A1ROEDVMTO9Y3X","3UDTAB6HH6LRO17U79I9TKUGYFV09C","","null","<img src=""img/land6.png"" style=""width:200px; border:14px solid green;"">","null","","","","","","","","","",""
"","image-keyboard-response","340","171135","0.0-340.0","3YT88D1N09K989NCLVWJAA2RKY53KX","A1ROEDVMTO9Y3X","3UDTAB6HH6LRO17U79I9TKUGYFV09C","","549.2000000029802","img/land1.png","74","550.6000000089407","1","0","3","1","0.8,0.2,0.2,0.2,0.8,0.2,0.2,0.2,0.8","0.8,0.2,0.2,0.2,0.8,0.2,0.2,0.2,0.8","1","",""
"","html-keyboard-response","341","171437","0.0-341.0","3YT88D1N09K989NCLVWJAA2RKY53KX","A1ROEDVMTO9Y3X","3UDTAB6HH6LRO17U79I9TKUGYFV09C","","null","<img src=""img/land1.png"" style=""width:200px;border:14px solid red;"">","null","","","","","","","","","",""
"","image-keyboard-response","342","172684","0.0-342.0","3YT88D1N09K989NCLVWJAA2RKY53KX","A1ROEDVMTO9Y3X","3UDTAB6HH6LRO17U79I9TKUGYFV09C","","1246.2999999970198","img/land6.png","75","1247.2999999970198","2","0","1","1","0.8,0.2,0.2,0.2,0.8,0.2,0.2,0.2,0.8","0.8,0.2,0.2,0.2,0.8,0.2,0.2,0.2,0.8","1","",""
"","html-keyboard-response","343","172986","0.0-343.0","3YT88D1N09K989NCLVWJAA2RKY53KX","A1ROEDVMTO9Y3X","3UDTAB6HH6LRO17U79I9TKUGYFV09C","","null","<img src=""img/land6.png"" style=""width:200px;border:14px solid red;"">","null","","","","","","","","","",""
"","image-keyboard-response","344","173755","0.0-344.0","3YT88D1N09K989NCLVWJAA2RKY53KX","A1ROEDVMTO9Y3X","3UDTAB6HH6LRO17U79I9TKUGYFV09C","","766.5999999940395","img/land4.png","76","768.0999999940395","3","0","2","1","0.8,0.2,0.2,0.2,0.8,0.2,0.2,0.2,0.8","0.8,0.2,0.2,0.2,0.8,0.2,0.2,0.2,0.8","1","",""
"","html-keyboard-response","345","174057","0.0-345.0","3YT88D1N09K989NCLVWJAA2RKY53KX","A1ROEDVMTO9Y3X","3UDTAB6HH6LRO17U79I9TKUGYFV09C","","null","<img src=""img/land4.png"" style=""width:200px;border:14px solid red;"">","null","","","","","","","","","",""
"","image-keyboard-response","346","174653","0.0-346.0","3YT88D1N09K989NCLVWJAA2RKY53KX","A1ROEDVMTO9Y3X","3UDTAB6HH6LRO17U79I9TKUGYFV09C","","594","img/land4.png","74","595.3999999910593","1","1","2","1","0.8,0.2,0.2,0.2,0.8,0.2,0.2,0.2,0.8","0.8,0.2,0.2,0.2,0.8,0.2,0.2,0.2,0.8","1","",""
"","html-keyboard-response","347","174955","0.0-347.0","3YT88D1N09K989NCLVWJAA2RKY53KX","A1ROEDVMTO9Y3X","3UDTAB6HH6LRO17U79I9TKUGYFV09C","","null","<img src=""img/land4.png"" style=""width:200px; border:14px solid green;"">","null","","","","","","","","","",""
"","image-keyboard-response","348","175495","0.0-348.0","3YT88D1N09K989NCLVWJAA2RKY53KX","A1ROEDVMTO9Y3X","3UDTAB6HH6LRO17U79I9TKUGYFV09C","","538","img/land6.png","74","539.2999999970198","1","1","1","1","0.8,0.2,0.2,0.2,0.8,0.2,0.2,0.2,0.8","0.8,0.2,0.2,0.2,0.8,0.2,0.2,0.2,0.8","1","",""
"","html-keyboard-response","349","175798","0.0-349.0","3YT88D1N09K989NCLVWJAA2RKY53KX","A1ROEDVMTO9Y3X","3UDTAB6HH6LRO17U79I9TKUGYFV09C","","null","<img src=""img/land6.png"" style=""width:200px; border:14px solid green;"">","null","","","","","","","","","",""
"","image-keyboard-response","350","176272","0.0-350.0","3YT88D1N09K989NCLVWJAA2RKY53KX","A1ROEDVMTO9Y3X","3UDTAB6HH6LRO17U79I9TKUGYFV09C","","472.1000000089407","img/land6.png","76","473.3999999910593","3","0","1","1","0.8,0.2,0.2,0.2,0.8,0.2,0.2,0.2,0.8","0.8,0.2,0.2,0.2,0.8,0.2,0.2,0.2,0.8","1","",""
"","html-keyboard-response","351","176573","0.0-351.0","3YT88D1N09K989NCLVWJAA2RKY53KX","A1ROEDVMTO9Y3X","3UDTAB6HH6LRO17U79I9TKUGYFV09C","","null","<img src=""img/land6.png"" style=""width:200px;border:14px solid red;"">","null","","","","","","","","","",""
"","image-keyboard-response","352","176918","0.0-352.0","3YT88D1N09K989NCLVWJAA2RKY53KX","A1ROEDVMTO9Y3X","3UDTAB6HH6LRO17U79I9TKUGYFV09C","","342.70000000298023","img/land6.png","74","344.09999999403954","1","1","1","1","0.8,0.2,0.2,0.2,0.8,0.2,0.2,0.2,0.8","0.8,0.2,0.2,0.2,0.8,0.2,0.2,0.2,0.8","1","",""
"","html-keyboard-response","353","177220","0.0-353.0","3YT88D1N09K989NCLVWJAA2RKY53KX","A1ROEDVMTO9Y3X","3UDTAB6HH6LRO17U79I9TKUGYFV09C","","null","<img src=""img/land6.png"" style=""width:200px; border:14px solid green;"">","null","","","","","","","","","",""
"","image-keyboard-response","354","177727","0.0-354.0","3YT88D1N09K989NCLVWJAA2RKY53KX","A1ROEDVMTO9Y3X","3UDTAB6HH6LRO17U79I9TKUGYFV09C","","505.20000000298023","img/land6.png","74","506.5","1","1","1","1","0.8,0.2,0.2,0.2,0.8,0.2,0.2,0.2,0.8","0.8,0.2,0.2,0.2,0.8,0.2,0.2,0.2,0.8","1","",""
"","html-keyboard-response","355","178029","0.0-355.0","3YT88D1N09K989NCLVWJAA2RKY53KX","A1ROEDVMTO9Y3X","3UDTAB6HH6LRO17U79I9TKUGYFV09C","","null","<img src=""img/land6.png"" style=""width:200px; border:14px solid green;"">","null","","","","","","","","","",""
