"success","trial_type","trial_index","time_elapsed","internal_node_id","assignmentID","mturkID","hitID","view_history","rt","stimulus","key_press","reactionTime","a","r","s","cond","reward_cond","reward_cond_actual","reward_matrix_idx","responses","question_order"
"true","fullscreen","0","2186","0.0-0.0","351SEKWQS132GPPCZWFB2WG70GZMDT","A1SLJKNSNHOJRN","3PIOQ99R7Y8STPN46QFY0SD7JTFNU0","","","","","","","","","","","","","",""
"","instructions","1","44923","0.0-1.0","351SEKWQS132GPPCZWFB2WG70GZMDT","A1SLJKNSNHOJRN","3PIOQ99R7Y8STPN46QFY0SD7JTFNU0","[{""page_index"":0,""viewing_time"":3921.5999999046326},{""page_index"":1,""viewing_time"":2639.9000000953674},{""page_index"":2,""viewing_time"":4678.299999952316},{""page_index"":3,""viewing_time"":12549.799999952316},{""page_index"":4,""viewing_time"":8987.900000095367},{""page_index"":5,""viewing_time"":7334},{""page_index"":6,""viewing_time"":2624}]","42735.89999985695","","","","","","","","","","","",""
"","image-keyboard-response","2","45975","0.0-2.0","351SEKWQS132GPPCZWFB2WG70GZMDT","A1SLJKNSNHOJRN","3PIOQ99R7Y8STPN46QFY0SD7JTFNU0","","1049.9000000953674","img/land3.png","74","1051","1","0","1","2","0.8,0.2,0.2,0.2,0.8,0.2,0.2,0.2,0.8","0.2,0.2,0.8,0.8,0.2,0.2,0.2,0.8,0.2","2","",""
"","html-keyboard-response","3","46277","0.0-3.0","351SEKWQS132GPPCZWFB2WG70GZMDT","A1SLJKNSNHOJRN","3PIOQ99R7Y8STPN46QFY0SD7JTFNU0","","null","<img src=""img/land3.png"" style=""width:200px;border:14px solid red;"">","null","","","","","","","","","",""
"","image-keyboard-response","4","47407","0.0-4.0","351SEKWQS132GPPCZWFB2WG70GZMDT","A1SLJKNSNHOJRN","3PIOQ99R7Y8STPN46QFY0SD7JTFNU0","","1129.2999999523163","img/land6.png","74","1129.9000000953674","1","0","2","2","0.8,0.2,0.2,0.2,0.8,0.2,0.2,0.2,0.8","0.2,0.2,0.8,0.8,0.2,0.2,0.2,0.8,0.2","2","",""
"","html-keyboard-response","5","47708","0.0-5.0","351SEKWQS132GPPCZWFB2WG70GZMDT","A1SLJKNSNHOJRN","3PIOQ99R7Y8STPN46QFY0SD7JTFNU0","","null","<img src=""img/land6.png"" style=""width:200px;border:14px solid red;"">","null","","","","","","","","","",""
"","image-keyboard-response","6","48439","0.0-6.0","351SEKWQS132GPPCZWFB2WG70GZMDT","A1SLJKNSNHOJRN","3PIOQ99R7Y8STPN46QFY0SD7JTFNU0","","729.6999998092651","img/land5.png","74","730.4000000953674","1","0","3","2","0.8,0.2,0.2,0.2,0.8,0.2,0.2,0.2,0.8","0.2,0.2,0.8,0.8,0.2,0.2,0.2,0.8,0.2","2","",""
"","html-keyboard-response","7","48744","0.0-7.0","351SEKWQS132GPPCZWFB2WG70GZMDT","A1SLJKNSNHOJRN","3PIOQ99R7Y8STPN46QFY0SD7JTFNU0","","null","<img src=""img/land5.png"" style=""width:200px;border:14px solid red;"">","null","","","","","","","","","",""
"","image-keyboard-response","8","49455","0.0-8.0","351SEKWQS132GPPCZWFB2WG70GZMDT","A1SLJKNSNHOJRN","3PIOQ99R7Y8STPN46QFY0SD7JTFNU0","","710.0999999046326","img/land3.png","74","710.5999999046326","1","0","1","2","0.8,0.2,0.2,0.2,0.8,0.2,0.2,0.2,0.8","0.2,0.2,0.8,0.8,0.2,0.2,0.2,0.8,0.2","2","",""
"","html-keyboard-response","9","49756","0.0-9.0","351SEKWQS132GPPCZWFB2WG70GZMDT","A1SLJKNSNHOJRN","3PIOQ99R7Y8STPN46QFY0SD7JTFNU0","","null","<img src=""img/land3.png"" style=""width:200px;border:14px solid red;"">","null","","","","","","","","","",""
"","image-keyboard-response","10","50287","0.0-10.0","351SEKWQS132GPPCZWFB2WG70GZMDT","A1SLJKNSNHOJRN","3PIOQ99R7Y8STPN46QFY0SD7JTFNU0","","529.4000000953674","img/land5.png","74","530","1","0","3","2","0.8,0.2,0.2,0.2,0.8,0.2,0.2,0.2,0.8","0.2,0.2,0.8,0.8,0.2,0.2,0.2,0.8,0.2","2","",""
"","html-keyboard-response","11","50588","0.0-11.0","351SEKWQS132GPPCZWFB2WG70GZMDT","A1SLJKNSNHOJRN","3PIOQ99R7Y8STPN46QFY0SD7JTFNU0","","null","<img src=""img/land5.png"" style=""width:200px;border:14px solid red;"">","null","","","","","","","","","",""
"","image-keyboard-response","12","51063","0.0-12.0","351SEKWQS132GPPCZWFB2WG70GZMDT","A1SLJKNSNHOJRN","3PIOQ99R7Y8STPN46QFY0SD7JTFNU0","","473.59999990463257","img/land3.png","74","474","1","0","1","2","0.8,0.2,0.2,0.2,0.8,0.2,0.2,0.2,0.8","0.2,0.2,0.8,0.8,0.2,0.2,0.2,0.8,0.2","2","",""
"","html-keyboard-response","13","51364","0.0-13.0","351SEKWQS132GPPCZWFB2WG70GZMDT","A1SLJKNSNHOJRN","3PIOQ99R7Y8STPN46QFY0SD7JTFNU0","","null","<img src=""img/land3.png"" style=""width:200px;border:14px solid red;"">","null","","","","","","","","","",""
"","image-keyboard-response","14","52575","0.0-14.0","351SEKWQS132GPPCZWFB2WG70GZMDT","A1SLJKNSNHOJRN","3PIOQ99R7Y8STPN46QFY0SD7JTFNU0","","1210.2000000476837","img/land3.png","75","1210.8999998569489","2","0","1","2","0.8,0.2,0.2,0.2,0.8,0.2,0.2,0.2,0.8","0.2,0.2,0.8,0.8,0.2,0.2,0.2,0.8,0.2","2","",""
"","html-keyboard-response","15","52876","0.0-15.0","351SEKWQS132GPPCZWFB2WG70GZMDT","A1SLJKNSNHOJRN","3PIOQ99R7Y8STPN46QFY0SD7JTFNU0","","null","<img src=""img/land3.png"" style=""width:200px;border:14px solid red;"">","null","","","","","","","","","",""
"","image-keyboard-response","16","53719","0.0-16.0","351SEKWQS132GPPCZWFB2WG70GZMDT","A1SLJKNSNHOJRN","3PIOQ99R7Y8STPN46QFY0SD7JTFNU0","","841.5","img/land3.png","75","842.0999999046326","2","0","1","2","0.8,0.2,0.2,0.2,0.8,0.2,0.2,0.2,0.8","0.2,0.2,0.8,0.8,0.2,0.2,0.2,0.8,0.2","2","",""
"","html-keyboard-response","17","54020","0.0-17.0","351SEKWQS132GPPCZWFB2WG70GZMDT","A1SLJKNSNHOJRN","3PIOQ99R7Y8STPN46QFY0SD7JTFNU0","","null","<img src=""img/land3.png"" style=""width:200px;border:14px solid red;"">","null","","","","","","","","","",""
"","image-keyboard-response","18","54695","0.0-18.0","351SEKWQS132GPPCZWFB2WG70GZMDT","A1SLJKNSNHOJRN","3PIOQ99R7Y8STPN46QFY0SD7JTFNU0","","674.1000001430511","img/land6.png","75","674.7999999523163","2","0","2","2","0.8,0.2,0.2,0.2,0.8,0.2,0.2,0.2,0.8","0.2,0.2,0.8,0.8,0.2,0.2,0.2,0.8,0.2","2","",""
"","html-keyboard-response","19","54996","0.0-19.0","351SEKWQS132GPPCZWFB2WG70GZMDT","A1SLJKNSNHOJRN","3PIOQ99R7Y8STPN46QFY0SD7JTFNU0","","null","<img src=""img/land6.png"" style=""width:200px;border:14px solid red;"">","null","","","","","","","","","",""
"","image-keyboard-response","20","55487","0.0-20.0","351SEKWQS132GPPCZWFB2WG70GZMDT","A1SLJKNSNHOJRN","3PIOQ99R7Y8STPN46QFY0SD7JTFNU0","","490.09999990463257","img/land5.png","75","490.7999999523163","2","1","3","2","0.8,0.2,0.2,0.2,0.8,0.2,0.2,0.2,0.8","0.2,0.2,0.8,0.8,0.2,0.2,0.2,0.8,0.2","2","",""
"","html-keyboard-response","21","55788","0.0-21.0","351SEKWQS132GPPCZWFB2WG70GZMDT","A1SLJKNSNHOJRN","3PIOQ99R7Y8STPN46QFY0SD7JTFNU0","","null","<img src=""img/land5.png"" style=""width:200px; border:14px solid green;"">","null","","","","","","","","","",""
"","image-keyboard-response","22","57087","0.0-22.0","351SEKWQS132GPPCZWFB2WG70GZMDT","A1SLJKNSNHOJRN","3PIOQ99R7Y8STPN46QFY0SD7JTFNU0","","1297.5","img/land3.png","76","1298","3","1","1","2","0.8,0.2,0.2,0.2,0.8,0.2,0.2,0.2,0.8","0.2,0.2,0.8,0.8,0.2,0.2,0.2,0.8,0.2","2","",""
"","html-keyboard-response","23","57388","0.0-23.0","351SEKWQS132GPPCZWFB2WG70GZMDT","A1SLJKNSNHOJRN","3PIOQ99R7Y8STPN46QFY0SD7JTFNU0","","null","<img src=""img/land3.png"" style=""width:200px; border:14px solid green;"">","null","","","","","","","","","",""
"","image-keyboard-response","24","58446","0.0-24.0","351SEKWQS132GPPCZWFB2WG70GZMDT","A1SLJKNSNHOJRN","3PIOQ99R7Y8STPN46QFY0SD7JTFNU0","","1057.7999999523163","img/land3.png","76","1058.5","3","1","1","2","0.8,0.2,0.2,0.2,0.8,0.2,0.2,0.2,0.8","0.2,0.2,0.8,0.8,0.2,0.2,0.2,0.8,0.2","2","",""
"","html-keyboard-response","25","58749","0.0-25.0","351SEKWQS132GPPCZWFB2WG70GZMDT","A1SLJKNSNHOJRN","3PIOQ99R7Y8STPN46QFY0SD7JTFNU0","","null","<img src=""img/land3.png"" style=""width:200px; border:14px solid green;"">","null","","","","","","","","","",""
"","image-keyboard-response","26","59407","0.0-26.0","351SEKWQS132GPPCZWFB2WG70GZMDT","A1SLJKNSNHOJRN","3PIOQ99R7Y8STPN46QFY0SD7JTFNU0","","657.5","img/land6.png","76","658.1999998092651","3","1","2","2","0.8,0.2,0.2,0.2,0.8,0.2,0.2,0.2,0.8","0.2,0.2,0.8,0.8,0.2,0.2,0.2,0.8,0.2","2","",""
"","html-keyboard-response","27","59716","0.0-27.0","351SEKWQS132GPPCZWFB2WG70GZMDT","A1SLJKNSNHOJRN","3PIOQ99R7Y8STPN46QFY0SD7JTFNU0","","null","<img src=""img/land6.png"" style=""width:200px; border:14px solid green;"">","null","","","","","","","","","",""
"","image-keyboard-response","28","60503","0.0-28.0","351SEKWQS132GPPCZWFB2WG70GZMDT","A1SLJKNSNHOJRN","3PIOQ99R7Y8STPN46QFY0SD7JTFNU0","","786.2999999523163","img/land3.png","76","787.2000000476837","3","1","1","2","0.8,0.2,0.2,0.2,0.8,0.2,0.2,0.2,0.8","0.2,0.2,0.8,0.8,0.2,0.2,0.2,0.8,0.2","2","",""
"","html-keyboard-response","29","60805","0.0-29.0","351SEKWQS132GPPCZWFB2WG70GZMDT","A1SLJKNSNHOJRN","3PIOQ99R7Y8STPN46QFY0SD7JTFNU0","","null","<img src=""img/land3.png"" style=""width:200px; border:14px solid green;"">","null","","","","","","","","","",""
"","image-keyboard-response","30","61455","0.0-30.0","351SEKWQS132GPPCZWFB2WG70GZMDT","A1SLJKNSNHOJRN","3PIOQ99R7Y8STPN46QFY0SD7JTFNU0","","649.1999998092651","img/land6.png","76","649.8000001907349","3","0","2","2","0.8,0.2,0.2,0.2,0.8,0.2,0.2,0.2,0.8","0.2,0.2,0.8,0.8,0.2,0.2,0.2,0.8,0.2","2","",""
"","html-keyboard-response","31","61756","0.0-31.0","351SEKWQS132GPPCZWFB2WG70GZMDT","A1SLJKNSNHOJRN","3PIOQ99R7Y8STPN46QFY0SD7JTFNU0","","null","<img src=""img/land6.png"" style=""width:200px;border:14px solid red;"">","null","","","","","","","","","",""
"","image-keyboard-response","32","62431","0.0-32.0","351SEKWQS132GPPCZWFB2WG70GZMDT","A1SLJKNSNHOJRN","3PIOQ99R7Y8STPN46QFY0SD7JTFNU0","","674.1999998092651","img/land3.png","76","674.9000000953674","3","0","1","2","0.8,0.2,0.2,0.2,0.8,0.2,0.2,0.2,0.8","0.2,0.2,0.8,0.8,0.2,0.2,0.2,0.8,0.2","2","",""
"","html-keyboard-response","33","62733","0.0-33.0","351SEKWQS132GPPCZWFB2WG70GZMDT","A1SLJKNSNHOJRN","3PIOQ99R7Y8STPN46QFY0SD7JTFNU0","","null","<img src=""img/land3.png"" style=""width:200px;border:14px solid red;"">","null","","","","","","","","","",""
"","image-keyboard-response","34","63919","0.0-34.0","351SEKWQS132GPPCZWFB2WG70GZMDT","A1SLJKNSNHOJRN","3PIOQ99R7Y8STPN46QFY0SD7JTFNU0","","1185.3999998569489","img/land5.png","75","1186","2","1","3","2","0.8,0.2,0.2,0.2,0.8,0.2,0.2,0.2,0.8","0.2,0.2,0.8,0.8,0.2,0.2,0.2,0.8,0.2","2","",""
"","html-keyboard-response","35","64221","0.0-35.0","351SEKWQS132GPPCZWFB2WG70GZMDT","A1SLJKNSNHOJRN","3PIOQ99R7Y8STPN46QFY0SD7JTFNU0","","null","<img src=""img/land5.png"" style=""width:200px; border:14px solid green;"">","null","","","","","","","","","",""
"","image-keyboard-response","36","64879","0.0-36.0","351SEKWQS132GPPCZWFB2WG70GZMDT","A1SLJKNSNHOJRN","3PIOQ99R7Y8STPN46QFY0SD7JTFNU0","","657.2999999523163","img/land3.png","76","658","3","1","1","2","0.8,0.2,0.2,0.2,0.8,0.2,0.2,0.2,0.8","0.2,0.2,0.8,0.8,0.2,0.2,0.2,0.8,0.2","2","",""
"","html-keyboard-response","37","65180","0.0-37.0","351SEKWQS132GPPCZWFB2WG70GZMDT","A1SLJKNSNHOJRN","3PIOQ99R7Y8STPN46QFY0SD7JTFNU0","","null","<img src=""img/land3.png"" style=""width:200px; border:14px solid green;"">","null","","","","","","","","","",""
"","image-keyboard-response","38","66015","0.0-38.0","351SEKWQS132GPPCZWFB2WG70GZMDT","A1SLJKNSNHOJRN","3PIOQ99R7Y8STPN46QFY0SD7JTFNU0","","834","img/land5.png","75","834.7000000476837","2","1","3","2","0.8,0.2,0.2,0.2,0.8,0.2,0.2,0.2,0.8","0.2,0.2,0.8,0.8,0.2,0.2,0.2,0.8,0.2","2","",""
"","html-keyboard-response","39","66317","0.0-39.0","351SEKWQS132GPPCZWFB2WG70GZMDT","A1SLJKNSNHOJRN","3PIOQ99R7Y8STPN46QFY0SD7JTFNU0","","null","<img src=""img/land5.png"" style=""width:200px; border:14px solid green;"">","null","","","","","","","","","",""
"","image-keyboard-response","40","67023","0.0-40.0","351SEKWQS132GPPCZWFB2WG70GZMDT","A1SLJKNSNHOJRN","3PIOQ99R7Y8STPN46QFY0SD7JTFNU0","","705.3999998569489","img/land5.png","75","705.8999998569489","2","1","3","2","0.8,0.2,0.2,0.2,0.8,0.2,0.2,0.2,0.8","0.2,0.2,0.8,0.8,0.2,0.2,0.2,0.8,0.2","2","",""
"","html-keyboard-response","41","67324","0.0-41.0","351SEKWQS132GPPCZWFB2WG70GZMDT","A1SLJKNSNHOJRN","3PIOQ99R7Y8STPN46QFY0SD7JTFNU0","","null","<img src=""img/land5.png"" style=""width:200px; border:14px solid green;"">","null","","","","","","","","","",""
"","image-keyboard-response","42","67879","0.0-42.0","351SEKWQS132GPPCZWFB2WG70GZMDT","A1SLJKNSNHOJRN","3PIOQ99R7Y8STPN46QFY0SD7JTFNU0","","554.2000000476837","img/land3.png","76","554.9000000953674","3","1","1","2","0.8,0.2,0.2,0.2,0.8,0.2,0.2,0.2,0.8","0.2,0.2,0.8,0.8,0.2,0.2,0.2,0.8,0.2","2","",""
"","html-keyboard-response","43","68181","0.0-43.0","351SEKWQS132GPPCZWFB2WG70GZMDT","A1SLJKNSNHOJRN","3PIOQ99R7Y8STPN46QFY0SD7JTFNU0","","null","<img src=""img/land3.png"" style=""width:200px; border:14px solid green;"">","null","","","","","","","","","",""
"","image-keyboard-response","44","68863","0.0-44.0","351SEKWQS132GPPCZWFB2WG70GZMDT","A1SLJKNSNHOJRN","3PIOQ99R7Y8STPN46QFY0SD7JTFNU0","","681.1000001430511","img/land5.png","75","681.7000000476837","2","1","3","2","0.8,0.2,0.2,0.2,0.8,0.2,0.2,0.2,0.8","0.2,0.2,0.8,0.8,0.2,0.2,0.2,0.8,0.2","2","",""
"","html-keyboard-response","45","69165","0.0-45.0","351SEKWQS132GPPCZWFB2WG70GZMDT","A1SLJKNSNHOJRN","3PIOQ99R7Y8STPN46QFY0SD7JTFNU0","","null","<img src=""img/land5.png"" style=""width:200px; border:14px solid green;"">","null","","","","","","","","","",""
"","image-keyboard-response","46","69719","0.0-46.0","351SEKWQS132GPPCZWFB2WG70GZMDT","A1SLJKNSNHOJRN","3PIOQ99R7Y8STPN46QFY0SD7JTFNU0","","553.2999999523163","img/land6.png","76","553.8000001907349","3","0","2","2","0.8,0.2,0.2,0.2,0.8,0.2,0.2,0.2,0.8","0.2,0.2,0.8,0.8,0.2,0.2,0.2,0.8,0.2","2","",""
"","html-keyboard-response","47","70030","0.0-47.0","351SEKWQS132GPPCZWFB2WG70GZMDT","A1SLJKNSNHOJRN","3PIOQ99R7Y8STPN46QFY0SD7JTFNU0","","null","<img src=""img/land6.png"" style=""width:200px;border:14px solid red;"">","null","","","","","","","","","",""
"","image-keyboard-response","48","71423","0.0-48.0","351SEKWQS132GPPCZWFB2WG70GZMDT","A1SLJKNSNHOJRN","3PIOQ99R7Y8STPN46QFY0SD7JTFNU0","","1392.2000000476837","img/land3.png","76","1392.9000000953674","3","0","1","2","0.8,0.2,0.2,0.2,0.8,0.2,0.2,0.2,0.8","0.2,0.2,0.8,0.8,0.2,0.2,0.2,0.8,0.2","2","",""
"","html-keyboard-response","49","71725","0.0-49.0","351SEKWQS132GPPCZWFB2WG70GZMDT","A1SLJKNSNHOJRN","3PIOQ99R7Y8STPN46QFY0SD7JTFNU0","","null","<img src=""img/land3.png"" style=""width:200px;border:14px solid red;"">","null","","","","","","","","","",""
"","image-keyboard-response","50","73247","0.0-50.0","351SEKWQS132GPPCZWFB2WG70GZMDT","A1SLJKNSNHOJRN","3PIOQ99R7Y8STPN46QFY0SD7JTFNU0","","1521.1000001430511","img/land3.png","76","1521.9000000953674","3","1","1","2","0.8,0.2,0.2,0.2,0.8,0.2,0.2,0.2,0.8","0.2,0.2,0.8,0.8,0.2,0.2,0.2,0.8,0.2","2","",""
"","html-keyboard-response","51","73548","0.0-51.0","351SEKWQS132GPPCZWFB2WG70GZMDT","A1SLJKNSNHOJRN","3PIOQ99R7Y8STPN46QFY0SD7JTFNU0","","null","<img src=""img/land3.png"" style=""width:200px; border:14px solid green;"">","null","","","","","","","","","",""
"","image-keyboard-response","52","74215","0.0-52.0","351SEKWQS132GPPCZWFB2WG70GZMDT","A1SLJKNSNHOJRN","3PIOQ99R7Y8STPN46QFY0SD7JTFNU0","","666.2000000476837","img/land3.png","76","666.7999999523163","3","1","1","2","0.8,0.2,0.2,0.2,0.8,0.2,0.2,0.2,0.8","0.2,0.2,0.8,0.8,0.2,0.2,0.2,0.8,0.2","2","",""
"","html-keyboard-response","53","74516","0.0-53.0","351SEKWQS132GPPCZWFB2WG70GZMDT","A1SLJKNSNHOJRN","3PIOQ99R7Y8STPN46QFY0SD7JTFNU0","","null","<img src=""img/land3.png"" style=""width:200px; border:14px solid green;"">","null","","","","","","","","","",""
"","image-keyboard-response","54","75015","0.0-54.0","351SEKWQS132GPPCZWFB2WG70GZMDT","A1SLJKNSNHOJRN","3PIOQ99R7Y8STPN46QFY0SD7JTFNU0","","498.10000014305115","img/land3.png","76","498.60000014305115","3","1","1","2","0.8,0.2,0.2,0.2,0.8,0.2,0.2,0.2,0.8","0.2,0.2,0.8,0.8,0.2,0.2,0.2,0.8,0.2","2","",""
"","html-keyboard-response","55","75317","0.0-55.0","351SEKWQS132GPPCZWFB2WG70GZMDT","A1SLJKNSNHOJRN","3PIOQ99R7Y8STPN46QFY0SD7JTFNU0","","null","<img src=""img/land3.png"" style=""width:200px; border:14px solid green;"">","null","","","","","","","","","",""
"","image-keyboard-response","56","75727","0.0-56.0","351SEKWQS132GPPCZWFB2WG70GZMDT","A1SLJKNSNHOJRN","3PIOQ99R7Y8STPN46QFY0SD7JTFNU0","","409.60000014305115","img/land3.png","76","410.2000000476837","3","0","1","2","0.8,0.2,0.2,0.2,0.8,0.2,0.2,0.2,0.8","0.2,0.2,0.8,0.8,0.2,0.2,0.2,0.8,0.2","2","",""
"","html-keyboard-response","57","76028","0.0-57.0","351SEKWQS132GPPCZWFB2WG70GZMDT","A1SLJKNSNHOJRN","3PIOQ99R7Y8STPN46QFY0SD7JTFNU0","","null","<img src=""img/land3.png"" style=""width:200px;border:14px solid red;"">","null","","","","","","","","","",""
"","image-keyboard-response","58","76575","0.0-58.0","351SEKWQS132GPPCZWFB2WG70GZMDT","A1SLJKNSNHOJRN","3PIOQ99R7Y8STPN46QFY0SD7JTFNU0","","546.1000001430511","img/land3.png","76","546.6000001430511","3","1","1","2","0.8,0.2,0.2,0.2,0.8,0.2,0.2,0.2,0.8","0.2,0.2,0.8,0.8,0.2,0.2,0.2,0.8,0.2","2","",""
"","html-keyboard-response","59","76877","0.0-59.0","351SEKWQS132GPPCZWFB2WG70GZMDT","A1SLJKNSNHOJRN","3PIOQ99R7Y8STPN46QFY0SD7JTFNU0","","null","<img src=""img/land3.png"" style=""width:200px; border:14px solid green;"">","null","","","","","","","","","",""
"","image-keyboard-response","60","77255","0.0-60.0","351SEKWQS132GPPCZWFB2WG70GZMDT","A1SLJKNSNHOJRN","3PIOQ99R7Y8STPN46QFY0SD7JTFNU0","","377.2999999523163","img/land3.png","76","378","3","1","1","2","0.8,0.2,0.2,0.2,0.8,0.2,0.2,0.2,0.8","0.2,0.2,0.8,0.8,0.2,0.2,0.2,0.8,0.2","2","",""
"","html-keyboard-response","61","77556","0.0-61.0","351SEKWQS132GPPCZWFB2WG70GZMDT","A1SLJKNSNHOJRN","3PIOQ99R7Y8STPN46QFY0SD7JTFNU0","","null","<img src=""img/land3.png"" style=""width:200px; border:14px solid green;"">","null","","","","","","","","","",""
"","image-keyboard-response","62","77879","0.0-62.0","351SEKWQS132GPPCZWFB2WG70GZMDT","A1SLJKNSNHOJRN","3PIOQ99R7Y8STPN46QFY0SD7JTFNU0","","322.40000009536743","img/land3.png","76","322.7999999523163","3","1","1","2","0.8,0.2,0.2,0.2,0.8,0.2,0.2,0.2,0.8","0.2,0.2,0.8,0.8,0.2,0.2,0.2,0.8,0.2","2","",""
"","html-keyboard-response","63","78181","0.0-63.0","351SEKWQS132GPPCZWFB2WG70GZMDT","A1SLJKNSNHOJRN","3PIOQ99R7Y8STPN46QFY0SD7JTFNU0","","null","<img src=""img/land3.png"" style=""width:200px; border:14px solid green;"">","null","","","","","","","","","",""
"","image-keyboard-response","64","78839","0.0-64.0","351SEKWQS132GPPCZWFB2WG70GZMDT","A1SLJKNSNHOJRN","3PIOQ99R7Y8STPN46QFY0SD7JTFNU0","","658","img/land5.png","75","658.5999999046326","2","1","3","2","0.8,0.2,0.2,0.2,0.8,0.2,0.2,0.2,0.8","0.2,0.2,0.8,0.8,0.2,0.2,0.2,0.8,0.2","2","",""
"","html-keyboard-response","65","79141","0.0-65.0","351SEKWQS132GPPCZWFB2WG70GZMDT","A1SLJKNSNHOJRN","3PIOQ99R7Y8STPN46QFY0SD7JTFNU0","","null","<img src=""img/land5.png"" style=""width:200px; border:14px solid green;"">","null","","","","","","","","","",""
"","image-keyboard-response","66","79623","0.0-66.0","351SEKWQS132GPPCZWFB2WG70GZMDT","A1SLJKNSNHOJRN","3PIOQ99R7Y8STPN46QFY0SD7JTFNU0","","482","img/land3.png","76","482.60000014305115","3","0","1","2","0.8,0.2,0.2,0.2,0.8,0.2,0.2,0.2,0.8","0.2,0.2,0.8,0.8,0.2,0.2,0.2,0.8,0.2","2","",""
"","html-keyboard-response","67","79925","0.0-67.0","351SEKWQS132GPPCZWFB2WG70GZMDT","A1SLJKNSNHOJRN","3PIOQ99R7Y8STPN46QFY0SD7JTFNU0","","null","<img src=""img/land3.png"" style=""width:200px;border:14px solid red;"">","null","","","","","","","","","",""
"","image-keyboard-response","68","80935","0.0-68.0","351SEKWQS132GPPCZWFB2WG70GZMDT","A1SLJKNSNHOJRN","3PIOQ99R7Y8STPN46QFY0SD7JTFNU0","","1009.6999998092651","img/land6.png","75","1010.3000001907349","2","0","2","2","0.8,0.2,0.2,0.2,0.8,0.2,0.2,0.2,0.8","0.2,0.2,0.8,0.8,0.2,0.2,0.2,0.8,0.2","2","",""
"","html-keyboard-response","69","81238","0.0-69.0","351SEKWQS132GPPCZWFB2WG70GZMDT","A1SLJKNSNHOJRN","3PIOQ99R7Y8STPN46QFY0SD7JTFNU0","","null","<img src=""img/land6.png"" style=""width:200px;border:14px solid red;"">","null","","","","","","","","","",""
"","image-keyboard-response","70","82095","0.0-70.0","351SEKWQS132GPPCZWFB2WG70GZMDT","A1SLJKNSNHOJRN","3PIOQ99R7Y8STPN46QFY0SD7JTFNU0","","855.5999999046326","img/land6.png","76","856.8000001907349","3","0","2","2","0.8,0.2,0.2,0.2,0.8,0.2,0.2,0.2,0.8","0.2,0.2,0.8,0.8,0.2,0.2,0.2,0.8,0.2","2","",""
"","html-keyboard-response","71","82397","0.0-71.0","351SEKWQS132GPPCZWFB2WG70GZMDT","A1SLJKNSNHOJRN","3PIOQ99R7Y8STPN46QFY0SD7JTFNU0","","null","<img src=""img/land6.png"" style=""width:200px;border:14px solid red;"">","null","","","","","","","","","",""
"","image-keyboard-response","72","83631","0.0-72.0","351SEKWQS132GPPCZWFB2WG70GZMDT","A1SLJKNSNHOJRN","3PIOQ99R7Y8STPN46QFY0SD7JTFNU0","","1233.1999998092651","img/land3.png","76","1233.9000000953674","3","1","1","2","0.8,0.2,0.2,0.2,0.8,0.2,0.2,0.2,0.8","0.2,0.2,0.8,0.8,0.2,0.2,0.2,0.8,0.2","2","",""
"","html-keyboard-response","73","83933","0.0-73.0","351SEKWQS132GPPCZWFB2WG70GZMDT","A1SLJKNSNHOJRN","3PIOQ99R7Y8STPN46QFY0SD7JTFNU0","","null","<img src=""img/land3.png"" style=""width:200px; border:14px solid green;"">","null","","","","","","","","","",""
"","image-keyboard-response","74","84311","0.0-74.0","351SEKWQS132GPPCZWFB2WG70GZMDT","A1SLJKNSNHOJRN","3PIOQ99R7Y8STPN46QFY0SD7JTFNU0","","377.80000019073486","img/land3.png","76","378.2999999523163","3","1","1","2","0.8,0.2,0.2,0.2,0.8,0.2,0.2,0.2,0.8","0.2,0.2,0.8,0.8,0.2,0.2,0.2,0.8,0.2","2","",""
"","html-keyboard-response","75","84613","0.0-75.0","351SEKWQS132GPPCZWFB2WG70GZMDT","A1SLJKNSNHOJRN","3PIOQ99R7Y8STPN46QFY0SD7JTFNU0","","null","<img src=""img/land3.png"" style=""width:200px; border:14px solid green;"">","null","","","","","","","","","",""
"","image-keyboard-response","76","84935","0.0-76.0","351SEKWQS132GPPCZWFB2WG70GZMDT","A1SLJKNSNHOJRN","3PIOQ99R7Y8STPN46QFY0SD7JTFNU0","","321.2999999523163","img/land3.png","76","322","3","1","1","2","0.8,0.2,0.2,0.2,0.8,0.2,0.2,0.2,0.8","0.2,0.2,0.8,0.8,0.2,0.2,0.2,0.8,0.2","2","",""
"","html-keyboard-response","77","85237","0.0-77.0","351SEKWQS132GPPCZWFB2WG70GZMDT","A1SLJKNSNHOJRN","3PIOQ99R7Y8STPN46QFY0SD7JTFNU0","","null","<img src=""img/land3.png"" style=""width:200px; border:14px solid green;"">","null","","","","","","","","","",""
"","image-keyboard-response","78","85559","0.0-78.0","351SEKWQS132GPPCZWFB2WG70GZMDT","A1SLJKNSNHOJRN","3PIOQ99R7Y8STPN46QFY0SD7JTFNU0","","321.2999999523163","img/land3.png","76","322","3","1","1","2","0.8,0.2,0.2,0.2,0.8,0.2,0.2,0.2,0.8","0.2,0.2,0.8,0.8,0.2,0.2,0.2,0.8,0.2","2","",""
"","html-keyboard-response","79","85860","0.0-79.0","351SEKWQS132GPPCZWFB2WG70GZMDT","A1SLJKNSNHOJRN","3PIOQ99R7Y8STPN46QFY0SD7JTFNU0","","null","<img src=""img/land3.png"" style=""width:200px; border:14px solid green;"">","null","","","","","","","","","",""
"","image-keyboard-response","80","86151","0.0-80.0","351SEKWQS132GPPCZWFB2WG70GZMDT","A1SLJKNSNHOJRN","3PIOQ99R7Y8STPN46QFY0SD7JTFNU0","","290.10000014305115","img/land3.png","76","290.5","3","0","1","2","0.8,0.2,0.2,0.2,0.8,0.2,0.2,0.2,0.8","0.2,0.2,0.8,0.8,0.2,0.2,0.2,0.8,0.2","2","",""
"","html-keyboard-response","81","86453","0.0-81.0","351SEKWQS132GPPCZWFB2WG70GZMDT","A1SLJKNSNHOJRN","3PIOQ99R7Y8STPN46QFY0SD7JTFNU0","","null","<img src=""img/land3.png"" style=""width:200px;border:14px solid red;"">","null","","","","","","","","","",""
"","image-keyboard-response","82","87007","0.0-82.0","351SEKWQS132GPPCZWFB2WG70GZMDT","A1SLJKNSNHOJRN","3PIOQ99R7Y8STPN46QFY0SD7JTFNU0","","553.2999999523163","img/land6.png","75","553.9000000953674","2","1","2","2","0.8,0.2,0.2,0.2,0.8,0.2,0.2,0.2,0.8","0.2,0.2,0.8,0.8,0.2,0.2,0.2,0.8,0.2","2","",""
"","html-keyboard-response","83","87309","0.0-83.0","351SEKWQS132GPPCZWFB2WG70GZMDT","A1SLJKNSNHOJRN","3PIOQ99R7Y8STPN46QFY0SD7JTFNU0","","null","<img src=""img/land6.png"" style=""width:200px; border:14px solid green;"">","null","","","","","","","","","",""
"","image-keyboard-response","84","87831","0.0-84.0","351SEKWQS132GPPCZWFB2WG70GZMDT","A1SLJKNSNHOJRN","3PIOQ99R7Y8STPN46QFY0SD7JTFNU0","","521.2000000476837","img/land6.png","75","521.7000000476837","2","0","2","2","0.8,0.2,0.2,0.2,0.8,0.2,0.2,0.2,0.8","0.2,0.2,0.8,0.8,0.2,0.2,0.2,0.8,0.2","2","",""
"","html-keyboard-response","85","88132","0.0-85.0","351SEKWQS132GPPCZWFB2WG70GZMDT","A1SLJKNSNHOJRN","3PIOQ99R7Y8STPN46QFY0SD7JTFNU0","","null","<img src=""img/land6.png"" style=""width:200px;border:14px solid red;"">","null","","","","","","","","","",""
"","image-keyboard-response","86","88943","0.0-86.0","351SEKWQS132GPPCZWFB2WG70GZMDT","A1SLJKNSNHOJRN","3PIOQ99R7Y8STPN46QFY0SD7JTFNU0","","810.1999998092651","img/land3.png","76","810.9000000953674","3","1","1","2","0.8,0.2,0.2,0.2,0.8,0.2,0.2,0.2,0.8","0.2,0.2,0.8,0.8,0.2,0.2,0.2,0.8,0.2","2","",""
"","html-keyboard-response","87","89244","0.0-87.0","351SEKWQS132GPPCZWFB2WG70GZMDT","A1SLJKNSNHOJRN","3PIOQ99R7Y8STPN46QFY0SD7JTFNU0","","null","<img src=""img/land3.png"" style=""width:200px; border:14px solid green;"">","null","","","","","","","","","",""
"","image-keyboard-response","88","89599","0.0-88.0","351SEKWQS132GPPCZWFB2WG70GZMDT","A1SLJKNSNHOJRN","3PIOQ99R7Y8STPN46QFY0SD7JTFNU0","","353.89999985694885","img/land3.png","76","354.7000000476837","3","1","1","2","0.8,0.2,0.2,0.2,0.8,0.2,0.2,0.2,0.8","0.2,0.2,0.8,0.8,0.2,0.2,0.2,0.8,0.2","2","",""
"","html-keyboard-response","89","89901","0.0-89.0","351SEKWQS132GPPCZWFB2WG70GZMDT","A1SLJKNSNHOJRN","3PIOQ99R7Y8STPN46QFY0SD7JTFNU0","","null","<img src=""img/land3.png"" style=""width:200px; border:14px solid green;"">","null","","","","","","","","","",""
"","image-keyboard-response","90","90407","0.0-90.0","351SEKWQS132GPPCZWFB2WG70GZMDT","A1SLJKNSNHOJRN","3PIOQ99R7Y8STPN46QFY0SD7JTFNU0","","505.2999999523163","img/land6.png","75","505.90000009536743","2","0","2","2","0.8,0.2,0.2,0.2,0.8,0.2,0.2,0.2,0.8","0.2,0.2,0.8,0.8,0.2,0.2,0.2,0.8,0.2","2","",""
"","html-keyboard-response","91","90709","0.0-91.0","351SEKWQS132GPPCZWFB2WG70GZMDT","A1SLJKNSNHOJRN","3PIOQ99R7Y8STPN46QFY0SD7JTFNU0","","null","<img src=""img/land6.png"" style=""width:200px;border:14px solid red;"">","null","","","","","","","","","",""
"","image-keyboard-response","92","91439","0.0-92.0","351SEKWQS132GPPCZWFB2WG70GZMDT","A1SLJKNSNHOJRN","3PIOQ99R7Y8STPN46QFY0SD7JTFNU0","","729.0999999046326","img/land3.png","76","729.8999998569489","3","1","1","2","0.8,0.2,0.2,0.2,0.8,0.2,0.2,0.2,0.8","0.2,0.2,0.8,0.8,0.2,0.2,0.2,0.8,0.2","2","",""
"","html-keyboard-response","93","91741","0.0-93.0","351SEKWQS132GPPCZWFB2WG70GZMDT","A1SLJKNSNHOJRN","3PIOQ99R7Y8STPN46QFY0SD7JTFNU0","","null","<img src=""img/land3.png"" style=""width:200px; border:14px solid green;"">","null","","","","","","","","","",""
"","image-keyboard-response","94","92087","0.0-94.0","351SEKWQS132GPPCZWFB2WG70GZMDT","A1SLJKNSNHOJRN","3PIOQ99R7Y8STPN46QFY0SD7JTFNU0","","345.7000000476837","img/land3.png","76","346.2999999523163","3","1","1","2","0.8,0.2,0.2,0.2,0.8,0.2,0.2,0.2,0.8","0.2,0.2,0.8,0.8,0.2,0.2,0.2,0.8,0.2","2","",""
"","html-keyboard-response","95","92390","0.0-95.0","351SEKWQS132GPPCZWFB2WG70GZMDT","A1SLJKNSNHOJRN","3PIOQ99R7Y8STPN46QFY0SD7JTFNU0","","null","<img src=""img/land3.png"" style=""width:200px; border:14px solid green;"">","null","","","","","","","","","",""
"","image-keyboard-response","96","92703","0.0-96.0","351SEKWQS132GPPCZWFB2WG70GZMDT","A1SLJKNSNHOJRN","3PIOQ99R7Y8STPN46QFY0SD7JTFNU0","","312.7999999523163","img/land3.png","76","313.2999999523163","3","1","1","2","0.8,0.2,0.2,0.2,0.8,0.2,0.2,0.2,0.8","0.2,0.2,0.8,0.8,0.2,0.2,0.2,0.8,0.2","2","",""
"","html-keyboard-response","97","93005","0.0-97.0","351SEKWQS132GPPCZWFB2WG70GZMDT","A1SLJKNSNHOJRN","3PIOQ99R7Y8STPN46QFY0SD7JTFNU0","","null","<img src=""img/land3.png"" style=""width:200px; border:14px solid green;"">","null","","","","","","","","","",""
"","image-keyboard-response","98","93295","0.0-98.0","351SEKWQS132GPPCZWFB2WG70GZMDT","A1SLJKNSNHOJRN","3PIOQ99R7Y8STPN46QFY0SD7JTFNU0","","289.19999980926514","img/land3.png","76","289.7999999523163","3","1","1","2","0.8,0.2,0.2,0.2,0.8,0.2,0.2,0.2,0.8","0.2,0.2,0.8,0.8,0.2,0.2,0.2,0.8,0.2","2","",""
"","html-keyboard-response","99","93597","0.0-99.0","351SEKWQS132GPPCZWFB2WG70GZMDT","A1SLJKNSNHOJRN","3PIOQ99R7Y8STPN46QFY0SD7JTFNU0","","null","<img src=""img/land3.png"" style=""width:200px; border:14px solid green;"">","null","","","","","","","","","",""
"","image-keyboard-response","100","94335","0.0-100.0","351SEKWQS132GPPCZWFB2WG70GZMDT","A1SLJKNSNHOJRN","3PIOQ99R7Y8STPN46QFY0SD7JTFNU0","","737.6000001430511","img/land5.png","75","738.1999998092651","2","1","3","2","0.8,0.2,0.2,0.2,0.8,0.2,0.2,0.2,0.8","0.2,0.2,0.8,0.8,0.2,0.2,0.2,0.8,0.2","2","",""
"","html-keyboard-response","101","94636","0.0-101.0","351SEKWQS132GPPCZWFB2WG70GZMDT","A1SLJKNSNHOJRN","3PIOQ99R7Y8STPN46QFY0SD7JTFNU0","","null","<img src=""img/land5.png"" style=""width:200px; border:14px solid green;"">","null","","","","","","","","","",""
"","image-keyboard-response","102","95047","0.0-102.0","351SEKWQS132GPPCZWFB2WG70GZMDT","A1SLJKNSNHOJRN","3PIOQ99R7Y8STPN46QFY0SD7JTFNU0","","410.60000014305115","img/land5.png","75","411","2","1","3","2","0.8,0.2,0.2,0.2,0.8,0.2,0.2,0.2,0.8","0.2,0.2,0.8,0.8,0.2,0.2,0.2,0.8,0.2","2","",""
"","html-keyboard-response","103","95349","0.0-103.0","351SEKWQS132GPPCZWFB2WG70GZMDT","A1SLJKNSNHOJRN","3PIOQ99R7Y8STPN46QFY0SD7JTFNU0","","null","<img src=""img/land5.png"" style=""width:200px; border:14px solid green;"">","null","","","","","","","","","",""
"","image-keyboard-response","104","95679","0.0-104.0","351SEKWQS132GPPCZWFB2WG70GZMDT","A1SLJKNSNHOJRN","3PIOQ99R7Y8STPN46QFY0SD7JTFNU0","","329.39999985694885","img/land5.png","75","330.30000019073486","2","1","3","2","0.8,0.2,0.2,0.2,0.8,0.2,0.2,0.2,0.8","0.2,0.2,0.8,0.8,0.2,0.2,0.2,0.8,0.2","2","",""
"","html-keyboard-response","105","95986","0.0-105.0","351SEKWQS132GPPCZWFB2WG70GZMDT","A1SLJKNSNHOJRN","3PIOQ99R7Y8STPN46QFY0SD7JTFNU0","","null","<img src=""img/land5.png"" style=""width:200px; border:14px solid green;"">","null","","","","","","","","","",""
"","image-keyboard-response","106","96487","0.0-106.0","351SEKWQS132GPPCZWFB2WG70GZMDT","A1SLJKNSNHOJRN","3PIOQ99R7Y8STPN46QFY0SD7JTFNU0","","500.60000014305115","img/land3.png","76","501.2000000476837","3","1","1","2","0.8,0.2,0.2,0.2,0.8,0.2,0.2,0.2,0.8","0.2,0.2,0.8,0.8,0.2,0.2,0.2,0.8,0.2","2","",""
"","html-keyboard-response","107","96789","0.0-107.0","351SEKWQS132GPPCZWFB2WG70GZMDT","A1SLJKNSNHOJRN","3PIOQ99R7Y8STPN46QFY0SD7JTFNU0","","null","<img src=""img/land3.png"" style=""width:200px; border:14px solid green;"">","null","","","","","","","","","",""
"","image-keyboard-response","108","97111","0.0-108.0","351SEKWQS132GPPCZWFB2WG70GZMDT","A1SLJKNSNHOJRN","3PIOQ99R7Y8STPN46QFY0SD7JTFNU0","","321.19999980926514","img/land3.png","76","321.80000019073486","3","0","1","2","0.8,0.2,0.2,0.2,0.8,0.2,0.2,0.2,0.8","0.2,0.2,0.8,0.8,0.2,0.2,0.2,0.8,0.2","2","",""
"","html-keyboard-response","109","97413","0.0-109.0","351SEKWQS132GPPCZWFB2WG70GZMDT","A1SLJKNSNHOJRN","3PIOQ99R7Y8STPN46QFY0SD7JTFNU0","","null","<img src=""img/land3.png"" style=""width:200px;border:14px solid red;"">","null","","","","","","","","","",""
"","image-keyboard-response","110","97759","0.0-110.0","351SEKWQS132GPPCZWFB2WG70GZMDT","A1SLJKNSNHOJRN","3PIOQ99R7Y8STPN46QFY0SD7JTFNU0","","345.39999985694885","img/land3.png","76","345.89999985694885","3","0","1","2","0.8,0.2,0.2,0.2,0.8,0.2,0.2,0.2,0.8","0.2,0.2,0.8,0.8,0.2,0.2,0.2,0.8,0.2","2","",""
"","html-keyboard-response","111","98061","0.0-111.0","351SEKWQS132GPPCZWFB2WG70GZMDT","A1SLJKNSNHOJRN","3PIOQ99R7Y8STPN46QFY0SD7JTFNU0","","null","<img src=""img/land3.png"" style=""width:200px;border:14px solid red;"">","null","","","","","","","","","",""
"","image-keyboard-response","112","99143","0.0-112.0","351SEKWQS132GPPCZWFB2WG70GZMDT","A1SLJKNSNHOJRN","3PIOQ99R7Y8STPN46QFY0SD7JTFNU0","","1081.6999998092651","img/land6.png","75","1082.3000001907349","2","1","2","2","0.8,0.2,0.2,0.2,0.8,0.2,0.2,0.2,0.8","0.2,0.2,0.8,0.8,0.2,0.2,0.2,0.8,0.2","2","",""
"","html-keyboard-response","113","99455","0.0-113.0","351SEKWQS132GPPCZWFB2WG70GZMDT","A1SLJKNSNHOJRN","3PIOQ99R7Y8STPN46QFY0SD7JTFNU0","","null","<img src=""img/land6.png"" style=""width:200px; border:14px solid green;"">","null","","","","","","","","","",""
"","image-keyboard-response","114","99767","0.0-114.0","351SEKWQS132GPPCZWFB2WG70GZMDT","A1SLJKNSNHOJRN","3PIOQ99R7Y8STPN46QFY0SD7JTFNU0","","311.10000014305115","img/land3.png","75","311.7000000476837","2","0","1","2","0.8,0.2,0.2,0.2,0.8,0.2,0.2,0.2,0.8","0.2,0.2,0.8,0.8,0.2,0.2,0.2,0.8,0.2","2","",""
"","html-keyboard-response","115","100069","0.0-115.0","351SEKWQS132GPPCZWFB2WG70GZMDT","A1SLJKNSNHOJRN","3PIOQ99R7Y8STPN46QFY0SD7JTFNU0","","null","<img src=""img/land3.png"" style=""width:200px;border:14px solid red;"">","null","","","","","","","","","",""
"","image-keyboard-response","116","101023","0.0-116.0","351SEKWQS132GPPCZWFB2WG70GZMDT","A1SLJKNSNHOJRN","3PIOQ99R7Y8STPN46QFY0SD7JTFNU0","","953.7000000476837","img/land5.png","75","954.2999999523163","2","1","3","2","0.8,0.2,0.2,0.2,0.8,0.2,0.2,0.2,0.8","0.2,0.2,0.8,0.8,0.2,0.2,0.2,0.8,0.2","2","",""
"","html-keyboard-response","117","101325","0.0-117.0","351SEKWQS132GPPCZWFB2WG70GZMDT","A1SLJKNSNHOJRN","3PIOQ99R7Y8STPN46QFY0SD7JTFNU0","","null","<img src=""img/land5.png"" style=""width:200px; border:14px solid green;"">","null","","","","","","","","","",""
"","image-keyboard-response","118","102103","0.0-118.0","351SEKWQS132GPPCZWFB2WG70GZMDT","A1SLJKNSNHOJRN","3PIOQ99R7Y8STPN46QFY0SD7JTFNU0","","777.1000001430511","img/land6.png","75","777.7000000476837","2","0","2","2","0.8,0.2,0.2,0.2,0.8,0.2,0.2,0.2,0.8","0.2,0.2,0.8,0.8,0.2,0.2,0.2,0.8,0.2","2","",""
"","html-keyboard-response","119","102405","0.0-119.0","351SEKWQS132GPPCZWFB2WG70GZMDT","A1SLJKNSNHOJRN","3PIOQ99R7Y8STPN46QFY0SD7JTFNU0","","null","<img src=""img/land6.png"" style=""width:200px;border:14px solid red;"">","null","","","","","","","","","",""
"","image-keyboard-response","120","103495","0.0-120.0","351SEKWQS132GPPCZWFB2WG70GZMDT","A1SLJKNSNHOJRN","3PIOQ99R7Y8STPN46QFY0SD7JTFNU0","","1089","img/land5.png","75","1089.8000001907349","2","1","3","2","0.8,0.2,0.2,0.2,0.8,0.2,0.2,0.2,0.8","0.2,0.2,0.8,0.8,0.2,0.2,0.2,0.8,0.2","2","",""
"","html-keyboard-response","121","103797","0.0-121.0","351SEKWQS132GPPCZWFB2WG70GZMDT","A1SLJKNSNHOJRN","3PIOQ99R7Y8STPN46QFY0SD7JTFNU0","","null","<img src=""img/land5.png"" style=""width:200px; border:14px solid green;"">","null","","","","","","","","","",""
"","image-keyboard-response","122","104415","0.0-122.0","351SEKWQS132GPPCZWFB2WG70GZMDT","A1SLJKNSNHOJRN","3PIOQ99R7Y8STPN46QFY0SD7JTFNU0","","617.5","img/land3.png","76","618.2999999523163","3","1","1","2","0.8,0.2,0.2,0.2,0.8,0.2,0.2,0.2,0.8","0.2,0.2,0.8,0.8,0.2,0.2,0.2,0.8,0.2","2","",""
"","html-keyboard-response","123","104717","0.0-123.0","351SEKWQS132GPPCZWFB2WG70GZMDT","A1SLJKNSNHOJRN","3PIOQ99R7Y8STPN46QFY0SD7JTFNU0","","null","<img src=""img/land3.png"" style=""width:200px; border:14px solid green;"">","null","","","","","","","","","",""
"","image-keyboard-response","124","105103","0.0-124.0","351SEKWQS132GPPCZWFB2WG70GZMDT","A1SLJKNSNHOJRN","3PIOQ99R7Y8STPN46QFY0SD7JTFNU0","","385.2999999523163","img/land3.png","76","387","3","1","1","2","0.8,0.2,0.2,0.2,0.8,0.2,0.2,0.2,0.8","0.2,0.2,0.8,0.8,0.2,0.2,0.2,0.8,0.2","2","",""
"","html-keyboard-response","125","105406","0.0-125.0","351SEKWQS132GPPCZWFB2WG70GZMDT","A1SLJKNSNHOJRN","3PIOQ99R7Y8STPN46QFY0SD7JTFNU0","","null","<img src=""img/land3.png"" style=""width:200px; border:14px solid green;"">","null","","","","","","","","","",""
"","image-keyboard-response","126","105703","0.0-126.0","351SEKWQS132GPPCZWFB2WG70GZMDT","A1SLJKNSNHOJRN","3PIOQ99R7Y8STPN46QFY0SD7JTFNU0","","296","img/land3.png","76","296.7000000476837","3","1","1","2","0.8,0.2,0.2,0.2,0.8,0.2,0.2,0.2,0.8","0.2,0.2,0.8,0.8,0.2,0.2,0.2,0.8,0.2","2","",""
"","html-keyboard-response","127","106005","0.0-127.0","351SEKWQS132GPPCZWFB2WG70GZMDT","A1SLJKNSNHOJRN","3PIOQ99R7Y8STPN46QFY0SD7JTFNU0","","null","<img src=""img/land3.png"" style=""width:200px; border:14px solid green;"">","null","","","","","","","","","",""
"","image-keyboard-response","128","106223","0.0-128.0","351SEKWQS132GPPCZWFB2WG70GZMDT","A1SLJKNSNHOJRN","3PIOQ99R7Y8STPN46QFY0SD7JTFNU0","","217.70000004768372","img/land3.png","76","218.29999995231628","3","1","1","2","0.8,0.2,0.2,0.2,0.8,0.2,0.2,0.2,0.8","0.2,0.2,0.8,0.8,0.2,0.2,0.2,0.8,0.2","2","",""
"","html-keyboard-response","129","106525","0.0-129.0","351SEKWQS132GPPCZWFB2WG70GZMDT","A1SLJKNSNHOJRN","3PIOQ99R7Y8STPN46QFY0SD7JTFNU0","","null","<img src=""img/land3.png"" style=""width:200px; border:14px solid green;"">","null","","","","","","","","","",""
"","image-keyboard-response","130","107039","0.0-130.0","351SEKWQS132GPPCZWFB2WG70GZMDT","A1SLJKNSNHOJRN","3PIOQ99R7Y8STPN46QFY0SD7JTFNU0","","513.1999998092651","img/land5.png","75","513.8000001907349","2","1","3","2","0.8,0.2,0.2,0.2,0.8,0.2,0.2,0.2,0.8","0.2,0.2,0.8,0.8,0.2,0.2,0.2,0.8,0.2","2","",""
"","html-keyboard-response","131","107353","0.0-131.0","351SEKWQS132GPPCZWFB2WG70GZMDT","A1SLJKNSNHOJRN","3PIOQ99R7Y8STPN46QFY0SD7JTFNU0","","null","<img src=""img/land5.png"" style=""width:200px; border:14px solid green;"">","null","","","","","","","","","",""
"","image-keyboard-response","132","108167","0.0-132.0","351SEKWQS132GPPCZWFB2WG70GZMDT","A1SLJKNSNHOJRN","3PIOQ99R7Y8STPN46QFY0SD7JTFNU0","","813","img/land3.png","75","813.7999999523163","2","0","1","2","0.8,0.2,0.2,0.2,0.8,0.2,0.2,0.2,0.8","0.2,0.2,0.8,0.8,0.2,0.2,0.2,0.8,0.2","2","",""
"","html-keyboard-response","133","108468","0.0-133.0","351SEKWQS132GPPCZWFB2WG70GZMDT","A1SLJKNSNHOJRN","3PIOQ99R7Y8STPN46QFY0SD7JTFNU0","","null","<img src=""img/land3.png"" style=""width:200px;border:14px solid red;"">","null","","","","","","","","","",""
"","image-keyboard-response","134","109815","0.0-134.0","351SEKWQS132GPPCZWFB2WG70GZMDT","A1SLJKNSNHOJRN","3PIOQ99R7Y8STPN46QFY0SD7JTFNU0","","1346","img/land5.png","75","1346.5999999046326","2","1","3","2","0.8,0.2,0.2,0.2,0.8,0.2,0.2,0.2,0.8","0.2,0.2,0.8,0.8,0.2,0.2,0.2,0.8,0.2","2","",""
"","html-keyboard-response","135","110116","0.0-135.0","351SEKWQS132GPPCZWFB2WG70GZMDT","A1SLJKNSNHOJRN","3PIOQ99R7Y8STPN46QFY0SD7JTFNU0","","null","<img src=""img/land5.png"" style=""width:200px; border:14px solid green;"">","null","","","","","","","","","",""
"","image-keyboard-response","136","111047","0.0-136.0","351SEKWQS132GPPCZWFB2WG70GZMDT","A1SLJKNSNHOJRN","3PIOQ99R7Y8STPN46QFY0SD7JTFNU0","","930.1000001430511","img/land6.png","75","930.5","2","0","2","2","0.8,0.2,0.2,0.2,0.8,0.2,0.2,0.2,0.8","0.2,0.2,0.8,0.8,0.2,0.2,0.2,0.8,0.2","2","",""
"","html-keyboard-response","137","111348","0.0-137.0","351SEKWQS132GPPCZWFB2WG70GZMDT","A1SLJKNSNHOJRN","3PIOQ99R7Y8STPN46QFY0SD7JTFNU0","","null","<img src=""img/land6.png"" style=""width:200px;border:14px solid red;"">","null","","","","","","","","","",""
"","image-keyboard-response","138","111887","0.0-138.0","351SEKWQS132GPPCZWFB2WG70GZMDT","A1SLJKNSNHOJRN","3PIOQ99R7Y8STPN46QFY0SD7JTFNU0","","538.1000001430511","img/land3.png","76","538.6000001430511","3","1","1","2","0.8,0.2,0.2,0.2,0.8,0.2,0.2,0.2,0.8","0.2,0.2,0.8,0.8,0.2,0.2,0.2,0.8,0.2","2","",""
"","html-keyboard-response","139","112188","0.0-139.0","351SEKWQS132GPPCZWFB2WG70GZMDT","A1SLJKNSNHOJRN","3PIOQ99R7Y8STPN46QFY0SD7JTFNU0","","null","<img src=""img/land3.png"" style=""width:200px; border:14px solid green;"">","null","","","","","","","","","",""
"","image-keyboard-response","140","112775","0.0-140.0","351SEKWQS132GPPCZWFB2WG70GZMDT","A1SLJKNSNHOJRN","3PIOQ99R7Y8STPN46QFY0SD7JTFNU0","","586","img/land5.png","75","586.7000000476837","2","1","3","2","0.8,0.2,0.2,0.2,0.8,0.2,0.2,0.2,0.8","0.2,0.2,0.8,0.8,0.2,0.2,0.2,0.8,0.2","2","",""
"","html-keyboard-response","141","113077","0.0-141.0","351SEKWQS132GPPCZWFB2WG70GZMDT","A1SLJKNSNHOJRN","3PIOQ99R7Y8STPN46QFY0SD7JTFNU0","","null","<img src=""img/land5.png"" style=""width:200px; border:14px solid green;"">","null","","","","","","","","","",""
"","image-keyboard-response","142","113703","0.0-142.0","351SEKWQS132GPPCZWFB2WG70GZMDT","A1SLJKNSNHOJRN","3PIOQ99R7Y8STPN46QFY0SD7JTFNU0","","625.2000000476837","img/land3.png","76","625.8999998569489","3","1","1","2","0.8,0.2,0.2,0.2,0.8,0.2,0.2,0.2,0.8","0.2,0.2,0.8,0.8,0.2,0.2,0.2,0.8,0.2","2","",""
"","html-keyboard-response","143","114006","0.0-143.0","351SEKWQS132GPPCZWFB2WG70GZMDT","A1SLJKNSNHOJRN","3PIOQ99R7Y8STPN46QFY0SD7JTFNU0","","null","<img src=""img/land3.png"" style=""width:200px; border:14px solid green;"">","null","","","","","","","","","",""
"","image-keyboard-response","144","114599","0.0-144.0","351SEKWQS132GPPCZWFB2WG70GZMDT","A1SLJKNSNHOJRN","3PIOQ99R7Y8STPN46QFY0SD7JTFNU0","","592.5","img/land5.png","75","593","2","1","3","2","0.8,0.2,0.2,0.2,0.8,0.2,0.2,0.2,0.8","0.2,0.2,0.8,0.8,0.2,0.2,0.2,0.8,0.2","2","",""
"","html-keyboard-response","145","114900","0.0-145.0","351SEKWQS132GPPCZWFB2WG70GZMDT","A1SLJKNSNHOJRN","3PIOQ99R7Y8STPN46QFY0SD7JTFNU0","","null","<img src=""img/land5.png"" style=""width:200px; border:14px solid green;"">","null","","","","","","","","","",""
"","image-keyboard-response","146","115415","0.0-146.0","351SEKWQS132GPPCZWFB2WG70GZMDT","A1SLJKNSNHOJRN","3PIOQ99R7Y8STPN46QFY0SD7JTFNU0","","513.7999999523163","img/land3.png","76","514.4000000953674","3","1","1","2","0.8,0.2,0.2,0.2,0.8,0.2,0.2,0.2,0.8","0.2,0.2,0.8,0.8,0.2,0.2,0.2,0.8,0.2","2","",""
"","html-keyboard-response","147","115716","0.0-147.0","351SEKWQS132GPPCZWFB2WG70GZMDT","A1SLJKNSNHOJRN","3PIOQ99R7Y8STPN46QFY0SD7JTFNU0","","null","<img src=""img/land3.png"" style=""width:200px; border:14px solid green;"">","null","","","","","","","","","",""
"","image-keyboard-response","148","116175","0.0-148.0","351SEKWQS132GPPCZWFB2WG70GZMDT","A1SLJKNSNHOJRN","3PIOQ99R7Y8STPN46QFY0SD7JTFNU0","","457.7999999523163","img/land3.png","76","458.40000009536743","3","1","1","2","0.8,0.2,0.2,0.2,0.8,0.2,0.2,0.2,0.8","0.2,0.2,0.8,0.8,0.2,0.2,0.2,0.8,0.2","2","",""
"","html-keyboard-response","149","116477","0.0-149.0","351SEKWQS132GPPCZWFB2WG70GZMDT","A1SLJKNSNHOJRN","3PIOQ99R7Y8STPN46QFY0SD7JTFNU0","","null","<img src=""img/land3.png"" style=""width:200px; border:14px solid green;"">","null","","","","","","","","","",""
"","image-keyboard-response","150","116767","0.0-150.0","351SEKWQS132GPPCZWFB2WG70GZMDT","A1SLJKNSNHOJRN","3PIOQ99R7Y8STPN46QFY0SD7JTFNU0","","289","img/land3.png","76","289.60000014305115","3","1","1","2","0.8,0.2,0.2,0.2,0.8,0.2,0.2,0.2,0.8","0.2,0.2,0.8,0.8,0.2,0.2,0.2,0.8,0.2","2","",""
"","html-keyboard-response","151","117069","0.0-151.0","351SEKWQS132GPPCZWFB2WG70GZMDT","A1SLJKNSNHOJRN","3PIOQ99R7Y8STPN46QFY0SD7JTFNU0","","null","<img src=""img/land3.png"" style=""width:200px; border:14px solid green;"">","null","","","","","","","","","",""
"","image-keyboard-response","152","117575","0.0-152.0","351SEKWQS132GPPCZWFB2WG70GZMDT","A1SLJKNSNHOJRN","3PIOQ99R7Y8STPN46QFY0SD7JTFNU0","","505.2000000476837","img/land5.png","75","505.90000009536743","2","1","3","2","0.8,0.2,0.2,0.2,0.8,0.2,0.2,0.2,0.8","0.2,0.2,0.8,0.8,0.2,0.2,0.2,0.8,0.2","2","",""
"","html-keyboard-response","153","117876","0.0-153.0","351SEKWQS132GPPCZWFB2WG70GZMDT","A1SLJKNSNHOJRN","3PIOQ99R7Y8STPN46QFY0SD7JTFNU0","","null","<img src=""img/land5.png"" style=""width:200px; border:14px solid green;"">","null","","","","","","","","","",""
"","image-keyboard-response","154","119039","0.0-154.0","351SEKWQS132GPPCZWFB2WG70GZMDT","A1SLJKNSNHOJRN","3PIOQ99R7Y8STPN46QFY0SD7JTFNU0","","1162.1000001430511","img/land3.png","76","1162.7000000476837","3","0","1","2","0.8,0.2,0.2,0.2,0.8,0.2,0.2,0.2,0.8","0.2,0.2,0.8,0.8,0.2,0.2,0.2,0.8,0.2","2","",""
"","html-keyboard-response","155","119340","0.0-155.0","351SEKWQS132GPPCZWFB2WG70GZMDT","A1SLJKNSNHOJRN","3PIOQ99R7Y8STPN46QFY0SD7JTFNU0","","null","<img src=""img/land3.png"" style=""width:200px;border:14px solid red;"">","null","","","","","","","","","",""
"","image-keyboard-response","156","119679","0.0-156.0","351SEKWQS132GPPCZWFB2WG70GZMDT","A1SLJKNSNHOJRN","3PIOQ99R7Y8STPN46QFY0SD7JTFNU0","","337.89999985694885","img/land3.png","76","338.59999990463257","3","1","1","2","0.8,0.2,0.2,0.2,0.8,0.2,0.2,0.2,0.8","0.2,0.2,0.8,0.8,0.2,0.2,0.2,0.8,0.2","2","",""
"","html-keyboard-response","157","119981","0.0-157.0","351SEKWQS132GPPCZWFB2WG70GZMDT","A1SLJKNSNHOJRN","3PIOQ99R7Y8STPN46QFY0SD7JTFNU0","","null","<img src=""img/land3.png"" style=""width:200px; border:14px solid green;"">","null","","","","","","","","","",""
"","image-keyboard-response","158","120311","0.0-158.0","351SEKWQS132GPPCZWFB2WG70GZMDT","A1SLJKNSNHOJRN","3PIOQ99R7Y8STPN46QFY0SD7JTFNU0","","329.39999985694885","img/land3.png","76","329.7999999523163","3","1","1","2","0.8,0.2,0.2,0.2,0.8,0.2,0.2,0.2,0.8","0.2,0.2,0.8,0.8,0.2,0.2,0.2,0.8,0.2","2","",""
"","html-keyboard-response","159","120613","0.0-159.0","351SEKWQS132GPPCZWFB2WG70GZMDT","A1SLJKNSNHOJRN","3PIOQ99R7Y8STPN46QFY0SD7JTFNU0","","null","<img src=""img/land3.png"" style=""width:200px; border:14px solid green;"">","null","","","","","","","","","",""
"","image-keyboard-response","160","121175","0.0-160.0","351SEKWQS132GPPCZWFB2WG70GZMDT","A1SLJKNSNHOJRN","3PIOQ99R7Y8STPN46QFY0SD7JTFNU0","","561.0999999046326","img/land5.png","75","561.8999998569489","2","0","3","2","0.8,0.2,0.2,0.2,0.8,0.2,0.2,0.2,0.8","0.2,0.2,0.8,0.8,0.2,0.2,0.2,0.8,0.2","2","",""
"","html-keyboard-response","161","121477","0.0-161.0","351SEKWQS132GPPCZWFB2WG70GZMDT","A1SLJKNSNHOJRN","3PIOQ99R7Y8STPN46QFY0SD7JTFNU0","","null","<img src=""img/land5.png"" style=""width:200px;border:14px solid red;"">","null","","","","","","","","","",""
"","image-keyboard-response","162","122287","0.0-162.0","351SEKWQS132GPPCZWFB2WG70GZMDT","A1SLJKNSNHOJRN","3PIOQ99R7Y8STPN46QFY0SD7JTFNU0","","809.2999999523163","img/land3.png","75","810.0999999046326","2","0","1","2","0.8,0.2,0.2,0.2,0.8,0.2,0.2,0.2,0.8","0.2,0.2,0.8,0.8,0.2,0.2,0.2,0.8,0.2","2","",""
"","html-keyboard-response","163","122588","0.0-163.0","351SEKWQS132GPPCZWFB2WG70GZMDT","A1SLJKNSNHOJRN","3PIOQ99R7Y8STPN46QFY0SD7JTFNU0","","null","<img src=""img/land3.png"" style=""width:200px;border:14px solid red;"">","null","","","","","","","","","",""
"","image-keyboard-response","164","123535","0.0-164.0","351SEKWQS132GPPCZWFB2WG70GZMDT","A1SLJKNSNHOJRN","3PIOQ99R7Y8STPN46QFY0SD7JTFNU0","","946.2999999523163","img/land5.png","75","946.9000000953674","2","0","3","2","0.8,0.2,0.2,0.2,0.8,0.2,0.2,0.2,0.8","0.2,0.2,0.8,0.8,0.2,0.2,0.2,0.8,0.2","2","",""
"","html-keyboard-response","165","123836","0.0-165.0","351SEKWQS132GPPCZWFB2WG70GZMDT","A1SLJKNSNHOJRN","3PIOQ99R7Y8STPN46QFY0SD7JTFNU0","","null","<img src=""img/land5.png"" style=""width:200px;border:14px solid red;"">","null","","","","","","","","","",""
"","image-keyboard-response","166","124279","0.0-166.0","351SEKWQS132GPPCZWFB2WG70GZMDT","A1SLJKNSNHOJRN","3PIOQ99R7Y8STPN46QFY0SD7JTFNU0","","442.2000000476837","img/land5.png","75","442.7999999523163","2","1","3","2","0.8,0.2,0.2,0.2,0.8,0.2,0.2,0.2,0.8","0.2,0.2,0.8,0.8,0.2,0.2,0.2,0.8,0.2","2","",""
"","html-keyboard-response","167","124580","0.0-167.0","351SEKWQS132GPPCZWFB2WG70GZMDT","A1SLJKNSNHOJRN","3PIOQ99R7Y8STPN46QFY0SD7JTFNU0","","null","<img src=""img/land5.png"" style=""width:200px; border:14px solid green;"">","null","","","","","","","","","",""
"","image-keyboard-response","168","125183","0.0-168.0","351SEKWQS132GPPCZWFB2WG70GZMDT","A1SLJKNSNHOJRN","3PIOQ99R7Y8STPN46QFY0SD7JTFNU0","","602","img/land3.png","76","602.5","3","1","1","2","0.8,0.2,0.2,0.2,0.8,0.2,0.2,0.2,0.8","0.2,0.2,0.8,0.8,0.2,0.2,0.2,0.8,0.2","2","",""
"","html-keyboard-response","169","125485","0.0-169.0","351SEKWQS132GPPCZWFB2WG70GZMDT","A1SLJKNSNHOJRN","3PIOQ99R7Y8STPN46QFY0SD7JTFNU0","","null","<img src=""img/land3.png"" style=""width:200px; border:14px solid green;"">","null","","","","","","","","","",""
"","image-keyboard-response","170","125879","0.0-170.0","351SEKWQS132GPPCZWFB2WG70GZMDT","A1SLJKNSNHOJRN","3PIOQ99R7Y8STPN46QFY0SD7JTFNU0","","393.09999990463257","img/land3.png","76","393.7000000476837","3","1","1","2","0.8,0.2,0.2,0.2,0.8,0.2,0.2,0.2,0.8","0.2,0.2,0.8,0.8,0.2,0.2,0.2,0.8,0.2","2","",""
"","html-keyboard-response","171","126181","0.0-171.0","351SEKWQS132GPPCZWFB2WG70GZMDT","A1SLJKNSNHOJRN","3PIOQ99R7Y8STPN46QFY0SD7JTFNU0","","null","<img src=""img/land3.png"" style=""width:200px; border:14px solid green;"">","null","","","","","","","","","",""
"","image-keyboard-response","172","126719","0.0-172.0","351SEKWQS132GPPCZWFB2WG70GZMDT","A1SLJKNSNHOJRN","3PIOQ99R7Y8STPN46QFY0SD7JTFNU0","","537.2999999523163","img/land6.png","75","537.7999999523163","2","1","2","2","0.8,0.2,0.2,0.2,0.8,0.2,0.2,0.2,0.8","0.2,0.2,0.8,0.8,0.2,0.2,0.2,0.8,0.2","2","",""
"","html-keyboard-response","173","127021","0.0-173.0","351SEKWQS132GPPCZWFB2WG70GZMDT","A1SLJKNSNHOJRN","3PIOQ99R7Y8STPN46QFY0SD7JTFNU0","","null","<img src=""img/land6.png"" style=""width:200px; border:14px solid green;"">","null","","","","","","","","","",""
"","image-keyboard-response","174","127383","0.0-174.0","351SEKWQS132GPPCZWFB2WG70GZMDT","A1SLJKNSNHOJRN","3PIOQ99R7Y8STPN46QFY0SD7JTFNU0","","361.2999999523163","img/land6.png","75","361.7999999523163","2","0","2","2","0.8,0.2,0.2,0.2,0.8,0.2,0.2,0.2,0.8","0.2,0.2,0.8,0.8,0.2,0.2,0.2,0.8,0.2","2","",""
"","html-keyboard-response","175","127685","0.0-175.0","351SEKWQS132GPPCZWFB2WG70GZMDT","A1SLJKNSNHOJRN","3PIOQ99R7Y8STPN46QFY0SD7JTFNU0","","null","<img src=""img/land6.png"" style=""width:200px;border:14px solid red;"">","null","","","","","","","","","",""
"","image-keyboard-response","176","128511","0.0-176.0","351SEKWQS132GPPCZWFB2WG70GZMDT","A1SLJKNSNHOJRN","3PIOQ99R7Y8STPN46QFY0SD7JTFNU0","","825.6000001430511","img/land3.png","76","826.1000001430511","3","1","1","2","0.8,0.2,0.2,0.2,0.8,0.2,0.2,0.2,0.8","0.2,0.2,0.8,0.8,0.2,0.2,0.2,0.8,0.2","2","",""
"","html-keyboard-response","177","128813","0.0-177.0","351SEKWQS132GPPCZWFB2WG70GZMDT","A1SLJKNSNHOJRN","3PIOQ99R7Y8STPN46QFY0SD7JTFNU0","","null","<img src=""img/land3.png"" style=""width:200px; border:14px solid green;"">","null","","","","","","","","","",""
"","image-keyboard-response","178","129135","0.0-178.0","351SEKWQS132GPPCZWFB2WG70GZMDT","A1SLJKNSNHOJRN","3PIOQ99R7Y8STPN46QFY0SD7JTFNU0","","321.2000000476837","img/land3.png","76","321.7999999523163","3","1","1","2","0.8,0.2,0.2,0.2,0.8,0.2,0.2,0.2,0.8","0.2,0.2,0.8,0.8,0.2,0.2,0.2,0.8,0.2","2","",""
"","html-keyboard-response","179","129436","0.0-179.0","351SEKWQS132GPPCZWFB2WG70GZMDT","A1SLJKNSNHOJRN","3PIOQ99R7Y8STPN46QFY0SD7JTFNU0","","null","<img src=""img/land3.png"" style=""width:200px; border:14px solid green;"">","null","","","","","","","","","",""
"","image-keyboard-response","180","130039","0.0-180.0","351SEKWQS132GPPCZWFB2WG70GZMDT","A1SLJKNSNHOJRN","3PIOQ99R7Y8STPN46QFY0SD7JTFNU0","","602.0999999046326","img/land5.png","75","602.5999999046326","2","1","3","2","0.8,0.2,0.2,0.2,0.8,0.2,0.2,0.2,0.8","0.2,0.2,0.8,0.8,0.2,0.2,0.2,0.8,0.2","2","",""
"","html-keyboard-response","181","130341","0.0-181.0","351SEKWQS132GPPCZWFB2WG70GZMDT","A1SLJKNSNHOJRN","3PIOQ99R7Y8STPN46QFY0SD7JTFNU0","","null","<img src=""img/land5.png"" style=""width:200px; border:14px solid green;"">","null","","","","","","","","","",""
"","image-keyboard-response","182","131039","0.0-182.0","351SEKWQS132GPPCZWFB2WG70GZMDT","A1SLJKNSNHOJRN","3PIOQ99R7Y8STPN46QFY0SD7JTFNU0","","696.5","img/land3.png","76","697.7000000476837","3","0","1","2","0.8,0.2,0.2,0.2,0.8,0.2,0.2,0.2,0.8","0.2,0.2,0.8,0.8,0.2,0.2,0.2,0.8,0.2","2","",""
"","html-keyboard-response","183","131341","0.0-183.0","351SEKWQS132GPPCZWFB2WG70GZMDT","A1SLJKNSNHOJRN","3PIOQ99R7Y8STPN46QFY0SD7JTFNU0","","null","<img src=""img/land3.png"" style=""width:200px;border:14px solid red;"">","null","","","","","","","","","",""
"","image-keyboard-response","184","131823","0.0-184.0","351SEKWQS132GPPCZWFB2WG70GZMDT","A1SLJKNSNHOJRN","3PIOQ99R7Y8STPN46QFY0SD7JTFNU0","","481.39999985694885","img/land6.png","75","481.89999985694885","2","0","2","2","0.8,0.2,0.2,0.2,0.8,0.2,0.2,0.2,0.8","0.2,0.2,0.8,0.8,0.2,0.2,0.2,0.8,0.2","2","",""
"","html-keyboard-response","185","132125","0.0-185.0","351SEKWQS132GPPCZWFB2WG70GZMDT","A1SLJKNSNHOJRN","3PIOQ99R7Y8STPN46QFY0SD7JTFNU0","","null","<img src=""img/land6.png"" style=""width:200px;border:14px solid red;"">","null","","","","","","","","","",""
"","image-keyboard-response","186","132783","0.0-186.0","351SEKWQS132GPPCZWFB2WG70GZMDT","A1SLJKNSNHOJRN","3PIOQ99R7Y8STPN46QFY0SD7JTFNU0","","657.2000000476837","img/land3.png","76","657.8999998569489","3","1","1","2","0.8,0.2,0.2,0.2,0.8,0.2,0.2,0.2,0.8","0.2,0.2,0.8,0.8,0.2,0.2,0.2,0.8,0.2","2","",""
"","html-keyboard-response","187","133084","0.0-187.0","351SEKWQS132GPPCZWFB2WG70GZMDT","A1SLJKNSNHOJRN","3PIOQ99R7Y8STPN46QFY0SD7JTFNU0","","null","<img src=""img/land3.png"" style=""width:200px; border:14px solid green;"">","null","","","","","","","","","",""
"","image-keyboard-response","188","133727","0.0-188.0","351SEKWQS132GPPCZWFB2WG70GZMDT","A1SLJKNSNHOJRN","3PIOQ99R7Y8STPN46QFY0SD7JTFNU0","","642.0999999046326","img/land5.png","75","642.7000000476837","2","1","3","2","0.8,0.2,0.2,0.2,0.8,0.2,0.2,0.2,0.8","0.2,0.2,0.8,0.8,0.2,0.2,0.2,0.8,0.2","2","",""
"","html-keyboard-response","189","134029","0.0-189.0","351SEKWQS132GPPCZWFB2WG70GZMDT","A1SLJKNSNHOJRN","3PIOQ99R7Y8STPN46QFY0SD7JTFNU0","","null","<img src=""img/land5.png"" style=""width:200px; border:14px solid green;"">","null","","","","","","","","","",""
"","image-keyboard-response","190","134927","0.0-190.0","351SEKWQS132GPPCZWFB2WG70GZMDT","A1SLJKNSNHOJRN","3PIOQ99R7Y8STPN46QFY0SD7JTFNU0","","897.7999999523163","img/land6.png","75","898.5","2","0","2","2","0.8,0.2,0.2,0.2,0.8,0.2,0.2,0.2,0.8","0.2,0.2,0.8,0.8,0.2,0.2,0.2,0.8,0.2","2","",""
"","html-keyboard-response","191","135229","0.0-191.0","351SEKWQS132GPPCZWFB2WG70GZMDT","A1SLJKNSNHOJRN","3PIOQ99R7Y8STPN46QFY0SD7JTFNU0","","null","<img src=""img/land6.png"" style=""width:200px;border:14px solid red;"">","null","","","","","","","","","",""
"","image-keyboard-response","192","136143","0.0-192.0","351SEKWQS132GPPCZWFB2WG70GZMDT","A1SLJKNSNHOJRN","3PIOQ99R7Y8STPN46QFY0SD7JTFNU0","","913.2999999523163","img/land3.png","76","914.0999999046326","3","1","1","2","0.8,0.2,0.2,0.2,0.8,0.2,0.2,0.2,0.8","0.2,0.2,0.8,0.8,0.2,0.2,0.2,0.8,0.2","2","",""
"","html-keyboard-response","193","136445","0.0-193.0","351SEKWQS132GPPCZWFB2WG70GZMDT","A1SLJKNSNHOJRN","3PIOQ99R7Y8STPN46QFY0SD7JTFNU0","","null","<img src=""img/land3.png"" style=""width:200px; border:14px solid green;"">","null","","","","","","","","","",""
"","image-keyboard-response","194","136847","0.0-194.0","351SEKWQS132GPPCZWFB2WG70GZMDT","A1SLJKNSNHOJRN","3PIOQ99R7Y8STPN46QFY0SD7JTFNU0","","401.40000009536743","img/land3.png","76","401.90000009536743","3","1","1","2","0.8,0.2,0.2,0.2,0.8,0.2,0.2,0.2,0.8","0.2,0.2,0.8,0.8,0.2,0.2,0.2,0.8,0.2","2","",""
"","html-keyboard-response","195","137149","0.0-195.0","351SEKWQS132GPPCZWFB2WG70GZMDT","A1SLJKNSNHOJRN","3PIOQ99R7Y8STPN46QFY0SD7JTFNU0","","null","<img src=""img/land3.png"" style=""width:200px; border:14px solid green;"">","null","","","","","","","","","",""
"","image-keyboard-response","196","137487","0.0-196.0","351SEKWQS132GPPCZWFB2WG70GZMDT","A1SLJKNSNHOJRN","3PIOQ99R7Y8STPN46QFY0SD7JTFNU0","","337.5","img/land3.png","76","338.30000019073486","3","1","1","2","0.8,0.2,0.2,0.2,0.8,0.2,0.2,0.2,0.8","0.2,0.2,0.8,0.8,0.2,0.2,0.2,0.8,0.2","2","",""
"","html-keyboard-response","197","137789","0.0-197.0","351SEKWQS132GPPCZWFB2WG70GZMDT","A1SLJKNSNHOJRN","3PIOQ99R7Y8STPN46QFY0SD7JTFNU0","","null","<img src=""img/land3.png"" style=""width:200px; border:14px solid green;"">","null","","","","","","","","","",""
"","image-keyboard-response","198","138103","0.0-198.0","351SEKWQS132GPPCZWFB2WG70GZMDT","A1SLJKNSNHOJRN","3PIOQ99R7Y8STPN46QFY0SD7JTFNU0","","313.09999990463257","img/land3.png","76","313.7999999523163","3","1","1","2","0.8,0.2,0.2,0.2,0.8,0.2,0.2,0.2,0.8","0.2,0.2,0.8,0.8,0.2,0.2,0.2,0.8,0.2","2","",""
"","html-keyboard-response","199","138405","0.0-199.0","351SEKWQS132GPPCZWFB2WG70GZMDT","A1SLJKNSNHOJRN","3PIOQ99R7Y8STPN46QFY0SD7JTFNU0","","null","<img src=""img/land3.png"" style=""width:200px; border:14px solid green;"">","null","","","","","","","","","",""
"","image-keyboard-response","200","138927","0.0-200.0","351SEKWQS132GPPCZWFB2WG70GZMDT","A1SLJKNSNHOJRN","3PIOQ99R7Y8STPN46QFY0SD7JTFNU0","","520.5999999046326","img/land6.png","75","521.5999999046326","2","0","2","2","0.8,0.2,0.2,0.2,0.8,0.2,0.2,0.2,0.8","0.2,0.2,0.8,0.8,0.2,0.2,0.2,0.8,0.2","2","",""
"","html-keyboard-response","201","139229","0.0-201.0","351SEKWQS132GPPCZWFB2WG70GZMDT","A1SLJKNSNHOJRN","3PIOQ99R7Y8STPN46QFY0SD7JTFNU0","","null","<img src=""img/land6.png"" style=""width:200px;border:14px solid red;"">","null","","","","","","","","","",""
"","image-keyboard-response","202","139663","0.0-202.0","351SEKWQS132GPPCZWFB2WG70GZMDT","A1SLJKNSNHOJRN","3PIOQ99R7Y8STPN46QFY0SD7JTFNU0","","433","img/land6.png","75","433.7000000476837","2","1","2","2","0.8,0.2,0.2,0.2,0.8,0.2,0.2,0.2,0.8","0.2,0.2,0.8,0.8,0.2,0.2,0.2,0.8,0.2","2","",""
"","html-keyboard-response","203","139965","0.0-203.0","351SEKWQS132GPPCZWFB2WG70GZMDT","A1SLJKNSNHOJRN","3PIOQ99R7Y8STPN46QFY0SD7JTFNU0","","null","<img src=""img/land6.png"" style=""width:200px; border:14px solid green;"">","null","","","","","","","","","",""
"","image-keyboard-response","204","140639","0.0-204.0","351SEKWQS132GPPCZWFB2WG70GZMDT","A1SLJKNSNHOJRN","3PIOQ99R7Y8STPN46QFY0SD7JTFNU0","","671.6999998092651","img/land3.png","76","672.2999999523163","3","1","1","2","0.8,0.2,0.2,0.2,0.8,0.2,0.2,0.2,0.8","0.2,0.2,0.8,0.8,0.2,0.2,0.2,0.8,0.2","2","",""
"","html-keyboard-response","205","140940","0.0-205.0","351SEKWQS132GPPCZWFB2WG70GZMDT","A1SLJKNSNHOJRN","3PIOQ99R7Y8STPN46QFY0SD7JTFNU0","","null","<img src=""img/land3.png"" style=""width:200px; border:14px solid green;"">","null","","","","","","","","","",""
"","image-keyboard-response","206","141319","0.0-206.0","351SEKWQS132GPPCZWFB2WG70GZMDT","A1SLJKNSNHOJRN","3PIOQ99R7Y8STPN46QFY0SD7JTFNU0","","378.09999990463257","img/land3.png","76","378.7000000476837","3","1","1","2","0.8,0.2,0.2,0.2,0.8,0.2,0.2,0.2,0.8","0.2,0.2,0.8,0.8,0.2,0.2,0.2,0.8,0.2","2","",""
"","html-keyboard-response","207","141620","0.0-207.0","351SEKWQS132GPPCZWFB2WG70GZMDT","A1SLJKNSNHOJRN","3PIOQ99R7Y8STPN46QFY0SD7JTFNU0","","null","<img src=""img/land3.png"" style=""width:200px; border:14px solid green;"">","null","","","","","","","","","",""
"","image-keyboard-response","208","142119","0.0-208.0","351SEKWQS132GPPCZWFB2WG70GZMDT","A1SLJKNSNHOJRN","3PIOQ99R7Y8STPN46QFY0SD7JTFNU0","","498.09999990463257","img/land3.png","76","498.5","3","1","1","2","0.8,0.2,0.2,0.2,0.8,0.2,0.2,0.2,0.8","0.2,0.2,0.8,0.8,0.2,0.2,0.2,0.8,0.2","2","",""
"","html-keyboard-response","209","142422","0.0-209.0","351SEKWQS132GPPCZWFB2WG70GZMDT","A1SLJKNSNHOJRN","3PIOQ99R7Y8STPN46QFY0SD7JTFNU0","","null","<img src=""img/land3.png"" style=""width:200px; border:14px solid green;"">","null","","","","","","","","","",""
"","image-keyboard-response","210","142767","0.0-210.0","351SEKWQS132GPPCZWFB2WG70GZMDT","A1SLJKNSNHOJRN","3PIOQ99R7Y8STPN46QFY0SD7JTFNU0","","344.7000000476837","img/land3.png","76","345.2000000476837","3","1","1","2","0.8,0.2,0.2,0.2,0.8,0.2,0.2,0.2,0.8","0.2,0.2,0.8,0.8,0.2,0.2,0.2,0.8,0.2","2","",""
"","html-keyboard-response","211","143069","0.0-211.0","351SEKWQS132GPPCZWFB2WG70GZMDT","A1SLJKNSNHOJRN","3PIOQ99R7Y8STPN46QFY0SD7JTFNU0","","null","<img src=""img/land3.png"" style=""width:200px; border:14px solid green;"">","null","","","","","","","","","",""
"","image-keyboard-response","212","143375","0.0-212.0","351SEKWQS132GPPCZWFB2WG70GZMDT","A1SLJKNSNHOJRN","3PIOQ99R7Y8STPN46QFY0SD7JTFNU0","","305.39999985694885","img/land3.png","76","306","3","1","1","2","0.8,0.2,0.2,0.2,0.8,0.2,0.2,0.2,0.8","0.2,0.2,0.8,0.8,0.2,0.2,0.2,0.8,0.2","2","",""
"","html-keyboard-response","213","143677","0.0-213.0","351SEKWQS132GPPCZWFB2WG70GZMDT","A1SLJKNSNHOJRN","3PIOQ99R7Y8STPN46QFY0SD7JTFNU0","","null","<img src=""img/land3.png"" style=""width:200px; border:14px solid green;"">","null","","","","","","","","","",""
"","image-keyboard-response","214","144295","0.0-214.0","351SEKWQS132GPPCZWFB2WG70GZMDT","A1SLJKNSNHOJRN","3PIOQ99R7Y8STPN46QFY0SD7JTFNU0","","617.3999998569489","img/land5.png","75","618","2","1","3","2","0.8,0.2,0.2,0.2,0.8,0.2,0.2,0.2,0.8","0.2,0.2,0.8,0.8,0.2,0.2,0.2,0.8,0.2","2","",""
"","html-keyboard-response","215","144597","0.0-215.0","351SEKWQS132GPPCZWFB2WG70GZMDT","A1SLJKNSNHOJRN","3PIOQ99R7Y8STPN46QFY0SD7JTFNU0","","null","<img src=""img/land5.png"" style=""width:200px; border:14px solid green;"">","null","","","","","","","","","",""
"","image-keyboard-response","216","145199","0.0-216.0","351SEKWQS132GPPCZWFB2WG70GZMDT","A1SLJKNSNHOJRN","3PIOQ99R7Y8STPN46QFY0SD7JTFNU0","","601.2000000476837","img/land3.png","75","601.7999999523163","2","0","1","2","0.8,0.2,0.2,0.2,0.8,0.2,0.2,0.2,0.8","0.2,0.2,0.8,0.8,0.2,0.2,0.2,0.8,0.2","2","",""
"","html-keyboard-response","217","145501","0.0-217.0","351SEKWQS132GPPCZWFB2WG70GZMDT","A1SLJKNSNHOJRN","3PIOQ99R7Y8STPN46QFY0SD7JTFNU0","","null","<img src=""img/land3.png"" style=""width:200px;border:14px solid red;"">","null","","","","","","","","","",""
"","image-keyboard-response","218","145879","0.0-218.0","351SEKWQS132GPPCZWFB2WG70GZMDT","A1SLJKNSNHOJRN","3PIOQ99R7Y8STPN46QFY0SD7JTFNU0","","376.59999990463257","img/land3.png","76","377.5","3","1","1","2","0.8,0.2,0.2,0.2,0.8,0.2,0.2,0.2,0.8","0.2,0.2,0.8,0.8,0.2,0.2,0.2,0.8,0.2","2","",""
"","html-keyboard-response","219","146181","0.0-219.0","351SEKWQS132GPPCZWFB2WG70GZMDT","A1SLJKNSNHOJRN","3PIOQ99R7Y8STPN46QFY0SD7JTFNU0","","null","<img src=""img/land3.png"" style=""width:200px; border:14px solid green;"">","null","","","","","","","","","",""
"","image-keyboard-response","220","147511","0.0-220.0","351SEKWQS132GPPCZWFB2WG70GZMDT","A1SLJKNSNHOJRN","3PIOQ99R7Y8STPN46QFY0SD7JTFNU0","","1329.2999999523163","img/land6.png","75","1329.7999999523163","2","1","2","2","0.8,0.2,0.2,0.2,0.8,0.2,0.2,0.2,0.8","0.2,0.2,0.8,0.8,0.2,0.2,0.2,0.8,0.2","2","",""
"","html-keyboard-response","221","147812","0.0-221.0","351SEKWQS132GPPCZWFB2WG70GZMDT","A1SLJKNSNHOJRN","3PIOQ99R7Y8STPN46QFY0SD7JTFNU0","","null","<img src=""img/land6.png"" style=""width:200px; border:14px solid green;"">","null","","","","","","","","","",""
"","image-keyboard-response","222","148391","0.0-222.0","351SEKWQS132GPPCZWFB2WG70GZMDT","A1SLJKNSNHOJRN","3PIOQ99R7Y8STPN46QFY0SD7JTFNU0","","577.7000000476837","img/land3.png","76","578.2999999523163","3","1","1","2","0.8,0.2,0.2,0.2,0.8,0.2,0.2,0.2,0.8","0.2,0.2,0.8,0.8,0.2,0.2,0.2,0.8,0.2","2","",""
"","html-keyboard-response","223","148692","0.0-223.0","351SEKWQS132GPPCZWFB2WG70GZMDT","A1SLJKNSNHOJRN","3PIOQ99R7Y8STPN46QFY0SD7JTFNU0","","null","<img src=""img/land3.png"" style=""width:200px; border:14px solid green;"">","null","","","","","","","","","",""
"","image-keyboard-response","224","149207","0.0-224.0","351SEKWQS132GPPCZWFB2WG70GZMDT","A1SLJKNSNHOJRN","3PIOQ99R7Y8STPN46QFY0SD7JTFNU0","","514.0999999046326","img/land6.png","75","514.7000000476837","2","1","2","2","0.8,0.2,0.2,0.2,0.8,0.2,0.2,0.2,0.8","0.2,0.2,0.8,0.8,0.2,0.2,0.2,0.8,0.2","2","",""
"","html-keyboard-response","225","149509","0.0-225.0","351SEKWQS132GPPCZWFB2WG70GZMDT","A1SLJKNSNHOJRN","3PIOQ99R7Y8STPN46QFY0SD7JTFNU0","","null","<img src=""img/land6.png"" style=""width:200px; border:14px solid green;"">","null","","","","","","","","","",""
"","image-keyboard-response","226","150175","0.0-226.0","351SEKWQS132GPPCZWFB2WG70GZMDT","A1SLJKNSNHOJRN","3PIOQ99R7Y8STPN46QFY0SD7JTFNU0","","665.3000001907349","img/land3.png","76","665.9000000953674","3","1","1","2","0.8,0.2,0.2,0.2,0.8,0.2,0.2,0.2,0.8","0.2,0.2,0.8,0.8,0.2,0.2,0.2,0.8,0.2","2","",""
"","html-keyboard-response","227","150477","0.0-227.0","351SEKWQS132GPPCZWFB2WG70GZMDT","A1SLJKNSNHOJRN","3PIOQ99R7Y8STPN46QFY0SD7JTFNU0","","null","<img src=""img/land3.png"" style=""width:200px; border:14px solid green;"">","null","","","","","","","","","",""
"","image-keyboard-response","228","150863","0.0-228.0","351SEKWQS132GPPCZWFB2WG70GZMDT","A1SLJKNSNHOJRN","3PIOQ99R7Y8STPN46QFY0SD7JTFNU0","","385.69999980926514","img/land3.png","76","386.2999999523163","3","1","1","2","0.8,0.2,0.2,0.2,0.8,0.2,0.2,0.2,0.8","0.2,0.2,0.8,0.8,0.2,0.2,0.2,0.8,0.2","2","",""
"","html-keyboard-response","229","151165","0.0-229.0","351SEKWQS132GPPCZWFB2WG70GZMDT","A1SLJKNSNHOJRN","3PIOQ99R7Y8STPN46QFY0SD7JTFNU0","","null","<img src=""img/land3.png"" style=""width:200px; border:14px solid green;"">","null","","","","","","","","","",""
"","image-keyboard-response","230","151439","0.0-230.0","351SEKWQS132GPPCZWFB2WG70GZMDT","A1SLJKNSNHOJRN","3PIOQ99R7Y8STPN46QFY0SD7JTFNU0","","273.2000000476837","img/land3.png","76","273.89999985694885","3","1","1","2","0.8,0.2,0.2,0.2,0.8,0.2,0.2,0.2,0.8","0.2,0.2,0.8,0.8,0.2,0.2,0.2,0.8,0.2","2","",""
"","html-keyboard-response","231","151740","0.0-231.0","351SEKWQS132GPPCZWFB2WG70GZMDT","A1SLJKNSNHOJRN","3PIOQ99R7Y8STPN46QFY0SD7JTFNU0","","null","<img src=""img/land3.png"" style=""width:200px; border:14px solid green;"">","null","","","","","","","","","",""
"","image-keyboard-response","232","151999","0.0-232.0","351SEKWQS132GPPCZWFB2WG70GZMDT","A1SLJKNSNHOJRN","3PIOQ99R7Y8STPN46QFY0SD7JTFNU0","","257.7999999523163","img/land3.png","76","258.40000009536743","3","1","1","2","0.8,0.2,0.2,0.2,0.8,0.2,0.2,0.2,0.8","0.2,0.2,0.8,0.8,0.2,0.2,0.2,0.8,0.2","2","",""
"","html-keyboard-response","233","152301","0.0-233.0","351SEKWQS132GPPCZWFB2WG70GZMDT","A1SLJKNSNHOJRN","3PIOQ99R7Y8STPN46QFY0SD7JTFNU0","","null","<img src=""img/land3.png"" style=""width:200px; border:14px solid green;"">","null","","","","","","","","","",""
"","image-keyboard-response","234","152887","0.0-234.0","351SEKWQS132GPPCZWFB2WG70GZMDT","A1SLJKNSNHOJRN","3PIOQ99R7Y8STPN46QFY0SD7JTFNU0","","585.2999999523163","img/land5.png","75","586","2","0","3","2","0.8,0.2,0.2,0.2,0.8,0.2,0.2,0.2,0.8","0.2,0.2,0.8,0.8,0.2,0.2,0.2,0.8,0.2","2","",""
"","html-keyboard-response","235","153189","0.0-235.0","351SEKWQS132GPPCZWFB2WG70GZMDT","A1SLJKNSNHOJRN","3PIOQ99R7Y8STPN46QFY0SD7JTFNU0","","null","<img src=""img/land5.png"" style=""width:200px;border:14px solid red;"">","null","","","","","","","","","",""
"","image-keyboard-response","236","153671","0.0-236.0","351SEKWQS132GPPCZWFB2WG70GZMDT","A1SLJKNSNHOJRN","3PIOQ99R7Y8STPN46QFY0SD7JTFNU0","","481.5","img/land6.png","76","482","3","0","2","2","0.8,0.2,0.2,0.2,0.8,0.2,0.2,0.2,0.8","0.2,0.2,0.8,0.8,0.2,0.2,0.2,0.8,0.2","2","",""
"","html-keyboard-response","237","153973","0.0-237.0","351SEKWQS132GPPCZWFB2WG70GZMDT","A1SLJKNSNHOJRN","3PIOQ99R7Y8STPN46QFY0SD7JTFNU0","","null","<img src=""img/land6.png"" style=""width:200px;border:14px solid red;"">","null","","","","","","","","","",""
"","image-keyboard-response","238","154751","0.0-238.0","351SEKWQS132GPPCZWFB2WG70GZMDT","A1SLJKNSNHOJRN","3PIOQ99R7Y8STPN46QFY0SD7JTFNU0","","777.0999999046326","img/land3.png","76","777.7000000476837","3","1","1","2","0.8,0.2,0.2,0.2,0.8,0.2,0.2,0.2,0.8","0.2,0.2,0.8,0.8,0.2,0.2,0.2,0.8,0.2","2","",""
"","html-keyboard-response","239","155056","0.0-239.0","351SEKWQS132GPPCZWFB2WG70GZMDT","A1SLJKNSNHOJRN","3PIOQ99R7Y8STPN46QFY0SD7JTFNU0","","null","<img src=""img/land3.png"" style=""width:200px; border:14px solid green;"">","null","","","","","","","","","",""
"","image-keyboard-response","240","155359","0.0-240.0","351SEKWQS132GPPCZWFB2WG70GZMDT","A1SLJKNSNHOJRN","3PIOQ99R7Y8STPN46QFY0SD7JTFNU0","","302.59999990463257","img/land6.png","76","303.2999999523163","3","0","2","2","0.8,0.2,0.2,0.2,0.8,0.2,0.2,0.2,0.8","0.2,0.2,0.8,0.8,0.2,0.2,0.2,0.8,0.2","2","",""
"","html-keyboard-response","241","155661","0.0-241.0","351SEKWQS132GPPCZWFB2WG70GZMDT","A1SLJKNSNHOJRN","3PIOQ99R7Y8STPN46QFY0SD7JTFNU0","","null","<img src=""img/land6.png"" style=""width:200px;border:14px solid red;"">","null","","","","","","","","","",""
"","image-keyboard-response","242","155735","0.0-242.0","351SEKWQS132GPPCZWFB2WG70GZMDT","A1SLJKNSNHOJRN","3PIOQ99R7Y8STPN46QFY0SD7JTFNU0","","73","img/land3.png","75","73.5","2","0","1","2","0.8,0.2,0.2,0.2,0.8,0.2,0.2,0.2,0.8","0.2,0.2,0.8,0.8,0.2,0.2,0.2,0.8,0.2","2","",""
"","html-keyboard-response","243","156037","0.0-243.0","351SEKWQS132GPPCZWFB2WG70GZMDT","A1SLJKNSNHOJRN","3PIOQ99R7Y8STPN46QFY0SD7JTFNU0","","null","<img src=""img/land3.png"" style=""width:200px;border:14px solid red;"">","null","","","","","","","","","",""
"","image-keyboard-response","244","156615","0.0-244.0","351SEKWQS132GPPCZWFB2WG70GZMDT","A1SLJKNSNHOJRN","3PIOQ99R7Y8STPN46QFY0SD7JTFNU0","","577.2999999523163","img/land3.png","76","577.8999998569489","3","0","1","2","0.8,0.2,0.2,0.2,0.8,0.2,0.2,0.2,0.8","0.2,0.2,0.8,0.8,0.2,0.2,0.2,0.8,0.2","2","",""
"","html-keyboard-response","245","156917","0.0-245.0","351SEKWQS132GPPCZWFB2WG70GZMDT","A1SLJKNSNHOJRN","3PIOQ99R7Y8STPN46QFY0SD7JTFNU0","","null","<img src=""img/land3.png"" style=""width:200px;border:14px solid red;"">","null","","","","","","","","","",""
"","image-keyboard-response","246","157559","0.0-246.0","351SEKWQS132GPPCZWFB2WG70GZMDT","A1SLJKNSNHOJRN","3PIOQ99R7Y8STPN46QFY0SD7JTFNU0","","641.3999998569489","img/land5.png","75","642","2","1","3","2","0.8,0.2,0.2,0.2,0.8,0.2,0.2,0.2,0.8","0.2,0.2,0.8,0.8,0.2,0.2,0.2,0.8,0.2","2","",""
"","html-keyboard-response","247","157860","0.0-247.0","351SEKWQS132GPPCZWFB2WG70GZMDT","A1SLJKNSNHOJRN","3PIOQ99R7Y8STPN46QFY0SD7JTFNU0","","null","<img src=""img/land5.png"" style=""width:200px; border:14px solid green;"">","null","","","","","","","","","",""
"","image-keyboard-response","248","158495","0.0-248.0","351SEKWQS132GPPCZWFB2WG70GZMDT","A1SLJKNSNHOJRN","3PIOQ99R7Y8STPN46QFY0SD7JTFNU0","","634.3999998569489","img/land3.png","76","635","3","1","1","2","0.8,0.2,0.2,0.2,0.8,0.2,0.2,0.2,0.8","0.2,0.2,0.8,0.8,0.2,0.2,0.2,0.8,0.2","2","",""
"","html-keyboard-response","249","158797","0.0-249.0","351SEKWQS132GPPCZWFB2WG70GZMDT","A1SLJKNSNHOJRN","3PIOQ99R7Y8STPN46QFY0SD7JTFNU0","","null","<img src=""img/land3.png"" style=""width:200px; border:14px solid green;"">","null","","","","","","","","","",""
"","image-keyboard-response","250","159231","0.0-250.0","351SEKWQS132GPPCZWFB2WG70GZMDT","A1SLJKNSNHOJRN","3PIOQ99R7Y8STPN46QFY0SD7JTFNU0","","433.09999990463257","img/land3.png","76","433.90000009536743","3","0","1","2","0.8,0.2,0.2,0.2,0.8,0.2,0.2,0.2,0.8","0.2,0.2,0.8,0.8,0.2,0.2,0.2,0.8,0.2","2","",""
"","html-keyboard-response","251","159533","0.0-251.0","351SEKWQS132GPPCZWFB2WG70GZMDT","A1SLJKNSNHOJRN","3PIOQ99R7Y8STPN46QFY0SD7JTFNU0","","null","<img src=""img/land3.png"" style=""width:200px;border:14px solid red;"">","null","","","","","","","","","",""
"","image-keyboard-response","252","160295","0.0-252.0","351SEKWQS132GPPCZWFB2WG70GZMDT","A1SLJKNSNHOJRN","3PIOQ99R7Y8STPN46QFY0SD7JTFNU0","","761.0999999046326","img/land6.png","75","761.7999999523163","2","0","2","2","0.8,0.2,0.2,0.2,0.8,0.2,0.2,0.2,0.8","0.2,0.2,0.8,0.8,0.2,0.2,0.2,0.8,0.2","2","",""
"","html-keyboard-response","253","160597","0.0-253.0","351SEKWQS132GPPCZWFB2WG70GZMDT","A1SLJKNSNHOJRN","3PIOQ99R7Y8STPN46QFY0SD7JTFNU0","","null","<img src=""img/land6.png"" style=""width:200px;border:14px solid red;"">","null","","","","","","","","","",""
"","image-keyboard-response","254","161135","0.0-254.0","351SEKWQS132GPPCZWFB2WG70GZMDT","A1SLJKNSNHOJRN","3PIOQ99R7Y8STPN46QFY0SD7JTFNU0","","537.2999999523163","img/land6.png","75","537.7000000476837","2","0","2","2","0.8,0.2,0.2,0.2,0.8,0.2,0.2,0.2,0.8","0.2,0.2,0.8,0.8,0.2,0.2,0.2,0.8,0.2","2","",""
"","html-keyboard-response","255","161437","0.0-255.0","351SEKWQS132GPPCZWFB2WG70GZMDT","A1SLJKNSNHOJRN","3PIOQ99R7Y8STPN46QFY0SD7JTFNU0","","null","<img src=""img/land6.png"" style=""width:200px;border:14px solid red;"">","null","","","","","","","","","",""
"","image-keyboard-response","256","162063","0.0-256.0","351SEKWQS132GPPCZWFB2WG70GZMDT","A1SLJKNSNHOJRN","3PIOQ99R7Y8STPN46QFY0SD7JTFNU0","","625.2000000476837","img/land3.png","76","625.7999999523163","3","0","1","2","0.8,0.2,0.2,0.2,0.8,0.2,0.2,0.2,0.8","0.2,0.2,0.8,0.8,0.2,0.2,0.2,0.8,0.2","2","",""
"","html-keyboard-response","257","162364","0.0-257.0","351SEKWQS132GPPCZWFB2WG70GZMDT","A1SLJKNSNHOJRN","3PIOQ99R7Y8STPN46QFY0SD7JTFNU0","","null","<img src=""img/land3.png"" style=""width:200px;border:14px solid red;"">","null","","","","","","","","","",""
"","image-keyboard-response","258","162823","0.0-258.0","351SEKWQS132GPPCZWFB2WG70GZMDT","A1SLJKNSNHOJRN","3PIOQ99R7Y8STPN46QFY0SD7JTFNU0","","457.89999985694885","img/land3.png","76","458.39999985694885","3","1","1","2","0.8,0.2,0.2,0.2,0.8,0.2,0.2,0.2,0.8","0.2,0.2,0.8,0.8,0.2,0.2,0.2,0.8,0.2","2","",""
"","html-keyboard-response","259","163125","0.0-259.0","351SEKWQS132GPPCZWFB2WG70GZMDT","A1SLJKNSNHOJRN","3PIOQ99R7Y8STPN46QFY0SD7JTFNU0","","null","<img src=""img/land3.png"" style=""width:200px; border:14px solid green;"">","null","","","","","","","","","",""
"","image-keyboard-response","260","163679","0.0-260.0","351SEKWQS132GPPCZWFB2WG70GZMDT","A1SLJKNSNHOJRN","3PIOQ99R7Y8STPN46QFY0SD7JTFNU0","","553.2999999523163","img/land6.png","75","553.8999998569489","2","0","2","2","0.8,0.2,0.2,0.2,0.8,0.2,0.2,0.2,0.8","0.2,0.2,0.8,0.8,0.2,0.2,0.2,0.8,0.2","2","",""
"","html-keyboard-response","261","163980","0.0-261.0","351SEKWQS132GPPCZWFB2WG70GZMDT","A1SLJKNSNHOJRN","3PIOQ99R7Y8STPN46QFY0SD7JTFNU0","","null","<img src=""img/land6.png"" style=""width:200px;border:14px solid red;"">","null","","","","","","","","","",""
"","image-keyboard-response","262","165135","0.0-262.0","351SEKWQS132GPPCZWFB2WG70GZMDT","A1SLJKNSNHOJRN","3PIOQ99R7Y8STPN46QFY0SD7JTFNU0","","1153.9000000953674","img/land3.png","76","1154.5","3","1","1","2","0.8,0.2,0.2,0.2,0.8,0.2,0.2,0.2,0.8","0.2,0.2,0.8,0.8,0.2,0.2,0.2,0.8,0.2","2","",""
"","html-keyboard-response","263","165437","0.0-263.0","351SEKWQS132GPPCZWFB2WG70GZMDT","A1SLJKNSNHOJRN","3PIOQ99R7Y8STPN46QFY0SD7JTFNU0","","null","<img src=""img/land3.png"" style=""width:200px; border:14px solid green;"">","null","","","","","","","","","",""
"","image-keyboard-response","264","165759","0.0-264.0","351SEKWQS132GPPCZWFB2WG70GZMDT","A1SLJKNSNHOJRN","3PIOQ99R7Y8STPN46QFY0SD7JTFNU0","","321.2000000476837","img/land3.png","76","321.7999999523163","3","1","1","2","0.8,0.2,0.2,0.2,0.8,0.2,0.2,0.2,0.8","0.2,0.2,0.8,0.8,0.2,0.2,0.2,0.8,0.2","2","",""
"","html-keyboard-response","265","166060","0.0-265.0","351SEKWQS132GPPCZWFB2WG70GZMDT","A1SLJKNSNHOJRN","3PIOQ99R7Y8STPN46QFY0SD7JTFNU0","","null","<img src=""img/land3.png"" style=""width:200px; border:14px solid green;"">","null","","","","","","","","","",""
"","image-keyboard-response","266","166511","0.0-266.0","351SEKWQS132GPPCZWFB2WG70GZMDT","A1SLJKNSNHOJRN","3PIOQ99R7Y8STPN46QFY0SD7JTFNU0","","449.89999985694885","img/land6.png","75","450.60000014305115","2","0","2","2","0.8,0.2,0.2,0.2,0.8,0.2,0.2,0.2,0.8","0.2,0.2,0.8,0.8,0.2,0.2,0.2,0.8,0.2","2","",""
"","html-keyboard-response","267","166813","0.0-267.0","351SEKWQS132GPPCZWFB2WG70GZMDT","A1SLJKNSNHOJRN","3PIOQ99R7Y8STPN46QFY0SD7JTFNU0","","null","<img src=""img/land6.png"" style=""width:200px;border:14px solid red;"">","null","","","","","","","","","",""
"","image-keyboard-response","268","167247","0.0-268.0","351SEKWQS132GPPCZWFB2WG70GZMDT","A1SLJKNSNHOJRN","3PIOQ99R7Y8STPN46QFY0SD7JTFNU0","","433.09999990463257","img/land3.png","76","433.7000000476837","3","1","1","2","0.8,0.2,0.2,0.2,0.8,0.2,0.2,0.2,0.8","0.2,0.2,0.8,0.8,0.2,0.2,0.2,0.8,0.2","2","",""
"","html-keyboard-response","269","167549","0.0-269.0","351SEKWQS132GPPCZWFB2WG70GZMDT","A1SLJKNSNHOJRN","3PIOQ99R7Y8STPN46QFY0SD7JTFNU0","","null","<img src=""img/land3.png"" style=""width:200px; border:14px solid green;"">","null","","","","","","","","","",""
"","image-keyboard-response","270","168295","0.0-270.0","351SEKWQS132GPPCZWFB2WG70GZMDT","A1SLJKNSNHOJRN","3PIOQ99R7Y8STPN46QFY0SD7JTFNU0","","745.2999999523163","img/land5.png","75","745.8000001907349","2","1","3","2","0.8,0.2,0.2,0.2,0.8,0.2,0.2,0.2,0.8","0.2,0.2,0.8,0.8,0.2,0.2,0.2,0.8,0.2","2","",""
"","html-keyboard-response","271","168598","0.0-271.0","351SEKWQS132GPPCZWFB2WG70GZMDT","A1SLJKNSNHOJRN","3PIOQ99R7Y8STPN46QFY0SD7JTFNU0","","null","<img src=""img/land5.png"" style=""width:200px; border:14px solid green;"">","null","","","","","","","","","",""
"","image-keyboard-response","272","169135","0.0-272.0","351SEKWQS132GPPCZWFB2WG70GZMDT","A1SLJKNSNHOJRN","3PIOQ99R7Y8STPN46QFY0SD7JTFNU0","","536.2999999523163","img/land3.png","76","537","3","0","1","2","0.8,0.2,0.2,0.2,0.8,0.2,0.2,0.2,0.8","0.2,0.2,0.8,0.8,0.2,0.2,0.2,0.8,0.2","2","",""
"","html-keyboard-response","273","169436","0.0-273.0","351SEKWQS132GPPCZWFB2WG70GZMDT","A1SLJKNSNHOJRN","3PIOQ99R7Y8STPN46QFY0SD7JTFNU0","","null","<img src=""img/land3.png"" style=""width:200px;border:14px solid red;"">","null","","","","","","","","","",""
"","image-keyboard-response","274","170095","0.0-274.0","351SEKWQS132GPPCZWFB2WG70GZMDT","A1SLJKNSNHOJRN","3PIOQ99R7Y8STPN46QFY0SD7JTFNU0","","657.4000000953674","img/land5.png","75","658.1000001430511","2","1","3","2","0.8,0.2,0.2,0.2,0.8,0.2,0.2,0.2,0.8","0.2,0.2,0.8,0.8,0.2,0.2,0.2,0.8,0.2","2","",""
"","html-keyboard-response","275","170397","0.0-275.0","351SEKWQS132GPPCZWFB2WG70GZMDT","A1SLJKNSNHOJRN","3PIOQ99R7Y8STPN46QFY0SD7JTFNU0","","null","<img src=""img/land5.png"" style=""width:200px; border:14px solid green;"">","null","","","","","","","","","",""
"","image-keyboard-response","276","170783","0.0-276.0","351SEKWQS132GPPCZWFB2WG70GZMDT","A1SLJKNSNHOJRN","3PIOQ99R7Y8STPN46QFY0SD7JTFNU0","","385.2999999523163","img/land5.png","75","385.89999985694885","2","1","3","2","0.8,0.2,0.2,0.2,0.8,0.2,0.2,0.2,0.8","0.2,0.2,0.8,0.8,0.2,0.2,0.2,0.8,0.2","2","",""
"","html-keyboard-response","277","171084","0.0-277.0","351SEKWQS132GPPCZWFB2WG70GZMDT","A1SLJKNSNHOJRN","3PIOQ99R7Y8STPN46QFY0SD7JTFNU0","","null","<img src=""img/land5.png"" style=""width:200px; border:14px solid green;"">","null","","","","","","","","","",""
"","image-keyboard-response","278","171599","0.0-278.0","351SEKWQS132GPPCZWFB2WG70GZMDT","A1SLJKNSNHOJRN","3PIOQ99R7Y8STPN46QFY0SD7JTFNU0","","513.7000000476837","img/land3.png","76","514.4000000953674","3","1","1","2","0.8,0.2,0.2,0.2,0.8,0.2,0.2,0.2,0.8","0.2,0.2,0.8,0.8,0.2,0.2,0.2,0.8,0.2","2","",""
"","html-keyboard-response","279","171900","0.0-279.0","351SEKWQS132GPPCZWFB2WG70GZMDT","A1SLJKNSNHOJRN","3PIOQ99R7Y8STPN46QFY0SD7JTFNU0","","null","<img src=""img/land3.png"" style=""width:200px; border:14px solid green;"">","null","","","","","","","","","",""
"","image-keyboard-response","280","172239","0.0-280.0","351SEKWQS132GPPCZWFB2WG70GZMDT","A1SLJKNSNHOJRN","3PIOQ99R7Y8STPN46QFY0SD7JTFNU0","","337.90000009536743","img/land3.png","76","338.5","3","1","1","2","0.8,0.2,0.2,0.2,0.8,0.2,0.2,0.2,0.8","0.2,0.2,0.8,0.8,0.2,0.2,0.2,0.8,0.2","2","",""
"","html-keyboard-response","281","172540","0.0-281.0","351SEKWQS132GPPCZWFB2WG70GZMDT","A1SLJKNSNHOJRN","3PIOQ99R7Y8STPN46QFY0SD7JTFNU0","","null","<img src=""img/land3.png"" style=""width:200px; border:14px solid green;"">","null","","","","","","","","","",""
"","image-keyboard-response","282","172847","0.0-282.0","351SEKWQS132GPPCZWFB2WG70GZMDT","A1SLJKNSNHOJRN","3PIOQ99R7Y8STPN46QFY0SD7JTFNU0","","306","img/land3.png","76","306.59999990463257","3","1","1","2","0.8,0.2,0.2,0.2,0.8,0.2,0.2,0.2,0.8","0.2,0.2,0.8,0.8,0.2,0.2,0.2,0.8,0.2","2","",""
"","html-keyboard-response","283","173148","0.0-283.0","351SEKWQS132GPPCZWFB2WG70GZMDT","A1SLJKNSNHOJRN","3PIOQ99R7Y8STPN46QFY0SD7JTFNU0","","null","<img src=""img/land3.png"" style=""width:200px; border:14px solid green;"">","null","","","","","","","","","",""
"","image-keyboard-response","284","173599","0.0-284.0","351SEKWQS132GPPCZWFB2WG70GZMDT","A1SLJKNSNHOJRN","3PIOQ99R7Y8STPN46QFY0SD7JTFNU0","","450.09999990463257","img/land6.png","75","450.7000000476837","2","1","2","2","0.8,0.2,0.2,0.2,0.8,0.2,0.2,0.2,0.8","0.2,0.2,0.8,0.8,0.2,0.2,0.2,0.8,0.2","2","",""
"","html-keyboard-response","285","173900","0.0-285.0","351SEKWQS132GPPCZWFB2WG70GZMDT","A1SLJKNSNHOJRN","3PIOQ99R7Y8STPN46QFY0SD7JTFNU0","","null","<img src=""img/land6.png"" style=""width:200px; border:14px solid green;"">","null","","","","","","","","","",""
"","image-keyboard-response","286","174439","0.0-286.0","351SEKWQS132GPPCZWFB2WG70GZMDT","A1SLJKNSNHOJRN","3PIOQ99R7Y8STPN46QFY0SD7JTFNU0","","538.0999999046326","img/land3.png","76","538.6000001430511","3","1","1","2","0.8,0.2,0.2,0.2,0.8,0.2,0.2,0.2,0.8","0.2,0.2,0.8,0.8,0.2,0.2,0.2,0.8,0.2","2","",""
"","html-keyboard-response","287","174753","0.0-287.0","351SEKWQS132GPPCZWFB2WG70GZMDT","A1SLJKNSNHOJRN","3PIOQ99R7Y8STPN46QFY0SD7JTFNU0","","null","<img src=""img/land3.png"" style=""width:200px; border:14px solid green;"">","null","","","","","","","","","",""
"","image-keyboard-response","288","175271","0.0-288.0","351SEKWQS132GPPCZWFB2WG70GZMDT","A1SLJKNSNHOJRN","3PIOQ99R7Y8STPN46QFY0SD7JTFNU0","","517.0999999046326","img/land6.png","75","517.6000001430511","2","0","2","2","0.8,0.2,0.2,0.2,0.8,0.2,0.2,0.2,0.8","0.2,0.2,0.8,0.8,0.2,0.2,0.2,0.8,0.2","2","",""
"","html-keyboard-response","289","175572","0.0-289.0","351SEKWQS132GPPCZWFB2WG70GZMDT","A1SLJKNSNHOJRN","3PIOQ99R7Y8STPN46QFY0SD7JTFNU0","","null","<img src=""img/land6.png"" style=""width:200px;border:14px solid red;"">","null","","","","","","","","","",""
"","image-keyboard-response","290","176215","0.0-290.0","351SEKWQS132GPPCZWFB2WG70GZMDT","A1SLJKNSNHOJRN","3PIOQ99R7Y8STPN46QFY0SD7JTFNU0","","642","img/land3.png","76","642.5","3","1","1","2","0.8,0.2,0.2,0.2,0.8,0.2,0.2,0.2,0.8","0.2,0.2,0.8,0.8,0.2,0.2,0.2,0.8,0.2","2","",""
"","html-keyboard-response","291","176517","0.0-291.0","351SEKWQS132GPPCZWFB2WG70GZMDT","A1SLJKNSNHOJRN","3PIOQ99R7Y8STPN46QFY0SD7JTFNU0","","null","<img src=""img/land3.png"" style=""width:200px; border:14px solid green;"">","null","","","","","","","","","",""
"","image-keyboard-response","292","177135","0.0-292.0","351SEKWQS132GPPCZWFB2WG70GZMDT","A1SLJKNSNHOJRN","3PIOQ99R7Y8STPN46QFY0SD7JTFNU0","","617.2999999523163","img/land6.png","75","617.7000000476837","2","0","2","2","0.8,0.2,0.2,0.2,0.8,0.2,0.2,0.2,0.8","0.2,0.2,0.8,0.8,0.2,0.2,0.2,0.8,0.2","2","",""
"","html-keyboard-response","293","177437","0.0-293.0","351SEKWQS132GPPCZWFB2WG70GZMDT","A1SLJKNSNHOJRN","3PIOQ99R7Y8STPN46QFY0SD7JTFNU0","","null","<img src=""img/land6.png"" style=""width:200px;border:14px solid red;"">","null","","","","","","","","","",""
"","image-keyboard-response","294","177951","0.0-294.0","351SEKWQS132GPPCZWFB2WG70GZMDT","A1SLJKNSNHOJRN","3PIOQ99R7Y8STPN46QFY0SD7JTFNU0","","513","img/land3.png","76","513.7000000476837","3","1","1","2","0.8,0.2,0.2,0.2,0.8,0.2,0.2,0.2,0.8","0.2,0.2,0.8,0.8,0.2,0.2,0.2,0.8,0.2","2","",""
"","html-keyboard-response","295","178253","0.0-295.0","351SEKWQS132GPPCZWFB2WG70GZMDT","A1SLJKNSNHOJRN","3PIOQ99R7Y8STPN46QFY0SD7JTFNU0","","null","<img src=""img/land3.png"" style=""width:200px; border:14px solid green;"">","null","","","","","","","","","",""
"","image-keyboard-response","296","178607","0.0-296.0","351SEKWQS132GPPCZWFB2WG70GZMDT","A1SLJKNSNHOJRN","3PIOQ99R7Y8STPN46QFY0SD7JTFNU0","","353.7999999523163","img/land3.png","76","354.5","3","0","1","2","0.8,0.2,0.2,0.2,0.8,0.2,0.2,0.2,0.8","0.2,0.2,0.8,0.8,0.2,0.2,0.2,0.8,0.2","2","",""
"","html-keyboard-response","297","178909","0.0-297.0","351SEKWQS132GPPCZWFB2WG70GZMDT","A1SLJKNSNHOJRN","3PIOQ99R7Y8STPN46QFY0SD7JTFNU0","","null","<img src=""img/land3.png"" style=""width:200px;border:14px solid red;"">","null","","","","","","","","","",""
"","image-keyboard-response","298","179543","0.0-298.0","351SEKWQS132GPPCZWFB2WG70GZMDT","A1SLJKNSNHOJRN","3PIOQ99R7Y8STPN46QFY0SD7JTFNU0","","633.0999999046326","img/land5.png","75","633.7999999523163","2","1","3","2","0.8,0.2,0.2,0.2,0.8,0.2,0.2,0.2,0.8","0.2,0.2,0.8,0.8,0.2,0.2,0.2,0.8,0.2","2","",""
"","html-keyboard-response","299","179845","0.0-299.0","351SEKWQS132GPPCZWFB2WG70GZMDT","A1SLJKNSNHOJRN","3PIOQ99R7Y8STPN46QFY0SD7JTFNU0","","null","<img src=""img/land5.png"" style=""width:200px; border:14px solid green;"">","null","","","","","","","","","",""
"","image-keyboard-response","300","180471","0.0-300.0","351SEKWQS132GPPCZWFB2WG70GZMDT","A1SLJKNSNHOJRN","3PIOQ99R7Y8STPN46QFY0SD7JTFNU0","","625","img/land3.png","76","625.6000001430511","3","1","1","2","0.8,0.2,0.2,0.2,0.8,0.2,0.2,0.2,0.8","0.2,0.2,0.8,0.8,0.2,0.2,0.2,0.8,0.2","2","",""
"","html-keyboard-response","301","180774","0.0-301.0","351SEKWQS132GPPCZWFB2WG70GZMDT","A1SLJKNSNHOJRN","3PIOQ99R7Y8STPN46QFY0SD7JTFNU0","","null","<img src=""img/land3.png"" style=""width:200px; border:14px solid green;"">","null","","","","","","","","","",""
"","image-keyboard-response","302","182359","0.0-302.0","351SEKWQS132GPPCZWFB2WG70GZMDT","A1SLJKNSNHOJRN","3PIOQ99R7Y8STPN46QFY0SD7JTFNU0","","1584.5999999046326","img/land4.png","75","1585.2999999523163","2","1","3","1","0.8,0.2,0.2,0.2,0.8,0.2,0.2,0.2,0.8","0.8,0.2,0.2,0.2,0.8,0.2,0.2,0.2,0.8","1","",""
"","html-keyboard-response","303","182661","0.0-303.0","351SEKWQS132GPPCZWFB2WG70GZMDT","A1SLJKNSNHOJRN","3PIOQ99R7Y8STPN46QFY0SD7JTFNU0","","null","<img src=""img/land4.png"" style=""width:200px; border:14px solid green;"">","null","","","","","","","","","",""
"","image-keyboard-response","304","183847","0.0-304.0","351SEKWQS132GPPCZWFB2WG70GZMDT","A1SLJKNSNHOJRN","3PIOQ99R7Y8STPN46QFY0SD7JTFNU0","","1185.0999999046326","img/land1.png","75","1185.7999999523163","2","0","1","1","0.8,0.2,0.2,0.2,0.8,0.2,0.2,0.2,0.8","0.8,0.2,0.2,0.2,0.8,0.2,0.2,0.2,0.8","1","",""
"","html-keyboard-response","305","184149","0.0-305.0","351SEKWQS132GPPCZWFB2WG70GZMDT","A1SLJKNSNHOJRN","3PIOQ99R7Y8STPN46QFY0SD7JTFNU0","","null","<img src=""img/land1.png"" style=""width:200px;border:14px solid red;"">","null","","","","","","","","","",""
"","image-keyboard-response","306","185167","0.0-306.0","351SEKWQS132GPPCZWFB2WG70GZMDT","A1SLJKNSNHOJRN","3PIOQ99R7Y8STPN46QFY0SD7JTFNU0","","1017.1000001430511","img/land1.png","74","1017.7000000476837","1","0","1","1","0.8,0.2,0.2,0.2,0.8,0.2,0.2,0.2,0.8","0.8,0.2,0.2,0.2,0.8,0.2,0.2,0.2,0.8","1","",""
"","html-keyboard-response","307","185468","0.0-307.0","351SEKWQS132GPPCZWFB2WG70GZMDT","A1SLJKNSNHOJRN","3PIOQ99R7Y8STPN46QFY0SD7JTFNU0","","null","<img src=""img/land1.png"" style=""width:200px;border:14px solid red;"">","null","","","","","","","","","",""
"","image-keyboard-response","308","186447","0.0-308.0","351SEKWQS132GPPCZWFB2WG70GZMDT","A1SLJKNSNHOJRN","3PIOQ99R7Y8STPN46QFY0SD7JTFNU0","","977.7999999523163","img/land1.png","76","978.2999999523163","3","0","1","1","0.8,0.2,0.2,0.2,0.8,0.2,0.2,0.2,0.8","0.8,0.2,0.2,0.2,0.8,0.2,0.2,0.2,0.8","1","",""
"","html-keyboard-response","309","186749","0.0-309.0","351SEKWQS132GPPCZWFB2WG70GZMDT","A1SLJKNSNHOJRN","3PIOQ99R7Y8STPN46QFY0SD7JTFNU0","","null","<img src=""img/land1.png"" style=""width:200px;border:14px solid red;"">","null","","","","","","","","","",""
"","image-keyboard-response","310","187263","0.0-310.0","351SEKWQS132GPPCZWFB2WG70GZMDT","A1SLJKNSNHOJRN","3PIOQ99R7Y8STPN46QFY0SD7JTFNU0","","513.0999999046326","img/land1.png","74","513.7000000476837","1","1","1","1","0.8,0.2,0.2,0.2,0.8,0.2,0.2,0.2,0.8","0.8,0.2,0.2,0.2,0.8,0.2,0.2,0.2,0.8","1","",""
"","html-keyboard-response","311","187565","0.0-311.0","351SEKWQS132GPPCZWFB2WG70GZMDT","A1SLJKNSNHOJRN","3PIOQ99R7Y8STPN46QFY0SD7JTFNU0","","null","<img src=""img/land1.png"" style=""width:200px; border:14px solid green;"">","null","","","","","","","","","",""
"","image-keyboard-response","312","188567","0.0-312.0","351SEKWQS132GPPCZWFB2WG70GZMDT","A1SLJKNSNHOJRN","3PIOQ99R7Y8STPN46QFY0SD7JTFNU0","","1001.2999999523163","img/land4.png","74","1001.9000000953674","1","0","3","1","0.8,0.2,0.2,0.2,0.8,0.2,0.2,0.2,0.8","0.8,0.2,0.2,0.2,0.8,0.2,0.2,0.2,0.8","1","",""
"","html-keyboard-response","313","188868","0.0-313.0","351SEKWQS132GPPCZWFB2WG70GZMDT","A1SLJKNSNHOJRN","3PIOQ99R7Y8STPN46QFY0SD7JTFNU0","","null","<img src=""img/land4.png"" style=""width:200px;border:14px solid red;"">","null","","","","","","","","","",""
"","image-keyboard-response","314","189639","0.0-314.0","351SEKWQS132GPPCZWFB2WG70GZMDT","A1SLJKNSNHOJRN","3PIOQ99R7Y8STPN46QFY0SD7JTFNU0","","770.2999999523163","img/land4.png","75","771","2","0","3","1","0.8,0.2,0.2,0.2,0.8,0.2,0.2,0.2,0.8","0.8,0.2,0.2,0.2,0.8,0.2,0.2,0.2,0.8","1","",""
"","html-keyboard-response","315","189941","0.0-315.0","351SEKWQS132GPPCZWFB2WG70GZMDT","A1SLJKNSNHOJRN","3PIOQ99R7Y8STPN46QFY0SD7JTFNU0","","null","<img src=""img/land4.png"" style=""width:200px;border:14px solid red;"">","null","","","","","","","","","",""
"","image-keyboard-response","316","190479","0.0-316.0","351SEKWQS132GPPCZWFB2WG70GZMDT","A1SLJKNSNHOJRN","3PIOQ99R7Y8STPN46QFY0SD7JTFNU0","","537.2000000476837","img/land4.png","76","537.9000000953674","3","1","3","1","0.8,0.2,0.2,0.2,0.8,0.2,0.2,0.2,0.8","0.8,0.2,0.2,0.2,0.8,0.2,0.2,0.2,0.8","1","",""
"","html-keyboard-response","317","190780","0.0-317.0","351SEKWQS132GPPCZWFB2WG70GZMDT","A1SLJKNSNHOJRN","3PIOQ99R7Y8STPN46QFY0SD7JTFNU0","","null","<img src=""img/land4.png"" style=""width:200px; border:14px solid green;"">","null","","","","","","","","","",""
"","image-keyboard-response","318","191423","0.0-318.0","351SEKWQS132GPPCZWFB2WG70GZMDT","A1SLJKNSNHOJRN","3PIOQ99R7Y8STPN46QFY0SD7JTFNU0","","641.9000000953674","img/land4.png","76","642.5","3","0","3","1","0.8,0.2,0.2,0.2,0.8,0.2,0.2,0.2,0.8","0.8,0.2,0.2,0.2,0.8,0.2,0.2,0.2,0.8","1","",""
"","html-keyboard-response","319","191724","0.0-319.0","351SEKWQS132GPPCZWFB2WG70GZMDT","A1SLJKNSNHOJRN","3PIOQ99R7Y8STPN46QFY0SD7JTFNU0","","null","<img src=""img/land4.png"" style=""width:200px;border:14px solid red;"">","null","","","","","","","","","",""
"","image-keyboard-response","320","192135","0.0-320.0","351SEKWQS132GPPCZWFB2WG70GZMDT","A1SLJKNSNHOJRN","3PIOQ99R7Y8STPN46QFY0SD7JTFNU0","","410","img/land4.png","76","410.59999990463257","3","1","3","1","0.8,0.2,0.2,0.2,0.8,0.2,0.2,0.2,0.8","0.8,0.2,0.2,0.2,0.8,0.2,0.2,0.2,0.8","1","",""
"","html-keyboard-response","321","192437","0.0-321.0","351SEKWQS132GPPCZWFB2WG70GZMDT","A1SLJKNSNHOJRN","3PIOQ99R7Y8STPN46QFY0SD7JTFNU0","","null","<img src=""img/land4.png"" style=""width:200px; border:14px solid green;"">","null","","","","","","","","","",""
"","image-keyboard-response","322","192823","0.0-322.0","351SEKWQS132GPPCZWFB2WG70GZMDT","A1SLJKNSNHOJRN","3PIOQ99R7Y8STPN46QFY0SD7JTFNU0","","385.10000014305115","img/land4.png","76","385.7999999523163","3","1","3","1","0.8,0.2,0.2,0.2,0.8,0.2,0.2,0.2,0.8","0.8,0.2,0.2,0.2,0.8,0.2,0.2,0.2,0.8","1","",""
"","html-keyboard-response","323","193124","0.0-323.0","351SEKWQS132GPPCZWFB2WG70GZMDT","A1SLJKNSNHOJRN","3PIOQ99R7Y8STPN46QFY0SD7JTFNU0","","null","<img src=""img/land4.png"" style=""width:200px; border:14px solid green;"">","null","","","","","","","","","",""
"","image-keyboard-response","324","194775","0.0-324.0","351SEKWQS132GPPCZWFB2WG70GZMDT","A1SLJKNSNHOJRN","3PIOQ99R7Y8STPN46QFY0SD7JTFNU0","","1650","img/land1.png","74","1650.6000001430511","1","1","1","1","0.8,0.2,0.2,0.2,0.8,0.2,0.2,0.2,0.8","0.8,0.2,0.2,0.2,0.8,0.2,0.2,0.2,0.8","1","",""
"","html-keyboard-response","325","195077","0.0-325.0","351SEKWQS132GPPCZWFB2WG70GZMDT","A1SLJKNSNHOJRN","3PIOQ99R7Y8STPN46QFY0SD7JTFNU0","","null","<img src=""img/land1.png"" style=""width:200px; border:14px solid green;"">","null","","","","","","","","","",""
"","image-keyboard-response","326","195607","0.0-326.0","351SEKWQS132GPPCZWFB2WG70GZMDT","A1SLJKNSNHOJRN","3PIOQ99R7Y8STPN46QFY0SD7JTFNU0","","529.1000001430511","img/land1.png","74","529.5999999046326","1","1","1","1","0.8,0.2,0.2,0.2,0.8,0.2,0.2,0.2,0.8","0.8,0.2,0.2,0.2,0.8,0.2,0.2,0.2,0.8","1","",""
"","html-keyboard-response","327","195909","0.0-327.0","351SEKWQS132GPPCZWFB2WG70GZMDT","A1SLJKNSNHOJRN","3PIOQ99R7Y8STPN46QFY0SD7JTFNU0","","null","<img src=""img/land1.png"" style=""width:200px; border:14px solid green;"">","null","","","","","","","","","",""
"","image-keyboard-response","328","196975","0.0-328.0","351SEKWQS132GPPCZWFB2WG70GZMDT","A1SLJKNSNHOJRN","3PIOQ99R7Y8STPN46QFY0SD7JTFNU0","","1064.9000000953674","img/land4.png","76","1065.6000001430511","3","1","3","1","0.8,0.2,0.2,0.2,0.8,0.2,0.2,0.2,0.8","0.8,0.2,0.2,0.2,0.8,0.2,0.2,0.2,0.8","1","",""
"","html-keyboard-response","329","197277","0.0-329.0","351SEKWQS132GPPCZWFB2WG70GZMDT","A1SLJKNSNHOJRN","3PIOQ99R7Y8STPN46QFY0SD7JTFNU0","","null","<img src=""img/land4.png"" style=""width:200px; border:14px solid green;"">","null","","","","","","","","","",""
"","image-keyboard-response","330","198399","0.0-330.0","351SEKWQS132GPPCZWFB2WG70GZMDT","A1SLJKNSNHOJRN","3PIOQ99R7Y8STPN46QFY0SD7JTFNU0","","1121.5","img/land2.png","75","1122.2000000476837","2","1","2","1","0.8,0.2,0.2,0.2,0.8,0.2,0.2,0.2,0.8","0.8,0.2,0.2,0.2,0.8,0.2,0.2,0.2,0.8","1","",""
"","html-keyboard-response","331","198700","0.0-331.0","351SEKWQS132GPPCZWFB2WG70GZMDT","A1SLJKNSNHOJRN","3PIOQ99R7Y8STPN46QFY0SD7JTFNU0","","null","<img src=""img/land2.png"" style=""width:200px; border:14px solid green;"">","null","","","","","","","","","",""
"","image-keyboard-response","332","199063","0.0-332.0","351SEKWQS132GPPCZWFB2WG70GZMDT","A1SLJKNSNHOJRN","3PIOQ99R7Y8STPN46QFY0SD7JTFNU0","","361.80000019073486","img/land2.png","75","362.40000009536743","2","1","2","1","0.8,0.2,0.2,0.2,0.8,0.2,0.2,0.2,0.8","0.8,0.2,0.2,0.2,0.8,0.2,0.2,0.2,0.8","1","",""
"","html-keyboard-response","333","199364","0.0-333.0","351SEKWQS132GPPCZWFB2WG70GZMDT","A1SLJKNSNHOJRN","3PIOQ99R7Y8STPN46QFY0SD7JTFNU0","","null","<img src=""img/land2.png"" style=""width:200px; border:14px solid green;"">","null","","","","","","","","","",""
"","image-keyboard-response","334","200879","0.0-334.0","351SEKWQS132GPPCZWFB2WG70GZMDT","A1SLJKNSNHOJRN","3PIOQ99R7Y8STPN46QFY0SD7JTFNU0","","1514.1999998092651","img/land4.png","76","1514.9000000953674","3","0","3","1","0.8,0.2,0.2,0.2,0.8,0.2,0.2,0.2,0.8","0.8,0.2,0.2,0.2,0.8,0.2,0.2,0.2,0.8","1","",""
"","html-keyboard-response","335","201180","0.0-335.0","351SEKWQS132GPPCZWFB2WG70GZMDT","A1SLJKNSNHOJRN","3PIOQ99R7Y8STPN46QFY0SD7JTFNU0","","null","<img src=""img/land4.png"" style=""width:200px;border:14px solid red;"">","null","","","","","","","","","",""
"","image-keyboard-response","336","201583","0.0-336.0","351SEKWQS132GPPCZWFB2WG70GZMDT","A1SLJKNSNHOJRN","3PIOQ99R7Y8STPN46QFY0SD7JTFNU0","","401.2000000476837","img/land4.png","76","401.7999999523163","3","1","3","1","0.8,0.2,0.2,0.2,0.8,0.2,0.2,0.2,0.8","0.8,0.2,0.2,0.2,0.8,0.2,0.2,0.2,0.8","1","",""
"","html-keyboard-response","337","201885","0.0-337.0","351SEKWQS132GPPCZWFB2WG70GZMDT","A1SLJKNSNHOJRN","3PIOQ99R7Y8STPN46QFY0SD7JTFNU0","","null","<img src=""img/land4.png"" style=""width:200px; border:14px solid green;"">","null","","","","","","","","","",""
"","image-keyboard-response","338","202775","0.0-338.0","351SEKWQS132GPPCZWFB2WG70GZMDT","A1SLJKNSNHOJRN","3PIOQ99R7Y8STPN46QFY0SD7JTFNU0","","888.9000000953674","img/land1.png","74","889.5","1","1","1","1","0.8,0.2,0.2,0.2,0.8,0.2,0.2,0.2,0.8","0.8,0.2,0.2,0.2,0.8,0.2,0.2,0.2,0.8","1","",""
"","html-keyboard-response","339","203076","0.0-339.0","351SEKWQS132GPPCZWFB2WG70GZMDT","A1SLJKNSNHOJRN","3PIOQ99R7Y8STPN46QFY0SD7JTFNU0","","null","<img src=""img/land1.png"" style=""width:200px; border:14px solid green;"">","null","","","","","","","","","",""
"","image-keyboard-response","340","203727","0.0-340.0","351SEKWQS132GPPCZWFB2WG70GZMDT","A1SLJKNSNHOJRN","3PIOQ99R7Y8STPN46QFY0SD7JTFNU0","","649.7999999523163","img/land4.png","76","650.5","3","1","3","1","0.8,0.2,0.2,0.2,0.8,0.2,0.2,0.2,0.8","0.8,0.2,0.2,0.2,0.8,0.2,0.2,0.2,0.8","1","",""
"","html-keyboard-response","341","204028","0.0-341.0","351SEKWQS132GPPCZWFB2WG70GZMDT","A1SLJKNSNHOJRN","3PIOQ99R7Y8STPN46QFY0SD7JTFNU0","","null","<img src=""img/land4.png"" style=""width:200px; border:14px solid green;"">","null","","","","","","","","","",""
"","image-keyboard-response","342","204503","0.0-342.0","351SEKWQS132GPPCZWFB2WG70GZMDT","A1SLJKNSNHOJRN","3PIOQ99R7Y8STPN46QFY0SD7JTFNU0","","473.90000009536743","img/land1.png","74","474.60000014305115","1","1","1","1","0.8,0.2,0.2,0.2,0.8,0.2,0.2,0.2,0.8","0.8,0.2,0.2,0.2,0.8,0.2,0.2,0.2,0.8","1","",""
"","html-keyboard-response","343","204805","0.0-343.0","351SEKWQS132GPPCZWFB2WG70GZMDT","A1SLJKNSNHOJRN","3PIOQ99R7Y8STPN46QFY0SD7JTFNU0","","null","<img src=""img/land1.png"" style=""width:200px; border:14px solid green;"">","null","","","","","","","","","",""
"","image-keyboard-response","344","205351","0.0-344.0","351SEKWQS132GPPCZWFB2WG70GZMDT","A1SLJKNSNHOJRN","3PIOQ99R7Y8STPN46QFY0SD7JTFNU0","","544.2000000476837","img/land4.png","76","545.2999999523163","3","1","3","1","0.8,0.2,0.2,0.2,0.8,0.2,0.2,0.2,0.8","0.8,0.2,0.2,0.2,0.8,0.2,0.2,0.2,0.8","1","",""
"","html-keyboard-response","345","205652","0.0-345.0","351SEKWQS132GPPCZWFB2WG70GZMDT","A1SLJKNSNHOJRN","3PIOQ99R7Y8STPN46QFY0SD7JTFNU0","","null","<img src=""img/land4.png"" style=""width:200px; border:14px solid green;"">","null","","","","","","","","","",""
"","image-keyboard-response","346","206167","0.0-346.0","351SEKWQS132GPPCZWFB2WG70GZMDT","A1SLJKNSNHOJRN","3PIOQ99R7Y8STPN46QFY0SD7JTFNU0","","513.9000000953674","img/land4.png","76","514.6000001430511","3","0","3","1","0.8,0.2,0.2,0.2,0.8,0.2,0.2,0.2,0.8","0.8,0.2,0.2,0.2,0.8,0.2,0.2,0.2,0.8","1","",""
"","html-keyboard-response","347","206468","0.0-347.0","351SEKWQS132GPPCZWFB2WG70GZMDT","A1SLJKNSNHOJRN","3PIOQ99R7Y8STPN46QFY0SD7JTFNU0","","null","<img src=""img/land4.png"" style=""width:200px;border:14px solid red;"">","null","","","","","","","","","",""
"","image-keyboard-response","348","207119","0.0-348.0","351SEKWQS132GPPCZWFB2WG70GZMDT","A1SLJKNSNHOJRN","3PIOQ99R7Y8STPN46QFY0SD7JTFNU0","","649.8999998569489","img/land1.png","74","650.5","1","0","1","1","0.8,0.2,0.2,0.2,0.8,0.2,0.2,0.2,0.8","0.8,0.2,0.2,0.2,0.8,0.2,0.2,0.2,0.8","1","",""
"","html-keyboard-response","349","207421","0.0-349.0","351SEKWQS132GPPCZWFB2WG70GZMDT","A1SLJKNSNHOJRN","3PIOQ99R7Y8STPN46QFY0SD7JTFNU0","","null","<img src=""img/land1.png"" style=""width:200px;border:14px solid red;"">","null","","","","","","","","","",""
"","image-keyboard-response","350","208455","0.0-350.0","351SEKWQS132GPPCZWFB2WG70GZMDT","A1SLJKNSNHOJRN","3PIOQ99R7Y8STPN46QFY0SD7JTFNU0","","1033.2000000476837","img/land2.png","75","1033.9000000953674","2","1","2","1","0.8,0.2,0.2,0.2,0.8,0.2,0.2,0.2,0.8","0.8,0.2,0.2,0.2,0.8,0.2,0.2,0.2,0.8","1","",""
"","html-keyboard-response","351","208757","0.0-351.0","351SEKWQS132GPPCZWFB2WG70GZMDT","A1SLJKNSNHOJRN","3PIOQ99R7Y8STPN46QFY0SD7JTFNU0","","null","<img src=""img/land2.png"" style=""width:200px; border:14px solid green;"">","null","","","","","","","","","",""
"","image-keyboard-response","352","209135","0.0-352.0","351SEKWQS132GPPCZWFB2WG70GZMDT","A1SLJKNSNHOJRN","3PIOQ99R7Y8STPN46QFY0SD7JTFNU0","","377.10000014305115","img/land2.png","75","377.7000000476837","2","1","2","1","0.8,0.2,0.2,0.2,0.8,0.2,0.2,0.2,0.8","0.8,0.2,0.2,0.2,0.8,0.2,0.2,0.2,0.8","1","",""
"","html-keyboard-response","353","209437","0.0-353.0","351SEKWQS132GPPCZWFB2WG70GZMDT","A1SLJKNSNHOJRN","3PIOQ99R7Y8STPN46QFY0SD7JTFNU0","","null","<img src=""img/land2.png"" style=""width:200px; border:14px solid green;"">","null","","","","","","","","","",""
