"success","trial_type","trial_index","time_elapsed","internal_node_id","assignmentID","mturkID","hitID","view_history","rt","stimulus","key_press","reactionTime","a","r","s","reward_cond","responses","question_order"
"true","fullscreen","0","6091","0.0-0.0","3D8YOU6S9F6M8OF6YBYJN0N9VHK6UJ","A1SN7EOZUW5VP3","3KVQ0UJWPX71V463XQYDOZYIDLRW5D","","","","","","","","","","",""
"","instructions","1","47245","0.0-1.0","3D8YOU6S9F6M8OF6YBYJN0N9VHK6UJ","A1SN7EOZUW5VP3","3KVQ0UJWPX71V463XQYDOZYIDLRW5D","[{""page_index"":0,""viewing_time"":2474},{""page_index"":1,""viewing_time"":13947},{""page_index"":2,""viewing_time"":6989},{""page_index"":3,""viewing_time"":3943},{""page_index"":4,""viewing_time"":3076},{""page_index"":5,""viewing_time"":3265},{""page_index"":6,""viewing_time"":7452}]","41146","","","","","","","","",""
"","image-keyboard-response","2","48646","0.0-2.0","3D8YOU6S9F6M8OF6YBYJN0N9VHK6UJ","A1SN7EOZUW5VP3","3KVQ0UJWPX71V463XQYDOZYIDLRW5D","","1395","img/land3.png","75","1400","2","1","3","1,0.7,0.7,0.7,1,0.7,0.7,0.7,1","",""
"","html-keyboard-response","3","48953","0.0-3.0","3D8YOU6S9F6M8OF6YBYJN0N9VHK6UJ","A1SN7EOZUW5VP3","3KVQ0UJWPX71V463XQYDOZYIDLRW5D","","null","<img src=""img/land3.png"" style=""width:200px; border:14px solid green;"">","null","","","","","","",""
"","image-keyboard-response","4","49414","0.0-4.0","3D8YOU6S9F6M8OF6YBYJN0N9VHK6UJ","A1SN7EOZUW5VP3","3KVQ0UJWPX71V463XQYDOZYIDLRW5D","","458","img/land2.png","75","460","2","1","2","1,0.7,0.7,0.7,1,0.7,0.7,0.7,1","",""
"","html-keyboard-response","5","49724","0.0-5.0","3D8YOU6S9F6M8OF6YBYJN0N9VHK6UJ","A1SN7EOZUW5VP3","3KVQ0UJWPX71V463XQYDOZYIDLRW5D","","null","<img src=""img/land2.png"" style=""width:200px; border:14px solid green;"">","null","","","","","","",""
"","image-keyboard-response","6","50725","0.0-6.0","3D8YOU6S9F6M8OF6YBYJN0N9VHK6UJ","A1SN7EOZUW5VP3","3KVQ0UJWPX71V463XQYDOZYIDLRW5D","","998","img/land3.png","74","1000","1","1","3","1,0.7,0.7,0.7,1,0.7,0.7,0.7,1","",""
"","html-keyboard-response","7","51034","0.0-7.0","3D8YOU6S9F6M8OF6YBYJN0N9VHK6UJ","A1SN7EOZUW5VP3","3KVQ0UJWPX71V463XQYDOZYIDLRW5D","","null","<img src=""img/land3.png"" style=""width:200px; border:14px solid green;"">","null","","","","","","",""
"","image-keyboard-response","8","52054","0.0-8.0","3D8YOU6S9F6M8OF6YBYJN0N9VHK6UJ","A1SN7EOZUW5VP3","3KVQ0UJWPX71V463XQYDOZYIDLRW5D","","1018","img/land2.png","75","1019","2","1","2","1,0.7,0.7,0.7,1,0.7,0.7,0.7,1","",""
"","html-keyboard-response","9","52364","0.0-9.0","3D8YOU6S9F6M8OF6YBYJN0N9VHK6UJ","A1SN7EOZUW5VP3","3KVQ0UJWPX71V463XQYDOZYIDLRW5D","","null","<img src=""img/land2.png"" style=""width:200px; border:14px solid green;"">","null","","","","","","",""
"","image-keyboard-response","10","53109","0.0-10.0","3D8YOU6S9F6M8OF6YBYJN0N9VHK6UJ","A1SN7EOZUW5VP3","3KVQ0UJWPX71V463XQYDOZYIDLRW5D","","743","img/land1.png","76","745","3","1","1","1,0.7,0.7,0.7,1,0.7,0.7,0.7,1","",""
"","html-keyboard-response","11","53414","0.0-11.0","3D8YOU6S9F6M8OF6YBYJN0N9VHK6UJ","A1SN7EOZUW5VP3","3KVQ0UJWPX71V463XQYDOZYIDLRW5D","","null","<img src=""img/land1.png"" style=""width:200px; border:14px solid green;"">","null","","","","","","",""
"","image-keyboard-response","12","54677","0.0-12.0","3D8YOU6S9F6M8OF6YBYJN0N9VHK6UJ","A1SN7EOZUW5VP3","3KVQ0UJWPX71V463XQYDOZYIDLRW5D","","1261","img/land3.png","75","1262","2","0","3","1,0.7,0.7,0.7,1,0.7,0.7,0.7,1","",""
"","html-keyboard-response","13","54984","0.0-13.0","3D8YOU6S9F6M8OF6YBYJN0N9VHK6UJ","A1SN7EOZUW5VP3","3KVQ0UJWPX71V463XQYDOZYIDLRW5D","","null","<img src=""img/land3.png"" style=""width:200px;border:14px solid red;"">","null","","","","","","",""
"","image-keyboard-response","14","56261","0.0-14.0","3D8YOU6S9F6M8OF6YBYJN0N9VHK6UJ","A1SN7EOZUW5VP3","3KVQ0UJWPX71V463XQYDOZYIDLRW5D","","1276","img/land1.png","74","1277","1","1","1","1,0.7,0.7,0.7,1,0.7,0.7,0.7,1","",""
"","html-keyboard-response","15","56564","0.0-15.0","3D8YOU6S9F6M8OF6YBYJN0N9VHK6UJ","A1SN7EOZUW5VP3","3KVQ0UJWPX71V463XQYDOZYIDLRW5D","","null","<img src=""img/land1.png"" style=""width:200px; border:14px solid green;"">","null","","","","","","",""
"","image-keyboard-response","16","57494","0.0-16.0","3D8YOU6S9F6M8OF6YBYJN0N9VHK6UJ","A1SN7EOZUW5VP3","3KVQ0UJWPX71V463XQYDOZYIDLRW5D","","928","img/land3.png","75","929","2","1","3","1,0.7,0.7,0.7,1,0.7,0.7,0.7,1","",""
"","html-keyboard-response","17","57805","0.0-17.0","3D8YOU6S9F6M8OF6YBYJN0N9VHK6UJ","A1SN7EOZUW5VP3","3KVQ0UJWPX71V463XQYDOZYIDLRW5D","","null","<img src=""img/land3.png"" style=""width:200px; border:14px solid green;"">","null","","","","","","",""
"","image-keyboard-response","18","58949","0.0-18.0","3D8YOU6S9F6M8OF6YBYJN0N9VHK6UJ","A1SN7EOZUW5VP3","3KVQ0UJWPX71V463XQYDOZYIDLRW5D","","1144","img/land2.png","76","1144","3","1","2","1,0.7,0.7,0.7,1,0.7,0.7,0.7,1","",""
"","html-keyboard-response","19","59254","0.0-19.0","3D8YOU6S9F6M8OF6YBYJN0N9VHK6UJ","A1SN7EOZUW5VP3","3KVQ0UJWPX71V463XQYDOZYIDLRW5D","","null","<img src=""img/land2.png"" style=""width:200px; border:14px solid green;"">","null","","","","","","",""
"","image-keyboard-response","20","59942","0.0-20.0","3D8YOU6S9F6M8OF6YBYJN0N9VHK6UJ","A1SN7EOZUW5VP3","3KVQ0UJWPX71V463XQYDOZYIDLRW5D","","684","img/land1.png","74","686","1","1","1","1,0.7,0.7,0.7,1,0.7,0.7,0.7,1","",""
"","html-keyboard-response","21","60244","0.0-21.0","3D8YOU6S9F6M8OF6YBYJN0N9VHK6UJ","A1SN7EOZUW5VP3","3KVQ0UJWPX71V463XQYDOZYIDLRW5D","","null","<img src=""img/land1.png"" style=""width:200px; border:14px solid green;"">","null","","","","","","",""
"","image-keyboard-response","22","60693","0.0-22.0","3D8YOU6S9F6M8OF6YBYJN0N9VHK6UJ","A1SN7EOZUW5VP3","3KVQ0UJWPX71V463XQYDOZYIDLRW5D","","446","img/land1.png","74","449","1","1","1","1,0.7,0.7,0.7,1,0.7,0.7,0.7,1","",""
"","html-keyboard-response","23","60999","0.0-23.0","3D8YOU6S9F6M8OF6YBYJN0N9VHK6UJ","A1SN7EOZUW5VP3","3KVQ0UJWPX71V463XQYDOZYIDLRW5D","","null","<img src=""img/land1.png"" style=""width:200px; border:14px solid green;"">","null","","","","","","",""
"","image-keyboard-response","24","61685","0.0-24.0","3D8YOU6S9F6M8OF6YBYJN0N9VHK6UJ","A1SN7EOZUW5VP3","3KVQ0UJWPX71V463XQYDOZYIDLRW5D","","684","img/land2.png","76","686","3","1","2","1,0.7,0.7,0.7,1,0.7,0.7,0.7,1","",""
"","html-keyboard-response","25","61988","0.0-25.0","3D8YOU6S9F6M8OF6YBYJN0N9VHK6UJ","A1SN7EOZUW5VP3","3KVQ0UJWPX71V463XQYDOZYIDLRW5D","","null","<img src=""img/land2.png"" style=""width:200px; border:14px solid green;"">","null","","","","","","",""
"","image-keyboard-response","26","62772","0.0-26.0","3D8YOU6S9F6M8OF6YBYJN0N9VHK6UJ","A1SN7EOZUW5VP3","3KVQ0UJWPX71V463XQYDOZYIDLRW5D","","783","img/land1.png","74","785","1","1","1","1,0.7,0.7,0.7,1,0.7,0.7,0.7,1","",""
"","html-keyboard-response","27","63078","0.0-27.0","3D8YOU6S9F6M8OF6YBYJN0N9VHK6UJ","A1SN7EOZUW5VP3","3KVQ0UJWPX71V463XQYDOZYIDLRW5D","","null","<img src=""img/land1.png"" style=""width:200px; border:14px solid green;"">","null","","","","","","",""
"","image-keyboard-response","28","63862","0.0-28.0","3D8YOU6S9F6M8OF6YBYJN0N9VHK6UJ","A1SN7EOZUW5VP3","3KVQ0UJWPX71V463XQYDOZYIDLRW5D","","781","img/land3.png","75","784","2","1","3","1,0.7,0.7,0.7,1,0.7,0.7,0.7,1","",""
"","html-keyboard-response","29","64168","0.0-29.0","3D8YOU6S9F6M8OF6YBYJN0N9VHK6UJ","A1SN7EOZUW5VP3","3KVQ0UJWPX71V463XQYDOZYIDLRW5D","","null","<img src=""img/land3.png"" style=""width:200px; border:14px solid green;"">","null","","","","","","",""
"","image-keyboard-response","30","64949","0.0-30.0","3D8YOU6S9F6M8OF6YBYJN0N9VHK6UJ","A1SN7EOZUW5VP3","3KVQ0UJWPX71V463XQYDOZYIDLRW5D","","778","img/land2.png","76","781","3","1","2","1,0.7,0.7,0.7,1,0.7,0.7,0.7,1","",""
"","html-keyboard-response","31","65258","0.0-31.0","3D8YOU6S9F6M8OF6YBYJN0N9VHK6UJ","A1SN7EOZUW5VP3","3KVQ0UJWPX71V463XQYDOZYIDLRW5D","","null","<img src=""img/land2.png"" style=""width:200px; border:14px solid green;"">","null","","","","","","",""
"","image-keyboard-response","32","65925","0.0-32.0","3D8YOU6S9F6M8OF6YBYJN0N9VHK6UJ","A1SN7EOZUW5VP3","3KVQ0UJWPX71V463XQYDOZYIDLRW5D","","664","img/land1.png","74","667","1","1","1","1,0.7,0.7,0.7,1,0.7,0.7,0.7,1","",""
"","html-keyboard-response","33","66228","0.0-33.0","3D8YOU6S9F6M8OF6YBYJN0N9VHK6UJ","A1SN7EOZUW5VP3","3KVQ0UJWPX71V463XQYDOZYIDLRW5D","","null","<img src=""img/land1.png"" style=""width:200px; border:14px solid green;"">","null","","","","","","",""
"","image-keyboard-response","34","67653","0.0-34.0","3D8YOU6S9F6M8OF6YBYJN0N9VHK6UJ","A1SN7EOZUW5VP3","3KVQ0UJWPX71V463XQYDOZYIDLRW5D","","1422","img/land2.png","76","1424","3","0","2","1,0.7,0.7,0.7,1,0.7,0.7,0.7,1","",""
"","html-keyboard-response","35","67958","0.0-35.0","3D8YOU6S9F6M8OF6YBYJN0N9VHK6UJ","A1SN7EOZUW5VP3","3KVQ0UJWPX71V463XQYDOZYIDLRW5D","","null","<img src=""img/land2.png"" style=""width:200px;border:14px solid red;"">","null","","","","","","",""
"","image-keyboard-response","36","68757","0.0-36.0","3D8YOU6S9F6M8OF6YBYJN0N9VHK6UJ","A1SN7EOZUW5VP3","3KVQ0UJWPX71V463XQYDOZYIDLRW5D","","797","img/land3.png","75","799","2","1","3","1,0.7,0.7,0.7,1,0.7,0.7,0.7,1","",""
"","html-keyboard-response","37","69068","0.0-37.0","3D8YOU6S9F6M8OF6YBYJN0N9VHK6UJ","A1SN7EOZUW5VP3","3KVQ0UJWPX71V463XQYDOZYIDLRW5D","","null","<img src=""img/land3.png"" style=""width:200px; border:14px solid green;"">","null","","","","","","",""
"","image-keyboard-response","38","69877","0.0-38.0","3D8YOU6S9F6M8OF6YBYJN0N9VHK6UJ","A1SN7EOZUW5VP3","3KVQ0UJWPX71V463XQYDOZYIDLRW5D","","807","img/land2.png","76","809","3","1","2","1,0.7,0.7,0.7,1,0.7,0.7,0.7,1","",""
"","html-keyboard-response","39","70189","0.0-39.0","3D8YOU6S9F6M8OF6YBYJN0N9VHK6UJ","A1SN7EOZUW5VP3","3KVQ0UJWPX71V463XQYDOZYIDLRW5D","","null","<img src=""img/land2.png"" style=""width:200px; border:14px solid green;"">","null","","","","","","",""
"","image-keyboard-response","40","70773","0.0-40.0","3D8YOU6S9F6M8OF6YBYJN0N9VHK6UJ","A1SN7EOZUW5VP3","3KVQ0UJWPX71V463XQYDOZYIDLRW5D","","583","img/land1.png","74","584","1","1","1","1,0.7,0.7,0.7,1,0.7,0.7,0.7,1","",""
"","html-keyboard-response","41","71079","0.0-41.0","3D8YOU6S9F6M8OF6YBYJN0N9VHK6UJ","A1SN7EOZUW5VP3","3KVQ0UJWPX71V463XQYDOZYIDLRW5D","","null","<img src=""img/land1.png"" style=""width:200px; border:14px solid green;"">","null","","","","","","",""
"","image-keyboard-response","42","71781","0.0-42.0","3D8YOU6S9F6M8OF6YBYJN0N9VHK6UJ","A1SN7EOZUW5VP3","3KVQ0UJWPX71V463XQYDOZYIDLRW5D","","701","img/land3.png","75","701","2","1","3","1,0.7,0.7,0.7,1,0.7,0.7,0.7,1","",""
"","html-keyboard-response","43","72089","0.0-43.0","3D8YOU6S9F6M8OF6YBYJN0N9VHK6UJ","A1SN7EOZUW5VP3","3KVQ0UJWPX71V463XQYDOZYIDLRW5D","","null","<img src=""img/land3.png"" style=""width:200px; border:14px solid green;"">","null","","","","","","",""
"","image-keyboard-response","44","72565","0.0-44.0","3D8YOU6S9F6M8OF6YBYJN0N9VHK6UJ","A1SN7EOZUW5VP3","3KVQ0UJWPX71V463XQYDOZYIDLRW5D","","474","img/land3.png","75","474","2","1","3","1,0.7,0.7,0.7,1,0.7,0.7,0.7,1","",""
"","html-keyboard-response","45","72869","0.0-45.0","3D8YOU6S9F6M8OF6YBYJN0N9VHK6UJ","A1SN7EOZUW5VP3","3KVQ0UJWPX71V463XQYDOZYIDLRW5D","","null","<img src=""img/land3.png"" style=""width:200px; border:14px solid green;"">","null","","","","","","",""
"","image-keyboard-response","46","73509","0.0-46.0","3D8YOU6S9F6M8OF6YBYJN0N9VHK6UJ","A1SN7EOZUW5VP3","3KVQ0UJWPX71V463XQYDOZYIDLRW5D","","639","img/land1.png","74","640","1","1","1","1,0.7,0.7,0.7,1,0.7,0.7,0.7,1","",""
"","html-keyboard-response","47","73819","0.0-47.0","3D8YOU6S9F6M8OF6YBYJN0N9VHK6UJ","A1SN7EOZUW5VP3","3KVQ0UJWPX71V463XQYDOZYIDLRW5D","","null","<img src=""img/land1.png"" style=""width:200px; border:14px solid green;"">","null","","","","","","",""
"","image-keyboard-response","48","74293","0.0-48.0","3D8YOU6S9F6M8OF6YBYJN0N9VHK6UJ","A1SN7EOZUW5VP3","3KVQ0UJWPX71V463XQYDOZYIDLRW5D","","473","img/land1.png","74","475","1","1","1","1,0.7,0.7,0.7,1,0.7,0.7,0.7,1","",""
"","html-keyboard-response","49","74599","0.0-49.0","3D8YOU6S9F6M8OF6YBYJN0N9VHK6UJ","A1SN7EOZUW5VP3","3KVQ0UJWPX71V463XQYDOZYIDLRW5D","","null","<img src=""img/land1.png"" style=""width:200px; border:14px solid green;"">","null","","","","","","",""
"","image-keyboard-response","50","75429","0.0-50.0","3D8YOU6S9F6M8OF6YBYJN0N9VHK6UJ","A1SN7EOZUW5VP3","3KVQ0UJWPX71V463XQYDOZYIDLRW5D","","828","img/land2.png","76","829","3","0","2","1,0.7,0.7,0.7,1,0.7,0.7,0.7,1","",""
"","html-keyboard-response","51","75739","0.0-51.0","3D8YOU6S9F6M8OF6YBYJN0N9VHK6UJ","A1SN7EOZUW5VP3","3KVQ0UJWPX71V463XQYDOZYIDLRW5D","","null","<img src=""img/land2.png"" style=""width:200px;border:14px solid red;"">","null","","","","","","",""
"","image-keyboard-response","52","76212","0.0-52.0","3D8YOU6S9F6M8OF6YBYJN0N9VHK6UJ","A1SN7EOZUW5VP3","3KVQ0UJWPX71V463XQYDOZYIDLRW5D","","472","img/land2.png","76","473","3","0","2","1,0.7,0.7,0.7,1,0.7,0.7,0.7,1","",""
"","html-keyboard-response","53","76519","0.0-53.0","3D8YOU6S9F6M8OF6YBYJN0N9VHK6UJ","A1SN7EOZUW5VP3","3KVQ0UJWPX71V463XQYDOZYIDLRW5D","","null","<img src=""img/land2.png"" style=""width:200px;border:14px solid red;"">","null","","","","","","",""
"","image-keyboard-response","54","77285","0.0-54.0","3D8YOU6S9F6M8OF6YBYJN0N9VHK6UJ","A1SN7EOZUW5VP3","3KVQ0UJWPX71V463XQYDOZYIDLRW5D","","765","img/land3.png","75","765","2","1","3","1,0.7,0.7,0.7,1,0.7,0.7,0.7,1","",""
"","html-keyboard-response","55","77589","0.0-55.0","3D8YOU6S9F6M8OF6YBYJN0N9VHK6UJ","A1SN7EOZUW5VP3","3KVQ0UJWPX71V463XQYDOZYIDLRW5D","","null","<img src=""img/land3.png"" style=""width:200px; border:14px solid green;"">","null","","","","","","",""
"","image-keyboard-response","56","78053","0.0-56.0","3D8YOU6S9F6M8OF6YBYJN0N9VHK6UJ","A1SN7EOZUW5VP3","3KVQ0UJWPX71V463XQYDOZYIDLRW5D","","463","img/land3.png","75","464","2","1","3","1,0.7,0.7,0.7,1,0.7,0.7,0.7,1","",""
"","html-keyboard-response","57","78359","0.0-57.0","3D8YOU6S9F6M8OF6YBYJN0N9VHK6UJ","A1SN7EOZUW5VP3","3KVQ0UJWPX71V463XQYDOZYIDLRW5D","","null","<img src=""img/land3.png"" style=""width:200px; border:14px solid green;"">","null","","","","","","",""
"","image-keyboard-response","58","78757","0.0-58.0","3D8YOU6S9F6M8OF6YBYJN0N9VHK6UJ","A1SN7EOZUW5VP3","3KVQ0UJWPX71V463XQYDOZYIDLRW5D","","396","img/land3.png","75","398","2","0","3","1,0.7,0.7,0.7,1,0.7,0.7,0.7,1","",""
"","html-keyboard-response","59","79059","0.0-59.0","3D8YOU6S9F6M8OF6YBYJN0N9VHK6UJ","A1SN7EOZUW5VP3","3KVQ0UJWPX71V463XQYDOZYIDLRW5D","","null","<img src=""img/land3.png"" style=""width:200px;border:14px solid red;"">","null","","","","","","",""
"","image-keyboard-response","60","79780","0.0-60.0","3D8YOU6S9F6M8OF6YBYJN0N9VHK6UJ","A1SN7EOZUW5VP3","3KVQ0UJWPX71V463XQYDOZYIDLRW5D","","720","img/land1.png","74","722","1","1","1","1,0.7,0.7,0.7,1,0.7,0.7,0.7,1","",""
"","html-keyboard-response","61","80088","0.0-61.0","3D8YOU6S9F6M8OF6YBYJN0N9VHK6UJ","A1SN7EOZUW5VP3","3KVQ0UJWPX71V463XQYDOZYIDLRW5D","","null","<img src=""img/land1.png"" style=""width:200px; border:14px solid green;"">","null","","","","","","",""
"","image-keyboard-response","62","80757","0.0-62.0","3D8YOU6S9F6M8OF6YBYJN0N9VHK6UJ","A1SN7EOZUW5VP3","3KVQ0UJWPX71V463XQYDOZYIDLRW5D","","666","img/land2.png","76","667","3","1","2","1,0.7,0.7,0.7,1,0.7,0.7,0.7,1","",""
"","html-keyboard-response","63","81059","0.0-63.0","3D8YOU6S9F6M8OF6YBYJN0N9VHK6UJ","A1SN7EOZUW5VP3","3KVQ0UJWPX71V463XQYDOZYIDLRW5D","","null","<img src=""img/land2.png"" style=""width:200px; border:14px solid green;"">","null","","","","","","",""
"","image-keyboard-response","64","81589","0.0-64.0","3D8YOU6S9F6M8OF6YBYJN0N9VHK6UJ","A1SN7EOZUW5VP3","3KVQ0UJWPX71V463XQYDOZYIDLRW5D","","528","img/land2.png","76","528","3","0","2","1,0.7,0.7,0.7,1,0.7,0.7,0.7,1","",""
"","html-keyboard-response","65","81894","0.0-65.0","3D8YOU6S9F6M8OF6YBYJN0N9VHK6UJ","A1SN7EOZUW5VP3","3KVQ0UJWPX71V463XQYDOZYIDLRW5D","","null","<img src=""img/land2.png"" style=""width:200px;border:14px solid red;"">","null","","","","","","",""
"","image-keyboard-response","66","82693","0.0-66.0","3D8YOU6S9F6M8OF6YBYJN0N9VHK6UJ","A1SN7EOZUW5VP3","3KVQ0UJWPX71V463XQYDOZYIDLRW5D","","798","img/land1.png","74","799","1","1","1","1,0.7,0.7,0.7,1,0.7,0.7,0.7,1","",""
"","html-keyboard-response","67","83001","0.0-67.0","3D8YOU6S9F6M8OF6YBYJN0N9VHK6UJ","A1SN7EOZUW5VP3","3KVQ0UJWPX71V463XQYDOZYIDLRW5D","","null","<img src=""img/land1.png"" style=""width:200px; border:14px solid green;"">","null","","","","","","",""
"","image-keyboard-response","68","83445","0.0-68.0","3D8YOU6S9F6M8OF6YBYJN0N9VHK6UJ","A1SN7EOZUW5VP3","3KVQ0UJWPX71V463XQYDOZYIDLRW5D","","442","img/land1.png","74","443","1","1","1","1,0.7,0.7,0.7,1,0.7,0.7,0.7,1","",""
"","html-keyboard-response","69","83751","0.0-69.0","3D8YOU6S9F6M8OF6YBYJN0N9VHK6UJ","A1SN7EOZUW5VP3","3KVQ0UJWPX71V463XQYDOZYIDLRW5D","","null","<img src=""img/land1.png"" style=""width:200px; border:14px solid green;"">","null","","","","","","",""
"","image-keyboard-response","70","84469","0.0-70.0","3D8YOU6S9F6M8OF6YBYJN0N9VHK6UJ","A1SN7EOZUW5VP3","3KVQ0UJWPX71V463XQYDOZYIDLRW5D","","716","img/land2.png","75","717","2","1","2","1,0.7,0.7,0.7,1,0.7,0.7,0.7,1","",""
"","html-keyboard-response","71","84773","0.0-71.0","3D8YOU6S9F6M8OF6YBYJN0N9VHK6UJ","A1SN7EOZUW5VP3","3KVQ0UJWPX71V463XQYDOZYIDLRW5D","","null","<img src=""img/land2.png"" style=""width:200px; border:14px solid green;"">","null","","","","","","",""
"","image-keyboard-response","72","85413","0.0-72.0","3D8YOU6S9F6M8OF6YBYJN0N9VHK6UJ","A1SN7EOZUW5VP3","3KVQ0UJWPX71V463XQYDOZYIDLRW5D","","638","img/land3.png","75","640","2","1","3","1,0.7,0.7,0.7,1,0.7,0.7,0.7,1","",""
"","html-keyboard-response","73","85723","0.0-73.0","3D8YOU6S9F6M8OF6YBYJN0N9VHK6UJ","A1SN7EOZUW5VP3","3KVQ0UJWPX71V463XQYDOZYIDLRW5D","","null","<img src=""img/land3.png"" style=""width:200px; border:14px solid green;"">","null","","","","","","",""
"","image-keyboard-response","74","86196","0.0-74.0","3D8YOU6S9F6M8OF6YBYJN0N9VHK6UJ","A1SN7EOZUW5VP3","3KVQ0UJWPX71V463XQYDOZYIDLRW5D","","473","img/land3.png","75","474","2","1","3","1,0.7,0.7,0.7,1,0.7,0.7,0.7,1","",""
"","html-keyboard-response","75","86504","0.0-75.0","3D8YOU6S9F6M8OF6YBYJN0N9VHK6UJ","A1SN7EOZUW5VP3","3KVQ0UJWPX71V463XQYDOZYIDLRW5D","","null","<img src=""img/land3.png"" style=""width:200px; border:14px solid green;"">","null","","","","","","",""
"","image-keyboard-response","76","87173","0.0-76.0","3D8YOU6S9F6M8OF6YBYJN0N9VHK6UJ","A1SN7EOZUW5VP3","3KVQ0UJWPX71V463XQYDOZYIDLRW5D","","668","img/land2.png","76","669","3","1","2","1,0.7,0.7,0.7,1,0.7,0.7,0.7,1","",""
"","html-keyboard-response","77","87476","0.0-77.0","3D8YOU6S9F6M8OF6YBYJN0N9VHK6UJ","A1SN7EOZUW5VP3","3KVQ0UJWPX71V463XQYDOZYIDLRW5D","","null","<img src=""img/land2.png"" style=""width:200px; border:14px solid green;"">","null","","","","","","",""
"","image-keyboard-response","78","87877","0.0-78.0","3D8YOU6S9F6M8OF6YBYJN0N9VHK6UJ","A1SN7EOZUW5VP3","3KVQ0UJWPX71V463XQYDOZYIDLRW5D","","399","img/land2.png","76","400","3","1","2","1,0.7,0.7,0.7,1,0.7,0.7,0.7,1","",""
"","html-keyboard-response","79","88183","0.0-79.0","3D8YOU6S9F6M8OF6YBYJN0N9VHK6UJ","A1SN7EOZUW5VP3","3KVQ0UJWPX71V463XQYDOZYIDLRW5D","","null","<img src=""img/land2.png"" style=""width:200px; border:14px solid green;"">","null","","","","","","",""
"","image-keyboard-response","80","88676","0.0-80.0","3D8YOU6S9F6M8OF6YBYJN0N9VHK6UJ","A1SN7EOZUW5VP3","3KVQ0UJWPX71V463XQYDOZYIDLRW5D","","492","img/land2.png","76","493","3","0","2","1,0.7,0.7,0.7,1,0.7,0.7,0.7,1","",""
"","html-keyboard-response","81","88983","0.0-81.0","3D8YOU6S9F6M8OF6YBYJN0N9VHK6UJ","A1SN7EOZUW5VP3","3KVQ0UJWPX71V463XQYDOZYIDLRW5D","","null","<img src=""img/land2.png"" style=""width:200px;border:14px solid red;"">","null","","","","","","",""
"","image-keyboard-response","82","89445","0.0-82.0","3D8YOU6S9F6M8OF6YBYJN0N9VHK6UJ","A1SN7EOZUW5VP3","3KVQ0UJWPX71V463XQYDOZYIDLRW5D","","459","img/land2.png","76","461","3","0","2","1,0.7,0.7,0.7,1,0.7,0.7,0.7,1","",""
"","html-keyboard-response","83","89753","0.0-83.0","3D8YOU6S9F6M8OF6YBYJN0N9VHK6UJ","A1SN7EOZUW5VP3","3KVQ0UJWPX71V463XQYDOZYIDLRW5D","","null","<img src=""img/land2.png"" style=""width:200px;border:14px solid red;"">","null","","","","","","",""
"","image-keyboard-response","84","90404","0.0-84.0","3D8YOU6S9F6M8OF6YBYJN0N9VHK6UJ","A1SN7EOZUW5VP3","3KVQ0UJWPX71V463XQYDOZYIDLRW5D","","650","img/land3.png","75","651","2","1","3","1,0.7,0.7,0.7,1,0.7,0.7,0.7,1","",""
"","html-keyboard-response","85","90714","0.0-85.0","3D8YOU6S9F6M8OF6YBYJN0N9VHK6UJ","A1SN7EOZUW5VP3","3KVQ0UJWPX71V463XQYDOZYIDLRW5D","","null","<img src=""img/land3.png"" style=""width:200px; border:14px solid green;"">","null","","","","","","",""
"","image-keyboard-response","86","91877","0.0-86.0","3D8YOU6S9F6M8OF6YBYJN0N9VHK6UJ","A1SN7EOZUW5VP3","3KVQ0UJWPX71V463XQYDOZYIDLRW5D","","1160","img/land2.png","75","1163","2","1","2","1,0.7,0.7,0.7,1,0.7,0.7,0.7,1","",""
"","html-keyboard-response","87","92183","0.0-87.0","3D8YOU6S9F6M8OF6YBYJN0N9VHK6UJ","A1SN7EOZUW5VP3","3KVQ0UJWPX71V463XQYDOZYIDLRW5D","","null","<img src=""img/land2.png"" style=""width:200px; border:14px solid green;"">","null","","","","","","",""
"","image-keyboard-response","88","92581","0.0-88.0","3D8YOU6S9F6M8OF6YBYJN0N9VHK6UJ","A1SN7EOZUW5VP3","3KVQ0UJWPX71V463XQYDOZYIDLRW5D","","396","img/land2.png","75","397","2","1","2","1,0.7,0.7,0.7,1,0.7,0.7,0.7,1","",""
"","html-keyboard-response","89","92884","0.0-89.0","3D8YOU6S9F6M8OF6YBYJN0N9VHK6UJ","A1SN7EOZUW5VP3","3KVQ0UJWPX71V463XQYDOZYIDLRW5D","","null","<img src=""img/land2.png"" style=""width:200px; border:14px solid green;"">","null","","","","","","",""
"","image-keyboard-response","90","93285","0.0-90.0","3D8YOU6S9F6M8OF6YBYJN0N9VHK6UJ","A1SN7EOZUW5VP3","3KVQ0UJWPX71V463XQYDOZYIDLRW5D","","398","img/land2.png","75","400","2","1","2","1,0.7,0.7,0.7,1,0.7,0.7,0.7,1","",""
"","html-keyboard-response","91","93594","0.0-91.0","3D8YOU6S9F6M8OF6YBYJN0N9VHK6UJ","A1SN7EOZUW5VP3","3KVQ0UJWPX71V463XQYDOZYIDLRW5D","","null","<img src=""img/land2.png"" style=""width:200px; border:14px solid green;"">","null","","","","","","",""
"","image-keyboard-response","92","94388","0.0-92.0","3D8YOU6S9F6M8OF6YBYJN0N9VHK6UJ","A1SN7EOZUW5VP3","3KVQ0UJWPX71V463XQYDOZYIDLRW5D","","793","img/land3.png","76","795","3","1","3","1,0.7,0.7,0.7,1,0.7,0.7,0.7,1","",""
"","html-keyboard-response","93","94694","0.0-93.0","3D8YOU6S9F6M8OF6YBYJN0N9VHK6UJ","A1SN7EOZUW5VP3","3KVQ0UJWPX71V463XQYDOZYIDLRW5D","","null","<img src=""img/land3.png"" style=""width:200px; border:14px solid green;"">","null","","","","","","",""
"","image-keyboard-response","94","95125","0.0-94.0","3D8YOU6S9F6M8OF6YBYJN0N9VHK6UJ","A1SN7EOZUW5VP3","3KVQ0UJWPX71V463XQYDOZYIDLRW5D","","429","img/land3.png","76","431","3","1","3","1,0.7,0.7,0.7,1,0.7,0.7,0.7,1","",""
"","html-keyboard-response","95","95435","0.0-95.0","3D8YOU6S9F6M8OF6YBYJN0N9VHK6UJ","A1SN7EOZUW5VP3","3KVQ0UJWPX71V463XQYDOZYIDLRW5D","","null","<img src=""img/land3.png"" style=""width:200px; border:14px solid green;"">","null","","","","","","",""
"","image-keyboard-response","96","96117","0.0-96.0","3D8YOU6S9F6M8OF6YBYJN0N9VHK6UJ","A1SN7EOZUW5VP3","3KVQ0UJWPX71V463XQYDOZYIDLRW5D","","679","img/land1.png","74","681","1","1","1","1,0.7,0.7,0.7,1,0.7,0.7,0.7,1","",""
"","html-keyboard-response","97","96424","0.0-97.0","3D8YOU6S9F6M8OF6YBYJN0N9VHK6UJ","A1SN7EOZUW5VP3","3KVQ0UJWPX71V463XQYDOZYIDLRW5D","","null","<img src=""img/land1.png"" style=""width:200px; border:14px solid green;"">","null","","","","","","",""
"","image-keyboard-response","98","97397","0.0-98.0","3D8YOU6S9F6M8OF6YBYJN0N9VHK6UJ","A1SN7EOZUW5VP3","3KVQ0UJWPX71V463XQYDOZYIDLRW5D","","972","img/land3.png","76","972","3","1","3","1,0.7,0.7,0.7,1,0.7,0.7,0.7,1","",""
"","html-keyboard-response","99","97704","0.0-99.0","3D8YOU6S9F6M8OF6YBYJN0N9VHK6UJ","A1SN7EOZUW5VP3","3KVQ0UJWPX71V463XQYDOZYIDLRW5D","","null","<img src=""img/land3.png"" style=""width:200px; border:14px solid green;"">","null","","","","","","",""
"","image-keyboard-response","100","98068","0.0-100.0","3D8YOU6S9F6M8OF6YBYJN0N9VHK6UJ","A1SN7EOZUW5VP3","3KVQ0UJWPX71V463XQYDOZYIDLRW5D","","364","img/land3.png","76","365","3","1","3","1,0.7,0.7,0.7,1,0.7,0.7,0.7,1","",""
"","html-keyboard-response","101","98374","0.0-101.0","3D8YOU6S9F6M8OF6YBYJN0N9VHK6UJ","A1SN7EOZUW5VP3","3KVQ0UJWPX71V463XQYDOZYIDLRW5D","","null","<img src=""img/land3.png"" style=""width:200px; border:14px solid green;"">","null","","","","","","",""
"","image-keyboard-response","102","98772","0.0-102.0","3D8YOU6S9F6M8OF6YBYJN0N9VHK6UJ","A1SN7EOZUW5VP3","3KVQ0UJWPX71V463XQYDOZYIDLRW5D","","397","img/land3.png","76","399","3","1","3","1,0.7,0.7,0.7,1,0.7,0.7,0.7,1","",""
"","html-keyboard-response","103","99084","0.0-103.0","3D8YOU6S9F6M8OF6YBYJN0N9VHK6UJ","A1SN7EOZUW5VP3","3KVQ0UJWPX71V463XQYDOZYIDLRW5D","","null","<img src=""img/land3.png"" style=""width:200px; border:14px solid green;"">","null","","","","","","",""
"","image-keyboard-response","104","99460","0.0-104.0","3D8YOU6S9F6M8OF6YBYJN0N9VHK6UJ","A1SN7EOZUW5VP3","3KVQ0UJWPX71V463XQYDOZYIDLRW5D","","375","img/land3.png","76","377","3","1","3","1,0.7,0.7,0.7,1,0.7,0.7,0.7,1","",""
"","html-keyboard-response","105","99764","0.0-105.0","3D8YOU6S9F6M8OF6YBYJN0N9VHK6UJ","A1SN7EOZUW5VP3","3KVQ0UJWPX71V463XQYDOZYIDLRW5D","","null","<img src=""img/land3.png"" style=""width:200px; border:14px solid green;"">","null","","","","","","",""
"","image-keyboard-response","106","100500","0.0-106.0","3D8YOU6S9F6M8OF6YBYJN0N9VHK6UJ","A1SN7EOZUW5VP3","3KVQ0UJWPX71V463XQYDOZYIDLRW5D","","735","img/land1.png","74","736","1","1","1","1,0.7,0.7,0.7,1,0.7,0.7,0.7,1","",""
"","html-keyboard-response","107","100803","0.0-107.0","3D8YOU6S9F6M8OF6YBYJN0N9VHK6UJ","A1SN7EOZUW5VP3","3KVQ0UJWPX71V463XQYDOZYIDLRW5D","","null","<img src=""img/land1.png"" style=""width:200px; border:14px solid green;"">","null","","","","","","",""
"","image-keyboard-response","108","101172","0.0-108.0","3D8YOU6S9F6M8OF6YBYJN0N9VHK6UJ","A1SN7EOZUW5VP3","3KVQ0UJWPX71V463XQYDOZYIDLRW5D","","368","img/land1.png","74","368","1","1","1","1,0.7,0.7,0.7,1,0.7,0.7,0.7,1","",""
"","html-keyboard-response","109","101484","0.0-109.0","3D8YOU6S9F6M8OF6YBYJN0N9VHK6UJ","A1SN7EOZUW5VP3","3KVQ0UJWPX71V463XQYDOZYIDLRW5D","","null","<img src=""img/land1.png"" style=""width:200px; border:14px solid green;"">","null","","","","","","",""
"","image-keyboard-response","110","102325","0.0-110.0","3D8YOU6S9F6M8OF6YBYJN0N9VHK6UJ","A1SN7EOZUW5VP3","3KVQ0UJWPX71V463XQYDOZYIDLRW5D","","840","img/land3.png","76","840","3","1","3","1,0.7,0.7,0.7,1,0.7,0.7,0.7,1","",""
"","html-keyboard-response","111","102633","0.0-111.0","3D8YOU6S9F6M8OF6YBYJN0N9VHK6UJ","A1SN7EOZUW5VP3","3KVQ0UJWPX71V463XQYDOZYIDLRW5D","","null","<img src=""img/land3.png"" style=""width:200px; border:14px solid green;"">","null","","","","","","",""
"","image-keyboard-response","112","102996","0.0-112.0","3D8YOU6S9F6M8OF6YBYJN0N9VHK6UJ","A1SN7EOZUW5VP3","3KVQ0UJWPX71V463XQYDOZYIDLRW5D","","362","img/land3.png","76","362","3","1","3","1,0.7,0.7,0.7,1,0.7,0.7,0.7,1","",""
"","html-keyboard-response","113","103303","0.0-113.0","3D8YOU6S9F6M8OF6YBYJN0N9VHK6UJ","A1SN7EOZUW5VP3","3KVQ0UJWPX71V463XQYDOZYIDLRW5D","","null","<img src=""img/land3.png"" style=""width:200px; border:14px solid green;"">","null","","","","","","",""
"","image-keyboard-response","114","103732","0.0-114.0","3D8YOU6S9F6M8OF6YBYJN0N9VHK6UJ","A1SN7EOZUW5VP3","3KVQ0UJWPX71V463XQYDOZYIDLRW5D","","427","img/land3.png","76","428","3","1","3","1,0.7,0.7,0.7,1,0.7,0.7,0.7,1","",""
"","html-keyboard-response","115","104036","0.0-115.0","3D8YOU6S9F6M8OF6YBYJN0N9VHK6UJ","A1SN7EOZUW5VP3","3KVQ0UJWPX71V463XQYDOZYIDLRW5D","","null","<img src=""img/land3.png"" style=""width:200px; border:14px solid green;"">","null","","","","","","",""
"","image-keyboard-response","116","104917","0.0-116.0","3D8YOU6S9F6M8OF6YBYJN0N9VHK6UJ","A1SN7EOZUW5VP3","3KVQ0UJWPX71V463XQYDOZYIDLRW5D","","880","img/land2.png","75","881","2","1","2","1,0.7,0.7,0.7,1,0.7,0.7,0.7,1","",""
"","html-keyboard-response","117","105226","0.0-117.0","3D8YOU6S9F6M8OF6YBYJN0N9VHK6UJ","A1SN7EOZUW5VP3","3KVQ0UJWPX71V463XQYDOZYIDLRW5D","","null","<img src=""img/land2.png"" style=""width:200px; border:14px solid green;"">","null","","","","","","",""
"","image-keyboard-response","118","105412","0.0-118.0","3D8YOU6S9F6M8OF6YBYJN0N9VHK6UJ","A1SN7EOZUW5VP3","3KVQ0UJWPX71V463XQYDOZYIDLRW5D","","185","img/land1.png","75","187","2","0","1","1,0.7,0.7,0.7,1,0.7,0.7,0.7,1","",""
"","html-keyboard-response","119","105716","0.0-119.0","3D8YOU6S9F6M8OF6YBYJN0N9VHK6UJ","A1SN7EOZUW5VP3","3KVQ0UJWPX71V463XQYDOZYIDLRW5D","","null","<img src=""img/land1.png"" style=""width:200px;border:14px solid red;"">","null","","","","","","",""
"","image-keyboard-response","120","106421","0.0-120.0","3D8YOU6S9F6M8OF6YBYJN0N9VHK6UJ","A1SN7EOZUW5VP3","3KVQ0UJWPX71V463XQYDOZYIDLRW5D","","703","img/land1.png","74","704","1","1","1","1,0.7,0.7,0.7,1,0.7,0.7,0.7,1","",""
"","html-keyboard-response","121","106726","0.0-121.0","3D8YOU6S9F6M8OF6YBYJN0N9VHK6UJ","A1SN7EOZUW5VP3","3KVQ0UJWPX71V463XQYDOZYIDLRW5D","","null","<img src=""img/land1.png"" style=""width:200px; border:14px solid green;"">","null","","","","","","",""
"","image-keyboard-response","122","107997","0.0-122.0","3D8YOU6S9F6M8OF6YBYJN0N9VHK6UJ","A1SN7EOZUW5VP3","3KVQ0UJWPX71V463XQYDOZYIDLRW5D","","1270","img/land2.png","75","1271","2","1","2","1,0.7,0.7,0.7,1,0.7,0.7,0.7,1","",""
"","html-keyboard-response","123","108305","0.0-123.0","3D8YOU6S9F6M8OF6YBYJN0N9VHK6UJ","A1SN7EOZUW5VP3","3KVQ0UJWPX71V463XQYDOZYIDLRW5D","","null","<img src=""img/land2.png"" style=""width:200px; border:14px solid green;"">","null","","","","","","",""
"","image-keyboard-response","124","109012","0.0-124.0","3D8YOU6S9F6M8OF6YBYJN0N9VHK6UJ","A1SN7EOZUW5VP3","3KVQ0UJWPX71V463XQYDOZYIDLRW5D","","706","img/land3.png","76","707","3","1","3","1,0.7,0.7,0.7,1,0.7,0.7,0.7,1","",""
"","html-keyboard-response","125","109315","0.0-125.0","3D8YOU6S9F6M8OF6YBYJN0N9VHK6UJ","A1SN7EOZUW5VP3","3KVQ0UJWPX71V463XQYDOZYIDLRW5D","","null","<img src=""img/land3.png"" style=""width:200px; border:14px solid green;"">","null","","","","","","",""
"","image-keyboard-response","126","109716","0.0-126.0","3D8YOU6S9F6M8OF6YBYJN0N9VHK6UJ","A1SN7EOZUW5VP3","3KVQ0UJWPX71V463XQYDOZYIDLRW5D","","398","img/land3.png","76","400","3","1","3","1,0.7,0.7,0.7,1,0.7,0.7,0.7,1","",""
"","html-keyboard-response","127","110026","0.0-127.0","3D8YOU6S9F6M8OF6YBYJN0N9VHK6UJ","A1SN7EOZUW5VP3","3KVQ0UJWPX71V463XQYDOZYIDLRW5D","","null","<img src=""img/land3.png"" style=""width:200px; border:14px solid green;"">","null","","","","","","",""
"","image-keyboard-response","128","110773","0.0-128.0","3D8YOU6S9F6M8OF6YBYJN0N9VHK6UJ","A1SN7EOZUW5VP3","3KVQ0UJWPX71V463XQYDOZYIDLRW5D","","745","img/land1.png","74","747","1","1","1","1,0.7,0.7,0.7,1,0.7,0.7,0.7,1","",""
"","html-keyboard-response","129","111075","0.0-129.0","3D8YOU6S9F6M8OF6YBYJN0N9VHK6UJ","A1SN7EOZUW5VP3","3KVQ0UJWPX71V463XQYDOZYIDLRW5D","","null","<img src=""img/land1.png"" style=""width:200px; border:14px solid green;"">","null","","","","","","",""
"","image-keyboard-response","130","112053","0.0-130.0","3D8YOU6S9F6M8OF6YBYJN0N9VHK6UJ","A1SN7EOZUW5VP3","3KVQ0UJWPX71V463XQYDOZYIDLRW5D","","976","img/land2.png","75","976","2","1","2","1,0.7,0.7,0.7,1,0.7,0.7,0.7,1","",""
"","html-keyboard-response","131","112355","0.0-131.0","3D8YOU6S9F6M8OF6YBYJN0N9VHK6UJ","A1SN7EOZUW5VP3","3KVQ0UJWPX71V463XQYDOZYIDLRW5D","","null","<img src=""img/land2.png"" style=""width:200px; border:14px solid green;"">","null","","","","","","",""
"","image-keyboard-response","132","113205","0.0-132.0","3D8YOU6S9F6M8OF6YBYJN0N9VHK6UJ","A1SN7EOZUW5VP3","3KVQ0UJWPX71V463XQYDOZYIDLRW5D","","847","img/land1.png","74","849","1","1","1","1,0.7,0.7,0.7,1,0.7,0.7,0.7,1","",""
"","html-keyboard-response","133","113515","0.0-133.0","3D8YOU6S9F6M8OF6YBYJN0N9VHK6UJ","A1SN7EOZUW5VP3","3KVQ0UJWPX71V463XQYDOZYIDLRW5D","","null","<img src=""img/land1.png"" style=""width:200px; border:14px solid green;"">","null","","","","","","",""
"","image-keyboard-response","134","114053","0.0-134.0","3D8YOU6S9F6M8OF6YBYJN0N9VHK6UJ","A1SN7EOZUW5VP3","3KVQ0UJWPX71V463XQYDOZYIDLRW5D","","536","img/land1.png","74","538","1","1","1","1,0.7,0.7,0.7,1,0.7,0.7,0.7,1","",""
"","html-keyboard-response","135","114355","0.0-135.0","3D8YOU6S9F6M8OF6YBYJN0N9VHK6UJ","A1SN7EOZUW5VP3","3KVQ0UJWPX71V463XQYDOZYIDLRW5D","","null","<img src=""img/land1.png"" style=""width:200px; border:14px solid green;"">","null","","","","","","",""
"","image-keyboard-response","136","115029","0.0-136.0","3D8YOU6S9F6M8OF6YBYJN0N9VHK6UJ","A1SN7EOZUW5VP3","3KVQ0UJWPX71V463XQYDOZYIDLRW5D","","672","img/land2.png","75","674","2","1","2","1,0.7,0.7,0.7,1,0.7,0.7,0.7,1","",""
"","html-keyboard-response","137","115336","0.0-137.0","3D8YOU6S9F6M8OF6YBYJN0N9VHK6UJ","A1SN7EOZUW5VP3","3KVQ0UJWPX71V463XQYDOZYIDLRW5D","","null","<img src=""img/land2.png"" style=""width:200px; border:14px solid green;"">","null","","","","","","",""
"","image-keyboard-response","138","116181","0.0-138.0","3D8YOU6S9F6M8OF6YBYJN0N9VHK6UJ","A1SN7EOZUW5VP3","3KVQ0UJWPX71V463XQYDOZYIDLRW5D","","844","img/land1.png","74","844","1","1","1","1,0.7,0.7,0.7,1,0.7,0.7,0.7,1","",""
"","html-keyboard-response","139","116485","0.0-139.0","3D8YOU6S9F6M8OF6YBYJN0N9VHK6UJ","A1SN7EOZUW5VP3","3KVQ0UJWPX71V463XQYDOZYIDLRW5D","","null","<img src=""img/land1.png"" style=""width:200px; border:14px solid green;"">","null","","","","","","",""
"","image-keyboard-response","140","117078","0.0-140.0","3D8YOU6S9F6M8OF6YBYJN0N9VHK6UJ","A1SN7EOZUW5VP3","3KVQ0UJWPX71V463XQYDOZYIDLRW5D","","590","img/land1.png","74","592","1","1","1","1,0.7,0.7,0.7,1,0.7,0.7,0.7,1","",""
"","html-keyboard-response","141","117385","0.0-141.0","3D8YOU6S9F6M8OF6YBYJN0N9VHK6UJ","A1SN7EOZUW5VP3","3KVQ0UJWPX71V463XQYDOZYIDLRW5D","","null","<img src=""img/land1.png"" style=""width:200px; border:14px solid green;"">","null","","","","","","",""
"","image-keyboard-response","142","117924","0.0-142.0","3D8YOU6S9F6M8OF6YBYJN0N9VHK6UJ","A1SN7EOZUW5VP3","3KVQ0UJWPX71V463XQYDOZYIDLRW5D","","538","img/land2.png","75","539","2","1","2","1,0.7,0.7,0.7,1,0.7,0.7,0.7,1","",""
"","html-keyboard-response","143","118235","0.0-143.0","3D8YOU6S9F6M8OF6YBYJN0N9VHK6UJ","A1SN7EOZUW5VP3","3KVQ0UJWPX71V463XQYDOZYIDLRW5D","","null","<img src=""img/land2.png"" style=""width:200px; border:14px solid green;"">","null","","","","","","",""
"","image-keyboard-response","144","118788","0.0-144.0","3D8YOU6S9F6M8OF6YBYJN0N9VHK6UJ","A1SN7EOZUW5VP3","3KVQ0UJWPX71V463XQYDOZYIDLRW5D","","552","img/land2.png","75","553","2","1","2","1,0.7,0.7,0.7,1,0.7,0.7,0.7,1","",""
"","html-keyboard-response","145","119104","0.0-145.0","3D8YOU6S9F6M8OF6YBYJN0N9VHK6UJ","A1SN7EOZUW5VP3","3KVQ0UJWPX71V463XQYDOZYIDLRW5D","","null","<img src=""img/land2.png"" style=""width:200px; border:14px solid green;"">","null","","","","","","",""
"","image-keyboard-response","146","119780","0.0-146.0","3D8YOU6S9F6M8OF6YBYJN0N9VHK6UJ","A1SN7EOZUW5VP3","3KVQ0UJWPX71V463XQYDOZYIDLRW5D","","675","img/land1.png","74","677","1","1","1","1,0.7,0.7,0.7,1,0.7,0.7,0.7,1","",""
"","html-keyboard-response","147","120085","0.0-147.0","3D8YOU6S9F6M8OF6YBYJN0N9VHK6UJ","A1SN7EOZUW5VP3","3KVQ0UJWPX71V463XQYDOZYIDLRW5D","","null","<img src=""img/land1.png"" style=""width:200px; border:14px solid green;"">","null","","","","","","",""
"","image-keyboard-response","148","120612","0.0-148.0","3D8YOU6S9F6M8OF6YBYJN0N9VHK6UJ","A1SN7EOZUW5VP3","3KVQ0UJWPX71V463XQYDOZYIDLRW5D","","526","img/land1.png","74","528","1","1","1","1,0.7,0.7,0.7,1,0.7,0.7,0.7,1","",""
"","html-keyboard-response","149","120916","0.0-149.0","3D8YOU6S9F6M8OF6YBYJN0N9VHK6UJ","A1SN7EOZUW5VP3","3KVQ0UJWPX71V463XQYDOZYIDLRW5D","","null","<img src=""img/land1.png"" style=""width:200px; border:14px solid green;"">","null","","","","","","",""
"","image-keyboard-response","150","121492","0.0-150.0","3D8YOU6S9F6M8OF6YBYJN0N9VHK6UJ","A1SN7EOZUW5VP3","3KVQ0UJWPX71V463XQYDOZYIDLRW5D","","575","img/land3.png","75","576","2","1","3","1,0.7,0.7,0.7,1,0.7,0.7,0.7,1","",""
"","html-keyboard-response","151","121795","0.0-151.0","3D8YOU6S9F6M8OF6YBYJN0N9VHK6UJ","A1SN7EOZUW5VP3","3KVQ0UJWPX71V463XQYDOZYIDLRW5D","","null","<img src=""img/land3.png"" style=""width:200px; border:14px solid green;"">","null","","","","","","",""
"","image-keyboard-response","152","122212","0.0-152.0","3D8YOU6S9F6M8OF6YBYJN0N9VHK6UJ","A1SN7EOZUW5VP3","3KVQ0UJWPX71V463XQYDOZYIDLRW5D","","416","img/land3.png","76","418","3","1","3","1,0.7,0.7,0.7,1,0.7,0.7,0.7,1","",""
"","html-keyboard-response","153","122515","0.0-153.0","3D8YOU6S9F6M8OF6YBYJN0N9VHK6UJ","A1SN7EOZUW5VP3","3KVQ0UJWPX71V463XQYDOZYIDLRW5D","","null","<img src=""img/land3.png"" style=""width:200px; border:14px solid green;"">","null","","","","","","",""
"","image-keyboard-response","154","123220","0.0-154.0","3D8YOU6S9F6M8OF6YBYJN0N9VHK6UJ","A1SN7EOZUW5VP3","3KVQ0UJWPX71V463XQYDOZYIDLRW5D","","703","img/land2.png","75","704","2","1","2","1,0.7,0.7,0.7,1,0.7,0.7,0.7,1","",""
"","html-keyboard-response","155","123526","0.0-155.0","3D8YOU6S9F6M8OF6YBYJN0N9VHK6UJ","A1SN7EOZUW5VP3","3KVQ0UJWPX71V463XQYDOZYIDLRW5D","","null","<img src=""img/land2.png"" style=""width:200px; border:14px solid green;"">","null","","","","","","",""
"","image-keyboard-response","156","124229","0.0-156.0","3D8YOU6S9F6M8OF6YBYJN0N9VHK6UJ","A1SN7EOZUW5VP3","3KVQ0UJWPX71V463XQYDOZYIDLRW5D","","702","img/land1.png","74","703","1","1","1","1,0.7,0.7,0.7,1,0.7,0.7,0.7,1","",""
"","html-keyboard-response","157","124535","0.0-157.0","3D8YOU6S9F6M8OF6YBYJN0N9VHK6UJ","A1SN7EOZUW5VP3","3KVQ0UJWPX71V463XQYDOZYIDLRW5D","","null","<img src=""img/land1.png"" style=""width:200px; border:14px solid green;"">","null","","","","","","",""
"","image-keyboard-response","158","124980","0.0-158.0","3D8YOU6S9F6M8OF6YBYJN0N9VHK6UJ","A1SN7EOZUW5VP3","3KVQ0UJWPX71V463XQYDOZYIDLRW5D","","442","img/land1.png","74","445","1","1","1","1,0.7,0.7,0.7,1,0.7,0.7,0.7,1","",""
"","html-keyboard-response","159","125285","0.0-159.0","3D8YOU6S9F6M8OF6YBYJN0N9VHK6UJ","A1SN7EOZUW5VP3","3KVQ0UJWPX71V463XQYDOZYIDLRW5D","","null","<img src=""img/land1.png"" style=""width:200px; border:14px solid green;"">","null","","","","","","",""
"","image-keyboard-response","160","125972","0.0-160.0","3D8YOU6S9F6M8OF6YBYJN0N9VHK6UJ","A1SN7EOZUW5VP3","3KVQ0UJWPX71V463XQYDOZYIDLRW5D","","685","img/land3.png","76","686","3","1","3","1,0.7,0.7,0.7,1,0.7,0.7,0.7,1","",""
"","html-keyboard-response","161","126275","0.0-161.0","3D8YOU6S9F6M8OF6YBYJN0N9VHK6UJ","A1SN7EOZUW5VP3","3KVQ0UJWPX71V463XQYDOZYIDLRW5D","","null","<img src=""img/land3.png"" style=""width:200px; border:14px solid green;"">","null","","","","","","",""
"","image-keyboard-response","162","126916","0.0-162.0","3D8YOU6S9F6M8OF6YBYJN0N9VHK6UJ","A1SN7EOZUW5VP3","3KVQ0UJWPX71V463XQYDOZYIDLRW5D","","639","img/land2.png","75","641","2","1","2","1,0.7,0.7,0.7,1,0.7,0.7,0.7,1","",""
"","html-keyboard-response","163","127225","0.0-163.0","3D8YOU6S9F6M8OF6YBYJN0N9VHK6UJ","A1SN7EOZUW5VP3","3KVQ0UJWPX71V463XQYDOZYIDLRW5D","","null","<img src=""img/land2.png"" style=""width:200px; border:14px solid green;"">","null","","","","","","",""
"","image-keyboard-response","164","127748","0.0-164.0","3D8YOU6S9F6M8OF6YBYJN0N9VHK6UJ","A1SN7EOZUW5VP3","3KVQ0UJWPX71V463XQYDOZYIDLRW5D","","520","img/land2.png","75","522","2","1","2","1,0.7,0.7,0.7,1,0.7,0.7,0.7,1","",""
"","html-keyboard-response","165","128056","0.0-165.0","3D8YOU6S9F6M8OF6YBYJN0N9VHK6UJ","A1SN7EOZUW5VP3","3KVQ0UJWPX71V463XQYDOZYIDLRW5D","","null","<img src=""img/land2.png"" style=""width:200px; border:14px solid green;"">","null","","","","","","",""
"","image-keyboard-response","166","128709","0.0-166.0","3D8YOU6S9F6M8OF6YBYJN0N9VHK6UJ","A1SN7EOZUW5VP3","3KVQ0UJWPX71V463XQYDOZYIDLRW5D","","650","img/land1.png","74","653","1","1","1","1,0.7,0.7,0.7,1,0.7,0.7,0.7,1","",""
"","html-keyboard-response","167","129015","0.0-167.0","3D8YOU6S9F6M8OF6YBYJN0N9VHK6UJ","A1SN7EOZUW5VP3","3KVQ0UJWPX71V463XQYDOZYIDLRW5D","","null","<img src=""img/land1.png"" style=""width:200px; border:14px solid green;"">","null","","","","","","",""
"","image-keyboard-response","168","129445","0.0-168.0","3D8YOU6S9F6M8OF6YBYJN0N9VHK6UJ","A1SN7EOZUW5VP3","3KVQ0UJWPX71V463XQYDOZYIDLRW5D","","428","img/land1.png","74","428","1","1","1","1,0.7,0.7,0.7,1,0.7,0.7,0.7,1","",""
"","html-keyboard-response","169","129755","0.0-169.0","3D8YOU6S9F6M8OF6YBYJN0N9VHK6UJ","A1SN7EOZUW5VP3","3KVQ0UJWPX71V463XQYDOZYIDLRW5D","","null","<img src=""img/land1.png"" style=""width:200px; border:14px solid green;"">","null","","","","","","",""
"","html-keyboard-response","170","134185","0.0-170.0","3D8YOU6S9F6M8OF6YBYJN0N9VHK6UJ","A1SN7EOZUW5VP3","3KVQ0UJWPX71V463XQYDOZYIDLRW5D","","","","","","","","","","",""
"","image-keyboard-response","171","135908","0.0-171.0","3D8YOU6S9F6M8OF6YBYJN0N9VHK6UJ","A1SN7EOZUW5VP3","3KVQ0UJWPX71V463XQYDOZYIDLRW5D","","1719","img/land5.png","75","1723","2","1","2","1,0.7,0.7,0.7,1,0.7,0.7,0.7,1","",""
"","html-keyboard-response","172","136214","0.0-172.0","3D8YOU6S9F6M8OF6YBYJN0N9VHK6UJ","A1SN7EOZUW5VP3","3KVQ0UJWPX71V463XQYDOZYIDLRW5D","","null","<img src=""img/land5.png"" style=""width:200px; border:14px solid green;"">","null","","","","","","",""
"","image-keyboard-response","173","137652","0.0-173.0","3D8YOU6S9F6M8OF6YBYJN0N9VHK6UJ","A1SN7EOZUW5VP3","3KVQ0UJWPX71V463XQYDOZYIDLRW5D","","1437","img/land6.png","74","1437","1","1","3","1,0.7,0.7,0.7,1,0.7,0.7,0.7,1","",""
"","html-keyboard-response","174","137963","0.0-174.0","3D8YOU6S9F6M8OF6YBYJN0N9VHK6UJ","A1SN7EOZUW5VP3","3KVQ0UJWPX71V463XQYDOZYIDLRW5D","","null","<img src=""img/land6.png"" style=""width:200px; border:14px solid green;"">","null","","","","","","",""
"","image-keyboard-response","175","138884","0.0-175.0","3D8YOU6S9F6M8OF6YBYJN0N9VHK6UJ","A1SN7EOZUW5VP3","3KVQ0UJWPX71V463XQYDOZYIDLRW5D","","919","img/land4.png","76","921","3","1","1","1,0.7,0.7,0.7,1,0.7,0.7,0.7,1","",""
"","html-keyboard-response","176","139195","0.0-176.0","3D8YOU6S9F6M8OF6YBYJN0N9VHK6UJ","A1SN7EOZUW5VP3","3KVQ0UJWPX71V463XQYDOZYIDLRW5D","","null","<img src=""img/land4.png"" style=""width:200px; border:14px solid green;"">","null","","","","","","",""
"","image-keyboard-response","177","139700","0.0-177.0","3D8YOU6S9F6M8OF6YBYJN0N9VHK6UJ","A1SN7EOZUW5VP3","3KVQ0UJWPX71V463XQYDOZYIDLRW5D","","504","img/land4.png","76","504","3","0","1","1,0.7,0.7,0.7,1,0.7,0.7,0.7,1","",""
"","html-keyboard-response","178","140003","0.0-178.0","3D8YOU6S9F6M8OF6YBYJN0N9VHK6UJ","A1SN7EOZUW5VP3","3KVQ0UJWPX71V463XQYDOZYIDLRW5D","","null","<img src=""img/land4.png"" style=""width:200px;border:14px solid red;"">","null","","","","","","",""
"","image-keyboard-response","179","140548","0.0-179.0","3D8YOU6S9F6M8OF6YBYJN0N9VHK6UJ","A1SN7EOZUW5VP3","3KVQ0UJWPX71V463XQYDOZYIDLRW5D","","543","img/land4.png","76","544","3","0","1","1,0.7,0.7,0.7,1,0.7,0.7,0.7,1","",""
"","html-keyboard-response","180","140853","0.0-180.0","3D8YOU6S9F6M8OF6YBYJN0N9VHK6UJ","A1SN7EOZUW5VP3","3KVQ0UJWPX71V463XQYDOZYIDLRW5D","","null","<img src=""img/land4.png"" style=""width:200px;border:14px solid red;"">","null","","","","","","",""
"","image-keyboard-response","181","141284","0.0-181.0","3D8YOU6S9F6M8OF6YBYJN0N9VHK6UJ","A1SN7EOZUW5VP3","3KVQ0UJWPX71V463XQYDOZYIDLRW5D","","428","img/land4.png","76","430","3","1","1","1,0.7,0.7,0.7,1,0.7,0.7,0.7,1","",""
"","html-keyboard-response","182","141593","0.0-182.0","3D8YOU6S9F6M8OF6YBYJN0N9VHK6UJ","A1SN7EOZUW5VP3","3KVQ0UJWPX71V463XQYDOZYIDLRW5D","","null","<img src=""img/land4.png"" style=""width:200px; border:14px solid green;"">","null","","","","","","",""
"","image-keyboard-response","183","142116","0.0-183.0","3D8YOU6S9F6M8OF6YBYJN0N9VHK6UJ","A1SN7EOZUW5VP3","3KVQ0UJWPX71V463XQYDOZYIDLRW5D","","521","img/land4.png","76","522","3","1","1","1,0.7,0.7,0.7,1,0.7,0.7,0.7,1","",""
"","html-keyboard-response","184","142424","0.0-184.0","3D8YOU6S9F6M8OF6YBYJN0N9VHK6UJ","A1SN7EOZUW5VP3","3KVQ0UJWPX71V463XQYDOZYIDLRW5D","","null","<img src=""img/land4.png"" style=""width:200px; border:14px solid green;"">","null","","","","","","",""
"","image-keyboard-response","185","143332","0.0-185.0","3D8YOU6S9F6M8OF6YBYJN0N9VHK6UJ","A1SN7EOZUW5VP3","3KVQ0UJWPX71V463XQYDOZYIDLRW5D","","908","img/land6.png","75","908","2","1","3","1,0.7,0.7,0.7,1,0.7,0.7,0.7,1","",""
"","html-keyboard-response","186","143643","0.0-186.0","3D8YOU6S9F6M8OF6YBYJN0N9VHK6UJ","A1SN7EOZUW5VP3","3KVQ0UJWPX71V463XQYDOZYIDLRW5D","","null","<img src=""img/land6.png"" style=""width:200px; border:14px solid green;"">","null","","","","","","",""
"","image-keyboard-response","187","144500","0.0-187.0","3D8YOU6S9F6M8OF6YBYJN0N9VHK6UJ","A1SN7EOZUW5VP3","3KVQ0UJWPX71V463XQYDOZYIDLRW5D","","856","img/land4.png","76","857","3","1","1","1,0.7,0.7,0.7,1,0.7,0.7,0.7,1","",""
"","html-keyboard-response","188","144803","0.0-188.0","3D8YOU6S9F6M8OF6YBYJN0N9VHK6UJ","A1SN7EOZUW5VP3","3KVQ0UJWPX71V463XQYDOZYIDLRW5D","","null","<img src=""img/land4.png"" style=""width:200px; border:14px solid green;"">","null","","","","","","",""
"","image-keyboard-response","189","145637","0.0-189.0","3D8YOU6S9F6M8OF6YBYJN0N9VHK6UJ","A1SN7EOZUW5VP3","3KVQ0UJWPX71V463XQYDOZYIDLRW5D","","831","img/land5.png","74","834","1","1","2","1,0.7,0.7,0.7,1,0.7,0.7,0.7,1","",""
"","html-keyboard-response","190","145943","0.0-190.0","3D8YOU6S9F6M8OF6YBYJN0N9VHK6UJ","A1SN7EOZUW5VP3","3KVQ0UJWPX71V463XQYDOZYIDLRW5D","","null","<img src=""img/land5.png"" style=""width:200px; border:14px solid green;"">","null","","","","","","",""
"","image-keyboard-response","191","146324","0.0-191.0","3D8YOU6S9F6M8OF6YBYJN0N9VHK6UJ","A1SN7EOZUW5VP3","3KVQ0UJWPX71V463XQYDOZYIDLRW5D","","379","img/land5.png","74","381","1","0","2","1,0.7,0.7,0.7,1,0.7,0.7,0.7,1","",""
"","html-keyboard-response","192","146633","0.0-192.0","3D8YOU6S9F6M8OF6YBYJN0N9VHK6UJ","A1SN7EOZUW5VP3","3KVQ0UJWPX71V463XQYDOZYIDLRW5D","","null","<img src=""img/land5.png"" style=""width:200px;border:14px solid red;"">","null","","","","","","",""
"","image-keyboard-response","193","147300","0.0-193.0","3D8YOU6S9F6M8OF6YBYJN0N9VHK6UJ","A1SN7EOZUW5VP3","3KVQ0UJWPX71V463XQYDOZYIDLRW5D","","665","img/land5.png","74","667","1","0","2","1,0.7,0.7,0.7,1,0.7,0.7,0.7,1","",""
"","html-keyboard-response","194","147603","0.0-194.0","3D8YOU6S9F6M8OF6YBYJN0N9VHK6UJ","A1SN7EOZUW5VP3","3KVQ0UJWPX71V463XQYDOZYIDLRW5D","","null","<img src=""img/land5.png"" style=""width:200px;border:14px solid red;"">","null","","","","","","",""
"","image-keyboard-response","195","148788","0.0-195.0","3D8YOU6S9F6M8OF6YBYJN0N9VHK6UJ","A1SN7EOZUW5VP3","3KVQ0UJWPX71V463XQYDOZYIDLRW5D","","1184","img/land6.png","74","1185","1","1","3","1,0.7,0.7,0.7,1,0.7,0.7,0.7,1","",""
"","html-keyboard-response","196","149093","0.0-196.0","3D8YOU6S9F6M8OF6YBYJN0N9VHK6UJ","A1SN7EOZUW5VP3","3KVQ0UJWPX71V463XQYDOZYIDLRW5D","","null","<img src=""img/land6.png"" style=""width:200px; border:14px solid green;"">","null","","","","","","",""
"","image-keyboard-response","197","149476","0.0-197.0","3D8YOU6S9F6M8OF6YBYJN0N9VHK6UJ","A1SN7EOZUW5VP3","3KVQ0UJWPX71V463XQYDOZYIDLRW5D","","382","img/land6.png","74","383","1","1","3","1,0.7,0.7,0.7,1,0.7,0.7,0.7,1","",""
"","html-keyboard-response","198","149784","0.0-198.0","3D8YOU6S9F6M8OF6YBYJN0N9VHK6UJ","A1SN7EOZUW5VP3","3KVQ0UJWPX71V463XQYDOZYIDLRW5D","","null","<img src=""img/land6.png"" style=""width:200px; border:14px solid green;"">","null","","","","","","",""
"","image-keyboard-response","199","150964","0.0-199.0","3D8YOU6S9F6M8OF6YBYJN0N9VHK6UJ","A1SN7EOZUW5VP3","3KVQ0UJWPX71V463XQYDOZYIDLRW5D","","1180","img/land4.png","76","1181","3","1","1","1,0.7,0.7,0.7,1,0.7,0.7,0.7,1","",""
"","html-keyboard-response","200","151273","0.0-200.0","3D8YOU6S9F6M8OF6YBYJN0N9VHK6UJ","A1SN7EOZUW5VP3","3KVQ0UJWPX71V463XQYDOZYIDLRW5D","","null","<img src=""img/land4.png"" style=""width:200px; border:14px solid green;"">","null","","","","","","",""
"","image-keyboard-response","201","152180","0.0-201.0","3D8YOU6S9F6M8OF6YBYJN0N9VHK6UJ","A1SN7EOZUW5VP3","3KVQ0UJWPX71V463XQYDOZYIDLRW5D","","905","img/land6.png","74","906","1","0","3","1,0.7,0.7,0.7,1,0.7,0.7,0.7,1","",""
"","html-keyboard-response","202","152483","0.0-202.0","3D8YOU6S9F6M8OF6YBYJN0N9VHK6UJ","A1SN7EOZUW5VP3","3KVQ0UJWPX71V463XQYDOZYIDLRW5D","","null","<img src=""img/land6.png"" style=""width:200px;border:14px solid red;"">","null","","","","","","",""
"","image-keyboard-response","203","153398","0.0-203.0","3D8YOU6S9F6M8OF6YBYJN0N9VHK6UJ","A1SN7EOZUW5VP3","3KVQ0UJWPX71V463XQYDOZYIDLRW5D","","912","img/land4.png","76","914","3","1","1","1,0.7,0.7,0.7,1,0.7,0.7,0.7,1","",""
"","html-keyboard-response","204","153703","0.0-204.0","3D8YOU6S9F6M8OF6YBYJN0N9VHK6UJ","A1SN7EOZUW5VP3","3KVQ0UJWPX71V463XQYDOZYIDLRW5D","","null","<img src=""img/land4.png"" style=""width:200px; border:14px solid green;"">","null","","","","","","",""
"","image-keyboard-response","205","154131","0.0-205.0","3D8YOU6S9F6M8OF6YBYJN0N9VHK6UJ","A1SN7EOZUW5VP3","3KVQ0UJWPX71V463XQYDOZYIDLRW5D","","427","img/land4.png","76","429","3","0","1","1,0.7,0.7,0.7,1,0.7,0.7,0.7,1","",""
"","html-keyboard-response","206","154443","0.0-206.0","3D8YOU6S9F6M8OF6YBYJN0N9VHK6UJ","A1SN7EOZUW5VP3","3KVQ0UJWPX71V463XQYDOZYIDLRW5D","","null","<img src=""img/land4.png"" style=""width:200px;border:14px solid red;"">","null","","","","","","",""
"","image-keyboard-response","207","155475","0.0-207.0","3D8YOU6S9F6M8OF6YBYJN0N9VHK6UJ","A1SN7EOZUW5VP3","3KVQ0UJWPX71V463XQYDOZYIDLRW5D","","1032","img/land5.png","75","1033","2","1","2","1,0.7,0.7,0.7,1,0.7,0.7,0.7,1","",""
"","html-keyboard-response","208","155790","0.0-208.0","3D8YOU6S9F6M8OF6YBYJN0N9VHK6UJ","A1SN7EOZUW5VP3","3KVQ0UJWPX71V463XQYDOZYIDLRW5D","","null","<img src=""img/land5.png"" style=""width:200px; border:14px solid green;"">","null","","","","","","",""
"","image-keyboard-response","209","156772","0.0-209.0","3D8YOU6S9F6M8OF6YBYJN0N9VHK6UJ","A1SN7EOZUW5VP3","3KVQ0UJWPX71V463XQYDOZYIDLRW5D","","980","img/land4.png","76","981","3","0","1","1,0.7,0.7,0.7,1,0.7,0.7,0.7,1","",""
"","html-keyboard-response","210","157083","0.0-210.0","3D8YOU6S9F6M8OF6YBYJN0N9VHK6UJ","A1SN7EOZUW5VP3","3KVQ0UJWPX71V463XQYDOZYIDLRW5D","","null","<img src=""img/land4.png"" style=""width:200px;border:14px solid red;"">","null","","","","","","",""
"","image-keyboard-response","211","157556","0.0-211.0","3D8YOU6S9F6M8OF6YBYJN0N9VHK6UJ","A1SN7EOZUW5VP3","3KVQ0UJWPX71V463XQYDOZYIDLRW5D","","471","img/land4.png","76","473","3","0","1","1,0.7,0.7,0.7,1,0.7,0.7,0.7,1","",""
"","html-keyboard-response","212","157863","0.0-212.0","3D8YOU6S9F6M8OF6YBYJN0N9VHK6UJ","A1SN7EOZUW5VP3","3KVQ0UJWPX71V463XQYDOZYIDLRW5D","","null","<img src=""img/land4.png"" style=""width:200px;border:14px solid red;"">","null","","","","","","",""
"","image-keyboard-response","213","159412","0.0-213.0","3D8YOU6S9F6M8OF6YBYJN0N9VHK6UJ","A1SN7EOZUW5VP3","3KVQ0UJWPX71V463XQYDOZYIDLRW5D","","1547","img/land6.png","76","1549","3","1","3","1,0.7,0.7,0.7,1,0.7,0.7,0.7,1","",""
"","html-keyboard-response","214","159724","0.0-214.0","3D8YOU6S9F6M8OF6YBYJN0N9VHK6UJ","A1SN7EOZUW5VP3","3KVQ0UJWPX71V463XQYDOZYIDLRW5D","","null","<img src=""img/land6.png"" style=""width:200px; border:14px solid green;"">","null","","","","","","",""
"","image-keyboard-response","215","160916","0.0-215.0","3D8YOU6S9F6M8OF6YBYJN0N9VHK6UJ","A1SN7EOZUW5VP3","3KVQ0UJWPX71V463XQYDOZYIDLRW5D","","1191","img/land4.png","74","1193","1","1","1","1,0.7,0.7,0.7,1,0.7,0.7,0.7,1","",""
"","html-keyboard-response","216","161223","0.0-216.0","3D8YOU6S9F6M8OF6YBYJN0N9VHK6UJ","A1SN7EOZUW5VP3","3KVQ0UJWPX71V463XQYDOZYIDLRW5D","","null","<img src=""img/land4.png"" style=""width:200px; border:14px solid green;"">","null","","","","","","",""
"","image-keyboard-response","217","162041","0.0-217.0","3D8YOU6S9F6M8OF6YBYJN0N9VHK6UJ","A1SN7EOZUW5VP3","3KVQ0UJWPX71V463XQYDOZYIDLRW5D","","814","img/land5.png","75","817","2","1","2","1,0.7,0.7,0.7,1,0.7,0.7,0.7,1","",""
"","html-keyboard-response","218","162345","0.0-218.0","3D8YOU6S9F6M8OF6YBYJN0N9VHK6UJ","A1SN7EOZUW5VP3","3KVQ0UJWPX71V463XQYDOZYIDLRW5D","","null","<img src=""img/land5.png"" style=""width:200px; border:14px solid green;"">","null","","","","","","",""
"","image-keyboard-response","219","162756","0.0-219.0","3D8YOU6S9F6M8OF6YBYJN0N9VHK6UJ","A1SN7EOZUW5VP3","3KVQ0UJWPX71V463XQYDOZYIDLRW5D","","410","img/land5.png","75","411","2","1","2","1,0.7,0.7,0.7,1,0.7,0.7,0.7,1","",""
"","html-keyboard-response","220","163065","0.0-220.0","3D8YOU6S9F6M8OF6YBYJN0N9VHK6UJ","A1SN7EOZUW5VP3","3KVQ0UJWPX71V463XQYDOZYIDLRW5D","","null","<img src=""img/land5.png"" style=""width:200px; border:14px solid green;"">","null","","","","","","",""
"","image-keyboard-response","221","164644","0.0-221.0","3D8YOU6S9F6M8OF6YBYJN0N9VHK6UJ","A1SN7EOZUW5VP3","3KVQ0UJWPX71V463XQYDOZYIDLRW5D","","1577","img/land4.png","74","1579","1","1","1","1,0.7,0.7,0.7,1,0.7,0.7,0.7,1","",""
"","html-keyboard-response","222","164945","0.0-222.0","3D8YOU6S9F6M8OF6YBYJN0N9VHK6UJ","A1SN7EOZUW5VP3","3KVQ0UJWPX71V463XQYDOZYIDLRW5D","","null","<img src=""img/land4.png"" style=""width:200px; border:14px solid green;"">","null","","","","","","",""
"","image-keyboard-response","223","165396","0.0-223.0","3D8YOU6S9F6M8OF6YBYJN0N9VHK6UJ","A1SN7EOZUW5VP3","3KVQ0UJWPX71V463XQYDOZYIDLRW5D","","448","img/land4.png","74","450","1","1","1","1,0.7,0.7,0.7,1,0.7,0.7,0.7,1","",""
"","html-keyboard-response","224","165706","0.0-224.0","3D8YOU6S9F6M8OF6YBYJN0N9VHK6UJ","A1SN7EOZUW5VP3","3KVQ0UJWPX71V463XQYDOZYIDLRW5D","","null","<img src=""img/land4.png"" style=""width:200px; border:14px solid green;"">","null","","","","","","",""
"","image-keyboard-response","225","166500","0.0-225.0","3D8YOU6S9F6M8OF6YBYJN0N9VHK6UJ","A1SN7EOZUW5VP3","3KVQ0UJWPX71V463XQYDOZYIDLRW5D","","792","img/land5.png","76","793","3","0","2","1,0.7,0.7,0.7,1,0.7,0.7,0.7,1","",""
"","html-keyboard-response","226","166806","0.0-226.0","3D8YOU6S9F6M8OF6YBYJN0N9VHK6UJ","A1SN7EOZUW5VP3","3KVQ0UJWPX71V463XQYDOZYIDLRW5D","","null","<img src=""img/land5.png"" style=""width:200px;border:14px solid red;"">","null","","","","","","",""
"","image-keyboard-response","227","167444","0.0-227.0","3D8YOU6S9F6M8OF6YBYJN0N9VHK6UJ","A1SN7EOZUW5VP3","3KVQ0UJWPX71V463XQYDOZYIDLRW5D","","636","img/land5.png","76","638","3","0","2","1,0.7,0.7,0.7,1,0.7,0.7,0.7,1","",""
"","html-keyboard-response","228","167756","0.0-228.0","3D8YOU6S9F6M8OF6YBYJN0N9VHK6UJ","A1SN7EOZUW5VP3","3KVQ0UJWPX71V463XQYDOZYIDLRW5D","","null","<img src=""img/land5.png"" style=""width:200px;border:14px solid red;"">","null","","","","","","",""
"","image-keyboard-response","229","168228","0.0-229.0","3D8YOU6S9F6M8OF6YBYJN0N9VHK6UJ","A1SN7EOZUW5VP3","3KVQ0UJWPX71V463XQYDOZYIDLRW5D","","470","img/land5.png","75","472","2","1","2","1,0.7,0.7,0.7,1,0.7,0.7,0.7,1","",""
"","html-keyboard-response","230","168536","0.0-230.0","3D8YOU6S9F6M8OF6YBYJN0N9VHK6UJ","A1SN7EOZUW5VP3","3KVQ0UJWPX71V463XQYDOZYIDLRW5D","","null","<img src=""img/land5.png"" style=""width:200px; border:14px solid green;"">","null","","","","","","",""
"","image-keyboard-response","231","170228","0.0-231.0","3D8YOU6S9F6M8OF6YBYJN0N9VHK6UJ","A1SN7EOZUW5VP3","3KVQ0UJWPX71V463XQYDOZYIDLRW5D","","1690","img/land6.png","76","1691","3","1","3","1,0.7,0.7,0.7,1,0.7,0.7,0.7,1","",""
"","html-keyboard-response","232","170536","0.0-232.0","3D8YOU6S9F6M8OF6YBYJN0N9VHK6UJ","A1SN7EOZUW5VP3","3KVQ0UJWPX71V463XQYDOZYIDLRW5D","","null","<img src=""img/land6.png"" style=""width:200px; border:14px solid green;"">","null","","","","","","",""
"","image-keyboard-response","233","170836","0.0-233.0","3D8YOU6S9F6M8OF6YBYJN0N9VHK6UJ","A1SN7EOZUW5VP3","3KVQ0UJWPX71V463XQYDOZYIDLRW5D","","298","img/land4.png","76","298","3","0","1","1,0.7,0.7,0.7,1,0.7,0.7,0.7,1","",""
"","html-keyboard-response","234","171146","0.0-234.0","3D8YOU6S9F6M8OF6YBYJN0N9VHK6UJ","A1SN7EOZUW5VP3","3KVQ0UJWPX71V463XQYDOZYIDLRW5D","","null","<img src=""img/land4.png"" style=""width:200px;border:14px solid red;"">","null","","","","","","",""
"","image-keyboard-response","235","172099","0.0-235.0","3D8YOU6S9F6M8OF6YBYJN0N9VHK6UJ","A1SN7EOZUW5VP3","3KVQ0UJWPX71V463XQYDOZYIDLRW5D","","953","img/land5.png","75","954","2","1","2","1,0.7,0.7,0.7,1,0.7,0.7,0.7,1","",""
"","html-keyboard-response","236","172406","0.0-236.0","3D8YOU6S9F6M8OF6YBYJN0N9VHK6UJ","A1SN7EOZUW5VP3","3KVQ0UJWPX71V463XQYDOZYIDLRW5D","","null","<img src=""img/land5.png"" style=""width:200px; border:14px solid green;"">","null","","","","","","",""
"","image-keyboard-response","237","172824","0.0-237.0","3D8YOU6S9F6M8OF6YBYJN0N9VHK6UJ","A1SN7EOZUW5VP3","3KVQ0UJWPX71V463XQYDOZYIDLRW5D","","418","img/land5.png","75","418","2","1","2","1,0.7,0.7,0.7,1,0.7,0.7,0.7,1","",""
"","html-keyboard-response","238","173126","0.0-238.0","3D8YOU6S9F6M8OF6YBYJN0N9VHK6UJ","A1SN7EOZUW5VP3","3KVQ0UJWPX71V463XQYDOZYIDLRW5D","","null","<img src=""img/land5.png"" style=""width:200px; border:14px solid green;"">","null","","","","","","",""
"","image-keyboard-response","239","174276","0.0-239.0","3D8YOU6S9F6M8OF6YBYJN0N9VHK6UJ","A1SN7EOZUW5VP3","3KVQ0UJWPX71V463XQYDOZYIDLRW5D","","1148","img/land4.png","74","1150","1","1","1","1,0.7,0.7,0.7,1,0.7,0.7,0.7,1","",""
"","html-keyboard-response","240","174586","0.0-240.0","3D8YOU6S9F6M8OF6YBYJN0N9VHK6UJ","A1SN7EOZUW5VP3","3KVQ0UJWPX71V463XQYDOZYIDLRW5D","","null","<img src=""img/land4.png"" style=""width:200px; border:14px solid green;"">","null","","","","","","",""
"","image-keyboard-response","241","175907","0.0-241.0","3D8YOU6S9F6M8OF6YBYJN0N9VHK6UJ","A1SN7EOZUW5VP3","3KVQ0UJWPX71V463XQYDOZYIDLRW5D","","1321","img/land6.png","76","1322","3","1","3","1,0.7,0.7,0.7,1,0.7,0.7,0.7,1","",""
"","html-keyboard-response","242","176215","0.0-242.0","3D8YOU6S9F6M8OF6YBYJN0N9VHK6UJ","A1SN7EOZUW5VP3","3KVQ0UJWPX71V463XQYDOZYIDLRW5D","","null","<img src=""img/land6.png"" style=""width:200px; border:14px solid green;"">","null","","","","","","",""
"","image-keyboard-response","243","177443","0.0-243.0","3D8YOU6S9F6M8OF6YBYJN0N9VHK6UJ","A1SN7EOZUW5VP3","3KVQ0UJWPX71V463XQYDOZYIDLRW5D","","1227","img/land4.png","74","1228","1","1","1","1,0.7,0.7,0.7,1,0.7,0.7,0.7,1","",""
"","html-keyboard-response","244","177746","0.0-244.0","3D8YOU6S9F6M8OF6YBYJN0N9VHK6UJ","A1SN7EOZUW5VP3","3KVQ0UJWPX71V463XQYDOZYIDLRW5D","","null","<img src=""img/land4.png"" style=""width:200px; border:14px solid green;"">","null","","","","","","",""
"","image-keyboard-response","245","178804","0.0-245.0","3D8YOU6S9F6M8OF6YBYJN0N9VHK6UJ","A1SN7EOZUW5VP3","3KVQ0UJWPX71V463XQYDOZYIDLRW5D","","1055","img/land6.png","76","1057","3","1","3","1,0.7,0.7,0.7,1,0.7,0.7,0.7,1","",""
"","html-keyboard-response","246","179105","0.0-246.0","3D8YOU6S9F6M8OF6YBYJN0N9VHK6UJ","A1SN7EOZUW5VP3","3KVQ0UJWPX71V463XQYDOZYIDLRW5D","","null","<img src=""img/land6.png"" style=""width:200px; border:14px solid green;"">","null","","","","","","",""
"","image-keyboard-response","247","179749","0.0-247.0","3D8YOU6S9F6M8OF6YBYJN0N9VHK6UJ","A1SN7EOZUW5VP3","3KVQ0UJWPX71V463XQYDOZYIDLRW5D","","641","img/land5.png","75","643","2","1","2","1,0.7,0.7,0.7,1,0.7,0.7,0.7,1","",""
"","html-keyboard-response","248","180056","0.0-248.0","3D8YOU6S9F6M8OF6YBYJN0N9VHK6UJ","A1SN7EOZUW5VP3","3KVQ0UJWPX71V463XQYDOZYIDLRW5D","","null","<img src=""img/land5.png"" style=""width:200px; border:14px solid green;"">","null","","","","","","",""
"","image-keyboard-response","249","181476","0.0-249.0","3D8YOU6S9F6M8OF6YBYJN0N9VHK6UJ","A1SN7EOZUW5VP3","3KVQ0UJWPX71V463XQYDOZYIDLRW5D","","1419","img/land6.png","76","1420","3","1","3","1,0.7,0.7,0.7,1,0.7,0.7,0.7,1","",""
"","html-keyboard-response","250","181786","0.0-250.0","3D8YOU6S9F6M8OF6YBYJN0N9VHK6UJ","A1SN7EOZUW5VP3","3KVQ0UJWPX71V463XQYDOZYIDLRW5D","","null","<img src=""img/land6.png"" style=""width:200px; border:14px solid green;"">","null","","","","","","",""
"","image-keyboard-response","251","182227","0.0-251.0","3D8YOU6S9F6M8OF6YBYJN0N9VHK6UJ","A1SN7EOZUW5VP3","3KVQ0UJWPX71V463XQYDOZYIDLRW5D","","440","img/land6.png","76","442","3","1","3","1,0.7,0.7,0.7,1,0.7,0.7,0.7,1","",""
"","html-keyboard-response","252","182536","0.0-252.0","3D8YOU6S9F6M8OF6YBYJN0N9VHK6UJ","A1SN7EOZUW5VP3","3KVQ0UJWPX71V463XQYDOZYIDLRW5D","","null","<img src=""img/land6.png"" style=""width:200px; border:14px solid green;"">","null","","","","","","",""
"","image-keyboard-response","253","183364","0.0-253.0","3D8YOU6S9F6M8OF6YBYJN0N9VHK6UJ","A1SN7EOZUW5VP3","3KVQ0UJWPX71V463XQYDOZYIDLRW5D","","827","img/land4.png","74","827","1","1","1","1,0.7,0.7,0.7,1,0.7,0.7,0.7,1","",""
"","html-keyboard-response","254","183665","0.0-254.0","3D8YOU6S9F6M8OF6YBYJN0N9VHK6UJ","A1SN7EOZUW5VP3","3KVQ0UJWPX71V463XQYDOZYIDLRW5D","","null","<img src=""img/land4.png"" style=""width:200px; border:14px solid green;"">","null","","","","","","",""
"","image-keyboard-response","255","184404","0.0-255.0","3D8YOU6S9F6M8OF6YBYJN0N9VHK6UJ","A1SN7EOZUW5VP3","3KVQ0UJWPX71V463XQYDOZYIDLRW5D","","736","img/land6.png","76","737","3","1","3","1,0.7,0.7,0.7,1,0.7,0.7,0.7,1","",""
"","html-keyboard-response","256","184705","0.0-256.0","3D8YOU6S9F6M8OF6YBYJN0N9VHK6UJ","A1SN7EOZUW5VP3","3KVQ0UJWPX71V463XQYDOZYIDLRW5D","","null","<img src=""img/land6.png"" style=""width:200px; border:14px solid green;"">","null","","","","","","",""
"","image-keyboard-response","257","185588","0.0-257.0","3D8YOU6S9F6M8OF6YBYJN0N9VHK6UJ","A1SN7EOZUW5VP3","3KVQ0UJWPX71V463XQYDOZYIDLRW5D","","881","img/land4.png","74","882","1","1","1","1,0.7,0.7,0.7,1,0.7,0.7,0.7,1","",""
"","html-keyboard-response","258","185892","0.0-258.0","3D8YOU6S9F6M8OF6YBYJN0N9VHK6UJ","A1SN7EOZUW5VP3","3KVQ0UJWPX71V463XQYDOZYIDLRW5D","","null","<img src=""img/land4.png"" style=""width:200px; border:14px solid green;"">","null","","","","","","",""
"","image-keyboard-response","259","186419","0.0-259.0","3D8YOU6S9F6M8OF6YBYJN0N9VHK6UJ","A1SN7EOZUW5VP3","3KVQ0UJWPX71V463XQYDOZYIDLRW5D","","527","img/land6.png","76","528","3","1","3","1,0.7,0.7,0.7,1,0.7,0.7,0.7,1","",""
"","html-keyboard-response","260","186722","0.0-260.0","3D8YOU6S9F6M8OF6YBYJN0N9VHK6UJ","A1SN7EOZUW5VP3","3KVQ0UJWPX71V463XQYDOZYIDLRW5D","","null","<img src=""img/land6.png"" style=""width:200px; border:14px solid green;"">","null","","","","","","",""
"","image-keyboard-response","261","187284","0.0-261.0","3D8YOU6S9F6M8OF6YBYJN0N9VHK6UJ","A1SN7EOZUW5VP3","3KVQ0UJWPX71V463XQYDOZYIDLRW5D","","560","img/land6.png","76","561","3","1","3","1,0.7,0.7,0.7,1,0.7,0.7,0.7,1","",""
"","html-keyboard-response","262","187592","0.0-262.0","3D8YOU6S9F6M8OF6YBYJN0N9VHK6UJ","A1SN7EOZUW5VP3","3KVQ0UJWPX71V463XQYDOZYIDLRW5D","","null","<img src=""img/land6.png"" style=""width:200px; border:14px solid green;"">","null","","","","","","",""
"","image-keyboard-response","263","188403","0.0-263.0","3D8YOU6S9F6M8OF6YBYJN0N9VHK6UJ","A1SN7EOZUW5VP3","3KVQ0UJWPX71V463XQYDOZYIDLRW5D","","808","img/land5.png","75","810","2","1","2","1,0.7,0.7,0.7,1,0.7,0.7,0.7,1","",""
"","html-keyboard-response","264","188706","0.0-264.0","3D8YOU6S9F6M8OF6YBYJN0N9VHK6UJ","A1SN7EOZUW5VP3","3KVQ0UJWPX71V463XQYDOZYIDLRW5D","","null","<img src=""img/land5.png"" style=""width:200px; border:14px solid green;"">","null","","","","","","",""
"","image-keyboard-response","265","189507","0.0-265.0","3D8YOU6S9F6M8OF6YBYJN0N9VHK6UJ","A1SN7EOZUW5VP3","3KVQ0UJWPX71V463XQYDOZYIDLRW5D","","801","img/land4.png","74","801","1","1","1","1,0.7,0.7,0.7,1,0.7,0.7,0.7,1","",""
"","html-keyboard-response","266","189816","0.0-266.0","3D8YOU6S9F6M8OF6YBYJN0N9VHK6UJ","A1SN7EOZUW5VP3","3KVQ0UJWPX71V463XQYDOZYIDLRW5D","","null","<img src=""img/land4.png"" style=""width:200px; border:14px solid green;"">","null","","","","","","",""
"","image-keyboard-response","267","190291","0.0-267.0","3D8YOU6S9F6M8OF6YBYJN0N9VHK6UJ","A1SN7EOZUW5VP3","3KVQ0UJWPX71V463XQYDOZYIDLRW5D","","474","img/land4.png","74","475","1","1","1","1,0.7,0.7,0.7,1,0.7,0.7,0.7,1","",""
"","html-keyboard-response","268","190596","0.0-268.0","3D8YOU6S9F6M8OF6YBYJN0N9VHK6UJ","A1SN7EOZUW5VP3","3KVQ0UJWPX71V463XQYDOZYIDLRW5D","","null","<img src=""img/land4.png"" style=""width:200px; border:14px solid green;"">","null","","","","","","",""
"","image-keyboard-response","269","191507","0.0-269.0","3D8YOU6S9F6M8OF6YBYJN0N9VHK6UJ","A1SN7EOZUW5VP3","3KVQ0UJWPX71V463XQYDOZYIDLRW5D","","911","img/land6.png","76","912","3","1","3","1,0.7,0.7,0.7,1,0.7,0.7,0.7,1","",""
"","html-keyboard-response","270","191815","0.0-270.0","3D8YOU6S9F6M8OF6YBYJN0N9VHK6UJ","A1SN7EOZUW5VP3","3KVQ0UJWPX71V463XQYDOZYIDLRW5D","","null","<img src=""img/land6.png"" style=""width:200px; border:14px solid green;"">","null","","","","","","",""
"","image-keyboard-response","271","192212","0.0-271.0","3D8YOU6S9F6M8OF6YBYJN0N9VHK6UJ","A1SN7EOZUW5VP3","3KVQ0UJWPX71V463XQYDOZYIDLRW5D","","395","img/land6.png","76","395","3","1","3","1,0.7,0.7,0.7,1,0.7,0.7,0.7,1","",""
"","html-keyboard-response","272","192515","0.0-272.0","3D8YOU6S9F6M8OF6YBYJN0N9VHK6UJ","A1SN7EOZUW5VP3","3KVQ0UJWPX71V463XQYDOZYIDLRW5D","","null","<img src=""img/land6.png"" style=""width:200px; border:14px solid green;"">","null","","","","","","",""
"","image-keyboard-response","273","193315","0.0-273.0","3D8YOU6S9F6M8OF6YBYJN0N9VHK6UJ","A1SN7EOZUW5VP3","3KVQ0UJWPX71V463XQYDOZYIDLRW5D","","798","img/land5.png","75","800","2","1","2","1,0.7,0.7,0.7,1,0.7,0.7,0.7,1","",""
"","html-keyboard-response","274","193626","0.0-274.0","3D8YOU6S9F6M8OF6YBYJN0N9VHK6UJ","A1SN7EOZUW5VP3","3KVQ0UJWPX71V463XQYDOZYIDLRW5D","","null","<img src=""img/land5.png"" style=""width:200px; border:14px solid green;"">","null","","","","","","",""
"","image-keyboard-response","275","194404","0.0-275.0","3D8YOU6S9F6M8OF6YBYJN0N9VHK6UJ","A1SN7EOZUW5VP3","3KVQ0UJWPX71V463XQYDOZYIDLRW5D","","777","img/land4.png","74","777","1","1","1","1,0.7,0.7,0.7,1,0.7,0.7,0.7,1","",""
"","html-keyboard-response","276","194706","0.0-276.0","3D8YOU6S9F6M8OF6YBYJN0N9VHK6UJ","A1SN7EOZUW5VP3","3KVQ0UJWPX71V463XQYDOZYIDLRW5D","","null","<img src=""img/land4.png"" style=""width:200px; border:14px solid green;"">","null","","","","","","",""
"","image-keyboard-response","277","195171","0.0-277.0","3D8YOU6S9F6M8OF6YBYJN0N9VHK6UJ","A1SN7EOZUW5VP3","3KVQ0UJWPX71V463XQYDOZYIDLRW5D","","464","img/land4.png","74","465","1","1","1","1,0.7,0.7,0.7,1,0.7,0.7,0.7,1","",""
"","html-keyboard-response","278","195476","0.0-278.0","3D8YOU6S9F6M8OF6YBYJN0N9VHK6UJ","A1SN7EOZUW5VP3","3KVQ0UJWPX71V463XQYDOZYIDLRW5D","","null","<img src=""img/land4.png"" style=""width:200px; border:14px solid green;"">","null","","","","","","",""
"","image-keyboard-response","279","196163","0.0-279.0","3D8YOU6S9F6M8OF6YBYJN0N9VHK6UJ","A1SN7EOZUW5VP3","3KVQ0UJWPX71V463XQYDOZYIDLRW5D","","687","img/land6.png","76","687","3","1","3","1,0.7,0.7,0.7,1,0.7,0.7,0.7,1","",""
"","html-keyboard-response","280","196466","0.0-280.0","3D8YOU6S9F6M8OF6YBYJN0N9VHK6UJ","A1SN7EOZUW5VP3","3KVQ0UJWPX71V463XQYDOZYIDLRW5D","","null","<img src=""img/land6.png"" style=""width:200px; border:14px solid green;"">","null","","","","","","",""
"","image-keyboard-response","281","197284","0.0-281.0","3D8YOU6S9F6M8OF6YBYJN0N9VHK6UJ","A1SN7EOZUW5VP3","3KVQ0UJWPX71V463XQYDOZYIDLRW5D","","817","img/land4.png","74","818","1","1","1","1,0.7,0.7,0.7,1,0.7,0.7,0.7,1","",""
"","html-keyboard-response","282","197586","0.0-282.0","3D8YOU6S9F6M8OF6YBYJN0N9VHK6UJ","A1SN7EOZUW5VP3","3KVQ0UJWPX71V463XQYDOZYIDLRW5D","","null","<img src=""img/land4.png"" style=""width:200px; border:14px solid green;"">","null","","","","","","",""
"","image-keyboard-response","283","198228","0.0-283.0","3D8YOU6S9F6M8OF6YBYJN0N9VHK6UJ","A1SN7EOZUW5VP3","3KVQ0UJWPX71V463XQYDOZYIDLRW5D","","640","img/land5.png","75","641","2","1","2","1,0.7,0.7,0.7,1,0.7,0.7,0.7,1","",""
"","html-keyboard-response","284","198536","0.0-284.0","3D8YOU6S9F6M8OF6YBYJN0N9VHK6UJ","A1SN7EOZUW5VP3","3KVQ0UJWPX71V463XQYDOZYIDLRW5D","","null","<img src=""img/land5.png"" style=""width:200px; border:14px solid green;"">","null","","","","","","",""
"","image-keyboard-response","285","199699","0.0-285.0","3D8YOU6S9F6M8OF6YBYJN0N9VHK6UJ","A1SN7EOZUW5VP3","3KVQ0UJWPX71V463XQYDOZYIDLRW5D","","1162","img/land4.png","76","1164","3","0","1","1,0.7,0.7,0.7,1,0.7,0.7,0.7,1","",""
"","html-keyboard-response","286","200005","0.0-286.0","3D8YOU6S9F6M8OF6YBYJN0N9VHK6UJ","A1SN7EOZUW5VP3","3KVQ0UJWPX71V463XQYDOZYIDLRW5D","","null","<img src=""img/land4.png"" style=""width:200px;border:14px solid red;"">","null","","","","","","",""
"","image-keyboard-response","287","200595","0.0-287.0","3D8YOU6S9F6M8OF6YBYJN0N9VHK6UJ","A1SN7EOZUW5VP3","3KVQ0UJWPX71V463XQYDOZYIDLRW5D","","589","img/land4.png","74","590","1","1","1","1,0.7,0.7,0.7,1,0.7,0.7,0.7,1","",""
"","html-keyboard-response","288","200905","0.0-288.0","3D8YOU6S9F6M8OF6YBYJN0N9VHK6UJ","A1SN7EOZUW5VP3","3KVQ0UJWPX71V463XQYDOZYIDLRW5D","","null","<img src=""img/land4.png"" style=""width:200px; border:14px solid green;"">","null","","","","","","",""
"","image-keyboard-response","289","201395","0.0-289.0","3D8YOU6S9F6M8OF6YBYJN0N9VHK6UJ","A1SN7EOZUW5VP3","3KVQ0UJWPX71V463XQYDOZYIDLRW5D","","488","img/land4.png","74","490","1","1","1","1,0.7,0.7,0.7,1,0.7,0.7,0.7,1","",""
"","html-keyboard-response","290","201705","0.0-290.0","3D8YOU6S9F6M8OF6YBYJN0N9VHK6UJ","A1SN7EOZUW5VP3","3KVQ0UJWPX71V463XQYDOZYIDLRW5D","","null","<img src=""img/land4.png"" style=""width:200px; border:14px solid green;"">","null","","","","","","",""
"","image-keyboard-response","291","202500","0.0-291.0","3D8YOU6S9F6M8OF6YBYJN0N9VHK6UJ","A1SN7EOZUW5VP3","3KVQ0UJWPX71V463XQYDOZYIDLRW5D","","792","img/land5.png","75","794","2","1","2","1,0.7,0.7,0.7,1,0.7,0.7,0.7,1","",""
"","html-keyboard-response","292","202806","0.0-292.0","3D8YOU6S9F6M8OF6YBYJN0N9VHK6UJ","A1SN7EOZUW5VP3","3KVQ0UJWPX71V463XQYDOZYIDLRW5D","","null","<img src=""img/land5.png"" style=""width:200px; border:14px solid green;"">","null","","","","","","",""
"","image-keyboard-response","293","203651","0.0-293.0","3D8YOU6S9F6M8OF6YBYJN0N9VHK6UJ","A1SN7EOZUW5VP3","3KVQ0UJWPX71V463XQYDOZYIDLRW5D","","843","img/land4.png","74","845","1","1","1","1,0.7,0.7,0.7,1,0.7,0.7,0.7,1","",""
"","html-keyboard-response","294","203955","0.0-294.0","3D8YOU6S9F6M8OF6YBYJN0N9VHK6UJ","A1SN7EOZUW5VP3","3KVQ0UJWPX71V463XQYDOZYIDLRW5D","","null","<img src=""img/land4.png"" style=""width:200px; border:14px solid green;"">","null","","","","","","",""
"","image-keyboard-response","295","204723","0.0-295.0","3D8YOU6S9F6M8OF6YBYJN0N9VHK6UJ","A1SN7EOZUW5VP3","3KVQ0UJWPX71V463XQYDOZYIDLRW5D","","766","img/land5.png","75","767","2","1","2","1,0.7,0.7,0.7,1,0.7,0.7,0.7,1","",""
"","html-keyboard-response","296","205026","0.0-296.0","3D8YOU6S9F6M8OF6YBYJN0N9VHK6UJ","A1SN7EOZUW5VP3","3KVQ0UJWPX71V463XQYDOZYIDLRW5D","","null","<img src=""img/land5.png"" style=""width:200px; border:14px solid green;"">","null","","","","","","",""
"","image-keyboard-response","297","205827","0.0-297.0","3D8YOU6S9F6M8OF6YBYJN0N9VHK6UJ","A1SN7EOZUW5VP3","3KVQ0UJWPX71V463XQYDOZYIDLRW5D","","800","img/land4.png","74","801","1","1","1","1,0.7,0.7,0.7,1,0.7,0.7,0.7,1","",""
"","html-keyboard-response","298","206137","0.0-298.0","3D8YOU6S9F6M8OF6YBYJN0N9VHK6UJ","A1SN7EOZUW5VP3","3KVQ0UJWPX71V463XQYDOZYIDLRW5D","","null","<img src=""img/land4.png"" style=""width:200px; border:14px solid green;"">","null","","","","","","",""
"","image-keyboard-response","299","206739","0.0-299.0","3D8YOU6S9F6M8OF6YBYJN0N9VHK6UJ","A1SN7EOZUW5VP3","3KVQ0UJWPX71V463XQYDOZYIDLRW5D","","601","img/land6.png","76","603","3","1","3","1,0.7,0.7,0.7,1,0.7,0.7,0.7,1","",""
"","html-keyboard-response","300","207048","0.0-300.0","3D8YOU6S9F6M8OF6YBYJN0N9VHK6UJ","A1SN7EOZUW5VP3","3KVQ0UJWPX71V463XQYDOZYIDLRW5D","","null","<img src=""img/land6.png"" style=""width:200px; border:14px solid green;"">","null","","","","","","",""
"","image-keyboard-response","301","208003","0.0-301.0","3D8YOU6S9F6M8OF6YBYJN0N9VHK6UJ","A1SN7EOZUW5VP3","3KVQ0UJWPX71V463XQYDOZYIDLRW5D","","954","img/land4.png","74","956","1","1","1","1,0.7,0.7,0.7,1,0.7,0.7,0.7,1","",""
"","html-keyboard-response","302","208307","0.0-302.0","3D8YOU6S9F6M8OF6YBYJN0N9VHK6UJ","A1SN7EOZUW5VP3","3KVQ0UJWPX71V463XQYDOZYIDLRW5D","","null","<img src=""img/land4.png"" style=""width:200px; border:14px solid green;"">","null","","","","","","",""
"","image-keyboard-response","303","208803","0.0-303.0","3D8YOU6S9F6M8OF6YBYJN0N9VHK6UJ","A1SN7EOZUW5VP3","3KVQ0UJWPX71V463XQYDOZYIDLRW5D","","494","img/land4.png","74","495","1","1","1","1,0.7,0.7,0.7,1,0.7,0.7,0.7,1","",""
"","html-keyboard-response","304","209107","0.0-304.0","3D8YOU6S9F6M8OF6YBYJN0N9VHK6UJ","A1SN7EOZUW5VP3","3KVQ0UJWPX71V463XQYDOZYIDLRW5D","","null","<img src=""img/land4.png"" style=""width:200px; border:14px solid green;"">","null","","","","","","",""
"","image-keyboard-response","305","209779","0.0-305.0","3D8YOU6S9F6M8OF6YBYJN0N9VHK6UJ","A1SN7EOZUW5VP3","3KVQ0UJWPX71V463XQYDOZYIDLRW5D","","671","img/land5.png","75","672","2","1","2","1,0.7,0.7,0.7,1,0.7,0.7,0.7,1","",""
"","html-keyboard-response","306","210087","0.0-306.0","3D8YOU6S9F6M8OF6YBYJN0N9VHK6UJ","A1SN7EOZUW5VP3","3KVQ0UJWPX71V463XQYDOZYIDLRW5D","","null","<img src=""img/land5.png"" style=""width:200px; border:14px solid green;"">","null","","","","","","",""
"","image-keyboard-response","307","210771","0.0-307.0","3D8YOU6S9F6M8OF6YBYJN0N9VHK6UJ","A1SN7EOZUW5VP3","3KVQ0UJWPX71V463XQYDOZYIDLRW5D","","682","img/land6.png","76","684","3","1","3","1,0.7,0.7,0.7,1,0.7,0.7,0.7,1","",""
"","html-keyboard-response","308","211079","0.0-308.0","3D8YOU6S9F6M8OF6YBYJN0N9VHK6UJ","A1SN7EOZUW5VP3","3KVQ0UJWPX71V463XQYDOZYIDLRW5D","","null","<img src=""img/land6.png"" style=""width:200px; border:14px solid green;"">","null","","","","","","",""
"","image-keyboard-response","309","211779","0.0-309.0","3D8YOU6S9F6M8OF6YBYJN0N9VHK6UJ","A1SN7EOZUW5VP3","3KVQ0UJWPX71V463XQYDOZYIDLRW5D","","698","img/land4.png","74","700","1","1","1","1,0.7,0.7,0.7,1,0.7,0.7,0.7,1","",""
"","html-keyboard-response","310","212087","0.0-310.0","3D8YOU6S9F6M8OF6YBYJN0N9VHK6UJ","A1SN7EOZUW5VP3","3KVQ0UJWPX71V463XQYDOZYIDLRW5D","","null","<img src=""img/land4.png"" style=""width:200px; border:14px solid green;"">","null","","","","","","",""
"","image-keyboard-response","311","212803","0.0-311.0","3D8YOU6S9F6M8OF6YBYJN0N9VHK6UJ","A1SN7EOZUW5VP3","3KVQ0UJWPX71V463XQYDOZYIDLRW5D","","715","img/land6.png","76","716","3","1","3","1,0.7,0.7,0.7,1,0.7,0.7,0.7,1","",""
"","html-keyboard-response","312","213107","0.0-312.0","3D8YOU6S9F6M8OF6YBYJN0N9VHK6UJ","A1SN7EOZUW5VP3","3KVQ0UJWPX71V463XQYDOZYIDLRW5D","","null","<img src=""img/land6.png"" style=""width:200px; border:14px solid green;"">","null","","","","","","",""
"","image-keyboard-response","313","213891","0.0-313.0","3D8YOU6S9F6M8OF6YBYJN0N9VHK6UJ","A1SN7EOZUW5VP3","3KVQ0UJWPX71V463XQYDOZYIDLRW5D","","782","img/land5.png","75","784","2","1","2","1,0.7,0.7,0.7,1,0.7,0.7,0.7,1","",""
"","html-keyboard-response","314","214197","0.0-314.0","3D8YOU6S9F6M8OF6YBYJN0N9VHK6UJ","A1SN7EOZUW5VP3","3KVQ0UJWPX71V463XQYDOZYIDLRW5D","","null","<img src=""img/land5.png"" style=""width:200px; border:14px solid green;"">","null","","","","","","",""
"","image-keyboard-response","315","214980","0.0-315.0","3D8YOU6S9F6M8OF6YBYJN0N9VHK6UJ","A1SN7EOZUW5VP3","3KVQ0UJWPX71V463XQYDOZYIDLRW5D","","780","img/land4.png","74","781","1","1","1","1,0.7,0.7,0.7,1,0.7,0.7,0.7,1","",""
"","html-keyboard-response","316","215287","0.0-316.0","3D8YOU6S9F6M8OF6YBYJN0N9VHK6UJ","A1SN7EOZUW5VP3","3KVQ0UJWPX71V463XQYDOZYIDLRW5D","","null","<img src=""img/land4.png"" style=""width:200px; border:14px solid green;"">","null","","","","","","",""
"","image-keyboard-response","317","215859","0.0-317.0","3D8YOU6S9F6M8OF6YBYJN0N9VHK6UJ","A1SN7EOZUW5VP3","3KVQ0UJWPX71V463XQYDOZYIDLRW5D","","571","img/land4.png","74","571","1","1","1","1,0.7,0.7,0.7,1,0.7,0.7,0.7,1","",""
"","html-keyboard-response","318","216167","0.0-318.0","3D8YOU6S9F6M8OF6YBYJN0N9VHK6UJ","A1SN7EOZUW5VP3","3KVQ0UJWPX71V463XQYDOZYIDLRW5D","","null","<img src=""img/land4.png"" style=""width:200px; border:14px solid green;"">","null","","","","","","",""
"","image-keyboard-response","319","216659","0.0-319.0","3D8YOU6S9F6M8OF6YBYJN0N9VHK6UJ","A1SN7EOZUW5VP3","3KVQ0UJWPX71V463XQYDOZYIDLRW5D","","490","img/land4.png","74","492","1","1","1","1,0.7,0.7,0.7,1,0.7,0.7,0.7,1","",""
"","html-keyboard-response","320","216968","0.0-320.0","3D8YOU6S9F6M8OF6YBYJN0N9VHK6UJ","A1SN7EOZUW5VP3","3KVQ0UJWPX71V463XQYDOZYIDLRW5D","","null","<img src=""img/land4.png"" style=""width:200px; border:14px solid green;"">","null","","","","","","",""
"","image-keyboard-response","321","217411","0.0-321.0","3D8YOU6S9F6M8OF6YBYJN0N9VHK6UJ","A1SN7EOZUW5VP3","3KVQ0UJWPX71V463XQYDOZYIDLRW5D","","441","img/land4.png","74","442","1","1","1","1,0.7,0.7,0.7,1,0.7,0.7,0.7,1","",""
"","html-keyboard-response","322","217717","0.0-322.0","3D8YOU6S9F6M8OF6YBYJN0N9VHK6UJ","A1SN7EOZUW5VP3","3KVQ0UJWPX71V463XQYDOZYIDLRW5D","","null","<img src=""img/land4.png"" style=""width:200px; border:14px solid green;"">","null","","","","","","",""
"","image-keyboard-response","323","218323","0.0-323.0","3D8YOU6S9F6M8OF6YBYJN0N9VHK6UJ","A1SN7EOZUW5VP3","3KVQ0UJWPX71V463XQYDOZYIDLRW5D","","603","img/land6.png","76","605","3","1","3","1,0.7,0.7,0.7,1,0.7,0.7,0.7,1","",""
"","html-keyboard-response","324","218627","0.0-324.0","3D8YOU6S9F6M8OF6YBYJN0N9VHK6UJ","A1SN7EOZUW5VP3","3KVQ0UJWPX71V463XQYDOZYIDLRW5D","","null","<img src=""img/land6.png"" style=""width:200px; border:14px solid green;"">","null","","","","","","",""
"","image-keyboard-response","325","219251","0.0-325.0","3D8YOU6S9F6M8OF6YBYJN0N9VHK6UJ","A1SN7EOZUW5VP3","3KVQ0UJWPX71V463XQYDOZYIDLRW5D","","621","img/land5.png","75","623","2","1","2","1,0.7,0.7,0.7,1,0.7,0.7,0.7,1","",""
"","html-keyboard-response","326","219557","0.0-326.0","3D8YOU6S9F6M8OF6YBYJN0N9VHK6UJ","A1SN7EOZUW5VP3","3KVQ0UJWPX71V463XQYDOZYIDLRW5D","","null","<img src=""img/land5.png"" style=""width:200px; border:14px solid green;"">","null","","","","","","",""
"","image-keyboard-response","327","220259","0.0-327.0","3D8YOU6S9F6M8OF6YBYJN0N9VHK6UJ","A1SN7EOZUW5VP3","3KVQ0UJWPX71V463XQYDOZYIDLRW5D","","699","img/land4.png","74","703","1","1","1","1,0.7,0.7,0.7,1,0.7,0.7,0.7,1","",""
"","html-keyboard-response","328","220567","0.0-328.0","3D8YOU6S9F6M8OF6YBYJN0N9VHK6UJ","A1SN7EOZUW5VP3","3KVQ0UJWPX71V463XQYDOZYIDLRW5D","","null","<img src=""img/land4.png"" style=""width:200px; border:14px solid green;"">","null","","","","","","",""
"","image-keyboard-response","329","221043","0.0-329.0","3D8YOU6S9F6M8OF6YBYJN0N9VHK6UJ","A1SN7EOZUW5VP3","3KVQ0UJWPX71V463XQYDOZYIDLRW5D","","474","img/land4.png","74","476","1","1","1","1,0.7,0.7,0.7,1,0.7,0.7,0.7,1","",""
"","html-keyboard-response","330","221347","0.0-330.0","3D8YOU6S9F6M8OF6YBYJN0N9VHK6UJ","A1SN7EOZUW5VP3","3KVQ0UJWPX71V463XQYDOZYIDLRW5D","","null","<img src=""img/land4.png"" style=""width:200px; border:14px solid green;"">","null","","","","","","",""
"","image-keyboard-response","331","221811","0.0-331.0","3D8YOU6S9F6M8OF6YBYJN0N9VHK6UJ","A1SN7EOZUW5VP3","3KVQ0UJWPX71V463XQYDOZYIDLRW5D","","462","img/land4.png","74","463","1","1","1","1,0.7,0.7,0.7,1,0.7,0.7,0.7,1","",""
"","html-keyboard-response","332","222117","0.0-332.0","3D8YOU6S9F6M8OF6YBYJN0N9VHK6UJ","A1SN7EOZUW5VP3","3KVQ0UJWPX71V463XQYDOZYIDLRW5D","","null","<img src=""img/land4.png"" style=""width:200px; border:14px solid green;"">","null","","","","","","",""
"","image-keyboard-response","333","222563","0.0-333.0","3D8YOU6S9F6M8OF6YBYJN0N9VHK6UJ","A1SN7EOZUW5VP3","3KVQ0UJWPX71V463XQYDOZYIDLRW5D","","444","img/land4.png","74","447","1","1","1","1,0.7,0.7,0.7,1,0.7,0.7,0.7,1","",""
"","html-keyboard-response","334","222867","0.0-334.0","3D8YOU6S9F6M8OF6YBYJN0N9VHK6UJ","A1SN7EOZUW5VP3","3KVQ0UJWPX71V463XQYDOZYIDLRW5D","","null","<img src=""img/land4.png"" style=""width:200px; border:14px solid green;"">","null","","","","","","",""
"","image-keyboard-response","335","223366","0.0-335.0","3D8YOU6S9F6M8OF6YBYJN0N9VHK6UJ","A1SN7EOZUW5VP3","3KVQ0UJWPX71V463XQYDOZYIDLRW5D","","496","img/land4.png","74","498","1","1","1","1,0.7,0.7,0.7,1,0.7,0.7,0.7,1","",""
"","html-keyboard-response","336","223668","0.0-336.0","3D8YOU6S9F6M8OF6YBYJN0N9VHK6UJ","A1SN7EOZUW5VP3","3KVQ0UJWPX71V463XQYDOZYIDLRW5D","","null","<img src=""img/land4.png"" style=""width:200px; border:14px solid green;"">","null","","","","","","",""
"","image-keyboard-response","337","224115","0.0-337.0","3D8YOU6S9F6M8OF6YBYJN0N9VHK6UJ","A1SN7EOZUW5VP3","3KVQ0UJWPX71V463XQYDOZYIDLRW5D","","444","img/land4.png","74","447","1","1","1","1,0.7,0.7,0.7,1,0.7,0.7,0.7,1","",""
"","html-keyboard-response","338","224417","0.0-338.0","3D8YOU6S9F6M8OF6YBYJN0N9VHK6UJ","A1SN7EOZUW5VP3","3KVQ0UJWPX71V463XQYDOZYIDLRW5D","","null","<img src=""img/land4.png"" style=""width:200px; border:14px solid green;"">","null","","","","","","",""
"","instructions","339","232670","0.0-339.0","3D8YOU6S9F6M8OF6YBYJN0N9VHK6UJ","A1SN7EOZUW5VP3","3KVQ0UJWPX71V463XQYDOZYIDLRW5D","[{""page_index"":0,""viewing_time"":8253}]","8253","","","","","","","","",""
"","survey-text","340","236087","0.0-340.0-0.0","3D8YOU6S9F6M8OF6YBYJN0N9VHK6UJ","A1SN7EOZUW5VP3","3KVQ0UJWPX71V463XQYDOZYIDLRW5D","","3407","","","","","","","","{""Q0"":""44""}",""
"","survey-multi-choice","341","239908","0.0-340.0-1.0","3D8YOU6S9F6M8OF6YBYJN0N9VHK6UJ","A1SN7EOZUW5VP3","3KVQ0UJWPX71V463XQYDOZYIDLRW5D","","3816","","","","","","","","{""gender"":""M""}","[0]"
"","survey-text","342","251469","0.0-341.0","3D8YOU6S9F6M8OF6YBYJN0N9VHK6UJ","A1SN7EOZUW5VP3","3KVQ0UJWPX71V463XQYDOZYIDLRW5D","","11553","","","","","","","","{""Q0"":""A1SN7EOZUW5VP3""}",""
