"success","trial_type","trial_index","time_elapsed","internal_node_id","assignmentID","mturkID","hitID","view_history","rt","stimulus","key_press","reactionTime","a","r","s","cond","reward_cond","reward_cond_actual","reward_matrix_idx","responses","question_order"
"true","fullscreen","0","4262","0.0-0.0","3E13VNJ1NOHMSBJ9YOXO918HUHUI1F","A1T4GVQH4P0BO","3RBI0I35XEP26UEZY8S8UZLEA1IY3E","","","","","","","","","","","","","",""
"","instructions","1","37820","0.0-1.0","3E13VNJ1NOHMSBJ9YOXO918HUHUI1F","A1T4GVQH4P0BO","3RBI0I35XEP26UEZY8S8UZLEA1IY3E","[{""page_index"":0,""viewing_time"":5504.79999999702},{""page_index"":1,""viewing_time"":3456.8999999910593},{""page_index"":2,""viewing_time"":1259},{""page_index"":3,""viewing_time"":6574.70000000298},{""page_index"":4,""viewing_time"":8816.29999999702},{""page_index"":5,""viewing_time"":5264.9000000059605},{""page_index"":6,""viewing_time"":2675.0999999940395}]","33552.79999999702","","","","","","","","","","","",""
"","image-keyboard-response","2","39370","0.0-2.0","3E13VNJ1NOHMSBJ9YOXO918HUHUI1F","A1T4GVQH4P0BO","3RBI0I35XEP26UEZY8S8UZLEA1IY3E","","1546","img/land5.png","75","1549","2","1","2","1","0.8,0.2,0.2,0.2,0.8,0.2,0.2,0.2,0.8","0.8,0.2,0.2,0.2,0.8,0.2,0.2,0.2,0.8","1","",""
"","html-keyboard-response","3","39676","0.0-3.0","3E13VNJ1NOHMSBJ9YOXO918HUHUI1F","A1T4GVQH4P0BO","3RBI0I35XEP26UEZY8S8UZLEA1IY3E","","null","<img src=""img/land5.png"" style=""width:200px; border:14px solid green;"">","null","","","","","","","","","",""
"","image-keyboard-response","4","40372","0.0-4.0","3E13VNJ1NOHMSBJ9YOXO918HUHUI1F","A1T4GVQH4P0BO","3RBI0I35XEP26UEZY8S8UZLEA1IY3E","","692.9000000059605","img/land1.png","76","695.2000000029802","3","0","3","1","0.8,0.2,0.2,0.2,0.8,0.2,0.2,0.2,0.8","0.8,0.2,0.2,0.2,0.8,0.2,0.2,0.2,0.8","1","",""
"","html-keyboard-response","5","40685","0.0-5.0","3E13VNJ1NOHMSBJ9YOXO918HUHUI1F","A1T4GVQH4P0BO","3RBI0I35XEP26UEZY8S8UZLEA1IY3E","","null","<img src=""img/land1.png"" style=""width:200px;border:14px solid red;"">","null","","","","","","","","","",""
"","image-keyboard-response","6","41097","0.0-6.0","3E13VNJ1NOHMSBJ9YOXO918HUHUI1F","A1T4GVQH4P0BO","3RBI0I35XEP26UEZY8S8UZLEA1IY3E","","409","img/land5.png","75","411.40000000596046","2","1","2","1","0.8,0.2,0.2,0.2,0.8,0.2,0.2,0.2,0.8","0.8,0.2,0.2,0.2,0.8,0.2,0.2,0.2,0.8","1","",""
"","html-keyboard-response","7","41416","0.0-7.0","3E13VNJ1NOHMSBJ9YOXO918HUHUI1F","A1T4GVQH4P0BO","3RBI0I35XEP26UEZY8S8UZLEA1IY3E","","null","<img src=""img/land5.png"" style=""width:200px; border:14px solid green;"">","null","","","","","","","","","",""
"","image-keyboard-response","8","41943","0.0-8.0","3E13VNJ1NOHMSBJ9YOXO918HUHUI1F","A1T4GVQH4P0BO","3RBI0I35XEP26UEZY8S8UZLEA1IY3E","","523.8999999910593","img/land5.png","75","526.2000000029802","2","1","2","1","0.8,0.2,0.2,0.2,0.8,0.2,0.2,0.2,0.8","0.8,0.2,0.2,0.2,0.8,0.2,0.2,0.2,0.8","1","",""
"","html-keyboard-response","9","42249","0.0-9.0","3E13VNJ1NOHMSBJ9YOXO918HUHUI1F","A1T4GVQH4P0BO","3RBI0I35XEP26UEZY8S8UZLEA1IY3E","","null","<img src=""img/land5.png"" style=""width:200px; border:14px solid green;"">","null","","","","","","","","","",""
"","image-keyboard-response","10","43232","0.0-10.0","3E13VNJ1NOHMSBJ9YOXO918HUHUI1F","A1T4GVQH4P0BO","3RBI0I35XEP26UEZY8S8UZLEA1IY3E","","979.6999999880791","img/land1.png","74","982.2000000029802","1","0","3","1","0.8,0.2,0.2,0.2,0.8,0.2,0.2,0.2,0.8","0.8,0.2,0.2,0.2,0.8,0.2,0.2,0.2,0.8","1","",""
"","html-keyboard-response","11","43536","0.0-11.0","3E13VNJ1NOHMSBJ9YOXO918HUHUI1F","A1T4GVQH4P0BO","3RBI0I35XEP26UEZY8S8UZLEA1IY3E","","null","<img src=""img/land1.png"" style=""width:200px;border:14px solid red;"">","null","","","","","","","","","",""
"","image-keyboard-response","12","43940","0.0-12.0","3E13VNJ1NOHMSBJ9YOXO918HUHUI1F","A1T4GVQH4P0BO","3RBI0I35XEP26UEZY8S8UZLEA1IY3E","","403","img/land1.png","75","404.30000001192093","2","0","3","1","0.8,0.2,0.2,0.2,0.8,0.2,0.2,0.2,0.8","0.8,0.2,0.2,0.2,0.8,0.2,0.2,0.2,0.8","1","",""
"","html-keyboard-response","13","44256","0.0-13.0","3E13VNJ1NOHMSBJ9YOXO918HUHUI1F","A1T4GVQH4P0BO","3RBI0I35XEP26UEZY8S8UZLEA1IY3E","","null","<img src=""img/land1.png"" style=""width:200px;border:14px solid red;"">","null","","","","","","","","","",""
"","image-keyboard-response","14","45374","0.0-14.0","3E13VNJ1NOHMSBJ9YOXO918HUHUI1F","A1T4GVQH4P0BO","3RBI0I35XEP26UEZY8S8UZLEA1IY3E","","1116.0999999940395","img/land1.png","75","1118.199999988079","2","0","3","1","0.8,0.2,0.2,0.2,0.8,0.2,0.2,0.2,0.8","0.8,0.2,0.2,0.2,0.8,0.2,0.2,0.2,0.8","1","",""
"","html-keyboard-response","15","45702","0.0-15.0","3E13VNJ1NOHMSBJ9YOXO918HUHUI1F","A1T4GVQH4P0BO","3RBI0I35XEP26UEZY8S8UZLEA1IY3E","","null","<img src=""img/land1.png"" style=""width:200px;border:14px solid red;"">","null","","","","","","","","","",""
"","image-keyboard-response","16","45976","0.0-16.0","3E13VNJ1NOHMSBJ9YOXO918HUHUI1F","A1T4GVQH4P0BO","3RBI0I35XEP26UEZY8S8UZLEA1IY3E","","271.70000000298023","img/land1.png","76","272.90000000596046","3","0","3","1","0.8,0.2,0.2,0.2,0.8,0.2,0.2,0.2,0.8","0.8,0.2,0.2,0.2,0.8,0.2,0.2,0.2,0.8","1","",""
"","html-keyboard-response","17","46281","0.0-17.0","3E13VNJ1NOHMSBJ9YOXO918HUHUI1F","A1T4GVQH4P0BO","3RBI0I35XEP26UEZY8S8UZLEA1IY3E","","null","<img src=""img/land1.png"" style=""width:200px;border:14px solid red;"">","null","","","","","","","","","",""
"","image-keyboard-response","18","47417","0.0-18.0","3E13VNJ1NOHMSBJ9YOXO918HUHUI1F","A1T4GVQH4P0BO","3RBI0I35XEP26UEZY8S8UZLEA1IY3E","","1133","img/land2.png","74","1135.2000000029802","1","1","1","1","0.8,0.2,0.2,0.2,0.8,0.2,0.2,0.2,0.8","0.8,0.2,0.2,0.2,0.8,0.2,0.2,0.2,0.8","1","",""
"","html-keyboard-response","19","47725","0.0-19.0","3E13VNJ1NOHMSBJ9YOXO918HUHUI1F","A1T4GVQH4P0BO","3RBI0I35XEP26UEZY8S8UZLEA1IY3E","","null","<img src=""img/land2.png"" style=""width:200px; border:14px solid green;"">","null","","","","","","","","","",""
"","image-keyboard-response","20","48392","0.0-20.0","3E13VNJ1NOHMSBJ9YOXO918HUHUI1F","A1T4GVQH4P0BO","3RBI0I35XEP26UEZY8S8UZLEA1IY3E","","663.5999999940395","img/land2.png","74","665.9000000059605","1","0","1","1","0.8,0.2,0.2,0.2,0.8,0.2,0.2,0.2,0.8","0.8,0.2,0.2,0.2,0.8,0.2,0.2,0.2,0.8","1","",""
"","html-keyboard-response","21","48700","0.0-21.0","3E13VNJ1NOHMSBJ9YOXO918HUHUI1F","A1T4GVQH4P0BO","3RBI0I35XEP26UEZY8S8UZLEA1IY3E","","null","<img src=""img/land2.png"" style=""width:200px;border:14px solid red;"">","null","","","","","","","","","",""
"","image-keyboard-response","22","49364","0.0-22.0","3E13VNJ1NOHMSBJ9YOXO918HUHUI1F","A1T4GVQH4P0BO","3RBI0I35XEP26UEZY8S8UZLEA1IY3E","","661.6000000089407","img/land2.png","74","663.7999999970198","1","1","1","1","0.8,0.2,0.2,0.2,0.8,0.2,0.2,0.2,0.8","0.8,0.2,0.2,0.2,0.8,0.2,0.2,0.2,0.8","1","",""
"","html-keyboard-response","23","49668","0.0-23.0","3E13VNJ1NOHMSBJ9YOXO918HUHUI1F","A1T4GVQH4P0BO","3RBI0I35XEP26UEZY8S8UZLEA1IY3E","","null","<img src=""img/land2.png"" style=""width:200px; border:14px solid green;"">","null","","","","","","","","","",""
"","image-keyboard-response","24","50178","0.0-24.0","3E13VNJ1NOHMSBJ9YOXO918HUHUI1F","A1T4GVQH4P0BO","3RBI0I35XEP26UEZY8S8UZLEA1IY3E","","507.5","img/land2.png","74","509.20000000298023","1","1","1","1","0.8,0.2,0.2,0.2,0.8,0.2,0.2,0.2,0.8","0.8,0.2,0.2,0.2,0.8,0.2,0.2,0.2,0.8","1","",""
"","html-keyboard-response","25","50496","0.0-25.0","3E13VNJ1NOHMSBJ9YOXO918HUHUI1F","A1T4GVQH4P0BO","3RBI0I35XEP26UEZY8S8UZLEA1IY3E","","null","<img src=""img/land2.png"" style=""width:200px; border:14px solid green;"">","null","","","","","","","","","",""
"","image-keyboard-response","26","51232","0.0-26.0","3E13VNJ1NOHMSBJ9YOXO918HUHUI1F","A1T4GVQH4P0BO","3RBI0I35XEP26UEZY8S8UZLEA1IY3E","","733.7000000029802","img/land1.png","75","735.5999999940395","2","0","3","1","0.8,0.2,0.2,0.2,0.8,0.2,0.2,0.2,0.8","0.8,0.2,0.2,0.2,0.8,0.2,0.2,0.2,0.8","1","",""
"","html-keyboard-response","27","51549","0.0-27.0","3E13VNJ1NOHMSBJ9YOXO918HUHUI1F","A1T4GVQH4P0BO","3RBI0I35XEP26UEZY8S8UZLEA1IY3E","","null","<img src=""img/land1.png"" style=""width:200px;border:14px solid red;"">","null","","","","","","","","","",""
"","image-keyboard-response","28","52420","0.0-28.0","3E13VNJ1NOHMSBJ9YOXO918HUHUI1F","A1T4GVQH4P0BO","3RBI0I35XEP26UEZY8S8UZLEA1IY3E","","870.2000000029802","img/land1.png","75","871.5999999940395","2","0","3","1","0.8,0.2,0.2,0.2,0.8,0.2,0.2,0.2,0.8","0.8,0.2,0.2,0.2,0.8,0.2,0.2,0.2,0.8","1","",""
"","html-keyboard-response","29","52728","0.0-29.0","3E13VNJ1NOHMSBJ9YOXO918HUHUI1F","A1T4GVQH4P0BO","3RBI0I35XEP26UEZY8S8UZLEA1IY3E","","null","<img src=""img/land1.png"" style=""width:200px;border:14px solid red;"">","null","","","","","","","","","",""
"","image-keyboard-response","30","53268","0.0-30.0","3E13VNJ1NOHMSBJ9YOXO918HUHUI1F","A1T4GVQH4P0BO","3RBI0I35XEP26UEZY8S8UZLEA1IY3E","","537.7000000029802","img/land1.png","75","539.5","2","0","3","1","0.8,0.2,0.2,0.2,0.8,0.2,0.2,0.2,0.8","0.8,0.2,0.2,0.2,0.8,0.2,0.2,0.2,0.8","1","",""
"","html-keyboard-response","31","53571","0.0-31.0","3E13VNJ1NOHMSBJ9YOXO918HUHUI1F","A1T4GVQH4P0BO","3RBI0I35XEP26UEZY8S8UZLEA1IY3E","","null","<img src=""img/land1.png"" style=""width:200px;border:14px solid red;"">","null","","","","","","","","","",""
"","image-keyboard-response","32","54060","0.0-32.0","3E13VNJ1NOHMSBJ9YOXO918HUHUI1F","A1T4GVQH4P0BO","3RBI0I35XEP26UEZY8S8UZLEA1IY3E","","486.5","img/land1.png","76","488.59999999403954","3","1","3","1","0.8,0.2,0.2,0.2,0.8,0.2,0.2,0.2,0.8","0.8,0.2,0.2,0.2,0.8,0.2,0.2,0.2,0.8","1","",""
"","html-keyboard-response","33","54376","0.0-33.0","3E13VNJ1NOHMSBJ9YOXO918HUHUI1F","A1T4GVQH4P0BO","3RBI0I35XEP26UEZY8S8UZLEA1IY3E","","null","<img src=""img/land1.png"" style=""width:200px; border:14px solid green;"">","null","","","","","","","","","",""
"","image-keyboard-response","34","55189","0.0-34.0","3E13VNJ1NOHMSBJ9YOXO918HUHUI1F","A1T4GVQH4P0BO","3RBI0I35XEP26UEZY8S8UZLEA1IY3E","","811","img/land1.png","76","813","3","0","3","1","0.8,0.2,0.2,0.2,0.8,0.2,0.2,0.2,0.8","0.8,0.2,0.2,0.2,0.8,0.2,0.2,0.2,0.8","1","",""
"","html-keyboard-response","35","55502","0.0-35.0","3E13VNJ1NOHMSBJ9YOXO918HUHUI1F","A1T4GVQH4P0BO","3RBI0I35XEP26UEZY8S8UZLEA1IY3E","","null","<img src=""img/land1.png"" style=""width:200px;border:14px solid red;"">","null","","","","","","","","","",""
"","image-keyboard-response","36","56023","0.0-36.0","3E13VNJ1NOHMSBJ9YOXO918HUHUI1F","A1T4GVQH4P0BO","3RBI0I35XEP26UEZY8S8UZLEA1IY3E","","518.0999999940395","img/land2.png","75","520.2000000029802","2","0","1","1","0.8,0.2,0.2,0.2,0.8,0.2,0.2,0.2,0.8","0.8,0.2,0.2,0.2,0.8,0.2,0.2,0.2,0.8","1","",""
"","html-keyboard-response","37","56334","0.0-37.0","3E13VNJ1NOHMSBJ9YOXO918HUHUI1F","A1T4GVQH4P0BO","3RBI0I35XEP26UEZY8S8UZLEA1IY3E","","null","<img src=""img/land2.png"" style=""width:200px;border:14px solid red;"">","null","","","","","","","","","",""
"","image-keyboard-response","38","56691","0.0-38.0","3E13VNJ1NOHMSBJ9YOXO918HUHUI1F","A1T4GVQH4P0BO","3RBI0I35XEP26UEZY8S8UZLEA1IY3E","","354.79999999701977","img/land5.png","74","357.3999999910593","1","0","2","1","0.8,0.2,0.2,0.2,0.8,0.2,0.2,0.2,0.8","0.8,0.2,0.2,0.2,0.8,0.2,0.2,0.2,0.8","1","",""
"","html-keyboard-response","39","57002","0.0-39.0","3E13VNJ1NOHMSBJ9YOXO918HUHUI1F","A1T4GVQH4P0BO","3RBI0I35XEP26UEZY8S8UZLEA1IY3E","","null","<img src=""img/land5.png"" style=""width:200px;border:14px solid red;"">","null","","","","","","","","","",""
"","image-keyboard-response","40","57370","0.0-40.0","3E13VNJ1NOHMSBJ9YOXO918HUHUI1F","A1T4GVQH4P0BO","3RBI0I35XEP26UEZY8S8UZLEA1IY3E","","365.09999999403954","img/land5.png","75","367.09999999403954","2","1","2","1","0.8,0.2,0.2,0.2,0.8,0.2,0.2,0.2,0.8","0.8,0.2,0.2,0.2,0.8,0.2,0.2,0.2,0.8","1","",""
"","html-keyboard-response","41","57675","0.0-41.0","3E13VNJ1NOHMSBJ9YOXO918HUHUI1F","A1T4GVQH4P0BO","3RBI0I35XEP26UEZY8S8UZLEA1IY3E","","null","<img src=""img/land5.png"" style=""width:200px; border:14px solid green;"">","null","","","","","","","","","",""
"","image-keyboard-response","42","58602","0.0-42.0","3E13VNJ1NOHMSBJ9YOXO918HUHUI1F","A1T4GVQH4P0BO","3RBI0I35XEP26UEZY8S8UZLEA1IY3E","","923.5","img/land2.png","74","925.5","1","1","1","1","0.8,0.2,0.2,0.2,0.8,0.2,0.2,0.2,0.8","0.8,0.2,0.2,0.2,0.8,0.2,0.2,0.2,0.8","1","",""
"","html-keyboard-response","43","58912","0.0-43.0","3E13VNJ1NOHMSBJ9YOXO918HUHUI1F","A1T4GVQH4P0BO","3RBI0I35XEP26UEZY8S8UZLEA1IY3E","","null","<img src=""img/land2.png"" style=""width:200px; border:14px solid green;"">","null","","","","","","","","","",""
"","image-keyboard-response","44","59394","0.0-44.0","3E13VNJ1NOHMSBJ9YOXO918HUHUI1F","A1T4GVQH4P0BO","3RBI0I35XEP26UEZY8S8UZLEA1IY3E","","480.1000000089407","img/land1.png","75","482.09999999403954","2","0","3","1","0.8,0.2,0.2,0.2,0.8,0.2,0.2,0.2,0.8","0.8,0.2,0.2,0.2,0.8,0.2,0.2,0.2,0.8","1","",""
"","html-keyboard-response","45","59705","0.0-45.0","3E13VNJ1NOHMSBJ9YOXO918HUHUI1F","A1T4GVQH4P0BO","3RBI0I35XEP26UEZY8S8UZLEA1IY3E","","null","<img src=""img/land1.png"" style=""width:200px;border:14px solid red;"">","null","","","","","","","","","",""
"","image-keyboard-response","46","60239","0.0-46.0","3E13VNJ1NOHMSBJ9YOXO918HUHUI1F","A1T4GVQH4P0BO","3RBI0I35XEP26UEZY8S8UZLEA1IY3E","","532","img/land2.png","74","533.3000000119209","1","1","1","1","0.8,0.2,0.2,0.2,0.8,0.2,0.2,0.2,0.8","0.8,0.2,0.2,0.2,0.8,0.2,0.2,0.2,0.8","1","",""
"","html-keyboard-response","47","60552","0.0-47.0","3E13VNJ1NOHMSBJ9YOXO918HUHUI1F","A1T4GVQH4P0BO","3RBI0I35XEP26UEZY8S8UZLEA1IY3E","","null","<img src=""img/land2.png"" style=""width:200px; border:14px solid green;"">","null","","","","","","","","","",""
"","image-keyboard-response","48","61333","0.0-48.0","3E13VNJ1NOHMSBJ9YOXO918HUHUI1F","A1T4GVQH4P0BO","3RBI0I35XEP26UEZY8S8UZLEA1IY3E","","778.2000000029802","img/land5.png","75","780.4000000059605","2","1","2","1","0.8,0.2,0.2,0.2,0.8,0.2,0.2,0.2,0.8","0.8,0.2,0.2,0.2,0.8,0.2,0.2,0.2,0.8","1","",""
"","html-keyboard-response","49","61641","0.0-49.0","3E13VNJ1NOHMSBJ9YOXO918HUHUI1F","A1T4GVQH4P0BO","3RBI0I35XEP26UEZY8S8UZLEA1IY3E","","null","<img src=""img/land5.png"" style=""width:200px; border:14px solid green;"">","null","","","","","","","","","",""
"","image-keyboard-response","50","61862","0.0-50.0","3E13VNJ1NOHMSBJ9YOXO918HUHUI1F","A1T4GVQH4P0BO","3RBI0I35XEP26UEZY8S8UZLEA1IY3E","","218.3999999910593","img/land2.png","76","220.30000001192093","3","1","1","1","0.8,0.2,0.2,0.2,0.8,0.2,0.2,0.2,0.8","0.8,0.2,0.2,0.2,0.8,0.2,0.2,0.2,0.8","1","",""
"","html-keyboard-response","51","62165","0.0-51.0","3E13VNJ1NOHMSBJ9YOXO918HUHUI1F","A1T4GVQH4P0BO","3RBI0I35XEP26UEZY8S8UZLEA1IY3E","","null","<img src=""img/land2.png"" style=""width:200px; border:14px solid green;"">","null","","","","","","","","","",""
"","image-keyboard-response","52","62782","0.0-52.0","3E13VNJ1NOHMSBJ9YOXO918HUHUI1F","A1T4GVQH4P0BO","3RBI0I35XEP26UEZY8S8UZLEA1IY3E","","611.3999999910593","img/land5.png","75","613.2999999970198","2","1","2","1","0.8,0.2,0.2,0.2,0.8,0.2,0.2,0.2,0.8","0.8,0.2,0.2,0.2,0.8,0.2,0.2,0.2,0.8","1","",""
"","html-keyboard-response","53","63090","0.0-53.0","3E13VNJ1NOHMSBJ9YOXO918HUHUI1F","A1T4GVQH4P0BO","3RBI0I35XEP26UEZY8S8UZLEA1IY3E","","null","<img src=""img/land5.png"" style=""width:200px; border:14px solid green;"">","null","","","","","","","","","",""
"","image-keyboard-response","54","63403","0.0-54.0","3E13VNJ1NOHMSBJ9YOXO918HUHUI1F","A1T4GVQH4P0BO","3RBI0I35XEP26UEZY8S8UZLEA1IY3E","","309.59999999403954","img/land5.png","75","311.70000000298023","2","1","2","1","0.8,0.2,0.2,0.2,0.8,0.2,0.2,0.2,0.8","0.8,0.2,0.2,0.2,0.8,0.2,0.2,0.2,0.8","1","",""
"","html-keyboard-response","55","63717","0.0-55.0","3E13VNJ1NOHMSBJ9YOXO918HUHUI1F","A1T4GVQH4P0BO","3RBI0I35XEP26UEZY8S8UZLEA1IY3E","","null","<img src=""img/land5.png"" style=""width:200px; border:14px solid green;"">","null","","","","","","","","","",""
"","image-keyboard-response","56","64153","0.0-56.0","3E13VNJ1NOHMSBJ9YOXO918HUHUI1F","A1T4GVQH4P0BO","3RBI0I35XEP26UEZY8S8UZLEA1IY3E","","433.29999999701977","img/land2.png","74","435.40000000596046","1","0","1","1","0.8,0.2,0.2,0.2,0.8,0.2,0.2,0.2,0.8","0.8,0.2,0.2,0.2,0.8,0.2,0.2,0.2,0.8","1","",""
"","html-keyboard-response","57","64467","0.0-57.0","3E13VNJ1NOHMSBJ9YOXO918HUHUI1F","A1T4GVQH4P0BO","3RBI0I35XEP26UEZY8S8UZLEA1IY3E","","null","<img src=""img/land2.png"" style=""width:200px;border:14px solid red;"">","null","","","","","","","","","",""
"","image-keyboard-response","58","64766","0.0-58.0","3E13VNJ1NOHMSBJ9YOXO918HUHUI1F","A1T4GVQH4P0BO","3RBI0I35XEP26UEZY8S8UZLEA1IY3E","","295.8999999910593","img/land1.png","75","297.80000001192093","2","0","3","1","0.8,0.2,0.2,0.2,0.8,0.2,0.2,0.2,0.8","0.8,0.2,0.2,0.2,0.8,0.2,0.2,0.2,0.8","1","",""
"","html-keyboard-response","59","65075","0.0-59.0","3E13VNJ1NOHMSBJ9YOXO918HUHUI1F","A1T4GVQH4P0BO","3RBI0I35XEP26UEZY8S8UZLEA1IY3E","","null","<img src=""img/land1.png"" style=""width:200px;border:14px solid red;"">","null","","","","","","","","","",""
"","image-keyboard-response","60","65817","0.0-60.0","3E13VNJ1NOHMSBJ9YOXO918HUHUI1F","A1T4GVQH4P0BO","3RBI0I35XEP26UEZY8S8UZLEA1IY3E","","741.3999999910593","img/land1.png","76","742.2000000029802","3","1","3","1","0.8,0.2,0.2,0.2,0.8,0.2,0.2,0.2,0.8","0.8,0.2,0.2,0.2,0.8,0.2,0.2,0.2,0.8","1","",""
"","html-keyboard-response","61","66133","0.0-61.0","3E13VNJ1NOHMSBJ9YOXO918HUHUI1F","A1T4GVQH4P0BO","3RBI0I35XEP26UEZY8S8UZLEA1IY3E","","null","<img src=""img/land1.png"" style=""width:200px; border:14px solid green;"">","null","","","","","","","","","",""
"","image-keyboard-response","62","66794","0.0-62.0","3E13VNJ1NOHMSBJ9YOXO918HUHUI1F","A1T4GVQH4P0BO","3RBI0I35XEP26UEZY8S8UZLEA1IY3E","","658.3000000119209","img/land2.png","75","660.3999999910593","2","1","1","1","0.8,0.2,0.2,0.2,0.8,0.2,0.2,0.2,0.8","0.8,0.2,0.2,0.2,0.8,0.2,0.2,0.2,0.8","1","",""
"","html-keyboard-response","63","67100","0.0-63.0","3E13VNJ1NOHMSBJ9YOXO918HUHUI1F","A1T4GVQH4P0BO","3RBI0I35XEP26UEZY8S8UZLEA1IY3E","","null","<img src=""img/land2.png"" style=""width:200px; border:14px solid green;"">","null","","","","","","","","","",""
"","image-keyboard-response","64","67867","0.0-64.0","3E13VNJ1NOHMSBJ9YOXO918HUHUI1F","A1T4GVQH4P0BO","3RBI0I35XEP26UEZY8S8UZLEA1IY3E","","764.9000000059605","img/land5.png","75","767.0999999940395","2","1","2","1","0.8,0.2,0.2,0.2,0.8,0.2,0.2,0.2,0.8","0.8,0.2,0.2,0.2,0.8,0.2,0.2,0.2,0.8","1","",""
"","html-keyboard-response","65","68177","0.0-65.0","3E13VNJ1NOHMSBJ9YOXO918HUHUI1F","A1T4GVQH4P0BO","3RBI0I35XEP26UEZY8S8UZLEA1IY3E","","null","<img src=""img/land5.png"" style=""width:200px; border:14px solid green;"">","null","","","","","","","","","",""
"","image-keyboard-response","66","68757","0.0-66.0","3E13VNJ1NOHMSBJ9YOXO918HUHUI1F","A1T4GVQH4P0BO","3RBI0I35XEP26UEZY8S8UZLEA1IY3E","","577.2999999970198","img/land1.png","74","579.0999999940395","1","0","3","1","0.8,0.2,0.2,0.2,0.8,0.2,0.2,0.2,0.8","0.8,0.2,0.2,0.2,0.8,0.2,0.2,0.2,0.8","1","",""
"","html-keyboard-response","67","69062","0.0-67.0","3E13VNJ1NOHMSBJ9YOXO918HUHUI1F","A1T4GVQH4P0BO","3RBI0I35XEP26UEZY8S8UZLEA1IY3E","","null","<img src=""img/land1.png"" style=""width:200px;border:14px solid red;"">","null","","","","","","","","","",""
"","image-keyboard-response","68","69306","0.0-68.0","3E13VNJ1NOHMSBJ9YOXO918HUHUI1F","A1T4GVQH4P0BO","3RBI0I35XEP26UEZY8S8UZLEA1IY3E","","241.29999999701977","img/land5.png","75","243.20000000298023","2","1","2","1","0.8,0.2,0.2,0.2,0.8,0.2,0.2,0.2,0.8","0.8,0.2,0.2,0.2,0.8,0.2,0.2,0.2,0.8","1","",""
"","html-keyboard-response","69","69615","0.0-69.0","3E13VNJ1NOHMSBJ9YOXO918HUHUI1F","A1T4GVQH4P0BO","3RBI0I35XEP26UEZY8S8UZLEA1IY3E","","null","<img src=""img/land5.png"" style=""width:200px; border:14px solid green;"">","null","","","","","","","","","",""
"","image-keyboard-response","70","70022","0.0-70.0","3E13VNJ1NOHMSBJ9YOXO918HUHUI1F","A1T4GVQH4P0BO","3RBI0I35XEP26UEZY8S8UZLEA1IY3E","","403.79999999701977","img/land1.png","76","405.79999999701977","3","1","3","1","0.8,0.2,0.2,0.2,0.8,0.2,0.2,0.2,0.8","0.8,0.2,0.2,0.2,0.8,0.2,0.2,0.2,0.8","1","",""
"","html-keyboard-response","71","70328","0.0-71.0","3E13VNJ1NOHMSBJ9YOXO918HUHUI1F","A1T4GVQH4P0BO","3RBI0I35XEP26UEZY8S8UZLEA1IY3E","","null","<img src=""img/land1.png"" style=""width:200px; border:14px solid green;"">","null","","","","","","","","","",""
"","image-keyboard-response","72","71229","0.0-72.0","3E13VNJ1NOHMSBJ9YOXO918HUHUI1F","A1T4GVQH4P0BO","3RBI0I35XEP26UEZY8S8UZLEA1IY3E","","898.2999999970198","img/land1.png","76","900.3000000119209","3","1","3","1","0.8,0.2,0.2,0.2,0.8,0.2,0.2,0.2,0.8","0.8,0.2,0.2,0.2,0.8,0.2,0.2,0.2,0.8","1","",""
"","html-keyboard-response","73","71539","0.0-73.0","3E13VNJ1NOHMSBJ9YOXO918HUHUI1F","A1T4GVQH4P0BO","3RBI0I35XEP26UEZY8S8UZLEA1IY3E","","null","<img src=""img/land1.png"" style=""width:200px; border:14px solid green;"">","null","","","","","","","","","",""
"","image-keyboard-response","74","71821","0.0-74.0","3E13VNJ1NOHMSBJ9YOXO918HUHUI1F","A1T4GVQH4P0BO","3RBI0I35XEP26UEZY8S8UZLEA1IY3E","","281.59999999403954","img/land1.png","76","282.29999999701977","3","1","3","1","0.8,0.2,0.2,0.2,0.8,0.2,0.2,0.2,0.8","0.8,0.2,0.2,0.2,0.8,0.2,0.2,0.2,0.8","1","",""
"","html-keyboard-response","75","72128","0.0-75.0","3E13VNJ1NOHMSBJ9YOXO918HUHUI1F","A1T4GVQH4P0BO","3RBI0I35XEP26UEZY8S8UZLEA1IY3E","","null","<img src=""img/land1.png"" style=""width:200px; border:14px solid green;"">","null","","","","","","","","","",""
"","image-keyboard-response","76","72310","0.0-76.0","3E13VNJ1NOHMSBJ9YOXO918HUHUI1F","A1T4GVQH4P0BO","3RBI0I35XEP26UEZY8S8UZLEA1IY3E","","181.09999999403954","img/land1.png","76","181.8999999910593","3","0","3","1","0.8,0.2,0.2,0.2,0.8,0.2,0.2,0.2,0.8","0.8,0.2,0.2,0.2,0.8,0.2,0.2,0.2,0.8","1","",""
"","html-keyboard-response","77","72620","0.0-77.0","3E13VNJ1NOHMSBJ9YOXO918HUHUI1F","A1T4GVQH4P0BO","3RBI0I35XEP26UEZY8S8UZLEA1IY3E","","null","<img src=""img/land1.png"" style=""width:200px;border:14px solid red;"">","null","","","","","","","","","",""
"","image-keyboard-response","78","72999","0.0-78.0","3E13VNJ1NOHMSBJ9YOXO918HUHUI1F","A1T4GVQH4P0BO","3RBI0I35XEP26UEZY8S8UZLEA1IY3E","","376.79999999701977","img/land2.png","74","378.70000000298023","1","1","1","1","0.8,0.2,0.2,0.2,0.8,0.2,0.2,0.2,0.8","0.8,0.2,0.2,0.2,0.8,0.2,0.2,0.2,0.8","1","",""
"","html-keyboard-response","79","73318","0.0-79.0","3E13VNJ1NOHMSBJ9YOXO918HUHUI1F","A1T4GVQH4P0BO","3RBI0I35XEP26UEZY8S8UZLEA1IY3E","","null","<img src=""img/land2.png"" style=""width:200px; border:14px solid green;"">","null","","","","","","","","","",""
"","image-keyboard-response","80","73667","0.0-80.0","3E13VNJ1NOHMSBJ9YOXO918HUHUI1F","A1T4GVQH4P0BO","3RBI0I35XEP26UEZY8S8UZLEA1IY3E","","347.1000000089407","img/land1.png","76","349.20000000298023","3","1","3","1","0.8,0.2,0.2,0.2,0.8,0.2,0.2,0.2,0.8","0.8,0.2,0.2,0.2,0.8,0.2,0.2,0.2,0.8","1","",""
"","html-keyboard-response","81","73979","0.0-81.0","3E13VNJ1NOHMSBJ9YOXO918HUHUI1F","A1T4GVQH4P0BO","3RBI0I35XEP26UEZY8S8UZLEA1IY3E","","null","<img src=""img/land1.png"" style=""width:200px; border:14px solid green;"">","null","","","","","","","","","",""
"","image-keyboard-response","82","74324","0.0-82.0","3E13VNJ1NOHMSBJ9YOXO918HUHUI1F","A1T4GVQH4P0BO","3RBI0I35XEP26UEZY8S8UZLEA1IY3E","","342.6000000089407","img/land2.png","74","344.5","1","1","1","1","0.8,0.2,0.2,0.2,0.8,0.2,0.2,0.2,0.8","0.8,0.2,0.2,0.2,0.8,0.2,0.2,0.2,0.8","1","",""
"","html-keyboard-response","83","74628","0.0-83.0","3E13VNJ1NOHMSBJ9YOXO918HUHUI1F","A1T4GVQH4P0BO","3RBI0I35XEP26UEZY8S8UZLEA1IY3E","","null","<img src=""img/land2.png"" style=""width:200px; border:14px solid green;"">","null","","","","","","","","","",""
"","image-keyboard-response","84","75103","0.0-84.0","3E13VNJ1NOHMSBJ9YOXO918HUHUI1F","A1T4GVQH4P0BO","3RBI0I35XEP26UEZY8S8UZLEA1IY3E","","472.70000000298023","img/land2.png","74","474.29999999701977","1","1","1","1","0.8,0.2,0.2,0.2,0.8,0.2,0.2,0.2,0.8","0.8,0.2,0.2,0.2,0.8,0.2,0.2,0.2,0.8","1","",""
"","html-keyboard-response","85","75410","0.0-85.0","3E13VNJ1NOHMSBJ9YOXO918HUHUI1F","A1T4GVQH4P0BO","3RBI0I35XEP26UEZY8S8UZLEA1IY3E","","null","<img src=""img/land2.png"" style=""width:200px; border:14px solid green;"">","null","","","","","","","","","",""
"","image-keyboard-response","86","76170","0.0-86.0","3E13VNJ1NOHMSBJ9YOXO918HUHUI1F","A1T4GVQH4P0BO","3RBI0I35XEP26UEZY8S8UZLEA1IY3E","","757.5999999940395","img/land5.png","75","759.4000000059605","2","1","2","1","0.8,0.2,0.2,0.2,0.8,0.2,0.2,0.2,0.8","0.8,0.2,0.2,0.2,0.8,0.2,0.2,0.2,0.8","1","",""
"","html-keyboard-response","87","76475","0.0-87.0","3E13VNJ1NOHMSBJ9YOXO918HUHUI1F","A1T4GVQH4P0BO","3RBI0I35XEP26UEZY8S8UZLEA1IY3E","","null","<img src=""img/land5.png"" style=""width:200px; border:14px solid green;"">","null","","","","","","","","","",""
"","image-keyboard-response","88","77119","0.0-88.0","3E13VNJ1NOHMSBJ9YOXO918HUHUI1F","A1T4GVQH4P0BO","3RBI0I35XEP26UEZY8S8UZLEA1IY3E","","642.8999999910593","img/land5.png","75","643.9000000059605","2","1","2","1","0.8,0.2,0.2,0.2,0.8,0.2,0.2,0.2,0.8","0.8,0.2,0.2,0.2,0.8,0.2,0.2,0.2,0.8","1","",""
"","html-keyboard-response","89","77422","0.0-89.0","3E13VNJ1NOHMSBJ9YOXO918HUHUI1F","A1T4GVQH4P0BO","3RBI0I35XEP26UEZY8S8UZLEA1IY3E","","null","<img src=""img/land5.png"" style=""width:200px; border:14px solid green;"">","null","","","","","","","","","",""
"","image-keyboard-response","90","78166","0.0-90.0","3E13VNJ1NOHMSBJ9YOXO918HUHUI1F","A1T4GVQH4P0BO","3RBI0I35XEP26UEZY8S8UZLEA1IY3E","","740.7999999970198","img/land2.png","76","743.2000000029802","3","0","1","1","0.8,0.2,0.2,0.2,0.8,0.2,0.2,0.2,0.8","0.8,0.2,0.2,0.2,0.8,0.2,0.2,0.2,0.8","1","",""
"","html-keyboard-response","91","78478","0.0-91.0","3E13VNJ1NOHMSBJ9YOXO918HUHUI1F","A1T4GVQH4P0BO","3RBI0I35XEP26UEZY8S8UZLEA1IY3E","","null","<img src=""img/land2.png"" style=""width:200px;border:14px solid red;"">","null","","","","","","","","","",""
"","image-keyboard-response","92","79219","0.0-92.0","3E13VNJ1NOHMSBJ9YOXO918HUHUI1F","A1T4GVQH4P0BO","3RBI0I35XEP26UEZY8S8UZLEA1IY3E","","738.5999999940395","img/land1.png","76","740.7000000029802","3","0","3","1","0.8,0.2,0.2,0.2,0.8,0.2,0.2,0.2,0.8","0.8,0.2,0.2,0.2,0.8,0.2,0.2,0.2,0.8","1","",""
"","html-keyboard-response","93","79531","0.0-93.0","3E13VNJ1NOHMSBJ9YOXO918HUHUI1F","A1T4GVQH4P0BO","3RBI0I35XEP26UEZY8S8UZLEA1IY3E","","null","<img src=""img/land1.png"" style=""width:200px;border:14px solid red;"">","null","","","","","","","","","",""
"","image-keyboard-response","94","80702","0.0-94.0","3E13VNJ1NOHMSBJ9YOXO918HUHUI1F","A1T4GVQH4P0BO","3RBI0I35XEP26UEZY8S8UZLEA1IY3E","","1168.5","img/land5.png","75","1170.0999999940395","2","1","2","1","0.8,0.2,0.2,0.2,0.8,0.2,0.2,0.2,0.8","0.8,0.2,0.2,0.2,0.8,0.2,0.2,0.2,0.8","1","",""
"","html-keyboard-response","95","81012","0.0-95.0","3E13VNJ1NOHMSBJ9YOXO918HUHUI1F","A1T4GVQH4P0BO","3RBI0I35XEP26UEZY8S8UZLEA1IY3E","","null","<img src=""img/land5.png"" style=""width:200px; border:14px solid green;"">","null","","","","","","","","","",""
"","image-keyboard-response","96","82223","0.0-96.0","3E13VNJ1NOHMSBJ9YOXO918HUHUI1F","A1T4GVQH4P0BO","3RBI0I35XEP26UEZY8S8UZLEA1IY3E","","1208.7000000029802","img/land2.png","74","1210.7000000029802","1","1","1","1","0.8,0.2,0.2,0.2,0.8,0.2,0.2,0.2,0.8","0.8,0.2,0.2,0.2,0.8,0.2,0.2,0.2,0.8","1","",""
"","html-keyboard-response","97","82534","0.0-97.0","3E13VNJ1NOHMSBJ9YOXO918HUHUI1F","A1T4GVQH4P0BO","3RBI0I35XEP26UEZY8S8UZLEA1IY3E","","null","<img src=""img/land2.png"" style=""width:200px; border:14px solid green;"">","null","","","","","","","","","",""
"","image-keyboard-response","98","83275","0.0-98.0","3E13VNJ1NOHMSBJ9YOXO918HUHUI1F","A1T4GVQH4P0BO","3RBI0I35XEP26UEZY8S8UZLEA1IY3E","","738.7999999970198","img/land1.png","76","741","3","1","3","1","0.8,0.2,0.2,0.2,0.8,0.2,0.2,0.2,0.8","0.8,0.2,0.2,0.2,0.8,0.2,0.2,0.2,0.8","1","",""
"","html-keyboard-response","99","83586","0.0-99.0","3E13VNJ1NOHMSBJ9YOXO918HUHUI1F","A1T4GVQH4P0BO","3RBI0I35XEP26UEZY8S8UZLEA1IY3E","","null","<img src=""img/land1.png"" style=""width:200px; border:14px solid green;"">","null","","","","","","","","","",""
"","image-keyboard-response","100","84298","0.0-100.0","3E13VNJ1NOHMSBJ9YOXO918HUHUI1F","A1T4GVQH4P0BO","3RBI0I35XEP26UEZY8S8UZLEA1IY3E","","709","img/land1.png","76","711","3","1","3","1","0.8,0.2,0.2,0.2,0.8,0.2,0.2,0.2,0.8","0.8,0.2,0.2,0.2,0.8,0.2,0.2,0.2,0.8","1","",""
"","html-keyboard-response","101","84605","0.0-101.0","3E13VNJ1NOHMSBJ9YOXO918HUHUI1F","A1T4GVQH4P0BO","3RBI0I35XEP26UEZY8S8UZLEA1IY3E","","null","<img src=""img/land1.png"" style=""width:200px; border:14px solid green;"">","null","","","","","","","","","",""
"","image-keyboard-response","102","85341","0.0-102.0","3E13VNJ1NOHMSBJ9YOXO918HUHUI1F","A1T4GVQH4P0BO","3RBI0I35XEP26UEZY8S8UZLEA1IY3E","","733.8000000119209","img/land5.png","75","735.6000000089407","2","0","2","1","0.8,0.2,0.2,0.2,0.8,0.2,0.2,0.2,0.8","0.8,0.2,0.2,0.2,0.8,0.2,0.2,0.2,0.8","1","",""
"","html-keyboard-response","103","85647","0.0-103.0","3E13VNJ1NOHMSBJ9YOXO918HUHUI1F","A1T4GVQH4P0BO","3RBI0I35XEP26UEZY8S8UZLEA1IY3E","","null","<img src=""img/land5.png"" style=""width:200px;border:14px solid red;"">","null","","","","","","","","","",""
"","image-keyboard-response","104","86203","0.0-104.0","3E13VNJ1NOHMSBJ9YOXO918HUHUI1F","A1T4GVQH4P0BO","3RBI0I35XEP26UEZY8S8UZLEA1IY3E","","553.5","img/land5.png","75","555.5999999940395","2","0","2","1","0.8,0.2,0.2,0.2,0.8,0.2,0.2,0.2,0.8","0.8,0.2,0.2,0.2,0.8,0.2,0.2,0.2,0.8","1","",""
"","html-keyboard-response","105","86523","0.0-105.0","3E13VNJ1NOHMSBJ9YOXO918HUHUI1F","A1T4GVQH4P0BO","3RBI0I35XEP26UEZY8S8UZLEA1IY3E","","null","<img src=""img/land5.png"" style=""width:200px;border:14px solid red;"">","null","","","","","","","","","",""
"","image-keyboard-response","106","87278","0.0-106.0","3E13VNJ1NOHMSBJ9YOXO918HUHUI1F","A1T4GVQH4P0BO","3RBI0I35XEP26UEZY8S8UZLEA1IY3E","","752.2999999970198","img/land2.png","74","754.5","1","1","1","1","0.8,0.2,0.2,0.2,0.8,0.2,0.2,0.2,0.8","0.8,0.2,0.2,0.2,0.8,0.2,0.2,0.2,0.8","1","",""
"","html-keyboard-response","107","87583","0.0-107.0","3E13VNJ1NOHMSBJ9YOXO918HUHUI1F","A1T4GVQH4P0BO","3RBI0I35XEP26UEZY8S8UZLEA1IY3E","","null","<img src=""img/land2.png"" style=""width:200px; border:14px solid green;"">","null","","","","","","","","","",""
"","image-keyboard-response","108","88111","0.0-108.0","3E13VNJ1NOHMSBJ9YOXO918HUHUI1F","A1T4GVQH4P0BO","3RBI0I35XEP26UEZY8S8UZLEA1IY3E","","525","img/land2.png","74","527","1","1","1","1","0.8,0.2,0.2,0.2,0.8,0.2,0.2,0.2,0.8","0.8,0.2,0.2,0.2,0.8,0.2,0.2,0.2,0.8","1","",""
"","html-keyboard-response","109","88422","0.0-109.0","3E13VNJ1NOHMSBJ9YOXO918HUHUI1F","A1T4GVQH4P0BO","3RBI0I35XEP26UEZY8S8UZLEA1IY3E","","null","<img src=""img/land2.png"" style=""width:200px; border:14px solid green;"">","null","","","","","","","","","",""
"","image-keyboard-response","110","88976","0.0-110.0","3E13VNJ1NOHMSBJ9YOXO918HUHUI1F","A1T4GVQH4P0BO","3RBI0I35XEP26UEZY8S8UZLEA1IY3E","","551.8999999910593","img/land2.png","74","554.0999999940395","1","1","1","1","0.8,0.2,0.2,0.2,0.8,0.2,0.2,0.2,0.8","0.8,0.2,0.2,0.2,0.8,0.2,0.2,0.2,0.8","1","",""
"","html-keyboard-response","111","89288","0.0-111.0","3E13VNJ1NOHMSBJ9YOXO918HUHUI1F","A1T4GVQH4P0BO","3RBI0I35XEP26UEZY8S8UZLEA1IY3E","","null","<img src=""img/land2.png"" style=""width:200px; border:14px solid green;"">","null","","","","","","","","","",""
"","image-keyboard-response","112","89635","0.0-112.0","3E13VNJ1NOHMSBJ9YOXO918HUHUI1F","A1T4GVQH4P0BO","3RBI0I35XEP26UEZY8S8UZLEA1IY3E","","344.90000000596046","img/land2.png","74","347","1","0","1","1","0.8,0.2,0.2,0.2,0.8,0.2,0.2,0.2,0.8","0.8,0.2,0.2,0.2,0.8,0.2,0.2,0.2,0.8","1","",""
"","html-keyboard-response","113","89953","0.0-113.0","3E13VNJ1NOHMSBJ9YOXO918HUHUI1F","A1T4GVQH4P0BO","3RBI0I35XEP26UEZY8S8UZLEA1IY3E","","null","<img src=""img/land2.png"" style=""width:200px;border:14px solid red;"">","null","","","","","","","","","",""
"","image-keyboard-response","114","90488","0.0-114.0","3E13VNJ1NOHMSBJ9YOXO918HUHUI1F","A1T4GVQH4P0BO","3RBI0I35XEP26UEZY8S8UZLEA1IY3E","","532.4000000059605","img/land2.png","74","534.4000000059605","1","0","1","1","0.8,0.2,0.2,0.2,0.8,0.2,0.2,0.2,0.8","0.8,0.2,0.2,0.2,0.8,0.2,0.2,0.2,0.8","1","",""
"","html-keyboard-response","115","90791","0.0-115.0","3E13VNJ1NOHMSBJ9YOXO918HUHUI1F","A1T4GVQH4P0BO","3RBI0I35XEP26UEZY8S8UZLEA1IY3E","","null","<img src=""img/land2.png"" style=""width:200px;border:14px solid red;"">","null","","","","","","","","","",""
"","image-keyboard-response","116","91127","0.0-116.0","3E13VNJ1NOHMSBJ9YOXO918HUHUI1F","A1T4GVQH4P0BO","3RBI0I35XEP26UEZY8S8UZLEA1IY3E","","333.40000000596046","img/land2.png","74","335.29999999701977","1","1","1","1","0.8,0.2,0.2,0.2,0.8,0.2,0.2,0.2,0.8","0.8,0.2,0.2,0.2,0.8,0.2,0.2,0.2,0.8","1","",""
"","html-keyboard-response","117","91438","0.0-117.0","3E13VNJ1NOHMSBJ9YOXO918HUHUI1F","A1T4GVQH4P0BO","3RBI0I35XEP26UEZY8S8UZLEA1IY3E","","null","<img src=""img/land2.png"" style=""width:200px; border:14px solid green;"">","null","","","","","","","","","",""
"","image-keyboard-response","118","91782","0.0-118.0","3E13VNJ1NOHMSBJ9YOXO918HUHUI1F","A1T4GVQH4P0BO","3RBI0I35XEP26UEZY8S8UZLEA1IY3E","","342.40000000596046","img/land2.png","74","344.20000000298023","1","1","1","1","0.8,0.2,0.2,0.2,0.8,0.2,0.2,0.2,0.8","0.8,0.2,0.2,0.2,0.8,0.2,0.2,0.2,0.8","1","",""
"","html-keyboard-response","119","92095","0.0-119.0","3E13VNJ1NOHMSBJ9YOXO918HUHUI1F","A1T4GVQH4P0BO","3RBI0I35XEP26UEZY8S8UZLEA1IY3E","","null","<img src=""img/land2.png"" style=""width:200px; border:14px solid green;"">","null","","","","","","","","","",""
"","image-keyboard-response","120","93183","0.0-120.0","3E13VNJ1NOHMSBJ9YOXO918HUHUI1F","A1T4GVQH4P0BO","3RBI0I35XEP26UEZY8S8UZLEA1IY3E","","1086.5","img/land5.png","75","1087.7000000029802","2","1","2","1","0.8,0.2,0.2,0.2,0.8,0.2,0.2,0.2,0.8","0.8,0.2,0.2,0.2,0.8,0.2,0.2,0.2,0.8","1","",""
"","html-keyboard-response","121","93499","0.0-121.0","3E13VNJ1NOHMSBJ9YOXO918HUHUI1F","A1T4GVQH4P0BO","3RBI0I35XEP26UEZY8S8UZLEA1IY3E","","null","<img src=""img/land5.png"" style=""width:200px; border:14px solid green;"">","null","","","","","","","","","",""
"","image-keyboard-response","122","94439","0.0-122.0","3E13VNJ1NOHMSBJ9YOXO918HUHUI1F","A1T4GVQH4P0BO","3RBI0I35XEP26UEZY8S8UZLEA1IY3E","","937.2999999970198","img/land2.png","74","939.1999999880791","1","1","1","1","0.8,0.2,0.2,0.2,0.8,0.2,0.2,0.2,0.8","0.8,0.2,0.2,0.2,0.8,0.2,0.2,0.2,0.8","1","",""
"","html-keyboard-response","123","94749","0.0-123.0","3E13VNJ1NOHMSBJ9YOXO918HUHUI1F","A1T4GVQH4P0BO","3RBI0I35XEP26UEZY8S8UZLEA1IY3E","","null","<img src=""img/land2.png"" style=""width:200px; border:14px solid green;"">","null","","","","","","","","","",""
"","image-keyboard-response","124","95247","0.0-124.0","3E13VNJ1NOHMSBJ9YOXO918HUHUI1F","A1T4GVQH4P0BO","3RBI0I35XEP26UEZY8S8UZLEA1IY3E","","495.1000000089407","img/land5.png","75","497.09999999403954","2","1","2","1","0.8,0.2,0.2,0.2,0.8,0.2,0.2,0.2,0.8","0.8,0.2,0.2,0.2,0.8,0.2,0.2,0.2,0.8","1","",""
"","html-keyboard-response","125","95559","0.0-125.0","3E13VNJ1NOHMSBJ9YOXO918HUHUI1F","A1T4GVQH4P0BO","3RBI0I35XEP26UEZY8S8UZLEA1IY3E","","null","<img src=""img/land5.png"" style=""width:200px; border:14px solid green;"">","null","","","","","","","","","",""
"","image-keyboard-response","126","96073","0.0-126.0","3E13VNJ1NOHMSBJ9YOXO918HUHUI1F","A1T4GVQH4P0BO","3RBI0I35XEP26UEZY8S8UZLEA1IY3E","","511.79999999701977","img/land5.png","75","513.5999999940395","2","1","2","1","0.8,0.2,0.2,0.2,0.8,0.2,0.2,0.2,0.8","0.8,0.2,0.2,0.2,0.8,0.2,0.2,0.2,0.8","1","",""
"","html-keyboard-response","127","96381","0.0-127.0","3E13VNJ1NOHMSBJ9YOXO918HUHUI1F","A1T4GVQH4P0BO","3RBI0I35XEP26UEZY8S8UZLEA1IY3E","","null","<img src=""img/land5.png"" style=""width:200px; border:14px solid green;"">","null","","","","","","","","","",""
"","image-keyboard-response","128","97319","0.0-128.0","3E13VNJ1NOHMSBJ9YOXO918HUHUI1F","A1T4GVQH4P0BO","3RBI0I35XEP26UEZY8S8UZLEA1IY3E","","936.2000000029802","img/land1.png","76","937.7999999970198","3","1","3","1","0.8,0.2,0.2,0.2,0.8,0.2,0.2,0.2,0.8","0.8,0.2,0.2,0.2,0.8,0.2,0.2,0.2,0.8","1","",""
"","html-keyboard-response","129","97621","0.0-129.0","3E13VNJ1NOHMSBJ9YOXO918HUHUI1F","A1T4GVQH4P0BO","3RBI0I35XEP26UEZY8S8UZLEA1IY3E","","null","<img src=""img/land1.png"" style=""width:200px; border:14px solid green;"">","null","","","","","","","","","",""
"","image-keyboard-response","130","98729","0.0-130.0","3E13VNJ1NOHMSBJ9YOXO918HUHUI1F","A1T4GVQH4P0BO","3RBI0I35XEP26UEZY8S8UZLEA1IY3E","","1106.2999999970198","img/land2.png","75","1107.7999999970198","2","1","1","1","0.8,0.2,0.2,0.2,0.8,0.2,0.2,0.2,0.8","0.8,0.2,0.2,0.2,0.8,0.2,0.2,0.2,0.8","1","",""
"","html-keyboard-response","131","99039","0.0-131.0","3E13VNJ1NOHMSBJ9YOXO918HUHUI1F","A1T4GVQH4P0BO","3RBI0I35XEP26UEZY8S8UZLEA1IY3E","","null","<img src=""img/land2.png"" style=""width:200px; border:14px solid green;"">","null","","","","","","","","","",""
"","image-keyboard-response","132","100122","0.0-132.0","3E13VNJ1NOHMSBJ9YOXO918HUHUI1F","A1T4GVQH4P0BO","3RBI0I35XEP26UEZY8S8UZLEA1IY3E","","1081.6000000089407","img/land1.png","76","1082.3999999910593","3","1","3","1","0.8,0.2,0.2,0.2,0.8,0.2,0.2,0.2,0.8","0.8,0.2,0.2,0.2,0.8,0.2,0.2,0.2,0.8","1","",""
"","html-keyboard-response","133","100428","0.0-133.0","3E13VNJ1NOHMSBJ9YOXO918HUHUI1F","A1T4GVQH4P0BO","3RBI0I35XEP26UEZY8S8UZLEA1IY3E","","null","<img src=""img/land1.png"" style=""width:200px; border:14px solid green;"">","null","","","","","","","","","",""
"","image-keyboard-response","134","101025","0.0-134.0","3E13VNJ1NOHMSBJ9YOXO918HUHUI1F","A1T4GVQH4P0BO","3RBI0I35XEP26UEZY8S8UZLEA1IY3E","","595.5999999940395","img/land2.png","75","597","2","1","1","1","0.8,0.2,0.2,0.2,0.8,0.2,0.2,0.2,0.8","0.8,0.2,0.2,0.2,0.8,0.2,0.2,0.2,0.8","1","",""
"","html-keyboard-response","135","101336","0.0-135.0","3E13VNJ1NOHMSBJ9YOXO918HUHUI1F","A1T4GVQH4P0BO","3RBI0I35XEP26UEZY8S8UZLEA1IY3E","","null","<img src=""img/land2.png"" style=""width:200px; border:14px solid green;"">","null","","","","","","","","","",""
"","image-keyboard-response","136","101643","0.0-136.0","3E13VNJ1NOHMSBJ9YOXO918HUHUI1F","A1T4GVQH4P0BO","3RBI0I35XEP26UEZY8S8UZLEA1IY3E","","304.5","img/land2.png","75","306.70000000298023","2","0","1","1","0.8,0.2,0.2,0.2,0.8,0.2,0.2,0.2,0.8","0.8,0.2,0.2,0.2,0.8,0.2,0.2,0.2,0.8","1","",""
"","html-keyboard-response","137","101949","0.0-137.0","3E13VNJ1NOHMSBJ9YOXO918HUHUI1F","A1T4GVQH4P0BO","3RBI0I35XEP26UEZY8S8UZLEA1IY3E","","null","<img src=""img/land2.png"" style=""width:200px;border:14px solid red;"">","null","","","","","","","","","",""
"","image-keyboard-response","138","102827","0.0-138.0","3E13VNJ1NOHMSBJ9YOXO918HUHUI1F","A1T4GVQH4P0BO","3RBI0I35XEP26UEZY8S8UZLEA1IY3E","","875.5999999940395","img/land1.png","74","877.2999999970198","1","0","3","1","0.8,0.2,0.2,0.2,0.8,0.2,0.2,0.2,0.8","0.8,0.2,0.2,0.2,0.8,0.2,0.2,0.2,0.8","1","",""
"","html-keyboard-response","139","103144","0.0-139.0","3E13VNJ1NOHMSBJ9YOXO918HUHUI1F","A1T4GVQH4P0BO","3RBI0I35XEP26UEZY8S8UZLEA1IY3E","","null","<img src=""img/land1.png"" style=""width:200px;border:14px solid red;"">","null","","","","","","","","","",""
"","image-keyboard-response","140","103681","0.0-140.0","3E13VNJ1NOHMSBJ9YOXO918HUHUI1F","A1T4GVQH4P0BO","3RBI0I35XEP26UEZY8S8UZLEA1IY3E","","534.8999999910593","img/land1.png","76","536.9000000059605","3","1","3","1","0.8,0.2,0.2,0.2,0.8,0.2,0.2,0.2,0.8","0.8,0.2,0.2,0.2,0.8,0.2,0.2,0.2,0.8","1","",""
"","html-keyboard-response","141","103992","0.0-141.0","3E13VNJ1NOHMSBJ9YOXO918HUHUI1F","A1T4GVQH4P0BO","3RBI0I35XEP26UEZY8S8UZLEA1IY3E","","null","<img src=""img/land1.png"" style=""width:200px; border:14px solid green;"">","null","","","","","","","","","",""
"","image-keyboard-response","142","104653","0.0-142.0","3E13VNJ1NOHMSBJ9YOXO918HUHUI1F","A1T4GVQH4P0BO","3RBI0I35XEP26UEZY8S8UZLEA1IY3E","","660.0999999940395","img/land2.png","75","661.7000000029802","2","0","1","1","0.8,0.2,0.2,0.2,0.8,0.2,0.2,0.2,0.8","0.8,0.2,0.2,0.2,0.8,0.2,0.2,0.2,0.8","1","",""
"","html-keyboard-response","143","104957","0.0-143.0","3E13VNJ1NOHMSBJ9YOXO918HUHUI1F","A1T4GVQH4P0BO","3RBI0I35XEP26UEZY8S8UZLEA1IY3E","","null","<img src=""img/land2.png"" style=""width:200px;border:14px solid red;"">","null","","","","","","","","","",""
"","image-keyboard-response","144","105865","0.0-144.0","3E13VNJ1NOHMSBJ9YOXO918HUHUI1F","A1T4GVQH4P0BO","3RBI0I35XEP26UEZY8S8UZLEA1IY3E","","906.8999999910593","img/land5.png","74","908.9000000059605","1","0","2","1","0.8,0.2,0.2,0.2,0.8,0.2,0.2,0.2,0.8","0.8,0.2,0.2,0.2,0.8,0.2,0.2,0.2,0.8","1","",""
"","html-keyboard-response","145","106171","0.0-145.0","3E13VNJ1NOHMSBJ9YOXO918HUHUI1F","A1T4GVQH4P0BO","3RBI0I35XEP26UEZY8S8UZLEA1IY3E","","null","<img src=""img/land5.png"" style=""width:200px;border:14px solid red;"">","null","","","","","","","","","",""
"","image-keyboard-response","146","106418","0.0-146.0","3E13VNJ1NOHMSBJ9YOXO918HUHUI1F","A1T4GVQH4P0BO","3RBI0I35XEP26UEZY8S8UZLEA1IY3E","","244.79999999701977","img/land5.png","75","246.3999999910593","2","1","2","1","0.8,0.2,0.2,0.2,0.8,0.2,0.2,0.2,0.8","0.8,0.2,0.2,0.2,0.8,0.2,0.2,0.2,0.8","1","",""
"","html-keyboard-response","147","106724","0.0-147.0","3E13VNJ1NOHMSBJ9YOXO918HUHUI1F","A1T4GVQH4P0BO","3RBI0I35XEP26UEZY8S8UZLEA1IY3E","","null","<img src=""img/land5.png"" style=""width:200px; border:14px solid green;"">","null","","","","","","","","","",""
"","image-keyboard-response","148","108060","0.0-148.0","3E13VNJ1NOHMSBJ9YOXO918HUHUI1F","A1T4GVQH4P0BO","3RBI0I35XEP26UEZY8S8UZLEA1IY3E","","1333.7000000029802","img/land2.png","75","1336","2","0","1","1","0.8,0.2,0.2,0.2,0.8,0.2,0.2,0.2,0.8","0.8,0.2,0.2,0.2,0.8,0.2,0.2,0.2,0.8","1","",""
"","html-keyboard-response","149","108369","0.0-149.0","3E13VNJ1NOHMSBJ9YOXO918HUHUI1F","A1T4GVQH4P0BO","3RBI0I35XEP26UEZY8S8UZLEA1IY3E","","null","<img src=""img/land2.png"" style=""width:200px;border:14px solid red;"">","null","","","","","","","","","",""
"","image-keyboard-response","150","109235","0.0-150.0","3E13VNJ1NOHMSBJ9YOXO918HUHUI1F","A1T4GVQH4P0BO","3RBI0I35XEP26UEZY8S8UZLEA1IY3E","","863.7000000029802","img/land1.png","74","866","1","0","3","1","0.8,0.2,0.2,0.2,0.8,0.2,0.2,0.2,0.8","0.8,0.2,0.2,0.2,0.8,0.2,0.2,0.2,0.8","1","",""
"","html-keyboard-response","151","109543","0.0-151.0","3E13VNJ1NOHMSBJ9YOXO918HUHUI1F","A1T4GVQH4P0BO","3RBI0I35XEP26UEZY8S8UZLEA1IY3E","","null","<img src=""img/land1.png"" style=""width:200px;border:14px solid red;"">","null","","","","","","","","","",""
"","image-keyboard-response","152","110030","0.0-152.0","3E13VNJ1NOHMSBJ9YOXO918HUHUI1F","A1T4GVQH4P0BO","3RBI0I35XEP26UEZY8S8UZLEA1IY3E","","484.79999999701977","img/land5.png","75","486.70000000298023","2","1","2","1","0.8,0.2,0.2,0.2,0.8,0.2,0.2,0.2,0.8","0.8,0.2,0.2,0.2,0.8,0.2,0.2,0.2,0.8","1","",""
"","html-keyboard-response","153","110340","0.0-153.0","3E13VNJ1NOHMSBJ9YOXO918HUHUI1F","A1T4GVQH4P0BO","3RBI0I35XEP26UEZY8S8UZLEA1IY3E","","null","<img src=""img/land5.png"" style=""width:200px; border:14px solid green;"">","null","","","","","","","","","",""
"","image-keyboard-response","154","110896","0.0-154.0","3E13VNJ1NOHMSBJ9YOXO918HUHUI1F","A1T4GVQH4P0BO","3RBI0I35XEP26UEZY8S8UZLEA1IY3E","","553.6999999880791","img/land5.png","75","555.9000000059605","2","1","2","1","0.8,0.2,0.2,0.2,0.8,0.2,0.2,0.2,0.8","0.8,0.2,0.2,0.2,0.8,0.2,0.2,0.2,0.8","1","",""
"","html-keyboard-response","155","111210","0.0-155.0","3E13VNJ1NOHMSBJ9YOXO918HUHUI1F","A1T4GVQH4P0BO","3RBI0I35XEP26UEZY8S8UZLEA1IY3E","","null","<img src=""img/land5.png"" style=""width:200px; border:14px solid green;"">","null","","","","","","","","","",""
"","image-keyboard-response","156","111835","0.0-156.0","3E13VNJ1NOHMSBJ9YOXO918HUHUI1F","A1T4GVQH4P0BO","3RBI0I35XEP26UEZY8S8UZLEA1IY3E","","622.2000000029802","img/land1.png","74","624.2000000029802","1","0","3","1","0.8,0.2,0.2,0.2,0.8,0.2,0.2,0.2,0.8","0.8,0.2,0.2,0.2,0.8,0.2,0.2,0.2,0.8","1","",""
"","html-keyboard-response","157","112140","0.0-157.0","3E13VNJ1NOHMSBJ9YOXO918HUHUI1F","A1T4GVQH4P0BO","3RBI0I35XEP26UEZY8S8UZLEA1IY3E","","null","<img src=""img/land1.png"" style=""width:200px;border:14px solid red;"">","null","","","","","","","","","",""
"","image-keyboard-response","158","112507","0.0-158.0","3E13VNJ1NOHMSBJ9YOXO918HUHUI1F","A1T4GVQH4P0BO","3RBI0I35XEP26UEZY8S8UZLEA1IY3E","","365.5","img/land5.png","75","367.6000000089407","2","0","2","1","0.8,0.2,0.2,0.2,0.8,0.2,0.2,0.2,0.8","0.8,0.2,0.2,0.2,0.8,0.2,0.2,0.2,0.8","1","",""
"","html-keyboard-response","159","112823","0.0-159.0","3E13VNJ1NOHMSBJ9YOXO918HUHUI1F","A1T4GVQH4P0BO","3RBI0I35XEP26UEZY8S8UZLEA1IY3E","","null","<img src=""img/land5.png"" style=""width:200px;border:14px solid red;"">","null","","","","","","","","","",""
"","image-keyboard-response","160","113284","0.0-160.0","3E13VNJ1NOHMSBJ9YOXO918HUHUI1F","A1T4GVQH4P0BO","3RBI0I35XEP26UEZY8S8UZLEA1IY3E","","458.70000000298023","img/land5.png","76","460.90000000596046","3","1","2","1","0.8,0.2,0.2,0.2,0.8,0.2,0.2,0.2,0.8","0.8,0.2,0.2,0.2,0.8,0.2,0.2,0.2,0.8","1","",""
"","html-keyboard-response","161","113601","0.0-161.0","3E13VNJ1NOHMSBJ9YOXO918HUHUI1F","A1T4GVQH4P0BO","3RBI0I35XEP26UEZY8S8UZLEA1IY3E","","null","<img src=""img/land5.png"" style=""width:200px; border:14px solid green;"">","null","","","","","","","","","",""
"","image-keyboard-response","162","114269","0.0-162.0","3E13VNJ1NOHMSBJ9YOXO918HUHUI1F","A1T4GVQH4P0BO","3RBI0I35XEP26UEZY8S8UZLEA1IY3E","","664.7999999970198","img/land5.png","76","667.0999999940395","3","0","2","1","0.8,0.2,0.2,0.2,0.8,0.2,0.2,0.2,0.8","0.8,0.2,0.2,0.2,0.8,0.2,0.2,0.2,0.8","1","",""
"","html-keyboard-response","163","114579","0.0-163.0","3E13VNJ1NOHMSBJ9YOXO918HUHUI1F","A1T4GVQH4P0BO","3RBI0I35XEP26UEZY8S8UZLEA1IY3E","","null","<img src=""img/land5.png"" style=""width:200px;border:14px solid red;"">","null","","","","","","","","","",""
"","image-keyboard-response","164","115537","0.0-164.0","3E13VNJ1NOHMSBJ9YOXO918HUHUI1F","A1T4GVQH4P0BO","3RBI0I35XEP26UEZY8S8UZLEA1IY3E","","955.4000000059605","img/land1.png","75","957.2999999970198","2","1","3","1","0.8,0.2,0.2,0.2,0.8,0.2,0.2,0.2,0.8","0.8,0.2,0.2,0.2,0.8,0.2,0.2,0.2,0.8","1","",""
"","html-keyboard-response","165","115850","0.0-165.0","3E13VNJ1NOHMSBJ9YOXO918HUHUI1F","A1T4GVQH4P0BO","3RBI0I35XEP26UEZY8S8UZLEA1IY3E","","null","<img src=""img/land1.png"" style=""width:200px; border:14px solid green;"">","null","","","","","","","","","",""
"","image-keyboard-response","166","116848","0.0-166.0","3E13VNJ1NOHMSBJ9YOXO918HUHUI1F","A1T4GVQH4P0BO","3RBI0I35XEP26UEZY8S8UZLEA1IY3E","","996.2999999970198","img/land5.png","75","997.8999999910593","2","1","2","1","0.8,0.2,0.2,0.2,0.8,0.2,0.2,0.2,0.8","0.8,0.2,0.2,0.2,0.8,0.2,0.2,0.2,0.8","1","",""
"","html-keyboard-response","167","117152","0.0-167.0","3E13VNJ1NOHMSBJ9YOXO918HUHUI1F","A1T4GVQH4P0BO","3RBI0I35XEP26UEZY8S8UZLEA1IY3E","","null","<img src=""img/land5.png"" style=""width:200px; border:14px solid green;"">","null","","","","","","","","","",""
"","image-keyboard-response","168","117599","0.0-168.0","3E13VNJ1NOHMSBJ9YOXO918HUHUI1F","A1T4GVQH4P0BO","3RBI0I35XEP26UEZY8S8UZLEA1IY3E","","444.29999999701977","img/land5.png","75","446.29999999701977","2","0","2","1","0.8,0.2,0.2,0.2,0.8,0.2,0.2,0.2,0.8","0.8,0.2,0.2,0.2,0.8,0.2,0.2,0.2,0.8","1","",""
"","html-keyboard-response","169","117915","0.0-169.0","3E13VNJ1NOHMSBJ9YOXO918HUHUI1F","A1T4GVQH4P0BO","3RBI0I35XEP26UEZY8S8UZLEA1IY3E","","null","<img src=""img/land5.png"" style=""width:200px;border:14px solid red;"">","null","","","","","","","","","",""
"","image-keyboard-response","170","118340","0.0-170.0","3E13VNJ1NOHMSBJ9YOXO918HUHUI1F","A1T4GVQH4P0BO","3RBI0I35XEP26UEZY8S8UZLEA1IY3E","","421.79999999701977","img/land5.png","75","423.8999999910593","2","1","2","1","0.8,0.2,0.2,0.2,0.8,0.2,0.2,0.2,0.8","0.8,0.2,0.2,0.2,0.8,0.2,0.2,0.2,0.8","1","",""
"","html-keyboard-response","171","118648","0.0-171.0","3E13VNJ1NOHMSBJ9YOXO918HUHUI1F","A1T4GVQH4P0BO","3RBI0I35XEP26UEZY8S8UZLEA1IY3E","","null","<img src=""img/land5.png"" style=""width:200px; border:14px solid green;"">","null","","","","","","","","","",""
"","image-keyboard-response","172","119479","0.0-172.0","3E13VNJ1NOHMSBJ9YOXO918HUHUI1F","A1T4GVQH4P0BO","3RBI0I35XEP26UEZY8S8UZLEA1IY3E","","828.8999999910593","img/land2.png","75","831","2","1","1","1","0.8,0.2,0.2,0.2,0.8,0.2,0.2,0.2,0.8","0.8,0.2,0.2,0.2,0.8,0.2,0.2,0.2,0.8","1","",""
"","html-keyboard-response","173","119798","0.0-173.0","3E13VNJ1NOHMSBJ9YOXO918HUHUI1F","A1T4GVQH4P0BO","3RBI0I35XEP26UEZY8S8UZLEA1IY3E","","null","<img src=""img/land2.png"" style=""width:200px; border:14px solid green;"">","null","","","","","","","","","",""
"","image-keyboard-response","174","120167","0.0-174.0","3E13VNJ1NOHMSBJ9YOXO918HUHUI1F","A1T4GVQH4P0BO","3RBI0I35XEP26UEZY8S8UZLEA1IY3E","","365.70000000298023","img/land2.png","75","367.90000000596046","2","0","1","1","0.8,0.2,0.2,0.2,0.8,0.2,0.2,0.2,0.8","0.8,0.2,0.2,0.2,0.8,0.2,0.2,0.2,0.8","1","",""
"","html-keyboard-response","175","120484","0.0-175.0","3E13VNJ1NOHMSBJ9YOXO918HUHUI1F","A1T4GVQH4P0BO","3RBI0I35XEP26UEZY8S8UZLEA1IY3E","","null","<img src=""img/land2.png"" style=""width:200px;border:14px solid red;"">","null","","","","","","","","","",""
"","image-keyboard-response","176","121097","0.0-176.0","3E13VNJ1NOHMSBJ9YOXO918HUHUI1F","A1T4GVQH4P0BO","3RBI0I35XEP26UEZY8S8UZLEA1IY3E","","611.1999999880791","img/land1.png","74","612.2999999970198","1","0","3","1","0.8,0.2,0.2,0.2,0.8,0.2,0.2,0.2,0.8","0.8,0.2,0.2,0.2,0.8,0.2,0.2,0.2,0.8","1","",""
"","html-keyboard-response","177","121401","0.0-177.0","3E13VNJ1NOHMSBJ9YOXO918HUHUI1F","A1T4GVQH4P0BO","3RBI0I35XEP26UEZY8S8UZLEA1IY3E","","null","<img src=""img/land1.png"" style=""width:200px;border:14px solid red;"">","null","","","","","","","","","",""
"","image-keyboard-response","178","122365","0.0-178.0","3E13VNJ1NOHMSBJ9YOXO918HUHUI1F","A1T4GVQH4P0BO","3RBI0I35XEP26UEZY8S8UZLEA1IY3E","","961.4000000059605","img/land5.png","75","963.3999999910593","2","1","2","1","0.8,0.2,0.2,0.2,0.8,0.2,0.2,0.2,0.8","0.8,0.2,0.2,0.2,0.8,0.2,0.2,0.2,0.8","1","",""
"","html-keyboard-response","179","122671","0.0-179.0","3E13VNJ1NOHMSBJ9YOXO918HUHUI1F","A1T4GVQH4P0BO","3RBI0I35XEP26UEZY8S8UZLEA1IY3E","","null","<img src=""img/land5.png"" style=""width:200px; border:14px solid green;"">","null","","","","","","","","","",""
"","image-keyboard-response","180","123475","0.0-180.0","3E13VNJ1NOHMSBJ9YOXO918HUHUI1F","A1T4GVQH4P0BO","3RBI0I35XEP26UEZY8S8UZLEA1IY3E","","802","img/land5.png","75","803.5","2","1","2","1","0.8,0.2,0.2,0.2,0.8,0.2,0.2,0.2,0.8","0.8,0.2,0.2,0.2,0.8,0.2,0.2,0.2,0.8","1","",""
"","html-keyboard-response","181","123778","0.0-181.0","3E13VNJ1NOHMSBJ9YOXO918HUHUI1F","A1T4GVQH4P0BO","3RBI0I35XEP26UEZY8S8UZLEA1IY3E","","null","<img src=""img/land5.png"" style=""width:200px; border:14px solid green;"">","null","","","","","","","","","",""
"","html-keyboard-response","182","129492","0.0-182.0","3E13VNJ1NOHMSBJ9YOXO918HUHUI1F","A1T4GVQH4P0BO","3RBI0I35XEP26UEZY8S8UZLEA1IY3E","","","","","","","","","","","","","",""
"","image-keyboard-response","183","131338","0.0-183.0","3E13VNJ1NOHMSBJ9YOXO918HUHUI1F","A1T4GVQH4P0BO","3RBI0I35XEP26UEZY8S8UZLEA1IY3E","","1842.8999999910593","img/land3.png","74","1846","1","1","1","2","0.8,0.2,0.2,0.2,0.8,0.2,0.2,0.2,0.8","0.2,0.8,0.2,0.2,0.2,0.8,0.8,0.2,0.2","3","",""
"","html-keyboard-response","184","131651","0.0-184.0","3E13VNJ1NOHMSBJ9YOXO918HUHUI1F","A1T4GVQH4P0BO","3RBI0I35XEP26UEZY8S8UZLEA1IY3E","","null","<img src=""img/land3.png"" style=""width:200px; border:14px solid green;"">","null","","","","","","","","","",""
"","image-keyboard-response","185","132329","0.0-185.0","3E13VNJ1NOHMSBJ9YOXO918HUHUI1F","A1T4GVQH4P0BO","3RBI0I35XEP26UEZY8S8UZLEA1IY3E","","676.9000000059605","img/land3.png","74","677.6999999880791","1","0","1","2","0.8,0.2,0.2,0.2,0.8,0.2,0.2,0.2,0.8","0.2,0.8,0.2,0.2,0.2,0.8,0.8,0.2,0.2","3","",""
"","html-keyboard-response","186","132636","0.0-186.0","3E13VNJ1NOHMSBJ9YOXO918HUHUI1F","A1T4GVQH4P0BO","3RBI0I35XEP26UEZY8S8UZLEA1IY3E","","null","<img src=""img/land3.png"" style=""width:200px;border:14px solid red;"">","null","","","","","","","","","",""
"","image-keyboard-response","187","133268","0.0-187.0","3E13VNJ1NOHMSBJ9YOXO918HUHUI1F","A1T4GVQH4P0BO","3RBI0I35XEP26UEZY8S8UZLEA1IY3E","","629.7000000029802","img/land3.png","74","631.2999999970198","1","0","1","2","0.8,0.2,0.2,0.2,0.8,0.2,0.2,0.2,0.8","0.2,0.8,0.2,0.2,0.2,0.8,0.8,0.2,0.2","3","",""
"","html-keyboard-response","188","133580","0.0-188.0","3E13VNJ1NOHMSBJ9YOXO918HUHUI1F","A1T4GVQH4P0BO","3RBI0I35XEP26UEZY8S8UZLEA1IY3E","","null","<img src=""img/land3.png"" style=""width:200px;border:14px solid red;"">","null","","","","","","","","","",""
"","image-keyboard-response","189","134433","0.0-189.0","3E13VNJ1NOHMSBJ9YOXO918HUHUI1F","A1T4GVQH4P0BO","3RBI0I35XEP26UEZY8S8UZLEA1IY3E","","850.5999999940395","img/land4.png","75","852.7999999970198","2","0","3","2","0.8,0.2,0.2,0.2,0.8,0.2,0.2,0.2,0.8","0.2,0.8,0.2,0.2,0.2,0.8,0.8,0.2,0.2","3","",""
"","html-keyboard-response","190","134739","0.0-190.0","3E13VNJ1NOHMSBJ9YOXO918HUHUI1F","A1T4GVQH4P0BO","3RBI0I35XEP26UEZY8S8UZLEA1IY3E","","null","<img src=""img/land4.png"" style=""width:200px;border:14px solid red;"">","null","","","","","","","","","",""
"","image-keyboard-response","191","135316","0.0-191.0","3E13VNJ1NOHMSBJ9YOXO918HUHUI1F","A1T4GVQH4P0BO","3RBI0I35XEP26UEZY8S8UZLEA1IY3E","","574.3000000119209","img/land3.png","74","576.2000000029802","1","0","1","2","0.8,0.2,0.2,0.2,0.8,0.2,0.2,0.2,0.8","0.2,0.8,0.2,0.2,0.2,0.8,0.8,0.2,0.2","3","",""
"","html-keyboard-response","192","135625","0.0-192.0","3E13VNJ1NOHMSBJ9YOXO918HUHUI1F","A1T4GVQH4P0BO","3RBI0I35XEP26UEZY8S8UZLEA1IY3E","","null","<img src=""img/land3.png"" style=""width:200px;border:14px solid red;"">","null","","","","","","","","","",""
"","image-keyboard-response","193","136401","0.0-193.0","3E13VNJ1NOHMSBJ9YOXO918HUHUI1F","A1T4GVQH4P0BO","3RBI0I35XEP26UEZY8S8UZLEA1IY3E","","773.7999999970198","img/land3.png","76","775.9000000059605","3","0","1","2","0.8,0.2,0.2,0.2,0.8,0.2,0.2,0.2,0.8","0.2,0.8,0.2,0.2,0.2,0.8,0.8,0.2,0.2","3","",""
"","html-keyboard-response","194","136704","0.0-194.0","3E13VNJ1NOHMSBJ9YOXO918HUHUI1F","A1T4GVQH4P0BO","3RBI0I35XEP26UEZY8S8UZLEA1IY3E","","null","<img src=""img/land3.png"" style=""width:200px;border:14px solid red;"">","null","","","","","","","","","",""
"","image-keyboard-response","195","137434","0.0-195.0","3E13VNJ1NOHMSBJ9YOXO918HUHUI1F","A1T4GVQH4P0BO","3RBI0I35XEP26UEZY8S8UZLEA1IY3E","","726.9000000059605","img/land4.png","75","729","2","0","3","2","0.8,0.2,0.2,0.2,0.8,0.2,0.2,0.2,0.8","0.2,0.8,0.2,0.2,0.2,0.8,0.8,0.2,0.2","3","",""
"","html-keyboard-response","196","137742","0.0-196.0","3E13VNJ1NOHMSBJ9YOXO918HUHUI1F","A1T4GVQH4P0BO","3RBI0I35XEP26UEZY8S8UZLEA1IY3E","","null","<img src=""img/land4.png"" style=""width:200px;border:14px solid red;"">","null","","","","","","","","","",""
"","image-keyboard-response","197","138638","0.0-197.0","3E13VNJ1NOHMSBJ9YOXO918HUHUI1F","A1T4GVQH4P0BO","3RBI0I35XEP26UEZY8S8UZLEA1IY3E","","893.1000000089407","img/land3.png","74","895.2999999970198","1","1","1","2","0.8,0.2,0.2,0.2,0.8,0.2,0.2,0.2,0.8","0.2,0.8,0.2,0.2,0.2,0.8,0.8,0.2,0.2","3","",""
"","html-keyboard-response","198","138948","0.0-198.0","3E13VNJ1NOHMSBJ9YOXO918HUHUI1F","A1T4GVQH4P0BO","3RBI0I35XEP26UEZY8S8UZLEA1IY3E","","null","<img src=""img/land3.png"" style=""width:200px; border:14px solid green;"">","null","","","","","","","","","",""
"","image-keyboard-response","199","139640","0.0-199.0","3E13VNJ1NOHMSBJ9YOXO918HUHUI1F","A1T4GVQH4P0BO","3RBI0I35XEP26UEZY8S8UZLEA1IY3E","","689.9000000059605","img/land3.png","74","692","1","0","1","2","0.8,0.2,0.2,0.2,0.8,0.2,0.2,0.2,0.8","0.2,0.8,0.2,0.2,0.2,0.8,0.8,0.2,0.2","3","",""
"","html-keyboard-response","200","139948","0.0-200.0","3E13VNJ1NOHMSBJ9YOXO918HUHUI1F","A1T4GVQH4P0BO","3RBI0I35XEP26UEZY8S8UZLEA1IY3E","","null","<img src=""img/land3.png"" style=""width:200px;border:14px solid red;"">","null","","","","","","","","","",""
"","image-keyboard-response","201","140518","0.0-201.0","3E13VNJ1NOHMSBJ9YOXO918HUHUI1F","A1T4GVQH4P0BO","3RBI0I35XEP26UEZY8S8UZLEA1IY3E","","567.7000000029802","img/land3.png","74","569.7000000029802","1","1","1","2","0.8,0.2,0.2,0.2,0.8,0.2,0.2,0.2,0.8","0.2,0.8,0.2,0.2,0.2,0.8,0.8,0.2,0.2","3","",""
"","html-keyboard-response","202","140828","0.0-202.0","3E13VNJ1NOHMSBJ9YOXO918HUHUI1F","A1T4GVQH4P0BO","3RBI0I35XEP26UEZY8S8UZLEA1IY3E","","null","<img src=""img/land3.png"" style=""width:200px; border:14px solid green;"">","null","","","","","","","","","",""
"","image-keyboard-response","203","141248","0.0-203.0","3E13VNJ1NOHMSBJ9YOXO918HUHUI1F","A1T4GVQH4P0BO","3RBI0I35XEP26UEZY8S8UZLEA1IY3E","","418","img/land3.png","74","420","1","1","1","2","0.8,0.2,0.2,0.2,0.8,0.2,0.2,0.2,0.8","0.2,0.8,0.2,0.2,0.2,0.8,0.8,0.2,0.2","3","",""
"","html-keyboard-response","204","141553","0.0-204.0","3E13VNJ1NOHMSBJ9YOXO918HUHUI1F","A1T4GVQH4P0BO","3RBI0I35XEP26UEZY8S8UZLEA1IY3E","","null","<img src=""img/land3.png"" style=""width:200px; border:14px solid green;"">","null","","","","","","","","","",""
"","image-keyboard-response","205","141885","0.0-205.0","3E13VNJ1NOHMSBJ9YOXO918HUHUI1F","A1T4GVQH4P0BO","3RBI0I35XEP26UEZY8S8UZLEA1IY3E","","329.5","img/land3.png","74","331.79999999701977","1","0","1","2","0.8,0.2,0.2,0.2,0.8,0.2,0.2,0.2,0.8","0.2,0.8,0.2,0.2,0.2,0.8,0.8,0.2,0.2","3","",""
"","html-keyboard-response","206","142191","0.0-206.0","3E13VNJ1NOHMSBJ9YOXO918HUHUI1F","A1T4GVQH4P0BO","3RBI0I35XEP26UEZY8S8UZLEA1IY3E","","null","<img src=""img/land3.png"" style=""width:200px;border:14px solid red;"">","null","","","","","","","","","",""
"","image-keyboard-response","207","142466","0.0-207.0","3E13VNJ1NOHMSBJ9YOXO918HUHUI1F","A1T4GVQH4P0BO","3RBI0I35XEP26UEZY8S8UZLEA1IY3E","","272.1000000089407","img/land3.png","75","273.8999999910593","2","0","1","2","0.8,0.2,0.2,0.2,0.8,0.2,0.2,0.2,0.8","0.2,0.8,0.2,0.2,0.2,0.8,0.8,0.2,0.2","3","",""
"","html-keyboard-response","208","142785","0.0-208.0","3E13VNJ1NOHMSBJ9YOXO918HUHUI1F","A1T4GVQH4P0BO","3RBI0I35XEP26UEZY8S8UZLEA1IY3E","","null","<img src=""img/land3.png"" style=""width:200px;border:14px solid red;"">","null","","","","","","","","","",""
"","image-keyboard-response","209","142948","0.0-209.0","3E13VNJ1NOHMSBJ9YOXO918HUHUI1F","A1T4GVQH4P0BO","3RBI0I35XEP26UEZY8S8UZLEA1IY3E","","160.5","img/land3.png","76","162.59999999403954","3","0","1","2","0.8,0.2,0.2,0.2,0.8,0.2,0.2,0.2,0.8","0.2,0.8,0.2,0.2,0.2,0.8,0.8,0.2,0.2","3","",""
"","html-keyboard-response","210","143265","0.0-210.0","3E13VNJ1NOHMSBJ9YOXO918HUHUI1F","A1T4GVQH4P0BO","3RBI0I35XEP26UEZY8S8UZLEA1IY3E","","null","<img src=""img/land3.png"" style=""width:200px;border:14px solid red;"">","null","","","","","","","","","",""
"","image-keyboard-response","211","144308","0.0-211.0","3E13VNJ1NOHMSBJ9YOXO918HUHUI1F","A1T4GVQH4P0BO","3RBI0I35XEP26UEZY8S8UZLEA1IY3E","","1040.7999999970198","img/land4.png","74","1042.7000000029802","1","1","3","2","0.8,0.2,0.2,0.2,0.8,0.2,0.2,0.2,0.8","0.2,0.8,0.2,0.2,0.2,0.8,0.8,0.2,0.2","3","",""
"","html-keyboard-response","212","144622","0.0-212.0","3E13VNJ1NOHMSBJ9YOXO918HUHUI1F","A1T4GVQH4P0BO","3RBI0I35XEP26UEZY8S8UZLEA1IY3E","","null","<img src=""img/land4.png"" style=""width:200px; border:14px solid green;"">","null","","","","","","","","","",""
"","image-keyboard-response","213","145061","0.0-213.0","3E13VNJ1NOHMSBJ9YOXO918HUHUI1F","A1T4GVQH4P0BO","3RBI0I35XEP26UEZY8S8UZLEA1IY3E","","437.29999999701977","img/land4.png","75","438.90000000596046","2","0","3","2","0.8,0.2,0.2,0.2,0.8,0.2,0.2,0.2,0.8","0.2,0.8,0.2,0.2,0.2,0.8,0.8,0.2,0.2","3","",""
"","html-keyboard-response","214","145378","0.0-214.0","3E13VNJ1NOHMSBJ9YOXO918HUHUI1F","A1T4GVQH4P0BO","3RBI0I35XEP26UEZY8S8UZLEA1IY3E","","null","<img src=""img/land4.png"" style=""width:200px;border:14px solid red;"">","null","","","","","","","","","",""
"","image-keyboard-response","215","146231","0.0-215.0","3E13VNJ1NOHMSBJ9YOXO918HUHUI1F","A1T4GVQH4P0BO","3RBI0I35XEP26UEZY8S8UZLEA1IY3E","","850.0999999940395","img/land3.png","74","852.2999999970198","1","0","1","2","0.8,0.2,0.2,0.2,0.8,0.2,0.2,0.2,0.8","0.2,0.8,0.2,0.2,0.2,0.8,0.8,0.2,0.2","3","",""
"","html-keyboard-response","216","146536","0.0-216.0","3E13VNJ1NOHMSBJ9YOXO918HUHUI1F","A1T4GVQH4P0BO","3RBI0I35XEP26UEZY8S8UZLEA1IY3E","","null","<img src=""img/land3.png"" style=""width:200px;border:14px solid red;"">","null","","","","","","","","","",""
"","image-keyboard-response","217","147181","0.0-217.0","3E13VNJ1NOHMSBJ9YOXO918HUHUI1F","A1T4GVQH4P0BO","3RBI0I35XEP26UEZY8S8UZLEA1IY3E","","643.1000000089407","img/land3.png","76","645.1000000089407","3","0","1","2","0.8,0.2,0.2,0.2,0.8,0.2,0.2,0.2,0.8","0.2,0.8,0.2,0.2,0.2,0.8,0.8,0.2,0.2","3","",""
"","html-keyboard-response","218","147489","0.0-218.0","3E13VNJ1NOHMSBJ9YOXO918HUHUI1F","A1T4GVQH4P0BO","3RBI0I35XEP26UEZY8S8UZLEA1IY3E","","null","<img src=""img/land3.png"" style=""width:200px;border:14px solid red;"">","null","","","","","","","","","",""
"","image-keyboard-response","219","147814","0.0-219.0","3E13VNJ1NOHMSBJ9YOXO918HUHUI1F","A1T4GVQH4P0BO","3RBI0I35XEP26UEZY8S8UZLEA1IY3E","","322","img/land3.png","75","324.20000000298023","2","1","1","2","0.8,0.2,0.2,0.2,0.8,0.2,0.2,0.2,0.8","0.2,0.8,0.2,0.2,0.2,0.8,0.8,0.2,0.2","3","",""
"","html-keyboard-response","220","148126","0.0-220.0","3E13VNJ1NOHMSBJ9YOXO918HUHUI1F","A1T4GVQH4P0BO","3RBI0I35XEP26UEZY8S8UZLEA1IY3E","","null","<img src=""img/land3.png"" style=""width:200px; border:14px solid green;"">","null","","","","","","","","","",""
"","image-keyboard-response","221","149551","0.0-221.0","3E13VNJ1NOHMSBJ9YOXO918HUHUI1F","A1T4GVQH4P0BO","3RBI0I35XEP26UEZY8S8UZLEA1IY3E","","1422.2999999970198","img/land6.png","76","1424.4000000059605","3","1","2","2","0.8,0.2,0.2,0.2,0.8,0.2,0.2,0.2,0.8","0.2,0.8,0.2,0.2,0.2,0.8,0.8,0.2,0.2","3","",""
"","html-keyboard-response","222","149857","0.0-222.0","3E13VNJ1NOHMSBJ9YOXO918HUHUI1F","A1T4GVQH4P0BO","3RBI0I35XEP26UEZY8S8UZLEA1IY3E","","null","<img src=""img/land6.png"" style=""width:200px; border:14px solid green;"">","null","","","","","","","","","",""
"","image-keyboard-response","223","150391","0.0-223.0","3E13VNJ1NOHMSBJ9YOXO918HUHUI1F","A1T4GVQH4P0BO","3RBI0I35XEP26UEZY8S8UZLEA1IY3E","","532.0999999940395","img/land3.png","75","533.4000000059605","2","1","1","2","0.8,0.2,0.2,0.2,0.8,0.2,0.2,0.2,0.8","0.2,0.8,0.2,0.2,0.2,0.8,0.8,0.2,0.2","3","",""
"","html-keyboard-response","224","150704","0.0-224.0","3E13VNJ1NOHMSBJ9YOXO918HUHUI1F","A1T4GVQH4P0BO","3RBI0I35XEP26UEZY8S8UZLEA1IY3E","","null","<img src=""img/land3.png"" style=""width:200px; border:14px solid green;"">","null","","","","","","","","","",""
"","image-keyboard-response","225","151228","0.0-225.0","3E13VNJ1NOHMSBJ9YOXO918HUHUI1F","A1T4GVQH4P0BO","3RBI0I35XEP26UEZY8S8UZLEA1IY3E","","520.7000000029802","img/land6.png","76","522.9000000059605","3","1","2","2","0.8,0.2,0.2,0.2,0.8,0.2,0.2,0.2,0.8","0.2,0.8,0.2,0.2,0.2,0.8,0.8,0.2,0.2","3","",""
"","html-keyboard-response","226","151536","0.0-226.0","3E13VNJ1NOHMSBJ9YOXO918HUHUI1F","A1T4GVQH4P0BO","3RBI0I35XEP26UEZY8S8UZLEA1IY3E","","null","<img src=""img/land6.png"" style=""width:200px; border:14px solid green;"">","null","","","","","","","","","",""
"","image-keyboard-response","227","151932","0.0-227.0","3E13VNJ1NOHMSBJ9YOXO918HUHUI1F","A1T4GVQH4P0BO","3RBI0I35XEP26UEZY8S8UZLEA1IY3E","","393.20000000298023","img/land3.png","75","395.59999999403954","2","1","1","2","0.8,0.2,0.2,0.2,0.8,0.2,0.2,0.2,0.8","0.2,0.8,0.2,0.2,0.2,0.8,0.8,0.2,0.2","3","",""
"","html-keyboard-response","228","152239","0.0-228.0","3E13VNJ1NOHMSBJ9YOXO918HUHUI1F","A1T4GVQH4P0BO","3RBI0I35XEP26UEZY8S8UZLEA1IY3E","","null","<img src=""img/land3.png"" style=""width:200px; border:14px solid green;"">","null","","","","","","","","","",""
"","image-keyboard-response","229","152633","0.0-229.0","3E13VNJ1NOHMSBJ9YOXO918HUHUI1F","A1T4GVQH4P0BO","3RBI0I35XEP26UEZY8S8UZLEA1IY3E","","391.30000001192093","img/land3.png","75","393.29999999701977","2","1","1","2","0.8,0.2,0.2,0.2,0.8,0.2,0.2,0.2,0.8","0.2,0.8,0.2,0.2,0.2,0.8,0.8,0.2,0.2","3","",""
"","html-keyboard-response","230","152948","0.0-230.0","3E13VNJ1NOHMSBJ9YOXO918HUHUI1F","A1T4GVQH4P0BO","3RBI0I35XEP26UEZY8S8UZLEA1IY3E","","null","<img src=""img/land3.png"" style=""width:200px; border:14px solid green;"">","null","","","","","","","","","",""
"","image-keyboard-response","231","153783","0.0-231.0","3E13VNJ1NOHMSBJ9YOXO918HUHUI1F","A1T4GVQH4P0BO","3RBI0I35XEP26UEZY8S8UZLEA1IY3E","","832.7999999970198","img/land6.png","76","834.7999999970198","3","0","2","2","0.8,0.2,0.2,0.2,0.8,0.2,0.2,0.2,0.8","0.2,0.8,0.2,0.2,0.2,0.8,0.8,0.2,0.2","3","",""
"","html-keyboard-response","232","154098","0.0-232.0","3E13VNJ1NOHMSBJ9YOXO918HUHUI1F","A1T4GVQH4P0BO","3RBI0I35XEP26UEZY8S8UZLEA1IY3E","","null","<img src=""img/land6.png"" style=""width:200px;border:14px solid red;"">","null","","","","","","","","","",""
"","image-keyboard-response","233","154618","0.0-233.0","3E13VNJ1NOHMSBJ9YOXO918HUHUI1F","A1T4GVQH4P0BO","3RBI0I35XEP26UEZY8S8UZLEA1IY3E","","517.5","img/land4.png","75","519.5","2","1","3","2","0.8,0.2,0.2,0.2,0.8,0.2,0.2,0.2,0.8","0.2,0.8,0.2,0.2,0.2,0.8,0.8,0.2,0.2","3","",""
"","html-keyboard-response","234","154922","0.0-234.0","3E13VNJ1NOHMSBJ9YOXO918HUHUI1F","A1T4GVQH4P0BO","3RBI0I35XEP26UEZY8S8UZLEA1IY3E","","null","<img src=""img/land4.png"" style=""width:200px; border:14px solid green;"">","null","","","","","","","","","",""
"","image-keyboard-response","235","155828","0.0-235.0","3E13VNJ1NOHMSBJ9YOXO918HUHUI1F","A1T4GVQH4P0BO","3RBI0I35XEP26UEZY8S8UZLEA1IY3E","","904.4000000059605","img/land3.png","75","905.8999999910593","2","0","1","2","0.8,0.2,0.2,0.2,0.8,0.2,0.2,0.2,0.8","0.2,0.8,0.2,0.2,0.2,0.8,0.8,0.2,0.2","3","",""
"","html-keyboard-response","236","156139","0.0-236.0","3E13VNJ1NOHMSBJ9YOXO918HUHUI1F","A1T4GVQH4P0BO","3RBI0I35XEP26UEZY8S8UZLEA1IY3E","","null","<img src=""img/land3.png"" style=""width:200px;border:14px solid red;"">","null","","","","","","","","","",""
"","image-keyboard-response","237","156714","0.0-237.0","3E13VNJ1NOHMSBJ9YOXO918HUHUI1F","A1T4GVQH4P0BO","3RBI0I35XEP26UEZY8S8UZLEA1IY3E","","572","img/land3.png","75","574","2","1","1","2","0.8,0.2,0.2,0.2,0.8,0.2,0.2,0.2,0.8","0.2,0.8,0.2,0.2,0.2,0.8,0.8,0.2,0.2","3","",""
"","html-keyboard-response","238","157025","0.0-238.0","3E13VNJ1NOHMSBJ9YOXO918HUHUI1F","A1T4GVQH4P0BO","3RBI0I35XEP26UEZY8S8UZLEA1IY3E","","null","<img src=""img/land3.png"" style=""width:200px; border:14px solid green;"">","null","","","","","","","","","",""
"","image-keyboard-response","239","157674","0.0-239.0","3E13VNJ1NOHMSBJ9YOXO918HUHUI1F","A1T4GVQH4P0BO","3RBI0I35XEP26UEZY8S8UZLEA1IY3E","","647.4000000059605","img/land4.png","74","649.2999999970198","1","1","3","2","0.8,0.2,0.2,0.2,0.8,0.2,0.2,0.2,0.8","0.2,0.8,0.2,0.2,0.2,0.8,0.8,0.2,0.2","3","",""
"","html-keyboard-response","240","157980","0.0-240.0","3E13VNJ1NOHMSBJ9YOXO918HUHUI1F","A1T4GVQH4P0BO","3RBI0I35XEP26UEZY8S8UZLEA1IY3E","","null","<img src=""img/land4.png"" style=""width:200px; border:14px solid green;"">","null","","","","","","","","","",""
"","image-keyboard-response","241","158481","0.0-241.0","3E13VNJ1NOHMSBJ9YOXO918HUHUI1F","A1T4GVQH4P0BO","3RBI0I35XEP26UEZY8S8UZLEA1IY3E","","497.69999998807907","img/land6.png","75","499.80000001192093","2","1","2","2","0.8,0.2,0.2,0.2,0.8,0.2,0.2,0.2,0.8","0.2,0.8,0.2,0.2,0.2,0.8,0.8,0.2,0.2","3","",""
"","html-keyboard-response","242","158796","0.0-242.0","3E13VNJ1NOHMSBJ9YOXO918HUHUI1F","A1T4GVQH4P0BO","3RBI0I35XEP26UEZY8S8UZLEA1IY3E","","null","<img src=""img/land6.png"" style=""width:200px; border:14px solid green;"">","null","","","","","","","","","",""
"","image-keyboard-response","243","159263","0.0-243.0","3E13VNJ1NOHMSBJ9YOXO918HUHUI1F","A1T4GVQH4P0BO","3RBI0I35XEP26UEZY8S8UZLEA1IY3E","","465.90000000596046","img/land4.png","74","467.09999999403954","1","0","3","2","0.8,0.2,0.2,0.2,0.8,0.2,0.2,0.2,0.8","0.2,0.8,0.2,0.2,0.2,0.8,0.8,0.2,0.2","3","",""
"","html-keyboard-response","244","159572","0.0-244.0","3E13VNJ1NOHMSBJ9YOXO918HUHUI1F","A1T4GVQH4P0BO","3RBI0I35XEP26UEZY8S8UZLEA1IY3E","","null","<img src=""img/land4.png"" style=""width:200px;border:14px solid red;"">","null","","","","","","","","","",""
"","image-keyboard-response","245","160220","0.0-245.0","3E13VNJ1NOHMSBJ9YOXO918HUHUI1F","A1T4GVQH4P0BO","3RBI0I35XEP26UEZY8S8UZLEA1IY3E","","646.5999999940395","img/land3.png","75","647.9000000059605","2","1","1","2","0.8,0.2,0.2,0.2,0.8,0.2,0.2,0.2,0.8","0.2,0.8,0.2,0.2,0.2,0.8,0.8,0.2,0.2","3","",""
"","html-keyboard-response","246","160536","0.0-246.0","3E13VNJ1NOHMSBJ9YOXO918HUHUI1F","A1T4GVQH4P0BO","3RBI0I35XEP26UEZY8S8UZLEA1IY3E","","null","<img src=""img/land3.png"" style=""width:200px; border:14px solid green;"">","null","","","","","","","","","",""
"","image-keyboard-response","247","161266","0.0-247.0","3E13VNJ1NOHMSBJ9YOXO918HUHUI1F","A1T4GVQH4P0BO","3RBI0I35XEP26UEZY8S8UZLEA1IY3E","","727.1999999880791","img/land6.png","76","729.5999999940395","3","1","2","2","0.8,0.2,0.2,0.2,0.8,0.2,0.2,0.2,0.8","0.2,0.8,0.2,0.2,0.2,0.8,0.8,0.2,0.2","3","",""
"","html-keyboard-response","248","161576","0.0-248.0","3E13VNJ1NOHMSBJ9YOXO918HUHUI1F","A1T4GVQH4P0BO","3RBI0I35XEP26UEZY8S8UZLEA1IY3E","","null","<img src=""img/land6.png"" style=""width:200px; border:14px solid green;"">","null","","","","","","","","","",""
"","image-keyboard-response","249","161995","0.0-249.0","3E13VNJ1NOHMSBJ9YOXO918HUHUI1F","A1T4GVQH4P0BO","3RBI0I35XEP26UEZY8S8UZLEA1IY3E","","416.70000000298023","img/land3.png","75","419.29999999701977","2","1","1","2","0.8,0.2,0.2,0.2,0.8,0.2,0.2,0.2,0.8","0.2,0.8,0.2,0.2,0.2,0.8,0.8,0.2,0.2","3","",""
"","html-keyboard-response","250","162314","0.0-250.0","3E13VNJ1NOHMSBJ9YOXO918HUHUI1F","A1T4GVQH4P0BO","3RBI0I35XEP26UEZY8S8UZLEA1IY3E","","null","<img src=""img/land3.png"" style=""width:200px; border:14px solid green;"">","null","","","","","","","","","",""
"","image-keyboard-response","251","162878","0.0-251.0","3E13VNJ1NOHMSBJ9YOXO918HUHUI1F","A1T4GVQH4P0BO","3RBI0I35XEP26UEZY8S8UZLEA1IY3E","","561.7000000029802","img/land3.png","75","563.9000000059605","2","1","1","2","0.8,0.2,0.2,0.2,0.8,0.2,0.2,0.2,0.8","0.2,0.8,0.2,0.2,0.2,0.8,0.8,0.2,0.2","3","",""
"","html-keyboard-response","252","163189","0.0-252.0","3E13VNJ1NOHMSBJ9YOXO918HUHUI1F","A1T4GVQH4P0BO","3RBI0I35XEP26UEZY8S8UZLEA1IY3E","","null","<img src=""img/land3.png"" style=""width:200px; border:14px solid green;"">","null","","","","","","","","","",""
"","image-keyboard-response","253","163738","0.0-253.0","3E13VNJ1NOHMSBJ9YOXO918HUHUI1F","A1T4GVQH4P0BO","3RBI0I35XEP26UEZY8S8UZLEA1IY3E","","547","img/land6.png","76","549.1999999880791","3","1","2","2","0.8,0.2,0.2,0.2,0.8,0.2,0.2,0.2,0.8","0.2,0.8,0.2,0.2,0.2,0.8,0.8,0.2,0.2","3","",""
"","html-keyboard-response","254","164042","0.0-254.0","3E13VNJ1NOHMSBJ9YOXO918HUHUI1F","A1T4GVQH4P0BO","3RBI0I35XEP26UEZY8S8UZLEA1IY3E","","null","<img src=""img/land6.png"" style=""width:200px; border:14px solid green;"">","null","","","","","","","","","",""
"","image-keyboard-response","255","164554","0.0-255.0","3E13VNJ1NOHMSBJ9YOXO918HUHUI1F","A1T4GVQH4P0BO","3RBI0I35XEP26UEZY8S8UZLEA1IY3E","","509.40000000596046","img/land6.png","76","511.5","3","1","2","2","0.8,0.2,0.2,0.2,0.8,0.2,0.2,0.2,0.8","0.2,0.8,0.2,0.2,0.2,0.8,0.8,0.2,0.2","3","",""
"","html-keyboard-response","256","164868","0.0-256.0","3E13VNJ1NOHMSBJ9YOXO918HUHUI1F","A1T4GVQH4P0BO","3RBI0I35XEP26UEZY8S8UZLEA1IY3E","","null","<img src=""img/land6.png"" style=""width:200px; border:14px solid green;"">","null","","","","","","","","","",""
"","image-keyboard-response","257","165394","0.0-257.0","3E13VNJ1NOHMSBJ9YOXO918HUHUI1F","A1T4GVQH4P0BO","3RBI0I35XEP26UEZY8S8UZLEA1IY3E","","523.8000000119209","img/land3.png","75","525.1000000089407","2","1","1","2","0.8,0.2,0.2,0.2,0.8,0.2,0.2,0.2,0.8","0.2,0.8,0.2,0.2,0.2,0.8,0.8,0.2,0.2","3","",""
"","html-keyboard-response","258","165702","0.0-258.0","3E13VNJ1NOHMSBJ9YOXO918HUHUI1F","A1T4GVQH4P0BO","3RBI0I35XEP26UEZY8S8UZLEA1IY3E","","null","<img src=""img/land3.png"" style=""width:200px; border:14px solid green;"">","null","","","","","","","","","",""
"","image-keyboard-response","259","166051","0.0-259.0","3E13VNJ1NOHMSBJ9YOXO918HUHUI1F","A1T4GVQH4P0BO","3RBI0I35XEP26UEZY8S8UZLEA1IY3E","","348.29999999701977","img/land3.png","75","350.09999999403954","2","1","1","2","0.8,0.2,0.2,0.2,0.8,0.2,0.2,0.2,0.8","0.2,0.8,0.2,0.2,0.2,0.8,0.8,0.2,0.2","3","",""
"","html-keyboard-response","260","166363","0.0-260.0","3E13VNJ1NOHMSBJ9YOXO918HUHUI1F","A1T4GVQH4P0BO","3RBI0I35XEP26UEZY8S8UZLEA1IY3E","","null","<img src=""img/land3.png"" style=""width:200px; border:14px solid green;"">","null","","","","","","","","","",""
"","image-keyboard-response","261","166655","0.0-261.0","3E13VNJ1NOHMSBJ9YOXO918HUHUI1F","A1T4GVQH4P0BO","3RBI0I35XEP26UEZY8S8UZLEA1IY3E","","290.29999999701977","img/land3.png","75","292.09999999403954","2","1","1","2","0.8,0.2,0.2,0.2,0.8,0.2,0.2,0.2,0.8","0.2,0.8,0.2,0.2,0.2,0.8,0.8,0.2,0.2","3","",""
"","html-keyboard-response","262","166970","0.0-262.0","3E13VNJ1NOHMSBJ9YOXO918HUHUI1F","A1T4GVQH4P0BO","3RBI0I35XEP26UEZY8S8UZLEA1IY3E","","null","<img src=""img/land3.png"" style=""width:200px; border:14px solid green;"">","null","","","","","","","","","",""
"","image-keyboard-response","263","167311","0.0-263.0","3E13VNJ1NOHMSBJ9YOXO918HUHUI1F","A1T4GVQH4P0BO","3RBI0I35XEP26UEZY8S8UZLEA1IY3E","","338.20000000298023","img/land3.png","75","340.29999999701977","2","0","1","2","0.8,0.2,0.2,0.2,0.8,0.2,0.2,0.2,0.8","0.2,0.8,0.2,0.2,0.2,0.8,0.8,0.2,0.2","3","",""
"","html-keyboard-response","264","167617","0.0-264.0","3E13VNJ1NOHMSBJ9YOXO918HUHUI1F","A1T4GVQH4P0BO","3RBI0I35XEP26UEZY8S8UZLEA1IY3E","","null","<img src=""img/land3.png"" style=""width:200px;border:14px solid red;"">","null","","","","","","","","","",""
"","image-keyboard-response","265","167966","0.0-265.0","3E13VNJ1NOHMSBJ9YOXO918HUHUI1F","A1T4GVQH4P0BO","3RBI0I35XEP26UEZY8S8UZLEA1IY3E","","347.09999999403954","img/land3.png","75","348.3999999910593","2","1","1","2","0.8,0.2,0.2,0.2,0.8,0.2,0.2,0.2,0.8","0.2,0.8,0.2,0.2,0.2,0.8,0.8,0.2,0.2","3","",""
"","html-keyboard-response","266","168280","0.0-266.0","3E13VNJ1NOHMSBJ9YOXO918HUHUI1F","A1T4GVQH4P0BO","3RBI0I35XEP26UEZY8S8UZLEA1IY3E","","null","<img src=""img/land3.png"" style=""width:200px; border:14px solid green;"">","null","","","","","","","","","",""
"","image-keyboard-response","267","168545","0.0-267.0","3E13VNJ1NOHMSBJ9YOXO918HUHUI1F","A1T4GVQH4P0BO","3RBI0I35XEP26UEZY8S8UZLEA1IY3E","","263","img/land3.png","75","264.90000000596046","2","0","1","2","0.8,0.2,0.2,0.2,0.8,0.2,0.2,0.2,0.8","0.2,0.8,0.2,0.2,0.2,0.8,0.8,0.2,0.2","3","",""
"","html-keyboard-response","268","168853","0.0-268.0","3E13VNJ1NOHMSBJ9YOXO918HUHUI1F","A1T4GVQH4P0BO","3RBI0I35XEP26UEZY8S8UZLEA1IY3E","","null","<img src=""img/land3.png"" style=""width:200px;border:14px solid red;"">","null","","","","","","","","","",""
"","image-keyboard-response","269","169121","0.0-269.0","3E13VNJ1NOHMSBJ9YOXO918HUHUI1F","A1T4GVQH4P0BO","3RBI0I35XEP26UEZY8S8UZLEA1IY3E","","265","img/land3.png","75","267.09999999403954","2","1","1","2","0.8,0.2,0.2,0.2,0.8,0.2,0.2,0.2,0.8","0.2,0.8,0.2,0.2,0.2,0.8,0.8,0.2,0.2","3","",""
"","html-keyboard-response","270","169427","0.0-270.0","3E13VNJ1NOHMSBJ9YOXO918HUHUI1F","A1T4GVQH4P0BO","3RBI0I35XEP26UEZY8S8UZLEA1IY3E","","null","<img src=""img/land3.png"" style=""width:200px; border:14px solid green;"">","null","","","","","","","","","",""
"","image-keyboard-response","271","170674","0.0-271.0","3E13VNJ1NOHMSBJ9YOXO918HUHUI1F","A1T4GVQH4P0BO","3RBI0I35XEP26UEZY8S8UZLEA1IY3E","","1244.2999999970198","img/land4.png","74","1246.5","1","1","3","2","0.8,0.2,0.2,0.2,0.8,0.2,0.2,0.2,0.8","0.2,0.8,0.2,0.2,0.2,0.8,0.8,0.2,0.2","3","",""
"","html-keyboard-response","272","170986","0.0-272.0","3E13VNJ1NOHMSBJ9YOXO918HUHUI1F","A1T4GVQH4P0BO","3RBI0I35XEP26UEZY8S8UZLEA1IY3E","","null","<img src=""img/land4.png"" style=""width:200px; border:14px solid green;"">","null","","","","","","","","","",""
"","image-keyboard-response","273","171559","0.0-273.0","3E13VNJ1NOHMSBJ9YOXO918HUHUI1F","A1T4GVQH4P0BO","3RBI0I35XEP26UEZY8S8UZLEA1IY3E","","571.7999999970198","img/land3.png","75","573.7000000029802","2","1","1","2","0.8,0.2,0.2,0.2,0.8,0.2,0.2,0.2,0.8","0.2,0.8,0.2,0.2,0.2,0.8,0.8,0.2,0.2","3","",""
"","html-keyboard-response","274","171863","0.0-274.0","3E13VNJ1NOHMSBJ9YOXO918HUHUI1F","A1T4GVQH4P0BO","3RBI0I35XEP26UEZY8S8UZLEA1IY3E","","null","<img src=""img/land3.png"" style=""width:200px; border:14px solid green;"">","null","","","","","","","","","",""
"","image-keyboard-response","275","172389","0.0-275.0","3E13VNJ1NOHMSBJ9YOXO918HUHUI1F","A1T4GVQH4P0BO","3RBI0I35XEP26UEZY8S8UZLEA1IY3E","","523.9000000059605","img/land3.png","75","526.0999999940395","2","1","1","2","0.8,0.2,0.2,0.2,0.8,0.2,0.2,0.2,0.8","0.2,0.8,0.2,0.2,0.2,0.8,0.8,0.2,0.2","3","",""
"","html-keyboard-response","276","172703","0.0-276.0","3E13VNJ1NOHMSBJ9YOXO918HUHUI1F","A1T4GVQH4P0BO","3RBI0I35XEP26UEZY8S8UZLEA1IY3E","","null","<img src=""img/land3.png"" style=""width:200px; border:14px solid green;"">","null","","","","","","","","","",""
"","image-keyboard-response","277","173077","0.0-277.0","3E13VNJ1NOHMSBJ9YOXO918HUHUI1F","A1T4GVQH4P0BO","3RBI0I35XEP26UEZY8S8UZLEA1IY3E","","370.5","img/land3.png","75","372.79999999701977","2","1","1","2","0.8,0.2,0.2,0.2,0.8,0.2,0.2,0.2,0.8","0.2,0.8,0.2,0.2,0.2,0.8,0.8,0.2,0.2","3","",""
"","html-keyboard-response","278","173381","0.0-278.0","3E13VNJ1NOHMSBJ9YOXO918HUHUI1F","A1T4GVQH4P0BO","3RBI0I35XEP26UEZY8S8UZLEA1IY3E","","null","<img src=""img/land3.png"" style=""width:200px; border:14px solid green;"">","null","","","","","","","","","",""
"","image-keyboard-response","279","173679","0.0-279.0","3E13VNJ1NOHMSBJ9YOXO918HUHUI1F","A1T4GVQH4P0BO","3RBI0I35XEP26UEZY8S8UZLEA1IY3E","","294.5","img/land3.png","75","296.79999999701977","2","0","1","2","0.8,0.2,0.2,0.2,0.8,0.2,0.2,0.2,0.8","0.2,0.8,0.2,0.2,0.2,0.8,0.8,0.2,0.2","3","",""
"","html-keyboard-response","280","173988","0.0-280.0","3E13VNJ1NOHMSBJ9YOXO918HUHUI1F","A1T4GVQH4P0BO","3RBI0I35XEP26UEZY8S8UZLEA1IY3E","","null","<img src=""img/land3.png"" style=""width:200px;border:14px solid red;"">","null","","","","","","","","","",""
"","image-keyboard-response","281","174771","0.0-281.0","3E13VNJ1NOHMSBJ9YOXO918HUHUI1F","A1T4GVQH4P0BO","3RBI0I35XEP26UEZY8S8UZLEA1IY3E","","779.9000000059605","img/land4.png","76","782.2999999970198","3","0","3","2","0.8,0.2,0.2,0.2,0.8,0.2,0.2,0.2,0.8","0.2,0.8,0.2,0.2,0.2,0.8,0.8,0.2,0.2","3","",""
"","html-keyboard-response","282","175075","0.0-282.0","3E13VNJ1NOHMSBJ9YOXO918HUHUI1F","A1T4GVQH4P0BO","3RBI0I35XEP26UEZY8S8UZLEA1IY3E","","null","<img src=""img/land4.png"" style=""width:200px;border:14px solid red;"">","null","","","","","","","","","",""
"","image-keyboard-response","283","175600","0.0-283.0","3E13VNJ1NOHMSBJ9YOXO918HUHUI1F","A1T4GVQH4P0BO","3RBI0I35XEP26UEZY8S8UZLEA1IY3E","","523.5","img/land6.png","75","525.0999999940395","2","0","2","2","0.8,0.2,0.2,0.2,0.8,0.2,0.2,0.2,0.8","0.2,0.8,0.2,0.2,0.2,0.8,0.8,0.2,0.2","3","",""
"","html-keyboard-response","284","175913","0.0-284.0","3E13VNJ1NOHMSBJ9YOXO918HUHUI1F","A1T4GVQH4P0BO","3RBI0I35XEP26UEZY8S8UZLEA1IY3E","","null","<img src=""img/land6.png"" style=""width:200px;border:14px solid red;"">","null","","","","","","","","","",""
"","image-keyboard-response","285","176646","0.0-285.0","3E13VNJ1NOHMSBJ9YOXO918HUHUI1F","A1T4GVQH4P0BO","3RBI0I35XEP26UEZY8S8UZLEA1IY3E","","730.5","img/land3.png","75","732.2999999970198","2","1","1","2","0.8,0.2,0.2,0.2,0.8,0.2,0.2,0.2,0.8","0.2,0.8,0.2,0.2,0.2,0.8,0.8,0.2,0.2","3","",""
"","html-keyboard-response","286","176957","0.0-286.0","3E13VNJ1NOHMSBJ9YOXO918HUHUI1F","A1T4GVQH4P0BO","3RBI0I35XEP26UEZY8S8UZLEA1IY3E","","null","<img src=""img/land3.png"" style=""width:200px; border:14px solid green;"">","null","","","","","","","","","",""
"","image-keyboard-response","287","177815","0.0-287.0","3E13VNJ1NOHMSBJ9YOXO918HUHUI1F","A1T4GVQH4P0BO","3RBI0I35XEP26UEZY8S8UZLEA1IY3E","","856.2000000029802","img/land4.png","74","857.9000000059605","1","1","3","2","0.8,0.2,0.2,0.2,0.8,0.2,0.2,0.2,0.8","0.2,0.8,0.2,0.2,0.2,0.8,0.8,0.2,0.2","3","",""
"","html-keyboard-response","288","178126","0.0-288.0","3E13VNJ1NOHMSBJ9YOXO918HUHUI1F","A1T4GVQH4P0BO","3RBI0I35XEP26UEZY8S8UZLEA1IY3E","","null","<img src=""img/land4.png"" style=""width:200px; border:14px solid green;"">","null","","","","","","","","","",""
"","image-keyboard-response","289","178598","0.0-289.0","3E13VNJ1NOHMSBJ9YOXO918HUHUI1F","A1T4GVQH4P0BO","3RBI0I35XEP26UEZY8S8UZLEA1IY3E","","469.79999999701977","img/land3.png","75","472","2","1","1","2","0.8,0.2,0.2,0.2,0.8,0.2,0.2,0.2,0.8","0.2,0.8,0.2,0.2,0.2,0.8,0.8,0.2,0.2","3","",""
"","html-keyboard-response","290","178904","0.0-290.0","3E13VNJ1NOHMSBJ9YOXO918HUHUI1F","A1T4GVQH4P0BO","3RBI0I35XEP26UEZY8S8UZLEA1IY3E","","null","<img src=""img/land3.png"" style=""width:200px; border:14px solid green;"">","null","","","","","","","","","",""
"","image-keyboard-response","291","179171","0.0-291.0","3E13VNJ1NOHMSBJ9YOXO918HUHUI1F","A1T4GVQH4P0BO","3RBI0I35XEP26UEZY8S8UZLEA1IY3E","","263.90000000596046","img/land3.png","75","266","2","0","1","2","0.8,0.2,0.2,0.2,0.8,0.2,0.2,0.2,0.8","0.2,0.8,0.2,0.2,0.2,0.8,0.8,0.2,0.2","3","",""
"","html-keyboard-response","292","179474","0.0-292.0","3E13VNJ1NOHMSBJ9YOXO918HUHUI1F","A1T4GVQH4P0BO","3RBI0I35XEP26UEZY8S8UZLEA1IY3E","","null","<img src=""img/land3.png"" style=""width:200px;border:14px solid red;"">","null","","","","","","","","","",""
"","image-keyboard-response","293","180151","0.0-293.0","3E13VNJ1NOHMSBJ9YOXO918HUHUI1F","A1T4GVQH4P0BO","3RBI0I35XEP26UEZY8S8UZLEA1IY3E","","675.0999999940395","img/land6.png","76","676.6999999880791","3","1","2","2","0.8,0.2,0.2,0.2,0.8,0.2,0.2,0.2,0.8","0.2,0.8,0.2,0.2,0.2,0.8,0.8,0.2,0.2","3","",""
"","html-keyboard-response","294","180463","0.0-294.0","3E13VNJ1NOHMSBJ9YOXO918HUHUI1F","A1T4GVQH4P0BO","3RBI0I35XEP26UEZY8S8UZLEA1IY3E","","null","<img src=""img/land6.png"" style=""width:200px; border:14px solid green;"">","null","","","","","","","","","",""
"","image-keyboard-response","295","180928","0.0-295.0","3E13VNJ1NOHMSBJ9YOXO918HUHUI1F","A1T4GVQH4P0BO","3RBI0I35XEP26UEZY8S8UZLEA1IY3E","","462","img/land3.png","75","464.09999999403954","2","1","1","2","0.8,0.2,0.2,0.2,0.8,0.2,0.2,0.2,0.8","0.2,0.8,0.2,0.2,0.2,0.8,0.8,0.2,0.2","3","",""
"","html-keyboard-response","296","181243","0.0-296.0","3E13VNJ1NOHMSBJ9YOXO918HUHUI1F","A1T4GVQH4P0BO","3RBI0I35XEP26UEZY8S8UZLEA1IY3E","","null","<img src=""img/land3.png"" style=""width:200px; border:14px solid green;"">","null","","","","","","","","","",""
"","image-keyboard-response","297","181725","0.0-297.0","3E13VNJ1NOHMSBJ9YOXO918HUHUI1F","A1T4GVQH4P0BO","3RBI0I35XEP26UEZY8S8UZLEA1IY3E","","480","img/land6.png","76","482.09999999403954","3","1","2","2","0.8,0.2,0.2,0.2,0.8,0.2,0.2,0.2,0.8","0.2,0.8,0.2,0.2,0.2,0.8,0.8,0.2,0.2","3","",""
"","html-keyboard-response","298","182034","0.0-298.0","3E13VNJ1NOHMSBJ9YOXO918HUHUI1F","A1T4GVQH4P0BO","3RBI0I35XEP26UEZY8S8UZLEA1IY3E","","null","<img src=""img/land6.png"" style=""width:200px; border:14px solid green;"">","null","","","","","","","","","",""
"","image-keyboard-response","299","182573","0.0-299.0","3E13VNJ1NOHMSBJ9YOXO918HUHUI1F","A1T4GVQH4P0BO","3RBI0I35XEP26UEZY8S8UZLEA1IY3E","","536.1000000089407","img/land3.png","75","538.7000000029802","2","1","1","2","0.8,0.2,0.2,0.2,0.8,0.2,0.2,0.2,0.8","0.2,0.8,0.2,0.2,0.2,0.8,0.8,0.2,0.2","3","",""
"","html-keyboard-response","300","182884","0.0-300.0","3E13VNJ1NOHMSBJ9YOXO918HUHUI1F","A1T4GVQH4P0BO","3RBI0I35XEP26UEZY8S8UZLEA1IY3E","","null","<img src=""img/land3.png"" style=""width:200px; border:14px solid green;"">","null","","","","","","","","","",""
"","image-keyboard-response","301","183230","0.0-301.0","3E13VNJ1NOHMSBJ9YOXO918HUHUI1F","A1T4GVQH4P0BO","3RBI0I35XEP26UEZY8S8UZLEA1IY3E","","344","img/land3.png","75","346","2","1","1","2","0.8,0.2,0.2,0.2,0.8,0.2,0.2,0.2,0.8","0.2,0.8,0.2,0.2,0.2,0.8,0.8,0.2,0.2","3","",""
"","html-keyboard-response","302","183537","0.0-302.0","3E13VNJ1NOHMSBJ9YOXO918HUHUI1F","A1T4GVQH4P0BO","3RBI0I35XEP26UEZY8S8UZLEA1IY3E","","null","<img src=""img/land3.png"" style=""width:200px; border:14px solid green;"">","null","","","","","","","","","",""
"","image-keyboard-response","303","184618","0.0-303.0","3E13VNJ1NOHMSBJ9YOXO918HUHUI1F","A1T4GVQH4P0BO","3RBI0I35XEP26UEZY8S8UZLEA1IY3E","","1078.2999999970198","img/land6.png","75","1080.5","2","0","2","2","0.8,0.2,0.2,0.2,0.8,0.2,0.2,0.2,0.8","0.2,0.8,0.2,0.2,0.2,0.8,0.8,0.2,0.2","3","",""
"","html-keyboard-response","304","184928","0.0-304.0","3E13VNJ1NOHMSBJ9YOXO918HUHUI1F","A1T4GVQH4P0BO","3RBI0I35XEP26UEZY8S8UZLEA1IY3E","","null","<img src=""img/land6.png"" style=""width:200px;border:14px solid red;"">","null","","","","","","","","","",""
"","image-keyboard-response","305","185092","0.0-305.0","3E13VNJ1NOHMSBJ9YOXO918HUHUI1F","A1T4GVQH4P0BO","3RBI0I35XEP26UEZY8S8UZLEA1IY3E","","162","img/land4.png","76","163.70000000298023","3","0","3","2","0.8,0.2,0.2,0.2,0.8,0.2,0.2,0.2,0.8","0.2,0.8,0.2,0.2,0.2,0.8,0.8,0.2,0.2","3","",""
"","html-keyboard-response","306","185400","0.0-306.0","3E13VNJ1NOHMSBJ9YOXO918HUHUI1F","A1T4GVQH4P0BO","3RBI0I35XEP26UEZY8S8UZLEA1IY3E","","null","<img src=""img/land4.png"" style=""width:200px;border:14px solid red;"">","null","","","","","","","","","",""
"","image-keyboard-response","307","185917","0.0-307.0","3E13VNJ1NOHMSBJ9YOXO918HUHUI1F","A1T4GVQH4P0BO","3RBI0I35XEP26UEZY8S8UZLEA1IY3E","","515.6999999880791","img/land3.png","75","517","2","1","1","2","0.8,0.2,0.2,0.2,0.8,0.2,0.2,0.2,0.8","0.2,0.8,0.2,0.2,0.2,0.8,0.8,0.2,0.2","3","",""
"","html-keyboard-response","308","186224","0.0-308.0","3E13VNJ1NOHMSBJ9YOXO918HUHUI1F","A1T4GVQH4P0BO","3RBI0I35XEP26UEZY8S8UZLEA1IY3E","","null","<img src=""img/land3.png"" style=""width:200px; border:14px solid green;"">","null","","","","","","","","","",""
"","image-keyboard-response","309","186577","0.0-309.0","3E13VNJ1NOHMSBJ9YOXO918HUHUI1F","A1T4GVQH4P0BO","3RBI0I35XEP26UEZY8S8UZLEA1IY3E","","349.90000000596046","img/land3.png","75","352.20000000298023","2","1","1","2","0.8,0.2,0.2,0.2,0.8,0.2,0.2,0.2,0.8","0.2,0.8,0.2,0.2,0.2,0.8,0.8,0.2,0.2","3","",""
"","html-keyboard-response","310","186890","0.0-310.0","3E13VNJ1NOHMSBJ9YOXO918HUHUI1F","A1T4GVQH4P0BO","3RBI0I35XEP26UEZY8S8UZLEA1IY3E","","null","<img src=""img/land3.png"" style=""width:200px; border:14px solid green;"">","null","","","","","","","","","",""
"","image-keyboard-response","311","187850","0.0-311.0","3E13VNJ1NOHMSBJ9YOXO918HUHUI1F","A1T4GVQH4P0BO","3RBI0I35XEP26UEZY8S8UZLEA1IY3E","","959.1999999880791","img/land6.png","76","960.1999999880791","3","1","2","2","0.8,0.2,0.2,0.2,0.8,0.2,0.2,0.2,0.8","0.2,0.8,0.2,0.2,0.2,0.8,0.8,0.2,0.2","3","",""
"","html-keyboard-response","312","188161","0.0-312.0","3E13VNJ1NOHMSBJ9YOXO918HUHUI1F","A1T4GVQH4P0BO","3RBI0I35XEP26UEZY8S8UZLEA1IY3E","","null","<img src=""img/land6.png"" style=""width:200px; border:14px solid green;"">","null","","","","","","","","","",""
"","image-keyboard-response","313","188588","0.0-313.0","3E13VNJ1NOHMSBJ9YOXO918HUHUI1F","A1T4GVQH4P0BO","3RBI0I35XEP26UEZY8S8UZLEA1IY3E","","424.70000000298023","img/land3.png","75","426.79999999701977","2","1","1","2","0.8,0.2,0.2,0.2,0.8,0.2,0.2,0.2,0.8","0.2,0.8,0.2,0.2,0.2,0.8,0.8,0.2,0.2","3","",""
"","html-keyboard-response","314","188898","0.0-314.0","3E13VNJ1NOHMSBJ9YOXO918HUHUI1F","A1T4GVQH4P0BO","3RBI0I35XEP26UEZY8S8UZLEA1IY3E","","null","<img src=""img/land3.png"" style=""width:200px; border:14px solid green;"">","null","","","","","","","","","",""
"","image-keyboard-response","315","189238","0.0-315.0","3E13VNJ1NOHMSBJ9YOXO918HUHUI1F","A1T4GVQH4P0BO","3RBI0I35XEP26UEZY8S8UZLEA1IY3E","","336.70000000298023","img/land3.png","75","338.70000000298023","2","1","1","2","0.8,0.2,0.2,0.2,0.8,0.2,0.2,0.2,0.8","0.2,0.8,0.2,0.2,0.2,0.8,0.8,0.2,0.2","3","",""
"","html-keyboard-response","316","189551","0.0-316.0","3E13VNJ1NOHMSBJ9YOXO918HUHUI1F","A1T4GVQH4P0BO","3RBI0I35XEP26UEZY8S8UZLEA1IY3E","","null","<img src=""img/land3.png"" style=""width:200px; border:14px solid green;"">","null","","","","","","","","","",""
"","image-keyboard-response","317","189844","0.0-317.0","3E13VNJ1NOHMSBJ9YOXO918HUHUI1F","A1T4GVQH4P0BO","3RBI0I35XEP26UEZY8S8UZLEA1IY3E","","290.3999999910593","img/land3.png","75","292","2","1","1","2","0.8,0.2,0.2,0.2,0.8,0.2,0.2,0.2,0.8","0.2,0.8,0.2,0.2,0.2,0.8,0.8,0.2,0.2","3","",""
"","html-keyboard-response","318","190161","0.0-318.0","3E13VNJ1NOHMSBJ9YOXO918HUHUI1F","A1T4GVQH4P0BO","3RBI0I35XEP26UEZY8S8UZLEA1IY3E","","null","<img src=""img/land3.png"" style=""width:200px; border:14px solid green;"">","null","","","","","","","","","",""
"","image-keyboard-response","319","190688","0.0-319.0","3E13VNJ1NOHMSBJ9YOXO918HUHUI1F","A1T4GVQH4P0BO","3RBI0I35XEP26UEZY8S8UZLEA1IY3E","","525.8000000119209","img/land6.png","76","527.1000000089407","3","1","2","2","0.8,0.2,0.2,0.2,0.8,0.2,0.2,0.2,0.8","0.2,0.8,0.2,0.2,0.2,0.8,0.8,0.2,0.2","3","",""
"","html-keyboard-response","320","190993","0.0-320.0","3E13VNJ1NOHMSBJ9YOXO918HUHUI1F","A1T4GVQH4P0BO","3RBI0I35XEP26UEZY8S8UZLEA1IY3E","","null","<img src=""img/land6.png"" style=""width:200px; border:14px solid green;"">","null","","","","","","","","","",""
"","image-keyboard-response","321","191367","0.0-321.0","3E13VNJ1NOHMSBJ9YOXO918HUHUI1F","A1T4GVQH4P0BO","3RBI0I35XEP26UEZY8S8UZLEA1IY3E","","370.6000000089407","img/land3.png","75","372.59999999403954","2","1","1","2","0.8,0.2,0.2,0.2,0.8,0.2,0.2,0.2,0.8","0.2,0.8,0.2,0.2,0.2,0.8,0.8,0.2,0.2","3","",""
"","html-keyboard-response","322","191676","0.0-322.0","3E13VNJ1NOHMSBJ9YOXO918HUHUI1F","A1T4GVQH4P0BO","3RBI0I35XEP26UEZY8S8UZLEA1IY3E","","null","<img src=""img/land3.png"" style=""width:200px; border:14px solid green;"">","null","","","","","","","","","",""
"","image-keyboard-response","323","191989","0.0-323.0","3E13VNJ1NOHMSBJ9YOXO918HUHUI1F","A1T4GVQH4P0BO","3RBI0I35XEP26UEZY8S8UZLEA1IY3E","","312.20000000298023","img/land3.png","75","313.1000000089407","2","1","1","2","0.8,0.2,0.2,0.2,0.8,0.2,0.2,0.2,0.8","0.2,0.8,0.2,0.2,0.2,0.8,0.8,0.2,0.2","3","",""
"","html-keyboard-response","324","192291","0.0-324.0","3E13VNJ1NOHMSBJ9YOXO918HUHUI1F","A1T4GVQH4P0BO","3RBI0I35XEP26UEZY8S8UZLEA1IY3E","","null","<img src=""img/land3.png"" style=""width:200px; border:14px solid green;"">","null","","","","","","","","","",""
"","image-keyboard-response","325","192579","0.0-325.0","3E13VNJ1NOHMSBJ9YOXO918HUHUI1F","A1T4GVQH4P0BO","3RBI0I35XEP26UEZY8S8UZLEA1IY3E","","287.20000000298023","img/land3.png","75","288.3999999910593","2","1","1","2","0.8,0.2,0.2,0.2,0.8,0.2,0.2,0.2,0.8","0.2,0.8,0.2,0.2,0.2,0.8,0.8,0.2,0.2","3","",""
"","html-keyboard-response","326","192884","0.0-326.0","3E13VNJ1NOHMSBJ9YOXO918HUHUI1F","A1T4GVQH4P0BO","3RBI0I35XEP26UEZY8S8UZLEA1IY3E","","null","<img src=""img/land3.png"" style=""width:200px; border:14px solid green;"">","null","","","","","","","","","",""
"","image-keyboard-response","327","193493","0.0-327.0","3E13VNJ1NOHMSBJ9YOXO918HUHUI1F","A1T4GVQH4P0BO","3RBI0I35XEP26UEZY8S8UZLEA1IY3E","","606.7000000029802","img/land6.png","76","608.7999999970198","3","1","2","2","0.8,0.2,0.2,0.2,0.8,0.2,0.2,0.2,0.8","0.2,0.8,0.2,0.2,0.2,0.8,0.8,0.2,0.2","3","",""
"","html-keyboard-response","328","193806","0.0-328.0","3E13VNJ1NOHMSBJ9YOXO918HUHUI1F","A1T4GVQH4P0BO","3RBI0I35XEP26UEZY8S8UZLEA1IY3E","","null","<img src=""img/land6.png"" style=""width:200px; border:14px solid green;"">","null","","","","","","","","","",""
"","image-keyboard-response","329","194316","0.0-329.0","3E13VNJ1NOHMSBJ9YOXO918HUHUI1F","A1T4GVQH4P0BO","3RBI0I35XEP26UEZY8S8UZLEA1IY3E","","507.40000000596046","img/land3.png","75","509.70000000298023","2","0","1","2","0.8,0.2,0.2,0.2,0.8,0.2,0.2,0.2,0.8","0.2,0.8,0.2,0.2,0.2,0.8,0.8,0.2,0.2","3","",""
"","html-keyboard-response","330","194624","0.0-330.0","3E13VNJ1NOHMSBJ9YOXO918HUHUI1F","A1T4GVQH4P0BO","3RBI0I35XEP26UEZY8S8UZLEA1IY3E","","null","<img src=""img/land3.png"" style=""width:200px;border:14px solid red;"">","null","","","","","","","","","",""
"","image-keyboard-response","331","195554","0.0-331.0","3E13VNJ1NOHMSBJ9YOXO918HUHUI1F","A1T4GVQH4P0BO","3RBI0I35XEP26UEZY8S8UZLEA1IY3E","","927.2999999970198","img/land4.png","74","929.4000000059605","1","0","3","2","0.8,0.2,0.2,0.2,0.8,0.2,0.2,0.2,0.8","0.2,0.8,0.2,0.2,0.2,0.8,0.8,0.2,0.2","3","",""
"","html-keyboard-response","332","195862","0.0-332.0","3E13VNJ1NOHMSBJ9YOXO918HUHUI1F","A1T4GVQH4P0BO","3RBI0I35XEP26UEZY8S8UZLEA1IY3E","","null","<img src=""img/land4.png"" style=""width:200px;border:14px solid red;"">","null","","","","","","","","","",""
"","image-keyboard-response","333","196348","0.0-333.0","3E13VNJ1NOHMSBJ9YOXO918HUHUI1F","A1T4GVQH4P0BO","3RBI0I35XEP26UEZY8S8UZLEA1IY3E","","483.59999999403954","img/land3.png","75","485.59999999403954","2","1","1","2","0.8,0.2,0.2,0.2,0.8,0.2,0.2,0.2,0.8","0.2,0.8,0.2,0.2,0.2,0.8,0.8,0.2,0.2","3","",""
"","html-keyboard-response","334","196658","0.0-334.0","3E13VNJ1NOHMSBJ9YOXO918HUHUI1F","A1T4GVQH4P0BO","3RBI0I35XEP26UEZY8S8UZLEA1IY3E","","null","<img src=""img/land3.png"" style=""width:200px; border:14px solid green;"">","null","","","","","","","","","",""
"","image-keyboard-response","335","197397","0.0-335.0","3E13VNJ1NOHMSBJ9YOXO918HUHUI1F","A1T4GVQH4P0BO","3RBI0I35XEP26UEZY8S8UZLEA1IY3E","","737","img/land4.png","74","738.8999999910593","1","1","3","2","0.8,0.2,0.2,0.2,0.8,0.2,0.2,0.2,0.8","0.2,0.8,0.2,0.2,0.2,0.8,0.8,0.2,0.2","3","",""
"","html-keyboard-response","336","197712","0.0-336.0","3E13VNJ1NOHMSBJ9YOXO918HUHUI1F","A1T4GVQH4P0BO","3RBI0I35XEP26UEZY8S8UZLEA1IY3E","","null","<img src=""img/land4.png"" style=""width:200px; border:14px solid green;"">","null","","","","","","","","","",""
"","image-keyboard-response","337","198176","0.0-337.0","3E13VNJ1NOHMSBJ9YOXO918HUHUI1F","A1T4GVQH4P0BO","3RBI0I35XEP26UEZY8S8UZLEA1IY3E","","462.79999999701977","img/land3.png","75","464.1000000089407","2","1","1","2","0.8,0.2,0.2,0.2,0.8,0.2,0.2,0.2,0.8","0.2,0.8,0.2,0.2,0.2,0.8,0.8,0.2,0.2","3","",""
"","html-keyboard-response","338","198485","0.0-338.0","3E13VNJ1NOHMSBJ9YOXO918HUHUI1F","A1T4GVQH4P0BO","3RBI0I35XEP26UEZY8S8UZLEA1IY3E","","null","<img src=""img/land3.png"" style=""width:200px; border:14px solid green;"">","null","","","","","","","","","",""
"","image-keyboard-response","339","199131","0.0-339.0","3E13VNJ1NOHMSBJ9YOXO918HUHUI1F","A1T4GVQH4P0BO","3RBI0I35XEP26UEZY8S8UZLEA1IY3E","","644.6999999880791","img/land6.png","76","646.2999999970198","3","0","2","2","0.8,0.2,0.2,0.2,0.8,0.2,0.2,0.2,0.8","0.2,0.8,0.2,0.2,0.2,0.8,0.8,0.2,0.2","3","",""
"","html-keyboard-response","340","199446","0.0-340.0","3E13VNJ1NOHMSBJ9YOXO918HUHUI1F","A1T4GVQH4P0BO","3RBI0I35XEP26UEZY8S8UZLEA1IY3E","","null","<img src=""img/land6.png"" style=""width:200px;border:14px solid red;"">","null","","","","","","","","","",""
"","image-keyboard-response","341","200007","0.0-341.0","3E13VNJ1NOHMSBJ9YOXO918HUHUI1F","A1T4GVQH4P0BO","3RBI0I35XEP26UEZY8S8UZLEA1IY3E","","558.9000000059605","img/land4.png","75","560.7000000029802","2","1","3","2","0.8,0.2,0.2,0.2,0.8,0.2,0.2,0.2,0.8","0.2,0.8,0.2,0.2,0.2,0.8,0.8,0.2,0.2","3","",""
"","html-keyboard-response","342","200313","0.0-342.0","3E13VNJ1NOHMSBJ9YOXO918HUHUI1F","A1T4GVQH4P0BO","3RBI0I35XEP26UEZY8S8UZLEA1IY3E","","null","<img src=""img/land4.png"" style=""width:200px; border:14px solid green;"">","null","","","","","","","","","",""
"","image-keyboard-response","343","200913","0.0-343.0","3E13VNJ1NOHMSBJ9YOXO918HUHUI1F","A1T4GVQH4P0BO","3RBI0I35XEP26UEZY8S8UZLEA1IY3E","","597.3999999910593","img/land3.png","75","599.3999999910593","2","1","1","2","0.8,0.2,0.2,0.2,0.8,0.2,0.2,0.2,0.8","0.2,0.8,0.2,0.2,0.2,0.8,0.8,0.2,0.2","3","",""
"","html-keyboard-response","344","201218","0.0-344.0","3E13VNJ1NOHMSBJ9YOXO918HUHUI1F","A1T4GVQH4P0BO","3RBI0I35XEP26UEZY8S8UZLEA1IY3E","","null","<img src=""img/land3.png"" style=""width:200px; border:14px solid green;"">","null","","","","","","","","","",""
"","image-keyboard-response","345","201529","0.0-345.0","3E13VNJ1NOHMSBJ9YOXO918HUHUI1F","A1T4GVQH4P0BO","3RBI0I35XEP26UEZY8S8UZLEA1IY3E","","308.6000000089407","img/land3.png","75","310.80000001192093","2","1","1","2","0.8,0.2,0.2,0.2,0.8,0.2,0.2,0.2,0.8","0.2,0.8,0.2,0.2,0.2,0.8,0.8,0.2,0.2","3","",""
"","html-keyboard-response","346","201836","0.0-346.0","3E13VNJ1NOHMSBJ9YOXO918HUHUI1F","A1T4GVQH4P0BO","3RBI0I35XEP26UEZY8S8UZLEA1IY3E","","null","<img src=""img/land3.png"" style=""width:200px; border:14px solid green;"">","null","","","","","","","","","",""
"","image-keyboard-response","347","202530","0.0-347.0","3E13VNJ1NOHMSBJ9YOXO918HUHUI1F","A1T4GVQH4P0BO","3RBI0I35XEP26UEZY8S8UZLEA1IY3E","","692.7000000029802","img/land6.png","76","694.2000000029802","3","0","2","2","0.8,0.2,0.2,0.2,0.8,0.2,0.2,0.2,0.8","0.2,0.8,0.2,0.2,0.2,0.8,0.8,0.2,0.2","3","",""
"","html-keyboard-response","348","202835","0.0-348.0","3E13VNJ1NOHMSBJ9YOXO918HUHUI1F","A1T4GVQH4P0BO","3RBI0I35XEP26UEZY8S8UZLEA1IY3E","","null","<img src=""img/land6.png"" style=""width:200px;border:14px solid red;"">","null","","","","","","","","","",""
"","image-keyboard-response","349","203300","0.0-349.0","3E13VNJ1NOHMSBJ9YOXO918HUHUI1F","A1T4GVQH4P0BO","3RBI0I35XEP26UEZY8S8UZLEA1IY3E","","462.90000000596046","img/land3.png","75","465","2","1","1","2","0.8,0.2,0.2,0.2,0.8,0.2,0.2,0.2,0.8","0.2,0.8,0.2,0.2,0.2,0.8,0.8,0.2,0.2","3","",""
"","html-keyboard-response","350","203610","0.0-350.0","3E13VNJ1NOHMSBJ9YOXO918HUHUI1F","A1T4GVQH4P0BO","3RBI0I35XEP26UEZY8S8UZLEA1IY3E","","null","<img src=""img/land3.png"" style=""width:200px; border:14px solid green;"">","null","","","","","","","","","",""
"","image-keyboard-response","351","204272","0.0-351.0","3E13VNJ1NOHMSBJ9YOXO918HUHUI1F","A1T4GVQH4P0BO","3RBI0I35XEP26UEZY8S8UZLEA1IY3E","","659.4000000059605","img/land4.png","74","661.5","1","1","3","2","0.8,0.2,0.2,0.2,0.8,0.2,0.2,0.2,0.8","0.2,0.8,0.2,0.2,0.2,0.8,0.8,0.2,0.2","3","",""
"","html-keyboard-response","352","204587","0.0-352.0","3E13VNJ1NOHMSBJ9YOXO918HUHUI1F","A1T4GVQH4P0BO","3RBI0I35XEP26UEZY8S8UZLEA1IY3E","","null","<img src=""img/land4.png"" style=""width:200px; border:14px solid green;"">","null","","","","","","","","","",""
"","image-keyboard-response","353","205102","0.0-353.0","3E13VNJ1NOHMSBJ9YOXO918HUHUI1F","A1T4GVQH4P0BO","3RBI0I35XEP26UEZY8S8UZLEA1IY3E","","511.3999999910593","img/land4.png","74","514.7000000029802","1","1","3","2","0.8,0.2,0.2,0.2,0.8,0.2,0.2,0.2,0.8","0.2,0.8,0.2,0.2,0.2,0.8,0.8,0.2,0.2","3","",""
"","html-keyboard-response","354","205420","0.0-354.0","3E13VNJ1NOHMSBJ9YOXO918HUHUI1F","A1T4GVQH4P0BO","3RBI0I35XEP26UEZY8S8UZLEA1IY3E","","null","<img src=""img/land4.png"" style=""width:200px; border:14px solid green;"">","null","","","","","","","","","",""
"","image-keyboard-response","355","205926","0.0-355.0","3E13VNJ1NOHMSBJ9YOXO918HUHUI1F","A1T4GVQH4P0BO","3RBI0I35XEP26UEZY8S8UZLEA1IY3E","","500.69999998807907","img/land3.png","75","502.70000000298023","2","1","1","2","0.8,0.2,0.2,0.2,0.8,0.2,0.2,0.2,0.8","0.2,0.8,0.2,0.2,0.2,0.8,0.8,0.2,0.2","3","",""
