"success","trial_type","trial_index","time_elapsed","internal_node_id","assignmentID","mturkID","hitID","view_history","rt","stimulus","key_press","reactionTime","a","r","s","cond","reward_cond","reward_cond_actual","reward_matrix_idx","responses","question_order"
"true","fullscreen","0","4198","0.0-0.0","","","","","","","","","","","","","","","","",""
"","instructions","1","26379","0.0-1.0","","","","[{""page_index"":0,""viewing_time"":3102.7999999970198},{""page_index"":1,""viewing_time"":3272.2000000029802},{""page_index"":2,""viewing_time"":1365.5999999940395},{""page_index"":3,""viewing_time"":5501.5999999940395},{""page_index"":4,""viewing_time"":1944.800000011921},{""page_index"":5,""viewing_time"":3393.699999988079},{""page_index"":6,""viewing_time"":3596.4000000059605}]","22177.5","","","","","","","","","","","",""
"","image-keyboard-response","2","27185","0.0-2.0","","","","","803.7000000029802","img/land1.png","74","806.0999999940395","1","1","2","1","1,0.5,0.5,0.5,1,0.5,0.5,0.5,1","1,0.5,0.5,0.5,1,0.5,0.5,0.5,1","1","",""
"","html-keyboard-response","3","27489","0.0-3.0","","","","","null","<img src=""img/land1.png"" style=""width:200px; border:14px solid green;"">","null","","","","","","","","","",""
"","image-keyboard-response","4","28126","0.0-4.0","","","","","636.7000000029802","img/land2.png","75","637.5","2","1","3","1","1,0.5,0.5,0.5,1,0.5,0.5,0.5,1","1,0.5,0.5,0.5,1,0.5,0.5,0.5,1","1","",""
"","html-keyboard-response","5","28428","0.0-5.0","","","","","null","<img src=""img/land2.png"" style=""width:200px; border:14px solid green;"">","null","","","","","","","","","",""
"","image-keyboard-response","6","29123","0.0-6.0","","","","","692.7000000029802","img/land2.png","75","694.2999999970198","2","0","3","1","1,0.5,0.5,0.5,1,0.5,0.5,0.5,1","1,0.5,0.5,0.5,1,0.5,0.5,0.5,1","1","",""
"","html-keyboard-response","7","29425","0.0-7.0","","","","","null","<img src=""img/land2.png"" style=""width:200px;border:14px solid red;"">","null","","","","","","","","","",""
"","image-keyboard-response","8","30109","0.0-8.0","","","","","682.4000000059605","img/land1.png","76","683.2000000029802","3","1","2","1","1,0.5,0.5,0.5,1,0.5,0.5,0.5,1","1,0.5,0.5,0.5,1,0.5,0.5,0.5,1","1","",""
"","html-keyboard-response","9","30411","0.0-9.0","","","","","null","<img src=""img/land1.png"" style=""width:200px; border:14px solid green;"">","null","","","","","","","","","",""
"","image-keyboard-response","10","31448","0.0-10.0","","","","","1036.5999999940395","img/land3.png","74","1037.2000000029802","1","1","1","1","1,0.5,0.5,0.5,1,0.5,0.5,0.5,1","1,0.5,0.5,0.5,1,0.5,0.5,0.5,1","1","",""
"","html-keyboard-response","11","31750","0.0-11.0","","","","","null","<img src=""img/land3.png"" style=""width:200px; border:14px solid green;"">","null","","","","","","","","","",""
"","image-keyboard-response","12","32169","0.0-12.0","","","","","417.90000000596046","img/land3.png","74","418.59999999403954","1","1","1","1","1,0.5,0.5,0.5,1,0.5,0.5,0.5,1","1,0.5,0.5,0.5,1,0.5,0.5,0.5,1","1","",""
"","html-keyboard-response","13","32471","0.0-13.0","","","","","null","<img src=""img/land3.png"" style=""width:200px; border:14px solid green;"">","null","","","","","","","","","",""
"","image-keyboard-response","14","33147","0.0-14.0","","","","","674.1000000089407","img/land1.png","75","675.3999999910593","2","1","2","1","1,0.5,0.5,0.5,1,0.5,0.5,0.5,1","1,0.5,0.5,0.5,1,0.5,0.5,0.5,1","1","",""
"","html-keyboard-response","15","33449","0.0-15.0","","","","","null","<img src=""img/land1.png"" style=""width:200px; border:14px solid green;"">","null","","","","","","","","","",""
"","image-keyboard-response","16","34356","0.0-16.0","","","","","906.6999999880791","img/land3.png","74","907.6999999880791","1","1","1","1","1,0.5,0.5,0.5,1,0.5,0.5,0.5,1","1,0.5,0.5,0.5,1,0.5,0.5,0.5,1","1","",""
"","html-keyboard-response","17","34659","0.0-17.0","","","","","null","<img src=""img/land3.png"" style=""width:200px; border:14px solid green;"">","null","","","","","","","","","",""
"","image-keyboard-response","18","35092","0.0-18.0","","","","","430.8999999910593","img/land3.png","74","432.5","1","1","1","1","1,0.5,0.5,0.5,1,0.5,0.5,0.5,1","1,0.5,0.5,0.5,1,0.5,0.5,0.5,1","1","",""
"","html-keyboard-response","19","35395","0.0-19.0","","","","","null","<img src=""img/land3.png"" style=""width:200px; border:14px solid green;"">","null","","","","","","","","","",""
"","image-keyboard-response","20","35740","0.0-20.0","","","","","343.90000000596046","img/land3.png","74","345.5","1","1","1","1","1,0.5,0.5,0.5,1,0.5,0.5,0.5,1","1,0.5,0.5,0.5,1,0.5,0.5,0.5,1","1","",""
"","html-keyboard-response","21","36044","0.0-21.0","","","","","null","<img src=""img/land3.png"" style=""width:200px; border:14px solid green;"">","null","","","","","","","","","",""
"","image-keyboard-response","22","36583","0.0-22.0","","","","","537.8999999910593","img/land2.png","76","538.7999999970198","3","1","3","1","1,0.5,0.5,0.5,1,0.5,0.5,0.5,1","1,0.5,0.5,0.5,1,0.5,0.5,0.5,1","1","",""
"","html-keyboard-response","23","36885","0.0-23.0","","","","","null","<img src=""img/land2.png"" style=""width:200px; border:14px solid green;"">","null","","","","","","","","","",""
"","image-keyboard-response","24","37527","0.0-24.0","","","","","640.0999999940395","img/land3.png","74","641.4000000059605","1","1","1","1","1,0.5,0.5,0.5,1,0.5,0.5,0.5,1","1,0.5,0.5,0.5,1,0.5,0.5,0.5,1","1","",""
"","html-keyboard-response","25","37829","0.0-25.0","","","","","null","<img src=""img/land3.png"" style=""width:200px; border:14px solid green;"">","null","","","","","","","","","",""
"","image-keyboard-response","26","38355","0.0-26.0","","","","","524.7999999970198","img/land2.png","76","525.5","3","1","3","1","1,0.5,0.5,0.5,1,0.5,0.5,0.5,1","1,0.5,0.5,0.5,1,0.5,0.5,0.5,1","1","",""
"","html-keyboard-response","27","38656","0.0-27.0","","","","","null","<img src=""img/land2.png"" style=""width:200px; border:14px solid green;"">","null","","","","","","","","","",""
"","image-keyboard-response","28","39129","0.0-28.0","","","","","470.3999999910593","img/land2.png","76","471.90000000596046","3","1","3","1","1,0.5,0.5,0.5,1,0.5,0.5,0.5,1","1,0.5,0.5,0.5,1,0.5,0.5,0.5,1","1","",""
"","html-keyboard-response","29","39431","0.0-29.0","","","","","null","<img src=""img/land2.png"" style=""width:200px; border:14px solid green;"">","null","","","","","","","","","",""
"","image-keyboard-response","30","40165","0.0-30.0","","","","","732.2999999970198","img/land1.png","75","733.5","2","1","2","1","1,0.5,0.5,0.5,1,0.5,0.5,0.5,1","1,0.5,0.5,0.5,1,0.5,0.5,0.5,1","1","",""
"","html-keyboard-response","31","40468","0.0-31.0","","","","","null","<img src=""img/land1.png"" style=""width:200px; border:14px solid green;"">","null","","","","","","","","","",""
"","image-keyboard-response","32","41057","0.0-32.0","","","","","587.3999999910593","img/land3.png","74","588.7000000029802","1","1","1","1","1,0.5,0.5,0.5,1,0.5,0.5,0.5,1","1,0.5,0.5,0.5,1,0.5,0.5,0.5,1","1","",""
"","html-keyboard-response","33","41360","0.0-33.0","","","","","null","<img src=""img/land3.png"" style=""width:200px; border:14px solid green;"">","null","","","","","","","","","",""
"","image-keyboard-response","34","41933","0.0-34.0","","","","","572","img/land1.png","75","573.3999999910593","2","1","2","1","1,0.5,0.5,0.5,1,0.5,0.5,0.5,1","1,0.5,0.5,0.5,1,0.5,0.5,0.5,1","1","",""
"","html-keyboard-response","35","42235","0.0-35.0","","","","","null","<img src=""img/land1.png"" style=""width:200px; border:14px solid green;"">","null","","","","","","","","","",""
"","image-keyboard-response","36","42702","0.0-36.0","","","","","465.09999999403954","img/land1.png","75","466.6000000089407","2","1","2","1","1,0.5,0.5,0.5,1,0.5,0.5,0.5,1","1,0.5,0.5,0.5,1,0.5,0.5,0.5,1","1","",""
"","html-keyboard-response","37","43006","0.0-37.0","","","","","null","<img src=""img/land1.png"" style=""width:200px; border:14px solid green;"">","null","","","","","","","","","",""
"","image-keyboard-response","38","43408","0.0-38.0","","","","","400","img/land1.png","75","401.5","2","1","2","1","1,0.5,0.5,0.5,1,0.5,0.5,0.5,1","1,0.5,0.5,0.5,1,0.5,0.5,0.5,1","1","",""
"","html-keyboard-response","39","43711","0.0-39.0","","","","","null","<img src=""img/land1.png"" style=""width:200px; border:14px solid green;"">","null","","","","","","","","","",""
"","image-keyboard-response","40","44446","0.0-40.0","","","","","732.5999999940395","img/land2.png","76","733.7999999970198","3","1","3","1","1,0.5,0.5,0.5,1,0.5,0.5,0.5,1","1,0.5,0.5,0.5,1,0.5,0.5,0.5,1","1","",""
"","html-keyboard-response","41","44749","0.0-41.0","","","","","null","<img src=""img/land2.png"" style=""width:200px; border:14px solid green;"">","null","","","","","","","","","",""
"","image-keyboard-response","42","45292","0.0-42.0","","","","","541.5999999940395","img/land3.png","74","542.8000000119209","1","1","1","1","1,0.5,0.5,0.5,1,0.5,0.5,0.5,1","1,0.5,0.5,0.5,1,0.5,0.5,0.5,1","1","",""
"","html-keyboard-response","43","45594","0.0-43.0","","","","","null","<img src=""img/land3.png"" style=""width:200px; border:14px solid green;"">","null","","","","","","","","","",""
"","image-keyboard-response","44","46139","0.0-44.0","","","","","543.5","img/land2.png","75","544.7000000029802","2","0","3","1","1,0.5,0.5,0.5,1,0.5,0.5,0.5,1","1,0.5,0.5,0.5,1,0.5,0.5,0.5,1","1","",""
"","html-keyboard-response","45","46441","0.0-45.0","","","","","null","<img src=""img/land2.png"" style=""width:200px;border:14px solid red;"">","null","","","","","","","","","",""
"","image-keyboard-response","46","46837","0.0-46.0","","","","","394","img/land2.png","75","395.29999999701977","2","0","3","1","1,0.5,0.5,0.5,1,0.5,0.5,0.5,1","1,0.5,0.5,0.5,1,0.5,0.5,0.5,1","1","",""
"","html-keyboard-response","47","47139","0.0-47.0","","","","","null","<img src=""img/land2.png"" style=""width:200px;border:14px solid red;"">","null","","","","","","","","","",""
"","image-keyboard-response","48","48120","0.0-48.0","","","","","979.5","img/land1.png","76","980.5","3","0","2","1","1,0.5,0.5,0.5,1,0.5,0.5,0.5,1","1,0.5,0.5,0.5,1,0.5,0.5,0.5,1","1","",""
"","html-keyboard-response","49","48422","0.0-49.0","","","","","null","<img src=""img/land1.png"" style=""width:200px;border:14px solid red;"">","null","","","","","","","","","",""
"","image-keyboard-response","50","48992","0.0-50.0","","","","","568.2000000029802","img/land3.png","74","569.7000000029802","1","1","1","1","1,0.5,0.5,0.5,1,0.5,0.5,0.5,1","1,0.5,0.5,0.5,1,0.5,0.5,0.5,1","1","",""
"","html-keyboard-response","51","49295","0.0-51.0","","","","","null","<img src=""img/land3.png"" style=""width:200px; border:14px solid green;"">","null","","","","","","","","","",""
"","image-keyboard-response","52","50449","0.0-52.0","","","","","1152.7999999970198","img/land2.png","76","1153.7000000029802","3","1","3","1","1,0.5,0.5,0.5,1,0.5,0.5,0.5,1","1,0.5,0.5,0.5,1,0.5,0.5,0.5,1","1","",""
"","html-keyboard-response","53","50752","0.0-53.0","","","","","null","<img src=""img/land2.png"" style=""width:200px; border:14px solid green;"">","null","","","","","","","","","",""
"","image-keyboard-response","54","51149","0.0-54.0","","","","","395.79999999701977","img/land2.png","76","397.19999998807907","3","1","3","1","1,0.5,0.5,0.5,1,0.5,0.5,0.5,1","1,0.5,0.5,0.5,1,0.5,0.5,0.5,1","1","",""
"","html-keyboard-response","55","51451","0.0-55.0","","","","","null","<img src=""img/land2.png"" style=""width:200px; border:14px solid green;"">","null","","","","","","","","","",""
"","image-keyboard-response","56","51834","0.0-56.0","","","","","381.70000000298023","img/land2.png","76","382.70000000298023","3","1","3","1","1,0.5,0.5,0.5,1,0.5,0.5,0.5,1","1,0.5,0.5,0.5,1,0.5,0.5,0.5,1","1","",""
"","html-keyboard-response","57","52136","0.0-57.0","","","","","null","<img src=""img/land2.png"" style=""width:200px; border:14px solid green;"">","null","","","","","","","","","",""
"","image-keyboard-response","58","52902","0.0-58.0","","","","","765.3000000119209","img/land3.png","74","766.1000000089407","1","1","1","1","1,0.5,0.5,0.5,1,0.5,0.5,0.5,1","1,0.5,0.5,0.5,1,0.5,0.5,0.5,1","1","",""
"","html-keyboard-response","59","53204","0.0-59.0","","","","","null","<img src=""img/land3.png"" style=""width:200px; border:14px solid green;"">","null","","","","","","","","","",""
"","image-keyboard-response","60","53797","0.0-60.0","","","","","591","img/land1.png","75","592.0999999940395","2","1","2","1","1,0.5,0.5,0.5,1,0.5,0.5,0.5,1","1,0.5,0.5,0.5,1,0.5,0.5,0.5,1","1","",""
"","html-keyboard-response","61","54099","0.0-61.0","","","","","null","<img src=""img/land1.png"" style=""width:200px; border:14px solid green;"">","null","","","","","","","","","",""
"","image-keyboard-response","62","54903","0.0-62.0","","","","","801.5999999940395","img/land2.png","76","802.9000000059605","3","1","3","1","1,0.5,0.5,0.5,1,0.5,0.5,0.5,1","1,0.5,0.5,0.5,1,0.5,0.5,0.5,1","1","",""
"","html-keyboard-response","63","55205","0.0-63.0","","","","","null","<img src=""img/land2.png"" style=""width:200px; border:14px solid green;"">","null","","","","","","","","","",""
"","image-keyboard-response","64","55668","0.0-64.0","","","","","462.20000000298023","img/land2.png","76","463.40000000596046","3","1","3","1","1,0.5,0.5,0.5,1,0.5,0.5,0.5,1","1,0.5,0.5,0.5,1,0.5,0.5,0.5,1","1","",""
"","html-keyboard-response","65","55979","0.0-65.0","","","","","null","<img src=""img/land2.png"" style=""width:200px; border:14px solid green;"">","null","","","","","","","","","",""
"","image-keyboard-response","66","56744","0.0-66.0","","","","","764.2000000029802","img/land1.png","75","764.8999999910593","2","1","2","1","1,0.5,0.5,0.5,1,0.5,0.5,0.5,1","1,0.5,0.5,0.5,1,0.5,0.5,0.5,1","1","",""
"","html-keyboard-response","67","57047","0.0-67.0","","","","","null","<img src=""img/land1.png"" style=""width:200px; border:14px solid green;"">","null","","","","","","","","","",""
"","image-keyboard-response","68","57568","0.0-68.0","","","","","520.2999999970198","img/land3.png","74","521.2000000029802","1","1","1","1","1,0.5,0.5,0.5,1,0.5,0.5,0.5,1","1,0.5,0.5,0.5,1,0.5,0.5,0.5,1","1","",""
"","html-keyboard-response","69","57869","0.0-69.0","","","","","null","<img src=""img/land3.png"" style=""width:200px; border:14px solid green;"">","null","","","","","","","","","",""
"","image-keyboard-response","70","58560","0.0-70.0","","","","","690.1999999880791","img/land1.png","75","691","2","1","2","1","1,0.5,0.5,0.5,1,0.5,0.5,0.5,1","1,0.5,0.5,0.5,1,0.5,0.5,0.5,1","1","",""
"","html-keyboard-response","71","58862","0.0-71.0","","","","","null","<img src=""img/land1.png"" style=""width:200px; border:14px solid green;"">","null","","","","","","","","","",""
"","image-keyboard-response","72","59594","0.0-72.0","","","","","730.9000000059605","img/land2.png","76","732","3","1","3","1","1,0.5,0.5,0.5,1,0.5,0.5,0.5,1","1,0.5,0.5,0.5,1,0.5,0.5,0.5,1","1","",""
"","html-keyboard-response","73","59898","0.0-73.0","","","","","null","<img src=""img/land2.png"" style=""width:200px; border:14px solid green;"">","null","","","","","","","","","",""
"","image-keyboard-response","74","60435","0.0-74.0","","","","","536.1000000089407","img/land3.png","74","536.9000000059605","1","1","1","1","1,0.5,0.5,0.5,1,0.5,0.5,0.5,1","1,0.5,0.5,0.5,1,0.5,0.5,0.5,1","1","",""
"","html-keyboard-response","75","60737","0.0-75.0","","","","","null","<img src=""img/land3.png"" style=""width:200px; border:14px solid green;"">","null","","","","","","","","","",""
"","image-keyboard-response","76","61317","0.0-76.0","","","","","578.8000000119209","img/land3.png","74","580.1000000089407","1","1","1","1","1,0.5,0.5,0.5,1,0.5,0.5,0.5,1","1,0.5,0.5,0.5,1,0.5,0.5,0.5,1","1","",""
"","html-keyboard-response","77","61618","0.0-77.0","","","","","null","<img src=""img/land3.png"" style=""width:200px; border:14px solid green;"">","null","","","","","","","","","",""
"","image-keyboard-response","78","62052","0.0-78.0","","","","","433.09999999403954","img/land3.png","74","433.59999999403954","1","1","1","1","1,0.5,0.5,0.5,1,0.5,0.5,0.5,1","1,0.5,0.5,0.5,1,0.5,0.5,0.5,1","1","",""
"","html-keyboard-response","79","62354","0.0-79.0","","","","","null","<img src=""img/land3.png"" style=""width:200px; border:14px solid green;"">","null","","","","","","","","","",""
"","image-keyboard-response","80","63012","0.0-80.0","","","","","657","img/land1.png","75","658.2000000029802","2","1","2","1","1,0.5,0.5,0.5,1,0.5,0.5,0.5,1","1,0.5,0.5,0.5,1,0.5,0.5,0.5,1","1","",""
"","html-keyboard-response","81","63315","0.0-81.0","","","","","null","<img src=""img/land1.png"" style=""width:200px; border:14px solid green;"">","null","","","","","","","","","",""
"","image-keyboard-response","82","63820","0.0-82.0","","","","","503.5","img/land2.png","76","504.80000001192093","3","1","3","1","1,0.5,0.5,0.5,1,0.5,0.5,0.5,1","1,0.5,0.5,0.5,1,0.5,0.5,0.5,1","1","",""
"","html-keyboard-response","83","64121","0.0-83.0","","","","","null","<img src=""img/land2.png"" style=""width:200px; border:14px solid green;"">","null","","","","","","","","","",""
"","image-keyboard-response","84","64922","0.0-84.0","","","","","799.2999999970198","img/land1.png","75","800.6000000089407","2","1","2","1","1,0.5,0.5,0.5,1,0.5,0.5,0.5,1","1,0.5,0.5,0.5,1,0.5,0.5,0.5,1","1","",""
"","html-keyboard-response","85","65224","0.0-85.0","","","","","null","<img src=""img/land1.png"" style=""width:200px; border:14px solid green;"">","null","","","","","","","","","",""
"","image-keyboard-response","86","66107","0.0-86.0","","","","","881.3999999910593","img/land3.png","74","882.6999999880791","1","1","1","1","1,0.5,0.5,0.5,1,0.5,0.5,0.5,1","1,0.5,0.5,0.5,1,0.5,0.5,0.5,1","1","",""
"","html-keyboard-response","87","66409","0.0-87.0","","","","","null","<img src=""img/land3.png"" style=""width:200px; border:14px solid green;"">","null","","","","","","","","","",""
"","image-keyboard-response","88","67278","0.0-88.0","","","","","866.8000000119209","img/land2.png","76","868.3999999910593","3","1","3","1","1,0.5,0.5,0.5,1,0.5,0.5,0.5,1","1,0.5,0.5,0.5,1,0.5,0.5,0.5,1","1","",""
"","html-keyboard-response","89","67580","0.0-89.0","","","","","null","<img src=""img/land2.png"" style=""width:200px; border:14px solid green;"">","null","","","","","","","","","",""
"","image-keyboard-response","90","68321","0.0-90.0","","","","","740.3999999910593","img/land1.png","75","741.0999999940395","2","1","2","1","1,0.5,0.5,0.5,1,0.5,0.5,0.5,1","1,0.5,0.5,0.5,1,0.5,0.5,0.5,1","1","",""
"","html-keyboard-response","91","68622","0.0-91.0","","","","","null","<img src=""img/land1.png"" style=""width:200px; border:14px solid green;"">","null","","","","","","","","","",""
"","image-keyboard-response","92","69019","0.0-92.0","","","","","395.1000000089407","img/land1.png","75","396.5","2","1","2","1","1,0.5,0.5,0.5,1,0.5,0.5,0.5,1","1,0.5,0.5,0.5,1,0.5,0.5,0.5,1","1","",""
"","html-keyboard-response","93","69322","0.0-93.0","","","","","null","<img src=""img/land1.png"" style=""width:200px; border:14px solid green;"">","null","","","","","","","","","",""
"","image-keyboard-response","94","69688","0.0-94.0","","","","","364.79999999701977","img/land1.png","75","365.79999999701977","2","1","2","1","1,0.5,0.5,0.5,1,0.5,0.5,0.5,1","1,0.5,0.5,0.5,1,0.5,0.5,0.5,1","1","",""
"","html-keyboard-response","95","69991","0.0-95.0","","","","","null","<img src=""img/land1.png"" style=""width:200px; border:14px solid green;"">","null","","","","","","","","","",""
"","image-keyboard-response","96","70736","0.0-96.0","","","","","743.7999999970198","img/land2.png","76","744.5999999940395","3","1","3","1","1,0.5,0.5,0.5,1,0.5,0.5,0.5,1","1,0.5,0.5,0.5,1,0.5,0.5,0.5,1","1","",""
"","html-keyboard-response","97","71039","0.0-97.0","","","","","null","<img src=""img/land2.png"" style=""width:200px; border:14px solid green;"">","null","","","","","","","","","",""
"","image-keyboard-response","98","71593","0.0-98.0","","","","","552.6000000089407","img/land3.png","74","554","1","1","1","1","1,0.5,0.5,0.5,1,0.5,0.5,0.5,1","1,0.5,0.5,0.5,1,0.5,0.5,0.5,1","1","",""
"","html-keyboard-response","99","71896","0.0-99.0","","","","","null","<img src=""img/land3.png"" style=""width:200px; border:14px solid green;"">","null","","","","","","","","","",""
"","image-keyboard-response","100","72359","0.0-100.0","","","","","461.20000000298023","img/land3.png","74","462.09999999403954","1","1","1","1","1,0.5,0.5,0.5,1,0.5,0.5,0.5,1","1,0.5,0.5,0.5,1,0.5,0.5,0.5,1","1","",""
"","html-keyboard-response","101","72661","0.0-101.0","","","","","null","<img src=""img/land3.png"" style=""width:200px; border:14px solid green;"">","null","","","","","","","","","",""
"","image-keyboard-response","102","73336","0.0-102.0","","","","","673.8999999910593","img/land1.png","75","675.0999999940395","2","1","2","1","1,0.5,0.5,0.5,1,0.5,0.5,0.5,1","1,0.5,0.5,0.5,1,0.5,0.5,0.5,1","1","",""
"","html-keyboard-response","103","73638","0.0-103.0","","","","","null","<img src=""img/land1.png"" style=""width:200px; border:14px solid green;"">","null","","","","","","","","","",""
"","image-keyboard-response","104","74199","0.0-104.0","","","","","560.5","img/land2.png","76","561.5","3","1","3","1","1,0.5,0.5,0.5,1,0.5,0.5,0.5,1","1,0.5,0.5,0.5,1,0.5,0.5,0.5,1","1","",""
"","html-keyboard-response","105","74502","0.0-105.0","","","","","null","<img src=""img/land2.png"" style=""width:200px; border:14px solid green;"">","null","","","","","","","","","",""
"","image-keyboard-response","106","75348","0.0-106.0","","","","","843.4000000059605","img/land1.png","75","844.9000000059605","2","1","2","1","1,0.5,0.5,0.5,1,0.5,0.5,0.5,1","1,0.5,0.5,0.5,1,0.5,0.5,0.5,1","1","",""
"","html-keyboard-response","107","75650","0.0-107.0","","","","","null","<img src=""img/land1.png"" style=""width:200px; border:14px solid green;"">","null","","","","","","","","","",""
"","image-keyboard-response","108","76273","0.0-108.0","","","","","620.5","img/land3.png","74","621.5","1","1","1","1","1,0.5,0.5,0.5,1,0.5,0.5,0.5,1","1,0.5,0.5,0.5,1,0.5,0.5,0.5,1","1","",""
"","html-keyboard-response","109","76575","0.0-109.0","","","","","null","<img src=""img/land3.png"" style=""width:200px; border:14px solid green;"">","null","","","","","","","","","",""
"","image-keyboard-response","110","77013","0.0-110.0","","","","","436.79999999701977","img/land3.png","74","438.09999999403954","1","1","1","1","1,0.5,0.5,0.5,1,0.5,0.5,0.5,1","1,0.5,0.5,0.5,1,0.5,0.5,0.5,1","1","",""
"","html-keyboard-response","111","77316","0.0-111.0","","","","","null","<img src=""img/land3.png"" style=""width:200px; border:14px solid green;"">","null","","","","","","","","","",""
"","image-keyboard-response","112","77844","0.0-112.0","","","","","526.7000000029802","img/land2.png","76","527.7999999970198","3","1","3","1","1,0.5,0.5,0.5,1,0.5,0.5,0.5,1","1,0.5,0.5,0.5,1,0.5,0.5,0.5,1","1","",""
"","html-keyboard-response","113","78146","0.0-113.0","","","","","null","<img src=""img/land2.png"" style=""width:200px; border:14px solid green;"">","null","","","","","","","","","",""
"","image-keyboard-response","114","78561","0.0-114.0","","","","","413.59999999403954","img/land2.png","76","415","3","1","3","1","1,0.5,0.5,0.5,1,0.5,0.5,0.5,1","1,0.5,0.5,0.5,1,0.5,0.5,0.5,1","1","",""
"","html-keyboard-response","115","78863","0.0-115.0","","","","","null","<img src=""img/land2.png"" style=""width:200px; border:14px solid green;"">","null","","","","","","","","","",""
"","image-keyboard-response","116","79489","0.0-116.0","","","","","624.7999999970198","img/land1.png","75","625.8000000119209","2","1","2","1","1,0.5,0.5,0.5,1,0.5,0.5,0.5,1","1,0.5,0.5,0.5,1,0.5,0.5,0.5,1","1","",""
"","html-keyboard-response","117","79801","0.0-117.0","","","","","null","<img src=""img/land1.png"" style=""width:200px; border:14px solid green;"">","null","","","","","","","","","",""
"","image-keyboard-response","118","80232","0.0-118.0","","","","","430.20000000298023","img/land1.png","75","430.90000000596046","2","1","2","1","1,0.5,0.5,0.5,1,0.5,0.5,0.5,1","1,0.5,0.5,0.5,1,0.5,0.5,0.5,1","1","",""
"","html-keyboard-response","119","80534","0.0-119.0","","","","","null","<img src=""img/land1.png"" style=""width:200px; border:14px solid green;"">","null","","","","","","","","","",""
"","image-keyboard-response","120","80875","0.0-120.0","","","","","339.5","img/land1.png","75","340.79999999701977","2","1","2","1","1,0.5,0.5,0.5,1,0.5,0.5,0.5,1","1,0.5,0.5,0.5,1,0.5,0.5,0.5,1","1","",""
"","html-keyboard-response","121","81177","0.0-121.0","","","","","null","<img src=""img/land1.png"" style=""width:200px; border:14px solid green;"">","null","","","","","","","","","",""
"","image-keyboard-response","122","82255","0.0-122.0","","","","","1076.699999988079","img/land3.png","74","1077.7999999970198","1","1","1","1","1,0.5,0.5,0.5,1,0.5,0.5,0.5,1","1,0.5,0.5,0.5,1,0.5,0.5,0.5,1","1","",""
"","html-keyboard-response","123","82557","0.0-123.0","","","","","null","<img src=""img/land3.png"" style=""width:200px; border:14px solid green;"">","null","","","","","","","","","",""
"","image-keyboard-response","124","83292","0.0-124.0","","","","","733.2999999970198","img/land2.png","76","734.5999999940395","3","1","3","1","1,0.5,0.5,0.5,1,0.5,0.5,0.5,1","1,0.5,0.5,0.5,1,0.5,0.5,0.5,1","1","",""
"","html-keyboard-response","125","83594","0.0-125.0","","","","","null","<img src=""img/land2.png"" style=""width:200px; border:14px solid green;"">","null","","","","","","","","","",""
"","image-keyboard-response","126","84015","0.0-126.0","","","","","419.79999999701977","img/land1.png","75","420.79999999701977","2","1","2","1","1,0.5,0.5,0.5,1,0.5,0.5,0.5,1","1,0.5,0.5,0.5,1,0.5,0.5,0.5,1","1","",""
"","html-keyboard-response","127","84318","0.0-127.0","","","","","null","<img src=""img/land1.png"" style=""width:200px; border:14px solid green;"">","null","","","","","","","","","",""
"","image-keyboard-response","128","84665","0.0-128.0","","","","","344.79999999701977","img/land1.png","75","346.29999999701977","2","1","2","1","1,0.5,0.5,0.5,1,0.5,0.5,0.5,1","1,0.5,0.5,0.5,1,0.5,0.5,0.5,1","1","",""
"","html-keyboard-response","129","84967","0.0-129.0","","","","","null","<img src=""img/land1.png"" style=""width:200px; border:14px solid green;"">","null","","","","","","","","","",""
"","image-keyboard-response","130","85316","0.0-130.0","","","","","347.40000000596046","img/land1.png","75","348.79999999701977","2","1","2","1","1,0.5,0.5,0.5,1,0.5,0.5,0.5,1","1,0.5,0.5,0.5,1,0.5,0.5,0.5,1","1","",""
"","html-keyboard-response","131","85619","0.0-131.0","","","","","null","<img src=""img/land1.png"" style=""width:200px; border:14px solid green;"">","null","","","","","","","","","",""
"","image-keyboard-response","132","86183","0.0-132.0","","","","","562.2000000029802","img/land2.png","74","563.4000000059605","1","0","3","1","1,0.5,0.5,0.5,1,0.5,0.5,0.5,1","1,0.5,0.5,0.5,1,0.5,0.5,0.5,1","1","",""
"","html-keyboard-response","133","86485","0.0-133.0","","","","","null","<img src=""img/land2.png"" style=""width:200px;border:14px solid red;"">","null","","","","","","","","","",""
"","image-keyboard-response","134","87095","0.0-134.0","","","","","607.7999999970198","img/land3.png","74","609.0999999940395","1","1","1","1","1,0.5,0.5,0.5,1,0.5,0.5,0.5,1","1,0.5,0.5,0.5,1,0.5,0.5,0.5,1","1","",""
"","html-keyboard-response","135","87397","0.0-135.0","","","","","null","<img src=""img/land3.png"" style=""width:200px; border:14px solid green;"">","null","","","","","","","","","",""
"","image-keyboard-response","136","88125","0.0-136.0","","","","","726.5999999940395","img/land2.png","76","727.8000000119209","3","1","3","1","1,0.5,0.5,0.5,1,0.5,0.5,0.5,1","1,0.5,0.5,0.5,1,0.5,0.5,0.5,1","1","",""
"","html-keyboard-response","137","88427","0.0-137.0","","","","","null","<img src=""img/land2.png"" style=""width:200px; border:14px solid green;"">","null","","","","","","","","","",""
"","image-keyboard-response","138","88994","0.0-138.0","","","","","565.7999999970198","img/land3.png","74","566.7000000029802","1","1","1","1","1,0.5,0.5,0.5,1,0.5,0.5,0.5,1","1,0.5,0.5,0.5,1,0.5,0.5,0.5,1","1","",""
"","html-keyboard-response","139","89296","0.0-139.0","","","","","null","<img src=""img/land3.png"" style=""width:200px; border:14px solid green;"">","null","","","","","","","","","",""
"","image-keyboard-response","140","89967","0.0-140.0","","","","","669.4000000059605","img/land2.png","76","670.5","3","1","3","1","1,0.5,0.5,0.5,1,0.5,0.5,0.5,1","1,0.5,0.5,0.5,1,0.5,0.5,0.5,1","1","",""
"","html-keyboard-response","141","90273","0.0-141.0","","","","","null","<img src=""img/land2.png"" style=""width:200px; border:14px solid green;"">","null","","","","","","","","","",""
"","image-keyboard-response","142","90835","0.0-142.0","","","","","560.2000000029802","img/land3.png","74","561.5999999940395","1","1","1","1","1,0.5,0.5,0.5,1,0.5,0.5,0.5,1","1,0.5,0.5,0.5,1,0.5,0.5,0.5,1","1","",""
"","html-keyboard-response","143","91137","0.0-143.0","","","","","null","<img src=""img/land3.png"" style=""width:200px; border:14px solid green;"">","null","","","","","","","","","",""
"","image-keyboard-response","144","91818","0.0-144.0","","","","","679.2000000029802","img/land1.png","75","680.3999999910593","2","1","2","1","1,0.5,0.5,0.5,1,0.5,0.5,0.5,1","1,0.5,0.5,0.5,1,0.5,0.5,0.5,1","1","",""
"","html-keyboard-response","145","92120","0.0-145.0","","","","","null","<img src=""img/land1.png"" style=""width:200px; border:14px solid green;"">","null","","","","","","","","","",""
"","image-keyboard-response","146","92851","0.0-146.0","","","","","729.9000000059605","img/land2.png","76","731.2000000029802","3","1","3","1","1,0.5,0.5,0.5,1,0.5,0.5,0.5,1","1,0.5,0.5,0.5,1,0.5,0.5,0.5,1","1","",""
"","html-keyboard-response","147","93153","0.0-147.0","","","","","null","<img src=""img/land2.png"" style=""width:200px; border:14px solid green;"">","null","","","","","","","","","",""
"","image-keyboard-response","148","93601","0.0-148.0","","","","","446.30000001192093","img/land2.png","76","447.80000001192093","3","1","3","1","1,0.5,0.5,0.5,1,0.5,0.5,0.5,1","1,0.5,0.5,0.5,1,0.5,0.5,0.5,1","1","",""
"","html-keyboard-response","149","93904","0.0-149.0","","","","","null","<img src=""img/land2.png"" style=""width:200px; border:14px solid green;"">","null","","","","","","","","","",""
"","image-keyboard-response","150","94546","0.0-150.0","","","","","640.6999999880791","img/land3.png","74","641.5999999940395","1","1","1","1","1,0.5,0.5,0.5,1,0.5,0.5,0.5,1","1,0.5,0.5,0.5,1,0.5,0.5,0.5,1","1","",""
"","html-keyboard-response","151","94848","0.0-151.0","","","","","null","<img src=""img/land3.png"" style=""width:200px; border:14px solid green;"">","null","","","","","","","","","",""
"","image-keyboard-response","152","95529","0.0-152.0","","","","","679.5999999940395","img/land1.png","75","680.6000000089407","2","1","2","1","1,0.5,0.5,0.5,1,0.5,0.5,0.5,1","1,0.5,0.5,0.5,1,0.5,0.5,0.5,1","1","",""
"","html-keyboard-response","153","95831","0.0-153.0","","","","","null","<img src=""img/land1.png"" style=""width:200px; border:14px solid green;"">","null","","","","","","","","","",""
"","image-keyboard-response","154","96591","0.0-154.0","","","","","758.2999999970198","img/land3.png","76","759.8000000119209","3","1","1","1","1,0.5,0.5,0.5,1,0.5,0.5,0.5,1","1,0.5,0.5,0.5,1,0.5,0.5,0.5,1","1","",""
"","html-keyboard-response","155","96894","0.0-155.0","","","","","null","<img src=""img/land3.png"" style=""width:200px; border:14px solid green;"">","null","","","","","","","","","",""
"","image-keyboard-response","156","97450","0.0-156.0","","","","","554.5","img/land3.png","74","555.5","1","1","1","1","1,0.5,0.5,0.5,1,0.5,0.5,0.5,1","1,0.5,0.5,0.5,1,0.5,0.5,0.5,1","1","",""
"","html-keyboard-response","157","97752","0.0-157.0","","","","","null","<img src=""img/land3.png"" style=""width:200px; border:14px solid green;"">","null","","","","","","","","","",""
"","image-keyboard-response","158","98188","0.0-158.0","","","","","434.09999999403954","img/land3.png","74","435.20000000298023","1","1","1","1","1,0.5,0.5,0.5,1,0.5,0.5,0.5,1","1,0.5,0.5,0.5,1,0.5,0.5,0.5,1","1","",""
"","html-keyboard-response","159","98490","0.0-159.0","","","","","null","<img src=""img/land3.png"" style=""width:200px; border:14px solid green;"">","null","","","","","","","","","",""
"","image-keyboard-response","160","99015","0.0-160.0","","","","","522.7999999970198","img/land2.png","76","524.2999999970198","3","1","3","1","1,0.5,0.5,0.5,1,0.5,0.5,0.5,1","1,0.5,0.5,0.5,1,0.5,0.5,0.5,1","1","",""
"","html-keyboard-response","161","99317","0.0-161.0","","","","","null","<img src=""img/land2.png"" style=""width:200px; border:14px solid green;"">","null","","","","","","","","","",""
"","image-keyboard-response","162","99941","0.0-162.0","","","","","622.7999999970198","img/land1.png","75","623.7999999970198","2","1","2","1","1,0.5,0.5,0.5,1,0.5,0.5,0.5,1","1,0.5,0.5,0.5,1,0.5,0.5,0.5,1","1","",""
"","html-keyboard-response","163","100243","0.0-163.0","","","","","null","<img src=""img/land1.png"" style=""width:200px; border:14px solid green;"">","null","","","","","","","","","",""
"","image-keyboard-response","164","101002","0.0-164.0","","","","","758.2000000029802","img/land2.png","76","759.0999999940395","3","1","3","1","1,0.5,0.5,0.5,1,0.5,0.5,0.5,1","1,0.5,0.5,0.5,1,0.5,0.5,0.5,1","1","",""
"","html-keyboard-response","165","101305","0.0-165.0","","","","","null","<img src=""img/land2.png"" style=""width:200px; border:14px solid green;"">","null","","","","","","","","","",""
"","image-keyboard-response","166","102015","0.0-166.0","","","","","709.4000000059605","img/land1.png","75","710","2","1","2","1","1,0.5,0.5,0.5,1,0.5,0.5,0.5,1","1,0.5,0.5,0.5,1,0.5,0.5,0.5,1","1","",""
"","html-keyboard-response","167","102317","0.0-167.0","","","","","null","<img src=""img/land1.png"" style=""width:200px; border:14px solid green;"">","null","","","","","","","","","",""
"","image-keyboard-response","168","102865","0.0-168.0","","","","","545.2999999970198","img/land3.png","74","546.7999999970198","1","1","1","1","1,0.5,0.5,0.5,1,0.5,0.5,0.5,1","1,0.5,0.5,0.5,1,0.5,0.5,0.5,1","1","",""
"","html-keyboard-response","169","103167","0.0-169.0","","","","","null","<img src=""img/land3.png"" style=""width:200px; border:14px solid green;"">","null","","","","","","","","","",""
"","image-keyboard-response","170","103945","0.0-170.0","","","","","775.9000000059605","img/land1.png","75","777.2999999970198","2","1","2","1","1,0.5,0.5,0.5,1,0.5,0.5,0.5,1","1,0.5,0.5,0.5,1,0.5,0.5,0.5,1","1","",""
"","html-keyboard-response","171","104246","0.0-171.0","","","","","null","<img src=""img/land1.png"" style=""width:200px; border:14px solid green;"">","null","","","","","","","","","",""
"","image-keyboard-response","172","104868","0.0-172.0","","","","","621.3000000119209","img/land2.png","76","622.2999999970198","3","1","3","1","1,0.5,0.5,0.5,1,0.5,0.5,0.5,1","1,0.5,0.5,0.5,1,0.5,0.5,0.5,1","1","",""
"","html-keyboard-response","173","105174","0.0-173.0","","","","","null","<img src=""img/land2.png"" style=""width:200px; border:14px solid green;"">","null","","","","","","","","","",""
"","image-keyboard-response","174","105738","0.0-174.0","","","","","562.0999999940395","img/land3.png","74","563.4000000059605","1","1","1","1","1,0.5,0.5,0.5,1,0.5,0.5,0.5,1","1,0.5,0.5,0.5,1,0.5,0.5,0.5,1","1","",""
"","html-keyboard-response","175","106040","0.0-175.0","","","","","null","<img src=""img/land3.png"" style=""width:200px; border:14px solid green;"">","null","","","","","","","","","",""
"","image-keyboard-response","176","106540","0.0-176.0","","","","","499.40000000596046","img/land3.png","74","500.40000000596046","1","1","1","1","1,0.5,0.5,0.5,1,0.5,0.5,0.5,1","1,0.5,0.5,0.5,1,0.5,0.5,0.5,1","1","",""
"","html-keyboard-response","177","106843","0.0-177.0","","","","","null","<img src=""img/land3.png"" style=""width:200px; border:14px solid green;"">","null","","","","","","","","","",""
"","image-keyboard-response","178","107403","0.0-178.0","","","","","558.5","img/land2.png","75","559.9000000059605","2","1","3","1","1,0.5,0.5,0.5,1,0.5,0.5,0.5,1","1,0.5,0.5,0.5,1,0.5,0.5,0.5,1","1","",""
"","html-keyboard-response","179","107705","0.0-179.0","","","","","null","<img src=""img/land2.png"" style=""width:200px; border:14px solid green;"">","null","","","","","","","","","",""
"","image-keyboard-response","180","108414","0.0-180.0","","","","","707.4000000059605","img/land1.png","75","708.2000000029802","2","1","2","1","1,0.5,0.5,0.5,1,0.5,0.5,0.5,1","1,0.5,0.5,0.5,1,0.5,0.5,0.5,1","1","",""
"","html-keyboard-response","181","108729","0.0-181.0","","","","","null","<img src=""img/land1.png"" style=""width:200px; border:14px solid green;"">","null","","","","","","","","","",""
"","html-keyboard-response","182","127870","0.0-182.0","","","","","","","","","","","","","","","","",""
"","image-keyboard-response","183","128634","0.0-183.0","","","","","762.7000000029802","img/land6.png","75","763.6000000089407","2","0","2","2","1,0.5,0.5,0.5,1,0.5,0.5,0.5,1","0.5,0.5,1,1,0.5,0.5,0.5,1,0.5","2","",""
"","html-keyboard-response","184","128935","0.0-184.0","","","","","null","<img src=""img/land6.png"" style=""width:200px;border:14px solid red;"">","null","","","","","","","","","",""
"","image-keyboard-response","185","129469","0.0-185.0","","","","","531.7000000029802","img/land5.png","74","533","1","0","1","2","1,0.5,0.5,0.5,1,0.5,0.5,0.5,1","0.5,0.5,1,1,0.5,0.5,0.5,1,0.5","2","",""
"","html-keyboard-response","186","129770","0.0-186.0","","","","","null","<img src=""img/land5.png"" style=""width:200px;border:14px solid red;"">","null","","","","","","","","","",""
"","image-keyboard-response","187","130312","0.0-187.0","","","","","540.1999999880791","img/land4.png","76","541.4000000059605","3","0","3","2","1,0.5,0.5,0.5,1,0.5,0.5,0.5,1","0.5,0.5,1,1,0.5,0.5,0.5,1,0.5","2","",""
"","html-keyboard-response","188","130614","0.0-188.0","","","","","null","<img src=""img/land4.png"" style=""width:200px;border:14px solid red;"">","null","","","","","","","","","",""
"","image-keyboard-response","189","131060","0.0-189.0","","","","","443.59999999403954","img/land5.png","75","444.8999999910593","2","1","1","2","1,0.5,0.5,0.5,1,0.5,0.5,0.5,1","0.5,0.5,1,1,0.5,0.5,0.5,1,0.5","2","",""
"","html-keyboard-response","190","131362","0.0-190.0","","","","","null","<img src=""img/land5.png"" style=""width:200px; border:14px solid green;"">","null","","","","","","","","","",""
"","image-keyboard-response","191","131730","0.0-191.0","","","","","367.5","img/land5.png","75","368.3999999910593","2","0","1","2","1,0.5,0.5,0.5,1,0.5,0.5,0.5,1","0.5,0.5,1,1,0.5,0.5,0.5,1,0.5","2","",""
"","html-keyboard-response","192","132032","0.0-192.0","","","","","null","<img src=""img/land5.png"" style=""width:200px;border:14px solid red;"">","null","","","","","","","","","",""
"","image-keyboard-response","193","132473","0.0-193.0","","","","","439.40000000596046","img/land5.png","74","441.20000000298023","1","0","1","2","1,0.5,0.5,0.5,1,0.5,0.5,0.5,1","0.5,0.5,1,1,0.5,0.5,0.5,1,0.5","2","",""
"","html-keyboard-response","194","132775","0.0-194.0","","","","","null","<img src=""img/land5.png"" style=""width:200px;border:14px solid red;"">","null","","","","","","","","","",""
"","image-keyboard-response","195","133410","0.0-195.0","","","","","633.2999999970198","img/land6.png","76","634.5","3","0","2","2","1,0.5,0.5,0.5,1,0.5,0.5,0.5,1","0.5,0.5,1,1,0.5,0.5,0.5,1,0.5","2","",""
"","html-keyboard-response","196","133712","0.0-196.0","","","","","null","<img src=""img/land6.png"" style=""width:200px;border:14px solid red;"">","null","","","","","","","","","",""
"","image-keyboard-response","197","134260","0.0-197.0","","","","","546","img/land4.png","74","547.5999999940395","1","1","3","2","1,0.5,0.5,0.5,1,0.5,0.5,0.5,1","0.5,0.5,1,1,0.5,0.5,0.5,1,0.5","2","",""
"","html-keyboard-response","198","134563","0.0-198.0","","","","","null","<img src=""img/land4.png"" style=""width:200px; border:14px solid green;"">","null","","","","","","","","","",""
"","image-keyboard-response","199","135501","0.0-199.0","","","","","936.6000000089407","img/land5.png","75","937.7999999970198","2","0","1","2","1,0.5,0.5,0.5,1,0.5,0.5,0.5,1","0.5,0.5,1,1,0.5,0.5,0.5,1,0.5","2","",""
"","html-keyboard-response","200","135803","0.0-200.0","","","","","null","<img src=""img/land5.png"" style=""width:200px;border:14px solid red;"">","null","","","","","","","","","",""
"","image-keyboard-response","201","136454","0.0-201.0","","","","","649.6000000089407","img/land5.png","76","650.9000000059605","3","1","1","2","1,0.5,0.5,0.5,1,0.5,0.5,0.5,1","0.5,0.5,1,1,0.5,0.5,0.5,1,0.5","2","",""
"","html-keyboard-response","202","136756","0.0-202.0","","","","","null","<img src=""img/land5.png"" style=""width:200px; border:14px solid green;"">","null","","","","","","","","","",""
"","image-keyboard-response","203","137265","0.0-203.0","","","","","507.70000000298023","img/land5.png","76","509","3","1","1","2","1,0.5,0.5,0.5,1,0.5,0.5,0.5,1","0.5,0.5,1,1,0.5,0.5,0.5,1,0.5","2","",""
"","html-keyboard-response","204","137568","0.0-204.0","","","","","null","<img src=""img/land5.png"" style=""width:200px; border:14px solid green;"">","null","","","","","","","","","",""
"","image-keyboard-response","205","137977","0.0-205.0","","","","","407.5","img/land5.png","76","408.69999998807907","3","1","1","2","1,0.5,0.5,0.5,1,0.5,0.5,0.5,1","0.5,0.5,1,1,0.5,0.5,0.5,1,0.5","2","",""
"","html-keyboard-response","206","138279","0.0-206.0","","","","","null","<img src=""img/land5.png"" style=""width:200px; border:14px solid green;"">","null","","","","","","","","","",""
"","image-keyboard-response","207","138625","0.0-207.0","","","","","344.90000000596046","img/land5.png","76","345.69999998807907","3","1","1","2","1,0.5,0.5,0.5,1,0.5,0.5,0.5,1","0.5,0.5,1,1,0.5,0.5,0.5,1,0.5","2","",""
"","html-keyboard-response","208","138927","0.0-208.0","","","","","null","<img src=""img/land5.png"" style=""width:200px; border:14px solid green;"">","null","","","","","","","","","",""
"","image-keyboard-response","209","139343","0.0-209.0","","","","","414.30000001192093","img/land5.png","76","415.70000000298023","3","1","1","2","1,0.5,0.5,0.5,1,0.5,0.5,0.5,1","0.5,0.5,1,1,0.5,0.5,0.5,1,0.5","2","",""
"","html-keyboard-response","210","139646","0.0-210.0","","","","","null","<img src=""img/land5.png"" style=""width:200px; border:14px solid green;"">","null","","","","","","","","","",""
"","image-keyboard-response","211","140006","0.0-211.0","","","","","358.5","img/land5.png","76","359.90000000596046","3","1","1","2","1,0.5,0.5,0.5,1,0.5,0.5,0.5,1","0.5,0.5,1,1,0.5,0.5,0.5,1,0.5","2","",""
"","html-keyboard-response","212","140307","0.0-212.0","","","","","null","<img src=""img/land5.png"" style=""width:200px; border:14px solid green;"">","null","","","","","","","","","",""
"","image-keyboard-response","213","140848","0.0-213.0","","","","","538.7999999970198","img/land4.png","75","540.3000000119209","2","1","3","2","1,0.5,0.5,0.5,1,0.5,0.5,0.5,1","0.5,0.5,1,1,0.5,0.5,0.5,1,0.5","2","",""
"","html-keyboard-response","214","141151","0.0-214.0","","","","","null","<img src=""img/land4.png"" style=""width:200px; border:14px solid green;"">","null","","","","","","","","","",""
"","image-keyboard-response","215","141804","0.0-215.0","","","","","651.7999999970198","img/land5.png","74","653.1000000089407","1","0","1","2","1,0.5,0.5,0.5,1,0.5,0.5,0.5,1","0.5,0.5,1,1,0.5,0.5,0.5,1,0.5","2","",""
"","html-keyboard-response","216","142106","0.0-216.0","","","","","null","<img src=""img/land5.png"" style=""width:200px;border:14px solid red;"">","null","","","","","","","","","",""
"","image-keyboard-response","217","142561","0.0-217.0","","","","","452.29999999701977","img/land5.png","76","453.90000000596046","3","1","1","2","1,0.5,0.5,0.5,1,0.5,0.5,0.5,1","0.5,0.5,1,1,0.5,0.5,0.5,1,0.5","2","",""
"","html-keyboard-response","218","142862","0.0-218.0","","","","","null","<img src=""img/land5.png"" style=""width:200px; border:14px solid green;"">","null","","","","","","","","","",""
"","image-keyboard-response","219","143312","0.0-219.0","","","","","448","img/land5.png","76","449.30000001192093","3","1","1","2","1,0.5,0.5,0.5,1,0.5,0.5,0.5,1","0.5,0.5,1,1,0.5,0.5,0.5,1,0.5","2","",""
"","html-keyboard-response","220","143615","0.0-220.0","","","","","null","<img src=""img/land5.png"" style=""width:200px; border:14px solid green;"">","null","","","","","","","","","",""
"","image-keyboard-response","221","143978","0.0-221.0","","","","","361.90000000596046","img/land5.png","76","362.3999999910593","3","1","1","2","1,0.5,0.5,0.5,1,0.5,0.5,0.5,1","0.5,0.5,1,1,0.5,0.5,0.5,1,0.5","2","",""
"","html-keyboard-response","222","144279","0.0-222.0","","","","","null","<img src=""img/land5.png"" style=""width:200px; border:14px solid green;"">","null","","","","","","","","","",""
"","image-keyboard-response","223","144640","0.0-223.0","","","","","359.5","img/land5.png","76","360.8999999910593","3","1","1","2","1,0.5,0.5,0.5,1,0.5,0.5,0.5,1","0.5,0.5,1,1,0.5,0.5,0.5,1,0.5","2","",""
"","html-keyboard-response","224","144943","0.0-224.0","","","","","null","<img src=""img/land5.png"" style=""width:200px; border:14px solid green;"">","null","","","","","","","","","",""
"","image-keyboard-response","225","145448","0.0-225.0","","","","","503.70000000298023","img/land6.png","75","505","2","1","2","2","1,0.5,0.5,0.5,1,0.5,0.5,0.5,1","0.5,0.5,1,1,0.5,0.5,0.5,1,0.5","2","",""
"","html-keyboard-response","226","145752","0.0-226.0","","","","","null","<img src=""img/land6.png"" style=""width:200px; border:14px solid green;"">","null","","","","","","","","","",""
"","image-keyboard-response","227","146399","0.0-227.0","","","","","645.2999999970198","img/land5.png","76","646.6000000089407","3","1","1","2","1,0.5,0.5,0.5,1,0.5,0.5,0.5,1","0.5,0.5,1,1,0.5,0.5,0.5,1,0.5","2","",""
"","html-keyboard-response","228","146701","0.0-228.0","","","","","null","<img src=""img/land5.png"" style=""width:200px; border:14px solid green;"">","null","","","","","","","","","",""
"","image-keyboard-response","229","147305","0.0-229.0","","","","","602.5","img/land6.png","75","603.5999999940395","2","1","2","2","1,0.5,0.5,0.5,1,0.5,0.5,0.5,1","0.5,0.5,1,1,0.5,0.5,0.5,1,0.5","2","",""
"","html-keyboard-response","230","147607","0.0-230.0","","","","","null","<img src=""img/land6.png"" style=""width:200px; border:14px solid green;"">","null","","","","","","","","","",""
"","image-keyboard-response","231","148172","0.0-231.0","","","","","564.2000000029802","img/land5.png","76","565","3","1","1","2","1,0.5,0.5,0.5,1,0.5,0.5,0.5,1","0.5,0.5,1,1,0.5,0.5,0.5,1,0.5","2","",""
"","html-keyboard-response","232","148475","0.0-232.0","","","","","null","<img src=""img/land5.png"" style=""width:200px; border:14px solid green;"">","null","","","","","","","","","",""
"","image-keyboard-response","233","149166","0.0-233.0","","","","","689.2000000029802","img/land6.png","75","690.5999999940395","2","0","2","2","1,0.5,0.5,0.5,1,0.5,0.5,0.5,1","0.5,0.5,1,1,0.5,0.5,0.5,1,0.5","2","",""
"","html-keyboard-response","234","149468","0.0-234.0","","","","","null","<img src=""img/land6.png"" style=""width:200px;border:14px solid red;"">","null","","","","","","","","","",""
"","image-keyboard-response","235","150280","0.0-235.0","","","","","811.0999999940395","img/land5.png","76","812.5","3","1","1","2","1,0.5,0.5,0.5,1,0.5,0.5,0.5,1","0.5,0.5,1,1,0.5,0.5,0.5,1,0.5","2","",""
"","html-keyboard-response","236","150583","0.0-236.0","","","","","null","<img src=""img/land5.png"" style=""width:200px; border:14px solid green;"">","null","","","","","","","","","",""
"","image-keyboard-response","237","151296","0.0-237.0","","","","","710.7000000029802","img/land6.png","75","712.0999999940395","2","1","2","2","1,0.5,0.5,0.5,1,0.5,0.5,0.5,1","0.5,0.5,1,1,0.5,0.5,0.5,1,0.5","2","",""
"","html-keyboard-response","238","151597","0.0-238.0","","","","","null","<img src=""img/land6.png"" style=""width:200px; border:14px solid green;"">","null","","","","","","","","","",""
"","image-keyboard-response","239","152406","0.0-239.0","","","","","808","img/land4.png","74","808.6000000089407","1","1","3","2","1,0.5,0.5,0.5,1,0.5,0.5,0.5,1","0.5,0.5,1,1,0.5,0.5,0.5,1,0.5","2","",""
"","html-keyboard-response","240","152708","0.0-240.0","","","","","null","<img src=""img/land4.png"" style=""width:200px; border:14px solid green;"">","null","","","","","","","","","",""
"","image-keyboard-response","241","153267","0.0-241.0","","","","","557.5999999940395","img/land5.png","76","558.7999999970198","3","1","1","2","1,0.5,0.5,0.5,1,0.5,0.5,0.5,1","0.5,0.5,1,1,0.5,0.5,0.5,1,0.5","2","",""
"","html-keyboard-response","242","153569","0.0-242.0","","","","","null","<img src=""img/land5.png"" style=""width:200px; border:14px solid green;"">","null","","","","","","","","","",""
"","image-keyboard-response","243","154420","0.0-243.0","","","","","849.5","img/land6.png","75","850.8000000119209","2","1","2","2","1,0.5,0.5,0.5,1,0.5,0.5,0.5,1","0.5,0.5,1,1,0.5,0.5,0.5,1,0.5","2","",""
"","html-keyboard-response","244","154724","0.0-244.0","","","","","null","<img src=""img/land6.png"" style=""width:200px; border:14px solid green;"">","null","","","","","","","","","",""
"","image-keyboard-response","245","155394","0.0-245.0","","","","","668.5","img/land5.png","76","669.7999999970198","3","1","1","2","1,0.5,0.5,0.5,1,0.5,0.5,0.5,1","0.5,0.5,1,1,0.5,0.5,0.5,1,0.5","2","",""
"","html-keyboard-response","246","155696","0.0-246.0","","","","","null","<img src=""img/land5.png"" style=""width:200px; border:14px solid green;"">","null","","","","","","","","","",""
"","image-keyboard-response","247","156288","0.0-247.0","","","","","591.5999999940395","img/land4.png","74","592.4000000059605","1","1","3","2","1,0.5,0.5,0.5,1,0.5,0.5,0.5,1","0.5,0.5,1,1,0.5,0.5,0.5,1,0.5","2","",""
"","html-keyboard-response","248","156591","0.0-248.0","","","","","null","<img src=""img/land4.png"" style=""width:200px; border:14px solid green;"">","null","","","","","","","","","",""
"","image-keyboard-response","249","157262","0.0-249.0","","","","","669.2000000029802","img/land5.png","76","670.6000000089407","3","1","1","2","1,0.5,0.5,0.5,1,0.5,0.5,0.5,1","0.5,0.5,1,1,0.5,0.5,0.5,1,0.5","2","",""
"","html-keyboard-response","250","157564","0.0-250.0","","","","","null","<img src=""img/land5.png"" style=""width:200px; border:14px solid green;"">","null","","","","","","","","","",""
"","image-keyboard-response","251","158052","0.0-251.0","","","","","485.79999999701977","img/land5.png","76","487.20000000298023","3","1","1","2","1,0.5,0.5,0.5,1,0.5,0.5,0.5,1","0.5,0.5,1,1,0.5,0.5,0.5,1,0.5","2","",""
"","html-keyboard-response","252","158354","0.0-252.0","","","","","null","<img src=""img/land5.png"" style=""width:200px; border:14px solid green;"">","null","","","","","","","","","",""
"","image-keyboard-response","253","158818","0.0-253.0","","","","","462.20000000298023","img/land6.png","75","463.20000000298023","2","0","2","2","1,0.5,0.5,0.5,1,0.5,0.5,0.5,1","0.5,0.5,1,1,0.5,0.5,0.5,1,0.5","2","",""
"","html-keyboard-response","254","159121","0.0-254.0","","","","","null","<img src=""img/land6.png"" style=""width:200px;border:14px solid red;"">","null","","","","","","","","","",""
"","image-keyboard-response","255","159780","0.0-255.0","","","","","657.2000000029802","img/land5.png","76","658.5","3","1","1","2","1,0.5,0.5,0.5,1,0.5,0.5,0.5,1","0.5,0.5,1,1,0.5,0.5,0.5,1,0.5","2","",""
"","html-keyboard-response","256","160082","0.0-256.0","","","","","null","<img src=""img/land5.png"" style=""width:200px; border:14px solid green;"">","null","","","","","","","","","",""
"","image-keyboard-response","257","160609","0.0-257.0","","","","","526.8999999910593","img/land5.png","76","527.5999999940395","3","1","1","2","1,0.5,0.5,0.5,1,0.5,0.5,0.5,1","0.5,0.5,1,1,0.5,0.5,0.5,1,0.5","2","",""
"","html-keyboard-response","258","160912","0.0-258.0","","","","","null","<img src=""img/land5.png"" style=""width:200px; border:14px solid green;"">","null","","","","","","","","","",""
"","image-keyboard-response","259","161641","0.0-259.0","","","","","727","img/land6.png","75","728.4000000059605","2","0","2","2","1,0.5,0.5,0.5,1,0.5,0.5,0.5,1","0.5,0.5,1,1,0.5,0.5,0.5,1,0.5","2","",""
"","html-keyboard-response","260","161943","0.0-260.0","","","","","null","<img src=""img/land6.png"" style=""width:200px;border:14px solid red;"">","null","","","","","","","","","",""
"","image-keyboard-response","261","162752","0.0-261.0","","","","","807.1999999880791","img/land5.png","76","808.2999999970198","3","1","1","2","1,0.5,0.5,0.5,1,0.5,0.5,0.5,1","0.5,0.5,1,1,0.5,0.5,0.5,1,0.5","2","",""
"","html-keyboard-response","262","163054","0.0-262.0","","","","","null","<img src=""img/land5.png"" style=""width:200px; border:14px solid green;"">","null","","","","","","","","","",""
"","image-keyboard-response","263","163572","0.0-263.0","","","","","516.7000000029802","img/land6.png","74","518.0999999940395","1","1","2","2","1,0.5,0.5,0.5,1,0.5,0.5,0.5,1","0.5,0.5,1,1,0.5,0.5,0.5,1,0.5","2","",""
"","html-keyboard-response","264","163875","0.0-264.0","","","","","null","<img src=""img/land6.png"" style=""width:200px; border:14px solid green;"">","null","","","","","","","","","",""
"","image-keyboard-response","265","164669","0.0-265.0","","","","","793.2999999970198","img/land4.png","74","794.2000000029802","1","1","3","2","1,0.5,0.5,0.5,1,0.5,0.5,0.5,1","0.5,0.5,1,1,0.5,0.5,0.5,1,0.5","2","",""
"","html-keyboard-response","266","164971","0.0-266.0","","","","","null","<img src=""img/land4.png"" style=""width:200px; border:14px solid green;"">","null","","","","","","","","","",""
"","image-keyboard-response","267","165790","0.0-267.0","","","","","817","img/land5.png","76","818.0999999940395","3","1","1","2","1,0.5,0.5,0.5,1,0.5,0.5,0.5,1","0.5,0.5,1,1,0.5,0.5,0.5,1,0.5","2","",""
"","html-keyboard-response","268","166091","0.0-268.0","","","","","null","<img src=""img/land5.png"" style=""width:200px; border:14px solid green;"">","null","","","","","","","","","",""
"","image-keyboard-response","269","166557","0.0-269.0","","","","","464.8999999910593","img/land5.png","76","466.29999999701977","3","1","1","2","1,0.5,0.5,0.5,1,0.5,0.5,0.5,1","0.5,0.5,1,1,0.5,0.5,0.5,1,0.5","2","",""
"","html-keyboard-response","270","166860","0.0-270.0","","","","","null","<img src=""img/land5.png"" style=""width:200px; border:14px solid green;"">","null","","","","","","","","","",""
"","image-keyboard-response","271","167221","0.0-271.0","","","","","359.09999999403954","img/land5.png","76","360.59999999403954","3","1","1","2","1,0.5,0.5,0.5,1,0.5,0.5,0.5,1","0.5,0.5,1,1,0.5,0.5,0.5,1,0.5","2","",""
"","html-keyboard-response","272","167524","0.0-272.0","","","","","null","<img src=""img/land5.png"" style=""width:200px; border:14px solid green;"">","null","","","","","","","","","",""
"","image-keyboard-response","273","167883","0.0-273.0","","","","","358.8999999910593","img/land5.png","76","359.59999999403954","3","1","1","2","1,0.5,0.5,0.5,1,0.5,0.5,0.5,1","0.5,0.5,1,1,0.5,0.5,0.5,1,0.5","2","",""
"","html-keyboard-response","274","168185","0.0-274.0","","","","","null","<img src=""img/land5.png"" style=""width:200px; border:14px solid green;"">","null","","","","","","","","","",""
"","image-keyboard-response","275","168631","0.0-275.0","","","","","444.29999999701977","img/land5.png","76","445.79999999701977","3","1","1","2","1,0.5,0.5,0.5,1,0.5,0.5,0.5,1","0.5,0.5,1,1,0.5,0.5,0.5,1,0.5","2","",""
"","html-keyboard-response","276","168934","0.0-276.0","","","","","null","<img src=""img/land5.png"" style=""width:200px; border:14px solid green;"">","null","","","","","","","","","",""
"","image-keyboard-response","277","169786","0.0-277.0","","","","","850.0999999940395","img/land6.png","75","851.6999999880791","2","0","2","2","1,0.5,0.5,0.5,1,0.5,0.5,0.5,1","0.5,0.5,1,1,0.5,0.5,0.5,1,0.5","2","",""
"","html-keyboard-response","278","170089","0.0-278.0","","","","","null","<img src=""img/land6.png"" style=""width:200px;border:14px solid red;"">","null","","","","","","","","","",""
"","image-keyboard-response","279","170382","0.0-279.0","","","","","292.79999999701977","img/land5.png","74","293.40000000596046","1","1","1","2","1,0.5,0.5,0.5,1,0.5,0.5,0.5,1","0.5,0.5,1,1,0.5,0.5,0.5,1,0.5","2","",""
"","html-keyboard-response","280","170684","0.0-280.0","","","","","null","<img src=""img/land5.png"" style=""width:200px; border:14px solid green;"">","null","","","","","","","","","",""
"","image-keyboard-response","281","171866","0.0-281.0","","","","","1180","img/land6.png","74","1181.9000000059605","1","1","2","2","1,0.5,0.5,0.5,1,0.5,0.5,0.5,1","0.5,0.5,1,1,0.5,0.5,0.5,1,0.5","2","",""
"","html-keyboard-response","282","172169","0.0-282.0","","","","","null","<img src=""img/land6.png"" style=""width:200px; border:14px solid green;"">","null","","","","","","","","","",""
"","image-keyboard-response","283","172838","0.0-283.0","","","","","668.7999999970198","img/land4.png","76","669.5","3","0","3","2","1,0.5,0.5,0.5,1,0.5,0.5,0.5,1","0.5,0.5,1,1,0.5,0.5,0.5,1,0.5","2","",""
"","html-keyboard-response","284","173140","0.0-284.0","","","","","null","<img src=""img/land4.png"" style=""width:200px;border:14px solid red;"">","null","","","","","","","","","",""
"","image-keyboard-response","285","174526","0.0-285.0","","","","","1384.5","img/land6.png","75","1386.0999999940395","2","1","2","2","1,0.5,0.5,0.5,1,0.5,0.5,0.5,1","0.5,0.5,1,1,0.5,0.5,0.5,1,0.5","2","",""
"","html-keyboard-response","286","174829","0.0-286.0","","","","","null","<img src=""img/land6.png"" style=""width:200px; border:14px solid green;"">","null","","","","","","","","","",""
"","image-keyboard-response","287","175549","0.0-287.0","","","","","717.7000000029802","img/land5.png","76","718.7999999970198","3","1","1","2","1,0.5,0.5,0.5,1,0.5,0.5,0.5,1","0.5,0.5,1,1,0.5,0.5,0.5,1,0.5","2","",""
"","html-keyboard-response","288","175864","0.0-288.0","","","","","null","<img src=""img/land5.png"" style=""width:200px; border:14px solid green;"">","null","","","","","","","","","",""
"","image-keyboard-response","289","176597","0.0-289.0","","","","","732.8999999910593","img/land4.png","74","733.6999999880791","1","1","3","2","1,0.5,0.5,0.5,1,0.5,0.5,0.5,1","0.5,0.5,1,1,0.5,0.5,0.5,1,0.5","2","",""
"","html-keyboard-response","290","176900","0.0-290.0","","","","","null","<img src=""img/land4.png"" style=""width:200px; border:14px solid green;"">","null","","","","","","","","","",""
"","image-keyboard-response","291","178229","0.0-291.0","","","","","1327.5999999940395","img/land5.png","76","1328.699999988079","3","1","1","2","1,0.5,0.5,0.5,1,0.5,0.5,0.5,1","0.5,0.5,1,1,0.5,0.5,0.5,1,0.5","2","",""
"","html-keyboard-response","292","178531","0.0-292.0","","","","","null","<img src=""img/land5.png"" style=""width:200px; border:14px solid green;"">","null","","","","","","","","","",""
"","image-keyboard-response","293","179428","0.0-293.0","","","","","895.2999999970198","img/land4.png","74","896.2999999970198","1","1","3","2","1,0.5,0.5,0.5,1,0.5,0.5,0.5,1","0.5,0.5,1,1,0.5,0.5,0.5,1,0.5","2","",""
"","html-keyboard-response","294","179730","0.0-294.0","","","","","null","<img src=""img/land4.png"" style=""width:200px; border:14px solid green;"">","null","","","","","","","","","",""
"","image-keyboard-response","295","180438","0.0-295.0","","","","","706.7999999970198","img/land5.png","76","707.9000000059605","3","1","1","2","1,0.5,0.5,0.5,1,0.5,0.5,0.5,1","0.5,0.5,1,1,0.5,0.5,0.5,1,0.5","2","",""
"","html-keyboard-response","296","180741","0.0-296.0","","","","","null","<img src=""img/land5.png"" style=""width:200px; border:14px solid green;"">","null","","","","","","","","","",""
"","image-keyboard-response","297","181473","0.0-297.0","","","","","730.9000000059605","img/land4.png","74","732.2000000029802","1","1","3","2","1,0.5,0.5,0.5,1,0.5,0.5,0.5,1","0.5,0.5,1,1,0.5,0.5,0.5,1,0.5","2","",""
"","html-keyboard-response","298","181776","0.0-298.0","","","","","null","<img src=""img/land4.png"" style=""width:200px; border:14px solid green;"">","null","","","","","","","","","",""
"","image-keyboard-response","299","182612","0.0-299.0","","","","","834.5","img/land5.png","76","835.8000000119209","3","1","1","2","1,0.5,0.5,0.5,1,0.5,0.5,0.5,1","0.5,0.5,1,1,0.5,0.5,0.5,1,0.5","2","",""
"","html-keyboard-response","300","182915","0.0-300.0","","","","","null","<img src=""img/land5.png"" style=""width:200px; border:14px solid green;"">","null","","","","","","","","","",""
"","image-keyboard-response","301","183657","0.0-301.0","","","","","740.1999999880791","img/land4.png","74","741.6999999880791","1","0","3","2","1,0.5,0.5,0.5,1,0.5,0.5,0.5,1","0.5,0.5,1,1,0.5,0.5,0.5,1,0.5","2","",""
"","html-keyboard-response","302","183959","0.0-302.0","","","","","null","<img src=""img/land4.png"" style=""width:200px;border:14px solid red;"">","null","","","","","","","","","",""
"","image-keyboard-response","303","184738","0.0-303.0","","","","","778.5","img/land5.png","76","779.3999999910593","3","1","1","2","1,0.5,0.5,0.5,1,0.5,0.5,0.5,1","0.5,0.5,1,1,0.5,0.5,0.5,1,0.5","2","",""
"","html-keyboard-response","304","185040","0.0-304.0","","","","","null","<img src=""img/land5.png"" style=""width:200px; border:14px solid green;"">","null","","","","","","","","","",""
"","image-keyboard-response","305","185570","0.0-305.0","","","","","527.8999999910593","img/land5.png","76","529.1000000089407","3","1","1","2","1,0.5,0.5,0.5,1,0.5,0.5,0.5,1","0.5,0.5,1,1,0.5,0.5,0.5,1,0.5","2","",""
"","html-keyboard-response","306","185871","0.0-306.0","","","","","null","<img src=""img/land5.png"" style=""width:200px; border:14px solid green;"">","null","","","","","","","","","",""
"","image-keyboard-response","307","186480","0.0-307.0","","","","","607.2999999970198","img/land4.png","74","608.1999999880791","1","0","3","2","1,0.5,0.5,0.5,1,0.5,0.5,0.5,1","0.5,0.5,1,1,0.5,0.5,0.5,1,0.5","2","",""
"","html-keyboard-response","308","186782","0.0-308.0","","","","","null","<img src=""img/land4.png"" style=""width:200px;border:14px solid red;"">","null","","","","","","","","","",""
"","image-keyboard-response","309","187654","0.0-309.0","","","","","869.7999999970198","img/land5.png","76","871.2000000029802","3","1","1","2","1,0.5,0.5,0.5,1,0.5,0.5,0.5,1","0.5,0.5,1,1,0.5,0.5,0.5,1,0.5","2","",""
"","html-keyboard-response","310","187956","0.0-310.0","","","","","null","<img src=""img/land5.png"" style=""width:200px; border:14px solid green;"">","null","","","","","","","","","",""
"","image-keyboard-response","311","188707","0.0-311.0","","","","","749.1000000089407","img/land4.png","75","750.2999999970198","2","1","3","2","1,0.5,0.5,0.5,1,0.5,0.5,0.5,1","0.5,0.5,1,1,0.5,0.5,0.5,1,0.5","2","",""
"","html-keyboard-response","312","189009","0.0-312.0","","","","","null","<img src=""img/land4.png"" style=""width:200px; border:14px solid green;"">","null","","","","","","","","","",""
"","image-keyboard-response","313","189900","0.0-313.0","","","","","890","img/land5.png","76","890.7000000029802","3","1","1","2","1,0.5,0.5,0.5,1,0.5,0.5,0.5,1","0.5,0.5,1,1,0.5,0.5,0.5,1,0.5","2","",""
"","html-keyboard-response","314","190213","0.0-314.0","","","","","null","<img src=""img/land5.png"" style=""width:200px; border:14px solid green;"">","null","","","","","","","","","",""
"","image-keyboard-response","315","190899","0.0-315.0","","","","","684.3999999910593","img/land6.png","75","685.7999999970198","2","0","2","2","1,0.5,0.5,0.5,1,0.5,0.5,0.5,1","0.5,0.5,1,1,0.5,0.5,0.5,1,0.5","2","",""
"","html-keyboard-response","316","191202","0.0-316.0","","","","","null","<img src=""img/land6.png"" style=""width:200px;border:14px solid red;"">","null","","","","","","","","","",""
"","image-keyboard-response","317","191824","0.0-317.0","","","","","621","img/land6.png","74","622.5","1","1","2","2","1,0.5,0.5,0.5,1,0.5,0.5,0.5,1","0.5,0.5,1,1,0.5,0.5,0.5,1,0.5","2","",""
"","html-keyboard-response","318","192126","0.0-318.0","","","","","null","<img src=""img/land6.png"" style=""width:200px; border:14px solid green;"">","null","","","","","","","","","",""
"","image-keyboard-response","319","192975","0.0-319.0","","","","","847.4000000059605","img/land5.png","76","848.2000000029802","3","1","1","2","1,0.5,0.5,0.5,1,0.5,0.5,0.5,1","0.5,0.5,1,1,0.5,0.5,0.5,1,0.5","2","",""
"","html-keyboard-response","320","193277","0.0-320.0","","","","","null","<img src=""img/land5.png"" style=""width:200px; border:14px solid green;"">","null","","","","","","","","","",""
"","image-keyboard-response","321","193826","0.0-321.0","","","","","546.7000000029802","img/land5.png","76","548.0999999940395","3","1","1","2","1,0.5,0.5,0.5,1,0.5,0.5,0.5,1","0.5,0.5,1,1,0.5,0.5,0.5,1,0.5","2","",""
"","html-keyboard-response","322","194127","0.0-322.0","","","","","null","<img src=""img/land5.png"" style=""width:200px; border:14px solid green;"">","null","","","","","","","","","",""
"","image-keyboard-response","323","195140","0.0-323.0","","","","","1010.5999999940395","img/land4.png","75","1012.2000000029802","2","1","3","2","1,0.5,0.5,0.5,1,0.5,0.5,0.5,1","0.5,0.5,1,1,0.5,0.5,0.5,1,0.5","2","",""
"","html-keyboard-response","324","195442","0.0-324.0","","","","","null","<img src=""img/land4.png"" style=""width:200px; border:14px solid green;"">","null","","","","","","","","","",""
"","image-keyboard-response","325","196114","0.0-325.0","","","","","671.3999999910593","img/land6.png","76","672.0999999940395","3","0","2","2","1,0.5,0.5,0.5,1,0.5,0.5,0.5,1","0.5,0.5,1,1,0.5,0.5,0.5,1,0.5","2","",""
"","html-keyboard-response","326","196416","0.0-326.0","","","","","null","<img src=""img/land6.png"" style=""width:200px;border:14px solid red;"">","null","","","","","","","","","",""
"","image-keyboard-response","327","197338","0.0-327.0","","","","","919.5999999940395","img/land5.png","76","920.7000000029802","3","1","1","2","1,0.5,0.5,0.5,1,0.5,0.5,0.5,1","0.5,0.5,1,1,0.5,0.5,0.5,1,0.5","2","",""
"","html-keyboard-response","328","197639","0.0-328.0","","","","","null","<img src=""img/land5.png"" style=""width:200px; border:14px solid green;"">","null","","","","","","","","","",""
"","image-keyboard-response","329","198076","0.0-329.0","","","","","436.40000000596046","img/land5.png","76","437.20000000298023","3","1","1","2","1,0.5,0.5,0.5,1,0.5,0.5,0.5,1","0.5,0.5,1,1,0.5,0.5,0.5,1,0.5","2","",""
"","html-keyboard-response","330","198383","0.0-330.0","","","","","null","<img src=""img/land5.png"" style=""width:200px; border:14px solid green;"">","null","","","","","","","","","",""
"","image-keyboard-response","331","198723","0.0-331.0","","","","","339.09999999403954","img/land5.png","76","340.20000000298023","3","1","1","2","1,0.5,0.5,0.5,1,0.5,0.5,0.5,1","0.5,0.5,1,1,0.5,0.5,0.5,1,0.5","2","",""
"","html-keyboard-response","332","199025","0.0-332.0","","","","","null","<img src=""img/land5.png"" style=""width:200px; border:14px solid green;"">","null","","","","","","","","","",""
"","image-keyboard-response","333","199659","0.0-333.0","","","","","632.4000000059605","img/land6.png","74","633.7999999970198","1","1","2","2","1,0.5,0.5,0.5,1,0.5,0.5,0.5,1","0.5,0.5,1,1,0.5,0.5,0.5,1,0.5","2","",""
"","html-keyboard-response","334","199961","0.0-334.0","","","","","null","<img src=""img/land6.png"" style=""width:200px; border:14px solid green;"">","null","","","","","","","","","",""
"","image-keyboard-response","335","200710","0.0-335.0","","","","","748.5","img/land5.png","76","749.3000000119209","3","1","1","2","1,0.5,0.5,0.5,1,0.5,0.5,0.5,1","0.5,0.5,1,1,0.5,0.5,0.5,1,0.5","2","",""
"","html-keyboard-response","336","201013","0.0-336.0","","","","","null","<img src=""img/land5.png"" style=""width:200px; border:14px solid green;"">","null","","","","","","","","","",""
"","image-keyboard-response","337","201462","0.0-337.0","","","","","447.79999999701977","img/land5.png","76","449.29999999701977","3","1","1","2","1,0.5,0.5,0.5,1,0.5,0.5,0.5,1","0.5,0.5,1,1,0.5,0.5,0.5,1,0.5","2","",""
"","html-keyboard-response","338","201765","0.0-338.0","","","","","null","<img src=""img/land5.png"" style=""width:200px; border:14px solid green;"">","null","","","","","","","","","",""
"","image-keyboard-response","339","202121","0.0-339.0","","","","","354.79999999701977","img/land5.png","76","356.30000001192093","3","1","1","2","1,0.5,0.5,0.5,1,0.5,0.5,0.5,1","0.5,0.5,1,1,0.5,0.5,0.5,1,0.5","2","",""
"","html-keyboard-response","340","202423","0.0-340.0","","","","","null","<img src=""img/land5.png"" style=""width:200px; border:14px solid green;"">","null","","","","","","","","","",""
"","image-keyboard-response","341","202850","0.0-341.0","","","","","426.09999999403954","img/land5.png","76","426.79999999701977","3","1","1","2","1,0.5,0.5,0.5,1,0.5,0.5,0.5,1","0.5,0.5,1,1,0.5,0.5,0.5,1,0.5","2","",""
"","html-keyboard-response","342","203152","0.0-342.0","","","","","null","<img src=""img/land5.png"" style=""width:200px; border:14px solid green;"">","null","","","","","","","","","",""
"","image-keyboard-response","343","203457","0.0-343.0","","","","","302.90000000596046","img/land5.png","76","304.29999999701977","3","1","1","2","1,0.5,0.5,0.5,1,0.5,0.5,0.5,1","0.5,0.5,1,1,0.5,0.5,0.5,1,0.5","2","",""
"","html-keyboard-response","344","203758","0.0-344.0","","","","","null","<img src=""img/land5.png"" style=""width:200px; border:14px solid green;"">","null","","","","","","","","","",""
"","image-keyboard-response","345","204054","0.0-345.0","","","","","294.79999999701977","img/land4.png","76","295.5","3","0","3","2","1,0.5,0.5,0.5,1,0.5,0.5,0.5,1","0.5,0.5,1,1,0.5,0.5,0.5,1,0.5","2","",""
"","html-keyboard-response","346","204355","0.0-346.0","","","","","null","<img src=""img/land4.png"" style=""width:200px;border:14px solid red;"">","null","","","","","","","","","",""
"","image-keyboard-response","347","204808","0.0-347.0","","","","","451.3999999910593","img/land4.png","75","452.70000000298023","2","1","3","2","1,0.5,0.5,0.5,1,0.5,0.5,0.5,1","0.5,0.5,1,1,0.5,0.5,0.5,1,0.5","2","",""
"","html-keyboard-response","348","205119","0.0-348.0","","","","","null","<img src=""img/land4.png"" style=""width:200px; border:14px solid green;"">","null","","","","","","","","","",""
"","image-keyboard-response","349","205859","0.0-349.0","","","","","739.3999999910593","img/land5.png","76","740.5999999940395","3","1","1","2","1,0.5,0.5,0.5,1,0.5,0.5,0.5,1","0.5,0.5,1,1,0.5,0.5,0.5,1,0.5","2","",""
"","html-keyboard-response","350","206161","0.0-350.0","","","","","null","<img src=""img/land5.png"" style=""width:200px; border:14px solid green;"">","null","","","","","","","","","",""
"","image-keyboard-response","351","206639","0.0-351.0","","","","","476.29999999701977","img/land5.png","76","477.20000000298023","3","1","1","2","1,0.5,0.5,0.5,1,0.5,0.5,0.5,1","0.5,0.5,1,1,0.5,0.5,0.5,1,0.5","2","",""
"","html-keyboard-response","352","206941","0.0-352.0","","","","","null","<img src=""img/land5.png"" style=""width:200px; border:14px solid green;"">","null","","","","","","","","","",""
"","image-keyboard-response","353","207298","0.0-353.0","","","","","354.6000000089407","img/land5.png","76","356.09999999403954","3","1","1","2","1,0.5,0.5,0.5,1,0.5,0.5,0.5,1","0.5,0.5,1,1,0.5,0.5,0.5,1,0.5","2","",""
"","html-keyboard-response","354","207600","0.0-354.0","","","","","null","<img src=""img/land5.png"" style=""width:200px; border:14px solid green;"">","null","","","","","","","","","",""
"","image-keyboard-response","355","207968","0.0-355.0","","","","","367.3999999910593","img/land5.png","76","368.09999999403954","3","1","1","2","1,0.5,0.5,0.5,1,0.5,0.5,0.5,1","0.5,0.5,1,1,0.5,0.5,0.5,1,0.5","2","",""
"","html-keyboard-response","356","208271","0.0-356.0","","","","","null","<img src=""img/land5.png"" style=""width:200px; border:14px solid green;"">","null","","","","","","","","","",""
"","image-keyboard-response","357","208723","0.0-357.0","","","","","449.8999999910593","img/land5.png","76","450.90000000596046","3","1","1","2","1,0.5,0.5,0.5,1,0.5,0.5,0.5,1","0.5,0.5,1,1,0.5,0.5,0.5,1,0.5","2","",""
"","html-keyboard-response","358","209025","0.0-358.0","","","","","null","<img src=""img/land5.png"" style=""width:200px; border:14px solid green;"">","null","","","","","","","","","",""
"","image-keyboard-response","359","209406","0.0-359.0","","","","","379.09999999403954","img/land5.png","76","380.70000000298023","3","1","1","2","1,0.5,0.5,0.5,1,0.5,0.5,0.5,1","0.5,0.5,1,1,0.5,0.5,0.5,1,0.5","2","",""
"","html-keyboard-response","360","209709","0.0-360.0","","","","","null","<img src=""img/land5.png"" style=""width:200px; border:14px solid green;"">","null","","","","","","","","","",""
"","image-keyboard-response","361","210176","0.0-361.0","","","","","465.20000000298023","img/land5.png","76","466.6000000089407","3","1","1","2","1,0.5,0.5,0.5,1,0.5,0.5,0.5,1","0.5,0.5,1,1,0.5,0.5,0.5,1,0.5","2","",""
"","html-keyboard-response","362","210478","0.0-362.0","","","","","null","<img src=""img/land5.png"" style=""width:200px; border:14px solid green;"">","null","","","","","","","","","",""
"","image-keyboard-response","363","211447","0.0-363.0","","","","","967.7999999970198","img/land6.png","74","968.9000000059605","1","1","2","2","1,0.5,0.5,0.5,1,0.5,0.5,0.5,1","0.5,0.5,1,1,0.5,0.5,0.5,1,0.5","2","",""
"","html-keyboard-response","364","211753","0.0-364.0","","","","","null","<img src=""img/land6.png"" style=""width:200px; border:14px solid green;"">","null","","","","","","","","","",""
"","image-keyboard-response","365","212420","0.0-365.0","","","","","665.7000000029802","img/land4.png","75","666.7000000029802","2","1","3","2","1,0.5,0.5,0.5,1,0.5,0.5,0.5,1","0.5,0.5,1,1,0.5,0.5,0.5,1,0.5","2","",""
"","html-keyboard-response","366","212722","0.0-366.0","","","","","null","<img src=""img/land4.png"" style=""width:200px; border:14px solid green;"">","null","","","","","","","","","",""
"","image-keyboard-response","367","213377","0.0-367.0","","","","","654.2000000029802","img/land5.png","76","655","3","1","1","2","1,0.5,0.5,0.5,1,0.5,0.5,0.5,1","0.5,0.5,1,1,0.5,0.5,0.5,1,0.5","2","",""
"","html-keyboard-response","368","213680","0.0-368.0","","","","","null","<img src=""img/land5.png"" style=""width:200px; border:14px solid green;"">","null","","","","","","","","","",""
"","image-keyboard-response","369","214625","0.0-369.0","","","","","943.9000000059605","img/land4.png","74","944.8999999910593","1","0","3","2","1,0.5,0.5,0.5,1,0.5,0.5,0.5,1","0.5,0.5,1,1,0.5,0.5,0.5,1,0.5","2","",""
"","html-keyboard-response","370","214927","0.0-370.0","","","","","null","<img src=""img/land4.png"" style=""width:200px;border:14px solid red;"">","null","","","","","","","","","",""
"","image-keyboard-response","371","215550","0.0-371.0","","","","","621.3000000119209","img/land5.png","76","622.5","3","1","1","2","1,0.5,0.5,0.5,1,0.5,0.5,0.5,1","0.5,0.5,1,1,0.5,0.5,0.5,1,0.5","2","",""
"","html-keyboard-response","372","215852","0.0-372.0","","","","","null","<img src=""img/land5.png"" style=""width:200px; border:14px solid green;"">","null","","","","","","","","","",""
"","image-keyboard-response","373","216274","0.0-373.0","","","","","419.70000000298023","img/land5.png","76","421.20000000298023","3","1","1","2","1,0.5,0.5,0.5,1,0.5,0.5,0.5,1","0.5,0.5,1,1,0.5,0.5,0.5,1,0.5","2","",""
"","html-keyboard-response","374","216577","0.0-374.0","","","","","null","<img src=""img/land5.png"" style=""width:200px; border:14px solid green;"">","null","","","","","","","","","",""
"","image-keyboard-response","375","216942","0.0-375.0","","","","","363.1000000089407","img/land5.png","76","364.20000000298023","3","1","1","2","1,0.5,0.5,0.5,1,0.5,0.5,0.5,1","0.5,0.5,1,1,0.5,0.5,0.5,1,0.5","2","",""
"","html-keyboard-response","376","217244","0.0-376.0","","","","","null","<img src=""img/land5.png"" style=""width:200px; border:14px solid green;"">","null","","","","","","","","","",""
"","image-keyboard-response","377","217968","0.0-377.0","","","","","721.6999999880791","img/land4.png","75","723","2","1","3","2","1,0.5,0.5,0.5,1,0.5,0.5,0.5,1","0.5,0.5,1,1,0.5,0.5,0.5,1,0.5","2","",""
"","html-keyboard-response","378","218270","0.0-378.0","","","","","null","<img src=""img/land4.png"" style=""width:200px; border:14px solid green;"">","null","","","","","","","","","",""
"","image-keyboard-response","379","218708","0.0-379.0","","","","","435.90000000596046","img/land4.png","75","437.20000000298023","2","1","3","2","1,0.5,0.5,0.5,1,0.5,0.5,0.5,1","0.5,0.5,1,1,0.5,0.5,0.5,1,0.5","2","",""
"","html-keyboard-response","380","219011","0.0-380.0","","","","","null","<img src=""img/land4.png"" style=""width:200px; border:14px solid green;"">","null","","","","","","","","","",""
"","image-keyboard-response","381","219613","0.0-381.0","","","","","600","img/land5.png","76","601.5999999940395","3","1","1","2","1,0.5,0.5,0.5,1,0.5,0.5,0.5,1","0.5,0.5,1,1,0.5,0.5,0.5,1,0.5","2","",""
"","html-keyboard-response","382","219915","0.0-382.0","","","","","null","<img src=""img/land5.png"" style=""width:200px; border:14px solid green;"">","null","","","","","","","","","",""
"","image-keyboard-response","383","220290","0.0-383.0","","","","","374.09999999403954","img/land5.png","76","375","3","1","1","2","1,0.5,0.5,0.5,1,0.5,0.5,0.5,1","0.5,0.5,1,1,0.5,0.5,0.5,1,0.5","2","",""
"","html-keyboard-response","384","220593","0.0-384.0","","","","","null","<img src=""img/land5.png"" style=""width:200px; border:14px solid green;"">","null","","","","","","","","","",""
"","image-keyboard-response","385","220982","0.0-385.0","","","","","387.3999999910593","img/land5.png","76","388.8999999910593","3","1","1","2","1,0.5,0.5,0.5,1,0.5,0.5,0.5,1","0.5,0.5,1,1,0.5,0.5,0.5,1,0.5","2","",""
"","html-keyboard-response","386","221284","0.0-386.0","","","","","null","<img src=""img/land5.png"" style=""width:200px; border:14px solid green;"">","null","","","","","","","","","",""
"","image-keyboard-response","387","221683","0.0-387.0","","","","","397.70000000298023","img/land5.png","76","398.40000000596046","3","1","1","2","1,0.5,0.5,0.5,1,0.5,0.5,0.5,1","0.5,0.5,1,1,0.5,0.5,0.5,1,0.5","2","",""
"","html-keyboard-response","388","221984","0.0-388.0","","","","","null","<img src=""img/land5.png"" style=""width:200px; border:14px solid green;"">","null","","","","","","","","","",""
"","image-keyboard-response","389","222375","0.0-389.0","","","","","388.8999999910593","img/land5.png","76","390.19999998807907","3","1","1","2","1,0.5,0.5,0.5,1,0.5,0.5,0.5,1","0.5,0.5,1,1,0.5,0.5,0.5,1,0.5","2","",""
"","html-keyboard-response","390","222677","0.0-390.0","","","","","null","<img src=""img/land5.png"" style=""width:200px; border:14px solid green;"">","null","","","","","","","","","",""
"","image-keyboard-response","391","223013","0.0-391.0","","","","","334.90000000596046","img/land5.png","76","335.80000001192093","3","1","1","2","1,0.5,0.5,0.5,1,0.5,0.5,0.5,1","0.5,0.5,1,1,0.5,0.5,0.5,1,0.5","2","",""
"","html-keyboard-response","392","223315","0.0-392.0","","","","","null","<img src=""img/land5.png"" style=""width:200px; border:14px solid green;"">","null","","","","","","","","","",""
"","image-keyboard-response","393","224105","0.0-393.0","","","","","788.9000000059605","img/land6.png","74","790.2000000029802","1","1","2","2","1,0.5,0.5,0.5,1,0.5,0.5,0.5,1","0.5,0.5,1,1,0.5,0.5,0.5,1,0.5","2","",""
"","html-keyboard-response","394","224408","0.0-394.0","","","","","null","<img src=""img/land6.png"" style=""width:200px; border:14px solid green;"">","null","","","","","","","","","",""
"","image-keyboard-response","395","225108","0.0-395.0","","","","","698.7999999970198","img/land5.png","76","699.8999999910593","3","1","1","2","1,0.5,0.5,0.5,1,0.5,0.5,0.5,1","0.5,0.5,1,1,0.5,0.5,0.5,1,0.5","2","",""
"","html-keyboard-response","396","225410","0.0-396.0","","","","","null","<img src=""img/land5.png"" style=""width:200px; border:14px solid green;"">","null","","","","","","","","","",""
"","image-keyboard-response","397","225772","0.0-397.0","","","","","360.1000000089407","img/land5.png","76","361.6000000089407","3","1","1","2","1,0.5,0.5,0.5,1,0.5,0.5,0.5,1","0.5,0.5,1,1,0.5,0.5,0.5,1,0.5","2","",""
"","html-keyboard-response","398","226075","0.0-398.0","","","","","null","<img src=""img/land5.png"" style=""width:200px; border:14px solid green;"">","null","","","","","","","","","",""
"","image-keyboard-response","399","226475","0.0-399.0","","","","","398","img/land5.png","76","399","3","1","1","2","1,0.5,0.5,0.5,1,0.5,0.5,0.5,1","0.5,0.5,1,1,0.5,0.5,0.5,1,0.5","2","",""
"","html-keyboard-response","400","226776","0.0-400.0","","","","","null","<img src=""img/land5.png"" style=""width:200px; border:14px solid green;"">","null","","","","","","","","","",""
"","image-keyboard-response","401","227296","0.0-401.0","","","","","518.0999999940395","img/land5.png","76","519.8000000119209","3","1","1","2","1,0.5,0.5,0.5,1,0.5,0.5,0.5,1","0.5,0.5,1,1,0.5,0.5,0.5,1,0.5","2","",""
"","html-keyboard-response","402","227599","0.0-402.0","","","","","null","<img src=""img/land5.png"" style=""width:200px; border:14px solid green;"">","null","","","","","","","","","",""
"","image-keyboard-response","403","228461","0.0-403.0","","","","","860.7999999970198","img/land6.png","74","861.6000000089407","1","1","2","2","1,0.5,0.5,0.5,1,0.5,0.5,0.5,1","0.5,0.5,1,1,0.5,0.5,0.5,1,0.5","2","",""
"","html-keyboard-response","404","228764","0.0-404.0","","","","","null","<img src=""img/land6.png"" style=""width:200px; border:14px solid green;"">","null","","","","","","","","","",""
"","image-keyboard-response","405","229160","0.0-405.0","","","","","395","img/land6.png","74","396","1","1","2","2","1,0.5,0.5,0.5,1,0.5,0.5,0.5,1","0.5,0.5,1,1,0.5,0.5,0.5,1,0.5","2","",""
"","html-keyboard-response","406","229461","0.0-406.0","","","","","null","<img src=""img/land6.png"" style=""width:200px; border:14px solid green;"">","null","","","","","","","","","",""
"","image-keyboard-response","407","229900","0.0-407.0","","","","","436.8999999910593","img/land6.png","74","437.90000000596046","1","1","2","2","1,0.5,0.5,0.5,1,0.5,0.5,0.5,1","0.5,0.5,1,1,0.5,0.5,0.5,1,0.5","2","",""
"","html-keyboard-response","408","230201","0.0-408.0","","","","","null","<img src=""img/land6.png"" style=""width:200px; border:14px solid green;"">","null","","","","","","","","","",""
"","image-keyboard-response","409","230933","0.0-409.0","","","","","729.8999999910593","img/land5.png","76","731.2999999970198","3","1","1","2","1,0.5,0.5,0.5,1,0.5,0.5,0.5,1","0.5,0.5,1,1,0.5,0.5,0.5,1,0.5","2","",""
"","html-keyboard-response","410","231236","0.0-410.0","","","","","null","<img src=""img/land5.png"" style=""width:200px; border:14px solid green;"">","null","","","","","","","","","",""
"","image-keyboard-response","411","231608","0.0-411.0","","","","","369.5","img/land5.png","76","371.1000000089407","3","1","1","2","1,0.5,0.5,0.5,1,0.5,0.5,0.5,1","0.5,0.5,1,1,0.5,0.5,0.5,1,0.5","2","",""
"","html-keyboard-response","412","231910","0.0-412.0","","","","","null","<img src=""img/land5.png"" style=""width:200px; border:14px solid green;"">","null","","","","","","","","","",""
"","image-keyboard-response","413","232671","0.0-413.0","","","","","759.9000000059605","img/land4.png","75","761.2000000029802","2","1","3","2","1,0.5,0.5,0.5,1,0.5,0.5,0.5,1","0.5,0.5,1,1,0.5,0.5,0.5,1,0.5","2","",""
"","html-keyboard-response","414","232974","0.0-414.0","","","","","null","<img src=""img/land4.png"" style=""width:200px; border:14px solid green;"">","null","","","","","","","","","",""
"","image-keyboard-response","415","233738","0.0-415.0","","","","","762.6000000089407","img/land5.png","76","763.5999999940395","3","1","1","2","1,0.5,0.5,0.5,1,0.5,0.5,0.5,1","0.5,0.5,1,1,0.5,0.5,0.5,1,0.5","2","",""
"","html-keyboard-response","416","234041","0.0-416.0","","","","","null","<img src=""img/land5.png"" style=""width:200px; border:14px solid green;"">","null","","","","","","","","","",""
"","image-keyboard-response","417","235163","0.0-417.0","","","","","1121","img/land4.png","75","1121.8999999910593","2","1","3","2","1,0.5,0.5,0.5,1,0.5,0.5,0.5,1","0.5,0.5,1,1,0.5,0.5,0.5,1,0.5","2","",""
"","html-keyboard-response","418","235465","0.0-418.0","","","","","null","<img src=""img/land4.png"" style=""width:200px; border:14px solid green;"">","null","","","","","","","","","",""
"","image-keyboard-response","419","235912","0.0-419.0","","","","","446.09999999403954","img/land5.png","76","447","3","1","1","2","1,0.5,0.5,0.5,1,0.5,0.5,0.5,1","0.5,0.5,1,1,0.5,0.5,0.5,1,0.5","2","",""
"","html-keyboard-response","420","236215","0.0-420.0","","","","","null","<img src=""img/land5.png"" style=""width:200px; border:14px solid green;"">","null","","","","","","","","","",""
"","image-keyboard-response","421","236664","0.0-421.0","","","","","447.79999999701977","img/land5.png","76","449.29999999701977","3","1","1","2","1,0.5,0.5,0.5,1,0.5,0.5,0.5,1","0.5,0.5,1,1,0.5,0.5,0.5,1,0.5","2","",""
"","html-keyboard-response","422","236967","0.0-422.0","","","","","null","<img src=""img/land5.png"" style=""width:200px; border:14px solid green;"">","null","","","","","","","","","",""
"","image-keyboard-response","423","237462","0.0-423.0","","","","","494.69999998807907","img/land4.png","75","495.30000001192093","2","1","3","2","1,0.5,0.5,0.5,1,0.5,0.5,0.5,1","0.5,0.5,1,1,0.5,0.5,0.5,1,0.5","2","",""
"","html-keyboard-response","424","237764","0.0-424.0","","","","","null","<img src=""img/land4.png"" style=""width:200px; border:14px solid green;"">","null","","","","","","","","","",""
"","image-keyboard-response","425","238346","0.0-425.0","","","","","580.2000000029802","img/land5.png","76","581.4000000059605","3","1","1","2","1,0.5,0.5,0.5,1,0.5,0.5,0.5,1","0.5,0.5,1,1,0.5,0.5,0.5,1,0.5","2","",""
"","html-keyboard-response","426","238648","0.0-426.0","","","","","null","<img src=""img/land5.png"" style=""width:200px; border:14px solid green;"">","null","","","","","","","","","",""
"","image-keyboard-response","427","239072","0.0-427.0","","","","","422.20000000298023","img/land5.png","76","423.20000000298023","3","1","1","2","1,0.5,0.5,0.5,1,0.5,0.5,0.5,1","0.5,0.5,1,1,0.5,0.5,0.5,1,0.5","2","",""
"","html-keyboard-response","428","239374","0.0-428.0","","","","","null","<img src=""img/land5.png"" style=""width:200px; border:14px solid green;"">","null","","","","","","","","","",""
"","image-keyboard-response","429","240133","0.0-429.0","","","","","756.8999999910593","img/land6.png","74","758.2999999970198","1","1","2","2","1,0.5,0.5,0.5,1,0.5,0.5,0.5,1","0.5,0.5,1,1,0.5,0.5,0.5,1,0.5","2","",""
"","html-keyboard-response","430","240435","0.0-430.0","","","","","null","<img src=""img/land6.png"" style=""width:200px; border:14px solid green;"">","null","","","","","","","","","",""
"","image-keyboard-response","431","241230","0.0-431.0","","","","","793.1999999880791","img/land4.png","75","794.5999999940395","2","1","3","2","1,0.5,0.5,0.5,1,0.5,0.5,0.5,1","0.5,0.5,1,1,0.5,0.5,0.5,1,0.5","2","",""
"","html-keyboard-response","432","241532","0.0-432.0","","","","","null","<img src=""img/land4.png"" style=""width:200px; border:14px solid green;"">","null","","","","","","","","","",""
"","image-keyboard-response","433","242523","0.0-433.0","","","","","989","img/land5.png","76","990.1999999880791","3","1","1","2","1,0.5,0.5,0.5,1,0.5,0.5,0.5,1","0.5,0.5,1,1,0.5,0.5,0.5,1,0.5","2","",""
"","html-keyboard-response","434","242826","0.0-434.0","","","","","null","<img src=""img/land5.png"" style=""width:200px; border:14px solid green;"">","null","","","","","","","","","",""
"","image-keyboard-response","435","243523","0.0-435.0","","","","","695","img/land4.png","74","696.7999999970198","1","1","3","2","1,0.5,0.5,0.5,1,0.5,0.5,0.5,1","0.5,0.5,1,1,0.5,0.5,0.5,1,0.5","2","",""
"","html-keyboard-response","436","243825","0.0-436.0","","","","","null","<img src=""img/land4.png"" style=""width:200px; border:14px solid green;"">","null","","","","","","","","","",""
"","image-keyboard-response","437","244409","0.0-437.0","","","","","582.2000000029802","img/land4.png","74","583.5999999940395","1","0","3","2","1,0.5,0.5,0.5,1,0.5,0.5,0.5,1","0.5,0.5,1,1,0.5,0.5,0.5,1,0.5","2","",""
"","html-keyboard-response","438","244711","0.0-438.0","","","","","null","<img src=""img/land4.png"" style=""width:200px;border:14px solid red;"">","null","","","","","","","","","",""
"","image-keyboard-response","439","245478","0.0-439.0","","","","","766.7000000029802","img/land5.png","76","767.2999999970198","3","1","1","2","1,0.5,0.5,0.5,1,0.5,0.5,0.5,1","0.5,0.5,1,1,0.5,0.5,0.5,1,0.5","2","",""
"","html-keyboard-response","440","245780","0.0-440.0","","","","","null","<img src=""img/land5.png"" style=""width:200px; border:14px solid green;"">","null","","","","","","","","","",""
"","image-keyboard-response","441","246223","0.0-441.0","","","","","441.90000000596046","img/land5.png","76","442.79999999701977","3","1","1","2","1,0.5,0.5,0.5,1,0.5,0.5,0.5,1","0.5,0.5,1,1,0.5,0.5,0.5,1,0.5","2","",""
"","html-keyboard-response","442","246525","0.0-442.0","","","","","null","<img src=""img/land5.png"" style=""width:200px; border:14px solid green;"">","null","","","","","","","","","",""
"","image-keyboard-response","443","246954","0.0-443.0","","","","","427.5","img/land5.png","76","428.5","3","1","1","2","1,0.5,0.5,0.5,1,0.5,0.5,0.5,1","0.5,0.5,1,1,0.5,0.5,0.5,1,0.5","2","",""
"","html-keyboard-response","444","247257","0.0-444.0","","","","","null","<img src=""img/land5.png"" style=""width:200px; border:14px solid green;"">","null","","","","","","","","","",""
"","image-keyboard-response","445","247648","0.0-445.0","","","","","389.40000000596046","img/land5.png","76","390.79999999701977","3","1","1","2","1,0.5,0.5,0.5,1,0.5,0.5,0.5,1","0.5,0.5,1,1,0.5,0.5,0.5,1,0.5","2","",""
"","html-keyboard-response","446","247950","0.0-446.0","","","","","null","<img src=""img/land5.png"" style=""width:200px; border:14px solid green;"">","null","","","","","","","","","",""
"","image-keyboard-response","447","248282","0.0-447.0","","","","","329.5","img/land5.png","76","331.1000000089407","3","1","1","2","1,0.5,0.5,0.5,1,0.5,0.5,0.5,1","0.5,0.5,1,1,0.5,0.5,0.5,1,0.5","2","",""
"","html-keyboard-response","448","248585","0.0-448.0","","","","","null","<img src=""img/land5.png"" style=""width:200px; border:14px solid green;"">","null","","","","","","","","","",""
"","image-keyboard-response","449","249048","0.0-449.0","","","","","461.1000000089407","img/land5.png","76","462.70000000298023","3","1","1","2","1,0.5,0.5,0.5,1,0.5,0.5,0.5,1","0.5,0.5,1,1,0.5,0.5,0.5,1,0.5","2","",""
"","html-keyboard-response","450","249349","0.0-450.0","","","","","null","<img src=""img/land5.png"" style=""width:200px; border:14px solid green;"">","null","","","","","","","","","",""
"","image-keyboard-response","451","249916","0.0-451.0","","","","","565","img/land6.png","74","566.3999999910593","1","1","2","2","1,0.5,0.5,0.5,1,0.5,0.5,0.5,1","0.5,0.5,1,1,0.5,0.5,0.5,1,0.5","2","",""
"","html-keyboard-response","452","250218","0.0-452.0","","","","","null","<img src=""img/land6.png"" style=""width:200px; border:14px solid green;"">","null","","","","","","","","","",""
"","image-keyboard-response","453","250732","0.0-453.0","","","","","511.8999999910593","img/land5.png","76","513.4000000059605","3","1","1","2","1,0.5,0.5,0.5,1,0.5,0.5,0.5,1","0.5,0.5,1,1,0.5,0.5,0.5,1,0.5","2","",""
"","html-keyboard-response","454","251034","0.0-454.0","","","","","null","<img src=""img/land5.png"" style=""width:200px; border:14px solid green;"">","null","","","","","","","","","",""
"","image-keyboard-response","455","251486","0.0-455.0","","","","","450.79999999701977","img/land5.png","76","451.70000000298023","3","1","1","2","1,0.5,0.5,0.5,1,0.5,0.5,0.5,1","0.5,0.5,1,1,0.5,0.5,0.5,1,0.5","2","",""
"","html-keyboard-response","456","251789","0.0-456.0","","","","","null","<img src=""img/land5.png"" style=""width:200px; border:14px solid green;"">","null","","","","","","","","","",""
"","image-keyboard-response","457","252123","0.0-457.0","","","","","332.30000001192093","img/land5.png","76","333.79999999701977","3","1","1","2","1,0.5,0.5,0.5,1,0.5,0.5,0.5,1","0.5,0.5,1,1,0.5,0.5,0.5,1,0.5","2","",""
"","html-keyboard-response","458","252426","0.0-458.0","","","","","null","<img src=""img/land5.png"" style=""width:200px; border:14px solid green;"">","null","","","","","","","","","",""
"","image-keyboard-response","459","253314","0.0-459.0","","","","","886.6000000089407","img/land4.png","75","888.2000000029802","2","1","3","2","1,0.5,0.5,0.5,1,0.5,0.5,0.5,1","0.5,0.5,1,1,0.5,0.5,0.5,1,0.5","2","",""
"","html-keyboard-response","460","253617","0.0-460.0","","","","","null","<img src=""img/land4.png"" style=""width:200px; border:14px solid green;"">","null","","","","","","","","","",""
"","image-keyboard-response","461","254116","0.0-461.0","","","","","497.40000000596046","img/land5.png","76","499","3","1","1","2","1,0.5,0.5,0.5,1,0.5,0.5,0.5,1","0.5,0.5,1,1,0.5,0.5,0.5,1,0.5","2","",""
"","html-keyboard-response","462","254419","0.0-462.0","","","","","null","<img src=""img/land5.png"" style=""width:200px; border:14px solid green;"">","null","","","","","","","","","",""
"","image-keyboard-response","463","255223","0.0-463.0","","","","","802.4000000059605","img/land6.png","74","804.1000000089407","1","1","2","2","1,0.5,0.5,0.5,1,0.5,0.5,0.5,1","0.5,0.5,1,1,0.5,0.5,0.5,1,0.5","2","",""
"","html-keyboard-response","464","255525","0.0-464.0","","","","","null","<img src=""img/land6.png"" style=""width:200px; border:14px solid green;"">","null","","","","","","","","","",""
"","image-keyboard-response","465","256091","0.0-465.0","","","","","564.5999999940395","img/land6.png","74","565.7000000029802","1","1","2","2","1,0.5,0.5,0.5,1,0.5,0.5,0.5,1","0.5,0.5,1,1,0.5,0.5,0.5,1,0.5","2","",""
"","html-keyboard-response","466","256394","0.0-466.0","","","","","null","<img src=""img/land6.png"" style=""width:200px; border:14px solid green;"">","null","","","","","","","","","",""
"","image-keyboard-response","467","256823","0.0-467.0","","","","","427.59999999403954","img/land6.png","74","428.5","1","1","2","2","1,0.5,0.5,0.5,1,0.5,0.5,0.5,1","0.5,0.5,1,1,0.5,0.5,0.5,1,0.5","2","",""
"","html-keyboard-response","468","257125","0.0-468.0","","","","","null","<img src=""img/land6.png"" style=""width:200px; border:14px solid green;"">","null","","","","","","","","","",""
"","image-keyboard-response","469","257756","0.0-469.0","","","","","628.9000000059605","img/land4.png","75","630.5","2","1","3","2","1,0.5,0.5,0.5,1,0.5,0.5,0.5,1","0.5,0.5,1,1,0.5,0.5,0.5,1,0.5","2","",""
"","html-keyboard-response","470","258059","0.0-470.0","","","","","null","<img src=""img/land4.png"" style=""width:200px; border:14px solid green;"">","null","","","","","","","","","",""
"","image-keyboard-response","471","258852","0.0-471.0","","","","","791.0999999940395","img/land6.png","74","792.3999999910593","1","1","2","2","1,0.5,0.5,0.5,1,0.5,0.5,0.5,1","0.5,0.5,1,1,0.5,0.5,0.5,1,0.5","2","",""
"","html-keyboard-response","472","259154","0.0-472.0","","","","","null","<img src=""img/land6.png"" style=""width:200px; border:14px solid green;"">","null","","","","","","","","","",""
"","image-keyboard-response","473","259795","0.0-473.0","","","","","638.6999999880791","img/land5.png","76","640.5","3","1","1","2","1,0.5,0.5,0.5,1,0.5,0.5,0.5,1","0.5,0.5,1,1,0.5,0.5,0.5,1,0.5","2","",""
"","html-keyboard-response","474","260098","0.0-474.0","","","","","null","<img src=""img/land5.png"" style=""width:200px; border:14px solid green;"">","null","","","","","","","","","",""
"","image-keyboard-response","475","260859","0.0-475.0","","","","","760","img/land4.png","75","760.6999999880791","2","1","3","2","1,0.5,0.5,0.5,1,0.5,0.5,0.5,1","0.5,0.5,1,1,0.5,0.5,0.5,1,0.5","2","",""
"","html-keyboard-response","476","261161","0.0-476.0","","","","","null","<img src=""img/land4.png"" style=""width:200px; border:14px solid green;"">","null","","","","","","","","","",""
"","image-keyboard-response","477","261843","0.0-477.0","","","","","680.7000000029802","img/land6.png","74","681.7999999970198","1","1","2","2","1,0.5,0.5,0.5,1,0.5,0.5,0.5,1","0.5,0.5,1,1,0.5,0.5,0.5,1,0.5","2","",""
"","html-keyboard-response","478","262146","0.0-478.0","","","","","null","<img src=""img/land6.png"" style=""width:200px; border:14px solid green;"">","null","","","","","","","","","",""
"","image-keyboard-response","479","262563","0.0-479.0","","","","","415.3999999910593","img/land6.png","74","416.79999999701977","1","1","2","2","1,0.5,0.5,0.5,1,0.5,0.5,0.5,1","0.5,0.5,1,1,0.5,0.5,0.5,1,0.5","2","",""
"","html-keyboard-response","480","262865","0.0-480.0","","","","","null","<img src=""img/land6.png"" style=""width:200px; border:14px solid green;"">","null","","","","","","","","","",""
"","image-keyboard-response","481","263968","0.0-481.0","","","","","1101","img/land4.png","75","1102.4000000059605","2","1","3","2","1,0.5,0.5,0.5,1,0.5,0.5,0.5,1","0.5,0.5,1,1,0.5,0.5,0.5,1,0.5","2","",""
"","html-keyboard-response","482","264270","0.0-482.0","","","","","null","<img src=""img/land4.png"" style=""width:200px; border:14px solid green;"">","null","","","","","","","","","",""
"","instructions","483","268341","0.0-483.0","","","","[{""page_index"":0,""viewing_time"":4068.4000000059605}]","4068.7000000029802","","","","","","","","","","","",""
"","survey-text","484","271914","0.0-484.0-0.0","","","","","3568.7000000029802","","","","","","","","","","","{""Q0"":""44""}",""
"","survey-multi-choice","485","274950","0.0-484.0-1.0","","","","","3034.5","","","","","","","","","","","{""gender"":""F""}","[0]"
"","survey-text","486","279719","0.0-485.0","","","","","4767.5","","","","","","","","","","","{""Q0"":""A1TPGXT718D68E""}",""
