"success","trial_type","trial_index","time_elapsed","internal_node_id","assignmentID","mturkID","hitID","view_history","rt","stimulus","key_press","reactionTime","a","r","s","cond","reward_cond","reward_cond_actual","reward_matrix_idx","responses","question_order"
"true","fullscreen","0","2268","0.0-0.0","3P4MQ7TPPYYDI1NVUBYWTQHDL1CBBP","A1UGD2VEVSML1U","36U4VBVNQOZD8NFWZXWF9CIHKRIURB","","","","","","","","","","","","","",""
"","instructions","1","27371","0.0-1.0","3P4MQ7TPPYYDI1NVUBYWTQHDL1CBBP","A1UGD2VEVSML1U","36U4VBVNQOZD8NFWZXWF9CIHKRIURB","[{""page_index"":0,""viewing_time"":3021.5},{""page_index"":1,""viewing_time"":1900.7999999821186},{""page_index"":2,""viewing_time"":4066.0999999940395},{""page_index"":3,""viewing_time"":6046.4000000059605},{""page_index"":4,""viewing_time"":3745.5999999940395},{""page_index"":5,""viewing_time"":5095.800000011921},{""page_index"":6,""viewing_time"":1225.5}]","25102","","","","","","","","","","","",""
"","image-keyboard-response","2","27990","0.0-2.0","3P4MQ7TPPYYDI1NVUBYWTQHDL1CBBP","A1UGD2VEVSML1U","36U4VBVNQOZD8NFWZXWF9CIHKRIURB","","617.8000000119209","img/land6.png","74","618.5","1","0","2","1","0.8,0.2,0.2,0.2,0.8,0.2,0.2,0.2,0.8","0.8,0.2,0.2,0.2,0.8,0.2,0.2,0.2,0.8","1","",""
"","html-keyboard-response","3","28304","0.0-3.0","3P4MQ7TPPYYDI1NVUBYWTQHDL1CBBP","A1UGD2VEVSML1U","36U4VBVNQOZD8NFWZXWF9CIHKRIURB","","null","<img src=""img/land6.png"" style=""width:200px;border:14px solid red;"">","null","","","","","","","","","",""
"","image-keyboard-response","4","28965","0.0-4.0","3P4MQ7TPPYYDI1NVUBYWTQHDL1CBBP","A1UGD2VEVSML1U","36U4VBVNQOZD8NFWZXWF9CIHKRIURB","","660.5","img/land5.png","75","661","2","1","3","1","0.8,0.2,0.2,0.2,0.8,0.2,0.2,0.2,0.8","0.8,0.2,0.2,0.2,0.8,0.2,0.2,0.2,0.8","1","",""
"","html-keyboard-response","5","29268","0.0-5.0","3P4MQ7TPPYYDI1NVUBYWTQHDL1CBBP","A1UGD2VEVSML1U","36U4VBVNQOZD8NFWZXWF9CIHKRIURB","","null","<img src=""img/land5.png"" style=""width:200px; border:14px solid green;"">","null","","","","","","","","","",""
"","image-keyboard-response","6","29735","0.0-6.0","3P4MQ7TPPYYDI1NVUBYWTQHDL1CBBP","A1UGD2VEVSML1U","36U4VBVNQOZD8NFWZXWF9CIHKRIURB","","465.7999999821186","img/land5.png","75","467","2","0","3","1","0.8,0.2,0.2,0.2,0.8,0.2,0.2,0.2,0.8","0.8,0.2,0.2,0.2,0.8,0.2,0.2,0.2,0.8","1","",""
"","html-keyboard-response","7","30039","0.0-7.0","3P4MQ7TPPYYDI1NVUBYWTQHDL1CBBP","A1UGD2VEVSML1U","36U4VBVNQOZD8NFWZXWF9CIHKRIURB","","null","<img src=""img/land5.png"" style=""width:200px;border:14px solid red;"">","null","","","","","","","","","",""
"","image-keyboard-response","8","30630","0.0-8.0","3P4MQ7TPPYYDI1NVUBYWTQHDL1CBBP","A1UGD2VEVSML1U","36U4VBVNQOZD8NFWZXWF9CIHKRIURB","","589.3999999761581","img/land1.png","74","590.8000000119209","1","1","1","1","0.8,0.2,0.2,0.2,0.8,0.2,0.2,0.2,0.8","0.8,0.2,0.2,0.2,0.8,0.2,0.2,0.2,0.8","1","",""
"","html-keyboard-response","9","30931","0.0-9.0","3P4MQ7TPPYYDI1NVUBYWTQHDL1CBBP","A1UGD2VEVSML1U","36U4VBVNQOZD8NFWZXWF9CIHKRIURB","","null","<img src=""img/land1.png"" style=""width:200px; border:14px solid green;"">","null","","","","","","","","","",""
"","image-keyboard-response","10","31303","0.0-10.0","3P4MQ7TPPYYDI1NVUBYWTQHDL1CBBP","A1UGD2VEVSML1U","36U4VBVNQOZD8NFWZXWF9CIHKRIURB","","370.59999999403954","img/land1.png","74","371.69999998807907","1","1","1","1","0.8,0.2,0.2,0.2,0.8,0.2,0.2,0.2,0.8","0.8,0.2,0.2,0.2,0.8,0.2,0.2,0.2,0.8","1","",""
"","html-keyboard-response","11","31605","0.0-11.0","3P4MQ7TPPYYDI1NVUBYWTQHDL1CBBP","A1UGD2VEVSML1U","36U4VBVNQOZD8NFWZXWF9CIHKRIURB","","null","<img src=""img/land1.png"" style=""width:200px; border:14px solid green;"">","null","","","","","","","","","",""
"","image-keyboard-response","12","32182","0.0-12.0","3P4MQ7TPPYYDI1NVUBYWTQHDL1CBBP","A1UGD2VEVSML1U","36U4VBVNQOZD8NFWZXWF9CIHKRIURB","","576","img/land6.png","76","577.2000000178814","3","0","2","1","0.8,0.2,0.2,0.2,0.8,0.2,0.2,0.2,0.8","0.8,0.2,0.2,0.2,0.8,0.2,0.2,0.2,0.8","1","",""
"","html-keyboard-response","13","32485","0.0-13.0","3P4MQ7TPPYYDI1NVUBYWTQHDL1CBBP","A1UGD2VEVSML1U","36U4VBVNQOZD8NFWZXWF9CIHKRIURB","","null","<img src=""img/land6.png"" style=""width:200px;border:14px solid red;"">","null","","","","","","","","","",""
"","image-keyboard-response","14","33286","0.0-14.0","3P4MQ7TPPYYDI1NVUBYWTQHDL1CBBP","A1UGD2VEVSML1U","36U4VBVNQOZD8NFWZXWF9CIHKRIURB","","800.5","img/land5.png","75","801.1000000238419","2","0","3","1","0.8,0.2,0.2,0.2,0.8,0.2,0.2,0.2,0.8","0.8,0.2,0.2,0.2,0.8,0.2,0.2,0.2,0.8","1","",""
"","html-keyboard-response","15","33587","0.0-15.0","3P4MQ7TPPYYDI1NVUBYWTQHDL1CBBP","A1UGD2VEVSML1U","36U4VBVNQOZD8NFWZXWF9CIHKRIURB","","null","<img src=""img/land5.png"" style=""width:200px;border:14px solid red;"">","null","","","","","","","","","",""
"","image-keyboard-response","16","34214","0.0-16.0","3P4MQ7TPPYYDI1NVUBYWTQHDL1CBBP","A1UGD2VEVSML1U","36U4VBVNQOZD8NFWZXWF9CIHKRIURB","","625","img/land1.png","74","626.1999999880791","1","1","1","1","0.8,0.2,0.2,0.2,0.8,0.2,0.2,0.2,0.8","0.8,0.2,0.2,0.2,0.8,0.2,0.2,0.2,0.8","1","",""
"","html-keyboard-response","17","34514","0.0-17.0","3P4MQ7TPPYYDI1NVUBYWTQHDL1CBBP","A1UGD2VEVSML1U","36U4VBVNQOZD8NFWZXWF9CIHKRIURB","","null","<img src=""img/land1.png"" style=""width:200px; border:14px solid green;"">","null","","","","","","","","","",""
"","image-keyboard-response","18","35110","0.0-18.0","3P4MQ7TPPYYDI1NVUBYWTQHDL1CBBP","A1UGD2VEVSML1U","36U4VBVNQOZD8NFWZXWF9CIHKRIURB","","594.7999999821186","img/land5.png","74","595.4000000059605","1","0","3","1","0.8,0.2,0.2,0.2,0.8,0.2,0.2,0.2,0.8","0.8,0.2,0.2,0.2,0.8,0.2,0.2,0.2,0.8","1","",""
"","html-keyboard-response","19","35417","0.0-19.0","3P4MQ7TPPYYDI1NVUBYWTQHDL1CBBP","A1UGD2VEVSML1U","36U4VBVNQOZD8NFWZXWF9CIHKRIURB","","null","<img src=""img/land5.png"" style=""width:200px;border:14px solid red;"">","null","","","","","","","","","",""
"","image-keyboard-response","20","35759","0.0-20.0","3P4MQ7TPPYYDI1NVUBYWTQHDL1CBBP","A1UGD2VEVSML1U","36U4VBVNQOZD8NFWZXWF9CIHKRIURB","","340.7999999821186","img/land5.png","76","342.30000001192093","3","1","3","1","0.8,0.2,0.2,0.2,0.8,0.2,0.2,0.2,0.8","0.8,0.2,0.2,0.2,0.8,0.2,0.2,0.2,0.8","1","",""
"","html-keyboard-response","21","36062","0.0-21.0","3P4MQ7TPPYYDI1NVUBYWTQHDL1CBBP","A1UGD2VEVSML1U","36U4VBVNQOZD8NFWZXWF9CIHKRIURB","","null","<img src=""img/land5.png"" style=""width:200px; border:14px solid green;"">","null","","","","","","","","","",""
"","image-keyboard-response","22","37104","0.0-22.0","3P4MQ7TPPYYDI1NVUBYWTQHDL1CBBP","A1UGD2VEVSML1U","36U4VBVNQOZD8NFWZXWF9CIHKRIURB","","1040.300000011921","img/land1.png","74","1041.4000000059605","1","1","1","1","0.8,0.2,0.2,0.2,0.8,0.2,0.2,0.2,0.8","0.8,0.2,0.2,0.2,0.8,0.2,0.2,0.2,0.8","1","",""
"","html-keyboard-response","23","37409","0.0-23.0","3P4MQ7TPPYYDI1NVUBYWTQHDL1CBBP","A1UGD2VEVSML1U","36U4VBVNQOZD8NFWZXWF9CIHKRIURB","","null","<img src=""img/land1.png"" style=""width:200px; border:14px solid green;"">","null","","","","","","","","","",""
"","image-keyboard-response","24","37695","0.0-24.0","3P4MQ7TPPYYDI1NVUBYWTQHDL1CBBP","A1UGD2VEVSML1U","36U4VBVNQOZD8NFWZXWF9CIHKRIURB","","285.80000001192093","img/land1.png","74","286.5","1","0","1","1","0.8,0.2,0.2,0.2,0.8,0.2,0.2,0.2,0.8","0.8,0.2,0.2,0.2,0.8,0.2,0.2,0.2,0.8","1","",""
"","html-keyboard-response","25","37997","0.0-25.0","3P4MQ7TPPYYDI1NVUBYWTQHDL1CBBP","A1UGD2VEVSML1U","36U4VBVNQOZD8NFWZXWF9CIHKRIURB","","null","<img src=""img/land1.png"" style=""width:200px;border:14px solid red;"">","null","","","","","","","","","",""
"","image-keyboard-response","26","38600","0.0-26.0","3P4MQ7TPPYYDI1NVUBYWTQHDL1CBBP","A1UGD2VEVSML1U","36U4VBVNQOZD8NFWZXWF9CIHKRIURB","","600.8000000119209","img/land5.png","76","602.5","3","1","3","1","0.8,0.2,0.2,0.2,0.8,0.2,0.2,0.2,0.8","0.8,0.2,0.2,0.2,0.8,0.2,0.2,0.2,0.8","1","",""
"","html-keyboard-response","27","38917","0.0-27.0","3P4MQ7TPPYYDI1NVUBYWTQHDL1CBBP","A1UGD2VEVSML1U","36U4VBVNQOZD8NFWZXWF9CIHKRIURB","","null","<img src=""img/land5.png"" style=""width:200px; border:14px solid green;"">","null","","","","","","","","","",""
"","image-keyboard-response","28","39527","0.0-28.0","3P4MQ7TPPYYDI1NVUBYWTQHDL1CBBP","A1UGD2VEVSML1U","36U4VBVNQOZD8NFWZXWF9CIHKRIURB","","609.9000000059605","img/land6.png","76","610.5999999940395","3","0","2","1","0.8,0.2,0.2,0.2,0.8,0.2,0.2,0.2,0.8","0.8,0.2,0.2,0.2,0.8,0.2,0.2,0.2,0.8","1","",""
"","html-keyboard-response","29","39830","0.0-29.0","3P4MQ7TPPYYDI1NVUBYWTQHDL1CBBP","A1UGD2VEVSML1U","36U4VBVNQOZD8NFWZXWF9CIHKRIURB","","null","<img src=""img/land6.png"" style=""width:200px;border:14px solid red;"">","null","","","","","","","","","",""
"","image-keyboard-response","30","40607","0.0-30.0","3P4MQ7TPPYYDI1NVUBYWTQHDL1CBBP","A1UGD2VEVSML1U","36U4VBVNQOZD8NFWZXWF9CIHKRIURB","","775.6999999880791","img/land5.png","74","777.0999999940395","1","1","3","1","0.8,0.2,0.2,0.2,0.8,0.2,0.2,0.2,0.8","0.8,0.2,0.2,0.2,0.8,0.2,0.2,0.2,0.8","1","",""
"","html-keyboard-response","31","40910","0.0-31.0","3P4MQ7TPPYYDI1NVUBYWTQHDL1CBBP","A1UGD2VEVSML1U","36U4VBVNQOZD8NFWZXWF9CIHKRIURB","","null","<img src=""img/land5.png"" style=""width:200px; border:14px solid green;"">","null","","","","","","","","","",""
"","image-keyboard-response","32","41397","0.0-32.0","3P4MQ7TPPYYDI1NVUBYWTQHDL1CBBP","A1UGD2VEVSML1U","36U4VBVNQOZD8NFWZXWF9CIHKRIURB","","485.2999999821186","img/land1.png","75","486.5","2","0","1","1","0.8,0.2,0.2,0.2,0.8,0.2,0.2,0.2,0.8","0.8,0.2,0.2,0.2,0.8,0.2,0.2,0.2,0.8","1","",""
"","html-keyboard-response","33","41699","0.0-33.0","3P4MQ7TPPYYDI1NVUBYWTQHDL1CBBP","A1UGD2VEVSML1U","36U4VBVNQOZD8NFWZXWF9CIHKRIURB","","null","<img src=""img/land1.png"" style=""width:200px;border:14px solid red;"">","null","","","","","","","","","",""
"","image-keyboard-response","34","42495","0.0-34.0","3P4MQ7TPPYYDI1NVUBYWTQHDL1CBBP","A1UGD2VEVSML1U","36U4VBVNQOZD8NFWZXWF9CIHKRIURB","","795.1999999880791","img/land6.png","75","796.0999999940395","2","1","2","1","0.8,0.2,0.2,0.2,0.8,0.2,0.2,0.2,0.8","0.8,0.2,0.2,0.2,0.8,0.2,0.2,0.2,0.8","1","",""
"","html-keyboard-response","35","42798","0.0-35.0","3P4MQ7TPPYYDI1NVUBYWTQHDL1CBBP","A1UGD2VEVSML1U","36U4VBVNQOZD8NFWZXWF9CIHKRIURB","","null","<img src=""img/land6.png"" style=""width:200px; border:14px solid green;"">","null","","","","","","","","","",""
"","image-keyboard-response","36","43527","0.0-36.0","3P4MQ7TPPYYDI1NVUBYWTQHDL1CBBP","A1UGD2VEVSML1U","36U4VBVNQOZD8NFWZXWF9CIHKRIURB","","727.3999999761581","img/land5.png","76","728.7999999821186","3","1","3","1","0.8,0.2,0.2,0.2,0.8,0.2,0.2,0.2,0.8","0.8,0.2,0.2,0.2,0.8,0.2,0.2,0.2,0.8","1","",""
"","html-keyboard-response","37","43829","0.0-37.0","3P4MQ7TPPYYDI1NVUBYWTQHDL1CBBP","A1UGD2VEVSML1U","36U4VBVNQOZD8NFWZXWF9CIHKRIURB","","null","<img src=""img/land5.png"" style=""width:200px; border:14px solid green;"">","null","","","","","","","","","",""
"","image-keyboard-response","38","44446","0.0-38.0","3P4MQ7TPPYYDI1NVUBYWTQHDL1CBBP","A1UGD2VEVSML1U","36U4VBVNQOZD8NFWZXWF9CIHKRIURB","","615.8000000119209","img/land6.png","74","616.0999999940395","1","1","2","1","0.8,0.2,0.2,0.2,0.8,0.2,0.2,0.2,0.8","0.8,0.2,0.2,0.2,0.8,0.2,0.2,0.2,0.8","1","",""
"","html-keyboard-response","39","44747","0.0-39.0","3P4MQ7TPPYYDI1NVUBYWTQHDL1CBBP","A1UGD2VEVSML1U","36U4VBVNQOZD8NFWZXWF9CIHKRIURB","","null","<img src=""img/land6.png"" style=""width:200px; border:14px solid green;"">","null","","","","","","","","","",""
"","image-keyboard-response","40","45078","0.0-40.0","3P4MQ7TPPYYDI1NVUBYWTQHDL1CBBP","A1UGD2VEVSML1U","36U4VBVNQOZD8NFWZXWF9CIHKRIURB","","329.59999999403954","img/land6.png","74","330.80000001192093","1","0","2","1","0.8,0.2,0.2,0.2,0.8,0.2,0.2,0.2,0.8","0.8,0.2,0.2,0.2,0.8,0.2,0.2,0.2,0.8","1","",""
"","html-keyboard-response","41","45380","0.0-41.0","3P4MQ7TPPYYDI1NVUBYWTQHDL1CBBP","A1UGD2VEVSML1U","36U4VBVNQOZD8NFWZXWF9CIHKRIURB","","null","<img src=""img/land6.png"" style=""width:200px;border:14px solid red;"">","null","","","","","","","","","",""
"","image-keyboard-response","42","46055","0.0-42.0","3P4MQ7TPPYYDI1NVUBYWTQHDL1CBBP","A1UGD2VEVSML1U","36U4VBVNQOZD8NFWZXWF9CIHKRIURB","","674","img/land1.png","75","674.5999999940395","2","0","1","1","0.8,0.2,0.2,0.2,0.8,0.2,0.2,0.2,0.8","0.8,0.2,0.2,0.2,0.8,0.2,0.2,0.2,0.8","1","",""
"","html-keyboard-response","43","46356","0.0-43.0","3P4MQ7TPPYYDI1NVUBYWTQHDL1CBBP","A1UGD2VEVSML1U","36U4VBVNQOZD8NFWZXWF9CIHKRIURB","","null","<img src=""img/land1.png"" style=""width:200px;border:14px solid red;"">","null","","","","","","","","","",""
"","image-keyboard-response","44","46463","0.0-44.0","3P4MQ7TPPYYDI1NVUBYWTQHDL1CBBP","A1UGD2VEVSML1U","36U4VBVNQOZD8NFWZXWF9CIHKRIURB","","105.59999999403954","img/land6.png","74","106.30000001192093","1","0","2","1","0.8,0.2,0.2,0.2,0.8,0.2,0.2,0.2,0.8","0.8,0.2,0.2,0.2,0.8,0.2,0.2,0.2,0.8","1","",""
"","html-keyboard-response","45","46765","0.0-45.0","3P4MQ7TPPYYDI1NVUBYWTQHDL1CBBP","A1UGD2VEVSML1U","36U4VBVNQOZD8NFWZXWF9CIHKRIURB","","null","<img src=""img/land6.png"" style=""width:200px;border:14px solid red;"">","null","","","","","","","","","",""
"","image-keyboard-response","46","47680","0.0-46.0","3P4MQ7TPPYYDI1NVUBYWTQHDL1CBBP","A1UGD2VEVSML1U","36U4VBVNQOZD8NFWZXWF9CIHKRIURB","","913.3000000119209","img/land1.png","74","914.8000000119209","1","1","1","1","0.8,0.2,0.2,0.2,0.8,0.2,0.2,0.2,0.8","0.8,0.2,0.2,0.2,0.8,0.2,0.2,0.2,0.8","1","",""
"","html-keyboard-response","47","47982","0.0-47.0","3P4MQ7TPPYYDI1NVUBYWTQHDL1CBBP","A1UGD2VEVSML1U","36U4VBVNQOZD8NFWZXWF9CIHKRIURB","","null","<img src=""img/land1.png"" style=""width:200px; border:14px solid green;"">","null","","","","","","","","","",""
"","image-keyboard-response","48","49534","0.0-48.0","3P4MQ7TPPYYDI1NVUBYWTQHDL1CBBP","A1UGD2VEVSML1U","36U4VBVNQOZD8NFWZXWF9CIHKRIURB","","1550.3999999761581","img/land6.png","75","1551.4000000059605","2","1","2","1","0.8,0.2,0.2,0.2,0.8,0.2,0.2,0.2,0.8","0.8,0.2,0.2,0.2,0.8,0.2,0.2,0.2,0.8","1","",""
"","html-keyboard-response","49","49835","0.0-49.0","3P4MQ7TPPYYDI1NVUBYWTQHDL1CBBP","A1UGD2VEVSML1U","36U4VBVNQOZD8NFWZXWF9CIHKRIURB","","null","<img src=""img/land6.png"" style=""width:200px; border:14px solid green;"">","null","","","","","","","","","",""
"","image-keyboard-response","50","50294","0.0-50.0","3P4MQ7TPPYYDI1NVUBYWTQHDL1CBBP","A1UGD2VEVSML1U","36U4VBVNQOZD8NFWZXWF9CIHKRIURB","","458.7000000178814","img/land6.png","75","459.09999999403954","2","1","2","1","0.8,0.2,0.2,0.2,0.8,0.2,0.2,0.2,0.8","0.8,0.2,0.2,0.2,0.8,0.2,0.2,0.2,0.8","1","",""
"","html-keyboard-response","51","50596","0.0-51.0","3P4MQ7TPPYYDI1NVUBYWTQHDL1CBBP","A1UGD2VEVSML1U","36U4VBVNQOZD8NFWZXWF9CIHKRIURB","","null","<img src=""img/land6.png"" style=""width:200px; border:14px solid green;"">","null","","","","","","","","","",""
"","image-keyboard-response","52","51326","0.0-52.0","3P4MQ7TPPYYDI1NVUBYWTQHDL1CBBP","A1UGD2VEVSML1U","36U4VBVNQOZD8NFWZXWF9CIHKRIURB","","728.4000000059605","img/land5.png","76","729.5","3","1","3","1","0.8,0.2,0.2,0.2,0.8,0.2,0.2,0.2,0.8","0.8,0.2,0.2,0.2,0.8,0.2,0.2,0.2,0.8","1","",""
"","html-keyboard-response","53","51628","0.0-53.0","3P4MQ7TPPYYDI1NVUBYWTQHDL1CBBP","A1UGD2VEVSML1U","36U4VBVNQOZD8NFWZXWF9CIHKRIURB","","null","<img src=""img/land5.png"" style=""width:200px; border:14px solid green;"">","null","","","","","","","","","",""
"","image-keyboard-response","54","51927","0.0-54.0","3P4MQ7TPPYYDI1NVUBYWTQHDL1CBBP","A1UGD2VEVSML1U","36U4VBVNQOZD8NFWZXWF9CIHKRIURB","","299.09999999403954","img/land5.png","76","299.69999998807907","3","1","3","1","0.8,0.2,0.2,0.2,0.8,0.2,0.2,0.2,0.8","0.8,0.2,0.2,0.2,0.8,0.2,0.2,0.2,0.8","1","",""
"","html-keyboard-response","55","52230","0.0-55.0","3P4MQ7TPPYYDI1NVUBYWTQHDL1CBBP","A1UGD2VEVSML1U","36U4VBVNQOZD8NFWZXWF9CIHKRIURB","","null","<img src=""img/land5.png"" style=""width:200px; border:14px solid green;"">","null","","","","","","","","","",""
"","image-keyboard-response","56","52510","0.0-56.0","3P4MQ7TPPYYDI1NVUBYWTQHDL1CBBP","A1UGD2VEVSML1U","36U4VBVNQOZD8NFWZXWF9CIHKRIURB","","278","img/land5.png","76","279.19999998807907","3","1","3","1","0.8,0.2,0.2,0.2,0.8,0.2,0.2,0.2,0.8","0.8,0.2,0.2,0.2,0.8,0.2,0.2,0.2,0.8","1","",""
"","html-keyboard-response","57","52812","0.0-57.0","3P4MQ7TPPYYDI1NVUBYWTQHDL1CBBP","A1UGD2VEVSML1U","36U4VBVNQOZD8NFWZXWF9CIHKRIURB","","null","<img src=""img/land5.png"" style=""width:200px; border:14px solid green;"">","null","","","","","","","","","",""
"","image-keyboard-response","58","53494","0.0-58.0","3P4MQ7TPPYYDI1NVUBYWTQHDL1CBBP","A1UGD2VEVSML1U","36U4VBVNQOZD8NFWZXWF9CIHKRIURB","","680.3999999761581","img/land1.png","74","681.8000000119209","1","1","1","1","0.8,0.2,0.2,0.2,0.8,0.2,0.2,0.2,0.8","0.8,0.2,0.2,0.2,0.8,0.2,0.2,0.2,0.8","1","",""
"","html-keyboard-response","59","53796","0.0-59.0","3P4MQ7TPPYYDI1NVUBYWTQHDL1CBBP","A1UGD2VEVSML1U","36U4VBVNQOZD8NFWZXWF9CIHKRIURB","","null","<img src=""img/land1.png"" style=""width:200px; border:14px solid green;"">","null","","","","","","","","","",""
"","image-keyboard-response","60","54103","0.0-60.0","3P4MQ7TPPYYDI1NVUBYWTQHDL1CBBP","A1UGD2VEVSML1U","36U4VBVNQOZD8NFWZXWF9CIHKRIURB","","305.5","img/land1.png","74","306.7000000178814","1","1","1","1","0.8,0.2,0.2,0.2,0.8,0.2,0.2,0.2,0.8","0.8,0.2,0.2,0.2,0.8,0.2,0.2,0.2,0.8","1","",""
"","html-keyboard-response","61","54404","0.0-61.0","3P4MQ7TPPYYDI1NVUBYWTQHDL1CBBP","A1UGD2VEVSML1U","36U4VBVNQOZD8NFWZXWF9CIHKRIURB","","null","<img src=""img/land1.png"" style=""width:200px; border:14px solid green;"">","null","","","","","","","","","",""
"","image-keyboard-response","62","54734","0.0-62.0","3P4MQ7TPPYYDI1NVUBYWTQHDL1CBBP","A1UGD2VEVSML1U","36U4VBVNQOZD8NFWZXWF9CIHKRIURB","","328.59999999403954","img/land1.png","74","329","1","1","1","1","0.8,0.2,0.2,0.2,0.8,0.2,0.2,0.2,0.8","0.8,0.2,0.2,0.2,0.8,0.2,0.2,0.2,0.8","1","",""
"","html-keyboard-response","63","55035","0.0-63.0","3P4MQ7TPPYYDI1NVUBYWTQHDL1CBBP","A1UGD2VEVSML1U","36U4VBVNQOZD8NFWZXWF9CIHKRIURB","","null","<img src=""img/land1.png"" style=""width:200px; border:14px solid green;"">","null","","","","","","","","","",""
"","image-keyboard-response","64","56000","0.0-64.0","3P4MQ7TPPYYDI1NVUBYWTQHDL1CBBP","A1UGD2VEVSML1U","36U4VBVNQOZD8NFWZXWF9CIHKRIURB","","963.9000000059605","img/land5.png","75","964.8000000119209","2","0","3","1","0.8,0.2,0.2,0.2,0.8,0.2,0.2,0.2,0.8","0.8,0.2,0.2,0.2,0.8,0.2,0.2,0.2,0.8","1","",""
"","html-keyboard-response","65","56302","0.0-65.0","3P4MQ7TPPYYDI1NVUBYWTQHDL1CBBP","A1UGD2VEVSML1U","36U4VBVNQOZD8NFWZXWF9CIHKRIURB","","null","<img src=""img/land5.png"" style=""width:200px;border:14px solid red;"">","null","","","","","","","","","",""
"","image-keyboard-response","66","56776","0.0-66.0","3P4MQ7TPPYYDI1NVUBYWTQHDL1CBBP","A1UGD2VEVSML1U","36U4VBVNQOZD8NFWZXWF9CIHKRIURB","","471.90000000596046","img/land5.png","76","473","3","1","3","1","0.8,0.2,0.2,0.2,0.8,0.2,0.2,0.2,0.8","0.8,0.2,0.2,0.2,0.8,0.2,0.2,0.2,0.8","1","",""
"","html-keyboard-response","67","57077","0.0-67.0","3P4MQ7TPPYYDI1NVUBYWTQHDL1CBBP","A1UGD2VEVSML1U","36U4VBVNQOZD8NFWZXWF9CIHKRIURB","","null","<img src=""img/land5.png"" style=""width:200px; border:14px solid green;"">","null","","","","","","","","","",""
"","image-keyboard-response","68","57654","0.0-68.0","3P4MQ7TPPYYDI1NVUBYWTQHDL1CBBP","A1UGD2VEVSML1U","36U4VBVNQOZD8NFWZXWF9CIHKRIURB","","575","img/land6.png","75","576.1999999880791","2","1","2","1","0.8,0.2,0.2,0.2,0.8,0.2,0.2,0.2,0.8","0.8,0.2,0.2,0.2,0.8,0.2,0.2,0.2,0.8","1","",""
"","html-keyboard-response","69","57956","0.0-69.0","3P4MQ7TPPYYDI1NVUBYWTQHDL1CBBP","A1UGD2VEVSML1U","36U4VBVNQOZD8NFWZXWF9CIHKRIURB","","null","<img src=""img/land6.png"" style=""width:200px; border:14px solid green;"">","null","","","","","","","","","",""
"","image-keyboard-response","70","58671","0.0-70.0","3P4MQ7TPPYYDI1NVUBYWTQHDL1CBBP","A1UGD2VEVSML1U","36U4VBVNQOZD8NFWZXWF9CIHKRIURB","","714","img/land1.png","74","715.2000000178814","1","1","1","1","0.8,0.2,0.2,0.2,0.8,0.2,0.2,0.2,0.8","0.8,0.2,0.2,0.2,0.8,0.2,0.2,0.2,0.8","1","",""
"","html-keyboard-response","71","58972","0.0-71.0","3P4MQ7TPPYYDI1NVUBYWTQHDL1CBBP","A1UGD2VEVSML1U","36U4VBVNQOZD8NFWZXWF9CIHKRIURB","","null","<img src=""img/land1.png"" style=""width:200px; border:14px solid green;"">","null","","","","","","","","","",""
"","image-keyboard-response","72","60158","0.0-72.0","3P4MQ7TPPYYDI1NVUBYWTQHDL1CBBP","A1UGD2VEVSML1U","36U4VBVNQOZD8NFWZXWF9CIHKRIURB","","1185.6000000238419","img/land5.png","76","1186.199999988079","3","1","3","1","0.8,0.2,0.2,0.2,0.8,0.2,0.2,0.2,0.8","0.8,0.2,0.2,0.2,0.8,0.2,0.2,0.2,0.8","1","",""
"","html-keyboard-response","73","60460","0.0-73.0","3P4MQ7TPPYYDI1NVUBYWTQHDL1CBBP","A1UGD2VEVSML1U","36U4VBVNQOZD8NFWZXWF9CIHKRIURB","","null","<img src=""img/land5.png"" style=""width:200px; border:14px solid green;"">","null","","","","","","","","","",""
"","image-keyboard-response","74","61045","0.0-74.0","3P4MQ7TPPYYDI1NVUBYWTQHDL1CBBP","A1UGD2VEVSML1U","36U4VBVNQOZD8NFWZXWF9CIHKRIURB","","585.0999999940395","img/land6.png","75","585.5999999940395","2","1","2","1","0.8,0.2,0.2,0.2,0.8,0.2,0.2,0.2,0.8","0.8,0.2,0.2,0.2,0.8,0.2,0.2,0.2,0.8","1","",""
"","html-keyboard-response","75","61348","0.0-75.0","3P4MQ7TPPYYDI1NVUBYWTQHDL1CBBP","A1UGD2VEVSML1U","36U4VBVNQOZD8NFWZXWF9CIHKRIURB","","null","<img src=""img/land6.png"" style=""width:200px; border:14px solid green;"">","null","","","","","","","","","",""
"","image-keyboard-response","76","62031","0.0-76.0","3P4MQ7TPPYYDI1NVUBYWTQHDL1CBBP","A1UGD2VEVSML1U","36U4VBVNQOZD8NFWZXWF9CIHKRIURB","","682","img/land1.png","74","682.6000000238419","1","1","1","1","0.8,0.2,0.2,0.2,0.8,0.2,0.2,0.2,0.8","0.8,0.2,0.2,0.2,0.8,0.2,0.2,0.2,0.8","1","",""
"","html-keyboard-response","77","62332","0.0-77.0","3P4MQ7TPPYYDI1NVUBYWTQHDL1CBBP","A1UGD2VEVSML1U","36U4VBVNQOZD8NFWZXWF9CIHKRIURB","","null","<img src=""img/land1.png"" style=""width:200px; border:14px solid green;"">","null","","","","","","","","","",""
"","image-keyboard-response","78","63557","0.0-78.0","3P4MQ7TPPYYDI1NVUBYWTQHDL1CBBP","A1UGD2VEVSML1U","36U4VBVNQOZD8NFWZXWF9CIHKRIURB","","1224.300000011921","img/land6.png","75","1224.800000011921","2","0","2","1","0.8,0.2,0.2,0.2,0.8,0.2,0.2,0.2,0.8","0.8,0.2,0.2,0.2,0.8,0.2,0.2,0.2,0.8","1","",""
"","html-keyboard-response","79","63859","0.0-79.0","3P4MQ7TPPYYDI1NVUBYWTQHDL1CBBP","A1UGD2VEVSML1U","36U4VBVNQOZD8NFWZXWF9CIHKRIURB","","null","<img src=""img/land6.png"" style=""width:200px;border:14px solid red;"">","null","","","","","","","","","",""
"","image-keyboard-response","80","64502","0.0-80.0","3P4MQ7TPPYYDI1NVUBYWTQHDL1CBBP","A1UGD2VEVSML1U","36U4VBVNQOZD8NFWZXWF9CIHKRIURB","","642.5999999940395","img/land1.png","74","643","1","1","1","1","0.8,0.2,0.2,0.2,0.8,0.2,0.2,0.2,0.8","0.8,0.2,0.2,0.2,0.8,0.2,0.2,0.2,0.8","1","",""
"","html-keyboard-response","81","64803","0.0-81.0","3P4MQ7TPPYYDI1NVUBYWTQHDL1CBBP","A1UGD2VEVSML1U","36U4VBVNQOZD8NFWZXWF9CIHKRIURB","","null","<img src=""img/land1.png"" style=""width:200px; border:14px solid green;"">","null","","","","","","","","","",""
"","image-keyboard-response","82","65103","0.0-82.0","3P4MQ7TPPYYDI1NVUBYWTQHDL1CBBP","A1UGD2VEVSML1U","36U4VBVNQOZD8NFWZXWF9CIHKRIURB","","299.59999999403954","img/land1.png","74","300.19999998807907","1","1","1","1","0.8,0.2,0.2,0.2,0.8,0.2,0.2,0.2,0.8","0.8,0.2,0.2,0.2,0.8,0.2,0.2,0.2,0.8","1","",""
"","html-keyboard-response","83","65414","0.0-83.0","3P4MQ7TPPYYDI1NVUBYWTQHDL1CBBP","A1UGD2VEVSML1U","36U4VBVNQOZD8NFWZXWF9CIHKRIURB","","null","<img src=""img/land1.png"" style=""width:200px; border:14px solid green;"">","null","","","","","","","","","",""
"","image-keyboard-response","84","66429","0.0-84.0","3P4MQ7TPPYYDI1NVUBYWTQHDL1CBBP","A1UGD2VEVSML1U","36U4VBVNQOZD8NFWZXWF9CIHKRIURB","","1014.4000000059605","img/land6.png","76","1015","3","1","2","1","0.8,0.2,0.2,0.2,0.8,0.2,0.2,0.2,0.8","0.8,0.2,0.2,0.2,0.8,0.2,0.2,0.2,0.8","1","",""
"","html-keyboard-response","85","66731","0.0-85.0","3P4MQ7TPPYYDI1NVUBYWTQHDL1CBBP","A1UGD2VEVSML1U","36U4VBVNQOZD8NFWZXWF9CIHKRIURB","","null","<img src=""img/land6.png"" style=""width:200px; border:14px solid green;"">","null","","","","","","","","","",""
"","image-keyboard-response","86","67446","0.0-86.0","3P4MQ7TPPYYDI1NVUBYWTQHDL1CBBP","A1UGD2VEVSML1U","36U4VBVNQOZD8NFWZXWF9CIHKRIURB","","714.5","img/land5.png","76","715","3","1","3","1","0.8,0.2,0.2,0.2,0.8,0.2,0.2,0.2,0.8","0.8,0.2,0.2,0.2,0.8,0.2,0.2,0.2,0.8","1","",""
"","html-keyboard-response","87","67749","0.0-87.0","3P4MQ7TPPYYDI1NVUBYWTQHDL1CBBP","A1UGD2VEVSML1U","36U4VBVNQOZD8NFWZXWF9CIHKRIURB","","null","<img src=""img/land5.png"" style=""width:200px; border:14px solid green;"">","null","","","","","","","","","",""
"","image-keyboard-response","88","68046","0.0-88.0","3P4MQ7TPPYYDI1NVUBYWTQHDL1CBBP","A1UGD2VEVSML1U","36U4VBVNQOZD8NFWZXWF9CIHKRIURB","","295.59999999403954","img/land5.png","76","296.59999999403954","3","1","3","1","0.8,0.2,0.2,0.2,0.8,0.2,0.2,0.2,0.8","0.8,0.2,0.2,0.2,0.8,0.2,0.2,0.2,0.8","1","",""
"","html-keyboard-response","89","68348","0.0-89.0","3P4MQ7TPPYYDI1NVUBYWTQHDL1CBBP","A1UGD2VEVSML1U","36U4VBVNQOZD8NFWZXWF9CIHKRIURB","","null","<img src=""img/land5.png"" style=""width:200px; border:14px solid green;"">","null","","","","","","","","","",""
"","image-keyboard-response","90","68648","0.0-90.0","3P4MQ7TPPYYDI1NVUBYWTQHDL1CBBP","A1UGD2VEVSML1U","36U4VBVNQOZD8NFWZXWF9CIHKRIURB","","298.90000000596046","img/land5.png","76","299.90000000596046","3","0","3","1","0.8,0.2,0.2,0.2,0.8,0.2,0.2,0.2,0.8","0.8,0.2,0.2,0.2,0.8,0.2,0.2,0.2,0.8","1","",""
"","html-keyboard-response","91","68950","0.0-91.0","3P4MQ7TPPYYDI1NVUBYWTQHDL1CBBP","A1UGD2VEVSML1U","36U4VBVNQOZD8NFWZXWF9CIHKRIURB","","null","<img src=""img/land5.png"" style=""width:200px;border:14px solid red;"">","null","","","","","","","","","",""
"","image-keyboard-response","92","69717","0.0-92.0","3P4MQ7TPPYYDI1NVUBYWTQHDL1CBBP","A1UGD2VEVSML1U","36U4VBVNQOZD8NFWZXWF9CIHKRIURB","","765.5999999940395","img/land6.png","75","766.8000000119209","2","1","2","1","0.8,0.2,0.2,0.2,0.8,0.2,0.2,0.2,0.8","0.8,0.2,0.2,0.2,0.8,0.2,0.2,0.2,0.8","1","",""
"","html-keyboard-response","93","70018","0.0-93.0","3P4MQ7TPPYYDI1NVUBYWTQHDL1CBBP","A1UGD2VEVSML1U","36U4VBVNQOZD8NFWZXWF9CIHKRIURB","","null","<img src=""img/land6.png"" style=""width:200px; border:14px solid green;"">","null","","","","","","","","","",""
"","image-keyboard-response","94","70702","0.0-94.0","3P4MQ7TPPYYDI1NVUBYWTQHDL1CBBP","A1UGD2VEVSML1U","36U4VBVNQOZD8NFWZXWF9CIHKRIURB","","683.5999999940395","img/land5.png","76","684.2000000178814","3","1","3","1","0.8,0.2,0.2,0.2,0.8,0.2,0.2,0.2,0.8","0.8,0.2,0.2,0.2,0.8,0.2,0.2,0.2,0.8","1","",""
"","html-keyboard-response","95","71004","0.0-95.0","3P4MQ7TPPYYDI1NVUBYWTQHDL1CBBP","A1UGD2VEVSML1U","36U4VBVNQOZD8NFWZXWF9CIHKRIURB","","null","<img src=""img/land5.png"" style=""width:200px; border:14px solid green;"">","null","","","","","","","","","",""
"","image-keyboard-response","96","71661","0.0-96.0","3P4MQ7TPPYYDI1NVUBYWTQHDL1CBBP","A1UGD2VEVSML1U","36U4VBVNQOZD8NFWZXWF9CIHKRIURB","","656.5","img/land1.png","74","657","1","1","1","1","0.8,0.2,0.2,0.2,0.8,0.2,0.2,0.2,0.8","0.8,0.2,0.2,0.2,0.8,0.2,0.2,0.2,0.8","1","",""
"","html-keyboard-response","97","71962","0.0-97.0","3P4MQ7TPPYYDI1NVUBYWTQHDL1CBBP","A1UGD2VEVSML1U","36U4VBVNQOZD8NFWZXWF9CIHKRIURB","","null","<img src=""img/land1.png"" style=""width:200px; border:14px solid green;"">","null","","","","","","","","","",""
"","image-keyboard-response","98","72743","0.0-98.0","3P4MQ7TPPYYDI1NVUBYWTQHDL1CBBP","A1UGD2VEVSML1U","36U4VBVNQOZD8NFWZXWF9CIHKRIURB","","778.6999999880791","img/land6.png","75","780.0999999940395","2","0","2","1","0.8,0.2,0.2,0.2,0.8,0.2,0.2,0.2,0.8","0.8,0.2,0.2,0.2,0.8,0.2,0.2,0.2,0.8","1","",""
"","html-keyboard-response","99","73045","0.0-99.0","3P4MQ7TPPYYDI1NVUBYWTQHDL1CBBP","A1UGD2VEVSML1U","36U4VBVNQOZD8NFWZXWF9CIHKRIURB","","null","<img src=""img/land6.png"" style=""width:200px;border:14px solid red;"">","null","","","","","","","","","",""
"","image-keyboard-response","100","73941","0.0-100.0","3P4MQ7TPPYYDI1NVUBYWTQHDL1CBBP","A1UGD2VEVSML1U","36U4VBVNQOZD8NFWZXWF9CIHKRIURB","","895","img/land5.png","76","896.3000000119209","3","1","3","1","0.8,0.2,0.2,0.2,0.8,0.2,0.2,0.2,0.8","0.8,0.2,0.2,0.2,0.8,0.2,0.2,0.2,0.8","1","",""
"","html-keyboard-response","101","74242","0.0-101.0","3P4MQ7TPPYYDI1NVUBYWTQHDL1CBBP","A1UGD2VEVSML1U","36U4VBVNQOZD8NFWZXWF9CIHKRIURB","","null","<img src=""img/land5.png"" style=""width:200px; border:14px solid green;"">","null","","","","","","","","","",""
"","image-keyboard-response","102","75237","0.0-102.0","3P4MQ7TPPYYDI1NVUBYWTQHDL1CBBP","A1UGD2VEVSML1U","36U4VBVNQOZD8NFWZXWF9CIHKRIURB","","994.5999999940395","img/land6.png","75","995","2","1","2","1","0.8,0.2,0.2,0.2,0.8,0.2,0.2,0.2,0.8","0.8,0.2,0.2,0.2,0.8,0.2,0.2,0.2,0.8","1","",""
"","html-keyboard-response","103","75540","0.0-103.0","3P4MQ7TPPYYDI1NVUBYWTQHDL1CBBP","A1UGD2VEVSML1U","36U4VBVNQOZD8NFWZXWF9CIHKRIURB","","null","<img src=""img/land6.png"" style=""width:200px; border:14px solid green;"">","null","","","","","","","","","",""
"","image-keyboard-response","104","75901","0.0-104.0","3P4MQ7TPPYYDI1NVUBYWTQHDL1CBBP","A1UGD2VEVSML1U","36U4VBVNQOZD8NFWZXWF9CIHKRIURB","","359.89999997615814","img/land6.png","75","361.2000000178814","2","1","2","1","0.8,0.2,0.2,0.2,0.8,0.2,0.2,0.2,0.8","0.8,0.2,0.2,0.2,0.8,0.2,0.2,0.2,0.8","1","",""
"","html-keyboard-response","105","76203","0.0-105.0","3P4MQ7TPPYYDI1NVUBYWTQHDL1CBBP","A1UGD2VEVSML1U","36U4VBVNQOZD8NFWZXWF9CIHKRIURB","","null","<img src=""img/land6.png"" style=""width:200px; border:14px solid green;"">","null","","","","","","","","","",""
"","image-keyboard-response","106","77465","0.0-106.0","3P4MQ7TPPYYDI1NVUBYWTQHDL1CBBP","A1UGD2VEVSML1U","36U4VBVNQOZD8NFWZXWF9CIHKRIURB","","1260.199999988079","img/land1.png","74","1261.9000000059605","1","1","1","1","0.8,0.2,0.2,0.2,0.8,0.2,0.2,0.2,0.8","0.8,0.2,0.2,0.2,0.8,0.2,0.2,0.2,0.8","1","",""
"","html-keyboard-response","107","77769","0.0-107.0","3P4MQ7TPPYYDI1NVUBYWTQHDL1CBBP","A1UGD2VEVSML1U","36U4VBVNQOZD8NFWZXWF9CIHKRIURB","","null","<img src=""img/land1.png"" style=""width:200px; border:14px solid green;"">","null","","","","","","","","","",""
"","image-keyboard-response","108","78871","0.0-108.0","3P4MQ7TPPYYDI1NVUBYWTQHDL1CBBP","A1UGD2VEVSML1U","36U4VBVNQOZD8NFWZXWF9CIHKRIURB","","1100.2999999821186","img/land6.png","76","1101.5999999940395","3","1","2","1","0.8,0.2,0.2,0.2,0.8,0.2,0.2,0.2,0.8","0.8,0.2,0.2,0.2,0.8,0.2,0.2,0.2,0.8","1","",""
"","html-keyboard-response","109","79174","0.0-109.0","3P4MQ7TPPYYDI1NVUBYWTQHDL1CBBP","A1UGD2VEVSML1U","36U4VBVNQOZD8NFWZXWF9CIHKRIURB","","null","<img src=""img/land6.png"" style=""width:200px; border:14px solid green;"">","null","","","","","","","","","",""
"","image-keyboard-response","110","79494","0.0-110.0","3P4MQ7TPPYYDI1NVUBYWTQHDL1CBBP","A1UGD2VEVSML1U","36U4VBVNQOZD8NFWZXWF9CIHKRIURB","","318.59999999403954","img/land6.png","76","319","3","1","2","1","0.8,0.2,0.2,0.2,0.8,0.2,0.2,0.2,0.8","0.8,0.2,0.2,0.2,0.8,0.2,0.2,0.2,0.8","1","",""
"","html-keyboard-response","111","79794","0.0-111.0","3P4MQ7TPPYYDI1NVUBYWTQHDL1CBBP","A1UGD2VEVSML1U","36U4VBVNQOZD8NFWZXWF9CIHKRIURB","","null","<img src=""img/land6.png"" style=""width:200px; border:14px solid green;"">","null","","","","","","","","","",""
"","image-keyboard-response","112","80853","0.0-112.0","3P4MQ7TPPYYDI1NVUBYWTQHDL1CBBP","A1UGD2VEVSML1U","36U4VBVNQOZD8NFWZXWF9CIHKRIURB","","1058.5999999940395","img/land5.png","76","1059.0999999940395","3","1","3","1","0.8,0.2,0.2,0.2,0.8,0.2,0.2,0.2,0.8","0.8,0.2,0.2,0.2,0.8,0.2,0.2,0.2,0.8","1","",""
"","html-keyboard-response","113","81155","0.0-113.0","3P4MQ7TPPYYDI1NVUBYWTQHDL1CBBP","A1UGD2VEVSML1U","36U4VBVNQOZD8NFWZXWF9CIHKRIURB","","null","<img src=""img/land5.png"" style=""width:200px; border:14px solid green;"">","null","","","","","","","","","",""
"","image-keyboard-response","114","81527","0.0-114.0","3P4MQ7TPPYYDI1NVUBYWTQHDL1CBBP","A1UGD2VEVSML1U","36U4VBVNQOZD8NFWZXWF9CIHKRIURB","","370.89999997615814","img/land5.png","76","371.59999999403954","3","1","3","1","0.8,0.2,0.2,0.2,0.8,0.2,0.2,0.2,0.8","0.8,0.2,0.2,0.2,0.8,0.2,0.2,0.2,0.8","1","",""
"","html-keyboard-response","115","81830","0.0-115.0","3P4MQ7TPPYYDI1NVUBYWTQHDL1CBBP","A1UGD2VEVSML1U","36U4VBVNQOZD8NFWZXWF9CIHKRIURB","","null","<img src=""img/land5.png"" style=""width:200px; border:14px solid green;"">","null","","","","","","","","","",""
"","image-keyboard-response","116","82159","0.0-116.0","3P4MQ7TPPYYDI1NVUBYWTQHDL1CBBP","A1UGD2VEVSML1U","36U4VBVNQOZD8NFWZXWF9CIHKRIURB","","329.2000000178814","img/land5.png","76","329.7999999821186","3","1","3","1","0.8,0.2,0.2,0.2,0.8,0.2,0.2,0.2,0.8","0.8,0.2,0.2,0.2,0.8,0.2,0.2,0.2,0.8","1","",""
"","html-keyboard-response","117","82462","0.0-117.0","3P4MQ7TPPYYDI1NVUBYWTQHDL1CBBP","A1UGD2VEVSML1U","36U4VBVNQOZD8NFWZXWF9CIHKRIURB","","null","<img src=""img/land5.png"" style=""width:200px; border:14px solid green;"">","null","","","","","","","","","",""
"","image-keyboard-response","118","83319","0.0-118.0","3P4MQ7TPPYYDI1NVUBYWTQHDL1CBBP","A1UGD2VEVSML1U","36U4VBVNQOZD8NFWZXWF9CIHKRIURB","","855.5","img/land6.png","76","856.2999999821186","3","0","2","1","0.8,0.2,0.2,0.2,0.8,0.2,0.2,0.2,0.8","0.8,0.2,0.2,0.2,0.8,0.2,0.2,0.2,0.8","1","",""
"","html-keyboard-response","119","83621","0.0-119.0","3P4MQ7TPPYYDI1NVUBYWTQHDL1CBBP","A1UGD2VEVSML1U","36U4VBVNQOZD8NFWZXWF9CIHKRIURB","","null","<img src=""img/land6.png"" style=""width:200px;border:14px solid red;"">","null","","","","","","","","","",""
"","image-keyboard-response","120","84600","0.0-120.0","3P4MQ7TPPYYDI1NVUBYWTQHDL1CBBP","A1UGD2VEVSML1U","36U4VBVNQOZD8NFWZXWF9CIHKRIURB","","977.1000000238419","img/land5.png","76","978.5999999940395","3","0","3","1","0.8,0.2,0.2,0.2,0.8,0.2,0.2,0.2,0.8","0.8,0.2,0.2,0.2,0.8,0.2,0.2,0.2,0.8","1","",""
"","html-keyboard-response","121","84903","0.0-121.0","3P4MQ7TPPYYDI1NVUBYWTQHDL1CBBP","A1UGD2VEVSML1U","36U4VBVNQOZD8NFWZXWF9CIHKRIURB","","null","<img src=""img/land5.png"" style=""width:200px;border:14px solid red;"">","null","","","","","","","","","",""
"","image-keyboard-response","122","85783","0.0-122.0","3P4MQ7TPPYYDI1NVUBYWTQHDL1CBBP","A1UGD2VEVSML1U","36U4VBVNQOZD8NFWZXWF9CIHKRIURB","","879.0999999940395","img/land6.png","75","879.5","2","1","2","1","0.8,0.2,0.2,0.2,0.8,0.2,0.2,0.2,0.8","0.8,0.2,0.2,0.2,0.8,0.2,0.2,0.2,0.8","1","",""
"","html-keyboard-response","123","86084","0.0-123.0","3P4MQ7TPPYYDI1NVUBYWTQHDL1CBBP","A1UGD2VEVSML1U","36U4VBVNQOZD8NFWZXWF9CIHKRIURB","","null","<img src=""img/land6.png"" style=""width:200px; border:14px solid green;"">","null","","","","","","","","","",""
"","image-keyboard-response","124","86623","0.0-124.0","3P4MQ7TPPYYDI1NVUBYWTQHDL1CBBP","A1UGD2VEVSML1U","36U4VBVNQOZD8NFWZXWF9CIHKRIURB","","537.6999999880791","img/land1.png","74","538.8000000119209","1","1","1","1","0.8,0.2,0.2,0.2,0.8,0.2,0.2,0.2,0.8","0.8,0.2,0.2,0.2,0.8,0.2,0.2,0.2,0.8","1","",""
"","html-keyboard-response","125","86932","0.0-125.0","3P4MQ7TPPYYDI1NVUBYWTQHDL1CBBP","A1UGD2VEVSML1U","36U4VBVNQOZD8NFWZXWF9CIHKRIURB","","null","<img src=""img/land1.png"" style=""width:200px; border:14px solid green;"">","null","","","","","","","","","",""
"","image-keyboard-response","126","87215","0.0-126.0","3P4MQ7TPPYYDI1NVUBYWTQHDL1CBBP","A1UGD2VEVSML1U","36U4VBVNQOZD8NFWZXWF9CIHKRIURB","","282.19999998807907","img/land1.png","74","282.90000000596046","1","0","1","1","0.8,0.2,0.2,0.2,0.8,0.2,0.2,0.2,0.8","0.8,0.2,0.2,0.2,0.8,0.2,0.2,0.2,0.8","1","",""
"","html-keyboard-response","127","87517","0.0-127.0","3P4MQ7TPPYYDI1NVUBYWTQHDL1CBBP","A1UGD2VEVSML1U","36U4VBVNQOZD8NFWZXWF9CIHKRIURB","","null","<img src=""img/land1.png"" style=""width:200px;border:14px solid red;"">","null","","","","","","","","","",""
"","image-keyboard-response","128","88367","0.0-128.0","3P4MQ7TPPYYDI1NVUBYWTQHDL1CBBP","A1UGD2VEVSML1U","36U4VBVNQOZD8NFWZXWF9CIHKRIURB","","848.7999999821186","img/land1.png","75","849.5999999940395","2","0","1","1","0.8,0.2,0.2,0.2,0.8,0.2,0.2,0.2,0.8","0.8,0.2,0.2,0.2,0.8,0.2,0.2,0.2,0.8","1","",""
"","html-keyboard-response","129","88677","0.0-129.0","3P4MQ7TPPYYDI1NVUBYWTQHDL1CBBP","A1UGD2VEVSML1U","36U4VBVNQOZD8NFWZXWF9CIHKRIURB","","null","<img src=""img/land1.png"" style=""width:200px;border:14px solid red;"">","null","","","","","","","","","",""
"","image-keyboard-response","130","89030","0.0-130.0","3P4MQ7TPPYYDI1NVUBYWTQHDL1CBBP","A1UGD2VEVSML1U","36U4VBVNQOZD8NFWZXWF9CIHKRIURB","","352.59999999403954","img/land1.png","76","353.59999999403954","3","0","1","1","0.8,0.2,0.2,0.2,0.8,0.2,0.2,0.2,0.8","0.8,0.2,0.2,0.2,0.8,0.2,0.2,0.2,0.8","1","",""
"","html-keyboard-response","131","89333","0.0-131.0","3P4MQ7TPPYYDI1NVUBYWTQHDL1CBBP","A1UGD2VEVSML1U","36U4VBVNQOZD8NFWZXWF9CIHKRIURB","","null","<img src=""img/land1.png"" style=""width:200px;border:14px solid red;"">","null","","","","","","","","","",""
"","image-keyboard-response","132","90590","0.0-132.0","3P4MQ7TPPYYDI1NVUBYWTQHDL1CBBP","A1UGD2VEVSML1U","36U4VBVNQOZD8NFWZXWF9CIHKRIURB","","1256.199999988079","img/land6.png","74","1256.5999999940395","1","0","2","1","0.8,0.2,0.2,0.2,0.8,0.2,0.2,0.2,0.8","0.8,0.2,0.2,0.2,0.8,0.2,0.2,0.2,0.8","1","",""
"","html-keyboard-response","133","90891","0.0-133.0","3P4MQ7TPPYYDI1NVUBYWTQHDL1CBBP","A1UGD2VEVSML1U","36U4VBVNQOZD8NFWZXWF9CIHKRIURB","","null","<img src=""img/land6.png"" style=""width:200px;border:14px solid red;"">","null","","","","","","","","","",""
"","image-keyboard-response","134","91565","0.0-134.0","3P4MQ7TPPYYDI1NVUBYWTQHDL1CBBP","A1UGD2VEVSML1U","36U4VBVNQOZD8NFWZXWF9CIHKRIURB","","674","img/land1.png","74","674.5999999940395","1","0","1","1","0.8,0.2,0.2,0.2,0.8,0.2,0.2,0.2,0.8","0.8,0.2,0.2,0.2,0.8,0.2,0.2,0.2,0.8","1","",""
"","html-keyboard-response","135","91868","0.0-135.0","3P4MQ7TPPYYDI1NVUBYWTQHDL1CBBP","A1UGD2VEVSML1U","36U4VBVNQOZD8NFWZXWF9CIHKRIURB","","null","<img src=""img/land1.png"" style=""width:200px;border:14px solid red;"">","null","","","","","","","","","",""
"","image-keyboard-response","136","92207","0.0-136.0","3P4MQ7TPPYYDI1NVUBYWTQHDL1CBBP","A1UGD2VEVSML1U","36U4VBVNQOZD8NFWZXWF9CIHKRIURB","","337.59999999403954","img/land1.png","75","339","2","1","1","1","0.8,0.2,0.2,0.2,0.8,0.2,0.2,0.2,0.8","0.8,0.2,0.2,0.2,0.8,0.2,0.2,0.2,0.8","1","",""
"","html-keyboard-response","137","92510","0.0-137.0","3P4MQ7TPPYYDI1NVUBYWTQHDL1CBBP","A1UGD2VEVSML1U","36U4VBVNQOZD8NFWZXWF9CIHKRIURB","","null","<img src=""img/land1.png"" style=""width:200px; border:14px solid green;"">","null","","","","","","","","","",""
"","image-keyboard-response","138","93150","0.0-138.0","3P4MQ7TPPYYDI1NVUBYWTQHDL1CBBP","A1UGD2VEVSML1U","36U4VBVNQOZD8NFWZXWF9CIHKRIURB","","639.6000000238419","img/land6.png","76","640.1999999880791","3","0","2","1","0.8,0.2,0.2,0.2,0.8,0.2,0.2,0.2,0.8","0.8,0.2,0.2,0.2,0.8,0.2,0.2,0.2,0.8","1","",""
"","html-keyboard-response","139","93451","0.0-139.0","3P4MQ7TPPYYDI1NVUBYWTQHDL1CBBP","A1UGD2VEVSML1U","36U4VBVNQOZD8NFWZXWF9CIHKRIURB","","null","<img src=""img/land6.png"" style=""width:200px;border:14px solid red;"">","null","","","","","","","","","",""
"","image-keyboard-response","140","94231","0.0-140.0","3P4MQ7TPPYYDI1NVUBYWTQHDL1CBBP","A1UGD2VEVSML1U","36U4VBVNQOZD8NFWZXWF9CIHKRIURB","","778.4000000059605","img/land5.png","76","779.7999999821186","3","1","3","1","0.8,0.2,0.2,0.2,0.8,0.2,0.2,0.2,0.8","0.8,0.2,0.2,0.2,0.8,0.2,0.2,0.2,0.8","1","",""
"","html-keyboard-response","141","94534","0.0-141.0","3P4MQ7TPPYYDI1NVUBYWTQHDL1CBBP","A1UGD2VEVSML1U","36U4VBVNQOZD8NFWZXWF9CIHKRIURB","","null","<img src=""img/land5.png"" style=""width:200px; border:14px solid green;"">","null","","","","","","","","","",""
"","image-keyboard-response","142","95031","0.0-142.0","3P4MQ7TPPYYDI1NVUBYWTQHDL1CBBP","A1UGD2VEVSML1U","36U4VBVNQOZD8NFWZXWF9CIHKRIURB","","495","img/land6.png","75","496.30000001192093","2","1","2","1","0.8,0.2,0.2,0.2,0.8,0.2,0.2,0.2,0.8","0.8,0.2,0.2,0.2,0.8,0.2,0.2,0.2,0.8","1","",""
"","html-keyboard-response","143","95333","0.0-143.0","3P4MQ7TPPYYDI1NVUBYWTQHDL1CBBP","A1UGD2VEVSML1U","36U4VBVNQOZD8NFWZXWF9CIHKRIURB","","null","<img src=""img/land6.png"" style=""width:200px; border:14px solid green;"">","null","","","","","","","","","",""
"","image-keyboard-response","144","96573","0.0-144.0","3P4MQ7TPPYYDI1NVUBYWTQHDL1CBBP","A1UGD2VEVSML1U","36U4VBVNQOZD8NFWZXWF9CIHKRIURB","","1238.6000000238419","img/land1.png","75","1239.9000000059605","2","0","1","1","0.8,0.2,0.2,0.2,0.8,0.2,0.2,0.2,0.8","0.8,0.2,0.2,0.2,0.8,0.2,0.2,0.2,0.8","1","",""
"","html-keyboard-response","145","96875","0.0-145.0","3P4MQ7TPPYYDI1NVUBYWTQHDL1CBBP","A1UGD2VEVSML1U","36U4VBVNQOZD8NFWZXWF9CIHKRIURB","","null","<img src=""img/land1.png"" style=""width:200px;border:14px solid red;"">","null","","","","","","","","","",""
"","image-keyboard-response","146","97278","0.0-146.0","3P4MQ7TPPYYDI1NVUBYWTQHDL1CBBP","A1UGD2VEVSML1U","36U4VBVNQOZD8NFWZXWF9CIHKRIURB","","401.30000001192093","img/land1.png","76","402.40000000596046","3","0","1","1","0.8,0.2,0.2,0.2,0.8,0.2,0.2,0.2,0.8","0.8,0.2,0.2,0.2,0.8,0.2,0.2,0.2,0.8","1","",""
"","html-keyboard-response","147","97580","0.0-147.0","3P4MQ7TPPYYDI1NVUBYWTQHDL1CBBP","A1UGD2VEVSML1U","36U4VBVNQOZD8NFWZXWF9CIHKRIURB","","null","<img src=""img/land1.png"" style=""width:200px;border:14px solid red;"">","null","","","","","","","","","",""
"","image-keyboard-response","148","97710","0.0-148.0","3P4MQ7TPPYYDI1NVUBYWTQHDL1CBBP","A1UGD2VEVSML1U","36U4VBVNQOZD8NFWZXWF9CIHKRIURB","","127.7000000178814","img/land5.png","74","129.19999998807907","1","0","3","1","0.8,0.2,0.2,0.2,0.8,0.2,0.2,0.2,0.8","0.8,0.2,0.2,0.2,0.8,0.2,0.2,0.2,0.8","1","",""
"","html-keyboard-response","149","98012","0.0-149.0","3P4MQ7TPPYYDI1NVUBYWTQHDL1CBBP","A1UGD2VEVSML1U","36U4VBVNQOZD8NFWZXWF9CIHKRIURB","","null","<img src=""img/land5.png"" style=""width:200px;border:14px solid red;"">","null","","","","","","","","","",""
"","image-keyboard-response","150","98413","0.0-150.0","3P4MQ7TPPYYDI1NVUBYWTQHDL1CBBP","A1UGD2VEVSML1U","36U4VBVNQOZD8NFWZXWF9CIHKRIURB","","400","img/land1.png","75","401.19999998807907","2","1","1","1","0.8,0.2,0.2,0.2,0.8,0.2,0.2,0.2,0.8","0.8,0.2,0.2,0.2,0.8,0.2,0.2,0.2,0.8","1","",""
"","html-keyboard-response","151","98714","0.0-151.0","3P4MQ7TPPYYDI1NVUBYWTQHDL1CBBP","A1UGD2VEVSML1U","36U4VBVNQOZD8NFWZXWF9CIHKRIURB","","null","<img src=""img/land1.png"" style=""width:200px; border:14px solid green;"">","null","","","","","","","","","",""
"","image-keyboard-response","152","99077","0.0-152.0","3P4MQ7TPPYYDI1NVUBYWTQHDL1CBBP","A1UGD2VEVSML1U","36U4VBVNQOZD8NFWZXWF9CIHKRIURB","","362.40000000596046","img/land1.png","75","362.90000000596046","2","0","1","1","0.8,0.2,0.2,0.2,0.8,0.2,0.2,0.2,0.8","0.8,0.2,0.2,0.2,0.8,0.2,0.2,0.2,0.8","1","",""
"","html-keyboard-response","153","99388","0.0-153.0","3P4MQ7TPPYYDI1NVUBYWTQHDL1CBBP","A1UGD2VEVSML1U","36U4VBVNQOZD8NFWZXWF9CIHKRIURB","","null","<img src=""img/land1.png"" style=""width:200px;border:14px solid red;"">","null","","","","","","","","","",""
"","image-keyboard-response","154","100192","0.0-154.0","3P4MQ7TPPYYDI1NVUBYWTQHDL1CBBP","A1UGD2VEVSML1U","36U4VBVNQOZD8NFWZXWF9CIHKRIURB","","802.9000000059605","img/land5.png","74","803.5","1","0","3","1","0.8,0.2,0.2,0.2,0.8,0.2,0.2,0.2,0.8","0.8,0.2,0.2,0.2,0.8,0.2,0.2,0.2,0.8","1","",""
"","html-keyboard-response","155","100497","0.0-155.0","3P4MQ7TPPYYDI1NVUBYWTQHDL1CBBP","A1UGD2VEVSML1U","36U4VBVNQOZD8NFWZXWF9CIHKRIURB","","null","<img src=""img/land5.png"" style=""width:200px;border:14px solid red;"">","null","","","","","","","","","",""
"","image-keyboard-response","156","100582","0.0-156.0","3P4MQ7TPPYYDI1NVUBYWTQHDL1CBBP","A1UGD2VEVSML1U","36U4VBVNQOZD8NFWZXWF9CIHKRIURB","","83.7999999821186","img/land5.png","76","85.09999999403954","3","1","3","1","0.8,0.2,0.2,0.2,0.8,0.2,0.2,0.2,0.8","0.8,0.2,0.2,0.2,0.8,0.2,0.2,0.2,0.8","1","",""
"","html-keyboard-response","157","100884","0.0-157.0","3P4MQ7TPPYYDI1NVUBYWTQHDL1CBBP","A1UGD2VEVSML1U","36U4VBVNQOZD8NFWZXWF9CIHKRIURB","","null","<img src=""img/land5.png"" style=""width:200px; border:14px solid green;"">","null","","","","","","","","","",""
"","image-keyboard-response","158","101837","0.0-158.0","3P4MQ7TPPYYDI1NVUBYWTQHDL1CBBP","A1UGD2VEVSML1U","36U4VBVNQOZD8NFWZXWF9CIHKRIURB","","951.3000000119209","img/land6.png","76","952.4000000059605","3","0","2","1","0.8,0.2,0.2,0.2,0.8,0.2,0.2,0.2,0.8","0.8,0.2,0.2,0.2,0.8,0.2,0.2,0.2,0.8","1","",""
"","html-keyboard-response","159","102138","0.0-159.0","3P4MQ7TPPYYDI1NVUBYWTQHDL1CBBP","A1UGD2VEVSML1U","36U4VBVNQOZD8NFWZXWF9CIHKRIURB","","null","<img src=""img/land6.png"" style=""width:200px;border:14px solid red;"">","null","","","","","","","","","",""
"","image-keyboard-response","160","102207","0.0-160.0","3P4MQ7TPPYYDI1NVUBYWTQHDL1CBBP","A1UGD2VEVSML1U","36U4VBVNQOZD8NFWZXWF9CIHKRIURB","","68","img/land1.png","75","68.59999999403954","2","0","1","1","0.8,0.2,0.2,0.2,0.8,0.2,0.2,0.2,0.8","0.8,0.2,0.2,0.2,0.8,0.2,0.2,0.2,0.8","1","",""
"","html-keyboard-response","161","102510","0.0-161.0","3P4MQ7TPPYYDI1NVUBYWTQHDL1CBBP","A1UGD2VEVSML1U","36U4VBVNQOZD8NFWZXWF9CIHKRIURB","","null","<img src=""img/land1.png"" style=""width:200px;border:14px solid red;"">","null","","","","","","","","","",""
"","image-keyboard-response","162","102629","0.0-162.0","3P4MQ7TPPYYDI1NVUBYWTQHDL1CBBP","A1UGD2VEVSML1U","36U4VBVNQOZD8NFWZXWF9CIHKRIURB","","118.09999999403954","img/land6.png","74","119.09999999403954","1","0","2","1","0.8,0.2,0.2,0.2,0.8,0.2,0.2,0.2,0.8","0.8,0.2,0.2,0.2,0.8,0.2,0.2,0.2,0.8","1","",""
"","html-keyboard-response","163","102931","0.0-163.0","3P4MQ7TPPYYDI1NVUBYWTQHDL1CBBP","A1UGD2VEVSML1U","36U4VBVNQOZD8NFWZXWF9CIHKRIURB","","null","<img src=""img/land6.png"" style=""width:200px;border:14px solid red;"">","null","","","","","","","","","",""
"","image-keyboard-response","164","103989","0.0-164.0","3P4MQ7TPPYYDI1NVUBYWTQHDL1CBBP","A1UGD2VEVSML1U","36U4VBVNQOZD8NFWZXWF9CIHKRIURB","","1056.7999999821186","img/land6.png","75","1057.8999999761581","2","1","2","1","0.8,0.2,0.2,0.2,0.8,0.2,0.2,0.2,0.8","0.8,0.2,0.2,0.2,0.8,0.2,0.2,0.2,0.8","1","",""
"","html-keyboard-response","165","104291","0.0-165.0","3P4MQ7TPPYYDI1NVUBYWTQHDL1CBBP","A1UGD2VEVSML1U","36U4VBVNQOZD8NFWZXWF9CIHKRIURB","","null","<img src=""img/land6.png"" style=""width:200px; border:14px solid green;"">","null","","","","","","","","","",""
"","image-keyboard-response","166","105311","0.0-166.0","3P4MQ7TPPYYDI1NVUBYWTQHDL1CBBP","A1UGD2VEVSML1U","36U4VBVNQOZD8NFWZXWF9CIHKRIURB","","1019.1999999880791","img/land5.png","76","1019.9000000059605","3","1","3","1","0.8,0.2,0.2,0.2,0.8,0.2,0.2,0.2,0.8","0.8,0.2,0.2,0.2,0.8,0.2,0.2,0.2,0.8","1","",""
"","html-keyboard-response","167","105612","0.0-167.0","3P4MQ7TPPYYDI1NVUBYWTQHDL1CBBP","A1UGD2VEVSML1U","36U4VBVNQOZD8NFWZXWF9CIHKRIURB","","null","<img src=""img/land5.png"" style=""width:200px; border:14px solid green;"">","null","","","","","","","","","",""
"","image-keyboard-response","168","105879","0.0-168.0","3P4MQ7TPPYYDI1NVUBYWTQHDL1CBBP","A1UGD2VEVSML1U","36U4VBVNQOZD8NFWZXWF9CIHKRIURB","","265.30000001192093","img/land5.png","76","266.5","3","1","3","1","0.8,0.2,0.2,0.2,0.8,0.2,0.2,0.2,0.8","0.8,0.2,0.2,0.2,0.8,0.2,0.2,0.2,0.8","1","",""
"","html-keyboard-response","169","106182","0.0-169.0","3P4MQ7TPPYYDI1NVUBYWTQHDL1CBBP","A1UGD2VEVSML1U","36U4VBVNQOZD8NFWZXWF9CIHKRIURB","","null","<img src=""img/land5.png"" style=""width:200px; border:14px solid green;"">","null","","","","","","","","","",""
"","image-keyboard-response","170","106808","0.0-170.0","3P4MQ7TPPYYDI1NVUBYWTQHDL1CBBP","A1UGD2VEVSML1U","36U4VBVNQOZD8NFWZXWF9CIHKRIURB","","624.8000000119209","img/land6.png","75","626","2","0","2","1","0.8,0.2,0.2,0.2,0.8,0.2,0.2,0.2,0.8","0.8,0.2,0.2,0.2,0.8,0.2,0.2,0.2,0.8","1","",""
"","html-keyboard-response","171","107110","0.0-171.0","3P4MQ7TPPYYDI1NVUBYWTQHDL1CBBP","A1UGD2VEVSML1U","36U4VBVNQOZD8NFWZXWF9CIHKRIURB","","null","<img src=""img/land6.png"" style=""width:200px;border:14px solid red;"">","null","","","","","","","","","",""
"","image-keyboard-response","172","107782","0.0-172.0","3P4MQ7TPPYYDI1NVUBYWTQHDL1CBBP","A1UGD2VEVSML1U","36U4VBVNQOZD8NFWZXWF9CIHKRIURB","","670.5999999940395","img/land5.png","76","671.2999999821186","3","1","3","1","0.8,0.2,0.2,0.2,0.8,0.2,0.2,0.2,0.8","0.8,0.2,0.2,0.2,0.8,0.2,0.2,0.2,0.8","1","",""
"","html-keyboard-response","173","108084","0.0-173.0","3P4MQ7TPPYYDI1NVUBYWTQHDL1CBBP","A1UGD2VEVSML1U","36U4VBVNQOZD8NFWZXWF9CIHKRIURB","","null","<img src=""img/land5.png"" style=""width:200px; border:14px solid green;"">","null","","","","","","","","","",""
"","image-keyboard-response","174","108797","0.0-174.0","3P4MQ7TPPYYDI1NVUBYWTQHDL1CBBP","A1UGD2VEVSML1U","36U4VBVNQOZD8NFWZXWF9CIHKRIURB","","711.7999999821186","img/land6.png","75","712.5999999940395","2","1","2","1","0.8,0.2,0.2,0.2,0.8,0.2,0.2,0.2,0.8","0.8,0.2,0.2,0.2,0.8,0.2,0.2,0.2,0.8","1","",""
"","html-keyboard-response","175","109111","0.0-175.0","3P4MQ7TPPYYDI1NVUBYWTQHDL1CBBP","A1UGD2VEVSML1U","36U4VBVNQOZD8NFWZXWF9CIHKRIURB","","null","<img src=""img/land6.png"" style=""width:200px; border:14px solid green;"">","null","","","","","","","","","",""
"","image-keyboard-response","176","109381","0.0-176.0","3P4MQ7TPPYYDI1NVUBYWTQHDL1CBBP","A1UGD2VEVSML1U","36U4VBVNQOZD8NFWZXWF9CIHKRIURB","","269","img/land6.png","75","270","2","1","2","1","0.8,0.2,0.2,0.2,0.8,0.2,0.2,0.2,0.8","0.8,0.2,0.2,0.2,0.8,0.2,0.2,0.2,0.8","1","",""
"","html-keyboard-response","177","109682","0.0-177.0","3P4MQ7TPPYYDI1NVUBYWTQHDL1CBBP","A1UGD2VEVSML1U","36U4VBVNQOZD8NFWZXWF9CIHKRIURB","","null","<img src=""img/land6.png"" style=""width:200px; border:14px solid green;"">","null","","","","","","","","","",""
"","image-keyboard-response","178","110256","0.0-178.0","3P4MQ7TPPYYDI1NVUBYWTQHDL1CBBP","A1UGD2VEVSML1U","36U4VBVNQOZD8NFWZXWF9CIHKRIURB","","572.5","img/land1.png","74","574","1","1","1","1","0.8,0.2,0.2,0.2,0.8,0.2,0.2,0.2,0.8","0.8,0.2,0.2,0.2,0.8,0.2,0.2,0.2,0.8","1","",""
"","html-keyboard-response","179","110559","0.0-179.0","3P4MQ7TPPYYDI1NVUBYWTQHDL1CBBP","A1UGD2VEVSML1U","36U4VBVNQOZD8NFWZXWF9CIHKRIURB","","null","<img src=""img/land1.png"" style=""width:200px; border:14px solid green;"">","null","","","","","","","","","",""
"","image-keyboard-response","180","110797","0.0-180.0","3P4MQ7TPPYYDI1NVUBYWTQHDL1CBBP","A1UGD2VEVSML1U","36U4VBVNQOZD8NFWZXWF9CIHKRIURB","","236.80000001192093","img/land1.png","74","237.90000000596046","1","1","1","1","0.8,0.2,0.2,0.2,0.8,0.2,0.2,0.2,0.8","0.8,0.2,0.2,0.2,0.8,0.2,0.2,0.2,0.8","1","",""
"","html-keyboard-response","181","111099","0.0-181.0","3P4MQ7TPPYYDI1NVUBYWTQHDL1CBBP","A1UGD2VEVSML1U","36U4VBVNQOZD8NFWZXWF9CIHKRIURB","","null","<img src=""img/land1.png"" style=""width:200px; border:14px solid green;"">","null","","","","","","","","","",""
"","html-keyboard-response","182","116681","0.0-182.0","3P4MQ7TPPYYDI1NVUBYWTQHDL1CBBP","A1UGD2VEVSML1U","36U4VBVNQOZD8NFWZXWF9CIHKRIURB","","","","","","","","","","","","","",""
"","image-keyboard-response","183","117528","0.0-183.0","3P4MQ7TPPYYDI1NVUBYWTQHDL1CBBP","A1UGD2VEVSML1U","36U4VBVNQOZD8NFWZXWF9CIHKRIURB","","845.5","img/land3.png","74","846.5999999940395","1","1","1","2","0.8,0.2,0.2,0.2,0.8,0.2,0.2,0.2,0.8","0.2,0.2,0.8,0.8,0.2,0.2,0.2,0.8,0.2","2","",""
"","html-keyboard-response","184","117830","0.0-184.0","3P4MQ7TPPYYDI1NVUBYWTQHDL1CBBP","A1UGD2VEVSML1U","36U4VBVNQOZD8NFWZXWF9CIHKRIURB","","null","<img src=""img/land3.png"" style=""width:200px; border:14px solid green;"">","null","","","","","","","","","",""
"","image-keyboard-response","185","118157","0.0-185.0","3P4MQ7TPPYYDI1NVUBYWTQHDL1CBBP","A1UGD2VEVSML1U","36U4VBVNQOZD8NFWZXWF9CIHKRIURB","","326.2000000178814","img/land3.png","74","326.59999999403954","1","0","1","2","0.8,0.2,0.2,0.2,0.8,0.2,0.2,0.2,0.8","0.2,0.2,0.8,0.8,0.2,0.2,0.2,0.8,0.2","2","",""
"","html-keyboard-response","186","118459","0.0-186.0","3P4MQ7TPPYYDI1NVUBYWTQHDL1CBBP","A1UGD2VEVSML1U","36U4VBVNQOZD8NFWZXWF9CIHKRIURB","","null","<img src=""img/land3.png"" style=""width:200px;border:14px solid red;"">","null","","","","","","","","","",""
"","image-keyboard-response","187","118965","0.0-187.0","3P4MQ7TPPYYDI1NVUBYWTQHDL1CBBP","A1UGD2VEVSML1U","36U4VBVNQOZD8NFWZXWF9CIHKRIURB","","505","img/land3.png","74","506.10000002384186","1","0","1","2","0.8,0.2,0.2,0.2,0.8,0.2,0.2,0.2,0.8","0.2,0.2,0.8,0.8,0.2,0.2,0.2,0.8,0.2","2","",""
"","html-keyboard-response","188","119268","0.0-188.0","3P4MQ7TPPYYDI1NVUBYWTQHDL1CBBP","A1UGD2VEVSML1U","36U4VBVNQOZD8NFWZXWF9CIHKRIURB","","null","<img src=""img/land3.png"" style=""width:200px;border:14px solid red;"">","null","","","","","","","","","",""
"","image-keyboard-response","189","120039","0.0-189.0","3P4MQ7TPPYYDI1NVUBYWTQHDL1CBBP","A1UGD2VEVSML1U","36U4VBVNQOZD8NFWZXWF9CIHKRIURB","","770.5999999940395","img/land2.png","75","771.5","2","0","2","2","0.8,0.2,0.2,0.2,0.8,0.2,0.2,0.2,0.8","0.2,0.2,0.8,0.8,0.2,0.2,0.2,0.8,0.2","2","",""
"","html-keyboard-response","190","120343","0.0-190.0","3P4MQ7TPPYYDI1NVUBYWTQHDL1CBBP","A1UGD2VEVSML1U","36U4VBVNQOZD8NFWZXWF9CIHKRIURB","","null","<img src=""img/land2.png"" style=""width:200px;border:14px solid red;"">","null","","","","","","","","","",""
"","image-keyboard-response","191","121069","0.0-191.0","3P4MQ7TPPYYDI1NVUBYWTQHDL1CBBP","A1UGD2VEVSML1U","36U4VBVNQOZD8NFWZXWF9CIHKRIURB","","724.9000000059605","img/land4.png","76","726.0999999940395","3","1","3","2","0.8,0.2,0.2,0.2,0.8,0.2,0.2,0.2,0.8","0.2,0.2,0.8,0.8,0.2,0.2,0.2,0.8,0.2","2","",""
"","html-keyboard-response","192","121371","0.0-192.0","3P4MQ7TPPYYDI1NVUBYWTQHDL1CBBP","A1UGD2VEVSML1U","36U4VBVNQOZD8NFWZXWF9CIHKRIURB","","null","<img src=""img/land4.png"" style=""width:200px; border:14px solid green;"">","null","","","","","","","","","",""
"","image-keyboard-response","193","122319","0.0-193.0","3P4MQ7TPPYYDI1NVUBYWTQHDL1CBBP","A1UGD2VEVSML1U","36U4VBVNQOZD8NFWZXWF9CIHKRIURB","","946","img/land2.png","75","947.3000000119209","2","0","2","2","0.8,0.2,0.2,0.2,0.8,0.2,0.2,0.2,0.8","0.2,0.2,0.8,0.8,0.2,0.2,0.2,0.8,0.2","2","",""
"","html-keyboard-response","194","122622","0.0-194.0","3P4MQ7TPPYYDI1NVUBYWTQHDL1CBBP","A1UGD2VEVSML1U","36U4VBVNQOZD8NFWZXWF9CIHKRIURB","","null","<img src=""img/land2.png"" style=""width:200px;border:14px solid red;"">","null","","","","","","","","","",""
"","image-keyboard-response","195","123187","0.0-195.0","3P4MQ7TPPYYDI1NVUBYWTQHDL1CBBP","A1UGD2VEVSML1U","36U4VBVNQOZD8NFWZXWF9CIHKRIURB","","564.8000000119209","img/land3.png","74","565.2000000178814","1","0","1","2","0.8,0.2,0.2,0.2,0.8,0.2,0.2,0.2,0.8","0.2,0.2,0.8,0.8,0.2,0.2,0.2,0.8,0.2","2","",""
"","html-keyboard-response","196","123489","0.0-196.0","3P4MQ7TPPYYDI1NVUBYWTQHDL1CBBP","A1UGD2VEVSML1U","36U4VBVNQOZD8NFWZXWF9CIHKRIURB","","null","<img src=""img/land3.png"" style=""width:200px;border:14px solid red;"">","null","","","","","","","","","",""
"","image-keyboard-response","197","123813","0.0-197.0","3P4MQ7TPPYYDI1NVUBYWTQHDL1CBBP","A1UGD2VEVSML1U","36U4VBVNQOZD8NFWZXWF9CIHKRIURB","","323.2000000178814","img/land3.png","76","323.59999999403954","3","1","1","2","0.8,0.2,0.2,0.2,0.8,0.2,0.2,0.2,0.8","0.2,0.2,0.8,0.8,0.2,0.2,0.2,0.8,0.2","2","",""
"","html-keyboard-response","198","124114","0.0-198.0","3P4MQ7TPPYYDI1NVUBYWTQHDL1CBBP","A1UGD2VEVSML1U","36U4VBVNQOZD8NFWZXWF9CIHKRIURB","","null","<img src=""img/land3.png"" style=""width:200px; border:14px solid green;"">","null","","","","","","","","","",""
"","image-keyboard-response","199","124743","0.0-199.0","3P4MQ7TPPYYDI1NVUBYWTQHDL1CBBP","A1UGD2VEVSML1U","36U4VBVNQOZD8NFWZXWF9CIHKRIURB","","627.7000000178814","img/land2.png","76","628.3999999761581","3","0","2","2","0.8,0.2,0.2,0.2,0.8,0.2,0.2,0.2,0.8","0.2,0.2,0.8,0.8,0.2,0.2,0.2,0.8,0.2","2","",""
"","html-keyboard-response","200","125045","0.0-200.0","3P4MQ7TPPYYDI1NVUBYWTQHDL1CBBP","A1UGD2VEVSML1U","36U4VBVNQOZD8NFWZXWF9CIHKRIURB","","null","<img src=""img/land2.png"" style=""width:200px;border:14px solid red;"">","null","","","","","","","","","",""
"","image-keyboard-response","201","125111","0.0-201.0","3P4MQ7TPPYYDI1NVUBYWTQHDL1CBBP","A1UGD2VEVSML1U","36U4VBVNQOZD8NFWZXWF9CIHKRIURB","","65.2999999821186","img/land3.png","75","66.09999999403954","2","0","1","2","0.8,0.2,0.2,0.2,0.8,0.2,0.2,0.2,0.8","0.2,0.2,0.8,0.8,0.2,0.2,0.2,0.8,0.2","2","",""
"","html-keyboard-response","202","125413","0.0-202.0","3P4MQ7TPPYYDI1NVUBYWTQHDL1CBBP","A1UGD2VEVSML1U","36U4VBVNQOZD8NFWZXWF9CIHKRIURB","","null","<img src=""img/land3.png"" style=""width:200px;border:14px solid red;"">","null","","","","","","","","","",""
"","image-keyboard-response","203","125685","0.0-203.0","3P4MQ7TPPYYDI1NVUBYWTQHDL1CBBP","A1UGD2VEVSML1U","36U4VBVNQOZD8NFWZXWF9CIHKRIURB","","270.30000001192093","img/land4.png","74","271.5","1","0","3","2","0.8,0.2,0.2,0.2,0.8,0.2,0.2,0.2,0.8","0.2,0.2,0.8,0.8,0.2,0.2,0.2,0.8,0.2","2","",""
"","html-keyboard-response","204","125986","0.0-204.0","3P4MQ7TPPYYDI1NVUBYWTQHDL1CBBP","A1UGD2VEVSML1U","36U4VBVNQOZD8NFWZXWF9CIHKRIURB","","null","<img src=""img/land4.png"" style=""width:200px;border:14px solid red;"">","null","","","","","","","","","",""
"","image-keyboard-response","205","126669","0.0-205.0","3P4MQ7TPPYYDI1NVUBYWTQHDL1CBBP","A1UGD2VEVSML1U","36U4VBVNQOZD8NFWZXWF9CIHKRIURB","","681.1999999880791","img/land3.png","75","682.5","2","0","1","2","0.8,0.2,0.2,0.2,0.8,0.2,0.2,0.2,0.8","0.2,0.2,0.8,0.8,0.2,0.2,0.2,0.8,0.2","2","",""
"","html-keyboard-response","206","126971","0.0-206.0","3P4MQ7TPPYYDI1NVUBYWTQHDL1CBBP","A1UGD2VEVSML1U","36U4VBVNQOZD8NFWZXWF9CIHKRIURB","","null","<img src=""img/land3.png"" style=""width:200px;border:14px solid red;"">","null","","","","","","","","","",""
"","image-keyboard-response","207","127261","0.0-207.0","3P4MQ7TPPYYDI1NVUBYWTQHDL1CBBP","A1UGD2VEVSML1U","36U4VBVNQOZD8NFWZXWF9CIHKRIURB","","289","img/land3.png","76","290.09999999403954","3","1","1","2","0.8,0.2,0.2,0.2,0.8,0.2,0.2,0.2,0.8","0.2,0.2,0.8,0.8,0.2,0.2,0.2,0.8,0.2","2","",""
"","html-keyboard-response","208","127563","0.0-208.0","3P4MQ7TPPYYDI1NVUBYWTQHDL1CBBP","A1UGD2VEVSML1U","36U4VBVNQOZD8NFWZXWF9CIHKRIURB","","null","<img src=""img/land3.png"" style=""width:200px; border:14px solid green;"">","null","","","","","","","","","",""
"","image-keyboard-response","209","128781","0.0-209.0","3P4MQ7TPPYYDI1NVUBYWTQHDL1CBBP","A1UGD2VEVSML1U","36U4VBVNQOZD8NFWZXWF9CIHKRIURB","","1216.4000000059605","img/land2.png","74","1217.5999999940395","1","1","2","2","0.8,0.2,0.2,0.2,0.8,0.2,0.2,0.2,0.8","0.2,0.2,0.8,0.8,0.2,0.2,0.2,0.8,0.2","2","",""
"","html-keyboard-response","210","129095","0.0-210.0","3P4MQ7TPPYYDI1NVUBYWTQHDL1CBBP","A1UGD2VEVSML1U","36U4VBVNQOZD8NFWZXWF9CIHKRIURB","","null","<img src=""img/land2.png"" style=""width:200px; border:14px solid green;"">","null","","","","","","","","","",""
"","image-keyboard-response","211","129605","0.0-211.0","3P4MQ7TPPYYDI1NVUBYWTQHDL1CBBP","A1UGD2VEVSML1U","36U4VBVNQOZD8NFWZXWF9CIHKRIURB","","509","img/land3.png","76","510.2999999821186","3","1","1","2","0.8,0.2,0.2,0.2,0.8,0.2,0.2,0.2,0.8","0.2,0.2,0.8,0.8,0.2,0.2,0.2,0.8,0.2","2","",""
"","html-keyboard-response","212","129907","0.0-212.0","3P4MQ7TPPYYDI1NVUBYWTQHDL1CBBP","A1UGD2VEVSML1U","36U4VBVNQOZD8NFWZXWF9CIHKRIURB","","null","<img src=""img/land3.png"" style=""width:200px; border:14px solid green;"">","null","","","","","","","","","",""
"","image-keyboard-response","213","130598","0.0-213.0","3P4MQ7TPPYYDI1NVUBYWTQHDL1CBBP","A1UGD2VEVSML1U","36U4VBVNQOZD8NFWZXWF9CIHKRIURB","","689.6999999880791","img/land4.png","75","690.9000000059605","2","1","3","2","0.8,0.2,0.2,0.2,0.8,0.2,0.2,0.2,0.8","0.2,0.2,0.8,0.8,0.2,0.2,0.2,0.8,0.2","2","",""
"","html-keyboard-response","214","130900","0.0-214.0","3P4MQ7TPPYYDI1NVUBYWTQHDL1CBBP","A1UGD2VEVSML1U","36U4VBVNQOZD8NFWZXWF9CIHKRIURB","","null","<img src=""img/land4.png"" style=""width:200px; border:14px solid green;"">","null","","","","","","","","","",""
"","image-keyboard-response","215","132117","0.0-215.0","3P4MQ7TPPYYDI1NVUBYWTQHDL1CBBP","A1UGD2VEVSML1U","36U4VBVNQOZD8NFWZXWF9CIHKRIURB","","1216.800000011921","img/land2.png","76","1217.199999988079","3","0","2","2","0.8,0.2,0.2,0.2,0.8,0.2,0.2,0.2,0.8","0.2,0.2,0.8,0.8,0.2,0.2,0.2,0.8,0.2","2","",""
"","html-keyboard-response","216","132419","0.0-216.0","3P4MQ7TPPYYDI1NVUBYWTQHDL1CBBP","A1UGD2VEVSML1U","36U4VBVNQOZD8NFWZXWF9CIHKRIURB","","null","<img src=""img/land2.png"" style=""width:200px;border:14px solid red;"">","null","","","","","","","","","",""
"","image-keyboard-response","217","133215","0.0-217.0","3P4MQ7TPPYYDI1NVUBYWTQHDL1CBBP","A1UGD2VEVSML1U","36U4VBVNQOZD8NFWZXWF9CIHKRIURB","","794.5999999940395","img/land3.png","76","796","3","1","1","2","0.8,0.2,0.2,0.2,0.8,0.2,0.2,0.2,0.8","0.2,0.2,0.8,0.8,0.2,0.2,0.2,0.8,0.2","2","",""
"","html-keyboard-response","218","133517","0.0-218.0","3P4MQ7TPPYYDI1NVUBYWTQHDL1CBBP","A1UGD2VEVSML1U","36U4VBVNQOZD8NFWZXWF9CIHKRIURB","","null","<img src=""img/land3.png"" style=""width:200px; border:14px solid green;"">","null","","","","","","","","","",""
"","image-keyboard-response","219","133901","0.0-219.0","3P4MQ7TPPYYDI1NVUBYWTQHDL1CBBP","A1UGD2VEVSML1U","36U4VBVNQOZD8NFWZXWF9CIHKRIURB","","383","img/land3.png","76","383.5","3","1","1","2","0.8,0.2,0.2,0.2,0.8,0.2,0.2,0.2,0.8","0.2,0.2,0.8,0.8,0.2,0.2,0.2,0.8,0.2","2","",""
"","html-keyboard-response","220","134203","0.0-220.0","3P4MQ7TPPYYDI1NVUBYWTQHDL1CBBP","A1UGD2VEVSML1U","36U4VBVNQOZD8NFWZXWF9CIHKRIURB","","null","<img src=""img/land3.png"" style=""width:200px; border:14px solid green;"">","null","","","","","","","","","",""
"","image-keyboard-response","221","134493","0.0-221.0","3P4MQ7TPPYYDI1NVUBYWTQHDL1CBBP","A1UGD2VEVSML1U","36U4VBVNQOZD8NFWZXWF9CIHKRIURB","","288.5","img/land3.png","76","289.80000001192093","3","0","1","2","0.8,0.2,0.2,0.2,0.8,0.2,0.2,0.2,0.8","0.2,0.2,0.8,0.8,0.2,0.2,0.2,0.8,0.2","2","",""
"","html-keyboard-response","222","134794","0.0-222.0","3P4MQ7TPPYYDI1NVUBYWTQHDL1CBBP","A1UGD2VEVSML1U","36U4VBVNQOZD8NFWZXWF9CIHKRIURB","","null","<img src=""img/land3.png"" style=""width:200px;border:14px solid red;"">","null","","","","","","","","","",""
"","image-keyboard-response","223","135178","0.0-223.0","3P4MQ7TPPYYDI1NVUBYWTQHDL1CBBP","A1UGD2VEVSML1U","36U4VBVNQOZD8NFWZXWF9CIHKRIURB","","382.60000002384186","img/land3.png","76","383.40000000596046","3","1","1","2","0.8,0.2,0.2,0.2,0.8,0.2,0.2,0.2,0.8","0.2,0.2,0.8,0.8,0.2,0.2,0.2,0.8,0.2","2","",""
"","html-keyboard-response","224","135480","0.0-224.0","3P4MQ7TPPYYDI1NVUBYWTQHDL1CBBP","A1UGD2VEVSML1U","36U4VBVNQOZD8NFWZXWF9CIHKRIURB","","null","<img src=""img/land3.png"" style=""width:200px; border:14px solid green;"">","null","","","","","","","","","",""
"","image-keyboard-response","225","136149","0.0-225.0","3P4MQ7TPPYYDI1NVUBYWTQHDL1CBBP","A1UGD2VEVSML1U","36U4VBVNQOZD8NFWZXWF9CIHKRIURB","","668","img/land2.png","74","668.7000000178814","1","1","2","2","0.8,0.2,0.2,0.2,0.8,0.2,0.2,0.2,0.8","0.2,0.2,0.8,0.8,0.2,0.2,0.2,0.8,0.2","2","",""
"","html-keyboard-response","226","136451","0.0-226.0","3P4MQ7TPPYYDI1NVUBYWTQHDL1CBBP","A1UGD2VEVSML1U","36U4VBVNQOZD8NFWZXWF9CIHKRIURB","","null","<img src=""img/land2.png"" style=""width:200px; border:14px solid green;"">","null","","","","","","","","","",""
"","image-keyboard-response","227","136999","0.0-227.0","3P4MQ7TPPYYDI1NVUBYWTQHDL1CBBP","A1UGD2VEVSML1U","36U4VBVNQOZD8NFWZXWF9CIHKRIURB","","547.3000000119209","img/land3.png","76","547.9000000059605","3","0","1","2","0.8,0.2,0.2,0.2,0.8,0.2,0.2,0.2,0.8","0.2,0.2,0.8,0.8,0.2,0.2,0.2,0.8,0.2","2","",""
"","html-keyboard-response","228","137307","0.0-228.0","3P4MQ7TPPYYDI1NVUBYWTQHDL1CBBP","A1UGD2VEVSML1U","36U4VBVNQOZD8NFWZXWF9CIHKRIURB","","null","<img src=""img/land3.png"" style=""width:200px;border:14px solid red;"">","null","","","","","","","","","",""
"","image-keyboard-response","229","137391","0.0-229.0","3P4MQ7TPPYYDI1NVUBYWTQHDL1CBBP","A1UGD2VEVSML1U","36U4VBVNQOZD8NFWZXWF9CIHKRIURB","","82.80000001192093","img/land3.png","76","83.7999999821186","3","1","1","2","0.8,0.2,0.2,0.2,0.8,0.2,0.2,0.2,0.8","0.2,0.2,0.8,0.8,0.2,0.2,0.2,0.8,0.2","2","",""
"","html-keyboard-response","230","137692","0.0-230.0","3P4MQ7TPPYYDI1NVUBYWTQHDL1CBBP","A1UGD2VEVSML1U","36U4VBVNQOZD8NFWZXWF9CIHKRIURB","","null","<img src=""img/land3.png"" style=""width:200px; border:14px solid green;"">","null","","","","","","","","","",""
"","image-keyboard-response","231","138319","0.0-231.0","3P4MQ7TPPYYDI1NVUBYWTQHDL1CBBP","A1UGD2VEVSML1U","36U4VBVNQOZD8NFWZXWF9CIHKRIURB","","625.6999999880791","img/land4.png","75","627.0999999940395","2","1","3","2","0.8,0.2,0.2,0.2,0.8,0.2,0.2,0.2,0.8","0.2,0.2,0.8,0.8,0.2,0.2,0.2,0.8,0.2","2","",""
"","html-keyboard-response","232","138621","0.0-232.0","3P4MQ7TPPYYDI1NVUBYWTQHDL1CBBP","A1UGD2VEVSML1U","36U4VBVNQOZD8NFWZXWF9CIHKRIURB","","null","<img src=""img/land4.png"" style=""width:200px; border:14px solid green;"">","null","","","","","","","","","",""
"","image-keyboard-response","233","138909","0.0-233.0","3P4MQ7TPPYYDI1NVUBYWTQHDL1CBBP","A1UGD2VEVSML1U","36U4VBVNQOZD8NFWZXWF9CIHKRIURB","","286.59999999403954","img/land4.png","75","287.7999999821186","2","1","3","2","0.8,0.2,0.2,0.2,0.8,0.2,0.2,0.2,0.8","0.2,0.2,0.8,0.8,0.2,0.2,0.2,0.8,0.2","2","",""
"","html-keyboard-response","234","139211","0.0-234.0","3P4MQ7TPPYYDI1NVUBYWTQHDL1CBBP","A1UGD2VEVSML1U","36U4VBVNQOZD8NFWZXWF9CIHKRIURB","","null","<img src=""img/land4.png"" style=""width:200px; border:14px solid green;"">","null","","","","","","","","","",""
"","image-keyboard-response","235","139494","0.0-235.0","3P4MQ7TPPYYDI1NVUBYWTQHDL1CBBP","A1UGD2VEVSML1U","36U4VBVNQOZD8NFWZXWF9CIHKRIURB","","283.2999999821186","img/land4.png","75","284","2","1","3","2","0.8,0.2,0.2,0.2,0.8,0.2,0.2,0.2,0.8","0.2,0.2,0.8,0.8,0.2,0.2,0.2,0.8,0.2","2","",""
"","html-keyboard-response","236","139798","0.0-236.0","3P4MQ7TPPYYDI1NVUBYWTQHDL1CBBP","A1UGD2VEVSML1U","36U4VBVNQOZD8NFWZXWF9CIHKRIURB","","null","<img src=""img/land4.png"" style=""width:200px; border:14px solid green;"">","null","","","","","","","","","",""
"","image-keyboard-response","237","140360","0.0-237.0","3P4MQ7TPPYYDI1NVUBYWTQHDL1CBBP","A1UGD2VEVSML1U","36U4VBVNQOZD8NFWZXWF9CIHKRIURB","","560","img/land3.png","76","561.5","3","1","1","2","0.8,0.2,0.2,0.2,0.8,0.2,0.2,0.2,0.8","0.2,0.2,0.8,0.8,0.2,0.2,0.2,0.8,0.2","2","",""
"","html-keyboard-response","238","140662","0.0-238.0","3P4MQ7TPPYYDI1NVUBYWTQHDL1CBBP","A1UGD2VEVSML1U","36U4VBVNQOZD8NFWZXWF9CIHKRIURB","","null","<img src=""img/land3.png"" style=""width:200px; border:14px solid green;"">","null","","","","","","","","","",""
"","image-keyboard-response","239","141432","0.0-239.0","3P4MQ7TPPYYDI1NVUBYWTQHDL1CBBP","A1UGD2VEVSML1U","36U4VBVNQOZD8NFWZXWF9CIHKRIURB","","769.4000000059605","img/land4.png","75","770.1000000238419","2","1","3","2","0.8,0.2,0.2,0.2,0.8,0.2,0.2,0.2,0.8","0.2,0.2,0.8,0.8,0.2,0.2,0.2,0.8,0.2","2","",""
"","html-keyboard-response","240","141735","0.0-240.0","3P4MQ7TPPYYDI1NVUBYWTQHDL1CBBP","A1UGD2VEVSML1U","36U4VBVNQOZD8NFWZXWF9CIHKRIURB","","null","<img src=""img/land4.png"" style=""width:200px; border:14px solid green;"">","null","","","","","","","","","",""
"","image-keyboard-response","241","142269","0.0-241.0","3P4MQ7TPPYYDI1NVUBYWTQHDL1CBBP","A1UGD2VEVSML1U","36U4VBVNQOZD8NFWZXWF9CIHKRIURB","","532.7000000178814","img/land3.png","76","534.0999999940395","3","0","1","2","0.8,0.2,0.2,0.2,0.8,0.2,0.2,0.2,0.8","0.2,0.2,0.8,0.8,0.2,0.2,0.2,0.8,0.2","2","",""
"","html-keyboard-response","242","142571","0.0-242.0","3P4MQ7TPPYYDI1NVUBYWTQHDL1CBBP","A1UGD2VEVSML1U","36U4VBVNQOZD8NFWZXWF9CIHKRIURB","","null","<img src=""img/land3.png"" style=""width:200px;border:14px solid red;"">","null","","","","","","","","","",""
"","image-keyboard-response","243","142951","0.0-243.0","3P4MQ7TPPYYDI1NVUBYWTQHDL1CBBP","A1UGD2VEVSML1U","36U4VBVNQOZD8NFWZXWF9CIHKRIURB","","379.69999998807907","img/land3.png","76","380.40000000596046","3","1","1","2","0.8,0.2,0.2,0.2,0.8,0.2,0.2,0.2,0.8","0.2,0.2,0.8,0.8,0.2,0.2,0.2,0.8,0.2","2","",""
"","html-keyboard-response","244","143254","0.0-244.0","3P4MQ7TPPYYDI1NVUBYWTQHDL1CBBP","A1UGD2VEVSML1U","36U4VBVNQOZD8NFWZXWF9CIHKRIURB","","null","<img src=""img/land3.png"" style=""width:200px; border:14px solid green;"">","null","","","","","","","","","",""
"","image-keyboard-response","245","143669","0.0-245.0","3P4MQ7TPPYYDI1NVUBYWTQHDL1CBBP","A1UGD2VEVSML1U","36U4VBVNQOZD8NFWZXWF9CIHKRIURB","","414.40000000596046","img/land3.png","76","414.90000000596046","3","1","1","2","0.8,0.2,0.2,0.2,0.8,0.2,0.2,0.2,0.8","0.2,0.2,0.8,0.8,0.2,0.2,0.2,0.8,0.2","2","",""
"","html-keyboard-response","246","143970","0.0-246.0","3P4MQ7TPPYYDI1NVUBYWTQHDL1CBBP","A1UGD2VEVSML1U","36U4VBVNQOZD8NFWZXWF9CIHKRIURB","","null","<img src=""img/land3.png"" style=""width:200px; border:14px solid green;"">","null","","","","","","","","","",""
"","image-keyboard-response","247","145114","0.0-247.0","3P4MQ7TPPYYDI1NVUBYWTQHDL1CBBP","A1UGD2VEVSML1U","36U4VBVNQOZD8NFWZXWF9CIHKRIURB","","1142","img/land4.png","74","1143.199999988079","1","1","3","2","0.8,0.2,0.2,0.2,0.8,0.2,0.2,0.2,0.8","0.2,0.2,0.8,0.8,0.2,0.2,0.2,0.8,0.2","2","",""
"","html-keyboard-response","248","145416","0.0-248.0","3P4MQ7TPPYYDI1NVUBYWTQHDL1CBBP","A1UGD2VEVSML1U","36U4VBVNQOZD8NFWZXWF9CIHKRIURB","","null","<img src=""img/land4.png"" style=""width:200px; border:14px solid green;"">","null","","","","","","","","","",""
"","image-keyboard-response","249","145911","0.0-249.0","3P4MQ7TPPYYDI1NVUBYWTQHDL1CBBP","A1UGD2VEVSML1U","36U4VBVNQOZD8NFWZXWF9CIHKRIURB","","493.2000000178814","img/land3.png","76","494.7999999821186","3","1","1","2","0.8,0.2,0.2,0.2,0.8,0.2,0.2,0.2,0.8","0.2,0.2,0.8,0.8,0.2,0.2,0.2,0.8,0.2","2","",""
"","html-keyboard-response","250","146214","0.0-250.0","3P4MQ7TPPYYDI1NVUBYWTQHDL1CBBP","A1UGD2VEVSML1U","36U4VBVNQOZD8NFWZXWF9CIHKRIURB","","null","<img src=""img/land3.png"" style=""width:200px; border:14px solid green;"">","null","","","","","","","","","",""
"","image-keyboard-response","251","146493","0.0-251.0","3P4MQ7TPPYYDI1NVUBYWTQHDL1CBBP","A1UGD2VEVSML1U","36U4VBVNQOZD8NFWZXWF9CIHKRIURB","","278.2000000178814","img/land3.png","76","279","3","1","1","2","0.8,0.2,0.2,0.2,0.8,0.2,0.2,0.2,0.8","0.2,0.2,0.8,0.8,0.2,0.2,0.2,0.8,0.2","2","",""
"","html-keyboard-response","252","146795","0.0-252.0","3P4MQ7TPPYYDI1NVUBYWTQHDL1CBBP","A1UGD2VEVSML1U","36U4VBVNQOZD8NFWZXWF9CIHKRIURB","","null","<img src=""img/land3.png"" style=""width:200px; border:14px solid green;"">","null","","","","","","","","","",""
"","image-keyboard-response","253","147757","0.0-253.0","3P4MQ7TPPYYDI1NVUBYWTQHDL1CBBP","A1UGD2VEVSML1U","36U4VBVNQOZD8NFWZXWF9CIHKRIURB","","961.4000000059605","img/land2.png","75","962","2","0","2","2","0.8,0.2,0.2,0.2,0.8,0.2,0.2,0.2,0.8","0.2,0.2,0.8,0.8,0.2,0.2,0.2,0.8,0.2","2","",""
"","html-keyboard-response","254","148061","0.0-254.0","3P4MQ7TPPYYDI1NVUBYWTQHDL1CBBP","A1UGD2VEVSML1U","36U4VBVNQOZD8NFWZXWF9CIHKRIURB","","null","<img src=""img/land2.png"" style=""width:200px;border:14px solid red;"">","null","","","","","","","","","",""
"","image-keyboard-response","255","148695","0.0-255.0","3P4MQ7TPPYYDI1NVUBYWTQHDL1CBBP","A1UGD2VEVSML1U","36U4VBVNQOZD8NFWZXWF9CIHKRIURB","","631.5999999940395","img/land3.png","76","632.7999999821186","3","1","1","2","0.8,0.2,0.2,0.2,0.8,0.2,0.2,0.2,0.8","0.2,0.2,0.8,0.8,0.2,0.2,0.2,0.8,0.2","2","",""
"","html-keyboard-response","256","149012","0.0-256.0","3P4MQ7TPPYYDI1NVUBYWTQHDL1CBBP","A1UGD2VEVSML1U","36U4VBVNQOZD8NFWZXWF9CIHKRIURB","","null","<img src=""img/land3.png"" style=""width:200px; border:14px solid green;"">","null","","","","","","","","","",""
"","image-keyboard-response","257","149285","0.0-257.0","3P4MQ7TPPYYDI1NVUBYWTQHDL1CBBP","A1UGD2VEVSML1U","36U4VBVNQOZD8NFWZXWF9CIHKRIURB","","271.69999998807907","img/land3.png","76","273","3","0","1","2","0.8,0.2,0.2,0.2,0.8,0.2,0.2,0.2,0.8","0.2,0.2,0.8,0.8,0.2,0.2,0.2,0.8,0.2","2","",""
"","html-keyboard-response","258","149586","0.0-258.0","3P4MQ7TPPYYDI1NVUBYWTQHDL1CBBP","A1UGD2VEVSML1U","36U4VBVNQOZD8NFWZXWF9CIHKRIURB","","null","<img src=""img/land3.png"" style=""width:200px;border:14px solid red;"">","null","","","","","","","","","",""
"","image-keyboard-response","259","149781","0.0-259.0","3P4MQ7TPPYYDI1NVUBYWTQHDL1CBBP","A1UGD2VEVSML1U","36U4VBVNQOZD8NFWZXWF9CIHKRIURB","","193.30000001192093","img/land2.png","76","194.5","3","1","2","2","0.8,0.2,0.2,0.2,0.8,0.2,0.2,0.2,0.8","0.2,0.2,0.8,0.8,0.2,0.2,0.2,0.8,0.2","2","",""
"","html-keyboard-response","260","150083","0.0-260.0","3P4MQ7TPPYYDI1NVUBYWTQHDL1CBBP","A1UGD2VEVSML1U","36U4VBVNQOZD8NFWZXWF9CIHKRIURB","","null","<img src=""img/land2.png"" style=""width:200px; border:14px solid green;"">","null","","","","","","","","","",""
"","image-keyboard-response","261","150789","0.0-261.0","3P4MQ7TPPYYDI1NVUBYWTQHDL1CBBP","A1UGD2VEVSML1U","36U4VBVNQOZD8NFWZXWF9CIHKRIURB","","705","img/land3.png","76","706","3","1","1","2","0.8,0.2,0.2,0.2,0.8,0.2,0.2,0.2,0.8","0.2,0.2,0.8,0.8,0.2,0.2,0.2,0.8,0.2","2","",""
"","html-keyboard-response","262","151090","0.0-262.0","3P4MQ7TPPYYDI1NVUBYWTQHDL1CBBP","A1UGD2VEVSML1U","36U4VBVNQOZD8NFWZXWF9CIHKRIURB","","null","<img src=""img/land3.png"" style=""width:200px; border:14px solid green;"">","null","","","","","","","","","",""
"","image-keyboard-response","263","151935","0.0-263.0","3P4MQ7TPPYYDI1NVUBYWTQHDL1CBBP","A1UGD2VEVSML1U","36U4VBVNQOZD8NFWZXWF9CIHKRIURB","","843.9000000059605","img/land4.png","74","844.5999999940395","1","0","3","2","0.8,0.2,0.2,0.2,0.8,0.2,0.2,0.2,0.8","0.2,0.2,0.8,0.8,0.2,0.2,0.2,0.8,0.2","2","",""
"","html-keyboard-response","264","152245","0.0-264.0","3P4MQ7TPPYYDI1NVUBYWTQHDL1CBBP","A1UGD2VEVSML1U","36U4VBVNQOZD8NFWZXWF9CIHKRIURB","","null","<img src=""img/land4.png"" style=""width:200px;border:14px solid red;"">","null","","","","","","","","","",""
"","image-keyboard-response","265","152741","0.0-265.0","3P4MQ7TPPYYDI1NVUBYWTQHDL1CBBP","A1UGD2VEVSML1U","36U4VBVNQOZD8NFWZXWF9CIHKRIURB","","494","img/land3.png","76","495.09999999403954","3","0","1","2","0.8,0.2,0.2,0.2,0.8,0.2,0.2,0.2,0.8","0.2,0.2,0.8,0.8,0.2,0.2,0.2,0.8,0.2","2","",""
"","html-keyboard-response","266","153043","0.0-266.0","3P4MQ7TPPYYDI1NVUBYWTQHDL1CBBP","A1UGD2VEVSML1U","36U4VBVNQOZD8NFWZXWF9CIHKRIURB","","null","<img src=""img/land3.png"" style=""width:200px;border:14px solid red;"">","null","","","","","","","","","",""
"","image-keyboard-response","267","153223","0.0-267.0","3P4MQ7TPPYYDI1NVUBYWTQHDL1CBBP","A1UGD2VEVSML1U","36U4VBVNQOZD8NFWZXWF9CIHKRIURB","","179.2999999821186","img/land2.png","76","179.90000000596046","3","0","2","2","0.8,0.2,0.2,0.2,0.8,0.2,0.2,0.2,0.8","0.2,0.2,0.8,0.8,0.2,0.2,0.2,0.8,0.2","2","",""
"","html-keyboard-response","268","153525","0.0-268.0","3P4MQ7TPPYYDI1NVUBYWTQHDL1CBBP","A1UGD2VEVSML1U","36U4VBVNQOZD8NFWZXWF9CIHKRIURB","","null","<img src=""img/land2.png"" style=""width:200px;border:14px solid red;"">","null","","","","","","","","","",""
"","image-keyboard-response","269","153989","0.0-269.0","3P4MQ7TPPYYDI1NVUBYWTQHDL1CBBP","A1UGD2VEVSML1U","36U4VBVNQOZD8NFWZXWF9CIHKRIURB","","462.69999998807907","img/land2.png","75","463.2999999821186","2","1","2","2","0.8,0.2,0.2,0.2,0.8,0.2,0.2,0.2,0.8","0.2,0.2,0.8,0.8,0.2,0.2,0.2,0.8,0.2","2","",""
"","html-keyboard-response","270","154290","0.0-270.0","3P4MQ7TPPYYDI1NVUBYWTQHDL1CBBP","A1UGD2VEVSML1U","36U4VBVNQOZD8NFWZXWF9CIHKRIURB","","null","<img src=""img/land2.png"" style=""width:200px; border:14px solid green;"">","null","","","","","","","","","",""
"","image-keyboard-response","271","154630","0.0-271.0","3P4MQ7TPPYYDI1NVUBYWTQHDL1CBBP","A1UGD2VEVSML1U","36U4VBVNQOZD8NFWZXWF9CIHKRIURB","","339.40000000596046","img/land2.png","75","340","2","0","2","2","0.8,0.2,0.2,0.2,0.8,0.2,0.2,0.2,0.8","0.2,0.2,0.8,0.8,0.2,0.2,0.2,0.8,0.2","2","",""
"","html-keyboard-response","272","154933","0.0-272.0","3P4MQ7TPPYYDI1NVUBYWTQHDL1CBBP","A1UGD2VEVSML1U","36U4VBVNQOZD8NFWZXWF9CIHKRIURB","","null","<img src=""img/land2.png"" style=""width:200px;border:14px solid red;"">","null","","","","","","","","","",""
"","image-keyboard-response","273","155774","0.0-273.0","3P4MQ7TPPYYDI1NVUBYWTQHDL1CBBP","A1UGD2VEVSML1U","36U4VBVNQOZD8NFWZXWF9CIHKRIURB","","839.5","img/land4.png","74","840.7000000178814","1","0","3","2","0.8,0.2,0.2,0.2,0.8,0.2,0.2,0.2,0.8","0.2,0.2,0.8,0.8,0.2,0.2,0.2,0.8,0.2","2","",""
"","html-keyboard-response","274","156088","0.0-274.0","3P4MQ7TPPYYDI1NVUBYWTQHDL1CBBP","A1UGD2VEVSML1U","36U4VBVNQOZD8NFWZXWF9CIHKRIURB","","null","<img src=""img/land4.png"" style=""width:200px;border:14px solid red;"">","null","","","","","","","","","",""
"","image-keyboard-response","275","156191","0.0-275.0","3P4MQ7TPPYYDI1NVUBYWTQHDL1CBBP","A1UGD2VEVSML1U","36U4VBVNQOZD8NFWZXWF9CIHKRIURB","","101.60000002384186","img/land2.png","76","102.7999999821186","3","0","2","2","0.8,0.2,0.2,0.2,0.8,0.2,0.2,0.2,0.8","0.2,0.2,0.8,0.8,0.2,0.2,0.2,0.8,0.2","2","",""
"","html-keyboard-response","276","156494","0.0-276.0","3P4MQ7TPPYYDI1NVUBYWTQHDL1CBBP","A1UGD2VEVSML1U","36U4VBVNQOZD8NFWZXWF9CIHKRIURB","","null","<img src=""img/land2.png"" style=""width:200px;border:14px solid red;"">","null","","","","","","","","","",""
"","image-keyboard-response","277","156775","0.0-277.0","3P4MQ7TPPYYDI1NVUBYWTQHDL1CBBP","A1UGD2VEVSML1U","36U4VBVNQOZD8NFWZXWF9CIHKRIURB","","280.2999999821186","img/land2.png","76","280.90000000596046","3","0","2","2","0.8,0.2,0.2,0.2,0.8,0.2,0.2,0.2,0.8","0.2,0.2,0.8,0.8,0.2,0.2,0.2,0.8,0.2","2","",""
"","html-keyboard-response","278","157077","0.0-278.0","3P4MQ7TPPYYDI1NVUBYWTQHDL1CBBP","A1UGD2VEVSML1U","36U4VBVNQOZD8NFWZXWF9CIHKRIURB","","null","<img src=""img/land2.png"" style=""width:200px;border:14px solid red;"">","null","","","","","","","","","",""
"","image-keyboard-response","279","157215","0.0-279.0","3P4MQ7TPPYYDI1NVUBYWTQHDL1CBBP","A1UGD2VEVSML1U","36U4VBVNQOZD8NFWZXWF9CIHKRIURB","","137.19999998807907","img/land3.png","75","138","2","1","1","2","0.8,0.2,0.2,0.2,0.8,0.2,0.2,0.2,0.8","0.2,0.2,0.8,0.8,0.2,0.2,0.2,0.8,0.2","2","",""
"","html-keyboard-response","280","157518","0.0-280.0","3P4MQ7TPPYYDI1NVUBYWTQHDL1CBBP","A1UGD2VEVSML1U","36U4VBVNQOZD8NFWZXWF9CIHKRIURB","","null","<img src=""img/land3.png"" style=""width:200px; border:14px solid green;"">","null","","","","","","","","","",""
"","image-keyboard-response","281","157767","0.0-281.0","3P4MQ7TPPYYDI1NVUBYWTQHDL1CBBP","A1UGD2VEVSML1U","36U4VBVNQOZD8NFWZXWF9CIHKRIURB","","248","img/land3.png","76","249.5","3","1","1","2","0.8,0.2,0.2,0.2,0.8,0.2,0.2,0.2,0.8","0.2,0.2,0.8,0.8,0.2,0.2,0.2,0.8,0.2","2","",""
"","html-keyboard-response","282","158069","0.0-282.0","3P4MQ7TPPYYDI1NVUBYWTQHDL1CBBP","A1UGD2VEVSML1U","36U4VBVNQOZD8NFWZXWF9CIHKRIURB","","null","<img src=""img/land3.png"" style=""width:200px; border:14px solid green;"">","null","","","","","","","","","",""
"","image-keyboard-response","283","158578","0.0-283.0","3P4MQ7TPPYYDI1NVUBYWTQHDL1CBBP","A1UGD2VEVSML1U","36U4VBVNQOZD8NFWZXWF9CIHKRIURB","","508.60000002384186","img/land3.png","76","509.09999999403954","3","1","1","2","0.8,0.2,0.2,0.2,0.8,0.2,0.2,0.2,0.8","0.2,0.2,0.8,0.8,0.2,0.2,0.2,0.8,0.2","2","",""
"","html-keyboard-response","284","158879","0.0-284.0","3P4MQ7TPPYYDI1NVUBYWTQHDL1CBBP","A1UGD2VEVSML1U","36U4VBVNQOZD8NFWZXWF9CIHKRIURB","","null","<img src=""img/land3.png"" style=""width:200px; border:14px solid green;"">","null","","","","","","","","","",""
"","image-keyboard-response","285","159190","0.0-285.0","3P4MQ7TPPYYDI1NVUBYWTQHDL1CBBP","A1UGD2VEVSML1U","36U4VBVNQOZD8NFWZXWF9CIHKRIURB","","309.7999999821186","img/land3.png","76","310.39999997615814","3","1","1","2","0.8,0.2,0.2,0.2,0.8,0.2,0.2,0.2,0.8","0.2,0.2,0.8,0.8,0.2,0.2,0.2,0.8,0.2","2","",""
"","html-keyboard-response","286","159491","0.0-286.0","3P4MQ7TPPYYDI1NVUBYWTQHDL1CBBP","A1UGD2VEVSML1U","36U4VBVNQOZD8NFWZXWF9CIHKRIURB","","null","<img src=""img/land3.png"" style=""width:200px; border:14px solid green;"">","null","","","","","","","","","",""
"","image-keyboard-response","287","160287","0.0-287.0","3P4MQ7TPPYYDI1NVUBYWTQHDL1CBBP","A1UGD2VEVSML1U","36U4VBVNQOZD8NFWZXWF9CIHKRIURB","","795.5999999940395","img/land2.png","76","796.1999999880791","3","0","2","2","0.8,0.2,0.2,0.2,0.8,0.2,0.2,0.2,0.8","0.2,0.2,0.8,0.8,0.2,0.2,0.2,0.8,0.2","2","",""
"","html-keyboard-response","288","160589","0.0-288.0","3P4MQ7TPPYYDI1NVUBYWTQHDL1CBBP","A1UGD2VEVSML1U","36U4VBVNQOZD8NFWZXWF9CIHKRIURB","","null","<img src=""img/land2.png"" style=""width:200px;border:14px solid red;"">","null","","","","","","","","","",""
"","image-keyboard-response","289","160885","0.0-289.0","3P4MQ7TPPYYDI1NVUBYWTQHDL1CBBP","A1UGD2VEVSML1U","36U4VBVNQOZD8NFWZXWF9CIHKRIURB","","294.59999999403954","img/land2.png","76","295.7999999821186","3","1","2","2","0.8,0.2,0.2,0.2,0.8,0.2,0.2,0.2,0.8","0.2,0.2,0.8,0.8,0.2,0.2,0.2,0.8,0.2","2","",""
"","html-keyboard-response","290","161187","0.0-290.0","3P4MQ7TPPYYDI1NVUBYWTQHDL1CBBP","A1UGD2VEVSML1U","36U4VBVNQOZD8NFWZXWF9CIHKRIURB","","null","<img src=""img/land2.png"" style=""width:200px; border:14px solid green;"">","null","","","","","","","","","",""
"","image-keyboard-response","291","161823","0.0-291.0","3P4MQ7TPPYYDI1NVUBYWTQHDL1CBBP","A1UGD2VEVSML1U","36U4VBVNQOZD8NFWZXWF9CIHKRIURB","","634.9000000059605","img/land3.png","76","635.8000000119209","3","0","1","2","0.8,0.2,0.2,0.2,0.8,0.2,0.2,0.2,0.8","0.2,0.2,0.8,0.8,0.2,0.2,0.2,0.8,0.2","2","",""
"","html-keyboard-response","292","162125","0.0-292.0","3P4MQ7TPPYYDI1NVUBYWTQHDL1CBBP","A1UGD2VEVSML1U","36U4VBVNQOZD8NFWZXWF9CIHKRIURB","","null","<img src=""img/land3.png"" style=""width:200px;border:14px solid red;"">","null","","","","","","","","","",""
"","image-keyboard-response","293","162205","0.0-293.0","3P4MQ7TPPYYDI1NVUBYWTQHDL1CBBP","A1UGD2VEVSML1U","36U4VBVNQOZD8NFWZXWF9CIHKRIURB","","79.69999998807907","img/land4.png","76","80.19999998807907","3","1","3","2","0.8,0.2,0.2,0.2,0.8,0.2,0.2,0.2,0.8","0.2,0.2,0.8,0.8,0.2,0.2,0.2,0.8,0.2","2","",""
"","html-keyboard-response","294","162506","0.0-294.0","3P4MQ7TPPYYDI1NVUBYWTQHDL1CBBP","A1UGD2VEVSML1U","36U4VBVNQOZD8NFWZXWF9CIHKRIURB","","null","<img src=""img/land4.png"" style=""width:200px; border:14px solid green;"">","null","","","","","","","","","",""
"","image-keyboard-response","295","163141","0.0-295.0","3P4MQ7TPPYYDI1NVUBYWTQHDL1CBBP","A1UGD2VEVSML1U","36U4VBVNQOZD8NFWZXWF9CIHKRIURB","","634.8000000119209","img/land3.png","76","635.2999999821186","3","1","1","2","0.8,0.2,0.2,0.2,0.8,0.2,0.2,0.2,0.8","0.2,0.2,0.8,0.8,0.2,0.2,0.2,0.8,0.2","2","",""
"","html-keyboard-response","296","163443","0.0-296.0","3P4MQ7TPPYYDI1NVUBYWTQHDL1CBBP","A1UGD2VEVSML1U","36U4VBVNQOZD8NFWZXWF9CIHKRIURB","","null","<img src=""img/land3.png"" style=""width:200px; border:14px solid green;"">","null","","","","","","","","","",""
"","image-keyboard-response","297","163726","0.0-297.0","3P4MQ7TPPYYDI1NVUBYWTQHDL1CBBP","A1UGD2VEVSML1U","36U4VBVNQOZD8NFWZXWF9CIHKRIURB","","281.30000001192093","img/land3.png","76","282.59999999403954","3","1","1","2","0.8,0.2,0.2,0.2,0.8,0.2,0.2,0.2,0.8","0.2,0.2,0.8,0.8,0.2,0.2,0.2,0.8,0.2","2","",""
"","html-keyboard-response","298","164027","0.0-298.0","3P4MQ7TPPYYDI1NVUBYWTQHDL1CBBP","A1UGD2VEVSML1U","36U4VBVNQOZD8NFWZXWF9CIHKRIURB","","null","<img src=""img/land3.png"" style=""width:200px; border:14px solid green;"">","null","","","","","","","","","",""
"","image-keyboard-response","299","164725","0.0-299.0","3P4MQ7TPPYYDI1NVUBYWTQHDL1CBBP","A1UGD2VEVSML1U","36U4VBVNQOZD8NFWZXWF9CIHKRIURB","","696.5","img/land4.png","76","697.5999999940395","3","0","3","2","0.8,0.2,0.2,0.2,0.8,0.2,0.2,0.2,0.8","0.2,0.2,0.8,0.8,0.2,0.2,0.2,0.8,0.2","2","",""
"","html-keyboard-response","300","165027","0.0-300.0","3P4MQ7TPPYYDI1NVUBYWTQHDL1CBBP","A1UGD2VEVSML1U","36U4VBVNQOZD8NFWZXWF9CIHKRIURB","","null","<img src=""img/land4.png"" style=""width:200px;border:14px solid red;"">","null","","","","","","","","","",""
"","image-keyboard-response","301","165167","0.0-301.0","3P4MQ7TPPYYDI1NVUBYWTQHDL1CBBP","A1UGD2VEVSML1U","36U4VBVNQOZD8NFWZXWF9CIHKRIURB","","138.30000001192093","img/land4.png","76","139.69999998807907","3","0","3","2","0.8,0.2,0.2,0.2,0.8,0.2,0.2,0.2,0.8","0.2,0.2,0.8,0.8,0.2,0.2,0.2,0.8,0.2","2","",""
"","html-keyboard-response","302","165469","0.0-302.0","3P4MQ7TPPYYDI1NVUBYWTQHDL1CBBP","A1UGD2VEVSML1U","36U4VBVNQOZD8NFWZXWF9CIHKRIURB","","null","<img src=""img/land4.png"" style=""width:200px;border:14px solid red;"">","null","","","","","","","","","",""
"","image-keyboard-response","303","165893","0.0-303.0","3P4MQ7TPPYYDI1NVUBYWTQHDL1CBBP","A1UGD2VEVSML1U","36U4VBVNQOZD8NFWZXWF9CIHKRIURB","","423","img/land4.png","76","424","3","0","3","2","0.8,0.2,0.2,0.2,0.8,0.2,0.2,0.2,0.8","0.2,0.2,0.8,0.8,0.2,0.2,0.2,0.8,0.2","2","",""
"","html-keyboard-response","304","166195","0.0-304.0","3P4MQ7TPPYYDI1NVUBYWTQHDL1CBBP","A1UGD2VEVSML1U","36U4VBVNQOZD8NFWZXWF9CIHKRIURB","","null","<img src=""img/land4.png"" style=""width:200px;border:14px solid red;"">","null","","","","","","","","","",""
"","image-keyboard-response","305","166293","0.0-305.0","3P4MQ7TPPYYDI1NVUBYWTQHDL1CBBP","A1UGD2VEVSML1U","36U4VBVNQOZD8NFWZXWF9CIHKRIURB","","97.40000000596046","img/land3.png","75","97.90000000596046","2","0","1","2","0.8,0.2,0.2,0.2,0.8,0.2,0.2,0.2,0.8","0.2,0.2,0.8,0.8,0.2,0.2,0.2,0.8,0.2","2","",""
"","html-keyboard-response","306","166594","0.0-306.0","3P4MQ7TPPYYDI1NVUBYWTQHDL1CBBP","A1UGD2VEVSML1U","36U4VBVNQOZD8NFWZXWF9CIHKRIURB","","null","<img src=""img/land3.png"" style=""width:200px;border:14px solid red;"">","null","","","","","","","","","",""
"","image-keyboard-response","307","166749","0.0-307.0","3P4MQ7TPPYYDI1NVUBYWTQHDL1CBBP","A1UGD2VEVSML1U","36U4VBVNQOZD8NFWZXWF9CIHKRIURB","","154.59999999403954","img/land3.png","76","155.2000000178814","3","1","1","2","0.8,0.2,0.2,0.2,0.8,0.2,0.2,0.2,0.8","0.2,0.2,0.8,0.8,0.2,0.2,0.2,0.8,0.2","2","",""
"","html-keyboard-response","308","167050","0.0-308.0","3P4MQ7TPPYYDI1NVUBYWTQHDL1CBBP","A1UGD2VEVSML1U","36U4VBVNQOZD8NFWZXWF9CIHKRIURB","","null","<img src=""img/land3.png"" style=""width:200px; border:14px solid green;"">","null","","","","","","","","","",""
"","image-keyboard-response","309","167266","0.0-309.0","3P4MQ7TPPYYDI1NVUBYWTQHDL1CBBP","A1UGD2VEVSML1U","36U4VBVNQOZD8NFWZXWF9CIHKRIURB","","214.80000001192093","img/land3.png","76","215.39999997615814","3","1","1","2","0.8,0.2,0.2,0.2,0.8,0.2,0.2,0.2,0.8","0.2,0.2,0.8,0.8,0.2,0.2,0.2,0.8,0.2","2","",""
"","html-keyboard-response","310","167568","0.0-310.0","3P4MQ7TPPYYDI1NVUBYWTQHDL1CBBP","A1UGD2VEVSML1U","36U4VBVNQOZD8NFWZXWF9CIHKRIURB","","null","<img src=""img/land3.png"" style=""width:200px; border:14px solid green;"">","null","","","","","","","","","",""
"","image-keyboard-response","311","167780","0.0-311.0","3P4MQ7TPPYYDI1NVUBYWTQHDL1CBBP","A1UGD2VEVSML1U","36U4VBVNQOZD8NFWZXWF9CIHKRIURB","","210.69999998807907","img/land3.png","76","211.90000000596046","3","0","1","2","0.8,0.2,0.2,0.2,0.8,0.2,0.2,0.2,0.8","0.2,0.2,0.8,0.8,0.2,0.2,0.2,0.8,0.2","2","",""
"","html-keyboard-response","312","168081","0.0-312.0","3P4MQ7TPPYYDI1NVUBYWTQHDL1CBBP","A1UGD2VEVSML1U","36U4VBVNQOZD8NFWZXWF9CIHKRIURB","","null","<img src=""img/land3.png"" style=""width:200px;border:14px solid red;"">","null","","","","","","","","","",""
"","image-keyboard-response","313","168309","0.0-313.0","3P4MQ7TPPYYDI1NVUBYWTQHDL1CBBP","A1UGD2VEVSML1U","36U4VBVNQOZD8NFWZXWF9CIHKRIURB","","226.09999999403954","img/land3.png","74","227.19999998807907","1","0","1","2","0.8,0.2,0.2,0.2,0.8,0.2,0.2,0.2,0.8","0.2,0.2,0.8,0.8,0.2,0.2,0.2,0.8,0.2","2","",""
"","html-keyboard-response","314","168611","0.0-314.0","3P4MQ7TPPYYDI1NVUBYWTQHDL1CBBP","A1UGD2VEVSML1U","36U4VBVNQOZD8NFWZXWF9CIHKRIURB","","null","<img src=""img/land3.png"" style=""width:200px;border:14px solid red;"">","null","","","","","","","","","",""
"","image-keyboard-response","315","168789","0.0-315.0","3P4MQ7TPPYYDI1NVUBYWTQHDL1CBBP","A1UGD2VEVSML1U","36U4VBVNQOZD8NFWZXWF9CIHKRIURB","","176.2000000178814","img/land3.png","76","177.40000000596046","3","0","1","2","0.8,0.2,0.2,0.2,0.8,0.2,0.2,0.2,0.8","0.2,0.2,0.8,0.8,0.2,0.2,0.2,0.8,0.2","2","",""
"","html-keyboard-response","316","169091","0.0-316.0","3P4MQ7TPPYYDI1NVUBYWTQHDL1CBBP","A1UGD2VEVSML1U","36U4VBVNQOZD8NFWZXWF9CIHKRIURB","","null","<img src=""img/land3.png"" style=""width:200px;border:14px solid red;"">","null","","","","","","","","","",""
"","image-keyboard-response","317","170215","0.0-317.0","3P4MQ7TPPYYDI1NVUBYWTQHDL1CBBP","A1UGD2VEVSML1U","36U4VBVNQOZD8NFWZXWF9CIHKRIURB","","1122.7999999821186","img/land2.png","76","1124.199999988079","3","0","2","2","0.8,0.2,0.2,0.2,0.8,0.2,0.2,0.2,0.8","0.2,0.2,0.8,0.8,0.2,0.2,0.2,0.8,0.2","2","",""
"","html-keyboard-response","318","170518","0.0-318.0","3P4MQ7TPPYYDI1NVUBYWTQHDL1CBBP","A1UGD2VEVSML1U","36U4VBVNQOZD8NFWZXWF9CIHKRIURB","","null","<img src=""img/land2.png"" style=""width:200px;border:14px solid red;"">","null","","","","","","","","","",""
"","image-keyboard-response","319","171015","0.0-319.0","3P4MQ7TPPYYDI1NVUBYWTQHDL1CBBP","A1UGD2VEVSML1U","36U4VBVNQOZD8NFWZXWF9CIHKRIURB","","495.90000000596046","img/land3.png","76","497.40000000596046","3","1","1","2","0.8,0.2,0.2,0.2,0.8,0.2,0.2,0.2,0.8","0.2,0.2,0.8,0.8,0.2,0.2,0.2,0.8,0.2","2","",""
"","html-keyboard-response","320","171318","0.0-320.0","3P4MQ7TPPYYDI1NVUBYWTQHDL1CBBP","A1UGD2VEVSML1U","36U4VBVNQOZD8NFWZXWF9CIHKRIURB","","null","<img src=""img/land3.png"" style=""width:200px; border:14px solid green;"">","null","","","","","","","","","",""
"","image-keyboard-response","321","172103","0.0-321.0","3P4MQ7TPPYYDI1NVUBYWTQHDL1CBBP","A1UGD2VEVSML1U","36U4VBVNQOZD8NFWZXWF9CIHKRIURB","","783.6999999880791","img/land2.png","76","784.5","3","0","2","2","0.8,0.2,0.2,0.2,0.8,0.2,0.2,0.2,0.8","0.2,0.2,0.8,0.8,0.2,0.2,0.2,0.8,0.2","2","",""
"","html-keyboard-response","322","172416","0.0-322.0","3P4MQ7TPPYYDI1NVUBYWTQHDL1CBBP","A1UGD2VEVSML1U","36U4VBVNQOZD8NFWZXWF9CIHKRIURB","","null","<img src=""img/land2.png"" style=""width:200px;border:14px solid red;"">","null","","","","","","","","","",""
"","image-keyboard-response","323","172886","0.0-323.0","3P4MQ7TPPYYDI1NVUBYWTQHDL1CBBP","A1UGD2VEVSML1U","36U4VBVNQOZD8NFWZXWF9CIHKRIURB","","469.69999998807907","img/land3.png","76","470.40000000596046","3","1","1","2","0.8,0.2,0.2,0.2,0.8,0.2,0.2,0.2,0.8","0.2,0.2,0.8,0.8,0.2,0.2,0.2,0.8,0.2","2","",""
"","html-keyboard-response","324","173189","0.0-324.0","3P4MQ7TPPYYDI1NVUBYWTQHDL1CBBP","A1UGD2VEVSML1U","36U4VBVNQOZD8NFWZXWF9CIHKRIURB","","null","<img src=""img/land3.png"" style=""width:200px; border:14px solid green;"">","null","","","","","","","","","",""
"","image-keyboard-response","325","173453","0.0-325.0","3P4MQ7TPPYYDI1NVUBYWTQHDL1CBBP","A1UGD2VEVSML1U","36U4VBVNQOZD8NFWZXWF9CIHKRIURB","","262.40000000596046","img/land3.png","76","263.5","3","1","1","2","0.8,0.2,0.2,0.2,0.8,0.2,0.2,0.2,0.8","0.2,0.2,0.8,0.8,0.2,0.2,0.2,0.8,0.2","2","",""
"","html-keyboard-response","326","173754","0.0-326.0","3P4MQ7TPPYYDI1NVUBYWTQHDL1CBBP","A1UGD2VEVSML1U","36U4VBVNQOZD8NFWZXWF9CIHKRIURB","","null","<img src=""img/land3.png"" style=""width:200px; border:14px solid green;"">","null","","","","","","","","","",""
"","image-keyboard-response","327","174015","0.0-327.0","3P4MQ7TPPYYDI1NVUBYWTQHDL1CBBP","A1UGD2VEVSML1U","36U4VBVNQOZD8NFWZXWF9CIHKRIURB","","259.59999999403954","img/land3.png","76","260.59999999403954","3","1","1","2","0.8,0.2,0.2,0.2,0.8,0.2,0.2,0.2,0.8","0.2,0.2,0.8,0.8,0.2,0.2,0.2,0.8,0.2","2","",""
"","html-keyboard-response","328","174318","0.0-328.0","3P4MQ7TPPYYDI1NVUBYWTQHDL1CBBP","A1UGD2VEVSML1U","36U4VBVNQOZD8NFWZXWF9CIHKRIURB","","null","<img src=""img/land3.png"" style=""width:200px; border:14px solid green;"">","null","","","","","","","","","",""
"","image-keyboard-response","329","174429","0.0-329.0","3P4MQ7TPPYYDI1NVUBYWTQHDL1CBBP","A1UGD2VEVSML1U","36U4VBVNQOZD8NFWZXWF9CIHKRIURB","","109.59999999403954","img/land4.png","76","110.80000001192093","3","0","3","2","0.8,0.2,0.2,0.2,0.8,0.2,0.2,0.2,0.8","0.2,0.2,0.8,0.8,0.2,0.2,0.2,0.8,0.2","2","",""
"","html-keyboard-response","330","174730","0.0-330.0","3P4MQ7TPPYYDI1NVUBYWTQHDL1CBBP","A1UGD2VEVSML1U","36U4VBVNQOZD8NFWZXWF9CIHKRIURB","","null","<img src=""img/land4.png"" style=""width:200px;border:14px solid red;"">","null","","","","","","","","","",""
"","image-keyboard-response","331","174949","0.0-331.0","3P4MQ7TPPYYDI1NVUBYWTQHDL1CBBP","A1UGD2VEVSML1U","36U4VBVNQOZD8NFWZXWF9CIHKRIURB","","217.60000002384186","img/land4.png","74","218.59999999403954","1","0","3","2","0.8,0.2,0.2,0.2,0.8,0.2,0.2,0.2,0.8","0.2,0.2,0.8,0.8,0.2,0.2,0.2,0.8,0.2","2","",""
"","html-keyboard-response","332","175250","0.0-332.0","3P4MQ7TPPYYDI1NVUBYWTQHDL1CBBP","A1UGD2VEVSML1U","36U4VBVNQOZD8NFWZXWF9CIHKRIURB","","null","<img src=""img/land4.png"" style=""width:200px;border:14px solid red;"">","null","","","","","","","","","",""
"","image-keyboard-response","333","175269","0.0-333.0","3P4MQ7TPPYYDI1NVUBYWTQHDL1CBBP","A1UGD2VEVSML1U","36U4VBVNQOZD8NFWZXWF9CIHKRIURB","","17.80000001192093","img/land3.png","75","18.30000001192093","2","0","1","2","0.8,0.2,0.2,0.2,0.8,0.2,0.2,0.2,0.8","0.2,0.2,0.8,0.8,0.2,0.2,0.2,0.8,0.2","2","",""
"","html-keyboard-response","334","175571","0.0-334.0","3P4MQ7TPPYYDI1NVUBYWTQHDL1CBBP","A1UGD2VEVSML1U","36U4VBVNQOZD8NFWZXWF9CIHKRIURB","","null","<img src=""img/land3.png"" style=""width:200px;border:14px solid red;"">","null","","","","","","","","","",""
"","image-keyboard-response","335","175742","0.0-335.0","3P4MQ7TPPYYDI1NVUBYWTQHDL1CBBP","A1UGD2VEVSML1U","36U4VBVNQOZD8NFWZXWF9CIHKRIURB","","170.80000001192093","img/land2.png","76","171.40000000596046","3","0","2","2","0.8,0.2,0.2,0.2,0.8,0.2,0.2,0.2,0.8","0.2,0.2,0.8,0.8,0.2,0.2,0.2,0.8,0.2","2","",""
"","html-keyboard-response","336","176044","0.0-336.0","3P4MQ7TPPYYDI1NVUBYWTQHDL1CBBP","A1UGD2VEVSML1U","36U4VBVNQOZD8NFWZXWF9CIHKRIURB","","null","<img src=""img/land2.png"" style=""width:200px;border:14px solid red;"">","null","","","","","","","","","",""
"","image-keyboard-response","337","176176","0.0-337.0","3P4MQ7TPPYYDI1NVUBYWTQHDL1CBBP","A1UGD2VEVSML1U","36U4VBVNQOZD8NFWZXWF9CIHKRIURB","","129.80000001192093","img/land2.png","76","131.10000002384186","3","0","2","2","0.8,0.2,0.2,0.2,0.8,0.2,0.2,0.2,0.8","0.2,0.2,0.8,0.8,0.2,0.2,0.2,0.8,0.2","2","",""
"","html-keyboard-response","338","176478","0.0-338.0","3P4MQ7TPPYYDI1NVUBYWTQHDL1CBBP","A1UGD2VEVSML1U","36U4VBVNQOZD8NFWZXWF9CIHKRIURB","","null","<img src=""img/land2.png"" style=""width:200px;border:14px solid red;"">","null","","","","","","","","","",""
"","image-keyboard-response","339","176853","0.0-339.0","3P4MQ7TPPYYDI1NVUBYWTQHDL1CBBP","A1UGD2VEVSML1U","36U4VBVNQOZD8NFWZXWF9CIHKRIURB","","373.60000002384186","img/land3.png","74","374.90000000596046","1","0","1","2","0.8,0.2,0.2,0.2,0.8,0.2,0.2,0.2,0.8","0.2,0.2,0.8,0.8,0.2,0.2,0.2,0.8,0.2","2","",""
"","html-keyboard-response","340","177154","0.0-340.0","3P4MQ7TPPYYDI1NVUBYWTQHDL1CBBP","A1UGD2VEVSML1U","36U4VBVNQOZD8NFWZXWF9CIHKRIURB","","null","<img src=""img/land3.png"" style=""width:200px;border:14px solid red;"">","null","","","","","","","","","",""
"","image-keyboard-response","341","177463","0.0-341.0","3P4MQ7TPPYYDI1NVUBYWTQHDL1CBBP","A1UGD2VEVSML1U","36U4VBVNQOZD8NFWZXWF9CIHKRIURB","","307.09999999403954","img/land2.png","75","308.80000001192093","2","0","2","2","0.8,0.2,0.2,0.2,0.8,0.2,0.2,0.2,0.8","0.2,0.2,0.8,0.8,0.2,0.2,0.2,0.8,0.2","2","",""
"","html-keyboard-response","342","177766","0.0-342.0","3P4MQ7TPPYYDI1NVUBYWTQHDL1CBBP","A1UGD2VEVSML1U","36U4VBVNQOZD8NFWZXWF9CIHKRIURB","","null","<img src=""img/land2.png"" style=""width:200px;border:14px solid red;"">","null","","","","","","","","","",""
"","image-keyboard-response","343","177797","0.0-343.0","3P4MQ7TPPYYDI1NVUBYWTQHDL1CBBP","A1UGD2VEVSML1U","36U4VBVNQOZD8NFWZXWF9CIHKRIURB","","30.5","img/land2.png","76","31.69999998807907","3","0","2","2","0.8,0.2,0.2,0.2,0.8,0.2,0.2,0.2,0.8","0.2,0.2,0.8,0.8,0.2,0.2,0.2,0.8,0.2","2","",""
"","html-keyboard-response","344","178099","0.0-344.0","3P4MQ7TPPYYDI1NVUBYWTQHDL1CBBP","A1UGD2VEVSML1U","36U4VBVNQOZD8NFWZXWF9CIHKRIURB","","null","<img src=""img/land2.png"" style=""width:200px;border:14px solid red;"">","null","","","","","","","","","",""
"","image-keyboard-response","345","178133","0.0-345.0","3P4MQ7TPPYYDI1NVUBYWTQHDL1CBBP","A1UGD2VEVSML1U","36U4VBVNQOZD8NFWZXWF9CIHKRIURB","","33.5","img/land3.png","76","34","3","1","1","2","0.8,0.2,0.2,0.2,0.8,0.2,0.2,0.2,0.8","0.2,0.2,0.8,0.8,0.2,0.2,0.2,0.8,0.2","2","",""
"","html-keyboard-response","346","178435","0.0-346.0","3P4MQ7TPPYYDI1NVUBYWTQHDL1CBBP","A1UGD2VEVSML1U","36U4VBVNQOZD8NFWZXWF9CIHKRIURB","","null","<img src=""img/land3.png"" style=""width:200px; border:14px solid green;"">","null","","","","","","","","","",""
"","image-keyboard-response","347","178651","0.0-347.0","3P4MQ7TPPYYDI1NVUBYWTQHDL1CBBP","A1UGD2VEVSML1U","36U4VBVNQOZD8NFWZXWF9CIHKRIURB","","214","img/land3.png","76","215.2000000178814","3","0","1","2","0.8,0.2,0.2,0.2,0.8,0.2,0.2,0.2,0.8","0.2,0.2,0.8,0.8,0.2,0.2,0.2,0.8,0.2","2","",""
"","html-keyboard-response","348","178953","0.0-348.0","3P4MQ7TPPYYDI1NVUBYWTQHDL1CBBP","A1UGD2VEVSML1U","36U4VBVNQOZD8NFWZXWF9CIHKRIURB","","null","<img src=""img/land3.png"" style=""width:200px;border:14px solid red;"">","null","","","","","","","","","",""
"","image-keyboard-response","349","179294","0.0-349.0","3P4MQ7TPPYYDI1NVUBYWTQHDL1CBBP","A1UGD2VEVSML1U","36U4VBVNQOZD8NFWZXWF9CIHKRIURB","","339.60000002384186","img/land4.png","76","340.90000000596046","3","0","3","2","0.8,0.2,0.2,0.2,0.8,0.2,0.2,0.2,0.8","0.2,0.2,0.8,0.8,0.2,0.2,0.2,0.8,0.2","2","",""
"","html-keyboard-response","350","179596","0.0-350.0","3P4MQ7TPPYYDI1NVUBYWTQHDL1CBBP","A1UGD2VEVSML1U","36U4VBVNQOZD8NFWZXWF9CIHKRIURB","","null","<img src=""img/land4.png"" style=""width:200px;border:14px solid red;"">","null","","","","","","","","","",""
"","image-keyboard-response","351","179797","0.0-351.0","3P4MQ7TPPYYDI1NVUBYWTQHDL1CBBP","A1UGD2VEVSML1U","36U4VBVNQOZD8NFWZXWF9CIHKRIURB","","200.7000000178814","img/land3.png","74","201.30000001192093","1","0","1","2","0.8,0.2,0.2,0.2,0.8,0.2,0.2,0.2,0.8","0.2,0.2,0.8,0.8,0.2,0.2,0.2,0.8,0.2","2","",""
"","html-keyboard-response","352","180099","0.0-352.0","3P4MQ7TPPYYDI1NVUBYWTQHDL1CBBP","A1UGD2VEVSML1U","36U4VBVNQOZD8NFWZXWF9CIHKRIURB","","null","<img src=""img/land3.png"" style=""width:200px;border:14px solid red;"">","null","","","","","","","","","",""
"","image-keyboard-response","353","180247","0.0-353.0","3P4MQ7TPPYYDI1NVUBYWTQHDL1CBBP","A1UGD2VEVSML1U","36U4VBVNQOZD8NFWZXWF9CIHKRIURB","","148","img/land3.png","76","148.7999999821186","3","1","1","2","0.8,0.2,0.2,0.2,0.8,0.2,0.2,0.2,0.8","0.2,0.2,0.8,0.8,0.2,0.2,0.2,0.8,0.2","2","",""
"","html-keyboard-response","354","180550","0.0-354.0","3P4MQ7TPPYYDI1NVUBYWTQHDL1CBBP","A1UGD2VEVSML1U","36U4VBVNQOZD8NFWZXWF9CIHKRIURB","","null","<img src=""img/land3.png"" style=""width:200px; border:14px solid green;"">","null","","","","","","","","","",""
"","image-keyboard-response","355","181351","0.0-355.0","3P4MQ7TPPYYDI1NVUBYWTQHDL1CBBP","A1UGD2VEVSML1U","36U4VBVNQOZD8NFWZXWF9CIHKRIURB","","799.3000000119209","img/land2.png","75","800.7999999821186","2","0","2","2","0.8,0.2,0.2,0.2,0.8,0.2,0.2,0.2,0.8","0.2,0.2,0.8,0.8,0.2,0.2,0.2,0.8,0.2","2","",""
