"success","trial_type","trial_index","time_elapsed","internal_node_id","assignmentID","mturkID","hitID","view_history","rt","stimulus","key_press","reactionTime","a","r","s","cond","reward_cond","reward_cond_actual","reward_matrix_idx","responses","question_order"
"true","fullscreen","0","10639","0.0-0.0","3OS4RQUCRA13VIZBZDKSCG8Y0UBFB8","A1VBP1RMKGUXB","3UDTAB6HH6LRO17U79I9TKUGYFV09C","","","","","","","","","","","","","",""
"","instructions","1","52518","0.0-1.0","3OS4RQUCRA13VIZBZDKSCG8Y0UBFB8","A1VBP1RMKGUXB","3UDTAB6HH6LRO17U79I9TKUGYFV09C","[{""page_index"":0,""viewing_time"":4975},{""page_index"":1,""viewing_time"":1497},{""page_index"":2,""viewing_time"":1575},{""page_index"":3,""viewing_time"":15313},{""page_index"":4,""viewing_time"":5704},{""page_index"":5,""viewing_time"":6311},{""page_index"":6,""viewing_time"":6497}]","41873","","","","","","","","","","","",""
"","image-keyboard-response","2","54531","0.0-2.0","3OS4RQUCRA13VIZBZDKSCG8Y0UBFB8","A1VBP1RMKGUXB","3UDTAB6HH6LRO17U79I9TKUGYFV09C","","","img/land5.png","","2010","-1","0","1","1","0.8,0.2,0.2,0.2,0.8,0.2,0.2,0.2,0.8","0.8,0.2,0.2,0.2,0.8,0.2,0.2,0.2,0.8","1","",""
"","html-keyboard-response","3","54837","0.0-3.0","3OS4RQUCRA13VIZBZDKSCG8Y0UBFB8","A1VBP1RMKGUXB","3UDTAB6HH6LRO17U79I9TKUGYFV09C","","null","<img src=""img/land5.png"" style=""width:200px;border:14px solid red;"">","null","","","","","","","","","",""
"","image-keyboard-response","4","56701","0.0-4.0","3OS4RQUCRA13VIZBZDKSCG8Y0UBFB8","A1VBP1RMKGUXB","3UDTAB6HH6LRO17U79I9TKUGYFV09C","","1860","img/land3.png","75","1863","2","0","3","1","0.8,0.2,0.2,0.2,0.8,0.2,0.2,0.2,0.8","0.8,0.2,0.2,0.2,0.8,0.2,0.2,0.2,0.8","1","",""
"","html-keyboard-response","5","57005","0.0-5.0","3OS4RQUCRA13VIZBZDKSCG8Y0UBFB8","A1VBP1RMKGUXB","3UDTAB6HH6LRO17U79I9TKUGYFV09C","","null","<img src=""img/land3.png"" style=""width:200px;border:14px solid red;"">","null","","","","","","","","","",""
"","image-keyboard-response","6","58035","0.0-6.0","3OS4RQUCRA13VIZBZDKSCG8Y0UBFB8","A1VBP1RMKGUXB","3UDTAB6HH6LRO17U79I9TKUGYFV09C","","1028","img/land5.png","76","1030","3","1","1","1","0.8,0.2,0.2,0.2,0.8,0.2,0.2,0.2,0.8","0.8,0.2,0.2,0.2,0.8,0.2,0.2,0.2,0.8","1","",""
"","html-keyboard-response","7","58423","0.0-7.0","3OS4RQUCRA13VIZBZDKSCG8Y0UBFB8","A1VBP1RMKGUXB","3UDTAB6HH6LRO17U79I9TKUGYFV09C","","null","<img src=""img/land5.png"" style=""width:200px; border:14px solid green;"">","null","","","","","","","","","",""
"","image-keyboard-response","8","59766","0.0-8.0","3OS4RQUCRA13VIZBZDKSCG8Y0UBFB8","A1VBP1RMKGUXB","3UDTAB6HH6LRO17U79I9TKUGYFV09C","","1341","img/land1.png","74","1343","1","0","2","1","0.8,0.2,0.2,0.2,0.8,0.2,0.2,0.2,0.8","0.8,0.2,0.2,0.2,0.8,0.2,0.2,0.2,0.8","1","",""
"","html-keyboard-response","9","60069","0.0-9.0","3OS4RQUCRA13VIZBZDKSCG8Y0UBFB8","A1VBP1RMKGUXB","3UDTAB6HH6LRO17U79I9TKUGYFV09C","","null","<img src=""img/land1.png"" style=""width:200px;border:14px solid red;"">","null","","","","","","","","","",""
"","image-keyboard-response","10","61316","0.0-10.0","3OS4RQUCRA13VIZBZDKSCG8Y0UBFB8","A1VBP1RMKGUXB","3UDTAB6HH6LRO17U79I9TKUGYFV09C","","1243","img/land5.png","74","1245","1","1","1","1","0.8,0.2,0.2,0.2,0.8,0.2,0.2,0.2,0.8","0.8,0.2,0.2,0.2,0.8,0.2,0.2,0.2,0.8","1","",""
"","html-keyboard-response","11","61618","0.0-11.0","3OS4RQUCRA13VIZBZDKSCG8Y0UBFB8","A1VBP1RMKGUXB","3UDTAB6HH6LRO17U79I9TKUGYFV09C","","null","<img src=""img/land5.png"" style=""width:200px; border:14px solid green;"">","null","","","","","","","","","",""
"","image-keyboard-response","12","63049","0.0-12.0","3OS4RQUCRA13VIZBZDKSCG8Y0UBFB8","A1VBP1RMKGUXB","3UDTAB6HH6LRO17U79I9TKUGYFV09C","","1428","img/land5.png","75","1430","2","0","1","1","0.8,0.2,0.2,0.2,0.8,0.2,0.2,0.2,0.8","0.8,0.2,0.2,0.2,0.8,0.2,0.2,0.2,0.8","1","",""
"","html-keyboard-response","13","63351","0.0-13.0","3OS4RQUCRA13VIZBZDKSCG8Y0UBFB8","A1VBP1RMKGUXB","3UDTAB6HH6LRO17U79I9TKUGYFV09C","","null","<img src=""img/land5.png"" style=""width:200px;border:14px solid red;"">","null","","","","","","","","","",""
"","image-keyboard-response","14","65047","0.0-14.0","3OS4RQUCRA13VIZBZDKSCG8Y0UBFB8","A1VBP1RMKGUXB","3UDTAB6HH6LRO17U79I9TKUGYFV09C","","1693","img/land3.png","74","1695","1","0","3","1","0.8,0.2,0.2,0.2,0.8,0.2,0.2,0.2,0.8","0.8,0.2,0.2,0.2,0.8,0.2,0.2,0.2,0.8","1","",""
"","html-keyboard-response","15","65348","0.0-15.0","3OS4RQUCRA13VIZBZDKSCG8Y0UBFB8","A1VBP1RMKGUXB","3UDTAB6HH6LRO17U79I9TKUGYFV09C","","null","<img src=""img/land3.png"" style=""width:200px;border:14px solid red;"">","null","","","","","","","","","",""
"","image-keyboard-response","16","66719","0.0-16.0","3OS4RQUCRA13VIZBZDKSCG8Y0UBFB8","A1VBP1RMKGUXB","3UDTAB6HH6LRO17U79I9TKUGYFV09C","","1368","img/land1.png","75","1370","2","1","2","1","0.8,0.2,0.2,0.2,0.8,0.2,0.2,0.2,0.8","0.8,0.2,0.2,0.2,0.8,0.2,0.2,0.2,0.8","1","",""
"","html-keyboard-response","17","67022","0.0-17.0","3OS4RQUCRA13VIZBZDKSCG8Y0UBFB8","A1VBP1RMKGUXB","3UDTAB6HH6LRO17U79I9TKUGYFV09C","","null","<img src=""img/land1.png"" style=""width:200px; border:14px solid green;"">","null","","","","","","","","","",""
"","image-keyboard-response","18","67947","0.0-18.0","3OS4RQUCRA13VIZBZDKSCG8Y0UBFB8","A1VBP1RMKGUXB","3UDTAB6HH6LRO17U79I9TKUGYFV09C","","921","img/land1.png","74","924","1","0","2","1","0.8,0.2,0.2,0.2,0.8,0.2,0.2,0.2,0.8","0.8,0.2,0.2,0.2,0.8,0.2,0.2,0.2,0.8","1","",""
"","html-keyboard-response","19","68251","0.0-19.0","3OS4RQUCRA13VIZBZDKSCG8Y0UBFB8","A1VBP1RMKGUXB","3UDTAB6HH6LRO17U79I9TKUGYFV09C","","null","<img src=""img/land1.png"" style=""width:200px;border:14px solid red;"">","null","","","","","","","","","",""
"","image-keyboard-response","20","69725","0.0-20.0","3OS4RQUCRA13VIZBZDKSCG8Y0UBFB8","A1VBP1RMKGUXB","3UDTAB6HH6LRO17U79I9TKUGYFV09C","","1472","img/land5.png","74","1474","1","1","1","1","0.8,0.2,0.2,0.2,0.8,0.2,0.2,0.2,0.8","0.8,0.2,0.2,0.2,0.8,0.2,0.2,0.2,0.8","1","",""
"","html-keyboard-response","21","70028","0.0-21.0","3OS4RQUCRA13VIZBZDKSCG8Y0UBFB8","A1VBP1RMKGUXB","3UDTAB6HH6LRO17U79I9TKUGYFV09C","","null","<img src=""img/land5.png"" style=""width:200px; border:14px solid green;"">","null","","","","","","","","","",""
"","image-keyboard-response","22","70719","0.0-22.0","3OS4RQUCRA13VIZBZDKSCG8Y0UBFB8","A1VBP1RMKGUXB","3UDTAB6HH6LRO17U79I9TKUGYFV09C","","689","img/land5.png","75","690","2","0","1","1","0.8,0.2,0.2,0.2,0.8,0.2,0.2,0.2,0.8","0.8,0.2,0.2,0.2,0.8,0.2,0.2,0.2,0.8","1","",""
"","html-keyboard-response","23","71105","0.0-23.0","3OS4RQUCRA13VIZBZDKSCG8Y0UBFB8","A1VBP1RMKGUXB","3UDTAB6HH6LRO17U79I9TKUGYFV09C","","null","<img src=""img/land5.png"" style=""width:200px;border:14px solid red;"">","null","","","","","","","","","",""
"","image-keyboard-response","24","72252","0.0-24.0","3OS4RQUCRA13VIZBZDKSCG8Y0UBFB8","A1VBP1RMKGUXB","3UDTAB6HH6LRO17U79I9TKUGYFV09C","","1145","img/land1.png","74","1147","1","1","2","1","0.8,0.2,0.2,0.2,0.8,0.2,0.2,0.2,0.8","0.8,0.2,0.2,0.2,0.8,0.2,0.2,0.2,0.8","1","",""
"","html-keyboard-response","25","72553","0.0-25.0","3OS4RQUCRA13VIZBZDKSCG8Y0UBFB8","A1VBP1RMKGUXB","3UDTAB6HH6LRO17U79I9TKUGYFV09C","","null","<img src=""img/land1.png"" style=""width:200px; border:14px solid green;"">","null","","","","","","","","","",""
"","image-keyboard-response","26","74329","0.0-26.0","3OS4RQUCRA13VIZBZDKSCG8Y0UBFB8","A1VBP1RMKGUXB","3UDTAB6HH6LRO17U79I9TKUGYFV09C","","1767","img/land5.png","75","1775","2","0","1","1","0.8,0.2,0.2,0.2,0.8,0.2,0.2,0.2,0.8","0.8,0.2,0.2,0.2,0.8,0.2,0.2,0.2,0.8","1","",""
"","html-keyboard-response","27","74642","0.0-27.0","3OS4RQUCRA13VIZBZDKSCG8Y0UBFB8","A1VBP1RMKGUXB","3UDTAB6HH6LRO17U79I9TKUGYFV09C","","null","<img src=""img/land5.png"" style=""width:200px;border:14px solid red;"">","null","","","","","","","","","",""
"","image-keyboard-response","28","76652","0.0-28.0","3OS4RQUCRA13VIZBZDKSCG8Y0UBFB8","A1VBP1RMKGUXB","3UDTAB6HH6LRO17U79I9TKUGYFV09C","","","img/land3.png","","2010","-1","0","3","1","0.8,0.2,0.2,0.2,0.8,0.2,0.2,0.2,0.8","0.8,0.2,0.2,0.2,0.8,0.2,0.2,0.2,0.8","1","",""
"","html-keyboard-response","29","76955","0.0-29.0","3OS4RQUCRA13VIZBZDKSCG8Y0UBFB8","A1VBP1RMKGUXB","3UDTAB6HH6LRO17U79I9TKUGYFV09C","","null","<img src=""img/land3.png"" style=""width:200px;border:14px solid red;"">","null","","","","","","","","","",""
"","image-keyboard-response","30","78040","0.0-30.0","3OS4RQUCRA13VIZBZDKSCG8Y0UBFB8","A1VBP1RMKGUXB","3UDTAB6HH6LRO17U79I9TKUGYFV09C","","1084","img/land3.png","74","1084","1","1","3","1","0.8,0.2,0.2,0.2,0.8,0.2,0.2,0.2,0.8","0.8,0.2,0.2,0.2,0.8,0.2,0.2,0.2,0.8","1","",""
"","html-keyboard-response","31","78342","0.0-31.0","3OS4RQUCRA13VIZBZDKSCG8Y0UBFB8","A1VBP1RMKGUXB","3UDTAB6HH6LRO17U79I9TKUGYFV09C","","null","<img src=""img/land3.png"" style=""width:200px; border:14px solid green;"">","null","","","","","","","","","",""
"","image-keyboard-response","32","79755","0.0-32.0","3OS4RQUCRA13VIZBZDKSCG8Y0UBFB8","A1VBP1RMKGUXB","3UDTAB6HH6LRO17U79I9TKUGYFV09C","","1409","img/land3.png","75","1412","2","1","3","1","0.8,0.2,0.2,0.2,0.8,0.2,0.2,0.2,0.8","0.8,0.2,0.2,0.2,0.8,0.2,0.2,0.2,0.8","1","",""
"","html-keyboard-response","33","80058","0.0-33.0","3OS4RQUCRA13VIZBZDKSCG8Y0UBFB8","A1VBP1RMKGUXB","3UDTAB6HH6LRO17U79I9TKUGYFV09C","","null","<img src=""img/land3.png"" style=""width:200px; border:14px solid green;"">","null","","","","","","","","","",""
"","image-keyboard-response","34","81441","0.0-34.0","3OS4RQUCRA13VIZBZDKSCG8Y0UBFB8","A1VBP1RMKGUXB","3UDTAB6HH6LRO17U79I9TKUGYFV09C","","1380","img/land1.png","74","1381","1","0","2","1","0.8,0.2,0.2,0.2,0.8,0.2,0.2,0.2,0.8","0.8,0.2,0.2,0.2,0.8,0.2,0.2,0.2,0.8","1","",""
"","html-keyboard-response","35","81743","0.0-35.0","3OS4RQUCRA13VIZBZDKSCG8Y0UBFB8","A1VBP1RMKGUXB","3UDTAB6HH6LRO17U79I9TKUGYFV09C","","null","<img src=""img/land1.png"" style=""width:200px;border:14px solid red;"">","null","","","","","","","","","",""
"","image-keyboard-response","36","83527","0.0-36.0","3OS4RQUCRA13VIZBZDKSCG8Y0UBFB8","A1VBP1RMKGUXB","3UDTAB6HH6LRO17U79I9TKUGYFV09C","","1780","img/land5.png","75","1782","2","1","1","1","0.8,0.2,0.2,0.2,0.8,0.2,0.2,0.2,0.8","0.8,0.2,0.2,0.2,0.8,0.2,0.2,0.2,0.8","1","",""
"","html-keyboard-response","37","83830","0.0-37.0","3OS4RQUCRA13VIZBZDKSCG8Y0UBFB8","A1VBP1RMKGUXB","3UDTAB6HH6LRO17U79I9TKUGYFV09C","","null","<img src=""img/land5.png"" style=""width:200px; border:14px solid green;"">","null","","","","","","","","","",""
"","image-keyboard-response","38","85014","0.0-38.0","3OS4RQUCRA13VIZBZDKSCG8Y0UBFB8","A1VBP1RMKGUXB","3UDTAB6HH6LRO17U79I9TKUGYFV09C","","1180","img/land1.png","74","1183","1","1","2","1","0.8,0.2,0.2,0.2,0.8,0.2,0.2,0.2,0.8","0.8,0.2,0.2,0.2,0.8,0.2,0.2,0.2,0.8","1","",""
"","html-keyboard-response","39","85317","0.0-39.0","3OS4RQUCRA13VIZBZDKSCG8Y0UBFB8","A1VBP1RMKGUXB","3UDTAB6HH6LRO17U79I9TKUGYFV09C","","null","<img src=""img/land1.png"" style=""width:200px; border:14px solid green;"">","null","","","","","","","","","",""
"","image-keyboard-response","40","86446","0.0-40.0","3OS4RQUCRA13VIZBZDKSCG8Y0UBFB8","A1VBP1RMKGUXB","3UDTAB6HH6LRO17U79I9TKUGYFV09C","","1127","img/land5.png","75","1129","2","0","1","1","0.8,0.2,0.2,0.2,0.8,0.2,0.2,0.2,0.8","0.8,0.2,0.2,0.2,0.8,0.2,0.2,0.2,0.8","1","",""
"","html-keyboard-response","41","86754","0.0-41.0","3OS4RQUCRA13VIZBZDKSCG8Y0UBFB8","A1VBP1RMKGUXB","3UDTAB6HH6LRO17U79I9TKUGYFV09C","","null","<img src=""img/land5.png"" style=""width:200px;border:14px solid red;"">","null","","","","","","","","","",""
"","image-keyboard-response","42","87566","0.0-42.0","3OS4RQUCRA13VIZBZDKSCG8Y0UBFB8","A1VBP1RMKGUXB","3UDTAB6HH6LRO17U79I9TKUGYFV09C","","809","img/land3.png","76","811","3","1","3","1","0.8,0.2,0.2,0.2,0.8,0.2,0.2,0.2,0.8","0.8,0.2,0.2,0.2,0.8,0.2,0.2,0.2,0.8","1","",""
"","html-keyboard-response","43","87868","0.0-43.0","3OS4RQUCRA13VIZBZDKSCG8Y0UBFB8","A1VBP1RMKGUXB","3UDTAB6HH6LRO17U79I9TKUGYFV09C","","null","<img src=""img/land3.png"" style=""width:200px; border:14px solid green;"">","null","","","","","","","","","",""
"","image-keyboard-response","44","89013","0.0-44.0","3OS4RQUCRA13VIZBZDKSCG8Y0UBFB8","A1VBP1RMKGUXB","3UDTAB6HH6LRO17U79I9TKUGYFV09C","","1143","img/land1.png","74","1144","1","0","2","1","0.8,0.2,0.2,0.2,0.8,0.2,0.2,0.2,0.8","0.8,0.2,0.2,0.2,0.8,0.2,0.2,0.2,0.8","1","",""
"","html-keyboard-response","45","89314","0.0-45.0","3OS4RQUCRA13VIZBZDKSCG8Y0UBFB8","A1VBP1RMKGUXB","3UDTAB6HH6LRO17U79I9TKUGYFV09C","","null","<img src=""img/land1.png"" style=""width:200px;border:14px solid red;"">","null","","","","","","","","","",""
"","image-keyboard-response","46","90325","0.0-46.0","3OS4RQUCRA13VIZBZDKSCG8Y0UBFB8","A1VBP1RMKGUXB","3UDTAB6HH6LRO17U79I9TKUGYFV09C","","1008","img/land3.png","74","1010","1","0","3","1","0.8,0.2,0.2,0.2,0.8,0.2,0.2,0.2,0.8","0.8,0.2,0.2,0.2,0.8,0.2,0.2,0.2,0.8","1","",""
"","html-keyboard-response","47","90627","0.0-47.0","3OS4RQUCRA13VIZBZDKSCG8Y0UBFB8","A1VBP1RMKGUXB","3UDTAB6HH6LRO17U79I9TKUGYFV09C","","null","<img src=""img/land3.png"" style=""width:200px;border:14px solid red;"">","null","","","","","","","","","",""
"","image-keyboard-response","48","91568","0.0-48.0","3OS4RQUCRA13VIZBZDKSCG8Y0UBFB8","A1VBP1RMKGUXB","3UDTAB6HH6LRO17U79I9TKUGYFV09C","","939","img/land3.png","74","940","1","0","3","1","0.8,0.2,0.2,0.2,0.8,0.2,0.2,0.2,0.8","0.8,0.2,0.2,0.2,0.8,0.2,0.2,0.2,0.8","1","",""
"","html-keyboard-response","49","91870","0.0-49.0","3OS4RQUCRA13VIZBZDKSCG8Y0UBFB8","A1VBP1RMKGUXB","3UDTAB6HH6LRO17U79I9TKUGYFV09C","","null","<img src=""img/land3.png"" style=""width:200px;border:14px solid red;"">","null","","","","","","","","","",""
"","image-keyboard-response","50","92848","0.0-50.0","3OS4RQUCRA13VIZBZDKSCG8Y0UBFB8","A1VBP1RMKGUXB","3UDTAB6HH6LRO17U79I9TKUGYFV09C","","975","img/land5.png","74","977","1","0","1","1","0.8,0.2,0.2,0.2,0.8,0.2,0.2,0.2,0.8","0.8,0.2,0.2,0.2,0.8,0.2,0.2,0.2,0.8","1","",""
"","html-keyboard-response","51","93150","0.0-51.0","3OS4RQUCRA13VIZBZDKSCG8Y0UBFB8","A1VBP1RMKGUXB","3UDTAB6HH6LRO17U79I9TKUGYFV09C","","null","<img src=""img/land5.png"" style=""width:200px;border:14px solid red;"">","null","","","","","","","","","",""
"","image-keyboard-response","52","93869","0.0-52.0","3OS4RQUCRA13VIZBZDKSCG8Y0UBFB8","A1VBP1RMKGUXB","3UDTAB6HH6LRO17U79I9TKUGYFV09C","","700","img/land5.png","74","708","1","1","1","1","0.8,0.2,0.2,0.2,0.8,0.2,0.2,0.2,0.8","0.8,0.2,0.2,0.2,0.8,0.2,0.2,0.2,0.8","1","",""
"","html-keyboard-response","53","94172","0.0-53.0","3OS4RQUCRA13VIZBZDKSCG8Y0UBFB8","A1VBP1RMKGUXB","3UDTAB6HH6LRO17U79I9TKUGYFV09C","","null","<img src=""img/land5.png"" style=""width:200px; border:14px solid green;"">","null","","","","","","","","","",""
"","image-keyboard-response","54","95649","0.0-54.0","3OS4RQUCRA13VIZBZDKSCG8Y0UBFB8","A1VBP1RMKGUXB","3UDTAB6HH6LRO17U79I9TKUGYFV09C","","1475","img/land1.png","75","1476","2","0","2","1","0.8,0.2,0.2,0.2,0.8,0.2,0.2,0.2,0.8","0.8,0.2,0.2,0.2,0.8,0.2,0.2,0.2,0.8","1","",""
"","html-keyboard-response","55","95952","0.0-55.0","3OS4RQUCRA13VIZBZDKSCG8Y0UBFB8","A1VBP1RMKGUXB","3UDTAB6HH6LRO17U79I9TKUGYFV09C","","null","<img src=""img/land1.png"" style=""width:200px;border:14px solid red;"">","null","","","","","","","","","",""
"","image-keyboard-response","56","97147","0.0-56.0","3OS4RQUCRA13VIZBZDKSCG8Y0UBFB8","A1VBP1RMKGUXB","3UDTAB6HH6LRO17U79I9TKUGYFV09C","","1189","img/land3.png","76","1194","3","1","3","1","0.8,0.2,0.2,0.2,0.8,0.2,0.2,0.2,0.8","0.8,0.2,0.2,0.2,0.8,0.2,0.2,0.2,0.8","1","",""
"","html-keyboard-response","57","97450","0.0-57.0","3OS4RQUCRA13VIZBZDKSCG8Y0UBFB8","A1VBP1RMKGUXB","3UDTAB6HH6LRO17U79I9TKUGYFV09C","","null","<img src=""img/land3.png"" style=""width:200px; border:14px solid green;"">","null","","","","","","","","","",""
"","image-keyboard-response","58","98792","0.0-58.0","3OS4RQUCRA13VIZBZDKSCG8Y0UBFB8","A1VBP1RMKGUXB","3UDTAB6HH6LRO17U79I9TKUGYFV09C","","1341","img/land1.png","75","1341","2","1","2","1","0.8,0.2,0.2,0.2,0.8,0.2,0.2,0.2,0.8","0.8,0.2,0.2,0.2,0.8,0.2,0.2,0.2,0.8","1","",""
"","html-keyboard-response","59","99093","0.0-59.0","3OS4RQUCRA13VIZBZDKSCG8Y0UBFB8","A1VBP1RMKGUXB","3UDTAB6HH6LRO17U79I9TKUGYFV09C","","null","<img src=""img/land1.png"" style=""width:200px; border:14px solid green;"">","null","","","","","","","","","",""
"","image-keyboard-response","60","99896","0.0-60.0","3OS4RQUCRA13VIZBZDKSCG8Y0UBFB8","A1VBP1RMKGUXB","3UDTAB6HH6LRO17U79I9TKUGYFV09C","","799","img/land1.png","74","802","1","0","2","1","0.8,0.2,0.2,0.2,0.8,0.2,0.2,0.2,0.8","0.8,0.2,0.2,0.2,0.8,0.2,0.2,0.2,0.8","1","",""
"","html-keyboard-response","61","100198","0.0-61.0","3OS4RQUCRA13VIZBZDKSCG8Y0UBFB8","A1VBP1RMKGUXB","3UDTAB6HH6LRO17U79I9TKUGYFV09C","","null","<img src=""img/land1.png"" style=""width:200px;border:14px solid red;"">","null","","","","","","","","","",""
"","image-keyboard-response","62","101356","0.0-62.0","3OS4RQUCRA13VIZBZDKSCG8Y0UBFB8","A1VBP1RMKGUXB","3UDTAB6HH6LRO17U79I9TKUGYFV09C","","1156","img/land5.png","74","1158","1","1","1","1","0.8,0.2,0.2,0.2,0.8,0.2,0.2,0.2,0.8","0.8,0.2,0.2,0.2,0.8,0.2,0.2,0.2,0.8","1","",""
"","html-keyboard-response","63","101658","0.0-63.0","3OS4RQUCRA13VIZBZDKSCG8Y0UBFB8","A1VBP1RMKGUXB","3UDTAB6HH6LRO17U79I9TKUGYFV09C","","null","<img src=""img/land5.png"" style=""width:200px; border:14px solid green;"">","null","","","","","","","","","",""
"","image-keyboard-response","64","102978","0.0-64.0","3OS4RQUCRA13VIZBZDKSCG8Y0UBFB8","A1VBP1RMKGUXB","3UDTAB6HH6LRO17U79I9TKUGYFV09C","","1317","img/land1.png","74","1319","1","0","2","1","0.8,0.2,0.2,0.2,0.8,0.2,0.2,0.2,0.8","0.8,0.2,0.2,0.2,0.8,0.2,0.2,0.2,0.8","1","",""
"","html-keyboard-response","65","103280","0.0-65.0","3OS4RQUCRA13VIZBZDKSCG8Y0UBFB8","A1VBP1RMKGUXB","3UDTAB6HH6LRO17U79I9TKUGYFV09C","","null","<img src=""img/land1.png"" style=""width:200px;border:14px solid red;"">","null","","","","","","","","","",""
"","image-keyboard-response","66","104245","0.0-66.0","3OS4RQUCRA13VIZBZDKSCG8Y0UBFB8","A1VBP1RMKGUXB","3UDTAB6HH6LRO17U79I9TKUGYFV09C","","963","img/land1.png","74","965","1","0","2","1","0.8,0.2,0.2,0.2,0.8,0.2,0.2,0.2,0.8","0.8,0.2,0.2,0.2,0.8,0.2,0.2,0.2,0.8","1","",""
"","html-keyboard-response","67","104547","0.0-67.0","3OS4RQUCRA13VIZBZDKSCG8Y0UBFB8","A1VBP1RMKGUXB","3UDTAB6HH6LRO17U79I9TKUGYFV09C","","null","<img src=""img/land1.png"" style=""width:200px;border:14px solid red;"">","null","","","","","","","","","",""
"","image-keyboard-response","68","105647","0.0-68.0","3OS4RQUCRA13VIZBZDKSCG8Y0UBFB8","A1VBP1RMKGUXB","3UDTAB6HH6LRO17U79I9TKUGYFV09C","","1098","img/land5.png","75","1099","2","1","1","1","0.8,0.2,0.2,0.2,0.8,0.2,0.2,0.2,0.8","0.8,0.2,0.2,0.2,0.8,0.2,0.2,0.2,0.8","1","",""
"","html-keyboard-response","69","105951","0.0-69.0","3OS4RQUCRA13VIZBZDKSCG8Y0UBFB8","A1VBP1RMKGUXB","3UDTAB6HH6LRO17U79I9TKUGYFV09C","","null","<img src=""img/land5.png"" style=""width:200px; border:14px solid green;"">","null","","","","","","","","","",""
"","image-keyboard-response","70","107240","0.0-70.0","3OS4RQUCRA13VIZBZDKSCG8Y0UBFB8","A1VBP1RMKGUXB","3UDTAB6HH6LRO17U79I9TKUGYFV09C","","1286","img/land1.png","74","1288","1","0","2","1","0.8,0.2,0.2,0.2,0.8,0.2,0.2,0.2,0.8","0.8,0.2,0.2,0.2,0.8,0.2,0.2,0.2,0.8","1","",""
"","html-keyboard-response","71","107562","0.0-71.0","3OS4RQUCRA13VIZBZDKSCG8Y0UBFB8","A1VBP1RMKGUXB","3UDTAB6HH6LRO17U79I9TKUGYFV09C","","null","<img src=""img/land1.png"" style=""width:200px;border:14px solid red;"">","null","","","","","","","","","",""
"","image-keyboard-response","72","109068","0.0-72.0","3OS4RQUCRA13VIZBZDKSCG8Y0UBFB8","A1VBP1RMKGUXB","3UDTAB6HH6LRO17U79I9TKUGYFV09C","","1504","img/land3.png","75","1507","2","0","3","1","0.8,0.2,0.2,0.2,0.8,0.2,0.2,0.2,0.8","0.8,0.2,0.2,0.2,0.8,0.2,0.2,0.2,0.8","1","",""
"","html-keyboard-response","73","109371","0.0-73.0","3OS4RQUCRA13VIZBZDKSCG8Y0UBFB8","A1VBP1RMKGUXB","3UDTAB6HH6LRO17U79I9TKUGYFV09C","","null","<img src=""img/land3.png"" style=""width:200px;border:14px solid red;"">","null","","","","","","","","","",""
"","image-keyboard-response","74","111185","0.0-74.0","3OS4RQUCRA13VIZBZDKSCG8Y0UBFB8","A1VBP1RMKGUXB","3UDTAB6HH6LRO17U79I9TKUGYFV09C","","1811","img/land5.png","76","1813","3","0","1","1","0.8,0.2,0.2,0.2,0.8,0.2,0.2,0.2,0.8","0.8,0.2,0.2,0.2,0.8,0.2,0.2,0.2,0.8","1","",""
"","html-keyboard-response","75","111514","0.0-75.0","3OS4RQUCRA13VIZBZDKSCG8Y0UBFB8","A1VBP1RMKGUXB","3UDTAB6HH6LRO17U79I9TKUGYFV09C","","null","<img src=""img/land5.png"" style=""width:200px;border:14px solid red;"">","null","","","","","","","","","",""
"","image-keyboard-response","76","112665","0.0-76.0","3OS4RQUCRA13VIZBZDKSCG8Y0UBFB8","A1VBP1RMKGUXB","3UDTAB6HH6LRO17U79I9TKUGYFV09C","","1149","img/land5.png","76","1150","3","0","1","1","0.8,0.2,0.2,0.2,0.8,0.2,0.2,0.2,0.8","0.8,0.2,0.2,0.2,0.8,0.2,0.2,0.2,0.8","1","",""
"","html-keyboard-response","77","112967","0.0-77.0","3OS4RQUCRA13VIZBZDKSCG8Y0UBFB8","A1VBP1RMKGUXB","3UDTAB6HH6LRO17U79I9TKUGYFV09C","","null","<img src=""img/land5.png"" style=""width:200px;border:14px solid red;"">","null","","","","","","","","","",""
"","image-keyboard-response","78","114491","0.0-78.0","3OS4RQUCRA13VIZBZDKSCG8Y0UBFB8","A1VBP1RMKGUXB","3UDTAB6HH6LRO17U79I9TKUGYFV09C","","1522","img/land3.png","75","1524","2","0","3","1","0.8,0.2,0.2,0.2,0.8,0.2,0.2,0.2,0.8","0.8,0.2,0.2,0.2,0.8,0.2,0.2,0.2,0.8","1","",""
"","html-keyboard-response","79","114793","0.0-79.0","3OS4RQUCRA13VIZBZDKSCG8Y0UBFB8","A1VBP1RMKGUXB","3UDTAB6HH6LRO17U79I9TKUGYFV09C","","null","<img src=""img/land3.png"" style=""width:200px;border:14px solid red;"">","null","","","","","","","","","",""
"","image-keyboard-response","80","115876","0.0-80.0","3OS4RQUCRA13VIZBZDKSCG8Y0UBFB8","A1VBP1RMKGUXB","3UDTAB6HH6LRO17U79I9TKUGYFV09C","","1079","img/land1.png","74","1082","1","0","2","1","0.8,0.2,0.2,0.2,0.8,0.2,0.2,0.2,0.8","0.8,0.2,0.2,0.2,0.8,0.2,0.2,0.2,0.8","1","",""
"","html-keyboard-response","81","116180","0.0-81.0","3OS4RQUCRA13VIZBZDKSCG8Y0UBFB8","A1VBP1RMKGUXB","3UDTAB6HH6LRO17U79I9TKUGYFV09C","","null","<img src=""img/land1.png"" style=""width:200px;border:14px solid red;"">","null","","","","","","","","","",""
"","image-keyboard-response","82","117125","0.0-82.0","3OS4RQUCRA13VIZBZDKSCG8Y0UBFB8","A1VBP1RMKGUXB","3UDTAB6HH6LRO17U79I9TKUGYFV09C","","944","img/land1.png","74","945","1","0","2","1","0.8,0.2,0.2,0.2,0.8,0.2,0.2,0.2,0.8","0.8,0.2,0.2,0.2,0.8,0.2,0.2,0.2,0.8","1","",""
"","html-keyboard-response","83","117428","0.0-83.0","3OS4RQUCRA13VIZBZDKSCG8Y0UBFB8","A1VBP1RMKGUXB","3UDTAB6HH6LRO17U79I9TKUGYFV09C","","null","<img src=""img/land1.png"" style=""width:200px;border:14px solid red;"">","null","","","","","","","","","",""
"","image-keyboard-response","84","118736","0.0-84.0","3OS4RQUCRA13VIZBZDKSCG8Y0UBFB8","A1VBP1RMKGUXB","3UDTAB6HH6LRO17U79I9TKUGYFV09C","","1306","img/land5.png","76","1308","3","1","1","1","0.8,0.2,0.2,0.2,0.8,0.2,0.2,0.2,0.8","0.8,0.2,0.2,0.2,0.8,0.2,0.2,0.2,0.8","1","",""
"","html-keyboard-response","85","119037","0.0-85.0","3OS4RQUCRA13VIZBZDKSCG8Y0UBFB8","A1VBP1RMKGUXB","3UDTAB6HH6LRO17U79I9TKUGYFV09C","","null","<img src=""img/land5.png"" style=""width:200px; border:14px solid green;"">","null","","","","","","","","","",""
"","image-keyboard-response","86","120176","0.0-86.0","3OS4RQUCRA13VIZBZDKSCG8Y0UBFB8","A1VBP1RMKGUXB","3UDTAB6HH6LRO17U79I9TKUGYFV09C","","1136","img/land5.png","75","1138","2","0","1","1","0.8,0.2,0.2,0.2,0.8,0.2,0.2,0.2,0.8","0.8,0.2,0.2,0.2,0.8,0.2,0.2,0.2,0.8","1","",""
"","html-keyboard-response","87","120478","0.0-87.0","3OS4RQUCRA13VIZBZDKSCG8Y0UBFB8","A1VBP1RMKGUXB","3UDTAB6HH6LRO17U79I9TKUGYFV09C","","null","<img src=""img/land5.png"" style=""width:200px;border:14px solid red;"">","null","","","","","","","","","",""
"","image-keyboard-response","88","121835","0.0-88.0","3OS4RQUCRA13VIZBZDKSCG8Y0UBFB8","A1VBP1RMKGUXB","3UDTAB6HH6LRO17U79I9TKUGYFV09C","","1356","img/land3.png","76","1357","3","1","3","1","0.8,0.2,0.2,0.2,0.8,0.2,0.2,0.2,0.8","0.8,0.2,0.2,0.2,0.8,0.2,0.2,0.2,0.8","1","",""
"","html-keyboard-response","89","122146","0.0-89.0","3OS4RQUCRA13VIZBZDKSCG8Y0UBFB8","A1VBP1RMKGUXB","3UDTAB6HH6LRO17U79I9TKUGYFV09C","","null","<img src=""img/land3.png"" style=""width:200px; border:14px solid green;"">","null","","","","","","","","","",""
"","image-keyboard-response","90","123326","0.0-90.0","3OS4RQUCRA13VIZBZDKSCG8Y0UBFB8","A1VBP1RMKGUXB","3UDTAB6HH6LRO17U79I9TKUGYFV09C","","1178","img/land1.png","74","1180","1","1","2","1","0.8,0.2,0.2,0.2,0.8,0.2,0.2,0.2,0.8","0.8,0.2,0.2,0.2,0.8,0.2,0.2,0.2,0.8","1","",""
"","html-keyboard-response","91","123627","0.0-91.0","3OS4RQUCRA13VIZBZDKSCG8Y0UBFB8","A1VBP1RMKGUXB","3UDTAB6HH6LRO17U79I9TKUGYFV09C","","null","<img src=""img/land1.png"" style=""width:200px; border:14px solid green;"">","null","","","","","","","","","",""
"","image-keyboard-response","92","125176","0.0-92.0","3OS4RQUCRA13VIZBZDKSCG8Y0UBFB8","A1VBP1RMKGUXB","3UDTAB6HH6LRO17U79I9TKUGYFV09C","","1548","img/land5.png","76","1550","3","0","1","1","0.8,0.2,0.2,0.2,0.8,0.2,0.2,0.2,0.8","0.8,0.2,0.2,0.2,0.8,0.2,0.2,0.2,0.8","1","",""
"","html-keyboard-response","93","125479","0.0-93.0","3OS4RQUCRA13VIZBZDKSCG8Y0UBFB8","A1VBP1RMKGUXB","3UDTAB6HH6LRO17U79I9TKUGYFV09C","","null","<img src=""img/land5.png"" style=""width:200px;border:14px solid red;"">","null","","","","","","","","","",""
"","image-keyboard-response","94","126677","0.0-94.0","3OS4RQUCRA13VIZBZDKSCG8Y0UBFB8","A1VBP1RMKGUXB","3UDTAB6HH6LRO17U79I9TKUGYFV09C","","1196","img/land1.png","74","1197","1","0","2","1","0.8,0.2,0.2,0.2,0.8,0.2,0.2,0.2,0.8","0.8,0.2,0.2,0.2,0.8,0.2,0.2,0.2,0.8","1","",""
"","html-keyboard-response","95","126979","0.0-95.0","3OS4RQUCRA13VIZBZDKSCG8Y0UBFB8","A1VBP1RMKGUXB","3UDTAB6HH6LRO17U79I9TKUGYFV09C","","null","<img src=""img/land1.png"" style=""width:200px;border:14px solid red;"">","null","","","","","","","","","",""
"","image-keyboard-response","96","127795","0.0-96.0","3OS4RQUCRA13VIZBZDKSCG8Y0UBFB8","A1VBP1RMKGUXB","3UDTAB6HH6LRO17U79I9TKUGYFV09C","","814","img/land1.png","74","815","1","0","2","1","0.8,0.2,0.2,0.2,0.8,0.2,0.2,0.2,0.8","0.8,0.2,0.2,0.2,0.8,0.2,0.2,0.2,0.8","1","",""
"","html-keyboard-response","97","128098","0.0-97.0","3OS4RQUCRA13VIZBZDKSCG8Y0UBFB8","A1VBP1RMKGUXB","3UDTAB6HH6LRO17U79I9TKUGYFV09C","","null","<img src=""img/land1.png"" style=""width:200px;border:14px solid red;"">","null","","","","","","","","","",""
"","image-keyboard-response","98","129327","0.0-98.0","3OS4RQUCRA13VIZBZDKSCG8Y0UBFB8","A1VBP1RMKGUXB","3UDTAB6HH6LRO17U79I9TKUGYFV09C","","1226","img/land3.png","75","1229","2","0","3","1","0.8,0.2,0.2,0.2,0.8,0.2,0.2,0.2,0.8","0.8,0.2,0.2,0.2,0.8,0.2,0.2,0.2,0.8","1","",""
"","html-keyboard-response","99","129631","0.0-99.0","3OS4RQUCRA13VIZBZDKSCG8Y0UBFB8","A1VBP1RMKGUXB","3UDTAB6HH6LRO17U79I9TKUGYFV09C","","null","<img src=""img/land3.png"" style=""width:200px;border:14px solid red;"">","null","","","","","","","","","",""
"","image-keyboard-response","100","130808","0.0-100.0","3OS4RQUCRA13VIZBZDKSCG8Y0UBFB8","A1VBP1RMKGUXB","3UDTAB6HH6LRO17U79I9TKUGYFV09C","","1174","img/land1.png","74","1176","1","1","2","1","0.8,0.2,0.2,0.2,0.8,0.2,0.2,0.2,0.8","0.8,0.2,0.2,0.2,0.8,0.2,0.2,0.2,0.8","1","",""
"","html-keyboard-response","101","131110","0.0-101.0","3OS4RQUCRA13VIZBZDKSCG8Y0UBFB8","A1VBP1RMKGUXB","3UDTAB6HH6LRO17U79I9TKUGYFV09C","","null","<img src=""img/land1.png"" style=""width:200px; border:14px solid green;"">","null","","","","","","","","","",""
"","image-keyboard-response","102","132397","0.0-102.0","3OS4RQUCRA13VIZBZDKSCG8Y0UBFB8","A1VBP1RMKGUXB","3UDTAB6HH6LRO17U79I9TKUGYFV09C","","1285","img/land5.png","76","1287","3","0","1","1","0.8,0.2,0.2,0.2,0.8,0.2,0.2,0.2,0.8","0.8,0.2,0.2,0.2,0.8,0.2,0.2,0.2,0.8","1","",""
"","html-keyboard-response","103","132699","0.0-103.0","3OS4RQUCRA13VIZBZDKSCG8Y0UBFB8","A1VBP1RMKGUXB","3UDTAB6HH6LRO17U79I9TKUGYFV09C","","null","<img src=""img/land5.png"" style=""width:200px;border:14px solid red;"">","null","","","","","","","","","",""
"","image-keyboard-response","104","134180","0.0-104.0","3OS4RQUCRA13VIZBZDKSCG8Y0UBFB8","A1VBP1RMKGUXB","3UDTAB6HH6LRO17U79I9TKUGYFV09C","","1478","img/land3.png","76","1480","3","1","3","1","0.8,0.2,0.2,0.2,0.8,0.2,0.2,0.2,0.8","0.8,0.2,0.2,0.2,0.8,0.2,0.2,0.2,0.8","1","",""
"","html-keyboard-response","105","134481","0.0-105.0","3OS4RQUCRA13VIZBZDKSCG8Y0UBFB8","A1VBP1RMKGUXB","3UDTAB6HH6LRO17U79I9TKUGYFV09C","","null","<img src=""img/land3.png"" style=""width:200px; border:14px solid green;"">","null","","","","","","","","","",""
"","image-keyboard-response","106","135618","0.0-106.0","3OS4RQUCRA13VIZBZDKSCG8Y0UBFB8","A1VBP1RMKGUXB","3UDTAB6HH6LRO17U79I9TKUGYFV09C","","1133","img/land3.png","75","1134","2","0","3","1","0.8,0.2,0.2,0.2,0.8,0.2,0.2,0.2,0.8","0.8,0.2,0.2,0.2,0.8,0.2,0.2,0.2,0.8","1","",""
"","html-keyboard-response","107","135922","0.0-107.0","3OS4RQUCRA13VIZBZDKSCG8Y0UBFB8","A1VBP1RMKGUXB","3UDTAB6HH6LRO17U79I9TKUGYFV09C","","null","<img src=""img/land3.png"" style=""width:200px;border:14px solid red;"">","null","","","","","","","","","",""
"","image-keyboard-response","108","136815","0.0-108.0","3OS4RQUCRA13VIZBZDKSCG8Y0UBFB8","A1VBP1RMKGUXB","3UDTAB6HH6LRO17U79I9TKUGYFV09C","","892","img/land3.png","75","894","2","0","3","1","0.8,0.2,0.2,0.2,0.8,0.2,0.2,0.2,0.8","0.8,0.2,0.2,0.2,0.8,0.2,0.2,0.2,0.8","1","",""
"","html-keyboard-response","109","137118","0.0-109.0","3OS4RQUCRA13VIZBZDKSCG8Y0UBFB8","A1VBP1RMKGUXB","3UDTAB6HH6LRO17U79I9TKUGYFV09C","","null","<img src=""img/land3.png"" style=""width:200px;border:14px solid red;"">","null","","","","","","","","","",""
"","image-keyboard-response","110","138386","0.0-110.0","3OS4RQUCRA13VIZBZDKSCG8Y0UBFB8","A1VBP1RMKGUXB","3UDTAB6HH6LRO17U79I9TKUGYFV09C","","1265","img/land5.png","76","1267","3","0","1","1","0.8,0.2,0.2,0.2,0.8,0.2,0.2,0.2,0.8","0.8,0.2,0.2,0.2,0.8,0.2,0.2,0.2,0.8","1","",""
"","html-keyboard-response","111","138688","0.0-111.0","3OS4RQUCRA13VIZBZDKSCG8Y0UBFB8","A1VBP1RMKGUXB","3UDTAB6HH6LRO17U79I9TKUGYFV09C","","null","<img src=""img/land5.png"" style=""width:200px;border:14px solid red;"">","null","","","","","","","","","",""
"","image-keyboard-response","112","139747","0.0-112.0","3OS4RQUCRA13VIZBZDKSCG8Y0UBFB8","A1VBP1RMKGUXB","3UDTAB6HH6LRO17U79I9TKUGYFV09C","","1058","img/land1.png","74","1058","1","0","2","1","0.8,0.2,0.2,0.2,0.8,0.2,0.2,0.2,0.8","0.8,0.2,0.2,0.2,0.8,0.2,0.2,0.2,0.8","1","",""
"","html-keyboard-response","113","140050","0.0-113.0","3OS4RQUCRA13VIZBZDKSCG8Y0UBFB8","A1VBP1RMKGUXB","3UDTAB6HH6LRO17U79I9TKUGYFV09C","","null","<img src=""img/land1.png"" style=""width:200px;border:14px solid red;"">","null","","","","","","","","","",""
"","image-keyboard-response","114","141298","0.0-114.0","3OS4RQUCRA13VIZBZDKSCG8Y0UBFB8","A1VBP1RMKGUXB","3UDTAB6HH6LRO17U79I9TKUGYFV09C","","1247","img/land3.png","76","1248","3","1","3","1","0.8,0.2,0.2,0.2,0.8,0.2,0.2,0.2,0.8","0.8,0.2,0.2,0.2,0.8,0.2,0.2,0.2,0.8","1","",""
"","html-keyboard-response","115","141601","0.0-115.0","3OS4RQUCRA13VIZBZDKSCG8Y0UBFB8","A1VBP1RMKGUXB","3UDTAB6HH6LRO17U79I9TKUGYFV09C","","null","<img src=""img/land3.png"" style=""width:200px; border:14px solid green;"">","null","","","","","","","","","",""
"","image-keyboard-response","116","142334","0.0-116.0","3OS4RQUCRA13VIZBZDKSCG8Y0UBFB8","A1VBP1RMKGUXB","3UDTAB6HH6LRO17U79I9TKUGYFV09C","","731","img/land3.png","75","732","2","0","3","1","0.8,0.2,0.2,0.2,0.8,0.2,0.2,0.2,0.8","0.8,0.2,0.2,0.2,0.8,0.2,0.2,0.2,0.8","1","",""
"","html-keyboard-response","117","142636","0.0-117.0","3OS4RQUCRA13VIZBZDKSCG8Y0UBFB8","A1VBP1RMKGUXB","3UDTAB6HH6LRO17U79I9TKUGYFV09C","","null","<img src=""img/land3.png"" style=""width:200px;border:14px solid red;"">","null","","","","","","","","","",""
"","image-keyboard-response","118","143969","0.0-118.0","3OS4RQUCRA13VIZBZDKSCG8Y0UBFB8","A1VBP1RMKGUXB","3UDTAB6HH6LRO17U79I9TKUGYFV09C","","1331","img/land1.png","74","1332","1","0","2","1","0.8,0.2,0.2,0.2,0.8,0.2,0.2,0.2,0.8","0.8,0.2,0.2,0.2,0.8,0.2,0.2,0.2,0.8","1","",""
"","html-keyboard-response","119","144271","0.0-119.0","3OS4RQUCRA13VIZBZDKSCG8Y0UBFB8","A1VBP1RMKGUXB","3UDTAB6HH6LRO17U79I9TKUGYFV09C","","null","<img src=""img/land1.png"" style=""width:200px;border:14px solid red;"">","null","","","","","","","","","",""
"","image-keyboard-response","120","145531","0.0-120.0","3OS4RQUCRA13VIZBZDKSCG8Y0UBFB8","A1VBP1RMKGUXB","3UDTAB6HH6LRO17U79I9TKUGYFV09C","","1257","img/land5.png","76","1259","3","0","1","1","0.8,0.2,0.2,0.2,0.8,0.2,0.2,0.2,0.8","0.8,0.2,0.2,0.2,0.8,0.2,0.2,0.2,0.8","1","",""
"","html-keyboard-response","121","145832","0.0-121.0","3OS4RQUCRA13VIZBZDKSCG8Y0UBFB8","A1VBP1RMKGUXB","3UDTAB6HH6LRO17U79I9TKUGYFV09C","","null","<img src=""img/land5.png"" style=""width:200px;border:14px solid red;"">","null","","","","","","","","","",""
"","image-keyboard-response","122","147086","0.0-122.0","3OS4RQUCRA13VIZBZDKSCG8Y0UBFB8","A1VBP1RMKGUXB","3UDTAB6HH6LRO17U79I9TKUGYFV09C","","1252","img/land1.png","74","1253","1","0","2","1","0.8,0.2,0.2,0.2,0.8,0.2,0.2,0.2,0.8","0.8,0.2,0.2,0.2,0.8,0.2,0.2,0.2,0.8","1","",""
"","html-keyboard-response","123","147388","0.0-123.0","3OS4RQUCRA13VIZBZDKSCG8Y0UBFB8","A1VBP1RMKGUXB","3UDTAB6HH6LRO17U79I9TKUGYFV09C","","null","<img src=""img/land1.png"" style=""width:200px;border:14px solid red;"">","null","","","","","","","","","",""
"","image-keyboard-response","124","148328","0.0-124.0","3OS4RQUCRA13VIZBZDKSCG8Y0UBFB8","A1VBP1RMKGUXB","3UDTAB6HH6LRO17U79I9TKUGYFV09C","","938","img/land3.png","75","940","2","0","3","1","0.8,0.2,0.2,0.2,0.8,0.2,0.2,0.2,0.8","0.8,0.2,0.2,0.2,0.8,0.2,0.2,0.2,0.8","1","",""
"","html-keyboard-response","125","148631","0.0-125.0","3OS4RQUCRA13VIZBZDKSCG8Y0UBFB8","A1VBP1RMKGUXB","3UDTAB6HH6LRO17U79I9TKUGYFV09C","","null","<img src=""img/land3.png"" style=""width:200px;border:14px solid red;"">","null","","","","","","","","","",""
"","image-keyboard-response","126","149816","0.0-126.0","3OS4RQUCRA13VIZBZDKSCG8Y0UBFB8","A1VBP1RMKGUXB","3UDTAB6HH6LRO17U79I9TKUGYFV09C","","1183","img/land5.png","76","1185","3","0","1","1","0.8,0.2,0.2,0.2,0.8,0.2,0.2,0.2,0.8","0.8,0.2,0.2,0.2,0.8,0.2,0.2,0.2,0.8","1","",""
"","html-keyboard-response","127","150119","0.0-127.0","3OS4RQUCRA13VIZBZDKSCG8Y0UBFB8","A1VBP1RMKGUXB","3UDTAB6HH6LRO17U79I9TKUGYFV09C","","null","<img src=""img/land5.png"" style=""width:200px;border:14px solid red;"">","null","","","","","","","","","",""
"","image-keyboard-response","128","151650","0.0-128.0","3OS4RQUCRA13VIZBZDKSCG8Y0UBFB8","A1VBP1RMKGUXB","3UDTAB6HH6LRO17U79I9TKUGYFV09C","","1527","img/land3.png","75","1529","2","1","3","1","0.8,0.2,0.2,0.2,0.8,0.2,0.2,0.2,0.8","0.8,0.2,0.2,0.2,0.8,0.2,0.2,0.2,0.8","1","",""
"","html-keyboard-response","129","151951","0.0-129.0","3OS4RQUCRA13VIZBZDKSCG8Y0UBFB8","A1VBP1RMKGUXB","3UDTAB6HH6LRO17U79I9TKUGYFV09C","","null","<img src=""img/land3.png"" style=""width:200px; border:14px solid green;"">","null","","","","","","","","","",""
"","image-keyboard-response","130","153006","0.0-130.0","3OS4RQUCRA13VIZBZDKSCG8Y0UBFB8","A1VBP1RMKGUXB","3UDTAB6HH6LRO17U79I9TKUGYFV09C","","1052","img/land1.png","74","1054","1","0","2","1","0.8,0.2,0.2,0.2,0.8,0.2,0.2,0.2,0.8","0.8,0.2,0.2,0.2,0.8,0.2,0.2,0.2,0.8","1","",""
"","html-keyboard-response","131","153308","0.0-131.0","3OS4RQUCRA13VIZBZDKSCG8Y0UBFB8","A1VBP1RMKGUXB","3UDTAB6HH6LRO17U79I9TKUGYFV09C","","null","<img src=""img/land1.png"" style=""width:200px;border:14px solid red;"">","null","","","","","","","","","",""
"","image-keyboard-response","132","155165","0.0-132.0","3OS4RQUCRA13VIZBZDKSCG8Y0UBFB8","A1VBP1RMKGUXB","3UDTAB6HH6LRO17U79I9TKUGYFV09C","","1854","img/land3.png","75","1856","2","0","3","1","0.8,0.2,0.2,0.2,0.8,0.2,0.2,0.2,0.8","0.8,0.2,0.2,0.2,0.8,0.2,0.2,0.2,0.8","1","",""
"","html-keyboard-response","133","155471","0.0-133.0","3OS4RQUCRA13VIZBZDKSCG8Y0UBFB8","A1VBP1RMKGUXB","3UDTAB6HH6LRO17U79I9TKUGYFV09C","","null","<img src=""img/land3.png"" style=""width:200px;border:14px solid red;"">","null","","","","","","","","","",""
"","image-keyboard-response","134","156576","0.0-134.0","3OS4RQUCRA13VIZBZDKSCG8Y0UBFB8","A1VBP1RMKGUXB","3UDTAB6HH6LRO17U79I9TKUGYFV09C","","1103","img/land1.png","74","1104","1","0","2","1","0.8,0.2,0.2,0.2,0.8,0.2,0.2,0.2,0.8","0.8,0.2,0.2,0.2,0.8,0.2,0.2,0.2,0.8","1","",""
"","html-keyboard-response","135","156878","0.0-135.0","3OS4RQUCRA13VIZBZDKSCG8Y0UBFB8","A1VBP1RMKGUXB","3UDTAB6HH6LRO17U79I9TKUGYFV09C","","null","<img src=""img/land1.png"" style=""width:200px;border:14px solid red;"">","null","","","","","","","","","",""
"","image-keyboard-response","136","157799","0.0-136.0","3OS4RQUCRA13VIZBZDKSCG8Y0UBFB8","A1VBP1RMKGUXB","3UDTAB6HH6LRO17U79I9TKUGYFV09C","","919","img/land1.png","74","920","1","0","2","1","0.8,0.2,0.2,0.2,0.8,0.2,0.2,0.2,0.8","0.8,0.2,0.2,0.2,0.8,0.2,0.2,0.2,0.8","1","",""
"","html-keyboard-response","137","158103","0.0-137.0","3OS4RQUCRA13VIZBZDKSCG8Y0UBFB8","A1VBP1RMKGUXB","3UDTAB6HH6LRO17U79I9TKUGYFV09C","","null","<img src=""img/land1.png"" style=""width:200px;border:14px solid red;"">","null","","","","","","","","","",""
"","image-keyboard-response","138","159231","0.0-138.0","3OS4RQUCRA13VIZBZDKSCG8Y0UBFB8","A1VBP1RMKGUXB","3UDTAB6HH6LRO17U79I9TKUGYFV09C","","1123","img/land5.png","76","1126","3","0","1","1","0.8,0.2,0.2,0.2,0.8,0.2,0.2,0.2,0.8","0.8,0.2,0.2,0.2,0.8,0.2,0.2,0.2,0.8","1","",""
"","html-keyboard-response","139","159532","0.0-139.0","3OS4RQUCRA13VIZBZDKSCG8Y0UBFB8","A1VBP1RMKGUXB","3UDTAB6HH6LRO17U79I9TKUGYFV09C","","null","<img src=""img/land5.png"" style=""width:200px;border:14px solid red;"">","null","","","","","","","","","",""
"","image-keyboard-response","140","160486","0.0-140.0","3OS4RQUCRA13VIZBZDKSCG8Y0UBFB8","A1VBP1RMKGUXB","3UDTAB6HH6LRO17U79I9TKUGYFV09C","","953","img/land5.png","76","954","3","0","1","1","0.8,0.2,0.2,0.2,0.8,0.2,0.2,0.2,0.8","0.8,0.2,0.2,0.2,0.8,0.2,0.2,0.2,0.8","1","",""
"","html-keyboard-response","141","160789","0.0-141.0","3OS4RQUCRA13VIZBZDKSCG8Y0UBFB8","A1VBP1RMKGUXB","3UDTAB6HH6LRO17U79I9TKUGYFV09C","","null","<img src=""img/land5.png"" style=""width:200px;border:14px solid red;"">","null","","","","","","","","","",""
"","image-keyboard-response","142","161939","0.0-142.0","3OS4RQUCRA13VIZBZDKSCG8Y0UBFB8","A1VBP1RMKGUXB","3UDTAB6HH6LRO17U79I9TKUGYFV09C","","1148","img/land3.png","75","1149","2","0","3","1","0.8,0.2,0.2,0.2,0.8,0.2,0.2,0.2,0.8","0.8,0.2,0.2,0.2,0.8,0.2,0.2,0.2,0.8","1","",""
"","html-keyboard-response","143","162242","0.0-143.0","3OS4RQUCRA13VIZBZDKSCG8Y0UBFB8","A1VBP1RMKGUXB","3UDTAB6HH6LRO17U79I9TKUGYFV09C","","null","<img src=""img/land3.png"" style=""width:200px;border:14px solid red;"">","null","","","","","","","","","",""
"","image-keyboard-response","144","163385","0.0-144.0","3OS4RQUCRA13VIZBZDKSCG8Y0UBFB8","A1VBP1RMKGUXB","3UDTAB6HH6LRO17U79I9TKUGYFV09C","","1142","img/land5.png","76","1143","3","1","1","1","0.8,0.2,0.2,0.2,0.8,0.2,0.2,0.2,0.8","0.8,0.2,0.2,0.2,0.8,0.2,0.2,0.2,0.8","1","",""
"","html-keyboard-response","145","163687","0.0-145.0","3OS4RQUCRA13VIZBZDKSCG8Y0UBFB8","A1VBP1RMKGUXB","3UDTAB6HH6LRO17U79I9TKUGYFV09C","","null","<img src=""img/land5.png"" style=""width:200px; border:14px solid green;"">","null","","","","","","","","","",""
"","image-keyboard-response","146","164697","0.0-146.0","3OS4RQUCRA13VIZBZDKSCG8Y0UBFB8","A1VBP1RMKGUXB","3UDTAB6HH6LRO17U79I9TKUGYFV09C","","1007","img/land5.png","76","1009","3","0","1","1","0.8,0.2,0.2,0.2,0.8,0.2,0.2,0.2,0.8","0.8,0.2,0.2,0.2,0.8,0.2,0.2,0.2,0.8","1","",""
"","html-keyboard-response","147","165000","0.0-147.0","3OS4RQUCRA13VIZBZDKSCG8Y0UBFB8","A1VBP1RMKGUXB","3UDTAB6HH6LRO17U79I9TKUGYFV09C","","null","<img src=""img/land5.png"" style=""width:200px;border:14px solid red;"">","null","","","","","","","","","",""
"","image-keyboard-response","148","166087","0.0-148.0","3OS4RQUCRA13VIZBZDKSCG8Y0UBFB8","A1VBP1RMKGUXB","3UDTAB6HH6LRO17U79I9TKUGYFV09C","","1086","img/land5.png","76","1087","3","0","1","1","0.8,0.2,0.2,0.2,0.8,0.2,0.2,0.2,0.8","0.8,0.2,0.2,0.2,0.8,0.2,0.2,0.2,0.8","1","",""
"","html-keyboard-response","149","166390","0.0-149.0","3OS4RQUCRA13VIZBZDKSCG8Y0UBFB8","A1VBP1RMKGUXB","3UDTAB6HH6LRO17U79I9TKUGYFV09C","","null","<img src=""img/land5.png"" style=""width:200px;border:14px solid red;"">","null","","","","","","","","","",""
"","image-keyboard-response","150","167416","0.0-150.0","3OS4RQUCRA13VIZBZDKSCG8Y0UBFB8","A1VBP1RMKGUXB","3UDTAB6HH6LRO17U79I9TKUGYFV09C","","1024","img/land1.png","74","1025","1","0","2","1","0.8,0.2,0.2,0.2,0.8,0.2,0.2,0.2,0.8","0.8,0.2,0.2,0.2,0.8,0.2,0.2,0.2,0.8","1","",""
"","html-keyboard-response","151","167724","0.0-151.0","3OS4RQUCRA13VIZBZDKSCG8Y0UBFB8","A1VBP1RMKGUXB","3UDTAB6HH6LRO17U79I9TKUGYFV09C","","null","<img src=""img/land1.png"" style=""width:200px;border:14px solid red;"">","null","","","","","","","","","",""
"","image-keyboard-response","152","168575","0.0-152.0","3OS4RQUCRA13VIZBZDKSCG8Y0UBFB8","A1VBP1RMKGUXB","3UDTAB6HH6LRO17U79I9TKUGYFV09C","","849","img/land1.png","74","850","1","0","2","1","0.8,0.2,0.2,0.2,0.8,0.2,0.2,0.2,0.8","0.8,0.2,0.2,0.2,0.8,0.2,0.2,0.2,0.8","1","",""
"","html-keyboard-response","153","168878","0.0-153.0","3OS4RQUCRA13VIZBZDKSCG8Y0UBFB8","A1VBP1RMKGUXB","3UDTAB6HH6LRO17U79I9TKUGYFV09C","","null","<img src=""img/land1.png"" style=""width:200px;border:14px solid red;"">","null","","","","","","","","","",""
"","image-keyboard-response","154","170348","0.0-154.0","3OS4RQUCRA13VIZBZDKSCG8Y0UBFB8","A1VBP1RMKGUXB","3UDTAB6HH6LRO17U79I9TKUGYFV09C","","1467","img/land3.png","76","1469","3","1","3","1","0.8,0.2,0.2,0.2,0.8,0.2,0.2,0.2,0.8","0.8,0.2,0.2,0.2,0.8,0.2,0.2,0.2,0.8","1","",""
"","html-keyboard-response","155","170651","0.0-155.0","3OS4RQUCRA13VIZBZDKSCG8Y0UBFB8","A1VBP1RMKGUXB","3UDTAB6HH6LRO17U79I9TKUGYFV09C","","null","<img src=""img/land3.png"" style=""width:200px; border:14px solid green;"">","null","","","","","","","","","",""
"","image-keyboard-response","156","171227","0.0-156.0","3OS4RQUCRA13VIZBZDKSCG8Y0UBFB8","A1VBP1RMKGUXB","3UDTAB6HH6LRO17U79I9TKUGYFV09C","","572","img/land1.png","75","575","2","1","2","1","0.8,0.2,0.2,0.2,0.8,0.2,0.2,0.2,0.8","0.8,0.2,0.2,0.2,0.8,0.2,0.2,0.2,0.8","1","",""
"","html-keyboard-response","157","171529","0.0-157.0","3OS4RQUCRA13VIZBZDKSCG8Y0UBFB8","A1VBP1RMKGUXB","3UDTAB6HH6LRO17U79I9TKUGYFV09C","","null","<img src=""img/land1.png"" style=""width:200px; border:14px solid green;"">","null","","","","","","","","","",""
"","image-keyboard-response","158","172128","0.0-158.0","3OS4RQUCRA13VIZBZDKSCG8Y0UBFB8","A1VBP1RMKGUXB","3UDTAB6HH6LRO17U79I9TKUGYFV09C","","598","img/land1.png","74","599","1","0","2","1","0.8,0.2,0.2,0.2,0.8,0.2,0.2,0.2,0.8","0.8,0.2,0.2,0.2,0.8,0.2,0.2,0.2,0.8","1","",""
"","html-keyboard-response","159","172431","0.0-159.0","3OS4RQUCRA13VIZBZDKSCG8Y0UBFB8","A1VBP1RMKGUXB","3UDTAB6HH6LRO17U79I9TKUGYFV09C","","null","<img src=""img/land1.png"" style=""width:200px;border:14px solid red;"">","null","","","","","","","","","",""
"","image-keyboard-response","160","173551","0.0-160.0","3OS4RQUCRA13VIZBZDKSCG8Y0UBFB8","A1VBP1RMKGUXB","3UDTAB6HH6LRO17U79I9TKUGYFV09C","","1118","img/land3.png","76","1120","3","1","3","1","0.8,0.2,0.2,0.2,0.8,0.2,0.2,0.2,0.8","0.8,0.2,0.2,0.2,0.8,0.2,0.2,0.2,0.8","1","",""
"","html-keyboard-response","161","173855","0.0-161.0","3OS4RQUCRA13VIZBZDKSCG8Y0UBFB8","A1VBP1RMKGUXB","3UDTAB6HH6LRO17U79I9TKUGYFV09C","","null","<img src=""img/land3.png"" style=""width:200px; border:14px solid green;"">","null","","","","","","","","","",""
"","image-keyboard-response","162","174786","0.0-162.0","3OS4RQUCRA13VIZBZDKSCG8Y0UBFB8","A1VBP1RMKGUXB","3UDTAB6HH6LRO17U79I9TKUGYFV09C","","928","img/land3.png","75","930","2","0","3","1","0.8,0.2,0.2,0.2,0.8,0.2,0.2,0.2,0.8","0.8,0.2,0.2,0.2,0.8,0.2,0.2,0.2,0.8","1","",""
"","html-keyboard-response","163","175088","0.0-163.0","3OS4RQUCRA13VIZBZDKSCG8Y0UBFB8","A1VBP1RMKGUXB","3UDTAB6HH6LRO17U79I9TKUGYFV09C","","null","<img src=""img/land3.png"" style=""width:200px;border:14px solid red;"">","null","","","","","","","","","",""
"","image-keyboard-response","164","175915","0.0-164.0","3OS4RQUCRA13VIZBZDKSCG8Y0UBFB8","A1VBP1RMKGUXB","3UDTAB6HH6LRO17U79I9TKUGYFV09C","","824","img/land3.png","75","826","2","1","3","1","0.8,0.2,0.2,0.2,0.8,0.2,0.2,0.2,0.8","0.8,0.2,0.2,0.2,0.8,0.2,0.2,0.2,0.8","1","",""
"","html-keyboard-response","165","176217","0.0-165.0","3OS4RQUCRA13VIZBZDKSCG8Y0UBFB8","A1VBP1RMKGUXB","3UDTAB6HH6LRO17U79I9TKUGYFV09C","","null","<img src=""img/land3.png"" style=""width:200px; border:14px solid green;"">","null","","","","","","","","","",""
"","image-keyboard-response","166","177824","0.0-166.0","3OS4RQUCRA13VIZBZDKSCG8Y0UBFB8","A1VBP1RMKGUXB","3UDTAB6HH6LRO17U79I9TKUGYFV09C","","1605","img/land3.png","75","1606","2","0","3","1","0.8,0.2,0.2,0.2,0.8,0.2,0.2,0.2,0.8","0.8,0.2,0.2,0.2,0.8,0.2,0.2,0.2,0.8","1","",""
"","html-keyboard-response","167","178126","0.0-167.0","3OS4RQUCRA13VIZBZDKSCG8Y0UBFB8","A1VBP1RMKGUXB","3UDTAB6HH6LRO17U79I9TKUGYFV09C","","null","<img src=""img/land3.png"" style=""width:200px;border:14px solid red;"">","null","","","","","","","","","",""
"","image-keyboard-response","168","179268","0.0-168.0","3OS4RQUCRA13VIZBZDKSCG8Y0UBFB8","A1VBP1RMKGUXB","3UDTAB6HH6LRO17U79I9TKUGYFV09C","","1139","img/land5.png","76","1141","3","1","1","1","0.8,0.2,0.2,0.2,0.8,0.2,0.2,0.2,0.8","0.8,0.2,0.2,0.2,0.8,0.2,0.2,0.2,0.8","1","",""
"","html-keyboard-response","169","179570","0.0-169.0","3OS4RQUCRA13VIZBZDKSCG8Y0UBFB8","A1VBP1RMKGUXB","3UDTAB6HH6LRO17U79I9TKUGYFV09C","","null","<img src=""img/land5.png"" style=""width:200px; border:14px solid green;"">","null","","","","","","","","","",""
"","image-keyboard-response","170","180788","0.0-170.0","3OS4RQUCRA13VIZBZDKSCG8Y0UBFB8","A1VBP1RMKGUXB","3UDTAB6HH6LRO17U79I9TKUGYFV09C","","1213","img/land3.png","75","1216","2","0","3","1","0.8,0.2,0.2,0.2,0.8,0.2,0.2,0.2,0.8","0.8,0.2,0.2,0.2,0.8,0.2,0.2,0.2,0.8","1","",""
"","html-keyboard-response","171","181090","0.0-171.0","3OS4RQUCRA13VIZBZDKSCG8Y0UBFB8","A1VBP1RMKGUXB","3UDTAB6HH6LRO17U79I9TKUGYFV09C","","null","<img src=""img/land3.png"" style=""width:200px;border:14px solid red;"">","null","","","","","","","","","",""
"","image-keyboard-response","172","182129","0.0-172.0","3OS4RQUCRA13VIZBZDKSCG8Y0UBFB8","A1VBP1RMKGUXB","3UDTAB6HH6LRO17U79I9TKUGYFV09C","","1035","img/land1.png","74","1038","1","0","2","1","0.8,0.2,0.2,0.2,0.8,0.2,0.2,0.2,0.8","0.8,0.2,0.2,0.2,0.8,0.2,0.2,0.2,0.8","1","",""
"","html-keyboard-response","173","182430","0.0-173.0","3OS4RQUCRA13VIZBZDKSCG8Y0UBFB8","A1VBP1RMKGUXB","3UDTAB6HH6LRO17U79I9TKUGYFV09C","","null","<img src=""img/land1.png"" style=""width:200px;border:14px solid red;"">","null","","","","","","","","","",""
"","image-keyboard-response","174","183531","0.0-174.0","3OS4RQUCRA13VIZBZDKSCG8Y0UBFB8","A1VBP1RMKGUXB","3UDTAB6HH6LRO17U79I9TKUGYFV09C","","1100","img/land3.png","75","1102","2","0","3","1","0.8,0.2,0.2,0.2,0.8,0.2,0.2,0.2,0.8","0.8,0.2,0.2,0.2,0.8,0.2,0.2,0.2,0.8","1","",""
"","html-keyboard-response","175","183834","0.0-175.0","3OS4RQUCRA13VIZBZDKSCG8Y0UBFB8","A1VBP1RMKGUXB","3UDTAB6HH6LRO17U79I9TKUGYFV09C","","null","<img src=""img/land3.png"" style=""width:200px;border:14px solid red;"">","null","","","","","","","","","",""
"","image-keyboard-response","176","184967","0.0-176.0","3OS4RQUCRA13VIZBZDKSCG8Y0UBFB8","A1VBP1RMKGUXB","3UDTAB6HH6LRO17U79I9TKUGYFV09C","","1131","img/land5.png","76","1132","3","0","1","1","0.8,0.2,0.2,0.2,0.8,0.2,0.2,0.2,0.8","0.8,0.2,0.2,0.2,0.8,0.2,0.2,0.2,0.8","1","",""
"","html-keyboard-response","177","185271","0.0-177.0","3OS4RQUCRA13VIZBZDKSCG8Y0UBFB8","A1VBP1RMKGUXB","3UDTAB6HH6LRO17U79I9TKUGYFV09C","","null","<img src=""img/land5.png"" style=""width:200px;border:14px solid red;"">","null","","","","","","","","","",""
"","image-keyboard-response","178","186594","0.0-178.0","3OS4RQUCRA13VIZBZDKSCG8Y0UBFB8","A1VBP1RMKGUXB","3UDTAB6HH6LRO17U79I9TKUGYFV09C","","1322","img/land3.png","75","1323","2","0","3","1","0.8,0.2,0.2,0.2,0.8,0.2,0.2,0.2,0.8","0.8,0.2,0.2,0.2,0.8,0.2,0.2,0.2,0.8","1","",""
"","html-keyboard-response","179","186895","0.0-179.0","3OS4RQUCRA13VIZBZDKSCG8Y0UBFB8","A1VBP1RMKGUXB","3UDTAB6HH6LRO17U79I9TKUGYFV09C","","null","<img src=""img/land3.png"" style=""width:200px;border:14px solid red;"">","null","","","","","","","","","",""
"","image-keyboard-response","180","187858","0.0-180.0","3OS4RQUCRA13VIZBZDKSCG8Y0UBFB8","A1VBP1RMKGUXB","3UDTAB6HH6LRO17U79I9TKUGYFV09C","","961","img/land5.png","76","962","3","0","1","1","0.8,0.2,0.2,0.2,0.8,0.2,0.2,0.2,0.8","0.8,0.2,0.2,0.2,0.8,0.2,0.2,0.2,0.8","1","",""
"","html-keyboard-response","181","188160","0.0-181.0","3OS4RQUCRA13VIZBZDKSCG8Y0UBFB8","A1VBP1RMKGUXB","3UDTAB6HH6LRO17U79I9TKUGYFV09C","","null","<img src=""img/land5.png"" style=""width:200px;border:14px solid red;"">","null","","","","","","","","","",""
"","html-keyboard-response","182","192420","0.0-182.0","3OS4RQUCRA13VIZBZDKSCG8Y0UBFB8","A1VBP1RMKGUXB","3UDTAB6HH6LRO17U79I9TKUGYFV09C","","","","","","","","","","","","","",""
"","image-keyboard-response","183","194426","0.0-183.0","3OS4RQUCRA13VIZBZDKSCG8Y0UBFB8","A1VBP1RMKGUXB","3UDTAB6HH6LRO17U79I9TKUGYFV09C","","","img/land2.png","","2004","-1","0","1","2","0.8,0.2,0.2,0.2,0.8,0.2,0.2,0.2,0.8","0.2,0.8,0.2,0.2,0.2,0.8,0.8,0.2,0.2","3","",""
"","html-keyboard-response","184","194733","0.0-184.0","3OS4RQUCRA13VIZBZDKSCG8Y0UBFB8","A1VBP1RMKGUXB","3UDTAB6HH6LRO17U79I9TKUGYFV09C","","null","<img src=""img/land2.png"" style=""width:200px;border:14px solid red;"">","null","","","","","","","","","",""
"","image-keyboard-response","185","195898","0.0-185.0","3OS4RQUCRA13VIZBZDKSCG8Y0UBFB8","A1VBP1RMKGUXB","3UDTAB6HH6LRO17U79I9TKUGYFV09C","","1156","img/land6.png","75","1162","2","0","2","2","0.8,0.2,0.2,0.2,0.8,0.2,0.2,0.2,0.8","0.2,0.8,0.2,0.2,0.2,0.8,0.8,0.2,0.2","3","",""
"","html-keyboard-response","186","196202","0.0-186.0","3OS4RQUCRA13VIZBZDKSCG8Y0UBFB8","A1VBP1RMKGUXB","3UDTAB6HH6LRO17U79I9TKUGYFV09C","","null","<img src=""img/land6.png"" style=""width:200px;border:14px solid red;"">","null","","","","","","","","","",""
"","image-keyboard-response","187","198036","0.0-187.0","3OS4RQUCRA13VIZBZDKSCG8Y0UBFB8","A1VBP1RMKGUXB","3UDTAB6HH6LRO17U79I9TKUGYFV09C","","1833","img/land2.png","74","1833","1","0","1","2","0.8,0.2,0.2,0.2,0.8,0.2,0.2,0.2,0.8","0.2,0.8,0.2,0.2,0.2,0.8,0.8,0.2,0.2","3","",""
"","html-keyboard-response","188","198338","0.0-188.0","3OS4RQUCRA13VIZBZDKSCG8Y0UBFB8","A1VBP1RMKGUXB","3UDTAB6HH6LRO17U79I9TKUGYFV09C","","null","<img src=""img/land2.png"" style=""width:200px;border:14px solid red;"">","null","","","","","","","","","",""
"","image-keyboard-response","189","199455","0.0-189.0","3OS4RQUCRA13VIZBZDKSCG8Y0UBFB8","A1VBP1RMKGUXB","3UDTAB6HH6LRO17U79I9TKUGYFV09C","","1116","img/land2.png","74","1116","1","1","1","2","0.8,0.2,0.2,0.2,0.8,0.2,0.2,0.2,0.8","0.2,0.8,0.2,0.2,0.2,0.8,0.8,0.2,0.2","3","",""
"","html-keyboard-response","190","199758","0.0-190.0","3OS4RQUCRA13VIZBZDKSCG8Y0UBFB8","A1VBP1RMKGUXB","3UDTAB6HH6LRO17U79I9TKUGYFV09C","","null","<img src=""img/land2.png"" style=""width:200px; border:14px solid green;"">","null","","","","","","","","","",""
"","image-keyboard-response","191","200568","0.0-191.0","3OS4RQUCRA13VIZBZDKSCG8Y0UBFB8","A1VBP1RMKGUXB","3UDTAB6HH6LRO17U79I9TKUGYFV09C","","808","img/land2.png","76","810","3","0","1","2","0.8,0.2,0.2,0.2,0.8,0.2,0.2,0.2,0.8","0.2,0.8,0.2,0.2,0.2,0.8,0.8,0.2,0.2","3","",""
"","html-keyboard-response","192","200871","0.0-192.0","3OS4RQUCRA13VIZBZDKSCG8Y0UBFB8","A1VBP1RMKGUXB","3UDTAB6HH6LRO17U79I9TKUGYFV09C","","null","<img src=""img/land2.png"" style=""width:200px;border:14px solid red;"">","null","","","","","","","","","",""
"","image-keyboard-response","193","202068","0.0-193.0","3OS4RQUCRA13VIZBZDKSCG8Y0UBFB8","A1VBP1RMKGUXB","3UDTAB6HH6LRO17U79I9TKUGYFV09C","","1194","img/land6.png","75","1197","2","0","2","2","0.8,0.2,0.2,0.2,0.8,0.2,0.2,0.2,0.8","0.2,0.8,0.2,0.2,0.2,0.8,0.8,0.2,0.2","3","",""
"","html-keyboard-response","194","202371","0.0-194.0","3OS4RQUCRA13VIZBZDKSCG8Y0UBFB8","A1VBP1RMKGUXB","3UDTAB6HH6LRO17U79I9TKUGYFV09C","","null","<img src=""img/land6.png"" style=""width:200px;border:14px solid red;"">","null","","","","","","","","","",""
"","image-keyboard-response","195","204155","0.0-195.0","3OS4RQUCRA13VIZBZDKSCG8Y0UBFB8","A1VBP1RMKGUXB","3UDTAB6HH6LRO17U79I9TKUGYFV09C","","1782","img/land2.png","74","1783","1","0","1","2","0.8,0.2,0.2,0.2,0.8,0.2,0.2,0.2,0.8","0.2,0.8,0.2,0.2,0.2,0.8,0.8,0.2,0.2","3","",""
"","html-keyboard-response","196","204459","0.0-196.0","3OS4RQUCRA13VIZBZDKSCG8Y0UBFB8","A1VBP1RMKGUXB","3UDTAB6HH6LRO17U79I9TKUGYFV09C","","null","<img src=""img/land2.png"" style=""width:200px;border:14px solid red;"">","null","","","","","","","","","",""
"","image-keyboard-response","197","205317","0.0-197.0","3OS4RQUCRA13VIZBZDKSCG8Y0UBFB8","A1VBP1RMKGUXB","3UDTAB6HH6LRO17U79I9TKUGYFV09C","","852","img/land2.png","74","856","1","0","1","2","0.8,0.2,0.2,0.2,0.8,0.2,0.2,0.2,0.8","0.2,0.8,0.2,0.2,0.2,0.8,0.8,0.2,0.2","3","",""
"","html-keyboard-response","198","205619","0.0-198.0","3OS4RQUCRA13VIZBZDKSCG8Y0UBFB8","A1VBP1RMKGUXB","3UDTAB6HH6LRO17U79I9TKUGYFV09C","","null","<img src=""img/land2.png"" style=""width:200px;border:14px solid red;"">","null","","","","","","","","","",""
"","image-keyboard-response","199","206330","0.0-199.0","3OS4RQUCRA13VIZBZDKSCG8Y0UBFB8","A1VBP1RMKGUXB","3UDTAB6HH6LRO17U79I9TKUGYFV09C","","709","img/land2.png","74","710","1","0","1","2","0.8,0.2,0.2,0.2,0.8,0.2,0.2,0.2,0.8","0.2,0.8,0.2,0.2,0.2,0.8,0.8,0.2,0.2","3","",""
"","html-keyboard-response","200","206634","0.0-200.0","3OS4RQUCRA13VIZBZDKSCG8Y0UBFB8","A1VBP1RMKGUXB","3UDTAB6HH6LRO17U79I9TKUGYFV09C","","null","<img src=""img/land2.png"" style=""width:200px;border:14px solid red;"">","null","","","","","","","","","",""
"","image-keyboard-response","201","207378","0.0-201.0","3OS4RQUCRA13VIZBZDKSCG8Y0UBFB8","A1VBP1RMKGUXB","3UDTAB6HH6LRO17U79I9TKUGYFV09C","","736","img/land2.png","74","743","1","1","1","2","0.8,0.2,0.2,0.2,0.8,0.2,0.2,0.2,0.8","0.2,0.8,0.2,0.2,0.2,0.8,0.8,0.2,0.2","3","",""
"","html-keyboard-response","202","207681","0.0-202.0","3OS4RQUCRA13VIZBZDKSCG8Y0UBFB8","A1VBP1RMKGUXB","3UDTAB6HH6LRO17U79I9TKUGYFV09C","","null","<img src=""img/land2.png"" style=""width:200px; border:14px solid green;"">","null","","","","","","","","","",""
"","image-keyboard-response","203","208574","0.0-203.0","3OS4RQUCRA13VIZBZDKSCG8Y0UBFB8","A1VBP1RMKGUXB","3UDTAB6HH6LRO17U79I9TKUGYFV09C","","891","img/land2.png","76","893","3","0","1","2","0.8,0.2,0.2,0.2,0.8,0.2,0.2,0.2,0.8","0.2,0.8,0.2,0.2,0.2,0.8,0.8,0.2,0.2","3","",""
"","html-keyboard-response","204","208876","0.0-204.0","3OS4RQUCRA13VIZBZDKSCG8Y0UBFB8","A1VBP1RMKGUXB","3UDTAB6HH6LRO17U79I9TKUGYFV09C","","null","<img src=""img/land2.png"" style=""width:200px;border:14px solid red;"">","null","","","","","","","","","",""
"","image-keyboard-response","205","209848","0.0-205.0","3OS4RQUCRA13VIZBZDKSCG8Y0UBFB8","A1VBP1RMKGUXB","3UDTAB6HH6LRO17U79I9TKUGYFV09C","","968","img/land2.png","76","970","3","1","1","2","0.8,0.2,0.2,0.2,0.8,0.2,0.2,0.2,0.8","0.2,0.8,0.2,0.2,0.2,0.8,0.8,0.2,0.2","3","",""
"","html-keyboard-response","206","210150","0.0-206.0","3OS4RQUCRA13VIZBZDKSCG8Y0UBFB8","A1VBP1RMKGUXB","3UDTAB6HH6LRO17U79I9TKUGYFV09C","","null","<img src=""img/land2.png"" style=""width:200px; border:14px solid green;"">","null","","","","","","","","","",""
"","image-keyboard-response","207","211476","0.0-207.0","3OS4RQUCRA13VIZBZDKSCG8Y0UBFB8","A1VBP1RMKGUXB","3UDTAB6HH6LRO17U79I9TKUGYFV09C","","1324","img/land6.png","75","1325","2","1","2","2","0.8,0.2,0.2,0.2,0.8,0.2,0.2,0.2,0.8","0.2,0.8,0.2,0.2,0.2,0.8,0.8,0.2,0.2","3","",""
"","html-keyboard-response","208","211778","0.0-208.0","3OS4RQUCRA13VIZBZDKSCG8Y0UBFB8","A1VBP1RMKGUXB","3UDTAB6HH6LRO17U79I9TKUGYFV09C","","null","<img src=""img/land6.png"" style=""width:200px; border:14px solid green;"">","null","","","","","","","","","",""
"","image-keyboard-response","209","213069","0.0-209.0","3OS4RQUCRA13VIZBZDKSCG8Y0UBFB8","A1VBP1RMKGUXB","3UDTAB6HH6LRO17U79I9TKUGYFV09C","","1288","img/land2.png","74","1290","1","0","1","2","0.8,0.2,0.2,0.2,0.8,0.2,0.2,0.2,0.8","0.2,0.8,0.2,0.2,0.2,0.8,0.8,0.2,0.2","3","",""
"","html-keyboard-response","210","213371","0.0-210.0","3OS4RQUCRA13VIZBZDKSCG8Y0UBFB8","A1VBP1RMKGUXB","3UDTAB6HH6LRO17U79I9TKUGYFV09C","","null","<img src=""img/land2.png"" style=""width:200px;border:14px solid red;"">","null","","","","","","","","","",""
"","image-keyboard-response","211","214854","0.0-211.0","3OS4RQUCRA13VIZBZDKSCG8Y0UBFB8","A1VBP1RMKGUXB","3UDTAB6HH6LRO17U79I9TKUGYFV09C","","1481","img/land6.png","76","1482","3","1","2","2","0.8,0.2,0.2,0.2,0.8,0.2,0.2,0.2,0.8","0.2,0.8,0.2,0.2,0.2,0.8,0.8,0.2,0.2","3","",""
"","html-keyboard-response","212","215156","0.0-212.0","3OS4RQUCRA13VIZBZDKSCG8Y0UBFB8","A1VBP1RMKGUXB","3UDTAB6HH6LRO17U79I9TKUGYFV09C","","null","<img src=""img/land6.png"" style=""width:200px; border:14px solid green;"">","null","","","","","","","","","",""
"","image-keyboard-response","213","216067","0.0-213.0","3OS4RQUCRA13VIZBZDKSCG8Y0UBFB8","A1VBP1RMKGUXB","3UDTAB6HH6LRO17U79I9TKUGYFV09C","","908","img/land6.png","75","910","2","0","2","2","0.8,0.2,0.2,0.2,0.8,0.2,0.2,0.2,0.8","0.2,0.8,0.2,0.2,0.2,0.8,0.8,0.2,0.2","3","",""
"","html-keyboard-response","214","216370","0.0-214.0","3OS4RQUCRA13VIZBZDKSCG8Y0UBFB8","A1VBP1RMKGUXB","3UDTAB6HH6LRO17U79I9TKUGYFV09C","","null","<img src=""img/land6.png"" style=""width:200px;border:14px solid red;"">","null","","","","","","","","","",""
"","image-keyboard-response","215","217287","0.0-215.0","3OS4RQUCRA13VIZBZDKSCG8Y0UBFB8","A1VBP1RMKGUXB","3UDTAB6HH6LRO17U79I9TKUGYFV09C","","916","img/land6.png","75","917","2","0","2","2","0.8,0.2,0.2,0.2,0.8,0.2,0.2,0.2,0.8","0.2,0.8,0.2,0.2,0.2,0.8,0.8,0.2,0.2","3","",""
"","html-keyboard-response","216","217589","0.0-216.0","3OS4RQUCRA13VIZBZDKSCG8Y0UBFB8","A1VBP1RMKGUXB","3UDTAB6HH6LRO17U79I9TKUGYFV09C","","null","<img src=""img/land6.png"" style=""width:200px;border:14px solid red;"">","null","","","","","","","","","",""
"","image-keyboard-response","217","218811","0.0-217.0","3OS4RQUCRA13VIZBZDKSCG8Y0UBFB8","A1VBP1RMKGUXB","3UDTAB6HH6LRO17U79I9TKUGYFV09C","","1216","img/land2.png","74","1220","1","0","1","2","0.8,0.2,0.2,0.2,0.8,0.2,0.2,0.2,0.8","0.2,0.8,0.2,0.2,0.2,0.8,0.8,0.2,0.2","3","",""
"","html-keyboard-response","218","219115","0.0-218.0","3OS4RQUCRA13VIZBZDKSCG8Y0UBFB8","A1VBP1RMKGUXB","3UDTAB6HH6LRO17U79I9TKUGYFV09C","","null","<img src=""img/land2.png"" style=""width:200px;border:14px solid red;"">","null","","","","","","","","","",""
"","image-keyboard-response","219","219859","0.0-219.0","3OS4RQUCRA13VIZBZDKSCG8Y0UBFB8","A1VBP1RMKGUXB","3UDTAB6HH6LRO17U79I9TKUGYFV09C","","741","img/land2.png","74","742","1","0","1","2","0.8,0.2,0.2,0.2,0.8,0.2,0.2,0.2,0.8","0.2,0.8,0.2,0.2,0.2,0.8,0.8,0.2,0.2","3","",""
"","html-keyboard-response","220","220162","0.0-220.0","3OS4RQUCRA13VIZBZDKSCG8Y0UBFB8","A1VBP1RMKGUXB","3UDTAB6HH6LRO17U79I9TKUGYFV09C","","null","<img src=""img/land2.png"" style=""width:200px;border:14px solid red;"">","null","","","","","","","","","",""
"","image-keyboard-response","221","221039","0.0-221.0","3OS4RQUCRA13VIZBZDKSCG8Y0UBFB8","A1VBP1RMKGUXB","3UDTAB6HH6LRO17U79I9TKUGYFV09C","","873","img/land2.png","74","875","1","0","1","2","0.8,0.2,0.2,0.2,0.8,0.2,0.2,0.2,0.8","0.2,0.8,0.2,0.2,0.2,0.8,0.8,0.2,0.2","3","",""
"","html-keyboard-response","222","221342","0.0-222.0","3OS4RQUCRA13VIZBZDKSCG8Y0UBFB8","A1VBP1RMKGUXB","3UDTAB6HH6LRO17U79I9TKUGYFV09C","","null","<img src=""img/land2.png"" style=""width:200px;border:14px solid red;"">","null","","","","","","","","","",""
"","image-keyboard-response","223","222397","0.0-223.0","3OS4RQUCRA13VIZBZDKSCG8Y0UBFB8","A1VBP1RMKGUXB","3UDTAB6HH6LRO17U79I9TKUGYFV09C","","1053","img/land6.png","75","1055","2","0","2","2","0.8,0.2,0.2,0.2,0.8,0.2,0.2,0.2,0.8","0.2,0.8,0.2,0.2,0.2,0.8,0.8,0.2,0.2","3","",""
"","html-keyboard-response","224","222700","0.0-224.0","3OS4RQUCRA13VIZBZDKSCG8Y0UBFB8","A1VBP1RMKGUXB","3UDTAB6HH6LRO17U79I9TKUGYFV09C","","null","<img src=""img/land6.png"" style=""width:200px;border:14px solid red;"">","null","","","","","","","","","",""
"","image-keyboard-response","225","223820","0.0-225.0","3OS4RQUCRA13VIZBZDKSCG8Y0UBFB8","A1VBP1RMKGUXB","3UDTAB6HH6LRO17U79I9TKUGYFV09C","","1115","img/land2.png","74","1118","1","0","1","2","0.8,0.2,0.2,0.2,0.8,0.2,0.2,0.2,0.8","0.2,0.8,0.2,0.2,0.2,0.8,0.8,0.2,0.2","3","",""
"","html-keyboard-response","226","224122","0.0-226.0","3OS4RQUCRA13VIZBZDKSCG8Y0UBFB8","A1VBP1RMKGUXB","3UDTAB6HH6LRO17U79I9TKUGYFV09C","","null","<img src=""img/land2.png"" style=""width:200px;border:14px solid red;"">","null","","","","","","","","","",""
"","image-keyboard-response","227","225328","0.0-227.0","3OS4RQUCRA13VIZBZDKSCG8Y0UBFB8","A1VBP1RMKGUXB","3UDTAB6HH6LRO17U79I9TKUGYFV09C","","1203","img/land4.png","76","1205","3","0","3","2","0.8,0.2,0.2,0.2,0.8,0.2,0.2,0.2,0.8","0.2,0.8,0.2,0.2,0.2,0.8,0.8,0.2,0.2","3","",""
"","html-keyboard-response","228","225631","0.0-228.0","3OS4RQUCRA13VIZBZDKSCG8Y0UBFB8","A1VBP1RMKGUXB","3UDTAB6HH6LRO17U79I9TKUGYFV09C","","null","<img src=""img/land4.png"" style=""width:200px;border:14px solid red;"">","null","","","","","","","","","",""
"","image-keyboard-response","229","226518","0.0-229.0","3OS4RQUCRA13VIZBZDKSCG8Y0UBFB8","A1VBP1RMKGUXB","3UDTAB6HH6LRO17U79I9TKUGYFV09C","","885","img/land4.png","76","887","3","0","3","2","0.8,0.2,0.2,0.2,0.8,0.2,0.2,0.2,0.8","0.2,0.8,0.2,0.2,0.2,0.8,0.8,0.2,0.2","3","",""
"","html-keyboard-response","230","226823","0.0-230.0","3OS4RQUCRA13VIZBZDKSCG8Y0UBFB8","A1VBP1RMKGUXB","3UDTAB6HH6LRO17U79I9TKUGYFV09C","","null","<img src=""img/land4.png"" style=""width:200px;border:14px solid red;"">","null","","","","","","","","","",""
"","image-keyboard-response","231","228116","0.0-231.0","3OS4RQUCRA13VIZBZDKSCG8Y0UBFB8","A1VBP1RMKGUXB","3UDTAB6HH6LRO17U79I9TKUGYFV09C","","1290","img/land2.png","74","1293","1","1","1","2","0.8,0.2,0.2,0.2,0.8,0.2,0.2,0.2,0.8","0.2,0.8,0.2,0.2,0.2,0.8,0.8,0.2,0.2","3","",""
"","html-keyboard-response","232","228418","0.0-232.0","3OS4RQUCRA13VIZBZDKSCG8Y0UBFB8","A1VBP1RMKGUXB","3UDTAB6HH6LRO17U79I9TKUGYFV09C","","null","<img src=""img/land2.png"" style=""width:200px; border:14px solid green;"">","null","","","","","","","","","",""
"","image-keyboard-response","233","229216","0.0-233.0","3OS4RQUCRA13VIZBZDKSCG8Y0UBFB8","A1VBP1RMKGUXB","3UDTAB6HH6LRO17U79I9TKUGYFV09C","","796","img/land2.png","75","798","2","0","1","2","0.8,0.2,0.2,0.2,0.8,0.2,0.2,0.2,0.8","0.2,0.8,0.2,0.2,0.2,0.8,0.8,0.2,0.2","3","",""
"","html-keyboard-response","234","229519","0.0-234.0","3OS4RQUCRA13VIZBZDKSCG8Y0UBFB8","A1VBP1RMKGUXB","3UDTAB6HH6LRO17U79I9TKUGYFV09C","","null","<img src=""img/land2.png"" style=""width:200px;border:14px solid red;"">","null","","","","","","","","","",""
"","image-keyboard-response","235","230479","0.0-235.0","3OS4RQUCRA13VIZBZDKSCG8Y0UBFB8","A1VBP1RMKGUXB","3UDTAB6HH6LRO17U79I9TKUGYFV09C","","957","img/land2.png","75","959","2","1","1","2","0.8,0.2,0.2,0.2,0.8,0.2,0.2,0.2,0.8","0.2,0.8,0.2,0.2,0.2,0.8,0.8,0.2,0.2","3","",""
"","html-keyboard-response","236","230784","0.0-236.0","3OS4RQUCRA13VIZBZDKSCG8Y0UBFB8","A1VBP1RMKGUXB","3UDTAB6HH6LRO17U79I9TKUGYFV09C","","null","<img src=""img/land2.png"" style=""width:200px; border:14px solid green;"">","null","","","","","","","","","",""
"","image-keyboard-response","237","231906","0.0-237.0","3OS4RQUCRA13VIZBZDKSCG8Y0UBFB8","A1VBP1RMKGUXB","3UDTAB6HH6LRO17U79I9TKUGYFV09C","","1121","img/land4.png","74","1122","1","1","3","2","0.8,0.2,0.2,0.2,0.8,0.2,0.2,0.2,0.8","0.2,0.8,0.2,0.2,0.2,0.8,0.8,0.2,0.2","3","",""
"","html-keyboard-response","238","232211","0.0-238.0","3OS4RQUCRA13VIZBZDKSCG8Y0UBFB8","A1VBP1RMKGUXB","3UDTAB6HH6LRO17U79I9TKUGYFV09C","","null","<img src=""img/land4.png"" style=""width:200px; border:14px solid green;"">","null","","","","","","","","","",""
"","image-keyboard-response","239","234158","0.0-239.0","3OS4RQUCRA13VIZBZDKSCG8Y0UBFB8","A1VBP1RMKGUXB","3UDTAB6HH6LRO17U79I9TKUGYFV09C","","1945","img/land2.png","74","1947","1","0","1","2","0.8,0.2,0.2,0.2,0.8,0.2,0.2,0.2,0.8","0.2,0.8,0.2,0.2,0.2,0.8,0.8,0.2,0.2","3","",""
"","html-keyboard-response","240","234461","0.0-240.0","3OS4RQUCRA13VIZBZDKSCG8Y0UBFB8","A1VBP1RMKGUXB","3UDTAB6HH6LRO17U79I9TKUGYFV09C","","null","<img src=""img/land2.png"" style=""width:200px;border:14px solid red;"">","null","","","","","","","","","",""
"","image-keyboard-response","241","235206","0.0-241.0","3OS4RQUCRA13VIZBZDKSCG8Y0UBFB8","A1VBP1RMKGUXB","3UDTAB6HH6LRO17U79I9TKUGYFV09C","","743","img/land2.png","74","744","1","0","1","2","0.8,0.2,0.2,0.2,0.8,0.2,0.2,0.2,0.8","0.2,0.8,0.2,0.2,0.2,0.8,0.8,0.2,0.2","3","",""
"","html-keyboard-response","242","235509","0.0-242.0","3OS4RQUCRA13VIZBZDKSCG8Y0UBFB8","A1VBP1RMKGUXB","3UDTAB6HH6LRO17U79I9TKUGYFV09C","","null","<img src=""img/land2.png"" style=""width:200px;border:14px solid red;"">","null","","","","","","","","","",""
"","image-keyboard-response","243","236338","0.0-243.0","3OS4RQUCRA13VIZBZDKSCG8Y0UBFB8","A1VBP1RMKGUXB","3UDTAB6HH6LRO17U79I9TKUGYFV09C","","824","img/land2.png","74","827","1","0","1","2","0.8,0.2,0.2,0.2,0.8,0.2,0.2,0.2,0.8","0.2,0.8,0.2,0.2,0.2,0.8,0.8,0.2,0.2","3","",""
"","html-keyboard-response","244","236642","0.0-244.0","3OS4RQUCRA13VIZBZDKSCG8Y0UBFB8","A1VBP1RMKGUXB","3UDTAB6HH6LRO17U79I9TKUGYFV09C","","null","<img src=""img/land2.png"" style=""width:200px;border:14px solid red;"">","null","","","","","","","","","",""
"","image-keyboard-response","245","237326","0.0-245.0","3OS4RQUCRA13VIZBZDKSCG8Y0UBFB8","A1VBP1RMKGUXB","3UDTAB6HH6LRO17U79I9TKUGYFV09C","","684","img/land2.png","74","684","1","0","1","2","0.8,0.2,0.2,0.2,0.8,0.2,0.2,0.2,0.8","0.2,0.8,0.2,0.2,0.2,0.8,0.8,0.2,0.2","3","",""
"","html-keyboard-response","246","237627","0.0-246.0","3OS4RQUCRA13VIZBZDKSCG8Y0UBFB8","A1VBP1RMKGUXB","3UDTAB6HH6LRO17U79I9TKUGYFV09C","","null","<img src=""img/land2.png"" style=""width:200px;border:14px solid red;"">","null","","","","","","","","","",""
"","image-keyboard-response","247","238287","0.0-247.0","3OS4RQUCRA13VIZBZDKSCG8Y0UBFB8","A1VBP1RMKGUXB","3UDTAB6HH6LRO17U79I9TKUGYFV09C","","659","img/land2.png","74","661","1","1","1","2","0.8,0.2,0.2,0.2,0.8,0.2,0.2,0.2,0.8","0.2,0.8,0.2,0.2,0.2,0.8,0.8,0.2,0.2","3","",""
"","html-keyboard-response","248","238590","0.0-248.0","3OS4RQUCRA13VIZBZDKSCG8Y0UBFB8","A1VBP1RMKGUXB","3UDTAB6HH6LRO17U79I9TKUGYFV09C","","null","<img src=""img/land2.png"" style=""width:200px; border:14px solid green;"">","null","","","","","","","","","",""
"","image-keyboard-response","249","239666","0.0-249.0","3OS4RQUCRA13VIZBZDKSCG8Y0UBFB8","A1VBP1RMKGUXB","3UDTAB6HH6LRO17U79I9TKUGYFV09C","","1074","img/land2.png","74","1076","1","0","1","2","0.8,0.2,0.2,0.2,0.8,0.2,0.2,0.2,0.8","0.2,0.8,0.2,0.2,0.2,0.8,0.8,0.2,0.2","3","",""
"","html-keyboard-response","250","239968","0.0-250.0","3OS4RQUCRA13VIZBZDKSCG8Y0UBFB8","A1VBP1RMKGUXB","3UDTAB6HH6LRO17U79I9TKUGYFV09C","","null","<img src=""img/land2.png"" style=""width:200px;border:14px solid red;"">","null","","","","","","","","","",""
"","image-keyboard-response","251","240598","0.0-251.0","3OS4RQUCRA13VIZBZDKSCG8Y0UBFB8","A1VBP1RMKGUXB","3UDTAB6HH6LRO17U79I9TKUGYFV09C","","628","img/land6.png","76","630","3","1","2","2","0.8,0.2,0.2,0.2,0.8,0.2,0.2,0.2,0.8","0.2,0.8,0.2,0.2,0.2,0.8,0.8,0.2,0.2","3","",""
"","html-keyboard-response","252","240902","0.0-252.0","3OS4RQUCRA13VIZBZDKSCG8Y0UBFB8","A1VBP1RMKGUXB","3UDTAB6HH6LRO17U79I9TKUGYFV09C","","null","<img src=""img/land6.png"" style=""width:200px; border:14px solid green;"">","null","","","","","","","","","",""
"","image-keyboard-response","253","242065","0.0-253.0","3OS4RQUCRA13VIZBZDKSCG8Y0UBFB8","A1VBP1RMKGUXB","3UDTAB6HH6LRO17U79I9TKUGYFV09C","","1156","img/land4.png","76","1157","3","0","3","2","0.8,0.2,0.2,0.2,0.8,0.2,0.2,0.2,0.8","0.2,0.8,0.2,0.2,0.2,0.8,0.8,0.2,0.2","3","",""
"","html-keyboard-response","254","242368","0.0-254.0","3OS4RQUCRA13VIZBZDKSCG8Y0UBFB8","A1VBP1RMKGUXB","3UDTAB6HH6LRO17U79I9TKUGYFV09C","","null","<img src=""img/land4.png"" style=""width:200px;border:14px solid red;"">","null","","","","","","","","","",""
"","image-keyboard-response","255","243651","0.0-255.0","3OS4RQUCRA13VIZBZDKSCG8Y0UBFB8","A1VBP1RMKGUXB","3UDTAB6HH6LRO17U79I9TKUGYFV09C","","1281","img/land2.png","74","1283","1","0","1","2","0.8,0.2,0.2,0.2,0.8,0.2,0.2,0.2,0.8","0.2,0.8,0.2,0.2,0.2,0.8,0.8,0.2,0.2","3","",""
"","html-keyboard-response","256","243953","0.0-256.0","3OS4RQUCRA13VIZBZDKSCG8Y0UBFB8","A1VBP1RMKGUXB","3UDTAB6HH6LRO17U79I9TKUGYFV09C","","null","<img src=""img/land2.png"" style=""width:200px;border:14px solid red;"">","null","","","","","","","","","",""
"","image-keyboard-response","257","244712","0.0-257.0","3OS4RQUCRA13VIZBZDKSCG8Y0UBFB8","A1VBP1RMKGUXB","3UDTAB6HH6LRO17U79I9TKUGYFV09C","","757","img/land2.png","74","758","1","1","1","2","0.8,0.2,0.2,0.2,0.8,0.2,0.2,0.2,0.8","0.2,0.8,0.2,0.2,0.2,0.8,0.8,0.2,0.2","3","",""
"","html-keyboard-response","258","245014","0.0-258.0","3OS4RQUCRA13VIZBZDKSCG8Y0UBFB8","A1VBP1RMKGUXB","3UDTAB6HH6LRO17U79I9TKUGYFV09C","","null","<img src=""img/land2.png"" style=""width:200px; border:14px solid green;"">","null","","","","","","","","","",""
"","image-keyboard-response","259","246160","0.0-259.0","3OS4RQUCRA13VIZBZDKSCG8Y0UBFB8","A1VBP1RMKGUXB","3UDTAB6HH6LRO17U79I9TKUGYFV09C","","1143","img/land2.png","74","1145","1","0","1","2","0.8,0.2,0.2,0.2,0.8,0.2,0.2,0.2,0.8","0.2,0.8,0.2,0.2,0.2,0.8,0.8,0.2,0.2","3","",""
"","html-keyboard-response","260","246461","0.0-260.0","3OS4RQUCRA13VIZBZDKSCG8Y0UBFB8","A1VBP1RMKGUXB","3UDTAB6HH6LRO17U79I9TKUGYFV09C","","null","<img src=""img/land2.png"" style=""width:200px;border:14px solid red;"">","null","","","","","","","","","",""
"","image-keyboard-response","261","247269","0.0-261.0","3OS4RQUCRA13VIZBZDKSCG8Y0UBFB8","A1VBP1RMKGUXB","3UDTAB6HH6LRO17U79I9TKUGYFV09C","","805","img/land2.png","74","806","1","1","1","2","0.8,0.2,0.2,0.2,0.8,0.2,0.2,0.2,0.8","0.2,0.8,0.2,0.2,0.2,0.8,0.8,0.2,0.2","3","",""
"","html-keyboard-response","262","247593","0.0-262.0","3OS4RQUCRA13VIZBZDKSCG8Y0UBFB8","A1VBP1RMKGUXB","3UDTAB6HH6LRO17U79I9TKUGYFV09C","","null","<img src=""img/land2.png"" style=""width:200px; border:14px solid green;"">","null","","","","","","","","","",""
"","image-keyboard-response","263","248607","0.0-263.0","3OS4RQUCRA13VIZBZDKSCG8Y0UBFB8","A1VBP1RMKGUXB","3UDTAB6HH6LRO17U79I9TKUGYFV09C","","1013","img/land2.png","74","1014","1","1","1","2","0.8,0.2,0.2,0.2,0.8,0.2,0.2,0.2,0.8","0.2,0.8,0.2,0.2,0.2,0.8,0.8,0.2,0.2","3","",""
"","html-keyboard-response","264","248909","0.0-264.0","3OS4RQUCRA13VIZBZDKSCG8Y0UBFB8","A1VBP1RMKGUXB","3UDTAB6HH6LRO17U79I9TKUGYFV09C","","null","<img src=""img/land2.png"" style=""width:200px; border:14px solid green;"">","null","","","","","","","","","",""
"","image-keyboard-response","265","249759","0.0-265.0","3OS4RQUCRA13VIZBZDKSCG8Y0UBFB8","A1VBP1RMKGUXB","3UDTAB6HH6LRO17U79I9TKUGYFV09C","","848","img/land2.png","75","849","2","0","1","2","0.8,0.2,0.2,0.2,0.8,0.2,0.2,0.2,0.8","0.2,0.8,0.2,0.2,0.2,0.8,0.8,0.2,0.2","3","",""
"","html-keyboard-response","266","250061","0.0-266.0","3OS4RQUCRA13VIZBZDKSCG8Y0UBFB8","A1VBP1RMKGUXB","3UDTAB6HH6LRO17U79I9TKUGYFV09C","","null","<img src=""img/land2.png"" style=""width:200px;border:14px solid red;"">","null","","","","","","","","","",""
"","image-keyboard-response","267","251208","0.0-267.0","3OS4RQUCRA13VIZBZDKSCG8Y0UBFB8","A1VBP1RMKGUXB","3UDTAB6HH6LRO17U79I9TKUGYFV09C","","1145","img/land2.png","75","1146","2","1","1","2","0.8,0.2,0.2,0.2,0.8,0.2,0.2,0.2,0.8","0.2,0.8,0.2,0.2,0.2,0.8,0.8,0.2,0.2","3","",""
"","html-keyboard-response","268","251511","0.0-268.0","3OS4RQUCRA13VIZBZDKSCG8Y0UBFB8","A1VBP1RMKGUXB","3UDTAB6HH6LRO17U79I9TKUGYFV09C","","null","<img src=""img/land2.png"" style=""width:200px; border:14px solid green;"">","null","","","","","","","","","",""
"","image-keyboard-response","269","252759","0.0-269.0","3OS4RQUCRA13VIZBZDKSCG8Y0UBFB8","A1VBP1RMKGUXB","3UDTAB6HH6LRO17U79I9TKUGYFV09C","","1245","img/land4.png","76","1247","3","0","3","2","0.8,0.2,0.2,0.2,0.8,0.2,0.2,0.2,0.8","0.2,0.8,0.2,0.2,0.2,0.8,0.8,0.2,0.2","3","",""
"","html-keyboard-response","270","253062","0.0-270.0","3OS4RQUCRA13VIZBZDKSCG8Y0UBFB8","A1VBP1RMKGUXB","3UDTAB6HH6LRO17U79I9TKUGYFV09C","","null","<img src=""img/land4.png"" style=""width:200px;border:14px solid red;"">","null","","","","","","","","","",""
"","image-keyboard-response","271","254377","0.0-271.0","3OS4RQUCRA13VIZBZDKSCG8Y0UBFB8","A1VBP1RMKGUXB","3UDTAB6HH6LRO17U79I9TKUGYFV09C","","1312","img/land2.png","74","1317","1","0","1","2","0.8,0.2,0.2,0.2,0.8,0.2,0.2,0.2,0.8","0.2,0.8,0.2,0.2,0.2,0.8,0.8,0.2,0.2","3","",""
"","html-keyboard-response","272","254683","0.0-272.0","3OS4RQUCRA13VIZBZDKSCG8Y0UBFB8","A1VBP1RMKGUXB","3UDTAB6HH6LRO17U79I9TKUGYFV09C","","null","<img src=""img/land2.png"" style=""width:200px;border:14px solid red;"">","null","","","","","","","","","",""
"","image-keyboard-response","273","255839","0.0-273.0","3OS4RQUCRA13VIZBZDKSCG8Y0UBFB8","A1VBP1RMKGUXB","3UDTAB6HH6LRO17U79I9TKUGYFV09C","","1151","img/land6.png","75","1155","2","1","2","2","0.8,0.2,0.2,0.2,0.8,0.2,0.2,0.2,0.8","0.2,0.8,0.2,0.2,0.2,0.8,0.8,0.2,0.2","3","",""
"","html-keyboard-response","274","256142","0.0-274.0","3OS4RQUCRA13VIZBZDKSCG8Y0UBFB8","A1VBP1RMKGUXB","3UDTAB6HH6LRO17U79I9TKUGYFV09C","","null","<img src=""img/land6.png"" style=""width:200px; border:14px solid green;"">","null","","","","","","","","","",""
"","image-keyboard-response","275","257328","0.0-275.0","3OS4RQUCRA13VIZBZDKSCG8Y0UBFB8","A1VBP1RMKGUXB","3UDTAB6HH6LRO17U79I9TKUGYFV09C","","1184","img/land2.png","74","1185","1","0","1","2","0.8,0.2,0.2,0.2,0.8,0.2,0.2,0.2,0.8","0.2,0.8,0.2,0.2,0.2,0.8,0.8,0.2,0.2","3","",""
"","html-keyboard-response","276","257632","0.0-276.0","3OS4RQUCRA13VIZBZDKSCG8Y0UBFB8","A1VBP1RMKGUXB","3UDTAB6HH6LRO17U79I9TKUGYFV09C","","null","<img src=""img/land2.png"" style=""width:200px;border:14px solid red;"">","null","","","","","","","","","",""
"","image-keyboard-response","277","259062","0.0-277.0","3OS4RQUCRA13VIZBZDKSCG8Y0UBFB8","A1VBP1RMKGUXB","3UDTAB6HH6LRO17U79I9TKUGYFV09C","","1428","img/land6.png","75","1429","2","0","2","2","0.8,0.2,0.2,0.2,0.8,0.2,0.2,0.2,0.8","0.2,0.8,0.2,0.2,0.2,0.8,0.8,0.2,0.2","3","",""
"","html-keyboard-response","278","259366","0.0-278.0","3OS4RQUCRA13VIZBZDKSCG8Y0UBFB8","A1VBP1RMKGUXB","3UDTAB6HH6LRO17U79I9TKUGYFV09C","","null","<img src=""img/land6.png"" style=""width:200px;border:14px solid red;"">","null","","","","","","","","","",""
"","image-keyboard-response","279","260389","0.0-279.0","3OS4RQUCRA13VIZBZDKSCG8Y0UBFB8","A1VBP1RMKGUXB","3UDTAB6HH6LRO17U79I9TKUGYFV09C","","1020","img/land6.png","75","1022","2","0","2","2","0.8,0.2,0.2,0.2,0.8,0.2,0.2,0.2,0.8","0.2,0.8,0.2,0.2,0.2,0.8,0.8,0.2,0.2","3","",""
"","html-keyboard-response","280","260691","0.0-280.0","3OS4RQUCRA13VIZBZDKSCG8Y0UBFB8","A1VBP1RMKGUXB","3UDTAB6HH6LRO17U79I9TKUGYFV09C","","null","<img src=""img/land6.png"" style=""width:200px;border:14px solid red;"">","null","","","","","","","","","",""
"","image-keyboard-response","281","261748","0.0-281.0","3OS4RQUCRA13VIZBZDKSCG8Y0UBFB8","A1VBP1RMKGUXB","3UDTAB6HH6LRO17U79I9TKUGYFV09C","","1052","img/land2.png","74","1056","1","0","1","2","0.8,0.2,0.2,0.2,0.8,0.2,0.2,0.2,0.8","0.2,0.8,0.2,0.2,0.2,0.8,0.8,0.2,0.2","3","",""
"","html-keyboard-response","282","262051","0.0-282.0","3OS4RQUCRA13VIZBZDKSCG8Y0UBFB8","A1VBP1RMKGUXB","3UDTAB6HH6LRO17U79I9TKUGYFV09C","","null","<img src=""img/land2.png"" style=""width:200px;border:14px solid red;"">","null","","","","","","","","","",""
"","image-keyboard-response","283","263067","0.0-283.0","3OS4RQUCRA13VIZBZDKSCG8Y0UBFB8","A1VBP1RMKGUXB","3UDTAB6HH6LRO17U79I9TKUGYFV09C","","1013","img/land2.png","74","1015","1","1","1","2","0.8,0.2,0.2,0.2,0.8,0.2,0.2,0.2,0.8","0.2,0.8,0.2,0.2,0.2,0.8,0.8,0.2,0.2","3","",""
"","html-keyboard-response","284","263371","0.0-284.0","3OS4RQUCRA13VIZBZDKSCG8Y0UBFB8","A1VBP1RMKGUXB","3UDTAB6HH6LRO17U79I9TKUGYFV09C","","null","<img src=""img/land2.png"" style=""width:200px; border:14px solid green;"">","null","","","","","","","","","",""
"","image-keyboard-response","285","264599","0.0-285.0","3OS4RQUCRA13VIZBZDKSCG8Y0UBFB8","A1VBP1RMKGUXB","3UDTAB6HH6LRO17U79I9TKUGYFV09C","","1225","img/land6.png","76","1227","3","1","2","2","0.8,0.2,0.2,0.2,0.8,0.2,0.2,0.2,0.8","0.2,0.8,0.2,0.2,0.2,0.8,0.8,0.2,0.2","3","",""
"","html-keyboard-response","286","264904","0.0-286.0","3OS4RQUCRA13VIZBZDKSCG8Y0UBFB8","A1VBP1RMKGUXB","3UDTAB6HH6LRO17U79I9TKUGYFV09C","","null","<img src=""img/land6.png"" style=""width:200px; border:14px solid green;"">","null","","","","","","","","","",""
"","image-keyboard-response","287","266912","0.0-287.0","3OS4RQUCRA13VIZBZDKSCG8Y0UBFB8","A1VBP1RMKGUXB","3UDTAB6HH6LRO17U79I9TKUGYFV09C","","","img/land2.png","","2005","-1","0","1","2","0.8,0.2,0.2,0.2,0.8,0.2,0.2,0.2,0.8","0.2,0.8,0.2,0.2,0.2,0.8,0.8,0.2,0.2","3","",""
"","html-keyboard-response","288","267216","0.0-288.0","3OS4RQUCRA13VIZBZDKSCG8Y0UBFB8","A1VBP1RMKGUXB","3UDTAB6HH6LRO17U79I9TKUGYFV09C","","null","<img src=""img/land2.png"" style=""width:200px;border:14px solid red;"">","null","","","","","","","","","",""
"","image-keyboard-response","289","267968","0.0-289.0","3OS4RQUCRA13VIZBZDKSCG8Y0UBFB8","A1VBP1RMKGUXB","3UDTAB6HH6LRO17U79I9TKUGYFV09C","","746","img/land2.png","74","750","1","1","1","2","0.8,0.2,0.2,0.2,0.8,0.2,0.2,0.2,0.8","0.2,0.8,0.2,0.2,0.2,0.8,0.8,0.2,0.2","3","",""
"","html-keyboard-response","290","268271","0.0-290.0","3OS4RQUCRA13VIZBZDKSCG8Y0UBFB8","A1VBP1RMKGUXB","3UDTAB6HH6LRO17U79I9TKUGYFV09C","","null","<img src=""img/land2.png"" style=""width:200px; border:14px solid green;"">","null","","","","","","","","","",""
"","image-keyboard-response","291","269777","0.0-291.0","3OS4RQUCRA13VIZBZDKSCG8Y0UBFB8","A1VBP1RMKGUXB","3UDTAB6HH6LRO17U79I9TKUGYFV09C","","1503","img/land6.png","75","1505","2","0","2","2","0.8,0.2,0.2,0.2,0.8,0.2,0.2,0.2,0.8","0.2,0.8,0.2,0.2,0.2,0.8,0.8,0.2,0.2","3","",""
"","html-keyboard-response","292","270079","0.0-292.0","3OS4RQUCRA13VIZBZDKSCG8Y0UBFB8","A1VBP1RMKGUXB","3UDTAB6HH6LRO17U79I9TKUGYFV09C","","null","<img src=""img/land6.png"" style=""width:200px;border:14px solid red;"">","null","","","","","","","","","",""
"","image-keyboard-response","293","271318","0.0-293.0","3OS4RQUCRA13VIZBZDKSCG8Y0UBFB8","A1VBP1RMKGUXB","3UDTAB6HH6LRO17U79I9TKUGYFV09C","","1236","img/land4.png","76","1238","3","0","3","2","0.8,0.2,0.2,0.2,0.8,0.2,0.2,0.2,0.8","0.2,0.8,0.2,0.2,0.2,0.8,0.8,0.2,0.2","3","",""
"","html-keyboard-response","294","271619","0.0-294.0","3OS4RQUCRA13VIZBZDKSCG8Y0UBFB8","A1VBP1RMKGUXB","3UDTAB6HH6LRO17U79I9TKUGYFV09C","","null","<img src=""img/land4.png"" style=""width:200px;border:14px solid red;"">","null","","","","","","","","","",""
"","image-keyboard-response","295","272918","0.0-295.0","3OS4RQUCRA13VIZBZDKSCG8Y0UBFB8","A1VBP1RMKGUXB","3UDTAB6HH6LRO17U79I9TKUGYFV09C","","1296","img/land2.png","74","1299","1","0","1","2","0.8,0.2,0.2,0.2,0.8,0.2,0.2,0.2,0.8","0.2,0.8,0.2,0.2,0.2,0.8,0.8,0.2,0.2","3","",""
"","html-keyboard-response","296","273220","0.0-296.0","3OS4RQUCRA13VIZBZDKSCG8Y0UBFB8","A1VBP1RMKGUXB","3UDTAB6HH6LRO17U79I9TKUGYFV09C","","null","<img src=""img/land2.png"" style=""width:200px;border:14px solid red;"">","null","","","","","","","","","",""
"","image-keyboard-response","297","274127","0.0-297.0","3OS4RQUCRA13VIZBZDKSCG8Y0UBFB8","A1VBP1RMKGUXB","3UDTAB6HH6LRO17U79I9TKUGYFV09C","","904","img/land4.png","76","906","3","0","3","2","0.8,0.2,0.2,0.2,0.8,0.2,0.2,0.2,0.8","0.2,0.8,0.2,0.2,0.2,0.8,0.8,0.2,0.2","3","",""
"","html-keyboard-response","298","274429","0.0-298.0","3OS4RQUCRA13VIZBZDKSCG8Y0UBFB8","A1VBP1RMKGUXB","3UDTAB6HH6LRO17U79I9TKUGYFV09C","","null","<img src=""img/land4.png"" style=""width:200px;border:14px solid red;"">","null","","","","","","","","","",""
"","image-keyboard-response","299","275487","0.0-299.0","3OS4RQUCRA13VIZBZDKSCG8Y0UBFB8","A1VBP1RMKGUXB","3UDTAB6HH6LRO17U79I9TKUGYFV09C","","1057","img/land2.png","74","1058","1","0","1","2","0.8,0.2,0.2,0.2,0.8,0.2,0.2,0.2,0.8","0.2,0.8,0.2,0.2,0.2,0.8,0.8,0.2,0.2","3","",""
"","html-keyboard-response","300","275791","0.0-300.0","3OS4RQUCRA13VIZBZDKSCG8Y0UBFB8","A1VBP1RMKGUXB","3UDTAB6HH6LRO17U79I9TKUGYFV09C","","null","<img src=""img/land2.png"" style=""width:200px;border:14px solid red;"">","null","","","","","","","","","",""
"","image-keyboard-response","301","276807","0.0-301.0","3OS4RQUCRA13VIZBZDKSCG8Y0UBFB8","A1VBP1RMKGUXB","3UDTAB6HH6LRO17U79I9TKUGYFV09C","","1014","img/land6.png","75","1015","2","0","2","2","0.8,0.2,0.2,0.2,0.8,0.2,0.2,0.2,0.8","0.2,0.8,0.2,0.2,0.2,0.8,0.8,0.2,0.2","3","",""
"","html-keyboard-response","302","277111","0.0-302.0","3OS4RQUCRA13VIZBZDKSCG8Y0UBFB8","A1VBP1RMKGUXB","3UDTAB6HH6LRO17U79I9TKUGYFV09C","","null","<img src=""img/land6.png"" style=""width:200px;border:14px solid red;"">","null","","","","","","","","","",""
"","image-keyboard-response","303","278087","0.0-303.0","3OS4RQUCRA13VIZBZDKSCG8Y0UBFB8","A1VBP1RMKGUXB","3UDTAB6HH6LRO17U79I9TKUGYFV09C","","969","img/land2.png","74","975","1","0","1","2","0.8,0.2,0.2,0.2,0.8,0.2,0.2,0.2,0.8","0.2,0.8,0.2,0.2,0.2,0.8,0.8,0.2,0.2","3","",""
"","html-keyboard-response","304","278389","0.0-304.0","3OS4RQUCRA13VIZBZDKSCG8Y0UBFB8","A1VBP1RMKGUXB","3UDTAB6HH6LRO17U79I9TKUGYFV09C","","null","<img src=""img/land2.png"" style=""width:200px;border:14px solid red;"">","null","","","","","","","","","",""
"","image-keyboard-response","305","279687","0.0-305.0","3OS4RQUCRA13VIZBZDKSCG8Y0UBFB8","A1VBP1RMKGUXB","3UDTAB6HH6LRO17U79I9TKUGYFV09C","","1297","img/land4.png","76","1298","3","0","3","2","0.8,0.2,0.2,0.2,0.8,0.2,0.2,0.2,0.8","0.2,0.8,0.2,0.2,0.2,0.8,0.8,0.2,0.2","3","",""
"","html-keyboard-response","306","279990","0.0-306.0","3OS4RQUCRA13VIZBZDKSCG8Y0UBFB8","A1VBP1RMKGUXB","3UDTAB6HH6LRO17U79I9TKUGYFV09C","","null","<img src=""img/land4.png"" style=""width:200px;border:14px solid red;"">","null","","","","","","","","","",""
"","image-keyboard-response","307","281140","0.0-307.0","3OS4RQUCRA13VIZBZDKSCG8Y0UBFB8","A1VBP1RMKGUXB","3UDTAB6HH6LRO17U79I9TKUGYFV09C","","1147","img/land4.png","76","1149","3","1","3","2","0.8,0.2,0.2,0.2,0.8,0.2,0.2,0.2,0.8","0.2,0.8,0.2,0.2,0.2,0.8,0.8,0.2,0.2","3","",""
"","html-keyboard-response","308","281442","0.0-308.0","3OS4RQUCRA13VIZBZDKSCG8Y0UBFB8","A1VBP1RMKGUXB","3UDTAB6HH6LRO17U79I9TKUGYFV09C","","null","<img src=""img/land4.png"" style=""width:200px; border:14px solid green;"">","null","","","","","","","","","",""
"","image-keyboard-response","309","282473","0.0-309.0","3OS4RQUCRA13VIZBZDKSCG8Y0UBFB8","A1VBP1RMKGUXB","3UDTAB6HH6LRO17U79I9TKUGYFV09C","","1029","img/land4.png","76","1031","3","0","3","2","0.8,0.2,0.2,0.2,0.8,0.2,0.2,0.2,0.8","0.2,0.8,0.2,0.2,0.2,0.8,0.8,0.2,0.2","3","",""
"","html-keyboard-response","310","282776","0.0-310.0","3OS4RQUCRA13VIZBZDKSCG8Y0UBFB8","A1VBP1RMKGUXB","3UDTAB6HH6LRO17U79I9TKUGYFV09C","","null","<img src=""img/land4.png"" style=""width:200px;border:14px solid red;"">","null","","","","","","","","","",""
"","image-keyboard-response","311","283607","0.0-311.0","3OS4RQUCRA13VIZBZDKSCG8Y0UBFB8","A1VBP1RMKGUXB","3UDTAB6HH6LRO17U79I9TKUGYFV09C","","829","img/land4.png","76","830","3","0","3","2","0.8,0.2,0.2,0.2,0.8,0.2,0.2,0.2,0.8","0.2,0.8,0.2,0.2,0.2,0.8,0.8,0.2,0.2","3","",""
"","html-keyboard-response","312","283909","0.0-312.0","3OS4RQUCRA13VIZBZDKSCG8Y0UBFB8","A1VBP1RMKGUXB","3UDTAB6HH6LRO17U79I9TKUGYFV09C","","null","<img src=""img/land4.png"" style=""width:200px;border:14px solid red;"">","null","","","","","","","","","",""
"","image-keyboard-response","313","284941","0.0-313.0","3OS4RQUCRA13VIZBZDKSCG8Y0UBFB8","A1VBP1RMKGUXB","3UDTAB6HH6LRO17U79I9TKUGYFV09C","","1030","img/land2.png","74","1031","1","0","1","2","0.8,0.2,0.2,0.2,0.8,0.2,0.2,0.2,0.8","0.2,0.8,0.2,0.2,0.2,0.8,0.8,0.2,0.2","3","",""
"","html-keyboard-response","314","285242","0.0-314.0","3OS4RQUCRA13VIZBZDKSCG8Y0UBFB8","A1VBP1RMKGUXB","3UDTAB6HH6LRO17U79I9TKUGYFV09C","","null","<img src=""img/land2.png"" style=""width:200px;border:14px solid red;"">","null","","","","","","","","","",""
"","image-keyboard-response","315","286194","0.0-315.0","3OS4RQUCRA13VIZBZDKSCG8Y0UBFB8","A1VBP1RMKGUXB","3UDTAB6HH6LRO17U79I9TKUGYFV09C","","950","img/land2.png","74","953","1","1","1","2","0.8,0.2,0.2,0.2,0.8,0.2,0.2,0.2,0.8","0.2,0.8,0.2,0.2,0.2,0.8,0.8,0.2,0.2","3","",""
"","html-keyboard-response","316","286498","0.0-316.0","3OS4RQUCRA13VIZBZDKSCG8Y0UBFB8","A1VBP1RMKGUXB","3UDTAB6HH6LRO17U79I9TKUGYFV09C","","null","<img src=""img/land2.png"" style=""width:200px; border:14px solid green;"">","null","","","","","","","","","",""
"","image-keyboard-response","317","287446","0.0-317.0","3OS4RQUCRA13VIZBZDKSCG8Y0UBFB8","A1VBP1RMKGUXB","3UDTAB6HH6LRO17U79I9TKUGYFV09C","","945","img/land2.png","74","947","1","0","1","2","0.8,0.2,0.2,0.2,0.8,0.2,0.2,0.2,0.8","0.2,0.8,0.2,0.2,0.2,0.8,0.8,0.2,0.2","3","",""
"","html-keyboard-response","318","287751","0.0-318.0","3OS4RQUCRA13VIZBZDKSCG8Y0UBFB8","A1VBP1RMKGUXB","3UDTAB6HH6LRO17U79I9TKUGYFV09C","","null","<img src=""img/land2.png"" style=""width:200px;border:14px solid red;"">","null","","","","","","","","","",""
"","image-keyboard-response","319","289015","0.0-319.0","3OS4RQUCRA13VIZBZDKSCG8Y0UBFB8","A1VBP1RMKGUXB","3UDTAB6HH6LRO17U79I9TKUGYFV09C","","1260","img/land2.png","74","1263","1","1","1","2","0.8,0.2,0.2,0.2,0.8,0.2,0.2,0.2,0.8","0.2,0.8,0.2,0.2,0.2,0.8,0.8,0.2,0.2","3","",""
"","html-keyboard-response","320","289318","0.0-320.0","3OS4RQUCRA13VIZBZDKSCG8Y0UBFB8","A1VBP1RMKGUXB","3UDTAB6HH6LRO17U79I9TKUGYFV09C","","null","<img src=""img/land2.png"" style=""width:200px; border:14px solid green;"">","null","","","","","","","","","",""
"","image-keyboard-response","321","290098","0.0-321.0","3OS4RQUCRA13VIZBZDKSCG8Y0UBFB8","A1VBP1RMKGUXB","3UDTAB6HH6LRO17U79I9TKUGYFV09C","","777","img/land2.png","74","779","1","0","1","2","0.8,0.2,0.2,0.2,0.8,0.2,0.2,0.2,0.8","0.2,0.8,0.2,0.2,0.2,0.8,0.8,0.2,0.2","3","",""
"","html-keyboard-response","322","290401","0.0-322.0","3OS4RQUCRA13VIZBZDKSCG8Y0UBFB8","A1VBP1RMKGUXB","3UDTAB6HH6LRO17U79I9TKUGYFV09C","","null","<img src=""img/land2.png"" style=""width:200px;border:14px solid red;"">","null","","","","","","","","","",""
"","image-keyboard-response","323","291086","0.0-323.0","3OS4RQUCRA13VIZBZDKSCG8Y0UBFB8","A1VBP1RMKGUXB","3UDTAB6HH6LRO17U79I9TKUGYFV09C","","684","img/land2.png","75","686","2","1","1","2","0.8,0.2,0.2,0.2,0.8,0.2,0.2,0.2,0.8","0.2,0.8,0.2,0.2,0.2,0.8,0.8,0.2,0.2","3","",""
"","html-keyboard-response","324","291388","0.0-324.0","3OS4RQUCRA13VIZBZDKSCG8Y0UBFB8","A1VBP1RMKGUXB","3UDTAB6HH6LRO17U79I9TKUGYFV09C","","null","<img src=""img/land2.png"" style=""width:200px; border:14px solid green;"">","null","","","","","","","","","",""
"","image-keyboard-response","325","292787","0.0-325.0","3OS4RQUCRA13VIZBZDKSCG8Y0UBFB8","A1VBP1RMKGUXB","3UDTAB6HH6LRO17U79I9TKUGYFV09C","","1396","img/land6.png","75","1398","2","0","2","2","0.8,0.2,0.2,0.2,0.8,0.2,0.2,0.2,0.8","0.2,0.8,0.2,0.2,0.2,0.8,0.8,0.2,0.2","3","",""
"","html-keyboard-response","326","293088","0.0-326.0","3OS4RQUCRA13VIZBZDKSCG8Y0UBFB8","A1VBP1RMKGUXB","3UDTAB6HH6LRO17U79I9TKUGYFV09C","","null","<img src=""img/land6.png"" style=""width:200px;border:14px solid red;"">","null","","","","","","","","","",""
"","image-keyboard-response","327","293899","0.0-327.0","3OS4RQUCRA13VIZBZDKSCG8Y0UBFB8","A1VBP1RMKGUXB","3UDTAB6HH6LRO17U79I9TKUGYFV09C","","810","img/land6.png","75","811","2","1","2","2","0.8,0.2,0.2,0.2,0.8,0.2,0.2,0.2,0.8","0.2,0.8,0.2,0.2,0.2,0.8,0.8,0.2,0.2","3","",""
"","html-keyboard-response","328","294203","0.0-328.0","3OS4RQUCRA13VIZBZDKSCG8Y0UBFB8","A1VBP1RMKGUXB","3UDTAB6HH6LRO17U79I9TKUGYFV09C","","null","<img src=""img/land6.png"" style=""width:200px; border:14px solid green;"">","null","","","","","","","","","",""
"","image-keyboard-response","329","295665","0.0-329.0","3OS4RQUCRA13VIZBZDKSCG8Y0UBFB8","A1VBP1RMKGUXB","3UDTAB6HH6LRO17U79I9TKUGYFV09C","","1461","img/land2.png","74","1462","1","0","1","2","0.8,0.2,0.2,0.2,0.8,0.2,0.2,0.2,0.8","0.2,0.8,0.2,0.2,0.2,0.8,0.8,0.2,0.2","3","",""
"","html-keyboard-response","330","295968","0.0-330.0","3OS4RQUCRA13VIZBZDKSCG8Y0UBFB8","A1VBP1RMKGUXB","3UDTAB6HH6LRO17U79I9TKUGYFV09C","","null","<img src=""img/land2.png"" style=""width:200px;border:14px solid red;"">","null","","","","","","","","","",""
"","image-keyboard-response","331","296978","0.0-331.0","3OS4RQUCRA13VIZBZDKSCG8Y0UBFB8","A1VBP1RMKGUXB","3UDTAB6HH6LRO17U79I9TKUGYFV09C","","1006","img/land4.png","76","1009","3","0","3","2","0.8,0.2,0.2,0.2,0.8,0.2,0.2,0.2,0.8","0.2,0.8,0.2,0.2,0.2,0.8,0.8,0.2,0.2","3","",""
"","html-keyboard-response","332","297300","0.0-332.0","3OS4RQUCRA13VIZBZDKSCG8Y0UBFB8","A1VBP1RMKGUXB","3UDTAB6HH6LRO17U79I9TKUGYFV09C","","null","<img src=""img/land4.png"" style=""width:200px;border:14px solid red;"">","null","","","","","","","","","",""
"","image-keyboard-response","333","298397","0.0-333.0","3OS4RQUCRA13VIZBZDKSCG8Y0UBFB8","A1VBP1RMKGUXB","3UDTAB6HH6LRO17U79I9TKUGYFV09C","","1095","img/land4.png","76","1097","3","0","3","2","0.8,0.2,0.2,0.2,0.8,0.2,0.2,0.2,0.8","0.2,0.8,0.2,0.2,0.2,0.8,0.8,0.2,0.2","3","",""
"","html-keyboard-response","334","298699","0.0-334.0","3OS4RQUCRA13VIZBZDKSCG8Y0UBFB8","A1VBP1RMKGUXB","3UDTAB6HH6LRO17U79I9TKUGYFV09C","","null","<img src=""img/land4.png"" style=""width:200px;border:14px solid red;"">","null","","","","","","","","","",""
"","image-keyboard-response","335","299650","0.0-335.0","3OS4RQUCRA13VIZBZDKSCG8Y0UBFB8","A1VBP1RMKGUXB","3UDTAB6HH6LRO17U79I9TKUGYFV09C","","948","img/land2.png","74","950","1","1","1","2","0.8,0.2,0.2,0.2,0.8,0.2,0.2,0.2,0.8","0.2,0.8,0.2,0.2,0.2,0.8,0.8,0.2,0.2","3","",""
"","html-keyboard-response","336","299953","0.0-336.0","3OS4RQUCRA13VIZBZDKSCG8Y0UBFB8","A1VBP1RMKGUXB","3UDTAB6HH6LRO17U79I9TKUGYFV09C","","null","<img src=""img/land2.png"" style=""width:200px; border:14px solid green;"">","null","","","","","","","","","",""
"","image-keyboard-response","337","301056","0.0-337.0","3OS4RQUCRA13VIZBZDKSCG8Y0UBFB8","A1VBP1RMKGUXB","3UDTAB6HH6LRO17U79I9TKUGYFV09C","","1099","img/land6.png","75","1101","2","0","2","2","0.8,0.2,0.2,0.2,0.8,0.2,0.2,0.2,0.8","0.2,0.8,0.2,0.2,0.2,0.8,0.8,0.2,0.2","3","",""
"","html-keyboard-response","338","301357","0.0-338.0","3OS4RQUCRA13VIZBZDKSCG8Y0UBFB8","A1VBP1RMKGUXB","3UDTAB6HH6LRO17U79I9TKUGYFV09C","","null","<img src=""img/land6.png"" style=""width:200px;border:14px solid red;"">","null","","","","","","","","","",""
"","image-keyboard-response","339","302516","0.0-339.0","3OS4RQUCRA13VIZBZDKSCG8Y0UBFB8","A1VBP1RMKGUXB","3UDTAB6HH6LRO17U79I9TKUGYFV09C","","1156","img/land2.png","74","1158","1","0","1","2","0.8,0.2,0.2,0.2,0.8,0.2,0.2,0.2,0.8","0.2,0.8,0.2,0.2,0.2,0.8,0.8,0.2,0.2","3","",""
"","html-keyboard-response","340","302817","0.0-340.0","3OS4RQUCRA13VIZBZDKSCG8Y0UBFB8","A1VBP1RMKGUXB","3UDTAB6HH6LRO17U79I9TKUGYFV09C","","null","<img src=""img/land2.png"" style=""width:200px;border:14px solid red;"">","null","","","","","","","","","",""
"","image-keyboard-response","341","303750","0.0-341.0","3OS4RQUCRA13VIZBZDKSCG8Y0UBFB8","A1VBP1RMKGUXB","3UDTAB6HH6LRO17U79I9TKUGYFV09C","","931","img/land4.png","76","934","3","0","3","2","0.8,0.2,0.2,0.2,0.8,0.2,0.2,0.2,0.8","0.2,0.8,0.2,0.2,0.2,0.8,0.8,0.2,0.2","3","",""
"","html-keyboard-response","342","304054","0.0-342.0","3OS4RQUCRA13VIZBZDKSCG8Y0UBFB8","A1VBP1RMKGUXB","3UDTAB6HH6LRO17U79I9TKUGYFV09C","","null","<img src=""img/land4.png"" style=""width:200px;border:14px solid red;"">","null","","","","","","","","","",""
"","image-keyboard-response","343","305540","0.0-343.0","3OS4RQUCRA13VIZBZDKSCG8Y0UBFB8","A1VBP1RMKGUXB","3UDTAB6HH6LRO17U79I9TKUGYFV09C","","1481","img/land4.png","76","1486","3","0","3","2","0.8,0.2,0.2,0.2,0.8,0.2,0.2,0.2,0.8","0.2,0.8,0.2,0.2,0.2,0.8,0.8,0.2,0.2","3","",""
"","html-keyboard-response","344","305844","0.0-344.0","3OS4RQUCRA13VIZBZDKSCG8Y0UBFB8","A1VBP1RMKGUXB","3UDTAB6HH6LRO17U79I9TKUGYFV09C","","null","<img src=""img/land4.png"" style=""width:200px;border:14px solid red;"">","null","","","","","","","","","",""
"","image-keyboard-response","345","306737","0.0-345.0","3OS4RQUCRA13VIZBZDKSCG8Y0UBFB8","A1VBP1RMKGUXB","3UDTAB6HH6LRO17U79I9TKUGYFV09C","","891","img/land4.png","76","892","3","0","3","2","0.8,0.2,0.2,0.2,0.8,0.2,0.2,0.2,0.8","0.2,0.8,0.2,0.2,0.2,0.8,0.8,0.2,0.2","3","",""
"","html-keyboard-response","346","307039","0.0-346.0","3OS4RQUCRA13VIZBZDKSCG8Y0UBFB8","A1VBP1RMKGUXB","3UDTAB6HH6LRO17U79I9TKUGYFV09C","","null","<img src=""img/land4.png"" style=""width:200px;border:14px solid red;"">","null","","","","","","","","","",""
"","image-keyboard-response","347","307783","0.0-347.0","3OS4RQUCRA13VIZBZDKSCG8Y0UBFB8","A1VBP1RMKGUXB","3UDTAB6HH6LRO17U79I9TKUGYFV09C","","743","img/land4.png","76","745","3","1","3","2","0.8,0.2,0.2,0.2,0.8,0.2,0.2,0.2,0.8","0.2,0.8,0.2,0.2,0.2,0.8,0.8,0.2,0.2","3","",""
"","html-keyboard-response","348","308087","0.0-348.0","3OS4RQUCRA13VIZBZDKSCG8Y0UBFB8","A1VBP1RMKGUXB","3UDTAB6HH6LRO17U79I9TKUGYFV09C","","null","<img src=""img/land4.png"" style=""width:200px; border:14px solid green;"">","null","","","","","","","","","",""
"","image-keyboard-response","349","309075","0.0-349.0","3OS4RQUCRA13VIZBZDKSCG8Y0UBFB8","A1VBP1RMKGUXB","3UDTAB6HH6LRO17U79I9TKUGYFV09C","","987","img/land2.png","74","988","1","1","1","2","0.8,0.2,0.2,0.2,0.8,0.2,0.2,0.2,0.8","0.2,0.8,0.2,0.2,0.2,0.8,0.8,0.2,0.2","3","",""
"","html-keyboard-response","350","309377","0.0-350.0","3OS4RQUCRA13VIZBZDKSCG8Y0UBFB8","A1VBP1RMKGUXB","3UDTAB6HH6LRO17U79I9TKUGYFV09C","","null","<img src=""img/land2.png"" style=""width:200px; border:14px solid green;"">","null","","","","","","","","","",""
"","image-keyboard-response","351","310430","0.0-351.0","3OS4RQUCRA13VIZBZDKSCG8Y0UBFB8","A1VBP1RMKGUXB","3UDTAB6HH6LRO17U79I9TKUGYFV09C","","1050","img/land6.png","75","1052","2","0","2","2","0.8,0.2,0.2,0.2,0.8,0.2,0.2,0.2,0.8","0.2,0.8,0.2,0.2,0.2,0.8,0.8,0.2,0.2","3","",""
"","html-keyboard-response","352","310733","0.0-352.0","3OS4RQUCRA13VIZBZDKSCG8Y0UBFB8","A1VBP1RMKGUXB","3UDTAB6HH6LRO17U79I9TKUGYFV09C","","null","<img src=""img/land6.png"" style=""width:200px;border:14px solid red;"">","null","","","","","","","","","",""
"","image-keyboard-response","353","312607","0.0-353.0","3OS4RQUCRA13VIZBZDKSCG8Y0UBFB8","A1VBP1RMKGUXB","3UDTAB6HH6LRO17U79I9TKUGYFV09C","","1871","img/land4.png","76","1873","3","0","3","2","0.8,0.2,0.2,0.2,0.8,0.2,0.2,0.2,0.8","0.2,0.8,0.2,0.2,0.2,0.8,0.8,0.2,0.2","3","",""
"","html-keyboard-response","354","312909","0.0-354.0","3OS4RQUCRA13VIZBZDKSCG8Y0UBFB8","A1VBP1RMKGUXB","3UDTAB6HH6LRO17U79I9TKUGYFV09C","","null","<img src=""img/land4.png"" style=""width:200px;border:14px solid red;"">","null","","","","","","","","","",""
"","image-keyboard-response","355","313929","0.0-355.0","3OS4RQUCRA13VIZBZDKSCG8Y0UBFB8","A1VBP1RMKGUXB","3UDTAB6HH6LRO17U79I9TKUGYFV09C","","1018","img/land4.png","76","1019","3","0","3","2","0.8,0.2,0.2,0.2,0.8,0.2,0.2,0.2,0.8","0.2,0.8,0.2,0.2,0.2,0.8,0.8,0.2,0.2","3","",""
"","html-keyboard-response","356","314232","0.0-356.0","3OS4RQUCRA13VIZBZDKSCG8Y0UBFB8","A1VBP1RMKGUXB","3UDTAB6HH6LRO17U79I9TKUGYFV09C","","null","<img src=""img/land4.png"" style=""width:200px;border:14px solid red;"">","null","","","","","","","","","",""
"","image-keyboard-response","357","315017","0.0-357.0","3OS4RQUCRA13VIZBZDKSCG8Y0UBFB8","A1VBP1RMKGUXB","3UDTAB6HH6LRO17U79I9TKUGYFV09C","","782","img/land4.png","76","785","3","1","3","2","0.8,0.2,0.2,0.2,0.8,0.2,0.2,0.2,0.8","0.2,0.8,0.2,0.2,0.2,0.8,0.8,0.2,0.2","3","",""
"","html-keyboard-response","358","315320","0.0-358.0","3OS4RQUCRA13VIZBZDKSCG8Y0UBFB8","A1VBP1RMKGUXB","3UDTAB6HH6LRO17U79I9TKUGYFV09C","","null","<img src=""img/land4.png"" style=""width:200px; border:14px solid green;"">","null","","","","","","","","","",""
"","image-keyboard-response","359","316256","0.0-359.0","3OS4RQUCRA13VIZBZDKSCG8Y0UBFB8","A1VBP1RMKGUXB","3UDTAB6HH6LRO17U79I9TKUGYFV09C","","933","img/land2.png","74","935","1","1","1","2","0.8,0.2,0.2,0.2,0.8,0.2,0.2,0.2,0.8","0.2,0.8,0.2,0.2,0.2,0.8,0.8,0.2,0.2","3","",""
"","html-keyboard-response","360","316559","0.0-360.0","3OS4RQUCRA13VIZBZDKSCG8Y0UBFB8","A1VBP1RMKGUXB","3UDTAB6HH6LRO17U79I9TKUGYFV09C","","null","<img src=""img/land2.png"" style=""width:200px; border:14px solid green;"">","null","","","","","","","","","",""
"","image-keyboard-response","361","317386","0.0-361.0","3OS4RQUCRA13VIZBZDKSCG8Y0UBFB8","A1VBP1RMKGUXB","3UDTAB6HH6LRO17U79I9TKUGYFV09C","","824","img/land2.png","74","826","1","0","1","2","0.8,0.2,0.2,0.2,0.8,0.2,0.2,0.2,0.8","0.2,0.8,0.2,0.2,0.2,0.8,0.8,0.2,0.2","3","",""
"","html-keyboard-response","362","317689","0.0-362.0","3OS4RQUCRA13VIZBZDKSCG8Y0UBFB8","A1VBP1RMKGUXB","3UDTAB6HH6LRO17U79I9TKUGYFV09C","","null","<img src=""img/land2.png"" style=""width:200px;border:14px solid red;"">","null","","","","","","","","","",""
"","image-keyboard-response","363","318721","0.0-363.0","3OS4RQUCRA13VIZBZDKSCG8Y0UBFB8","A1VBP1RMKGUXB","3UDTAB6HH6LRO17U79I9TKUGYFV09C","","1028","img/land6.png","75","1030","2","0","2","2","0.8,0.2,0.2,0.2,0.8,0.2,0.2,0.2,0.8","0.2,0.8,0.2,0.2,0.2,0.8,0.8,0.2,0.2","3","",""
"","html-keyboard-response","364","319023","0.0-364.0","3OS4RQUCRA13VIZBZDKSCG8Y0UBFB8","A1VBP1RMKGUXB","3UDTAB6HH6LRO17U79I9TKUGYFV09C","","null","<img src=""img/land6.png"" style=""width:200px;border:14px solid red;"">","null","","","","","","","","","",""
"","image-keyboard-response","365","320685","0.0-365.0","3OS4RQUCRA13VIZBZDKSCG8Y0UBFB8","A1VBP1RMKGUXB","3UDTAB6HH6LRO17U79I9TKUGYFV09C","","1660","img/land2.png","74","1662","1","0","1","2","0.8,0.2,0.2,0.2,0.8,0.2,0.2,0.2,0.8","0.2,0.8,0.2,0.2,0.2,0.8,0.8,0.2,0.2","3","",""
"","html-keyboard-response","366","320987","0.0-366.0","3OS4RQUCRA13VIZBZDKSCG8Y0UBFB8","A1VBP1RMKGUXB","3UDTAB6HH6LRO17U79I9TKUGYFV09C","","null","<img src=""img/land2.png"" style=""width:200px;border:14px solid red;"">","null","","","","","","","","","",""
"","image-keyboard-response","367","321926","0.0-367.0","3OS4RQUCRA13VIZBZDKSCG8Y0UBFB8","A1VBP1RMKGUXB","3UDTAB6HH6LRO17U79I9TKUGYFV09C","","937","img/land4.png","76","939","3","1","3","2","0.8,0.2,0.2,0.2,0.8,0.2,0.2,0.2,0.8","0.2,0.8,0.2,0.2,0.2,0.8,0.8,0.2,0.2","3","",""
"","html-keyboard-response","368","322229","0.0-368.0","3OS4RQUCRA13VIZBZDKSCG8Y0UBFB8","A1VBP1RMKGUXB","3UDTAB6HH6LRO17U79I9TKUGYFV09C","","null","<img src=""img/land4.png"" style=""width:200px; border:14px solid green;"">","null","","","","","","","","","",""
"","image-keyboard-response","369","323396","0.0-369.0","3OS4RQUCRA13VIZBZDKSCG8Y0UBFB8","A1VBP1RMKGUXB","3UDTAB6HH6LRO17U79I9TKUGYFV09C","","1165","img/land2.png","74","1166","1","0","1","2","0.8,0.2,0.2,0.2,0.8,0.2,0.2,0.2,0.8","0.2,0.8,0.2,0.2,0.2,0.8,0.8,0.2,0.2","3","",""
"","html-keyboard-response","370","323700","0.0-370.0","3OS4RQUCRA13VIZBZDKSCG8Y0UBFB8","A1VBP1RMKGUXB","3UDTAB6HH6LRO17U79I9TKUGYFV09C","","null","<img src=""img/land2.png"" style=""width:200px;border:14px solid red;"">","null","","","","","","","","","",""
"","image-keyboard-response","371","324536","0.0-371.0","3OS4RQUCRA13VIZBZDKSCG8Y0UBFB8","A1VBP1RMKGUXB","3UDTAB6HH6LRO17U79I9TKUGYFV09C","","834","img/land2.png","74","835","1","0","1","2","0.8,0.2,0.2,0.2,0.8,0.2,0.2,0.2,0.8","0.2,0.8,0.2,0.2,0.2,0.8,0.8,0.2,0.2","3","",""
