"success","trial_type","trial_index","time_elapsed","internal_node_id","assignmentID","mturkID","hitID","view_history","rt","stimulus","key_press","reactionTime","a","r","s","cond","reward_cond","reward_cond_actual","reward_matrix_idx","responses","question_order"
"true","fullscreen","0","2436","0.0-0.0","3JWH6J9I9TZFJACSX135KLH72VPBNN","A1VFSNVFK883XU","335VBRURDJMQFRMOFGHOE9WKSHX9E1","","","","","","","","","","","","","",""
"","instructions","1","21116","0.0-1.0","3JWH6J9I9TZFJACSX135KLH72VPBNN","A1VFSNVFK883XU","335VBRURDJMQFRMOFGHOE9WKSHX9E1","[{""page_index"":0,""viewing_time"":2325},{""page_index"":1,""viewing_time"":1145},{""page_index"":2,""viewing_time"":1735},{""page_index"":3,""viewing_time"":8032},{""page_index"":4,""viewing_time"":1752},{""page_index"":5,""viewing_time"":2568},{""page_index"":6,""viewing_time"":1120}]","18678","","","","","","","","","","","",""
"","image-keyboard-response","2","21560","0.0-2.0","3JWH6J9I9TZFJACSX135KLH72VPBNN","A1VFSNVFK883XU","335VBRURDJMQFRMOFGHOE9WKSHX9E1","","443","img/land1.png","74","445","1","0","2","2","0.8,0.2,0.2,0.2,0.8,0.2,0.2,0.2,0.8","0.2,0.8,0.2,0.2,0.2,0.8,0.8,0.2,0.2","3","",""
"","html-keyboard-response","3","21897","0.0-3.0","3JWH6J9I9TZFJACSX135KLH72VPBNN","A1VFSNVFK883XU","335VBRURDJMQFRMOFGHOE9WKSHX9E1","","null","<img src=""img/land1.png"" style=""width:200px;border:14px solid red;"">","null","","","","","","","","","",""
"","image-keyboard-response","4","21900","0.0-4.0","3JWH6J9I9TZFJACSX135KLH72VPBNN","A1VFSNVFK883XU","335VBRURDJMQFRMOFGHOE9WKSHX9E1","","2","img/land5.png","75","3","2","1","1","2","0.8,0.2,0.2,0.2,0.8,0.2,0.2,0.2,0.8","0.2,0.8,0.2,0.2,0.2,0.8,0.8,0.2,0.2","3","",""
"","html-keyboard-response","5","22210","0.0-5.0","3JWH6J9I9TZFJACSX135KLH72VPBNN","A1VFSNVFK883XU","335VBRURDJMQFRMOFGHOE9WKSHX9E1","","null","<img src=""img/land5.png"" style=""width:200px; border:14px solid green;"">","null","","","","","","","","","",""
"","image-keyboard-response","6","22521","0.0-6.0","3JWH6J9I9TZFJACSX135KLH72VPBNN","A1VFSNVFK883XU","335VBRURDJMQFRMOFGHOE9WKSHX9E1","","309","img/land5.png","74","309","1","0","1","2","0.8,0.2,0.2,0.2,0.8,0.2,0.2,0.2,0.8","0.2,0.8,0.2,0.2,0.2,0.8,0.8,0.2,0.2","3","",""
"","html-keyboard-response","7","22833","0.0-7.0","3JWH6J9I9TZFJACSX135KLH72VPBNN","A1VFSNVFK883XU","335VBRURDJMQFRMOFGHOE9WKSHX9E1","","null","<img src=""img/land5.png"" style=""width:200px;border:14px solid red;"">","null","","","","","","","","","",""
"","image-keyboard-response","8","23109","0.0-8.0","3JWH6J9I9TZFJACSX135KLH72VPBNN","A1VFSNVFK883XU","335VBRURDJMQFRMOFGHOE9WKSHX9E1","","275","img/land1.png","76","276","3","1","2","2","0.8,0.2,0.2,0.2,0.8,0.2,0.2,0.2,0.8","0.2,0.8,0.2,0.2,0.2,0.8,0.8,0.2,0.2","3","",""
"","html-keyboard-response","9","23424","0.0-9.0","3JWH6J9I9TZFJACSX135KLH72VPBNN","A1VFSNVFK883XU","335VBRURDJMQFRMOFGHOE9WKSHX9E1","","null","<img src=""img/land1.png"" style=""width:200px; border:14px solid green;"">","null","","","","","","","","","",""
"","image-keyboard-response","10","23725","0.0-10.0","3JWH6J9I9TZFJACSX135KLH72VPBNN","A1VFSNVFK883XU","335VBRURDJMQFRMOFGHOE9WKSHX9E1","","298","img/land5.png","74","299","1","0","1","2","0.8,0.2,0.2,0.2,0.8,0.2,0.2,0.2,0.8","0.2,0.8,0.2,0.2,0.2,0.8,0.8,0.2,0.2","3","",""
"","html-keyboard-response","11","24030","0.0-11.0","3JWH6J9I9TZFJACSX135KLH72VPBNN","A1VFSNVFK883XU","335VBRURDJMQFRMOFGHOE9WKSHX9E1","","null","<img src=""img/land5.png"" style=""width:200px;border:14px solid red;"">","null","","","","","","","","","",""
"","image-keyboard-response","12","24040","0.0-12.0","3JWH6J9I9TZFJACSX135KLH72VPBNN","A1VFSNVFK883XU","335VBRURDJMQFRMOFGHOE9WKSHX9E1","","10","img/land1.png","75","10","2","1","2","2","0.8,0.2,0.2,0.2,0.8,0.2,0.2,0.2,0.8","0.2,0.8,0.2,0.2,0.2,0.8,0.8,0.2,0.2","3","",""
"","html-keyboard-response","13","24354","0.0-13.0","3JWH6J9I9TZFJACSX135KLH72VPBNN","A1VFSNVFK883XU","335VBRURDJMQFRMOFGHOE9WKSHX9E1","","null","<img src=""img/land1.png"" style=""width:200px; border:14px solid green;"">","null","","","","","","","","","",""
"","image-keyboard-response","14","24642","0.0-14.0","3JWH6J9I9TZFJACSX135KLH72VPBNN","A1VFSNVFK883XU","335VBRURDJMQFRMOFGHOE9WKSHX9E1","","286","img/land2.png","76","287","3","0","3","2","0.8,0.2,0.2,0.2,0.8,0.2,0.2,0.2,0.8","0.2,0.8,0.2,0.2,0.2,0.8,0.8,0.2,0.2","3","",""
"","html-keyboard-response","15","24958","0.0-15.0","3JWH6J9I9TZFJACSX135KLH72VPBNN","A1VFSNVFK883XU","335VBRURDJMQFRMOFGHOE9WKSHX9E1","","null","<img src=""img/land2.png"" style=""width:200px;border:14px solid red;"">","null","","","","","","","","","",""
"","image-keyboard-response","16","25217","0.0-16.0","3JWH6J9I9TZFJACSX135KLH72VPBNN","A1VFSNVFK883XU","335VBRURDJMQFRMOFGHOE9WKSHX9E1","","257","img/land5.png","74","258","1","0","1","2","0.8,0.2,0.2,0.2,0.8,0.2,0.2,0.2,0.8","0.2,0.8,0.2,0.2,0.2,0.8,0.8,0.2,0.2","3","",""
"","html-keyboard-response","17","25519","0.0-17.0","3JWH6J9I9TZFJACSX135KLH72VPBNN","A1VFSNVFK883XU","335VBRURDJMQFRMOFGHOE9WKSHX9E1","","null","<img src=""img/land5.png"" style=""width:200px;border:14px solid red;"">","null","","","","","","","","","",""
"","image-keyboard-response","18","25553","0.0-18.0","3JWH6J9I9TZFJACSX135KLH72VPBNN","A1VFSNVFK883XU","335VBRURDJMQFRMOFGHOE9WKSHX9E1","","32","img/land2.png","74","34","1","1","3","2","0.8,0.2,0.2,0.2,0.8,0.2,0.2,0.2,0.8","0.2,0.8,0.2,0.2,0.2,0.8,0.8,0.2,0.2","3","",""
"","html-keyboard-response","19","25860","0.0-19.0","3JWH6J9I9TZFJACSX135KLH72VPBNN","A1VFSNVFK883XU","335VBRURDJMQFRMOFGHOE9WKSHX9E1","","null","<img src=""img/land2.png"" style=""width:200px; border:14px solid green;"">","null","","","","","","","","","",""
"","image-keyboard-response","20","26109","0.0-20.0","3JWH6J9I9TZFJACSX135KLH72VPBNN","A1VFSNVFK883XU","335VBRURDJMQFRMOFGHOE9WKSHX9E1","","249","img/land1.png","74","250","1","0","2","2","0.8,0.2,0.2,0.2,0.8,0.2,0.2,0.2,0.8","0.2,0.8,0.2,0.2,0.2,0.8,0.8,0.2,0.2","3","",""
"","html-keyboard-response","21","26418","0.0-21.0","3JWH6J9I9TZFJACSX135KLH72VPBNN","A1VFSNVFK883XU","335VBRURDJMQFRMOFGHOE9WKSHX9E1","","null","<img src=""img/land1.png"" style=""width:200px;border:14px solid red;"">","null","","","","","","","","","",""
"","image-keyboard-response","22","26422","0.0-22.0","3JWH6J9I9TZFJACSX135KLH72VPBNN","A1VFSNVFK883XU","335VBRURDJMQFRMOFGHOE9WKSHX9E1","","3","img/land5.png","74","4","1","0","1","2","0.8,0.2,0.2,0.2,0.8,0.2,0.2,0.2,0.8","0.2,0.8,0.2,0.2,0.2,0.8,0.8,0.2,0.2","3","",""
"","html-keyboard-response","23","26730","0.0-23.0","3JWH6J9I9TZFJACSX135KLH72VPBNN","A1VFSNVFK883XU","335VBRURDJMQFRMOFGHOE9WKSHX9E1","","null","<img src=""img/land5.png"" style=""width:200px;border:14px solid red;"">","null","","","","","","","","","",""
"","image-keyboard-response","24","26995","0.0-24.0","3JWH6J9I9TZFJACSX135KLH72VPBNN","A1VFSNVFK883XU","335VBRURDJMQFRMOFGHOE9WKSHX9E1","","265","img/land5.png","74","265","1","0","1","2","0.8,0.2,0.2,0.2,0.8,0.2,0.2,0.2,0.8","0.2,0.8,0.2,0.2,0.2,0.8,0.8,0.2,0.2","3","",""
"","html-keyboard-response","25","27301","0.0-25.0","3JWH6J9I9TZFJACSX135KLH72VPBNN","A1VFSNVFK883XU","335VBRURDJMQFRMOFGHOE9WKSHX9E1","","null","<img src=""img/land5.png"" style=""width:200px;border:14px solid red;"">","null","","","","","","","","","",""
"","image-keyboard-response","26","27324","0.0-26.0","3JWH6J9I9TZFJACSX135KLH72VPBNN","A1VFSNVFK883XU","335VBRURDJMQFRMOFGHOE9WKSHX9E1","","21","img/land5.png","74","22","1","0","1","2","0.8,0.2,0.2,0.2,0.8,0.2,0.2,0.2,0.8","0.2,0.8,0.2,0.2,0.2,0.8,0.8,0.2,0.2","3","",""
"","html-keyboard-response","27","27628","0.0-27.0","3JWH6J9I9TZFJACSX135KLH72VPBNN","A1VFSNVFK883XU","335VBRURDJMQFRMOFGHOE9WKSHX9E1","","null","<img src=""img/land5.png"" style=""width:200px;border:14px solid red;"">","null","","","","","","","","","",""
"","image-keyboard-response","28","27910","0.0-28.0","3JWH6J9I9TZFJACSX135KLH72VPBNN","A1VFSNVFK883XU","335VBRURDJMQFRMOFGHOE9WKSHX9E1","","280","img/land5.png","74","282","1","0","1","2","0.8,0.2,0.2,0.2,0.8,0.2,0.2,0.2,0.8","0.2,0.8,0.2,0.2,0.2,0.8,0.8,0.2,0.2","3","",""
"","html-keyboard-response","29","28211","0.0-29.0","3JWH6J9I9TZFJACSX135KLH72VPBNN","A1VFSNVFK883XU","335VBRURDJMQFRMOFGHOE9WKSHX9E1","","null","<img src=""img/land5.png"" style=""width:200px;border:14px solid red;"">","null","","","","","","","","","",""
"","image-keyboard-response","30","28479","0.0-30.0","3JWH6J9I9TZFJACSX135KLH72VPBNN","A1VFSNVFK883XU","335VBRURDJMQFRMOFGHOE9WKSHX9E1","","267","img/land5.png","76","268","3","1","1","2","0.8,0.2,0.2,0.2,0.8,0.2,0.2,0.2,0.8","0.2,0.8,0.2,0.2,0.2,0.8,0.8,0.2,0.2","3","",""
"","html-keyboard-response","31","28783","0.0-31.0","3JWH6J9I9TZFJACSX135KLH72VPBNN","A1VFSNVFK883XU","335VBRURDJMQFRMOFGHOE9WKSHX9E1","","null","<img src=""img/land5.png"" style=""width:200px; border:14px solid green;"">","null","","","","","","","","","",""
"","image-keyboard-response","32","29058","0.0-32.0","3JWH6J9I9TZFJACSX135KLH72VPBNN","A1VFSNVFK883XU","335VBRURDJMQFRMOFGHOE9WKSHX9E1","","274","img/land5.png","74","274","1","0","1","2","0.8,0.2,0.2,0.2,0.8,0.2,0.2,0.2,0.8","0.2,0.8,0.2,0.2,0.2,0.8,0.8,0.2,0.2","3","",""
"","html-keyboard-response","33","29359","0.0-33.0","3JWH6J9I9TZFJACSX135KLH72VPBNN","A1VFSNVFK883XU","335VBRURDJMQFRMOFGHOE9WKSHX9E1","","null","<img src=""img/land5.png"" style=""width:200px;border:14px solid red;"">","null","","","","","","","","","",""
"","image-keyboard-response","34","29433","0.0-34.0","3JWH6J9I9TZFJACSX135KLH72VPBNN","A1VFSNVFK883XU","335VBRURDJMQFRMOFGHOE9WKSHX9E1","","73","img/land5.png","76","73","3","0","1","2","0.8,0.2,0.2,0.2,0.8,0.2,0.2,0.2,0.8","0.2,0.8,0.2,0.2,0.2,0.8,0.8,0.2,0.2","3","",""
"","html-keyboard-response","35","29747","0.0-35.0","3JWH6J9I9TZFJACSX135KLH72VPBNN","A1VFSNVFK883XU","335VBRURDJMQFRMOFGHOE9WKSHX9E1","","null","<img src=""img/land5.png"" style=""width:200px;border:14px solid red;"">","null","","","","","","","","","",""
"","image-keyboard-response","36","29897","0.0-36.0","3JWH6J9I9TZFJACSX135KLH72VPBNN","A1VFSNVFK883XU","335VBRURDJMQFRMOFGHOE9WKSHX9E1","","149","img/land5.png","74","149","1","1","1","2","0.8,0.2,0.2,0.2,0.8,0.2,0.2,0.2,0.8","0.2,0.8,0.2,0.2,0.2,0.8,0.8,0.2,0.2","3","",""
"","html-keyboard-response","37","30212","0.0-37.0","3JWH6J9I9TZFJACSX135KLH72VPBNN","A1VFSNVFK883XU","335VBRURDJMQFRMOFGHOE9WKSHX9E1","","null","<img src=""img/land5.png"" style=""width:200px; border:14px solid green;"">","null","","","","","","","","","",""
"","image-keyboard-response","38","30283","0.0-38.0","3JWH6J9I9TZFJACSX135KLH72VPBNN","A1VFSNVFK883XU","335VBRURDJMQFRMOFGHOE9WKSHX9E1","","71","img/land1.png","76","71","3","0","2","2","0.8,0.2,0.2,0.2,0.8,0.2,0.2,0.2,0.8","0.2,0.8,0.2,0.2,0.2,0.8,0.8,0.2,0.2","3","",""
"","html-keyboard-response","39","30586","0.0-39.0","3JWH6J9I9TZFJACSX135KLH72VPBNN","A1VFSNVFK883XU","335VBRURDJMQFRMOFGHOE9WKSHX9E1","","null","<img src=""img/land1.png"" style=""width:200px;border:14px solid red;"">","null","","","","","","","","","",""
"","image-keyboard-response","40","30680","0.0-40.0","3JWH6J9I9TZFJACSX135KLH72VPBNN","A1VFSNVFK883XU","335VBRURDJMQFRMOFGHOE9WKSHX9E1","","93","img/land5.png","74","93","1","0","1","2","0.8,0.2,0.2,0.2,0.8,0.2,0.2,0.2,0.8","0.2,0.8,0.2,0.2,0.2,0.8,0.8,0.2,0.2","3","",""
"","html-keyboard-response","41","30988","0.0-41.0","3JWH6J9I9TZFJACSX135KLH72VPBNN","A1VFSNVFK883XU","335VBRURDJMQFRMOFGHOE9WKSHX9E1","","null","<img src=""img/land5.png"" style=""width:200px;border:14px solid red;"">","null","","","","","","","","","",""
"","image-keyboard-response","42","31129","0.0-42.0","3JWH6J9I9TZFJACSX135KLH72VPBNN","A1VFSNVFK883XU","335VBRURDJMQFRMOFGHOE9WKSHX9E1","","139","img/land2.png","76","140","3","1","3","2","0.8,0.2,0.2,0.2,0.8,0.2,0.2,0.2,0.8","0.2,0.8,0.2,0.2,0.2,0.8,0.8,0.2,0.2","3","",""
"","html-keyboard-response","43","31439","0.0-43.0","3JWH6J9I9TZFJACSX135KLH72VPBNN","A1VFSNVFK883XU","335VBRURDJMQFRMOFGHOE9WKSHX9E1","","null","<img src=""img/land2.png"" style=""width:200px; border:14px solid green;"">","null","","","","","","","","","",""
"","image-keyboard-response","44","31443","0.0-44.0","3JWH6J9I9TZFJACSX135KLH72VPBNN","A1VFSNVFK883XU","335VBRURDJMQFRMOFGHOE9WKSHX9E1","","2","img/land5.png","76","3","3","1","1","2","0.8,0.2,0.2,0.2,0.8,0.2,0.2,0.2,0.8","0.2,0.8,0.2,0.2,0.2,0.8,0.8,0.2,0.2","3","",""
"","html-keyboard-response","45","31750","0.0-45.0","3JWH6J9I9TZFJACSX135KLH72VPBNN","A1VFSNVFK883XU","335VBRURDJMQFRMOFGHOE9WKSHX9E1","","null","<img src=""img/land5.png"" style=""width:200px; border:14px solid green;"">","null","","","","","","","","","",""
"","image-keyboard-response","46","31853","0.0-46.0","3JWH6J9I9TZFJACSX135KLH72VPBNN","A1VFSNVFK883XU","335VBRURDJMQFRMOFGHOE9WKSHX9E1","","102","img/land5.png","74","103","1","0","1","2","0.8,0.2,0.2,0.2,0.8,0.2,0.2,0.2,0.8","0.2,0.8,0.2,0.2,0.2,0.8,0.8,0.2,0.2","3","",""
"","html-keyboard-response","47","32154","0.0-47.0","3JWH6J9I9TZFJACSX135KLH72VPBNN","A1VFSNVFK883XU","335VBRURDJMQFRMOFGHOE9WKSHX9E1","","null","<img src=""img/land5.png"" style=""width:200px;border:14px solid red;"">","null","","","","","","","","","",""
"","image-keyboard-response","48","32157","0.0-48.0","3JWH6J9I9TZFJACSX135KLH72VPBNN","A1VFSNVFK883XU","335VBRURDJMQFRMOFGHOE9WKSHX9E1","","2","img/land5.png","75","3","2","1","1","2","0.8,0.2,0.2,0.2,0.8,0.2,0.2,0.2,0.8","0.2,0.8,0.2,0.2,0.2,0.8,0.8,0.2,0.2","3","",""
"","html-keyboard-response","49","32464","0.0-49.0","3JWH6J9I9TZFJACSX135KLH72VPBNN","A1VFSNVFK883XU","335VBRURDJMQFRMOFGHOE9WKSHX9E1","","null","<img src=""img/land5.png"" style=""width:200px; border:14px solid green;"">","null","","","","","","","","","",""
"","image-keyboard-response","50","32511","0.0-50.0","3JWH6J9I9TZFJACSX135KLH72VPBNN","A1VFSNVFK883XU","335VBRURDJMQFRMOFGHOE9WKSHX9E1","","48","img/land5.png","76","48","3","0","1","2","0.8,0.2,0.2,0.2,0.8,0.2,0.2,0.2,0.8","0.2,0.8,0.2,0.2,0.2,0.8,0.8,0.2,0.2","3","",""
"","html-keyboard-response","51","32820","0.0-51.0","3JWH6J9I9TZFJACSX135KLH72VPBNN","A1VFSNVFK883XU","335VBRURDJMQFRMOFGHOE9WKSHX9E1","","null","<img src=""img/land5.png"" style=""width:200px;border:14px solid red;"">","null","","","","","","","","","",""
"","image-keyboard-response","52","32941","0.0-52.0","3JWH6J9I9TZFJACSX135KLH72VPBNN","A1VFSNVFK883XU","335VBRURDJMQFRMOFGHOE9WKSHX9E1","","120","img/land5.png","74","121","1","0","1","2","0.8,0.2,0.2,0.2,0.8,0.2,0.2,0.2,0.8","0.2,0.8,0.2,0.2,0.2,0.8,0.8,0.2,0.2","3","",""
"","html-keyboard-response","53","33256","0.0-53.0","3JWH6J9I9TZFJACSX135KLH72VPBNN","A1VFSNVFK883XU","335VBRURDJMQFRMOFGHOE9WKSHX9E1","","null","<img src=""img/land5.png"" style=""width:200px;border:14px solid red;"">","null","","","","","","","","","",""
"","image-keyboard-response","54","33357","0.0-54.0","3JWH6J9I9TZFJACSX135KLH72VPBNN","A1VFSNVFK883XU","335VBRURDJMQFRMOFGHOE9WKSHX9E1","","101","img/land5.png","76","102","3","1","1","2","0.8,0.2,0.2,0.2,0.8,0.2,0.2,0.2,0.8","0.2,0.8,0.2,0.2,0.2,0.8,0.8,0.2,0.2","3","",""
"","html-keyboard-response","55","33673","0.0-55.0","3JWH6J9I9TZFJACSX135KLH72VPBNN","A1VFSNVFK883XU","335VBRURDJMQFRMOFGHOE9WKSHX9E1","","null","<img src=""img/land5.png"" style=""width:200px; border:14px solid green;"">","null","","","","","","","","","",""
"","image-keyboard-response","56","33755","0.0-56.0","3JWH6J9I9TZFJACSX135KLH72VPBNN","A1VFSNVFK883XU","335VBRURDJMQFRMOFGHOE9WKSHX9E1","","80","img/land5.png","74","81","1","0","1","2","0.8,0.2,0.2,0.2,0.8,0.2,0.2,0.2,0.8","0.2,0.8,0.2,0.2,0.2,0.8,0.8,0.2,0.2","3","",""
"","html-keyboard-response","57","34065","0.0-57.0","3JWH6J9I9TZFJACSX135KLH72VPBNN","A1VFSNVFK883XU","335VBRURDJMQFRMOFGHOE9WKSHX9E1","","null","<img src=""img/land5.png"" style=""width:200px;border:14px solid red;"">","null","","","","","","","","","",""
"","image-keyboard-response","58","34194","0.0-58.0","3JWH6J9I9TZFJACSX135KLH72VPBNN","A1VFSNVFK883XU","335VBRURDJMQFRMOFGHOE9WKSHX9E1","","127","img/land2.png","76","129","3","0","3","2","0.8,0.2,0.2,0.2,0.8,0.2,0.2,0.2,0.8","0.2,0.8,0.2,0.2,0.2,0.8,0.8,0.2,0.2","3","",""
"","html-keyboard-response","59","34500","0.0-59.0","3JWH6J9I9TZFJACSX135KLH72VPBNN","A1VFSNVFK883XU","335VBRURDJMQFRMOFGHOE9WKSHX9E1","","null","<img src=""img/land2.png"" style=""width:200px;border:14px solid red;"">","null","","","","","","","","","",""
"","image-keyboard-response","60","34505","0.0-60.0","3JWH6J9I9TZFJACSX135KLH72VPBNN","A1VFSNVFK883XU","335VBRURDJMQFRMOFGHOE9WKSHX9E1","","5","img/land5.png","75","5","2","0","1","2","0.8,0.2,0.2,0.2,0.8,0.2,0.2,0.2,0.8","0.2,0.8,0.2,0.2,0.2,0.8,0.8,0.2,0.2","3","",""
"","html-keyboard-response","61","34810","0.0-61.0","3JWH6J9I9TZFJACSX135KLH72VPBNN","A1VFSNVFK883XU","335VBRURDJMQFRMOFGHOE9WKSHX9E1","","null","<img src=""img/land5.png"" style=""width:200px;border:14px solid red;"">","null","","","","","","","","","",""
"","image-keyboard-response","62","34907","0.0-62.0","3JWH6J9I9TZFJACSX135KLH72VPBNN","A1VFSNVFK883XU","335VBRURDJMQFRMOFGHOE9WKSHX9E1","","95","img/land2.png","76","96","3","0","3","2","0.8,0.2,0.2,0.2,0.8,0.2,0.2,0.2,0.8","0.2,0.8,0.2,0.2,0.2,0.8,0.8,0.2,0.2","3","",""
"","html-keyboard-response","63","35215","0.0-63.0","3JWH6J9I9TZFJACSX135KLH72VPBNN","A1VFSNVFK883XU","335VBRURDJMQFRMOFGHOE9WKSHX9E1","","null","<img src=""img/land2.png"" style=""width:200px;border:14px solid red;"">","null","","","","","","","","","",""
"","image-keyboard-response","64","35222","0.0-64.0","3JWH6J9I9TZFJACSX135KLH72VPBNN","A1VFSNVFK883XU","335VBRURDJMQFRMOFGHOE9WKSHX9E1","","7","img/land2.png","76","8","3","1","3","2","0.8,0.2,0.2,0.2,0.8,0.2,0.2,0.2,0.8","0.2,0.8,0.2,0.2,0.2,0.8,0.8,0.2,0.2","3","",""
"","html-keyboard-response","65","35538","0.0-65.0","3JWH6J9I9TZFJACSX135KLH72VPBNN","A1VFSNVFK883XU","335VBRURDJMQFRMOFGHOE9WKSHX9E1","","null","<img src=""img/land2.png"" style=""width:200px; border:14px solid green;"">","null","","","","","","","","","",""
"","image-keyboard-response","66","35561","0.0-66.0","3JWH6J9I9TZFJACSX135KLH72VPBNN","A1VFSNVFK883XU","335VBRURDJMQFRMOFGHOE9WKSHX9E1","","21","img/land2.png","74","22","1","0","3","2","0.8,0.2,0.2,0.2,0.8,0.2,0.2,0.2,0.8","0.2,0.8,0.2,0.2,0.2,0.8,0.8,0.2,0.2","3","",""
"","html-keyboard-response","67","35863","0.0-67.0","3JWH6J9I9TZFJACSX135KLH72VPBNN","A1VFSNVFK883XU","335VBRURDJMQFRMOFGHOE9WKSHX9E1","","null","<img src=""img/land2.png"" style=""width:200px;border:14px solid red;"">","null","","","","","","","","","",""
"","image-keyboard-response","68","36047","0.0-68.0","3JWH6J9I9TZFJACSX135KLH72VPBNN","A1VFSNVFK883XU","335VBRURDJMQFRMOFGHOE9WKSHX9E1","","185","img/land1.png","76","185","3","1","2","2","0.8,0.2,0.2,0.2,0.8,0.2,0.2,0.2,0.8","0.2,0.8,0.2,0.2,0.2,0.8,0.8,0.2,0.2","3","",""
"","html-keyboard-response","69","36357","0.0-69.0","3JWH6J9I9TZFJACSX135KLH72VPBNN","A1VFSNVFK883XU","335VBRURDJMQFRMOFGHOE9WKSHX9E1","","null","<img src=""img/land1.png"" style=""width:200px; border:14px solid green;"">","null","","","","","","","","","",""
"","image-keyboard-response","70","36395","0.0-70.0","3JWH6J9I9TZFJACSX135KLH72VPBNN","A1VFSNVFK883XU","335VBRURDJMQFRMOFGHOE9WKSHX9E1","","36","img/land1.png","74","37","1","0","2","2","0.8,0.2,0.2,0.2,0.8,0.2,0.2,0.2,0.8","0.2,0.8,0.2,0.2,0.2,0.8,0.8,0.2,0.2","3","",""
"","html-keyboard-response","71","36699","0.0-71.0","3JWH6J9I9TZFJACSX135KLH72VPBNN","A1VFSNVFK883XU","335VBRURDJMQFRMOFGHOE9WKSHX9E1","","null","<img src=""img/land1.png"" style=""width:200px;border:14px solid red;"">","null","","","","","","","","","",""
"","image-keyboard-response","72","36714","0.0-72.0","3JWH6J9I9TZFJACSX135KLH72VPBNN","A1VFSNVFK883XU","335VBRURDJMQFRMOFGHOE9WKSHX9E1","","14","img/land5.png","75","15","2","1","1","2","0.8,0.2,0.2,0.2,0.8,0.2,0.2,0.2,0.8","0.2,0.8,0.2,0.2,0.2,0.8,0.8,0.2,0.2","3","",""
"","html-keyboard-response","73","37025","0.0-73.0","3JWH6J9I9TZFJACSX135KLH72VPBNN","A1VFSNVFK883XU","335VBRURDJMQFRMOFGHOE9WKSHX9E1","","null","<img src=""img/land5.png"" style=""width:200px; border:14px solid green;"">","null","","","","","","","","","",""
"","image-keyboard-response","74","37168","0.0-74.0","3JWH6J9I9TZFJACSX135KLH72VPBNN","A1VFSNVFK883XU","335VBRURDJMQFRMOFGHOE9WKSHX9E1","","143","img/land5.png","76","144","3","0","1","2","0.8,0.2,0.2,0.2,0.8,0.2,0.2,0.2,0.8","0.2,0.8,0.2,0.2,0.2,0.8,0.8,0.2,0.2","3","",""
"","html-keyboard-response","75","37472","0.0-75.0","3JWH6J9I9TZFJACSX135KLH72VPBNN","A1VFSNVFK883XU","335VBRURDJMQFRMOFGHOE9WKSHX9E1","","null","<img src=""img/land5.png"" style=""width:200px;border:14px solid red;"">","null","","","","","","","","","",""
"","image-keyboard-response","76","37563","0.0-76.0","3JWH6J9I9TZFJACSX135KLH72VPBNN","A1VFSNVFK883XU","335VBRURDJMQFRMOFGHOE9WKSHX9E1","","90","img/land5.png","74","91","1","0","1","2","0.8,0.2,0.2,0.2,0.8,0.2,0.2,0.2,0.8","0.2,0.8,0.2,0.2,0.2,0.8,0.8,0.2,0.2","3","",""
"","html-keyboard-response","77","37877","0.0-77.0","3JWH6J9I9TZFJACSX135KLH72VPBNN","A1VFSNVFK883XU","335VBRURDJMQFRMOFGHOE9WKSHX9E1","","null","<img src=""img/land5.png"" style=""width:200px;border:14px solid red;"">","null","","","","","","","","","",""
"","image-keyboard-response","78","38015","0.0-78.0","3JWH6J9I9TZFJACSX135KLH72VPBNN","A1VFSNVFK883XU","335VBRURDJMQFRMOFGHOE9WKSHX9E1","","137","img/land5.png","76","138","3","0","1","2","0.8,0.2,0.2,0.2,0.8,0.2,0.2,0.2,0.8","0.2,0.8,0.2,0.2,0.2,0.8,0.8,0.2,0.2","3","",""
"","html-keyboard-response","79","38325","0.0-79.0","3JWH6J9I9TZFJACSX135KLH72VPBNN","A1VFSNVFK883XU","335VBRURDJMQFRMOFGHOE9WKSHX9E1","","null","<img src=""img/land5.png"" style=""width:200px;border:14px solid red;"">","null","","","","","","","","","",""
"","image-keyboard-response","80","38452","0.0-80.0","3JWH6J9I9TZFJACSX135KLH72VPBNN","A1VFSNVFK883XU","335VBRURDJMQFRMOFGHOE9WKSHX9E1","","124","img/land5.png","74","125","1","0","1","2","0.8,0.2,0.2,0.2,0.8,0.2,0.2,0.2,0.8","0.2,0.8,0.2,0.2,0.2,0.8,0.8,0.2,0.2","3","",""
"","html-keyboard-response","81","38760","0.0-81.0","3JWH6J9I9TZFJACSX135KLH72VPBNN","A1VFSNVFK883XU","335VBRURDJMQFRMOFGHOE9WKSHX9E1","","null","<img src=""img/land5.png"" style=""width:200px;border:14px solid red;"">","null","","","","","","","","","",""
"","image-keyboard-response","82","38840","0.0-82.0","3JWH6J9I9TZFJACSX135KLH72VPBNN","A1VFSNVFK883XU","335VBRURDJMQFRMOFGHOE9WKSHX9E1","","80","img/land1.png","75","81","2","1","2","2","0.8,0.2,0.2,0.2,0.8,0.2,0.2,0.2,0.8","0.2,0.8,0.2,0.2,0.2,0.8,0.8,0.2,0.2","3","",""
"","html-keyboard-response","83","39147","0.0-83.0","3JWH6J9I9TZFJACSX135KLH72VPBNN","A1VFSNVFK883XU","335VBRURDJMQFRMOFGHOE9WKSHX9E1","","null","<img src=""img/land1.png"" style=""width:200px; border:14px solid green;"">","null","","","","","","","","","",""
"","image-keyboard-response","84","39311","0.0-84.0","3JWH6J9I9TZFJACSX135KLH72VPBNN","A1VFSNVFK883XU","335VBRURDJMQFRMOFGHOE9WKSHX9E1","","161","img/land1.png","74","162","1","0","2","2","0.8,0.2,0.2,0.2,0.8,0.2,0.2,0.2,0.8","0.2,0.8,0.2,0.2,0.2,0.8,0.8,0.2,0.2","3","",""
"","html-keyboard-response","85","39613","0.0-85.0","3JWH6J9I9TZFJACSX135KLH72VPBNN","A1VFSNVFK883XU","335VBRURDJMQFRMOFGHOE9WKSHX9E1","","null","<img src=""img/land1.png"" style=""width:200px;border:14px solid red;"">","null","","","","","","","","","",""
"","image-keyboard-response","86","39623","0.0-86.0","3JWH6J9I9TZFJACSX135KLH72VPBNN","A1VFSNVFK883XU","335VBRURDJMQFRMOFGHOE9WKSHX9E1","","9","img/land5.png","75","11","2","1","1","2","0.8,0.2,0.2,0.2,0.8,0.2,0.2,0.2,0.8","0.2,0.8,0.2,0.2,0.2,0.8,0.8,0.2,0.2","3","",""
"","html-keyboard-response","87","39925","0.0-87.0","3JWH6J9I9TZFJACSX135KLH72VPBNN","A1VFSNVFK883XU","335VBRURDJMQFRMOFGHOE9WKSHX9E1","","null","<img src=""img/land5.png"" style=""width:200px; border:14px solid green;"">","null","","","","","","","","","",""
"","image-keyboard-response","88","40018","0.0-88.0","3JWH6J9I9TZFJACSX135KLH72VPBNN","A1VFSNVFK883XU","335VBRURDJMQFRMOFGHOE9WKSHX9E1","","91","img/land5.png","76","92","3","1","1","2","0.8,0.2,0.2,0.2,0.8,0.2,0.2,0.2,0.8","0.2,0.8,0.2,0.2,0.2,0.8,0.8,0.2,0.2","3","",""
"","html-keyboard-response","89","40329","0.0-89.0","3JWH6J9I9TZFJACSX135KLH72VPBNN","A1VFSNVFK883XU","335VBRURDJMQFRMOFGHOE9WKSHX9E1","","null","<img src=""img/land5.png"" style=""width:200px; border:14px solid green;"">","null","","","","","","","","","",""
"","image-keyboard-response","90","40467","0.0-90.0","3JWH6J9I9TZFJACSX135KLH72VPBNN","A1VFSNVFK883XU","335VBRURDJMQFRMOFGHOE9WKSHX9E1","","138","img/land5.png","74","138","1","0","1","2","0.8,0.2,0.2,0.2,0.8,0.2,0.2,0.2,0.8","0.2,0.8,0.2,0.2,0.2,0.8,0.8,0.2,0.2","3","",""
"","html-keyboard-response","91","40779","0.0-91.0","3JWH6J9I9TZFJACSX135KLH72VPBNN","A1VFSNVFK883XU","335VBRURDJMQFRMOFGHOE9WKSHX9E1","","null","<img src=""img/land5.png"" style=""width:200px;border:14px solid red;"">","null","","","","","","","","","",""
"","image-keyboard-response","92","40885","0.0-92.0","3JWH6J9I9TZFJACSX135KLH72VPBNN","A1VFSNVFK883XU","335VBRURDJMQFRMOFGHOE9WKSHX9E1","","106","img/land1.png","76","107","3","1","2","2","0.8,0.2,0.2,0.2,0.8,0.2,0.2,0.2,0.8","0.2,0.8,0.2,0.2,0.2,0.8,0.8,0.2,0.2","3","",""
"","html-keyboard-response","93","41200","0.0-93.0","3JWH6J9I9TZFJACSX135KLH72VPBNN","A1VFSNVFK883XU","335VBRURDJMQFRMOFGHOE9WKSHX9E1","","null","<img src=""img/land1.png"" style=""width:200px; border:14px solid green;"">","null","","","","","","","","","",""
"","image-keyboard-response","94","41336","0.0-94.0","3JWH6J9I9TZFJACSX135KLH72VPBNN","A1VFSNVFK883XU","335VBRURDJMQFRMOFGHOE9WKSHX9E1","","135","img/land5.png","74","136","1","0","1","2","0.8,0.2,0.2,0.2,0.8,0.2,0.2,0.2,0.8","0.2,0.8,0.2,0.2,0.2,0.8,0.8,0.2,0.2","3","",""
"","html-keyboard-response","95","41650","0.0-95.0","3JWH6J9I9TZFJACSX135KLH72VPBNN","A1VFSNVFK883XU","335VBRURDJMQFRMOFGHOE9WKSHX9E1","","null","<img src=""img/land5.png"" style=""width:200px;border:14px solid red;"">","null","","","","","","","","","",""
"","image-keyboard-response","96","41734","0.0-96.0","3JWH6J9I9TZFJACSX135KLH72VPBNN","A1VFSNVFK883XU","335VBRURDJMQFRMOFGHOE9WKSHX9E1","","82","img/land5.png","76","84","3","0","1","2","0.8,0.2,0.2,0.2,0.8,0.2,0.2,0.2,0.8","0.2,0.8,0.2,0.2,0.2,0.8,0.8,0.2,0.2","3","",""
"","html-keyboard-response","97","42038","0.0-97.0","3JWH6J9I9TZFJACSX135KLH72VPBNN","A1VFSNVFK883XU","335VBRURDJMQFRMOFGHOE9WKSHX9E1","","null","<img src=""img/land5.png"" style=""width:200px;border:14px solid red;"">","null","","","","","","","","","",""
"","image-keyboard-response","98","42159","0.0-98.0","3JWH6J9I9TZFJACSX135KLH72VPBNN","A1VFSNVFK883XU","335VBRURDJMQFRMOFGHOE9WKSHX9E1","","120","img/land5.png","74","121","1","0","1","2","0.8,0.2,0.2,0.2,0.8,0.2,0.2,0.2,0.8","0.2,0.8,0.2,0.2,0.2,0.8,0.8,0.2,0.2","3","",""
"","html-keyboard-response","99","42484","0.0-99.0","3JWH6J9I9TZFJACSX135KLH72VPBNN","A1VFSNVFK883XU","335VBRURDJMQFRMOFGHOE9WKSHX9E1","","null","<img src=""img/land5.png"" style=""width:200px;border:14px solid red;"">","null","","","","","","","","","",""
"","image-keyboard-response","100","42488","0.0-100.0","3JWH6J9I9TZFJACSX135KLH72VPBNN","A1VFSNVFK883XU","335VBRURDJMQFRMOFGHOE9WKSHX9E1","","2","img/land1.png","75","2","2","0","2","2","0.8,0.2,0.2,0.2,0.8,0.2,0.2,0.2,0.8","0.2,0.8,0.2,0.2,0.2,0.8,0.8,0.2,0.2","3","",""
"","html-keyboard-response","101","42797","0.0-101.0","3JWH6J9I9TZFJACSX135KLH72VPBNN","A1VFSNVFK883XU","335VBRURDJMQFRMOFGHOE9WKSHX9E1","","null","<img src=""img/land1.png"" style=""width:200px;border:14px solid red;"">","null","","","","","","","","","",""
"","image-keyboard-response","102","42884","0.0-102.0","3JWH6J9I9TZFJACSX135KLH72VPBNN","A1VFSNVFK883XU","335VBRURDJMQFRMOFGHOE9WKSHX9E1","","86","img/land2.png","76","86","3","0","3","2","0.8,0.2,0.2,0.2,0.8,0.2,0.2,0.2,0.8","0.2,0.8,0.2,0.2,0.2,0.8,0.8,0.2,0.2","3","",""
"","html-keyboard-response","103","43185","0.0-103.0","3JWH6J9I9TZFJACSX135KLH72VPBNN","A1VFSNVFK883XU","335VBRURDJMQFRMOFGHOE9WKSHX9E1","","null","<img src=""img/land2.png"" style=""width:200px;border:14px solid red;"">","null","","","","","","","","","",""
"","image-keyboard-response","104","43335","0.0-104.0","3JWH6J9I9TZFJACSX135KLH72VPBNN","A1VFSNVFK883XU","335VBRURDJMQFRMOFGHOE9WKSHX9E1","","150","img/land2.png","74","150","1","0","3","2","0.8,0.2,0.2,0.2,0.8,0.2,0.2,0.2,0.8","0.2,0.8,0.2,0.2,0.2,0.8,0.8,0.2,0.2","3","",""
"","html-keyboard-response","105","43650","0.0-105.0","3JWH6J9I9TZFJACSX135KLH72VPBNN","A1VFSNVFK883XU","335VBRURDJMQFRMOFGHOE9WKSHX9E1","","null","<img src=""img/land2.png"" style=""width:200px;border:14px solid red;"">","null","","","","","","","","","",""
"","image-keyboard-response","106","43695","0.0-106.0","3JWH6J9I9TZFJACSX135KLH72VPBNN","A1VFSNVFK883XU","335VBRURDJMQFRMOFGHOE9WKSHX9E1","","43","img/land5.png","75","44","2","1","1","2","0.8,0.2,0.2,0.2,0.8,0.2,0.2,0.2,0.8","0.2,0.8,0.2,0.2,0.2,0.8,0.8,0.2,0.2","3","",""
"","html-keyboard-response","107","44008","0.0-107.0","3JWH6J9I9TZFJACSX135KLH72VPBNN","A1VFSNVFK883XU","335VBRURDJMQFRMOFGHOE9WKSHX9E1","","null","<img src=""img/land5.png"" style=""width:200px; border:14px solid green;"">","null","","","","","","","","","",""
"","image-keyboard-response","108","44033","0.0-108.0","3JWH6J9I9TZFJACSX135KLH72VPBNN","A1VFSNVFK883XU","335VBRURDJMQFRMOFGHOE9WKSHX9E1","","25","img/land5.png","76","25","3","0","1","2","0.8,0.2,0.2,0.2,0.8,0.2,0.2,0.2,0.8","0.2,0.8,0.2,0.2,0.2,0.8,0.8,0.2,0.2","3","",""
"","html-keyboard-response","109","44334","0.0-109.0","3JWH6J9I9TZFJACSX135KLH72VPBNN","A1VFSNVFK883XU","335VBRURDJMQFRMOFGHOE9WKSHX9E1","","null","<img src=""img/land5.png"" style=""width:200px;border:14px solid red;"">","null","","","","","","","","","",""
"","image-keyboard-response","110","44340","0.0-110.0","3JWH6J9I9TZFJACSX135KLH72VPBNN","A1VFSNVFK883XU","335VBRURDJMQFRMOFGHOE9WKSHX9E1","","5","img/land5.png","76","5","3","0","1","2","0.8,0.2,0.2,0.2,0.8,0.2,0.2,0.2,0.8","0.2,0.8,0.2,0.2,0.2,0.8,0.8,0.2,0.2","3","",""
"","html-keyboard-response","111","44646","0.0-111.0","3JWH6J9I9TZFJACSX135KLH72VPBNN","A1VFSNVFK883XU","335VBRURDJMQFRMOFGHOE9WKSHX9E1","","null","<img src=""img/land5.png"" style=""width:200px;border:14px solid red;"">","null","","","","","","","","","",""
"","image-keyboard-response","112","44829","0.0-112.0","3JWH6J9I9TZFJACSX135KLH72VPBNN","A1VFSNVFK883XU","335VBRURDJMQFRMOFGHOE9WKSHX9E1","","182","img/land1.png","76","183","3","1","2","2","0.8,0.2,0.2,0.2,0.8,0.2,0.2,0.2,0.8","0.2,0.8,0.2,0.2,0.2,0.8,0.8,0.2,0.2","3","",""
"","html-keyboard-response","113","45143","0.0-113.0","3JWH6J9I9TZFJACSX135KLH72VPBNN","A1VFSNVFK883XU","335VBRURDJMQFRMOFGHOE9WKSHX9E1","","null","<img src=""img/land1.png"" style=""width:200px; border:14px solid green;"">","null","","","","","","","","","",""
"","image-keyboard-response","114","45191","0.0-114.0","3JWH6J9I9TZFJACSX135KLH72VPBNN","A1VFSNVFK883XU","335VBRURDJMQFRMOFGHOE9WKSHX9E1","","48","img/land2.png","74","49","1","1","3","2","0.8,0.2,0.2,0.2,0.8,0.2,0.2,0.2,0.8","0.2,0.8,0.2,0.2,0.2,0.8,0.8,0.2,0.2","3","",""
"","html-keyboard-response","115","45501","0.0-115.0","3JWH6J9I9TZFJACSX135KLH72VPBNN","A1VFSNVFK883XU","335VBRURDJMQFRMOFGHOE9WKSHX9E1","","null","<img src=""img/land2.png"" style=""width:200px; border:14px solid green;"">","null","","","","","","","","","",""
"","image-keyboard-response","116","45511","0.0-116.0","3JWH6J9I9TZFJACSX135KLH72VPBNN","A1VFSNVFK883XU","335VBRURDJMQFRMOFGHOE9WKSHX9E1","","8","img/land5.png","74","10","1","0","1","2","0.8,0.2,0.2,0.2,0.8,0.2,0.2,0.2,0.8","0.2,0.8,0.2,0.2,0.2,0.8,0.8,0.2,0.2","3","",""
"","html-keyboard-response","117","45812","0.0-117.0","3JWH6J9I9TZFJACSX135KLH72VPBNN","A1VFSNVFK883XU","335VBRURDJMQFRMOFGHOE9WKSHX9E1","","null","<img src=""img/land5.png"" style=""width:200px;border:14px solid red;"">","null","","","","","","","","","",""
"","image-keyboard-response","118","46052","0.0-118.0","3JWH6J9I9TZFJACSX135KLH72VPBNN","A1VFSNVFK883XU","335VBRURDJMQFRMOFGHOE9WKSHX9E1","","238","img/land5.png","74","239","1","0","1","2","0.8,0.2,0.2,0.2,0.8,0.2,0.2,0.2,0.8","0.2,0.8,0.2,0.2,0.2,0.8,0.8,0.2,0.2","3","",""
"","html-keyboard-response","119","46353","0.0-119.0","3JWH6J9I9TZFJACSX135KLH72VPBNN","A1VFSNVFK883XU","335VBRURDJMQFRMOFGHOE9WKSHX9E1","","null","<img src=""img/land5.png"" style=""width:200px;border:14px solid red;"">","null","","","","","","","","","",""
"","image-keyboard-response","120","46632","0.0-120.0","3JWH6J9I9TZFJACSX135KLH72VPBNN","A1VFSNVFK883XU","335VBRURDJMQFRMOFGHOE9WKSHX9E1","","278","img/land2.png","74","278","1","1","3","2","0.8,0.2,0.2,0.2,0.8,0.2,0.2,0.2,0.8","0.2,0.8,0.2,0.2,0.2,0.8,0.8,0.2,0.2","3","",""
"","html-keyboard-response","121","46943","0.0-121.0","3JWH6J9I9TZFJACSX135KLH72VPBNN","A1VFSNVFK883XU","335VBRURDJMQFRMOFGHOE9WKSHX9E1","","null","<img src=""img/land2.png"" style=""width:200px; border:14px solid green;"">","null","","","","","","","","","",""
"","image-keyboard-response","122","46997","0.0-122.0","3JWH6J9I9TZFJACSX135KLH72VPBNN","A1VFSNVFK883XU","335VBRURDJMQFRMOFGHOE9WKSHX9E1","","54","img/land2.png","76","55","3","0","3","2","0.8,0.2,0.2,0.2,0.8,0.2,0.2,0.2,0.8","0.2,0.8,0.2,0.2,0.2,0.8,0.8,0.2,0.2","3","",""
"","html-keyboard-response","123","47300","0.0-123.0","3JWH6J9I9TZFJACSX135KLH72VPBNN","A1VFSNVFK883XU","335VBRURDJMQFRMOFGHOE9WKSHX9E1","","null","<img src=""img/land2.png"" style=""width:200px;border:14px solid red;"">","null","","","","","","","","","",""
"","image-keyboard-response","124","47414","0.0-124.0","3JWH6J9I9TZFJACSX135KLH72VPBNN","A1VFSNVFK883XU","335VBRURDJMQFRMOFGHOE9WKSHX9E1","","113","img/land5.png","74","113","1","1","1","2","0.8,0.2,0.2,0.2,0.8,0.2,0.2,0.2,0.8","0.2,0.8,0.2,0.2,0.2,0.8,0.8,0.2,0.2","3","",""
"","html-keyboard-response","125","47720","0.0-125.0","3JWH6J9I9TZFJACSX135KLH72VPBNN","A1VFSNVFK883XU","335VBRURDJMQFRMOFGHOE9WKSHX9E1","","null","<img src=""img/land5.png"" style=""width:200px; border:14px solid green;"">","null","","","","","","","","","",""
"","image-keyboard-response","126","47750","0.0-126.0","3JWH6J9I9TZFJACSX135KLH72VPBNN","A1VFSNVFK883XU","335VBRURDJMQFRMOFGHOE9WKSHX9E1","","29","img/land1.png","74","30","1","1","2","2","0.8,0.2,0.2,0.2,0.8,0.2,0.2,0.2,0.8","0.2,0.8,0.2,0.2,0.2,0.8,0.8,0.2,0.2","3","",""
"","html-keyboard-response","127","48060","0.0-127.0","3JWH6J9I9TZFJACSX135KLH72VPBNN","A1VFSNVFK883XU","335VBRURDJMQFRMOFGHOE9WKSHX9E1","","null","<img src=""img/land1.png"" style=""width:200px; border:14px solid green;"">","null","","","","","","","","","",""
"","image-keyboard-response","128","48234","0.0-128.0","3JWH6J9I9TZFJACSX135KLH72VPBNN","A1VFSNVFK883XU","335VBRURDJMQFRMOFGHOE9WKSHX9E1","","173","img/land5.png","74","173","1","0","1","2","0.8,0.2,0.2,0.2,0.8,0.2,0.2,0.2,0.8","0.2,0.8,0.2,0.2,0.2,0.8,0.8,0.2,0.2","3","",""
"","html-keyboard-response","129","48544","0.0-129.0","3JWH6J9I9TZFJACSX135KLH72VPBNN","A1VFSNVFK883XU","335VBRURDJMQFRMOFGHOE9WKSHX9E1","","null","<img src=""img/land5.png"" style=""width:200px;border:14px solid red;"">","null","","","","","","","","","",""
"","image-keyboard-response","130","48792","0.0-130.0","3JWH6J9I9TZFJACSX135KLH72VPBNN","A1VFSNVFK883XU","335VBRURDJMQFRMOFGHOE9WKSHX9E1","","246","img/land5.png","74","246","1","0","1","2","0.8,0.2,0.2,0.2,0.8,0.2,0.2,0.2,0.8","0.2,0.8,0.2,0.2,0.2,0.8,0.8,0.2,0.2","3","",""
"","html-keyboard-response","131","49101","0.0-131.0","3JWH6J9I9TZFJACSX135KLH72VPBNN","A1VFSNVFK883XU","335VBRURDJMQFRMOFGHOE9WKSHX9E1","","null","<img src=""img/land5.png"" style=""width:200px;border:14px solid red;"">","null","","","","","","","","","",""
"","image-keyboard-response","132","49106","0.0-132.0","3JWH6J9I9TZFJACSX135KLH72VPBNN","A1VFSNVFK883XU","335VBRURDJMQFRMOFGHOE9WKSHX9E1","","4","img/land5.png","75","5","2","0","1","2","0.8,0.2,0.2,0.2,0.8,0.2,0.2,0.2,0.8","0.2,0.8,0.2,0.2,0.2,0.8,0.8,0.2,0.2","3","",""
"","html-keyboard-response","133","49410","0.0-133.0","3JWH6J9I9TZFJACSX135KLH72VPBNN","A1VFSNVFK883XU","335VBRURDJMQFRMOFGHOE9WKSHX9E1","","null","<img src=""img/land5.png"" style=""width:200px;border:14px solid red;"">","null","","","","","","","","","",""
"","image-keyboard-response","134","49453","0.0-134.0","3JWH6J9I9TZFJACSX135KLH72VPBNN","A1VFSNVFK883XU","335VBRURDJMQFRMOFGHOE9WKSHX9E1","","42","img/land5.png","75","42","2","0","1","2","0.8,0.2,0.2,0.2,0.8,0.2,0.2,0.2,0.8","0.2,0.8,0.2,0.2,0.2,0.8,0.8,0.2,0.2","3","",""
"","html-keyboard-response","135","49765","0.0-135.0","3JWH6J9I9TZFJACSX135KLH72VPBNN","A1VFSNVFK883XU","335VBRURDJMQFRMOFGHOE9WKSHX9E1","","null","<img src=""img/land5.png"" style=""width:200px;border:14px solid red;"">","null","","","","","","","","","",""
"","image-keyboard-response","136","49828","0.0-136.0","3JWH6J9I9TZFJACSX135KLH72VPBNN","A1VFSNVFK883XU","335VBRURDJMQFRMOFGHOE9WKSHX9E1","","63","img/land5.png","74","63","1","0","1","2","0.8,0.2,0.2,0.2,0.8,0.2,0.2,0.2,0.8","0.2,0.8,0.2,0.2,0.2,0.8,0.8,0.2,0.2","3","",""
"","html-keyboard-response","137","50139","0.0-137.0","3JWH6J9I9TZFJACSX135KLH72VPBNN","A1VFSNVFK883XU","335VBRURDJMQFRMOFGHOE9WKSHX9E1","","null","<img src=""img/land5.png"" style=""width:200px;border:14px solid red;"">","null","","","","","","","","","",""
"","image-keyboard-response","138","50271","0.0-138.0","3JWH6J9I9TZFJACSX135KLH72VPBNN","A1VFSNVFK883XU","335VBRURDJMQFRMOFGHOE9WKSHX9E1","","130","img/land5.png","76","132","3","0","1","2","0.8,0.2,0.2,0.2,0.8,0.2,0.2,0.2,0.8","0.2,0.8,0.2,0.2,0.2,0.8,0.8,0.2,0.2","3","",""
"","html-keyboard-response","139","50576","0.0-139.0","3JWH6J9I9TZFJACSX135KLH72VPBNN","A1VFSNVFK883XU","335VBRURDJMQFRMOFGHOE9WKSHX9E1","","null","<img src=""img/land5.png"" style=""width:200px;border:14px solid red;"">","null","","","","","","","","","",""
"","image-keyboard-response","140","50669","0.0-140.0","3JWH6J9I9TZFJACSX135KLH72VPBNN","A1VFSNVFK883XU","335VBRURDJMQFRMOFGHOE9WKSHX9E1","","91","img/land1.png","74","92","1","0","2","2","0.8,0.2,0.2,0.2,0.8,0.2,0.2,0.2,0.8","0.2,0.8,0.2,0.2,0.2,0.8,0.8,0.2,0.2","3","",""
"","html-keyboard-response","141","50980","0.0-141.0","3JWH6J9I9TZFJACSX135KLH72VPBNN","A1VFSNVFK883XU","335VBRURDJMQFRMOFGHOE9WKSHX9E1","","null","<img src=""img/land1.png"" style=""width:200px;border:14px solid red;"">","null","","","","","","","","","",""
"","image-keyboard-response","142","51111","0.0-142.0","3JWH6J9I9TZFJACSX135KLH72VPBNN","A1VFSNVFK883XU","335VBRURDJMQFRMOFGHOE9WKSHX9E1","","130","img/land5.png","76","131","3","0","1","2","0.8,0.2,0.2,0.2,0.8,0.2,0.2,0.2,0.8","0.2,0.8,0.2,0.2,0.2,0.8,0.8,0.2,0.2","3","",""
"","html-keyboard-response","143","51413","0.0-143.0","3JWH6J9I9TZFJACSX135KLH72VPBNN","A1VFSNVFK883XU","335VBRURDJMQFRMOFGHOE9WKSHX9E1","","null","<img src=""img/land5.png"" style=""width:200px;border:14px solid red;"">","null","","","","","","","","","",""
"","image-keyboard-response","144","51418","0.0-144.0","3JWH6J9I9TZFJACSX135KLH72VPBNN","A1VFSNVFK883XU","335VBRURDJMQFRMOFGHOE9WKSHX9E1","","3","img/land5.png","76","5","3","0","1","2","0.8,0.2,0.2,0.2,0.8,0.2,0.2,0.2,0.8","0.2,0.8,0.2,0.2,0.2,0.8,0.8,0.2,0.2","3","",""
"","html-keyboard-response","145","51723","0.0-145.0","3JWH6J9I9TZFJACSX135KLH72VPBNN","A1VFSNVFK883XU","335VBRURDJMQFRMOFGHOE9WKSHX9E1","","null","<img src=""img/land5.png"" style=""width:200px;border:14px solid red;"">","null","","","","","","","","","",""
"","image-keyboard-response","146","51833","0.0-146.0","3JWH6J9I9TZFJACSX135KLH72VPBNN","A1VFSNVFK883XU","335VBRURDJMQFRMOFGHOE9WKSHX9E1","","110","img/land5.png","74","111","1","0","1","2","0.8,0.2,0.2,0.2,0.8,0.2,0.2,0.2,0.8","0.2,0.8,0.2,0.2,0.2,0.8,0.8,0.2,0.2","3","",""
"","html-keyboard-response","147","52140","0.0-147.0","3JWH6J9I9TZFJACSX135KLH72VPBNN","A1VFSNVFK883XU","335VBRURDJMQFRMOFGHOE9WKSHX9E1","","null","<img src=""img/land5.png"" style=""width:200px;border:14px solid red;"">","null","","","","","","","","","",""
"","image-keyboard-response","148","52304","0.0-148.0","3JWH6J9I9TZFJACSX135KLH72VPBNN","A1VFSNVFK883XU","335VBRURDJMQFRMOFGHOE9WKSHX9E1","","161","img/land5.png","76","162","3","0","1","2","0.8,0.2,0.2,0.2,0.8,0.2,0.2,0.2,0.8","0.2,0.8,0.2,0.2,0.2,0.8,0.8,0.2,0.2","3","",""
"","html-keyboard-response","149","52605","0.0-149.0","3JWH6J9I9TZFJACSX135KLH72VPBNN","A1VFSNVFK883XU","335VBRURDJMQFRMOFGHOE9WKSHX9E1","","null","<img src=""img/land5.png"" style=""width:200px;border:14px solid red;"">","null","","","","","","","","","",""
"","image-keyboard-response","150","52742","0.0-150.0","3JWH6J9I9TZFJACSX135KLH72VPBNN","A1VFSNVFK883XU","335VBRURDJMQFRMOFGHOE9WKSHX9E1","","136","img/land2.png","76","137","3","0","3","2","0.8,0.2,0.2,0.2,0.8,0.2,0.2,0.2,0.8","0.2,0.8,0.2,0.2,0.2,0.8,0.8,0.2,0.2","3","",""
"","html-keyboard-response","151","53056","0.0-151.0","3JWH6J9I9TZFJACSX135KLH72VPBNN","A1VFSNVFK883XU","335VBRURDJMQFRMOFGHOE9WKSHX9E1","","null","<img src=""img/land2.png"" style=""width:200px;border:14px solid red;"">","null","","","","","","","","","",""
"","image-keyboard-response","152","53255","0.0-152.0","3JWH6J9I9TZFJACSX135KLH72VPBNN","A1VFSNVFK883XU","335VBRURDJMQFRMOFGHOE9WKSHX9E1","","199","img/land1.png","75","199","2","0","2","2","0.8,0.2,0.2,0.2,0.8,0.2,0.2,0.2,0.8","0.2,0.8,0.2,0.2,0.2,0.8,0.8,0.2,0.2","3","",""
"","html-keyboard-response","153","53568","0.0-153.0","3JWH6J9I9TZFJACSX135KLH72VPBNN","A1VFSNVFK883XU","335VBRURDJMQFRMOFGHOE9WKSHX9E1","","null","<img src=""img/land1.png"" style=""width:200px;border:14px solid red;"">","null","","","","","","","","","",""
"","image-keyboard-response","154","53591","0.0-154.0","3JWH6J9I9TZFJACSX135KLH72VPBNN","A1VFSNVFK883XU","335VBRURDJMQFRMOFGHOE9WKSHX9E1","","22","img/land2.png","74","23","1","1","3","2","0.8,0.2,0.2,0.2,0.8,0.2,0.2,0.2,0.8","0.2,0.8,0.2,0.2,0.2,0.8,0.8,0.2,0.2","3","",""
"","html-keyboard-response","155","53892","0.0-155.0","3JWH6J9I9TZFJACSX135KLH72VPBNN","A1VFSNVFK883XU","335VBRURDJMQFRMOFGHOE9WKSHX9E1","","null","<img src=""img/land2.png"" style=""width:200px; border:14px solid green;"">","null","","","","","","","","","",""
"","image-keyboard-response","156","54025","0.0-156.0","3JWH6J9I9TZFJACSX135KLH72VPBNN","A1VFSNVFK883XU","335VBRURDJMQFRMOFGHOE9WKSHX9E1","","132","img/land5.png","76","133","3","0","1","2","0.8,0.2,0.2,0.2,0.8,0.2,0.2,0.2,0.8","0.2,0.8,0.2,0.2,0.2,0.8,0.8,0.2,0.2","3","",""
"","html-keyboard-response","157","54326","0.0-157.0","3JWH6J9I9TZFJACSX135KLH72VPBNN","A1VFSNVFK883XU","335VBRURDJMQFRMOFGHOE9WKSHX9E1","","null","<img src=""img/land5.png"" style=""width:200px;border:14px solid red;"">","null","","","","","","","","","",""
"","image-keyboard-response","158","54366","0.0-158.0","3JWH6J9I9TZFJACSX135KLH72VPBNN","A1VFSNVFK883XU","335VBRURDJMQFRMOFGHOE9WKSHX9E1","","39","img/land5.png","74","40","1","0","1","2","0.8,0.2,0.2,0.2,0.8,0.2,0.2,0.2,0.8","0.2,0.8,0.2,0.2,0.2,0.8,0.8,0.2,0.2","3","",""
"","html-keyboard-response","159","54667","0.0-159.0","3JWH6J9I9TZFJACSX135KLH72VPBNN","A1VFSNVFK883XU","335VBRURDJMQFRMOFGHOE9WKSHX9E1","","null","<img src=""img/land5.png"" style=""width:200px;border:14px solid red;"">","null","","","","","","","","","",""
"","image-keyboard-response","160","54903","0.0-160.0","3JWH6J9I9TZFJACSX135KLH72VPBNN","A1VFSNVFK883XU","335VBRURDJMQFRMOFGHOE9WKSHX9E1","","234","img/land5.png","76","235","3","0","1","2","0.8,0.2,0.2,0.2,0.8,0.2,0.2,0.2,0.8","0.2,0.8,0.2,0.2,0.2,0.8,0.8,0.2,0.2","3","",""
"","html-keyboard-response","161","55213","0.0-161.0","3JWH6J9I9TZFJACSX135KLH72VPBNN","A1VFSNVFK883XU","335VBRURDJMQFRMOFGHOE9WKSHX9E1","","null","<img src=""img/land5.png"" style=""width:200px;border:14px solid red;"">","null","","","","","","","","","",""
"","image-keyboard-response","162","55388","0.0-162.0","3JWH6J9I9TZFJACSX135KLH72VPBNN","A1VFSNVFK883XU","335VBRURDJMQFRMOFGHOE9WKSHX9E1","","174","img/land5.png","76","176","3","0","1","2","0.8,0.2,0.2,0.2,0.8,0.2,0.2,0.2,0.8","0.2,0.8,0.2,0.2,0.2,0.8,0.8,0.2,0.2","3","",""
"","html-keyboard-response","163","55693","0.0-163.0","3JWH6J9I9TZFJACSX135KLH72VPBNN","A1VFSNVFK883XU","335VBRURDJMQFRMOFGHOE9WKSHX9E1","","null","<img src=""img/land5.png"" style=""width:200px;border:14px solid red;"">","null","","","","","","","","","",""
"","image-keyboard-response","164","55819","0.0-164.0","3JWH6J9I9TZFJACSX135KLH72VPBNN","A1VFSNVFK883XU","335VBRURDJMQFRMOFGHOE9WKSHX9E1","","125","img/land5.png","76","125","3","1","1","2","0.8,0.2,0.2,0.2,0.8,0.2,0.2,0.2,0.8","0.2,0.8,0.2,0.2,0.2,0.8,0.8,0.2,0.2","3","",""
"","html-keyboard-response","165","56124","0.0-165.0","3JWH6J9I9TZFJACSX135KLH72VPBNN","A1VFSNVFK883XU","335VBRURDJMQFRMOFGHOE9WKSHX9E1","","null","<img src=""img/land5.png"" style=""width:200px; border:14px solid green;"">","null","","","","","","","","","",""
"","image-keyboard-response","166","56716","0.0-166.0","3JWH6J9I9TZFJACSX135KLH72VPBNN","A1VFSNVFK883XU","335VBRURDJMQFRMOFGHOE9WKSHX9E1","","591","img/land2.png","75","592","2","0","3","2","0.8,0.2,0.2,0.2,0.8,0.2,0.2,0.2,0.8","0.2,0.8,0.2,0.2,0.2,0.8,0.8,0.2,0.2","3","",""
"","html-keyboard-response","167","57026","0.0-167.0","3JWH6J9I9TZFJACSX135KLH72VPBNN","A1VFSNVFK883XU","335VBRURDJMQFRMOFGHOE9WKSHX9E1","","null","<img src=""img/land2.png"" style=""width:200px;border:14px solid red;"">","null","","","","","","","","","",""
"","image-keyboard-response","168","57035","0.0-168.0","3JWH6J9I9TZFJACSX135KLH72VPBNN","A1VFSNVFK883XU","335VBRURDJMQFRMOFGHOE9WKSHX9E1","","9","img/land5.png","74","10","1","0","1","2","0.8,0.2,0.2,0.2,0.8,0.2,0.2,0.2,0.8","0.2,0.8,0.2,0.2,0.2,0.8,0.8,0.2,0.2","3","",""
"","html-keyboard-response","169","57351","0.0-169.0","3JWH6J9I9TZFJACSX135KLH72VPBNN","A1VFSNVFK883XU","335VBRURDJMQFRMOFGHOE9WKSHX9E1","","null","<img src=""img/land5.png"" style=""width:200px;border:14px solid red;"">","null","","","","","","","","","",""
"","image-keyboard-response","170","57428","0.0-170.0","3JWH6J9I9TZFJACSX135KLH72VPBNN","A1VFSNVFK883XU","335VBRURDJMQFRMOFGHOE9WKSHX9E1","","75","img/land5.png","74","77","1","0","1","2","0.8,0.2,0.2,0.2,0.8,0.2,0.2,0.2,0.8","0.2,0.8,0.2,0.2,0.2,0.8,0.8,0.2,0.2","3","",""
"","html-keyboard-response","171","57740","0.0-171.0","3JWH6J9I9TZFJACSX135KLH72VPBNN","A1VFSNVFK883XU","335VBRURDJMQFRMOFGHOE9WKSHX9E1","","null","<img src=""img/land5.png"" style=""width:200px;border:14px solid red;"">","null","","","","","","","","","",""
"","image-keyboard-response","172","57744","0.0-172.0","3JWH6J9I9TZFJACSX135KLH72VPBNN","A1VFSNVFK883XU","335VBRURDJMQFRMOFGHOE9WKSHX9E1","","3","img/land1.png","76","4","3","1","2","2","0.8,0.2,0.2,0.2,0.8,0.2,0.2,0.2,0.8","0.2,0.8,0.2,0.2,0.2,0.8,0.8,0.2,0.2","3","",""
"","html-keyboard-response","173","58051","0.0-173.0","3JWH6J9I9TZFJACSX135KLH72VPBNN","A1VFSNVFK883XU","335VBRURDJMQFRMOFGHOE9WKSHX9E1","","null","<img src=""img/land1.png"" style=""width:200px; border:14px solid green;"">","null","","","","","","","","","",""
"","image-keyboard-response","174","58066","0.0-174.0","3JWH6J9I9TZFJACSX135KLH72VPBNN","A1VFSNVFK883XU","335VBRURDJMQFRMOFGHOE9WKSHX9E1","","14","img/land5.png","74","14","1","1","1","2","0.8,0.2,0.2,0.2,0.8,0.2,0.2,0.2,0.8","0.2,0.8,0.2,0.2,0.2,0.8,0.8,0.2,0.2","3","",""
"","html-keyboard-response","175","58379","0.0-175.0","3JWH6J9I9TZFJACSX135KLH72VPBNN","A1VFSNVFK883XU","335VBRURDJMQFRMOFGHOE9WKSHX9E1","","null","<img src=""img/land5.png"" style=""width:200px; border:14px solid green;"">","null","","","","","","","","","",""
"","image-keyboard-response","176","58393","0.0-176.0","3JWH6J9I9TZFJACSX135KLH72VPBNN","A1VFSNVFK883XU","335VBRURDJMQFRMOFGHOE9WKSHX9E1","","13","img/land5.png","75","13","2","1","1","2","0.8,0.2,0.2,0.2,0.8,0.2,0.2,0.2,0.8","0.2,0.8,0.2,0.2,0.2,0.8,0.8,0.2,0.2","3","",""
"","html-keyboard-response","177","58705","0.0-177.0","3JWH6J9I9TZFJACSX135KLH72VPBNN","A1VFSNVFK883XU","335VBRURDJMQFRMOFGHOE9WKSHX9E1","","null","<img src=""img/land5.png"" style=""width:200px; border:14px solid green;"">","null","","","","","","","","","",""
"","image-keyboard-response","178","58846","0.0-178.0","3JWH6J9I9TZFJACSX135KLH72VPBNN","A1VFSNVFK883XU","335VBRURDJMQFRMOFGHOE9WKSHX9E1","","140","img/land1.png","76","142","3","1","2","2","0.8,0.2,0.2,0.2,0.8,0.2,0.2,0.2,0.8","0.2,0.8,0.2,0.2,0.2,0.8,0.8,0.2,0.2","3","",""
"","html-keyboard-response","179","59155","0.0-179.0","3JWH6J9I9TZFJACSX135KLH72VPBNN","A1VFSNVFK883XU","335VBRURDJMQFRMOFGHOE9WKSHX9E1","","null","<img src=""img/land1.png"" style=""width:200px; border:14px solid green;"">","null","","","","","","","","","",""
"","image-keyboard-response","180","59179","0.0-180.0","3JWH6J9I9TZFJACSX135KLH72VPBNN","A1VFSNVFK883XU","335VBRURDJMQFRMOFGHOE9WKSHX9E1","","25","img/land5.png","74","25","1","1","1","2","0.8,0.2,0.2,0.2,0.8,0.2,0.2,0.2,0.8","0.2,0.8,0.2,0.2,0.2,0.8,0.8,0.2,0.2","3","",""
"","html-keyboard-response","181","59494","0.0-181.0","3JWH6J9I9TZFJACSX135KLH72VPBNN","A1VFSNVFK883XU","335VBRURDJMQFRMOFGHOE9WKSHX9E1","","null","<img src=""img/land5.png"" style=""width:200px; border:14px solid green;"">","null","","","","","","","","","",""
"","image-keyboard-response","182","59581","0.0-182.0","3JWH6J9I9TZFJACSX135KLH72VPBNN","A1VFSNVFK883XU","335VBRURDJMQFRMOFGHOE9WKSHX9E1","","86","img/land1.png","76","86","3","1","2","2","0.8,0.2,0.2,0.2,0.8,0.2,0.2,0.2,0.8","0.2,0.8,0.2,0.2,0.2,0.8,0.8,0.2,0.2","3","",""
"","html-keyboard-response","183","59883","0.0-183.0","3JWH6J9I9TZFJACSX135KLH72VPBNN","A1VFSNVFK883XU","335VBRURDJMQFRMOFGHOE9WKSHX9E1","","null","<img src=""img/land1.png"" style=""width:200px; border:14px solid green;"">","null","","","","","","","","","",""
"","image-keyboard-response","184","59902","0.0-184.0","3JWH6J9I9TZFJACSX135KLH72VPBNN","A1VFSNVFK883XU","335VBRURDJMQFRMOFGHOE9WKSHX9E1","","18","img/land5.png","76","18","3","0","1","2","0.8,0.2,0.2,0.2,0.8,0.2,0.2,0.2,0.8","0.2,0.8,0.2,0.2,0.2,0.8,0.8,0.2,0.2","3","",""
"","html-keyboard-response","185","60211","0.0-185.0","3JWH6J9I9TZFJACSX135KLH72VPBNN","A1VFSNVFK883XU","335VBRURDJMQFRMOFGHOE9WKSHX9E1","","null","<img src=""img/land5.png"" style=""width:200px;border:14px solid red;"">","null","","","","","","","","","",""
"","image-keyboard-response","186","60266","0.0-186.0","3JWH6J9I9TZFJACSX135KLH72VPBNN","A1VFSNVFK883XU","335VBRURDJMQFRMOFGHOE9WKSHX9E1","","54","img/land2.png","74","56","1","1","3","2","0.8,0.2,0.2,0.2,0.8,0.2,0.2,0.2,0.8","0.2,0.8,0.2,0.2,0.2,0.8,0.8,0.2,0.2","3","",""
"","html-keyboard-response","187","60599","0.0-187.0","3JWH6J9I9TZFJACSX135KLH72VPBNN","A1VFSNVFK883XU","335VBRURDJMQFRMOFGHOE9WKSHX9E1","","null","<img src=""img/land2.png"" style=""width:200px; border:14px solid green;"">","null","","","","","","","","","",""
"","image-keyboard-response","188","60664","0.0-188.0","3JWH6J9I9TZFJACSX135KLH72VPBNN","A1VFSNVFK883XU","335VBRURDJMQFRMOFGHOE9WKSHX9E1","","64","img/land5.png","74","66","1","0","1","2","0.8,0.2,0.2,0.2,0.8,0.2,0.2,0.2,0.8","0.2,0.8,0.2,0.2,0.2,0.8,0.8,0.2,0.2","3","",""
"","html-keyboard-response","189","60970","0.0-189.0","3JWH6J9I9TZFJACSX135KLH72VPBNN","A1VFSNVFK883XU","335VBRURDJMQFRMOFGHOE9WKSHX9E1","","null","<img src=""img/land5.png"" style=""width:200px;border:14px solid red;"">","null","","","","","","","","","",""
"","image-keyboard-response","190","60983","0.0-190.0","3JWH6J9I9TZFJACSX135KLH72VPBNN","A1VFSNVFK883XU","335VBRURDJMQFRMOFGHOE9WKSHX9E1","","13","img/land2.png","76","13","3","0","3","2","0.8,0.2,0.2,0.2,0.8,0.2,0.2,0.2,0.8","0.2,0.8,0.2,0.2,0.2,0.8,0.8,0.2,0.2","3","",""
"","html-keyboard-response","191","61294","0.0-191.0","3JWH6J9I9TZFJACSX135KLH72VPBNN","A1VFSNVFK883XU","335VBRURDJMQFRMOFGHOE9WKSHX9E1","","null","<img src=""img/land2.png"" style=""width:200px;border:14px solid red;"">","null","","","","","","","","","",""
"","image-keyboard-response","192","61392","0.0-192.0","3JWH6J9I9TZFJACSX135KLH72VPBNN","A1VFSNVFK883XU","335VBRURDJMQFRMOFGHOE9WKSHX9E1","","97","img/land5.png","76","98","3","0","1","2","0.8,0.2,0.2,0.2,0.8,0.2,0.2,0.2,0.8","0.2,0.8,0.2,0.2,0.2,0.8,0.8,0.2,0.2","3","",""
"","html-keyboard-response","193","61698","0.0-193.0","3JWH6J9I9TZFJACSX135KLH72VPBNN","A1VFSNVFK883XU","335VBRURDJMQFRMOFGHOE9WKSHX9E1","","null","<img src=""img/land5.png"" style=""width:200px;border:14px solid red;"">","null","","","","","","","","","",""
"","image-keyboard-response","194","61775","0.0-194.0","3JWH6J9I9TZFJACSX135KLH72VPBNN","A1VFSNVFK883XU","335VBRURDJMQFRMOFGHOE9WKSHX9E1","","75","img/land1.png","76","75","3","1","2","2","0.8,0.2,0.2,0.2,0.8,0.2,0.2,0.2,0.8","0.2,0.8,0.2,0.2,0.2,0.8,0.8,0.2,0.2","3","",""
"","html-keyboard-response","195","62083","0.0-195.0","3JWH6J9I9TZFJACSX135KLH72VPBNN","A1VFSNVFK883XU","335VBRURDJMQFRMOFGHOE9WKSHX9E1","","null","<img src=""img/land1.png"" style=""width:200px; border:14px solid green;"">","null","","","","","","","","","",""
"","image-keyboard-response","196","62181","0.0-196.0","3JWH6J9I9TZFJACSX135KLH72VPBNN","A1VFSNVFK883XU","335VBRURDJMQFRMOFGHOE9WKSHX9E1","","95","img/land5.png","76","95","3","0","1","2","0.8,0.2,0.2,0.2,0.8,0.2,0.2,0.2,0.8","0.2,0.8,0.2,0.2,0.2,0.8,0.8,0.2,0.2","3","",""
"","html-keyboard-response","197","62485","0.0-197.0","3JWH6J9I9TZFJACSX135KLH72VPBNN","A1VFSNVFK883XU","335VBRURDJMQFRMOFGHOE9WKSHX9E1","","null","<img src=""img/land5.png"" style=""width:200px;border:14px solid red;"">","null","","","","","","","","","",""
"","image-keyboard-response","198","62552","0.0-198.0","3JWH6J9I9TZFJACSX135KLH72VPBNN","A1VFSNVFK883XU","335VBRURDJMQFRMOFGHOE9WKSHX9E1","","66","img/land2.png","76","66","3","0","3","2","0.8,0.2,0.2,0.2,0.8,0.2,0.2,0.2,0.8","0.2,0.8,0.2,0.2,0.2,0.8,0.8,0.2,0.2","3","",""
"","html-keyboard-response","199","62858","0.0-199.0","3JWH6J9I9TZFJACSX135KLH72VPBNN","A1VFSNVFK883XU","335VBRURDJMQFRMOFGHOE9WKSHX9E1","","null","<img src=""img/land2.png"" style=""width:200px;border:14px solid red;"">","null","","","","","","","","","",""
"","image-keyboard-response","200","62951","0.0-200.0","3JWH6J9I9TZFJACSX135KLH72VPBNN","A1VFSNVFK883XU","335VBRURDJMQFRMOFGHOE9WKSHX9E1","","92","img/land5.png","76","94","3","0","1","2","0.8,0.2,0.2,0.2,0.8,0.2,0.2,0.2,0.8","0.2,0.8,0.2,0.2,0.2,0.8,0.8,0.2,0.2","3","",""
"","html-keyboard-response","201","63262","0.0-201.0","3JWH6J9I9TZFJACSX135KLH72VPBNN","A1VFSNVFK883XU","335VBRURDJMQFRMOFGHOE9WKSHX9E1","","null","<img src=""img/land5.png"" style=""width:200px;border:14px solid red;"">","null","","","","","","","","","",""
"","image-keyboard-response","202","63338","0.0-202.0","3JWH6J9I9TZFJACSX135KLH72VPBNN","A1VFSNVFK883XU","335VBRURDJMQFRMOFGHOE9WKSHX9E1","","75","img/land5.png","76","75","3","0","1","2","0.8,0.2,0.2,0.2,0.8,0.2,0.2,0.2,0.8","0.2,0.8,0.2,0.2,0.2,0.8,0.8,0.2,0.2","3","",""
"","html-keyboard-response","203","63646","0.0-203.0","3JWH6J9I9TZFJACSX135KLH72VPBNN","A1VFSNVFK883XU","335VBRURDJMQFRMOFGHOE9WKSHX9E1","","null","<img src=""img/land5.png"" style=""width:200px;border:14px solid red;"">","null","","","","","","","","","",""
"","image-keyboard-response","204","63748","0.0-204.0","3JWH6J9I9TZFJACSX135KLH72VPBNN","A1VFSNVFK883XU","335VBRURDJMQFRMOFGHOE9WKSHX9E1","","99","img/land5.png","76","100","3","0","1","2","0.8,0.2,0.2,0.2,0.8,0.2,0.2,0.2,0.8","0.2,0.8,0.2,0.2,0.2,0.8,0.8,0.2,0.2","3","",""
"","html-keyboard-response","205","64052","0.0-205.0","3JWH6J9I9TZFJACSX135KLH72VPBNN","A1VFSNVFK883XU","335VBRURDJMQFRMOFGHOE9WKSHX9E1","","null","<img src=""img/land5.png"" style=""width:200px;border:14px solid red;"">","null","","","","","","","","","",""
"","image-keyboard-response","206","64302","0.0-206.0","3JWH6J9I9TZFJACSX135KLH72VPBNN","A1VFSNVFK883XU","335VBRURDJMQFRMOFGHOE9WKSHX9E1","","247","img/land5.png","76","249","3","1","1","2","0.8,0.2,0.2,0.2,0.8,0.2,0.2,0.2,0.8","0.2,0.8,0.2,0.2,0.2,0.8,0.8,0.2,0.2","3","",""
"","html-keyboard-response","207","64611","0.0-207.0","3JWH6J9I9TZFJACSX135KLH72VPBNN","A1VFSNVFK883XU","335VBRURDJMQFRMOFGHOE9WKSHX9E1","","null","<img src=""img/land5.png"" style=""width:200px; border:14px solid green;"">","null","","","","","","","","","",""
"","image-keyboard-response","208","64827","0.0-208.0","3JWH6J9I9TZFJACSX135KLH72VPBNN","A1VFSNVFK883XU","335VBRURDJMQFRMOFGHOE9WKSHX9E1","","215","img/land2.png","75","215","2","0","3","2","0.8,0.2,0.2,0.2,0.8,0.2,0.2,0.2,0.8","0.2,0.8,0.2,0.2,0.2,0.8,0.8,0.2,0.2","3","",""
"","html-keyboard-response","209","65138","0.0-209.0","3JWH6J9I9TZFJACSX135KLH72VPBNN","A1VFSNVFK883XU","335VBRURDJMQFRMOFGHOE9WKSHX9E1","","null","<img src=""img/land2.png"" style=""width:200px;border:14px solid red;"">","null","","","","","","","","","",""
"","image-keyboard-response","210","65189","0.0-210.0","3JWH6J9I9TZFJACSX135KLH72VPBNN","A1VFSNVFK883XU","335VBRURDJMQFRMOFGHOE9WKSHX9E1","","51","img/land2.png","74","52","1","1","3","2","0.8,0.2,0.2,0.2,0.8,0.2,0.2,0.2,0.8","0.2,0.8,0.2,0.2,0.2,0.8,0.8,0.2,0.2","3","",""
"","html-keyboard-response","211","65496","0.0-211.0","3JWH6J9I9TZFJACSX135KLH72VPBNN","A1VFSNVFK883XU","335VBRURDJMQFRMOFGHOE9WKSHX9E1","","null","<img src=""img/land2.png"" style=""width:200px; border:14px solid green;"">","null","","","","","","","","","",""
"","image-keyboard-response","212","65750","0.0-212.0","3JWH6J9I9TZFJACSX135KLH72VPBNN","A1VFSNVFK883XU","335VBRURDJMQFRMOFGHOE9WKSHX9E1","","252","img/land5.png","74","252","1","0","1","2","0.8,0.2,0.2,0.2,0.8,0.2,0.2,0.2,0.8","0.2,0.8,0.2,0.2,0.2,0.8,0.8,0.2,0.2","3","",""
"","html-keyboard-response","213","66052","0.0-213.0","3JWH6J9I9TZFJACSX135KLH72VPBNN","A1VFSNVFK883XU","335VBRURDJMQFRMOFGHOE9WKSHX9E1","","null","<img src=""img/land5.png"" style=""width:200px;border:14px solid red;"">","null","","","","","","","","","",""
"","image-keyboard-response","214","66314","0.0-214.0","3JWH6J9I9TZFJACSX135KLH72VPBNN","A1VFSNVFK883XU","335VBRURDJMQFRMOFGHOE9WKSHX9E1","","261","img/land5.png","75","262","2","0","1","2","0.8,0.2,0.2,0.2,0.8,0.2,0.2,0.2,0.8","0.2,0.8,0.2,0.2,0.2,0.8,0.8,0.2,0.2","3","",""
"","html-keyboard-response","215","66626","0.0-215.0","3JWH6J9I9TZFJACSX135KLH72VPBNN","A1VFSNVFK883XU","335VBRURDJMQFRMOFGHOE9WKSHX9E1","","null","<img src=""img/land5.png"" style=""width:200px;border:14px solid red;"">","null","","","","","","","","","",""
"","image-keyboard-response","216","66705","0.0-216.0","3JWH6J9I9TZFJACSX135KLH72VPBNN","A1VFSNVFK883XU","335VBRURDJMQFRMOFGHOE9WKSHX9E1","","78","img/land2.png","76","78","3","1","3","2","0.8,0.2,0.2,0.2,0.8,0.2,0.2,0.2,0.8","0.2,0.8,0.2,0.2,0.2,0.8,0.8,0.2,0.2","3","",""
"","html-keyboard-response","217","67012","0.0-217.0","3JWH6J9I9TZFJACSX135KLH72VPBNN","A1VFSNVFK883XU","335VBRURDJMQFRMOFGHOE9WKSHX9E1","","null","<img src=""img/land2.png"" style=""width:200px; border:14px solid green;"">","null","","","","","","","","","",""
"","image-keyboard-response","218","67066","0.0-218.0","3JWH6J9I9TZFJACSX135KLH72VPBNN","A1VFSNVFK883XU","335VBRURDJMQFRMOFGHOE9WKSHX9E1","","53","img/land5.png","74","54","1","1","1","2","0.8,0.2,0.2,0.2,0.8,0.2,0.2,0.2,0.8","0.2,0.8,0.2,0.2,0.2,0.8,0.8,0.2,0.2","3","",""
"","html-keyboard-response","219","67371","0.0-219.0","3JWH6J9I9TZFJACSX135KLH72VPBNN","A1VFSNVFK883XU","335VBRURDJMQFRMOFGHOE9WKSHX9E1","","null","<img src=""img/land5.png"" style=""width:200px; border:14px solid green;"">","null","","","","","","","","","",""
"","image-keyboard-response","220","67506","0.0-220.0","3JWH6J9I9TZFJACSX135KLH72VPBNN","A1VFSNVFK883XU","335VBRURDJMQFRMOFGHOE9WKSHX9E1","","134","img/land2.png","76","135","3","0","3","2","0.8,0.2,0.2,0.2,0.8,0.2,0.2,0.2,0.8","0.2,0.8,0.2,0.2,0.2,0.8,0.8,0.2,0.2","3","",""
"","html-keyboard-response","221","67819","0.0-221.0","3JWH6J9I9TZFJACSX135KLH72VPBNN","A1VFSNVFK883XU","335VBRURDJMQFRMOFGHOE9WKSHX9E1","","null","<img src=""img/land2.png"" style=""width:200px;border:14px solid red;"">","null","","","","","","","","","",""
"","image-keyboard-response","222","67928","0.0-222.0","3JWH6J9I9TZFJACSX135KLH72VPBNN","A1VFSNVFK883XU","335VBRURDJMQFRMOFGHOE9WKSHX9E1","","108","img/land1.png","76","109","3","1","2","2","0.8,0.2,0.2,0.2,0.8,0.2,0.2,0.2,0.8","0.2,0.8,0.2,0.2,0.2,0.8,0.8,0.2,0.2","3","",""
"","html-keyboard-response","223","68242","0.0-223.0","3JWH6J9I9TZFJACSX135KLH72VPBNN","A1VFSNVFK883XU","335VBRURDJMQFRMOFGHOE9WKSHX9E1","","null","<img src=""img/land1.png"" style=""width:200px; border:14px solid green;"">","null","","","","","","","","","",""
"","image-keyboard-response","224","68308","0.0-224.0","3JWH6J9I9TZFJACSX135KLH72VPBNN","A1VFSNVFK883XU","335VBRURDJMQFRMOFGHOE9WKSHX9E1","","66","img/land5.png","76","67","3","0","1","2","0.8,0.2,0.2,0.2,0.8,0.2,0.2,0.2,0.8","0.2,0.8,0.2,0.2,0.2,0.8,0.8,0.2,0.2","3","",""
"","html-keyboard-response","225","68613","0.0-225.0","3JWH6J9I9TZFJACSX135KLH72VPBNN","A1VFSNVFK883XU","335VBRURDJMQFRMOFGHOE9WKSHX9E1","","null","<img src=""img/land5.png"" style=""width:200px;border:14px solid red;"">","null","","","","","","","","","",""
"","image-keyboard-response","226","68689","0.0-226.0","3JWH6J9I9TZFJACSX135KLH72VPBNN","A1VFSNVFK883XU","335VBRURDJMQFRMOFGHOE9WKSHX9E1","","74","img/land2.png","76","75","3","0","3","2","0.8,0.2,0.2,0.2,0.8,0.2,0.2,0.2,0.8","0.2,0.8,0.2,0.2,0.2,0.8,0.8,0.2,0.2","3","",""
"","html-keyboard-response","227","69002","0.0-227.0","3JWH6J9I9TZFJACSX135KLH72VPBNN","A1VFSNVFK883XU","335VBRURDJMQFRMOFGHOE9WKSHX9E1","","null","<img src=""img/land2.png"" style=""width:200px;border:14px solid red;"">","null","","","","","","","","","",""
"","image-keyboard-response","228","69089","0.0-228.0","3JWH6J9I9TZFJACSX135KLH72VPBNN","A1VFSNVFK883XU","335VBRURDJMQFRMOFGHOE9WKSHX9E1","","86","img/land1.png","76","87","3","1","2","2","0.8,0.2,0.2,0.2,0.8,0.2,0.2,0.2,0.8","0.2,0.8,0.2,0.2,0.2,0.8,0.8,0.2,0.2","3","",""
"","html-keyboard-response","229","69392","0.0-229.0","3JWH6J9I9TZFJACSX135KLH72VPBNN","A1VFSNVFK883XU","335VBRURDJMQFRMOFGHOE9WKSHX9E1","","null","<img src=""img/land1.png"" style=""width:200px; border:14px solid green;"">","null","","","","","","","","","",""
"","image-keyboard-response","230","69489","0.0-230.0","3JWH6J9I9TZFJACSX135KLH72VPBNN","A1VFSNVFK883XU","335VBRURDJMQFRMOFGHOE9WKSHX9E1","","97","img/land1.png","76","97","3","1","2","2","0.8,0.2,0.2,0.2,0.8,0.2,0.2,0.2,0.8","0.2,0.8,0.2,0.2,0.2,0.8,0.8,0.2,0.2","3","",""
"","html-keyboard-response","231","69793","0.0-231.0","3JWH6J9I9TZFJACSX135KLH72VPBNN","A1VFSNVFK883XU","335VBRURDJMQFRMOFGHOE9WKSHX9E1","","null","<img src=""img/land1.png"" style=""width:200px; border:14px solid green;"">","null","","","","","","","","","",""
"","image-keyboard-response","232","69945","0.0-232.0","3JWH6J9I9TZFJACSX135KLH72VPBNN","A1VFSNVFK883XU","335VBRURDJMQFRMOFGHOE9WKSHX9E1","","150","img/land5.png","76","150","3","0","1","2","0.8,0.2,0.2,0.2,0.8,0.2,0.2,0.2,0.8","0.2,0.8,0.2,0.2,0.2,0.8,0.8,0.2,0.2","3","",""
"","html-keyboard-response","233","70260","0.0-233.0","3JWH6J9I9TZFJACSX135KLH72VPBNN","A1VFSNVFK883XU","335VBRURDJMQFRMOFGHOE9WKSHX9E1","","null","<img src=""img/land5.png"" style=""width:200px;border:14px solid red;"">","null","","","","","","","","","",""
"","image-keyboard-response","234","70291","0.0-234.0","3JWH6J9I9TZFJACSX135KLH72VPBNN","A1VFSNVFK883XU","335VBRURDJMQFRMOFGHOE9WKSHX9E1","","30","img/land2.png","75","30","2","0","3","2","0.8,0.2,0.2,0.2,0.8,0.2,0.2,0.2,0.8","0.2,0.8,0.2,0.2,0.2,0.8,0.8,0.2,0.2","3","",""
"","html-keyboard-response","235","70616","0.0-235.0","3JWH6J9I9TZFJACSX135KLH72VPBNN","A1VFSNVFK883XU","335VBRURDJMQFRMOFGHOE9WKSHX9E1","","null","<img src=""img/land2.png"" style=""width:200px;border:14px solid red;"">","null","","","","","","","","","",""
"","image-keyboard-response","236","70690","0.0-236.0","3JWH6J9I9TZFJACSX135KLH72VPBNN","A1VFSNVFK883XU","335VBRURDJMQFRMOFGHOE9WKSHX9E1","","73","img/land5.png","75","74","2","1","1","2","0.8,0.2,0.2,0.2,0.8,0.2,0.2,0.2,0.8","0.2,0.8,0.2,0.2,0.2,0.8,0.8,0.2,0.2","3","",""
"","html-keyboard-response","237","71003","0.0-237.0","3JWH6J9I9TZFJACSX135KLH72VPBNN","A1VFSNVFK883XU","335VBRURDJMQFRMOFGHOE9WKSHX9E1","","null","<img src=""img/land5.png"" style=""width:200px; border:14px solid green;"">","null","","","","","","","","","",""
"","image-keyboard-response","238","71043","0.0-238.0","3JWH6J9I9TZFJACSX135KLH72VPBNN","A1VFSNVFK883XU","335VBRURDJMQFRMOFGHOE9WKSHX9E1","","39","img/land5.png","76","39","3","0","1","2","0.8,0.2,0.2,0.2,0.8,0.2,0.2,0.2,0.8","0.2,0.8,0.2,0.2,0.2,0.8,0.8,0.2,0.2","3","",""
"","html-keyboard-response","239","71344","0.0-239.0","3JWH6J9I9TZFJACSX135KLH72VPBNN","A1VFSNVFK883XU","335VBRURDJMQFRMOFGHOE9WKSHX9E1","","null","<img src=""img/land5.png"" style=""width:200px;border:14px solid red;"">","null","","","","","","","","","",""
"","image-keyboard-response","240","71449","0.0-240.0","3JWH6J9I9TZFJACSX135KLH72VPBNN","A1VFSNVFK883XU","335VBRURDJMQFRMOFGHOE9WKSHX9E1","","104","img/land1.png","76","104","3","0","2","2","0.8,0.2,0.2,0.2,0.8,0.2,0.2,0.2,0.8","0.2,0.8,0.2,0.2,0.2,0.8,0.8,0.2,0.2","3","",""
"","html-keyboard-response","241","71764","0.0-241.0","3JWH6J9I9TZFJACSX135KLH72VPBNN","A1VFSNVFK883XU","335VBRURDJMQFRMOFGHOE9WKSHX9E1","","null","<img src=""img/land1.png"" style=""width:200px;border:14px solid red;"">","null","","","","","","","","","",""
"","image-keyboard-response","242","71850","0.0-242.0","3JWH6J9I9TZFJACSX135KLH72VPBNN","A1VFSNVFK883XU","335VBRURDJMQFRMOFGHOE9WKSHX9E1","","85","img/land5.png","76","85","3","0","1","2","0.8,0.2,0.2,0.2,0.8,0.2,0.2,0.2,0.8","0.2,0.8,0.2,0.2,0.2,0.8,0.8,0.2,0.2","3","",""
"","html-keyboard-response","243","72164","0.0-243.0","3JWH6J9I9TZFJACSX135KLH72VPBNN","A1VFSNVFK883XU","335VBRURDJMQFRMOFGHOE9WKSHX9E1","","null","<img src=""img/land5.png"" style=""width:200px;border:14px solid red;"">","null","","","","","","","","","",""
"","image-keyboard-response","244","72271","0.0-244.0","3JWH6J9I9TZFJACSX135KLH72VPBNN","A1VFSNVFK883XU","335VBRURDJMQFRMOFGHOE9WKSHX9E1","","103","img/land5.png","76","105","3","0","1","2","0.8,0.2,0.2,0.2,0.8,0.2,0.2,0.2,0.8","0.2,0.8,0.2,0.2,0.2,0.8,0.8,0.2,0.2","3","",""
"","html-keyboard-response","245","72585","0.0-245.0","3JWH6J9I9TZFJACSX135KLH72VPBNN","A1VFSNVFK883XU","335VBRURDJMQFRMOFGHOE9WKSHX9E1","","null","<img src=""img/land5.png"" style=""width:200px;border:14px solid red;"">","null","","","","","","","","","",""
"","image-keyboard-response","246","72640","0.0-246.0","3JWH6J9I9TZFJACSX135KLH72VPBNN","A1VFSNVFK883XU","335VBRURDJMQFRMOFGHOE9WKSHX9E1","","53","img/land5.png","74","54","1","0","1","2","0.8,0.2,0.2,0.2,0.8,0.2,0.2,0.2,0.8","0.2,0.8,0.2,0.2,0.2,0.8,0.8,0.2,0.2","3","",""
"","html-keyboard-response","247","72941","0.0-247.0","3JWH6J9I9TZFJACSX135KLH72VPBNN","A1VFSNVFK883XU","335VBRURDJMQFRMOFGHOE9WKSHX9E1","","null","<img src=""img/land5.png"" style=""width:200px;border:14px solid red;"">","null","","","","","","","","","",""
"","image-keyboard-response","248","72973","0.0-248.0","3JWH6J9I9TZFJACSX135KLH72VPBNN","A1VFSNVFK883XU","335VBRURDJMQFRMOFGHOE9WKSHX9E1","","29","img/land2.png","76","30","3","0","3","2","0.8,0.2,0.2,0.2,0.8,0.2,0.2,0.2,0.8","0.2,0.8,0.2,0.2,0.2,0.8,0.8,0.2,0.2","3","",""
"","html-keyboard-response","249","73282","0.0-249.0","3JWH6J9I9TZFJACSX135KLH72VPBNN","A1VFSNVFK883XU","335VBRURDJMQFRMOFGHOE9WKSHX9E1","","null","<img src=""img/land2.png"" style=""width:200px;border:14px solid red;"">","null","","","","","","","","","",""
"","image-keyboard-response","250","73390","0.0-250.0","3JWH6J9I9TZFJACSX135KLH72VPBNN","A1VFSNVFK883XU","335VBRURDJMQFRMOFGHOE9WKSHX9E1","","107","img/land5.png","76","107","3","1","1","2","0.8,0.2,0.2,0.2,0.8,0.2,0.2,0.2,0.8","0.2,0.8,0.2,0.2,0.2,0.8,0.8,0.2,0.2","3","",""
"","html-keyboard-response","251","73701","0.0-251.0","3JWH6J9I9TZFJACSX135KLH72VPBNN","A1VFSNVFK883XU","335VBRURDJMQFRMOFGHOE9WKSHX9E1","","null","<img src=""img/land5.png"" style=""width:200px; border:14px solid green;"">","null","","","","","","","","","",""
"","image-keyboard-response","252","73826","0.0-252.0","3JWH6J9I9TZFJACSX135KLH72VPBNN","A1VFSNVFK883XU","335VBRURDJMQFRMOFGHOE9WKSHX9E1","","124","img/land5.png","75","124","2","0","1","2","0.8,0.2,0.2,0.2,0.8,0.2,0.2,0.2,0.8","0.2,0.8,0.2,0.2,0.2,0.8,0.8,0.2,0.2","3","",""
"","html-keyboard-response","253","74138","0.0-253.0","3JWH6J9I9TZFJACSX135KLH72VPBNN","A1VFSNVFK883XU","335VBRURDJMQFRMOFGHOE9WKSHX9E1","","null","<img src=""img/land5.png"" style=""width:200px;border:14px solid red;"">","null","","","","","","","","","",""
"","image-keyboard-response","254","74184","0.0-254.0","3JWH6J9I9TZFJACSX135KLH72VPBNN","A1VFSNVFK883XU","335VBRURDJMQFRMOFGHOE9WKSHX9E1","","44","img/land5.png","76","45","3","0","1","2","0.8,0.2,0.2,0.2,0.8,0.2,0.2,0.2,0.8","0.2,0.8,0.2,0.2,0.2,0.8,0.8,0.2,0.2","3","",""
"","html-keyboard-response","255","74495","0.0-255.0","3JWH6J9I9TZFJACSX135KLH72VPBNN","A1VFSNVFK883XU","335VBRURDJMQFRMOFGHOE9WKSHX9E1","","null","<img src=""img/land5.png"" style=""width:200px;border:14px solid red;"">","null","","","","","","","","","",""
"","image-keyboard-response","256","74581","0.0-256.0","3JWH6J9I9TZFJACSX135KLH72VPBNN","A1VFSNVFK883XU","335VBRURDJMQFRMOFGHOE9WKSHX9E1","","86","img/land5.png","76","86","3","1","1","2","0.8,0.2,0.2,0.2,0.8,0.2,0.2,0.2,0.8","0.2,0.8,0.2,0.2,0.2,0.8,0.8,0.2,0.2","3","",""
"","html-keyboard-response","257","74896","0.0-257.0","3JWH6J9I9TZFJACSX135KLH72VPBNN","A1VFSNVFK883XU","335VBRURDJMQFRMOFGHOE9WKSHX9E1","","null","<img src=""img/land5.png"" style=""width:200px; border:14px solid green;"">","null","","","","","","","","","",""
"","image-keyboard-response","258","74940","0.0-258.0","3JWH6J9I9TZFJACSX135KLH72VPBNN","A1VFSNVFK883XU","335VBRURDJMQFRMOFGHOE9WKSHX9E1","","42","img/land1.png","74","42","1","0","2","2","0.8,0.2,0.2,0.2,0.8,0.2,0.2,0.2,0.8","0.2,0.8,0.2,0.2,0.2,0.8,0.8,0.2,0.2","3","",""
"","html-keyboard-response","259","75253","0.0-259.0","3JWH6J9I9TZFJACSX135KLH72VPBNN","A1VFSNVFK883XU","335VBRURDJMQFRMOFGHOE9WKSHX9E1","","null","<img src=""img/land1.png"" style=""width:200px;border:14px solid red;"">","null","","","","","","","","","",""
"","image-keyboard-response","260","75433","0.0-260.0","3JWH6J9I9TZFJACSX135KLH72VPBNN","A1VFSNVFK883XU","335VBRURDJMQFRMOFGHOE9WKSHX9E1","","178","img/land5.png","76","179","3","1","1","2","0.8,0.2,0.2,0.2,0.8,0.2,0.2,0.2,0.8","0.2,0.8,0.2,0.2,0.2,0.8,0.8,0.2,0.2","3","",""
"","html-keyboard-response","261","75734","0.0-261.0","3JWH6J9I9TZFJACSX135KLH72VPBNN","A1VFSNVFK883XU","335VBRURDJMQFRMOFGHOE9WKSHX9E1","","null","<img src=""img/land5.png"" style=""width:200px; border:14px solid green;"">","null","","","","","","","","","",""
"","image-keyboard-response","262","75798","0.0-262.0","3JWH6J9I9TZFJACSX135KLH72VPBNN","A1VFSNVFK883XU","335VBRURDJMQFRMOFGHOE9WKSHX9E1","","61","img/land1.png","75","62","2","0","2","2","0.8,0.2,0.2,0.2,0.8,0.2,0.2,0.2,0.8","0.2,0.8,0.2,0.2,0.2,0.8,0.8,0.2,0.2","3","",""
"","html-keyboard-response","263","76107","0.0-263.0","3JWH6J9I9TZFJACSX135KLH72VPBNN","A1VFSNVFK883XU","335VBRURDJMQFRMOFGHOE9WKSHX9E1","","null","<img src=""img/land1.png"" style=""width:200px;border:14px solid red;"">","null","","","","","","","","","",""
"","image-keyboard-response","264","76193","0.0-264.0","3JWH6J9I9TZFJACSX135KLH72VPBNN","A1VFSNVFK883XU","335VBRURDJMQFRMOFGHOE9WKSHX9E1","","85","img/land2.png","74","86","1","1","3","2","0.8,0.2,0.2,0.2,0.8,0.2,0.2,0.2,0.8","0.2,0.8,0.2,0.2,0.2,0.8,0.8,0.2,0.2","3","",""
"","html-keyboard-response","265","76495","0.0-265.0","3JWH6J9I9TZFJACSX135KLH72VPBNN","A1VFSNVFK883XU","335VBRURDJMQFRMOFGHOE9WKSHX9E1","","null","<img src=""img/land2.png"" style=""width:200px; border:14px solid green;"">","null","","","","","","","","","",""
"","image-keyboard-response","266","76633","0.0-266.0","3JWH6J9I9TZFJACSX135KLH72VPBNN","A1VFSNVFK883XU","335VBRURDJMQFRMOFGHOE9WKSHX9E1","","136","img/land1.png","76","137","3","1","2","2","0.8,0.2,0.2,0.2,0.8,0.2,0.2,0.2,0.8","0.2,0.8,0.2,0.2,0.2,0.8,0.8,0.2,0.2","3","",""
"","html-keyboard-response","267","76944","0.0-267.0","3JWH6J9I9TZFJACSX135KLH72VPBNN","A1VFSNVFK883XU","335VBRURDJMQFRMOFGHOE9WKSHX9E1","","null","<img src=""img/land1.png"" style=""width:200px; border:14px solid green;"">","null","","","","","","","","","",""
"","image-keyboard-response","268","77018","0.0-268.0","3JWH6J9I9TZFJACSX135KLH72VPBNN","A1VFSNVFK883XU","335VBRURDJMQFRMOFGHOE9WKSHX9E1","","73","img/land5.png","76","74","3","0","1","2","0.8,0.2,0.2,0.2,0.8,0.2,0.2,0.2,0.8","0.2,0.8,0.2,0.2,0.2,0.8,0.8,0.2,0.2","3","",""
"","html-keyboard-response","269","77333","0.0-269.0","3JWH6J9I9TZFJACSX135KLH72VPBNN","A1VFSNVFK883XU","335VBRURDJMQFRMOFGHOE9WKSHX9E1","","null","<img src=""img/land5.png"" style=""width:200px;border:14px solid red;"">","null","","","","","","","","","",""
"","image-keyboard-response","270","77367","0.0-270.0","3JWH6J9I9TZFJACSX135KLH72VPBNN","A1VFSNVFK883XU","335VBRURDJMQFRMOFGHOE9WKSHX9E1","","32","img/land2.png","75","34","2","0","3","2","0.8,0.2,0.2,0.2,0.8,0.2,0.2,0.2,0.8","0.2,0.8,0.2,0.2,0.2,0.8,0.8,0.2,0.2","3","",""
"","html-keyboard-response","271","77674","0.0-271.0","3JWH6J9I9TZFJACSX135KLH72VPBNN","A1VFSNVFK883XU","335VBRURDJMQFRMOFGHOE9WKSHX9E1","","null","<img src=""img/land2.png"" style=""width:200px;border:14px solid red;"">","null","","","","","","","","","",""
"","image-keyboard-response","272","77676","0.0-272.0","3JWH6J9I9TZFJACSX135KLH72VPBNN","A1VFSNVFK883XU","335VBRURDJMQFRMOFGHOE9WKSHX9E1","","1","img/land1.png","75","1","2","0","2","2","0.8,0.2,0.2,0.2,0.8,0.2,0.2,0.2,0.8","0.2,0.8,0.2,0.2,0.2,0.8,0.8,0.2,0.2","3","",""
"","html-keyboard-response","273","77983","0.0-273.0","3JWH6J9I9TZFJACSX135KLH72VPBNN","A1VFSNVFK883XU","335VBRURDJMQFRMOFGHOE9WKSHX9E1","","null","<img src=""img/land1.png"" style=""width:200px;border:14px solid red;"">","null","","","","","","","","","",""
"","image-keyboard-response","274","78062","0.0-274.0","3JWH6J9I9TZFJACSX135KLH72VPBNN","A1VFSNVFK883XU","335VBRURDJMQFRMOFGHOE9WKSHX9E1","","78","img/land5.png","74","79","1","0","1","2","0.8,0.2,0.2,0.2,0.8,0.2,0.2,0.2,0.8","0.2,0.8,0.2,0.2,0.2,0.8,0.8,0.2,0.2","3","",""
"","html-keyboard-response","275","78372","0.0-275.0","3JWH6J9I9TZFJACSX135KLH72VPBNN","A1VFSNVFK883XU","335VBRURDJMQFRMOFGHOE9WKSHX9E1","","null","<img src=""img/land5.png"" style=""width:200px;border:14px solid red;"">","null","","","","","","","","","",""
"","image-keyboard-response","276","78375","0.0-276.0","3JWH6J9I9TZFJACSX135KLH72VPBNN","A1VFSNVFK883XU","335VBRURDJMQFRMOFGHOE9WKSHX9E1","","1","img/land5.png","76","2","3","0","1","2","0.8,0.2,0.2,0.2,0.8,0.2,0.2,0.2,0.8","0.2,0.8,0.2,0.2,0.2,0.8,0.8,0.2,0.2","3","",""
"","html-keyboard-response","277","78679","0.0-277.0","3JWH6J9I9TZFJACSX135KLH72VPBNN","A1VFSNVFK883XU","335VBRURDJMQFRMOFGHOE9WKSHX9E1","","null","<img src=""img/land5.png"" style=""width:200px;border:14px solid red;"">","null","","","","","","","","","",""
"","image-keyboard-response","278","78711","0.0-278.0","3JWH6J9I9TZFJACSX135KLH72VPBNN","A1VFSNVFK883XU","335VBRURDJMQFRMOFGHOE9WKSHX9E1","","31","img/land5.png","74","31","1","1","1","2","0.8,0.2,0.2,0.2,0.8,0.2,0.2,0.2,0.8","0.2,0.8,0.2,0.2,0.2,0.8,0.8,0.2,0.2","3","",""
"","html-keyboard-response","279","79021","0.0-279.0","3JWH6J9I9TZFJACSX135KLH72VPBNN","A1VFSNVFK883XU","335VBRURDJMQFRMOFGHOE9WKSHX9E1","","null","<img src=""img/land5.png"" style=""width:200px; border:14px solid green;"">","null","","","","","","","","","",""
"","image-keyboard-response","280","79116","0.0-280.0","3JWH6J9I9TZFJACSX135KLH72VPBNN","A1VFSNVFK883XU","335VBRURDJMQFRMOFGHOE9WKSHX9E1","","95","img/land1.png","76","95","3","1","2","2","0.8,0.2,0.2,0.2,0.8,0.2,0.2,0.2,0.8","0.2,0.8,0.2,0.2,0.2,0.8,0.8,0.2,0.2","3","",""
"","html-keyboard-response","281","79422","0.0-281.0","3JWH6J9I9TZFJACSX135KLH72VPBNN","A1VFSNVFK883XU","335VBRURDJMQFRMOFGHOE9WKSHX9E1","","null","<img src=""img/land1.png"" style=""width:200px; border:14px solid green;"">","null","","","","","","","","","",""
"","image-keyboard-response","282","79498","0.0-282.0","3JWH6J9I9TZFJACSX135KLH72VPBNN","A1VFSNVFK883XU","335VBRURDJMQFRMOFGHOE9WKSHX9E1","","74","img/land5.png","76","75","3","0","1","2","0.8,0.2,0.2,0.2,0.8,0.2,0.2,0.2,0.8","0.2,0.8,0.2,0.2,0.2,0.8,0.8,0.2,0.2","3","",""
"","html-keyboard-response","283","79811","0.0-283.0","3JWH6J9I9TZFJACSX135KLH72VPBNN","A1VFSNVFK883XU","335VBRURDJMQFRMOFGHOE9WKSHX9E1","","null","<img src=""img/land5.png"" style=""width:200px;border:14px solid red;"">","null","","","","","","","","","",""
"","image-keyboard-response","284","79901","0.0-284.0","3JWH6J9I9TZFJACSX135KLH72VPBNN","A1VFSNVFK883XU","335VBRURDJMQFRMOFGHOE9WKSHX9E1","","89","img/land2.png","76","91","3","0","3","2","0.8,0.2,0.2,0.2,0.8,0.2,0.2,0.2,0.8","0.2,0.8,0.2,0.2,0.2,0.8,0.8,0.2,0.2","3","",""
"","html-keyboard-response","285","80214","0.0-285.0","3JWH6J9I9TZFJACSX135KLH72VPBNN","A1VFSNVFK883XU","335VBRURDJMQFRMOFGHOE9WKSHX9E1","","null","<img src=""img/land2.png"" style=""width:200px;border:14px solid red;"">","null","","","","","","","","","",""
"","image-keyboard-response","286","80317","0.0-286.0","3JWH6J9I9TZFJACSX135KLH72VPBNN","A1VFSNVFK883XU","335VBRURDJMQFRMOFGHOE9WKSHX9E1","","100","img/land5.png","76","101","3","0","1","2","0.8,0.2,0.2,0.2,0.8,0.2,0.2,0.2,0.8","0.2,0.8,0.2,0.2,0.2,0.8,0.8,0.2,0.2","3","",""
"","html-keyboard-response","287","80635","0.0-287.0","3JWH6J9I9TZFJACSX135KLH72VPBNN","A1VFSNVFK883XU","335VBRURDJMQFRMOFGHOE9WKSHX9E1","","null","<img src=""img/land5.png"" style=""width:200px;border:14px solid red;"">","null","","","","","","","","","",""
"","image-keyboard-response","288","80743","0.0-288.0","3JWH6J9I9TZFJACSX135KLH72VPBNN","A1VFSNVFK883XU","335VBRURDJMQFRMOFGHOE9WKSHX9E1","","106","img/land2.png","76","107","3","0","3","2","0.8,0.2,0.2,0.2,0.8,0.2,0.2,0.2,0.8","0.2,0.8,0.2,0.2,0.2,0.8,0.8,0.2,0.2","3","",""
"","html-keyboard-response","289","81051","0.0-289.0","3JWH6J9I9TZFJACSX135KLH72VPBNN","A1VFSNVFK883XU","335VBRURDJMQFRMOFGHOE9WKSHX9E1","","null","<img src=""img/land2.png"" style=""width:200px;border:14px solid red;"">","null","","","","","","","","","",""
"","image-keyboard-response","290","81128","0.0-290.0","3JWH6J9I9TZFJACSX135KLH72VPBNN","A1VFSNVFK883XU","335VBRURDJMQFRMOFGHOE9WKSHX9E1","","76","img/land5.png","75","77","2","1","1","2","0.8,0.2,0.2,0.2,0.8,0.2,0.2,0.2,0.8","0.2,0.8,0.2,0.2,0.2,0.8,0.8,0.2,0.2","3","",""
"","html-keyboard-response","291","81438","0.0-291.0","3JWH6J9I9TZFJACSX135KLH72VPBNN","A1VFSNVFK883XU","335VBRURDJMQFRMOFGHOE9WKSHX9E1","","null","<img src=""img/land5.png"" style=""width:200px; border:14px solid green;"">","null","","","","","","","","","",""
"","image-keyboard-response","292","81528","0.0-292.0","3JWH6J9I9TZFJACSX135KLH72VPBNN","A1VFSNVFK883XU","335VBRURDJMQFRMOFGHOE9WKSHX9E1","","89","img/land5.png","76","90","3","0","1","2","0.8,0.2,0.2,0.2,0.8,0.2,0.2,0.2,0.8","0.2,0.8,0.2,0.2,0.2,0.8,0.8,0.2,0.2","3","",""
"","html-keyboard-response","293","81842","0.0-293.0","3JWH6J9I9TZFJACSX135KLH72VPBNN","A1VFSNVFK883XU","335VBRURDJMQFRMOFGHOE9WKSHX9E1","","null","<img src=""img/land5.png"" style=""width:200px;border:14px solid red;"">","null","","","","","","","","","",""
"","image-keyboard-response","294","81879","0.0-294.0","3JWH6J9I9TZFJACSX135KLH72VPBNN","A1VFSNVFK883XU","335VBRURDJMQFRMOFGHOE9WKSHX9E1","","36","img/land5.png","74","38","1","0","1","2","0.8,0.2,0.2,0.2,0.8,0.2,0.2,0.2,0.8","0.2,0.8,0.2,0.2,0.2,0.8,0.8,0.2,0.2","3","",""
"","html-keyboard-response","295","82185","0.0-295.0","3JWH6J9I9TZFJACSX135KLH72VPBNN","A1VFSNVFK883XU","335VBRURDJMQFRMOFGHOE9WKSHX9E1","","null","<img src=""img/land5.png"" style=""width:200px;border:14px solid red;"">","null","","","","","","","","","",""
"","image-keyboard-response","296","82245","0.0-296.0","3JWH6J9I9TZFJACSX135KLH72VPBNN","A1VFSNVFK883XU","335VBRURDJMQFRMOFGHOE9WKSHX9E1","","60","img/land1.png","75","60","2","0","2","2","0.8,0.2,0.2,0.2,0.8,0.2,0.2,0.2,0.8","0.2,0.8,0.2,0.2,0.2,0.8,0.8,0.2,0.2","3","",""
"","html-keyboard-response","297","82560","0.0-297.0","3JWH6J9I9TZFJACSX135KLH72VPBNN","A1VFSNVFK883XU","335VBRURDJMQFRMOFGHOE9WKSHX9E1","","null","<img src=""img/land1.png"" style=""width:200px;border:14px solid red;"">","null","","","","","","","","","",""
"","image-keyboard-response","298","82585","0.0-298.0","3JWH6J9I9TZFJACSX135KLH72VPBNN","A1VFSNVFK883XU","335VBRURDJMQFRMOFGHOE9WKSHX9E1","","23","img/land2.png","74","25","1","1","3","2","0.8,0.2,0.2,0.2,0.8,0.2,0.2,0.2,0.8","0.2,0.8,0.2,0.2,0.2,0.8,0.8,0.2,0.2","3","",""
"","html-keyboard-response","299","82889","0.0-299.0","3JWH6J9I9TZFJACSX135KLH72VPBNN","A1VFSNVFK883XU","335VBRURDJMQFRMOFGHOE9WKSHX9E1","","null","<img src=""img/land2.png"" style=""width:200px; border:14px solid green;"">","null","","","","","","","","","",""
"","image-keyboard-response","300","83013","0.0-300.0","3JWH6J9I9TZFJACSX135KLH72VPBNN","A1VFSNVFK883XU","335VBRURDJMQFRMOFGHOE9WKSHX9E1","","123","img/land1.png","74","124","1","0","2","2","0.8,0.2,0.2,0.2,0.8,0.2,0.2,0.2,0.8","0.2,0.8,0.2,0.2,0.2,0.8,0.8,0.2,0.2","3","",""
"","html-keyboard-response","301","83323","0.0-301.0","3JWH6J9I9TZFJACSX135KLH72VPBNN","A1VFSNVFK883XU","335VBRURDJMQFRMOFGHOE9WKSHX9E1","","null","<img src=""img/land1.png"" style=""width:200px;border:14px solid red;"">","null","","","","","","","","","",""
"","image-keyboard-response","302","83477","0.0-302.0","3JWH6J9I9TZFJACSX135KLH72VPBNN","A1VFSNVFK883XU","335VBRURDJMQFRMOFGHOE9WKSHX9E1","","153","img/land6.png","75","155","2","0","3","1","0.8,0.2,0.2,0.2,0.8,0.2,0.2,0.2,0.8","0.8,0.2,0.2,0.2,0.8,0.2,0.2,0.2,0.8","1","",""
"","html-keyboard-response","303","83792","0.0-303.0","3JWH6J9I9TZFJACSX135KLH72VPBNN","A1VFSNVFK883XU","335VBRURDJMQFRMOFGHOE9WKSHX9E1","","null","<img src=""img/land6.png"" style=""width:200px;border:14px solid red;"">","null","","","","","","","","","",""
"","image-keyboard-response","304","83864","0.0-304.0","3JWH6J9I9TZFJACSX135KLH72VPBNN","A1VFSNVFK883XU","335VBRURDJMQFRMOFGHOE9WKSHX9E1","","72","img/land4.png","76","72","3","0","2","1","0.8,0.2,0.2,0.2,0.8,0.2,0.2,0.2,0.8","0.8,0.2,0.2,0.2,0.8,0.2,0.2,0.2,0.8","1","",""
"","html-keyboard-response","305","84165","0.0-305.0","3JWH6J9I9TZFJACSX135KLH72VPBNN","A1VFSNVFK883XU","335VBRURDJMQFRMOFGHOE9WKSHX9E1","","null","<img src=""img/land4.png"" style=""width:200px;border:14px solid red;"">","null","","","","","","","","","",""
"","image-keyboard-response","306","84245","0.0-306.0","3JWH6J9I9TZFJACSX135KLH72VPBNN","A1VFSNVFK883XU","335VBRURDJMQFRMOFGHOE9WKSHX9E1","","79","img/land3.png","75","79","2","0","1","1","0.8,0.2,0.2,0.2,0.8,0.2,0.2,0.2,0.8","0.8,0.2,0.2,0.2,0.8,0.2,0.2,0.2,0.8","1","",""
"","html-keyboard-response","307","84552","0.0-307.0","3JWH6J9I9TZFJACSX135KLH72VPBNN","A1VFSNVFK883XU","335VBRURDJMQFRMOFGHOE9WKSHX9E1","","null","<img src=""img/land3.png"" style=""width:200px;border:14px solid red;"">","null","","","","","","","","","",""
"","image-keyboard-response","308","84623","0.0-308.0","3JWH6J9I9TZFJACSX135KLH72VPBNN","A1VFSNVFK883XU","335VBRURDJMQFRMOFGHOE9WKSHX9E1","","70","img/land4.png","75","70","2","1","2","1","0.8,0.2,0.2,0.2,0.8,0.2,0.2,0.2,0.8","0.8,0.2,0.2,0.2,0.8,0.2,0.2,0.2,0.8","1","",""
"","html-keyboard-response","309","84923","0.0-309.0","3JWH6J9I9TZFJACSX135KLH72VPBNN","A1VFSNVFK883XU","335VBRURDJMQFRMOFGHOE9WKSHX9E1","","null","<img src=""img/land4.png"" style=""width:200px; border:14px solid green;"">","null","","","","","","","","","",""
"","image-keyboard-response","310","84982","0.0-310.0","3JWH6J9I9TZFJACSX135KLH72VPBNN","A1VFSNVFK883XU","335VBRURDJMQFRMOFGHOE9WKSHX9E1","","58","img/land3.png","76","58","3","0","1","1","0.8,0.2,0.2,0.2,0.8,0.2,0.2,0.2,0.8","0.8,0.2,0.2,0.2,0.8,0.2,0.2,0.2,0.8","1","",""
"","html-keyboard-response","311","85296","0.0-311.0","3JWH6J9I9TZFJACSX135KLH72VPBNN","A1VFSNVFK883XU","335VBRURDJMQFRMOFGHOE9WKSHX9E1","","null","<img src=""img/land3.png"" style=""width:200px;border:14px solid red;"">","null","","","","","","","","","",""
"","image-keyboard-response","312","85420","0.0-312.0","3JWH6J9I9TZFJACSX135KLH72VPBNN","A1VFSNVFK883XU","335VBRURDJMQFRMOFGHOE9WKSHX9E1","","122","img/land4.png","76","124","3","1","2","1","0.8,0.2,0.2,0.2,0.8,0.2,0.2,0.2,0.8","0.8,0.2,0.2,0.2,0.8,0.2,0.2,0.2,0.8","1","",""
"","html-keyboard-response","313","85727","0.0-313.0","3JWH6J9I9TZFJACSX135KLH72VPBNN","A1VFSNVFK883XU","335VBRURDJMQFRMOFGHOE9WKSHX9E1","","null","<img src=""img/land4.png"" style=""width:200px; border:14px solid green;"">","null","","","","","","","","","",""
"","image-keyboard-response","314","85838","0.0-314.0","3JWH6J9I9TZFJACSX135KLH72VPBNN","A1VFSNVFK883XU","335VBRURDJMQFRMOFGHOE9WKSHX9E1","","108","img/land4.png","76","110","3","0","2","1","0.8,0.2,0.2,0.2,0.8,0.2,0.2,0.2,0.8","0.8,0.2,0.2,0.2,0.8,0.2,0.2,0.2,0.8","1","",""
"","html-keyboard-response","315","86149","0.0-315.0","3JWH6J9I9TZFJACSX135KLH72VPBNN","A1VFSNVFK883XU","335VBRURDJMQFRMOFGHOE9WKSHX9E1","","null","<img src=""img/land4.png"" style=""width:200px;border:14px solid red;"">","null","","","","","","","","","",""
"","image-keyboard-response","316","86284","0.0-316.0","3JWH6J9I9TZFJACSX135KLH72VPBNN","A1VFSNVFK883XU","335VBRURDJMQFRMOFGHOE9WKSHX9E1","","133","img/land4.png","76","135","3","0","2","1","0.8,0.2,0.2,0.2,0.8,0.2,0.2,0.2,0.8","0.8,0.2,0.2,0.2,0.8,0.2,0.2,0.2,0.8","1","",""
"","html-keyboard-response","317","86586","0.0-317.0","3JWH6J9I9TZFJACSX135KLH72VPBNN","A1VFSNVFK883XU","335VBRURDJMQFRMOFGHOE9WKSHX9E1","","null","<img src=""img/land4.png"" style=""width:200px;border:14px solid red;"">","null","","","","","","","","","",""
"","image-keyboard-response","318","86688","0.0-318.0","3JWH6J9I9TZFJACSX135KLH72VPBNN","A1VFSNVFK883XU","335VBRURDJMQFRMOFGHOE9WKSHX9E1","","101","img/land4.png","76","102","3","0","2","1","0.8,0.2,0.2,0.2,0.8,0.2,0.2,0.2,0.8","0.8,0.2,0.2,0.2,0.8,0.2,0.2,0.2,0.8","1","",""
"","html-keyboard-response","319","86990","0.0-319.0","3JWH6J9I9TZFJACSX135KLH72VPBNN","A1VFSNVFK883XU","335VBRURDJMQFRMOFGHOE9WKSHX9E1","","null","<img src=""img/land4.png"" style=""width:200px;border:14px solid red;"">","null","","","","","","","","","",""
"","image-keyboard-response","320","87111","0.0-320.0","3JWH6J9I9TZFJACSX135KLH72VPBNN","A1VFSNVFK883XU","335VBRURDJMQFRMOFGHOE9WKSHX9E1","","119","img/land6.png","76","120","3","0","3","1","0.8,0.2,0.2,0.2,0.8,0.2,0.2,0.2,0.8","0.8,0.2,0.2,0.2,0.8,0.2,0.2,0.2,0.8","1","",""
"","html-keyboard-response","321","87421","0.0-321.0","3JWH6J9I9TZFJACSX135KLH72VPBNN","A1VFSNVFK883XU","335VBRURDJMQFRMOFGHOE9WKSHX9E1","","null","<img src=""img/land6.png"" style=""width:200px;border:14px solid red;"">","null","","","","","","","","","",""
"","image-keyboard-response","322","87536","0.0-322.0","3JWH6J9I9TZFJACSX135KLH72VPBNN","A1VFSNVFK883XU","335VBRURDJMQFRMOFGHOE9WKSHX9E1","","115","img/land6.png","75","115","2","0","3","1","0.8,0.2,0.2,0.2,0.8,0.2,0.2,0.2,0.8","0.8,0.2,0.2,0.2,0.8,0.2,0.2,0.2,0.8","1","",""
"","html-keyboard-response","323","87839","0.0-323.0","3JWH6J9I9TZFJACSX135KLH72VPBNN","A1VFSNVFK883XU","335VBRURDJMQFRMOFGHOE9WKSHX9E1","","null","<img src=""img/land6.png"" style=""width:200px;border:14px solid red;"">","null","","","","","","","","","",""
"","image-keyboard-response","324","87998","0.0-324.0","3JWH6J9I9TZFJACSX135KLH72VPBNN","A1VFSNVFK883XU","335VBRURDJMQFRMOFGHOE9WKSHX9E1","","157","img/land3.png","76","159","3","1","1","1","0.8,0.2,0.2,0.2,0.8,0.2,0.2,0.2,0.8","0.8,0.2,0.2,0.2,0.8,0.2,0.2,0.2,0.8","1","",""
"","html-keyboard-response","325","88308","0.0-325.0","3JWH6J9I9TZFJACSX135KLH72VPBNN","A1VFSNVFK883XU","335VBRURDJMQFRMOFGHOE9WKSHX9E1","","null","<img src=""img/land3.png"" style=""width:200px; border:14px solid green;"">","null","","","","","","","","","",""
"","image-keyboard-response","326","88376","0.0-326.0","3JWH6J9I9TZFJACSX135KLH72VPBNN","A1VFSNVFK883XU","335VBRURDJMQFRMOFGHOE9WKSHX9E1","","68","img/land4.png","76","69","3","1","2","1","0.8,0.2,0.2,0.2,0.8,0.2,0.2,0.2,0.8","0.8,0.2,0.2,0.2,0.8,0.2,0.2,0.2,0.8","1","",""
"","html-keyboard-response","327","88679","0.0-327.0","3JWH6J9I9TZFJACSX135KLH72VPBNN","A1VFSNVFK883XU","335VBRURDJMQFRMOFGHOE9WKSHX9E1","","null","<img src=""img/land4.png"" style=""width:200px; border:14px solid green;"">","null","","","","","","","","","",""
"","image-keyboard-response","328","88793","0.0-328.0","3JWH6J9I9TZFJACSX135KLH72VPBNN","A1VFSNVFK883XU","335VBRURDJMQFRMOFGHOE9WKSHX9E1","","113","img/land3.png","75","114","2","0","1","1","0.8,0.2,0.2,0.2,0.8,0.2,0.2,0.2,0.8","0.8,0.2,0.2,0.2,0.8,0.2,0.2,0.2,0.8","1","",""
"","html-keyboard-response","329","89098","0.0-329.0","3JWH6J9I9TZFJACSX135KLH72VPBNN","A1VFSNVFK883XU","335VBRURDJMQFRMOFGHOE9WKSHX9E1","","null","<img src=""img/land3.png"" style=""width:200px;border:14px solid red;"">","null","","","","","","","","","",""
"","image-keyboard-response","330","89213","0.0-330.0","3JWH6J9I9TZFJACSX135KLH72VPBNN","A1VFSNVFK883XU","335VBRURDJMQFRMOFGHOE9WKSHX9E1","","113","img/land4.png","75","116","2","1","2","1","0.8,0.2,0.2,0.2,0.8,0.2,0.2,0.2,0.8","0.8,0.2,0.2,0.2,0.8,0.2,0.2,0.2,0.8","1","",""
"","html-keyboard-response","331","89517","0.0-331.0","3JWH6J9I9TZFJACSX135KLH72VPBNN","A1VFSNVFK883XU","335VBRURDJMQFRMOFGHOE9WKSHX9E1","","null","<img src=""img/land4.png"" style=""width:200px; border:14px solid green;"">","null","","","","","","","","","",""
"","image-keyboard-response","332","89645","0.0-332.0","3JWH6J9I9TZFJACSX135KLH72VPBNN","A1VFSNVFK883XU","335VBRURDJMQFRMOFGHOE9WKSHX9E1","","127","img/land3.png","76","128","3","1","1","1","0.8,0.2,0.2,0.2,0.8,0.2,0.2,0.2,0.8","0.8,0.2,0.2,0.2,0.8,0.2,0.2,0.2,0.8","1","",""
"","html-keyboard-response","333","89952","0.0-333.0","3JWH6J9I9TZFJACSX135KLH72VPBNN","A1VFSNVFK883XU","335VBRURDJMQFRMOFGHOE9WKSHX9E1","","null","<img src=""img/land3.png"" style=""width:200px; border:14px solid green;"">","null","","","","","","","","","",""
"","image-keyboard-response","334","90035","0.0-334.0","3JWH6J9I9TZFJACSX135KLH72VPBNN","A1VFSNVFK883XU","335VBRURDJMQFRMOFGHOE9WKSHX9E1","","83","img/land3.png","75","83","2","1","1","1","0.8,0.2,0.2,0.2,0.8,0.2,0.2,0.2,0.8","0.8,0.2,0.2,0.2,0.8,0.2,0.2,0.2,0.8","1","",""
"","html-keyboard-response","335","90341","0.0-335.0","3JWH6J9I9TZFJACSX135KLH72VPBNN","A1VFSNVFK883XU","335VBRURDJMQFRMOFGHOE9WKSHX9E1","","null","<img src=""img/land3.png"" style=""width:200px; border:14px solid green;"">","null","","","","","","","","","",""
"","image-keyboard-response","336","90407","0.0-336.0","3JWH6J9I9TZFJACSX135KLH72VPBNN","A1VFSNVFK883XU","335VBRURDJMQFRMOFGHOE9WKSHX9E1","","65","img/land6.png","74","66","1","1","3","1","0.8,0.2,0.2,0.2,0.8,0.2,0.2,0.2,0.8","0.8,0.2,0.2,0.2,0.8,0.2,0.2,0.2,0.8","1","",""
"","html-keyboard-response","337","90728","0.0-337.0","3JWH6J9I9TZFJACSX135KLH72VPBNN","A1VFSNVFK883XU","335VBRURDJMQFRMOFGHOE9WKSHX9E1","","null","<img src=""img/land6.png"" style=""width:200px; border:14px solid green;"">","null","","","","","","","","","",""
"","image-keyboard-response","338","90878","0.0-338.0","3JWH6J9I9TZFJACSX135KLH72VPBNN","A1VFSNVFK883XU","335VBRURDJMQFRMOFGHOE9WKSHX9E1","","149","img/land6.png","76","150","3","1","3","1","0.8,0.2,0.2,0.2,0.8,0.2,0.2,0.2,0.8","0.8,0.2,0.2,0.2,0.8,0.2,0.2,0.2,0.8","1","",""
"","html-keyboard-response","339","91179","0.0-339.0","3JWH6J9I9TZFJACSX135KLH72VPBNN","A1VFSNVFK883XU","335VBRURDJMQFRMOFGHOE9WKSHX9E1","","null","<img src=""img/land6.png"" style=""width:200px; border:14px solid green;"">","null","","","","","","","","","",""
"","image-keyboard-response","340","91224","0.0-340.0","3JWH6J9I9TZFJACSX135KLH72VPBNN","A1VFSNVFK883XU","335VBRURDJMQFRMOFGHOE9WKSHX9E1","","43","img/land3.png","74","45","1","1","1","1","0.8,0.2,0.2,0.2,0.8,0.2,0.2,0.2,0.8","0.8,0.2,0.2,0.2,0.8,0.2,0.2,0.2,0.8","1","",""
"","html-keyboard-response","341","91536","0.0-341.0","3JWH6J9I9TZFJACSX135KLH72VPBNN","A1VFSNVFK883XU","335VBRURDJMQFRMOFGHOE9WKSHX9E1","","null","<img src=""img/land3.png"" style=""width:200px; border:14px solid green;"">","null","","","","","","","","","",""
"","image-keyboard-response","342","91668","0.0-342.0","3JWH6J9I9TZFJACSX135KLH72VPBNN","A1VFSNVFK883XU","335VBRURDJMQFRMOFGHOE9WKSHX9E1","","131","img/land4.png","76","133","3","0","2","1","0.8,0.2,0.2,0.2,0.8,0.2,0.2,0.2,0.8","0.8,0.2,0.2,0.2,0.8,0.2,0.2,0.2,0.8","1","",""
"","html-keyboard-response","343","91970","0.0-343.0","3JWH6J9I9TZFJACSX135KLH72VPBNN","A1VFSNVFK883XU","335VBRURDJMQFRMOFGHOE9WKSHX9E1","","null","<img src=""img/land4.png"" style=""width:200px;border:14px solid red;"">","null","","","","","","","","","",""
"","image-keyboard-response","344","92047","0.0-344.0","3JWH6J9I9TZFJACSX135KLH72VPBNN","A1VFSNVFK883XU","335VBRURDJMQFRMOFGHOE9WKSHX9E1","","76","img/land3.png","74","77","1","0","1","1","0.8,0.2,0.2,0.2,0.8,0.2,0.2,0.2,0.8","0.8,0.2,0.2,0.2,0.8,0.2,0.2,0.2,0.8","1","",""
"","html-keyboard-response","345","92359","0.0-345.0","3JWH6J9I9TZFJACSX135KLH72VPBNN","A1VFSNVFK883XU","335VBRURDJMQFRMOFGHOE9WKSHX9E1","","null","<img src=""img/land3.png"" style=""width:200px;border:14px solid red;"">","null","","","","","","","","","",""
"","image-keyboard-response","346","92451","0.0-346.0","3JWH6J9I9TZFJACSX135KLH72VPBNN","A1VFSNVFK883XU","335VBRURDJMQFRMOFGHOE9WKSHX9E1","","91","img/land6.png","74","92","1","0","3","1","0.8,0.2,0.2,0.2,0.8,0.2,0.2,0.2,0.8","0.8,0.2,0.2,0.2,0.8,0.2,0.2,0.2,0.8","1","",""
"","html-keyboard-response","347","92762","0.0-347.0","3JWH6J9I9TZFJACSX135KLH72VPBNN","A1VFSNVFK883XU","335VBRURDJMQFRMOFGHOE9WKSHX9E1","","null","<img src=""img/land6.png"" style=""width:200px;border:14px solid red;"">","null","","","","","","","","","",""
"","image-keyboard-response","348","92789","0.0-348.0","3JWH6J9I9TZFJACSX135KLH72VPBNN","A1VFSNVFK883XU","335VBRURDJMQFRMOFGHOE9WKSHX9E1","","26","img/land6.png","76","27","3","1","3","1","0.8,0.2,0.2,0.2,0.8,0.2,0.2,0.2,0.8","0.8,0.2,0.2,0.2,0.8,0.2,0.2,0.2,0.8","1","",""
"","html-keyboard-response","349","93104","0.0-349.0","3JWH6J9I9TZFJACSX135KLH72VPBNN","A1VFSNVFK883XU","335VBRURDJMQFRMOFGHOE9WKSHX9E1","","null","<img src=""img/land6.png"" style=""width:200px; border:14px solid green;"">","null","","","","","","","","","",""
"","image-keyboard-response","350","93154","0.0-350.0","3JWH6J9I9TZFJACSX135KLH72VPBNN","A1VFSNVFK883XU","335VBRURDJMQFRMOFGHOE9WKSHX9E1","","50","img/land4.png","74","50","1","0","2","1","0.8,0.2,0.2,0.2,0.8,0.2,0.2,0.2,0.8","0.8,0.2,0.2,0.2,0.8,0.2,0.2,0.2,0.8","1","",""
"","html-keyboard-response","351","93459","0.0-351.0","3JWH6J9I9TZFJACSX135KLH72VPBNN","A1VFSNVFK883XU","335VBRURDJMQFRMOFGHOE9WKSHX9E1","","null","<img src=""img/land4.png"" style=""width:200px;border:14px solid red;"">","null","","","","","","","","","",""
"","image-keyboard-response","352","93495","0.0-352.0","3JWH6J9I9TZFJACSX135KLH72VPBNN","A1VFSNVFK883XU","335VBRURDJMQFRMOFGHOE9WKSHX9E1","","35","img/land4.png","74","35","1","0","2","1","0.8,0.2,0.2,0.2,0.8,0.2,0.2,0.2,0.8","0.8,0.2,0.2,0.2,0.8,0.2,0.2,0.2,0.8","1","",""
"","html-keyboard-response","353","93799","0.0-353.0","3JWH6J9I9TZFJACSX135KLH72VPBNN","A1VFSNVFK883XU","335VBRURDJMQFRMOFGHOE9WKSHX9E1","","null","<img src=""img/land4.png"" style=""width:200px;border:14px solid red;"">","null","","","","","","","","","",""
"","image-keyboard-response","354","93817","0.0-354.0","3JWH6J9I9TZFJACSX135KLH72VPBNN","A1VFSNVFK883XU","335VBRURDJMQFRMOFGHOE9WKSHX9E1","","17","img/land3.png","74","17","1","1","1","1","0.8,0.2,0.2,0.2,0.8,0.2,0.2,0.2,0.8","0.8,0.2,0.2,0.2,0.8,0.2,0.2,0.2,0.8","1","",""
"","html-keyboard-response","355","94126","0.0-355.0","3JWH6J9I9TZFJACSX135KLH72VPBNN","A1VFSNVFK883XU","335VBRURDJMQFRMOFGHOE9WKSHX9E1","","null","<img src=""img/land3.png"" style=""width:200px; border:14px solid green;"">","null","","","","","","","","","",""
"","image-keyboard-response","356","94143","0.0-356.0","3JWH6J9I9TZFJACSX135KLH72VPBNN","A1VFSNVFK883XU","335VBRURDJMQFRMOFGHOE9WKSHX9E1","","15","img/land6.png","74","17","1","0","3","1","0.8,0.2,0.2,0.2,0.8,0.2,0.2,0.2,0.8","0.8,0.2,0.2,0.2,0.8,0.2,0.2,0.2,0.8","1","",""
"","html-keyboard-response","357","94449","0.0-357.0","3JWH6J9I9TZFJACSX135KLH72VPBNN","A1VFSNVFK883XU","335VBRURDJMQFRMOFGHOE9WKSHX9E1","","null","<img src=""img/land6.png"" style=""width:200px;border:14px solid red;"">","null","","","","","","","","","",""
"","image-keyboard-response","358","94567","0.0-358.0","3JWH6J9I9TZFJACSX135KLH72VPBNN","A1VFSNVFK883XU","335VBRURDJMQFRMOFGHOE9WKSHX9E1","","117","img/land6.png","76","117","3","1","3","1","0.8,0.2,0.2,0.2,0.8,0.2,0.2,0.2,0.8","0.8,0.2,0.2,0.2,0.8,0.2,0.2,0.2,0.8","1","",""
"","html-keyboard-response","359","94882","0.0-359.0","3JWH6J9I9TZFJACSX135KLH72VPBNN","A1VFSNVFK883XU","335VBRURDJMQFRMOFGHOE9WKSHX9E1","","null","<img src=""img/land6.png"" style=""width:200px; border:14px solid green;"">","null","","","","","","","","","",""
"","image-keyboard-response","360","94900","0.0-360.0","3JWH6J9I9TZFJACSX135KLH72VPBNN","A1VFSNVFK883XU","335VBRURDJMQFRMOFGHOE9WKSHX9E1","","15","img/land4.png","76","17","3","0","2","1","0.8,0.2,0.2,0.2,0.8,0.2,0.2,0.2,0.8","0.8,0.2,0.2,0.2,0.8,0.2,0.2,0.2,0.8","1","",""
"","html-keyboard-response","361","95210","0.0-361.0","3JWH6J9I9TZFJACSX135KLH72VPBNN","A1VFSNVFK883XU","335VBRURDJMQFRMOFGHOE9WKSHX9E1","","null","<img src=""img/land4.png"" style=""width:200px;border:14px solid red;"">","null","","","","","","","","","",""
"","image-keyboard-response","362","95308","0.0-362.0","3JWH6J9I9TZFJACSX135KLH72VPBNN","A1VFSNVFK883XU","335VBRURDJMQFRMOFGHOE9WKSHX9E1","","97","img/land6.png","76","98","3","1","3","1","0.8,0.2,0.2,0.2,0.8,0.2,0.2,0.2,0.8","0.8,0.2,0.2,0.2,0.8,0.2,0.2,0.2,0.8","1","",""
"","html-keyboard-response","363","95611","0.0-363.0","3JWH6J9I9TZFJACSX135KLH72VPBNN","A1VFSNVFK883XU","335VBRURDJMQFRMOFGHOE9WKSHX9E1","","null","<img src=""img/land6.png"" style=""width:200px; border:14px solid green;"">","null","","","","","","","","","",""
"","image-keyboard-response","364","95613","0.0-364.0","3JWH6J9I9TZFJACSX135KLH72VPBNN","A1VFSNVFK883XU","335VBRURDJMQFRMOFGHOE9WKSHX9E1","","1","img/land4.png","75","2","2","1","2","1","0.8,0.2,0.2,0.2,0.8,0.2,0.2,0.2,0.8","0.8,0.2,0.2,0.2,0.8,0.2,0.2,0.2,0.8","1","",""
"","html-keyboard-response","365","95921","0.0-365.0","3JWH6J9I9TZFJACSX135KLH72VPBNN","A1VFSNVFK883XU","335VBRURDJMQFRMOFGHOE9WKSHX9E1","","null","<img src=""img/land4.png"" style=""width:200px; border:14px solid green;"">","null","","","","","","","","","",""
"","image-keyboard-response","366","95949","0.0-366.0","3JWH6J9I9TZFJACSX135KLH72VPBNN","A1VFSNVFK883XU","335VBRURDJMQFRMOFGHOE9WKSHX9E1","","26","img/land3.png","75","27","2","0","1","1","0.8,0.2,0.2,0.2,0.8,0.2,0.2,0.2,0.8","0.8,0.2,0.2,0.2,0.8,0.2,0.2,0.2,0.8","1","",""
"","html-keyboard-response","367","96261","0.0-367.0","3JWH6J9I9TZFJACSX135KLH72VPBNN","A1VFSNVFK883XU","335VBRURDJMQFRMOFGHOE9WKSHX9E1","","null","<img src=""img/land3.png"" style=""width:200px;border:14px solid red;"">","null","","","","","","","","","",""
"","image-keyboard-response","368","96296","0.0-368.0","3JWH6J9I9TZFJACSX135KLH72VPBNN","A1VFSNVFK883XU","335VBRURDJMQFRMOFGHOE9WKSHX9E1","","34","img/land3.png","75","35","2","0","1","1","0.8,0.2,0.2,0.2,0.8,0.2,0.2,0.2,0.8","0.8,0.2,0.2,0.2,0.8,0.2,0.2,0.2,0.8","1","",""
"","html-keyboard-response","369","96604","0.0-369.0","3JWH6J9I9TZFJACSX135KLH72VPBNN","A1VFSNVFK883XU","335VBRURDJMQFRMOFGHOE9WKSHX9E1","","null","<img src=""img/land3.png"" style=""width:200px;border:14px solid red;"">","null","","","","","","","","","",""
"","image-keyboard-response","370","96667","0.0-370.0","3JWH6J9I9TZFJACSX135KLH72VPBNN","A1VFSNVFK883XU","335VBRURDJMQFRMOFGHOE9WKSHX9E1","","62","img/land4.png","74","63","1","0","2","1","0.8,0.2,0.2,0.2,0.8,0.2,0.2,0.2,0.8","0.8,0.2,0.2,0.2,0.8,0.2,0.2,0.2,0.8","1","",""
"","html-keyboard-response","371","96974","0.0-371.0","3JWH6J9I9TZFJACSX135KLH72VPBNN","A1VFSNVFK883XU","335VBRURDJMQFRMOFGHOE9WKSHX9E1","","null","<img src=""img/land4.png"" style=""width:200px;border:14px solid red;"">","null","","","","","","","","","",""
"","image-keyboard-response","372","97072","0.0-372.0","3JWH6J9I9TZFJACSX135KLH72VPBNN","A1VFSNVFK883XU","335VBRURDJMQFRMOFGHOE9WKSHX9E1","","96","img/land3.png","74","97","1","1","1","1","0.8,0.2,0.2,0.2,0.8,0.2,0.2,0.2,0.8","0.8,0.2,0.2,0.2,0.8,0.2,0.2,0.2,0.8","1","",""
