"success","trial_type","trial_index","time_elapsed","internal_node_id","assignmentID","mturkID","hitID","view_history","rt","stimulus","key_press","reactionTime","a","r","s","cond","reward_cond","reward_cond_actual","reward_matrix_idx","responses","question_order"
"true","fullscreen","0","5228","0.0-0.0","3RUIQRXJBCA18JVJC1CKLW9N9PFLLK","A1YDQJXMEUVSY7","3P7RGTLO6EZ76AO3386R8ZK9IWWKAW","","","","","","","","","","","","","",""
"","instructions","1","16762","0.0-1.0","3RUIQRXJBCA18JVJC1CKLW9N9PFLLK","A1YDQJXMEUVSY7","3P7RGTLO6EZ76AO3386R8ZK9IWWKAW","[{""page_index"":0,""viewing_time"":1442},{""page_index"":1,""viewing_time"":559},{""page_index"":2,""viewing_time"":512.8999999910593},{""page_index"":3,""viewing_time"":1431.9000000059605},{""page_index"":4,""viewing_time"":1638.9000000059605},{""page_index"":5,""viewing_time"":3928.8999999910593},{""page_index"":6,""viewing_time"":2018.1000000089407}]","11532.09999999404","","","","","","","","","","","",""
"","image-keyboard-response","2","17523","0.0-2.0","3RUIQRXJBCA18JVJC1CKLW9N9PFLLK","A1YDQJXMEUVSY7","3P7RGTLO6EZ76AO3386R8ZK9IWWKAW","","758.5","img/land5.png","74","760.2999999970198","1","0","2","2","0.8,0.2,0.2,0.2,0.8,0.2,0.2,0.2,0.8","0.2,0.2,0.8,0.8,0.2,0.2,0.2,0.8,0.2","2","",""
"","html-keyboard-response","3","17830","0.0-3.0","3RUIQRXJBCA18JVJC1CKLW9N9PFLLK","A1YDQJXMEUVSY7","3P7RGTLO6EZ76AO3386R8ZK9IWWKAW","","null","<img src=""img/land5.png"" style=""width:200px;border:14px solid red;"">","null","","","","","","","","","",""
"","image-keyboard-response","4","18610","0.0-4.0","3RUIQRXJBCA18JVJC1CKLW9N9PFLLK","A1YDQJXMEUVSY7","3P7RGTLO6EZ76AO3386R8ZK9IWWKAW","","777.4000000059605","img/land1.png","74","779.1999999880791","1","1","1","2","0.8,0.2,0.2,0.2,0.8,0.2,0.2,0.2,0.8","0.2,0.2,0.8,0.8,0.2,0.2,0.2,0.8,0.2","2","",""
"","html-keyboard-response","5","18919","0.0-5.0","3RUIQRXJBCA18JVJC1CKLW9N9PFLLK","A1YDQJXMEUVSY7","3P7RGTLO6EZ76AO3386R8ZK9IWWKAW","","null","<img src=""img/land1.png"" style=""width:200px; border:14px solid green;"">","null","","","","","","","","","",""
"","image-keyboard-response","6","19306","0.0-6.0","3RUIQRXJBCA18JVJC1CKLW9N9PFLLK","A1YDQJXMEUVSY7","3P7RGTLO6EZ76AO3386R8ZK9IWWKAW","","384.29999999701977","img/land1.png","74","386","1","0","1","2","0.8,0.2,0.2,0.2,0.8,0.2,0.2,0.2,0.8","0.2,0.2,0.8,0.8,0.2,0.2,0.2,0.8,0.2","2","",""
"","html-keyboard-response","7","19611","0.0-7.0","3RUIQRXJBCA18JVJC1CKLW9N9PFLLK","A1YDQJXMEUVSY7","3P7RGTLO6EZ76AO3386R8ZK9IWWKAW","","null","<img src=""img/land1.png"" style=""width:200px;border:14px solid red;"">","null","","","","","","","","","",""
"","image-keyboard-response","8","20378","0.0-8.0","3RUIQRXJBCA18JVJC1CKLW9N9PFLLK","A1YDQJXMEUVSY7","3P7RGTLO6EZ76AO3386R8ZK9IWWKAW","","764.5","img/land5.png","75","766.2000000029802","2","0","2","2","0.8,0.2,0.2,0.2,0.8,0.2,0.2,0.2,0.8","0.2,0.2,0.8,0.8,0.2,0.2,0.2,0.8,0.2","2","",""
"","html-keyboard-response","9","20687","0.0-9.0","3RUIQRXJBCA18JVJC1CKLW9N9PFLLK","A1YDQJXMEUVSY7","3P7RGTLO6EZ76AO3386R8ZK9IWWKAW","","null","<img src=""img/land5.png"" style=""width:200px;border:14px solid red;"">","null","","","","","","","","","",""
"","image-keyboard-response","10","21578","0.0-10.0","3RUIQRXJBCA18JVJC1CKLW9N9PFLLK","A1YDQJXMEUVSY7","3P7RGTLO6EZ76AO3386R8ZK9IWWKAW","","888.3999999910593","img/land1.png","74","890.0999999940395","1","0","1","2","0.8,0.2,0.2,0.2,0.8,0.2,0.2,0.2,0.8","0.2,0.2,0.8,0.8,0.2,0.2,0.2,0.8,0.2","2","",""
"","html-keyboard-response","11","21895","0.0-11.0","3RUIQRXJBCA18JVJC1CKLW9N9PFLLK","A1YDQJXMEUVSY7","3P7RGTLO6EZ76AO3386R8ZK9IWWKAW","","null","<img src=""img/land1.png"" style=""width:200px;border:14px solid red;"">","null","","","","","","","","","",""
"","image-keyboard-response","12","22377","0.0-12.0","3RUIQRXJBCA18JVJC1CKLW9N9PFLLK","A1YDQJXMEUVSY7","3P7RGTLO6EZ76AO3386R8ZK9IWWKAW","","480.70000000298023","img/land1.png","76","482.09999999403954","3","1","1","2","0.8,0.2,0.2,0.2,0.8,0.2,0.2,0.2,0.8","0.2,0.2,0.8,0.8,0.2,0.2,0.2,0.8,0.2","2","",""
"","html-keyboard-response","13","22681","0.0-13.0","3RUIQRXJBCA18JVJC1CKLW9N9PFLLK","A1YDQJXMEUVSY7","3P7RGTLO6EZ76AO3386R8ZK9IWWKAW","","null","<img src=""img/land1.png"" style=""width:200px; border:14px solid green;"">","null","","","","","","","","","",""
"","image-keyboard-response","14","23729","0.0-14.0","3RUIQRXJBCA18JVJC1CKLW9N9PFLLK","A1YDQJXMEUVSY7","3P7RGTLO6EZ76AO3386R8ZK9IWWKAW","","1046.2000000029802","img/land4.png","75","1047.7000000029802","2","1","3","2","0.8,0.2,0.2,0.2,0.8,0.2,0.2,0.2,0.8","0.2,0.2,0.8,0.8,0.2,0.2,0.2,0.8,0.2","2","",""
"","html-keyboard-response","15","24045","0.0-15.0","3RUIQRXJBCA18JVJC1CKLW9N9PFLLK","A1YDQJXMEUVSY7","3P7RGTLO6EZ76AO3386R8ZK9IWWKAW","","null","<img src=""img/land4.png"" style=""width:200px; border:14px solid green;"">","null","","","","","","","","","",""
"","image-keyboard-response","16","24641","0.0-16.0","3RUIQRXJBCA18JVJC1CKLW9N9PFLLK","A1YDQJXMEUVSY7","3P7RGTLO6EZ76AO3386R8ZK9IWWKAW","","594.5","img/land1.png","76","596","3","1","1","2","0.8,0.2,0.2,0.2,0.8,0.2,0.2,0.2,0.8","0.2,0.2,0.8,0.8,0.2,0.2,0.2,0.8,0.2","2","",""
"","html-keyboard-response","17","24945","0.0-17.0","3RUIQRXJBCA18JVJC1CKLW9N9PFLLK","A1YDQJXMEUVSY7","3P7RGTLO6EZ76AO3386R8ZK9IWWKAW","","null","<img src=""img/land1.png"" style=""width:200px; border:14px solid green;"">","null","","","","","","","","","",""
"","image-keyboard-response","18","25257","0.0-18.0","3RUIQRXJBCA18JVJC1CKLW9N9PFLLK","A1YDQJXMEUVSY7","3P7RGTLO6EZ76AO3386R8ZK9IWWKAW","","310.3999999910593","img/land1.png","76","312.20000000298023","3","0","1","2","0.8,0.2,0.2,0.2,0.8,0.2,0.2,0.2,0.8","0.2,0.2,0.8,0.8,0.2,0.2,0.2,0.8,0.2","2","",""
"","html-keyboard-response","19","25575","0.0-19.0","3RUIQRXJBCA18JVJC1CKLW9N9PFLLK","A1YDQJXMEUVSY7","3P7RGTLO6EZ76AO3386R8ZK9IWWKAW","","null","<img src=""img/land1.png"" style=""width:200px;border:14px solid red;"">","null","","","","","","","","","",""
"","image-keyboard-response","20","26041","0.0-20.0","3RUIQRXJBCA18JVJC1CKLW9N9PFLLK","A1YDQJXMEUVSY7","3P7RGTLO6EZ76AO3386R8ZK9IWWKAW","","464.29999999701977","img/land1.png","76","466","3","1","1","2","0.8,0.2,0.2,0.2,0.8,0.2,0.2,0.2,0.8","0.2,0.2,0.8,0.8,0.2,0.2,0.2,0.8,0.2","2","",""
"","html-keyboard-response","21","26348","0.0-21.0","3RUIQRXJBCA18JVJC1CKLW9N9PFLLK","A1YDQJXMEUVSY7","3P7RGTLO6EZ76AO3386R8ZK9IWWKAW","","null","<img src=""img/land1.png"" style=""width:200px; border:14px solid green;"">","null","","","","","","","","","",""
"","image-keyboard-response","22","26649","0.0-22.0","3RUIQRXJBCA18JVJC1CKLW9N9PFLLK","A1YDQJXMEUVSY7","3P7RGTLO6EZ76AO3386R8ZK9IWWKAW","","299.40000000596046","img/land1.png","76","300.90000000596046","3","1","1","2","0.8,0.2,0.2,0.2,0.8,0.2,0.2,0.2,0.8","0.2,0.2,0.8,0.8,0.2,0.2,0.2,0.8,0.2","2","",""
"","html-keyboard-response","23","26957","0.0-23.0","3RUIQRXJBCA18JVJC1CKLW9N9PFLLK","A1YDQJXMEUVSY7","3P7RGTLO6EZ76AO3386R8ZK9IWWKAW","","null","<img src=""img/land1.png"" style=""width:200px; border:14px solid green;"">","null","","","","","","","","","",""
"","image-keyboard-response","24","27257","0.0-24.0","3RUIQRXJBCA18JVJC1CKLW9N9PFLLK","A1YDQJXMEUVSY7","3P7RGTLO6EZ76AO3386R8ZK9IWWKAW","","298.29999999701977","img/land1.png","76","299.5","3","1","1","2","0.8,0.2,0.2,0.2,0.8,0.2,0.2,0.2,0.8","0.2,0.2,0.8,0.8,0.2,0.2,0.2,0.8,0.2","2","",""
"","html-keyboard-response","25","27572","0.0-25.0","3RUIQRXJBCA18JVJC1CKLW9N9PFLLK","A1YDQJXMEUVSY7","3P7RGTLO6EZ76AO3386R8ZK9IWWKAW","","null","<img src=""img/land1.png"" style=""width:200px; border:14px solid green;"">","null","","","","","","","","","",""
"","image-keyboard-response","26","28521","0.0-26.0","3RUIQRXJBCA18JVJC1CKLW9N9PFLLK","A1YDQJXMEUVSY7","3P7RGTLO6EZ76AO3386R8ZK9IWWKAW","","947.2000000029802","img/land5.png","75","948.2000000029802","2","0","2","2","0.8,0.2,0.2,0.2,0.8,0.2,0.2,0.2,0.8","0.2,0.2,0.8,0.8,0.2,0.2,0.2,0.8,0.2","2","",""
"","html-keyboard-response","27","28822","0.0-27.0","3RUIQRXJBCA18JVJC1CKLW9N9PFLLK","A1YDQJXMEUVSY7","3P7RGTLO6EZ76AO3386R8ZK9IWWKAW","","null","<img src=""img/land5.png"" style=""width:200px;border:14px solid red;"">","null","","","","","","","","","",""
"","image-keyboard-response","28","29514","0.0-28.0","3RUIQRXJBCA18JVJC1CKLW9N9PFLLK","A1YDQJXMEUVSY7","3P7RGTLO6EZ76AO3386R8ZK9IWWKAW","","689.8000000119209","img/land1.png","76","691.3000000119209","3","1","1","2","0.8,0.2,0.2,0.2,0.8,0.2,0.2,0.2,0.8","0.2,0.2,0.8,0.8,0.2,0.2,0.2,0.8,0.2","2","",""
"","html-keyboard-response","29","29815","0.0-29.0","3RUIQRXJBCA18JVJC1CKLW9N9PFLLK","A1YDQJXMEUVSY7","3P7RGTLO6EZ76AO3386R8ZK9IWWKAW","","null","<img src=""img/land1.png"" style=""width:200px; border:14px solid green;"">","null","","","","","","","","","",""
"","image-keyboard-response","30","30002","0.0-30.0","3RUIQRXJBCA18JVJC1CKLW9N9PFLLK","A1YDQJXMEUVSY7","3P7RGTLO6EZ76AO3386R8ZK9IWWKAW","","185.29999999701977","img/land1.png","76","186.29999999701977","3","1","1","2","0.8,0.2,0.2,0.2,0.8,0.2,0.2,0.2,0.8","0.2,0.2,0.8,0.8,0.2,0.2,0.2,0.8,0.2","2","",""
"","html-keyboard-response","31","30304","0.0-31.0","3RUIQRXJBCA18JVJC1CKLW9N9PFLLK","A1YDQJXMEUVSY7","3P7RGTLO6EZ76AO3386R8ZK9IWWKAW","","null","<img src=""img/land1.png"" style=""width:200px; border:14px solid green;"">","null","","","","","","","","","",""
"","image-keyboard-response","32","30553","0.0-32.0","3RUIQRXJBCA18JVJC1CKLW9N9PFLLK","A1YDQJXMEUVSY7","3P7RGTLO6EZ76AO3386R8ZK9IWWKAW","","247.40000000596046","img/land1.png","76","249","3","1","1","2","0.8,0.2,0.2,0.2,0.8,0.2,0.2,0.2,0.8","0.2,0.2,0.8,0.8,0.2,0.2,0.2,0.8,0.2","2","",""
"","html-keyboard-response","33","30855","0.0-33.0","3RUIQRXJBCA18JVJC1CKLW9N9PFLLK","A1YDQJXMEUVSY7","3P7RGTLO6EZ76AO3386R8ZK9IWWKAW","","null","<img src=""img/land1.png"" style=""width:200px; border:14px solid green;"">","null","","","","","","","","","",""
"","image-keyboard-response","34","31097","0.0-34.0","3RUIQRXJBCA18JVJC1CKLW9N9PFLLK","A1YDQJXMEUVSY7","3P7RGTLO6EZ76AO3386R8ZK9IWWKAW","","239.79999999701977","img/land1.png","76","240.79999999701977","3","0","1","2","0.8,0.2,0.2,0.2,0.8,0.2,0.2,0.2,0.8","0.2,0.2,0.8,0.8,0.2,0.2,0.2,0.8,0.2","2","",""
"","html-keyboard-response","35","31398","0.0-35.0","3RUIQRXJBCA18JVJC1CKLW9N9PFLLK","A1YDQJXMEUVSY7","3P7RGTLO6EZ76AO3386R8ZK9IWWKAW","","null","<img src=""img/land1.png"" style=""width:200px;border:14px solid red;"">","null","","","","","","","","","",""
"","image-keyboard-response","36","31737","0.0-36.0","3RUIQRXJBCA18JVJC1CKLW9N9PFLLK","A1YDQJXMEUVSY7","3P7RGTLO6EZ76AO3386R8ZK9IWWKAW","","337.70000000298023","img/land1.png","76","339.19999998807907","3","1","1","2","0.8,0.2,0.2,0.2,0.8,0.2,0.2,0.2,0.8","0.2,0.2,0.8,0.8,0.2,0.2,0.2,0.8,0.2","2","",""
"","html-keyboard-response","37","32048","0.0-37.0","3RUIQRXJBCA18JVJC1CKLW9N9PFLLK","A1YDQJXMEUVSY7","3P7RGTLO6EZ76AO3386R8ZK9IWWKAW","","null","<img src=""img/land1.png"" style=""width:200px; border:14px solid green;"">","null","","","","","","","","","",""
"","image-keyboard-response","38","32257","0.0-38.0","3RUIQRXJBCA18JVJC1CKLW9N9PFLLK","A1YDQJXMEUVSY7","3P7RGTLO6EZ76AO3386R8ZK9IWWKAW","","207.70000000298023","img/land1.png","76","209.09999999403954","3","1","1","2","0.8,0.2,0.2,0.2,0.8,0.2,0.2,0.2,0.8","0.2,0.2,0.8,0.8,0.2,0.2,0.2,0.8,0.2","2","",""
"","html-keyboard-response","39","32560","0.0-39.0","3RUIQRXJBCA18JVJC1CKLW9N9PFLLK","A1YDQJXMEUVSY7","3P7RGTLO6EZ76AO3386R8ZK9IWWKAW","","null","<img src=""img/land1.png"" style=""width:200px; border:14px solid green;"">","null","","","","","","","","","",""
"","image-keyboard-response","40","32865","0.0-40.0","3RUIQRXJBCA18JVJC1CKLW9N9PFLLK","A1YDQJXMEUVSY7","3P7RGTLO6EZ76AO3386R8ZK9IWWKAW","","302.79999999701977","img/land4.png","76","304.1000000089407","3","0","3","2","0.8,0.2,0.2,0.2,0.8,0.2,0.2,0.2,0.8","0.2,0.2,0.8,0.8,0.2,0.2,0.2,0.8,0.2","2","",""
"","html-keyboard-response","41","33166","0.0-41.0","3RUIQRXJBCA18JVJC1CKLW9N9PFLLK","A1YDQJXMEUVSY7","3P7RGTLO6EZ76AO3386R8ZK9IWWKAW","","null","<img src=""img/land4.png"" style=""width:200px;border:14px solid red;"">","null","","","","","","","","","",""
"","image-keyboard-response","42","33745","0.0-42.0","3RUIQRXJBCA18JVJC1CKLW9N9PFLLK","A1YDQJXMEUVSY7","3P7RGTLO6EZ76AO3386R8ZK9IWWKAW","","577.2999999970198","img/land1.png","76","578.7000000029802","3","1","1","2","0.8,0.2,0.2,0.2,0.8,0.2,0.2,0.2,0.8","0.2,0.2,0.8,0.8,0.2,0.2,0.2,0.8,0.2","2","",""
"","html-keyboard-response","43","34049","0.0-43.0","3RUIQRXJBCA18JVJC1CKLW9N9PFLLK","A1YDQJXMEUVSY7","3P7RGTLO6EZ76AO3386R8ZK9IWWKAW","","null","<img src=""img/land1.png"" style=""width:200px; border:14px solid green;"">","null","","","","","","","","","",""
"","image-keyboard-response","44","34185","0.0-44.0","3RUIQRXJBCA18JVJC1CKLW9N9PFLLK","A1YDQJXMEUVSY7","3P7RGTLO6EZ76AO3386R8ZK9IWWKAW","","135.09999999403954","img/land1.png","76","136.3999999910593","3","1","1","2","0.8,0.2,0.2,0.2,0.8,0.2,0.2,0.2,0.8","0.2,0.2,0.8,0.8,0.2,0.2,0.2,0.8,0.2","2","",""
"","html-keyboard-response","45","34489","0.0-45.0","3RUIQRXJBCA18JVJC1CKLW9N9PFLLK","A1YDQJXMEUVSY7","3P7RGTLO6EZ76AO3386R8ZK9IWWKAW","","null","<img src=""img/land1.png"" style=""width:200px; border:14px solid green;"">","null","","","","","","","","","",""
"","image-keyboard-response","46","34609","0.0-46.0","3RUIQRXJBCA18JVJC1CKLW9N9PFLLK","A1YDQJXMEUVSY7","3P7RGTLO6EZ76AO3386R8ZK9IWWKAW","","118.30000001192093","img/land4.png","76","119.29999999701977","3","0","3","2","0.8,0.2,0.2,0.2,0.8,0.2,0.2,0.2,0.8","0.2,0.2,0.8,0.8,0.2,0.2,0.2,0.8,0.2","2","",""
"","html-keyboard-response","47","34910","0.0-47.0","3RUIQRXJBCA18JVJC1CKLW9N9PFLLK","A1YDQJXMEUVSY7","3P7RGTLO6EZ76AO3386R8ZK9IWWKAW","","null","<img src=""img/land4.png"" style=""width:200px;border:14px solid red;"">","null","","","","","","","","","",""
"","image-keyboard-response","48","35425","0.0-48.0","3RUIQRXJBCA18JVJC1CKLW9N9PFLLK","A1YDQJXMEUVSY7","3P7RGTLO6EZ76AO3386R8ZK9IWWKAW","","514.0999999940395","img/land1.png","76","514.8999999910593","3","1","1","2","0.8,0.2,0.2,0.2,0.8,0.2,0.2,0.2,0.8","0.2,0.2,0.8,0.8,0.2,0.2,0.2,0.8,0.2","2","",""
"","html-keyboard-response","49","35727","0.0-49.0","3RUIQRXJBCA18JVJC1CKLW9N9PFLLK","A1YDQJXMEUVSY7","3P7RGTLO6EZ76AO3386R8ZK9IWWKAW","","null","<img src=""img/land1.png"" style=""width:200px; border:14px solid green;"">","null","","","","","","","","","",""
"","image-keyboard-response","50","35816","0.0-50.0","3RUIQRXJBCA18JVJC1CKLW9N9PFLLK","A1YDQJXMEUVSY7","3P7RGTLO6EZ76AO3386R8ZK9IWWKAW","","88.29999999701977","img/land4.png","76","89","3","1","3","2","0.8,0.2,0.2,0.2,0.8,0.2,0.2,0.2,0.8","0.2,0.2,0.8,0.8,0.2,0.2,0.2,0.8,0.2","2","",""
"","html-keyboard-response","51","36119","0.0-51.0","3RUIQRXJBCA18JVJC1CKLW9N9PFLLK","A1YDQJXMEUVSY7","3P7RGTLO6EZ76AO3386R8ZK9IWWKAW","","null","<img src=""img/land4.png"" style=""width:200px; border:14px solid green;"">","null","","","","","","","","","",""
"","image-keyboard-response","52","37257","0.0-52.0","3RUIQRXJBCA18JVJC1CKLW9N9PFLLK","A1YDQJXMEUVSY7","3P7RGTLO6EZ76AO3386R8ZK9IWWKAW","","1136.9000000059605","img/land4.png","74","1137.7000000029802","1","0","3","2","0.8,0.2,0.2,0.2,0.8,0.2,0.2,0.2,0.8","0.2,0.2,0.8,0.8,0.2,0.2,0.2,0.8,0.2","2","",""
"","html-keyboard-response","53","37559","0.0-53.0","3RUIQRXJBCA18JVJC1CKLW9N9PFLLK","A1YDQJXMEUVSY7","3P7RGTLO6EZ76AO3386R8ZK9IWWKAW","","null","<img src=""img/land4.png"" style=""width:200px;border:14px solid red;"">","null","","","","","","","","","",""
"","image-keyboard-response","54","38057","0.0-54.0","3RUIQRXJBCA18JVJC1CKLW9N9PFLLK","A1YDQJXMEUVSY7","3P7RGTLO6EZ76AO3386R8ZK9IWWKAW","","496.90000000596046","img/land5.png","76","497.6000000089407","3","0","2","2","0.8,0.2,0.2,0.2,0.8,0.2,0.2,0.2,0.8","0.2,0.2,0.8,0.8,0.2,0.2,0.2,0.8,0.2","2","",""
"","html-keyboard-response","55","38359","0.0-55.0","3RUIQRXJBCA18JVJC1CKLW9N9PFLLK","A1YDQJXMEUVSY7","3P7RGTLO6EZ76AO3386R8ZK9IWWKAW","","null","<img src=""img/land5.png"" style=""width:200px;border:14px solid red;"">","null","","","","","","","","","",""
"","image-keyboard-response","56","39090","0.0-56.0","3RUIQRXJBCA18JVJC1CKLW9N9PFLLK","A1YDQJXMEUVSY7","3P7RGTLO6EZ76AO3386R8ZK9IWWKAW","","728.9000000059605","img/land1.png","76","730.5999999940395","3","0","1","2","0.8,0.2,0.2,0.2,0.8,0.2,0.2,0.2,0.8","0.2,0.2,0.8,0.8,0.2,0.2,0.2,0.8,0.2","2","",""
"","html-keyboard-response","57","39392","0.0-57.0","3RUIQRXJBCA18JVJC1CKLW9N9PFLLK","A1YDQJXMEUVSY7","3P7RGTLO6EZ76AO3386R8ZK9IWWKAW","","null","<img src=""img/land1.png"" style=""width:200px;border:14px solid red;"">","null","","","","","","","","","",""
"","image-keyboard-response","58","40346","0.0-58.0","3RUIQRXJBCA18JVJC1CKLW9N9PFLLK","A1YDQJXMEUVSY7","3P7RGTLO6EZ76AO3386R8ZK9IWWKAW","","951.9000000059605","img/land4.png","75","953.3999999910593","2","0","3","2","0.8,0.2,0.2,0.2,0.8,0.2,0.2,0.2,0.8","0.2,0.2,0.8,0.8,0.2,0.2,0.2,0.8,0.2","2","",""
"","html-keyboard-response","59","40648","0.0-59.0","3RUIQRXJBCA18JVJC1CKLW9N9PFLLK","A1YDQJXMEUVSY7","3P7RGTLO6EZ76AO3386R8ZK9IWWKAW","","null","<img src=""img/land4.png"" style=""width:200px;border:14px solid red;"">","null","","","","","","","","","",""
"","image-keyboard-response","60","41025","0.0-60.0","3RUIQRXJBCA18JVJC1CKLW9N9PFLLK","A1YDQJXMEUVSY7","3P7RGTLO6EZ76AO3386R8ZK9IWWKAW","","375.19999998807907","img/land4.png","75","376.79999999701977","2","1","3","2","0.8,0.2,0.2,0.2,0.8,0.2,0.2,0.2,0.8","0.2,0.2,0.8,0.8,0.2,0.2,0.2,0.8,0.2","2","",""
"","html-keyboard-response","61","41329","0.0-61.0","3RUIQRXJBCA18JVJC1CKLW9N9PFLLK","A1YDQJXMEUVSY7","3P7RGTLO6EZ76AO3386R8ZK9IWWKAW","","null","<img src=""img/land4.png"" style=""width:200px; border:14px solid green;"">","null","","","","","","","","","",""
"","image-keyboard-response","62","41625","0.0-62.0","3RUIQRXJBCA18JVJC1CKLW9N9PFLLK","A1YDQJXMEUVSY7","3P7RGTLO6EZ76AO3386R8ZK9IWWKAW","","294.69999998807907","img/land1.png","75","296.09999999403954","2","1","1","2","0.8,0.2,0.2,0.2,0.8,0.2,0.2,0.2,0.8","0.2,0.2,0.8,0.8,0.2,0.2,0.2,0.8,0.2","2","",""
"","html-keyboard-response","63","41928","0.0-63.0","3RUIQRXJBCA18JVJC1CKLW9N9PFLLK","A1YDQJXMEUVSY7","3P7RGTLO6EZ76AO3386R8ZK9IWWKAW","","null","<img src=""img/land1.png"" style=""width:200px; border:14px solid green;"">","null","","","","","","","","","",""
"","image-keyboard-response","64","42345","0.0-64.0","3RUIQRXJBCA18JVJC1CKLW9N9PFLLK","A1YDQJXMEUVSY7","3P7RGTLO6EZ76AO3386R8ZK9IWWKAW","","415.3999999910593","img/land1.png","76","416.8999999910593","3","0","1","2","0.8,0.2,0.2,0.2,0.8,0.2,0.2,0.2,0.8","0.2,0.2,0.8,0.8,0.2,0.2,0.2,0.8,0.2","2","",""
"","html-keyboard-response","65","42648","0.0-65.0","3RUIQRXJBCA18JVJC1CKLW9N9PFLLK","A1YDQJXMEUVSY7","3P7RGTLO6EZ76AO3386R8ZK9IWWKAW","","null","<img src=""img/land1.png"" style=""width:200px;border:14px solid red;"">","null","","","","","","","","","",""
"","image-keyboard-response","66","43465","0.0-66.0","3RUIQRXJBCA18JVJC1CKLW9N9PFLLK","A1YDQJXMEUVSY7","3P7RGTLO6EZ76AO3386R8ZK9IWWKAW","","815.2999999970198","img/land5.png","74","816.7999999970198","1","1","2","2","0.8,0.2,0.2,0.2,0.8,0.2,0.2,0.2,0.8","0.2,0.2,0.8,0.8,0.2,0.2,0.2,0.8,0.2","2","",""
"","html-keyboard-response","67","43768","0.0-67.0","3RUIQRXJBCA18JVJC1CKLW9N9PFLLK","A1YDQJXMEUVSY7","3P7RGTLO6EZ76AO3386R8ZK9IWWKAW","","null","<img src=""img/land5.png"" style=""width:200px; border:14px solid green;"">","null","","","","","","","","","",""
"","image-keyboard-response","68","45081","0.0-68.0","3RUIQRXJBCA18JVJC1CKLW9N9PFLLK","A1YDQJXMEUVSY7","3P7RGTLO6EZ76AO3386R8ZK9IWWKAW","","1311","img/land1.png","75","1312.300000011921","2","1","1","2","0.8,0.2,0.2,0.2,0.8,0.2,0.2,0.2,0.8","0.2,0.2,0.8,0.8,0.2,0.2,0.2,0.8,0.2","2","",""
"","html-keyboard-response","69","45382","0.0-69.0","3RUIQRXJBCA18JVJC1CKLW9N9PFLLK","A1YDQJXMEUVSY7","3P7RGTLO6EZ76AO3386R8ZK9IWWKAW","","null","<img src=""img/land1.png"" style=""width:200px; border:14px solid green;"">","null","","","","","","","","","",""
"","image-keyboard-response","70","46098","0.0-70.0","3RUIQRXJBCA18JVJC1CKLW9N9PFLLK","A1YDQJXMEUVSY7","3P7RGTLO6EZ76AO3386R8ZK9IWWKAW","","713.1999999880791","img/land5.png","74","715.2000000029802","1","0","2","2","0.8,0.2,0.2,0.2,0.8,0.2,0.2,0.2,0.8","0.2,0.2,0.8,0.8,0.2,0.2,0.2,0.8,0.2","2","",""
"","html-keyboard-response","71","46400","0.0-71.0","3RUIQRXJBCA18JVJC1CKLW9N9PFLLK","A1YDQJXMEUVSY7","3P7RGTLO6EZ76AO3386R8ZK9IWWKAW","","null","<img src=""img/land5.png"" style=""width:200px;border:14px solid red;"">","null","","","","","","","","","",""
"","image-keyboard-response","72","46985","0.0-72.0","3RUIQRXJBCA18JVJC1CKLW9N9PFLLK","A1YDQJXMEUVSY7","3P7RGTLO6EZ76AO3386R8ZK9IWWKAW","","583.4000000059605","img/land1.png","76","584.8999999910593","3","1","1","2","0.8,0.2,0.2,0.2,0.8,0.2,0.2,0.2,0.8","0.2,0.2,0.8,0.8,0.2,0.2,0.2,0.8,0.2","2","",""
"","html-keyboard-response","73","47289","0.0-73.0","3RUIQRXJBCA18JVJC1CKLW9N9PFLLK","A1YDQJXMEUVSY7","3P7RGTLO6EZ76AO3386R8ZK9IWWKAW","","null","<img src=""img/land1.png"" style=""width:200px; border:14px solid green;"">","null","","","","","","","","","",""
"","image-keyboard-response","74","47633","0.0-74.0","3RUIQRXJBCA18JVJC1CKLW9N9PFLLK","A1YDQJXMEUVSY7","3P7RGTLO6EZ76AO3386R8ZK9IWWKAW","","343.09999999403954","img/land1.png","76","344.5","3","1","1","2","0.8,0.2,0.2,0.2,0.8,0.2,0.2,0.2,0.8","0.2,0.2,0.8,0.8,0.2,0.2,0.2,0.8,0.2","2","",""
"","html-keyboard-response","75","47936","0.0-75.0","3RUIQRXJBCA18JVJC1CKLW9N9PFLLK","A1YDQJXMEUVSY7","3P7RGTLO6EZ76AO3386R8ZK9IWWKAW","","null","<img src=""img/land1.png"" style=""width:200px; border:14px solid green;"">","null","","","","","","","","","",""
"","image-keyboard-response","76","48201","0.0-76.0","3RUIQRXJBCA18JVJC1CKLW9N9PFLLK","A1YDQJXMEUVSY7","3P7RGTLO6EZ76AO3386R8ZK9IWWKAW","","264.20000000298023","img/land1.png","76","265.29999999701977","3","1","1","2","0.8,0.2,0.2,0.2,0.8,0.2,0.2,0.2,0.8","0.2,0.2,0.8,0.8,0.2,0.2,0.2,0.8,0.2","2","",""
"","html-keyboard-response","77","48503","0.0-77.0","3RUIQRXJBCA18JVJC1CKLW9N9PFLLK","A1YDQJXMEUVSY7","3P7RGTLO6EZ76AO3386R8ZK9IWWKAW","","null","<img src=""img/land1.png"" style=""width:200px; border:14px solid green;"">","null","","","","","","","","","",""
"","image-keyboard-response","78","48833","0.0-78.0","3RUIQRXJBCA18JVJC1CKLW9N9PFLLK","A1YDQJXMEUVSY7","3P7RGTLO6EZ76AO3386R8ZK9IWWKAW","","328.09999999403954","img/land1.png","76","329.69999998807907","3","1","1","2","0.8,0.2,0.2,0.2,0.8,0.2,0.2,0.2,0.8","0.2,0.2,0.8,0.8,0.2,0.2,0.2,0.8,0.2","2","",""
"","html-keyboard-response","79","49142","0.0-79.0","3RUIQRXJBCA18JVJC1CKLW9N9PFLLK","A1YDQJXMEUVSY7","3P7RGTLO6EZ76AO3386R8ZK9IWWKAW","","null","<img src=""img/land1.png"" style=""width:200px; border:14px solid green;"">","null","","","","","","","","","",""
"","image-keyboard-response","80","49425","0.0-80.0","3RUIQRXJBCA18JVJC1CKLW9N9PFLLK","A1YDQJXMEUVSY7","3P7RGTLO6EZ76AO3386R8ZK9IWWKAW","","281.5","img/land4.png","76","283","3","1","3","2","0.8,0.2,0.2,0.2,0.8,0.2,0.2,0.2,0.8","0.2,0.2,0.8,0.8,0.2,0.2,0.2,0.8,0.2","2","",""
"","html-keyboard-response","81","49728","0.0-81.0","3RUIQRXJBCA18JVJC1CKLW9N9PFLLK","A1YDQJXMEUVSY7","3P7RGTLO6EZ76AO3386R8ZK9IWWKAW","","null","<img src=""img/land4.png"" style=""width:200px; border:14px solid green;"">","null","","","","","","","","","",""
"","image-keyboard-response","82","50057","0.0-82.0","3RUIQRXJBCA18JVJC1CKLW9N9PFLLK","A1YDQJXMEUVSY7","3P7RGTLO6EZ76AO3386R8ZK9IWWKAW","","327.1000000089407","img/land1.png","75","328.5","2","0","1","2","0.8,0.2,0.2,0.2,0.8,0.2,0.2,0.2,0.8","0.2,0.2,0.8,0.8,0.2,0.2,0.2,0.8,0.2","2","",""
"","html-keyboard-response","83","50361","0.0-83.0","3RUIQRXJBCA18JVJC1CKLW9N9PFLLK","A1YDQJXMEUVSY7","3P7RGTLO6EZ76AO3386R8ZK9IWWKAW","","null","<img src=""img/land1.png"" style=""width:200px;border:14px solid red;"">","null","","","","","","","","","",""
"","image-keyboard-response","84","50730","0.0-84.0","3RUIQRXJBCA18JVJC1CKLW9N9PFLLK","A1YDQJXMEUVSY7","3P7RGTLO6EZ76AO3386R8ZK9IWWKAW","","366.90000000596046","img/land5.png","76","368.59999999403954","3","0","2","2","0.8,0.2,0.2,0.2,0.8,0.2,0.2,0.2,0.8","0.2,0.2,0.8,0.8,0.2,0.2,0.2,0.8,0.2","2","",""
"","html-keyboard-response","85","51032","0.0-85.0","3RUIQRXJBCA18JVJC1CKLW9N9PFLLK","A1YDQJXMEUVSY7","3P7RGTLO6EZ76AO3386R8ZK9IWWKAW","","null","<img src=""img/land5.png"" style=""width:200px;border:14px solid red;"">","null","","","","","","","","","",""
"","image-keyboard-response","86","51681","0.0-86.0","3RUIQRXJBCA18JVJC1CKLW9N9PFLLK","A1YDQJXMEUVSY7","3P7RGTLO6EZ76AO3386R8ZK9IWWKAW","","647.5","img/land4.png","76","649.0999999940395","3","1","3","2","0.8,0.2,0.2,0.2,0.8,0.2,0.2,0.2,0.8","0.2,0.2,0.8,0.8,0.2,0.2,0.2,0.8,0.2","2","",""
"","html-keyboard-response","87","51998","0.0-87.0","3RUIQRXJBCA18JVJC1CKLW9N9PFLLK","A1YDQJXMEUVSY7","3P7RGTLO6EZ76AO3386R8ZK9IWWKAW","","null","<img src=""img/land4.png"" style=""width:200px; border:14px solid green;"">","null","","","","","","","","","",""
"","image-keyboard-response","88","52321","0.0-88.0","3RUIQRXJBCA18JVJC1CKLW9N9PFLLK","A1YDQJXMEUVSY7","3P7RGTLO6EZ76AO3386R8ZK9IWWKAW","","321.29999999701977","img/land1.png","76","323.09999999403954","3","1","1","2","0.8,0.2,0.2,0.2,0.8,0.2,0.2,0.2,0.8","0.2,0.2,0.8,0.8,0.2,0.2,0.2,0.8,0.2","2","",""
"","html-keyboard-response","89","52624","0.0-89.0","3RUIQRXJBCA18JVJC1CKLW9N9PFLLK","A1YDQJXMEUVSY7","3P7RGTLO6EZ76AO3386R8ZK9IWWKAW","","null","<img src=""img/land1.png"" style=""width:200px; border:14px solid green;"">","null","","","","","","","","","",""
"","image-keyboard-response","90","52881","0.0-90.0","3RUIQRXJBCA18JVJC1CKLW9N9PFLLK","A1YDQJXMEUVSY7","3P7RGTLO6EZ76AO3386R8ZK9IWWKAW","","255.40000000596046","img/land1.png","76","256.8999999910593","3","1","1","2","0.8,0.2,0.2,0.2,0.8,0.2,0.2,0.2,0.8","0.2,0.2,0.8,0.8,0.2,0.2,0.2,0.8,0.2","2","",""
"","html-keyboard-response","91","53184","0.0-91.0","3RUIQRXJBCA18JVJC1CKLW9N9PFLLK","A1YDQJXMEUVSY7","3P7RGTLO6EZ76AO3386R8ZK9IWWKAW","","null","<img src=""img/land1.png"" style=""width:200px; border:14px solid green;"">","null","","","","","","","","","",""
"","image-keyboard-response","92","53385","0.0-92.0","3RUIQRXJBCA18JVJC1CKLW9N9PFLLK","A1YDQJXMEUVSY7","3P7RGTLO6EZ76AO3386R8ZK9IWWKAW","","199.5","img/land1.png","76","201","3","1","1","2","0.8,0.2,0.2,0.2,0.8,0.2,0.2,0.2,0.8","0.2,0.2,0.8,0.8,0.2,0.2,0.2,0.8,0.2","2","",""
"","html-keyboard-response","93","53689","0.0-93.0","3RUIQRXJBCA18JVJC1CKLW9N9PFLLK","A1YDQJXMEUVSY7","3P7RGTLO6EZ76AO3386R8ZK9IWWKAW","","null","<img src=""img/land1.png"" style=""width:200px; border:14px solid green;"">","null","","","","","","","","","",""
"","image-keyboard-response","94","53945","0.0-94.0","3RUIQRXJBCA18JVJC1CKLW9N9PFLLK","A1YDQJXMEUVSY7","3P7RGTLO6EZ76AO3386R8ZK9IWWKAW","","254.40000000596046","img/land1.png","76","256.09999999403954","3","1","1","2","0.8,0.2,0.2,0.2,0.8,0.2,0.2,0.2,0.8","0.2,0.2,0.8,0.8,0.2,0.2,0.2,0.8,0.2","2","",""
"","html-keyboard-response","95","54248","0.0-95.0","3RUIQRXJBCA18JVJC1CKLW9N9PFLLK","A1YDQJXMEUVSY7","3P7RGTLO6EZ76AO3386R8ZK9IWWKAW","","null","<img src=""img/land1.png"" style=""width:200px; border:14px solid green;"">","null","","","","","","","","","",""
"","image-keyboard-response","96","54545","0.0-96.0","3RUIQRXJBCA18JVJC1CKLW9N9PFLLK","A1YDQJXMEUVSY7","3P7RGTLO6EZ76AO3386R8ZK9IWWKAW","","295.40000000596046","img/land4.png","76","297","3","0","3","2","0.8,0.2,0.2,0.2,0.8,0.2,0.2,0.2,0.8","0.2,0.2,0.8,0.8,0.2,0.2,0.2,0.8,0.2","2","",""
"","html-keyboard-response","97","54848","0.0-97.0","3RUIQRXJBCA18JVJC1CKLW9N9PFLLK","A1YDQJXMEUVSY7","3P7RGTLO6EZ76AO3386R8ZK9IWWKAW","","null","<img src=""img/land4.png"" style=""width:200px;border:14px solid red;"">","null","","","","","","","","","",""
"","image-keyboard-response","98","55281","0.0-98.0","3RUIQRXJBCA18JVJC1CKLW9N9PFLLK","A1YDQJXMEUVSY7","3P7RGTLO6EZ76AO3386R8ZK9IWWKAW","","431","img/land1.png","76","432.30000001192093","3","1","1","2","0.8,0.2,0.2,0.2,0.8,0.2,0.2,0.2,0.8","0.2,0.2,0.8,0.8,0.2,0.2,0.2,0.8,0.2","2","",""
"","html-keyboard-response","99","55582","0.0-99.0","3RUIQRXJBCA18JVJC1CKLW9N9PFLLK","A1YDQJXMEUVSY7","3P7RGTLO6EZ76AO3386R8ZK9IWWKAW","","null","<img src=""img/land1.png"" style=""width:200px; border:14px solid green;"">","null","","","","","","","","","",""
"","image-keyboard-response","100","55777","0.0-100.0","3RUIQRXJBCA18JVJC1CKLW9N9PFLLK","A1YDQJXMEUVSY7","3P7RGTLO6EZ76AO3386R8ZK9IWWKAW","","193.3999999910593","img/land1.png","76","194.79999999701977","3","0","1","2","0.8,0.2,0.2,0.2,0.8,0.2,0.2,0.2,0.8","0.2,0.2,0.8,0.8,0.2,0.2,0.2,0.8,0.2","2","",""
"","html-keyboard-response","101","56080","0.0-101.0","3RUIQRXJBCA18JVJC1CKLW9N9PFLLK","A1YDQJXMEUVSY7","3P7RGTLO6EZ76AO3386R8ZK9IWWKAW","","null","<img src=""img/land1.png"" style=""width:200px;border:14px solid red;"">","null","","","","","","","","","",""
"","image-keyboard-response","102","56825","0.0-102.0","3RUIQRXJBCA18JVJC1CKLW9N9PFLLK","A1YDQJXMEUVSY7","3P7RGTLO6EZ76AO3386R8ZK9IWWKAW","","743.6999999880791","img/land5.png","74","745","1","1","2","2","0.8,0.2,0.2,0.2,0.8,0.2,0.2,0.2,0.8","0.2,0.2,0.8,0.8,0.2,0.2,0.2,0.8,0.2","2","",""
"","html-keyboard-response","103","57129","0.0-103.0","3RUIQRXJBCA18JVJC1CKLW9N9PFLLK","A1YDQJXMEUVSY7","3P7RGTLO6EZ76AO3386R8ZK9IWWKAW","","null","<img src=""img/land5.png"" style=""width:200px; border:14px solid green;"">","null","","","","","","","","","",""
"","image-keyboard-response","104","57436","0.0-104.0","3RUIQRXJBCA18JVJC1CKLW9N9PFLLK","A1YDQJXMEUVSY7","3P7RGTLO6EZ76AO3386R8ZK9IWWKAW","","304.19999998807907","img/land1.png","76","306.29999999701977","3","1","1","2","0.8,0.2,0.2,0.2,0.8,0.2,0.2,0.2,0.8","0.2,0.2,0.8,0.8,0.2,0.2,0.2,0.8,0.2","2","",""
"","html-keyboard-response","105","57739","0.0-105.0","3RUIQRXJBCA18JVJC1CKLW9N9PFLLK","A1YDQJXMEUVSY7","3P7RGTLO6EZ76AO3386R8ZK9IWWKAW","","null","<img src=""img/land1.png"" style=""width:200px; border:14px solid green;"">","null","","","","","","","","","",""
"","image-keyboard-response","106","58425","0.0-106.0","3RUIQRXJBCA18JVJC1CKLW9N9PFLLK","A1YDQJXMEUVSY7","3P7RGTLO6EZ76AO3386R8ZK9IWWKAW","","684.9000000059605","img/land5.png","74","685.5999999940395","1","1","2","2","0.8,0.2,0.2,0.2,0.8,0.2,0.2,0.2,0.8","0.2,0.2,0.8,0.8,0.2,0.2,0.2,0.8,0.2","2","",""
"","html-keyboard-response","107","58727","0.0-107.0","3RUIQRXJBCA18JVJC1CKLW9N9PFLLK","A1YDQJXMEUVSY7","3P7RGTLO6EZ76AO3386R8ZK9IWWKAW","","null","<img src=""img/land5.png"" style=""width:200px; border:14px solid green;"">","null","","","","","","","","","",""
"","image-keyboard-response","108","58977","0.0-108.0","3RUIQRXJBCA18JVJC1CKLW9N9PFLLK","A1YDQJXMEUVSY7","3P7RGTLO6EZ76AO3386R8ZK9IWWKAW","","249.1000000089407","img/land1.png","76","249.80000001192093","3","1","1","2","0.8,0.2,0.2,0.2,0.8,0.2,0.2,0.2,0.8","0.2,0.2,0.8,0.8,0.2,0.2,0.2,0.8,0.2","2","",""
"","html-keyboard-response","109","59279","0.0-109.0","3RUIQRXJBCA18JVJC1CKLW9N9PFLLK","A1YDQJXMEUVSY7","3P7RGTLO6EZ76AO3386R8ZK9IWWKAW","","null","<img src=""img/land1.png"" style=""width:200px; border:14px solid green;"">","null","","","","","","","","","",""
"","image-keyboard-response","110","59985","0.0-110.0","3RUIQRXJBCA18JVJC1CKLW9N9PFLLK","A1YDQJXMEUVSY7","3P7RGTLO6EZ76AO3386R8ZK9IWWKAW","","704.5","img/land4.png","75","705.9000000059605","2","1","3","2","0.8,0.2,0.2,0.2,0.8,0.2,0.2,0.2,0.8","0.2,0.2,0.8,0.8,0.2,0.2,0.2,0.8,0.2","2","",""
"","html-keyboard-response","111","60287","0.0-111.0","3RUIQRXJBCA18JVJC1CKLW9N9PFLLK","A1YDQJXMEUVSY7","3P7RGTLO6EZ76AO3386R8ZK9IWWKAW","","null","<img src=""img/land4.png"" style=""width:200px; border:14px solid green;"">","null","","","","","","","","","",""
"","image-keyboard-response","112","60642","0.0-112.0","3RUIQRXJBCA18JVJC1CKLW9N9PFLLK","A1YDQJXMEUVSY7","3P7RGTLO6EZ76AO3386R8ZK9IWWKAW","","352.29999999701977","img/land4.png","76","353.8999999910593","3","0","3","2","0.8,0.2,0.2,0.2,0.8,0.2,0.2,0.2,0.8","0.2,0.2,0.8,0.8,0.2,0.2,0.2,0.8,0.2","2","",""
"","html-keyboard-response","113","60945","0.0-113.0","3RUIQRXJBCA18JVJC1CKLW9N9PFLLK","A1YDQJXMEUVSY7","3P7RGTLO6EZ76AO3386R8ZK9IWWKAW","","null","<img src=""img/land4.png"" style=""width:200px;border:14px solid red;"">","null","","","","","","","","","",""
"","image-keyboard-response","114","61546","0.0-114.0","3RUIQRXJBCA18JVJC1CKLW9N9PFLLK","A1YDQJXMEUVSY7","3P7RGTLO6EZ76AO3386R8ZK9IWWKAW","","599.7999999970198","img/land1.png","76","600.9000000059605","3","0","1","2","0.8,0.2,0.2,0.2,0.8,0.2,0.2,0.2,0.8","0.2,0.2,0.8,0.8,0.2,0.2,0.2,0.8,0.2","2","",""
"","html-keyboard-response","115","61849","0.0-115.0","3RUIQRXJBCA18JVJC1CKLW9N9PFLLK","A1YDQJXMEUVSY7","3P7RGTLO6EZ76AO3386R8ZK9IWWKAW","","null","<img src=""img/land1.png"" style=""width:200px;border:14px solid red;"">","null","","","","","","","","","",""
"","image-keyboard-response","116","62442","0.0-116.0","3RUIQRXJBCA18JVJC1CKLW9N9PFLLK","A1YDQJXMEUVSY7","3P7RGTLO6EZ76AO3386R8ZK9IWWKAW","","590.1999999880791","img/land1.png","76","591.6999999880791","3","0","1","2","0.8,0.2,0.2,0.2,0.8,0.2,0.2,0.2,0.8","0.2,0.2,0.8,0.8,0.2,0.2,0.2,0.8,0.2","2","",""
"","html-keyboard-response","117","62745","0.0-117.0","3RUIQRXJBCA18JVJC1CKLW9N9PFLLK","A1YDQJXMEUVSY7","3P7RGTLO6EZ76AO3386R8ZK9IWWKAW","","null","<img src=""img/land1.png"" style=""width:200px;border:14px solid red;"">","null","","","","","","","","","",""
"","image-keyboard-response","118","63465","0.0-118.0","3RUIQRXJBCA18JVJC1CKLW9N9PFLLK","A1YDQJXMEUVSY7","3P7RGTLO6EZ76AO3386R8ZK9IWWKAW","","718","img/land4.png","75","719.2999999970198","2","1","3","2","0.8,0.2,0.2,0.2,0.8,0.2,0.2,0.2,0.8","0.2,0.2,0.8,0.8,0.2,0.2,0.2,0.8,0.2","2","",""
"","html-keyboard-response","119","63766","0.0-119.0","3RUIQRXJBCA18JVJC1CKLW9N9PFLLK","A1YDQJXMEUVSY7","3P7RGTLO6EZ76AO3386R8ZK9IWWKAW","","null","<img src=""img/land4.png"" style=""width:200px; border:14px solid green;"">","null","","","","","","","","","",""
"","image-keyboard-response","120","64297","0.0-120.0","3RUIQRXJBCA18JVJC1CKLW9N9PFLLK","A1YDQJXMEUVSY7","3P7RGTLO6EZ76AO3386R8ZK9IWWKAW","","529","img/land1.png","76","530.2999999970198","3","0","1","2","0.8,0.2,0.2,0.2,0.8,0.2,0.2,0.2,0.8","0.2,0.2,0.8,0.8,0.2,0.2,0.2,0.8,0.2","2","",""
"","html-keyboard-response","121","64599","0.0-121.0","3RUIQRXJBCA18JVJC1CKLW9N9PFLLK","A1YDQJXMEUVSY7","3P7RGTLO6EZ76AO3386R8ZK9IWWKAW","","null","<img src=""img/land1.png"" style=""width:200px;border:14px solid red;"">","null","","","","","","","","","",""
"","image-keyboard-response","122","64913","0.0-122.0","3RUIQRXJBCA18JVJC1CKLW9N9PFLLK","A1YDQJXMEUVSY7","3P7RGTLO6EZ76AO3386R8ZK9IWWKAW","","312.30000001192093","img/land1.png","76","312.8999999910593","3","1","1","2","0.8,0.2,0.2,0.2,0.8,0.2,0.2,0.2,0.8","0.2,0.2,0.8,0.8,0.2,0.2,0.2,0.8,0.2","2","",""
"","html-keyboard-response","123","65215","0.0-123.0","3RUIQRXJBCA18JVJC1CKLW9N9PFLLK","A1YDQJXMEUVSY7","3P7RGTLO6EZ76AO3386R8ZK9IWWKAW","","null","<img src=""img/land1.png"" style=""width:200px; border:14px solid green;"">","null","","","","","","","","","",""
"","image-keyboard-response","124","65553","0.0-124.0","3RUIQRXJBCA18JVJC1CKLW9N9PFLLK","A1YDQJXMEUVSY7","3P7RGTLO6EZ76AO3386R8ZK9IWWKAW","","336.70000000298023","img/land1.png","76","337.29999999701977","3","1","1","2","0.8,0.2,0.2,0.2,0.8,0.2,0.2,0.2,0.8","0.2,0.2,0.8,0.8,0.2,0.2,0.2,0.8,0.2","2","",""
"","html-keyboard-response","125","65855","0.0-125.0","3RUIQRXJBCA18JVJC1CKLW9N9PFLLK","A1YDQJXMEUVSY7","3P7RGTLO6EZ76AO3386R8ZK9IWWKAW","","null","<img src=""img/land1.png"" style=""width:200px; border:14px solid green;"">","null","","","","","","","","","",""
"","image-keyboard-response","126","66178","0.0-126.0","3RUIQRXJBCA18JVJC1CKLW9N9PFLLK","A1YDQJXMEUVSY7","3P7RGTLO6EZ76AO3386R8ZK9IWWKAW","","321.5","img/land1.png","76","322.5","3","1","1","2","0.8,0.2,0.2,0.2,0.8,0.2,0.2,0.2,0.8","0.2,0.2,0.8,0.8,0.2,0.2,0.2,0.8,0.2","2","",""
"","html-keyboard-response","127","66480","0.0-127.0","3RUIQRXJBCA18JVJC1CKLW9N9PFLLK","A1YDQJXMEUVSY7","3P7RGTLO6EZ76AO3386R8ZK9IWWKAW","","null","<img src=""img/land1.png"" style=""width:200px; border:14px solid green;"">","null","","","","","","","","","",""
"","image-keyboard-response","128","67249","0.0-128.0","3RUIQRXJBCA18JVJC1CKLW9N9PFLLK","A1YDQJXMEUVSY7","3P7RGTLO6EZ76AO3386R8ZK9IWWKAW","","766.7999999970198","img/land5.png","74","768.2000000029802","1","1","2","2","0.8,0.2,0.2,0.2,0.8,0.2,0.2,0.2,0.8","0.2,0.2,0.8,0.8,0.2,0.2,0.2,0.8,0.2","2","",""
"","html-keyboard-response","129","67551","0.0-129.0","3RUIQRXJBCA18JVJC1CKLW9N9PFLLK","A1YDQJXMEUVSY7","3P7RGTLO6EZ76AO3386R8ZK9IWWKAW","","null","<img src=""img/land5.png"" style=""width:200px; border:14px solid green;"">","null","","","","","","","","","",""
"","image-keyboard-response","130","68242","0.0-130.0","3RUIQRXJBCA18JVJC1CKLW9N9PFLLK","A1YDQJXMEUVSY7","3P7RGTLO6EZ76AO3386R8ZK9IWWKAW","","688.4000000059605","img/land1.png","76","690","3","1","1","2","0.8,0.2,0.2,0.2,0.8,0.2,0.2,0.2,0.8","0.2,0.2,0.8,0.8,0.2,0.2,0.2,0.8,0.2","2","",""
"","html-keyboard-response","131","68544","0.0-131.0","3RUIQRXJBCA18JVJC1CKLW9N9PFLLK","A1YDQJXMEUVSY7","3P7RGTLO6EZ76AO3386R8ZK9IWWKAW","","null","<img src=""img/land1.png"" style=""width:200px; border:14px solid green;"">","null","","","","","","","","","",""
"","image-keyboard-response","132","68833","0.0-132.0","3RUIQRXJBCA18JVJC1CKLW9N9PFLLK","A1YDQJXMEUVSY7","3P7RGTLO6EZ76AO3386R8ZK9IWWKAW","","287.09999999403954","img/land5.png","76","288.29999999701977","3","0","2","2","0.8,0.2,0.2,0.2,0.8,0.2,0.2,0.2,0.8","0.2,0.2,0.8,0.8,0.2,0.2,0.2,0.8,0.2","2","",""
"","html-keyboard-response","133","69134","0.0-133.0","3RUIQRXJBCA18JVJC1CKLW9N9PFLLK","A1YDQJXMEUVSY7","3P7RGTLO6EZ76AO3386R8ZK9IWWKAW","","null","<img src=""img/land5.png"" style=""width:200px;border:14px solid red;"">","null","","","","","","","","","",""
"","image-keyboard-response","134","69889","0.0-134.0","3RUIQRXJBCA18JVJC1CKLW9N9PFLLK","A1YDQJXMEUVSY7","3P7RGTLO6EZ76AO3386R8ZK9IWWKAW","","753.7999999970198","img/land4.png","74","754.6000000089407","1","1","3","2","0.8,0.2,0.2,0.2,0.8,0.2,0.2,0.2,0.8","0.2,0.2,0.8,0.8,0.2,0.2,0.2,0.8,0.2","2","",""
"","html-keyboard-response","135","70190","0.0-135.0","3RUIQRXJBCA18JVJC1CKLW9N9PFLLK","A1YDQJXMEUVSY7","3P7RGTLO6EZ76AO3386R8ZK9IWWKAW","","null","<img src=""img/land4.png"" style=""width:200px; border:14px solid green;"">","null","","","","","","","","","",""
"","image-keyboard-response","136","70705","0.0-136.0","3RUIQRXJBCA18JVJC1CKLW9N9PFLLK","A1YDQJXMEUVSY7","3P7RGTLO6EZ76AO3386R8ZK9IWWKAW","","514.4000000059605","img/land1.png","76","515.3999999910593","3","1","1","2","0.8,0.2,0.2,0.2,0.8,0.2,0.2,0.2,0.8","0.2,0.2,0.8,0.8,0.2,0.2,0.2,0.8,0.2","2","",""
"","html-keyboard-response","137","71007","0.0-137.0","3RUIQRXJBCA18JVJC1CKLW9N9PFLLK","A1YDQJXMEUVSY7","3P7RGTLO6EZ76AO3386R8ZK9IWWKAW","","null","<img src=""img/land1.png"" style=""width:200px; border:14px solid green;"">","null","","","","","","","","","",""
"","image-keyboard-response","138","71570","0.0-138.0","3RUIQRXJBCA18JVJC1CKLW9N9PFLLK","A1YDQJXMEUVSY7","3P7RGTLO6EZ76AO3386R8ZK9IWWKAW","","559.7000000029802","img/land4.png","75","562.2000000029802","2","0","3","2","0.8,0.2,0.2,0.2,0.8,0.2,0.2,0.2,0.8","0.2,0.2,0.8,0.8,0.2,0.2,0.2,0.8,0.2","2","",""
"","html-keyboard-response","139","71873","0.0-139.0","3RUIQRXJBCA18JVJC1CKLW9N9PFLLK","A1YDQJXMEUVSY7","3P7RGTLO6EZ76AO3386R8ZK9IWWKAW","","null","<img src=""img/land4.png"" style=""width:200px;border:14px solid red;"">","null","","","","","","","","","",""
"","image-keyboard-response","140","72433","0.0-140.0","3RUIQRXJBCA18JVJC1CKLW9N9PFLLK","A1YDQJXMEUVSY7","3P7RGTLO6EZ76AO3386R8ZK9IWWKAW","","557.8999999910593","img/land1.png","76","559.0999999940395","3","1","1","2","0.8,0.2,0.2,0.2,0.8,0.2,0.2,0.2,0.8","0.2,0.2,0.8,0.8,0.2,0.2,0.2,0.8,0.2","2","",""
"","html-keyboard-response","141","72734","0.0-141.0","3RUIQRXJBCA18JVJC1CKLW9N9PFLLK","A1YDQJXMEUVSY7","3P7RGTLO6EZ76AO3386R8ZK9IWWKAW","","null","<img src=""img/land1.png"" style=""width:200px; border:14px solid green;"">","null","","","","","","","","","",""
"","image-keyboard-response","142","73546","0.0-142.0","3RUIQRXJBCA18JVJC1CKLW9N9PFLLK","A1YDQJXMEUVSY7","3P7RGTLO6EZ76AO3386R8ZK9IWWKAW","","809.5999999940395","img/land5.png","74","811.1000000089407","1","1","2","2","0.8,0.2,0.2,0.2,0.8,0.2,0.2,0.2,0.8","0.2,0.2,0.8,0.8,0.2,0.2,0.2,0.8,0.2","2","",""
"","html-keyboard-response","143","73848","0.0-143.0","3RUIQRXJBCA18JVJC1CKLW9N9PFLLK","A1YDQJXMEUVSY7","3P7RGTLO6EZ76AO3386R8ZK9IWWKAW","","null","<img src=""img/land5.png"" style=""width:200px; border:14px solid green;"">","null","","","","","","","","","",""
"","image-keyboard-response","144","74585","0.0-144.0","3RUIQRXJBCA18JVJC1CKLW9N9PFLLK","A1YDQJXMEUVSY7","3P7RGTLO6EZ76AO3386R8ZK9IWWKAW","","735.2999999970198","img/land4.png","75","736.8999999910593","2","0","3","2","0.8,0.2,0.2,0.2,0.8,0.2,0.2,0.2,0.8","0.2,0.2,0.8,0.8,0.2,0.2,0.2,0.8,0.2","2","",""
"","html-keyboard-response","145","74888","0.0-145.0","3RUIQRXJBCA18JVJC1CKLW9N9PFLLK","A1YDQJXMEUVSY7","3P7RGTLO6EZ76AO3386R8ZK9IWWKAW","","null","<img src=""img/land4.png"" style=""width:200px;border:14px solid red;"">","null","","","","","","","","","",""
"","image-keyboard-response","146","75530","0.0-146.0","3RUIQRXJBCA18JVJC1CKLW9N9PFLLK","A1YDQJXMEUVSY7","3P7RGTLO6EZ76AO3386R8ZK9IWWKAW","","639.5","img/land1.png","76","641","3","1","1","2","0.8,0.2,0.2,0.2,0.8,0.2,0.2,0.2,0.8","0.2,0.2,0.8,0.8,0.2,0.2,0.2,0.8,0.2","2","",""
"","html-keyboard-response","147","75832","0.0-147.0","3RUIQRXJBCA18JVJC1CKLW9N9PFLLK","A1YDQJXMEUVSY7","3P7RGTLO6EZ76AO3386R8ZK9IWWKAW","","null","<img src=""img/land1.png"" style=""width:200px; border:14px solid green;"">","null","","","","","","","","","",""
"","image-keyboard-response","148","76306","0.0-148.0","3RUIQRXJBCA18JVJC1CKLW9N9PFLLK","A1YDQJXMEUVSY7","3P7RGTLO6EZ76AO3386R8ZK9IWWKAW","","472","img/land1.png","76","473.3999999910593","3","1","1","2","0.8,0.2,0.2,0.2,0.8,0.2,0.2,0.2,0.8","0.2,0.2,0.8,0.8,0.2,0.2,0.2,0.8,0.2","2","",""
"","html-keyboard-response","149","76608","0.0-149.0","3RUIQRXJBCA18JVJC1CKLW9N9PFLLK","A1YDQJXMEUVSY7","3P7RGTLO6EZ76AO3386R8ZK9IWWKAW","","null","<img src=""img/land1.png"" style=""width:200px; border:14px solid green;"">","null","","","","","","","","","",""
"","image-keyboard-response","150","77193","0.0-150.0","3RUIQRXJBCA18JVJC1CKLW9N9PFLLK","A1YDQJXMEUVSY7","3P7RGTLO6EZ76AO3386R8ZK9IWWKAW","","582.2000000029802","img/land4.png","75","583.9000000059605","2","1","3","2","0.8,0.2,0.2,0.2,0.8,0.2,0.2,0.2,0.8","0.2,0.2,0.8,0.8,0.2,0.2,0.2,0.8,0.2","2","",""
"","html-keyboard-response","151","77496","0.0-151.0","3RUIQRXJBCA18JVJC1CKLW9N9PFLLK","A1YDQJXMEUVSY7","3P7RGTLO6EZ76AO3386R8ZK9IWWKAW","","null","<img src=""img/land4.png"" style=""width:200px; border:14px solid green;"">","null","","","","","","","","","",""
"","image-keyboard-response","152","78002","0.0-152.0","3RUIQRXJBCA18JVJC1CKLW9N9PFLLK","A1YDQJXMEUVSY7","3P7RGTLO6EZ76AO3386R8ZK9IWWKAW","","503.29999999701977","img/land5.png","76","505.3999999910593","3","0","2","2","0.8,0.2,0.2,0.2,0.8,0.2,0.2,0.2,0.8","0.2,0.2,0.8,0.8,0.2,0.2,0.2,0.8,0.2","2","",""
"","html-keyboard-response","153","78305","0.0-153.0","3RUIQRXJBCA18JVJC1CKLW9N9PFLLK","A1YDQJXMEUVSY7","3P7RGTLO6EZ76AO3386R8ZK9IWWKAW","","null","<img src=""img/land5.png"" style=""width:200px;border:14px solid red;"">","null","","","","","","","","","",""
"","image-keyboard-response","154","78937","0.0-154.0","3RUIQRXJBCA18JVJC1CKLW9N9PFLLK","A1YDQJXMEUVSY7","3P7RGTLO6EZ76AO3386R8ZK9IWWKAW","","630.5","img/land1.png","76","632.0999999940395","3","1","1","2","0.8,0.2,0.2,0.2,0.8,0.2,0.2,0.2,0.8","0.2,0.2,0.8,0.8,0.2,0.2,0.2,0.8,0.2","2","",""
"","html-keyboard-response","155","79240","0.0-155.0","3RUIQRXJBCA18JVJC1CKLW9N9PFLLK","A1YDQJXMEUVSY7","3P7RGTLO6EZ76AO3386R8ZK9IWWKAW","","null","<img src=""img/land1.png"" style=""width:200px; border:14px solid green;"">","null","","","","","","","","","",""
"","image-keyboard-response","156","79577","0.0-156.0","3RUIQRXJBCA18JVJC1CKLW9N9PFLLK","A1YDQJXMEUVSY7","3P7RGTLO6EZ76AO3386R8ZK9IWWKAW","","335.6000000089407","img/land1.png","76","337.09999999403954","3","1","1","2","0.8,0.2,0.2,0.2,0.8,0.2,0.2,0.2,0.8","0.2,0.2,0.8,0.8,0.2,0.2,0.2,0.8,0.2","2","",""
"","html-keyboard-response","157","79881","0.0-157.0","3RUIQRXJBCA18JVJC1CKLW9N9PFLLK","A1YDQJXMEUVSY7","3P7RGTLO6EZ76AO3386R8ZK9IWWKAW","","null","<img src=""img/land1.png"" style=""width:200px; border:14px solid green;"">","null","","","","","","","","","",""
"","image-keyboard-response","158","80593","0.0-158.0","3RUIQRXJBCA18JVJC1CKLW9N9PFLLK","A1YDQJXMEUVSY7","3P7RGTLO6EZ76AO3386R8ZK9IWWKAW","","710.1000000089407","img/land5.png","74","711.2999999970198","1","1","2","2","0.8,0.2,0.2,0.2,0.8,0.2,0.2,0.2,0.8","0.2,0.2,0.8,0.8,0.2,0.2,0.2,0.8,0.2","2","",""
"","html-keyboard-response","159","80895","0.0-159.0","3RUIQRXJBCA18JVJC1CKLW9N9PFLLK","A1YDQJXMEUVSY7","3P7RGTLO6EZ76AO3386R8ZK9IWWKAW","","null","<img src=""img/land5.png"" style=""width:200px; border:14px solid green;"">","null","","","","","","","","","",""
"","image-keyboard-response","160","81666","0.0-160.0","3RUIQRXJBCA18JVJC1CKLW9N9PFLLK","A1YDQJXMEUVSY7","3P7RGTLO6EZ76AO3386R8ZK9IWWKAW","","769.5","img/land1.png","76","770.5","3","1","1","2","0.8,0.2,0.2,0.2,0.8,0.2,0.2,0.2,0.8","0.2,0.2,0.8,0.8,0.2,0.2,0.2,0.8,0.2","2","",""
"","html-keyboard-response","161","81968","0.0-161.0","3RUIQRXJBCA18JVJC1CKLW9N9PFLLK","A1YDQJXMEUVSY7","3P7RGTLO6EZ76AO3386R8ZK9IWWKAW","","null","<img src=""img/land1.png"" style=""width:200px; border:14px solid green;"">","null","","","","","","","","","",""
"","image-keyboard-response","162","82698","0.0-162.0","3RUIQRXJBCA18JVJC1CKLW9N9PFLLK","A1YDQJXMEUVSY7","3P7RGTLO6EZ76AO3386R8ZK9IWWKAW","","727.5","img/land4.png","75","729.0999999940395","2","1","3","2","0.8,0.2,0.2,0.2,0.8,0.2,0.2,0.2,0.8","0.2,0.2,0.8,0.8,0.2,0.2,0.2,0.8,0.2","2","",""
"","html-keyboard-response","163","83000","0.0-163.0","3RUIQRXJBCA18JVJC1CKLW9N9PFLLK","A1YDQJXMEUVSY7","3P7RGTLO6EZ76AO3386R8ZK9IWWKAW","","null","<img src=""img/land4.png"" style=""width:200px; border:14px solid green;"">","null","","","","","","","","","",""
"","image-keyboard-response","164","83522","0.0-164.0","3RUIQRXJBCA18JVJC1CKLW9N9PFLLK","A1YDQJXMEUVSY7","3P7RGTLO6EZ76AO3386R8ZK9IWWKAW","","519.5","img/land1.png","76","521.0999999940395","3","1","1","2","0.8,0.2,0.2,0.2,0.8,0.2,0.2,0.2,0.8","0.2,0.2,0.8,0.8,0.2,0.2,0.2,0.8,0.2","2","",""
"","html-keyboard-response","165","83825","0.0-165.0","3RUIQRXJBCA18JVJC1CKLW9N9PFLLK","A1YDQJXMEUVSY7","3P7RGTLO6EZ76AO3386R8ZK9IWWKAW","","null","<img src=""img/land1.png"" style=""width:200px; border:14px solid green;"">","null","","","","","","","","","",""
"","image-keyboard-response","166","84386","0.0-166.0","3RUIQRXJBCA18JVJC1CKLW9N9PFLLK","A1YDQJXMEUVSY7","3P7RGTLO6EZ76AO3386R8ZK9IWWKAW","","558.5999999940395","img/land1.png","76","560.1999999880791","3","1","1","2","0.8,0.2,0.2,0.2,0.8,0.2,0.2,0.2,0.8","0.2,0.2,0.8,0.8,0.2,0.2,0.2,0.8,0.2","2","",""
"","html-keyboard-response","167","84688","0.0-167.0","3RUIQRXJBCA18JVJC1CKLW9N9PFLLK","A1YDQJXMEUVSY7","3P7RGTLO6EZ76AO3386R8ZK9IWWKAW","","null","<img src=""img/land1.png"" style=""width:200px; border:14px solid green;"">","null","","","","","","","","","",""
"","image-keyboard-response","168","85242","0.0-168.0","3RUIQRXJBCA18JVJC1CKLW9N9PFLLK","A1YDQJXMEUVSY7","3P7RGTLO6EZ76AO3386R8ZK9IWWKAW","","551.7999999970198","img/land4.png","75","553.2999999970198","2","1","3","2","0.8,0.2,0.2,0.2,0.8,0.2,0.2,0.2,0.8","0.2,0.2,0.8,0.8,0.2,0.2,0.2,0.8,0.2","2","",""
"","html-keyboard-response","169","85545","0.0-169.0","3RUIQRXJBCA18JVJC1CKLW9N9PFLLK","A1YDQJXMEUVSY7","3P7RGTLO6EZ76AO3386R8ZK9IWWKAW","","null","<img src=""img/land4.png"" style=""width:200px; border:14px solid green;"">","null","","","","","","","","","",""
"","image-keyboard-response","170","85994","0.0-170.0","3RUIQRXJBCA18JVJC1CKLW9N9PFLLK","A1YDQJXMEUVSY7","3P7RGTLO6EZ76AO3386R8ZK9IWWKAW","","446.70000000298023","img/land4.png","75","448.29999999701977","2","1","3","2","0.8,0.2,0.2,0.2,0.8,0.2,0.2,0.2,0.8","0.2,0.2,0.8,0.8,0.2,0.2,0.2,0.8,0.2","2","",""
"","html-keyboard-response","171","86297","0.0-171.0","3RUIQRXJBCA18JVJC1CKLW9N9PFLLK","A1YDQJXMEUVSY7","3P7RGTLO6EZ76AO3386R8ZK9IWWKAW","","null","<img src=""img/land4.png"" style=""width:200px; border:14px solid green;"">","null","","","","","","","","","",""
"","image-keyboard-response","172","86994","0.0-172.0","3RUIQRXJBCA18JVJC1CKLW9N9PFLLK","A1YDQJXMEUVSY7","3P7RGTLO6EZ76AO3386R8ZK9IWWKAW","","694.7000000029802","img/land1.png","76","696.1999999880791","3","1","1","2","0.8,0.2,0.2,0.2,0.8,0.2,0.2,0.2,0.8","0.2,0.2,0.8,0.8,0.2,0.2,0.2,0.8,0.2","2","",""
"","html-keyboard-response","173","87298","0.0-173.0","3RUIQRXJBCA18JVJC1CKLW9N9PFLLK","A1YDQJXMEUVSY7","3P7RGTLO6EZ76AO3386R8ZK9IWWKAW","","null","<img src=""img/land1.png"" style=""width:200px; border:14px solid green;"">","null","","","","","","","","","",""
"","image-keyboard-response","174","87657","0.0-174.0","3RUIQRXJBCA18JVJC1CKLW9N9PFLLK","A1YDQJXMEUVSY7","3P7RGTLO6EZ76AO3386R8ZK9IWWKAW","","357.20000000298023","img/land1.png","76","358.29999999701977","3","1","1","2","0.8,0.2,0.2,0.2,0.8,0.2,0.2,0.2,0.8","0.2,0.2,0.8,0.8,0.2,0.2,0.2,0.8,0.2","2","",""
"","html-keyboard-response","175","87959","0.0-175.0","3RUIQRXJBCA18JVJC1CKLW9N9PFLLK","A1YDQJXMEUVSY7","3P7RGTLO6EZ76AO3386R8ZK9IWWKAW","","null","<img src=""img/land1.png"" style=""width:200px; border:14px solid green;"">","null","","","","","","","","","",""
"","image-keyboard-response","176","88361","0.0-176.0","3RUIQRXJBCA18JVJC1CKLW9N9PFLLK","A1YDQJXMEUVSY7","3P7RGTLO6EZ76AO3386R8ZK9IWWKAW","","398.1000000089407","img/land1.png","76","400.59999999403954","3","1","1","2","0.8,0.2,0.2,0.2,0.8,0.2,0.2,0.2,0.8","0.2,0.2,0.8,0.8,0.2,0.2,0.2,0.8,0.2","2","",""
"","html-keyboard-response","177","88663","0.0-177.0","3RUIQRXJBCA18JVJC1CKLW9N9PFLLK","A1YDQJXMEUVSY7","3P7RGTLO6EZ76AO3386R8ZK9IWWKAW","","null","<img src=""img/land1.png"" style=""width:200px; border:14px solid green;"">","null","","","","","","","","","",""
"","image-keyboard-response","178","89217","0.0-178.0","3RUIQRXJBCA18JVJC1CKLW9N9PFLLK","A1YDQJXMEUVSY7","3P7RGTLO6EZ76AO3386R8ZK9IWWKAW","","553.0999999940395","img/land4.png","75","553.7999999970198","2","1","3","2","0.8,0.2,0.2,0.2,0.8,0.2,0.2,0.2,0.8","0.2,0.2,0.8,0.8,0.2,0.2,0.2,0.8,0.2","2","",""
"","html-keyboard-response","179","89519","0.0-179.0","3RUIQRXJBCA18JVJC1CKLW9N9PFLLK","A1YDQJXMEUVSY7","3P7RGTLO6EZ76AO3386R8ZK9IWWKAW","","null","<img src=""img/land4.png"" style=""width:200px; border:14px solid green;"">","null","","","","","","","","","",""
"","image-keyboard-response","180","89890","0.0-180.0","3RUIQRXJBCA18JVJC1CKLW9N9PFLLK","A1YDQJXMEUVSY7","3P7RGTLO6EZ76AO3386R8ZK9IWWKAW","","370.29999999701977","img/land1.png","76","371.20000000298023","3","1","1","2","0.8,0.2,0.2,0.2,0.8,0.2,0.2,0.2,0.8","0.2,0.2,0.8,0.8,0.2,0.2,0.2,0.8,0.2","2","",""
"","html-keyboard-response","181","90193","0.0-181.0","3RUIQRXJBCA18JVJC1CKLW9N9PFLLK","A1YDQJXMEUVSY7","3P7RGTLO6EZ76AO3386R8ZK9IWWKAW","","null","<img src=""img/land1.png"" style=""width:200px; border:14px solid green;"">","null","","","","","","","","","",""
"","image-keyboard-response","182","90425","0.0-182.0","3RUIQRXJBCA18JVJC1CKLW9N9PFLLK","A1YDQJXMEUVSY7","3P7RGTLO6EZ76AO3386R8ZK9IWWKAW","","230.79999999701977","img/land1.png","76","232.29999999701977","3","0","1","2","0.8,0.2,0.2,0.2,0.8,0.2,0.2,0.2,0.8","0.2,0.2,0.8,0.8,0.2,0.2,0.2,0.8,0.2","2","",""
"","html-keyboard-response","183","90729","0.0-183.0","3RUIQRXJBCA18JVJC1CKLW9N9PFLLK","A1YDQJXMEUVSY7","3P7RGTLO6EZ76AO3386R8ZK9IWWKAW","","null","<img src=""img/land1.png"" style=""width:200px;border:14px solid red;"">","null","","","","","","","","","",""
"","image-keyboard-response","184","91306","0.0-184.0","3RUIQRXJBCA18JVJC1CKLW9N9PFLLK","A1YDQJXMEUVSY7","3P7RGTLO6EZ76AO3386R8ZK9IWWKAW","","574.7999999970198","img/land1.png","76","576.3999999910593","3","1","1","2","0.8,0.2,0.2,0.2,0.8,0.2,0.2,0.2,0.8","0.2,0.2,0.8,0.8,0.2,0.2,0.2,0.8,0.2","2","",""
"","html-keyboard-response","185","91609","0.0-185.0","3RUIQRXJBCA18JVJC1CKLW9N9PFLLK","A1YDQJXMEUVSY7","3P7RGTLO6EZ76AO3386R8ZK9IWWKAW","","null","<img src=""img/land1.png"" style=""width:200px; border:14px solid green;"">","null","","","","","","","","","",""
"","image-keyboard-response","186","91938","0.0-186.0","3RUIQRXJBCA18JVJC1CKLW9N9PFLLK","A1YDQJXMEUVSY7","3P7RGTLO6EZ76AO3386R8ZK9IWWKAW","","326.70000000298023","img/land1.png","76","328.29999999701977","3","1","1","2","0.8,0.2,0.2,0.2,0.8,0.2,0.2,0.2,0.8","0.2,0.2,0.8,0.8,0.2,0.2,0.2,0.8,0.2","2","",""
"","html-keyboard-response","187","92240","0.0-187.0","3RUIQRXJBCA18JVJC1CKLW9N9PFLLK","A1YDQJXMEUVSY7","3P7RGTLO6EZ76AO3386R8ZK9IWWKAW","","null","<img src=""img/land1.png"" style=""width:200px; border:14px solid green;"">","null","","","","","","","","","",""
"","image-keyboard-response","188","92714","0.0-188.0","3RUIQRXJBCA18JVJC1CKLW9N9PFLLK","A1YDQJXMEUVSY7","3P7RGTLO6EZ76AO3386R8ZK9IWWKAW","","471.40000000596046","img/land5.png","75","473","2","0","2","2","0.8,0.2,0.2,0.2,0.8,0.2,0.2,0.2,0.8","0.2,0.2,0.8,0.8,0.2,0.2,0.2,0.8,0.2","2","",""
"","html-keyboard-response","189","93017","0.0-189.0","3RUIQRXJBCA18JVJC1CKLW9N9PFLLK","A1YDQJXMEUVSY7","3P7RGTLO6EZ76AO3386R8ZK9IWWKAW","","null","<img src=""img/land5.png"" style=""width:200px;border:14px solid red;"">","null","","","","","","","","","",""
"","image-keyboard-response","190","93434","0.0-190.0","3RUIQRXJBCA18JVJC1CKLW9N9PFLLK","A1YDQJXMEUVSY7","3P7RGTLO6EZ76AO3386R8ZK9IWWKAW","","414.59999999403954","img/land4.png","76","416.09999999403954","3","0","3","2","0.8,0.2,0.2,0.2,0.8,0.2,0.2,0.2,0.8","0.2,0.2,0.8,0.8,0.2,0.2,0.2,0.8,0.2","2","",""
"","html-keyboard-response","191","93736","0.0-191.0","3RUIQRXJBCA18JVJC1CKLW9N9PFLLK","A1YDQJXMEUVSY7","3P7RGTLO6EZ76AO3386R8ZK9IWWKAW","","null","<img src=""img/land4.png"" style=""width:200px;border:14px solid red;"">","null","","","","","","","","","",""
"","image-keyboard-response","192","94361","0.0-192.0","3RUIQRXJBCA18JVJC1CKLW9N9PFLLK","A1YDQJXMEUVSY7","3P7RGTLO6EZ76AO3386R8ZK9IWWKAW","","622.8999999910593","img/land1.png","76","624.1999999880791","3","1","1","2","0.8,0.2,0.2,0.2,0.8,0.2,0.2,0.2,0.8","0.2,0.2,0.8,0.8,0.2,0.2,0.2,0.8,0.2","2","",""
"","html-keyboard-response","193","94662","0.0-193.0","3RUIQRXJBCA18JVJC1CKLW9N9PFLLK","A1YDQJXMEUVSY7","3P7RGTLO6EZ76AO3386R8ZK9IWWKAW","","null","<img src=""img/land1.png"" style=""width:200px; border:14px solid green;"">","null","","","","","","","","","",""
"","image-keyboard-response","194","94905","0.0-194.0","3RUIQRXJBCA18JVJC1CKLW9N9PFLLK","A1YDQJXMEUVSY7","3P7RGTLO6EZ76AO3386R8ZK9IWWKAW","","242.09999999403954","img/land1.png","76","242.79999999701977","3","0","1","2","0.8,0.2,0.2,0.2,0.8,0.2,0.2,0.2,0.8","0.2,0.2,0.8,0.8,0.2,0.2,0.2,0.8,0.2","2","",""
"","html-keyboard-response","195","95207","0.0-195.0","3RUIQRXJBCA18JVJC1CKLW9N9PFLLK","A1YDQJXMEUVSY7","3P7RGTLO6EZ76AO3386R8ZK9IWWKAW","","null","<img src=""img/land1.png"" style=""width:200px;border:14px solid red;"">","null","","","","","","","","","",""
"","image-keyboard-response","196","95834","0.0-196.0","3RUIQRXJBCA18JVJC1CKLW9N9PFLLK","A1YDQJXMEUVSY7","3P7RGTLO6EZ76AO3386R8ZK9IWWKAW","","625.4000000059605","img/land5.png","74","626.4000000059605","1","1","2","2","0.8,0.2,0.2,0.2,0.8,0.2,0.2,0.2,0.8","0.2,0.2,0.8,0.8,0.2,0.2,0.2,0.8,0.2","2","",""
"","html-keyboard-response","197","96136","0.0-197.0","3RUIQRXJBCA18JVJC1CKLW9N9PFLLK","A1YDQJXMEUVSY7","3P7RGTLO6EZ76AO3386R8ZK9IWWKAW","","null","<img src=""img/land5.png"" style=""width:200px; border:14px solid green;"">","null","","","","","","","","","",""
"","image-keyboard-response","198","96657","0.0-198.0","3RUIQRXJBCA18JVJC1CKLW9N9PFLLK","A1YDQJXMEUVSY7","3P7RGTLO6EZ76AO3386R8ZK9IWWKAW","","520","img/land1.png","76","520.7999999970198","3","1","1","2","0.8,0.2,0.2,0.2,0.8,0.2,0.2,0.2,0.8","0.2,0.2,0.8,0.8,0.2,0.2,0.2,0.8,0.2","2","",""
"","html-keyboard-response","199","96959","0.0-199.0","3RUIQRXJBCA18JVJC1CKLW9N9PFLLK","A1YDQJXMEUVSY7","3P7RGTLO6EZ76AO3386R8ZK9IWWKAW","","null","<img src=""img/land1.png"" style=""width:200px; border:14px solid green;"">","null","","","","","","","","","",""
"","image-keyboard-response","200","97177","0.0-200.0","3RUIQRXJBCA18JVJC1CKLW9N9PFLLK","A1YDQJXMEUVSY7","3P7RGTLO6EZ76AO3386R8ZK9IWWKAW","","217.29999999701977","img/land4.png","76","218.29999999701977","3","1","3","2","0.8,0.2,0.2,0.2,0.8,0.2,0.2,0.2,0.8","0.2,0.2,0.8,0.8,0.2,0.2,0.2,0.8,0.2","2","",""
"","html-keyboard-response","201","97480","0.0-201.0","3RUIQRXJBCA18JVJC1CKLW9N9PFLLK","A1YDQJXMEUVSY7","3P7RGTLO6EZ76AO3386R8ZK9IWWKAW","","null","<img src=""img/land4.png"" style=""width:200px; border:14px solid green;"">","null","","","","","","","","","",""
"","image-keyboard-response","202","98289","0.0-202.0","3RUIQRXJBCA18JVJC1CKLW9N9PFLLK","A1YDQJXMEUVSY7","3P7RGTLO6EZ76AO3386R8ZK9IWWKAW","","808.9000000059605","img/land4.png","75","809.7999999970198","2","1","3","2","0.8,0.2,0.2,0.2,0.8,0.2,0.2,0.2,0.8","0.2,0.2,0.8,0.8,0.2,0.2,0.2,0.8,0.2","2","",""
"","html-keyboard-response","203","98593","0.0-203.0","3RUIQRXJBCA18JVJC1CKLW9N9PFLLK","A1YDQJXMEUVSY7","3P7RGTLO6EZ76AO3386R8ZK9IWWKAW","","null","<img src=""img/land4.png"" style=""width:200px; border:14px solid green;"">","null","","","","","","","","","",""
"","image-keyboard-response","204","98810","0.0-204.0","3RUIQRXJBCA18JVJC1CKLW9N9PFLLK","A1YDQJXMEUVSY7","3P7RGTLO6EZ76AO3386R8ZK9IWWKAW","","214.70000000298023","img/land1.png","75","216.20000000298023","2","0","1","2","0.8,0.2,0.2,0.2,0.8,0.2,0.2,0.2,0.8","0.2,0.2,0.8,0.8,0.2,0.2,0.2,0.8,0.2","2","",""
"","html-keyboard-response","205","99113","0.0-205.0","3RUIQRXJBCA18JVJC1CKLW9N9PFLLK","A1YDQJXMEUVSY7","3P7RGTLO6EZ76AO3386R8ZK9IWWKAW","","null","<img src=""img/land1.png"" style=""width:200px;border:14px solid red;"">","null","","","","","","","","","",""
"","image-keyboard-response","206","99377","0.0-206.0","3RUIQRXJBCA18JVJC1CKLW9N9PFLLK","A1YDQJXMEUVSY7","3P7RGTLO6EZ76AO3386R8ZK9IWWKAW","","262.6000000089407","img/land1.png","76","264.20000000298023","3","0","1","2","0.8,0.2,0.2,0.2,0.8,0.2,0.2,0.2,0.8","0.2,0.2,0.8,0.8,0.2,0.2,0.2,0.8,0.2","2","",""
"","html-keyboard-response","207","99680","0.0-207.0","3RUIQRXJBCA18JVJC1CKLW9N9PFLLK","A1YDQJXMEUVSY7","3P7RGTLO6EZ76AO3386R8ZK9IWWKAW","","null","<img src=""img/land1.png"" style=""width:200px;border:14px solid red;"">","null","","","","","","","","","",""
"","image-keyboard-response","208","100121","0.0-208.0","3RUIQRXJBCA18JVJC1CKLW9N9PFLLK","A1YDQJXMEUVSY7","3P7RGTLO6EZ76AO3386R8ZK9IWWKAW","","438.90000000596046","img/land1.png","76","440.29999999701977","3","0","1","2","0.8,0.2,0.2,0.2,0.8,0.2,0.2,0.2,0.8","0.2,0.2,0.8,0.8,0.2,0.2,0.2,0.8,0.2","2","",""
"","html-keyboard-response","209","100425","0.0-209.0","3RUIQRXJBCA18JVJC1CKLW9N9PFLLK","A1YDQJXMEUVSY7","3P7RGTLO6EZ76AO3386R8ZK9IWWKAW","","null","<img src=""img/land1.png"" style=""width:200px;border:14px solid red;"">","null","","","","","","","","","",""
"","image-keyboard-response","210","100777","0.0-210.0","3RUIQRXJBCA18JVJC1CKLW9N9PFLLK","A1YDQJXMEUVSY7","3P7RGTLO6EZ76AO3386R8ZK9IWWKAW","","350.70000000298023","img/land1.png","76","352.20000000298023","3","1","1","2","0.8,0.2,0.2,0.2,0.8,0.2,0.2,0.2,0.8","0.2,0.2,0.8,0.8,0.2,0.2,0.2,0.8,0.2","2","",""
"","html-keyboard-response","211","101080","0.0-211.0","3RUIQRXJBCA18JVJC1CKLW9N9PFLLK","A1YDQJXMEUVSY7","3P7RGTLO6EZ76AO3386R8ZK9IWWKAW","","null","<img src=""img/land1.png"" style=""width:200px; border:14px solid green;"">","null","","","","","","","","","",""
"","image-keyboard-response","212","102066","0.0-212.0","3RUIQRXJBCA18JVJC1CKLW9N9PFLLK","A1YDQJXMEUVSY7","3P7RGTLO6EZ76AO3386R8ZK9IWWKAW","","983.8000000119209","img/land5.png","74","985.2999999970198","1","0","2","2","0.8,0.2,0.2,0.2,0.8,0.2,0.2,0.2,0.8","0.2,0.2,0.8,0.8,0.2,0.2,0.2,0.8,0.2","2","",""
"","html-keyboard-response","213","102369","0.0-213.0","3RUIQRXJBCA18JVJC1CKLW9N9PFLLK","A1YDQJXMEUVSY7","3P7RGTLO6EZ76AO3386R8ZK9IWWKAW","","null","<img src=""img/land5.png"" style=""width:200px;border:14px solid red;"">","null","","","","","","","","","",""
"","image-keyboard-response","214","102906","0.0-214.0","3RUIQRXJBCA18JVJC1CKLW9N9PFLLK","A1YDQJXMEUVSY7","3P7RGTLO6EZ76AO3386R8ZK9IWWKAW","","534.7000000029802","img/land1.png","76","536.2999999970198","3","0","1","2","0.8,0.2,0.2,0.2,0.8,0.2,0.2,0.2,0.8","0.2,0.2,0.8,0.8,0.2,0.2,0.2,0.8,0.2","2","",""
"","html-keyboard-response","215","103208","0.0-215.0","3RUIQRXJBCA18JVJC1CKLW9N9PFLLK","A1YDQJXMEUVSY7","3P7RGTLO6EZ76AO3386R8ZK9IWWKAW","","null","<img src=""img/land1.png"" style=""width:200px;border:14px solid red;"">","null","","","","","","","","","",""
"","image-keyboard-response","216","103473","0.0-216.0","3RUIQRXJBCA18JVJC1CKLW9N9PFLLK","A1YDQJXMEUVSY7","3P7RGTLO6EZ76AO3386R8ZK9IWWKAW","","263.29999999701977","img/land1.png","76","264.70000000298023","3","1","1","2","0.8,0.2,0.2,0.2,0.8,0.2,0.2,0.2,0.8","0.2,0.2,0.8,0.8,0.2,0.2,0.2,0.8,0.2","2","",""
"","html-keyboard-response","217","103776","0.0-217.0","3RUIQRXJBCA18JVJC1CKLW9N9PFLLK","A1YDQJXMEUVSY7","3P7RGTLO6EZ76AO3386R8ZK9IWWKAW","","null","<img src=""img/land1.png"" style=""width:200px; border:14px solid green;"">","null","","","","","","","","","",""
"","image-keyboard-response","218","104162","0.0-218.0","3RUIQRXJBCA18JVJC1CKLW9N9PFLLK","A1YDQJXMEUVSY7","3P7RGTLO6EZ76AO3386R8ZK9IWWKAW","","383.70000000298023","img/land1.png","76","385.29999999701977","3","1","1","2","0.8,0.2,0.2,0.2,0.8,0.2,0.2,0.2,0.8","0.2,0.2,0.8,0.8,0.2,0.2,0.2,0.8,0.2","2","",""
"","html-keyboard-response","219","104465","0.0-219.0","3RUIQRXJBCA18JVJC1CKLW9N9PFLLK","A1YDQJXMEUVSY7","3P7RGTLO6EZ76AO3386R8ZK9IWWKAW","","null","<img src=""img/land1.png"" style=""width:200px; border:14px solid green;"">","null","","","","","","","","","",""
"","image-keyboard-response","220","104794","0.0-220.0","3RUIQRXJBCA18JVJC1CKLW9N9PFLLK","A1YDQJXMEUVSY7","3P7RGTLO6EZ76AO3386R8ZK9IWWKAW","","326.79999999701977","img/land1.png","76","328.40000000596046","3","0","1","2","0.8,0.2,0.2,0.2,0.8,0.2,0.2,0.2,0.8","0.2,0.2,0.8,0.8,0.2,0.2,0.2,0.8,0.2","2","",""
"","html-keyboard-response","221","105096","0.0-221.0","3RUIQRXJBCA18JVJC1CKLW9N9PFLLK","A1YDQJXMEUVSY7","3P7RGTLO6EZ76AO3386R8ZK9IWWKAW","","null","<img src=""img/land1.png"" style=""width:200px;border:14px solid red;"">","null","","","","","","","","","",""
"","image-keyboard-response","222","105489","0.0-222.0","3RUIQRXJBCA18JVJC1CKLW9N9PFLLK","A1YDQJXMEUVSY7","3P7RGTLO6EZ76AO3386R8ZK9IWWKAW","","389.80000001192093","img/land1.png","76","391.59999999403954","3","1","1","2","0.8,0.2,0.2,0.2,0.8,0.2,0.2,0.2,0.8","0.2,0.2,0.8,0.8,0.2,0.2,0.2,0.8,0.2","2","",""
"","html-keyboard-response","223","105792","0.0-223.0","3RUIQRXJBCA18JVJC1CKLW9N9PFLLK","A1YDQJXMEUVSY7","3P7RGTLO6EZ76AO3386R8ZK9IWWKAW","","null","<img src=""img/land1.png"" style=""width:200px; border:14px solid green;"">","null","","","","","","","","","",""
"","image-keyboard-response","224","106146","0.0-224.0","3RUIQRXJBCA18JVJC1CKLW9N9PFLLK","A1YDQJXMEUVSY7","3P7RGTLO6EZ76AO3386R8ZK9IWWKAW","","352","img/land1.png","76","353.5","3","1","1","2","0.8,0.2,0.2,0.2,0.8,0.2,0.2,0.2,0.8","0.2,0.2,0.8,0.8,0.2,0.2,0.2,0.8,0.2","2","",""
"","html-keyboard-response","225","106449","0.0-225.0","3RUIQRXJBCA18JVJC1CKLW9N9PFLLK","A1YDQJXMEUVSY7","3P7RGTLO6EZ76AO3386R8ZK9IWWKAW","","null","<img src=""img/land1.png"" style=""width:200px; border:14px solid green;"">","null","","","","","","","","","",""
"","image-keyboard-response","226","106777","0.0-226.0","3RUIQRXJBCA18JVJC1CKLW9N9PFLLK","A1YDQJXMEUVSY7","3P7RGTLO6EZ76AO3386R8ZK9IWWKAW","","326","img/land1.png","76","327.20000000298023","3","1","1","2","0.8,0.2,0.2,0.2,0.8,0.2,0.2,0.2,0.8","0.2,0.2,0.8,0.8,0.2,0.2,0.2,0.8,0.2","2","",""
"","html-keyboard-response","227","107078","0.0-227.0","3RUIQRXJBCA18JVJC1CKLW9N9PFLLK","A1YDQJXMEUVSY7","3P7RGTLO6EZ76AO3386R8ZK9IWWKAW","","null","<img src=""img/land1.png"" style=""width:200px; border:14px solid green;"">","null","","","","","","","","","",""
"","image-keyboard-response","228","107426","0.0-228.0","3RUIQRXJBCA18JVJC1CKLW9N9PFLLK","A1YDQJXMEUVSY7","3P7RGTLO6EZ76AO3386R8ZK9IWWKAW","","345.20000000298023","img/land1.png","76","346.8999999910593","3","1","1","2","0.8,0.2,0.2,0.2,0.8,0.2,0.2,0.2,0.8","0.2,0.2,0.8,0.8,0.2,0.2,0.2,0.8,0.2","2","",""
"","html-keyboard-response","229","107728","0.0-229.0","3RUIQRXJBCA18JVJC1CKLW9N9PFLLK","A1YDQJXMEUVSY7","3P7RGTLO6EZ76AO3386R8ZK9IWWKAW","","null","<img src=""img/land1.png"" style=""width:200px; border:14px solid green;"">","null","","","","","","","","","",""
"","image-keyboard-response","230","108049","0.0-230.0","3RUIQRXJBCA18JVJC1CKLW9N9PFLLK","A1YDQJXMEUVSY7","3P7RGTLO6EZ76AO3386R8ZK9IWWKAW","","319.30000001192093","img/land5.png","76","321","3","1","2","2","0.8,0.2,0.2,0.2,0.8,0.2,0.2,0.2,0.8","0.2,0.2,0.8,0.8,0.2,0.2,0.2,0.8,0.2","2","",""
"","html-keyboard-response","231","108352","0.0-231.0","3RUIQRXJBCA18JVJC1CKLW9N9PFLLK","A1YDQJXMEUVSY7","3P7RGTLO6EZ76AO3386R8ZK9IWWKAW","","null","<img src=""img/land5.png"" style=""width:200px; border:14px solid green;"">","null","","","","","","","","","",""
"","image-keyboard-response","232","108945","0.0-232.0","3RUIQRXJBCA18JVJC1CKLW9N9PFLLK","A1YDQJXMEUVSY7","3P7RGTLO6EZ76AO3386R8ZK9IWWKAW","","592.2999999970198","img/land4.png","75","593.3999999910593","2","1","3","2","0.8,0.2,0.2,0.2,0.8,0.2,0.2,0.2,0.8","0.2,0.2,0.8,0.8,0.2,0.2,0.2,0.8,0.2","2","",""
"","html-keyboard-response","233","109247","0.0-233.0","3RUIQRXJBCA18JVJC1CKLW9N9PFLLK","A1YDQJXMEUVSY7","3P7RGTLO6EZ76AO3386R8ZK9IWWKAW","","null","<img src=""img/land4.png"" style=""width:200px; border:14px solid green;"">","null","","","","","","","","","",""
"","image-keyboard-response","234","109810","0.0-234.0","3RUIQRXJBCA18JVJC1CKLW9N9PFLLK","A1YDQJXMEUVSY7","3P7RGTLO6EZ76AO3386R8ZK9IWWKAW","","560.2999999970198","img/land5.png","76","561.8999999910593","3","0","2","2","0.8,0.2,0.2,0.2,0.8,0.2,0.2,0.2,0.8","0.2,0.2,0.8,0.8,0.2,0.2,0.2,0.8,0.2","2","",""
"","html-keyboard-response","235","110112","0.0-235.0","3RUIQRXJBCA18JVJC1CKLW9N9PFLLK","A1YDQJXMEUVSY7","3P7RGTLO6EZ76AO3386R8ZK9IWWKAW","","null","<img src=""img/land5.png"" style=""width:200px;border:14px solid red;"">","null","","","","","","","","","",""
"","image-keyboard-response","236","110705","0.0-236.0","3RUIQRXJBCA18JVJC1CKLW9N9PFLLK","A1YDQJXMEUVSY7","3P7RGTLO6EZ76AO3386R8ZK9IWWKAW","","591.4000000059605","img/land1.png","76","593.0999999940395","3","1","1","2","0.8,0.2,0.2,0.2,0.8,0.2,0.2,0.2,0.8","0.2,0.2,0.8,0.8,0.2,0.2,0.2,0.8,0.2","2","",""
"","html-keyboard-response","237","111010","0.0-237.0","3RUIQRXJBCA18JVJC1CKLW9N9PFLLK","A1YDQJXMEUVSY7","3P7RGTLO6EZ76AO3386R8ZK9IWWKAW","","null","<img src=""img/land1.png"" style=""width:200px; border:14px solid green;"">","null","","","","","","","","","",""
"","image-keyboard-response","238","111585","0.0-238.0","3RUIQRXJBCA18JVJC1CKLW9N9PFLLK","A1YDQJXMEUVSY7","3P7RGTLO6EZ76AO3386R8ZK9IWWKAW","","573","img/land4.png","75","574.7000000029802","2","0","3","2","0.8,0.2,0.2,0.2,0.8,0.2,0.2,0.2,0.8","0.2,0.2,0.8,0.8,0.2,0.2,0.2,0.8,0.2","2","",""
"","html-keyboard-response","239","111887","0.0-239.0","3RUIQRXJBCA18JVJC1CKLW9N9PFLLK","A1YDQJXMEUVSY7","3P7RGTLO6EZ76AO3386R8ZK9IWWKAW","","null","<img src=""img/land4.png"" style=""width:200px;border:14px solid red;"">","null","","","","","","","","","",""
"","image-keyboard-response","240","112274","0.0-240.0","3RUIQRXJBCA18JVJC1CKLW9N9PFLLK","A1YDQJXMEUVSY7","3P7RGTLO6EZ76AO3386R8ZK9IWWKAW","","384.80000001192093","img/land1.png","74","386.29999999701977","1","1","1","2","0.8,0.2,0.2,0.2,0.8,0.2,0.2,0.2,0.8","0.2,0.2,0.8,0.8,0.2,0.2,0.2,0.8,0.2","2","",""
"","html-keyboard-response","241","112576","0.0-241.0","3RUIQRXJBCA18JVJC1CKLW9N9PFLLK","A1YDQJXMEUVSY7","3P7RGTLO6EZ76AO3386R8ZK9IWWKAW","","null","<img src=""img/land1.png"" style=""width:200px; border:14px solid green;"">","null","","","","","","","","","",""
"","image-keyboard-response","242","113209","0.0-242.0","3RUIQRXJBCA18JVJC1CKLW9N9PFLLK","A1YDQJXMEUVSY7","3P7RGTLO6EZ76AO3386R8ZK9IWWKAW","","631.4000000059605","img/land4.png","76","632.8999999910593","3","0","3","2","0.8,0.2,0.2,0.2,0.8,0.2,0.2,0.2,0.8","0.2,0.2,0.8,0.8,0.2,0.2,0.2,0.8,0.2","2","",""
"","html-keyboard-response","243","113512","0.0-243.0","3RUIQRXJBCA18JVJC1CKLW9N9PFLLK","A1YDQJXMEUVSY7","3P7RGTLO6EZ76AO3386R8ZK9IWWKAW","","null","<img src=""img/land4.png"" style=""width:200px;border:14px solid red;"">","null","","","","","","","","","",""
"","image-keyboard-response","244","114297","0.0-244.0","3RUIQRXJBCA18JVJC1CKLW9N9PFLLK","A1YDQJXMEUVSY7","3P7RGTLO6EZ76AO3386R8ZK9IWWKAW","","783.5","img/land1.png","76","785","3","1","1","2","0.8,0.2,0.2,0.2,0.8,0.2,0.2,0.2,0.8","0.2,0.2,0.8,0.8,0.2,0.2,0.2,0.8,0.2","2","",""
"","html-keyboard-response","245","114600","0.0-245.0","3RUIQRXJBCA18JVJC1CKLW9N9PFLLK","A1YDQJXMEUVSY7","3P7RGTLO6EZ76AO3386R8ZK9IWWKAW","","null","<img src=""img/land1.png"" style=""width:200px; border:14px solid green;"">","null","","","","","","","","","",""
"","image-keyboard-response","246","115153","0.0-246.0","3RUIQRXJBCA18JVJC1CKLW9N9PFLLK","A1YDQJXMEUVSY7","3P7RGTLO6EZ76AO3386R8ZK9IWWKAW","","551.7000000029802","img/land5.png","75","553","2","0","2","2","0.8,0.2,0.2,0.2,0.8,0.2,0.2,0.2,0.8","0.2,0.2,0.8,0.8,0.2,0.2,0.2,0.8,0.2","2","",""
"","html-keyboard-response","247","115456","0.0-247.0","3RUIQRXJBCA18JVJC1CKLW9N9PFLLK","A1YDQJXMEUVSY7","3P7RGTLO6EZ76AO3386R8ZK9IWWKAW","","null","<img src=""img/land5.png"" style=""width:200px;border:14px solid red;"">","null","","","","","","","","","",""
"","image-keyboard-response","248","115857","0.0-248.0","3RUIQRXJBCA18JVJC1CKLW9N9PFLLK","A1YDQJXMEUVSY7","3P7RGTLO6EZ76AO3386R8ZK9IWWKAW","","399","img/land5.png","74","400.5","1","1","2","2","0.8,0.2,0.2,0.2,0.8,0.2,0.2,0.2,0.8","0.2,0.2,0.8,0.8,0.2,0.2,0.2,0.8,0.2","2","",""
"","html-keyboard-response","249","116160","0.0-249.0","3RUIQRXJBCA18JVJC1CKLW9N9PFLLK","A1YDQJXMEUVSY7","3P7RGTLO6EZ76AO3386R8ZK9IWWKAW","","null","<img src=""img/land5.png"" style=""width:200px; border:14px solid green;"">","null","","","","","","","","","",""
"","image-keyboard-response","250","116474","0.0-250.0","3RUIQRXJBCA18JVJC1CKLW9N9PFLLK","A1YDQJXMEUVSY7","3P7RGTLO6EZ76AO3386R8ZK9IWWKAW","","312","img/land5.png","74","313.59999999403954","1","1","2","2","0.8,0.2,0.2,0.2,0.8,0.2,0.2,0.2,0.8","0.2,0.2,0.8,0.8,0.2,0.2,0.2,0.8,0.2","2","",""
"","html-keyboard-response","251","116777","0.0-251.0","3RUIQRXJBCA18JVJC1CKLW9N9PFLLK","A1YDQJXMEUVSY7","3P7RGTLO6EZ76AO3386R8ZK9IWWKAW","","null","<img src=""img/land5.png"" style=""width:200px; border:14px solid green;"">","null","","","","","","","","","",""
"","image-keyboard-response","252","117090","0.0-252.0","3RUIQRXJBCA18JVJC1CKLW9N9PFLLK","A1YDQJXMEUVSY7","3P7RGTLO6EZ76AO3386R8ZK9IWWKAW","","310.59999999403954","img/land5.png","74","312.29999999701977","1","1","2","2","0.8,0.2,0.2,0.2,0.8,0.2,0.2,0.2,0.8","0.2,0.2,0.8,0.8,0.2,0.2,0.2,0.8,0.2","2","",""
"","html-keyboard-response","253","117393","0.0-253.0","3RUIQRXJBCA18JVJC1CKLW9N9PFLLK","A1YDQJXMEUVSY7","3P7RGTLO6EZ76AO3386R8ZK9IWWKAW","","null","<img src=""img/land5.png"" style=""width:200px; border:14px solid green;"">","null","","","","","","","","","",""
"","image-keyboard-response","254","118288","0.0-254.0","3RUIQRXJBCA18JVJC1CKLW9N9PFLLK","A1YDQJXMEUVSY7","3P7RGTLO6EZ76AO3386R8ZK9IWWKAW","","894.5","img/land1.png","76","895.2000000029802","3","1","1","2","0.8,0.2,0.2,0.2,0.8,0.2,0.2,0.2,0.8","0.2,0.2,0.8,0.8,0.2,0.2,0.2,0.8,0.2","2","",""
"","html-keyboard-response","255","118593","0.0-255.0","3RUIQRXJBCA18JVJC1CKLW9N9PFLLK","A1YDQJXMEUVSY7","3P7RGTLO6EZ76AO3386R8ZK9IWWKAW","","null","<img src=""img/land1.png"" style=""width:200px; border:14px solid green;"">","null","","","","","","","","","",""
"","image-keyboard-response","256","118936","0.0-256.0","3RUIQRXJBCA18JVJC1CKLW9N9PFLLK","A1YDQJXMEUVSY7","3P7RGTLO6EZ76AO3386R8ZK9IWWKAW","","342.6000000089407","img/land1.png","76","343.29999999701977","3","1","1","2","0.8,0.2,0.2,0.2,0.8,0.2,0.2,0.2,0.8","0.2,0.2,0.8,0.8,0.2,0.2,0.2,0.8,0.2","2","",""
"","html-keyboard-response","257","119238","0.0-257.0","3RUIQRXJBCA18JVJC1CKLW9N9PFLLK","A1YDQJXMEUVSY7","3P7RGTLO6EZ76AO3386R8ZK9IWWKAW","","null","<img src=""img/land1.png"" style=""width:200px; border:14px solid green;"">","null","","","","","","","","","",""
"","image-keyboard-response","258","120040","0.0-258.0","3RUIQRXJBCA18JVJC1CKLW9N9PFLLK","A1YDQJXMEUVSY7","3P7RGTLO6EZ76AO3386R8ZK9IWWKAW","","800.9000000059605","img/land1.png","76","802.2000000029802","3","1","1","2","0.8,0.2,0.2,0.2,0.8,0.2,0.2,0.2,0.8","0.2,0.2,0.8,0.8,0.2,0.2,0.2,0.8,0.2","2","",""
"","html-keyboard-response","259","120342","0.0-259.0","3RUIQRXJBCA18JVJC1CKLW9N9PFLLK","A1YDQJXMEUVSY7","3P7RGTLO6EZ76AO3386R8ZK9IWWKAW","","null","<img src=""img/land1.png"" style=""width:200px; border:14px solid green;"">","null","","","","","","","","","",""
"","image-keyboard-response","260","120681","0.0-260.0","3RUIQRXJBCA18JVJC1CKLW9N9PFLLK","A1YDQJXMEUVSY7","3P7RGTLO6EZ76AO3386R8ZK9IWWKAW","","338.40000000596046","img/land1.png","76","339.20000000298023","3","1","1","2","0.8,0.2,0.2,0.2,0.8,0.2,0.2,0.2,0.8","0.2,0.2,0.8,0.8,0.2,0.2,0.2,0.8,0.2","2","",""
"","html-keyboard-response","261","120984","0.0-261.0","3RUIQRXJBCA18JVJC1CKLW9N9PFLLK","A1YDQJXMEUVSY7","3P7RGTLO6EZ76AO3386R8ZK9IWWKAW","","null","<img src=""img/land1.png"" style=""width:200px; border:14px solid green;"">","null","","","","","","","","","",""
"","image-keyboard-response","262","121345","0.0-262.0","3RUIQRXJBCA18JVJC1CKLW9N9PFLLK","A1YDQJXMEUVSY7","3P7RGTLO6EZ76AO3386R8ZK9IWWKAW","","359.79999999701977","img/land1.png","76","361","3","1","1","2","0.8,0.2,0.2,0.2,0.8,0.2,0.2,0.2,0.8","0.2,0.2,0.8,0.8,0.2,0.2,0.2,0.8,0.2","2","",""
"","html-keyboard-response","263","121649","0.0-263.0","3RUIQRXJBCA18JVJC1CKLW9N9PFLLK","A1YDQJXMEUVSY7","3P7RGTLO6EZ76AO3386R8ZK9IWWKAW","","null","<img src=""img/land1.png"" style=""width:200px; border:14px solid green;"">","null","","","","","","","","","",""
"","image-keyboard-response","264","122330","0.0-264.0","3RUIQRXJBCA18JVJC1CKLW9N9PFLLK","A1YDQJXMEUVSY7","3P7RGTLO6EZ76AO3386R8ZK9IWWKAW","","679.5999999940395","img/land5.png","74","681.1000000089407","1","0","2","2","0.8,0.2,0.2,0.2,0.8,0.2,0.2,0.2,0.8","0.2,0.2,0.8,0.8,0.2,0.2,0.2,0.8,0.2","2","",""
"","html-keyboard-response","265","122634","0.0-265.0","3RUIQRXJBCA18JVJC1CKLW9N9PFLLK","A1YDQJXMEUVSY7","3P7RGTLO6EZ76AO3386R8ZK9IWWKAW","","null","<img src=""img/land5.png"" style=""width:200px;border:14px solid red;"">","null","","","","","","","","","",""
"","image-keyboard-response","266","123225","0.0-266.0","3RUIQRXJBCA18JVJC1CKLW9N9PFLLK","A1YDQJXMEUVSY7","3P7RGTLO6EZ76AO3386R8ZK9IWWKAW","","590.1000000089407","img/land1.png","76","591.3999999910593","3","1","1","2","0.8,0.2,0.2,0.2,0.8,0.2,0.2,0.2,0.8","0.2,0.2,0.8,0.8,0.2,0.2,0.2,0.8,0.2","2","",""
"","html-keyboard-response","267","123528","0.0-267.0","3RUIQRXJBCA18JVJC1CKLW9N9PFLLK","A1YDQJXMEUVSY7","3P7RGTLO6EZ76AO3386R8ZK9IWWKAW","","null","<img src=""img/land1.png"" style=""width:200px; border:14px solid green;"">","null","","","","","","","","","",""
"","image-keyboard-response","268","123809","0.0-268.0","3RUIQRXJBCA18JVJC1CKLW9N9PFLLK","A1YDQJXMEUVSY7","3P7RGTLO6EZ76AO3386R8ZK9IWWKAW","","279.40000000596046","img/land5.png","76","280.79999999701977","3","0","2","2","0.8,0.2,0.2,0.2,0.8,0.2,0.2,0.2,0.8","0.2,0.2,0.8,0.8,0.2,0.2,0.2,0.8,0.2","2","",""
"","html-keyboard-response","269","124113","0.0-269.0","3RUIQRXJBCA18JVJC1CKLW9N9PFLLK","A1YDQJXMEUVSY7","3P7RGTLO6EZ76AO3386R8ZK9IWWKAW","","null","<img src=""img/land5.png"" style=""width:200px;border:14px solid red;"">","null","","","","","","","","","",""
"","image-keyboard-response","270","124336","0.0-270.0","3RUIQRXJBCA18JVJC1CKLW9N9PFLLK","A1YDQJXMEUVSY7","3P7RGTLO6EZ76AO3386R8ZK9IWWKAW","","220","img/land1.png","74","222.5","1","0","1","2","0.8,0.2,0.2,0.2,0.8,0.2,0.2,0.2,0.8","0.2,0.2,0.8,0.8,0.2,0.2,0.2,0.8,0.2","2","",""
"","html-keyboard-response","271","124638","0.0-271.0","3RUIQRXJBCA18JVJC1CKLW9N9PFLLK","A1YDQJXMEUVSY7","3P7RGTLO6EZ76AO3386R8ZK9IWWKAW","","null","<img src=""img/land1.png"" style=""width:200px;border:14px solid red;"">","null","","","","","","","","","",""
"","image-keyboard-response","272","124952","0.0-272.0","3RUIQRXJBCA18JVJC1CKLW9N9PFLLK","A1YDQJXMEUVSY7","3P7RGTLO6EZ76AO3386R8ZK9IWWKAW","","312.90000000596046","img/land1.png","76","313.69999998807907","3","1","1","2","0.8,0.2,0.2,0.2,0.8,0.2,0.2,0.2,0.8","0.2,0.2,0.8,0.8,0.2,0.2,0.2,0.8,0.2","2","",""
"","html-keyboard-response","273","125254","0.0-273.0","3RUIQRXJBCA18JVJC1CKLW9N9PFLLK","A1YDQJXMEUVSY7","3P7RGTLO6EZ76AO3386R8ZK9IWWKAW","","null","<img src=""img/land1.png"" style=""width:200px; border:14px solid green;"">","null","","","","","","","","","",""
"","image-keyboard-response","274","125608","0.0-274.0","3RUIQRXJBCA18JVJC1CKLW9N9PFLLK","A1YDQJXMEUVSY7","3P7RGTLO6EZ76AO3386R8ZK9IWWKAW","","353.40000000596046","img/land1.png","76","354.20000000298023","3","1","1","2","0.8,0.2,0.2,0.2,0.8,0.2,0.2,0.2,0.8","0.2,0.2,0.8,0.8,0.2,0.2,0.2,0.8,0.2","2","",""
"","html-keyboard-response","275","125910","0.0-275.0","3RUIQRXJBCA18JVJC1CKLW9N9PFLLK","A1YDQJXMEUVSY7","3P7RGTLO6EZ76AO3386R8ZK9IWWKAW","","null","<img src=""img/land1.png"" style=""width:200px; border:14px solid green;"">","null","","","","","","","","","",""
"","image-keyboard-response","276","126408","0.0-276.0","3RUIQRXJBCA18JVJC1CKLW9N9PFLLK","A1YDQJXMEUVSY7","3P7RGTLO6EZ76AO3386R8ZK9IWWKAW","","497.70000000298023","img/land4.png","75","498.3999999910593","2","0","3","2","0.8,0.2,0.2,0.2,0.8,0.2,0.2,0.2,0.8","0.2,0.2,0.8,0.8,0.2,0.2,0.2,0.8,0.2","2","",""
"","html-keyboard-response","277","126710","0.0-277.0","3RUIQRXJBCA18JVJC1CKLW9N9PFLLK","A1YDQJXMEUVSY7","3P7RGTLO6EZ76AO3386R8ZK9IWWKAW","","null","<img src=""img/land4.png"" style=""width:200px;border:14px solid red;"">","null","","","","","","","","","",""
"","image-keyboard-response","278","127216","0.0-278.0","3RUIQRXJBCA18JVJC1CKLW9N9PFLLK","A1YDQJXMEUVSY7","3P7RGTLO6EZ76AO3386R8ZK9IWWKAW","","506","img/land5.png","76","506.5","3","0","2","2","0.8,0.2,0.2,0.2,0.8,0.2,0.2,0.2,0.8","0.2,0.2,0.8,0.8,0.2,0.2,0.2,0.8,0.2","2","",""
"","html-keyboard-response","279","127518","0.0-279.0","3RUIQRXJBCA18JVJC1CKLW9N9PFLLK","A1YDQJXMEUVSY7","3P7RGTLO6EZ76AO3386R8ZK9IWWKAW","","null","<img src=""img/land5.png"" style=""width:200px;border:14px solid red;"">","null","","","","","","","","","",""
"","image-keyboard-response","280","128361","0.0-280.0","3RUIQRXJBCA18JVJC1CKLW9N9PFLLK","A1YDQJXMEUVSY7","3P7RGTLO6EZ76AO3386R8ZK9IWWKAW","","842.2999999970198","img/land4.png","75","843.4000000059605","2","1","3","2","0.8,0.2,0.2,0.2,0.8,0.2,0.2,0.2,0.8","0.2,0.2,0.8,0.8,0.2,0.2,0.2,0.8,0.2","2","",""
"","html-keyboard-response","281","128664","0.0-281.0","3RUIQRXJBCA18JVJC1CKLW9N9PFLLK","A1YDQJXMEUVSY7","3P7RGTLO6EZ76AO3386R8ZK9IWWKAW","","null","<img src=""img/land4.png"" style=""width:200px; border:14px solid green;"">","null","","","","","","","","","",""
"","image-keyboard-response","282","129121","0.0-282.0","3RUIQRXJBCA18JVJC1CKLW9N9PFLLK","A1YDQJXMEUVSY7","3P7RGTLO6EZ76AO3386R8ZK9IWWKAW","","455.5","img/land5.png","74","456.90000000596046","1","1","2","2","0.8,0.2,0.2,0.2,0.8,0.2,0.2,0.2,0.8","0.2,0.2,0.8,0.8,0.2,0.2,0.2,0.8,0.2","2","",""
"","html-keyboard-response","283","129423","0.0-283.0","3RUIQRXJBCA18JVJC1CKLW9N9PFLLK","A1YDQJXMEUVSY7","3P7RGTLO6EZ76AO3386R8ZK9IWWKAW","","null","<img src=""img/land5.png"" style=""width:200px; border:14px solid green;"">","null","","","","","","","","","",""
"","image-keyboard-response","284","130001","0.0-284.0","3RUIQRXJBCA18JVJC1CKLW9N9PFLLK","A1YDQJXMEUVSY7","3P7RGTLO6EZ76AO3386R8ZK9IWWKAW","","576.4000000059605","img/land5.png","74","577.8999999910593","1","1","2","2","0.8,0.2,0.2,0.2,0.8,0.2,0.2,0.2,0.8","0.2,0.2,0.8,0.8,0.2,0.2,0.2,0.8,0.2","2","",""
"","html-keyboard-response","285","130305","0.0-285.0","3RUIQRXJBCA18JVJC1CKLW9N9PFLLK","A1YDQJXMEUVSY7","3P7RGTLO6EZ76AO3386R8ZK9IWWKAW","","null","<img src=""img/land5.png"" style=""width:200px; border:14px solid green;"">","null","","","","","","","","","",""
"","image-keyboard-response","286","131081","0.0-286.0","3RUIQRXJBCA18JVJC1CKLW9N9PFLLK","A1YDQJXMEUVSY7","3P7RGTLO6EZ76AO3386R8ZK9IWWKAW","","775.2000000029802","img/land1.png","76","776.2999999970198","3","1","1","2","0.8,0.2,0.2,0.2,0.8,0.2,0.2,0.2,0.8","0.2,0.2,0.8,0.8,0.2,0.2,0.2,0.8,0.2","2","",""
"","html-keyboard-response","287","131385","0.0-287.0","3RUIQRXJBCA18JVJC1CKLW9N9PFLLK","A1YDQJXMEUVSY7","3P7RGTLO6EZ76AO3386R8ZK9IWWKAW","","null","<img src=""img/land1.png"" style=""width:200px; border:14px solid green;"">","null","","","","","","","","","",""
"","image-keyboard-response","288","131745","0.0-288.0","3RUIQRXJBCA18JVJC1CKLW9N9PFLLK","A1YDQJXMEUVSY7","3P7RGTLO6EZ76AO3386R8ZK9IWWKAW","","358.6000000089407","img/land1.png","76","360.5","3","1","1","2","0.8,0.2,0.2,0.2,0.8,0.2,0.2,0.2,0.8","0.2,0.2,0.8,0.8,0.2,0.2,0.2,0.8,0.2","2","",""
"","html-keyboard-response","289","132048","0.0-289.0","3RUIQRXJBCA18JVJC1CKLW9N9PFLLK","A1YDQJXMEUVSY7","3P7RGTLO6EZ76AO3386R8ZK9IWWKAW","","null","<img src=""img/land1.png"" style=""width:200px; border:14px solid green;"">","null","","","","","","","","","",""
"","image-keyboard-response","290","132954","0.0-290.0","3RUIQRXJBCA18JVJC1CKLW9N9PFLLK","A1YDQJXMEUVSY7","3P7RGTLO6EZ76AO3386R8ZK9IWWKAW","","903.8999999910593","img/land5.png","74","905.5","1","0","2","2","0.8,0.2,0.2,0.2,0.8,0.2,0.2,0.2,0.8","0.2,0.2,0.8,0.8,0.2,0.2,0.2,0.8,0.2","2","",""
"","html-keyboard-response","291","133257","0.0-291.0","3RUIQRXJBCA18JVJC1CKLW9N9PFLLK","A1YDQJXMEUVSY7","3P7RGTLO6EZ76AO3386R8ZK9IWWKAW","","null","<img src=""img/land5.png"" style=""width:200px;border:14px solid red;"">","null","","","","","","","","","",""
"","image-keyboard-response","292","134169","0.0-292.0","3RUIQRXJBCA18JVJC1CKLW9N9PFLLK","A1YDQJXMEUVSY7","3P7RGTLO6EZ76AO3386R8ZK9IWWKAW","","910.7999999970198","img/land1.png","76","912.2999999970198","3","1","1","2","0.8,0.2,0.2,0.2,0.8,0.2,0.2,0.2,0.8","0.2,0.2,0.8,0.8,0.2,0.2,0.2,0.8,0.2","2","",""
"","html-keyboard-response","293","134473","0.0-293.0","3RUIQRXJBCA18JVJC1CKLW9N9PFLLK","A1YDQJXMEUVSY7","3P7RGTLO6EZ76AO3386R8ZK9IWWKAW","","null","<img src=""img/land1.png"" style=""width:200px; border:14px solid green;"">","null","","","","","","","","","",""
"","image-keyboard-response","294","134753","0.0-294.0","3RUIQRXJBCA18JVJC1CKLW9N9PFLLK","A1YDQJXMEUVSY7","3P7RGTLO6EZ76AO3386R8ZK9IWWKAW","","278.70000000298023","img/land1.png","76","280.29999999701977","3","1","1","2","0.8,0.2,0.2,0.2,0.8,0.2,0.2,0.2,0.8","0.2,0.2,0.8,0.8,0.2,0.2,0.2,0.8,0.2","2","",""
"","html-keyboard-response","295","135056","0.0-295.0","3RUIQRXJBCA18JVJC1CKLW9N9PFLLK","A1YDQJXMEUVSY7","3P7RGTLO6EZ76AO3386R8ZK9IWWKAW","","null","<img src=""img/land1.png"" style=""width:200px; border:14px solid green;"">","null","","","","","","","","","",""
"","image-keyboard-response","296","135825","0.0-296.0","3RUIQRXJBCA18JVJC1CKLW9N9PFLLK","A1YDQJXMEUVSY7","3P7RGTLO6EZ76AO3386R8ZK9IWWKAW","","765.5","img/land4.png","75","766.9000000059605","2","1","3","2","0.8,0.2,0.2,0.2,0.8,0.2,0.2,0.2,0.8","0.2,0.2,0.8,0.8,0.2,0.2,0.2,0.8,0.2","2","",""
"","html-keyboard-response","297","136128","0.0-297.0","3RUIQRXJBCA18JVJC1CKLW9N9PFLLK","A1YDQJXMEUVSY7","3P7RGTLO6EZ76AO3386R8ZK9IWWKAW","","null","<img src=""img/land4.png"" style=""width:200px; border:14px solid green;"">","null","","","","","","","","","",""
"","image-keyboard-response","298","136889","0.0-298.0","3RUIQRXJBCA18JVJC1CKLW9N9PFLLK","A1YDQJXMEUVSY7","3P7RGTLO6EZ76AO3386R8ZK9IWWKAW","","759.5","img/land5.png","76","761","3","0","2","2","0.8,0.2,0.2,0.2,0.8,0.2,0.2,0.2,0.8","0.2,0.2,0.8,0.8,0.2,0.2,0.2,0.8,0.2","2","",""
"","html-keyboard-response","299","137193","0.0-299.0","3RUIQRXJBCA18JVJC1CKLW9N9PFLLK","A1YDQJXMEUVSY7","3P7RGTLO6EZ76AO3386R8ZK9IWWKAW","","null","<img src=""img/land5.png"" style=""width:200px;border:14px solid red;"">","null","","","","","","","","","",""
"","image-keyboard-response","300","138345","0.0-300.0","3RUIQRXJBCA18JVJC1CKLW9N9PFLLK","A1YDQJXMEUVSY7","3P7RGTLO6EZ76AO3386R8ZK9IWWKAW","","1150.6000000089407","img/land1.png","75","1152.2999999970198","2","1","1","2","0.8,0.2,0.2,0.2,0.8,0.2,0.2,0.2,0.8","0.2,0.2,0.8,0.8,0.2,0.2,0.2,0.8,0.2","2","",""
"","html-keyboard-response","301","138647","0.0-301.0","3RUIQRXJBCA18JVJC1CKLW9N9PFLLK","A1YDQJXMEUVSY7","3P7RGTLO6EZ76AO3386R8ZK9IWWKAW","","null","<img src=""img/land1.png"" style=""width:200px; border:14px solid green;"">","null","","","","","","","","","",""
"","image-keyboard-response","302","139697","0.0-302.0","3RUIQRXJBCA18JVJC1CKLW9N9PFLLK","A1YDQJXMEUVSY7","3P7RGTLO6EZ76AO3386R8ZK9IWWKAW","","1047.7999999970198","img/land2.png","74","1049.2000000029802","1","1","1","1","0.8,0.2,0.2,0.2,0.8,0.2,0.2,0.2,0.8","0.8,0.2,0.2,0.2,0.8,0.2,0.2,0.2,0.8","1","",""
"","html-keyboard-response","303","140000","0.0-303.0","3RUIQRXJBCA18JVJC1CKLW9N9PFLLK","A1YDQJXMEUVSY7","3P7RGTLO6EZ76AO3386R8ZK9IWWKAW","","null","<img src=""img/land2.png"" style=""width:200px; border:14px solid green;"">","null","","","","","","","","","",""
"","image-keyboard-response","304","140785","0.0-304.0","3RUIQRXJBCA18JVJC1CKLW9N9PFLLK","A1YDQJXMEUVSY7","3P7RGTLO6EZ76AO3386R8ZK9IWWKAW","","783.4000000059605","img/land3.png","74","785.0999999940395","1","0","2","1","0.8,0.2,0.2,0.2,0.8,0.2,0.2,0.2,0.8","0.8,0.2,0.2,0.2,0.8,0.2,0.2,0.2,0.8","1","",""
"","html-keyboard-response","305","141102","0.0-305.0","3RUIQRXJBCA18JVJC1CKLW9N9PFLLK","A1YDQJXMEUVSY7","3P7RGTLO6EZ76AO3386R8ZK9IWWKAW","","null","<img src=""img/land3.png"" style=""width:200px;border:14px solid red;"">","null","","","","","","","","","",""
"","image-keyboard-response","306","141545","0.0-306.0","3RUIQRXJBCA18JVJC1CKLW9N9PFLLK","A1YDQJXMEUVSY7","3P7RGTLO6EZ76AO3386R8ZK9IWWKAW","","441.5","img/land6.png","75","443","2","0","3","1","0.8,0.2,0.2,0.2,0.8,0.2,0.2,0.2,0.8","0.8,0.2,0.2,0.2,0.8,0.2,0.2,0.2,0.8","1","",""
"","html-keyboard-response","307","141848","0.0-307.0","3RUIQRXJBCA18JVJC1CKLW9N9PFLLK","A1YDQJXMEUVSY7","3P7RGTLO6EZ76AO3386R8ZK9IWWKAW","","null","<img src=""img/land6.png"" style=""width:200px;border:14px solid red;"">","null","","","","","","","","","",""
"","image-keyboard-response","308","142233","0.0-308.0","3RUIQRXJBCA18JVJC1CKLW9N9PFLLK","A1YDQJXMEUVSY7","3P7RGTLO6EZ76AO3386R8ZK9IWWKAW","","383.40000000596046","img/land2.png","76","385","3","1","1","1","0.8,0.2,0.2,0.2,0.8,0.2,0.2,0.2,0.8","0.8,0.2,0.2,0.2,0.8,0.2,0.2,0.2,0.8","1","",""
"","html-keyboard-response","309","142536","0.0-309.0","3RUIQRXJBCA18JVJC1CKLW9N9PFLLK","A1YDQJXMEUVSY7","3P7RGTLO6EZ76AO3386R8ZK9IWWKAW","","null","<img src=""img/land2.png"" style=""width:200px; border:14px solid green;"">","null","","","","","","","","","",""
"","image-keyboard-response","310","143130","0.0-310.0","3RUIQRXJBCA18JVJC1CKLW9N9PFLLK","A1YDQJXMEUVSY7","3P7RGTLO6EZ76AO3386R8ZK9IWWKAW","","591.9000000059605","img/land3.png","74","593.4000000059605","1","0","2","1","0.8,0.2,0.2,0.2,0.8,0.2,0.2,0.2,0.8","0.8,0.2,0.2,0.2,0.8,0.2,0.2,0.2,0.8","1","",""
"","html-keyboard-response","311","143432","0.0-311.0","3RUIQRXJBCA18JVJC1CKLW9N9PFLLK","A1YDQJXMEUVSY7","3P7RGTLO6EZ76AO3386R8ZK9IWWKAW","","null","<img src=""img/land3.png"" style=""width:200px;border:14px solid red;"">","null","","","","","","","","","",""
"","image-keyboard-response","312","144121","0.0-312.0","3RUIQRXJBCA18JVJC1CKLW9N9PFLLK","A1YDQJXMEUVSY7","3P7RGTLO6EZ76AO3386R8ZK9IWWKAW","","687.2999999970198","img/land2.png","74","688.8999999910593","1","1","1","1","0.8,0.2,0.2,0.2,0.8,0.2,0.2,0.2,0.8","0.8,0.2,0.2,0.2,0.8,0.2,0.2,0.2,0.8","1","",""
"","html-keyboard-response","313","144423","0.0-313.0","3RUIQRXJBCA18JVJC1CKLW9N9PFLLK","A1YDQJXMEUVSY7","3P7RGTLO6EZ76AO3386R8ZK9IWWKAW","","null","<img src=""img/land2.png"" style=""width:200px; border:14px solid green;"">","null","","","","","","","","","",""
"","image-keyboard-response","314","145249","0.0-314.0","3RUIQRXJBCA18JVJC1CKLW9N9PFLLK","A1YDQJXMEUVSY7","3P7RGTLO6EZ76AO3386R8ZK9IWWKAW","","824.4000000059605","img/land3.png","75","825.6000000089407","2","1","2","1","0.8,0.2,0.2,0.2,0.8,0.2,0.2,0.2,0.8","0.8,0.2,0.2,0.2,0.8,0.2,0.2,0.2,0.8","1","",""
"","html-keyboard-response","315","145552","0.0-315.0","3RUIQRXJBCA18JVJC1CKLW9N9PFLLK","A1YDQJXMEUVSY7","3P7RGTLO6EZ76AO3386R8ZK9IWWKAW","","null","<img src=""img/land3.png"" style=""width:200px; border:14px solid green;"">","null","","","","","","","","","",""
"","image-keyboard-response","316","146329","0.0-316.0","3RUIQRXJBCA18JVJC1CKLW9N9PFLLK","A1YDQJXMEUVSY7","3P7RGTLO6EZ76AO3386R8ZK9IWWKAW","","775.2999999970198","img/land6.png","76","777","3","1","3","1","0.8,0.2,0.2,0.2,0.8,0.2,0.2,0.2,0.8","0.8,0.2,0.2,0.2,0.8,0.2,0.2,0.2,0.8","1","",""
"","html-keyboard-response","317","146632","0.0-317.0","3RUIQRXJBCA18JVJC1CKLW9N9PFLLK","A1YDQJXMEUVSY7","3P7RGTLO6EZ76AO3386R8ZK9IWWKAW","","null","<img src=""img/land6.png"" style=""width:200px; border:14px solid green;"">","null","","","","","","","","","",""
"","image-keyboard-response","318","147664","0.0-318.0","3RUIQRXJBCA18JVJC1CKLW9N9PFLLK","A1YDQJXMEUVSY7","3P7RGTLO6EZ76AO3386R8ZK9IWWKAW","","1030.7000000029802","img/land3.png","75","1031.7999999970198","2","0","2","1","0.8,0.2,0.2,0.2,0.8,0.2,0.2,0.2,0.8","0.8,0.2,0.2,0.2,0.8,0.2,0.2,0.2,0.8","1","",""
"","html-keyboard-response","319","147966","0.0-319.0","3RUIQRXJBCA18JVJC1CKLW9N9PFLLK","A1YDQJXMEUVSY7","3P7RGTLO6EZ76AO3386R8ZK9IWWKAW","","null","<img src=""img/land3.png"" style=""width:200px;border:14px solid red;"">","null","","","","","","","","","",""
"","image-keyboard-response","320","148960","0.0-320.0","3RUIQRXJBCA18JVJC1CKLW9N9PFLLK","A1YDQJXMEUVSY7","3P7RGTLO6EZ76AO3386R8ZK9IWWKAW","","992.8000000119209","img/land2.png","74","993.7000000029802","1","0","1","1","0.8,0.2,0.2,0.2,0.8,0.2,0.2,0.2,0.8","0.8,0.2,0.2,0.2,0.8,0.2,0.2,0.2,0.8","1","",""
"","html-keyboard-response","321","149263","0.0-321.0","3RUIQRXJBCA18JVJC1CKLW9N9PFLLK","A1YDQJXMEUVSY7","3P7RGTLO6EZ76AO3386R8ZK9IWWKAW","","null","<img src=""img/land2.png"" style=""width:200px;border:14px solid red;"">","null","","","","","","","","","",""
"","image-keyboard-response","322","150041","0.0-322.0","3RUIQRXJBCA18JVJC1CKLW9N9PFLLK","A1YDQJXMEUVSY7","3P7RGTLO6EZ76AO3386R8ZK9IWWKAW","","774.7000000029802","img/land3.png","75","777","2","1","2","1","0.8,0.2,0.2,0.2,0.8,0.2,0.2,0.2,0.8","0.8,0.2,0.2,0.2,0.8,0.2,0.2,0.2,0.8","1","",""
"","html-keyboard-response","323","150343","0.0-323.0","3RUIQRXJBCA18JVJC1CKLW9N9PFLLK","A1YDQJXMEUVSY7","3P7RGTLO6EZ76AO3386R8ZK9IWWKAW","","null","<img src=""img/land3.png"" style=""width:200px; border:14px solid green;"">","null","","","","","","","","","",""
"","image-keyboard-response","324","151073","0.0-324.0","3RUIQRXJBCA18JVJC1CKLW9N9PFLLK","A1YDQJXMEUVSY7","3P7RGTLO6EZ76AO3386R8ZK9IWWKAW","","728.2999999970198","img/land6.png","76","730.2999999970198","3","1","3","1","0.8,0.2,0.2,0.2,0.8,0.2,0.2,0.2,0.8","0.8,0.2,0.2,0.2,0.8,0.2,0.2,0.2,0.8","1","",""
"","html-keyboard-response","325","151377","0.0-325.0","3RUIQRXJBCA18JVJC1CKLW9N9PFLLK","A1YDQJXMEUVSY7","3P7RGTLO6EZ76AO3386R8ZK9IWWKAW","","null","<img src=""img/land6.png"" style=""width:200px; border:14px solid green;"">","null","","","","","","","","","",""
"","image-keyboard-response","326","152056","0.0-326.0","3RUIQRXJBCA18JVJC1CKLW9N9PFLLK","A1YDQJXMEUVSY7","3P7RGTLO6EZ76AO3386R8ZK9IWWKAW","","678.5","img/land3.png","75","679.5","2","1","2","1","0.8,0.2,0.2,0.2,0.8,0.2,0.2,0.2,0.8","0.8,0.2,0.2,0.2,0.8,0.2,0.2,0.2,0.8","1","",""
"","html-keyboard-response","327","152358","0.0-327.0","3RUIQRXJBCA18JVJC1CKLW9N9PFLLK","A1YDQJXMEUVSY7","3P7RGTLO6EZ76AO3386R8ZK9IWWKAW","","null","<img src=""img/land3.png"" style=""width:200px; border:14px solid green;"">","null","","","","","","","","","",""
"","image-keyboard-response","328","152801","0.0-328.0","3RUIQRXJBCA18JVJC1CKLW9N9PFLLK","A1YDQJXMEUVSY7","3P7RGTLO6EZ76AO3386R8ZK9IWWKAW","","440.90000000596046","img/land3.png","75","442.59999999403954","2","1","2","1","0.8,0.2,0.2,0.2,0.8,0.2,0.2,0.2,0.8","0.8,0.2,0.2,0.2,0.8,0.2,0.2,0.2,0.8","1","",""
"","html-keyboard-response","329","153105","0.0-329.0","3RUIQRXJBCA18JVJC1CKLW9N9PFLLK","A1YDQJXMEUVSY7","3P7RGTLO6EZ76AO3386R8ZK9IWWKAW","","null","<img src=""img/land3.png"" style=""width:200px; border:14px solid green;"">","null","","","","","","","","","",""
"","image-keyboard-response","330","153426","0.0-330.0","3RUIQRXJBCA18JVJC1CKLW9N9PFLLK","A1YDQJXMEUVSY7","3P7RGTLO6EZ76AO3386R8ZK9IWWKAW","","318.80000001192093","img/land3.png","75","320.5","2","1","2","1","0.8,0.2,0.2,0.2,0.8,0.2,0.2,0.2,0.8","0.8,0.2,0.2,0.2,0.8,0.2,0.2,0.2,0.8","1","",""
"","html-keyboard-response","331","153728","0.0-331.0","3RUIQRXJBCA18JVJC1CKLW9N9PFLLK","A1YDQJXMEUVSY7","3P7RGTLO6EZ76AO3386R8ZK9IWWKAW","","null","<img src=""img/land3.png"" style=""width:200px; border:14px solid green;"">","null","","","","","","","","","",""
"","image-keyboard-response","332","154024","0.0-332.0","3RUIQRXJBCA18JVJC1CKLW9N9PFLLK","A1YDQJXMEUVSY7","3P7RGTLO6EZ76AO3386R8ZK9IWWKAW","","294.90000000596046","img/land3.png","75","296.29999999701977","2","1","2","1","0.8,0.2,0.2,0.2,0.8,0.2,0.2,0.2,0.8","0.8,0.2,0.2,0.2,0.8,0.2,0.2,0.2,0.8","1","",""
"","html-keyboard-response","333","154329","0.0-333.0","3RUIQRXJBCA18JVJC1CKLW9N9PFLLK","A1YDQJXMEUVSY7","3P7RGTLO6EZ76AO3386R8ZK9IWWKAW","","null","<img src=""img/land3.png"" style=""width:200px; border:14px solid green;"">","null","","","","","","","","","",""
"","image-keyboard-response","334","154976","0.0-334.0","3RUIQRXJBCA18JVJC1CKLW9N9PFLLK","A1YDQJXMEUVSY7","3P7RGTLO6EZ76AO3386R8ZK9IWWKAW","","646.7000000029802","img/land2.png","76","647.6000000089407","3","0","1","1","0.8,0.2,0.2,0.2,0.8,0.2,0.2,0.2,0.8","0.8,0.2,0.2,0.2,0.8,0.2,0.2,0.2,0.8","1","",""
"","html-keyboard-response","335","155278","0.0-335.0","3RUIQRXJBCA18JVJC1CKLW9N9PFLLK","A1YDQJXMEUVSY7","3P7RGTLO6EZ76AO3386R8ZK9IWWKAW","","null","<img src=""img/land2.png"" style=""width:200px;border:14px solid red;"">","null","","","","","","","","","",""
"","image-keyboard-response","336","155888","0.0-336.0","3RUIQRXJBCA18JVJC1CKLW9N9PFLLK","A1YDQJXMEUVSY7","3P7RGTLO6EZ76AO3386R8ZK9IWWKAW","","609.5999999940395","img/land2.png","75","610.2999999970198","2","1","1","1","0.8,0.2,0.2,0.2,0.8,0.2,0.2,0.2,0.8","0.8,0.2,0.2,0.2,0.8,0.2,0.2,0.2,0.8","1","",""
"","html-keyboard-response","337","156191","0.0-337.0","3RUIQRXJBCA18JVJC1CKLW9N9PFLLK","A1YDQJXMEUVSY7","3P7RGTLO6EZ76AO3386R8ZK9IWWKAW","","null","<img src=""img/land2.png"" style=""width:200px; border:14px solid green;"">","null","","","","","","","","","",""
"","image-keyboard-response","338","156449","0.0-338.0","3RUIQRXJBCA18JVJC1CKLW9N9PFLLK","A1YDQJXMEUVSY7","3P7RGTLO6EZ76AO3386R8ZK9IWWKAW","","257.5","img/land6.png","75","258.3999999910593","2","0","3","1","0.8,0.2,0.2,0.2,0.8,0.2,0.2,0.2,0.8","0.8,0.2,0.2,0.2,0.8,0.2,0.2,0.2,0.8","1","",""
"","html-keyboard-response","339","156752","0.0-339.0","3RUIQRXJBCA18JVJC1CKLW9N9PFLLK","A1YDQJXMEUVSY7","3P7RGTLO6EZ76AO3386R8ZK9IWWKAW","","null","<img src=""img/land6.png"" style=""width:200px;border:14px solid red;"">","null","","","","","","","","","",""
"","image-keyboard-response","340","157672","0.0-340.0","3RUIQRXJBCA18JVJC1CKLW9N9PFLLK","A1YDQJXMEUVSY7","3P7RGTLO6EZ76AO3386R8ZK9IWWKAW","","918.8999999910593","img/land3.png","75","919.6999999880791","2","1","2","1","0.8,0.2,0.2,0.2,0.8,0.2,0.2,0.2,0.8","0.8,0.2,0.2,0.2,0.8,0.2,0.2,0.2,0.8","1","",""
"","html-keyboard-response","341","157974","0.0-341.0","3RUIQRXJBCA18JVJC1CKLW9N9PFLLK","A1YDQJXMEUVSY7","3P7RGTLO6EZ76AO3386R8ZK9IWWKAW","","null","<img src=""img/land3.png"" style=""width:200px; border:14px solid green;"">","null","","","","","","","","","",""
"","image-keyboard-response","342","158225","0.0-342.0","3RUIQRXJBCA18JVJC1CKLW9N9PFLLK","A1YDQJXMEUVSY7","3P7RGTLO6EZ76AO3386R8ZK9IWWKAW","","250.40000000596046","img/land6.png","75","251.5","2","0","3","1","0.8,0.2,0.2,0.2,0.8,0.2,0.2,0.2,0.8","0.8,0.2,0.2,0.2,0.8,0.2,0.2,0.2,0.8","1","",""
"","html-keyboard-response","343","158529","0.0-343.0","3RUIQRXJBCA18JVJC1CKLW9N9PFLLK","A1YDQJXMEUVSY7","3P7RGTLO6EZ76AO3386R8ZK9IWWKAW","","null","<img src=""img/land6.png"" style=""width:200px;border:14px solid red;"">","null","","","","","","","","","",""
"","image-keyboard-response","344","158881","0.0-344.0","3RUIQRXJBCA18JVJC1CKLW9N9PFLLK","A1YDQJXMEUVSY7","3P7RGTLO6EZ76AO3386R8ZK9IWWKAW","","350.5","img/land6.png","75","352.09999999403954","2","0","3","1","0.8,0.2,0.2,0.2,0.8,0.2,0.2,0.2,0.8","0.8,0.2,0.2,0.2,0.8,0.2,0.2,0.2,0.8","1","",""
"","html-keyboard-response","345","159184","0.0-345.0","3RUIQRXJBCA18JVJC1CKLW9N9PFLLK","A1YDQJXMEUVSY7","3P7RGTLO6EZ76AO3386R8ZK9IWWKAW","","null","<img src=""img/land6.png"" style=""width:200px;border:14px solid red;"">","null","","","","","","","","","",""
"","image-keyboard-response","346","159345","0.0-346.0","3RUIQRXJBCA18JVJC1CKLW9N9PFLLK","A1YDQJXMEUVSY7","3P7RGTLO6EZ76AO3386R8ZK9IWWKAW","","159.40000000596046","img/land3.png","76","161","3","0","2","1","0.8,0.2,0.2,0.2,0.8,0.2,0.2,0.2,0.8","0.8,0.2,0.2,0.2,0.8,0.2,0.2,0.2,0.8","1","",""
"","html-keyboard-response","347","159649","0.0-347.0","3RUIQRXJBCA18JVJC1CKLW9N9PFLLK","A1YDQJXMEUVSY7","3P7RGTLO6EZ76AO3386R8ZK9IWWKAW","","null","<img src=""img/land3.png"" style=""width:200px;border:14px solid red;"">","null","","","","","","","","","",""
"","image-keyboard-response","348","159937","0.0-348.0","3RUIQRXJBCA18JVJC1CKLW9N9PFLLK","A1YDQJXMEUVSY7","3P7RGTLO6EZ76AO3386R8ZK9IWWKAW","","286.59999999403954","img/land2.png","75","288.09999999403954","2","0","1","1","0.8,0.2,0.2,0.2,0.8,0.2,0.2,0.2,0.8","0.8,0.2,0.2,0.2,0.8,0.2,0.2,0.2,0.8","1","",""
"","html-keyboard-response","349","160240","0.0-349.0","3RUIQRXJBCA18JVJC1CKLW9N9PFLLK","A1YDQJXMEUVSY7","3P7RGTLO6EZ76AO3386R8ZK9IWWKAW","","null","<img src=""img/land2.png"" style=""width:200px;border:14px solid red;"">","null","","","","","","","","","",""
"","image-keyboard-response","350","160857","0.0-350.0","3RUIQRXJBCA18JVJC1CKLW9N9PFLLK","A1YDQJXMEUVSY7","3P7RGTLO6EZ76AO3386R8ZK9IWWKAW","","615.2000000029802","img/land6.png","75","616.8999999910593","2","0","3","1","0.8,0.2,0.2,0.2,0.8,0.2,0.2,0.2,0.8","0.8,0.2,0.2,0.2,0.8,0.2,0.2,0.2,0.8","1","",""
"","html-keyboard-response","351","161160","0.0-351.0","3RUIQRXJBCA18JVJC1CKLW9N9PFLLK","A1YDQJXMEUVSY7","3P7RGTLO6EZ76AO3386R8ZK9IWWKAW","","null","<img src=""img/land6.png"" style=""width:200px;border:14px solid red;"">","null","","","","","","","","","",""
"","image-keyboard-response","352","161377","0.0-352.0","3RUIQRXJBCA18JVJC1CKLW9N9PFLLK","A1YDQJXMEUVSY7","3P7RGTLO6EZ76AO3386R8ZK9IWWKAW","","215.5","img/land6.png","76","217","3","1","3","1","0.8,0.2,0.2,0.2,0.8,0.2,0.2,0.2,0.8","0.8,0.2,0.2,0.2,0.8,0.2,0.2,0.2,0.8","1","",""
"","html-keyboard-response","353","161680","0.0-353.0","3RUIQRXJBCA18JVJC1CKLW9N9PFLLK","A1YDQJXMEUVSY7","3P7RGTLO6EZ76AO3386R8ZK9IWWKAW","","null","<img src=""img/land6.png"" style=""width:200px; border:14px solid green;"">","null","","","","","","","","","",""
"","image-keyboard-response","354","161977","0.0-354.0","3RUIQRXJBCA18JVJC1CKLW9N9PFLLK","A1YDQJXMEUVSY7","3P7RGTLO6EZ76AO3386R8ZK9IWWKAW","","295.29999999701977","img/land6.png","76","296.8999999910593","3","1","3","1","0.8,0.2,0.2,0.2,0.8,0.2,0.2,0.2,0.8","0.8,0.2,0.2,0.2,0.8,0.2,0.2,0.2,0.8","1","",""
