"success","trial_type","trial_index","time_elapsed","internal_node_id","assignmentID","mturkID","hitID","view_history","rt","stimulus","key_press","reactionTime","a","r","s","cond","reward_cond","reward_cond_actual","reward_matrix_idx","responses","question_order"
"true","fullscreen","0","7473","0.0-0.0","3U088ZLJVLF4MHIWRMX3WNYF3LLW01","A1YFVXP4A1CXSF","3S1L4CQSFXRWQOWP2XFUSMS4AZDFAL","","","","","","","","","","","","","",""
"","instructions","1","20869","0.0-1.0","3U088ZLJVLF4MHIWRMX3WNYF3LLW01","A1YFVXP4A1CXSF","3S1L4CQSFXRWQOWP2XFUSMS4AZDFAL","[{""page_index"":0,""viewing_time"":3778.3000000715256},{""page_index"":1,""viewing_time"":1375.8999999761581},{""page_index"":2,""viewing_time"":792},{""page_index"":3,""viewing_time"":3144},{""page_index"":4,""viewing_time"":1767.8999999761581},{""page_index"":5,""viewing_time"":1240.1000000238419},{""page_index"":6,""viewing_time"":1296.1000000238419}]","13394.5","","","","","","","","","","","",""
"","image-keyboard-response","2","21967","0.0-2.0","3U088ZLJVLF4MHIWRMX3WNYF3LLW01","A1YFVXP4A1CXSF","3S1L4CQSFXRWQOWP2XFUSMS4AZDFAL","","1095.6999999284744","img/land5.png","75","1097.1000000238419","2","1","3","1","1,0.5,0.5,0.5,1,0.5,0.5,0.5,1","1,0.5,0.5,0.5,1,0.5,0.5,0.5,1","1","",""
"","html-keyboard-response","3","22270","0.0-3.0","3U088ZLJVLF4MHIWRMX3WNYF3LLW01","A1YFVXP4A1CXSF","3S1L4CQSFXRWQOWP2XFUSMS4AZDFAL","","null","<img src=""img/land5.png"" style=""width:200px; border:14px solid green;"">","null","","","","","","","","","",""
"","image-keyboard-response","4","23038","0.0-4.0","3U088ZLJVLF4MHIWRMX3WNYF3LLW01","A1YFVXP4A1CXSF","3S1L4CQSFXRWQOWP2XFUSMS4AZDFAL","","766","img/land1.png","74","767.1000000238419","1","1","2","1","1,0.5,0.5,0.5,1,0.5,0.5,0.5,1","1,0.5,0.5,0.5,1,0.5,0.5,0.5,1","1","",""
"","html-keyboard-response","5","23340","0.0-5.0","3U088ZLJVLF4MHIWRMX3WNYF3LLW01","A1YFVXP4A1CXSF","3S1L4CQSFXRWQOWP2XFUSMS4AZDFAL","","null","<img src=""img/land1.png"" style=""width:200px; border:14px solid green;"">","null","","","","","","","","","",""
"","image-keyboard-response","6","24710","0.0-6.0","3U088ZLJVLF4MHIWRMX3WNYF3LLW01","A1YFVXP4A1CXSF","3S1L4CQSFXRWQOWP2XFUSMS4AZDFAL","","1368.2000000476837","img/land1.png","74","1369.3999999761581","1","1","2","1","1,0.5,0.5,0.5,1,0.5,0.5,0.5,1","1,0.5,0.5,0.5,1,0.5,0.5,0.5,1","1","",""
"","html-keyboard-response","7","25013","0.0-7.0","3U088ZLJVLF4MHIWRMX3WNYF3LLW01","A1YFVXP4A1CXSF","3S1L4CQSFXRWQOWP2XFUSMS4AZDFAL","","null","<img src=""img/land1.png"" style=""width:200px; border:14px solid green;"">","null","","","","","","","","","",""
"","image-keyboard-response","8","25518","0.0-8.0","3U088ZLJVLF4MHIWRMX3WNYF3LLW01","A1YFVXP4A1CXSF","3S1L4CQSFXRWQOWP2XFUSMS4AZDFAL","","503.90000009536743","img/land3.png","76","505.10000002384186","3","1","1","1","1,0.5,0.5,0.5,1,0.5,0.5,0.5,1","1,0.5,0.5,0.5,1,0.5,0.5,0.5,1","1","",""
"","html-keyboard-response","9","25820","0.0-9.0","3U088ZLJVLF4MHIWRMX3WNYF3LLW01","A1YFVXP4A1CXSF","3S1L4CQSFXRWQOWP2XFUSMS4AZDFAL","","null","<img src=""img/land3.png"" style=""width:200px; border:14px solid green;"">","null","","","","","","","","","",""
"","image-keyboard-response","10","27294","0.0-10.0","3U088ZLJVLF4MHIWRMX3WNYF3LLW01","A1YFVXP4A1CXSF","3S1L4CQSFXRWQOWP2XFUSMS4AZDFAL","","1472.5999999046326","img/land3.png","76","1473.7999999523163","3","0","1","1","1,0.5,0.5,0.5,1,0.5,0.5,0.5,1","1,0.5,0.5,0.5,1,0.5,0.5,0.5,1","1","",""
"","html-keyboard-response","11","27596","0.0-11.0","3U088ZLJVLF4MHIWRMX3WNYF3LLW01","A1YFVXP4A1CXSF","3S1L4CQSFXRWQOWP2XFUSMS4AZDFAL","","null","<img src=""img/land3.png"" style=""width:200px;border:14px solid red;"">","null","","","","","","","","","",""
"","image-keyboard-response","12","28278","0.0-12.0","3U088ZLJVLF4MHIWRMX3WNYF3LLW01","A1YFVXP4A1CXSF","3S1L4CQSFXRWQOWP2XFUSMS4AZDFAL","","680.8000000715256","img/land5.png","75","681.7999999523163","2","1","3","1","1,0.5,0.5,0.5,1,0.5,0.5,0.5,1","1,0.5,0.5,0.5,1,0.5,0.5,0.5,1","1","",""
"","html-keyboard-response","13","28587","0.0-13.0","3U088ZLJVLF4MHIWRMX3WNYF3LLW01","A1YFVXP4A1CXSF","3S1L4CQSFXRWQOWP2XFUSMS4AZDFAL","","null","<img src=""img/land5.png"" style=""width:200px; border:14px solid green;"">","null","","","","","","","","","",""
"","image-keyboard-response","14","29814","0.0-14.0","3U088ZLJVLF4MHIWRMX3WNYF3LLW01","A1YFVXP4A1CXSF","3S1L4CQSFXRWQOWP2XFUSMS4AZDFAL","","1225.3999999761581","img/land5.png","75","1226.5","2","1","3","1","1,0.5,0.5,0.5,1,0.5,0.5,0.5,1","1,0.5,0.5,0.5,1,0.5,0.5,0.5,1","1","",""
"","html-keyboard-response","15","30115","0.0-15.0","3U088ZLJVLF4MHIWRMX3WNYF3LLW01","A1YFVXP4A1CXSF","3S1L4CQSFXRWQOWP2XFUSMS4AZDFAL","","null","<img src=""img/land5.png"" style=""width:200px; border:14px solid green;"">","null","","","","","","","","","",""
"","image-keyboard-response","16","32117","0.0-16.0","3U088ZLJVLF4MHIWRMX3WNYF3LLW01","A1YFVXP4A1CXSF","3S1L4CQSFXRWQOWP2XFUSMS4AZDFAL","","","img/land5.png","","2001.6000000238419","-1","0","3","1","1,0.5,0.5,0.5,1,0.5,0.5,0.5,1","1,0.5,0.5,0.5,1,0.5,0.5,0.5,1","1","",""
"","html-keyboard-response","17","32419","0.0-17.0","3U088ZLJVLF4MHIWRMX3WNYF3LLW01","A1YFVXP4A1CXSF","3S1L4CQSFXRWQOWP2XFUSMS4AZDFAL","","null","<img src=""img/land5.png"" style=""width:200px;border:14px solid red;"">","null","","","","","","","","","",""
"","image-keyboard-response","18","33421","0.0-18.0","3U088ZLJVLF4MHIWRMX3WNYF3LLW01","A1YFVXP4A1CXSF","3S1L4CQSFXRWQOWP2XFUSMS4AZDFAL","","1001.3999999761581","img/land1.png","74","1002.5999999046326","1","0","2","1","1,0.5,0.5,0.5,1,0.5,0.5,0.5,1","1,0.5,0.5,0.5,1,0.5,0.5,0.5,1","1","",""
"","html-keyboard-response","19","33724","0.0-19.0","3U088ZLJVLF4MHIWRMX3WNYF3LLW01","A1YFVXP4A1CXSF","3S1L4CQSFXRWQOWP2XFUSMS4AZDFAL","","null","<img src=""img/land1.png"" style=""width:200px;border:14px solid red;"">","null","","","","","","","","","",""
"","image-keyboard-response","20","34278","0.0-20.0","3U088ZLJVLF4MHIWRMX3WNYF3LLW01","A1YFVXP4A1CXSF","3S1L4CQSFXRWQOWP2XFUSMS4AZDFAL","","552.6000000238419","img/land5.png","76","553.7999999523163","3","1","3","1","1,0.5,0.5,0.5,1,0.5,0.5,0.5,1","1,0.5,0.5,0.5,1,0.5,0.5,0.5,1","1","",""
"","html-keyboard-response","21","34579","0.0-21.0","3U088ZLJVLF4MHIWRMX3WNYF3LLW01","A1YFVXP4A1CXSF","3S1L4CQSFXRWQOWP2XFUSMS4AZDFAL","","null","<img src=""img/land5.png"" style=""width:200px; border:14px solid green;"">","null","","","","","","","","","",""
"","image-keyboard-response","22","35357","0.0-22.0","3U088ZLJVLF4MHIWRMX3WNYF3LLW01","A1YFVXP4A1CXSF","3S1L4CQSFXRWQOWP2XFUSMS4AZDFAL","","776.6999999284744","img/land3.png","75","777.7000000476837","2","0","1","1","1,0.5,0.5,0.5,1,0.5,0.5,0.5,1","1,0.5,0.5,0.5,1,0.5,0.5,0.5,1","1","",""
"","html-keyboard-response","23","35660","0.0-23.0","3U088ZLJVLF4MHIWRMX3WNYF3LLW01","A1YFVXP4A1CXSF","3S1L4CQSFXRWQOWP2XFUSMS4AZDFAL","","null","<img src=""img/land3.png"" style=""width:200px;border:14px solid red;"">","null","","","","","","","","","",""
"","image-keyboard-response","24","35885","0.0-24.0","3U088ZLJVLF4MHIWRMX3WNYF3LLW01","A1YFVXP4A1CXSF","3S1L4CQSFXRWQOWP2XFUSMS4AZDFAL","","224.79999995231628","img/land1.png","76","225.70000004768372","3","1","2","1","1,0.5,0.5,0.5,1,0.5,0.5,0.5,1","1,0.5,0.5,0.5,1,0.5,0.5,0.5,1","1","",""
"","html-keyboard-response","25","36187","0.0-25.0","3U088ZLJVLF4MHIWRMX3WNYF3LLW01","A1YFVXP4A1CXSF","3S1L4CQSFXRWQOWP2XFUSMS4AZDFAL","","null","<img src=""img/land1.png"" style=""width:200px; border:14px solid green;"">","null","","","","","","","","","",""
"","image-keyboard-response","26","36941","0.0-26.0","3U088ZLJVLF4MHIWRMX3WNYF3LLW01","A1YFVXP4A1CXSF","3S1L4CQSFXRWQOWP2XFUSMS4AZDFAL","","752.7999999523163","img/land3.png","76","754","3","0","1","1","1,0.5,0.5,0.5,1,0.5,0.5,0.5,1","1,0.5,0.5,0.5,1,0.5,0.5,0.5,1","1","",""
"","html-keyboard-response","27","37244","0.0-27.0","3U088ZLJVLF4MHIWRMX3WNYF3LLW01","A1YFVXP4A1CXSF","3S1L4CQSFXRWQOWP2XFUSMS4AZDFAL","","null","<img src=""img/land3.png"" style=""width:200px;border:14px solid red;"">","null","","","","","","","","","",""
"","image-keyboard-response","28","37622","0.0-28.0","3U088ZLJVLF4MHIWRMX3WNYF3LLW01","A1YFVXP4A1CXSF","3S1L4CQSFXRWQOWP2XFUSMS4AZDFAL","","376.7000000476837","img/land3.png","74","377.6999999284744","1","1","1","1","1,0.5,0.5,0.5,1,0.5,0.5,0.5,1","1,0.5,0.5,0.5,1,0.5,0.5,0.5,1","1","",""
"","html-keyboard-response","29","37924","0.0-29.0","3U088ZLJVLF4MHIWRMX3WNYF3LLW01","A1YFVXP4A1CXSF","3S1L4CQSFXRWQOWP2XFUSMS4AZDFAL","","null","<img src=""img/land3.png"" style=""width:200px; border:14px solid green;"">","null","","","","","","","","","",""
"","image-keyboard-response","30","39405","0.0-30.0","3U088ZLJVLF4MHIWRMX3WNYF3LLW01","A1YFVXP4A1CXSF","3S1L4CQSFXRWQOWP2XFUSMS4AZDFAL","","1480.6000000238419","img/land3.png","74","1481.5","1","1","1","1","1,0.5,0.5,0.5,1,0.5,0.5,0.5,1","1,0.5,0.5,0.5,1,0.5,0.5,0.5,1","1","",""
"","html-keyboard-response","31","39707","0.0-31.0","3U088ZLJVLF4MHIWRMX3WNYF3LLW01","A1YFVXP4A1CXSF","3S1L4CQSFXRWQOWP2XFUSMS4AZDFAL","","null","<img src=""img/land3.png"" style=""width:200px; border:14px solid green;"">","null","","","","","","","","","",""
"","image-keyboard-response","32","41709","0.0-32.0","3U088ZLJVLF4MHIWRMX3WNYF3LLW01","A1YFVXP4A1CXSF","3S1L4CQSFXRWQOWP2XFUSMS4AZDFAL","","","img/land3.png","","2001.5","-1","0","1","1","1,0.5,0.5,0.5,1,0.5,0.5,0.5,1","1,0.5,0.5,0.5,1,0.5,0.5,0.5,1","1","",""
"","html-keyboard-response","33","42011","0.0-33.0","3U088ZLJVLF4MHIWRMX3WNYF3LLW01","A1YFVXP4A1CXSF","3S1L4CQSFXRWQOWP2XFUSMS4AZDFAL","","null","<img src=""img/land3.png"" style=""width:200px;border:14px solid red;"">","null","","","","","","","","","",""
"","image-keyboard-response","34","42613","0.0-34.0","3U088ZLJVLF4MHIWRMX3WNYF3LLW01","A1YFVXP4A1CXSF","3S1L4CQSFXRWQOWP2XFUSMS4AZDFAL","","601.1000000238419","img/land5.png","75","602.2000000476837","2","1","3","1","1,0.5,0.5,0.5,1,0.5,0.5,0.5,1","1,0.5,0.5,0.5,1,0.5,0.5,0.5,1","1","",""
"","html-keyboard-response","35","42916","0.0-35.0","3U088ZLJVLF4MHIWRMX3WNYF3LLW01","A1YFVXP4A1CXSF","3S1L4CQSFXRWQOWP2XFUSMS4AZDFAL","","null","<img src=""img/land5.png"" style=""width:200px; border:14px solid green;"">","null","","","","","","","","","",""
"","image-keyboard-response","36","44453","0.0-36.0","3U088ZLJVLF4MHIWRMX3WNYF3LLW01","A1YFVXP4A1CXSF","3S1L4CQSFXRWQOWP2XFUSMS4AZDFAL","","1536.6000000238419","img/land5.png","75","1537.6000000238419","2","1","3","1","1,0.5,0.5,0.5,1,0.5,0.5,0.5,1","1,0.5,0.5,0.5,1,0.5,0.5,0.5,1","1","",""
"","html-keyboard-response","37","44756","0.0-37.0","3U088ZLJVLF4MHIWRMX3WNYF3LLW01","A1YFVXP4A1CXSF","3S1L4CQSFXRWQOWP2XFUSMS4AZDFAL","","null","<img src=""img/land5.png"" style=""width:200px; border:14px solid green;"">","null","","","","","","","","","",""
"","image-keyboard-response","38","46733","0.0-38.0","3U088ZLJVLF4MHIWRMX3WNYF3LLW01","A1YFVXP4A1CXSF","3S1L4CQSFXRWQOWP2XFUSMS4AZDFAL","","1976.6000000238419","img/land5.png","75","1977.5","2","1","3","1","1,0.5,0.5,0.5,1,0.5,0.5,0.5,1","1,0.5,0.5,0.5,1,0.5,0.5,0.5,1","1","",""
"","html-keyboard-response","39","47035","0.0-39.0","3U088ZLJVLF4MHIWRMX3WNYF3LLW01","A1YFVXP4A1CXSF","3S1L4CQSFXRWQOWP2XFUSMS4AZDFAL","","null","<img src=""img/land5.png"" style=""width:200px; border:14px solid green;"">","null","","","","","","","","","",""
"","image-keyboard-response","40","47910","0.0-40.0","3U088ZLJVLF4MHIWRMX3WNYF3LLW01","A1YFVXP4A1CXSF","3S1L4CQSFXRWQOWP2XFUSMS4AZDFAL","","873.7000000476837","img/land1.png","76","874.7000000476837","3","0","2","1","1,0.5,0.5,0.5,1,0.5,0.5,0.5,1","1,0.5,0.5,0.5,1,0.5,0.5,0.5,1","1","",""
"","html-keyboard-response","41","48211","0.0-41.0","3U088ZLJVLF4MHIWRMX3WNYF3LLW01","A1YFVXP4A1CXSF","3S1L4CQSFXRWQOWP2XFUSMS4AZDFAL","","null","<img src=""img/land1.png"" style=""width:200px;border:14px solid red;"">","null","","","","","","","","","",""
"","image-keyboard-response","42","48357","0.0-42.0","3U088ZLJVLF4MHIWRMX3WNYF3LLW01","A1YFVXP4A1CXSF","3S1L4CQSFXRWQOWP2XFUSMS4AZDFAL","","144.89999997615814","img/land1.png","75","146","2","1","2","1","1,0.5,0.5,0.5,1,0.5,0.5,0.5,1","1,0.5,0.5,0.5,1,0.5,0.5,0.5,1","1","",""
"","html-keyboard-response","43","48660","0.0-43.0","3U088ZLJVLF4MHIWRMX3WNYF3LLW01","A1YFVXP4A1CXSF","3S1L4CQSFXRWQOWP2XFUSMS4AZDFAL","","null","<img src=""img/land1.png"" style=""width:200px; border:14px solid green;"">","null","","","","","","","","","",""
"","image-keyboard-response","44","50341","0.0-44.0","3U088ZLJVLF4MHIWRMX3WNYF3LLW01","A1YFVXP4A1CXSF","3S1L4CQSFXRWQOWP2XFUSMS4AZDFAL","","1680.5","img/land1.png","75","1681.3999999761581","2","1","2","1","1,0.5,0.5,0.5,1,0.5,0.5,0.5,1","1,0.5,0.5,0.5,1,0.5,0.5,0.5,1","1","",""
"","html-keyboard-response","45","50643","0.0-45.0","3U088ZLJVLF4MHIWRMX3WNYF3LLW01","A1YFVXP4A1CXSF","3S1L4CQSFXRWQOWP2XFUSMS4AZDFAL","","null","<img src=""img/land1.png"" style=""width:200px; border:14px solid green;"">","null","","","","","","","","","",""
"","image-keyboard-response","46","51565","0.0-46.0","3U088ZLJVLF4MHIWRMX3WNYF3LLW01","A1YFVXP4A1CXSF","3S1L4CQSFXRWQOWP2XFUSMS4AZDFAL","","920.7999999523163","img/land3.png","74","922","1","1","1","1","1,0.5,0.5,0.5,1,0.5,0.5,0.5,1","1,0.5,0.5,0.5,1,0.5,0.5,0.5,1","1","",""
"","html-keyboard-response","47","51867","0.0-47.0","3U088ZLJVLF4MHIWRMX3WNYF3LLW01","A1YFVXP4A1CXSF","3S1L4CQSFXRWQOWP2XFUSMS4AZDFAL","","null","<img src=""img/land3.png"" style=""width:200px; border:14px solid green;"">","null","","","","","","","","","",""
"","image-keyboard-response","48","52661","0.0-48.0","3U088ZLJVLF4MHIWRMX3WNYF3LLW01","A1YFVXP4A1CXSF","3S1L4CQSFXRWQOWP2XFUSMS4AZDFAL","","792.8999999761581","img/land5.png","75","793.8999999761581","2","1","3","1","1,0.5,0.5,0.5,1,0.5,0.5,0.5,1","1,0.5,0.5,0.5,1,0.5,0.5,0.5,1","1","",""
"","html-keyboard-response","49","52963","0.0-49.0","3U088ZLJVLF4MHIWRMX3WNYF3LLW01","A1YFVXP4A1CXSF","3S1L4CQSFXRWQOWP2XFUSMS4AZDFAL","","null","<img src=""img/land5.png"" style=""width:200px; border:14px solid green;"">","null","","","","","","","","","",""
"","image-keyboard-response","50","53861","0.0-50.0","3U088ZLJVLF4MHIWRMX3WNYF3LLW01","A1YFVXP4A1CXSF","3S1L4CQSFXRWQOWP2XFUSMS4AZDFAL","","896.8999999761581","img/land3.png","74","897.8000000715256","1","1","1","1","1,0.5,0.5,0.5,1,0.5,0.5,0.5,1","1,0.5,0.5,0.5,1,0.5,0.5,0.5,1","1","",""
"","html-keyboard-response","51","54163","0.0-51.0","3U088ZLJVLF4MHIWRMX3WNYF3LLW01","A1YFVXP4A1CXSF","3S1L4CQSFXRWQOWP2XFUSMS4AZDFAL","","null","<img src=""img/land3.png"" style=""width:200px; border:14px solid green;"">","null","","","","","","","","","",""
"","image-keyboard-response","52","55461","0.0-52.0","3U088ZLJVLF4MHIWRMX3WNYF3LLW01","A1YFVXP4A1CXSF","3S1L4CQSFXRWQOWP2XFUSMS4AZDFAL","","1296.6999999284744","img/land3.png","74","1297.8000000715256","1","1","1","1","1,0.5,0.5,0.5,1,0.5,0.5,0.5,1","1,0.5,0.5,0.5,1,0.5,0.5,0.5,1","1","",""
"","html-keyboard-response","53","55763","0.0-53.0","3U088ZLJVLF4MHIWRMX3WNYF3LLW01","A1YFVXP4A1CXSF","3S1L4CQSFXRWQOWP2XFUSMS4AZDFAL","","null","<img src=""img/land3.png"" style=""width:200px; border:14px solid green;"">","null","","","","","","","","","",""
"","image-keyboard-response","54","56909","0.0-54.0","3U088ZLJVLF4MHIWRMX3WNYF3LLW01","A1YFVXP4A1CXSF","3S1L4CQSFXRWQOWP2XFUSMS4AZDFAL","","1144.5999999046326","img/land5.png","76","1145.6000000238419","3","1","3","1","1,0.5,0.5,0.5,1,0.5,0.5,0.5,1","1,0.5,0.5,0.5,1,0.5,0.5,0.5,1","1","",""
"","html-keyboard-response","55","57212","0.0-55.0","3U088ZLJVLF4MHIWRMX3WNYF3LLW01","A1YFVXP4A1CXSF","3S1L4CQSFXRWQOWP2XFUSMS4AZDFAL","","null","<img src=""img/land5.png"" style=""width:200px; border:14px solid green;"">","null","","","","","","","","","",""
"","image-keyboard-response","56","57949","0.0-56.0","3U088ZLJVLF4MHIWRMX3WNYF3LLW01","A1YFVXP4A1CXSF","3S1L4CQSFXRWQOWP2XFUSMS4AZDFAL","","736","img/land1.png","75","737.0999999046326","2","1","2","1","1,0.5,0.5,0.5,1,0.5,0.5,0.5,1","1,0.5,0.5,0.5,1,0.5,0.5,0.5,1","1","",""
"","html-keyboard-response","57","58251","0.0-57.0","3U088ZLJVLF4MHIWRMX3WNYF3LLW01","A1YFVXP4A1CXSF","3S1L4CQSFXRWQOWP2XFUSMS4AZDFAL","","null","<img src=""img/land1.png"" style=""width:200px; border:14px solid green;"">","null","","","","","","","","","",""
"","image-keyboard-response","58","59725","0.0-58.0","3U088ZLJVLF4MHIWRMX3WNYF3LLW01","A1YFVXP4A1CXSF","3S1L4CQSFXRWQOWP2XFUSMS4AZDFAL","","1472.7999999523163","img/land1.png","75","1473.8000000715256","2","1","2","1","1,0.5,0.5,0.5,1,0.5,0.5,0.5,1","1,0.5,0.5,0.5,1,0.5,0.5,0.5,1","1","",""
"","html-keyboard-response","59","60027","0.0-59.0","3U088ZLJVLF4MHIWRMX3WNYF3LLW01","A1YFVXP4A1CXSF","3S1L4CQSFXRWQOWP2XFUSMS4AZDFAL","","null","<img src=""img/land1.png"" style=""width:200px; border:14px solid green;"">","null","","","","","","","","","",""
"","image-keyboard-response","60","61413","0.0-60.0","3U088ZLJVLF4MHIWRMX3WNYF3LLW01","A1YFVXP4A1CXSF","3S1L4CQSFXRWQOWP2XFUSMS4AZDFAL","","1385.1000000238419","img/land5.png","76","1386.1000000238419","3","1","3","1","1,0.5,0.5,0.5,1,0.5,0.5,0.5,1","1,0.5,0.5,0.5,1,0.5,0.5,0.5,1","1","",""
"","html-keyboard-response","61","61715","0.0-61.0","3U088ZLJVLF4MHIWRMX3WNYF3LLW01","A1YFVXP4A1CXSF","3S1L4CQSFXRWQOWP2XFUSMS4AZDFAL","","null","<img src=""img/land5.png"" style=""width:200px; border:14px solid green;"">","null","","","","","","","","","",""
"","image-keyboard-response","62","62429","0.0-62.0","3U088ZLJVLF4MHIWRMX3WNYF3LLW01","A1YFVXP4A1CXSF","3S1L4CQSFXRWQOWP2XFUSMS4AZDFAL","","712.7999999523163","img/land3.png","74","713.8000000715256","1","1","1","1","1,0.5,0.5,0.5,1,0.5,0.5,0.5,1","1,0.5,0.5,0.5,1,0.5,0.5,0.5,1","1","",""
"","html-keyboard-response","63","62732","0.0-63.0","3U088ZLJVLF4MHIWRMX3WNYF3LLW01","A1YFVXP4A1CXSF","3S1L4CQSFXRWQOWP2XFUSMS4AZDFAL","","null","<img src=""img/land3.png"" style=""width:200px; border:14px solid green;"">","null","","","","","","","","","",""
"","image-keyboard-response","64","63709","0.0-64.0","3U088ZLJVLF4MHIWRMX3WNYF3LLW01","A1YFVXP4A1CXSF","3S1L4CQSFXRWQOWP2XFUSMS4AZDFAL","","976","img/land5.png","76","977.1000000238419","3","1","3","1","1,0.5,0.5,0.5,1,0.5,0.5,0.5,1","1,0.5,0.5,0.5,1,0.5,0.5,0.5,1","1","",""
"","html-keyboard-response","65","64012","0.0-65.0","3U088ZLJVLF4MHIWRMX3WNYF3LLW01","A1YFVXP4A1CXSF","3S1L4CQSFXRWQOWP2XFUSMS4AZDFAL","","null","<img src=""img/land5.png"" style=""width:200px; border:14px solid green;"">","null","","","","","","","","","",""
"","image-keyboard-response","66","65165","0.0-66.0","3U088ZLJVLF4MHIWRMX3WNYF3LLW01","A1YFVXP4A1CXSF","3S1L4CQSFXRWQOWP2XFUSMS4AZDFAL","","1152.1999999284744","img/land1.png","75","1153.3000000715256","2","1","2","1","1,0.5,0.5,0.5,1,0.5,0.5,0.5,1","1,0.5,0.5,0.5,1,0.5,0.5,0.5,1","1","",""
"","html-keyboard-response","67","65467","0.0-67.0","3U088ZLJVLF4MHIWRMX3WNYF3LLW01","A1YFVXP4A1CXSF","3S1L4CQSFXRWQOWP2XFUSMS4AZDFAL","","null","<img src=""img/land1.png"" style=""width:200px; border:14px solid green;"">","null","","","","","","","","","",""
"","image-keyboard-response","68","66269","0.0-68.0","3U088ZLJVLF4MHIWRMX3WNYF3LLW01","A1YFVXP4A1CXSF","3S1L4CQSFXRWQOWP2XFUSMS4AZDFAL","","801.1999999284744","img/land5.png","76","802.3000000715256","3","1","3","1","1,0.5,0.5,0.5,1,0.5,0.5,0.5,1","1,0.5,0.5,0.5,1,0.5,0.5,0.5,1","1","",""
"","html-keyboard-response","69","66571","0.0-69.0","3U088ZLJVLF4MHIWRMX3WNYF3LLW01","A1YFVXP4A1CXSF","3S1L4CQSFXRWQOWP2XFUSMS4AZDFAL","","null","<img src=""img/land5.png"" style=""width:200px; border:14px solid green;"">","null","","","","","","","","","",""
"","image-keyboard-response","70","67181","0.0-70.0","3U088ZLJVLF4MHIWRMX3WNYF3LLW01","A1YFVXP4A1CXSF","3S1L4CQSFXRWQOWP2XFUSMS4AZDFAL","","608.8999999761581","img/land3.png","74","609.7999999523163","1","1","1","1","1,0.5,0.5,0.5,1,0.5,0.5,0.5,1","1,0.5,0.5,0.5,1,0.5,0.5,0.5,1","1","",""
"","html-keyboard-response","71","67482","0.0-71.0","3U088ZLJVLF4MHIWRMX3WNYF3LLW01","A1YFVXP4A1CXSF","3S1L4CQSFXRWQOWP2XFUSMS4AZDFAL","","null","<img src=""img/land3.png"" style=""width:200px; border:14px solid green;"">","null","","","","","","","","","",""
"","image-keyboard-response","72","68181","0.0-72.0","3U088ZLJVLF4MHIWRMX3WNYF3LLW01","A1YFVXP4A1CXSF","3S1L4CQSFXRWQOWP2XFUSMS4AZDFAL","","697.5","img/land1.png","75","698.6999999284744","2","1","2","1","1,0.5,0.5,0.5,1,0.5,0.5,0.5,1","1,0.5,0.5,0.5,1,0.5,0.5,0.5,1","1","",""
"","html-keyboard-response","73","68483","0.0-73.0","3U088ZLJVLF4MHIWRMX3WNYF3LLW01","A1YFVXP4A1CXSF","3S1L4CQSFXRWQOWP2XFUSMS4AZDFAL","","null","<img src=""img/land1.png"" style=""width:200px; border:14px solid green;"">","null","","","","","","","","","",""
"","image-keyboard-response","74","69581","0.0-74.0","3U088ZLJVLF4MHIWRMX3WNYF3LLW01","A1YFVXP4A1CXSF","3S1L4CQSFXRWQOWP2XFUSMS4AZDFAL","","1096.7999999523163","img/land1.png","75","1097.8999999761581","2","1","2","1","1,0.5,0.5,0.5,1,0.5,0.5,0.5,1","1,0.5,0.5,0.5,1,0.5,0.5,0.5,1","1","",""
"","html-keyboard-response","75","69883","0.0-75.0","3U088ZLJVLF4MHIWRMX3WNYF3LLW01","A1YFVXP4A1CXSF","3S1L4CQSFXRWQOWP2XFUSMS4AZDFAL","","null","<img src=""img/land1.png"" style=""width:200px; border:14px solid green;"">","null","","","","","","","","","",""
"","image-keyboard-response","76","70469","0.0-76.0","3U088ZLJVLF4MHIWRMX3WNYF3LLW01","A1YFVXP4A1CXSF","3S1L4CQSFXRWQOWP2XFUSMS4AZDFAL","","584.5","img/land3.png","74","585.6000000238419","1","1","1","1","1,0.5,0.5,0.5,1,0.5,0.5,0.5,1","1,0.5,0.5,0.5,1,0.5,0.5,0.5,1","1","",""
"","html-keyboard-response","77","70772","0.0-77.0","3U088ZLJVLF4MHIWRMX3WNYF3LLW01","A1YFVXP4A1CXSF","3S1L4CQSFXRWQOWP2XFUSMS4AZDFAL","","null","<img src=""img/land3.png"" style=""width:200px; border:14px solid green;"">","null","","","","","","","","","",""
"","image-keyboard-response","78","71501","0.0-78.0","3U088ZLJVLF4MHIWRMX3WNYF3LLW01","A1YFVXP4A1CXSF","3S1L4CQSFXRWQOWP2XFUSMS4AZDFAL","","728.1000000238419","img/land3.png","74","729.2000000476837","1","1","1","1","1,0.5,0.5,0.5,1,0.5,0.5,0.5,1","1,0.5,0.5,0.5,1,0.5,0.5,0.5,1","1","",""
"","html-keyboard-response","79","71803","0.0-79.0","3U088ZLJVLF4MHIWRMX3WNYF3LLW01","A1YFVXP4A1CXSF","3S1L4CQSFXRWQOWP2XFUSMS4AZDFAL","","null","<img src=""img/land3.png"" style=""width:200px; border:14px solid green;"">","null","","","","","","","","","",""
"","image-keyboard-response","80","72901","0.0-80.0","3U088ZLJVLF4MHIWRMX3WNYF3LLW01","A1YFVXP4A1CXSF","3S1L4CQSFXRWQOWP2XFUSMS4AZDFAL","","1096.8000000715256","img/land3.png","74","1097.7999999523163","1","1","1","1","1,0.5,0.5,0.5,1,0.5,0.5,0.5,1","1,0.5,0.5,0.5,1,0.5,0.5,0.5,1","1","",""
"","html-keyboard-response","81","73203","0.0-81.0","3U088ZLJVLF4MHIWRMX3WNYF3LLW01","A1YFVXP4A1CXSF","3S1L4CQSFXRWQOWP2XFUSMS4AZDFAL","","null","<img src=""img/land3.png"" style=""width:200px; border:14px solid green;"">","null","","","","","","","","","",""
"","image-keyboard-response","82","74341","0.0-82.0","3U088ZLJVLF4MHIWRMX3WNYF3LLW01","A1YFVXP4A1CXSF","3S1L4CQSFXRWQOWP2XFUSMS4AZDFAL","","1136.6000000238419","img/land1.png","76","1137.7000000476837","3","1","2","1","1,0.5,0.5,0.5,1,0.5,0.5,0.5,1","1,0.5,0.5,0.5,1,0.5,0.5,0.5,1","1","",""
"","html-keyboard-response","83","74644","0.0-83.0","3U088ZLJVLF4MHIWRMX3WNYF3LLW01","A1YFVXP4A1CXSF","3S1L4CQSFXRWQOWP2XFUSMS4AZDFAL","","null","<img src=""img/land1.png"" style=""width:200px; border:14px solid green;"">","null","","","","","","","","","",""
"","image-keyboard-response","84","75293","0.0-84.0","3U088ZLJVLF4MHIWRMX3WNYF3LLW01","A1YFVXP4A1CXSF","3S1L4CQSFXRWQOWP2XFUSMS4AZDFAL","","648.1999999284744","img/land5.png","75","649.2000000476837","2","0","3","1","1,0.5,0.5,0.5,1,0.5,0.5,0.5,1","1,0.5,0.5,0.5,1,0.5,0.5,0.5,1","1","",""
"","html-keyboard-response","85","75595","0.0-85.0","3U088ZLJVLF4MHIWRMX3WNYF3LLW01","A1YFVXP4A1CXSF","3S1L4CQSFXRWQOWP2XFUSMS4AZDFAL","","null","<img src=""img/land5.png"" style=""width:200px;border:14px solid red;"">","null","","","","","","","","","",""
"","image-keyboard-response","86","76045","0.0-86.0","3U088ZLJVLF4MHIWRMX3WNYF3LLW01","A1YFVXP4A1CXSF","3S1L4CQSFXRWQOWP2XFUSMS4AZDFAL","","448.8000000715256","img/land5.png","76","450","3","1","3","1","1,0.5,0.5,0.5,1,0.5,0.5,0.5,1","1,0.5,0.5,0.5,1,0.5,0.5,0.5,1","1","",""
"","html-keyboard-response","87","76347","0.0-87.0","3U088ZLJVLF4MHIWRMX3WNYF3LLW01","A1YFVXP4A1CXSF","3S1L4CQSFXRWQOWP2XFUSMS4AZDFAL","","null","<img src=""img/land5.png"" style=""width:200px; border:14px solid green;"">","null","","","","","","","","","",""
"","image-keyboard-response","88","76981","0.0-88.0","3U088ZLJVLF4MHIWRMX3WNYF3LLW01","A1YFVXP4A1CXSF","3S1L4CQSFXRWQOWP2XFUSMS4AZDFAL","","632.7999999523163","img/land3.png","74","634","1","1","1","1","1,0.5,0.5,0.5,1,0.5,0.5,0.5,1","1,0.5,0.5,0.5,1,0.5,0.5,0.5,1","1","",""
"","html-keyboard-response","89","77283","0.0-89.0","3U088ZLJVLF4MHIWRMX3WNYF3LLW01","A1YFVXP4A1CXSF","3S1L4CQSFXRWQOWP2XFUSMS4AZDFAL","","null","<img src=""img/land3.png"" style=""width:200px; border:14px solid green;"">","null","","","","","","","","","",""
"","image-keyboard-response","90","77829","0.0-90.0","3U088ZLJVLF4MHIWRMX3WNYF3LLW01","A1YFVXP4A1CXSF","3S1L4CQSFXRWQOWP2XFUSMS4AZDFAL","","544.3000000715256","img/land3.png","74","545.3999999761581","1","1","1","1","1,0.5,0.5,0.5,1,0.5,0.5,0.5,1","1,0.5,0.5,0.5,1,0.5,0.5,0.5,1","1","",""
"","html-keyboard-response","91","78132","0.0-91.0","3U088ZLJVLF4MHIWRMX3WNYF3LLW01","A1YFVXP4A1CXSF","3S1L4CQSFXRWQOWP2XFUSMS4AZDFAL","","null","<img src=""img/land3.png"" style=""width:200px; border:14px solid green;"">","null","","","","","","","","","",""
"","image-keyboard-response","92","79237","0.0-92.0","3U088ZLJVLF4MHIWRMX3WNYF3LLW01","A1YFVXP4A1CXSF","3S1L4CQSFXRWQOWP2XFUSMS4AZDFAL","","1104.2999999523163","img/land1.png","75","1105.3999999761581","2","1","2","1","1,0.5,0.5,0.5,1,0.5,0.5,0.5,1","1,0.5,0.5,0.5,1,0.5,0.5,0.5,1","1","",""
"","html-keyboard-response","93","79539","0.0-93.0","3U088ZLJVLF4MHIWRMX3WNYF3LLW01","A1YFVXP4A1CXSF","3S1L4CQSFXRWQOWP2XFUSMS4AZDFAL","","null","<img src=""img/land1.png"" style=""width:200px; border:14px solid green;"">","null","","","","","","","","","",""
"","image-keyboard-response","94","80157","0.0-94.0","3U088ZLJVLF4MHIWRMX3WNYF3LLW01","A1YFVXP4A1CXSF","3S1L4CQSFXRWQOWP2XFUSMS4AZDFAL","","616.7000000476837","img/land5.png","76","617.6000000238419","3","1","3","1","1,0.5,0.5,0.5,1,0.5,0.5,0.5,1","1,0.5,0.5,0.5,1,0.5,0.5,0.5,1","1","",""
"","html-keyboard-response","95","80459","0.0-95.0","3U088ZLJVLF4MHIWRMX3WNYF3LLW01","A1YFVXP4A1CXSF","3S1L4CQSFXRWQOWP2XFUSMS4AZDFAL","","null","<img src=""img/land5.png"" style=""width:200px; border:14px solid green;"">","null","","","","","","","","","",""
"","image-keyboard-response","96","81461","0.0-96.0","3U088ZLJVLF4MHIWRMX3WNYF3LLW01","A1YFVXP4A1CXSF","3S1L4CQSFXRWQOWP2XFUSMS4AZDFAL","","1000.8000000715256","img/land5.png","76","1001.7999999523163","3","1","3","1","1,0.5,0.5,0.5,1,0.5,0.5,0.5,1","1,0.5,0.5,0.5,1,0.5,0.5,0.5,1","1","",""
"","html-keyboard-response","97","81763","0.0-97.0","3U088ZLJVLF4MHIWRMX3WNYF3LLW01","A1YFVXP4A1CXSF","3S1L4CQSFXRWQOWP2XFUSMS4AZDFAL","","null","<img src=""img/land5.png"" style=""width:200px; border:14px solid green;"">","null","","","","","","","","","",""
"","image-keyboard-response","98","82285","0.0-98.0","3U088ZLJVLF4MHIWRMX3WNYF3LLW01","A1YFVXP4A1CXSF","3S1L4CQSFXRWQOWP2XFUSMS4AZDFAL","","520.8000000715256","img/land1.png","75","521.8999999761581","2","1","2","1","1,0.5,0.5,0.5,1,0.5,0.5,0.5,1","1,0.5,0.5,0.5,1,0.5,0.5,0.5,1","1","",""
"","html-keyboard-response","99","82587","0.0-99.0","3U088ZLJVLF4MHIWRMX3WNYF3LLW01","A1YFVXP4A1CXSF","3S1L4CQSFXRWQOWP2XFUSMS4AZDFAL","","null","<img src=""img/land1.png"" style=""width:200px; border:14px solid green;"">","null","","","","","","","","","",""
"","image-keyboard-response","100","83221","0.0-100.0","3U088ZLJVLF4MHIWRMX3WNYF3LLW01","A1YFVXP4A1CXSF","3S1L4CQSFXRWQOWP2XFUSMS4AZDFAL","","632.8000000715256","img/land3.png","74","633.7999999523163","1","1","1","1","1,0.5,0.5,0.5,1,0.5,0.5,0.5,1","1,0.5,0.5,0.5,1,0.5,0.5,0.5,1","1","",""
"","html-keyboard-response","101","83523","0.0-101.0","3U088ZLJVLF4MHIWRMX3WNYF3LLW01","A1YFVXP4A1CXSF","3S1L4CQSFXRWQOWP2XFUSMS4AZDFAL","","null","<img src=""img/land3.png"" style=""width:200px; border:14px solid green;"">","null","","","","","","","","","",""
"","image-keyboard-response","102","84573","0.0-102.0","3U088ZLJVLF4MHIWRMX3WNYF3LLW01","A1YFVXP4A1CXSF","3S1L4CQSFXRWQOWP2XFUSMS4AZDFAL","","1048.7000000476837","img/land3.png","74","1049.6999999284744","1","1","1","1","1,0.5,0.5,0.5,1,0.5,0.5,0.5,1","1,0.5,0.5,0.5,1,0.5,0.5,0.5,1","1","",""
"","html-keyboard-response","103","84874","0.0-103.0","3U088ZLJVLF4MHIWRMX3WNYF3LLW01","A1YFVXP4A1CXSF","3S1L4CQSFXRWQOWP2XFUSMS4AZDFAL","","null","<img src=""img/land3.png"" style=""width:200px; border:14px solid green;"">","null","","","","","","","","","",""
"","image-keyboard-response","104","85781","0.0-104.0","3U088ZLJVLF4MHIWRMX3WNYF3LLW01","A1YFVXP4A1CXSF","3S1L4CQSFXRWQOWP2XFUSMS4AZDFAL","","905.1000000238419","img/land1.png","76","906.1999999284744","3","1","2","1","1,0.5,0.5,0.5,1,0.5,0.5,0.5,1","1,0.5,0.5,0.5,1,0.5,0.5,0.5,1","1","",""
"","html-keyboard-response","105","86083","0.0-105.0","3U088ZLJVLF4MHIWRMX3WNYF3LLW01","A1YFVXP4A1CXSF","3S1L4CQSFXRWQOWP2XFUSMS4AZDFAL","","null","<img src=""img/land1.png"" style=""width:200px; border:14px solid green;"">","null","","","","","","","","","",""
"","image-keyboard-response","106","87037","0.0-106.0","3U088ZLJVLF4MHIWRMX3WNYF3LLW01","A1YFVXP4A1CXSF","3S1L4CQSFXRWQOWP2XFUSMS4AZDFAL","","952.9000000953674","img/land5.png","75","953.8999999761581","2","0","3","1","1,0.5,0.5,0.5,1,0.5,0.5,0.5,1","1,0.5,0.5,0.5,1,0.5,0.5,0.5,1","1","",""
"","html-keyboard-response","107","87338","0.0-107.0","3U088ZLJVLF4MHIWRMX3WNYF3LLW01","A1YFVXP4A1CXSF","3S1L4CQSFXRWQOWP2XFUSMS4AZDFAL","","null","<img src=""img/land5.png"" style=""width:200px;border:14px solid red;"">","null","","","","","","","","","",""
"","image-keyboard-response","108","87525","0.0-108.0","3U088ZLJVLF4MHIWRMX3WNYF3LLW01","A1YFVXP4A1CXSF","3S1L4CQSFXRWQOWP2XFUSMS4AZDFAL","","185.10000002384186","img/land1.png","76","186.19999992847443","3","1","2","1","1,0.5,0.5,0.5,1,0.5,0.5,0.5,1","1,0.5,0.5,0.5,1,0.5,0.5,0.5,1","1","",""
"","html-keyboard-response","109","87827","0.0-109.0","3U088ZLJVLF4MHIWRMX3WNYF3LLW01","A1YFVXP4A1CXSF","3S1L4CQSFXRWQOWP2XFUSMS4AZDFAL","","null","<img src=""img/land1.png"" style=""width:200px; border:14px solid green;"">","null","","","","","","","","","",""
"","image-keyboard-response","110","89213","0.0-110.0","3U088ZLJVLF4MHIWRMX3WNYF3LLW01","A1YFVXP4A1CXSF","3S1L4CQSFXRWQOWP2XFUSMS4AZDFAL","","1384.8000000715256","img/land1.png","76","1385.7999999523163","3","1","2","1","1,0.5,0.5,0.5,1,0.5,0.5,0.5,1","1,0.5,0.5,0.5,1,0.5,0.5,0.5,1","1","",""
"","html-keyboard-response","111","89515","0.0-111.0","3U088ZLJVLF4MHIWRMX3WNYF3LLW01","A1YFVXP4A1CXSF","3S1L4CQSFXRWQOWP2XFUSMS4AZDFAL","","null","<img src=""img/land1.png"" style=""width:200px; border:14px solid green;"">","null","","","","","","","","","",""
"","image-keyboard-response","112","90957","0.0-112.0","3U088ZLJVLF4MHIWRMX3WNYF3LLW01","A1YFVXP4A1CXSF","3S1L4CQSFXRWQOWP2XFUSMS4AZDFAL","","1441.0999999046326","img/land1.png","76","1442.2000000476837","3","1","2","1","1,0.5,0.5,0.5,1,0.5,0.5,0.5,1","1,0.5,0.5,0.5,1,0.5,0.5,0.5,1","1","",""
"","html-keyboard-response","113","91260","0.0-113.0","3U088ZLJVLF4MHIWRMX3WNYF3LLW01","A1YFVXP4A1CXSF","3S1L4CQSFXRWQOWP2XFUSMS4AZDFAL","","null","<img src=""img/land1.png"" style=""width:200px; border:14px solid green;"">","null","","","","","","","","","",""
"","image-keyboard-response","114","91933","0.0-114.0","3U088ZLJVLF4MHIWRMX3WNYF3LLW01","A1YFVXP4A1CXSF","3S1L4CQSFXRWQOWP2XFUSMS4AZDFAL","","672.1000000238419","img/land3.png","74","673.1000000238419","1","1","1","1","1,0.5,0.5,0.5,1,0.5,0.5,0.5,1","1,0.5,0.5,0.5,1,0.5,0.5,0.5,1","1","",""
"","html-keyboard-response","115","92235","0.0-115.0","3U088ZLJVLF4MHIWRMX3WNYF3LLW01","A1YFVXP4A1CXSF","3S1L4CQSFXRWQOWP2XFUSMS4AZDFAL","","null","<img src=""img/land3.png"" style=""width:200px; border:14px solid green;"">","null","","","","","","","","","",""
"","image-keyboard-response","116","93205","0.0-116.0","3U088ZLJVLF4MHIWRMX3WNYF3LLW01","A1YFVXP4A1CXSF","3S1L4CQSFXRWQOWP2XFUSMS4AZDFAL","","968.8000000715256","img/land1.png","76","969.7999999523163","3","0","2","1","1,0.5,0.5,0.5,1,0.5,0.5,0.5,1","1,0.5,0.5,0.5,1,0.5,0.5,0.5,1","1","",""
"","html-keyboard-response","117","93508","0.0-117.0","3U088ZLJVLF4MHIWRMX3WNYF3LLW01","A1YFVXP4A1CXSF","3S1L4CQSFXRWQOWP2XFUSMS4AZDFAL","","null","<img src=""img/land1.png"" style=""width:200px;border:14px solid red;"">","null","","","","","","","","","",""
"","image-keyboard-response","118","93693","0.0-118.0","3U088ZLJVLF4MHIWRMX3WNYF3LLW01","A1YFVXP4A1CXSF","3S1L4CQSFXRWQOWP2XFUSMS4AZDFAL","","183.80000007152557","img/land5.png","75","184.79999995231628","2","1","3","1","1,0.5,0.5,0.5,1,0.5,0.5,0.5,1","1,0.5,0.5,0.5,1,0.5,0.5,0.5,1","1","",""
"","html-keyboard-response","119","93995","0.0-119.0","3U088ZLJVLF4MHIWRMX3WNYF3LLW01","A1YFVXP4A1CXSF","3S1L4CQSFXRWQOWP2XFUSMS4AZDFAL","","null","<img src=""img/land5.png"" style=""width:200px; border:14px solid green;"">","null","","","","","","","","","",""
"","image-keyboard-response","120","94749","0.0-120.0","3U088ZLJVLF4MHIWRMX3WNYF3LLW01","A1YFVXP4A1CXSF","3S1L4CQSFXRWQOWP2XFUSMS4AZDFAL","","753.1000000238419","img/land1.png","76","754.1000000238419","3","0","2","1","1,0.5,0.5,0.5,1,0.5,0.5,0.5,1","1,0.5,0.5,0.5,1,0.5,0.5,0.5,1","1","",""
"","html-keyboard-response","121","95050","0.0-121.0","3U088ZLJVLF4MHIWRMX3WNYF3LLW01","A1YFVXP4A1CXSF","3S1L4CQSFXRWQOWP2XFUSMS4AZDFAL","","null","<img src=""img/land1.png"" style=""width:200px;border:14px solid red;"">","null","","","","","","","","","",""
"","image-keyboard-response","122","95917","0.0-122.0","3U088ZLJVLF4MHIWRMX3WNYF3LLW01","A1YFVXP4A1CXSF","3S1L4CQSFXRWQOWP2XFUSMS4AZDFAL","","865.3000000715256","img/land3.png","74","866.3999999761581","1","1","1","1","1,0.5,0.5,0.5,1,0.5,0.5,0.5,1","1,0.5,0.5,0.5,1,0.5,0.5,0.5,1","1","",""
"","html-keyboard-response","123","96219","0.0-123.0","3U088ZLJVLF4MHIWRMX3WNYF3LLW01","A1YFVXP4A1CXSF","3S1L4CQSFXRWQOWP2XFUSMS4AZDFAL","","null","<img src=""img/land3.png"" style=""width:200px; border:14px solid green;"">","null","","","","","","","","","",""
"","image-keyboard-response","124","97261","0.0-124.0","3U088ZLJVLF4MHIWRMX3WNYF3LLW01","A1YFVXP4A1CXSF","3S1L4CQSFXRWQOWP2XFUSMS4AZDFAL","","1040.8999999761581","img/land5.png","76","1041.8999999761581","3","1","3","1","1,0.5,0.5,0.5,1,0.5,0.5,0.5,1","1,0.5,0.5,0.5,1,0.5,0.5,0.5,1","1","",""
"","html-keyboard-response","125","97563","0.0-125.0","3U088ZLJVLF4MHIWRMX3WNYF3LLW01","A1YFVXP4A1CXSF","3S1L4CQSFXRWQOWP2XFUSMS4AZDFAL","","null","<img src=""img/land5.png"" style=""width:200px; border:14px solid green;"">","null","","","","","","","","","",""
"","image-keyboard-response","126","98653","0.0-126.0","3U088ZLJVLF4MHIWRMX3WNYF3LLW01","A1YFVXP4A1CXSF","3S1L4CQSFXRWQOWP2XFUSMS4AZDFAL","","1088.5","img/land5.png","76","1089.5","3","1","3","1","1,0.5,0.5,0.5,1,0.5,0.5,0.5,1","1,0.5,0.5,0.5,1,0.5,0.5,0.5,1","1","",""
"","html-keyboard-response","127","98955","0.0-127.0","3U088ZLJVLF4MHIWRMX3WNYF3LLW01","A1YFVXP4A1CXSF","3S1L4CQSFXRWQOWP2XFUSMS4AZDFAL","","null","<img src=""img/land5.png"" style=""width:200px; border:14px solid green;"">","null","","","","","","","","","",""
"","image-keyboard-response","128","99829","0.0-128.0","3U088ZLJVLF4MHIWRMX3WNYF3LLW01","A1YFVXP4A1CXSF","3S1L4CQSFXRWQOWP2XFUSMS4AZDFAL","","872.8999999761581","img/land1.png","75","873.6999999284744","2","1","2","1","1,0.5,0.5,0.5,1,0.5,0.5,0.5,1","1,0.5,0.5,0.5,1,0.5,0.5,0.5,1","1","",""
"","html-keyboard-response","129","100131","0.0-129.0","3U088ZLJVLF4MHIWRMX3WNYF3LLW01","A1YFVXP4A1CXSF","3S1L4CQSFXRWQOWP2XFUSMS4AZDFAL","","null","<img src=""img/land1.png"" style=""width:200px; border:14px solid green;"">","null","","","","","","","","","",""
"","image-keyboard-response","130","101261","0.0-130.0","3U088ZLJVLF4MHIWRMX3WNYF3LLW01","A1YFVXP4A1CXSF","3S1L4CQSFXRWQOWP2XFUSMS4AZDFAL","","1128.9000000953674","img/land1.png","75","1130","2","1","2","1","1,0.5,0.5,0.5,1,0.5,0.5,0.5,1","1,0.5,0.5,0.5,1,0.5,0.5,0.5,1","1","",""
"","html-keyboard-response","131","101563","0.0-131.0","3U088ZLJVLF4MHIWRMX3WNYF3LLW01","A1YFVXP4A1CXSF","3S1L4CQSFXRWQOWP2XFUSMS4AZDFAL","","null","<img src=""img/land1.png"" style=""width:200px; border:14px solid green;"">","null","","","","","","","","","",""
"","image-keyboard-response","132","102221","0.0-132.0","3U088ZLJVLF4MHIWRMX3WNYF3LLW01","A1YFVXP4A1CXSF","3S1L4CQSFXRWQOWP2XFUSMS4AZDFAL","","656.7999999523163","img/land3.png","74","657.8999999761581","1","1","1","1","1,0.5,0.5,0.5,1,0.5,0.5,0.5,1","1,0.5,0.5,0.5,1,0.5,0.5,0.5,1","1","",""
"","html-keyboard-response","133","102523","0.0-133.0","3U088ZLJVLF4MHIWRMX3WNYF3LLW01","A1YFVXP4A1CXSF","3S1L4CQSFXRWQOWP2XFUSMS4AZDFAL","","null","<img src=""img/land3.png"" style=""width:200px; border:14px solid green;"">","null","","","","","","","","","",""
"","image-keyboard-response","134","103349","0.0-134.0","3U088ZLJVLF4MHIWRMX3WNYF3LLW01","A1YFVXP4A1CXSF","3S1L4CQSFXRWQOWP2XFUSMS4AZDFAL","","824.7000000476837","img/land5.png","76","825.6999999284744","3","1","3","1","1,0.5,0.5,0.5,1,0.5,0.5,0.5,1","1,0.5,0.5,0.5,1,0.5,0.5,0.5,1","1","",""
"","html-keyboard-response","135","103651","0.0-135.0","3U088ZLJVLF4MHIWRMX3WNYF3LLW01","A1YFVXP4A1CXSF","3S1L4CQSFXRWQOWP2XFUSMS4AZDFAL","","null","<img src=""img/land5.png"" style=""width:200px; border:14px solid green;"">","null","","","","","","","","","",""
"","image-keyboard-response","136","104909","0.0-136.0","3U088ZLJVLF4MHIWRMX3WNYF3LLW01","A1YFVXP4A1CXSF","3S1L4CQSFXRWQOWP2XFUSMS4AZDFAL","","1256.2000000476837","img/land5.png","76","1257.2999999523163","3","1","3","1","1,0.5,0.5,0.5,1,0.5,0.5,0.5,1","1,0.5,0.5,0.5,1,0.5,0.5,0.5,1","1","",""
"","html-keyboard-response","137","105212","0.0-137.0","3U088ZLJVLF4MHIWRMX3WNYF3LLW01","A1YFVXP4A1CXSF","3S1L4CQSFXRWQOWP2XFUSMS4AZDFAL","","null","<img src=""img/land5.png"" style=""width:200px; border:14px solid green;"">","null","","","","","","","","","",""
"","image-keyboard-response","138","106205","0.0-138.0","3U088ZLJVLF4MHIWRMX3WNYF3LLW01","A1YFVXP4A1CXSF","3S1L4CQSFXRWQOWP2XFUSMS4AZDFAL","","991.6999999284744","img/land1.png","76","992.8000000715256","3","0","2","1","1,0.5,0.5,0.5,1,0.5,0.5,0.5,1","1,0.5,0.5,0.5,1,0.5,0.5,0.5,1","1","",""
"","html-keyboard-response","139","106507","0.0-139.0","3U088ZLJVLF4MHIWRMX3WNYF3LLW01","A1YFVXP4A1CXSF","3S1L4CQSFXRWQOWP2XFUSMS4AZDFAL","","null","<img src=""img/land1.png"" style=""width:200px;border:14px solid red;"">","null","","","","","","","","","",""
"","image-keyboard-response","140","106581","0.0-140.0","3U088ZLJVLF4MHIWRMX3WNYF3LLW01","A1YFVXP4A1CXSF","3S1L4CQSFXRWQOWP2XFUSMS4AZDFAL","","72.89999997615814","img/land3.png","75","74","2","0","1","1","1,0.5,0.5,0.5,1,0.5,0.5,0.5,1","1,0.5,0.5,0.5,1,0.5,0.5,0.5,1","1","",""
"","html-keyboard-response","141","106884","0.0-141.0","3U088ZLJVLF4MHIWRMX3WNYF3LLW01","A1YFVXP4A1CXSF","3S1L4CQSFXRWQOWP2XFUSMS4AZDFAL","","null","<img src=""img/land3.png"" style=""width:200px;border:14px solid red;"">","null","","","","","","","","","",""
"","image-keyboard-response","142","107221","0.0-142.0","3U088ZLJVLF4MHIWRMX3WNYF3LLW01","A1YFVXP4A1CXSF","3S1L4CQSFXRWQOWP2XFUSMS4AZDFAL","","335.6999999284744","img/land5.png","74","336.8000000715256","1","1","3","1","1,0.5,0.5,0.5,1,0.5,0.5,0.5,1","1,0.5,0.5,0.5,1,0.5,0.5,0.5,1","1","",""
"","html-keyboard-response","143","107523","0.0-143.0","3U088ZLJVLF4MHIWRMX3WNYF3LLW01","A1YFVXP4A1CXSF","3S1L4CQSFXRWQOWP2XFUSMS4AZDFAL","","null","<img src=""img/land5.png"" style=""width:200px; border:14px solid green;"">","null","","","","","","","","","",""
"","image-keyboard-response","144","108397","0.0-144.0","3U088ZLJVLF4MHIWRMX3WNYF3LLW01","A1YFVXP4A1CXSF","3S1L4CQSFXRWQOWP2XFUSMS4AZDFAL","","872.6999999284744","img/land5.png","76","873.8000000715256","3","1","3","1","1,0.5,0.5,0.5,1,0.5,0.5,0.5,1","1,0.5,0.5,0.5,1,0.5,0.5,0.5,1","1","",""
"","html-keyboard-response","145","108699","0.0-145.0","3U088ZLJVLF4MHIWRMX3WNYF3LLW01","A1YFVXP4A1CXSF","3S1L4CQSFXRWQOWP2XFUSMS4AZDFAL","","null","<img src=""img/land5.png"" style=""width:200px; border:14px solid green;"">","null","","","","","","","","","",""
"","image-keyboard-response","146","109909","0.0-146.0","3U088ZLJVLF4MHIWRMX3WNYF3LLW01","A1YFVXP4A1CXSF","3S1L4CQSFXRWQOWP2XFUSMS4AZDFAL","","1208.5999999046326","img/land5.png","76","1209.8999999761581","3","1","3","1","1,0.5,0.5,0.5,1,0.5,0.5,0.5,1","1,0.5,0.5,0.5,1,0.5,0.5,0.5,1","1","",""
"","html-keyboard-response","147","110211","0.0-147.0","3U088ZLJVLF4MHIWRMX3WNYF3LLW01","A1YFVXP4A1CXSF","3S1L4CQSFXRWQOWP2XFUSMS4AZDFAL","","null","<img src=""img/land5.png"" style=""width:200px; border:14px solid green;"">","null","","","","","","","","","",""
"","image-keyboard-response","148","110965","0.0-148.0","3U088ZLJVLF4MHIWRMX3WNYF3LLW01","A1YFVXP4A1CXSF","3S1L4CQSFXRWQOWP2XFUSMS4AZDFAL","","752.6999999284744","img/land1.png","75","753.8000000715256","2","1","2","1","1,0.5,0.5,0.5,1,0.5,0.5,0.5,1","1,0.5,0.5,0.5,1,0.5,0.5,0.5,1","1","",""
"","html-keyboard-response","149","111267","0.0-149.0","3U088ZLJVLF4MHIWRMX3WNYF3LLW01","A1YFVXP4A1CXSF","3S1L4CQSFXRWQOWP2XFUSMS4AZDFAL","","null","<img src=""img/land1.png"" style=""width:200px; border:14px solid green;"">","null","","","","","","","","","",""
"","image-keyboard-response","150","112149","0.0-150.0","3U088ZLJVLF4MHIWRMX3WNYF3LLW01","A1YFVXP4A1CXSF","3S1L4CQSFXRWQOWP2XFUSMS4AZDFAL","","880.9000000953674","img/land5.png","76","882","3","1","3","1","1,0.5,0.5,0.5,1,0.5,0.5,0.5,1","1,0.5,0.5,0.5,1,0.5,0.5,0.5,1","1","",""
"","html-keyboard-response","151","112451","0.0-151.0","3U088ZLJVLF4MHIWRMX3WNYF3LLW01","A1YFVXP4A1CXSF","3S1L4CQSFXRWQOWP2XFUSMS4AZDFAL","","null","<img src=""img/land5.png"" style=""width:200px; border:14px solid green;"">","null","","","","","","","","","",""
"","image-keyboard-response","152","113029","0.0-152.0","3U088ZLJVLF4MHIWRMX3WNYF3LLW01","A1YFVXP4A1CXSF","3S1L4CQSFXRWQOWP2XFUSMS4AZDFAL","","577","img/land3.png","74","577.9000000953674","1","1","1","1","1,0.5,0.5,0.5,1,0.5,0.5,0.5,1","1,0.5,0.5,0.5,1,0.5,0.5,0.5,1","1","",""
"","html-keyboard-response","153","113331","0.0-153.0","3U088ZLJVLF4MHIWRMX3WNYF3LLW01","A1YFVXP4A1CXSF","3S1L4CQSFXRWQOWP2XFUSMS4AZDFAL","","null","<img src=""img/land3.png"" style=""width:200px; border:14px solid green;"">","null","","","","","","","","","",""
"","image-keyboard-response","154","113805","0.0-154.0","3U088ZLJVLF4MHIWRMX3WNYF3LLW01","A1YFVXP4A1CXSF","3S1L4CQSFXRWQOWP2XFUSMS4AZDFAL","","472.7999999523163","img/land3.png","74","473.89999997615814","1","1","1","1","1,0.5,0.5,0.5,1,0.5,0.5,0.5,1","1,0.5,0.5,0.5,1,0.5,0.5,0.5,1","1","",""
"","html-keyboard-response","155","114107","0.0-155.0","3U088ZLJVLF4MHIWRMX3WNYF3LLW01","A1YFVXP4A1CXSF","3S1L4CQSFXRWQOWP2XFUSMS4AZDFAL","","null","<img src=""img/land3.png"" style=""width:200px; border:14px solid green;"">","null","","","","","","","","","",""
"","image-keyboard-response","156","114717","0.0-156.0","3U088ZLJVLF4MHIWRMX3WNYF3LLW01","A1YFVXP4A1CXSF","3S1L4CQSFXRWQOWP2XFUSMS4AZDFAL","","608.6000000238419","img/land5.png","76","609.6000000238419","3","1","3","1","1,0.5,0.5,0.5,1,0.5,0.5,0.5,1","1,0.5,0.5,0.5,1,0.5,0.5,0.5,1","1","",""
"","html-keyboard-response","157","115019","0.0-157.0","3U088ZLJVLF4MHIWRMX3WNYF3LLW01","A1YFVXP4A1CXSF","3S1L4CQSFXRWQOWP2XFUSMS4AZDFAL","","null","<img src=""img/land5.png"" style=""width:200px; border:14px solid green;"">","null","","","","","","","","","",""
"","image-keyboard-response","158","115709","0.0-158.0","3U088ZLJVLF4MHIWRMX3WNYF3LLW01","A1YFVXP4A1CXSF","3S1L4CQSFXRWQOWP2XFUSMS4AZDFAL","","689.3999999761581","img/land3.png","74","690.5","1","1","1","1","1,0.5,0.5,0.5,1,0.5,0.5,0.5,1","1,0.5,0.5,0.5,1,0.5,0.5,0.5,1","1","",""
"","html-keyboard-response","159","116011","0.0-159.0","3U088ZLJVLF4MHIWRMX3WNYF3LLW01","A1YFVXP4A1CXSF","3S1L4CQSFXRWQOWP2XFUSMS4AZDFAL","","null","<img src=""img/land3.png"" style=""width:200px; border:14px solid green;"">","null","","","","","","","","","",""
"","image-keyboard-response","160","116637","0.0-160.0","3U088ZLJVLF4MHIWRMX3WNYF3LLW01","A1YFVXP4A1CXSF","3S1L4CQSFXRWQOWP2XFUSMS4AZDFAL","","624.8999999761581","img/land1.png","75","625.8999999761581","2","1","2","1","1,0.5,0.5,0.5,1,0.5,0.5,0.5,1","1,0.5,0.5,0.5,1,0.5,0.5,0.5,1","1","",""
"","html-keyboard-response","161","116939","0.0-161.0","3U088ZLJVLF4MHIWRMX3WNYF3LLW01","A1YFVXP4A1CXSF","3S1L4CQSFXRWQOWP2XFUSMS4AZDFAL","","null","<img src=""img/land1.png"" style=""width:200px; border:14px solid green;"">","null","","","","","","","","","",""
"","image-keyboard-response","162","118013","0.0-162.0","3U088ZLJVLF4MHIWRMX3WNYF3LLW01","A1YFVXP4A1CXSF","3S1L4CQSFXRWQOWP2XFUSMS4AZDFAL","","1073","img/land1.png","75","1074.1000000238419","2","1","2","1","1,0.5,0.5,0.5,1,0.5,0.5,0.5,1","1,0.5,0.5,0.5,1,0.5,0.5,0.5,1","1","",""
"","html-keyboard-response","163","118315","0.0-163.0","3U088ZLJVLF4MHIWRMX3WNYF3LLW01","A1YFVXP4A1CXSF","3S1L4CQSFXRWQOWP2XFUSMS4AZDFAL","","null","<img src=""img/land1.png"" style=""width:200px; border:14px solid green;"">","null","","","","","","","","","",""
"","image-keyboard-response","164","118941","0.0-164.0","3U088ZLJVLF4MHIWRMX3WNYF3LLW01","A1YFVXP4A1CXSF","3S1L4CQSFXRWQOWP2XFUSMS4AZDFAL","","625.1999999284744","img/land3.png","74","626.1000000238419","1","1","1","1","1,0.5,0.5,0.5,1,0.5,0.5,0.5,1","1,0.5,0.5,0.5,1,0.5,0.5,0.5,1","1","",""
"","html-keyboard-response","165","119243","0.0-165.0","3U088ZLJVLF4MHIWRMX3WNYF3LLW01","A1YFVXP4A1CXSF","3S1L4CQSFXRWQOWP2XFUSMS4AZDFAL","","null","<img src=""img/land3.png"" style=""width:200px; border:14px solid green;"">","null","","","","","","","","","",""
"","image-keyboard-response","166","120317","0.0-166.0","3U088ZLJVLF4MHIWRMX3WNYF3LLW01","A1YFVXP4A1CXSF","3S1L4CQSFXRWQOWP2XFUSMS4AZDFAL","","1072.8999999761581","img/land1.png","75","1074","2","1","2","1","1,0.5,0.5,0.5,1,0.5,0.5,0.5,1","1,0.5,0.5,0.5,1,0.5,0.5,0.5,1","1","",""
"","html-keyboard-response","167","120620","0.0-167.0","3U088ZLJVLF4MHIWRMX3WNYF3LLW01","A1YFVXP4A1CXSF","3S1L4CQSFXRWQOWP2XFUSMS4AZDFAL","","null","<img src=""img/land1.png"" style=""width:200px; border:14px solid green;"">","null","","","","","","","","","",""
"","image-keyboard-response","168","121053","0.0-168.0","3U088ZLJVLF4MHIWRMX3WNYF3LLW01","A1YFVXP4A1CXSF","3S1L4CQSFXRWQOWP2XFUSMS4AZDFAL","","432.10000002384186","img/land5.png","76","433.10000002384186","3","1","3","1","1,0.5,0.5,0.5,1,0.5,0.5,0.5,1","1,0.5,0.5,0.5,1,0.5,0.5,0.5,1","1","",""
"","html-keyboard-response","169","121355","0.0-169.0","3U088ZLJVLF4MHIWRMX3WNYF3LLW01","A1YFVXP4A1CXSF","3S1L4CQSFXRWQOWP2XFUSMS4AZDFAL","","null","<img src=""img/land5.png"" style=""width:200px; border:14px solid green;"">","null","","","","","","","","","",""
"","image-keyboard-response","170","121893","0.0-170.0","3U088ZLJVLF4MHIWRMX3WNYF3LLW01","A1YFVXP4A1CXSF","3S1L4CQSFXRWQOWP2XFUSMS4AZDFAL","","536.6999999284744","img/land3.png","74","537.9000000953674","1","1","1","1","1,0.5,0.5,0.5,1,0.5,0.5,0.5,1","1,0.5,0.5,0.5,1,0.5,0.5,0.5,1","1","",""
"","html-keyboard-response","171","122195","0.0-171.0","3U088ZLJVLF4MHIWRMX3WNYF3LLW01","A1YFVXP4A1CXSF","3S1L4CQSFXRWQOWP2XFUSMS4AZDFAL","","null","<img src=""img/land3.png"" style=""width:200px; border:14px solid green;"">","null","","","","","","","","","",""
"","image-keyboard-response","172","123461","0.0-172.0","3U088ZLJVLF4MHIWRMX3WNYF3LLW01","A1YFVXP4A1CXSF","3S1L4CQSFXRWQOWP2XFUSMS4AZDFAL","","1265.1000000238419","img/land3.png","74","1266.2999999523163","1","1","1","1","1,0.5,0.5,0.5,1,0.5,0.5,0.5,1","1,0.5,0.5,0.5,1,0.5,0.5,0.5,1","1","",""
"","html-keyboard-response","173","123763","0.0-173.0","3U088ZLJVLF4MHIWRMX3WNYF3LLW01","A1YFVXP4A1CXSF","3S1L4CQSFXRWQOWP2XFUSMS4AZDFAL","","null","<img src=""img/land3.png"" style=""width:200px; border:14px solid green;"">","null","","","","","","","","","",""
"","image-keyboard-response","174","125741","0.0-174.0","3U088ZLJVLF4MHIWRMX3WNYF3LLW01","A1YFVXP4A1CXSF","3S1L4CQSFXRWQOWP2XFUSMS4AZDFAL","","1977.1999999284744","img/land3.png","74","1978.2000000476837","1","1","1","1","1,0.5,0.5,0.5,1,0.5,0.5,0.5,1","1,0.5,0.5,0.5,1,0.5,0.5,0.5,1","1","",""
"","html-keyboard-response","175","126043","0.0-175.0","3U088ZLJVLF4MHIWRMX3WNYF3LLW01","A1YFVXP4A1CXSF","3S1L4CQSFXRWQOWP2XFUSMS4AZDFAL","","null","<img src=""img/land3.png"" style=""width:200px; border:14px solid green;"">","null","","","","","","","","","",""
"","image-keyboard-response","176","127021","0.0-176.0","3U088ZLJVLF4MHIWRMX3WNYF3LLW01","A1YFVXP4A1CXSF","3S1L4CQSFXRWQOWP2XFUSMS4AZDFAL","","976.6000000238419","img/land1.png","75","977.7000000476837","2","1","2","1","1,0.5,0.5,0.5,1,0.5,0.5,0.5,1","1,0.5,0.5,0.5,1,0.5,0.5,0.5,1","1","",""
"","html-keyboard-response","177","127323","0.0-177.0","3U088ZLJVLF4MHIWRMX3WNYF3LLW01","A1YFVXP4A1CXSF","3S1L4CQSFXRWQOWP2XFUSMS4AZDFAL","","null","<img src=""img/land1.png"" style=""width:200px; border:14px solid green;"">","null","","","","","","","","","",""
"","image-keyboard-response","178","128637","0.0-178.0","3U088ZLJVLF4MHIWRMX3WNYF3LLW01","A1YFVXP4A1CXSF","3S1L4CQSFXRWQOWP2XFUSMS4AZDFAL","","1313.1999999284744","img/land1.png","75","1314.3000000715256","2","1","2","1","1,0.5,0.5,0.5,1,0.5,0.5,0.5,1","1,0.5,0.5,0.5,1,0.5,0.5,0.5,1","1","",""
"","html-keyboard-response","179","128939","0.0-179.0","3U088ZLJVLF4MHIWRMX3WNYF3LLW01","A1YFVXP4A1CXSF","3S1L4CQSFXRWQOWP2XFUSMS4AZDFAL","","null","<img src=""img/land1.png"" style=""width:200px; border:14px solid green;"">","null","","","","","","","","","",""
"","image-keyboard-response","180","129437","0.0-180.0","3U088ZLJVLF4MHIWRMX3WNYF3LLW01","A1YFVXP4A1CXSF","3S1L4CQSFXRWQOWP2XFUSMS4AZDFAL","","496.7999999523163","img/land5.png","76","497.8000000715256","3","1","3","1","1,0.5,0.5,0.5,1,0.5,0.5,0.5,1","1,0.5,0.5,0.5,1,0.5,0.5,0.5,1","1","",""
"","html-keyboard-response","181","129739","0.0-181.0","3U088ZLJVLF4MHIWRMX3WNYF3LLW01","A1YFVXP4A1CXSF","3S1L4CQSFXRWQOWP2XFUSMS4AZDFAL","","null","<img src=""img/land5.png"" style=""width:200px; border:14px solid green;"">","null","","","","","","","","","",""
"","html-keyboard-response","182","132420","0.0-182.0","3U088ZLJVLF4MHIWRMX3WNYF3LLW01","A1YFVXP4A1CXSF","3S1L4CQSFXRWQOWP2XFUSMS4AZDFAL","","","","","","","","","","","","","",""
"","image-keyboard-response","183","133653","0.0-183.0","3U088ZLJVLF4MHIWRMX3WNYF3LLW01","A1YFVXP4A1CXSF","3S1L4CQSFXRWQOWP2XFUSMS4AZDFAL","","1232.5","img/land4.png","74","1233.5","1","0","2","2","1,0.5,0.5,0.5,1,0.5,0.5,0.5,1","0.5,1,0.5,0.5,0.5,1,1,0.5,0.5","3","",""
"","html-keyboard-response","184","133955","0.0-184.0","3U088ZLJVLF4MHIWRMX3WNYF3LLW01","A1YFVXP4A1CXSF","3S1L4CQSFXRWQOWP2XFUSMS4AZDFAL","","null","<img src=""img/land4.png"" style=""width:200px;border:14px solid red;"">","null","","","","","","","","","",""
"","image-keyboard-response","185","134165","0.0-185.0","3U088ZLJVLF4MHIWRMX3WNYF3LLW01","A1YFVXP4A1CXSF","3S1L4CQSFXRWQOWP2XFUSMS4AZDFAL","","208.29999995231628","img/land2.png","75","209.5","2","1","1","2","1,0.5,0.5,0.5,1,0.5,0.5,0.5,1","0.5,1,0.5,0.5,0.5,1,1,0.5,0.5","3","",""
"","html-keyboard-response","186","134468","0.0-186.0","3U088ZLJVLF4MHIWRMX3WNYF3LLW01","A1YFVXP4A1CXSF","3S1L4CQSFXRWQOWP2XFUSMS4AZDFAL","","null","<img src=""img/land2.png"" style=""width:200px; border:14px solid green;"">","null","","","","","","","","","",""
"","image-keyboard-response","187","136245","0.0-187.0","3U088ZLJVLF4MHIWRMX3WNYF3LLW01","A1YFVXP4A1CXSF","3S1L4CQSFXRWQOWP2XFUSMS4AZDFAL","","1776.1000000238419","img/land2.png","75","1777.1999999284744","2","1","1","2","1,0.5,0.5,0.5,1,0.5,0.5,0.5,1","0.5,1,0.5,0.5,0.5,1,1,0.5,0.5","3","",""
"","html-keyboard-response","188","136547","0.0-188.0","3U088ZLJVLF4MHIWRMX3WNYF3LLW01","A1YFVXP4A1CXSF","3S1L4CQSFXRWQOWP2XFUSMS4AZDFAL","","null","<img src=""img/land2.png"" style=""width:200px; border:14px solid green;"">","null","","","","","","","","","",""
"","image-keyboard-response","189","138549","0.0-189.0","3U088ZLJVLF4MHIWRMX3WNYF3LLW01","A1YFVXP4A1CXSF","3S1L4CQSFXRWQOWP2XFUSMS4AZDFAL","","","img/land2.png","","2002.4000000953674","-1","0","1","2","1,0.5,0.5,0.5,1,0.5,0.5,0.5,1","0.5,1,0.5,0.5,0.5,1,1,0.5,0.5","3","",""
"","html-keyboard-response","190","138852","0.0-190.0","3U088ZLJVLF4MHIWRMX3WNYF3LLW01","A1YFVXP4A1CXSF","3S1L4CQSFXRWQOWP2XFUSMS4AZDFAL","","null","<img src=""img/land2.png"" style=""width:200px;border:14px solid red;"">","null","","","","","","","","","",""
"","image-keyboard-response","191","139549","0.0-191.0","3U088ZLJVLF4MHIWRMX3WNYF3LLW01","A1YFVXP4A1CXSF","3S1L4CQSFXRWQOWP2XFUSMS4AZDFAL","","696.1000000238419","img/land6.png","76","697.2000000476837","3","0","3","2","1,0.5,0.5,0.5,1,0.5,0.5,0.5,1","0.5,1,0.5,0.5,0.5,1,1,0.5,0.5","3","",""
"","html-keyboard-response","192","139851","0.0-192.0","3U088ZLJVLF4MHIWRMX3WNYF3LLW01","A1YFVXP4A1CXSF","3S1L4CQSFXRWQOWP2XFUSMS4AZDFAL","","null","<img src=""img/land6.png"" style=""width:200px;border:14px solid red;"">","null","","","","","","","","","",""
"","image-keyboard-response","193","140077","0.0-193.0","3U088ZLJVLF4MHIWRMX3WNYF3LLW01","A1YFVXP4A1CXSF","3S1L4CQSFXRWQOWP2XFUSMS4AZDFAL","","224.79999995231628","img/land4.png","74","226","1","1","2","2","1,0.5,0.5,0.5,1,0.5,0.5,0.5,1","0.5,1,0.5,0.5,0.5,1,1,0.5,0.5","3","",""
"","html-keyboard-response","194","140379","0.0-194.0","3U088ZLJVLF4MHIWRMX3WNYF3LLW01","A1YFVXP4A1CXSF","3S1L4CQSFXRWQOWP2XFUSMS4AZDFAL","","null","<img src=""img/land4.png"" style=""width:200px; border:14px solid green;"">","null","","","","","","","","","",""
"","image-keyboard-response","195","141117","0.0-195.0","3U088ZLJVLF4MHIWRMX3WNYF3LLW01","A1YFVXP4A1CXSF","3S1L4CQSFXRWQOWP2XFUSMS4AZDFAL","","736.2999999523163","img/land2.png","75","737.4000000953674","2","1","1","2","1,0.5,0.5,0.5,1,0.5,0.5,0.5,1","0.5,1,0.5,0.5,0.5,1,1,0.5,0.5","3","",""
"","html-keyboard-response","196","141419","0.0-196.0","3U088ZLJVLF4MHIWRMX3WNYF3LLW01","A1YFVXP4A1CXSF","3S1L4CQSFXRWQOWP2XFUSMS4AZDFAL","","null","<img src=""img/land2.png"" style=""width:200px; border:14px solid green;"">","null","","","","","","","","","",""
"","image-keyboard-response","197","142637","0.0-197.0","3U088ZLJVLF4MHIWRMX3WNYF3LLW01","A1YFVXP4A1CXSF","3S1L4CQSFXRWQOWP2XFUSMS4AZDFAL","","1216.6999999284744","img/land2.png","75","1217.8000000715256","2","1","1","2","1,0.5,0.5,0.5,1,0.5,0.5,0.5,1","0.5,1,0.5,0.5,0.5,1,1,0.5,0.5","3","",""
"","html-keyboard-response","198","142939","0.0-198.0","3U088ZLJVLF4MHIWRMX3WNYF3LLW01","A1YFVXP4A1CXSF","3S1L4CQSFXRWQOWP2XFUSMS4AZDFAL","","null","<img src=""img/land2.png"" style=""width:200px; border:14px solid green;"">","null","","","","","","","","","",""
"","image-keyboard-response","199","144197","0.0-199.0","3U088ZLJVLF4MHIWRMX3WNYF3LLW01","A1YFVXP4A1CXSF","3S1L4CQSFXRWQOWP2XFUSMS4AZDFAL","","1257.1000000238419","img/land2.png","75","1258.0999999046326","2","1","1","2","1,0.5,0.5,0.5,1,0.5,0.5,0.5,1","0.5,1,0.5,0.5,0.5,1,1,0.5,0.5","3","",""
"","html-keyboard-response","200","144499","0.0-200.0","3U088ZLJVLF4MHIWRMX3WNYF3LLW01","A1YFVXP4A1CXSF","3S1L4CQSFXRWQOWP2XFUSMS4AZDFAL","","null","<img src=""img/land2.png"" style=""width:200px; border:14px solid green;"">","null","","","","","","","","","",""
"","image-keyboard-response","201","146037","0.0-201.0","3U088ZLJVLF4MHIWRMX3WNYF3LLW01","A1YFVXP4A1CXSF","3S1L4CQSFXRWQOWP2XFUSMS4AZDFAL","","1536.8999999761581","img/land2.png","75","1538","2","1","1","2","1,0.5,0.5,0.5,1,0.5,0.5,0.5,1","0.5,1,0.5,0.5,0.5,1,1,0.5,0.5","3","",""
"","html-keyboard-response","202","146339","0.0-202.0","3U088ZLJVLF4MHIWRMX3WNYF3LLW01","A1YFVXP4A1CXSF","3S1L4CQSFXRWQOWP2XFUSMS4AZDFAL","","null","<img src=""img/land2.png"" style=""width:200px; border:14px solid green;"">","null","","","","","","","","","",""
"","image-keyboard-response","203","147645","0.0-203.0","3U088ZLJVLF4MHIWRMX3WNYF3LLW01","A1YFVXP4A1CXSF","3S1L4CQSFXRWQOWP2XFUSMS4AZDFAL","","1304.8999999761581","img/land2.png","75","1306.1000000238419","2","1","1","2","1,0.5,0.5,0.5,1,0.5,0.5,0.5,1","0.5,1,0.5,0.5,0.5,1,1,0.5,0.5","3","",""
"","html-keyboard-response","204","147947","0.0-204.0","3U088ZLJVLF4MHIWRMX3WNYF3LLW01","A1YFVXP4A1CXSF","3S1L4CQSFXRWQOWP2XFUSMS4AZDFAL","","null","<img src=""img/land2.png"" style=""width:200px; border:14px solid green;"">","null","","","","","","","","","",""
"","image-keyboard-response","205","148917","0.0-205.0","3U088ZLJVLF4MHIWRMX3WNYF3LLW01","A1YFVXP4A1CXSF","3S1L4CQSFXRWQOWP2XFUSMS4AZDFAL","","968.6000000238419","img/land4.png","76","969.6000000238419","3","1","2","2","1,0.5,0.5,0.5,1,0.5,0.5,0.5,1","0.5,1,0.5,0.5,0.5,1,1,0.5,0.5","3","",""
"","html-keyboard-response","206","149219","0.0-206.0","3U088ZLJVLF4MHIWRMX3WNYF3LLW01","A1YFVXP4A1CXSF","3S1L4CQSFXRWQOWP2XFUSMS4AZDFAL","","null","<img src=""img/land4.png"" style=""width:200px; border:14px solid green;"">","null","","","","","","","","","",""
"","image-keyboard-response","207","149965","0.0-207.0","3U088ZLJVLF4MHIWRMX3WNYF3LLW01","A1YFVXP4A1CXSF","3S1L4CQSFXRWQOWP2XFUSMS4AZDFAL","","744.6000000238419","img/land2.png","75","745.7999999523163","2","1","1","2","1,0.5,0.5,0.5,1,0.5,0.5,0.5,1","0.5,1,0.5,0.5,0.5,1,1,0.5,0.5","3","",""
"","html-keyboard-response","208","150267","0.0-208.0","3U088ZLJVLF4MHIWRMX3WNYF3LLW01","A1YFVXP4A1CXSF","3S1L4CQSFXRWQOWP2XFUSMS4AZDFAL","","null","<img src=""img/land2.png"" style=""width:200px; border:14px solid green;"">","null","","","","","","","","","",""
"","image-keyboard-response","209","150965","0.0-209.0","3U088ZLJVLF4MHIWRMX3WNYF3LLW01","A1YFVXP4A1CXSF","3S1L4CQSFXRWQOWP2XFUSMS4AZDFAL","","696.8000000715256","img/land4.png","76","697.7999999523163","3","1","2","2","1,0.5,0.5,0.5,1,0.5,0.5,0.5,1","0.5,1,0.5,0.5,0.5,1,1,0.5,0.5","3","",""
"","html-keyboard-response","210","151266","0.0-210.0","3U088ZLJVLF4MHIWRMX3WNYF3LLW01","A1YFVXP4A1CXSF","3S1L4CQSFXRWQOWP2XFUSMS4AZDFAL","","null","<img src=""img/land4.png"" style=""width:200px; border:14px solid green;"">","null","","","","","","","","","",""
"","image-keyboard-response","211","151925","0.0-211.0","3U088ZLJVLF4MHIWRMX3WNYF3LLW01","A1YFVXP4A1CXSF","3S1L4CQSFXRWQOWP2XFUSMS4AZDFAL","","657.2000000476837","img/land6.png","74","658.2000000476837","1","1","3","2","1,0.5,0.5,0.5,1,0.5,0.5,0.5,1","0.5,1,0.5,0.5,0.5,1,1,0.5,0.5","3","",""
"","html-keyboard-response","212","152227","0.0-212.0","3U088ZLJVLF4MHIWRMX3WNYF3LLW01","A1YFVXP4A1CXSF","3S1L4CQSFXRWQOWP2XFUSMS4AZDFAL","","null","<img src=""img/land6.png"" style=""width:200px; border:14px solid green;"">","null","","","","","","","","","",""
"","image-keyboard-response","213","153501","0.0-213.0","3U088ZLJVLF4MHIWRMX3WNYF3LLW01","A1YFVXP4A1CXSF","3S1L4CQSFXRWQOWP2XFUSMS4AZDFAL","","1273","img/land6.png","74","1274","1","1","3","2","1,0.5,0.5,0.5,1,0.5,0.5,0.5,1","0.5,1,0.5,0.5,0.5,1,1,0.5,0.5","3","",""
"","html-keyboard-response","214","153803","0.0-214.0","3U088ZLJVLF4MHIWRMX3WNYF3LLW01","A1YFVXP4A1CXSF","3S1L4CQSFXRWQOWP2XFUSMS4AZDFAL","","null","<img src=""img/land6.png"" style=""width:200px; border:14px solid green;"">","null","","","","","","","","","",""
"","image-keyboard-response","215","155101","0.0-215.0","3U088ZLJVLF4MHIWRMX3WNYF3LLW01","A1YFVXP4A1CXSF","3S1L4CQSFXRWQOWP2XFUSMS4AZDFAL","","1297.1000000238419","img/land6.png","74","1299.1999999284744","1","1","3","2","1,0.5,0.5,0.5,1,0.5,0.5,0.5,1","0.5,1,0.5,0.5,0.5,1,1,0.5,0.5","3","",""
"","html-keyboard-response","216","155404","0.0-216.0","3U088ZLJVLF4MHIWRMX3WNYF3LLW01","A1YFVXP4A1CXSF","3S1L4CQSFXRWQOWP2XFUSMS4AZDFAL","","null","<img src=""img/land6.png"" style=""width:200px; border:14px solid green;"">","null","","","","","","","","","",""
"","image-keyboard-response","217","156269","0.0-217.0","3U088ZLJVLF4MHIWRMX3WNYF3LLW01","A1YFVXP4A1CXSF","3S1L4CQSFXRWQOWP2XFUSMS4AZDFAL","","863.8000000715256","img/land2.png","75","864.8999999761581","2","1","1","2","1,0.5,0.5,0.5,1,0.5,0.5,0.5,1","0.5,1,0.5,0.5,0.5,1,1,0.5,0.5","3","",""
"","html-keyboard-response","218","156571","0.0-218.0","3U088ZLJVLF4MHIWRMX3WNYF3LLW01","A1YFVXP4A1CXSF","3S1L4CQSFXRWQOWP2XFUSMS4AZDFAL","","null","<img src=""img/land2.png"" style=""width:200px; border:14px solid green;"">","null","","","","","","","","","",""
"","image-keyboard-response","219","158101","0.0-219.0","3U088ZLJVLF4MHIWRMX3WNYF3LLW01","A1YFVXP4A1CXSF","3S1L4CQSFXRWQOWP2XFUSMS4AZDFAL","","1528.7000000476837","img/land2.png","75","1529.7000000476837","2","1","1","2","1,0.5,0.5,0.5,1,0.5,0.5,0.5,1","0.5,1,0.5,0.5,0.5,1,1,0.5,0.5","3","",""
"","html-keyboard-response","220","158403","0.0-220.0","3U088ZLJVLF4MHIWRMX3WNYF3LLW01","A1YFVXP4A1CXSF","3S1L4CQSFXRWQOWP2XFUSMS4AZDFAL","","null","<img src=""img/land2.png"" style=""width:200px; border:14px solid green;"">","null","","","","","","","","","",""
"","image-keyboard-response","221","159933","0.0-221.0","3U088ZLJVLF4MHIWRMX3WNYF3LLW01","A1YFVXP4A1CXSF","3S1L4CQSFXRWQOWP2XFUSMS4AZDFAL","","1528.8000000715256","img/land2.png","75","1530","2","1","1","2","1,0.5,0.5,0.5,1,0.5,0.5,0.5,1","0.5,1,0.5,0.5,0.5,1,1,0.5,0.5","3","",""
"","html-keyboard-response","222","160235","0.0-222.0","3U088ZLJVLF4MHIWRMX3WNYF3LLW01","A1YFVXP4A1CXSF","3S1L4CQSFXRWQOWP2XFUSMS4AZDFAL","","null","<img src=""img/land2.png"" style=""width:200px; border:14px solid green;"">","null","","","","","","","","","",""
"","image-keyboard-response","223","161717","0.0-223.0","3U088ZLJVLF4MHIWRMX3WNYF3LLW01","A1YFVXP4A1CXSF","3S1L4CQSFXRWQOWP2XFUSMS4AZDFAL","","1480.8000000715256","img/land2.png","75","1481.8999999761581","2","1","1","2","1,0.5,0.5,0.5,1,0.5,0.5,0.5,1","0.5,1,0.5,0.5,0.5,1,1,0.5,0.5","3","",""
"","html-keyboard-response","224","162019","0.0-224.0","3U088ZLJVLF4MHIWRMX3WNYF3LLW01","A1YFVXP4A1CXSF","3S1L4CQSFXRWQOWP2XFUSMS4AZDFAL","","null","<img src=""img/land2.png"" style=""width:200px; border:14px solid green;"">","null","","","","","","","","","",""
"","image-keyboard-response","225","162149","0.0-225.0","3U088ZLJVLF4MHIWRMX3WNYF3LLW01","A1YFVXP4A1CXSF","3S1L4CQSFXRWQOWP2XFUSMS4AZDFAL","","128.39999997615814","img/land2.png","75","129.5","2","1","1","2","1,0.5,0.5,0.5,1,0.5,0.5,0.5,1","0.5,1,0.5,0.5,0.5,1,1,0.5,0.5","3","",""
"","html-keyboard-response","226","162450","0.0-226.0","3U088ZLJVLF4MHIWRMX3WNYF3LLW01","A1YFVXP4A1CXSF","3S1L4CQSFXRWQOWP2XFUSMS4AZDFAL","","null","<img src=""img/land2.png"" style=""width:200px; border:14px solid green;"">","null","","","","","","","","","",""
"","image-keyboard-response","227","163052","0.0-227.0","3U088ZLJVLF4MHIWRMX3WNYF3LLW01","A1YFVXP4A1CXSF","3S1L4CQSFXRWQOWP2XFUSMS4AZDFAL","","601.1999999284744","img/land2.png","75","602.2000000476837","2","1","1","2","1,0.5,0.5,0.5,1,0.5,0.5,0.5,1","0.5,1,0.5,0.5,0.5,1,1,0.5,0.5","3","",""
"","html-keyboard-response","228","163354","0.0-228.0","3U088ZLJVLF4MHIWRMX3WNYF3LLW01","A1YFVXP4A1CXSF","3S1L4CQSFXRWQOWP2XFUSMS4AZDFAL","","null","<img src=""img/land2.png"" style=""width:200px; border:14px solid green;"">","null","","","","","","","","","",""
"","image-keyboard-response","229","164069","0.0-229.0","3U088ZLJVLF4MHIWRMX3WNYF3LLW01","A1YFVXP4A1CXSF","3S1L4CQSFXRWQOWP2XFUSMS4AZDFAL","","713.3999999761581","img/land6.png","74","714.4000000953674","1","1","3","2","1,0.5,0.5,0.5,1,0.5,0.5,0.5,1","0.5,1,0.5,0.5,0.5,1,1,0.5,0.5","3","",""
"","html-keyboard-response","230","164371","0.0-230.0","3U088ZLJVLF4MHIWRMX3WNYF3LLW01","A1YFVXP4A1CXSF","3S1L4CQSFXRWQOWP2XFUSMS4AZDFAL","","null","<img src=""img/land6.png"" style=""width:200px; border:14px solid green;"">","null","","","","","","","","","",""
"","image-keyboard-response","231","164701","0.0-231.0","3U088ZLJVLF4MHIWRMX3WNYF3LLW01","A1YFVXP4A1CXSF","3S1L4CQSFXRWQOWP2XFUSMS4AZDFAL","","328.8000000715256","img/land4.png","74","329.89999997615814","1","0","2","2","1,0.5,0.5,0.5,1,0.5,0.5,0.5,1","0.5,1,0.5,0.5,0.5,1,1,0.5,0.5","3","",""
"","html-keyboard-response","232","165003","0.0-232.0","3U088ZLJVLF4MHIWRMX3WNYF3LLW01","A1YFVXP4A1CXSF","3S1L4CQSFXRWQOWP2XFUSMS4AZDFAL","","null","<img src=""img/land4.png"" style=""width:200px;border:14px solid red;"">","null","","","","","","","","","",""
"","image-keyboard-response","233","165029","0.0-233.0","3U088ZLJVLF4MHIWRMX3WNYF3LLW01","A1YFVXP4A1CXSF","3S1L4CQSFXRWQOWP2XFUSMS4AZDFAL","","23.899999976158142","img/land6.png","76","24.899999976158142","3","0","3","2","1,0.5,0.5,0.5,1,0.5,0.5,0.5,1","0.5,1,0.5,0.5,0.5,1,1,0.5,0.5","3","",""
"","html-keyboard-response","234","165330","0.0-234.0","3U088ZLJVLF4MHIWRMX3WNYF3LLW01","A1YFVXP4A1CXSF","3S1L4CQSFXRWQOWP2XFUSMS4AZDFAL","","null","<img src=""img/land6.png"" style=""width:200px;border:14px solid red;"">","null","","","","","","","","","",""
"","image-keyboard-response","235","165701","0.0-235.0","3U088ZLJVLF4MHIWRMX3WNYF3LLW01","A1YFVXP4A1CXSF","3S1L4CQSFXRWQOWP2XFUSMS4AZDFAL","","369.7999999523163","img/land6.png","74","370.7999999523163","1","1","3","2","1,0.5,0.5,0.5,1,0.5,0.5,0.5,1","0.5,1,0.5,0.5,0.5,1,1,0.5,0.5","3","",""
"","html-keyboard-response","236","166002","0.0-236.0","3U088ZLJVLF4MHIWRMX3WNYF3LLW01","A1YFVXP4A1CXSF","3S1L4CQSFXRWQOWP2XFUSMS4AZDFAL","","null","<img src=""img/land6.png"" style=""width:200px; border:14px solid green;"">","null","","","","","","","","","",""
"","image-keyboard-response","237","166637","0.0-237.0","3U088ZLJVLF4MHIWRMX3WNYF3LLW01","A1YFVXP4A1CXSF","3S1L4CQSFXRWQOWP2XFUSMS4AZDFAL","","633.2000000476837","img/land4.png","76","634.2999999523163","3","1","2","2","1,0.5,0.5,0.5,1,0.5,0.5,0.5,1","0.5,1,0.5,0.5,0.5,1,1,0.5,0.5","3","",""
"","html-keyboard-response","238","166939","0.0-238.0","3U088ZLJVLF4MHIWRMX3WNYF3LLW01","A1YFVXP4A1CXSF","3S1L4CQSFXRWQOWP2XFUSMS4AZDFAL","","null","<img src=""img/land4.png"" style=""width:200px; border:14px solid green;"">","null","","","","","","","","","",""
"","image-keyboard-response","239","167589","0.0-239.0","3U088ZLJVLF4MHIWRMX3WNYF3LLW01","A1YFVXP4A1CXSF","3S1L4CQSFXRWQOWP2XFUSMS4AZDFAL","","648.6000000238419","img/land4.png","76","649.7999999523163","3","1","2","2","1,0.5,0.5,0.5,1,0.5,0.5,0.5,1","0.5,1,0.5,0.5,0.5,1,1,0.5,0.5","3","",""
"","html-keyboard-response","240","167891","0.0-240.0","3U088ZLJVLF4MHIWRMX3WNYF3LLW01","A1YFVXP4A1CXSF","3S1L4CQSFXRWQOWP2XFUSMS4AZDFAL","","null","<img src=""img/land4.png"" style=""width:200px; border:14px solid green;"">","null","","","","","","","","","",""
"","image-keyboard-response","241","168501","0.0-241.0","3U088ZLJVLF4MHIWRMX3WNYF3LLW01","A1YFVXP4A1CXSF","3S1L4CQSFXRWQOWP2XFUSMS4AZDFAL","","608.8999999761581","img/land2.png","75","610","2","1","1","2","1,0.5,0.5,0.5,1,0.5,0.5,0.5,1","0.5,1,0.5,0.5,0.5,1,1,0.5,0.5","3","",""
"","html-keyboard-response","242","168803","0.0-242.0","3U088ZLJVLF4MHIWRMX3WNYF3LLW01","A1YFVXP4A1CXSF","3S1L4CQSFXRWQOWP2XFUSMS4AZDFAL","","null","<img src=""img/land2.png"" style=""width:200px; border:14px solid green;"">","null","","","","","","","","","",""
"","image-keyboard-response","243","169469","0.0-243.0","3U088ZLJVLF4MHIWRMX3WNYF3LLW01","A1YFVXP4A1CXSF","3S1L4CQSFXRWQOWP2XFUSMS4AZDFAL","","664.7000000476837","img/land4.png","76","665.7999999523163","3","1","2","2","1,0.5,0.5,0.5,1,0.5,0.5,0.5,1","0.5,1,0.5,0.5,0.5,1,1,0.5,0.5","3","",""
"","html-keyboard-response","244","169770","0.0-244.0","3U088ZLJVLF4MHIWRMX3WNYF3LLW01","A1YFVXP4A1CXSF","3S1L4CQSFXRWQOWP2XFUSMS4AZDFAL","","null","<img src=""img/land4.png"" style=""width:200px; border:14px solid green;"">","null","","","","","","","","","",""
"","image-keyboard-response","245","170293","0.0-245.0","3U088ZLJVLF4MHIWRMX3WNYF3LLW01","A1YFVXP4A1CXSF","3S1L4CQSFXRWQOWP2XFUSMS4AZDFAL","","521.1999999284744","img/land6.png","74","522.2999999523163","1","1","3","2","1,0.5,0.5,0.5,1,0.5,0.5,0.5,1","0.5,1,0.5,0.5,0.5,1,1,0.5,0.5","3","",""
"","html-keyboard-response","246","170595","0.0-246.0","3U088ZLJVLF4MHIWRMX3WNYF3LLW01","A1YFVXP4A1CXSF","3S1L4CQSFXRWQOWP2XFUSMS4AZDFAL","","null","<img src=""img/land6.png"" style=""width:200px; border:14px solid green;"">","null","","","","","","","","","",""
"","image-keyboard-response","247","171269","0.0-247.0","3U088ZLJVLF4MHIWRMX3WNYF3LLW01","A1YFVXP4A1CXSF","3S1L4CQSFXRWQOWP2XFUSMS4AZDFAL","","672.8999999761581","img/land2.png","75","673.8999999761581","2","1","1","2","1,0.5,0.5,0.5,1,0.5,0.5,0.5,1","0.5,1,0.5,0.5,0.5,1,1,0.5,0.5","3","",""
"","html-keyboard-response","248","171570","0.0-248.0","3U088ZLJVLF4MHIWRMX3WNYF3LLW01","A1YFVXP4A1CXSF","3S1L4CQSFXRWQOWP2XFUSMS4AZDFAL","","null","<img src=""img/land2.png"" style=""width:200px; border:14px solid green;"">","null","","","","","","","","","",""
"","image-keyboard-response","249","172093","0.0-249.0","3U088ZLJVLF4MHIWRMX3WNYF3LLW01","A1YFVXP4A1CXSF","3S1L4CQSFXRWQOWP2XFUSMS4AZDFAL","","521.3000000715256","img/land2.png","75","522.2999999523163","2","1","1","2","1,0.5,0.5,0.5,1,0.5,0.5,0.5,1","0.5,1,0.5,0.5,0.5,1,1,0.5,0.5","3","",""
"","html-keyboard-response","250","172395","0.0-250.0","3U088ZLJVLF4MHIWRMX3WNYF3LLW01","A1YFVXP4A1CXSF","3S1L4CQSFXRWQOWP2XFUSMS4AZDFAL","","null","<img src=""img/land2.png"" style=""width:200px; border:14px solid green;"">","null","","","","","","","","","",""
"","image-keyboard-response","251","173429","0.0-251.0","3U088ZLJVLF4MHIWRMX3WNYF3LLW01","A1YFVXP4A1CXSF","3S1L4CQSFXRWQOWP2XFUSMS4AZDFAL","","1032.7000000476837","img/land2.png","75","1033.8999999761581","2","1","1","2","1,0.5,0.5,0.5,1,0.5,0.5,0.5,1","0.5,1,0.5,0.5,0.5,1,1,0.5,0.5","3","",""
"","html-keyboard-response","252","173731","0.0-252.0","3U088ZLJVLF4MHIWRMX3WNYF3LLW01","A1YFVXP4A1CXSF","3S1L4CQSFXRWQOWP2XFUSMS4AZDFAL","","null","<img src=""img/land2.png"" style=""width:200px; border:14px solid green;"">","null","","","","","","","","","",""
"","image-keyboard-response","253","174381","0.0-253.0","3U088ZLJVLF4MHIWRMX3WNYF3LLW01","A1YFVXP4A1CXSF","3S1L4CQSFXRWQOWP2XFUSMS4AZDFAL","","649","img/land6.png","74","650","1","1","3","2","1,0.5,0.5,0.5,1,0.5,0.5,0.5,1","0.5,1,0.5,0.5,0.5,1,1,0.5,0.5","3","",""
"","html-keyboard-response","254","174684","0.0-254.0","3U088ZLJVLF4MHIWRMX3WNYF3LLW01","A1YFVXP4A1CXSF","3S1L4CQSFXRWQOWP2XFUSMS4AZDFAL","","null","<img src=""img/land6.png"" style=""width:200px; border:14px solid green;"">","null","","","","","","","","","",""
"","image-keyboard-response","255","176061","0.0-255.0","3U088ZLJVLF4MHIWRMX3WNYF3LLW01","A1YFVXP4A1CXSF","3S1L4CQSFXRWQOWP2XFUSMS4AZDFAL","","1376.1999999284744","img/land6.png","74","1377.2000000476837","1","1","3","2","1,0.5,0.5,0.5,1,0.5,0.5,0.5,1","0.5,1,0.5,0.5,0.5,1,1,0.5,0.5","3","",""
"","html-keyboard-response","256","176363","0.0-256.0","3U088ZLJVLF4MHIWRMX3WNYF3LLW01","A1YFVXP4A1CXSF","3S1L4CQSFXRWQOWP2XFUSMS4AZDFAL","","null","<img src=""img/land6.png"" style=""width:200px; border:14px solid green;"">","null","","","","","","","","","",""
"","image-keyboard-response","257","177077","0.0-257.0","3U088ZLJVLF4MHIWRMX3WNYF3LLW01","A1YFVXP4A1CXSF","3S1L4CQSFXRWQOWP2XFUSMS4AZDFAL","","712.6000000238419","img/land2.png","75","713.6999999284744","2","1","1","2","1,0.5,0.5,0.5,1,0.5,0.5,0.5,1","0.5,1,0.5,0.5,0.5,1,1,0.5,0.5","3","",""
"","html-keyboard-response","258","177378","0.0-258.0","3U088ZLJVLF4MHIWRMX3WNYF3LLW01","A1YFVXP4A1CXSF","3S1L4CQSFXRWQOWP2XFUSMS4AZDFAL","","null","<img src=""img/land2.png"" style=""width:200px; border:14px solid green;"">","null","","","","","","","","","",""
"","image-keyboard-response","259","178101","0.0-259.0","3U088ZLJVLF4MHIWRMX3WNYF3LLW01","A1YFVXP4A1CXSF","3S1L4CQSFXRWQOWP2XFUSMS4AZDFAL","","721.1000000238419","img/land2.png","75","722.1999999284744","2","1","1","2","1,0.5,0.5,0.5,1,0.5,0.5,0.5,1","0.5,1,0.5,0.5,0.5,1,1,0.5,0.5","3","",""
"","html-keyboard-response","260","178403","0.0-260.0","3U088ZLJVLF4MHIWRMX3WNYF3LLW01","A1YFVXP4A1CXSF","3S1L4CQSFXRWQOWP2XFUSMS4AZDFAL","","null","<img src=""img/land2.png"" style=""width:200px; border:14px solid green;"">","null","","","","","","","","","",""
"","image-keyboard-response","261","180133","0.0-261.0","3U088ZLJVLF4MHIWRMX3WNYF3LLW01","A1YFVXP4A1CXSF","3S1L4CQSFXRWQOWP2XFUSMS4AZDFAL","","1728.7000000476837","img/land2.png","75","1729.8999999761581","2","1","1","2","1,0.5,0.5,0.5,1,0.5,0.5,0.5,1","0.5,1,0.5,0.5,0.5,1,1,0.5,0.5","3","",""
"","html-keyboard-response","262","180435","0.0-262.0","3U088ZLJVLF4MHIWRMX3WNYF3LLW01","A1YFVXP4A1CXSF","3S1L4CQSFXRWQOWP2XFUSMS4AZDFAL","","null","<img src=""img/land2.png"" style=""width:200px; border:14px solid green;"">","null","","","","","","","","","",""
"","image-keyboard-response","263","181781","0.0-263.0","3U088ZLJVLF4MHIWRMX3WNYF3LLW01","A1YFVXP4A1CXSF","3S1L4CQSFXRWQOWP2XFUSMS4AZDFAL","","1344.6000000238419","img/land2.png","75","1345.6999999284744","2","1","1","2","1,0.5,0.5,0.5,1,0.5,0.5,0.5,1","0.5,1,0.5,0.5,0.5,1,1,0.5,0.5","3","",""
"","html-keyboard-response","264","182083","0.0-264.0","3U088ZLJVLF4MHIWRMX3WNYF3LLW01","A1YFVXP4A1CXSF","3S1L4CQSFXRWQOWP2XFUSMS4AZDFAL","","null","<img src=""img/land2.png"" style=""width:200px; border:14px solid green;"">","null","","","","","","","","","",""
"","image-keyboard-response","265","183541","0.0-265.0","3U088ZLJVLF4MHIWRMX3WNYF3LLW01","A1YFVXP4A1CXSF","3S1L4CQSFXRWQOWP2XFUSMS4AZDFAL","","1456.8000000715256","img/land2.png","75","1457.7999999523163","2","1","1","2","1,0.5,0.5,0.5,1,0.5,0.5,0.5,1","0.5,1,0.5,0.5,0.5,1,1,0.5,0.5","3","",""
"","html-keyboard-response","266","183842","0.0-266.0","3U088ZLJVLF4MHIWRMX3WNYF3LLW01","A1YFVXP4A1CXSF","3S1L4CQSFXRWQOWP2XFUSMS4AZDFAL","","null","<img src=""img/land2.png"" style=""width:200px; border:14px solid green;"">","null","","","","","","","","","",""
"","image-keyboard-response","267","185141","0.0-267.0","3U088ZLJVLF4MHIWRMX3WNYF3LLW01","A1YFVXP4A1CXSF","3S1L4CQSFXRWQOWP2XFUSMS4AZDFAL","","1297.2000000476837","img/land2.png","75","1298.1999999284744","2","1","1","2","1,0.5,0.5,0.5,1,0.5,0.5,0.5,1","0.5,1,0.5,0.5,0.5,1,1,0.5,0.5","3","",""
"","html-keyboard-response","268","185442","0.0-268.0","3U088ZLJVLF4MHIWRMX3WNYF3LLW01","A1YFVXP4A1CXSF","3S1L4CQSFXRWQOWP2XFUSMS4AZDFAL","","null","<img src=""img/land2.png"" style=""width:200px; border:14px solid green;"">","null","","","","","","","","","",""
"","image-keyboard-response","269","185925","0.0-269.0","3U088ZLJVLF4MHIWRMX3WNYF3LLW01","A1YFVXP4A1CXSF","3S1L4CQSFXRWQOWP2XFUSMS4AZDFAL","","481.10000002384186","img/land6.png","74","482.1999999284744","1","1","3","2","1,0.5,0.5,0.5,1,0.5,0.5,0.5,1","0.5,1,0.5,0.5,0.5,1,1,0.5,0.5","3","",""
"","html-keyboard-response","270","186226","0.0-270.0","3U088ZLJVLF4MHIWRMX3WNYF3LLW01","A1YFVXP4A1CXSF","3S1L4CQSFXRWQOWP2XFUSMS4AZDFAL","","null","<img src=""img/land6.png"" style=""width:200px; border:14px solid green;"">","null","","","","","","","","","",""
"","image-keyboard-response","271","186789","0.0-271.0","3U088ZLJVLF4MHIWRMX3WNYF3LLW01","A1YFVXP4A1CXSF","3S1L4CQSFXRWQOWP2XFUSMS4AZDFAL","","561.1999999284744","img/land4.png","76","562.2000000476837","3","1","2","2","1,0.5,0.5,0.5,1,0.5,0.5,0.5,1","0.5,1,0.5,0.5,0.5,1,1,0.5,0.5","3","",""
"","html-keyboard-response","272","187091","0.0-272.0","3U088ZLJVLF4MHIWRMX3WNYF3LLW01","A1YFVXP4A1CXSF","3S1L4CQSFXRWQOWP2XFUSMS4AZDFAL","","null","<img src=""img/land4.png"" style=""width:200px; border:14px solid green;"">","null","","","","","","","","","",""
"","image-keyboard-response","273","187781","0.0-273.0","3U088ZLJVLF4MHIWRMX3WNYF3LLW01","A1YFVXP4A1CXSF","3S1L4CQSFXRWQOWP2XFUSMS4AZDFAL","","688.6000000238419","img/land2.png","75","689.5999999046326","2","1","1","2","1,0.5,0.5,0.5,1,0.5,0.5,0.5,1","0.5,1,0.5,0.5,0.5,1,1,0.5,0.5","3","",""
"","html-keyboard-response","274","188083","0.0-274.0","3U088ZLJVLF4MHIWRMX3WNYF3LLW01","A1YFVXP4A1CXSF","3S1L4CQSFXRWQOWP2XFUSMS4AZDFAL","","null","<img src=""img/land2.png"" style=""width:200px; border:14px solid green;"">","null","","","","","","","","","",""
"","image-keyboard-response","275","189068","0.0-275.0","3U088ZLJVLF4MHIWRMX3WNYF3LLW01","A1YFVXP4A1CXSF","3S1L4CQSFXRWQOWP2XFUSMS4AZDFAL","","983.9000000953674","img/land2.png","75","985.1000000238419","2","1","1","2","1,0.5,0.5,0.5,1,0.5,0.5,0.5,1","0.5,1,0.5,0.5,0.5,1,1,0.5,0.5","3","",""
"","html-keyboard-response","276","189370","0.0-276.0","3U088ZLJVLF4MHIWRMX3WNYF3LLW01","A1YFVXP4A1CXSF","3S1L4CQSFXRWQOWP2XFUSMS4AZDFAL","","null","<img src=""img/land2.png"" style=""width:200px; border:14px solid green;"">","null","","","","","","","","","",""
"","image-keyboard-response","277","190525","0.0-277.0","3U088ZLJVLF4MHIWRMX3WNYF3LLW01","A1YFVXP4A1CXSF","3S1L4CQSFXRWQOWP2XFUSMS4AZDFAL","","1152.7999999523163","img/land2.png","75","1154","2","1","1","2","1,0.5,0.5,0.5,1,0.5,0.5,0.5,1","0.5,1,0.5,0.5,0.5,1,1,0.5,0.5","3","",""
"","html-keyboard-response","278","190827","0.0-278.0","3U088ZLJVLF4MHIWRMX3WNYF3LLW01","A1YFVXP4A1CXSF","3S1L4CQSFXRWQOWP2XFUSMS4AZDFAL","","null","<img src=""img/land2.png"" style=""width:200px; border:14px solid green;"">","null","","","","","","","","","",""
"","image-keyboard-response","279","191613","0.0-279.0","3U088ZLJVLF4MHIWRMX3WNYF3LLW01","A1YFVXP4A1CXSF","3S1L4CQSFXRWQOWP2XFUSMS4AZDFAL","","784.6000000238419","img/land6.png","74","785.6999999284744","1","1","3","2","1,0.5,0.5,0.5,1,0.5,0.5,0.5,1","0.5,1,0.5,0.5,0.5,1,1,0.5,0.5","3","",""
"","html-keyboard-response","280","191915","0.0-280.0","3U088ZLJVLF4MHIWRMX3WNYF3LLW01","A1YFVXP4A1CXSF","3S1L4CQSFXRWQOWP2XFUSMS4AZDFAL","","null","<img src=""img/land6.png"" style=""width:200px; border:14px solid green;"">","null","","","","","","","","","",""
"","image-keyboard-response","281","192597","0.0-281.0","3U088ZLJVLF4MHIWRMX3WNYF3LLW01","A1YFVXP4A1CXSF","3S1L4CQSFXRWQOWP2XFUSMS4AZDFAL","","679.6000000238419","img/land2.png","75","680.8999999761581","2","1","1","2","1,0.5,0.5,0.5,1,0.5,0.5,0.5,1","0.5,1,0.5,0.5,0.5,1,1,0.5,0.5","3","",""
"","html-keyboard-response","282","192898","0.0-282.0","3U088ZLJVLF4MHIWRMX3WNYF3LLW01","A1YFVXP4A1CXSF","3S1L4CQSFXRWQOWP2XFUSMS4AZDFAL","","null","<img src=""img/land2.png"" style=""width:200px; border:14px solid green;"">","null","","","","","","","","","",""
"","image-keyboard-response","283","193397","0.0-283.0","3U088ZLJVLF4MHIWRMX3WNYF3LLW01","A1YFVXP4A1CXSF","3S1L4CQSFXRWQOWP2XFUSMS4AZDFAL","","496.7999999523163","img/land4.png","76","498","3","1","2","2","1,0.5,0.5,0.5,1,0.5,0.5,0.5,1","0.5,1,0.5,0.5,0.5,1,1,0.5,0.5","3","",""
"","html-keyboard-response","284","193701","0.0-284.0","3U088ZLJVLF4MHIWRMX3WNYF3LLW01","A1YFVXP4A1CXSF","3S1L4CQSFXRWQOWP2XFUSMS4AZDFAL","","null","<img src=""img/land4.png"" style=""width:200px; border:14px solid green;"">","null","","","","","","","","","",""
"","image-keyboard-response","285","194252","0.0-285.0","3U088ZLJVLF4MHIWRMX3WNYF3LLW01","A1YFVXP4A1CXSF","3S1L4CQSFXRWQOWP2XFUSMS4AZDFAL","","549.7000000476837","img/land4.png","76","550.8000000715256","3","1","2","2","1,0.5,0.5,0.5,1,0.5,0.5,0.5,1","0.5,1,0.5,0.5,0.5,1,1,0.5,0.5","3","",""
"","html-keyboard-response","286","194556","0.0-286.0","3U088ZLJVLF4MHIWRMX3WNYF3LLW01","A1YFVXP4A1CXSF","3S1L4CQSFXRWQOWP2XFUSMS4AZDFAL","","null","<img src=""img/land4.png"" style=""width:200px; border:14px solid green;"">","null","","","","","","","","","",""
"","image-keyboard-response","287","195101","0.0-287.0","3U088ZLJVLF4MHIWRMX3WNYF3LLW01","A1YFVXP4A1CXSF","3S1L4CQSFXRWQOWP2XFUSMS4AZDFAL","","542.7000000476837","img/land2.png","74","544.7999999523163","1","1","1","2","1,0.5,0.5,0.5,1,0.5,0.5,0.5,1","0.5,1,0.5,0.5,0.5,1,1,0.5,0.5","3","",""
"","html-keyboard-response","288","195404","0.0-288.0","3U088ZLJVLF4MHIWRMX3WNYF3LLW01","A1YFVXP4A1CXSF","3S1L4CQSFXRWQOWP2XFUSMS4AZDFAL","","null","<img src=""img/land2.png"" style=""width:200px; border:14px solid green;"">","null","","","","","","","","","",""
"","image-keyboard-response","289","195437","0.0-289.0","3U088ZLJVLF4MHIWRMX3WNYF3LLW01","A1YFVXP4A1CXSF","3S1L4CQSFXRWQOWP2XFUSMS4AZDFAL","","31.799999952316284","img/land4.png","75","32.799999952316284","2","1","2","2","1,0.5,0.5,0.5,1,0.5,0.5,0.5,1","0.5,1,0.5,0.5,0.5,1,1,0.5,0.5","3","",""
"","html-keyboard-response","290","195738","0.0-290.0","3U088ZLJVLF4MHIWRMX3WNYF3LLW01","A1YFVXP4A1CXSF","3S1L4CQSFXRWQOWP2XFUSMS4AZDFAL","","null","<img src=""img/land4.png"" style=""width:200px; border:14px solid green;"">","null","","","","","","","","","",""
"","image-keyboard-response","291","196669","0.0-291.0","3U088ZLJVLF4MHIWRMX3WNYF3LLW01","A1YFVXP4A1CXSF","3S1L4CQSFXRWQOWP2XFUSMS4AZDFAL","","928.7999999523163","img/land2.png","75","929.8999999761581","2","1","1","2","1,0.5,0.5,0.5,1,0.5,0.5,0.5,1","0.5,1,0.5,0.5,0.5,1,1,0.5,0.5","3","",""
"","html-keyboard-response","292","196971","0.0-292.0","3U088ZLJVLF4MHIWRMX3WNYF3LLW01","A1YFVXP4A1CXSF","3S1L4CQSFXRWQOWP2XFUSMS4AZDFAL","","null","<img src=""img/land2.png"" style=""width:200px; border:14px solid green;"">","null","","","","","","","","","",""
"","image-keyboard-response","293","197453","0.0-293.0","3U088ZLJVLF4MHIWRMX3WNYF3LLW01","A1YFVXP4A1CXSF","3S1L4CQSFXRWQOWP2XFUSMS4AZDFAL","","480.89999997615814","img/land6.png","74","482","1","1","3","2","1,0.5,0.5,0.5,1,0.5,0.5,0.5,1","0.5,1,0.5,0.5,0.5,1,1,0.5,0.5","3","",""
"","html-keyboard-response","294","197754","0.0-294.0","3U088ZLJVLF4MHIWRMX3WNYF3LLW01","A1YFVXP4A1CXSF","3S1L4CQSFXRWQOWP2XFUSMS4AZDFAL","","null","<img src=""img/land6.png"" style=""width:200px; border:14px solid green;"">","null","","","","","","","","","",""
"","image-keyboard-response","295","198476","0.0-295.0","3U088ZLJVLF4MHIWRMX3WNYF3LLW01","A1YFVXP4A1CXSF","3S1L4CQSFXRWQOWP2XFUSMS4AZDFAL","","720.8999999761581","img/land2.png","75","722","2","1","1","2","1,0.5,0.5,0.5,1,0.5,0.5,0.5,1","0.5,1,0.5,0.5,0.5,1,1,0.5,0.5","3","",""
"","html-keyboard-response","296","198778","0.0-296.0","3U088ZLJVLF4MHIWRMX3WNYF3LLW01","A1YFVXP4A1CXSF","3S1L4CQSFXRWQOWP2XFUSMS4AZDFAL","","null","<img src=""img/land2.png"" style=""width:200px; border:14px solid green;"">","null","","","","","","","","","",""
"","image-keyboard-response","297","199332","0.0-297.0","3U088ZLJVLF4MHIWRMX3WNYF3LLW01","A1YFVXP4A1CXSF","3S1L4CQSFXRWQOWP2XFUSMS4AZDFAL","","552.5","img/land2.png","75","553.6000000238419","2","1","1","2","1,0.5,0.5,0.5,1,0.5,0.5,0.5,1","0.5,1,0.5,0.5,0.5,1,1,0.5,0.5","3","",""
"","html-keyboard-response","298","199634","0.0-298.0","3U088ZLJVLF4MHIWRMX3WNYF3LLW01","A1YFVXP4A1CXSF","3S1L4CQSFXRWQOWP2XFUSMS4AZDFAL","","null","<img src=""img/land2.png"" style=""width:200px; border:14px solid green;"">","null","","","","","","","","","",""
"","image-keyboard-response","299","200148","0.0-299.0","3U088ZLJVLF4MHIWRMX3WNYF3LLW01","A1YFVXP4A1CXSF","3S1L4CQSFXRWQOWP2XFUSMS4AZDFAL","","512.6999999284744","img/land2.png","75","513.8999999761581","2","1","1","2","1,0.5,0.5,0.5,1,0.5,0.5,0.5,1","0.5,1,0.5,0.5,0.5,1,1,0.5,0.5","3","",""
"","html-keyboard-response","300","200450","0.0-300.0","3U088ZLJVLF4MHIWRMX3WNYF3LLW01","A1YFVXP4A1CXSF","3S1L4CQSFXRWQOWP2XFUSMS4AZDFAL","","null","<img src=""img/land2.png"" style=""width:200px; border:14px solid green;"">","null","","","","","","","","","",""
"","image-keyboard-response","301","201053","0.0-301.0","3U088ZLJVLF4MHIWRMX3WNYF3LLW01","A1YFVXP4A1CXSF","3S1L4CQSFXRWQOWP2XFUSMS4AZDFAL","","600.6999999284744","img/land6.png","74","601.8999999761581","1","1","3","2","1,0.5,0.5,0.5,1,0.5,0.5,0.5,1","0.5,1,0.5,0.5,0.5,1,1,0.5,0.5","3","",""
"","html-keyboard-response","302","201355","0.0-302.0","3U088ZLJVLF4MHIWRMX3WNYF3LLW01","A1YFVXP4A1CXSF","3S1L4CQSFXRWQOWP2XFUSMS4AZDFAL","","null","<img src=""img/land6.png"" style=""width:200px; border:14px solid green;"">","null","","","","","","","","","",""
"","image-keyboard-response","303","202189","0.0-303.0","3U088ZLJVLF4MHIWRMX3WNYF3LLW01","A1YFVXP4A1CXSF","3S1L4CQSFXRWQOWP2XFUSMS4AZDFAL","","832.6999999284744","img/land6.png","74","833.8999999761581","1","1","3","2","1,0.5,0.5,0.5,1,0.5,0.5,0.5,1","0.5,1,0.5,0.5,0.5,1,1,0.5,0.5","3","",""
"","html-keyboard-response","304","202490","0.0-304.0","3U088ZLJVLF4MHIWRMX3WNYF3LLW01","A1YFVXP4A1CXSF","3S1L4CQSFXRWQOWP2XFUSMS4AZDFAL","","null","<img src=""img/land6.png"" style=""width:200px; border:14px solid green;"">","null","","","","","","","","","",""
"","image-keyboard-response","305","203204","0.0-305.0","3U088ZLJVLF4MHIWRMX3WNYF3LLW01","A1YFVXP4A1CXSF","3S1L4CQSFXRWQOWP2XFUSMS4AZDFAL","","713","img/land2.png","75","714.1000000238419","2","1","1","2","1,0.5,0.5,0.5,1,0.5,0.5,0.5,1","0.5,1,0.5,0.5,0.5,1,1,0.5,0.5","3","",""
"","html-keyboard-response","306","203506","0.0-306.0","3U088ZLJVLF4MHIWRMX3WNYF3LLW01","A1YFVXP4A1CXSF","3S1L4CQSFXRWQOWP2XFUSMS4AZDFAL","","null","<img src=""img/land2.png"" style=""width:200px; border:14px solid green;"">","null","","","","","","","","","",""
"","image-keyboard-response","307","204108","0.0-307.0","3U088ZLJVLF4MHIWRMX3WNYF3LLW01","A1YFVXP4A1CXSF","3S1L4CQSFXRWQOWP2XFUSMS4AZDFAL","","600.6999999284744","img/land2.png","75","601.8000000715256","2","1","1","2","1,0.5,0.5,0.5,1,0.5,0.5,0.5,1","0.5,1,0.5,0.5,0.5,1,1,0.5,0.5","3","",""
"","html-keyboard-response","308","204410","0.0-308.0","3U088ZLJVLF4MHIWRMX3WNYF3LLW01","A1YFVXP4A1CXSF","3S1L4CQSFXRWQOWP2XFUSMS4AZDFAL","","null","<img src=""img/land2.png"" style=""width:200px; border:14px solid green;"">","null","","","","","","","","","",""
"","image-keyboard-response","309","204988","0.0-309.0","3U088ZLJVLF4MHIWRMX3WNYF3LLW01","A1YFVXP4A1CXSF","3S1L4CQSFXRWQOWP2XFUSMS4AZDFAL","","576.6999999284744","img/land6.png","74","577.8000000715256","1","1","3","2","1,0.5,0.5,0.5,1,0.5,0.5,0.5,1","0.5,1,0.5,0.5,0.5,1,1,0.5,0.5","3","",""
"","html-keyboard-response","310","205290","0.0-310.0","3U088ZLJVLF4MHIWRMX3WNYF3LLW01","A1YFVXP4A1CXSF","3S1L4CQSFXRWQOWP2XFUSMS4AZDFAL","","null","<img src=""img/land6.png"" style=""width:200px; border:14px solid green;"">","null","","","","","","","","","",""
"","image-keyboard-response","311","205884","0.0-311.0","3U088ZLJVLF4MHIWRMX3WNYF3LLW01","A1YFVXP4A1CXSF","3S1L4CQSFXRWQOWP2XFUSMS4AZDFAL","","593.0999999046326","img/land6.png","74","594.3000000715256","1","1","3","2","1,0.5,0.5,0.5,1,0.5,0.5,0.5,1","0.5,1,0.5,0.5,0.5,1,1,0.5,0.5","3","",""
"","html-keyboard-response","312","206186","0.0-312.0","3U088ZLJVLF4MHIWRMX3WNYF3LLW01","A1YFVXP4A1CXSF","3S1L4CQSFXRWQOWP2XFUSMS4AZDFAL","","null","<img src=""img/land6.png"" style=""width:200px; border:14px solid green;"">","null","","","","","","","","","",""
"","image-keyboard-response","313","206812","0.0-313.0","3U088ZLJVLF4MHIWRMX3WNYF3LLW01","A1YFVXP4A1CXSF","3S1L4CQSFXRWQOWP2XFUSMS4AZDFAL","","624.6999999284744","img/land2.png","75","625.9000000953674","2","1","1","2","1,0.5,0.5,0.5,1,0.5,0.5,0.5,1","0.5,1,0.5,0.5,0.5,1,1,0.5,0.5","3","",""
"","html-keyboard-response","314","207115","0.0-314.0","3U088ZLJVLF4MHIWRMX3WNYF3LLW01","A1YFVXP4A1CXSF","3S1L4CQSFXRWQOWP2XFUSMS4AZDFAL","","null","<img src=""img/land2.png"" style=""width:200px; border:14px solid green;"">","null","","","","","","","","","",""
"","image-keyboard-response","315","207557","0.0-315.0","3U088ZLJVLF4MHIWRMX3WNYF3LLW01","A1YFVXP4A1CXSF","3S1L4CQSFXRWQOWP2XFUSMS4AZDFAL","","440.7999999523163","img/land2.png","75","442","2","1","1","2","1,0.5,0.5,0.5,1,0.5,0.5,0.5,1","0.5,1,0.5,0.5,0.5,1,1,0.5,0.5","3","",""
"","html-keyboard-response","316","207859","0.0-316.0","3U088ZLJVLF4MHIWRMX3WNYF3LLW01","A1YFVXP4A1CXSF","3S1L4CQSFXRWQOWP2XFUSMS4AZDFAL","","null","<img src=""img/land2.png"" style=""width:200px; border:14px solid green;"">","null","","","","","","","","","",""
"","image-keyboard-response","317","208612","0.0-317.0","3U088ZLJVLF4MHIWRMX3WNYF3LLW01","A1YFVXP4A1CXSF","3S1L4CQSFXRWQOWP2XFUSMS4AZDFAL","","752.3999999761581","img/land2.png","75","753.5","2","1","1","2","1,0.5,0.5,0.5,1,0.5,0.5,0.5,1","0.5,1,0.5,0.5,0.5,1,1,0.5,0.5","3","",""
"","html-keyboard-response","318","208914","0.0-318.0","3U088ZLJVLF4MHIWRMX3WNYF3LLW01","A1YFVXP4A1CXSF","3S1L4CQSFXRWQOWP2XFUSMS4AZDFAL","","null","<img src=""img/land2.png"" style=""width:200px; border:14px solid green;"">","null","","","","","","","","","",""
"","image-keyboard-response","319","209541","0.0-319.0","3U088ZLJVLF4MHIWRMX3WNYF3LLW01","A1YFVXP4A1CXSF","3S1L4CQSFXRWQOWP2XFUSMS4AZDFAL","","625.1000000238419","img/land4.png","76","626.1000000238419","3","1","2","2","1,0.5,0.5,0.5,1,0.5,0.5,0.5,1","0.5,1,0.5,0.5,0.5,1,1,0.5,0.5","3","",""
"","html-keyboard-response","320","209843","0.0-320.0","3U088ZLJVLF4MHIWRMX3WNYF3LLW01","A1YFVXP4A1CXSF","3S1L4CQSFXRWQOWP2XFUSMS4AZDFAL","","null","<img src=""img/land4.png"" style=""width:200px; border:14px solid green;"">","null","","","","","","","","","",""
"","image-keyboard-response","321","210524","0.0-321.0","3U088ZLJVLF4MHIWRMX3WNYF3LLW01","A1YFVXP4A1CXSF","3S1L4CQSFXRWQOWP2XFUSMS4AZDFAL","","679.6999999284744","img/land2.png","75","680.9000000953674","2","1","1","2","1,0.5,0.5,0.5,1,0.5,0.5,0.5,1","0.5,1,0.5,0.5,0.5,1,1,0.5,0.5","3","",""
"","html-keyboard-response","322","210826","0.0-322.0","3U088ZLJVLF4MHIWRMX3WNYF3LLW01","A1YFVXP4A1CXSF","3S1L4CQSFXRWQOWP2XFUSMS4AZDFAL","","null","<img src=""img/land2.png"" style=""width:200px; border:14px solid green;"">","null","","","","","","","","","",""
"","image-keyboard-response","323","211404","0.0-323.0","3U088ZLJVLF4MHIWRMX3WNYF3LLW01","A1YFVXP4A1CXSF","3S1L4CQSFXRWQOWP2XFUSMS4AZDFAL","","576.7000000476837","img/land4.png","76","577.8000000715256","3","1","2","2","1,0.5,0.5,0.5,1,0.5,0.5,0.5,1","0.5,1,0.5,0.5,0.5,1,1,0.5,0.5","3","",""
"","html-keyboard-response","324","211706","0.0-324.0","3U088ZLJVLF4MHIWRMX3WNYF3LLW01","A1YFVXP4A1CXSF","3S1L4CQSFXRWQOWP2XFUSMS4AZDFAL","","null","<img src=""img/land4.png"" style=""width:200px; border:14px solid green;"">","null","","","","","","","","","",""
"","image-keyboard-response","325","212276","0.0-325.0","3U088ZLJVLF4MHIWRMX3WNYF3LLW01","A1YFVXP4A1CXSF","3S1L4CQSFXRWQOWP2XFUSMS4AZDFAL","","568.7999999523163","img/land2.png","75","569.7000000476837","2","1","1","2","1,0.5,0.5,0.5,1,0.5,0.5,0.5,1","0.5,1,0.5,0.5,0.5,1,1,0.5,0.5","3","",""
"","html-keyboard-response","326","212578","0.0-326.0","3U088ZLJVLF4MHIWRMX3WNYF3LLW01","A1YFVXP4A1CXSF","3S1L4CQSFXRWQOWP2XFUSMS4AZDFAL","","null","<img src=""img/land2.png"" style=""width:200px; border:14px solid green;"">","null","","","","","","","","","",""
"","image-keyboard-response","327","213092","0.0-327.0","3U088ZLJVLF4MHIWRMX3WNYF3LLW01","A1YFVXP4A1CXSF","3S1L4CQSFXRWQOWP2XFUSMS4AZDFAL","","513.3000000715256","img/land2.png","75","514.3999999761581","2","1","1","2","1,0.5,0.5,0.5,1,0.5,0.5,0.5,1","0.5,1,0.5,0.5,0.5,1,1,0.5,0.5","3","",""
"","html-keyboard-response","328","213394","0.0-328.0","3U088ZLJVLF4MHIWRMX3WNYF3LLW01","A1YFVXP4A1CXSF","3S1L4CQSFXRWQOWP2XFUSMS4AZDFAL","","null","<img src=""img/land2.png"" style=""width:200px; border:14px solid green;"">","null","","","","","","","","","",""
"","image-keyboard-response","329","213924","0.0-329.0","3U088ZLJVLF4MHIWRMX3WNYF3LLW01","A1YFVXP4A1CXSF","3S1L4CQSFXRWQOWP2XFUSMS4AZDFAL","","528.8999999761581","img/land2.png","75","530","2","1","1","2","1,0.5,0.5,0.5,1,0.5,0.5,0.5,1","0.5,1,0.5,0.5,0.5,1,1,0.5,0.5","3","",""
"","html-keyboard-response","330","214226","0.0-330.0","3U088ZLJVLF4MHIWRMX3WNYF3LLW01","A1YFVXP4A1CXSF","3S1L4CQSFXRWQOWP2XFUSMS4AZDFAL","","null","<img src=""img/land2.png"" style=""width:200px; border:14px solid green;"">","null","","","","","","","","","",""
"","image-keyboard-response","331","214804","0.0-331.0","3U088ZLJVLF4MHIWRMX3WNYF3LLW01","A1YFVXP4A1CXSF","3S1L4CQSFXRWQOWP2XFUSMS4AZDFAL","","576.6999999284744","img/land4.png","76","577.7000000476837","3","1","2","2","1,0.5,0.5,0.5,1,0.5,0.5,0.5,1","0.5,1,0.5,0.5,0.5,1,1,0.5,0.5","3","",""
"","html-keyboard-response","332","215106","0.0-332.0","3U088ZLJVLF4MHIWRMX3WNYF3LLW01","A1YFVXP4A1CXSF","3S1L4CQSFXRWQOWP2XFUSMS4AZDFAL","","null","<img src=""img/land4.png"" style=""width:200px; border:14px solid green;"">","null","","","","","","","","","",""
"","image-keyboard-response","333","215836","0.0-333.0","3U088ZLJVLF4MHIWRMX3WNYF3LLW01","A1YFVXP4A1CXSF","3S1L4CQSFXRWQOWP2XFUSMS4AZDFAL","","728.6000000238419","img/land6.png","74","729.8000000715256","1","1","3","2","1,0.5,0.5,0.5,1,0.5,0.5,0.5,1","0.5,1,0.5,0.5,0.5,1,1,0.5,0.5","3","",""
"","html-keyboard-response","334","216138","0.0-334.0","3U088ZLJVLF4MHIWRMX3WNYF3LLW01","A1YFVXP4A1CXSF","3S1L4CQSFXRWQOWP2XFUSMS4AZDFAL","","null","<img src=""img/land6.png"" style=""width:200px; border:14px solid green;"">","null","","","","","","","","","",""
"","image-keyboard-response","335","216692","0.0-335.0","3U088ZLJVLF4MHIWRMX3WNYF3LLW01","A1YFVXP4A1CXSF","3S1L4CQSFXRWQOWP2XFUSMS4AZDFAL","","552.8999999761581","img/land2.png","75","554.1000000238419","2","1","1","2","1,0.5,0.5,0.5,1,0.5,0.5,0.5,1","0.5,1,0.5,0.5,0.5,1,1,0.5,0.5","3","",""
"","html-keyboard-response","336","216994","0.0-336.0","3U088ZLJVLF4MHIWRMX3WNYF3LLW01","A1YFVXP4A1CXSF","3S1L4CQSFXRWQOWP2XFUSMS4AZDFAL","","null","<img src=""img/land2.png"" style=""width:200px; border:14px solid green;"">","null","","","","","","","","","",""
"","image-keyboard-response","337","217597","0.0-337.0","3U088ZLJVLF4MHIWRMX3WNYF3LLW01","A1YFVXP4A1CXSF","3S1L4CQSFXRWQOWP2XFUSMS4AZDFAL","","601.3999999761581","img/land4.png","76","602.6000000238419","3","1","2","2","1,0.5,0.5,0.5,1,0.5,0.5,0.5,1","0.5,1,0.5,0.5,0.5,1,1,0.5,0.5","3","",""
"","html-keyboard-response","338","217898","0.0-338.0","3U088ZLJVLF4MHIWRMX3WNYF3LLW01","A1YFVXP4A1CXSF","3S1L4CQSFXRWQOWP2XFUSMS4AZDFAL","","null","<img src=""img/land4.png"" style=""width:200px; border:14px solid green;"">","null","","","","","","","","","",""
"","image-keyboard-response","339","218468","0.0-339.0","3U088ZLJVLF4MHIWRMX3WNYF3LLW01","A1YFVXP4A1CXSF","3S1L4CQSFXRWQOWP2XFUSMS4AZDFAL","","568.2999999523163","img/land2.png","75","569.6000000238419","2","1","1","2","1,0.5,0.5,0.5,1,0.5,0.5,0.5,1","0.5,1,0.5,0.5,0.5,1,1,0.5,0.5","3","",""
"","html-keyboard-response","340","218770","0.0-340.0","3U088ZLJVLF4MHIWRMX3WNYF3LLW01","A1YFVXP4A1CXSF","3S1L4CQSFXRWQOWP2XFUSMS4AZDFAL","","null","<img src=""img/land2.png"" style=""width:200px; border:14px solid green;"">","null","","","","","","","","","",""
"","image-keyboard-response","341","219196","0.0-341.0","3U088ZLJVLF4MHIWRMX3WNYF3LLW01","A1YFVXP4A1CXSF","3S1L4CQSFXRWQOWP2XFUSMS4AZDFAL","","424.6999999284744","img/land2.png","75","425.90000009536743","2","1","1","2","1,0.5,0.5,0.5,1,0.5,0.5,0.5,1","0.5,1,0.5,0.5,0.5,1,1,0.5,0.5","3","",""
"","html-keyboard-response","342","219499","0.0-342.0","3U088ZLJVLF4MHIWRMX3WNYF3LLW01","A1YFVXP4A1CXSF","3S1L4CQSFXRWQOWP2XFUSMS4AZDFAL","","null","<img src=""img/land2.png"" style=""width:200px; border:14px solid green;"">","null","","","","","","","","","",""
"","image-keyboard-response","343","220036","0.0-343.0","3U088ZLJVLF4MHIWRMX3WNYF3LLW01","A1YFVXP4A1CXSF","3S1L4CQSFXRWQOWP2XFUSMS4AZDFAL","","536.3000000715256","img/land2.png","75","537.6000000238419","2","1","1","2","1,0.5,0.5,0.5,1,0.5,0.5,0.5,1","0.5,1,0.5,0.5,0.5,1,1,0.5,0.5","3","",""
"","html-keyboard-response","344","220339","0.0-344.0","3U088ZLJVLF4MHIWRMX3WNYF3LLW01","A1YFVXP4A1CXSF","3S1L4CQSFXRWQOWP2XFUSMS4AZDFAL","","null","<img src=""img/land2.png"" style=""width:200px; border:14px solid green;"">","null","","","","","","","","","",""
"","image-keyboard-response","345","220852","0.0-345.0","3U088ZLJVLF4MHIWRMX3WNYF3LLW01","A1YFVXP4A1CXSF","3S1L4CQSFXRWQOWP2XFUSMS4AZDFAL","","512.2999999523163","img/land2.png","75","513.3999999761581","2","1","1","2","1,0.5,0.5,0.5,1,0.5,0.5,0.5,1","0.5,1,0.5,0.5,0.5,1,1,0.5,0.5","3","",""
"","html-keyboard-response","346","221154","0.0-346.0","3U088ZLJVLF4MHIWRMX3WNYF3LLW01","A1YFVXP4A1CXSF","3S1L4CQSFXRWQOWP2XFUSMS4AZDFAL","","null","<img src=""img/land2.png"" style=""width:200px; border:14px solid green;"">","null","","","","","","","","","",""
"","image-keyboard-response","347","221780","0.0-347.0","3U088ZLJVLF4MHIWRMX3WNYF3LLW01","A1YFVXP4A1CXSF","3S1L4CQSFXRWQOWP2XFUSMS4AZDFAL","","624.8000000715256","img/land2.png","75","625.8999999761581","2","1","1","2","1,0.5,0.5,0.5,1,0.5,0.5,0.5,1","0.5,1,0.5,0.5,0.5,1,1,0.5,0.5","3","",""
"","html-keyboard-response","348","222082","0.0-348.0","3U088ZLJVLF4MHIWRMX3WNYF3LLW01","A1YFVXP4A1CXSF","3S1L4CQSFXRWQOWP2XFUSMS4AZDFAL","","null","<img src=""img/land2.png"" style=""width:200px; border:14px solid green;"">","null","","","","","","","","","",""
"","image-keyboard-response","349","222700","0.0-349.0","3U088ZLJVLF4MHIWRMX3WNYF3LLW01","A1YFVXP4A1CXSF","3S1L4CQSFXRWQOWP2XFUSMS4AZDFAL","","616.5","img/land2.png","75","617.5","2","1","1","2","1,0.5,0.5,0.5,1,0.5,0.5,0.5,1","0.5,1,0.5,0.5,0.5,1,1,0.5,0.5","3","",""
"","html-keyboard-response","350","223002","0.0-350.0","3U088ZLJVLF4MHIWRMX3WNYF3LLW01","A1YFVXP4A1CXSF","3S1L4CQSFXRWQOWP2XFUSMS4AZDFAL","","null","<img src=""img/land2.png"" style=""width:200px; border:14px solid green;"">","null","","","","","","","","","",""
"","image-keyboard-response","351","223716","0.0-351.0","3U088ZLJVLF4MHIWRMX3WNYF3LLW01","A1YFVXP4A1CXSF","3S1L4CQSFXRWQOWP2XFUSMS4AZDFAL","","712.8000000715256","img/land2.png","75","713.8999999761581","2","1","1","2","1,0.5,0.5,0.5,1,0.5,0.5,0.5,1","0.5,1,0.5,0.5,0.5,1,1,0.5,0.5","3","",""
"","html-keyboard-response","352","224019","0.0-352.0","3U088ZLJVLF4MHIWRMX3WNYF3LLW01","A1YFVXP4A1CXSF","3S1L4CQSFXRWQOWP2XFUSMS4AZDFAL","","null","<img src=""img/land2.png"" style=""width:200px; border:14px solid green;"">","null","","","","","","","","","",""
"","image-keyboard-response","353","224564","0.0-353.0","3U088ZLJVLF4MHIWRMX3WNYF3LLW01","A1YFVXP4A1CXSF","3S1L4CQSFXRWQOWP2XFUSMS4AZDFAL","","544.4000000953674","img/land6.png","74","545.6000000238419","1","1","3","2","1,0.5,0.5,0.5,1,0.5,0.5,0.5,1","0.5,1,0.5,0.5,0.5,1,1,0.5,0.5","3","",""
"","html-keyboard-response","354","224866","0.0-354.0","3U088ZLJVLF4MHIWRMX3WNYF3LLW01","A1YFVXP4A1CXSF","3S1L4CQSFXRWQOWP2XFUSMS4AZDFAL","","null","<img src=""img/land6.png"" style=""width:200px; border:14px solid green;"">","null","","","","","","","","","",""
"","image-keyboard-response","355","225564","0.0-355.0","3U088ZLJVLF4MHIWRMX3WNYF3LLW01","A1YFVXP4A1CXSF","3S1L4CQSFXRWQOWP2XFUSMS4AZDFAL","","697.1000000238419","img/land2.png","75","698.2000000476837","2","1","1","2","1,0.5,0.5,0.5,1,0.5,0.5,0.5,1","0.5,1,0.5,0.5,0.5,1,1,0.5,0.5","3","",""
"","html-keyboard-response","356","225866","0.0-356.0","3U088ZLJVLF4MHIWRMX3WNYF3LLW01","A1YFVXP4A1CXSF","3S1L4CQSFXRWQOWP2XFUSMS4AZDFAL","","null","<img src=""img/land2.png"" style=""width:200px; border:14px solid green;"">","null","","","","","","","","","",""
"","image-keyboard-response","357","226444","0.0-357.0","3U088ZLJVLF4MHIWRMX3WNYF3LLW01","A1YFVXP4A1CXSF","3S1L4CQSFXRWQOWP2XFUSMS4AZDFAL","","576.5","img/land6.png","74","577.6999999284744","1","1","3","2","1,0.5,0.5,0.5,1,0.5,0.5,0.5,1","0.5,1,0.5,0.5,0.5,1,1,0.5,0.5","3","",""
"","html-keyboard-response","358","226746","0.0-358.0","3U088ZLJVLF4MHIWRMX3WNYF3LLW01","A1YFVXP4A1CXSF","3S1L4CQSFXRWQOWP2XFUSMS4AZDFAL","","null","<img src=""img/land6.png"" style=""width:200px; border:14px solid green;"">","null","","","","","","","","","",""
"","image-keyboard-response","359","227308","0.0-359.0","3U088ZLJVLF4MHIWRMX3WNYF3LLW01","A1YFVXP4A1CXSF","3S1L4CQSFXRWQOWP2XFUSMS4AZDFAL","","560.8999999761581","img/land2.png","75","562.0999999046326","2","1","1","2","1,0.5,0.5,0.5,1,0.5,0.5,0.5,1","0.5,1,0.5,0.5,0.5,1,1,0.5,0.5","3","",""
"","html-keyboard-response","360","227610","0.0-360.0","3U088ZLJVLF4MHIWRMX3WNYF3LLW01","A1YFVXP4A1CXSF","3S1L4CQSFXRWQOWP2XFUSMS4AZDFAL","","null","<img src=""img/land2.png"" style=""width:200px; border:14px solid green;"">","null","","","","","","","","","",""
