"success","trial_type","trial_index","time_elapsed","internal_node_id","assignmentID","mturkID","hitID","view_history","rt","stimulus","key_press","reactionTime","chosenAction","reward","warning","responses","question_order"
"true","fullscreen","0","2255","0.0-0.0","3GU1KF0O4JNFMVO5DGGXOAM2YO8PB3","A207IHY6GERCFO","3LN3BXKGC0HZB1VNEMH4SWP73O3GW1","","","","","","","","","",""
"","instructions","1","12537","0.0-1.0","3GU1KF0O4JNFMVO5DGGXOAM2YO8PB3","A207IHY6GERCFO","3LN3BXKGC0HZB1VNEMH4SWP73O3GW1","[{""page_index"":0,""viewing_time"":985},{""page_index"":1,""viewing_time"":632},{""page_index"":2,""viewing_time"":1968},{""page_index"":3,""viewing_time"":495},{""page_index"":4,""viewing_time"":1880},{""page_index"":5,""viewing_time"":1320},{""page_index"":6,""viewing_time"":1824},{""page_index"":7,""viewing_time"":1176}]","10281","","","","","","","",""
"","image-keyboard-response","2","13324","0.0-2.0","3GU1KF0O4JNFMVO5DGGXOAM2YO8PB3","A207IHY6GERCFO","3LN3BXKGC0HZB1VNEMH4SWP73O3GW1","","785","img/land2.png","74","786","74","1","false","",""
"","html-keyboard-response","3","13636","0.0-3.0","3GU1KF0O4JNFMVO5DGGXOAM2YO8PB3","A207IHY6GERCFO","3LN3BXKGC0HZB1VNEMH4SWP73O3GW1","","null","<img src=""img/land2.png"" style=""width:200px; border:14px solid green;"">","null","","","","","",""
"","image-keyboard-response","4","14594","0.0-5.0","3GU1KF0O4JNFMVO5DGGXOAM2YO8PB3","A207IHY6GERCFO","3LN3BXKGC0HZB1VNEMH4SWP73O3GW1","","955","img/land5.png","75","957","75","0","false","",""
"","html-keyboard-response","5","14905","0.0-6.0","3GU1KF0O4JNFMVO5DGGXOAM2YO8PB3","A207IHY6GERCFO","3LN3BXKGC0HZB1VNEMH4SWP73O3GW1","","null","<img src=""img/land5.png"" style=""width:200px;border:14px solid red;"">","null","","","","","",""
"","image-keyboard-response","6","15601","0.0-8.0","3GU1KF0O4JNFMVO5DGGXOAM2YO8PB3","A207IHY6GERCFO","3LN3BXKGC0HZB1VNEMH4SWP73O3GW1","","694","img/land5.png","76","695","76","1","false","",""
"","html-keyboard-response","7","15905","0.0-9.0","3GU1KF0O4JNFMVO5DGGXOAM2YO8PB3","A207IHY6GERCFO","3LN3BXKGC0HZB1VNEMH4SWP73O3GW1","","null","<img src=""img/land5.png"" style=""width:200px; border:14px solid green;"">","null","","","","","",""
"","image-keyboard-response","8","16914","0.0-11.0","3GU1KF0O4JNFMVO5DGGXOAM2YO8PB3","A207IHY6GERCFO","3LN3BXKGC0HZB1VNEMH4SWP73O3GW1","","","img/land2.png","","1009","-1","0","true","",""
"","html-keyboard-response","9","17226","0.0-12.0","3GU1KF0O4JNFMVO5DGGXOAM2YO8PB3","A207IHY6GERCFO","3LN3BXKGC0HZB1VNEMH4SWP73O3GW1","","null","<img src=""img/land2.png"" style=""width:200px;border:14px solid red;"">","null","","","","","",""
"","html-keyboard-response","10","24680","0.0-13.0-0.0","3GU1KF0O4JNFMVO5DGGXOAM2YO8PB3","A207IHY6GERCFO","3LN3BXKGC0HZB1VNEMH4SWP73O3GW1","","","","","","","","","",""
"","image-keyboard-response","11","25578","0.0-14.0","3GU1KF0O4JNFMVO5DGGXOAM2YO8PB3","A207IHY6GERCFO","3LN3BXKGC0HZB1VNEMH4SWP73O3GW1","","896","img/land2.png","74","898","74","0","false","",""
"","html-keyboard-response","12","25881","0.0-15.0","3GU1KF0O4JNFMVO5DGGXOAM2YO8PB3","A207IHY6GERCFO","3LN3BXKGC0HZB1VNEMH4SWP73O3GW1","","null","<img src=""img/land2.png"" style=""width:200px;border:14px solid red;"">","null","","","","","",""
"","image-keyboard-response","13","26642","0.0-17.0","3GU1KF0O4JNFMVO5DGGXOAM2YO8PB3","A207IHY6GERCFO","3LN3BXKGC0HZB1VNEMH4SWP73O3GW1","","758","img/land9.png","75","761","75","0","false","",""
"","html-keyboard-response","14","26946","0.0-18.0","3GU1KF0O4JNFMVO5DGGXOAM2YO8PB3","A207IHY6GERCFO","3LN3BXKGC0HZB1VNEMH4SWP73O3GW1","","null","<img src=""img/land9.png"" style=""width:200px;border:14px solid red;"">","null","","","","","",""
"","image-keyboard-response","15","27625","0.0-20.0","3GU1KF0O4JNFMVO5DGGXOAM2YO8PB3","A207IHY6GERCFO","3LN3BXKGC0HZB1VNEMH4SWP73O3GW1","","677","img/land5.png","76","680","76","1","false","",""
"","html-keyboard-response","16","27946","0.0-21.0","3GU1KF0O4JNFMVO5DGGXOAM2YO8PB3","A207IHY6GERCFO","3LN3BXKGC0HZB1VNEMH4SWP73O3GW1","","null","<img src=""img/land5.png"" style=""width:200px; border:14px solid green;"">","null","","","","","",""
"","image-keyboard-response","17","28858","0.0-23.0","3GU1KF0O4JNFMVO5DGGXOAM2YO8PB3","A207IHY6GERCFO","3LN3BXKGC0HZB1VNEMH4SWP73O3GW1","","910","img/land9.png","74","911","74","0","false","",""
"","html-keyboard-response","18","29175","0.0-24.0","3GU1KF0O4JNFMVO5DGGXOAM2YO8PB3","A207IHY6GERCFO","3LN3BXKGC0HZB1VNEMH4SWP73O3GW1","","null","<img src=""img/land9.png"" style=""width:200px;border:14px solid red;"">","null","","","","","",""
"","image-keyboard-response","19","29585","0.0-26.0","3GU1KF0O4JNFMVO5DGGXOAM2YO8PB3","A207IHY6GERCFO","3LN3BXKGC0HZB1VNEMH4SWP73O3GW1","","409","img/land9.png","74","410","74","0","false","",""
"","html-keyboard-response","20","29888","0.0-27.0","3GU1KF0O4JNFMVO5DGGXOAM2YO8PB3","A207IHY6GERCFO","3LN3BXKGC0HZB1VNEMH4SWP73O3GW1","","null","<img src=""img/land9.png"" style=""width:200px;border:14px solid red;"">","null","","","","","",""
"","image-keyboard-response","21","30497","0.0-29.0","3GU1KF0O4JNFMVO5DGGXOAM2YO8PB3","A207IHY6GERCFO","3LN3BXKGC0HZB1VNEMH4SWP73O3GW1","","606","img/land5.png","75","607","75","0","false","",""
"","html-keyboard-response","22","30800","0.0-30.0","3GU1KF0O4JNFMVO5DGGXOAM2YO8PB3","A207IHY6GERCFO","3LN3BXKGC0HZB1VNEMH4SWP73O3GW1","","null","<img src=""img/land5.png"" style=""width:200px;border:14px solid red;"">","null","","","","","",""
"","image-keyboard-response","23","31129","0.0-32.0","3GU1KF0O4JNFMVO5DGGXOAM2YO8PB3","A207IHY6GERCFO","3LN3BXKGC0HZB1VNEMH4SWP73O3GW1","","326","img/land5.png","76","328","76","1","false","",""
"","html-keyboard-response","24","31431","0.0-33.0","3GU1KF0O4JNFMVO5DGGXOAM2YO8PB3","A207IHY6GERCFO","3LN3BXKGC0HZB1VNEMH4SWP73O3GW1","","null","<img src=""img/land5.png"" style=""width:200px; border:14px solid green;"">","null","","","","","",""
"","image-keyboard-response","25","32130","0.0-35.0","3GU1KF0O4JNFMVO5DGGXOAM2YO8PB3","A207IHY6GERCFO","3LN3BXKGC0HZB1VNEMH4SWP73O3GW1","","695","img/land9.png","75","698","75","0","false","",""
"","html-keyboard-response","26","32432","0.0-36.0","3GU1KF0O4JNFMVO5DGGXOAM2YO8PB3","A207IHY6GERCFO","3LN3BXKGC0HZB1VNEMH4SWP73O3GW1","","null","<img src=""img/land9.png"" style=""width:200px;border:14px solid red;"">","null","","","","","",""
"","image-keyboard-response","27","33058","0.0-38.0","3GU1KF0O4JNFMVO5DGGXOAM2YO8PB3","A207IHY6GERCFO","3LN3BXKGC0HZB1VNEMH4SWP73O3GW1","","624","img/land5.png","76","626","76","1","false","",""
"","html-keyboard-response","28","33360","0.0-39.0","3GU1KF0O4JNFMVO5DGGXOAM2YO8PB3","A207IHY6GERCFO","3LN3BXKGC0HZB1VNEMH4SWP73O3GW1","","null","<img src=""img/land5.png"" style=""width:200px; border:14px solid green;"">","null","","","","","",""
"","image-keyboard-response","29","34137","0.0-41.0","3GU1KF0O4JNFMVO5DGGXOAM2YO8PB3","A207IHY6GERCFO","3LN3BXKGC0HZB1VNEMH4SWP73O3GW1","","774","img/land2.png","74","776","74","1","false","",""
"","html-keyboard-response","30","34440","0.0-42.0","3GU1KF0O4JNFMVO5DGGXOAM2YO8PB3","A207IHY6GERCFO","3LN3BXKGC0HZB1VNEMH4SWP73O3GW1","","null","<img src=""img/land2.png"" style=""width:200px; border:14px solid green;"">","null","","","","","",""
"","image-keyboard-response","31","34818","0.0-44.0","3GU1KF0O4JNFMVO5DGGXOAM2YO8PB3","A207IHY6GERCFO","3LN3BXKGC0HZB1VNEMH4SWP73O3GW1","","376","img/land2.png","74","378","74","0","false","",""
"","html-keyboard-response","32","35122","0.0-45.0","3GU1KF0O4JNFMVO5DGGXOAM2YO8PB3","A207IHY6GERCFO","3LN3BXKGC0HZB1VNEMH4SWP73O3GW1","","null","<img src=""img/land2.png"" style=""width:200px;border:14px solid red;"">","null","","","","","",""
"","image-keyboard-response","33","35802","0.0-47.0","3GU1KF0O4JNFMVO5DGGXOAM2YO8PB3","A207IHY6GERCFO","3LN3BXKGC0HZB1VNEMH4SWP73O3GW1","","676","img/land9.png","75","679","75","0","false","",""
"","html-keyboard-response","34","36105","0.0-48.0","3GU1KF0O4JNFMVO5DGGXOAM2YO8PB3","A207IHY6GERCFO","3LN3BXKGC0HZB1VNEMH4SWP73O3GW1","","null","<img src=""img/land9.png"" style=""width:200px;border:14px solid red;"">","null","","","","","",""
"","image-keyboard-response","35","36641","0.0-50.0","3GU1KF0O4JNFMVO5DGGXOAM2YO8PB3","A207IHY6GERCFO","3LN3BXKGC0HZB1VNEMH4SWP73O3GW1","","533","img/land2.png","76","535","76","0","false","",""
"","html-keyboard-response","36","36943","0.0-51.0","3GU1KF0O4JNFMVO5DGGXOAM2YO8PB3","A207IHY6GERCFO","3LN3BXKGC0HZB1VNEMH4SWP73O3GW1","","null","<img src=""img/land2.png"" style=""width:200px;border:14px solid red;"">","null","","","","","",""
"","image-keyboard-response","37","37507","0.0-53.0","3GU1KF0O4JNFMVO5DGGXOAM2YO8PB3","A207IHY6GERCFO","3LN3BXKGC0HZB1VNEMH4SWP73O3GW1","","562","img/land2.png","74","564","74","0","false","",""
"","html-keyboard-response","38","37810","0.0-54.0","3GU1KF0O4JNFMVO5DGGXOAM2YO8PB3","A207IHY6GERCFO","3LN3BXKGC0HZB1VNEMH4SWP73O3GW1","","null","<img src=""img/land2.png"" style=""width:200px;border:14px solid red;"">","null","","","","","",""
"","image-keyboard-response","39","38522","0.0-56.0","3GU1KF0O4JNFMVO5DGGXOAM2YO8PB3","A207IHY6GERCFO","3LN3BXKGC0HZB1VNEMH4SWP73O3GW1","","708","img/land9.png","75","710","75","1","false","",""
"","html-keyboard-response","40","38825","0.0-57.0","3GU1KF0O4JNFMVO5DGGXOAM2YO8PB3","A207IHY6GERCFO","3LN3BXKGC0HZB1VNEMH4SWP73O3GW1","","null","<img src=""img/land9.png"" style=""width:200px; border:14px solid green;"">","null","","","","","",""
"","image-keyboard-response","41","39186","0.0-59.0","3GU1KF0O4JNFMVO5DGGXOAM2YO8PB3","A207IHY6GERCFO","3LN3BXKGC0HZB1VNEMH4SWP73O3GW1","","358","img/land9.png","75","360","75","1","false","",""
"","html-keyboard-response","42","39490","0.0-60.0","3GU1KF0O4JNFMVO5DGGXOAM2YO8PB3","A207IHY6GERCFO","3LN3BXKGC0HZB1VNEMH4SWP73O3GW1","","null","<img src=""img/land9.png"" style=""width:200px; border:14px solid green;"">","null","","","","","",""
"","image-keyboard-response","43","39801","0.0-62.0","3GU1KF0O4JNFMVO5DGGXOAM2YO8PB3","A207IHY6GERCFO","3LN3BXKGC0HZB1VNEMH4SWP73O3GW1","","310","img/land9.png","75","311","75","1","false","",""
"","html-keyboard-response","44","40104","0.0-63.0","3GU1KF0O4JNFMVO5DGGXOAM2YO8PB3","A207IHY6GERCFO","3LN3BXKGC0HZB1VNEMH4SWP73O3GW1","","null","<img src=""img/land9.png"" style=""width:200px; border:14px solid green;"">","null","","","","","",""
"","image-keyboard-response","45","40418","0.0-65.0","3GU1KF0O4JNFMVO5DGGXOAM2YO8PB3","A207IHY6GERCFO","3LN3BXKGC0HZB1VNEMH4SWP73O3GW1","","311","img/land9.png","75","313","75","0","false","",""
"","html-keyboard-response","46","40721","0.0-66.0","3GU1KF0O4JNFMVO5DGGXOAM2YO8PB3","A207IHY6GERCFO","3LN3BXKGC0HZB1VNEMH4SWP73O3GW1","","null","<img src=""img/land9.png"" style=""width:200px;border:14px solid red;"">","null","","","","","",""
"","image-keyboard-response","47","41674","0.0-68.0","3GU1KF0O4JNFMVO5DGGXOAM2YO8PB3","A207IHY6GERCFO","3LN3BXKGC0HZB1VNEMH4SWP73O3GW1","","950","img/land2.png","74","953","74","0","false","",""
"","html-keyboard-response","48","41978","0.0-69.0","3GU1KF0O4JNFMVO5DGGXOAM2YO8PB3","A207IHY6GERCFO","3LN3BXKGC0HZB1VNEMH4SWP73O3GW1","","null","<img src=""img/land2.png"" style=""width:200px;border:14px solid red;"">","null","","","","","",""
"","image-keyboard-response","49","42282","0.0-71.0","3GU1KF0O4JNFMVO5DGGXOAM2YO8PB3","A207IHY6GERCFO","3LN3BXKGC0HZB1VNEMH4SWP73O3GW1","","301","img/land2.png","74","303","74","0","false","",""
"","html-keyboard-response","50","42591","0.0-72.0","3GU1KF0O4JNFMVO5DGGXOAM2YO8PB3","A207IHY6GERCFO","3LN3BXKGC0HZB1VNEMH4SWP73O3GW1","","null","<img src=""img/land2.png"" style=""width:200px;border:14px solid red;"">","null","","","","","",""
"","image-keyboard-response","51","42682","0.0-74.0","3GU1KF0O4JNFMVO5DGGXOAM2YO8PB3","A207IHY6GERCFO","3LN3BXKGC0HZB1VNEMH4SWP73O3GW1","","89","img/land5.png","74","91","74","1","false","",""
"","html-keyboard-response","52","42986","0.0-75.0","3GU1KF0O4JNFMVO5DGGXOAM2YO8PB3","A207IHY6GERCFO","3LN3BXKGC0HZB1VNEMH4SWP73O3GW1","","null","<img src=""img/land5.png"" style=""width:200px; border:14px solid green;"">","null","","","","","",""
"","image-keyboard-response","53","43988","0.0-77.0","3GU1KF0O4JNFMVO5DGGXOAM2YO8PB3","A207IHY6GERCFO","3LN3BXKGC0HZB1VNEMH4SWP73O3GW1","","","img/land9.png","","1003","-1","0","true","",""
"","html-keyboard-response","54","44291","0.0-78.0","3GU1KF0O4JNFMVO5DGGXOAM2YO8PB3","A207IHY6GERCFO","3LN3BXKGC0HZB1VNEMH4SWP73O3GW1","","null","<img src=""img/land9.png"" style=""width:200px;border:14px solid red;"">","null","","","","","",""
"","html-keyboard-response","55","46552","0.0-79.0-0.0","3GU1KF0O4JNFMVO5DGGXOAM2YO8PB3","A207IHY6GERCFO","3LN3BXKGC0HZB1VNEMH4SWP73O3GW1","","","","","","","","","",""
"","image-keyboard-response","56","47184","0.0-80.0","3GU1KF0O4JNFMVO5DGGXOAM2YO8PB3","A207IHY6GERCFO","3LN3BXKGC0HZB1VNEMH4SWP73O3GW1","","631","img/land9.png","75","631","75","0","false","",""
"","html-keyboard-response","57","47486","0.0-81.0","3GU1KF0O4JNFMVO5DGGXOAM2YO8PB3","A207IHY6GERCFO","3LN3BXKGC0HZB1VNEMH4SWP73O3GW1","","null","<img src=""img/land9.png"" style=""width:200px;border:14px solid red;"">","null","","","","","",""
"","image-keyboard-response","58","47952","0.0-83.0","3GU1KF0O4JNFMVO5DGGXOAM2YO8PB3","A207IHY6GERCFO","3LN3BXKGC0HZB1VNEMH4SWP73O3GW1","","465","img/land5.png","76","467","76","0","false","",""
"","html-keyboard-response","59","48255","0.0-84.0","3GU1KF0O4JNFMVO5DGGXOAM2YO8PB3","A207IHY6GERCFO","3LN3BXKGC0HZB1VNEMH4SWP73O3GW1","","null","<img src=""img/land5.png"" style=""width:200px;border:14px solid red;"">","null","","","","","",""
"","image-keyboard-response","60","48832","0.0-86.0","3GU1KF0O4JNFMVO5DGGXOAM2YO8PB3","A207IHY6GERCFO","3LN3BXKGC0HZB1VNEMH4SWP73O3GW1","","576","img/land9.png","74","578","74","0","false","",""
"","html-keyboard-response","61","49134","0.0-87.0","3GU1KF0O4JNFMVO5DGGXOAM2YO8PB3","A207IHY6GERCFO","3LN3BXKGC0HZB1VNEMH4SWP73O3GW1","","null","<img src=""img/land9.png"" style=""width:200px;border:14px solid red;"">","null","","","","","",""
"","image-keyboard-response","62","49776","0.0-89.0","3GU1KF0O4JNFMVO5DGGXOAM2YO8PB3","A207IHY6GERCFO","3LN3BXKGC0HZB1VNEMH4SWP73O3GW1","","642","img/land5.png","76","642","76","0","false","",""
"","html-keyboard-response","63","50078","0.0-90.0","3GU1KF0O4JNFMVO5DGGXOAM2YO8PB3","A207IHY6GERCFO","3LN3BXKGC0HZB1VNEMH4SWP73O3GW1","","null","<img src=""img/land5.png"" style=""width:200px;border:14px solid red;"">","null","","","","","",""
"","image-keyboard-response","64","50576","0.0-92.0","3GU1KF0O4JNFMVO5DGGXOAM2YO8PB3","A207IHY6GERCFO","3LN3BXKGC0HZB1VNEMH4SWP73O3GW1","","497","img/land2.png","74","497","74","0","false","",""
"","html-keyboard-response","65","50878","0.0-93.0","3GU1KF0O4JNFMVO5DGGXOAM2YO8PB3","A207IHY6GERCFO","3LN3BXKGC0HZB1VNEMH4SWP73O3GW1","","null","<img src=""img/land2.png"" style=""width:200px;border:14px solid red;"">","null","","","","","",""
"","image-keyboard-response","66","51424","0.0-95.0","3GU1KF0O4JNFMVO5DGGXOAM2YO8PB3","A207IHY6GERCFO","3LN3BXKGC0HZB1VNEMH4SWP73O3GW1","","545","img/land9.png","75","546","75","1","false","",""
"","html-keyboard-response","67","51726","0.0-96.0","3GU1KF0O4JNFMVO5DGGXOAM2YO8PB3","A207IHY6GERCFO","3LN3BXKGC0HZB1VNEMH4SWP73O3GW1","","null","<img src=""img/land9.png"" style=""width:200px; border:14px solid green;"">","null","","","","","",""
"","image-keyboard-response","68","52320","0.0-98.0","3GU1KF0O4JNFMVO5DGGXOAM2YO8PB3","A207IHY6GERCFO","3LN3BXKGC0HZB1VNEMH4SWP73O3GW1","","594","img/land5.png","76","594","76","0","false","",""
"","html-keyboard-response","69","52623","0.0-99.0","3GU1KF0O4JNFMVO5DGGXOAM2YO8PB3","A207IHY6GERCFO","3LN3BXKGC0HZB1VNEMH4SWP73O3GW1","","null","<img src=""img/land5.png"" style=""width:200px;border:14px solid red;"">","null","","","","","",""
"","image-keyboard-response","70","53408","0.0-101.0","3GU1KF0O4JNFMVO5DGGXOAM2YO8PB3","A207IHY6GERCFO","3LN3BXKGC0HZB1VNEMH4SWP73O3GW1","","784","img/land2.png","74","786","74","0","false","",""
"","html-keyboard-response","71","53710","0.0-102.0","3GU1KF0O4JNFMVO5DGGXOAM2YO8PB3","A207IHY6GERCFO","3LN3BXKGC0HZB1VNEMH4SWP73O3GW1","","null","<img src=""img/land2.png"" style=""width:200px;border:14px solid red;"">","null","","","","","",""
"","image-keyboard-response","72","54440","0.0-104.0","3GU1KF0O4JNFMVO5DGGXOAM2YO8PB3","A207IHY6GERCFO","3LN3BXKGC0HZB1VNEMH4SWP73O3GW1","","730","img/land9.png","76","730","76","1","false","",""
"","html-keyboard-response","73","54743","0.0-105.0","3GU1KF0O4JNFMVO5DGGXOAM2YO8PB3","A207IHY6GERCFO","3LN3BXKGC0HZB1VNEMH4SWP73O3GW1","","null","<img src=""img/land9.png"" style=""width:200px; border:14px solid green;"">","null","","","","","",""
"","image-keyboard-response","74","55353","0.0-107.0","3GU1KF0O4JNFMVO5DGGXOAM2YO8PB3","A207IHY6GERCFO","3LN3BXKGC0HZB1VNEMH4SWP73O3GW1","","608","img/land5.png","74","609","74","0","false","",""
"","html-keyboard-response","75","55655","0.0-108.0","3GU1KF0O4JNFMVO5DGGXOAM2YO8PB3","A207IHY6GERCFO","3LN3BXKGC0HZB1VNEMH4SWP73O3GW1","","null","<img src=""img/land5.png"" style=""width:200px;border:14px solid red;"">","null","","","","","",""
"","image-keyboard-response","76","56418","0.0-110.0","3GU1KF0O4JNFMVO5DGGXOAM2YO8PB3","A207IHY6GERCFO","3LN3BXKGC0HZB1VNEMH4SWP73O3GW1","","761","img/land2.png","75","763","75","1","false","",""
"","html-keyboard-response","77","56721","0.0-111.0","3GU1KF0O4JNFMVO5DGGXOAM2YO8PB3","A207IHY6GERCFO","3LN3BXKGC0HZB1VNEMH4SWP73O3GW1","","null","<img src=""img/land2.png"" style=""width:200px; border:14px solid green;"">","null","","","","","",""
"","image-keyboard-response","78","57626","0.0-113.0","3GU1KF0O4JNFMVO5DGGXOAM2YO8PB3","A207IHY6GERCFO","3LN3BXKGC0HZB1VNEMH4SWP73O3GW1","","902","img/land5.png","74","903","74","1","false","",""
"","html-keyboard-response","79","57929","0.0-114.0","3GU1KF0O4JNFMVO5DGGXOAM2YO8PB3","A207IHY6GERCFO","3LN3BXKGC0HZB1VNEMH4SWP73O3GW1","","null","<img src=""img/land5.png"" style=""width:200px; border:14px solid green;"">","null","","","","","",""
"","image-keyboard-response","80","58754","0.0-116.0","3GU1KF0O4JNFMVO5DGGXOAM2YO8PB3","A207IHY6GERCFO","3LN3BXKGC0HZB1VNEMH4SWP73O3GW1","","822","img/land9.png","76","824","76","1","false","",""
"","html-keyboard-response","81","59057","0.0-117.0","3GU1KF0O4JNFMVO5DGGXOAM2YO8PB3","A207IHY6GERCFO","3LN3BXKGC0HZB1VNEMH4SWP73O3GW1","","null","<img src=""img/land9.png"" style=""width:200px; border:14px solid green;"">","null","","","","","",""
"","image-keyboard-response","82","59858","0.0-119.0","3GU1KF0O4JNFMVO5DGGXOAM2YO8PB3","A207IHY6GERCFO","3LN3BXKGC0HZB1VNEMH4SWP73O3GW1","","798","img/land2.png","76","801","76","0","false","",""
"","html-keyboard-response","83","60161","0.0-120.0","3GU1KF0O4JNFMVO5DGGXOAM2YO8PB3","A207IHY6GERCFO","3LN3BXKGC0HZB1VNEMH4SWP73O3GW1","","null","<img src=""img/land2.png"" style=""width:200px;border:14px solid red;"">","null","","","","","",""
"","image-keyboard-response","84","60914","0.0-122.0","3GU1KF0O4JNFMVO5DGGXOAM2YO8PB3","A207IHY6GERCFO","3LN3BXKGC0HZB1VNEMH4SWP73O3GW1","","750","img/land9.png","76","753","76","1","false","",""
"","html-keyboard-response","85","61218","0.0-123.0","3GU1KF0O4JNFMVO5DGGXOAM2YO8PB3","A207IHY6GERCFO","3LN3BXKGC0HZB1VNEMH4SWP73O3GW1","","null","<img src=""img/land9.png"" style=""width:200px; border:14px solid green;"">","null","","","","","",""
"","image-keyboard-response","86","62034","0.0-125.0","3GU1KF0O4JNFMVO5DGGXOAM2YO8PB3","A207IHY6GERCFO","3LN3BXKGC0HZB1VNEMH4SWP73O3GW1","","815","img/land2.png","75","816","75","1","false","",""
"","html-keyboard-response","87","62338","0.0-126.0","3GU1KF0O4JNFMVO5DGGXOAM2YO8PB3","A207IHY6GERCFO","3LN3BXKGC0HZB1VNEMH4SWP73O3GW1","","null","<img src=""img/land2.png"" style=""width:200px; border:14px solid green;"">","null","","","","","",""
"","image-keyboard-response","88","62890","0.0-128.0","3GU1KF0O4JNFMVO5DGGXOAM2YO8PB3","A207IHY6GERCFO","3LN3BXKGC0HZB1VNEMH4SWP73O3GW1","","549","img/land5.png","74","551","74","1","false","",""
"","html-keyboard-response","89","63193","0.0-129.0","3GU1KF0O4JNFMVO5DGGXOAM2YO8PB3","A207IHY6GERCFO","3LN3BXKGC0HZB1VNEMH4SWP73O3GW1","","null","<img src=""img/land5.png"" style=""width:200px; border:14px solid green;"">","null","","","","","",""
"","image-keyboard-response","90","64196","0.0-131.0","3GU1KF0O4JNFMVO5DGGXOAM2YO8PB3","A207IHY6GERCFO","3LN3BXKGC0HZB1VNEMH4SWP73O3GW1","","","img/land9.png","","1002","-1","0","true","",""
"","html-keyboard-response","91","64500","0.0-132.0","3GU1KF0O4JNFMVO5DGGXOAM2YO8PB3","A207IHY6GERCFO","3LN3BXKGC0HZB1VNEMH4SWP73O3GW1","","null","<img src=""img/land9.png"" style=""width:200px;border:14px solid red;"">","null","","","","","",""
"","html-keyboard-response","92","66617","0.0-133.0-0.0","3GU1KF0O4JNFMVO5DGGXOAM2YO8PB3","A207IHY6GERCFO","3LN3BXKGC0HZB1VNEMH4SWP73O3GW1","","","","","","","","","",""
"","image-keyboard-response","93","67426","0.0-134.0","3GU1KF0O4JNFMVO5DGGXOAM2YO8PB3","A207IHY6GERCFO","3LN3BXKGC0HZB1VNEMH4SWP73O3GW1","","808","img/land2.png","75","809","75","1","false","",""
"","html-keyboard-response","94","67730","0.0-135.0","3GU1KF0O4JNFMVO5DGGXOAM2YO8PB3","A207IHY6GERCFO","3LN3BXKGC0HZB1VNEMH4SWP73O3GW1","","null","<img src=""img/land2.png"" style=""width:200px; border:14px solid green;"">","null","","","","","",""
"","image-keyboard-response","95","68443","0.0-137.0","3GU1KF0O4JNFMVO5DGGXOAM2YO8PB3","A207IHY6GERCFO","3LN3BXKGC0HZB1VNEMH4SWP73O3GW1","","709","img/land5.png","74","712","74","1","false","",""
"","html-keyboard-response","96","68746","0.0-138.0","3GU1KF0O4JNFMVO5DGGXOAM2YO8PB3","A207IHY6GERCFO","3LN3BXKGC0HZB1VNEMH4SWP73O3GW1","","null","<img src=""img/land5.png"" style=""width:200px; border:14px solid green;"">","null","","","","","",""
"","image-keyboard-response","97","69330","0.0-140.0","3GU1KF0O4JNFMVO5DGGXOAM2YO8PB3","A207IHY6GERCFO","3LN3BXKGC0HZB1VNEMH4SWP73O3GW1","","580","img/land9.png","76","583","76","1","false","",""
"","html-keyboard-response","98","69634","0.0-141.0","3GU1KF0O4JNFMVO5DGGXOAM2YO8PB3","A207IHY6GERCFO","3LN3BXKGC0HZB1VNEMH4SWP73O3GW1","","null","<img src=""img/land9.png"" style=""width:200px; border:14px solid green;"">","null","","","","","",""
"","image-keyboard-response","99","70466","0.0-143.0","3GU1KF0O4JNFMVO5DGGXOAM2YO8PB3","A207IHY6GERCFO","3LN3BXKGC0HZB1VNEMH4SWP73O3GW1","","829","img/land2.png","75","833","75","1","false","",""
"","html-keyboard-response","100","70769","0.0-144.0","3GU1KF0O4JNFMVO5DGGXOAM2YO8PB3","A207IHY6GERCFO","3LN3BXKGC0HZB1VNEMH4SWP73O3GW1","","null","<img src=""img/land2.png"" style=""width:200px; border:14px solid green;"">","null","","","","","",""
"","image-keyboard-response","101","71618","0.0-146.0","3GU1KF0O4JNFMVO5DGGXOAM2YO8PB3","A207IHY6GERCFO","3LN3BXKGC0HZB1VNEMH4SWP73O3GW1","","847","img/land9.png","76","848","76","1","false","",""
"","html-keyboard-response","102","71922","0.0-147.0","3GU1KF0O4JNFMVO5DGGXOAM2YO8PB3","A207IHY6GERCFO","3LN3BXKGC0HZB1VNEMH4SWP73O3GW1","","null","<img src=""img/land9.png"" style=""width:200px; border:14px solid green;"">","null","","","","","",""
"","image-keyboard-response","103","72482","0.0-149.0","3GU1KF0O4JNFMVO5DGGXOAM2YO8PB3","A207IHY6GERCFO","3LN3BXKGC0HZB1VNEMH4SWP73O3GW1","","557","img/land5.png","74","559","74","1","false","",""
"","html-keyboard-response","104","72784","0.0-150.0","3GU1KF0O4JNFMVO5DGGXOAM2YO8PB3","A207IHY6GERCFO","3LN3BXKGC0HZB1VNEMH4SWP73O3GW1","","null","<img src=""img/land5.png"" style=""width:200px; border:14px solid green;"">","null","","","","","",""
"","image-keyboard-response","105","73345","0.0-152.0","3GU1KF0O4JNFMVO5DGGXOAM2YO8PB3","A207IHY6GERCFO","3LN3BXKGC0HZB1VNEMH4SWP73O3GW1","","559","img/land5.png","74","560","74","1","false","",""
"","html-keyboard-response","106","73647","0.0-153.0","3GU1KF0O4JNFMVO5DGGXOAM2YO8PB3","A207IHY6GERCFO","3LN3BXKGC0HZB1VNEMH4SWP73O3GW1","","null","<img src=""img/land5.png"" style=""width:200px; border:14px solid green;"">","null","","","","","",""
"","image-keyboard-response","107","74226","0.0-155.0","3GU1KF0O4JNFMVO5DGGXOAM2YO8PB3","A207IHY6GERCFO","3LN3BXKGC0HZB1VNEMH4SWP73O3GW1","","577","img/land2.png","75","579","75","1","false","",""
"","html-keyboard-response","108","74530","0.0-156.0","3GU1KF0O4JNFMVO5DGGXOAM2YO8PB3","A207IHY6GERCFO","3LN3BXKGC0HZB1VNEMH4SWP73O3GW1","","null","<img src=""img/land2.png"" style=""width:200px; border:14px solid green;"">","null","","","","","",""
"","image-keyboard-response","109","75154","0.0-158.0","3GU1KF0O4JNFMVO5DGGXOAM2YO8PB3","A207IHY6GERCFO","3LN3BXKGC0HZB1VNEMH4SWP73O3GW1","","622","img/land5.png","74","623","74","1","false","",""
"","html-keyboard-response","110","75458","0.0-159.0","3GU1KF0O4JNFMVO5DGGXOAM2YO8PB3","A207IHY6GERCFO","3LN3BXKGC0HZB1VNEMH4SWP73O3GW1","","null","<img src=""img/land5.png"" style=""width:200px; border:14px solid green;"">","null","","","","","",""
"","image-keyboard-response","111","75994","0.0-161.0","3GU1KF0O4JNFMVO5DGGXOAM2YO8PB3","A207IHY6GERCFO","3LN3BXKGC0HZB1VNEMH4SWP73O3GW1","","533","img/land2.png","75","535","75","0","false","",""
"","html-keyboard-response","112","76297","0.0-162.0","3GU1KF0O4JNFMVO5DGGXOAM2YO8PB3","A207IHY6GERCFO","3LN3BXKGC0HZB1VNEMH4SWP73O3GW1","","null","<img src=""img/land2.png"" style=""width:200px;border:14px solid red;"">","null","","","","","",""
"","image-keyboard-response","113","76826","0.0-164.0","3GU1KF0O4JNFMVO5DGGXOAM2YO8PB3","A207IHY6GERCFO","3LN3BXKGC0HZB1VNEMH4SWP73O3GW1","","526","img/land9.png","76","528","76","1","false","",""
"","html-keyboard-response","114","77130","0.0-165.0","3GU1KF0O4JNFMVO5DGGXOAM2YO8PB3","A207IHY6GERCFO","3LN3BXKGC0HZB1VNEMH4SWP73O3GW1","","null","<img src=""img/land9.png"" style=""width:200px; border:14px solid green;"">","null","","","","","",""
"","image-keyboard-response","115","77746","0.0-167.0","3GU1KF0O4JNFMVO5DGGXOAM2YO8PB3","A207IHY6GERCFO","3LN3BXKGC0HZB1VNEMH4SWP73O3GW1","","614","img/land2.png","75","615","75","1","false","",""
"","html-keyboard-response","116","78049","0.0-168.0","3GU1KF0O4JNFMVO5DGGXOAM2YO8PB3","A207IHY6GERCFO","3LN3BXKGC0HZB1VNEMH4SWP73O3GW1","","null","<img src=""img/land2.png"" style=""width:200px; border:14px solid green;"">","null","","","","","",""
"","image-keyboard-response","117","78771","0.0-170.0","3GU1KF0O4JNFMVO5DGGXOAM2YO8PB3","A207IHY6GERCFO","3LN3BXKGC0HZB1VNEMH4SWP73O3GW1","","719","img/land9.png","76","721","76","1","false","",""
"","html-keyboard-response","118","79073","0.0-171.0","3GU1KF0O4JNFMVO5DGGXOAM2YO8PB3","A207IHY6GERCFO","3LN3BXKGC0HZB1VNEMH4SWP73O3GW1","","null","<img src=""img/land9.png"" style=""width:200px; border:14px solid green;"">","null","","","","","",""
"","image-keyboard-response","119","79682","0.0-173.0","3GU1KF0O4JNFMVO5DGGXOAM2YO8PB3","A207IHY6GERCFO","3LN3BXKGC0HZB1VNEMH4SWP73O3GW1","","606","img/land2.png","75","609","75","0","false","",""
"","html-keyboard-response","120","79986","0.0-174.0","3GU1KF0O4JNFMVO5DGGXOAM2YO8PB3","A207IHY6GERCFO","3LN3BXKGC0HZB1VNEMH4SWP73O3GW1","","null","<img src=""img/land2.png"" style=""width:200px;border:14px solid red;"">","null","","","","","",""
"","image-keyboard-response","121","80322","0.0-176.0","3GU1KF0O4JNFMVO5DGGXOAM2YO8PB3","A207IHY6GERCFO","3LN3BXKGC0HZB1VNEMH4SWP73O3GW1","","335","img/land2.png","75","336","75","1","false","",""
"","html-keyboard-response","122","80626","0.0-177.0","3GU1KF0O4JNFMVO5DGGXOAM2YO8PB3","A207IHY6GERCFO","3LN3BXKGC0HZB1VNEMH4SWP73O3GW1","","null","<img src=""img/land2.png"" style=""width:200px; border:14px solid green;"">","null","","","","","",""
"","image-keyboard-response","123","81178","0.0-179.0","3GU1KF0O4JNFMVO5DGGXOAM2YO8PB3","A207IHY6GERCFO","3LN3BXKGC0HZB1VNEMH4SWP73O3GW1","","549","img/land5.png","74","551","74","0","false","",""
"","html-keyboard-response","124","81482","0.0-180.0","3GU1KF0O4JNFMVO5DGGXOAM2YO8PB3","A207IHY6GERCFO","3LN3BXKGC0HZB1VNEMH4SWP73O3GW1","","null","<img src=""img/land5.png"" style=""width:200px;border:14px solid red;"">","null","","","","","",""
"","image-keyboard-response","125","82042","0.0-182.0","3GU1KF0O4JNFMVO5DGGXOAM2YO8PB3","A207IHY6GERCFO","3LN3BXKGC0HZB1VNEMH4SWP73O3GW1","","558","img/land2.png","75","560","75","1","false","",""
"","html-keyboard-response","126","82345","0.0-183.0","3GU1KF0O4JNFMVO5DGGXOAM2YO8PB3","A207IHY6GERCFO","3LN3BXKGC0HZB1VNEMH4SWP73O3GW1","","null","<img src=""img/land2.png"" style=""width:200px; border:14px solid green;"">","null","","","","","",""
"","image-keyboard-response","127","82915","0.0-185.0","3GU1KF0O4JNFMVO5DGGXOAM2YO8PB3","A207IHY6GERCFO","3LN3BXKGC0HZB1VNEMH4SWP73O3GW1","","567","img/land9.png","76","569","76","1","false","",""
"","html-keyboard-response","128","83218","0.0-186.0","3GU1KF0O4JNFMVO5DGGXOAM2YO8PB3","A207IHY6GERCFO","3LN3BXKGC0HZB1VNEMH4SWP73O3GW1","","null","<img src=""img/land9.png"" style=""width:200px; border:14px solid green;"">","null","","","","","",""
"","image-keyboard-response","129","83882","0.0-188.0","3GU1KF0O4JNFMVO5DGGXOAM2YO8PB3","A207IHY6GERCFO","3LN3BXKGC0HZB1VNEMH4SWP73O3GW1","","663","img/land5.png","74","664","74","1","false","",""
"","html-keyboard-response","130","84185","0.0-189.0","3GU1KF0O4JNFMVO5DGGXOAM2YO8PB3","A207IHY6GERCFO","3LN3BXKGC0HZB1VNEMH4SWP73O3GW1","","null","<img src=""img/land5.png"" style=""width:200px; border:14px solid green;"">","null","","","","","",""
"","image-keyboard-response","131","84578","0.0-191.0","3GU1KF0O4JNFMVO5DGGXOAM2YO8PB3","A207IHY6GERCFO","3LN3BXKGC0HZB1VNEMH4SWP73O3GW1","","390","img/land5.png","74","393","74","1","false","",""
"","html-keyboard-response","132","84882","0.0-192.0","3GU1KF0O4JNFMVO5DGGXOAM2YO8PB3","A207IHY6GERCFO","3LN3BXKGC0HZB1VNEMH4SWP73O3GW1","","null","<img src=""img/land5.png"" style=""width:200px; border:14px solid green;"">","null","","","","","",""
"","image-keyboard-response","133","85442","0.0-194.0","3GU1KF0O4JNFMVO5DGGXOAM2YO8PB3","A207IHY6GERCFO","3LN3BXKGC0HZB1VNEMH4SWP73O3GW1","","559","img/land9.png","75","560","75","0","false","",""
"","html-keyboard-response","134","85746","0.0-195.0","3GU1KF0O4JNFMVO5DGGXOAM2YO8PB3","A207IHY6GERCFO","3LN3BXKGC0HZB1VNEMH4SWP73O3GW1","","null","<img src=""img/land9.png"" style=""width:200px;border:14px solid red;"">","null","","","","","",""
"","image-keyboard-response","135","86570","0.0-197.0","3GU1KF0O4JNFMVO5DGGXOAM2YO8PB3","A207IHY6GERCFO","3LN3BXKGC0HZB1VNEMH4SWP73O3GW1","","821","img/land5.png","74","823","74","1","false","",""
"","html-keyboard-response","136","86883","0.0-198.0","3GU1KF0O4JNFMVO5DGGXOAM2YO8PB3","A207IHY6GERCFO","3LN3BXKGC0HZB1VNEMH4SWP73O3GW1","","null","<img src=""img/land5.png"" style=""width:200px; border:14px solid green;"">","null","","","","","",""
"","image-keyboard-response","137","87266","0.0-200.0","3GU1KF0O4JNFMVO5DGGXOAM2YO8PB3","A207IHY6GERCFO","3LN3BXKGC0HZB1VNEMH4SWP73O3GW1","","382","img/land5.png","74","383","74","1","false","",""
"","html-keyboard-response","138","87570","0.0-201.0","3GU1KF0O4JNFMVO5DGGXOAM2YO8PB3","A207IHY6GERCFO","3LN3BXKGC0HZB1VNEMH4SWP73O3GW1","","null","<img src=""img/land5.png"" style=""width:200px; border:14px solid green;"">","null","","","","","",""
"","image-keyboard-response","139","88209","0.0-203.0","3GU1KF0O4JNFMVO5DGGXOAM2YO8PB3","A207IHY6GERCFO","3LN3BXKGC0HZB1VNEMH4SWP73O3GW1","","637","img/land9.png","76","639","76","1","false","",""
"","html-keyboard-response","140","88512","0.0-204.0","3GU1KF0O4JNFMVO5DGGXOAM2YO8PB3","A207IHY6GERCFO","3LN3BXKGC0HZB1VNEMH4SWP73O3GW1","","null","<img src=""img/land9.png"" style=""width:200px; border:14px solid green;"">","null","","","","","",""
"","image-keyboard-response","141","89083","0.0-206.0","3GU1KF0O4JNFMVO5DGGXOAM2YO8PB3","A207IHY6GERCFO","3LN3BXKGC0HZB1VNEMH4SWP73O3GW1","","568","img/land5.png","74","571","74","1","false","",""
"","html-keyboard-response","142","89386","0.0-207.0","3GU1KF0O4JNFMVO5DGGXOAM2YO8PB3","A207IHY6GERCFO","3LN3BXKGC0HZB1VNEMH4SWP73O3GW1","","null","<img src=""img/land5.png"" style=""width:200px; border:14px solid green;"">","null","","","","","",""
"","image-keyboard-response","143","90178","0.0-209.0","3GU1KF0O4JNFMVO5DGGXOAM2YO8PB3","A207IHY6GERCFO","3LN3BXKGC0HZB1VNEMH4SWP73O3GW1","","789","img/land9.png","76","791","76","1","false","",""
"","html-keyboard-response","144","90482","0.0-210.0","3GU1KF0O4JNFMVO5DGGXOAM2YO8PB3","A207IHY6GERCFO","3LN3BXKGC0HZB1VNEMH4SWP73O3GW1","","null","<img src=""img/land9.png"" style=""width:200px; border:14px solid green;"">","null","","","","","",""
"","image-keyboard-response","145","90994","0.0-212.0","3GU1KF0O4JNFMVO5DGGXOAM2YO8PB3","A207IHY6GERCFO","3LN3BXKGC0HZB1VNEMH4SWP73O3GW1","","510","img/land5.png","74","513","74","0","false","",""
"","html-keyboard-response","146","91299","0.0-213.0","3GU1KF0O4JNFMVO5DGGXOAM2YO8PB3","A207IHY6GERCFO","3LN3BXKGC0HZB1VNEMH4SWP73O3GW1","","null","<img src=""img/land5.png"" style=""width:200px;border:14px solid red;"">","null","","","","","",""
"","image-keyboard-response","147","91642","0.0-215.0","3GU1KF0O4JNFMVO5DGGXOAM2YO8PB3","A207IHY6GERCFO","3LN3BXKGC0HZB1VNEMH4SWP73O3GW1","","340","img/land5.png","74","343","74","1","false","",""
"","html-keyboard-response","148","91946","0.0-216.0","3GU1KF0O4JNFMVO5DGGXOAM2YO8PB3","A207IHY6GERCFO","3LN3BXKGC0HZB1VNEMH4SWP73O3GW1","","null","<img src=""img/land5.png"" style=""width:200px; border:14px solid green;"">","null","","","","","",""
"","image-keyboard-response","149","92538","0.0-218.0","3GU1KF0O4JNFMVO5DGGXOAM2YO8PB3","A207IHY6GERCFO","3LN3BXKGC0HZB1VNEMH4SWP73O3GW1","","590","img/land2.png","75","592","75","1","false","",""
"","html-keyboard-response","150","92842","0.0-219.0","3GU1KF0O4JNFMVO5DGGXOAM2YO8PB3","A207IHY6GERCFO","3LN3BXKGC0HZB1VNEMH4SWP73O3GW1","","null","<img src=""img/land2.png"" style=""width:200px; border:14px solid green;"">","null","","","","","",""
"","image-keyboard-response","151","93154","0.0-221.0","3GU1KF0O4JNFMVO5DGGXOAM2YO8PB3","A207IHY6GERCFO","3LN3BXKGC0HZB1VNEMH4SWP73O3GW1","","310","img/land2.png","75","311","75","1","false","",""
"","html-keyboard-response","152","93457","0.0-222.0","3GU1KF0O4JNFMVO5DGGXOAM2YO8PB3","A207IHY6GERCFO","3LN3BXKGC0HZB1VNEMH4SWP73O3GW1","","null","<img src=""img/land2.png"" style=""width:200px; border:14px solid green;"">","null","","","","","",""
"","image-keyboard-response","153","93794","0.0-224.0","3GU1KF0O4JNFMVO5DGGXOAM2YO8PB3","A207IHY6GERCFO","3LN3BXKGC0HZB1VNEMH4SWP73O3GW1","","334","img/land2.png","75","337","75","1","false","",""
"","html-keyboard-response","154","94098","0.0-225.0","3GU1KF0O4JNFMVO5DGGXOAM2YO8PB3","A207IHY6GERCFO","3LN3BXKGC0HZB1VNEMH4SWP73O3GW1","","null","<img src=""img/land2.png"" style=""width:200px; border:14px solid green;"">","null","","","","","",""
"","image-keyboard-response","155","94634","0.0-227.0","3GU1KF0O4JNFMVO5DGGXOAM2YO8PB3","A207IHY6GERCFO","3LN3BXKGC0HZB1VNEMH4SWP73O3GW1","","534","img/land9.png","76","536","76","1","false","",""
"","html-keyboard-response","156","94938","0.0-228.0","3GU1KF0O4JNFMVO5DGGXOAM2YO8PB3","A207IHY6GERCFO","3LN3BXKGC0HZB1VNEMH4SWP73O3GW1","","null","<img src=""img/land9.png"" style=""width:200px; border:14px solid green;"">","null","","","","","",""
"","image-keyboard-response","157","95274","0.0-230.0","3GU1KF0O4JNFMVO5DGGXOAM2YO8PB3","A207IHY6GERCFO","3LN3BXKGC0HZB1VNEMH4SWP73O3GW1","","334","img/land9.png","76","336","76","1","false","",""
"","html-keyboard-response","158","95577","0.0-231.0","3GU1KF0O4JNFMVO5DGGXOAM2YO8PB3","A207IHY6GERCFO","3LN3BXKGC0HZB1VNEMH4SWP73O3GW1","","null","<img src=""img/land9.png"" style=""width:200px; border:14px solid green;"">","null","","","","","",""
"","image-keyboard-response","159","96218","0.0-233.0","3GU1KF0O4JNFMVO5DGGXOAM2YO8PB3","A207IHY6GERCFO","3LN3BXKGC0HZB1VNEMH4SWP73O3GW1","","639","img/land2.png","75","641","75","1","false","",""
"","html-keyboard-response","160","96521","0.0-234.0","3GU1KF0O4JNFMVO5DGGXOAM2YO8PB3","A207IHY6GERCFO","3LN3BXKGC0HZB1VNEMH4SWP73O3GW1","","null","<img src=""img/land2.png"" style=""width:200px; border:14px solid green;"">","null","","","","","",""
"","image-keyboard-response","161","97067","0.0-236.0","3GU1KF0O4JNFMVO5DGGXOAM2YO8PB3","A207IHY6GERCFO","3LN3BXKGC0HZB1VNEMH4SWP73O3GW1","","543","img/land5.png","74","545","74","1","false","",""
"","html-keyboard-response","162","97370","0.0-237.0","3GU1KF0O4JNFMVO5DGGXOAM2YO8PB3","A207IHY6GERCFO","3LN3BXKGC0HZB1VNEMH4SWP73O3GW1","","null","<img src=""img/land5.png"" style=""width:200px; border:14px solid green;"">","null","","","","","",""
"","image-keyboard-response","163","97722","0.0-239.0","3GU1KF0O4JNFMVO5DGGXOAM2YO8PB3","A207IHY6GERCFO","3LN3BXKGC0HZB1VNEMH4SWP73O3GW1","","350","img/land5.png","74","353","74","0","false","",""
"","html-keyboard-response","164","98026","0.0-240.0","3GU1KF0O4JNFMVO5DGGXOAM2YO8PB3","A207IHY6GERCFO","3LN3BXKGC0HZB1VNEMH4SWP73O3GW1","","null","<img src=""img/land5.png"" style=""width:200px;border:14px solid red;"">","null","","","","","",""
"","image-keyboard-response","165","98377","0.0-242.0","3GU1KF0O4JNFMVO5DGGXOAM2YO8PB3","A207IHY6GERCFO","3LN3BXKGC0HZB1VNEMH4SWP73O3GW1","","348","img/land5.png","74","350","74","0","false","",""
"","html-keyboard-response","166","98681","0.0-243.0","3GU1KF0O4JNFMVO5DGGXOAM2YO8PB3","A207IHY6GERCFO","3LN3BXKGC0HZB1VNEMH4SWP73O3GW1","","null","<img src=""img/land5.png"" style=""width:200px;border:14px solid red;"">","null","","","","","",""
"","image-keyboard-response","167","99323","0.0-245.0","3GU1KF0O4JNFMVO5DGGXOAM2YO8PB3","A207IHY6GERCFO","3LN3BXKGC0HZB1VNEMH4SWP73O3GW1","","639","img/land9.png","76","643","76","1","false","",""
"","html-keyboard-response","168","99627","0.0-246.0","3GU1KF0O4JNFMVO5DGGXOAM2YO8PB3","A207IHY6GERCFO","3LN3BXKGC0HZB1VNEMH4SWP73O3GW1","","null","<img src=""img/land9.png"" style=""width:200px; border:14px solid green;"">","null","","","","","",""
"","image-keyboard-response","169","100290","0.0-248.0","3GU1KF0O4JNFMVO5DGGXOAM2YO8PB3","A207IHY6GERCFO","3LN3BXKGC0HZB1VNEMH4SWP73O3GW1","","660","img/land2.png","75","663","75","1","false","",""
"","html-keyboard-response","170","100594","0.0-249.0","3GU1KF0O4JNFMVO5DGGXOAM2YO8PB3","A207IHY6GERCFO","3LN3BXKGC0HZB1VNEMH4SWP73O3GW1","","null","<img src=""img/land2.png"" style=""width:200px; border:14px solid green;"">","null","","","","","",""
"","image-keyboard-response","171","101290","0.0-251.0","3GU1KF0O4JNFMVO5DGGXOAM2YO8PB3","A207IHY6GERCFO","3LN3BXKGC0HZB1VNEMH4SWP73O3GW1","","694","img/land5.png","74","695","74","0","false","",""
"","html-keyboard-response","172","101594","0.0-252.0","3GU1KF0O4JNFMVO5DGGXOAM2YO8PB3","A207IHY6GERCFO","3LN3BXKGC0HZB1VNEMH4SWP73O3GW1","","null","<img src=""img/land5.png"" style=""width:200px;border:14px solid red;"">","null","","","","","",""
"","image-keyboard-response","173","101922","0.0-254.0","3GU1KF0O4JNFMVO5DGGXOAM2YO8PB3","A207IHY6GERCFO","3LN3BXKGC0HZB1VNEMH4SWP73O3GW1","","326","img/land5.png","74","328","74","1","false","",""
"","html-keyboard-response","174","102227","0.0-255.0","3GU1KF0O4JNFMVO5DGGXOAM2YO8PB3","A207IHY6GERCFO","3LN3BXKGC0HZB1VNEMH4SWP73O3GW1","","null","<img src=""img/land5.png"" style=""width:200px; border:14px solid green;"">","null","","","","","",""
"","image-keyboard-response","175","102826","0.0-257.0","3GU1KF0O4JNFMVO5DGGXOAM2YO8PB3","A207IHY6GERCFO","3LN3BXKGC0HZB1VNEMH4SWP73O3GW1","","597","img/land9.png","76","599","76","1","false","",""
"","html-keyboard-response","176","103129","0.0-258.0","3GU1KF0O4JNFMVO5DGGXOAM2YO8PB3","A207IHY6GERCFO","3LN3BXKGC0HZB1VNEMH4SWP73O3GW1","","null","<img src=""img/land9.png"" style=""width:200px; border:14px solid green;"">","null","","","","","",""
"","image-keyboard-response","177","103802","0.0-260.0","3GU1KF0O4JNFMVO5DGGXOAM2YO8PB3","A207IHY6GERCFO","3LN3BXKGC0HZB1VNEMH4SWP73O3GW1","","670","img/land2.png","75","673","75","1","false","",""
"","html-keyboard-response","178","104106","0.0-261.0","3GU1KF0O4JNFMVO5DGGXOAM2YO8PB3","A207IHY6GERCFO","3LN3BXKGC0HZB1VNEMH4SWP73O3GW1","","null","<img src=""img/land2.png"" style=""width:200px; border:14px solid green;"">","null","","","","","",""
"","image-keyboard-response","179","104834","0.0-263.0","3GU1KF0O4JNFMVO5DGGXOAM2YO8PB3","A207IHY6GERCFO","3LN3BXKGC0HZB1VNEMH4SWP73O3GW1","","725","img/land9.png","76","728","76","1","false","",""
"","html-keyboard-response","180","105137","0.0-264.0","3GU1KF0O4JNFMVO5DGGXOAM2YO8PB3","A207IHY6GERCFO","3LN3BXKGC0HZB1VNEMH4SWP73O3GW1","","null","<img src=""img/land9.png"" style=""width:200px; border:14px solid green;"">","null","","","","","",""
"","image-keyboard-response","181","105721","0.0-266.0","3GU1KF0O4JNFMVO5DGGXOAM2YO8PB3","A207IHY6GERCFO","3LN3BXKGC0HZB1VNEMH4SWP73O3GW1","","580","img/land2.png","75","583","75","1","false","",""
"","html-keyboard-response","182","106023","0.0-267.0","3GU1KF0O4JNFMVO5DGGXOAM2YO8PB3","A207IHY6GERCFO","3LN3BXKGC0HZB1VNEMH4SWP73O3GW1","","null","<img src=""img/land2.png"" style=""width:200px; border:14px solid green;"">","null","","","","","",""
"","image-keyboard-response","183","106377","0.0-269.0","3GU1KF0O4JNFMVO5DGGXOAM2YO8PB3","A207IHY6GERCFO","3LN3BXKGC0HZB1VNEMH4SWP73O3GW1","","352","img/land2.png","75","353","75","1","false","",""
"","html-keyboard-response","184","106680","0.0-270.0","3GU1KF0O4JNFMVO5DGGXOAM2YO8PB3","A207IHY6GERCFO","3LN3BXKGC0HZB1VNEMH4SWP73O3GW1","","null","<img src=""img/land2.png"" style=""width:200px; border:14px solid green;"">","null","","","","","",""
"","html-keyboard-response","185","109408","0.0-272.0","3GU1KF0O4JNFMVO5DGGXOAM2YO8PB3","A207IHY6GERCFO","3LN3BXKGC0HZB1VNEMH4SWP73O3GW1","","","","","","","","","",""
"","image-keyboard-response","186","110162","0.0-273.0","3GU1KF0O4JNFMVO5DGGXOAM2YO8PB3","A207IHY6GERCFO","3LN3BXKGC0HZB1VNEMH4SWP73O3GW1","","752","img/land6.png","74","754","74","0","false","",""
"","html-keyboard-response","187","110465","0.0-274.0","3GU1KF0O4JNFMVO5DGGXOAM2YO8PB3","A207IHY6GERCFO","3LN3BXKGC0HZB1VNEMH4SWP73O3GW1","","null","<img src=""img/land6.png"" style=""width:200px;border:14px solid red;"">","null","","","","","",""
"","image-keyboard-response","188","110962","0.0-276.0","3GU1KF0O4JNFMVO5DGGXOAM2YO8PB3","A207IHY6GERCFO","3LN3BXKGC0HZB1VNEMH4SWP73O3GW1","","494","img/land6.png","75","496","75","0","false","",""
"","html-keyboard-response","189","111266","0.0-277.0","3GU1KF0O4JNFMVO5DGGXOAM2YO8PB3","A207IHY6GERCFO","3LN3BXKGC0HZB1VNEMH4SWP73O3GW1","","null","<img src=""img/land6.png"" style=""width:200px;border:14px solid red;"">","null","","","","","",""
"","image-keyboard-response","190","111713","0.0-279.0","3GU1KF0O4JNFMVO5DGGXOAM2YO8PB3","A207IHY6GERCFO","3LN3BXKGC0HZB1VNEMH4SWP73O3GW1","","445","img/land6.png","76","447","76","0","false","",""
"","html-keyboard-response","191","112016","0.0-280.0","3GU1KF0O4JNFMVO5DGGXOAM2YO8PB3","A207IHY6GERCFO","3LN3BXKGC0HZB1VNEMH4SWP73O3GW1","","null","<img src=""img/land6.png"" style=""width:200px;border:14px solid red;"">","null","","","","","",""
"","image-keyboard-response","192","113020","0.0-282.0","3GU1KF0O4JNFMVO5DGGXOAM2YO8PB3","A207IHY6GERCFO","3LN3BXKGC0HZB1VNEMH4SWP73O3GW1","","","img/land8.png","","1003","-1","0","true","",""
"","html-keyboard-response","193","113323","0.0-283.0","3GU1KF0O4JNFMVO5DGGXOAM2YO8PB3","A207IHY6GERCFO","3LN3BXKGC0HZB1VNEMH4SWP73O3GW1","","null","<img src=""img/land8.png"" style=""width:200px;border:14px solid red;"">","null","","","","","",""
"","html-keyboard-response","194","115425","0.0-284.0-0.0","3GU1KF0O4JNFMVO5DGGXOAM2YO8PB3","A207IHY6GERCFO","3LN3BXKGC0HZB1VNEMH4SWP73O3GW1","","","","","","","","","",""
"","image-keyboard-response","195","115930","0.0-285.0","3GU1KF0O4JNFMVO5DGGXOAM2YO8PB3","A207IHY6GERCFO","3LN3BXKGC0HZB1VNEMH4SWP73O3GW1","","504","img/land8.png","74","505","74","1","false","",""
"","html-keyboard-response","196","116233","0.0-286.0","3GU1KF0O4JNFMVO5DGGXOAM2YO8PB3","A207IHY6GERCFO","3LN3BXKGC0HZB1VNEMH4SWP73O3GW1","","null","<img src=""img/land8.png"" style=""width:200px; border:14px solid green;"">","null","","","","","",""
"","image-keyboard-response","197","116562","0.0-288.0","3GU1KF0O4JNFMVO5DGGXOAM2YO8PB3","A207IHY6GERCFO","3LN3BXKGC0HZB1VNEMH4SWP73O3GW1","","326","img/land8.png","74","328","74","0","false","",""
"","html-keyboard-response","198","116866","0.0-289.0","3GU1KF0O4JNFMVO5DGGXOAM2YO8PB3","A207IHY6GERCFO","3LN3BXKGC0HZB1VNEMH4SWP73O3GW1","","null","<img src=""img/land8.png"" style=""width:200px;border:14px solid red;"">","null","","","","","",""
"","image-keyboard-response","199","117674","0.0-291.0","3GU1KF0O4JNFMVO5DGGXOAM2YO8PB3","A207IHY6GERCFO","3LN3BXKGC0HZB1VNEMH4SWP73O3GW1","","805","img/land7.png","75","807","75","0","false","",""
"","html-keyboard-response","200","117977","0.0-292.0","3GU1KF0O4JNFMVO5DGGXOAM2YO8PB3","A207IHY6GERCFO","3LN3BXKGC0HZB1VNEMH4SWP73O3GW1","","null","<img src=""img/land7.png"" style=""width:200px;border:14px solid red;"">","null","","","","","",""
"","image-keyboard-response","201","118506","0.0-294.0","3GU1KF0O4JNFMVO5DGGXOAM2YO8PB3","A207IHY6GERCFO","3LN3BXKGC0HZB1VNEMH4SWP73O3GW1","","525","img/land7.png","76","528","76","1","false","",""
"","html-keyboard-response","202","118809","0.0-295.0","3GU1KF0O4JNFMVO5DGGXOAM2YO8PB3","A207IHY6GERCFO","3LN3BXKGC0HZB1VNEMH4SWP73O3GW1","","null","<img src=""img/land7.png"" style=""width:200px; border:14px solid green;"">","null","","","","","",""
"","image-keyboard-response","203","119482","0.0-297.0","3GU1KF0O4JNFMVO5DGGXOAM2YO8PB3","A207IHY6GERCFO","3LN3BXKGC0HZB1VNEMH4SWP73O3GW1","","670","img/land6.png","75","673","75","1","false","",""
"","html-keyboard-response","204","119786","0.0-298.0","3GU1KF0O4JNFMVO5DGGXOAM2YO8PB3","A207IHY6GERCFO","3LN3BXKGC0HZB1VNEMH4SWP73O3GW1","","null","<img src=""img/land6.png"" style=""width:200px; border:14px solid green;"">","null","","","","","",""
"","image-keyboard-response","205","120098","0.0-300.0","3GU1KF0O4JNFMVO5DGGXOAM2YO8PB3","A207IHY6GERCFO","3LN3BXKGC0HZB1VNEMH4SWP73O3GW1","","309","img/land6.png","75","312","75","0","false","",""
"","html-keyboard-response","206","120402","0.0-301.0","3GU1KF0O4JNFMVO5DGGXOAM2YO8PB3","A207IHY6GERCFO","3LN3BXKGC0HZB1VNEMH4SWP73O3GW1","","null","<img src=""img/land6.png"" style=""width:200px;border:14px solid red;"">","null","","","","","",""
"","image-keyboard-response","207","121082","0.0-303.0","3GU1KF0O4JNFMVO5DGGXOAM2YO8PB3","A207IHY6GERCFO","3LN3BXKGC0HZB1VNEMH4SWP73O3GW1","","677","img/land7.png","76","679","76","1","false","",""
"","html-keyboard-response","208","121386","0.0-304.0","3GU1KF0O4JNFMVO5DGGXOAM2YO8PB3","A207IHY6GERCFO","3LN3BXKGC0HZB1VNEMH4SWP73O3GW1","","null","<img src=""img/land7.png"" style=""width:200px; border:14px solid green;"">","null","","","","","",""
"","image-keyboard-response","209","122018","0.0-306.0","3GU1KF0O4JNFMVO5DGGXOAM2YO8PB3","A207IHY6GERCFO","3LN3BXKGC0HZB1VNEMH4SWP73O3GW1","","629","img/land6.png","75","631","75","0","false","",""
"","html-keyboard-response","210","122321","0.0-307.0","3GU1KF0O4JNFMVO5DGGXOAM2YO8PB3","A207IHY6GERCFO","3LN3BXKGC0HZB1VNEMH4SWP73O3GW1","","null","<img src=""img/land6.png"" style=""width:200px;border:14px solid red;"">","null","","","","","",""
"","image-keyboard-response","211","123018","0.0-309.0","3GU1KF0O4JNFMVO5DGGXOAM2YO8PB3","A207IHY6GERCFO","3LN3BXKGC0HZB1VNEMH4SWP73O3GW1","","693","img/land8.png","74","696","74","0","false","",""
"","html-keyboard-response","212","123322","0.0-310.0","3GU1KF0O4JNFMVO5DGGXOAM2YO8PB3","A207IHY6GERCFO","3LN3BXKGC0HZB1VNEMH4SWP73O3GW1","","null","<img src=""img/land8.png"" style=""width:200px;border:14px solid red;"">","null","","","","","",""
"","image-keyboard-response","213","123842","0.0-312.0","3GU1KF0O4JNFMVO5DGGXOAM2YO8PB3","A207IHY6GERCFO","3LN3BXKGC0HZB1VNEMH4SWP73O3GW1","","517","img/land6.png","75","520","75","1","false","",""
"","html-keyboard-response","214","124145","0.0-313.0","3GU1KF0O4JNFMVO5DGGXOAM2YO8PB3","A207IHY6GERCFO","3LN3BXKGC0HZB1VNEMH4SWP73O3GW1","","null","<img src=""img/land6.png"" style=""width:200px; border:14px solid green;"">","null","","","","","",""
"","image-keyboard-response","215","124474","0.0-315.0","3GU1KF0O4JNFMVO5DGGXOAM2YO8PB3","A207IHY6GERCFO","3LN3BXKGC0HZB1VNEMH4SWP73O3GW1","","326","img/land6.png","75","329","75","0","false","",""
"","html-keyboard-response","216","124778","0.0-316.0","3GU1KF0O4JNFMVO5DGGXOAM2YO8PB3","A207IHY6GERCFO","3LN3BXKGC0HZB1VNEMH4SWP73O3GW1","","null","<img src=""img/land6.png"" style=""width:200px;border:14px solid red;"">","null","","","","","",""
"","image-keyboard-response","217","125313","0.0-318.0","3GU1KF0O4JNFMVO5DGGXOAM2YO8PB3","A207IHY6GERCFO","3LN3BXKGC0HZB1VNEMH4SWP73O3GW1","","532","img/land7.png","76","535","76","0","false","",""
"","html-keyboard-response","218","125618","0.0-319.0","3GU1KF0O4JNFMVO5DGGXOAM2YO8PB3","A207IHY6GERCFO","3LN3BXKGC0HZB1VNEMH4SWP73O3GW1","","null","<img src=""img/land7.png"" style=""width:200px;border:14px solid red;"">","null","","","","","",""
"","image-keyboard-response","219","125962","0.0-321.0","3GU1KF0O4JNFMVO5DGGXOAM2YO8PB3","A207IHY6GERCFO","3LN3BXKGC0HZB1VNEMH4SWP73O3GW1","","341","img/land7.png","76","343","76","0","false","",""
"","html-keyboard-response","220","126277","0.0-322.0","3GU1KF0O4JNFMVO5DGGXOAM2YO8PB3","A207IHY6GERCFO","3LN3BXKGC0HZB1VNEMH4SWP73O3GW1","","null","<img src=""img/land7.png"" style=""width:200px;border:14px solid red;"">","null","","","","","",""
"","image-keyboard-response","221","126642","0.0-324.0","3GU1KF0O4JNFMVO5DGGXOAM2YO8PB3","A207IHY6GERCFO","3LN3BXKGC0HZB1VNEMH4SWP73O3GW1","","362","img/land7.png","76","364","76","1","false","",""
"","html-keyboard-response","222","126946","0.0-325.0","3GU1KF0O4JNFMVO5DGGXOAM2YO8PB3","A207IHY6GERCFO","3LN3BXKGC0HZB1VNEMH4SWP73O3GW1","","null","<img src=""img/land7.png"" style=""width:200px; border:14px solid green;"">","null","","","","","",""
"","image-keyboard-response","223","127714","0.0-327.0","3GU1KF0O4JNFMVO5DGGXOAM2YO8PB3","A207IHY6GERCFO","3LN3BXKGC0HZB1VNEMH4SWP73O3GW1","","765","img/land8.png","74","767","74","0","false","",""
"","html-keyboard-response","224","128017","0.0-328.0","3GU1KF0O4JNFMVO5DGGXOAM2YO8PB3","A207IHY6GERCFO","3LN3BXKGC0HZB1VNEMH4SWP73O3GW1","","null","<img src=""img/land8.png"" style=""width:200px;border:14px solid red;"">","null","","","","","",""
"","image-keyboard-response","225","128522","0.0-330.0","3GU1KF0O4JNFMVO5DGGXOAM2YO8PB3","A207IHY6GERCFO","3LN3BXKGC0HZB1VNEMH4SWP73O3GW1","","502","img/land8.png","74","504","74","0","false","",""
"","html-keyboard-response","226","128826","0.0-331.0","3GU1KF0O4JNFMVO5DGGXOAM2YO8PB3","A207IHY6GERCFO","3LN3BXKGC0HZB1VNEMH4SWP73O3GW1","","null","<img src=""img/land8.png"" style=""width:200px;border:14px solid red;"">","null","","","","","",""
"","image-keyboard-response","227","129426","0.0-333.0","3GU1KF0O4JNFMVO5DGGXOAM2YO8PB3","A207IHY6GERCFO","3LN3BXKGC0HZB1VNEMH4SWP73O3GW1","","597","img/land6.png","75","599","75","0","false","",""
"","html-keyboard-response","228","129730","0.0-334.0","3GU1KF0O4JNFMVO5DGGXOAM2YO8PB3","A207IHY6GERCFO","3LN3BXKGC0HZB1VNEMH4SWP73O3GW1","","null","<img src=""img/land6.png"" style=""width:200px;border:14px solid red;"">","null","","","","","",""
"","image-keyboard-response","229","130362","0.0-336.0","3GU1KF0O4JNFMVO5DGGXOAM2YO8PB3","A207IHY6GERCFO","3LN3BXKGC0HZB1VNEMH4SWP73O3GW1","","629","img/land7.png","75","630","75","0","false","",""
"","html-keyboard-response","230","130666","0.0-337.0","3GU1KF0O4JNFMVO5DGGXOAM2YO8PB3","A207IHY6GERCFO","3LN3BXKGC0HZB1VNEMH4SWP73O3GW1","","null","<img src=""img/land7.png"" style=""width:200px;border:14px solid red;"">","null","","","","","",""
"","image-keyboard-response","231","131066","0.0-339.0","3GU1KF0O4JNFMVO5DGGXOAM2YO8PB3","A207IHY6GERCFO","3LN3BXKGC0HZB1VNEMH4SWP73O3GW1","","398","img/land7.png","76","399","76","0","false","",""
"","html-keyboard-response","232","131370","0.0-340.0","3GU1KF0O4JNFMVO5DGGXOAM2YO8PB3","A207IHY6GERCFO","3LN3BXKGC0HZB1VNEMH4SWP73O3GW1","","null","<img src=""img/land7.png"" style=""width:200px;border:14px solid red;"">","null","","","","","",""
"","image-keyboard-response","233","131706","0.0-342.0","3GU1KF0O4JNFMVO5DGGXOAM2YO8PB3","A207IHY6GERCFO","3LN3BXKGC0HZB1VNEMH4SWP73O3GW1","","334","img/land7.png","76","336","76","1","false","",""
"","html-keyboard-response","234","132009","0.0-343.0","3GU1KF0O4JNFMVO5DGGXOAM2YO8PB3","A207IHY6GERCFO","3LN3BXKGC0HZB1VNEMH4SWP73O3GW1","","null","<img src=""img/land7.png"" style=""width:200px; border:14px solid green;"">","null","","","","","",""
"","image-keyboard-response","235","132697","0.0-345.0","3GU1KF0O4JNFMVO5DGGXOAM2YO8PB3","A207IHY6GERCFO","3LN3BXKGC0HZB1VNEMH4SWP73O3GW1","","686","img/land6.png","75","688","75","1","false","",""
"","html-keyboard-response","236","133000","0.0-346.0","3GU1KF0O4JNFMVO5DGGXOAM2YO8PB3","A207IHY6GERCFO","3LN3BXKGC0HZB1VNEMH4SWP73O3GW1","","null","<img src=""img/land6.png"" style=""width:200px; border:14px solid green;"">","null","","","","","",""
"","image-keyboard-response","237","133618","0.0-348.0","3GU1KF0O4JNFMVO5DGGXOAM2YO8PB3","A207IHY6GERCFO","3LN3BXKGC0HZB1VNEMH4SWP73O3GW1","","615","img/land7.png","76","619","76","1","false","",""
"","html-keyboard-response","238","133922","0.0-349.0","3GU1KF0O4JNFMVO5DGGXOAM2YO8PB3","A207IHY6GERCFO","3LN3BXKGC0HZB1VNEMH4SWP73O3GW1","","null","<img src=""img/land7.png"" style=""width:200px; border:14px solid green;"">","null","","","","","",""
"","image-keyboard-response","239","134570","0.0-351.0","3GU1KF0O4JNFMVO5DGGXOAM2YO8PB3","A207IHY6GERCFO","3LN3BXKGC0HZB1VNEMH4SWP73O3GW1","","645","img/land8.png","74","647","74","0","false","",""
"","html-keyboard-response","240","134873","0.0-352.0","3GU1KF0O4JNFMVO5DGGXOAM2YO8PB3","A207IHY6GERCFO","3LN3BXKGC0HZB1VNEMH4SWP73O3GW1","","null","<img src=""img/land8.png"" style=""width:200px;border:14px solid red;"">","null","","","","","",""
"","image-keyboard-response","241","135482","0.0-354.0","3GU1KF0O4JNFMVO5DGGXOAM2YO8PB3","A207IHY6GERCFO","3LN3BXKGC0HZB1VNEMH4SWP73O3GW1","","606","img/land6.png","75","607","75","1","false","",""
"","html-keyboard-response","242","135785","0.0-355.0","3GU1KF0O4JNFMVO5DGGXOAM2YO8PB3","A207IHY6GERCFO","3LN3BXKGC0HZB1VNEMH4SWP73O3GW1","","null","<img src=""img/land6.png"" style=""width:200px; border:14px solid green;"">","null","","","","","",""
"","image-keyboard-response","243","136274","0.0-357.0","3GU1KF0O4JNFMVO5DGGXOAM2YO8PB3","A207IHY6GERCFO","3LN3BXKGC0HZB1VNEMH4SWP73O3GW1","","486","img/land8.png","76","488","76","0","false","",""
"","html-keyboard-response","244","136577","0.0-358.0","3GU1KF0O4JNFMVO5DGGXOAM2YO8PB3","A207IHY6GERCFO","3LN3BXKGC0HZB1VNEMH4SWP73O3GW1","","null","<img src=""img/land8.png"" style=""width:200px;border:14px solid red;"">","null","","","","","",""
"","image-keyboard-response","245","137114","0.0-360.0","3GU1KF0O4JNFMVO5DGGXOAM2YO8PB3","A207IHY6GERCFO","3LN3BXKGC0HZB1VNEMH4SWP73O3GW1","","535","img/land8.png","74","537","74","0","false","",""
"","html-keyboard-response","246","137417","0.0-361.0","3GU1KF0O4JNFMVO5DGGXOAM2YO8PB3","A207IHY6GERCFO","3LN3BXKGC0HZB1VNEMH4SWP73O3GW1","","null","<img src=""img/land8.png"" style=""width:200px;border:14px solid red;"">","null","","","","","",""
"","image-keyboard-response","247","137786","0.0-363.0","3GU1KF0O4JNFMVO5DGGXOAM2YO8PB3","A207IHY6GERCFO","3LN3BXKGC0HZB1VNEMH4SWP73O3GW1","","366","img/land8.png","76","369","76","0","false","",""
"","html-keyboard-response","248","138090","0.0-364.0","3GU1KF0O4JNFMVO5DGGXOAM2YO8PB3","A207IHY6GERCFO","3LN3BXKGC0HZB1VNEMH4SWP73O3GW1","","null","<img src=""img/land8.png"" style=""width:200px;border:14px solid red;"">","null","","","","","",""
"","image-keyboard-response","249","138634","0.0-366.0","3GU1KF0O4JNFMVO5DGGXOAM2YO8PB3","A207IHY6GERCFO","3LN3BXKGC0HZB1VNEMH4SWP73O3GW1","","541","img/land6.png","75","544","75","1","false","",""
"","html-keyboard-response","250","138937","0.0-367.0","3GU1KF0O4JNFMVO5DGGXOAM2YO8PB3","A207IHY6GERCFO","3LN3BXKGC0HZB1VNEMH4SWP73O3GW1","","null","<img src=""img/land6.png"" style=""width:200px; border:14px solid green;"">","null","","","","","",""
"","image-keyboard-response","251","139266","0.0-369.0","3GU1KF0O4JNFMVO5DGGXOAM2YO8PB3","A207IHY6GERCFO","3LN3BXKGC0HZB1VNEMH4SWP73O3GW1","","326","img/land6.png","75","328","75","0","false","",""
"","html-keyboard-response","252","139571","0.0-370.0","3GU1KF0O4JNFMVO5DGGXOAM2YO8PB3","A207IHY6GERCFO","3LN3BXKGC0HZB1VNEMH4SWP73O3GW1","","null","<img src=""img/land6.png"" style=""width:200px;border:14px solid red;"">","null","","","","","",""
"","image-keyboard-response","253","140002","0.0-372.0","3GU1KF0O4JNFMVO5DGGXOAM2YO8PB3","A207IHY6GERCFO","3LN3BXKGC0HZB1VNEMH4SWP73O3GW1","","428","img/land6.png","75","430","75","1","false","",""
"","html-keyboard-response","254","140306","0.0-373.0","3GU1KF0O4JNFMVO5DGGXOAM2YO8PB3","A207IHY6GERCFO","3LN3BXKGC0HZB1VNEMH4SWP73O3GW1","","null","<img src=""img/land6.png"" style=""width:200px; border:14px solid green;"">","null","","","","","",""
"","image-keyboard-response","255","141123","0.0-375.0","3GU1KF0O4JNFMVO5DGGXOAM2YO8PB3","A207IHY6GERCFO","3LN3BXKGC0HZB1VNEMH4SWP73O3GW1","","814","img/land7.png","74","816","74","1","false","",""
"","html-keyboard-response","256","141426","0.0-376.0","3GU1KF0O4JNFMVO5DGGXOAM2YO8PB3","A207IHY6GERCFO","3LN3BXKGC0HZB1VNEMH4SWP73O3GW1","","null","<img src=""img/land7.png"" style=""width:200px; border:14px solid green;"">","null","","","","","",""
"","image-keyboard-response","257","141752","0.0-378.0","3GU1KF0O4JNFMVO5DGGXOAM2YO8PB3","A207IHY6GERCFO","3LN3BXKGC0HZB1VNEMH4SWP73O3GW1","","321","img/land7.png","74","323","74","1","false","",""
"","html-keyboard-response","258","142056","0.0-379.0","3GU1KF0O4JNFMVO5DGGXOAM2YO8PB3","A207IHY6GERCFO","3LN3BXKGC0HZB1VNEMH4SWP73O3GW1","","null","<img src=""img/land7.png"" style=""width:200px; border:14px solid green;"">","null","","","","","",""
"","image-keyboard-response","259","142802","0.0-381.0","3GU1KF0O4JNFMVO5DGGXOAM2YO8PB3","A207IHY6GERCFO","3LN3BXKGC0HZB1VNEMH4SWP73O3GW1","","743","img/land8.png","76","745","76","0","false","",""
"","html-keyboard-response","260","143104","0.0-382.0","3GU1KF0O4JNFMVO5DGGXOAM2YO8PB3","A207IHY6GERCFO","3LN3BXKGC0HZB1VNEMH4SWP73O3GW1","","null","<img src=""img/land8.png"" style=""width:200px;border:14px solid red;"">","null","","","","","",""
"","image-keyboard-response","261","143858","0.0-384.0","3GU1KF0O4JNFMVO5DGGXOAM2YO8PB3","A207IHY6GERCFO","3LN3BXKGC0HZB1VNEMH4SWP73O3GW1","","751","img/land6.png","75","753","75","1","false","",""
"","html-keyboard-response","262","144162","0.0-385.0","3GU1KF0O4JNFMVO5DGGXOAM2YO8PB3","A207IHY6GERCFO","3LN3BXKGC0HZB1VNEMH4SWP73O3GW1","","null","<img src=""img/land6.png"" style=""width:200px; border:14px solid green;"">","null","","","","","",""
"","image-keyboard-response","263","144576","0.0-387.0","3GU1KF0O4JNFMVO5DGGXOAM2YO8PB3","A207IHY6GERCFO","3LN3BXKGC0HZB1VNEMH4SWP73O3GW1","","412","img/land6.png","75","413","75","1","false","",""
"","html-keyboard-response","264","144879","0.0-388.0","3GU1KF0O4JNFMVO5DGGXOAM2YO8PB3","A207IHY6GERCFO","3LN3BXKGC0HZB1VNEMH4SWP73O3GW1","","null","<img src=""img/land6.png"" style=""width:200px; border:14px solid green;"">","null","","","","","",""
"","image-keyboard-response","265","145186","0.0-390.0","3GU1KF0O4JNFMVO5DGGXOAM2YO8PB3","A207IHY6GERCFO","3LN3BXKGC0HZB1VNEMH4SWP73O3GW1","","304","img/land6.png","75","306","75","0","false","",""
"","html-keyboard-response","266","145489","0.0-391.0","3GU1KF0O4JNFMVO5DGGXOAM2YO8PB3","A207IHY6GERCFO","3LN3BXKGC0HZB1VNEMH4SWP73O3GW1","","null","<img src=""img/land6.png"" style=""width:200px;border:14px solid red;"">","null","","","","","",""
"","image-keyboard-response","267","146138","0.0-393.0","3GU1KF0O4JNFMVO5DGGXOAM2YO8PB3","A207IHY6GERCFO","3LN3BXKGC0HZB1VNEMH4SWP73O3GW1","","647","img/land8.png","76","647","76","0","false","",""
"","html-keyboard-response","268","146441","0.0-394.0","3GU1KF0O4JNFMVO5DGGXOAM2YO8PB3","A207IHY6GERCFO","3LN3BXKGC0HZB1VNEMH4SWP73O3GW1","","null","<img src=""img/land8.png"" style=""width:200px;border:14px solid red;"">","null","","","","","",""
"","image-keyboard-response","269","147074","0.0-396.0","3GU1KF0O4JNFMVO5DGGXOAM2YO8PB3","A207IHY6GERCFO","3LN3BXKGC0HZB1VNEMH4SWP73O3GW1","","631","img/land6.png","75","632","75","0","false","",""
"","html-keyboard-response","270","147376","0.0-397.0","3GU1KF0O4JNFMVO5DGGXOAM2YO8PB3","A207IHY6GERCFO","3LN3BXKGC0HZB1VNEMH4SWP73O3GW1","","null","<img src=""img/land6.png"" style=""width:200px;border:14px solid red;"">","null","","","","","",""
"","image-keyboard-response","271","148040","0.0-399.0","3GU1KF0O4JNFMVO5DGGXOAM2YO8PB3","A207IHY6GERCFO","3LN3BXKGC0HZB1VNEMH4SWP73O3GW1","","663","img/land8.png","76","664","76","0","false","",""
"","html-keyboard-response","272","148342","0.0-400.0","3GU1KF0O4JNFMVO5DGGXOAM2YO8PB3","A207IHY6GERCFO","3LN3BXKGC0HZB1VNEMH4SWP73O3GW1","","null","<img src=""img/land8.png"" style=""width:200px;border:14px solid red;"">","null","","","","","",""
"","image-keyboard-response","273","149282","0.0-402.0","3GU1KF0O4JNFMVO5DGGXOAM2YO8PB3","A207IHY6GERCFO","3LN3BXKGC0HZB1VNEMH4SWP73O3GW1","","938","img/land7.png","74","940","74","1","false","",""
"","html-keyboard-response","274","149585","0.0-403.0","3GU1KF0O4JNFMVO5DGGXOAM2YO8PB3","A207IHY6GERCFO","3LN3BXKGC0HZB1VNEMH4SWP73O3GW1","","null","<img src=""img/land7.png"" style=""width:200px; border:14px solid green;"">","null","","","","","",""
"","image-keyboard-response","275","150337","0.0-405.0","3GU1KF0O4JNFMVO5DGGXOAM2YO8PB3","A207IHY6GERCFO","3LN3BXKGC0HZB1VNEMH4SWP73O3GW1","","750","img/land6.png","76","751","76","1","false","",""
"","html-keyboard-response","276","150639","0.0-406.0","3GU1KF0O4JNFMVO5DGGXOAM2YO8PB3","A207IHY6GERCFO","3LN3BXKGC0HZB1VNEMH4SWP73O3GW1","","null","<img src=""img/land6.png"" style=""width:200px; border:14px solid green;"">","null","","","","","",""
"","image-keyboard-response","277","151644","0.0-408.0","3GU1KF0O4JNFMVO5DGGXOAM2YO8PB3","A207IHY6GERCFO","3LN3BXKGC0HZB1VNEMH4SWP73O3GW1","","","img/land8.png","","1004","-1","0","true","",""
"","html-keyboard-response","278","151947","0.0-409.0","3GU1KF0O4JNFMVO5DGGXOAM2YO8PB3","A207IHY6GERCFO","3LN3BXKGC0HZB1VNEMH4SWP73O3GW1","","null","<img src=""img/land8.png"" style=""width:200px;border:14px solid red;"">","null","","","","","",""
"","html-keyboard-response","279","154264","0.0-410.0-0.0","3GU1KF0O4JNFMVO5DGGXOAM2YO8PB3","A207IHY6GERCFO","3LN3BXKGC0HZB1VNEMH4SWP73O3GW1","","","","","","","","","",""
"","image-keyboard-response","280","154962","0.0-411.0","3GU1KF0O4JNFMVO5DGGXOAM2YO8PB3","A207IHY6GERCFO","3LN3BXKGC0HZB1VNEMH4SWP73O3GW1","","696","img/land8.png","75","697","75","1","false","",""
"","html-keyboard-response","281","155266","0.0-412.0","3GU1KF0O4JNFMVO5DGGXOAM2YO8PB3","A207IHY6GERCFO","3LN3BXKGC0HZB1VNEMH4SWP73O3GW1","","null","<img src=""img/land8.png"" style=""width:200px; border:14px solid green;"">","null","","","","","",""
"","image-keyboard-response","282","155658","0.0-414.0","3GU1KF0O4JNFMVO5DGGXOAM2YO8PB3","A207IHY6GERCFO","3LN3BXKGC0HZB1VNEMH4SWP73O3GW1","","389","img/land8.png","75","391","75","0","false","",""
"","html-keyboard-response","283","155961","0.0-415.0","3GU1KF0O4JNFMVO5DGGXOAM2YO8PB3","A207IHY6GERCFO","3LN3BXKGC0HZB1VNEMH4SWP73O3GW1","","null","<img src=""img/land8.png"" style=""width:200px;border:14px solid red;"">","null","","","","","",""
"","image-keyboard-response","284","156658","0.0-417.0","3GU1KF0O4JNFMVO5DGGXOAM2YO8PB3","A207IHY6GERCFO","3LN3BXKGC0HZB1VNEMH4SWP73O3GW1","","694","img/land7.png","74","697","74","1","false","",""
"","html-keyboard-response","285","156961","0.0-418.0","3GU1KF0O4JNFMVO5DGGXOAM2YO8PB3","A207IHY6GERCFO","3LN3BXKGC0HZB1VNEMH4SWP73O3GW1","","null","<img src=""img/land7.png"" style=""width:200px; border:14px solid green;"">","null","","","","","",""
"","image-keyboard-response","286","157450","0.0-420.0","3GU1KF0O4JNFMVO5DGGXOAM2YO8PB3","A207IHY6GERCFO","3LN3BXKGC0HZB1VNEMH4SWP73O3GW1","","485","img/land8.png","75","488","75","1","false","",""
"","html-keyboard-response","287","157752","0.0-421.0","3GU1KF0O4JNFMVO5DGGXOAM2YO8PB3","A207IHY6GERCFO","3LN3BXKGC0HZB1VNEMH4SWP73O3GW1","","null","<img src=""img/land8.png"" style=""width:200px; border:14px solid green;"">","null","","","","","",""
"","image-keyboard-response","288","158586","0.0-423.0","3GU1KF0O4JNFMVO5DGGXOAM2YO8PB3","A207IHY6GERCFO","3LN3BXKGC0HZB1VNEMH4SWP73O3GW1","","831","img/land7.png","74","833","74","0","false","",""
"","html-keyboard-response","289","158889","0.0-424.0","3GU1KF0O4JNFMVO5DGGXOAM2YO8PB3","A207IHY6GERCFO","3LN3BXKGC0HZB1VNEMH4SWP73O3GW1","","null","<img src=""img/land7.png"" style=""width:200px;border:14px solid red;"">","null","","","","","",""
"","image-keyboard-response","290","159250","0.0-426.0","3GU1KF0O4JNFMVO5DGGXOAM2YO8PB3","A207IHY6GERCFO","3LN3BXKGC0HZB1VNEMH4SWP73O3GW1","","357","img/land7.png","74","359","74","1","false","",""
"","html-keyboard-response","291","159553","0.0-427.0","3GU1KF0O4JNFMVO5DGGXOAM2YO8PB3","A207IHY6GERCFO","3LN3BXKGC0HZB1VNEMH4SWP73O3GW1","","null","<img src=""img/land7.png"" style=""width:200px; border:14px solid green;"">","null","","","","","",""
"","image-keyboard-response","292","159874","0.0-429.0","3GU1KF0O4JNFMVO5DGGXOAM2YO8PB3","A207IHY6GERCFO","3LN3BXKGC0HZB1VNEMH4SWP73O3GW1","","318","img/land7.png","74","320","74","1","false","",""
"","html-keyboard-response","293","160178","0.0-430.0","3GU1KF0O4JNFMVO5DGGXOAM2YO8PB3","A207IHY6GERCFO","3LN3BXKGC0HZB1VNEMH4SWP73O3GW1","","null","<img src=""img/land7.png"" style=""width:200px; border:14px solid green;"">","null","","","","","",""
"","image-keyboard-response","294","160674","0.0-432.0","3GU1KF0O4JNFMVO5DGGXOAM2YO8PB3","A207IHY6GERCFO","3LN3BXKGC0HZB1VNEMH4SWP73O3GW1","","492","img/land6.png","75","496","75","1","false","",""
"","html-keyboard-response","295","160978","0.0-433.0","3GU1KF0O4JNFMVO5DGGXOAM2YO8PB3","A207IHY6GERCFO","3LN3BXKGC0HZB1VNEMH4SWP73O3GW1","","null","<img src=""img/land6.png"" style=""width:200px; border:14px solid green;"">","null","","","","","",""
"","image-keyboard-response","296","161786","0.0-435.0","3GU1KF0O4JNFMVO5DGGXOAM2YO8PB3","A207IHY6GERCFO","3LN3BXKGC0HZB1VNEMH4SWP73O3GW1","","805","img/land8.png","74","807","74","1","false","",""
"","html-keyboard-response","297","162089","0.0-436.0","3GU1KF0O4JNFMVO5DGGXOAM2YO8PB3","A207IHY6GERCFO","3LN3BXKGC0HZB1VNEMH4SWP73O3GW1","","null","<img src=""img/land8.png"" style=""width:200px; border:14px solid green;"">","null","","","","","",""
"","image-keyboard-response","298","162866","0.0-438.0","3GU1KF0O4JNFMVO5DGGXOAM2YO8PB3","A207IHY6GERCFO","3LN3BXKGC0HZB1VNEMH4SWP73O3GW1","","774","img/land8.png","76","777","76","0","false","",""
"","html-keyboard-response","299","163169","0.0-439.0","3GU1KF0O4JNFMVO5DGGXOAM2YO8PB3","A207IHY6GERCFO","3LN3BXKGC0HZB1VNEMH4SWP73O3GW1","","null","<img src=""img/land8.png"" style=""width:200px;border:14px solid red;"">","null","","","","","",""
"","image-keyboard-response","300","163618","0.0-441.0","3GU1KF0O4JNFMVO5DGGXOAM2YO8PB3","A207IHY6GERCFO","3LN3BXKGC0HZB1VNEMH4SWP73O3GW1","","446","img/land8.png","75","447","75","1","false","",""
"","html-keyboard-response","301","163922","0.0-442.0","3GU1KF0O4JNFMVO5DGGXOAM2YO8PB3","A207IHY6GERCFO","3LN3BXKGC0HZB1VNEMH4SWP73O3GW1","","null","<img src=""img/land8.png"" style=""width:200px; border:14px solid green;"">","null","","","","","",""
"","image-keyboard-response","302","164298","0.0-444.0","3GU1KF0O4JNFMVO5DGGXOAM2YO8PB3","A207IHY6GERCFO","3LN3BXKGC0HZB1VNEMH4SWP73O3GW1","","374","img/land8.png","75","376","75","1","false","",""
"","html-keyboard-response","303","164601","0.0-445.0","3GU1KF0O4JNFMVO5DGGXOAM2YO8PB3","A207IHY6GERCFO","3LN3BXKGC0HZB1VNEMH4SWP73O3GW1","","null","<img src=""img/land8.png"" style=""width:200px; border:14px solid green;"">","null","","","","","",""
"","image-keyboard-response","304","165258","0.0-447.0","3GU1KF0O4JNFMVO5DGGXOAM2YO8PB3","A207IHY6GERCFO","3LN3BXKGC0HZB1VNEMH4SWP73O3GW1","","653","img/land7.png","74","656","74","0","false","",""
"","html-keyboard-response","305","165561","0.0-448.0","3GU1KF0O4JNFMVO5DGGXOAM2YO8PB3","A207IHY6GERCFO","3LN3BXKGC0HZB1VNEMH4SWP73O3GW1","","null","<img src=""img/land7.png"" style=""width:200px;border:14px solid red;"">","null","","","","","",""
"","image-keyboard-response","306","165874","0.0-450.0","3GU1KF0O4JNFMVO5DGGXOAM2YO8PB3","A207IHY6GERCFO","3LN3BXKGC0HZB1VNEMH4SWP73O3GW1","","311","img/land7.png","74","312","74","1","false","",""
"","html-keyboard-response","307","166177","0.0-451.0","3GU1KF0O4JNFMVO5DGGXOAM2YO8PB3","A207IHY6GERCFO","3LN3BXKGC0HZB1VNEMH4SWP73O3GW1","","null","<img src=""img/land7.png"" style=""width:200px; border:14px solid green;"">","null","","","","","",""
"","image-keyboard-response","308","166994","0.0-453.0","3GU1KF0O4JNFMVO5DGGXOAM2YO8PB3","A207IHY6GERCFO","3LN3BXKGC0HZB1VNEMH4SWP73O3GW1","","814","img/land6.png","76","816","76","1","false","",""
"","html-keyboard-response","309","167297","0.0-454.0","3GU1KF0O4JNFMVO5DGGXOAM2YO8PB3","A207IHY6GERCFO","3LN3BXKGC0HZB1VNEMH4SWP73O3GW1","","null","<img src=""img/land6.png"" style=""width:200px; border:14px solid green;"">","null","","","","","",""
"","image-keyboard-response","310","167922","0.0-456.0","3GU1KF0O4JNFMVO5DGGXOAM2YO8PB3","A207IHY6GERCFO","3LN3BXKGC0HZB1VNEMH4SWP73O3GW1","","621","img/land7.png","74","624","74","1","false","",""
"","html-keyboard-response","311","168225","0.0-457.0","3GU1KF0O4JNFMVO5DGGXOAM2YO8PB3","A207IHY6GERCFO","3LN3BXKGC0HZB1VNEMH4SWP73O3GW1","","null","<img src=""img/land7.png"" style=""width:200px; border:14px solid green;"">","null","","","","","",""
"","image-keyboard-response","312","168577","0.0-459.0","3GU1KF0O4JNFMVO5DGGXOAM2YO8PB3","A207IHY6GERCFO","3LN3BXKGC0HZB1VNEMH4SWP73O3GW1","","350","img/land7.png","74","351","74","0","false","",""
"","html-keyboard-response","313","168879","0.0-460.0","3GU1KF0O4JNFMVO5DGGXOAM2YO8PB3","A207IHY6GERCFO","3LN3BXKGC0HZB1VNEMH4SWP73O3GW1","","null","<img src=""img/land7.png"" style=""width:200px;border:14px solid red;"">","null","","","","","",""
"","image-keyboard-response","314","169210","0.0-462.0","3GU1KF0O4JNFMVO5DGGXOAM2YO8PB3","A207IHY6GERCFO","3LN3BXKGC0HZB1VNEMH4SWP73O3GW1","","328","img/land7.png","74","328","74","1","false","",""
"","html-keyboard-response","315","169514","0.0-463.0","3GU1KF0O4JNFMVO5DGGXOAM2YO8PB3","A207IHY6GERCFO","3LN3BXKGC0HZB1VNEMH4SWP73O3GW1","","null","<img src=""img/land7.png"" style=""width:200px; border:14px solid green;"">","null","","","","","",""
"","image-keyboard-response","316","169818","0.0-465.0","3GU1KF0O4JNFMVO5DGGXOAM2YO8PB3","A207IHY6GERCFO","3LN3BXKGC0HZB1VNEMH4SWP73O3GW1","","302","img/land7.png","74","304","74","1","false","",""
"","html-keyboard-response","317","170121","0.0-466.0","3GU1KF0O4JNFMVO5DGGXOAM2YO8PB3","A207IHY6GERCFO","3LN3BXKGC0HZB1VNEMH4SWP73O3GW1","","null","<img src=""img/land7.png"" style=""width:200px; border:14px solid green;"">","null","","","","","",""
"","image-keyboard-response","318","170658","0.0-468.0","3GU1KF0O4JNFMVO5DGGXOAM2YO8PB3","A207IHY6GERCFO","3LN3BXKGC0HZB1VNEMH4SWP73O3GW1","","533","img/land6.png","75","536","75","1","false","",""
"","html-keyboard-response","319","170961","0.0-469.0","3GU1KF0O4JNFMVO5DGGXOAM2YO8PB3","A207IHY6GERCFO","3LN3BXKGC0HZB1VNEMH4SWP73O3GW1","","null","<img src=""img/land6.png"" style=""width:200px; border:14px solid green;"">","null","","","","","",""
"","image-keyboard-response","320","171258","0.0-471.0","3GU1KF0O4JNFMVO5DGGXOAM2YO8PB3","A207IHY6GERCFO","3LN3BXKGC0HZB1VNEMH4SWP73O3GW1","","294","img/land6.png","76","297","76","1","false","",""
"","html-keyboard-response","321","171561","0.0-472.0","3GU1KF0O4JNFMVO5DGGXOAM2YO8PB3","A207IHY6GERCFO","3LN3BXKGC0HZB1VNEMH4SWP73O3GW1","","null","<img src=""img/land6.png"" style=""width:200px; border:14px solid green;"">","null","","","","","",""
"","image-keyboard-response","322","171882","0.0-474.0","3GU1KF0O4JNFMVO5DGGXOAM2YO8PB3","A207IHY6GERCFO","3LN3BXKGC0HZB1VNEMH4SWP73O3GW1","","319","img/land6.png","76","320","76","0","false","",""
"","html-keyboard-response","323","172185","0.0-475.0","3GU1KF0O4JNFMVO5DGGXOAM2YO8PB3","A207IHY6GERCFO","3LN3BXKGC0HZB1VNEMH4SWP73O3GW1","","null","<img src=""img/land6.png"" style=""width:200px;border:14px solid red;"">","null","","","","","",""
"","image-keyboard-response","324","172546","0.0-477.0","3GU1KF0O4JNFMVO5DGGXOAM2YO8PB3","A207IHY6GERCFO","3LN3BXKGC0HZB1VNEMH4SWP73O3GW1","","358","img/land6.png","76","360","76","1","false","",""
"","html-keyboard-response","325","172849","0.0-478.0","3GU1KF0O4JNFMVO5DGGXOAM2YO8PB3","A207IHY6GERCFO","3LN3BXKGC0HZB1VNEMH4SWP73O3GW1","","null","<img src=""img/land6.png"" style=""width:200px; border:14px solid green;"">","null","","","","","",""
"","image-keyboard-response","326","173483","0.0-480.0","3GU1KF0O4JNFMVO5DGGXOAM2YO8PB3","A207IHY6GERCFO","3LN3BXKGC0HZB1VNEMH4SWP73O3GW1","","631","img/land7.png","74","633","74","1","false","",""
"","html-keyboard-response","327","173786","0.0-481.0","3GU1KF0O4JNFMVO5DGGXOAM2YO8PB3","A207IHY6GERCFO","3LN3BXKGC0HZB1VNEMH4SWP73O3GW1","","null","<img src=""img/land7.png"" style=""width:200px; border:14px solid green;"">","null","","","","","",""
"","image-keyboard-response","328","174442","0.0-483.0","3GU1KF0O4JNFMVO5DGGXOAM2YO8PB3","A207IHY6GERCFO","3LN3BXKGC0HZB1VNEMH4SWP73O3GW1","","653","img/land6.png","76","655","76","0","false","",""
"","html-keyboard-response","329","174745","0.0-484.0","3GU1KF0O4JNFMVO5DGGXOAM2YO8PB3","A207IHY6GERCFO","3LN3BXKGC0HZB1VNEMH4SWP73O3GW1","","null","<img src=""img/land6.png"" style=""width:200px;border:14px solid red;"">","null","","","","","",""
"","image-keyboard-response","330","174929","0.0-486.0","3GU1KF0O4JNFMVO5DGGXOAM2YO8PB3","A207IHY6GERCFO","3LN3BXKGC0HZB1VNEMH4SWP73O3GW1","","180","img/land7.png","76","182","76","0","false","",""
"","html-keyboard-response","331","175231","0.0-487.0","3GU1KF0O4JNFMVO5DGGXOAM2YO8PB3","A207IHY6GERCFO","3LN3BXKGC0HZB1VNEMH4SWP73O3GW1","","null","<img src=""img/land7.png"" style=""width:200px;border:14px solid red;"">","null","","","","","",""
"","image-keyboard-response","332","176058","0.0-489.0","3GU1KF0O4JNFMVO5DGGXOAM2YO8PB3","A207IHY6GERCFO","3LN3BXKGC0HZB1VNEMH4SWP73O3GW1","","824","img/land8.png","75","825","75","0","false","",""
"","html-keyboard-response","333","176360","0.0-490.0","3GU1KF0O4JNFMVO5DGGXOAM2YO8PB3","A207IHY6GERCFO","3LN3BXKGC0HZB1VNEMH4SWP73O3GW1","","null","<img src=""img/land8.png"" style=""width:200px;border:14px solid red;"">","null","","","","","",""
"","image-keyboard-response","334","176682","0.0-492.0","3GU1KF0O4JNFMVO5DGGXOAM2YO8PB3","A207IHY6GERCFO","3LN3BXKGC0HZB1VNEMH4SWP73O3GW1","","318","img/land8.png","75","319","75","1","false","",""
"","html-keyboard-response","335","176986","0.0-493.0","3GU1KF0O4JNFMVO5DGGXOAM2YO8PB3","A207IHY6GERCFO","3LN3BXKGC0HZB1VNEMH4SWP73O3GW1","","null","<img src=""img/land8.png"" style=""width:200px; border:14px solid green;"">","null","","","","","",""
"","image-keyboard-response","336","177290","0.0-495.0","3GU1KF0O4JNFMVO5DGGXOAM2YO8PB3","A207IHY6GERCFO","3LN3BXKGC0HZB1VNEMH4SWP73O3GW1","","301","img/land8.png","75","303","75","1","false","",""
"","html-keyboard-response","337","177593","0.0-496.0","3GU1KF0O4JNFMVO5DGGXOAM2YO8PB3","A207IHY6GERCFO","3LN3BXKGC0HZB1VNEMH4SWP73O3GW1","","null","<img src=""img/land8.png"" style=""width:200px; border:14px solid green;"">","null","","","","","",""
"","image-keyboard-response","338","177906","0.0-498.0","3GU1KF0O4JNFMVO5DGGXOAM2YO8PB3","A207IHY6GERCFO","3LN3BXKGC0HZB1VNEMH4SWP73O3GW1","","309","img/land8.png","75","311","75","0","false","",""
"","html-keyboard-response","339","178210","0.0-499.0","3GU1KF0O4JNFMVO5DGGXOAM2YO8PB3","A207IHY6GERCFO","3LN3BXKGC0HZB1VNEMH4SWP73O3GW1","","null","<img src=""img/land8.png"" style=""width:200px;border:14px solid red;"">","null","","","","","",""
"","image-keyboard-response","340","178538","0.0-501.0","3GU1KF0O4JNFMVO5DGGXOAM2YO8PB3","A207IHY6GERCFO","3LN3BXKGC0HZB1VNEMH4SWP73O3GW1","","325","img/land8.png","75","328","75","0","false","",""
"","html-keyboard-response","341","178841","0.0-502.0","3GU1KF0O4JNFMVO5DGGXOAM2YO8PB3","A207IHY6GERCFO","3LN3BXKGC0HZB1VNEMH4SWP73O3GW1","","null","<img src=""img/land8.png"" style=""width:200px;border:14px solid red;"">","null","","","","","",""
"","image-keyboard-response","342","179146","0.0-504.0","3GU1KF0O4JNFMVO5DGGXOAM2YO8PB3","A207IHY6GERCFO","3LN3BXKGC0HZB1VNEMH4SWP73O3GW1","","302","img/land8.png","75","304","75","1","false","",""
"","html-keyboard-response","343","179449","0.0-505.0","3GU1KF0O4JNFMVO5DGGXOAM2YO8PB3","A207IHY6GERCFO","3LN3BXKGC0HZB1VNEMH4SWP73O3GW1","","null","<img src=""img/land8.png"" style=""width:200px; border:14px solid green;"">","null","","","","","",""
"","image-keyboard-response","344","180146","0.0-507.0","3GU1KF0O4JNFMVO5DGGXOAM2YO8PB3","A207IHY6GERCFO","3LN3BXKGC0HZB1VNEMH4SWP73O3GW1","","694","img/land6.png","76","696","76","1","false","",""
"","html-keyboard-response","345","180449","0.0-508.0","3GU1KF0O4JNFMVO5DGGXOAM2YO8PB3","A207IHY6GERCFO","3LN3BXKGC0HZB1VNEMH4SWP73O3GW1","","null","<img src=""img/land6.png"" style=""width:200px; border:14px solid green;"">","null","","","","","",""
"","image-keyboard-response","346","181202","0.0-510.0","3GU1KF0O4JNFMVO5DGGXOAM2YO8PB3","A207IHY6GERCFO","3LN3BXKGC0HZB1VNEMH4SWP73O3GW1","","750","img/land8.png","74","752","74","1","false","",""
"","html-keyboard-response","347","181506","0.0-511.0","3GU1KF0O4JNFMVO5DGGXOAM2YO8PB3","A207IHY6GERCFO","3LN3BXKGC0HZB1VNEMH4SWP73O3GW1","","null","<img src=""img/land8.png"" style=""width:200px; border:14px solid green;"">","null","","","","","",""
"","image-keyboard-response","348","181938","0.0-513.0","3GU1KF0O4JNFMVO5DGGXOAM2YO8PB3","A207IHY6GERCFO","3LN3BXKGC0HZB1VNEMH4SWP73O3GW1","","429","img/land8.png","75","430","75","1","false","",""
"","html-keyboard-response","349","182241","0.0-514.0","3GU1KF0O4JNFMVO5DGGXOAM2YO8PB3","A207IHY6GERCFO","3LN3BXKGC0HZB1VNEMH4SWP73O3GW1","","null","<img src=""img/land8.png"" style=""width:200px; border:14px solid green;"">","null","","","","","",""
"","image-keyboard-response","350","183244","0.0-516.0","3GU1KF0O4JNFMVO5DGGXOAM2YO8PB3","A207IHY6GERCFO","3LN3BXKGC0HZB1VNEMH4SWP73O3GW1","","","img/land6.png","","1003","-1","0","true","",""
"","html-keyboard-response","351","183549","0.0-517.0","3GU1KF0O4JNFMVO5DGGXOAM2YO8PB3","A207IHY6GERCFO","3LN3BXKGC0HZB1VNEMH4SWP73O3GW1","","null","<img src=""img/land6.png"" style=""width:200px;border:14px solid red;"">","null","","","","","",""
"","html-keyboard-response","352","185680","0.0-518.0-0.0","3GU1KF0O4JNFMVO5DGGXOAM2YO8PB3","A207IHY6GERCFO","3LN3BXKGC0HZB1VNEMH4SWP73O3GW1","","","","","","","","","",""
"","image-keyboard-response","353","186250","0.0-519.0","3GU1KF0O4JNFMVO5DGGXOAM2YO8PB3","A207IHY6GERCFO","3LN3BXKGC0HZB1VNEMH4SWP73O3GW1","","567","img/land7.png","74","569","74","1","false","",""
"","html-keyboard-response","354","186553","0.0-520.0","3GU1KF0O4JNFMVO5DGGXOAM2YO8PB3","A207IHY6GERCFO","3LN3BXKGC0HZB1VNEMH4SWP73O3GW1","","null","<img src=""img/land7.png"" style=""width:200px; border:14px solid green;"">","null","","","","","",""
"","image-keyboard-response","355","186866","0.0-522.0","3GU1KF0O4JNFMVO5DGGXOAM2YO8PB3","A207IHY6GERCFO","3LN3BXKGC0HZB1VNEMH4SWP73O3GW1","","310","img/land7.png","74","313","74","1","false","",""
"","html-keyboard-response","356","187169","0.0-523.0","3GU1KF0O4JNFMVO5DGGXOAM2YO8PB3","A207IHY6GERCFO","3LN3BXKGC0HZB1VNEMH4SWP73O3GW1","","null","<img src=""img/land7.png"" style=""width:200px; border:14px solid green;"">","null","","","","","",""
"","image-keyboard-response","357","187834","0.0-525.0","3GU1KF0O4JNFMVO5DGGXOAM2YO8PB3","A207IHY6GERCFO","3LN3BXKGC0HZB1VNEMH4SWP73O3GW1","","662","img/land6.png","76","665","76","0","false","",""
"","html-keyboard-response","358","188138","0.0-526.0","3GU1KF0O4JNFMVO5DGGXOAM2YO8PB3","A207IHY6GERCFO","3LN3BXKGC0HZB1VNEMH4SWP73O3GW1","","null","<img src=""img/land6.png"" style=""width:200px;border:14px solid red;"">","null","","","","","",""
"","image-keyboard-response","359","188458","0.0-528.0","3GU1KF0O4JNFMVO5DGGXOAM2YO8PB3","A207IHY6GERCFO","3LN3BXKGC0HZB1VNEMH4SWP73O3GW1","","316","img/land6.png","76","319","76","1","false","",""
"","html-keyboard-response","360","188761","0.0-529.0","3GU1KF0O4JNFMVO5DGGXOAM2YO8PB3","A207IHY6GERCFO","3LN3BXKGC0HZB1VNEMH4SWP73O3GW1","","null","<img src=""img/land6.png"" style=""width:200px; border:14px solid green;"">","null","","","","","",""
"","image-keyboard-response","361","189506","0.0-531.0","3GU1KF0O4JNFMVO5DGGXOAM2YO8PB3","A207IHY6GERCFO","3LN3BXKGC0HZB1VNEMH4SWP73O3GW1","","742","img/land8.png","75","744","75","1","false","",""
"","html-keyboard-response","362","189809","0.0-532.0","3GU1KF0O4JNFMVO5DGGXOAM2YO8PB3","A207IHY6GERCFO","3LN3BXKGC0HZB1VNEMH4SWP73O3GW1","","null","<img src=""img/land8.png"" style=""width:200px; border:14px solid green;"">","null","","","","","",""
"","image-keyboard-response","363","190328","0.0-534.0","3GU1KF0O4JNFMVO5DGGXOAM2YO8PB3","A207IHY6GERCFO","3LN3BXKGC0HZB1VNEMH4SWP73O3GW1","","516","img/land7.png","74","519","74","0","false","",""
"","html-keyboard-response","364","190632","0.0-535.0","3GU1KF0O4JNFMVO5DGGXOAM2YO8PB3","A207IHY6GERCFO","3LN3BXKGC0HZB1VNEMH4SWP73O3GW1","","null","<img src=""img/land7.png"" style=""width:200px;border:14px solid red;"">","null","","","","","",""
"","image-keyboard-response","365","190866","0.0-537.0","3GU1KF0O4JNFMVO5DGGXOAM2YO8PB3","A207IHY6GERCFO","3LN3BXKGC0HZB1VNEMH4SWP73O3GW1","","230","img/land7.png","74","233","74","1","false","",""
"","html-keyboard-response","366","191170","0.0-538.0","3GU1KF0O4JNFMVO5DGGXOAM2YO8PB3","A207IHY6GERCFO","3LN3BXKGC0HZB1VNEMH4SWP73O3GW1","","null","<img src=""img/land7.png"" style=""width:200px; border:14px solid green;"">","null","","","","","",""
"","image-keyboard-response","367","191714","0.0-540.0","3GU1KF0O4JNFMVO5DGGXOAM2YO8PB3","A207IHY6GERCFO","3LN3BXKGC0HZB1VNEMH4SWP73O3GW1","","542","img/land7.png","74","544","74","0","false","",""
"","html-keyboard-response","368","192017","0.0-541.0","3GU1KF0O4JNFMVO5DGGXOAM2YO8PB3","A207IHY6GERCFO","3LN3BXKGC0HZB1VNEMH4SWP73O3GW1","","null","<img src=""img/land7.png"" style=""width:200px;border:14px solid red;"">","null","","","","","",""
"","html-keyboard-response","369","194352","0.0-543.0","3GU1KF0O4JNFMVO5DGGXOAM2YO8PB3","A207IHY6GERCFO","3LN3BXKGC0HZB1VNEMH4SWP73O3GW1","","","","","","","","","",""
"","image-keyboard-response","370","195354","0.0-544.0","3GU1KF0O4JNFMVO5DGGXOAM2YO8PB3","A207IHY6GERCFO","3LN3BXKGC0HZB1VNEMH4SWP73O3GW1","","","img/land4.png","","1002","-1","0","true","",""
"","html-keyboard-response","371","195656","0.0-545.0","3GU1KF0O4JNFMVO5DGGXOAM2YO8PB3","A207IHY6GERCFO","3LN3BXKGC0HZB1VNEMH4SWP73O3GW1","","null","<img src=""img/land4.png"" style=""width:200px;border:14px solid red;"">","null","","","","","",""
"","html-keyboard-response","372","197985","0.0-546.0-0.0","3GU1KF0O4JNFMVO5DGGXOAM2YO8PB3","A207IHY6GERCFO","3LN3BXKGC0HZB1VNEMH4SWP73O3GW1","","","","","","","","","",""
"","image-keyboard-response","373","198794","0.0-547.0","3GU1KF0O4JNFMVO5DGGXOAM2YO8PB3","A207IHY6GERCFO","3LN3BXKGC0HZB1VNEMH4SWP73O3GW1","","809","img/land1.png","75","809","75","0","false","",""
"","html-keyboard-response","374","199097","0.0-548.0","3GU1KF0O4JNFMVO5DGGXOAM2YO8PB3","A207IHY6GERCFO","3LN3BXKGC0HZB1VNEMH4SWP73O3GW1","","null","<img src=""img/land1.png"" style=""width:200px;border:14px solid red;"">","null","","","","","",""
"","image-keyboard-response","375","199690","0.0-550.0","3GU1KF0O4JNFMVO5DGGXOAM2YO8PB3","A207IHY6GERCFO","3LN3BXKGC0HZB1VNEMH4SWP73O3GW1","","589","img/land4.png","76","591","76","0","false","",""
"","html-keyboard-response","376","199994","0.0-551.0","3GU1KF0O4JNFMVO5DGGXOAM2YO8PB3","A207IHY6GERCFO","3LN3BXKGC0HZB1VNEMH4SWP73O3GW1","","null","<img src=""img/land4.png"" style=""width:200px;border:14px solid red;"">","null","","","","","",""
"","image-keyboard-response","377","200618","0.0-553.0","3GU1KF0O4JNFMVO5DGGXOAM2YO8PB3","A207IHY6GERCFO","3LN3BXKGC0HZB1VNEMH4SWP73O3GW1","","621","img/land1.png","74","623","74","1","false","",""
"","html-keyboard-response","378","200921","0.0-554.0","3GU1KF0O4JNFMVO5DGGXOAM2YO8PB3","A207IHY6GERCFO","3LN3BXKGC0HZB1VNEMH4SWP73O3GW1","","null","<img src=""img/land1.png"" style=""width:200px; border:14px solid green;"">","null","","","","","",""
"","image-keyboard-response","379","201258","0.0-556.0","3GU1KF0O4JNFMVO5DGGXOAM2YO8PB3","A207IHY6GERCFO","3LN3BXKGC0HZB1VNEMH4SWP73O3GW1","","334","img/land1.png","74","336","74","1","false","",""
"","html-keyboard-response","380","201562","0.0-557.0","3GU1KF0O4JNFMVO5DGGXOAM2YO8PB3","A207IHY6GERCFO","3LN3BXKGC0HZB1VNEMH4SWP73O3GW1","","null","<img src=""img/land1.png"" style=""width:200px; border:14px solid green;"">","null","","","","","",""
"","image-keyboard-response","381","202306","0.0-559.0","3GU1KF0O4JNFMVO5DGGXOAM2YO8PB3","A207IHY6GERCFO","3LN3BXKGC0HZB1VNEMH4SWP73O3GW1","","742","img/land3.png","75","743","75","0","false","",""
"","html-keyboard-response","382","202610","0.0-560.0","3GU1KF0O4JNFMVO5DGGXOAM2YO8PB3","A207IHY6GERCFO","3LN3BXKGC0HZB1VNEMH4SWP73O3GW1","","null","<img src=""img/land3.png"" style=""width:200px;border:14px solid red;"">","null","","","","","",""
"","image-keyboard-response","383","202890","0.0-562.0","3GU1KF0O4JNFMVO5DGGXOAM2YO8PB3","A207IHY6GERCFO","3LN3BXKGC0HZB1VNEMH4SWP73O3GW1","","278","img/land3.png","76","280","76","0","false","",""
"","html-keyboard-response","384","203193","0.0-563.0","3GU1KF0O4JNFMVO5DGGXOAM2YO8PB3","A207IHY6GERCFO","3LN3BXKGC0HZB1VNEMH4SWP73O3GW1","","null","<img src=""img/land3.png"" style=""width:200px;border:14px solid red;"">","null","","","","","",""
"","image-keyboard-response","385","203498","0.0-565.0","3GU1KF0O4JNFMVO5DGGXOAM2YO8PB3","A207IHY6GERCFO","3LN3BXKGC0HZB1VNEMH4SWP73O3GW1","","301","img/land3.png","76","304","76","1","false","",""
"","html-keyboard-response","386","203802","0.0-566.0","3GU1KF0O4JNFMVO5DGGXOAM2YO8PB3","A207IHY6GERCFO","3LN3BXKGC0HZB1VNEMH4SWP73O3GW1","","null","<img src=""img/land3.png"" style=""width:200px; border:14px solid green;"">","null","","","","","",""
"","image-keyboard-response","387","204482","0.0-568.0","3GU1KF0O4JNFMVO5DGGXOAM2YO8PB3","A207IHY6GERCFO","3LN3BXKGC0HZB1VNEMH4SWP73O3GW1","","678","img/land1.png","74","679","74","1","false","",""
"","html-keyboard-response","388","204785","0.0-569.0","3GU1KF0O4JNFMVO5DGGXOAM2YO8PB3","A207IHY6GERCFO","3LN3BXKGC0HZB1VNEMH4SWP73O3GW1","","null","<img src=""img/land1.png"" style=""width:200px; border:14px solid green;"">","null","","","","","",""
"","image-keyboard-response","389","205377","0.0-571.0","3GU1KF0O4JNFMVO5DGGXOAM2YO8PB3","A207IHY6GERCFO","3LN3BXKGC0HZB1VNEMH4SWP73O3GW1","","585","img/land3.png","76","587","76","0","false","",""
"","html-keyboard-response","390","205679","0.0-572.0","3GU1KF0O4JNFMVO5DGGXOAM2YO8PB3","A207IHY6GERCFO","3LN3BXKGC0HZB1VNEMH4SWP73O3GW1","","null","<img src=""img/land3.png"" style=""width:200px;border:14px solid red;"">","null","","","","","",""
"","image-keyboard-response","391","206530","0.0-574.0","3GU1KF0O4JNFMVO5DGGXOAM2YO8PB3","A207IHY6GERCFO","3LN3BXKGC0HZB1VNEMH4SWP73O3GW1","","848","img/land4.png","75","850","75","1","false","",""
"","html-keyboard-response","392","206834","0.0-575.0","3GU1KF0O4JNFMVO5DGGXOAM2YO8PB3","A207IHY6GERCFO","3LN3BXKGC0HZB1VNEMH4SWP73O3GW1","","null","<img src=""img/land4.png"" style=""width:200px; border:14px solid green;"">","null","","","","","",""
"","image-keyboard-response","393","207505","0.0-577.0","3GU1KF0O4JNFMVO5DGGXOAM2YO8PB3","A207IHY6GERCFO","3LN3BXKGC0HZB1VNEMH4SWP73O3GW1","","669","img/land1.png","74","672","74","1","false","",""
"","html-keyboard-response","394","207809","0.0-578.0","3GU1KF0O4JNFMVO5DGGXOAM2YO8PB3","A207IHY6GERCFO","3LN3BXKGC0HZB1VNEMH4SWP73O3GW1","","null","<img src=""img/land1.png"" style=""width:200px; border:14px solid green;"">","null","","","","","",""
"","image-keyboard-response","395","208466","0.0-580.0","3GU1KF0O4JNFMVO5DGGXOAM2YO8PB3","A207IHY6GERCFO","3LN3BXKGC0HZB1VNEMH4SWP73O3GW1","","653","img/land3.png","76","656","76","0","false","",""
"","html-keyboard-response","396","208769","0.0-581.0","3GU1KF0O4JNFMVO5DGGXOAM2YO8PB3","A207IHY6GERCFO","3LN3BXKGC0HZB1VNEMH4SWP73O3GW1","","null","<img src=""img/land3.png"" style=""width:200px;border:14px solid red;"">","null","","","","","",""
"","image-keyboard-response","397","209424","0.0-583.0","3GU1KF0O4JNFMVO5DGGXOAM2YO8PB3","A207IHY6GERCFO","3LN3BXKGC0HZB1VNEMH4SWP73O3GW1","","653","img/land1.png","74","654","74","1","false","",""
"","html-keyboard-response","398","209727","0.0-584.0","3GU1KF0O4JNFMVO5DGGXOAM2YO8PB3","A207IHY6GERCFO","3LN3BXKGC0HZB1VNEMH4SWP73O3GW1","","null","<img src=""img/land1.png"" style=""width:200px; border:14px solid green;"">","null","","","","","",""
"","image-keyboard-response","399","210080","0.0-586.0","3GU1KF0O4JNFMVO5DGGXOAM2YO8PB3","A207IHY6GERCFO","3LN3BXKGC0HZB1VNEMH4SWP73O3GW1","","352","img/land1.png","74","352","74","1","false","",""
"","html-keyboard-response","400","210383","0.0-587.0","3GU1KF0O4JNFMVO5DGGXOAM2YO8PB3","A207IHY6GERCFO","3LN3BXKGC0HZB1VNEMH4SWP73O3GW1","","null","<img src=""img/land1.png"" style=""width:200px; border:14px solid green;"">","null","","","","","",""
"","image-keyboard-response","401","210984","0.0-589.0","3GU1KF0O4JNFMVO5DGGXOAM2YO8PB3","A207IHY6GERCFO","3LN3BXKGC0HZB1VNEMH4SWP73O3GW1","","600","img/land3.png","75","602","75","1","false","",""
"","html-keyboard-response","402","211285","0.0-590.0","3GU1KF0O4JNFMVO5DGGXOAM2YO8PB3","A207IHY6GERCFO","3LN3BXKGC0HZB1VNEMH4SWP73O3GW1","","null","<img src=""img/land3.png"" style=""width:200px; border:14px solid green;"">","null","","","","","",""
"","image-keyboard-response","403","211536","0.0-592.0","3GU1KF0O4JNFMVO5DGGXOAM2YO8PB3","A207IHY6GERCFO","3LN3BXKGC0HZB1VNEMH4SWP73O3GW1","","249","img/land1.png","75","251","75","1","false","",""
"","html-keyboard-response","404","211838","0.0-593.0","3GU1KF0O4JNFMVO5DGGXOAM2YO8PB3","A207IHY6GERCFO","3LN3BXKGC0HZB1VNEMH4SWP73O3GW1","","null","<img src=""img/land1.png"" style=""width:200px; border:14px solid green;"">","null","","","","","",""
"","image-keyboard-response","405","212664","0.0-595.0","3GU1KF0O4JNFMVO5DGGXOAM2YO8PB3","A207IHY6GERCFO","3LN3BXKGC0HZB1VNEMH4SWP73O3GW1","","825","img/land4.png","76","826","76","1","false","",""
"","html-keyboard-response","406","212966","0.0-596.0","3GU1KF0O4JNFMVO5DGGXOAM2YO8PB3","A207IHY6GERCFO","3LN3BXKGC0HZB1VNEMH4SWP73O3GW1","","null","<img src=""img/land4.png"" style=""width:200px; border:14px solid green;"">","null","","","","","",""
"","image-keyboard-response","407","213352","0.0-598.0","3GU1KF0O4JNFMVO5DGGXOAM2YO8PB3","A207IHY6GERCFO","3LN3BXKGC0HZB1VNEMH4SWP73O3GW1","","384","img/land4.png","76","386","76","1","false","",""
"","html-keyboard-response","408","213655","0.0-599.0","3GU1KF0O4JNFMVO5DGGXOAM2YO8PB3","A207IHY6GERCFO","3LN3BXKGC0HZB1VNEMH4SWP73O3GW1","","null","<img src=""img/land4.png"" style=""width:200px; border:14px solid green;"">","null","","","","","",""
"","image-keyboard-response","409","213992","0.0-601.0","3GU1KF0O4JNFMVO5DGGXOAM2YO8PB3","A207IHY6GERCFO","3LN3BXKGC0HZB1VNEMH4SWP73O3GW1","","335","img/land4.png","76","337","76","0","false","",""
"","html-keyboard-response","410","214295","0.0-602.0","3GU1KF0O4JNFMVO5DGGXOAM2YO8PB3","A207IHY6GERCFO","3LN3BXKGC0HZB1VNEMH4SWP73O3GW1","","null","<img src=""img/land4.png"" style=""width:200px;border:14px solid red;"">","null","","","","","",""
"","image-keyboard-response","411","214994","0.0-604.0","3GU1KF0O4JNFMVO5DGGXOAM2YO8PB3","A207IHY6GERCFO","3LN3BXKGC0HZB1VNEMH4SWP73O3GW1","","696","img/land1.png","74","699","74","1","false","",""
"","html-keyboard-response","412","215298","0.0-605.0","3GU1KF0O4JNFMVO5DGGXOAM2YO8PB3","A207IHY6GERCFO","3LN3BXKGC0HZB1VNEMH4SWP73O3GW1","","null","<img src=""img/land1.png"" style=""width:200px; border:14px solid green;"">","null","","","","","",""
"","image-keyboard-response","413","215946","0.0-607.0","3GU1KF0O4JNFMVO5DGGXOAM2YO8PB3","A207IHY6GERCFO","3LN3BXKGC0HZB1VNEMH4SWP73O3GW1","","645","img/land4.png","76","648","76","1","false","",""
"","html-keyboard-response","414","216250","0.0-608.0","3GU1KF0O4JNFMVO5DGGXOAM2YO8PB3","A207IHY6GERCFO","3LN3BXKGC0HZB1VNEMH4SWP73O3GW1","","null","<img src=""img/land4.png"" style=""width:200px; border:14px solid green;"">","null","","","","","",""
"","image-keyboard-response","415","216842","0.0-610.0","3GU1KF0O4JNFMVO5DGGXOAM2YO8PB3","A207IHY6GERCFO","3LN3BXKGC0HZB1VNEMH4SWP73O3GW1","","589","img/land3.png","75","592","75","1","false","",""
"","html-keyboard-response","416","217146","0.0-611.0","3GU1KF0O4JNFMVO5DGGXOAM2YO8PB3","A207IHY6GERCFO","3LN3BXKGC0HZB1VNEMH4SWP73O3GW1","","null","<img src=""img/land3.png"" style=""width:200px; border:14px solid green;"">","null","","","","","",""
"","image-keyboard-response","417","217890","0.0-613.0","3GU1KF0O4JNFMVO5DGGXOAM2YO8PB3","A207IHY6GERCFO","3LN3BXKGC0HZB1VNEMH4SWP73O3GW1","","741","img/land1.png","74","742","74","1","false","",""
"","html-keyboard-response","418","218193","0.0-614.0","3GU1KF0O4JNFMVO5DGGXOAM2YO8PB3","A207IHY6GERCFO","3LN3BXKGC0HZB1VNEMH4SWP73O3GW1","","null","<img src=""img/land1.png"" style=""width:200px; border:14px solid green;"">","null","","","","","",""
"","image-keyboard-response","419","218778","0.0-616.0","3GU1KF0O4JNFMVO5DGGXOAM2YO8PB3","A207IHY6GERCFO","3LN3BXKGC0HZB1VNEMH4SWP73O3GW1","","583","img/land4.png","76","584","76","0","false","",""
"","html-keyboard-response","420","219082","0.0-617.0","3GU1KF0O4JNFMVO5DGGXOAM2YO8PB3","A207IHY6GERCFO","3LN3BXKGC0HZB1VNEMH4SWP73O3GW1","","null","<img src=""img/land4.png"" style=""width:200px;border:14px solid red;"">","null","","","","","",""
"","image-keyboard-response","421","219609","0.0-619.0","3GU1KF0O4JNFMVO5DGGXOAM2YO8PB3","A207IHY6GERCFO","3LN3BXKGC0HZB1VNEMH4SWP73O3GW1","","524","img/land3.png","75","525","75","1","false","",""
"","html-keyboard-response","422","219912","0.0-620.0","3GU1KF0O4JNFMVO5DGGXOAM2YO8PB3","A207IHY6GERCFO","3LN3BXKGC0HZB1VNEMH4SWP73O3GW1","","null","<img src=""img/land3.png"" style=""width:200px; border:14px solid green;"">","null","","","","","",""
"","image-keyboard-response","423","220634","0.0-622.0","3GU1KF0O4JNFMVO5DGGXOAM2YO8PB3","A207IHY6GERCFO","3LN3BXKGC0HZB1VNEMH4SWP73O3GW1","","718","img/land4.png","76","721","76","1","false","",""
"","html-keyboard-response","424","220937","0.0-623.0","3GU1KF0O4JNFMVO5DGGXOAM2YO8PB3","A207IHY6GERCFO","3LN3BXKGC0HZB1VNEMH4SWP73O3GW1","","null","<img src=""img/land4.png"" style=""width:200px; border:14px solid green;"">","null","","","","","",""
"","image-keyboard-response","425","221330","0.0-625.0","3GU1KF0O4JNFMVO5DGGXOAM2YO8PB3","A207IHY6GERCFO","3LN3BXKGC0HZB1VNEMH4SWP73O3GW1","","390","img/land4.png","76","392","76","0","false","",""
"","html-keyboard-response","426","221634","0.0-626.0","3GU1KF0O4JNFMVO5DGGXOAM2YO8PB3","A207IHY6GERCFO","3LN3BXKGC0HZB1VNEMH4SWP73O3GW1","","null","<img src=""img/land4.png"" style=""width:200px;border:14px solid red;"">","null","","","","","",""
"","image-keyboard-response","427","222178","0.0-628.0","3GU1KF0O4JNFMVO5DGGXOAM2YO8PB3","A207IHY6GERCFO","3LN3BXKGC0HZB1VNEMH4SWP73O3GW1","","541","img/land4.png","75","544","75","1","false","",""
"","html-keyboard-response","428","222482","0.0-629.0","3GU1KF0O4JNFMVO5DGGXOAM2YO8PB3","A207IHY6GERCFO","3LN3BXKGC0HZB1VNEMH4SWP73O3GW1","","null","<img src=""img/land4.png"" style=""width:200px; border:14px solid green;"">","null","","","","","",""
"","image-keyboard-response","429","223226","0.0-631.0","3GU1KF0O4JNFMVO5DGGXOAM2YO8PB3","A207IHY6GERCFO","3LN3BXKGC0HZB1VNEMH4SWP73O3GW1","","742","img/land1.png","74","744","74","0","false","",""
"","html-keyboard-response","430","223535","0.0-632.0","3GU1KF0O4JNFMVO5DGGXOAM2YO8PB3","A207IHY6GERCFO","3LN3BXKGC0HZB1VNEMH4SWP73O3GW1","","null","<img src=""img/land1.png"" style=""width:200px;border:14px solid red;"">","null","","","","","",""
"","image-keyboard-response","431","223866","0.0-634.0","3GU1KF0O4JNFMVO5DGGXOAM2YO8PB3","A207IHY6GERCFO","3LN3BXKGC0HZB1VNEMH4SWP73O3GW1","","328","img/land1.png","74","330","74","0","false","",""
"","html-keyboard-response","432","224170","0.0-635.0","3GU1KF0O4JNFMVO5DGGXOAM2YO8PB3","A207IHY6GERCFO","3LN3BXKGC0HZB1VNEMH4SWP73O3GW1","","null","<img src=""img/land1.png"" style=""width:200px;border:14px solid red;"">","null","","","","","",""
"","image-keyboard-response","433","224938","0.0-637.0","3GU1KF0O4JNFMVO5DGGXOAM2YO8PB3","A207IHY6GERCFO","3LN3BXKGC0HZB1VNEMH4SWP73O3GW1","","764","img/land3.png","75","767","75","1","false","",""
"","html-keyboard-response","434","225241","0.0-638.0","3GU1KF0O4JNFMVO5DGGXOAM2YO8PB3","A207IHY6GERCFO","3LN3BXKGC0HZB1VNEMH4SWP73O3GW1","","null","<img src=""img/land3.png"" style=""width:200px; border:14px solid green;"">","null","","","","","",""
"","image-keyboard-response","435","225410","0.0-640.0","3GU1KF0O4JNFMVO5DGGXOAM2YO8PB3","A207IHY6GERCFO","3LN3BXKGC0HZB1VNEMH4SWP73O3GW1","","165","img/land1.png","75","168","75","0","false","",""
"","html-keyboard-response","436","225713","0.0-641.0","3GU1KF0O4JNFMVO5DGGXOAM2YO8PB3","A207IHY6GERCFO","3LN3BXKGC0HZB1VNEMH4SWP73O3GW1","","null","<img src=""img/land1.png"" style=""width:200px;border:14px solid red;"">","null","","","","","",""
"","image-keyboard-response","437","226329","0.0-643.0","3GU1KF0O4JNFMVO5DGGXOAM2YO8PB3","A207IHY6GERCFO","3LN3BXKGC0HZB1VNEMH4SWP73O3GW1","","613","img/land4.png","76","615","76","1","false","",""
"","html-keyboard-response","438","226631","0.0-644.0","3GU1KF0O4JNFMVO5DGGXOAM2YO8PB3","A207IHY6GERCFO","3LN3BXKGC0HZB1VNEMH4SWP73O3GW1","","null","<img src=""img/land4.png"" style=""width:200px; border:14px solid green;"">","null","","","","","",""
"","image-keyboard-response","439","227321","0.0-646.0","3GU1KF0O4JNFMVO5DGGXOAM2YO8PB3","A207IHY6GERCFO","3LN3BXKGC0HZB1VNEMH4SWP73O3GW1","","686","img/land1.png","74","689","74","0","false","",""
"","html-keyboard-response","440","227623","0.0-647.0","3GU1KF0O4JNFMVO5DGGXOAM2YO8PB3","A207IHY6GERCFO","3LN3BXKGC0HZB1VNEMH4SWP73O3GW1","","null","<img src=""img/land1.png"" style=""width:200px;border:14px solid red;"">","null","","","","","",""
"","image-keyboard-response","441","228266","0.0-649.0","3GU1KF0O4JNFMVO5DGGXOAM2YO8PB3","A207IHY6GERCFO","3LN3BXKGC0HZB1VNEMH4SWP73O3GW1","","638","img/land4.png","76","641","76","1","false","",""
"","html-keyboard-response","442","228569","0.0-650.0","3GU1KF0O4JNFMVO5DGGXOAM2YO8PB3","A207IHY6GERCFO","3LN3BXKGC0HZB1VNEMH4SWP73O3GW1","","null","<img src=""img/land4.png"" style=""width:200px; border:14px solid green;"">","null","","","","","",""
"","image-keyboard-response","443","229130","0.0-652.0","3GU1KF0O4JNFMVO5DGGXOAM2YO8PB3","A207IHY6GERCFO","3LN3BXKGC0HZB1VNEMH4SWP73O3GW1","","559","img/land3.png","75","561","75","1","false","",""
"","html-keyboard-response","444","229434","0.0-653.0","3GU1KF0O4JNFMVO5DGGXOAM2YO8PB3","A207IHY6GERCFO","3LN3BXKGC0HZB1VNEMH4SWP73O3GW1","","null","<img src=""img/land3.png"" style=""width:200px; border:14px solid green;"">","null","","","","","",""
"","image-keyboard-response","445","230090","0.0-655.0","3GU1KF0O4JNFMVO5DGGXOAM2YO8PB3","A207IHY6GERCFO","3LN3BXKGC0HZB1VNEMH4SWP73O3GW1","","653","img/land4.png","76","655","76","1","false","",""
"","html-keyboard-response","446","230392","0.0-656.0","3GU1KF0O4JNFMVO5DGGXOAM2YO8PB3","A207IHY6GERCFO","3LN3BXKGC0HZB1VNEMH4SWP73O3GW1","","null","<img src=""img/land4.png"" style=""width:200px; border:14px solid green;"">","null","","","","","",""
"","image-keyboard-response","447","231003","0.0-658.0","3GU1KF0O4JNFMVO5DGGXOAM2YO8PB3","A207IHY6GERCFO","3LN3BXKGC0HZB1VNEMH4SWP73O3GW1","","607","img/land1.png","74","610","74","1","false","",""
