"success","trial_type","trial_index","time_elapsed","internal_node_id","assignmentID","mturkID","hitID","view_history","rt","stimulus","key_press","reactionTime","a","r","s","cond","reward_cond","reward_cond_actual","reward_matrix_idx","responses","question_order"
"true","fullscreen","0","6615","0.0-0.0","3PB5A5BD0WSM76SGXGEUPZMEIJAG7C","A2196WCNDZULFS","3JUDR1D0D6D4CARU3YX9Y3DK5DJ2QK","","","","","","","","","","","","","",""
"","instructions","1","33279","0.0-1.0","3PB5A5BD0WSM76SGXGEUPZMEIJAG7C","A2196WCNDZULFS","3JUDR1D0D6D4CARU3YX9Y3DK5DJ2QK","[{""page_index"":0,""viewing_time"":5269.100000008941},{""page_index"":1,""viewing_time"":2184.2000000029802},{""page_index"":2,""viewing_time"":1135.8999999910593},{""page_index"":3,""viewing_time"":7560.20000000298},{""page_index"":4,""viewing_time"":2496},{""page_index"":5,""viewing_time"":4599.9000000059605},{""page_index"":6,""viewing_time"":3416.7999999970198}]","26662.40000000596","","","","","","","","","","","",""
"","image-keyboard-response","2","33984","0.0-2.0","3PB5A5BD0WSM76SGXGEUPZMEIJAG7C","A2196WCNDZULFS","3JUDR1D0D6D4CARU3YX9Y3DK5DJ2QK","","703.6000000089407","img/land6.png","74","704.8999999910593","1","0","3","1","0.8,0.2,0.2,0.2,0.8,0.2,0.2,0.2,0.8","0.8,0.2,0.2,0.2,0.8,0.2,0.2,0.2,0.8","1","",""
"","html-keyboard-response","3","34286","0.0-3.0","3PB5A5BD0WSM76SGXGEUPZMEIJAG7C","A2196WCNDZULFS","3JUDR1D0D6D4CARU3YX9Y3DK5DJ2QK","","null","<img src=""img/land6.png"" style=""width:200px;border:14px solid red;"">","null","","","","","","","","","",""
"","image-keyboard-response","4","35150","0.0-4.0","3PB5A5BD0WSM76SGXGEUPZMEIJAG7C","A2196WCNDZULFS","3JUDR1D0D6D4CARU3YX9Y3DK5DJ2QK","","863.2999999970198","img/land4.png","74","864","1","0","2","1","0.8,0.2,0.2,0.2,0.8,0.2,0.2,0.2,0.8","0.8,0.2,0.2,0.2,0.8,0.2,0.2,0.2,0.8","1","",""
"","html-keyboard-response","5","35453","0.0-5.0","3PB5A5BD0WSM76SGXGEUPZMEIJAG7C","A2196WCNDZULFS","3JUDR1D0D6D4CARU3YX9Y3DK5DJ2QK","","null","<img src=""img/land4.png"" style=""width:200px;border:14px solid red;"">","null","","","","","","","","","",""
"","image-keyboard-response","6","36318","0.0-6.0","3PB5A5BD0WSM76SGXGEUPZMEIJAG7C","A2196WCNDZULFS","3JUDR1D0D6D4CARU3YX9Y3DK5DJ2QK","","864.2000000029802","img/land4.png","74","865.1000000089407","1","0","2","1","0.8,0.2,0.2,0.2,0.8,0.2,0.2,0.2,0.8","0.8,0.2,0.2,0.2,0.8,0.2,0.2,0.2,0.8","1","",""
"","html-keyboard-response","7","36619","0.0-7.0","3PB5A5BD0WSM76SGXGEUPZMEIJAG7C","A2196WCNDZULFS","3JUDR1D0D6D4CARU3YX9Y3DK5DJ2QK","","null","<img src=""img/land4.png"" style=""width:200px;border:14px solid red;"">","null","","","","","","","","","",""
"","image-keyboard-response","8","37455","0.0-8.0","3PB5A5BD0WSM76SGXGEUPZMEIJAG7C","A2196WCNDZULFS","3JUDR1D0D6D4CARU3YX9Y3DK5DJ2QK","","834.7000000029802","img/land1.png","74","835.2999999970198","1","0","1","1","0.8,0.2,0.2,0.2,0.8,0.2,0.2,0.2,0.8","0.8,0.2,0.2,0.2,0.8,0.2,0.2,0.2,0.8","1","",""
"","html-keyboard-response","9","37757","0.0-9.0","3PB5A5BD0WSM76SGXGEUPZMEIJAG7C","A2196WCNDZULFS","3JUDR1D0D6D4CARU3YX9Y3DK5DJ2QK","","null","<img src=""img/land1.png"" style=""width:200px;border:14px solid red;"">","null","","","","","","","","","",""
"","image-keyboard-response","10","38495","0.0-10.0","3PB5A5BD0WSM76SGXGEUPZMEIJAG7C","A2196WCNDZULFS","3JUDR1D0D6D4CARU3YX9Y3DK5DJ2QK","","735.5","img/land1.png","74","736.8000000119209","1","1","1","1","0.8,0.2,0.2,0.2,0.8,0.2,0.2,0.2,0.8","0.8,0.2,0.2,0.2,0.8,0.2,0.2,0.2,0.8","1","",""
"","html-keyboard-response","11","38797","0.0-11.0","3PB5A5BD0WSM76SGXGEUPZMEIJAG7C","A2196WCNDZULFS","3JUDR1D0D6D4CARU3YX9Y3DK5DJ2QK","","null","<img src=""img/land1.png"" style=""width:200px; border:14px solid green;"">","null","","","","","","","","","",""
"","image-keyboard-response","12","39776","0.0-12.0","3PB5A5BD0WSM76SGXGEUPZMEIJAG7C","A2196WCNDZULFS","3JUDR1D0D6D4CARU3YX9Y3DK5DJ2QK","","977.3999999910593","img/land1.png","74","978.8000000119209","1","1","1","1","0.8,0.2,0.2,0.2,0.8,0.2,0.2,0.2,0.8","0.8,0.2,0.2,0.2,0.8,0.2,0.2,0.2,0.8","1","",""
"","html-keyboard-response","13","40077","0.0-13.0","3PB5A5BD0WSM76SGXGEUPZMEIJAG7C","A2196WCNDZULFS","3JUDR1D0D6D4CARU3YX9Y3DK5DJ2QK","","null","<img src=""img/land1.png"" style=""width:200px; border:14px solid green;"">","null","","","","","","","","","",""
"","image-keyboard-response","14","41080","0.0-14.0","3PB5A5BD0WSM76SGXGEUPZMEIJAG7C","A2196WCNDZULFS","3JUDR1D0D6D4CARU3YX9Y3DK5DJ2QK","","1001.5","img/land6.png","75","1002.7000000029802","2","0","3","1","0.8,0.2,0.2,0.2,0.8,0.2,0.2,0.2,0.8","0.8,0.2,0.2,0.2,0.8,0.2,0.2,0.2,0.8","1","",""
"","html-keyboard-response","15","41383","0.0-15.0","3PB5A5BD0WSM76SGXGEUPZMEIJAG7C","A2196WCNDZULFS","3JUDR1D0D6D4CARU3YX9Y3DK5DJ2QK","","null","<img src=""img/land6.png"" style=""width:200px;border:14px solid red;"">","null","","","","","","","","","",""
"","image-keyboard-response","16","42111","0.0-16.0","3PB5A5BD0WSM76SGXGEUPZMEIJAG7C","A2196WCNDZULFS","3JUDR1D0D6D4CARU3YX9Y3DK5DJ2QK","","726.5","img/land6.png","75","727.2000000029802","2","0","3","1","0.8,0.2,0.2,0.2,0.8,0.2,0.2,0.2,0.8","0.8,0.2,0.2,0.2,0.8,0.2,0.2,0.2,0.8","1","",""
"","html-keyboard-response","17","42412","0.0-17.0","3PB5A5BD0WSM76SGXGEUPZMEIJAG7C","A2196WCNDZULFS","3JUDR1D0D6D4CARU3YX9Y3DK5DJ2QK","","null","<img src=""img/land6.png"" style=""width:200px;border:14px solid red;"">","null","","","","","","","","","",""
"","image-keyboard-response","18","43416","0.0-18.0","3PB5A5BD0WSM76SGXGEUPZMEIJAG7C","A2196WCNDZULFS","3JUDR1D0D6D4CARU3YX9Y3DK5DJ2QK","","1002.8000000119209","img/land4.png","75","1003.6000000089407","2","1","2","1","0.8,0.2,0.2,0.2,0.8,0.2,0.2,0.2,0.8","0.8,0.2,0.2,0.2,0.8,0.2,0.2,0.2,0.8","1","",""
"","html-keyboard-response","19","43733","0.0-19.0","3PB5A5BD0WSM76SGXGEUPZMEIJAG7C","A2196WCNDZULFS","3JUDR1D0D6D4CARU3YX9Y3DK5DJ2QK","","null","<img src=""img/land4.png"" style=""width:200px; border:14px solid green;"">","null","","","","","","","","","",""
"","image-keyboard-response","20","44463","0.0-20.0","3PB5A5BD0WSM76SGXGEUPZMEIJAG7C","A2196WCNDZULFS","3JUDR1D0D6D4CARU3YX9Y3DK5DJ2QK","","729.3000000119209","img/land1.png","74","730.2000000029802","1","1","1","1","0.8,0.2,0.2,0.2,0.8,0.2,0.2,0.2,0.8","0.8,0.2,0.2,0.2,0.8,0.2,0.2,0.2,0.8","1","",""
"","html-keyboard-response","21","44766","0.0-21.0","3PB5A5BD0WSM76SGXGEUPZMEIJAG7C","A2196WCNDZULFS","3JUDR1D0D6D4CARU3YX9Y3DK5DJ2QK","","null","<img src=""img/land1.png"" style=""width:200px; border:14px solid green;"">","null","","","","","","","","","",""
"","image-keyboard-response","22","45407","0.0-22.0","3PB5A5BD0WSM76SGXGEUPZMEIJAG7C","A2196WCNDZULFS","3JUDR1D0D6D4CARU3YX9Y3DK5DJ2QK","","641","img/land1.png","74","641.7000000029802","1","1","1","1","0.8,0.2,0.2,0.2,0.8,0.2,0.2,0.2,0.8","0.8,0.2,0.2,0.2,0.8,0.2,0.2,0.2,0.8","1","",""
"","html-keyboard-response","23","45710","0.0-23.0","3PB5A5BD0WSM76SGXGEUPZMEIJAG7C","A2196WCNDZULFS","3JUDR1D0D6D4CARU3YX9Y3DK5DJ2QK","","null","<img src=""img/land1.png"" style=""width:200px; border:14px solid green;"">","null","","","","","","","","","",""
"","image-keyboard-response","24","46606","0.0-24.0","3PB5A5BD0WSM76SGXGEUPZMEIJAG7C","A2196WCNDZULFS","3JUDR1D0D6D4CARU3YX9Y3DK5DJ2QK","","895.2000000029802","img/land4.png","75","896.4000000059605","2","1","2","1","0.8,0.2,0.2,0.2,0.8,0.2,0.2,0.2,0.8","0.8,0.2,0.2,0.2,0.8,0.2,0.2,0.2,0.8","1","",""
"","html-keyboard-response","25","46909","0.0-25.0","3PB5A5BD0WSM76SGXGEUPZMEIJAG7C","A2196WCNDZULFS","3JUDR1D0D6D4CARU3YX9Y3DK5DJ2QK","","null","<img src=""img/land4.png"" style=""width:200px; border:14px solid green;"">","null","","","","","","","","","",""
"","image-keyboard-response","26","47639","0.0-26.0","3PB5A5BD0WSM76SGXGEUPZMEIJAG7C","A2196WCNDZULFS","3JUDR1D0D6D4CARU3YX9Y3DK5DJ2QK","","728.7999999970198","img/land1.png","74","729.7000000029802","1","1","1","1","0.8,0.2,0.2,0.2,0.8,0.2,0.2,0.2,0.8","0.8,0.2,0.2,0.2,0.8,0.2,0.2,0.2,0.8","1","",""
"","html-keyboard-response","27","47941","0.0-27.0","3PB5A5BD0WSM76SGXGEUPZMEIJAG7C","A2196WCNDZULFS","3JUDR1D0D6D4CARU3YX9Y3DK5DJ2QK","","null","<img src=""img/land1.png"" style=""width:200px; border:14px solid green;"">","null","","","","","","","","","",""
"","image-keyboard-response","28","48728","0.0-28.0","3PB5A5BD0WSM76SGXGEUPZMEIJAG7C","A2196WCNDZULFS","3JUDR1D0D6D4CARU3YX9Y3DK5DJ2QK","","785.2000000029802","img/land4.png","75","786.2999999970198","2","1","2","1","0.8,0.2,0.2,0.2,0.8,0.2,0.2,0.2,0.8","0.8,0.2,0.2,0.2,0.8,0.2,0.2,0.2,0.8","1","",""
"","html-keyboard-response","29","49030","0.0-29.0","3PB5A5BD0WSM76SGXGEUPZMEIJAG7C","A2196WCNDZULFS","3JUDR1D0D6D4CARU3YX9Y3DK5DJ2QK","","null","<img src=""img/land4.png"" style=""width:200px; border:14px solid green;"">","null","","","","","","","","","",""
"","image-keyboard-response","30","49839","0.0-30.0","3PB5A5BD0WSM76SGXGEUPZMEIJAG7C","A2196WCNDZULFS","3JUDR1D0D6D4CARU3YX9Y3DK5DJ2QK","","808.1000000089407","img/land6.png","76","809.2000000029802","3","1","3","1","0.8,0.2,0.2,0.2,0.8,0.2,0.2,0.2,0.8","0.8,0.2,0.2,0.2,0.8,0.2,0.2,0.2,0.8","1","",""
"","html-keyboard-response","31","50141","0.0-31.0","3PB5A5BD0WSM76SGXGEUPZMEIJAG7C","A2196WCNDZULFS","3JUDR1D0D6D4CARU3YX9Y3DK5DJ2QK","","null","<img src=""img/land6.png"" style=""width:200px; border:14px solid green;"">","null","","","","","","","","","",""
"","image-keyboard-response","32","50935","0.0-32.0","3PB5A5BD0WSM76SGXGEUPZMEIJAG7C","A2196WCNDZULFS","3JUDR1D0D6D4CARU3YX9Y3DK5DJ2QK","","792.7000000029802","img/land4.png","75","793.7999999970198","2","0","2","1","0.8,0.2,0.2,0.2,0.8,0.2,0.2,0.2,0.8","0.8,0.2,0.2,0.2,0.8,0.2,0.2,0.2,0.8","1","",""
"","html-keyboard-response","33","51237","0.0-33.0","3PB5A5BD0WSM76SGXGEUPZMEIJAG7C","A2196WCNDZULFS","3JUDR1D0D6D4CARU3YX9Y3DK5DJ2QK","","null","<img src=""img/land4.png"" style=""width:200px;border:14px solid red;"">","null","","","","","","","","","",""
"","image-keyboard-response","34","52031","0.0-34.0","3PB5A5BD0WSM76SGXGEUPZMEIJAG7C","A2196WCNDZULFS","3JUDR1D0D6D4CARU3YX9Y3DK5DJ2QK","","793","img/land1.png","74","793.7000000029802","1","1","1","1","0.8,0.2,0.2,0.2,0.8,0.2,0.2,0.2,0.8","0.8,0.2,0.2,0.2,0.8,0.2,0.2,0.2,0.8","1","",""
"","html-keyboard-response","35","52333","0.0-35.0","3PB5A5BD0WSM76SGXGEUPZMEIJAG7C","A2196WCNDZULFS","3JUDR1D0D6D4CARU3YX9Y3DK5DJ2QK","","null","<img src=""img/land1.png"" style=""width:200px; border:14px solid green;"">","null","","","","","","","","","",""
"","image-keyboard-response","36","53119","0.0-36.0","3PB5A5BD0WSM76SGXGEUPZMEIJAG7C","A2196WCNDZULFS","3JUDR1D0D6D4CARU3YX9Y3DK5DJ2QK","","784.5999999940395","img/land6.png","76","785.3999999910593","3","1","3","1","0.8,0.2,0.2,0.2,0.8,0.2,0.2,0.2,0.8","0.8,0.2,0.2,0.2,0.8,0.2,0.2,0.2,0.8","1","",""
"","html-keyboard-response","37","53420","0.0-37.0","3PB5A5BD0WSM76SGXGEUPZMEIJAG7C","A2196WCNDZULFS","3JUDR1D0D6D4CARU3YX9Y3DK5DJ2QK","","null","<img src=""img/land6.png"" style=""width:200px; border:14px solid green;"">","null","","","","","","","","","",""
"","image-keyboard-response","38","53993","0.0-38.0","3PB5A5BD0WSM76SGXGEUPZMEIJAG7C","A2196WCNDZULFS","3JUDR1D0D6D4CARU3YX9Y3DK5DJ2QK","","571.7999999970198","img/land6.png","76","572.7999999970198","3","0","3","1","0.8,0.2,0.2,0.2,0.8,0.2,0.2,0.2,0.8","0.8,0.2,0.2,0.2,0.8,0.2,0.2,0.2,0.8","1","",""
"","html-keyboard-response","39","54295","0.0-39.0","3PB5A5BD0WSM76SGXGEUPZMEIJAG7C","A2196WCNDZULFS","3JUDR1D0D6D4CARU3YX9Y3DK5DJ2QK","","null","<img src=""img/land6.png"" style=""width:200px;border:14px solid red;"">","null","","","","","","","","","",""
"","image-keyboard-response","40","54927","0.0-40.0","3PB5A5BD0WSM76SGXGEUPZMEIJAG7C","A2196WCNDZULFS","3JUDR1D0D6D4CARU3YX9Y3DK5DJ2QK","","630.6000000089407","img/land6.png","76","631.5999999940395","3","1","3","1","0.8,0.2,0.2,0.2,0.8,0.2,0.2,0.2,0.8","0.8,0.2,0.2,0.2,0.8,0.2,0.2,0.2,0.8","1","",""
"","html-keyboard-response","41","55229","0.0-41.0","3PB5A5BD0WSM76SGXGEUPZMEIJAG7C","A2196WCNDZULFS","3JUDR1D0D6D4CARU3YX9Y3DK5DJ2QK","","null","<img src=""img/land6.png"" style=""width:200px; border:14px solid green;"">","null","","","","","","","","","",""
"","image-keyboard-response","42","56040","0.0-42.0","3PB5A5BD0WSM76SGXGEUPZMEIJAG7C","A2196WCNDZULFS","3JUDR1D0D6D4CARU3YX9Y3DK5DJ2QK","","810.1000000089407","img/land1.png","74","811.6000000089407","1","1","1","1","0.8,0.2,0.2,0.2,0.8,0.2,0.2,0.2,0.8","0.8,0.2,0.2,0.2,0.8,0.2,0.2,0.2,0.8","1","",""
"","html-keyboard-response","43","56342","0.0-43.0","3PB5A5BD0WSM76SGXGEUPZMEIJAG7C","A2196WCNDZULFS","3JUDR1D0D6D4CARU3YX9Y3DK5DJ2QK","","null","<img src=""img/land1.png"" style=""width:200px; border:14px solid green;"">","null","","","","","","","","","",""
"","image-keyboard-response","44","57223","0.0-44.0","3PB5A5BD0WSM76SGXGEUPZMEIJAG7C","A2196WCNDZULFS","3JUDR1D0D6D4CARU3YX9Y3DK5DJ2QK","","879.6000000089407","img/land6.png","76","880.5999999940395","3","1","3","1","0.8,0.2,0.2,0.2,0.8,0.2,0.2,0.2,0.8","0.8,0.2,0.2,0.2,0.8,0.2,0.2,0.2,0.8","1","",""
"","html-keyboard-response","45","57524","0.0-45.0","3PB5A5BD0WSM76SGXGEUPZMEIJAG7C","A2196WCNDZULFS","3JUDR1D0D6D4CARU3YX9Y3DK5DJ2QK","","null","<img src=""img/land6.png"" style=""width:200px; border:14px solid green;"">","null","","","","","","","","","",""
"","image-keyboard-response","46","58159","0.0-46.0","3PB5A5BD0WSM76SGXGEUPZMEIJAG7C","A2196WCNDZULFS","3JUDR1D0D6D4CARU3YX9Y3DK5DJ2QK","","633.5","img/land4.png","75","634.7999999970198","2","1","2","1","0.8,0.2,0.2,0.2,0.8,0.2,0.2,0.2,0.8","0.8,0.2,0.2,0.2,0.8,0.2,0.2,0.2,0.8","1","",""
"","html-keyboard-response","47","58461","0.0-47.0","3PB5A5BD0WSM76SGXGEUPZMEIJAG7C","A2196WCNDZULFS","3JUDR1D0D6D4CARU3YX9Y3DK5DJ2QK","","null","<img src=""img/land4.png"" style=""width:200px; border:14px solid green;"">","null","","","","","","","","","",""
"","image-keyboard-response","48","58970","0.0-48.0","3PB5A5BD0WSM76SGXGEUPZMEIJAG7C","A2196WCNDZULFS","3JUDR1D0D6D4CARU3YX9Y3DK5DJ2QK","","504.90000000596046","img/land4.png","75","505.6000000089407","2","1","2","1","0.8,0.2,0.2,0.2,0.8,0.2,0.2,0.2,0.8","0.8,0.2,0.2,0.2,0.8,0.2,0.2,0.2,0.8","1","",""
"","html-keyboard-response","49","59273","0.0-49.0","3PB5A5BD0WSM76SGXGEUPZMEIJAG7C","A2196WCNDZULFS","3JUDR1D0D6D4CARU3YX9Y3DK5DJ2QK","","null","<img src=""img/land4.png"" style=""width:200px; border:14px solid green;"">","null","","","","","","","","","",""
"","image-keyboard-response","50","60451","0.0-50.0","3PB5A5BD0WSM76SGXGEUPZMEIJAG7C","A2196WCNDZULFS","3JUDR1D0D6D4CARU3YX9Y3DK5DJ2QK","","1176.6000000089407","img/land6.png","76","1177.5","3","0","3","1","0.8,0.2,0.2,0.2,0.8,0.2,0.2,0.2,0.8","0.8,0.2,0.2,0.2,0.8,0.2,0.2,0.2,0.8","1","",""
"","html-keyboard-response","51","60752","0.0-51.0","3PB5A5BD0WSM76SGXGEUPZMEIJAG7C","A2196WCNDZULFS","3JUDR1D0D6D4CARU3YX9Y3DK5DJ2QK","","null","<img src=""img/land6.png"" style=""width:200px;border:14px solid red;"">","null","","","","","","","","","",""
"","image-keyboard-response","52","61179","0.0-52.0","3PB5A5BD0WSM76SGXGEUPZMEIJAG7C","A2196WCNDZULFS","3JUDR1D0D6D4CARU3YX9Y3DK5DJ2QK","","425.70000000298023","img/land6.png","76","426.5","3","1","3","1","0.8,0.2,0.2,0.2,0.8,0.2,0.2,0.2,0.8","0.8,0.2,0.2,0.2,0.8,0.2,0.2,0.2,0.8","1","",""
"","html-keyboard-response","53","61482","0.0-53.0","3PB5A5BD0WSM76SGXGEUPZMEIJAG7C","A2196WCNDZULFS","3JUDR1D0D6D4CARU3YX9Y3DK5DJ2QK","","null","<img src=""img/land6.png"" style=""width:200px; border:14px solid green;"">","null","","","","","","","","","",""
"","image-keyboard-response","54","62123","0.0-54.0","3PB5A5BD0WSM76SGXGEUPZMEIJAG7C","A2196WCNDZULFS","3JUDR1D0D6D4CARU3YX9Y3DK5DJ2QK","","641.0999999940395","img/land6.png","76","641.9000000059605","3","1","3","1","0.8,0.2,0.2,0.2,0.8,0.2,0.2,0.2,0.8","0.8,0.2,0.2,0.2,0.8,0.2,0.2,0.2,0.8","1","",""
"","html-keyboard-response","55","62426","0.0-55.0","3PB5A5BD0WSM76SGXGEUPZMEIJAG7C","A2196WCNDZULFS","3JUDR1D0D6D4CARU3YX9Y3DK5DJ2QK","","null","<img src=""img/land6.png"" style=""width:200px; border:14px solid green;"">","null","","","","","","","","","",""
"","image-keyboard-response","56","63140","0.0-56.0","3PB5A5BD0WSM76SGXGEUPZMEIJAG7C","A2196WCNDZULFS","3JUDR1D0D6D4CARU3YX9Y3DK5DJ2QK","","712.7999999970198","img/land1.png","74","714","1","1","1","1","0.8,0.2,0.2,0.2,0.8,0.2,0.2,0.2,0.8","0.8,0.2,0.2,0.2,0.8,0.2,0.2,0.2,0.8","1","",""
"","html-keyboard-response","57","63442","0.0-57.0","3PB5A5BD0WSM76SGXGEUPZMEIJAG7C","A2196WCNDZULFS","3JUDR1D0D6D4CARU3YX9Y3DK5DJ2QK","","null","<img src=""img/land1.png"" style=""width:200px; border:14px solid green;"">","null","","","","","","","","","",""
"","image-keyboard-response","58","63972","0.0-58.0","3PB5A5BD0WSM76SGXGEUPZMEIJAG7C","A2196WCNDZULFS","3JUDR1D0D6D4CARU3YX9Y3DK5DJ2QK","","529.0999999940395","img/land4.png","75","529.9000000059605","2","1","2","1","0.8,0.2,0.2,0.2,0.8,0.2,0.2,0.2,0.8","0.8,0.2,0.2,0.2,0.8,0.2,0.2,0.2,0.8","1","",""
"","html-keyboard-response","59","64274","0.0-59.0","3PB5A5BD0WSM76SGXGEUPZMEIJAG7C","A2196WCNDZULFS","3JUDR1D0D6D4CARU3YX9Y3DK5DJ2QK","","null","<img src=""img/land4.png"" style=""width:200px; border:14px solid green;"">","null","","","","","","","","","",""
"","image-keyboard-response","60","64780","0.0-60.0","3PB5A5BD0WSM76SGXGEUPZMEIJAG7C","A2196WCNDZULFS","3JUDR1D0D6D4CARU3YX9Y3DK5DJ2QK","","504.6000000089407","img/land4.png","75","505.79999999701977","2","1","2","1","0.8,0.2,0.2,0.2,0.8,0.2,0.2,0.2,0.8","0.8,0.2,0.2,0.2,0.8,0.2,0.2,0.2,0.8","1","",""
"","html-keyboard-response","61","65082","0.0-61.0","3PB5A5BD0WSM76SGXGEUPZMEIJAG7C","A2196WCNDZULFS","3JUDR1D0D6D4CARU3YX9Y3DK5DJ2QK","","null","<img src=""img/land4.png"" style=""width:200px; border:14px solid green;"">","null","","","","","","","","","",""
"","image-keyboard-response","62","65571","0.0-62.0","3PB5A5BD0WSM76SGXGEUPZMEIJAG7C","A2196WCNDZULFS","3JUDR1D0D6D4CARU3YX9Y3DK5DJ2QK","","487.40000000596046","img/land4.png","75","488.59999999403954","2","0","2","1","0.8,0.2,0.2,0.2,0.8,0.2,0.2,0.2,0.8","0.8,0.2,0.2,0.2,0.8,0.2,0.2,0.2,0.8","1","",""
"","html-keyboard-response","63","65873","0.0-63.0","3PB5A5BD0WSM76SGXGEUPZMEIJAG7C","A2196WCNDZULFS","3JUDR1D0D6D4CARU3YX9Y3DK5DJ2QK","","null","<img src=""img/land4.png"" style=""width:200px;border:14px solid red;"">","null","","","","","","","","","",""
"","image-keyboard-response","64","66674","0.0-64.0","3PB5A5BD0WSM76SGXGEUPZMEIJAG7C","A2196WCNDZULFS","3JUDR1D0D6D4CARU3YX9Y3DK5DJ2QK","","800","img/land1.png","74","801.0999999940395","1","1","1","1","0.8,0.2,0.2,0.2,0.8,0.2,0.2,0.2,0.8","0.8,0.2,0.2,0.2,0.8,0.2,0.2,0.2,0.8","1","",""
"","html-keyboard-response","65","66976","0.0-65.0","3PB5A5BD0WSM76SGXGEUPZMEIJAG7C","A2196WCNDZULFS","3JUDR1D0D6D4CARU3YX9Y3DK5DJ2QK","","null","<img src=""img/land1.png"" style=""width:200px; border:14px solid green;"">","null","","","","","","","","","",""
"","image-keyboard-response","66","67492","0.0-66.0","3PB5A5BD0WSM76SGXGEUPZMEIJAG7C","A2196WCNDZULFS","3JUDR1D0D6D4CARU3YX9Y3DK5DJ2QK","","514.4000000059605","img/land4.png","75","515.7999999970198","2","1","2","1","0.8,0.2,0.2,0.2,0.8,0.2,0.2,0.2,0.8","0.8,0.2,0.2,0.2,0.8,0.2,0.2,0.2,0.8","1","",""
"","html-keyboard-response","67","67794","0.0-67.0","3PB5A5BD0WSM76SGXGEUPZMEIJAG7C","A2196WCNDZULFS","3JUDR1D0D6D4CARU3YX9Y3DK5DJ2QK","","null","<img src=""img/land4.png"" style=""width:200px; border:14px solid green;"">","null","","","","","","","","","",""
"","image-keyboard-response","68","68548","0.0-68.0","3PB5A5BD0WSM76SGXGEUPZMEIJAG7C","A2196WCNDZULFS","3JUDR1D0D6D4CARU3YX9Y3DK5DJ2QK","","752.7999999970198","img/land1.png","74","753.5","1","0","1","1","0.8,0.2,0.2,0.2,0.8,0.2,0.2,0.2,0.8","0.8,0.2,0.2,0.2,0.8,0.2,0.2,0.2,0.8","1","",""
"","html-keyboard-response","69","68850","0.0-69.0","3PB5A5BD0WSM76SGXGEUPZMEIJAG7C","A2196WCNDZULFS","3JUDR1D0D6D4CARU3YX9Y3DK5DJ2QK","","null","<img src=""img/land1.png"" style=""width:200px;border:14px solid red;"">","null","","","","","","","","","",""
"","image-keyboard-response","70","69611","0.0-70.0","3PB5A5BD0WSM76SGXGEUPZMEIJAG7C","A2196WCNDZULFS","3JUDR1D0D6D4CARU3YX9Y3DK5DJ2QK","","759.7000000029802","img/land6.png","76","760.8000000119209","3","1","3","1","0.8,0.2,0.2,0.2,0.8,0.2,0.2,0.2,0.8","0.8,0.2,0.2,0.2,0.8,0.2,0.2,0.2,0.8","1","",""
"","html-keyboard-response","71","69913","0.0-71.0","3PB5A5BD0WSM76SGXGEUPZMEIJAG7C","A2196WCNDZULFS","3JUDR1D0D6D4CARU3YX9Y3DK5DJ2QK","","null","<img src=""img/land6.png"" style=""width:200px; border:14px solid green;"">","null","","","","","","","","","",""
"","image-keyboard-response","72","70739","0.0-72.0","3PB5A5BD0WSM76SGXGEUPZMEIJAG7C","A2196WCNDZULFS","3JUDR1D0D6D4CARU3YX9Y3DK5DJ2QK","","824.2999999970198","img/land4.png","75","825.5999999940395","2","1","2","1","0.8,0.2,0.2,0.2,0.8,0.2,0.2,0.2,0.8","0.8,0.2,0.2,0.2,0.8,0.2,0.2,0.2,0.8","1","",""
"","html-keyboard-response","73","71042","0.0-73.0","3PB5A5BD0WSM76SGXGEUPZMEIJAG7C","A2196WCNDZULFS","3JUDR1D0D6D4CARU3YX9Y3DK5DJ2QK","","null","<img src=""img/land4.png"" style=""width:200px; border:14px solid green;"">","null","","","","","","","","","",""
"","image-keyboard-response","74","71538","0.0-74.0","3PB5A5BD0WSM76SGXGEUPZMEIJAG7C","A2196WCNDZULFS","3JUDR1D0D6D4CARU3YX9Y3DK5DJ2QK","","495.09999999403954","img/land4.png","75","496.29999999701977","2","1","2","1","0.8,0.2,0.2,0.2,0.8,0.2,0.2,0.2,0.8","0.8,0.2,0.2,0.2,0.8,0.2,0.2,0.2,0.8","1","",""
"","html-keyboard-response","75","71841","0.0-75.0","3PB5A5BD0WSM76SGXGEUPZMEIJAG7C","A2196WCNDZULFS","3JUDR1D0D6D4CARU3YX9Y3DK5DJ2QK","","null","<img src=""img/land4.png"" style=""width:200px; border:14px solid green;"">","null","","","","","","","","","",""
"","image-keyboard-response","76","72379","0.0-76.0","3PB5A5BD0WSM76SGXGEUPZMEIJAG7C","A2196WCNDZULFS","3JUDR1D0D6D4CARU3YX9Y3DK5DJ2QK","","537","img/land4.png","75","538","2","1","2","1","0.8,0.2,0.2,0.2,0.8,0.2,0.2,0.2,0.8","0.8,0.2,0.2,0.2,0.8,0.2,0.2,0.2,0.8","1","",""
"","html-keyboard-response","77","72681","0.0-77.0","3PB5A5BD0WSM76SGXGEUPZMEIJAG7C","A2196WCNDZULFS","3JUDR1D0D6D4CARU3YX9Y3DK5DJ2QK","","null","<img src=""img/land4.png"" style=""width:200px; border:14px solid green;"">","null","","","","","","","","","",""
"","image-keyboard-response","78","73332","0.0-78.0","3PB5A5BD0WSM76SGXGEUPZMEIJAG7C","A2196WCNDZULFS","3JUDR1D0D6D4CARU3YX9Y3DK5DJ2QK","","650.0999999940395","img/land4.png","75","651.1000000089407","2","1","2","1","0.8,0.2,0.2,0.2,0.8,0.2,0.2,0.2,0.8","0.8,0.2,0.2,0.2,0.8,0.2,0.2,0.2,0.8","1","",""
"","html-keyboard-response","79","73633","0.0-79.0","3PB5A5BD0WSM76SGXGEUPZMEIJAG7C","A2196WCNDZULFS","3JUDR1D0D6D4CARU3YX9Y3DK5DJ2QK","","null","<img src=""img/land4.png"" style=""width:200px; border:14px solid green;"">","null","","","","","","","","","",""
"","image-keyboard-response","80","74308","0.0-80.0","3PB5A5BD0WSM76SGXGEUPZMEIJAG7C","A2196WCNDZULFS","3JUDR1D0D6D4CARU3YX9Y3DK5DJ2QK","","672.6999999880791","img/land1.png","74","674.5999999940395","1","0","1","1","0.8,0.2,0.2,0.2,0.8,0.2,0.2,0.2,0.8","0.8,0.2,0.2,0.2,0.8,0.2,0.2,0.2,0.8","1","",""
"","html-keyboard-response","81","74611","0.0-81.0","3PB5A5BD0WSM76SGXGEUPZMEIJAG7C","A2196WCNDZULFS","3JUDR1D0D6D4CARU3YX9Y3DK5DJ2QK","","null","<img src=""img/land1.png"" style=""width:200px;border:14px solid red;"">","null","","","","","","","","","",""
"","image-keyboard-response","82","75108","0.0-82.0","3PB5A5BD0WSM76SGXGEUPZMEIJAG7C","A2196WCNDZULFS","3JUDR1D0D6D4CARU3YX9Y3DK5DJ2QK","","496.1000000089407","img/land1.png","74","496.8999999910593","1","1","1","1","0.8,0.2,0.2,0.2,0.8,0.2,0.2,0.2,0.8","0.8,0.2,0.2,0.2,0.8,0.2,0.2,0.2,0.8","1","",""
"","html-keyboard-response","83","75411","0.0-83.0","3PB5A5BD0WSM76SGXGEUPZMEIJAG7C","A2196WCNDZULFS","3JUDR1D0D6D4CARU3YX9Y3DK5DJ2QK","","null","<img src=""img/land1.png"" style=""width:200px; border:14px solid green;"">","null","","","","","","","","","",""
"","image-keyboard-response","84","76020","0.0-84.0","3PB5A5BD0WSM76SGXGEUPZMEIJAG7C","A2196WCNDZULFS","3JUDR1D0D6D4CARU3YX9Y3DK5DJ2QK","","608.0999999940395","img/land4.png","75","609.2999999970198","2","1","2","1","0.8,0.2,0.2,0.2,0.8,0.2,0.2,0.2,0.8","0.8,0.2,0.2,0.2,0.8,0.2,0.2,0.2,0.8","1","",""
"","html-keyboard-response","85","76322","0.0-85.0","3PB5A5BD0WSM76SGXGEUPZMEIJAG7C","A2196WCNDZULFS","3JUDR1D0D6D4CARU3YX9Y3DK5DJ2QK","","null","<img src=""img/land4.png"" style=""width:200px; border:14px solid green;"">","null","","","","","","","","","",""
"","image-keyboard-response","86","76979","0.0-86.0","3PB5A5BD0WSM76SGXGEUPZMEIJAG7C","A2196WCNDZULFS","3JUDR1D0D6D4CARU3YX9Y3DK5DJ2QK","","655.8999999910593","img/land6.png","76","656.9000000059605","3","0","3","1","0.8,0.2,0.2,0.2,0.8,0.2,0.2,0.2,0.8","0.8,0.2,0.2,0.2,0.8,0.2,0.2,0.2,0.8","1","",""
"","html-keyboard-response","87","77288","0.0-87.0","3PB5A5BD0WSM76SGXGEUPZMEIJAG7C","A2196WCNDZULFS","3JUDR1D0D6D4CARU3YX9Y3DK5DJ2QK","","null","<img src=""img/land6.png"" style=""width:200px;border:14px solid red;"">","null","","","","","","","","","",""
"","image-keyboard-response","88","78020","0.0-88.0","3PB5A5BD0WSM76SGXGEUPZMEIJAG7C","A2196WCNDZULFS","3JUDR1D0D6D4CARU3YX9Y3DK5DJ2QK","","730.2000000029802","img/land1.png","74","731.8000000119209","1","0","1","1","0.8,0.2,0.2,0.2,0.8,0.2,0.2,0.2,0.8","0.8,0.2,0.2,0.2,0.8,0.2,0.2,0.2,0.8","1","",""
"","html-keyboard-response","89","78323","0.0-89.0","3PB5A5BD0WSM76SGXGEUPZMEIJAG7C","A2196WCNDZULFS","3JUDR1D0D6D4CARU3YX9Y3DK5DJ2QK","","null","<img src=""img/land1.png"" style=""width:200px;border:14px solid red;"">","null","","","","","","","","","",""
"","image-keyboard-response","90","79163","0.0-90.0","3PB5A5BD0WSM76SGXGEUPZMEIJAG7C","A2196WCNDZULFS","3JUDR1D0D6D4CARU3YX9Y3DK5DJ2QK","","839","img/land6.png","76","840.2000000029802","3","1","3","1","0.8,0.2,0.2,0.2,0.8,0.2,0.2,0.2,0.8","0.8,0.2,0.2,0.2,0.8,0.2,0.2,0.2,0.8","1","",""
"","html-keyboard-response","91","79465","0.0-91.0","3PB5A5BD0WSM76SGXGEUPZMEIJAG7C","A2196WCNDZULFS","3JUDR1D0D6D4CARU3YX9Y3DK5DJ2QK","","null","<img src=""img/land6.png"" style=""width:200px; border:14px solid green;"">","null","","","","","","","","","",""
"","image-keyboard-response","92","80012","0.0-92.0","3PB5A5BD0WSM76SGXGEUPZMEIJAG7C","A2196WCNDZULFS","3JUDR1D0D6D4CARU3YX9Y3DK5DJ2QK","","545.9000000059605","img/land6.png","76","547.0999999940395","3","0","3","1","0.8,0.2,0.2,0.2,0.8,0.2,0.2,0.2,0.8","0.8,0.2,0.2,0.2,0.8,0.2,0.2,0.2,0.8","1","",""
"","html-keyboard-response","93","80314","0.0-93.0","3PB5A5BD0WSM76SGXGEUPZMEIJAG7C","A2196WCNDZULFS","3JUDR1D0D6D4CARU3YX9Y3DK5DJ2QK","","null","<img src=""img/land6.png"" style=""width:200px;border:14px solid red;"">","null","","","","","","","","","",""
"","image-keyboard-response","94","80964","0.0-94.0","3PB5A5BD0WSM76SGXGEUPZMEIJAG7C","A2196WCNDZULFS","3JUDR1D0D6D4CARU3YX9Y3DK5DJ2QK","","648.5","img/land6.png","76","649.5999999940395","3","1","3","1","0.8,0.2,0.2,0.2,0.8,0.2,0.2,0.2,0.8","0.8,0.2,0.2,0.2,0.8,0.2,0.2,0.2,0.8","1","",""
"","html-keyboard-response","95","81267","0.0-95.0","3PB5A5BD0WSM76SGXGEUPZMEIJAG7C","A2196WCNDZULFS","3JUDR1D0D6D4CARU3YX9Y3DK5DJ2QK","","null","<img src=""img/land6.png"" style=""width:200px; border:14px solid green;"">","null","","","","","","","","","",""
"","image-keyboard-response","96","81844","0.0-96.0","3PB5A5BD0WSM76SGXGEUPZMEIJAG7C","A2196WCNDZULFS","3JUDR1D0D6D4CARU3YX9Y3DK5DJ2QK","","575.9000000059605","img/land6.png","76","577","3","0","3","1","0.8,0.2,0.2,0.2,0.8,0.2,0.2,0.2,0.8","0.8,0.2,0.2,0.2,0.8,0.2,0.2,0.2,0.8","1","",""
"","html-keyboard-response","97","82146","0.0-97.0","3PB5A5BD0WSM76SGXGEUPZMEIJAG7C","A2196WCNDZULFS","3JUDR1D0D6D4CARU3YX9Y3DK5DJ2QK","","null","<img src=""img/land6.png"" style=""width:200px;border:14px solid red;"">","null","","","","","","","","","",""
"","image-keyboard-response","98","82995","0.0-98.0","3PB5A5BD0WSM76SGXGEUPZMEIJAG7C","A2196WCNDZULFS","3JUDR1D0D6D4CARU3YX9Y3DK5DJ2QK","","848.5999999940395","img/land4.png","75","849.5","2","1","2","1","0.8,0.2,0.2,0.2,0.8,0.2,0.2,0.2,0.8","0.8,0.2,0.2,0.2,0.8,0.2,0.2,0.2,0.8","1","",""
"","html-keyboard-response","99","83297","0.0-99.0","3PB5A5BD0WSM76SGXGEUPZMEIJAG7C","A2196WCNDZULFS","3JUDR1D0D6D4CARU3YX9Y3DK5DJ2QK","","null","<img src=""img/land4.png"" style=""width:200px; border:14px solid green;"">","null","","","","","","","","","",""
"","image-keyboard-response","100","83852","0.0-100.0","3PB5A5BD0WSM76SGXGEUPZMEIJAG7C","A2196WCNDZULFS","3JUDR1D0D6D4CARU3YX9Y3DK5DJ2QK","","553.6000000089407","img/land4.png","75","554.5","2","1","2","1","0.8,0.2,0.2,0.2,0.8,0.2,0.2,0.2,0.8","0.8,0.2,0.2,0.2,0.8,0.2,0.2,0.2,0.8","1","",""
"","html-keyboard-response","101","84153","0.0-101.0","3PB5A5BD0WSM76SGXGEUPZMEIJAG7C","A2196WCNDZULFS","3JUDR1D0D6D4CARU3YX9Y3DK5DJ2QK","","null","<img src=""img/land4.png"" style=""width:200px; border:14px solid green;"">","null","","","","","","","","","",""
"","image-keyboard-response","102","84724","0.0-102.0","3PB5A5BD0WSM76SGXGEUPZMEIJAG7C","A2196WCNDZULFS","3JUDR1D0D6D4CARU3YX9Y3DK5DJ2QK","","570","img/land4.png","75","571","2","0","2","1","0.8,0.2,0.2,0.2,0.8,0.2,0.2,0.2,0.8","0.8,0.2,0.2,0.2,0.8,0.2,0.2,0.2,0.8","1","",""
"","html-keyboard-response","103","85026","0.0-103.0","3PB5A5BD0WSM76SGXGEUPZMEIJAG7C","A2196WCNDZULFS","3JUDR1D0D6D4CARU3YX9Y3DK5DJ2QK","","null","<img src=""img/land4.png"" style=""width:200px;border:14px solid red;"">","null","","","","","","","","","",""
"","image-keyboard-response","104","85669","0.0-104.0","3PB5A5BD0WSM76SGXGEUPZMEIJAG7C","A2196WCNDZULFS","3JUDR1D0D6D4CARU3YX9Y3DK5DJ2QK","","641.5","img/land6.png","76","642.6000000089407","3","1","3","1","0.8,0.2,0.2,0.2,0.8,0.2,0.2,0.2,0.8","0.8,0.2,0.2,0.2,0.8,0.2,0.2,0.2,0.8","1","",""
"","html-keyboard-response","105","85970","0.0-105.0","3PB5A5BD0WSM76SGXGEUPZMEIJAG7C","A2196WCNDZULFS","3JUDR1D0D6D4CARU3YX9Y3DK5DJ2QK","","null","<img src=""img/land6.png"" style=""width:200px; border:14px solid green;"">","null","","","","","","","","","",""
"","image-keyboard-response","106","86691","0.0-106.0","3PB5A5BD0WSM76SGXGEUPZMEIJAG7C","A2196WCNDZULFS","3JUDR1D0D6D4CARU3YX9Y3DK5DJ2QK","","719.5999999940395","img/land4.png","75","720.3000000119209","2","0","2","1","0.8,0.2,0.2,0.2,0.8,0.2,0.2,0.2,0.8","0.8,0.2,0.2,0.2,0.8,0.2,0.2,0.2,0.8","1","",""
"","html-keyboard-response","107","86992","0.0-107.0","3PB5A5BD0WSM76SGXGEUPZMEIJAG7C","A2196WCNDZULFS","3JUDR1D0D6D4CARU3YX9Y3DK5DJ2QK","","null","<img src=""img/land4.png"" style=""width:200px;border:14px solid red;"">","null","","","","","","","","","",""
"","image-keyboard-response","108","87652","0.0-108.0","3PB5A5BD0WSM76SGXGEUPZMEIJAG7C","A2196WCNDZULFS","3JUDR1D0D6D4CARU3YX9Y3DK5DJ2QK","","658.5","img/land1.png","74","659.7000000029802","1","1","1","1","0.8,0.2,0.2,0.2,0.8,0.2,0.2,0.2,0.8","0.8,0.2,0.2,0.2,0.8,0.2,0.2,0.2,0.8","1","",""
"","html-keyboard-response","109","87954","0.0-109.0","3PB5A5BD0WSM76SGXGEUPZMEIJAG7C","A2196WCNDZULFS","3JUDR1D0D6D4CARU3YX9Y3DK5DJ2QK","","null","<img src=""img/land1.png"" style=""width:200px; border:14px solid green;"">","null","","","","","","","","","",""
"","image-keyboard-response","110","88413","0.0-110.0","3PB5A5BD0WSM76SGXGEUPZMEIJAG7C","A2196WCNDZULFS","3JUDR1D0D6D4CARU3YX9Y3DK5DJ2QK","","457","img/land1.png","74","458.1000000089407","1","1","1","1","0.8,0.2,0.2,0.2,0.8,0.2,0.2,0.2,0.8","0.8,0.2,0.2,0.2,0.8,0.2,0.2,0.2,0.8","1","",""
"","html-keyboard-response","111","88715","0.0-111.0","3PB5A5BD0WSM76SGXGEUPZMEIJAG7C","A2196WCNDZULFS","3JUDR1D0D6D4CARU3YX9Y3DK5DJ2QK","","null","<img src=""img/land1.png"" style=""width:200px; border:14px solid green;"">","null","","","","","","","","","",""
"","image-keyboard-response","112","89292","0.0-112.0","3PB5A5BD0WSM76SGXGEUPZMEIJAG7C","A2196WCNDZULFS","3JUDR1D0D6D4CARU3YX9Y3DK5DJ2QK","","575.7999999970198","img/land4.png","75","576.5999999940395","2","1","2","1","0.8,0.2,0.2,0.2,0.8,0.2,0.2,0.2,0.8","0.8,0.2,0.2,0.2,0.8,0.2,0.2,0.2,0.8","1","",""
"","html-keyboard-response","113","89595","0.0-113.0","3PB5A5BD0WSM76SGXGEUPZMEIJAG7C","A2196WCNDZULFS","3JUDR1D0D6D4CARU3YX9Y3DK5DJ2QK","","null","<img src=""img/land4.png"" style=""width:200px; border:14px solid green;"">","null","","","","","","","","","",""
"","image-keyboard-response","114","90324","0.0-114.0","3PB5A5BD0WSM76SGXGEUPZMEIJAG7C","A2196WCNDZULFS","3JUDR1D0D6D4CARU3YX9Y3DK5DJ2QK","","728.2999999970198","img/land6.png","76","729.0999999940395","3","1","3","1","0.8,0.2,0.2,0.2,0.8,0.2,0.2,0.2,0.8","0.8,0.2,0.2,0.2,0.8,0.2,0.2,0.2,0.8","1","",""
"","html-keyboard-response","115","90626","0.0-115.0","3PB5A5BD0WSM76SGXGEUPZMEIJAG7C","A2196WCNDZULFS","3JUDR1D0D6D4CARU3YX9Y3DK5DJ2QK","","null","<img src=""img/land6.png"" style=""width:200px; border:14px solid green;"">","null","","","","","","","","","",""
"","image-keyboard-response","116","91347","0.0-116.0","3PB5A5BD0WSM76SGXGEUPZMEIJAG7C","A2196WCNDZULFS","3JUDR1D0D6D4CARU3YX9Y3DK5DJ2QK","","720.7999999970198","img/land4.png","75","721.2999999970198","2","1","2","1","0.8,0.2,0.2,0.2,0.8,0.2,0.2,0.2,0.8","0.8,0.2,0.2,0.2,0.8,0.2,0.2,0.2,0.8","1","",""
"","html-keyboard-response","117","91649","0.0-117.0","3PB5A5BD0WSM76SGXGEUPZMEIJAG7C","A2196WCNDZULFS","3JUDR1D0D6D4CARU3YX9Y3DK5DJ2QK","","null","<img src=""img/land4.png"" style=""width:200px; border:14px solid green;"">","null","","","","","","","","","",""
"","image-keyboard-response","118","92180","0.0-118.0","3PB5A5BD0WSM76SGXGEUPZMEIJAG7C","A2196WCNDZULFS","3JUDR1D0D6D4CARU3YX9Y3DK5DJ2QK","","529.0999999940395","img/land1.png","74","530.5","1","1","1","1","0.8,0.2,0.2,0.2,0.8,0.2,0.2,0.2,0.8","0.8,0.2,0.2,0.2,0.8,0.2,0.2,0.2,0.8","1","",""
"","html-keyboard-response","119","92482","0.0-119.0","3PB5A5BD0WSM76SGXGEUPZMEIJAG7C","A2196WCNDZULFS","3JUDR1D0D6D4CARU3YX9Y3DK5DJ2QK","","null","<img src=""img/land1.png"" style=""width:200px; border:14px solid green;"">","null","","","","","","","","","",""
"","image-keyboard-response","120","92987","0.0-120.0","3PB5A5BD0WSM76SGXGEUPZMEIJAG7C","A2196WCNDZULFS","3JUDR1D0D6D4CARU3YX9Y3DK5DJ2QK","","503.69999998807907","img/land1.png","74","504.70000000298023","1","0","1","1","0.8,0.2,0.2,0.2,0.8,0.2,0.2,0.2,0.8","0.8,0.2,0.2,0.2,0.8,0.2,0.2,0.2,0.8","1","",""
"","html-keyboard-response","121","93288","0.0-121.0","3PB5A5BD0WSM76SGXGEUPZMEIJAG7C","A2196WCNDZULFS","3JUDR1D0D6D4CARU3YX9Y3DK5DJ2QK","","null","<img src=""img/land1.png"" style=""width:200px;border:14px solid red;"">","null","","","","","","","","","",""
"","image-keyboard-response","122","94189","0.0-122.0","3PB5A5BD0WSM76SGXGEUPZMEIJAG7C","A2196WCNDZULFS","3JUDR1D0D6D4CARU3YX9Y3DK5DJ2QK","","900","img/land6.png","76","900.7000000029802","3","1","3","1","0.8,0.2,0.2,0.2,0.8,0.2,0.2,0.2,0.8","0.8,0.2,0.2,0.2,0.8,0.2,0.2,0.2,0.8","1","",""
"","html-keyboard-response","123","94491","0.0-123.0","3PB5A5BD0WSM76SGXGEUPZMEIJAG7C","A2196WCNDZULFS","3JUDR1D0D6D4CARU3YX9Y3DK5DJ2QK","","null","<img src=""img/land6.png"" style=""width:200px; border:14px solid green;"">","null","","","","","","","","","",""
"","image-keyboard-response","124","95299","0.0-124.0","3PB5A5BD0WSM76SGXGEUPZMEIJAG7C","A2196WCNDZULFS","3JUDR1D0D6D4CARU3YX9Y3DK5DJ2QK","","807.0999999940395","img/land1.png","74","807.7999999970198","1","0","1","1","0.8,0.2,0.2,0.2,0.8,0.2,0.2,0.2,0.8","0.8,0.2,0.2,0.2,0.8,0.2,0.2,0.2,0.8","1","",""
"","html-keyboard-response","125","95601","0.0-125.0","3PB5A5BD0WSM76SGXGEUPZMEIJAG7C","A2196WCNDZULFS","3JUDR1D0D6D4CARU3YX9Y3DK5DJ2QK","","null","<img src=""img/land1.png"" style=""width:200px;border:14px solid red;"">","null","","","","","","","","","",""
"","image-keyboard-response","126","96451","0.0-126.0","3PB5A5BD0WSM76SGXGEUPZMEIJAG7C","A2196WCNDZULFS","3JUDR1D0D6D4CARU3YX9Y3DK5DJ2QK","","848.7999999970198","img/land6.png","76","849.6000000089407","3","0","3","1","0.8,0.2,0.2,0.2,0.8,0.2,0.2,0.2,0.8","0.8,0.2,0.2,0.2,0.8,0.2,0.2,0.2,0.8","1","",""
"","html-keyboard-response","127","96753","0.0-127.0","3PB5A5BD0WSM76SGXGEUPZMEIJAG7C","A2196WCNDZULFS","3JUDR1D0D6D4CARU3YX9Y3DK5DJ2QK","","null","<img src=""img/land6.png"" style=""width:200px;border:14px solid red;"">","null","","","","","","","","","",""
"","image-keyboard-response","128","97253","0.0-128.0","3PB5A5BD0WSM76SGXGEUPZMEIJAG7C","A2196WCNDZULFS","3JUDR1D0D6D4CARU3YX9Y3DK5DJ2QK","","498.5","img/land6.png","76","499.70000000298023","3","1","3","1","0.8,0.2,0.2,0.2,0.8,0.2,0.2,0.2,0.8","0.8,0.2,0.2,0.2,0.8,0.2,0.2,0.2,0.8","1","",""
"","html-keyboard-response","129","97556","0.0-129.0","3PB5A5BD0WSM76SGXGEUPZMEIJAG7C","A2196WCNDZULFS","3JUDR1D0D6D4CARU3YX9Y3DK5DJ2QK","","null","<img src=""img/land6.png"" style=""width:200px; border:14px solid green;"">","null","","","","","","","","","",""
"","image-keyboard-response","130","98252","0.0-130.0","3PB5A5BD0WSM76SGXGEUPZMEIJAG7C","A2196WCNDZULFS","3JUDR1D0D6D4CARU3YX9Y3DK5DJ2QK","","695.2000000029802","img/land1.png","74","696.0999999940395","1","0","1","1","0.8,0.2,0.2,0.2,0.8,0.2,0.2,0.2,0.8","0.8,0.2,0.2,0.2,0.8,0.2,0.2,0.2,0.8","1","",""
"","html-keyboard-response","131","98554","0.0-131.0","3PB5A5BD0WSM76SGXGEUPZMEIJAG7C","A2196WCNDZULFS","3JUDR1D0D6D4CARU3YX9Y3DK5DJ2QK","","null","<img src=""img/land1.png"" style=""width:200px;border:14px solid red;"">","null","","","","","","","","","",""
"","image-keyboard-response","132","99340","0.0-132.0","3PB5A5BD0WSM76SGXGEUPZMEIJAG7C","A2196WCNDZULFS","3JUDR1D0D6D4CARU3YX9Y3DK5DJ2QK","","785.5999999940395","img/land4.png","75","786.6000000089407","2","0","2","1","0.8,0.2,0.2,0.2,0.8,0.2,0.2,0.2,0.8","0.8,0.2,0.2,0.2,0.8,0.2,0.2,0.2,0.8","1","",""
"","html-keyboard-response","133","99642","0.0-133.0","3PB5A5BD0WSM76SGXGEUPZMEIJAG7C","A2196WCNDZULFS","3JUDR1D0D6D4CARU3YX9Y3DK5DJ2QK","","null","<img src=""img/land4.png"" style=""width:200px;border:14px solid red;"">","null","","","","","","","","","",""
"","image-keyboard-response","134","100124","0.0-134.0","3PB5A5BD0WSM76SGXGEUPZMEIJAG7C","A2196WCNDZULFS","3JUDR1D0D6D4CARU3YX9Y3DK5DJ2QK","","480.59999999403954","img/land4.png","75","481.79999999701977","2","1","2","1","0.8,0.2,0.2,0.2,0.8,0.2,0.2,0.2,0.8","0.8,0.2,0.2,0.2,0.8,0.2,0.2,0.2,0.8","1","",""
"","html-keyboard-response","135","100426","0.0-135.0","3PB5A5BD0WSM76SGXGEUPZMEIJAG7C","A2196WCNDZULFS","3JUDR1D0D6D4CARU3YX9Y3DK5DJ2QK","","null","<img src=""img/land4.png"" style=""width:200px; border:14px solid green;"">","null","","","","","","","","","",""
"","image-keyboard-response","136","101084","0.0-136.0","3PB5A5BD0WSM76SGXGEUPZMEIJAG7C","A2196WCNDZULFS","3JUDR1D0D6D4CARU3YX9Y3DK5DJ2QK","","656","img/land1.png","74","657.0999999940395","1","1","1","1","0.8,0.2,0.2,0.2,0.8,0.2,0.2,0.2,0.8","0.8,0.2,0.2,0.2,0.8,0.2,0.2,0.2,0.8","1","",""
"","html-keyboard-response","137","101386","0.0-137.0","3PB5A5BD0WSM76SGXGEUPZMEIJAG7C","A2196WCNDZULFS","3JUDR1D0D6D4CARU3YX9Y3DK5DJ2QK","","null","<img src=""img/land1.png"" style=""width:200px; border:14px solid green;"">","null","","","","","","","","","",""
"","image-keyboard-response","138","102068","0.0-138.0","3PB5A5BD0WSM76SGXGEUPZMEIJAG7C","A2196WCNDZULFS","3JUDR1D0D6D4CARU3YX9Y3DK5DJ2QK","","681.0999999940395","img/land6.png","76","681.8000000119209","3","1","3","1","0.8,0.2,0.2,0.2,0.8,0.2,0.2,0.2,0.8","0.8,0.2,0.2,0.2,0.8,0.2,0.2,0.2,0.8","1","",""
"","html-keyboard-response","139","102370","0.0-139.0","3PB5A5BD0WSM76SGXGEUPZMEIJAG7C","A2196WCNDZULFS","3JUDR1D0D6D4CARU3YX9Y3DK5DJ2QK","","null","<img src=""img/land6.png"" style=""width:200px; border:14px solid green;"">","null","","","","","","","","","",""
"","image-keyboard-response","140","103093","0.0-140.0","3PB5A5BD0WSM76SGXGEUPZMEIJAG7C","A2196WCNDZULFS","3JUDR1D0D6D4CARU3YX9Y3DK5DJ2QK","","721.1000000089407","img/land1.png","74","722.5999999940395","1","1","1","1","0.8,0.2,0.2,0.2,0.8,0.2,0.2,0.2,0.8","0.8,0.2,0.2,0.2,0.8,0.2,0.2,0.2,0.8","1","",""
"","html-keyboard-response","141","103400","0.0-141.0","3PB5A5BD0WSM76SGXGEUPZMEIJAG7C","A2196WCNDZULFS","3JUDR1D0D6D4CARU3YX9Y3DK5DJ2QK","","null","<img src=""img/land1.png"" style=""width:200px; border:14px solid green;"">","null","","","","","","","","","",""
"","image-keyboard-response","142","103917","0.0-142.0","3PB5A5BD0WSM76SGXGEUPZMEIJAG7C","A2196WCNDZULFS","3JUDR1D0D6D4CARU3YX9Y3DK5DJ2QK","","515","img/land1.png","74","516.2999999970198","1","1","1","1","0.8,0.2,0.2,0.2,0.8,0.2,0.2,0.2,0.8","0.8,0.2,0.2,0.2,0.8,0.2,0.2,0.2,0.8","1","",""
"","html-keyboard-response","143","104219","0.0-143.0","3PB5A5BD0WSM76SGXGEUPZMEIJAG7C","A2196WCNDZULFS","3JUDR1D0D6D4CARU3YX9Y3DK5DJ2QK","","null","<img src=""img/land1.png"" style=""width:200px; border:14px solid green;"">","null","","","","","","","","","",""
"","image-keyboard-response","144","104867","0.0-144.0","3PB5A5BD0WSM76SGXGEUPZMEIJAG7C","A2196WCNDZULFS","3JUDR1D0D6D4CARU3YX9Y3DK5DJ2QK","","647.8999999910593","img/land1.png","74","648.5","1","1","1","1","0.8,0.2,0.2,0.2,0.8,0.2,0.2,0.2,0.8","0.8,0.2,0.2,0.2,0.8,0.2,0.2,0.2,0.8","1","",""
"","html-keyboard-response","145","105169","0.0-145.0","3PB5A5BD0WSM76SGXGEUPZMEIJAG7C","A2196WCNDZULFS","3JUDR1D0D6D4CARU3YX9Y3DK5DJ2QK","","null","<img src=""img/land1.png"" style=""width:200px; border:14px solid green;"">","null","","","","","","","","","",""
"","image-keyboard-response","146","105717","0.0-146.0","3PB5A5BD0WSM76SGXGEUPZMEIJAG7C","A2196WCNDZULFS","3JUDR1D0D6D4CARU3YX9Y3DK5DJ2QK","","546.8999999910593","img/land1.png","74","547.9000000059605","1","1","1","1","0.8,0.2,0.2,0.2,0.8,0.2,0.2,0.2,0.8","0.8,0.2,0.2,0.2,0.8,0.2,0.2,0.2,0.8","1","",""
"","html-keyboard-response","147","106019","0.0-147.0","3PB5A5BD0WSM76SGXGEUPZMEIJAG7C","A2196WCNDZULFS","3JUDR1D0D6D4CARU3YX9Y3DK5DJ2QK","","null","<img src=""img/land1.png"" style=""width:200px; border:14px solid green;"">","null","","","","","","","","","",""
"","image-keyboard-response","148","106524","0.0-148.0","3PB5A5BD0WSM76SGXGEUPZMEIJAG7C","A2196WCNDZULFS","3JUDR1D0D6D4CARU3YX9Y3DK5DJ2QK","","504.09999999403954","img/land1.png","74","504.70000000298023","1","0","1","1","0.8,0.2,0.2,0.2,0.8,0.2,0.2,0.2,0.8","0.8,0.2,0.2,0.2,0.8,0.2,0.2,0.2,0.8","1","",""
"","html-keyboard-response","149","106825","0.0-149.0","3PB5A5BD0WSM76SGXGEUPZMEIJAG7C","A2196WCNDZULFS","3JUDR1D0D6D4CARU3YX9Y3DK5DJ2QK","","null","<img src=""img/land1.png"" style=""width:200px;border:14px solid red;"">","null","","","","","","","","","",""
"","image-keyboard-response","150","107396","0.0-150.0","3PB5A5BD0WSM76SGXGEUPZMEIJAG7C","A2196WCNDZULFS","3JUDR1D0D6D4CARU3YX9Y3DK5DJ2QK","","569.7999999970198","img/land1.png","74","570.5","1","1","1","1","0.8,0.2,0.2,0.2,0.8,0.2,0.2,0.2,0.8","0.8,0.2,0.2,0.2,0.8,0.2,0.2,0.2,0.8","1","",""
"","html-keyboard-response","151","107697","0.0-151.0","3PB5A5BD0WSM76SGXGEUPZMEIJAG7C","A2196WCNDZULFS","3JUDR1D0D6D4CARU3YX9Y3DK5DJ2QK","","null","<img src=""img/land1.png"" style=""width:200px; border:14px solid green;"">","null","","","","","","","","","",""
"","image-keyboard-response","152","108645","0.0-152.0","3PB5A5BD0WSM76SGXGEUPZMEIJAG7C","A2196WCNDZULFS","3JUDR1D0D6D4CARU3YX9Y3DK5DJ2QK","","946.8999999910593","img/land4.png","75","947.8000000119209","2","1","2","1","0.8,0.2,0.2,0.2,0.8,0.2,0.2,0.2,0.8","0.8,0.2,0.2,0.2,0.8,0.2,0.2,0.2,0.8","1","",""
"","html-keyboard-response","153","108947","0.0-153.0","3PB5A5BD0WSM76SGXGEUPZMEIJAG7C","A2196WCNDZULFS","3JUDR1D0D6D4CARU3YX9Y3DK5DJ2QK","","null","<img src=""img/land4.png"" style=""width:200px; border:14px solid green;"">","null","","","","","","","","","",""
"","image-keyboard-response","154","109429","0.0-154.0","3PB5A5BD0WSM76SGXGEUPZMEIJAG7C","A2196WCNDZULFS","3JUDR1D0D6D4CARU3YX9Y3DK5DJ2QK","","480.8999999910593","img/land4.png","75","481.8999999910593","2","1","2","1","0.8,0.2,0.2,0.2,0.8,0.2,0.2,0.2,0.8","0.8,0.2,0.2,0.2,0.8,0.2,0.2,0.2,0.8","1","",""
"","html-keyboard-response","155","109732","0.0-155.0","3PB5A5BD0WSM76SGXGEUPZMEIJAG7C","A2196WCNDZULFS","3JUDR1D0D6D4CARU3YX9Y3DK5DJ2QK","","null","<img src=""img/land4.png"" style=""width:200px; border:14px solid green;"">","null","","","","","","","","","",""
"","image-keyboard-response","156","110308","0.0-156.0","3PB5A5BD0WSM76SGXGEUPZMEIJAG7C","A2196WCNDZULFS","3JUDR1D0D6D4CARU3YX9Y3DK5DJ2QK","","575.5","img/land6.png","76","576","3","1","3","1","0.8,0.2,0.2,0.2,0.8,0.2,0.2,0.2,0.8","0.8,0.2,0.2,0.2,0.8,0.2,0.2,0.2,0.8","1","",""
"","html-keyboard-response","157","110609","0.0-157.0","3PB5A5BD0WSM76SGXGEUPZMEIJAG7C","A2196WCNDZULFS","3JUDR1D0D6D4CARU3YX9Y3DK5DJ2QK","","null","<img src=""img/land6.png"" style=""width:200px; border:14px solid green;"">","null","","","","","","","","","",""
"","image-keyboard-response","158","111029","0.0-158.0","3PB5A5BD0WSM76SGXGEUPZMEIJAG7C","A2196WCNDZULFS","3JUDR1D0D6D4CARU3YX9Y3DK5DJ2QK","","417.90000000596046","img/land6.png","76","418.90000000596046","3","0","3","1","0.8,0.2,0.2,0.2,0.8,0.2,0.2,0.2,0.8","0.8,0.2,0.2,0.2,0.8,0.2,0.2,0.2,0.8","1","",""
"","html-keyboard-response","159","111331","0.0-159.0","3PB5A5BD0WSM76SGXGEUPZMEIJAG7C","A2196WCNDZULFS","3JUDR1D0D6D4CARU3YX9Y3DK5DJ2QK","","null","<img src=""img/land6.png"" style=""width:200px;border:14px solid red;"">","null","","","","","","","","","",""
"","image-keyboard-response","160","112149","0.0-160.0","3PB5A5BD0WSM76SGXGEUPZMEIJAG7C","A2196WCNDZULFS","3JUDR1D0D6D4CARU3YX9Y3DK5DJ2QK","","815.9000000059605","img/land4.png","75","817.2000000029802","2","0","2","1","0.8,0.2,0.2,0.2,0.8,0.2,0.2,0.2,0.8","0.8,0.2,0.2,0.2,0.8,0.2,0.2,0.2,0.8","1","",""
"","html-keyboard-response","161","112451","0.0-161.0","3PB5A5BD0WSM76SGXGEUPZMEIJAG7C","A2196WCNDZULFS","3JUDR1D0D6D4CARU3YX9Y3DK5DJ2QK","","null","<img src=""img/land4.png"" style=""width:200px;border:14px solid red;"">","null","","","","","","","","","",""
"","image-keyboard-response","162","113157","0.0-162.0","3PB5A5BD0WSM76SGXGEUPZMEIJAG7C","A2196WCNDZULFS","3JUDR1D0D6D4CARU3YX9Y3DK5DJ2QK","","704.6999999880791","img/land6.png","76","705.7000000029802","3","1","3","1","0.8,0.2,0.2,0.2,0.8,0.2,0.2,0.2,0.8","0.8,0.2,0.2,0.2,0.8,0.2,0.2,0.2,0.8","1","",""
"","html-keyboard-response","163","113459","0.0-163.0","3PB5A5BD0WSM76SGXGEUPZMEIJAG7C","A2196WCNDZULFS","3JUDR1D0D6D4CARU3YX9Y3DK5DJ2QK","","null","<img src=""img/land6.png"" style=""width:200px; border:14px solid green;"">","null","","","","","","","","","",""
"","image-keyboard-response","164","114230","0.0-164.0","3PB5A5BD0WSM76SGXGEUPZMEIJAG7C","A2196WCNDZULFS","3JUDR1D0D6D4CARU3YX9Y3DK5DJ2QK","","769.3999999910593","img/land4.png","75","770.8000000119209","2","0","2","1","0.8,0.2,0.2,0.2,0.8,0.2,0.2,0.2,0.8","0.8,0.2,0.2,0.2,0.8,0.2,0.2,0.2,0.8","1","",""
"","html-keyboard-response","165","114532","0.0-165.0","3PB5A5BD0WSM76SGXGEUPZMEIJAG7C","A2196WCNDZULFS","3JUDR1D0D6D4CARU3YX9Y3DK5DJ2QK","","null","<img src=""img/land4.png"" style=""width:200px;border:14px solid red;"">","null","","","","","","","","","",""
"","image-keyboard-response","166","115213","0.0-166.0","3PB5A5BD0WSM76SGXGEUPZMEIJAG7C","A2196WCNDZULFS","3JUDR1D0D6D4CARU3YX9Y3DK5DJ2QK","","680.5","img/land6.png","76","681.2999999970198","3","1","3","1","0.8,0.2,0.2,0.2,0.8,0.2,0.2,0.2,0.8","0.8,0.2,0.2,0.2,0.8,0.2,0.2,0.2,0.8","1","",""
"","html-keyboard-response","167","115516","0.0-167.0","3PB5A5BD0WSM76SGXGEUPZMEIJAG7C","A2196WCNDZULFS","3JUDR1D0D6D4CARU3YX9Y3DK5DJ2QK","","null","<img src=""img/land6.png"" style=""width:200px; border:14px solid green;"">","null","","","","","","","","","",""
"","image-keyboard-response","168","115981","0.0-168.0","3PB5A5BD0WSM76SGXGEUPZMEIJAG7C","A2196WCNDZULFS","3JUDR1D0D6D4CARU3YX9Y3DK5DJ2QK","","464.30000001192093","img/land6.png","76","464.8999999910593","3","1","3","1","0.8,0.2,0.2,0.2,0.8,0.2,0.2,0.2,0.8","0.8,0.2,0.2,0.2,0.8,0.2,0.2,0.2,0.8","1","",""
"","html-keyboard-response","169","116283","0.0-169.0","3PB5A5BD0WSM76SGXGEUPZMEIJAG7C","A2196WCNDZULFS","3JUDR1D0D6D4CARU3YX9Y3DK5DJ2QK","","null","<img src=""img/land6.png"" style=""width:200px; border:14px solid green;"">","null","","","","","","","","","",""
"","image-keyboard-response","170","116957","0.0-170.0","3PB5A5BD0WSM76SGXGEUPZMEIJAG7C","A2196WCNDZULFS","3JUDR1D0D6D4CARU3YX9Y3DK5DJ2QK","","673.2000000029802","img/land4.png","75","674.0999999940395","2","1","2","1","0.8,0.2,0.2,0.2,0.8,0.2,0.2,0.2,0.8","0.8,0.2,0.2,0.2,0.8,0.2,0.2,0.2,0.8","1","",""
"","html-keyboard-response","171","117259","0.0-171.0","3PB5A5BD0WSM76SGXGEUPZMEIJAG7C","A2196WCNDZULFS","3JUDR1D0D6D4CARU3YX9Y3DK5DJ2QK","","null","<img src=""img/land4.png"" style=""width:200px; border:14px solid green;"">","null","","","","","","","","","",""
"","image-keyboard-response","172","117677","0.0-172.0","3PB5A5BD0WSM76SGXGEUPZMEIJAG7C","A2196WCNDZULFS","3JUDR1D0D6D4CARU3YX9Y3DK5DJ2QK","","417.70000000298023","img/land1.png","74","418.59999999403954","1","1","1","1","0.8,0.2,0.2,0.2,0.8,0.2,0.2,0.2,0.8","0.8,0.2,0.2,0.2,0.8,0.2,0.2,0.2,0.8","1","",""
"","html-keyboard-response","173","117979","0.0-173.0","3PB5A5BD0WSM76SGXGEUPZMEIJAG7C","A2196WCNDZULFS","3JUDR1D0D6D4CARU3YX9Y3DK5DJ2QK","","null","<img src=""img/land1.png"" style=""width:200px; border:14px solid green;"">","null","","","","","","","","","",""
"","image-keyboard-response","174","118893","0.0-174.0","3PB5A5BD0WSM76SGXGEUPZMEIJAG7C","A2196WCNDZULFS","3JUDR1D0D6D4CARU3YX9Y3DK5DJ2QK","","911.9000000059605","img/land6.png","76","913.2000000029802","3","1","3","1","0.8,0.2,0.2,0.2,0.8,0.2,0.2,0.2,0.8","0.8,0.2,0.2,0.2,0.8,0.2,0.2,0.2,0.8","1","",""
"","html-keyboard-response","175","119196","0.0-175.0","3PB5A5BD0WSM76SGXGEUPZMEIJAG7C","A2196WCNDZULFS","3JUDR1D0D6D4CARU3YX9Y3DK5DJ2QK","","null","<img src=""img/land6.png"" style=""width:200px; border:14px solid green;"">","null","","","","","","","","","",""
"","image-keyboard-response","176","119582","0.0-176.0","3PB5A5BD0WSM76SGXGEUPZMEIJAG7C","A2196WCNDZULFS","3JUDR1D0D6D4CARU3YX9Y3DK5DJ2QK","","384.5","img/land6.png","76","385.3999999910593","3","0","3","1","0.8,0.2,0.2,0.2,0.8,0.2,0.2,0.2,0.8","0.8,0.2,0.2,0.2,0.8,0.2,0.2,0.2,0.8","1","",""
"","html-keyboard-response","177","119883","0.0-177.0","3PB5A5BD0WSM76SGXGEUPZMEIJAG7C","A2196WCNDZULFS","3JUDR1D0D6D4CARU3YX9Y3DK5DJ2QK","","null","<img src=""img/land6.png"" style=""width:200px;border:14px solid red;"">","null","","","","","","","","","",""
"","image-keyboard-response","178","120661","0.0-178.0","3PB5A5BD0WSM76SGXGEUPZMEIJAG7C","A2196WCNDZULFS","3JUDR1D0D6D4CARU3YX9Y3DK5DJ2QK","","776.1999999880791","img/land1.png","74","777.4000000059605","1","0","1","1","0.8,0.2,0.2,0.2,0.8,0.2,0.2,0.2,0.8","0.8,0.2,0.2,0.2,0.8,0.2,0.2,0.2,0.8","1","",""
"","html-keyboard-response","179","120963","0.0-179.0","3PB5A5BD0WSM76SGXGEUPZMEIJAG7C","A2196WCNDZULFS","3JUDR1D0D6D4CARU3YX9Y3DK5DJ2QK","","null","<img src=""img/land1.png"" style=""width:200px;border:14px solid red;"">","null","","","","","","","","","",""
"","image-keyboard-response","180","121398","0.0-180.0","3PB5A5BD0WSM76SGXGEUPZMEIJAG7C","A2196WCNDZULFS","3JUDR1D0D6D4CARU3YX9Y3DK5DJ2QK","","433.5","img/land1.png","74","434.79999999701977","1","0","1","1","0.8,0.2,0.2,0.2,0.8,0.2,0.2,0.2,0.8","0.8,0.2,0.2,0.2,0.8,0.2,0.2,0.2,0.8","1","",""
"","html-keyboard-response","181","121701","0.0-181.0","3PB5A5BD0WSM76SGXGEUPZMEIJAG7C","A2196WCNDZULFS","3JUDR1D0D6D4CARU3YX9Y3DK5DJ2QK","","null","<img src=""img/land1.png"" style=""width:200px;border:14px solid red;"">","null","","","","","","","","","",""
"","html-keyboard-response","182","125861","0.0-182.0","3PB5A5BD0WSM76SGXGEUPZMEIJAG7C","A2196WCNDZULFS","3JUDR1D0D6D4CARU3YX9Y3DK5DJ2QK","","","","","","","","","","","","","",""
"","image-keyboard-response","183","127085","0.0-183.0","3PB5A5BD0WSM76SGXGEUPZMEIJAG7C","A2196WCNDZULFS","3JUDR1D0D6D4CARU3YX9Y3DK5DJ2QK","","1222.2999999970198","img/land2.png","74","1223.2000000029802","1","0","1","2","0.8,0.2,0.2,0.2,0.8,0.2,0.2,0.2,0.8","0.2,0.8,0.2,0.2,0.2,0.8,0.8,0.2,0.2","3","",""
"","html-keyboard-response","184","127386","0.0-184.0","3PB5A5BD0WSM76SGXGEUPZMEIJAG7C","A2196WCNDZULFS","3JUDR1D0D6D4CARU3YX9Y3DK5DJ2QK","","null","<img src=""img/land2.png"" style=""width:200px;border:14px solid red;"">","null","","","","","","","","","",""
"","image-keyboard-response","185","127789","0.0-185.0","3PB5A5BD0WSM76SGXGEUPZMEIJAG7C","A2196WCNDZULFS","3JUDR1D0D6D4CARU3YX9Y3DK5DJ2QK","","402.20000000298023","img/land2.png","76","403","3","0","1","2","0.8,0.2,0.2,0.2,0.8,0.2,0.2,0.2,0.8","0.2,0.8,0.2,0.2,0.2,0.8,0.8,0.2,0.2","3","",""
"","html-keyboard-response","186","128092","0.0-186.0","3PB5A5BD0WSM76SGXGEUPZMEIJAG7C","A2196WCNDZULFS","3JUDR1D0D6D4CARU3YX9Y3DK5DJ2QK","","null","<img src=""img/land2.png"" style=""width:200px;border:14px solid red;"">","null","","","","","","","","","",""
"","image-keyboard-response","187","128612","0.0-187.0","3PB5A5BD0WSM76SGXGEUPZMEIJAG7C","A2196WCNDZULFS","3JUDR1D0D6D4CARU3YX9Y3DK5DJ2QK","","518.1999999880791","img/land2.png","76","520.2000000029802","3","0","1","2","0.8,0.2,0.2,0.2,0.8,0.2,0.2,0.2,0.8","0.2,0.8,0.2,0.2,0.2,0.8,0.8,0.2,0.2","3","",""
"","html-keyboard-response","188","128919","0.0-188.0","3PB5A5BD0WSM76SGXGEUPZMEIJAG7C","A2196WCNDZULFS","3JUDR1D0D6D4CARU3YX9Y3DK5DJ2QK","","null","<img src=""img/land2.png"" style=""width:200px;border:14px solid red;"">","null","","","","","","","","","",""
"","image-keyboard-response","189","129349","0.0-189.0","3PB5A5BD0WSM76SGXGEUPZMEIJAG7C","A2196WCNDZULFS","3JUDR1D0D6D4CARU3YX9Y3DK5DJ2QK","","428.70000000298023","img/land2.png","76","429.29999999701977","3","1","1","2","0.8,0.2,0.2,0.2,0.8,0.2,0.2,0.2,0.8","0.2,0.8,0.2,0.2,0.2,0.8,0.8,0.2,0.2","3","",""
"","html-keyboard-response","190","129652","0.0-190.0","3PB5A5BD0WSM76SGXGEUPZMEIJAG7C","A2196WCNDZULFS","3JUDR1D0D6D4CARU3YX9Y3DK5DJ2QK","","null","<img src=""img/land2.png"" style=""width:200px; border:14px solid green;"">","null","","","","","","","","","",""
"","image-keyboard-response","191","130661","0.0-191.0","3PB5A5BD0WSM76SGXGEUPZMEIJAG7C","A2196WCNDZULFS","3JUDR1D0D6D4CARU3YX9Y3DK5DJ2QK","","1007.8999999910593","img/land3.png","76","1009","3","1","2","2","0.8,0.2,0.2,0.2,0.8,0.2,0.2,0.2,0.8","0.2,0.8,0.2,0.2,0.2,0.8,0.8,0.2,0.2","3","",""
"","html-keyboard-response","192","130963","0.0-192.0","3PB5A5BD0WSM76SGXGEUPZMEIJAG7C","A2196WCNDZULFS","3JUDR1D0D6D4CARU3YX9Y3DK5DJ2QK","","null","<img src=""img/land3.png"" style=""width:200px; border:14px solid green;"">","null","","","","","","","","","",""
"","image-keyboard-response","193","131733","0.0-193.0","3PB5A5BD0WSM76SGXGEUPZMEIJAG7C","A2196WCNDZULFS","3JUDR1D0D6D4CARU3YX9Y3DK5DJ2QK","","769.5999999940395","img/land2.png","76","770.7000000029802","3","0","1","2","0.8,0.2,0.2,0.2,0.8,0.2,0.2,0.2,0.8","0.2,0.8,0.2,0.2,0.2,0.8,0.8,0.2,0.2","3","",""
"","html-keyboard-response","194","132036","0.0-194.0","3PB5A5BD0WSM76SGXGEUPZMEIJAG7C","A2196WCNDZULFS","3JUDR1D0D6D4CARU3YX9Y3DK5DJ2QK","","null","<img src=""img/land2.png"" style=""width:200px;border:14px solid red;"">","null","","","","","","","","","",""
"","image-keyboard-response","195","133029","0.0-195.0","3PB5A5BD0WSM76SGXGEUPZMEIJAG7C","A2196WCNDZULFS","3JUDR1D0D6D4CARU3YX9Y3DK5DJ2QK","","991.7000000029802","img/land5.png","76","992.7000000029802","3","0","3","2","0.8,0.2,0.2,0.2,0.8,0.2,0.2,0.2,0.8","0.2,0.8,0.2,0.2,0.2,0.8,0.8,0.2,0.2","3","",""
"","html-keyboard-response","196","133330","0.0-196.0","3PB5A5BD0WSM76SGXGEUPZMEIJAG7C","A2196WCNDZULFS","3JUDR1D0D6D4CARU3YX9Y3DK5DJ2QK","","null","<img src=""img/land5.png"" style=""width:200px;border:14px solid red;"">","null","","","","","","","","","",""
"","image-keyboard-response","197","134286","0.0-197.0","3PB5A5BD0WSM76SGXGEUPZMEIJAG7C","A2196WCNDZULFS","3JUDR1D0D6D4CARU3YX9Y3DK5DJ2QK","","954.1999999880791","img/land2.png","75","955.3999999910593","2","1","1","2","0.8,0.2,0.2,0.2,0.8,0.2,0.2,0.2,0.8","0.2,0.8,0.2,0.2,0.2,0.8,0.8,0.2,0.2","3","",""
"","html-keyboard-response","198","134588","0.0-198.0","3PB5A5BD0WSM76SGXGEUPZMEIJAG7C","A2196WCNDZULFS","3JUDR1D0D6D4CARU3YX9Y3DK5DJ2QK","","null","<img src=""img/land2.png"" style=""width:200px; border:14px solid green;"">","null","","","","","","","","","",""
"","image-keyboard-response","199","135261","0.0-199.0","3PB5A5BD0WSM76SGXGEUPZMEIJAG7C","A2196WCNDZULFS","3JUDR1D0D6D4CARU3YX9Y3DK5DJ2QK","","672.2000000029802","img/land3.png","76","673","3","1","2","2","0.8,0.2,0.2,0.2,0.8,0.2,0.2,0.2,0.8","0.2,0.8,0.2,0.2,0.2,0.8,0.8,0.2,0.2","3","",""
"","html-keyboard-response","200","135563","0.0-200.0","3PB5A5BD0WSM76SGXGEUPZMEIJAG7C","A2196WCNDZULFS","3JUDR1D0D6D4CARU3YX9Y3DK5DJ2QK","","null","<img src=""img/land3.png"" style=""width:200px; border:14px solid green;"">","null","","","","","","","","","",""
"","image-keyboard-response","201","136318","0.0-201.0","3PB5A5BD0WSM76SGXGEUPZMEIJAG7C","A2196WCNDZULFS","3JUDR1D0D6D4CARU3YX9Y3DK5DJ2QK","","753.4000000059605","img/land3.png","76","754.6000000089407","3","1","2","2","0.8,0.2,0.2,0.2,0.8,0.2,0.2,0.2,0.8","0.2,0.8,0.2,0.2,0.2,0.8,0.8,0.2,0.2","3","",""
"","html-keyboard-response","202","136621","0.0-202.0","3PB5A5BD0WSM76SGXGEUPZMEIJAG7C","A2196WCNDZULFS","3JUDR1D0D6D4CARU3YX9Y3DK5DJ2QK","","null","<img src=""img/land3.png"" style=""width:200px; border:14px solid green;"">","null","","","","","","","","","",""
"","image-keyboard-response","203","137167","0.0-203.0","3PB5A5BD0WSM76SGXGEUPZMEIJAG7C","A2196WCNDZULFS","3JUDR1D0D6D4CARU3YX9Y3DK5DJ2QK","","545.0999999940395","img/land2.png","75","545.9000000059605","2","1","1","2","0.8,0.2,0.2,0.2,0.8,0.2,0.2,0.2,0.8","0.2,0.8,0.2,0.2,0.2,0.8,0.8,0.2,0.2","3","",""
"","html-keyboard-response","204","137469","0.0-204.0","3PB5A5BD0WSM76SGXGEUPZMEIJAG7C","A2196WCNDZULFS","3JUDR1D0D6D4CARU3YX9Y3DK5DJ2QK","","null","<img src=""img/land2.png"" style=""width:200px; border:14px solid green;"">","null","","","","","","","","","",""
"","image-keyboard-response","205","138022","0.0-205.0","3PB5A5BD0WSM76SGXGEUPZMEIJAG7C","A2196WCNDZULFS","3JUDR1D0D6D4CARU3YX9Y3DK5DJ2QK","","551.5","img/land2.png","75","552.6000000089407","2","1","1","2","0.8,0.2,0.2,0.2,0.8,0.2,0.2,0.2,0.8","0.2,0.8,0.2,0.2,0.2,0.8,0.8,0.2,0.2","3","",""
"","html-keyboard-response","206","138324","0.0-206.0","3PB5A5BD0WSM76SGXGEUPZMEIJAG7C","A2196WCNDZULFS","3JUDR1D0D6D4CARU3YX9Y3DK5DJ2QK","","null","<img src=""img/land2.png"" style=""width:200px; border:14px solid green;"">","null","","","","","","","","","",""
"","image-keyboard-response","207","138966","0.0-207.0","3PB5A5BD0WSM76SGXGEUPZMEIJAG7C","A2196WCNDZULFS","3JUDR1D0D6D4CARU3YX9Y3DK5DJ2QK","","640.2000000029802","img/land5.png","74","641.4000000059605","1","1","3","2","0.8,0.2,0.2,0.2,0.8,0.2,0.2,0.2,0.8","0.2,0.8,0.2,0.2,0.2,0.8,0.8,0.2,0.2","3","",""
"","html-keyboard-response","208","139268","0.0-208.0","3PB5A5BD0WSM76SGXGEUPZMEIJAG7C","A2196WCNDZULFS","3JUDR1D0D6D4CARU3YX9Y3DK5DJ2QK","","null","<img src=""img/land5.png"" style=""width:200px; border:14px solid green;"">","null","","","","","","","","","",""
"","image-keyboard-response","209","140014","0.0-209.0","3PB5A5BD0WSM76SGXGEUPZMEIJAG7C","A2196WCNDZULFS","3JUDR1D0D6D4CARU3YX9Y3DK5DJ2QK","","745.2000000029802","img/land2.png","75","746.2999999970198","2","1","1","2","0.8,0.2,0.2,0.2,0.8,0.2,0.2,0.2,0.8","0.2,0.8,0.2,0.2,0.2,0.8,0.8,0.2,0.2","3","",""
"","html-keyboard-response","210","140318","0.0-210.0","3PB5A5BD0WSM76SGXGEUPZMEIJAG7C","A2196WCNDZULFS","3JUDR1D0D6D4CARU3YX9Y3DK5DJ2QK","","null","<img src=""img/land2.png"" style=""width:200px; border:14px solid green;"">","null","","","","","","","","","",""
"","image-keyboard-response","211","140845","0.0-211.0","3PB5A5BD0WSM76SGXGEUPZMEIJAG7C","A2196WCNDZULFS","3JUDR1D0D6D4CARU3YX9Y3DK5DJ2QK","","526.3000000119209","img/land2.png","75","527.2999999970198","2","1","1","2","0.8,0.2,0.2,0.2,0.8,0.2,0.2,0.2,0.8","0.2,0.8,0.2,0.2,0.2,0.8,0.8,0.2,0.2","3","",""
"","html-keyboard-response","212","141157","0.0-212.0","3PB5A5BD0WSM76SGXGEUPZMEIJAG7C","A2196WCNDZULFS","3JUDR1D0D6D4CARU3YX9Y3DK5DJ2QK","","null","<img src=""img/land2.png"" style=""width:200px; border:14px solid green;"">","null","","","","","","","","","",""
"","image-keyboard-response","213","141582","0.0-213.0","3PB5A5BD0WSM76SGXGEUPZMEIJAG7C","A2196WCNDZULFS","3JUDR1D0D6D4CARU3YX9Y3DK5DJ2QK","","424","img/land2.png","75","425.40000000596046","2","1","1","2","0.8,0.2,0.2,0.2,0.8,0.2,0.2,0.2,0.8","0.2,0.8,0.2,0.2,0.2,0.8,0.8,0.2,0.2","3","",""
"","html-keyboard-response","214","141885","0.0-214.0","3PB5A5BD0WSM76SGXGEUPZMEIJAG7C","A2196WCNDZULFS","3JUDR1D0D6D4CARU3YX9Y3DK5DJ2QK","","null","<img src=""img/land2.png"" style=""width:200px; border:14px solid green;"">","null","","","","","","","","","",""
"","image-keyboard-response","215","142270","0.0-215.0","3PB5A5BD0WSM76SGXGEUPZMEIJAG7C","A2196WCNDZULFS","3JUDR1D0D6D4CARU3YX9Y3DK5DJ2QK","","384.20000000298023","img/land2.png","75","385.20000000298023","2","1","1","2","0.8,0.2,0.2,0.2,0.8,0.2,0.2,0.2,0.8","0.2,0.8,0.2,0.2,0.2,0.8,0.8,0.2,0.2","3","",""
"","html-keyboard-response","216","142572","0.0-216.0","3PB5A5BD0WSM76SGXGEUPZMEIJAG7C","A2196WCNDZULFS","3JUDR1D0D6D4CARU3YX9Y3DK5DJ2QK","","null","<img src=""img/land2.png"" style=""width:200px; border:14px solid green;"">","null","","","","","","","","","",""
"","image-keyboard-response","217","143638","0.0-217.0","3PB5A5BD0WSM76SGXGEUPZMEIJAG7C","A2196WCNDZULFS","3JUDR1D0D6D4CARU3YX9Y3DK5DJ2QK","","1064.7000000029802","img/land5.png","74","1066.0999999940395","1","1","3","2","0.8,0.2,0.2,0.2,0.8,0.2,0.2,0.2,0.8","0.2,0.8,0.2,0.2,0.2,0.8,0.8,0.2,0.2","3","",""
"","html-keyboard-response","218","143940","0.0-218.0","3PB5A5BD0WSM76SGXGEUPZMEIJAG7C","A2196WCNDZULFS","3JUDR1D0D6D4CARU3YX9Y3DK5DJ2QK","","null","<img src=""img/land5.png"" style=""width:200px; border:14px solid green;"">","null","","","","","","","","","",""
"","image-keyboard-response","219","144637","0.0-219.0","3PB5A5BD0WSM76SGXGEUPZMEIJAG7C","A2196WCNDZULFS","3JUDR1D0D6D4CARU3YX9Y3DK5DJ2QK","","696","img/land2.png","75","696.6999999880791","2","1","1","2","0.8,0.2,0.2,0.2,0.8,0.2,0.2,0.2,0.8","0.2,0.8,0.2,0.2,0.2,0.8,0.8,0.2,0.2","3","",""
"","html-keyboard-response","220","144939","0.0-220.0","3PB5A5BD0WSM76SGXGEUPZMEIJAG7C","A2196WCNDZULFS","3JUDR1D0D6D4CARU3YX9Y3DK5DJ2QK","","null","<img src=""img/land2.png"" style=""width:200px; border:14px solid green;"">","null","","","","","","","","","",""
"","image-keyboard-response","221","145502","0.0-221.0","3PB5A5BD0WSM76SGXGEUPZMEIJAG7C","A2196WCNDZULFS","3JUDR1D0D6D4CARU3YX9Y3DK5DJ2QK","","562.8999999910593","img/land2.png","75","563.7999999970198","2","1","1","2","0.8,0.2,0.2,0.2,0.8,0.2,0.2,0.2,0.8","0.2,0.8,0.2,0.2,0.2,0.8,0.8,0.2,0.2","3","",""
"","html-keyboard-response","222","145806","0.0-222.0","3PB5A5BD0WSM76SGXGEUPZMEIJAG7C","A2196WCNDZULFS","3JUDR1D0D6D4CARU3YX9Y3DK5DJ2QK","","null","<img src=""img/land2.png"" style=""width:200px; border:14px solid green;"">","null","","","","","","","","","",""
"","image-keyboard-response","223","146174","0.0-223.0","3PB5A5BD0WSM76SGXGEUPZMEIJAG7C","A2196WCNDZULFS","3JUDR1D0D6D4CARU3YX9Y3DK5DJ2QK","","367.19999998807907","img/land2.png","75","368.29999999701977","2","1","1","2","0.8,0.2,0.2,0.2,0.8,0.2,0.2,0.2,0.8","0.2,0.8,0.2,0.2,0.2,0.8,0.8,0.2,0.2","3","",""
"","html-keyboard-response","224","146491","0.0-224.0","3PB5A5BD0WSM76SGXGEUPZMEIJAG7C","A2196WCNDZULFS","3JUDR1D0D6D4CARU3YX9Y3DK5DJ2QK","","null","<img src=""img/land2.png"" style=""width:200px; border:14px solid green;"">","null","","","","","","","","","",""
"","image-keyboard-response","225","146845","0.0-225.0","3PB5A5BD0WSM76SGXGEUPZMEIJAG7C","A2196WCNDZULFS","3JUDR1D0D6D4CARU3YX9Y3DK5DJ2QK","","353.20000000298023","img/land2.png","75","354.09999999403954","2","1","1","2","0.8,0.2,0.2,0.2,0.8,0.2,0.2,0.2,0.8","0.2,0.8,0.2,0.2,0.2,0.8,0.8,0.2,0.2","3","",""
"","html-keyboard-response","226","147147","0.0-226.0","3PB5A5BD0WSM76SGXGEUPZMEIJAG7C","A2196WCNDZULFS","3JUDR1D0D6D4CARU3YX9Y3DK5DJ2QK","","null","<img src=""img/land2.png"" style=""width:200px; border:14px solid green;"">","null","","","","","","","","","",""
"","image-keyboard-response","227","147701","0.0-227.0","3PB5A5BD0WSM76SGXGEUPZMEIJAG7C","A2196WCNDZULFS","3JUDR1D0D6D4CARU3YX9Y3DK5DJ2QK","","552.7000000029802","img/land3.png","76","553.5999999940395","3","0","2","2","0.8,0.2,0.2,0.2,0.8,0.2,0.2,0.2,0.8","0.2,0.8,0.2,0.2,0.2,0.8,0.8,0.2,0.2","3","",""
"","html-keyboard-response","228","148003","0.0-228.0","3PB5A5BD0WSM76SGXGEUPZMEIJAG7C","A2196WCNDZULFS","3JUDR1D0D6D4CARU3YX9Y3DK5DJ2QK","","null","<img src=""img/land3.png"" style=""width:200px;border:14px solid red;"">","null","","","","","","","","","",""
"","image-keyboard-response","229","148781","0.0-229.0","3PB5A5BD0WSM76SGXGEUPZMEIJAG7C","A2196WCNDZULFS","3JUDR1D0D6D4CARU3YX9Y3DK5DJ2QK","","777.5","img/land2.png","75","778.3999999910593","2","1","1","2","0.8,0.2,0.2,0.2,0.8,0.2,0.2,0.2,0.8","0.2,0.8,0.2,0.2,0.2,0.8,0.8,0.2,0.2","3","",""
"","html-keyboard-response","230","149084","0.0-230.0","3PB5A5BD0WSM76SGXGEUPZMEIJAG7C","A2196WCNDZULFS","3JUDR1D0D6D4CARU3YX9Y3DK5DJ2QK","","null","<img src=""img/land2.png"" style=""width:200px; border:14px solid green;"">","null","","","","","","","","","",""
"","image-keyboard-response","231","149695","0.0-231.0","3PB5A5BD0WSM76SGXGEUPZMEIJAG7C","A2196WCNDZULFS","3JUDR1D0D6D4CARU3YX9Y3DK5DJ2QK","","609.2999999970198","img/land2.png","75","611.0999999940395","2","1","1","2","0.8,0.2,0.2,0.2,0.8,0.2,0.2,0.2,0.8","0.2,0.8,0.2,0.2,0.2,0.8,0.8,0.2,0.2","3","",""
"","html-keyboard-response","232","149997","0.0-232.0","3PB5A5BD0WSM76SGXGEUPZMEIJAG7C","A2196WCNDZULFS","3JUDR1D0D6D4CARU3YX9Y3DK5DJ2QK","","null","<img src=""img/land2.png"" style=""width:200px; border:14px solid green;"">","null","","","","","","","","","",""
"","image-keyboard-response","233","150366","0.0-233.0","3PB5A5BD0WSM76SGXGEUPZMEIJAG7C","A2196WCNDZULFS","3JUDR1D0D6D4CARU3YX9Y3DK5DJ2QK","","367.8999999910593","img/land2.png","75","368.5","2","1","1","2","0.8,0.2,0.2,0.2,0.8,0.2,0.2,0.2,0.8","0.2,0.8,0.2,0.2,0.2,0.8,0.8,0.2,0.2","3","",""
"","html-keyboard-response","234","150667","0.0-234.0","3PB5A5BD0WSM76SGXGEUPZMEIJAG7C","A2196WCNDZULFS","3JUDR1D0D6D4CARU3YX9Y3DK5DJ2QK","","null","<img src=""img/land2.png"" style=""width:200px; border:14px solid green;"">","null","","","","","","","","","",""
"","image-keyboard-response","235","151159","0.0-235.0","3PB5A5BD0WSM76SGXGEUPZMEIJAG7C","A2196WCNDZULFS","3JUDR1D0D6D4CARU3YX9Y3DK5DJ2QK","","489.59999999403954","img/land3.png","76","490.90000000596046","3","1","2","2","0.8,0.2,0.2,0.2,0.8,0.2,0.2,0.2,0.8","0.2,0.8,0.2,0.2,0.2,0.8,0.8,0.2,0.2","3","",""
"","html-keyboard-response","236","151461","0.0-236.0","3PB5A5BD0WSM76SGXGEUPZMEIJAG7C","A2196WCNDZULFS","3JUDR1D0D6D4CARU3YX9Y3DK5DJ2QK","","null","<img src=""img/land3.png"" style=""width:200px; border:14px solid green;"">","null","","","","","","","","","",""
"","image-keyboard-response","237","152191","0.0-237.0","3PB5A5BD0WSM76SGXGEUPZMEIJAG7C","A2196WCNDZULFS","3JUDR1D0D6D4CARU3YX9Y3DK5DJ2QK","","728.5","img/land2.png","75","729.4000000059605","2","1","1","2","0.8,0.2,0.2,0.2,0.8,0.2,0.2,0.2,0.8","0.2,0.8,0.2,0.2,0.2,0.8,0.8,0.2,0.2","3","",""
"","html-keyboard-response","238","152493","0.0-238.0","3PB5A5BD0WSM76SGXGEUPZMEIJAG7C","A2196WCNDZULFS","3JUDR1D0D6D4CARU3YX9Y3DK5DJ2QK","","null","<img src=""img/land2.png"" style=""width:200px; border:14px solid green;"">","null","","","","","","","","","",""
"","image-keyboard-response","239","152949","0.0-239.0","3PB5A5BD0WSM76SGXGEUPZMEIJAG7C","A2196WCNDZULFS","3JUDR1D0D6D4CARU3YX9Y3DK5DJ2QK","","455.40000000596046","img/land3.png","76","456.29999999701977","3","1","2","2","0.8,0.2,0.2,0.2,0.8,0.2,0.2,0.2,0.8","0.2,0.8,0.2,0.2,0.2,0.8,0.8,0.2,0.2","3","",""
"","html-keyboard-response","240","153251","0.0-240.0","3PB5A5BD0WSM76SGXGEUPZMEIJAG7C","A2196WCNDZULFS","3JUDR1D0D6D4CARU3YX9Y3DK5DJ2QK","","null","<img src=""img/land3.png"" style=""width:200px; border:14px solid green;"">","null","","","","","","","","","",""
"","image-keyboard-response","241","153694","0.0-241.0","3PB5A5BD0WSM76SGXGEUPZMEIJAG7C","A2196WCNDZULFS","3JUDR1D0D6D4CARU3YX9Y3DK5DJ2QK","","442","img/land3.png","76","443.29999999701977","3","1","2","2","0.8,0.2,0.2,0.2,0.8,0.2,0.2,0.2,0.8","0.2,0.8,0.2,0.2,0.2,0.8,0.8,0.2,0.2","3","",""
"","html-keyboard-response","242","153996","0.0-242.0","3PB5A5BD0WSM76SGXGEUPZMEIJAG7C","A2196WCNDZULFS","3JUDR1D0D6D4CARU3YX9Y3DK5DJ2QK","","null","<img src=""img/land3.png"" style=""width:200px; border:14px solid green;"">","null","","","","","","","","","",""
"","image-keyboard-response","243","154549","0.0-243.0","3PB5A5BD0WSM76SGXGEUPZMEIJAG7C","A2196WCNDZULFS","3JUDR1D0D6D4CARU3YX9Y3DK5DJ2QK","","551.7999999970198","img/land2.png","75","552.5","2","1","1","2","0.8,0.2,0.2,0.2,0.8,0.2,0.2,0.2,0.8","0.2,0.8,0.2,0.2,0.2,0.8,0.8,0.2,0.2","3","",""
"","html-keyboard-response","244","154850","0.0-244.0","3PB5A5BD0WSM76SGXGEUPZMEIJAG7C","A2196WCNDZULFS","3JUDR1D0D6D4CARU3YX9Y3DK5DJ2QK","","null","<img src=""img/land2.png"" style=""width:200px; border:14px solid green;"">","null","","","","","","","","","",""
"","image-keyboard-response","245","155294","0.0-245.0","3PB5A5BD0WSM76SGXGEUPZMEIJAG7C","A2196WCNDZULFS","3JUDR1D0D6D4CARU3YX9Y3DK5DJ2QK","","442.20000000298023","img/land2.png","75","442.90000000596046","2","1","1","2","0.8,0.2,0.2,0.2,0.8,0.2,0.2,0.2,0.8","0.2,0.8,0.2,0.2,0.2,0.8,0.8,0.2,0.2","3","",""
"","html-keyboard-response","246","155596","0.0-246.0","3PB5A5BD0WSM76SGXGEUPZMEIJAG7C","A2196WCNDZULFS","3JUDR1D0D6D4CARU3YX9Y3DK5DJ2QK","","null","<img src=""img/land2.png"" style=""width:200px; border:14px solid green;"">","null","","","","","","","","","",""
"","image-keyboard-response","247","155950","0.0-247.0","3PB5A5BD0WSM76SGXGEUPZMEIJAG7C","A2196WCNDZULFS","3JUDR1D0D6D4CARU3YX9Y3DK5DJ2QK","","353.59999999403954","img/land2.png","75","354.70000000298023","2","0","1","2","0.8,0.2,0.2,0.2,0.8,0.2,0.2,0.2,0.8","0.2,0.8,0.2,0.2,0.2,0.8,0.8,0.2,0.2","3","",""
"","html-keyboard-response","248","156253","0.0-248.0","3PB5A5BD0WSM76SGXGEUPZMEIJAG7C","A2196WCNDZULFS","3JUDR1D0D6D4CARU3YX9Y3DK5DJ2QK","","null","<img src=""img/land2.png"" style=""width:200px;border:14px solid red;"">","null","","","","","","","","","",""
"","image-keyboard-response","249","156693","0.0-249.0","3PB5A5BD0WSM76SGXGEUPZMEIJAG7C","A2196WCNDZULFS","3JUDR1D0D6D4CARU3YX9Y3DK5DJ2QK","","438.70000000298023","img/land2.png","75","439.70000000298023","2","1","1","2","0.8,0.2,0.2,0.2,0.8,0.2,0.2,0.2,0.8","0.2,0.8,0.2,0.2,0.2,0.8,0.8,0.2,0.2","3","",""
"","html-keyboard-response","250","156994","0.0-250.0","3PB5A5BD0WSM76SGXGEUPZMEIJAG7C","A2196WCNDZULFS","3JUDR1D0D6D4CARU3YX9Y3DK5DJ2QK","","null","<img src=""img/land2.png"" style=""width:200px; border:14px solid green;"">","null","","","","","","","","","",""
"","image-keyboard-response","251","157398","0.0-251.0","3PB5A5BD0WSM76SGXGEUPZMEIJAG7C","A2196WCNDZULFS","3JUDR1D0D6D4CARU3YX9Y3DK5DJ2QK","","403.3999999910593","img/land2.png","75","404.20000000298023","2","1","1","2","0.8,0.2,0.2,0.2,0.8,0.2,0.2,0.2,0.8","0.2,0.8,0.2,0.2,0.2,0.8,0.8,0.2,0.2","3","",""
"","html-keyboard-response","252","157700","0.0-252.0","3PB5A5BD0WSM76SGXGEUPZMEIJAG7C","A2196WCNDZULFS","3JUDR1D0D6D4CARU3YX9Y3DK5DJ2QK","","null","<img src=""img/land2.png"" style=""width:200px; border:14px solid green;"">","null","","","","","","","","","",""
"","image-keyboard-response","253","158133","0.0-253.0","3PB5A5BD0WSM76SGXGEUPZMEIJAG7C","A2196WCNDZULFS","3JUDR1D0D6D4CARU3YX9Y3DK5DJ2QK","","432","img/land2.png","75","433","2","1","1","2","0.8,0.2,0.2,0.2,0.8,0.2,0.2,0.2,0.8","0.2,0.8,0.2,0.2,0.2,0.8,0.8,0.2,0.2","3","",""
"","html-keyboard-response","254","158435","0.0-254.0","3PB5A5BD0WSM76SGXGEUPZMEIJAG7C","A2196WCNDZULFS","3JUDR1D0D6D4CARU3YX9Y3DK5DJ2QK","","null","<img src=""img/land2.png"" style=""width:200px; border:14px solid green;"">","null","","","","","","","","","",""
"","image-keyboard-response","255","158846","0.0-255.0","3PB5A5BD0WSM76SGXGEUPZMEIJAG7C","A2196WCNDZULFS","3JUDR1D0D6D4CARU3YX9Y3DK5DJ2QK","","407.90000000596046","img/land2.png","75","409.1000000089407","2","0","1","2","0.8,0.2,0.2,0.2,0.8,0.2,0.2,0.2,0.8","0.2,0.8,0.2,0.2,0.2,0.8,0.8,0.2,0.2","3","",""
"","html-keyboard-response","256","159148","0.0-256.0","3PB5A5BD0WSM76SGXGEUPZMEIJAG7C","A2196WCNDZULFS","3JUDR1D0D6D4CARU3YX9Y3DK5DJ2QK","","null","<img src=""img/land2.png"" style=""width:200px;border:14px solid red;"">","null","","","","","","","","","",""
"","image-keyboard-response","257","159566","0.0-257.0","3PB5A5BD0WSM76SGXGEUPZMEIJAG7C","A2196WCNDZULFS","3JUDR1D0D6D4CARU3YX9Y3DK5DJ2QK","","416","img/land2.png","75","417.40000000596046","2","1","1","2","0.8,0.2,0.2,0.2,0.8,0.2,0.2,0.2,0.8","0.2,0.8,0.2,0.2,0.2,0.8,0.8,0.2,0.2","3","",""
"","html-keyboard-response","258","159868","0.0-258.0","3PB5A5BD0WSM76SGXGEUPZMEIJAG7C","A2196WCNDZULFS","3JUDR1D0D6D4CARU3YX9Y3DK5DJ2QK","","null","<img src=""img/land2.png"" style=""width:200px; border:14px solid green;"">","null","","","","","","","","","",""
"","image-keyboard-response","259","160397","0.0-259.0","3PB5A5BD0WSM76SGXGEUPZMEIJAG7C","A2196WCNDZULFS","3JUDR1D0D6D4CARU3YX9Y3DK5DJ2QK","","528.0999999940395","img/land2.png","75","528.9000000059605","2","1","1","2","0.8,0.2,0.2,0.2,0.8,0.2,0.2,0.2,0.8","0.2,0.8,0.2,0.2,0.2,0.8,0.8,0.2,0.2","3","",""
"","html-keyboard-response","260","160699","0.0-260.0","3PB5A5BD0WSM76SGXGEUPZMEIJAG7C","A2196WCNDZULFS","3JUDR1D0D6D4CARU3YX9Y3DK5DJ2QK","","null","<img src=""img/land2.png"" style=""width:200px; border:14px solid green;"">","null","","","","","","","","","",""
"","image-keyboard-response","261","161174","0.0-261.0","3PB5A5BD0WSM76SGXGEUPZMEIJAG7C","A2196WCNDZULFS","3JUDR1D0D6D4CARU3YX9Y3DK5DJ2QK","","474","img/land2.png","75","474.90000000596046","2","0","1","2","0.8,0.2,0.2,0.2,0.8,0.2,0.2,0.2,0.8","0.2,0.8,0.2,0.2,0.2,0.8,0.8,0.2,0.2","3","",""
"","html-keyboard-response","262","161489","0.0-262.0","3PB5A5BD0WSM76SGXGEUPZMEIJAG7C","A2196WCNDZULFS","3JUDR1D0D6D4CARU3YX9Y3DK5DJ2QK","","null","<img src=""img/land2.png"" style=""width:200px;border:14px solid red;"">","null","","","","","","","","","",""
"","image-keyboard-response","263","162213","0.0-263.0","3PB5A5BD0WSM76SGXGEUPZMEIJAG7C","A2196WCNDZULFS","3JUDR1D0D6D4CARU3YX9Y3DK5DJ2QK","","723.2000000029802","img/land5.png","74","724.4000000059605","1","0","3","2","0.8,0.2,0.2,0.2,0.8,0.2,0.2,0.2,0.8","0.2,0.8,0.2,0.2,0.2,0.8,0.8,0.2,0.2","3","",""
"","html-keyboard-response","264","162515","0.0-264.0","3PB5A5BD0WSM76SGXGEUPZMEIJAG7C","A2196WCNDZULFS","3JUDR1D0D6D4CARU3YX9Y3DK5DJ2QK","","null","<img src=""img/land5.png"" style=""width:200px;border:14px solid red;"">","null","","","","","","","","","",""
"","image-keyboard-response","265","162918","0.0-265.0","3PB5A5BD0WSM76SGXGEUPZMEIJAG7C","A2196WCNDZULFS","3JUDR1D0D6D4CARU3YX9Y3DK5DJ2QK","","401.59999999403954","img/land5.png","74","402.59999999403954","1","1","3","2","0.8,0.2,0.2,0.2,0.8,0.2,0.2,0.2,0.8","0.2,0.8,0.2,0.2,0.2,0.8,0.8,0.2,0.2","3","",""
"","html-keyboard-response","266","163219","0.0-266.0","3PB5A5BD0WSM76SGXGEUPZMEIJAG7C","A2196WCNDZULFS","3JUDR1D0D6D4CARU3YX9Y3DK5DJ2QK","","null","<img src=""img/land5.png"" style=""width:200px; border:14px solid green;"">","null","","","","","","","","","",""
"","image-keyboard-response","267","163733","0.0-267.0","3PB5A5BD0WSM76SGXGEUPZMEIJAG7C","A2196WCNDZULFS","3JUDR1D0D6D4CARU3YX9Y3DK5DJ2QK","","512.7999999970198","img/land2.png","75","513.9000000059605","2","1","1","2","0.8,0.2,0.2,0.2,0.8,0.2,0.2,0.2,0.8","0.2,0.8,0.2,0.2,0.2,0.8,0.8,0.2,0.2","3","",""
"","html-keyboard-response","268","164034","0.0-268.0","3PB5A5BD0WSM76SGXGEUPZMEIJAG7C","A2196WCNDZULFS","3JUDR1D0D6D4CARU3YX9Y3DK5DJ2QK","","null","<img src=""img/land2.png"" style=""width:200px; border:14px solid green;"">","null","","","","","","","","","",""
"","image-keyboard-response","269","164453","0.0-269.0","3PB5A5BD0WSM76SGXGEUPZMEIJAG7C","A2196WCNDZULFS","3JUDR1D0D6D4CARU3YX9Y3DK5DJ2QK","","418.1000000089407","img/land2.png","75","418.69999998807907","2","1","1","2","0.8,0.2,0.2,0.2,0.8,0.2,0.2,0.2,0.8","0.2,0.8,0.2,0.2,0.2,0.8,0.8,0.2,0.2","3","",""
"","html-keyboard-response","270","164754","0.0-270.0","3PB5A5BD0WSM76SGXGEUPZMEIJAG7C","A2196WCNDZULFS","3JUDR1D0D6D4CARU3YX9Y3DK5DJ2QK","","null","<img src=""img/land2.png"" style=""width:200px; border:14px solid green;"">","null","","","","","","","","","",""
"","image-keyboard-response","271","165174","0.0-271.0","3PB5A5BD0WSM76SGXGEUPZMEIJAG7C","A2196WCNDZULFS","3JUDR1D0D6D4CARU3YX9Y3DK5DJ2QK","","418.40000000596046","img/land2.png","75","419.5","2","1","1","2","0.8,0.2,0.2,0.2,0.8,0.2,0.2,0.2,0.8","0.2,0.8,0.2,0.2,0.2,0.8,0.8,0.2,0.2","3","",""
"","html-keyboard-response","272","165476","0.0-272.0","3PB5A5BD0WSM76SGXGEUPZMEIJAG7C","A2196WCNDZULFS","3JUDR1D0D6D4CARU3YX9Y3DK5DJ2QK","","null","<img src=""img/land2.png"" style=""width:200px; border:14px solid green;"">","null","","","","","","","","","",""
"","image-keyboard-response","273","165941","0.0-273.0","3PB5A5BD0WSM76SGXGEUPZMEIJAG7C","A2196WCNDZULFS","3JUDR1D0D6D4CARU3YX9Y3DK5DJ2QK","","463.79999999701977","img/land2.png","75","465","2","1","1","2","0.8,0.2,0.2,0.2,0.8,0.2,0.2,0.2,0.8","0.2,0.8,0.2,0.2,0.2,0.8,0.8,0.2,0.2","3","",""
"","html-keyboard-response","274","166249","0.0-274.0","3PB5A5BD0WSM76SGXGEUPZMEIJAG7C","A2196WCNDZULFS","3JUDR1D0D6D4CARU3YX9Y3DK5DJ2QK","","null","<img src=""img/land2.png"" style=""width:200px; border:14px solid green;"">","null","","","","","","","","","",""
"","image-keyboard-response","275","166670","0.0-275.0","3PB5A5BD0WSM76SGXGEUPZMEIJAG7C","A2196WCNDZULFS","3JUDR1D0D6D4CARU3YX9Y3DK5DJ2QK","","419.59999999403954","img/land2.png","75","420.3999999910593","2","1","1","2","0.8,0.2,0.2,0.2,0.8,0.2,0.2,0.2,0.8","0.2,0.8,0.2,0.2,0.2,0.8,0.8,0.2,0.2","3","",""
"","html-keyboard-response","276","166971","0.0-276.0","3PB5A5BD0WSM76SGXGEUPZMEIJAG7C","A2196WCNDZULFS","3JUDR1D0D6D4CARU3YX9Y3DK5DJ2QK","","null","<img src=""img/land2.png"" style=""width:200px; border:14px solid green;"">","null","","","","","","","","","",""
"","image-keyboard-response","277","167415","0.0-277.0","3PB5A5BD0WSM76SGXGEUPZMEIJAG7C","A2196WCNDZULFS","3JUDR1D0D6D4CARU3YX9Y3DK5DJ2QK","","443.59999999403954","img/land2.png","75","444.3999999910593","2","1","1","2","0.8,0.2,0.2,0.2,0.8,0.2,0.2,0.2,0.8","0.2,0.8,0.2,0.2,0.2,0.8,0.8,0.2,0.2","3","",""
"","html-keyboard-response","278","167718","0.0-278.0","3PB5A5BD0WSM76SGXGEUPZMEIJAG7C","A2196WCNDZULFS","3JUDR1D0D6D4CARU3YX9Y3DK5DJ2QK","","null","<img src=""img/land2.png"" style=""width:200px; border:14px solid green;"">","null","","","","","","","","","",""
"","image-keyboard-response","279","168135","0.0-279.0","3PB5A5BD0WSM76SGXGEUPZMEIJAG7C","A2196WCNDZULFS","3JUDR1D0D6D4CARU3YX9Y3DK5DJ2QK","","415.70000000298023","img/land2.png","75","417","2","1","1","2","0.8,0.2,0.2,0.2,0.8,0.2,0.2,0.2,0.8","0.2,0.8,0.2,0.2,0.2,0.8,0.8,0.2,0.2","3","",""
"","html-keyboard-response","280","168436","0.0-280.0","3PB5A5BD0WSM76SGXGEUPZMEIJAG7C","A2196WCNDZULFS","3JUDR1D0D6D4CARU3YX9Y3DK5DJ2QK","","null","<img src=""img/land2.png"" style=""width:200px; border:14px solid green;"">","null","","","","","","","","","",""
"","image-keyboard-response","281","169046","0.0-281.0","3PB5A5BD0WSM76SGXGEUPZMEIJAG7C","A2196WCNDZULFS","3JUDR1D0D6D4CARU3YX9Y3DK5DJ2QK","","608.0999999940395","img/land3.png","76","609.0999999940395","3","0","2","2","0.8,0.2,0.2,0.2,0.8,0.2,0.2,0.2,0.8","0.2,0.8,0.2,0.2,0.2,0.8,0.8,0.2,0.2","3","",""
"","html-keyboard-response","282","169357","0.0-282.0","3PB5A5BD0WSM76SGXGEUPZMEIJAG7C","A2196WCNDZULFS","3JUDR1D0D6D4CARU3YX9Y3DK5DJ2QK","","null","<img src=""img/land3.png"" style=""width:200px;border:14px solid red;"">","null","","","","","","","","","",""
"","image-keyboard-response","283","170031","0.0-283.0","3PB5A5BD0WSM76SGXGEUPZMEIJAG7C","A2196WCNDZULFS","3JUDR1D0D6D4CARU3YX9Y3DK5DJ2QK","","672.0999999940395","img/land3.png","76","673.3999999910593","3","0","2","2","0.8,0.2,0.2,0.2,0.8,0.2,0.2,0.2,0.8","0.2,0.8,0.2,0.2,0.2,0.8,0.8,0.2,0.2","3","",""
"","html-keyboard-response","284","170333","0.0-284.0","3PB5A5BD0WSM76SGXGEUPZMEIJAG7C","A2196WCNDZULFS","3JUDR1D0D6D4CARU3YX9Y3DK5DJ2QK","","null","<img src=""img/land3.png"" style=""width:200px;border:14px solid red;"">","null","","","","","","","","","",""
"","image-keyboard-response","285","171014","0.0-285.0","3PB5A5BD0WSM76SGXGEUPZMEIJAG7C","A2196WCNDZULFS","3JUDR1D0D6D4CARU3YX9Y3DK5DJ2QK","","679.7000000029802","img/land2.png","75","680.7999999970198","2","1","1","2","0.8,0.2,0.2,0.2,0.8,0.2,0.2,0.2,0.8","0.2,0.8,0.2,0.2,0.2,0.8,0.8,0.2,0.2","3","",""
"","html-keyboard-response","286","171316","0.0-286.0","3PB5A5BD0WSM76SGXGEUPZMEIJAG7C","A2196WCNDZULFS","3JUDR1D0D6D4CARU3YX9Y3DK5DJ2QK","","null","<img src=""img/land2.png"" style=""width:200px; border:14px solid green;"">","null","","","","","","","","","",""
"","image-keyboard-response","287","171694","0.0-287.0","3PB5A5BD0WSM76SGXGEUPZMEIJAG7C","A2196WCNDZULFS","3JUDR1D0D6D4CARU3YX9Y3DK5DJ2QK","","377.09999999403954","img/land2.png","75","378.29999999701977","2","1","1","2","0.8,0.2,0.2,0.2,0.8,0.2,0.2,0.2,0.8","0.2,0.8,0.2,0.2,0.2,0.8,0.8,0.2,0.2","3","",""
"","html-keyboard-response","288","171996","0.0-288.0","3PB5A5BD0WSM76SGXGEUPZMEIJAG7C","A2196WCNDZULFS","3JUDR1D0D6D4CARU3YX9Y3DK5DJ2QK","","null","<img src=""img/land2.png"" style=""width:200px; border:14px solid green;"">","null","","","","","","","","","",""
"","image-keyboard-response","289","172598","0.0-289.0","3PB5A5BD0WSM76SGXGEUPZMEIJAG7C","A2196WCNDZULFS","3JUDR1D0D6D4CARU3YX9Y3DK5DJ2QK","","600.7000000029802","img/land5.png","74","601.4000000059605","1","1","3","2","0.8,0.2,0.2,0.2,0.8,0.2,0.2,0.2,0.8","0.2,0.8,0.2,0.2,0.2,0.8,0.8,0.2,0.2","3","",""
"","html-keyboard-response","290","172899","0.0-290.0","3PB5A5BD0WSM76SGXGEUPZMEIJAG7C","A2196WCNDZULFS","3JUDR1D0D6D4CARU3YX9Y3DK5DJ2QK","","null","<img src=""img/land5.png"" style=""width:200px; border:14px solid green;"">","null","","","","","","","","","",""
"","image-keyboard-response","291","173687","0.0-291.0","3PB5A5BD0WSM76SGXGEUPZMEIJAG7C","A2196WCNDZULFS","3JUDR1D0D6D4CARU3YX9Y3DK5DJ2QK","","785.7000000029802","img/land3.png","76","787.0999999940395","3","0","2","2","0.8,0.2,0.2,0.2,0.8,0.2,0.2,0.2,0.8","0.2,0.8,0.2,0.2,0.2,0.8,0.8,0.2,0.2","3","",""
"","html-keyboard-response","292","173988","0.0-292.0","3PB5A5BD0WSM76SGXGEUPZMEIJAG7C","A2196WCNDZULFS","3JUDR1D0D6D4CARU3YX9Y3DK5DJ2QK","","null","<img src=""img/land3.png"" style=""width:200px;border:14px solid red;"">","null","","","","","","","","","",""
"","image-keyboard-response","293","175038","0.0-293.0","3PB5A5BD0WSM76SGXGEUPZMEIJAG7C","A2196WCNDZULFS","3JUDR1D0D6D4CARU3YX9Y3DK5DJ2QK","","1049.1000000089407","img/land5.png","74","1050","1","1","3","2","0.8,0.2,0.2,0.2,0.8,0.2,0.2,0.2,0.8","0.2,0.8,0.2,0.2,0.2,0.8,0.8,0.2,0.2","3","",""
"","html-keyboard-response","294","175342","0.0-294.0","3PB5A5BD0WSM76SGXGEUPZMEIJAG7C","A2196WCNDZULFS","3JUDR1D0D6D4CARU3YX9Y3DK5DJ2QK","","null","<img src=""img/land5.png"" style=""width:200px; border:14px solid green;"">","null","","","","","","","","","",""
"","image-keyboard-response","295","175934","0.0-295.0","3PB5A5BD0WSM76SGXGEUPZMEIJAG7C","A2196WCNDZULFS","3JUDR1D0D6D4CARU3YX9Y3DK5DJ2QK","","590.7000000029802","img/land2.png","75","591.7999999970198","2","1","1","2","0.8,0.2,0.2,0.2,0.8,0.2,0.2,0.2,0.8","0.2,0.8,0.2,0.2,0.2,0.8,0.8,0.2,0.2","3","",""
"","html-keyboard-response","296","176235","0.0-296.0","3PB5A5BD0WSM76SGXGEUPZMEIJAG7C","A2196WCNDZULFS","3JUDR1D0D6D4CARU3YX9Y3DK5DJ2QK","","null","<img src=""img/land2.png"" style=""width:200px; border:14px solid green;"">","null","","","","","","","","","",""
"","image-keyboard-response","297","176863","0.0-297.0","3PB5A5BD0WSM76SGXGEUPZMEIJAG7C","A2196WCNDZULFS","3JUDR1D0D6D4CARU3YX9Y3DK5DJ2QK","","626.1999999880791","img/land3.png","76","627.3999999910593","3","1","2","2","0.8,0.2,0.2,0.2,0.8,0.2,0.2,0.2,0.8","0.2,0.8,0.2,0.2,0.2,0.8,0.8,0.2,0.2","3","",""
"","html-keyboard-response","298","177165","0.0-298.0","3PB5A5BD0WSM76SGXGEUPZMEIJAG7C","A2196WCNDZULFS","3JUDR1D0D6D4CARU3YX9Y3DK5DJ2QK","","null","<img src=""img/land3.png"" style=""width:200px; border:14px solid green;"">","null","","","","","","","","","",""
"","image-keyboard-response","299","177575","0.0-299.0","3PB5A5BD0WSM76SGXGEUPZMEIJAG7C","A2196WCNDZULFS","3JUDR1D0D6D4CARU3YX9Y3DK5DJ2QK","","408.8999999910593","img/land3.png","76","409.79999999701977","3","1","2","2","0.8,0.2,0.2,0.2,0.8,0.2,0.2,0.2,0.8","0.2,0.8,0.2,0.2,0.2,0.8,0.8,0.2,0.2","3","",""
"","html-keyboard-response","300","177877","0.0-300.0","3PB5A5BD0WSM76SGXGEUPZMEIJAG7C","A2196WCNDZULFS","3JUDR1D0D6D4CARU3YX9Y3DK5DJ2QK","","null","<img src=""img/land3.png"" style=""width:200px; border:14px solid green;"">","null","","","","","","","","","",""
"","image-keyboard-response","301","178583","0.0-301.0","3PB5A5BD0WSM76SGXGEUPZMEIJAG7C","A2196WCNDZULFS","3JUDR1D0D6D4CARU3YX9Y3DK5DJ2QK","","704.5999999940395","img/land2.png","75","705.4000000059605","2","1","1","2","0.8,0.2,0.2,0.2,0.8,0.2,0.2,0.2,0.8","0.2,0.8,0.2,0.2,0.2,0.8,0.8,0.2,0.2","3","",""
"","html-keyboard-response","302","178884","0.0-302.0","3PB5A5BD0WSM76SGXGEUPZMEIJAG7C","A2196WCNDZULFS","3JUDR1D0D6D4CARU3YX9Y3DK5DJ2QK","","null","<img src=""img/land2.png"" style=""width:200px; border:14px solid green;"">","null","","","","","","","","","",""
"","image-keyboard-response","303","179462","0.0-303.0","3PB5A5BD0WSM76SGXGEUPZMEIJAG7C","A2196WCNDZULFS","3JUDR1D0D6D4CARU3YX9Y3DK5DJ2QK","","577.6000000089407","img/land5.png","74","578.7000000029802","1","0","3","2","0.8,0.2,0.2,0.2,0.8,0.2,0.2,0.2,0.8","0.2,0.8,0.2,0.2,0.2,0.8,0.8,0.2,0.2","3","",""
"","html-keyboard-response","304","179764","0.0-304.0","3PB5A5BD0WSM76SGXGEUPZMEIJAG7C","A2196WCNDZULFS","3JUDR1D0D6D4CARU3YX9Y3DK5DJ2QK","","null","<img src=""img/land5.png"" style=""width:200px;border:14px solid red;"">","null","","","","","","","","","",""
"","image-keyboard-response","305","180461","0.0-305.0","3PB5A5BD0WSM76SGXGEUPZMEIJAG7C","A2196WCNDZULFS","3JUDR1D0D6D4CARU3YX9Y3DK5DJ2QK","","695.7999999970198","img/land3.png","76","696.9000000059605","3","1","2","2","0.8,0.2,0.2,0.2,0.8,0.2,0.2,0.2,0.8","0.2,0.8,0.2,0.2,0.2,0.8,0.8,0.2,0.2","3","",""
"","html-keyboard-response","306","180763","0.0-306.0","3PB5A5BD0WSM76SGXGEUPZMEIJAG7C","A2196WCNDZULFS","3JUDR1D0D6D4CARU3YX9Y3DK5DJ2QK","","null","<img src=""img/land3.png"" style=""width:200px; border:14px solid green;"">","null","","","","","","","","","",""
"","image-keyboard-response","307","181366","0.0-307.0","3PB5A5BD0WSM76SGXGEUPZMEIJAG7C","A2196WCNDZULFS","3JUDR1D0D6D4CARU3YX9Y3DK5DJ2QK","","603.1000000089407","img/land2.png","75","603.7999999970198","2","1","1","2","0.8,0.2,0.2,0.2,0.8,0.2,0.2,0.2,0.8","0.2,0.8,0.2,0.2,0.2,0.8,0.8,0.2,0.2","3","",""
"","html-keyboard-response","308","181668","0.0-308.0","3PB5A5BD0WSM76SGXGEUPZMEIJAG7C","A2196WCNDZULFS","3JUDR1D0D6D4CARU3YX9Y3DK5DJ2QK","","null","<img src=""img/land2.png"" style=""width:200px; border:14px solid green;"">","null","","","","","","","","","",""
"","image-keyboard-response","309","182071","0.0-309.0","3PB5A5BD0WSM76SGXGEUPZMEIJAG7C","A2196WCNDZULFS","3JUDR1D0D6D4CARU3YX9Y3DK5DJ2QK","","401.59999999403954","img/land2.png","75","402.5","2","0","1","2","0.8,0.2,0.2,0.2,0.8,0.2,0.2,0.2,0.8","0.2,0.8,0.2,0.2,0.2,0.8,0.8,0.2,0.2","3","",""
"","html-keyboard-response","310","182373","0.0-310.0","3PB5A5BD0WSM76SGXGEUPZMEIJAG7C","A2196WCNDZULFS","3JUDR1D0D6D4CARU3YX9Y3DK5DJ2QK","","null","<img src=""img/land2.png"" style=""width:200px;border:14px solid red;"">","null","","","","","","","","","",""
"","image-keyboard-response","311","182998","0.0-311.0","3PB5A5BD0WSM76SGXGEUPZMEIJAG7C","A2196WCNDZULFS","3JUDR1D0D6D4CARU3YX9Y3DK5DJ2QK","","624.2000000029802","img/land5.png","74","625.2000000029802","1","1","3","2","0.8,0.2,0.2,0.2,0.8,0.2,0.2,0.2,0.8","0.2,0.8,0.2,0.2,0.2,0.8,0.8,0.2,0.2","3","",""
"","html-keyboard-response","312","183300","0.0-312.0","3PB5A5BD0WSM76SGXGEUPZMEIJAG7C","A2196WCNDZULFS","3JUDR1D0D6D4CARU3YX9Y3DK5DJ2QK","","null","<img src=""img/land5.png"" style=""width:200px; border:14px solid green;"">","null","","","","","","","","","",""
"","image-keyboard-response","313","183871","0.0-313.0","3PB5A5BD0WSM76SGXGEUPZMEIJAG7C","A2196WCNDZULFS","3JUDR1D0D6D4CARU3YX9Y3DK5DJ2QK","","570","img/land2.png","75","570.8999999910593","2","0","1","2","0.8,0.2,0.2,0.2,0.8,0.2,0.2,0.2,0.8","0.2,0.8,0.2,0.2,0.2,0.8,0.8,0.2,0.2","3","",""
"","html-keyboard-response","314","184174","0.0-314.0","3PB5A5BD0WSM76SGXGEUPZMEIJAG7C","A2196WCNDZULFS","3JUDR1D0D6D4CARU3YX9Y3DK5DJ2QK","","null","<img src=""img/land2.png"" style=""width:200px;border:14px solid red;"">","null","","","","","","","","","",""
"","image-keyboard-response","315","184606","0.0-315.0","3PB5A5BD0WSM76SGXGEUPZMEIJAG7C","A2196WCNDZULFS","3JUDR1D0D6D4CARU3YX9Y3DK5DJ2QK","","432.09999999403954","img/land2.png","75","432.59999999403954","2","0","1","2","0.8,0.2,0.2,0.2,0.8,0.2,0.2,0.2,0.8","0.2,0.8,0.2,0.2,0.2,0.8,0.8,0.2,0.2","3","",""
"","html-keyboard-response","316","184908","0.0-316.0","3PB5A5BD0WSM76SGXGEUPZMEIJAG7C","A2196WCNDZULFS","3JUDR1D0D6D4CARU3YX9Y3DK5DJ2QK","","null","<img src=""img/land2.png"" style=""width:200px;border:14px solid red;"">","null","","","","","","","","","",""
"","image-keyboard-response","317","185326","0.0-317.0","3PB5A5BD0WSM76SGXGEUPZMEIJAG7C","A2196WCNDZULFS","3JUDR1D0D6D4CARU3YX9Y3DK5DJ2QK","","417.3999999910593","img/land2.png","75","418.5","2","1","1","2","0.8,0.2,0.2,0.2,0.8,0.2,0.2,0.2,0.8","0.2,0.8,0.2,0.2,0.2,0.8,0.8,0.2,0.2","3","",""
"","html-keyboard-response","318","185633","0.0-318.0","3PB5A5BD0WSM76SGXGEUPZMEIJAG7C","A2196WCNDZULFS","3JUDR1D0D6D4CARU3YX9Y3DK5DJ2QK","","null","<img src=""img/land2.png"" style=""width:200px; border:14px solid green;"">","null","","","","","","","","","",""
"","image-keyboard-response","319","186526","0.0-319.0","3PB5A5BD0WSM76SGXGEUPZMEIJAG7C","A2196WCNDZULFS","3JUDR1D0D6D4CARU3YX9Y3DK5DJ2QK","","891.5","img/land5.png","74","892.7999999970198","1","1","3","2","0.8,0.2,0.2,0.2,0.8,0.2,0.2,0.2,0.8","0.2,0.8,0.2,0.2,0.2,0.8,0.8,0.2,0.2","3","",""
"","html-keyboard-response","320","186828","0.0-320.0","3PB5A5BD0WSM76SGXGEUPZMEIJAG7C","A2196WCNDZULFS","3JUDR1D0D6D4CARU3YX9Y3DK5DJ2QK","","null","<img src=""img/land5.png"" style=""width:200px; border:14px solid green;"">","null","","","","","","","","","",""
"","image-keyboard-response","321","187518","0.0-321.0","3PB5A5BD0WSM76SGXGEUPZMEIJAG7C","A2196WCNDZULFS","3JUDR1D0D6D4CARU3YX9Y3DK5DJ2QK","","688.6000000089407","img/land2.png","75","689.7999999970198","2","1","1","2","0.8,0.2,0.2,0.2,0.8,0.2,0.2,0.2,0.8","0.2,0.8,0.2,0.2,0.2,0.8,0.8,0.2,0.2","3","",""
"","html-keyboard-response","322","187822","0.0-322.0","3PB5A5BD0WSM76SGXGEUPZMEIJAG7C","A2196WCNDZULFS","3JUDR1D0D6D4CARU3YX9Y3DK5DJ2QK","","null","<img src=""img/land2.png"" style=""width:200px; border:14px solid green;"">","null","","","","","","","","","",""
"","image-keyboard-response","323","188535","0.0-323.0","3PB5A5BD0WSM76SGXGEUPZMEIJAG7C","A2196WCNDZULFS","3JUDR1D0D6D4CARU3YX9Y3DK5DJ2QK","","711.7999999970198","img/land5.png","74","713.1000000089407","1","1","3","2","0.8,0.2,0.2,0.2,0.8,0.2,0.2,0.2,0.8","0.2,0.8,0.2,0.2,0.2,0.8,0.8,0.2,0.2","3","",""
"","html-keyboard-response","324","188837","0.0-324.0","3PB5A5BD0WSM76SGXGEUPZMEIJAG7C","A2196WCNDZULFS","3JUDR1D0D6D4CARU3YX9Y3DK5DJ2QK","","null","<img src=""img/land5.png"" style=""width:200px; border:14px solid green;"">","null","","","","","","","","","",""
"","image-keyboard-response","325","189262","0.0-325.0","3PB5A5BD0WSM76SGXGEUPZMEIJAG7C","A2196WCNDZULFS","3JUDR1D0D6D4CARU3YX9Y3DK5DJ2QK","","424","img/land5.png","74","425.09999999403954","1","1","3","2","0.8,0.2,0.2,0.2,0.8,0.2,0.2,0.2,0.8","0.2,0.8,0.2,0.2,0.2,0.8,0.8,0.2,0.2","3","",""
"","html-keyboard-response","326","189565","0.0-326.0","3PB5A5BD0WSM76SGXGEUPZMEIJAG7C","A2196WCNDZULFS","3JUDR1D0D6D4CARU3YX9Y3DK5DJ2QK","","null","<img src=""img/land5.png"" style=""width:200px; border:14px solid green;"">","null","","","","","","","","","",""
"","image-keyboard-response","327","189934","0.0-327.0","3PB5A5BD0WSM76SGXGEUPZMEIJAG7C","A2196WCNDZULFS","3JUDR1D0D6D4CARU3YX9Y3DK5DJ2QK","","368.29999999701977","img/land5.png","74","369.5","1","1","3","2","0.8,0.2,0.2,0.2,0.8,0.2,0.2,0.2,0.8","0.2,0.8,0.2,0.2,0.2,0.8,0.8,0.2,0.2","3","",""
"","html-keyboard-response","328","190245","0.0-328.0","3PB5A5BD0WSM76SGXGEUPZMEIJAG7C","A2196WCNDZULFS","3JUDR1D0D6D4CARU3YX9Y3DK5DJ2QK","","null","<img src=""img/land5.png"" style=""width:200px; border:14px solid green;"">","null","","","","","","","","","",""
"","image-keyboard-response","329","190624","0.0-329.0","3PB5A5BD0WSM76SGXGEUPZMEIJAG7C","A2196WCNDZULFS","3JUDR1D0D6D4CARU3YX9Y3DK5DJ2QK","","377.29999999701977","img/land5.png","74","378.40000000596046","1","1","3","2","0.8,0.2,0.2,0.2,0.8,0.2,0.2,0.2,0.8","0.2,0.8,0.2,0.2,0.2,0.8,0.8,0.2,0.2","3","",""
"","html-keyboard-response","330","190926","0.0-330.0","3PB5A5BD0WSM76SGXGEUPZMEIJAG7C","A2196WCNDZULFS","3JUDR1D0D6D4CARU3YX9Y3DK5DJ2QK","","null","<img src=""img/land5.png"" style=""width:200px; border:14px solid green;"">","null","","","","","","","","","",""
"","image-keyboard-response","331","191639","0.0-331.0","3PB5A5BD0WSM76SGXGEUPZMEIJAG7C","A2196WCNDZULFS","3JUDR1D0D6D4CARU3YX9Y3DK5DJ2QK","","712.2000000029802","img/land3.png","76","713.5999999940395","3","1","2","2","0.8,0.2,0.2,0.2,0.8,0.2,0.2,0.2,0.8","0.2,0.8,0.2,0.2,0.2,0.8,0.8,0.2,0.2","3","",""
"","html-keyboard-response","332","191941","0.0-332.0","3PB5A5BD0WSM76SGXGEUPZMEIJAG7C","A2196WCNDZULFS","3JUDR1D0D6D4CARU3YX9Y3DK5DJ2QK","","null","<img src=""img/land3.png"" style=""width:200px; border:14px solid green;"">","null","","","","","","","","","",""
"","image-keyboard-response","333","192671","0.0-333.0","3PB5A5BD0WSM76SGXGEUPZMEIJAG7C","A2196WCNDZULFS","3JUDR1D0D6D4CARU3YX9Y3DK5DJ2QK","","728.4000000059605","img/land5.png","74","729.0999999940395","1","0","3","2","0.8,0.2,0.2,0.2,0.8,0.2,0.2,0.2,0.8","0.2,0.8,0.2,0.2,0.2,0.8,0.8,0.2,0.2","3","",""
"","html-keyboard-response","334","192972","0.0-334.0","3PB5A5BD0WSM76SGXGEUPZMEIJAG7C","A2196WCNDZULFS","3JUDR1D0D6D4CARU3YX9Y3DK5DJ2QK","","null","<img src=""img/land5.png"" style=""width:200px;border:14px solid red;"">","null","","","","","","","","","",""
"","image-keyboard-response","335","193567","0.0-335.0","3PB5A5BD0WSM76SGXGEUPZMEIJAG7C","A2196WCNDZULFS","3JUDR1D0D6D4CARU3YX9Y3DK5DJ2QK","","594.2999999970198","img/land3.png","76","595.1000000089407","3","1","2","2","0.8,0.2,0.2,0.2,0.8,0.2,0.2,0.2,0.8","0.2,0.8,0.2,0.2,0.2,0.8,0.8,0.2,0.2","3","",""
"","html-keyboard-response","336","193869","0.0-336.0","3PB5A5BD0WSM76SGXGEUPZMEIJAG7C","A2196WCNDZULFS","3JUDR1D0D6D4CARU3YX9Y3DK5DJ2QK","","null","<img src=""img/land3.png"" style=""width:200px; border:14px solid green;"">","null","","","","","","","","","",""
"","image-keyboard-response","337","194591","0.0-337.0","3PB5A5BD0WSM76SGXGEUPZMEIJAG7C","A2196WCNDZULFS","3JUDR1D0D6D4CARU3YX9Y3DK5DJ2QK","","721.0999999940395","img/land2.png","75","721.9000000059605","2","1","1","2","0.8,0.2,0.2,0.2,0.8,0.2,0.2,0.2,0.8","0.2,0.8,0.2,0.2,0.2,0.8,0.8,0.2,0.2","3","",""
"","html-keyboard-response","338","194894","0.0-338.0","3PB5A5BD0WSM76SGXGEUPZMEIJAG7C","A2196WCNDZULFS","3JUDR1D0D6D4CARU3YX9Y3DK5DJ2QK","","null","<img src=""img/land2.png"" style=""width:200px; border:14px solid green;"">","null","","","","","","","","","",""
"","image-keyboard-response","339","195325","0.0-339.0","3PB5A5BD0WSM76SGXGEUPZMEIJAG7C","A2196WCNDZULFS","3JUDR1D0D6D4CARU3YX9Y3DK5DJ2QK","","430.90000000596046","img/land2.png","75","431.5","2","1","1","2","0.8,0.2,0.2,0.2,0.8,0.2,0.2,0.2,0.8","0.2,0.8,0.2,0.2,0.2,0.8,0.8,0.2,0.2","3","",""
"","html-keyboard-response","340","195627","0.0-340.0","3PB5A5BD0WSM76SGXGEUPZMEIJAG7C","A2196WCNDZULFS","3JUDR1D0D6D4CARU3YX9Y3DK5DJ2QK","","null","<img src=""img/land2.png"" style=""width:200px; border:14px solid green;"">","null","","","","","","","","","",""
"","image-keyboard-response","341","196214","0.0-341.0","3PB5A5BD0WSM76SGXGEUPZMEIJAG7C","A2196WCNDZULFS","3JUDR1D0D6D4CARU3YX9Y3DK5DJ2QK","","586.5","img/land3.png","76","587.5999999940395","3","1","2","2","0.8,0.2,0.2,0.2,0.8,0.2,0.2,0.2,0.8","0.2,0.8,0.2,0.2,0.2,0.8,0.8,0.2,0.2","3","",""
"","html-keyboard-response","342","196516","0.0-342.0","3PB5A5BD0WSM76SGXGEUPZMEIJAG7C","A2196WCNDZULFS","3JUDR1D0D6D4CARU3YX9Y3DK5DJ2QK","","null","<img src=""img/land3.png"" style=""width:200px; border:14px solid green;"">","null","","","","","","","","","",""
"","image-keyboard-response","343","197135","0.0-343.0","3PB5A5BD0WSM76SGXGEUPZMEIJAG7C","A2196WCNDZULFS","3JUDR1D0D6D4CARU3YX9Y3DK5DJ2QK","","617.7000000029802","img/land2.png","75","618.5999999940395","2","1","1","2","0.8,0.2,0.2,0.2,0.8,0.2,0.2,0.2,0.8","0.2,0.8,0.2,0.2,0.2,0.8,0.8,0.2,0.2","3","",""
"","html-keyboard-response","344","197436","0.0-344.0","3PB5A5BD0WSM76SGXGEUPZMEIJAG7C","A2196WCNDZULFS","3JUDR1D0D6D4CARU3YX9Y3DK5DJ2QK","","null","<img src=""img/land2.png"" style=""width:200px; border:14px solid green;"">","null","","","","","","","","","",""
"","image-keyboard-response","345","197847","0.0-345.0","3PB5A5BD0WSM76SGXGEUPZMEIJAG7C","A2196WCNDZULFS","3JUDR1D0D6D4CARU3YX9Y3DK5DJ2QK","","409.70000000298023","img/land2.png","75","410.70000000298023","2","0","1","2","0.8,0.2,0.2,0.2,0.8,0.2,0.2,0.2,0.8","0.2,0.8,0.2,0.2,0.2,0.8,0.8,0.2,0.2","3","",""
"","html-keyboard-response","346","198149","0.0-346.0","3PB5A5BD0WSM76SGXGEUPZMEIJAG7C","A2196WCNDZULFS","3JUDR1D0D6D4CARU3YX9Y3DK5DJ2QK","","null","<img src=""img/land2.png"" style=""width:200px;border:14px solid red;"">","null","","","","","","","","","",""
"","image-keyboard-response","347","198598","0.0-347.0","3PB5A5BD0WSM76SGXGEUPZMEIJAG7C","A2196WCNDZULFS","3JUDR1D0D6D4CARU3YX9Y3DK5DJ2QK","","447.69999998807907","img/land2.png","75","449","2","1","1","2","0.8,0.2,0.2,0.2,0.8,0.2,0.2,0.2,0.8","0.2,0.8,0.2,0.2,0.2,0.8,0.8,0.2,0.2","3","",""
"","html-keyboard-response","348","198900","0.0-348.0","3PB5A5BD0WSM76SGXGEUPZMEIJAG7C","A2196WCNDZULFS","3JUDR1D0D6D4CARU3YX9Y3DK5DJ2QK","","null","<img src=""img/land2.png"" style=""width:200px; border:14px solid green;"">","null","","","","","","","","","",""
"","image-keyboard-response","349","199471","0.0-349.0","3PB5A5BD0WSM76SGXGEUPZMEIJAG7C","A2196WCNDZULFS","3JUDR1D0D6D4CARU3YX9Y3DK5DJ2QK","","568.9000000059605","img/land3.png","76","570.2000000029802","3","0","2","2","0.8,0.2,0.2,0.2,0.8,0.2,0.2,0.2,0.8","0.2,0.8,0.2,0.2,0.2,0.8,0.8,0.2,0.2","3","",""
"","html-keyboard-response","350","199773","0.0-350.0","3PB5A5BD0WSM76SGXGEUPZMEIJAG7C","A2196WCNDZULFS","3JUDR1D0D6D4CARU3YX9Y3DK5DJ2QK","","null","<img src=""img/land3.png"" style=""width:200px;border:14px solid red;"">","null","","","","","","","","","",""
"","image-keyboard-response","351","200511","0.0-351.0","3PB5A5BD0WSM76SGXGEUPZMEIJAG7C","A2196WCNDZULFS","3JUDR1D0D6D4CARU3YX9Y3DK5DJ2QK","","736.5","img/land2.png","75","737.9000000059605","2","1","1","2","0.8,0.2,0.2,0.2,0.8,0.2,0.2,0.2,0.8","0.2,0.8,0.2,0.2,0.2,0.8,0.8,0.2,0.2","3","",""
"","html-keyboard-response","352","200813","0.0-352.0","3PB5A5BD0WSM76SGXGEUPZMEIJAG7C","A2196WCNDZULFS","3JUDR1D0D6D4CARU3YX9Y3DK5DJ2QK","","null","<img src=""img/land2.png"" style=""width:200px; border:14px solid green;"">","null","","","","","","","","","",""
"","image-keyboard-response","353","201447","0.0-353.0","3PB5A5BD0WSM76SGXGEUPZMEIJAG7C","A2196WCNDZULFS","3JUDR1D0D6D4CARU3YX9Y3DK5DJ2QK","","632.2999999970198","img/land5.png","74","633.2000000029802","1","1","3","2","0.8,0.2,0.2,0.2,0.8,0.2,0.2,0.2,0.8","0.2,0.8,0.2,0.2,0.2,0.8,0.8,0.2,0.2","3","",""
"","html-keyboard-response","354","201749","0.0-354.0","3PB5A5BD0WSM76SGXGEUPZMEIJAG7C","A2196WCNDZULFS","3JUDR1D0D6D4CARU3YX9Y3DK5DJ2QK","","null","<img src=""img/land5.png"" style=""width:200px; border:14px solid green;"">","null","","","","","","","","","",""
