"success","trial_type","trial_index","time_elapsed","internal_node_id","assignmentID","mturkID","hitID","view_history","rt","stimulus","key_press","reactionTime","a","r","warning","s","reward_cond","responses","question_order"
"true","fullscreen","0","3699","0.0-0.0","3K5TEWLKGWX2ENZ752HDGPFXGKIIVG","A2199FQE7R6RF6","3H6W48L9F4B5OEOMH57RM53Z4H1WP0","","","","","","","","","","","",""
"","instructions","1","41780","0.0-1.0","3K5TEWLKGWX2ENZ752HDGPFXGKIIVG","A2199FQE7R6RF6","3H6W48L9F4B5OEOMH57RM53Z4H1WP0","[{""page_index"":0,""viewing_time"":11278.600000023842},{""page_index"":1,""viewing_time"":3119.800000011921},{""page_index"":2,""viewing_time"":3237.899999976158},{""page_index"":3,""viewing_time"":3726},{""page_index"":4,""viewing_time"":3865.900000035763},{""page_index"":5,""viewing_time"":4308},{""page_index"":6,""viewing_time"":4965.699999988079},{""page_index"":7,""viewing_time"":3576.199999988079}]","38079.10000002384","","","","","","","","","",""
"","image-keyboard-response","2","42782","0.0-2.0","3K5TEWLKGWX2ENZ752HDGPFXGKIIVG","A2199FQE7R6RF6","3H6W48L9F4B5OEOMH57RM53Z4H1WP0","","","img/land5.png","","1002.5999999642372","-1","0","true","1","1,1,0,0,1,1,1,0,1","",""
"","html-keyboard-response","3","43086","0.0-3.0","3K5TEWLKGWX2ENZ752HDGPFXGKIIVG","A2199FQE7R6RF6","3H6W48L9F4B5OEOMH57RM53Z4H1WP0","","null","<img src=""img/land5.png"" style=""width:200px;border:14px solid red;"">","null","","","","","","","",""
"","html-keyboard-response","4","47493","0.0-4.0-0.0","3K5TEWLKGWX2ENZ752HDGPFXGKIIVG","A2199FQE7R6RF6","3H6W48L9F4B5OEOMH57RM53Z4H1WP0","","","","","","","","","","","",""
"","image-keyboard-response","5","48496","0.0-5.0","3K5TEWLKGWX2ENZ752HDGPFXGKIIVG","A2199FQE7R6RF6","3H6W48L9F4B5OEOMH57RM53Z4H1WP0","","","img/land5.png","","1003","-1","0","true","1","1,1,0,0,1,1,1,0,1","",""
"","html-keyboard-response","6","48798","0.0-6.0","3K5TEWLKGWX2ENZ752HDGPFXGKIIVG","A2199FQE7R6RF6","3H6W48L9F4B5OEOMH57RM53Z4H1WP0","","null","<img src=""img/land5.png"" style=""width:200px;border:14px solid red;"">","null","","","","","","","",""
"","html-keyboard-response","7","54581","0.0-7.0-0.0","3K5TEWLKGWX2ENZ752HDGPFXGKIIVG","A2199FQE7R6RF6","3H6W48L9F4B5OEOMH57RM53Z4H1WP0","","","","","","","","","","","",""
"","image-keyboard-response","8","55276","0.0-8.0","3K5TEWLKGWX2ENZ752HDGPFXGKIIVG","A2199FQE7R6RF6","3H6W48L9F4B5OEOMH57RM53Z4H1WP0","","694.1999999880791","img/land2.png","75","695.5","2","1","false","2","1,1,0,0,1,1,1,0,1","",""
"","html-keyboard-response","9","55587","0.0-9.0","3K5TEWLKGWX2ENZ752HDGPFXGKIIVG","A2199FQE7R6RF6","3H6W48L9F4B5OEOMH57RM53Z4H1WP0","","null","<img src=""img/land2.png"" style=""width:200px; border:14px solid green;"">","null","","","","","","","",""
"","image-keyboard-response","10","56331","0.0-11.0","3K5TEWLKGWX2ENZ752HDGPFXGKIIVG","A2199FQE7R6RF6","3H6W48L9F4B5OEOMH57RM53Z4H1WP0","","742.5","img/land2.png","75","743.6999999880791","2","1","false","2","1,1,0,0,1,1,1,0,1","",""
"","html-keyboard-response","11","56633","0.0-12.0","3K5TEWLKGWX2ENZ752HDGPFXGKIIVG","A2199FQE7R6RF6","3H6W48L9F4B5OEOMH57RM53Z4H1WP0","","null","<img src=""img/land2.png"" style=""width:200px; border:14px solid green;"">","null","","","","","","","",""
"","image-keyboard-response","12","57235","0.0-14.0","3K5TEWLKGWX2ENZ752HDGPFXGKIIVG","A2199FQE7R6RF6","3H6W48L9F4B5OEOMH57RM53Z4H1WP0","","600.4000000357628","img/land2.png","75","601.6999999880791","2","1","false","2","1,1,0,0,1,1,1,0,1","",""
"","html-keyboard-response","13","57543","0.0-15.0","3K5TEWLKGWX2ENZ752HDGPFXGKIIVG","A2199FQE7R6RF6","3H6W48L9F4B5OEOMH57RM53Z4H1WP0","","null","<img src=""img/land2.png"" style=""width:200px; border:14px solid green;"">","null","","","","","","","",""
"","image-keyboard-response","14","58203","0.0-17.0","3K5TEWLKGWX2ENZ752HDGPFXGKIIVG","A2199FQE7R6RF6","3H6W48L9F4B5OEOMH57RM53Z4H1WP0","","658.0999999642372","img/land1.png","76","659.3000000119209","3","1","false","3","1,1,0,0,1,1,1,0,1","",""
"","html-keyboard-response","15","58505","0.0-18.0","3K5TEWLKGWX2ENZ752HDGPFXGKIIVG","A2199FQE7R6RF6","3H6W48L9F4B5OEOMH57RM53Z4H1WP0","","null","<img src=""img/land1.png"" style=""width:200px; border:14px solid green;"">","null","","","","","","","",""
"","image-keyboard-response","16","59086","0.0-20.0","3K5TEWLKGWX2ENZ752HDGPFXGKIIVG","A2199FQE7R6RF6","3H6W48L9F4B5OEOMH57RM53Z4H1WP0","","578.6999999880791","img/land1.png","76","580","3","1","false","3","1,1,0,0,1,1,1,0,1","",""
"","html-keyboard-response","17","59388","0.0-21.0","3K5TEWLKGWX2ENZ752HDGPFXGKIIVG","A2199FQE7R6RF6","3H6W48L9F4B5OEOMH57RM53Z4H1WP0","","null","<img src=""img/land1.png"" style=""width:200px; border:14px solid green;"">","null","","","","","","","",""
"","image-keyboard-response","18","60107","0.0-23.0","3K5TEWLKGWX2ENZ752HDGPFXGKIIVG","A2199FQE7R6RF6","3H6W48L9F4B5OEOMH57RM53Z4H1WP0","","717.9000000357628","img/land2.png","75","719","2","1","false","2","1,1,0,0,1,1,1,0,1","",""
"","html-keyboard-response","19","60410","0.0-24.0","3K5TEWLKGWX2ENZ752HDGPFXGKIIVG","A2199FQE7R6RF6","3H6W48L9F4B5OEOMH57RM53Z4H1WP0","","null","<img src=""img/land2.png"" style=""width:200px; border:14px solid green;"">","null","","","","","","","",""
"","image-keyboard-response","20","60939","0.0-26.0","3K5TEWLKGWX2ENZ752HDGPFXGKIIVG","A2199FQE7R6RF6","3H6W48L9F4B5OEOMH57RM53Z4H1WP0","","527.5","img/land2.png","75","528.6999999880791","2","1","false","2","1,1,0,0,1,1,1,0,1","",""
"","html-keyboard-response","21","61241","0.0-27.0","3K5TEWLKGWX2ENZ752HDGPFXGKIIVG","A2199FQE7R6RF6","3H6W48L9F4B5OEOMH57RM53Z4H1WP0","","null","<img src=""img/land2.png"" style=""width:200px; border:14px solid green;"">","null","","","","","","","",""
"","image-keyboard-response","22","61739","0.0-29.0","3K5TEWLKGWX2ENZ752HDGPFXGKIIVG","A2199FQE7R6RF6","3H6W48L9F4B5OEOMH57RM53Z4H1WP0","","496.4000000357628","img/land2.png","75","497.5999999642372","2","1","false","2","1,1,0,0,1,1,1,0,1","",""
"","html-keyboard-response","23","62041","0.0-30.0","3K5TEWLKGWX2ENZ752HDGPFXGKIIVG","A2199FQE7R6RF6","3H6W48L9F4B5OEOMH57RM53Z4H1WP0","","null","<img src=""img/land2.png"" style=""width:200px; border:14px solid green;"">","null","","","","","","","",""
"","image-keyboard-response","24","62691","0.0-32.0","3K5TEWLKGWX2ENZ752HDGPFXGKIIVG","A2199FQE7R6RF6","3H6W48L9F4B5OEOMH57RM53Z4H1WP0","","648.3000000119209","img/land5.png","74","649.4000000357628","1","1","false","1","1,1,0,0,1,1,1,0,1","",""
"","html-keyboard-response","25","63001","0.0-33.0","3K5TEWLKGWX2ENZ752HDGPFXGKIIVG","A2199FQE7R6RF6","3H6W48L9F4B5OEOMH57RM53Z4H1WP0","","null","<img src=""img/land5.png"" style=""width:200px; border:14px solid green;"">","null","","","","","","","",""
"","image-keyboard-response","26","63603","0.0-35.0","3K5TEWLKGWX2ENZ752HDGPFXGKIIVG","A2199FQE7R6RF6","3H6W48L9F4B5OEOMH57RM53Z4H1WP0","","600.3000000119209","img/land2.png","75","601.5999999642372","2","1","false","2","1,1,0,0,1,1,1,0,1","",""
"","html-keyboard-response","27","63905","0.0-36.0","3K5TEWLKGWX2ENZ752HDGPFXGKIIVG","A2199FQE7R6RF6","3H6W48L9F4B5OEOMH57RM53Z4H1WP0","","null","<img src=""img/land2.png"" style=""width:200px; border:14px solid green;"">","null","","","","","","","",""
"","image-keyboard-response","28","64579","0.0-38.0","3K5TEWLKGWX2ENZ752HDGPFXGKIIVG","A2199FQE7R6RF6","3H6W48L9F4B5OEOMH57RM53Z4H1WP0","","672.5999999642372","img/land2.png","75","673.8999999761581","2","1","false","2","1,1,0,0,1,1,1,0,1","",""
"","html-keyboard-response","29","64882","0.0-39.0","3K5TEWLKGWX2ENZ752HDGPFXGKIIVG","A2199FQE7R6RF6","3H6W48L9F4B5OEOMH57RM53Z4H1WP0","","null","<img src=""img/land2.png"" style=""width:200px; border:14px solid green;"">","null","","","","","","","",""
"","image-keyboard-response","30","65715","0.0-41.0","3K5TEWLKGWX2ENZ752HDGPFXGKIIVG","A2199FQE7R6RF6","3H6W48L9F4B5OEOMH57RM53Z4H1WP0","","831.5999999642372","img/land5.png","74","832.8000000119209","1","1","false","1","1,1,0,0,1,1,1,0,1","",""
"","html-keyboard-response","31","66017","0.0-42.0","3K5TEWLKGWX2ENZ752HDGPFXGKIIVG","A2199FQE7R6RF6","3H6W48L9F4B5OEOMH57RM53Z4H1WP0","","null","<img src=""img/land5.png"" style=""width:200px; border:14px solid green;"">","null","","","","","","","",""
"","image-keyboard-response","32","66635","0.0-44.0","3K5TEWLKGWX2ENZ752HDGPFXGKIIVG","A2199FQE7R6RF6","3H6W48L9F4B5OEOMH57RM53Z4H1WP0","","616.6999999880791","img/land2.png","75","617.9000000357628","2","1","false","2","1,1,0,0,1,1,1,0,1","",""
"","html-keyboard-response","33","66937","0.0-45.0","3K5TEWLKGWX2ENZ752HDGPFXGKIIVG","A2199FQE7R6RF6","3H6W48L9F4B5OEOMH57RM53Z4H1WP0","","null","<img src=""img/land2.png"" style=""width:200px; border:14px solid green;"">","null","","","","","","","",""
"","image-keyboard-response","34","67635","0.0-47.0","3K5TEWLKGWX2ENZ752HDGPFXGKIIVG","A2199FQE7R6RF6","3H6W48L9F4B5OEOMH57RM53Z4H1WP0","","696.5999999642372","img/land1.png","76","697.8999999761581","3","1","false","3","1,1,0,0,1,1,1,0,1","",""
"","html-keyboard-response","35","67937","0.0-48.0","3K5TEWLKGWX2ENZ752HDGPFXGKIIVG","A2199FQE7R6RF6","3H6W48L9F4B5OEOMH57RM53Z4H1WP0","","null","<img src=""img/land1.png"" style=""width:200px; border:14px solid green;"">","null","","","","","","","",""
"","image-keyboard-response","36","68571","0.0-50.0","3K5TEWLKGWX2ENZ752HDGPFXGKIIVG","A2199FQE7R6RF6","3H6W48L9F4B5OEOMH57RM53Z4H1WP0","","631.9000000357628","img/land1.png","76","633.1000000238419","3","1","false","3","1,1,0,0,1,1,1,0,1","",""
"","html-keyboard-response","37","68873","0.0-51.0","3K5TEWLKGWX2ENZ752HDGPFXGKIIVG","A2199FQE7R6RF6","3H6W48L9F4B5OEOMH57RM53Z4H1WP0","","null","<img src=""img/land1.png"" style=""width:200px; border:14px solid green;"">","null","","","","","","","",""
"","image-keyboard-response","38","69613","0.0-53.0","3K5TEWLKGWX2ENZ752HDGPFXGKIIVG","A2199FQE7R6RF6","3H6W48L9F4B5OEOMH57RM53Z4H1WP0","","739","img/land2.png","75","740.3000000119209","2","1","false","2","1,1,0,0,1,1,1,0,1","",""
"","html-keyboard-response","39","69916","0.0-54.0","3K5TEWLKGWX2ENZ752HDGPFXGKIIVG","A2199FQE7R6RF6","3H6W48L9F4B5OEOMH57RM53Z4H1WP0","","null","<img src=""img/land2.png"" style=""width:200px; border:14px solid green;"">","null","","","","","","","",""
"","image-keyboard-response","40","70539","0.0-56.0","3K5TEWLKGWX2ENZ752HDGPFXGKIIVG","A2199FQE7R6RF6","3H6W48L9F4B5OEOMH57RM53Z4H1WP0","","621.4000000357628","img/land5.png","74","622.6999999880791","1","1","false","1","1,1,0,0,1,1,1,0,1","",""
"","html-keyboard-response","41","70841","0.0-57.0","3K5TEWLKGWX2ENZ752HDGPFXGKIIVG","A2199FQE7R6RF6","3H6W48L9F4B5OEOMH57RM53Z4H1WP0","","null","<img src=""img/land5.png"" style=""width:200px; border:14px solid green;"">","null","","","","","","","",""
"","image-keyboard-response","42","71627","0.0-59.0","3K5TEWLKGWX2ENZ752HDGPFXGKIIVG","A2199FQE7R6RF6","3H6W48L9F4B5OEOMH57RM53Z4H1WP0","","784.3999999761581","img/land2.png","75","785.6999999880791","2","1","false","2","1,1,0,0,1,1,1,0,1","",""
"","html-keyboard-response","43","71929","0.0-60.0","3K5TEWLKGWX2ENZ752HDGPFXGKIIVG","A2199FQE7R6RF6","3H6W48L9F4B5OEOMH57RM53Z4H1WP0","","null","<img src=""img/land2.png"" style=""width:200px; border:14px solid green;"">","null","","","","","","","",""
"","image-keyboard-response","44","72491","0.0-62.0","3K5TEWLKGWX2ENZ752HDGPFXGKIIVG","A2199FQE7R6RF6","3H6W48L9F4B5OEOMH57RM53Z4H1WP0","","560.6000000238419","img/land2.png","75","561.9000000357628","2","1","false","2","1,1,0,0,1,1,1,0,1","",""
"","html-keyboard-response","45","72793","0.0-63.0","3K5TEWLKGWX2ENZ752HDGPFXGKIIVG","A2199FQE7R6RF6","3H6W48L9F4B5OEOMH57RM53Z4H1WP0","","null","<img src=""img/land2.png"" style=""width:200px; border:14px solid green;"">","null","","","","","","","",""
"","image-keyboard-response","46","73451","0.0-65.0","3K5TEWLKGWX2ENZ752HDGPFXGKIIVG","A2199FQE7R6RF6","3H6W48L9F4B5OEOMH57RM53Z4H1WP0","","656","img/land2.png","75","657.3000000119209","2","1","false","2","1,1,0,0,1,1,1,0,1","",""
"","html-keyboard-response","47","73758","0.0-66.0","3K5TEWLKGWX2ENZ752HDGPFXGKIIVG","A2199FQE7R6RF6","3H6W48L9F4B5OEOMH57RM53Z4H1WP0","","null","<img src=""img/land2.png"" style=""width:200px; border:14px solid green;"">","null","","","","","","","",""
"","image-keyboard-response","48","74419","0.0-68.0","3K5TEWLKGWX2ENZ752HDGPFXGKIIVG","A2199FQE7R6RF6","3H6W48L9F4B5OEOMH57RM53Z4H1WP0","","659.5","img/land1.png","76","660.6999999880791","3","1","false","3","1,1,0,0,1,1,1,0,1","",""
"","html-keyboard-response","49","74721","0.0-69.0","3K5TEWLKGWX2ENZ752HDGPFXGKIIVG","A2199FQE7R6RF6","3H6W48L9F4B5OEOMH57RM53Z4H1WP0","","null","<img src=""img/land1.png"" style=""width:200px; border:14px solid green;"">","null","","","","","","","",""
"","image-keyboard-response","50","75363","0.0-71.0","3K5TEWLKGWX2ENZ752HDGPFXGKIIVG","A2199FQE7R6RF6","3H6W48L9F4B5OEOMH57RM53Z4H1WP0","","639.9000000357628","img/land1.png","76","641.1000000238419","3","1","false","3","1,1,0,0,1,1,1,0,1","",""
"","html-keyboard-response","51","75665","0.0-72.0","3K5TEWLKGWX2ENZ752HDGPFXGKIIVG","A2199FQE7R6RF6","3H6W48L9F4B5OEOMH57RM53Z4H1WP0","","null","<img src=""img/land1.png"" style=""width:200px; border:14px solid green;"">","null","","","","","","","",""
"","image-keyboard-response","52","76283","0.0-74.0","3K5TEWLKGWX2ENZ752HDGPFXGKIIVG","A2199FQE7R6RF6","3H6W48L9F4B5OEOMH57RM53Z4H1WP0","","615.8999999761581","img/land1.png","76","617.1000000238419","3","1","false","3","1,1,0,0,1,1,1,0,1","",""
"","html-keyboard-response","53","76584","0.0-75.0","3K5TEWLKGWX2ENZ752HDGPFXGKIIVG","A2199FQE7R6RF6","3H6W48L9F4B5OEOMH57RM53Z4H1WP0","","null","<img src=""img/land1.png"" style=""width:200px; border:14px solid green;"">","null","","","","","","","",""
"","image-keyboard-response","54","77283","0.0-77.0","3K5TEWLKGWX2ENZ752HDGPFXGKIIVG","A2199FQE7R6RF6","3H6W48L9F4B5OEOMH57RM53Z4H1WP0","","696.9000000357628","img/land5.png","74","698.1000000238419","1","1","false","1","1,1,0,0,1,1,1,0,1","",""
"","html-keyboard-response","55","77585","0.0-78.0","3K5TEWLKGWX2ENZ752HDGPFXGKIIVG","A2199FQE7R6RF6","3H6W48L9F4B5OEOMH57RM53Z4H1WP0","","null","<img src=""img/land5.png"" style=""width:200px; border:14px solid green;"">","null","","","","","","","",""
"","image-keyboard-response","56","78491","0.0-80.0","3K5TEWLKGWX2ENZ752HDGPFXGKIIVG","A2199FQE7R6RF6","3H6W48L9F4B5OEOMH57RM53Z4H1WP0","","904.2000000476837","img/land5.png","74","905.6999999880791","1","1","false","1","1,1,0,0,1,1,1,0,1","",""
"","html-keyboard-response","57","78793","0.0-81.0","3K5TEWLKGWX2ENZ752HDGPFXGKIIVG","A2199FQE7R6RF6","3H6W48L9F4B5OEOMH57RM53Z4H1WP0","","null","<img src=""img/land5.png"" style=""width:200px; border:14px solid green;"">","null","","","","","","","",""
"","image-keyboard-response","58","79798","0.0-83.0","3K5TEWLKGWX2ENZ752HDGPFXGKIIVG","A2199FQE7R6RF6","3H6W48L9F4B5OEOMH57RM53Z4H1WP0","","","img/land1.png","","1004.6000000238419","-1","0","true","3","1,1,0,0,1,1,1,0,1","",""
"","html-keyboard-response","59","80100","0.0-84.0","3K5TEWLKGWX2ENZ752HDGPFXGKIIVG","A2199FQE7R6RF6","3H6W48L9F4B5OEOMH57RM53Z4H1WP0","","null","<img src=""img/land1.png"" style=""width:200px;border:14px solid red;"">","null","","","","","","","",""
"","html-keyboard-response","60","82179","0.0-85.0-0.0","3K5TEWLKGWX2ENZ752HDGPFXGKIIVG","A2199FQE7R6RF6","3H6W48L9F4B5OEOMH57RM53Z4H1WP0","","","","","","","","","","","",""
"","image-keyboard-response","61","82843","0.0-86.0","3K5TEWLKGWX2ENZ752HDGPFXGKIIVG","A2199FQE7R6RF6","3H6W48L9F4B5OEOMH57RM53Z4H1WP0","","662.6999999880791","img/land1.png","74","663.8000000119209","1","1","false","3","1,1,0,0,1,1,1,0,1","",""
"","html-keyboard-response","62","83145","0.0-87.0","3K5TEWLKGWX2ENZ752HDGPFXGKIIVG","A2199FQE7R6RF6","3H6W48L9F4B5OEOMH57RM53Z4H1WP0","","null","<img src=""img/land1.png"" style=""width:200px; border:14px solid green;"">","null","","","","","","","",""
"","image-keyboard-response","63","83867","0.0-89.0","3K5TEWLKGWX2ENZ752HDGPFXGKIIVG","A2199FQE7R6RF6","3H6W48L9F4B5OEOMH57RM53Z4H1WP0","","719.6999999880791","img/land5.png","75","721.1000000238419","2","1","false","1","1,1,0,0,1,1,1,0,1","",""
"","html-keyboard-response","64","84169","0.0-90.0","3K5TEWLKGWX2ENZ752HDGPFXGKIIVG","A2199FQE7R6RF6","3H6W48L9F4B5OEOMH57RM53Z4H1WP0","","null","<img src=""img/land5.png"" style=""width:200px; border:14px solid green;"">","null","","","","","","","",""
"","image-keyboard-response","65","84779","0.0-92.0","3K5TEWLKGWX2ENZ752HDGPFXGKIIVG","A2199FQE7R6RF6","3H6W48L9F4B5OEOMH57RM53Z4H1WP0","","608.1999999880791","img/land2.png","74","609.5","1","0","false","2","1,1,0,0,1,1,1,0,1","",""
"","html-keyboard-response","66","85081","0.0-93.0","3K5TEWLKGWX2ENZ752HDGPFXGKIIVG","A2199FQE7R6RF6","3H6W48L9F4B5OEOMH57RM53Z4H1WP0","","null","<img src=""img/land2.png"" style=""width:200px;border:14px solid red;"">","null","","","","","","","",""
"","image-keyboard-response","67","85811","0.0-95.0","3K5TEWLKGWX2ENZ752HDGPFXGKIIVG","A2199FQE7R6RF6","3H6W48L9F4B5OEOMH57RM53Z4H1WP0","","728.3999999761581","img/land1.png","75","729.6000000238419","2","0","false","3","1,1,0,0,1,1,1,0,1","",""
"","html-keyboard-response","68","86113","0.0-96.0","3K5TEWLKGWX2ENZ752HDGPFXGKIIVG","A2199FQE7R6RF6","3H6W48L9F4B5OEOMH57RM53Z4H1WP0","","null","<img src=""img/land1.png"" style=""width:200px;border:14px solid red;"">","null","","","","","","","",""
"","image-keyboard-response","69","86899","0.0-98.0","3K5TEWLKGWX2ENZ752HDGPFXGKIIVG","A2199FQE7R6RF6","3H6W48L9F4B5OEOMH57RM53Z4H1WP0","","784.1999999880791","img/land5.png","74","785.5","1","1","false","1","1,1,0,0,1,1,1,0,1","",""
"","html-keyboard-response","70","87201","0.0-99.0","3K5TEWLKGWX2ENZ752HDGPFXGKIIVG","A2199FQE7R6RF6","3H6W48L9F4B5OEOMH57RM53Z4H1WP0","","null","<img src=""img/land5.png"" style=""width:200px; border:14px solid green;"">","null","","","","","","","",""
"","image-keyboard-response","71","87923","0.0-101.0","3K5TEWLKGWX2ENZ752HDGPFXGKIIVG","A2199FQE7R6RF6","3H6W48L9F4B5OEOMH57RM53Z4H1WP0","","720.5999999642372","img/land2.png","76","721.8000000119209","3","1","false","2","1,1,0,0,1,1,1,0,1","",""
"","html-keyboard-response","72","88226","0.0-102.0","3K5TEWLKGWX2ENZ752HDGPFXGKIIVG","A2199FQE7R6RF6","3H6W48L9F4B5OEOMH57RM53Z4H1WP0","","null","<img src=""img/land2.png"" style=""width:200px; border:14px solid green;"">","null","","","","","","","",""
"","image-keyboard-response","73","89083","0.0-104.0","3K5TEWLKGWX2ENZ752HDGPFXGKIIVG","A2199FQE7R6RF6","3H6W48L9F4B5OEOMH57RM53Z4H1WP0","","855.4000000357628","img/land5.png","74","856.6999999880791","1","1","false","1","1,1,0,0,1,1,1,0,1","",""
"","html-keyboard-response","74","89386","0.0-105.0","3K5TEWLKGWX2ENZ752HDGPFXGKIIVG","A2199FQE7R6RF6","3H6W48L9F4B5OEOMH57RM53Z4H1WP0","","null","<img src=""img/land5.png"" style=""width:200px; border:14px solid green;"">","null","","","","","","","",""
"","image-keyboard-response","75","90229","0.0-107.0","3K5TEWLKGWX2ENZ752HDGPFXGKIIVG","A2199FQE7R6RF6","3H6W48L9F4B5OEOMH57RM53Z4H1WP0","","842","img/land1.png","75","843.3000000119209","2","0","false","3","1,1,0,0,1,1,1,0,1","",""
"","html-keyboard-response","76","90531","0.0-108.0","3K5TEWLKGWX2ENZ752HDGPFXGKIIVG","A2199FQE7R6RF6","3H6W48L9F4B5OEOMH57RM53Z4H1WP0","","null","<img src=""img/land1.png"" style=""width:200px;border:14px solid red;"">","null","","","","","","","",""
"","image-keyboard-response","77","91411","0.0-110.0","3K5TEWLKGWX2ENZ752HDGPFXGKIIVG","A2199FQE7R6RF6","3H6W48L9F4B5OEOMH57RM53Z4H1WP0","","877.6999999880791","img/land1.png","76","878.8000000119209","3","1","false","3","1,1,0,0,1,1,1,0,1","",""
"","html-keyboard-response","78","91714","0.0-111.0","3K5TEWLKGWX2ENZ752HDGPFXGKIIVG","A2199FQE7R6RF6","3H6W48L9F4B5OEOMH57RM53Z4H1WP0","","null","<img src=""img/land1.png"" style=""width:200px; border:14px solid green;"">","null","","","","","","","",""
"","image-keyboard-response","79","92716","0.0-113.0","3K5TEWLKGWX2ENZ752HDGPFXGKIIVG","A2199FQE7R6RF6","3H6W48L9F4B5OEOMH57RM53Z4H1WP0","","","img/land2.png","","1001.6999999880791","-1","0","true","2","1,1,0,0,1,1,1,0,1","",""
"","html-keyboard-response","80","93018","0.0-114.0","3K5TEWLKGWX2ENZ752HDGPFXGKIIVG","A2199FQE7R6RF6","3H6W48L9F4B5OEOMH57RM53Z4H1WP0","","null","<img src=""img/land2.png"" style=""width:200px;border:14px solid red;"">","null","","","","","","","",""
"","html-keyboard-response","81","95524","0.0-115.0-0.0","3K5TEWLKGWX2ENZ752HDGPFXGKIIVG","A2199FQE7R6RF6","3H6W48L9F4B5OEOMH57RM53Z4H1WP0","","","","","","","","","","","",""
"","image-keyboard-response","82","96526","0.0-116.0","3K5TEWLKGWX2ENZ752HDGPFXGKIIVG","A2199FQE7R6RF6","3H6W48L9F4B5OEOMH57RM53Z4H1WP0","","","img/land2.png","","1001.8999999761581","-1","0","true","2","1,1,0,0,1,1,1,0,1","",""
"","html-keyboard-response","83","96829","0.0-117.0","3K5TEWLKGWX2ENZ752HDGPFXGKIIVG","A2199FQE7R6RF6","3H6W48L9F4B5OEOMH57RM53Z4H1WP0","","null","<img src=""img/land2.png"" style=""width:200px;border:14px solid red;"">","null","","","","","","","",""
"","html-keyboard-response","84","98639","0.0-118.0-0.0","3K5TEWLKGWX2ENZ752HDGPFXGKIIVG","A2199FQE7R6RF6","3H6W48L9F4B5OEOMH57RM53Z4H1WP0","","","","","","","","","","","",""
"","image-keyboard-response","85","99267","0.0-119.0","3K5TEWLKGWX2ENZ752HDGPFXGKIIVG","A2199FQE7R6RF6","3H6W48L9F4B5OEOMH57RM53Z4H1WP0","","626.5","img/land5.png","75","627.6999999880791","2","1","false","1","1,1,0,0,1,1,1,0,1","",""
"","html-keyboard-response","86","99569","0.0-120.0","3K5TEWLKGWX2ENZ752HDGPFXGKIIVG","A2199FQE7R6RF6","3H6W48L9F4B5OEOMH57RM53Z4H1WP0","","null","<img src=""img/land5.png"" style=""width:200px; border:14px solid green;"">","null","","","","","","","",""
"","image-keyboard-response","87","99923","0.0-122.0","3K5TEWLKGWX2ENZ752HDGPFXGKIIVG","A2199FQE7R6RF6","3H6W48L9F4B5OEOMH57RM53Z4H1WP0","","352.30000001192093","img/land5.png","75","353.5","2","1","false","1","1,1,0,0,1,1,1,0,1","",""
"","html-keyboard-response","88","100225","0.0-123.0","3K5TEWLKGWX2ENZ752HDGPFXGKIIVG","A2199FQE7R6RF6","3H6W48L9F4B5OEOMH57RM53Z4H1WP0","","null","<img src=""img/land5.png"" style=""width:200px; border:14px solid green;"">","null","","","","","","","",""
"","image-keyboard-response","89","100790","0.0-125.0","3K5TEWLKGWX2ENZ752HDGPFXGKIIVG","A2199FQE7R6RF6","3H6W48L9F4B5OEOMH57RM53Z4H1WP0","","562.8999999761581","img/land1.png","76","564.1999999880791","3","1","false","3","1,1,0,0,1,1,1,0,1","",""
"","html-keyboard-response","90","101092","0.0-126.0","3K5TEWLKGWX2ENZ752HDGPFXGKIIVG","A2199FQE7R6RF6","3H6W48L9F4B5OEOMH57RM53Z4H1WP0","","null","<img src=""img/land1.png"" style=""width:200px; border:14px solid green;"">","null","","","","","","","",""
"","image-keyboard-response","91","101571","0.0-128.0","3K5TEWLKGWX2ENZ752HDGPFXGKIIVG","A2199FQE7R6RF6","3H6W48L9F4B5OEOMH57RM53Z4H1WP0","","477.60000002384186","img/land1.png","75","478.80000001192093","2","0","false","3","1,1,0,0,1,1,1,0,1","",""
"","html-keyboard-response","92","101873","0.0-129.0","3K5TEWLKGWX2ENZ752HDGPFXGKIIVG","A2199FQE7R6RF6","3H6W48L9F4B5OEOMH57RM53Z4H1WP0","","null","<img src=""img/land1.png"" style=""width:200px;border:14px solid red;"">","null","","","","","","","",""
"","image-keyboard-response","93","102355","0.0-131.0","3K5TEWLKGWX2ENZ752HDGPFXGKIIVG","A2199FQE7R6RF6","3H6W48L9F4B5OEOMH57RM53Z4H1WP0","","480.19999998807907","img/land1.png","74","481.39999997615814","1","1","false","3","1,1,0,0,1,1,1,0,1","",""
"","html-keyboard-response","94","102657","0.0-132.0","3K5TEWLKGWX2ENZ752HDGPFXGKIIVG","A2199FQE7R6RF6","3H6W48L9F4B5OEOMH57RM53Z4H1WP0","","null","<img src=""img/land1.png"" style=""width:200px; border:14px solid green;"">","null","","","","","","","",""
"","image-keyboard-response","95","103163","0.0-134.0","3K5TEWLKGWX2ENZ752HDGPFXGKIIVG","A2199FQE7R6RF6","3H6W48L9F4B5OEOMH57RM53Z4H1WP0","","504.5","img/land1.png","74","505.69999998807907","1","1","false","3","1,1,0,0,1,1,1,0,1","",""
"","html-keyboard-response","96","103465","0.0-135.0","3K5TEWLKGWX2ENZ752HDGPFXGKIIVG","A2199FQE7R6RF6","3H6W48L9F4B5OEOMH57RM53Z4H1WP0","","null","<img src=""img/land1.png"" style=""width:200px; border:14px solid green;"">","null","","","","","","","",""
"","image-keyboard-response","97","103923","0.0-137.0","3K5TEWLKGWX2ENZ752HDGPFXGKIIVG","A2199FQE7R6RF6","3H6W48L9F4B5OEOMH57RM53Z4H1WP0","","456.5","img/land1.png","74","457.69999998807907","1","1","false","3","1,1,0,0,1,1,1,0,1","",""
"","html-keyboard-response","98","104225","0.0-138.0","3K5TEWLKGWX2ENZ752HDGPFXGKIIVG","A2199FQE7R6RF6","3H6W48L9F4B5OEOMH57RM53Z4H1WP0","","null","<img src=""img/land1.png"" style=""width:200px; border:14px solid green;"">","null","","","","","","","",""
"","image-keyboard-response","99","104819","0.0-140.0","3K5TEWLKGWX2ENZ752HDGPFXGKIIVG","A2199FQE7R6RF6","3H6W48L9F4B5OEOMH57RM53Z4H1WP0","","592.6000000238419","img/land2.png","76","593.8000000119209","3","1","false","2","1,1,0,0,1,1,1,0,1","",""
"","html-keyboard-response","100","105121","0.0-141.0","3K5TEWLKGWX2ENZ752HDGPFXGKIIVG","A2199FQE7R6RF6","3H6W48L9F4B5OEOMH57RM53Z4H1WP0","","null","<img src=""img/land2.png"" style=""width:200px; border:14px solid green;"">","null","","","","","","","",""
"","image-keyboard-response","101","105555","0.0-143.0","3K5TEWLKGWX2ENZ752HDGPFXGKIIVG","A2199FQE7R6RF6","3H6W48L9F4B5OEOMH57RM53Z4H1WP0","","432.19999998807907","img/land2.png","76","433.39999997615814","3","1","false","2","1,1,0,0,1,1,1,0,1","",""
"","html-keyboard-response","102","105858","0.0-144.0","3K5TEWLKGWX2ENZ752HDGPFXGKIIVG","A2199FQE7R6RF6","3H6W48L9F4B5OEOMH57RM53Z4H1WP0","","null","<img src=""img/land2.png"" style=""width:200px; border:14px solid green;"">","null","","","","","","","",""
"","image-keyboard-response","103","106483","0.0-146.0","3K5TEWLKGWX2ENZ752HDGPFXGKIIVG","A2199FQE7R6RF6","3H6W48L9F4B5OEOMH57RM53Z4H1WP0","","623.6999999880791","img/land1.png","75","624.8000000119209","2","0","false","3","1,1,0,0,1,1,1,0,1","",""
"","html-keyboard-response","104","106785","0.0-147.0","3K5TEWLKGWX2ENZ752HDGPFXGKIIVG","A2199FQE7R6RF6","3H6W48L9F4B5OEOMH57RM53Z4H1WP0","","null","<img src=""img/land1.png"" style=""width:200px;border:14px solid red;"">","null","","","","","","","",""
"","image-keyboard-response","105","107315","0.0-149.0","3K5TEWLKGWX2ENZ752HDGPFXGKIIVG","A2199FQE7R6RF6","3H6W48L9F4B5OEOMH57RM53Z4H1WP0","","528.6000000238419","img/land2.png","74","529.9000000357628","1","0","false","2","1,1,0,0,1,1,1,0,1","",""
"","html-keyboard-response","106","107617","0.0-150.0","3K5TEWLKGWX2ENZ752HDGPFXGKIIVG","A2199FQE7R6RF6","3H6W48L9F4B5OEOMH57RM53Z4H1WP0","","null","<img src=""img/land2.png"" style=""width:200px;border:14px solid red;"">","null","","","","","","","",""
"","image-keyboard-response","107","108123","0.0-152.0","3K5TEWLKGWX2ENZ752HDGPFXGKIIVG","A2199FQE7R6RF6","3H6W48L9F4B5OEOMH57RM53Z4H1WP0","","504.4000000357628","img/land1.png","76","505.5999999642372","3","1","false","3","1,1,0,0,1,1,1,0,1","",""
"","html-keyboard-response","108","108426","0.0-153.0","3K5TEWLKGWX2ENZ752HDGPFXGKIIVG","A2199FQE7R6RF6","3H6W48L9F4B5OEOMH57RM53Z4H1WP0","","null","<img src=""img/land1.png"" style=""width:200px; border:14px solid green;"">","null","","","","","","","",""
"","image-keyboard-response","109","108835","0.0-155.0","3K5TEWLKGWX2ENZ752HDGPFXGKIIVG","A2199FQE7R6RF6","3H6W48L9F4B5OEOMH57RM53Z4H1WP0","","407.89999997615814","img/land1.png","75","409.10000002384186","2","0","false","3","1,1,0,0,1,1,1,0,1","",""
"","html-keyboard-response","110","109137","0.0-156.0","3K5TEWLKGWX2ENZ752HDGPFXGKIIVG","A2199FQE7R6RF6","3H6W48L9F4B5OEOMH57RM53Z4H1WP0","","null","<img src=""img/land1.png"" style=""width:200px;border:14px solid red;"">","null","","","","","","","",""
"","image-keyboard-response","111","109507","0.0-158.0","3K5TEWLKGWX2ENZ752HDGPFXGKIIVG","A2199FQE7R6RF6","3H6W48L9F4B5OEOMH57RM53Z4H1WP0","","369","img/land1.png","74","370.19999998807907","1","1","false","3","1,1,0,0,1,1,1,0,1","",""
"","html-keyboard-response","112","109810","0.0-159.0","3K5TEWLKGWX2ENZ752HDGPFXGKIIVG","A2199FQE7R6RF6","3H6W48L9F4B5OEOMH57RM53Z4H1WP0","","null","<img src=""img/land1.png"" style=""width:200px; border:14px solid green;"">","null","","","","","","","",""
"","image-keyboard-response","113","110667","0.0-161.0","3K5TEWLKGWX2ENZ752HDGPFXGKIIVG","A2199FQE7R6RF6","3H6W48L9F4B5OEOMH57RM53Z4H1WP0","","855.5","img/land1.png","74","856.8000000119209","1","1","false","3","1,1,0,0,1,1,1,0,1","",""
"","html-keyboard-response","114","110969","0.0-162.0","3K5TEWLKGWX2ENZ752HDGPFXGKIIVG","A2199FQE7R6RF6","3H6W48L9F4B5OEOMH57RM53Z4H1WP0","","null","<img src=""img/land1.png"" style=""width:200px; border:14px solid green;"">","null","","","","","","","",""
"","image-keyboard-response","115","111702","0.0-164.0","3K5TEWLKGWX2ENZ752HDGPFXGKIIVG","A2199FQE7R6RF6","3H6W48L9F4B5OEOMH57RM53Z4H1WP0","","730.8999999761581","img/land1.png","74","732.1999999880791","1","1","false","3","1,1,0,0,1,1,1,0,1","",""
"","html-keyboard-response","116","112004","0.0-165.0","3K5TEWLKGWX2ENZ752HDGPFXGKIIVG","A2199FQE7R6RF6","3H6W48L9F4B5OEOMH57RM53Z4H1WP0","","null","<img src=""img/land1.png"" style=""width:200px; border:14px solid green;"">","null","","","","","","","",""
"","image-keyboard-response","117","112739","0.0-167.0","3K5TEWLKGWX2ENZ752HDGPFXGKIIVG","A2199FQE7R6RF6","3H6W48L9F4B5OEOMH57RM53Z4H1WP0","","733.3999999761581","img/land1.png","74","734.7000000476837","1","1","false","3","1,1,0,0,1,1,1,0,1","",""
"","html-keyboard-response","118","113047","0.0-168.0","3K5TEWLKGWX2ENZ752HDGPFXGKIIVG","A2199FQE7R6RF6","3H6W48L9F4B5OEOMH57RM53Z4H1WP0","","null","<img src=""img/land1.png"" style=""width:200px; border:14px solid green;"">","null","","","","","","","",""
"","image-keyboard-response","119","113947","0.0-170.0","3K5TEWLKGWX2ENZ752HDGPFXGKIIVG","A2199FQE7R6RF6","3H6W48L9F4B5OEOMH57RM53Z4H1WP0","","898.8999999761581","img/land2.png","76","900","3","1","false","2","1,1,0,0,1,1,1,0,1","",""
"","html-keyboard-response","120","114249","0.0-171.0","3K5TEWLKGWX2ENZ752HDGPFXGKIIVG","A2199FQE7R6RF6","3H6W48L9F4B5OEOMH57RM53Z4H1WP0","","null","<img src=""img/land2.png"" style=""width:200px; border:14px solid green;"">","null","","","","","","","",""
"","image-keyboard-response","121","114955","0.0-173.0","3K5TEWLKGWX2ENZ752HDGPFXGKIIVG","A2199FQE7R6RF6","3H6W48L9F4B5OEOMH57RM53Z4H1WP0","","704.1999999880791","img/land2.png","76","705.3999999761581","3","1","false","2","1,1,0,0,1,1,1,0,1","",""
"","html-keyboard-response","122","115257","0.0-174.0","3K5TEWLKGWX2ENZ752HDGPFXGKIIVG","A2199FQE7R6RF6","3H6W48L9F4B5OEOMH57RM53Z4H1WP0","","null","<img src=""img/land2.png"" style=""width:200px; border:14px solid green;"">","null","","","","","","","",""
"","image-keyboard-response","123","116147","0.0-176.0","3K5TEWLKGWX2ENZ752HDGPFXGKIIVG","A2199FQE7R6RF6","3H6W48L9F4B5OEOMH57RM53Z4H1WP0","","888.5","img/land5.png","75","889.8000000119209","2","1","false","1","1,1,0,0,1,1,1,0,1","",""
"","html-keyboard-response","124","116449","0.0-177.0","3K5TEWLKGWX2ENZ752HDGPFXGKIIVG","A2199FQE7R6RF6","3H6W48L9F4B5OEOMH57RM53Z4H1WP0","","null","<img src=""img/land5.png"" style=""width:200px; border:14px solid green;"">","null","","","","","","","",""
"","image-keyboard-response","125","117331","0.0-179.0","3K5TEWLKGWX2ENZ752HDGPFXGKIIVG","A2199FQE7R6RF6","3H6W48L9F4B5OEOMH57RM53Z4H1WP0","","880.5","img/land2.png","76","881.8000000119209","3","1","false","2","1,1,0,0,1,1,1,0,1","",""
"","html-keyboard-response","126","117633","0.0-180.0","3K5TEWLKGWX2ENZ752HDGPFXGKIIVG","A2199FQE7R6RF6","3H6W48L9F4B5OEOMH57RM53Z4H1WP0","","null","<img src=""img/land2.png"" style=""width:200px; border:14px solid green;"">","null","","","","","","","",""
"","image-keyboard-response","127","118203","0.0-182.0","3K5TEWLKGWX2ENZ752HDGPFXGKIIVG","A2199FQE7R6RF6","3H6W48L9F4B5OEOMH57RM53Z4H1WP0","","568","img/land5.png","75","569.3000000119209","2","1","false","1","1,1,0,0,1,1,1,0,1","",""
"","html-keyboard-response","128","118505","0.0-183.0","3K5TEWLKGWX2ENZ752HDGPFXGKIIVG","A2199FQE7R6RF6","3H6W48L9F4B5OEOMH57RM53Z4H1WP0","","null","<img src=""img/land5.png"" style=""width:200px; border:14px solid green;"">","null","","","","","","","",""
"","image-keyboard-response","129","119235","0.0-185.0","3K5TEWLKGWX2ENZ752HDGPFXGKIIVG","A2199FQE7R6RF6","3H6W48L9F4B5OEOMH57RM53Z4H1WP0","","728.6000000238419","img/land5.png","75","729.8000000119209","2","1","false","1","1,1,0,0,1,1,1,0,1","",""
"","html-keyboard-response","130","119537","0.0-186.0","3K5TEWLKGWX2ENZ752HDGPFXGKIIVG","A2199FQE7R6RF6","3H6W48L9F4B5OEOMH57RM53Z4H1WP0","","null","<img src=""img/land5.png"" style=""width:200px; border:14px solid green;"">","null","","","","","","","",""
"","image-keyboard-response","131","120155","0.0-188.0","3K5TEWLKGWX2ENZ752HDGPFXGKIIVG","A2199FQE7R6RF6","3H6W48L9F4B5OEOMH57RM53Z4H1WP0","","616.2999999523163","img/land5.png","75","617.8000000119209","2","1","false","1","1,1,0,0,1,1,1,0,1","",""
"","html-keyboard-response","132","120457","0.0-189.0","3K5TEWLKGWX2ENZ752HDGPFXGKIIVG","A2199FQE7R6RF6","3H6W48L9F4B5OEOMH57RM53Z4H1WP0","","null","<img src=""img/land5.png"" style=""width:200px; border:14px solid green;"">","null","","","","","","","",""
"","image-keyboard-response","133","121019","0.0-191.0","3K5TEWLKGWX2ENZ752HDGPFXGKIIVG","A2199FQE7R6RF6","3H6W48L9F4B5OEOMH57RM53Z4H1WP0","","560.7000000476837","img/land2.png","76","561.8999999761581","3","1","false","2","1,1,0,0,1,1,1,0,1","",""
"","html-keyboard-response","134","121321","0.0-192.0","3K5TEWLKGWX2ENZ752HDGPFXGKIIVG","A2199FQE7R6RF6","3H6W48L9F4B5OEOMH57RM53Z4H1WP0","","null","<img src=""img/land2.png"" style=""width:200px; border:14px solid green;"">","null","","","","","","","",""
"","image-keyboard-response","135","122005","0.0-194.0","3K5TEWLKGWX2ENZ752HDGPFXGKIIVG","A2199FQE7R6RF6","3H6W48L9F4B5OEOMH57RM53Z4H1WP0","","682.8000000119209","img/land2.png","76","684.1999999880791","3","1","false","2","1,1,0,0,1,1,1,0,1","",""
"","html-keyboard-response","136","122308","0.0-195.0","3K5TEWLKGWX2ENZ752HDGPFXGKIIVG","A2199FQE7R6RF6","3H6W48L9F4B5OEOMH57RM53Z4H1WP0","","null","<img src=""img/land2.png"" style=""width:200px; border:14px solid green;"">","null","","","","","","","",""
"","image-keyboard-response","137","123155","0.0-197.0","3K5TEWLKGWX2ENZ752HDGPFXGKIIVG","A2199FQE7R6RF6","3H6W48L9F4B5OEOMH57RM53Z4H1WP0","","845.5","img/land5.png","75","846.5999999642372","2","1","false","1","1,1,0,0,1,1,1,0,1","",""
"","html-keyboard-response","138","123457","0.0-198.0","3K5TEWLKGWX2ENZ752HDGPFXGKIIVG","A2199FQE7R6RF6","3H6W48L9F4B5OEOMH57RM53Z4H1WP0","","null","<img src=""img/land5.png"" style=""width:200px; border:14px solid green;"">","null","","","","","","","",""
"","image-keyboard-response","139","124355","0.0-200.0","3K5TEWLKGWX2ENZ752HDGPFXGKIIVG","A2199FQE7R6RF6","3H6W48L9F4B5OEOMH57RM53Z4H1WP0","","896.7000000476837","img/land5.png","75","897.8999999761581","2","1","false","1","1,1,0,0,1,1,1,0,1","",""
"","html-keyboard-response","140","124657","0.0-201.0","3K5TEWLKGWX2ENZ752HDGPFXGKIIVG","A2199FQE7R6RF6","3H6W48L9F4B5OEOMH57RM53Z4H1WP0","","null","<img src=""img/land5.png"" style=""width:200px; border:14px solid green;"">","null","","","","","","","",""
"","image-keyboard-response","141","125603","0.0-203.0","3K5TEWLKGWX2ENZ752HDGPFXGKIIVG","A2199FQE7R6RF6","3H6W48L9F4B5OEOMH57RM53Z4H1WP0","","944.6000000238419","img/land1.png","74","945.6999999880791","1","1","false","3","1,1,0,0,1,1,1,0,1","",""
"","html-keyboard-response","142","125905","0.0-204.0","3K5TEWLKGWX2ENZ752HDGPFXGKIIVG","A2199FQE7R6RF6","3H6W48L9F4B5OEOMH57RM53Z4H1WP0","","null","<img src=""img/land1.png"" style=""width:200px; border:14px solid green;"">","null","","","","","","","",""
"","image-keyboard-response","143","126731","0.0-206.0","3K5TEWLKGWX2ENZ752HDGPFXGKIIVG","A2199FQE7R6RF6","3H6W48L9F4B5OEOMH57RM53Z4H1WP0","","824.5","img/land2.png","76","825.8000000119209","3","1","false","2","1,1,0,0,1,1,1,0,1","",""
"","html-keyboard-response","144","127039","0.0-207.0","3K5TEWLKGWX2ENZ752HDGPFXGKIIVG","A2199FQE7R6RF6","3H6W48L9F4B5OEOMH57RM53Z4H1WP0","","null","<img src=""img/land2.png"" style=""width:200px; border:14px solid green;"">","null","","","","","","","",""
"","image-keyboard-response","145","127699","0.0-209.0","3K5TEWLKGWX2ENZ752HDGPFXGKIIVG","A2199FQE7R6RF6","3H6W48L9F4B5OEOMH57RM53Z4H1WP0","","658.6999999880791","img/land2.png","76","660","3","1","false","2","1,1,0,0,1,1,1,0,1","",""
"","html-keyboard-response","146","128001","0.0-210.0","3K5TEWLKGWX2ENZ752HDGPFXGKIIVG","A2199FQE7R6RF6","3H6W48L9F4B5OEOMH57RM53Z4H1WP0","","null","<img src=""img/land2.png"" style=""width:200px; border:14px solid green;"">","null","","","","","","","",""
"","image-keyboard-response","147","128915","0.0-212.0","3K5TEWLKGWX2ENZ752HDGPFXGKIIVG","A2199FQE7R6RF6","3H6W48L9F4B5OEOMH57RM53Z4H1WP0","","912.5","img/land5.png","75","913.6999999880791","2","1","false","1","1,1,0,0,1,1,1,0,1","",""
"","html-keyboard-response","148","129224","0.0-213.0","3K5TEWLKGWX2ENZ752HDGPFXGKIIVG","A2199FQE7R6RF6","3H6W48L9F4B5OEOMH57RM53Z4H1WP0","","null","<img src=""img/land5.png"" style=""width:200px; border:14px solid green;"">","null","","","","","","","",""
"","image-keyboard-response","149","129915","0.0-215.0","3K5TEWLKGWX2ENZ752HDGPFXGKIIVG","A2199FQE7R6RF6","3H6W48L9F4B5OEOMH57RM53Z4H1WP0","","689.6000000238419","img/land5.png","75","690.6999999880791","2","1","false","1","1,1,0,0,1,1,1,0,1","",""
"","html-keyboard-response","150","130217","0.0-216.0","3K5TEWLKGWX2ENZ752HDGPFXGKIIVG","A2199FQE7R6RF6","3H6W48L9F4B5OEOMH57RM53Z4H1WP0","","null","<img src=""img/land5.png"" style=""width:200px; border:14px solid green;"">","null","","","","","","","",""
"","image-keyboard-response","151","130819","0.0-218.0","3K5TEWLKGWX2ENZ752HDGPFXGKIIVG","A2199FQE7R6RF6","3H6W48L9F4B5OEOMH57RM53Z4H1WP0","","600.6000000238419","img/land5.png","75","601.6999999880791","2","1","false","1","1,1,0,0,1,1,1,0,1","",""
"","html-keyboard-response","152","131121","0.0-219.0","3K5TEWLKGWX2ENZ752HDGPFXGKIIVG","A2199FQE7R6RF6","3H6W48L9F4B5OEOMH57RM53Z4H1WP0","","null","<img src=""img/land5.png"" style=""width:200px; border:14px solid green;"">","null","","","","","","","",""
"","image-keyboard-response","153","131731","0.0-221.0","3K5TEWLKGWX2ENZ752HDGPFXGKIIVG","A2199FQE7R6RF6","3H6W48L9F4B5OEOMH57RM53Z4H1WP0","","608.6000000238419","img/land5.png","75","609.6999999880791","2","1","false","1","1,1,0,0,1,1,1,0,1","",""
"","html-keyboard-response","154","132033","0.0-222.0","3K5TEWLKGWX2ENZ752HDGPFXGKIIVG","A2199FQE7R6RF6","3H6W48L9F4B5OEOMH57RM53Z4H1WP0","","null","<img src=""img/land5.png"" style=""width:200px; border:14px solid green;"">","null","","","","","","","",""
"","image-keyboard-response","155","133035","0.0-224.0","3K5TEWLKGWX2ENZ752HDGPFXGKIIVG","A2199FQE7R6RF6","3H6W48L9F4B5OEOMH57RM53Z4H1WP0","","","img/land1.png","","1001.6000000238419","-1","0","true","3","1,1,0,0,1,1,1,0,1","",""
"","html-keyboard-response","156","133337","0.0-225.0","3K5TEWLKGWX2ENZ752HDGPFXGKIIVG","A2199FQE7R6RF6","3H6W48L9F4B5OEOMH57RM53Z4H1WP0","","null","<img src=""img/land1.png"" style=""width:200px;border:14px solid red;"">","null","","","","","","","",""
"","html-keyboard-response","157","135028","0.0-226.0-0.0","3K5TEWLKGWX2ENZ752HDGPFXGKIIVG","A2199FQE7R6RF6","3H6W48L9F4B5OEOMH57RM53Z4H1WP0","","","","","","","","","","","",""
"","image-keyboard-response","158","136030","0.0-227.0","3K5TEWLKGWX2ENZ752HDGPFXGKIIVG","A2199FQE7R6RF6","3H6W48L9F4B5OEOMH57RM53Z4H1WP0","","","img/land2.png","","1001.8000000119209","-1","0","true","2","1,1,0,0,1,1,1,0,1","",""
"","html-keyboard-response","159","136332","0.0-228.0","3K5TEWLKGWX2ENZ752HDGPFXGKIIVG","A2199FQE7R6RF6","3H6W48L9F4B5OEOMH57RM53Z4H1WP0","","null","<img src=""img/land2.png"" style=""width:200px;border:14px solid red;"">","null","","","","","","","",""
"","html-keyboard-response","160","137880","0.0-229.0-0.0","3K5TEWLKGWX2ENZ752HDGPFXGKIIVG","A2199FQE7R6RF6","3H6W48L9F4B5OEOMH57RM53Z4H1WP0","","","","","","","","","","","",""
"","image-keyboard-response","161","138451","0.0-230.0","3K5TEWLKGWX2ENZ752HDGPFXGKIIVG","A2199FQE7R6RF6","3H6W48L9F4B5OEOMH57RM53Z4H1WP0","","569.0999999642372","img/land5.png","76","570.1000000238419","3","0","false","1","1,1,0,0,1,1,1,0,1","",""
"","html-keyboard-response","162","138753","0.0-231.0","3K5TEWLKGWX2ENZ752HDGPFXGKIIVG","A2199FQE7R6RF6","3H6W48L9F4B5OEOMH57RM53Z4H1WP0","","null","<img src=""img/land5.png"" style=""width:200px;border:14px solid red;"">","null","","","","","","","",""
"","image-keyboard-response","163","139195","0.0-233.0","3K5TEWLKGWX2ENZ752HDGPFXGKIIVG","A2199FQE7R6RF6","3H6W48L9F4B5OEOMH57RM53Z4H1WP0","","440.30000001192093","img/land5.png","75","441.5","2","1","false","1","1,1,0,0,1,1,1,0,1","",""
"","html-keyboard-response","164","139497","0.0-234.0","3K5TEWLKGWX2ENZ752HDGPFXGKIIVG","A2199FQE7R6RF6","3H6W48L9F4B5OEOMH57RM53Z4H1WP0","","null","<img src=""img/land5.png"" style=""width:200px; border:14px solid green;"">","null","","","","","","","",""
"","image-keyboard-response","165","140035","0.0-236.0","3K5TEWLKGWX2ENZ752HDGPFXGKIIVG","A2199FQE7R6RF6","3H6W48L9F4B5OEOMH57RM53Z4H1WP0","","536.4000000357628","img/land2.png","74","537.5999999642372","1","0","false","2","1,1,0,0,1,1,1,0,1","",""
"","html-keyboard-response","166","140337","0.0-237.0","3K5TEWLKGWX2ENZ752HDGPFXGKIIVG","A2199FQE7R6RF6","3H6W48L9F4B5OEOMH57RM53Z4H1WP0","","null","<img src=""img/land2.png"" style=""width:200px;border:14px solid red;"">","null","","","","","","","",""
"","image-keyboard-response","167","140891","0.0-239.0","3K5TEWLKGWX2ENZ752HDGPFXGKIIVG","A2199FQE7R6RF6","3H6W48L9F4B5OEOMH57RM53Z4H1WP0","","552.5","img/land5.png","74","553.8000000119209","1","1","false","1","1,1,0,0,1,1,1,0,1","",""
"","html-keyboard-response","168","141192","0.0-240.0","3K5TEWLKGWX2ENZ752HDGPFXGKIIVG","A2199FQE7R6RF6","3H6W48L9F4B5OEOMH57RM53Z4H1WP0","","null","<img src=""img/land5.png"" style=""width:200px; border:14px solid green;"">","null","","","","","","","",""
"","image-keyboard-response","169","141787","0.0-242.0","3K5TEWLKGWX2ENZ752HDGPFXGKIIVG","A2199FQE7R6RF6","3H6W48L9F4B5OEOMH57RM53Z4H1WP0","","592.6000000238419","img/land5.png","74","593.9000000357628","1","1","false","1","1,1,0,0,1,1,1,0,1","",""
"","html-keyboard-response","170","142089","0.0-243.0","3K5TEWLKGWX2ENZ752HDGPFXGKIIVG","A2199FQE7R6RF6","3H6W48L9F4B5OEOMH57RM53Z4H1WP0","","null","<img src=""img/land5.png"" style=""width:200px; border:14px solid green;"">","null","","","","","","","",""
"","image-keyboard-response","171","142683","0.0-245.0","3K5TEWLKGWX2ENZ752HDGPFXGKIIVG","A2199FQE7R6RF6","3H6W48L9F4B5OEOMH57RM53Z4H1WP0","","592.2999999523163","img/land5.png","74","593.4000000357628","1","1","false","1","1,1,0,0,1,1,1,0,1","",""
"","html-keyboard-response","172","142985","0.0-246.0","3K5TEWLKGWX2ENZ752HDGPFXGKIIVG","A2199FQE7R6RF6","3H6W48L9F4B5OEOMH57RM53Z4H1WP0","","null","<img src=""img/land5.png"" style=""width:200px; border:14px solid green;"">","null","","","","","","","",""
"","image-keyboard-response","173","143797","0.0-248.0","3K5TEWLKGWX2ENZ752HDGPFXGKIIVG","A2199FQE7R6RF6","3H6W48L9F4B5OEOMH57RM53Z4H1WP0","","811","img/land2.png","76","812.3999999761581","3","1","false","2","1,1,0,0,1,1,1,0,1","",""
"","html-keyboard-response","174","144100","0.0-249.0","3K5TEWLKGWX2ENZ752HDGPFXGKIIVG","A2199FQE7R6RF6","3H6W48L9F4B5OEOMH57RM53Z4H1WP0","","null","<img src=""img/land2.png"" style=""width:200px; border:14px solid green;"">","null","","","","","","","",""
"","image-keyboard-response","175","144611","0.0-251.0","3K5TEWLKGWX2ENZ752HDGPFXGKIIVG","A2199FQE7R6RF6","3H6W48L9F4B5OEOMH57RM53Z4H1WP0","","509.60000002384186","img/land5.png","74","510.80000001192093","1","1","false","1","1,1,0,0,1,1,1,0,1","",""
"","html-keyboard-response","176","144912","0.0-252.0","3K5TEWLKGWX2ENZ752HDGPFXGKIIVG","A2199FQE7R6RF6","3H6W48L9F4B5OEOMH57RM53Z4H1WP0","","null","<img src=""img/land5.png"" style=""width:200px; border:14px solid green;"">","null","","","","","","","",""
"","image-keyboard-response","177","145555","0.0-254.0","3K5TEWLKGWX2ENZ752HDGPFXGKIIVG","A2199FQE7R6RF6","3H6W48L9F4B5OEOMH57RM53Z4H1WP0","","640.5","img/land5.png","74","641.9000000357628","1","1","false","1","1,1,0,0,1,1,1,0,1","",""
"","html-keyboard-response","178","145857","0.0-255.0","3K5TEWLKGWX2ENZ752HDGPFXGKIIVG","A2199FQE7R6RF6","3H6W48L9F4B5OEOMH57RM53Z4H1WP0","","null","<img src=""img/land5.png"" style=""width:200px; border:14px solid green;"">","null","","","","","","","",""
"","image-keyboard-response","179","146403","0.0-257.0","3K5TEWLKGWX2ENZ752HDGPFXGKIIVG","A2199FQE7R6RF6","3H6W48L9F4B5OEOMH57RM53Z4H1WP0","","544.1999999880791","img/land1.png","76","545.5","3","1","false","3","1,1,0,0,1,1,1,0,1","",""
"","html-keyboard-response","180","146705","0.0-258.0","3K5TEWLKGWX2ENZ752HDGPFXGKIIVG","A2199FQE7R6RF6","3H6W48L9F4B5OEOMH57RM53Z4H1WP0","","null","<img src=""img/land1.png"" style=""width:200px; border:14px solid green;"">","null","","","","","","","",""
"","image-keyboard-response","181","147179","0.0-260.0","3K5TEWLKGWX2ENZ752HDGPFXGKIIVG","A2199FQE7R6RF6","3H6W48L9F4B5OEOMH57RM53Z4H1WP0","","472.5","img/land1.png","76","473.69999998807907","3","1","false","3","1,1,0,0,1,1,1,0,1","",""
"","html-keyboard-response","182","147480","0.0-261.0","3K5TEWLKGWX2ENZ752HDGPFXGKIIVG","A2199FQE7R6RF6","3H6W48L9F4B5OEOMH57RM53Z4H1WP0","","null","<img src=""img/land1.png"" style=""width:200px; border:14px solid green;"">","null","","","","","","","",""
"","image-keyboard-response","183","147939","0.0-263.0","3K5TEWLKGWX2ENZ752HDGPFXGKIIVG","A2199FQE7R6RF6","3H6W48L9F4B5OEOMH57RM53Z4H1WP0","","456.5","img/land1.png","74","457.80000001192093","1","1","false","3","1,1,0,0,1,1,1,0,1","",""
"","html-keyboard-response","184","148240","0.0-264.0","3K5TEWLKGWX2ENZ752HDGPFXGKIIVG","A2199FQE7R6RF6","3H6W48L9F4B5OEOMH57RM53Z4H1WP0","","null","<img src=""img/land1.png"" style=""width:200px; border:14px solid green;"">","null","","","","","","","",""
"","image-keyboard-response","185","149155","0.0-266.0","3K5TEWLKGWX2ENZ752HDGPFXGKIIVG","A2199FQE7R6RF6","3H6W48L9F4B5OEOMH57RM53Z4H1WP0","","912.3999999761581","img/land1.png","76","913.8000000119209","3","1","false","3","1,1,0,0,1,1,1,0,1","",""
"","html-keyboard-response","186","149458","0.0-267.0","3K5TEWLKGWX2ENZ752HDGPFXGKIIVG","A2199FQE7R6RF6","3H6W48L9F4B5OEOMH57RM53Z4H1WP0","","null","<img src=""img/land1.png"" style=""width:200px; border:14px solid green;"">","null","","","","","","","",""
"","image-keyboard-response","187","150443","0.0-269.0","3K5TEWLKGWX2ENZ752HDGPFXGKIIVG","A2199FQE7R6RF6","3H6W48L9F4B5OEOMH57RM53Z4H1WP0","","983","img/land5.png","75","984.1999999880791","2","1","false","1","1,1,0,0,1,1,1,0,1","",""
"","html-keyboard-response","188","150745","0.0-270.0","3K5TEWLKGWX2ENZ752HDGPFXGKIIVG","A2199FQE7R6RF6","3H6W48L9F4B5OEOMH57RM53Z4H1WP0","","null","<img src=""img/land5.png"" style=""width:200px; border:14px solid green;"">","null","","","","","","","",""
"","html-keyboard-response","189","154026","0.0-272.0","3K5TEWLKGWX2ENZ752HDGPFXGKIIVG","A2199FQE7R6RF6","3H6W48L9F4B5OEOMH57RM53Z4H1WP0","","","","","","","","","","","",""
"","image-keyboard-response","190","154899","0.0-273.0","3K5TEWLKGWX2ENZ752HDGPFXGKIIVG","A2199FQE7R6RF6","3H6W48L9F4B5OEOMH57RM53Z4H1WP0","","871.3000000119209","img/land3.png","75","872.6999999880791","2","1","false","1","1,0.5,0.5,0.5,1,0.5,0.5,0.5,1","",""
"","html-keyboard-response","191","155201","0.0-274.0","3K5TEWLKGWX2ENZ752HDGPFXGKIIVG","A2199FQE7R6RF6","3H6W48L9F4B5OEOMH57RM53Z4H1WP0","","null","<img src=""img/land3.png"" style=""width:200px; border:14px solid green;"">","null","","","","","","","",""
"","image-keyboard-response","192","155619","0.0-276.0","3K5TEWLKGWX2ENZ752HDGPFXGKIIVG","A2199FQE7R6RF6","3H6W48L9F4B5OEOMH57RM53Z4H1WP0","","416","img/land4.png","75","417.30000001192093","2","0","false","3","1,0.5,0.5,0.5,1,0.5,0.5,0.5,1","",""
"","html-keyboard-response","193","155920","0.0-277.0","3K5TEWLKGWX2ENZ752HDGPFXGKIIVG","A2199FQE7R6RF6","3H6W48L9F4B5OEOMH57RM53Z4H1WP0","","null","<img src=""img/land4.png"" style=""width:200px;border:14px solid red;"">","null","","","","","","","",""
"","image-keyboard-response","194","156491","0.0-279.0","3K5TEWLKGWX2ENZ752HDGPFXGKIIVG","A2199FQE7R6RF6","3H6W48L9F4B5OEOMH57RM53Z4H1WP0","","568.5","img/land3.png","74","569.6999999880791","1","1","false","1","1,0.5,0.5,0.5,1,0.5,0.5,0.5,1","",""
"","html-keyboard-response","195","156792","0.0-280.0","3K5TEWLKGWX2ENZ752HDGPFXGKIIVG","A2199FQE7R6RF6","3H6W48L9F4B5OEOMH57RM53Z4H1WP0","","null","<img src=""img/land3.png"" style=""width:200px; border:14px solid green;"">","null","","","","","","","",""
"","image-keyboard-response","196","157371","0.0-282.0","3K5TEWLKGWX2ENZ752HDGPFXGKIIVG","A2199FQE7R6RF6","3H6W48L9F4B5OEOMH57RM53Z4H1WP0","","576.4000000357628","img/land3.png","74","577.6000000238419","1","1","false","1","1,0.5,0.5,0.5,1,0.5,0.5,0.5,1","",""
"","html-keyboard-response","197","157672","0.0-283.0","3K5TEWLKGWX2ENZ752HDGPFXGKIIVG","A2199FQE7R6RF6","3H6W48L9F4B5OEOMH57RM53Z4H1WP0","","null","<img src=""img/land3.png"" style=""width:200px; border:14px solid green;"">","null","","","","","","","",""
"","image-keyboard-response","198","158202","0.0-285.0","3K5TEWLKGWX2ENZ752HDGPFXGKIIVG","A2199FQE7R6RF6","3H6W48L9F4B5OEOMH57RM53Z4H1WP0","","528.4000000357628","img/land3.png","74","529.7000000476837","1","1","false","1","1,0.5,0.5,0.5,1,0.5,0.5,0.5,1","",""
"","html-keyboard-response","199","158504","0.0-286.0","3K5TEWLKGWX2ENZ752HDGPFXGKIIVG","A2199FQE7R6RF6","3H6W48L9F4B5OEOMH57RM53Z4H1WP0","","null","<img src=""img/land3.png"" style=""width:200px; border:14px solid green;"">","null","","","","","","","",""
"","image-keyboard-response","200","159186","0.0-288.0","3K5TEWLKGWX2ENZ752HDGPFXGKIIVG","A2199FQE7R6RF6","3H6W48L9F4B5OEOMH57RM53Z4H1WP0","","680.4000000357628","img/land6.png","76","681.6000000238419","3","0","false","2","1,0.5,0.5,0.5,1,0.5,0.5,0.5,1","",""
"","html-keyboard-response","201","159489","0.0-289.0","3K5TEWLKGWX2ENZ752HDGPFXGKIIVG","A2199FQE7R6RF6","3H6W48L9F4B5OEOMH57RM53Z4H1WP0","","null","<img src=""img/land6.png"" style=""width:200px;border:14px solid red;"">","null","","","","","","","",""
"","image-keyboard-response","202","159955","0.0-291.0","3K5TEWLKGWX2ENZ752HDGPFXGKIIVG","A2199FQE7R6RF6","3H6W48L9F4B5OEOMH57RM53Z4H1WP0","","463.9000000357628","img/land6.png","75","465.10000002384186","2","1","false","2","1,0.5,0.5,0.5,1,0.5,0.5,0.5,1","",""
"","html-keyboard-response","203","160258","0.0-292.0","3K5TEWLKGWX2ENZ752HDGPFXGKIIVG","A2199FQE7R6RF6","3H6W48L9F4B5OEOMH57RM53Z4H1WP0","","null","<img src=""img/land6.png"" style=""width:200px; border:14px solid green;"">","null","","","","","","","",""
"","image-keyboard-response","204","160803","0.0-294.0","3K5TEWLKGWX2ENZ752HDGPFXGKIIVG","A2199FQE7R6RF6","3H6W48L9F4B5OEOMH57RM53Z4H1WP0","","543.0999999642372","img/land6.png","75","544.3000000119209","2","1","false","2","1,0.5,0.5,0.5,1,0.5,0.5,0.5,1","",""
"","html-keyboard-response","205","161104","0.0-295.0","3K5TEWLKGWX2ENZ752HDGPFXGKIIVG","A2199FQE7R6RF6","3H6W48L9F4B5OEOMH57RM53Z4H1WP0","","null","<img src=""img/land6.png"" style=""width:200px; border:14px solid green;"">","null","","","","","","","",""
"","image-keyboard-response","206","161715","0.0-297.0","3K5TEWLKGWX2ENZ752HDGPFXGKIIVG","A2199FQE7R6RF6","3H6W48L9F4B5OEOMH57RM53Z4H1WP0","","608.6999999880791","img/land6.png","75","609.9000000357628","2","1","false","2","1,0.5,0.5,0.5,1,0.5,0.5,0.5,1","",""
"","html-keyboard-response","207","162018","0.0-298.0","3K5TEWLKGWX2ENZ752HDGPFXGKIIVG","A2199FQE7R6RF6","3H6W48L9F4B5OEOMH57RM53Z4H1WP0","","null","<img src=""img/land6.png"" style=""width:200px; border:14px solid green;"">","null","","","","","","","",""
"","image-keyboard-response","208","162906","0.0-300.0","3K5TEWLKGWX2ENZ752HDGPFXGKIIVG","A2199FQE7R6RF6","3H6W48L9F4B5OEOMH57RM53Z4H1WP0","","887","img/land4.png","74","888.1000000238419","1","0","false","3","1,0.5,0.5,0.5,1,0.5,0.5,0.5,1","",""
"","html-keyboard-response","209","163209","0.0-301.0","3K5TEWLKGWX2ENZ752HDGPFXGKIIVG","A2199FQE7R6RF6","3H6W48L9F4B5OEOMH57RM53Z4H1WP0","","null","<img src=""img/land4.png"" style=""width:200px;border:14px solid red;"">","null","","","","","","","",""
"","image-keyboard-response","210","163933","0.0-303.0","3K5TEWLKGWX2ENZ752HDGPFXGKIIVG","A2199FQE7R6RF6","3H6W48L9F4B5OEOMH57RM53Z4H1WP0","","722.5","img/land4.png","76","723.8000000119209","3","1","false","3","1,0.5,0.5,0.5,1,0.5,0.5,0.5,1","",""
"","html-keyboard-response","211","164235","0.0-304.0","3K5TEWLKGWX2ENZ752HDGPFXGKIIVG","A2199FQE7R6RF6","3H6W48L9F4B5OEOMH57RM53Z4H1WP0","","null","<img src=""img/land4.png"" style=""width:200px; border:14px solid green;"">","null","","","","","","","",""
"","image-keyboard-response","212","164994","0.0-306.0","3K5TEWLKGWX2ENZ752HDGPFXGKIIVG","A2199FQE7R6RF6","3H6W48L9F4B5OEOMH57RM53Z4H1WP0","","758.2000000476837","img/land4.png","76","759.6000000238419","3","1","false","3","1,0.5,0.5,0.5,1,0.5,0.5,0.5,1","",""
"","html-keyboard-response","213","165296","0.0-307.0","3K5TEWLKGWX2ENZ752HDGPFXGKIIVG","A2199FQE7R6RF6","3H6W48L9F4B5OEOMH57RM53Z4H1WP0","","null","<img src=""img/land4.png"" style=""width:200px; border:14px solid green;"">","null","","","","","","","",""
"","image-keyboard-response","214","166002","0.0-309.0","3K5TEWLKGWX2ENZ752HDGPFXGKIIVG","A2199FQE7R6RF6","3H6W48L9F4B5OEOMH57RM53Z4H1WP0","","704.3999999761581","img/land3.png","75","705.6999999880791","2","0","false","1","1,0.5,0.5,0.5,1,0.5,0.5,0.5,1","",""
"","html-keyboard-response","215","166304","0.0-310.0","3K5TEWLKGWX2ENZ752HDGPFXGKIIVG","A2199FQE7R6RF6","3H6W48L9F4B5OEOMH57RM53Z4H1WP0","","null","<img src=""img/land3.png"" style=""width:200px;border:14px solid red;"">","null","","","","","","","",""
"","image-keyboard-response","216","167114","0.0-312.0","3K5TEWLKGWX2ENZ752HDGPFXGKIIVG","A2199FQE7R6RF6","3H6W48L9F4B5OEOMH57RM53Z4H1WP0","","808.6000000238419","img/land4.png","76","809.8000000119209","3","1","false","3","1,0.5,0.5,0.5,1,0.5,0.5,0.5,1","",""
"","html-keyboard-response","217","167417","0.0-313.0","3K5TEWLKGWX2ENZ752HDGPFXGKIIVG","A2199FQE7R6RF6","3H6W48L9F4B5OEOMH57RM53Z4H1WP0","","null","<img src=""img/land4.png"" style=""width:200px; border:14px solid green;"">","null","","","","","","","",""
"","image-keyboard-response","218","168290","0.0-315.0","3K5TEWLKGWX2ENZ752HDGPFXGKIIVG","A2199FQE7R6RF6","3H6W48L9F4B5OEOMH57RM53Z4H1WP0","","872.2000000476837","img/land4.png","76","873.5","3","1","false","3","1,0.5,0.5,0.5,1,0.5,0.5,0.5,1","",""
"","html-keyboard-response","219","168606","0.0-316.0","3K5TEWLKGWX2ENZ752HDGPFXGKIIVG","A2199FQE7R6RF6","3H6W48L9F4B5OEOMH57RM53Z4H1WP0","","null","<img src=""img/land4.png"" style=""width:200px; border:14px solid green;"">","null","","","","","","","",""
"","image-keyboard-response","220","169410","0.0-318.0","3K5TEWLKGWX2ENZ752HDGPFXGKIIVG","A2199FQE7R6RF6","3H6W48L9F4B5OEOMH57RM53Z4H1WP0","","803","img/land6.png","74","804.1999999880791","1","0","false","2","1,0.5,0.5,0.5,1,0.5,0.5,0.5,1","",""
"","html-keyboard-response","221","169713","0.0-319.0","3K5TEWLKGWX2ENZ752HDGPFXGKIIVG","A2199FQE7R6RF6","3H6W48L9F4B5OEOMH57RM53Z4H1WP0","","null","<img src=""img/land6.png"" style=""width:200px;border:14px solid red;"">","null","","","","","","","",""
"","image-keyboard-response","222","170434","0.0-321.0","3K5TEWLKGWX2ENZ752HDGPFXGKIIVG","A2199FQE7R6RF6","3H6W48L9F4B5OEOMH57RM53Z4H1WP0","","719.6999999880791","img/land4.png","76","721.1000000238419","3","1","false","3","1,0.5,0.5,0.5,1,0.5,0.5,0.5,1","",""
"","html-keyboard-response","223","170737","0.0-322.0","3K5TEWLKGWX2ENZ752HDGPFXGKIIVG","A2199FQE7R6RF6","3H6W48L9F4B5OEOMH57RM53Z4H1WP0","","null","<img src=""img/land4.png"" style=""width:200px; border:14px solid green;"">","null","","","","","","","",""
"","image-keyboard-response","224","171739","0.0-324.0","3K5TEWLKGWX2ENZ752HDGPFXGKIIVG","A2199FQE7R6RF6","3H6W48L9F4B5OEOMH57RM53Z4H1WP0","","","img/land3.png","","1002","-1","0","true","1","1,0.5,0.5,0.5,1,0.5,0.5,0.5,1","",""
"","html-keyboard-response","225","172041","0.0-325.0","3K5TEWLKGWX2ENZ752HDGPFXGKIIVG","A2199FQE7R6RF6","3H6W48L9F4B5OEOMH57RM53Z4H1WP0","","null","<img src=""img/land3.png"" style=""width:200px;border:14px solid red;"">","null","","","","","","","",""
"","html-keyboard-response","226","173745","0.0-326.0-0.0","3K5TEWLKGWX2ENZ752HDGPFXGKIIVG","A2199FQE7R6RF6","3H6W48L9F4B5OEOMH57RM53Z4H1WP0","","","","","","","","","","","",""
"","image-keyboard-response","227","174205","0.0-327.0","3K5TEWLKGWX2ENZ752HDGPFXGKIIVG","A2199FQE7R6RF6","3H6W48L9F4B5OEOMH57RM53Z4H1WP0","","459","img/land3.png","75","460.19999998807907","2","1","false","1","1,0.5,0.5,0.5,1,0.5,0.5,0.5,1","",""
"","html-keyboard-response","228","174507","0.0-328.0","3K5TEWLKGWX2ENZ752HDGPFXGKIIVG","A2199FQE7R6RF6","3H6W48L9F4B5OEOMH57RM53Z4H1WP0","","null","<img src=""img/land3.png"" style=""width:200px; border:14px solid green;"">","null","","","","","","","",""
"","image-keyboard-response","229","174898","0.0-330.0","3K5TEWLKGWX2ENZ752HDGPFXGKIIVG","A2199FQE7R6RF6","3H6W48L9F4B5OEOMH57RM53Z4H1WP0","","389.4000000357628","img/land3.png","75","390.7999999523163","2","1","false","1","1,0.5,0.5,0.5,1,0.5,0.5,0.5,1","",""
"","html-keyboard-response","230","175201","0.0-331.0","3K5TEWLKGWX2ENZ752HDGPFXGKIIVG","A2199FQE7R6RF6","3H6W48L9F4B5OEOMH57RM53Z4H1WP0","","null","<img src=""img/land3.png"" style=""width:200px; border:14px solid green;"">","null","","","","","","","",""
"","image-keyboard-response","231","175586","0.0-333.0","3K5TEWLKGWX2ENZ752HDGPFXGKIIVG","A2199FQE7R6RF6","3H6W48L9F4B5OEOMH57RM53Z4H1WP0","","383.89999997615814","img/land3.png","75","385.30000001192093","2","1","false","1","1,0.5,0.5,0.5,1,0.5,0.5,0.5,1","",""
"","html-keyboard-response","232","175889","0.0-334.0","3K5TEWLKGWX2ENZ752HDGPFXGKIIVG","A2199FQE7R6RF6","3H6W48L9F4B5OEOMH57RM53Z4H1WP0","","null","<img src=""img/land3.png"" style=""width:200px; border:14px solid green;"">","null","","","","","","","",""
"","image-keyboard-response","233","176570","0.0-336.0","3K5TEWLKGWX2ENZ752HDGPFXGKIIVG","A2199FQE7R6RF6","3H6W48L9F4B5OEOMH57RM53Z4H1WP0","","679.8000000119209","img/land6.png","76","681.1000000238419","3","0","false","2","1,0.5,0.5,0.5,1,0.5,0.5,0.5,1","",""
"","html-keyboard-response","234","176872","0.0-337.0","3K5TEWLKGWX2ENZ752HDGPFXGKIIVG","A2199FQE7R6RF6","3H6W48L9F4B5OEOMH57RM53Z4H1WP0","","null","<img src=""img/land6.png"" style=""width:200px;border:14px solid red;"">","null","","","","","","","",""
"","image-keyboard-response","235","177570","0.0-339.0","3K5TEWLKGWX2ENZ752HDGPFXGKIIVG","A2199FQE7R6RF6","3H6W48L9F4B5OEOMH57RM53Z4H1WP0","","695.6999999880791","img/land4.png","75","696.8000000119209","2","1","false","3","1,0.5,0.5,0.5,1,0.5,0.5,0.5,1","",""
"","html-keyboard-response","236","177871","0.0-340.0","3K5TEWLKGWX2ENZ752HDGPFXGKIIVG","A2199FQE7R6RF6","3H6W48L9F4B5OEOMH57RM53Z4H1WP0","","null","<img src=""img/land4.png"" style=""width:200px; border:14px solid green;"">","null","","","","","","","",""
"","image-keyboard-response","237","178506","0.0-342.0","3K5TEWLKGWX2ENZ752HDGPFXGKIIVG","A2199FQE7R6RF6","3H6W48L9F4B5OEOMH57RM53Z4H1WP0","","633.6000000238419","img/land4.png","75","634.6999999880791","2","0","false","3","1,0.5,0.5,0.5,1,0.5,0.5,0.5,1","",""
"","html-keyboard-response","238","178809","0.0-343.0","3K5TEWLKGWX2ENZ752HDGPFXGKIIVG","A2199FQE7R6RF6","3H6W48L9F4B5OEOMH57RM53Z4H1WP0","","null","<img src=""img/land4.png"" style=""width:200px;border:14px solid red;"">","null","","","","","","","",""
"","image-keyboard-response","239","179450","0.0-345.0","3K5TEWLKGWX2ENZ752HDGPFXGKIIVG","A2199FQE7R6RF6","3H6W48L9F4B5OEOMH57RM53Z4H1WP0","","640","img/land6.png","74","641.1999999880791","1","1","false","2","1,0.5,0.5,0.5,1,0.5,0.5,0.5,1","",""
"","html-keyboard-response","240","179753","0.0-346.0","3K5TEWLKGWX2ENZ752HDGPFXGKIIVG","A2199FQE7R6RF6","3H6W48L9F4B5OEOMH57RM53Z4H1WP0","","null","<img src=""img/land6.png"" style=""width:200px; border:14px solid green;"">","null","","","","","","","",""
"","image-keyboard-response","241","180506","0.0-348.0","3K5TEWLKGWX2ENZ752HDGPFXGKIIVG","A2199FQE7R6RF6","3H6W48L9F4B5OEOMH57RM53Z4H1WP0","","752.1999999880791","img/land3.png","76","753.5","3","0","false","1","1,0.5,0.5,0.5,1,0.5,0.5,0.5,1","",""
"","html-keyboard-response","242","180809","0.0-349.0","3K5TEWLKGWX2ENZ752HDGPFXGKIIVG","A2199FQE7R6RF6","3H6W48L9F4B5OEOMH57RM53Z4H1WP0","","null","<img src=""img/land3.png"" style=""width:200px;border:14px solid red;"">","null","","","","","","","",""
"","image-keyboard-response","243","181546","0.0-351.0","3K5TEWLKGWX2ENZ752HDGPFXGKIIVG","A2199FQE7R6RF6","3H6W48L9F4B5OEOMH57RM53Z4H1WP0","","735.5","img/land6.png","74","736.6999999880791","1","1","false","2","1,0.5,0.5,0.5,1,0.5,0.5,0.5,1","",""
"","html-keyboard-response","244","181849","0.0-352.0","3K5TEWLKGWX2ENZ752HDGPFXGKIIVG","A2199FQE7R6RF6","3H6W48L9F4B5OEOMH57RM53Z4H1WP0","","null","<img src=""img/land6.png"" style=""width:200px; border:14px solid green;"">","null","","","","","","","",""
"","image-keyboard-response","245","182530","0.0-354.0","3K5TEWLKGWX2ENZ752HDGPFXGKIIVG","A2199FQE7R6RF6","3H6W48L9F4B5OEOMH57RM53Z4H1WP0","","679.6999999880791","img/land3.png","75","680.8999999761581","2","1","false","1","1,0.5,0.5,0.5,1,0.5,0.5,0.5,1","",""
"","html-keyboard-response","246","182832","0.0-355.0","3K5TEWLKGWX2ENZ752HDGPFXGKIIVG","A2199FQE7R6RF6","3H6W48L9F4B5OEOMH57RM53Z4H1WP0","","null","<img src=""img/land3.png"" style=""width:200px; border:14px solid green;"">","null","","","","","","","",""
"","image-keyboard-response","247","183674","0.0-357.0","3K5TEWLKGWX2ENZ752HDGPFXGKIIVG","A2199FQE7R6RF6","3H6W48L9F4B5OEOMH57RM53Z4H1WP0","","840.6000000238419","img/land4.png","76","841.8999999761581","3","1","false","3","1,0.5,0.5,0.5,1,0.5,0.5,0.5,1","",""
"","html-keyboard-response","248","183977","0.0-358.0","3K5TEWLKGWX2ENZ752HDGPFXGKIIVG","A2199FQE7R6RF6","3H6W48L9F4B5OEOMH57RM53Z4H1WP0","","null","<img src=""img/land4.png"" style=""width:200px; border:14px solid green;"">","null","","","","","","","",""
"","image-keyboard-response","249","184979","0.0-360.0","3K5TEWLKGWX2ENZ752HDGPFXGKIIVG","A2199FQE7R6RF6","3H6W48L9F4B5OEOMH57RM53Z4H1WP0","","","img/land4.png","","1001.9000000357628","-1","0","true","3","1,0.5,0.5,0.5,1,0.5,0.5,0.5,1","",""
"","html-keyboard-response","250","185282","0.0-361.0","3K5TEWLKGWX2ENZ752HDGPFXGKIIVG","A2199FQE7R6RF6","3H6W48L9F4B5OEOMH57RM53Z4H1WP0","","null","<img src=""img/land4.png"" style=""width:200px;border:14px solid red;"">","null","","","","","","","",""
"","html-keyboard-response","251","190696","0.0-362.0-0.0","3K5TEWLKGWX2ENZ752HDGPFXGKIIVG","A2199FQE7R6RF6","3H6W48L9F4B5OEOMH57RM53Z4H1WP0","","","","","","","","","","","",""
"","image-keyboard-response","252","191122","0.0-363.0","3K5TEWLKGWX2ENZ752HDGPFXGKIIVG","A2199FQE7R6RF6","3H6W48L9F4B5OEOMH57RM53Z4H1WP0","","424.7999999523163","img/land4.png","75","425.9000000357628","2","1","false","3","1,0.5,0.5,0.5,1,0.5,0.5,0.5,1","",""
"","html-keyboard-response","253","191424","0.0-364.0","3K5TEWLKGWX2ENZ752HDGPFXGKIIVG","A2199FQE7R6RF6","3H6W48L9F4B5OEOMH57RM53Z4H1WP0","","null","<img src=""img/land4.png"" style=""width:200px; border:14px solid green;"">","null","","","","","","","",""
"","image-keyboard-response","254","192026","0.0-366.0","3K5TEWLKGWX2ENZ752HDGPFXGKIIVG","A2199FQE7R6RF6","3H6W48L9F4B5OEOMH57RM53Z4H1WP0","","600.5","img/land3.png","75","601.6999999880791","2","1","false","1","1,0.5,0.5,0.5,1,0.5,0.5,0.5,1","",""
"","html-keyboard-response","255","192328","0.0-367.0","3K5TEWLKGWX2ENZ752HDGPFXGKIIVG","A2199FQE7R6RF6","3H6W48L9F4B5OEOMH57RM53Z4H1WP0","","null","<img src=""img/land3.png"" style=""width:200px; border:14px solid green;"">","null","","","","","","","",""
"","image-keyboard-response","256","192914","0.0-369.0","3K5TEWLKGWX2ENZ752HDGPFXGKIIVG","A2199FQE7R6RF6","3H6W48L9F4B5OEOMH57RM53Z4H1WP0","","584.0999999642372","img/land4.png","75","585.3000000119209","2","0","false","3","1,0.5,0.5,0.5,1,0.5,0.5,0.5,1","",""
"","html-keyboard-response","257","193216","0.0-370.0","3K5TEWLKGWX2ENZ752HDGPFXGKIIVG","A2199FQE7R6RF6","3H6W48L9F4B5OEOMH57RM53Z4H1WP0","","null","<img src=""img/land4.png"" style=""width:200px;border:14px solid red;"">","null","","","","","","","",""
"","image-keyboard-response","258","194218","0.0-372.0","3K5TEWLKGWX2ENZ752HDGPFXGKIIVG","A2199FQE7R6RF6","3H6W48L9F4B5OEOMH57RM53Z4H1WP0","","","img/land3.png","","1002","-1","0","true","1","1,0.5,0.5,0.5,1,0.5,0.5,0.5,1","",""
"","html-keyboard-response","259","194521","0.0-373.0","3K5TEWLKGWX2ENZ752HDGPFXGKIIVG","A2199FQE7R6RF6","3H6W48L9F4B5OEOMH57RM53Z4H1WP0","","null","<img src=""img/land3.png"" style=""width:200px;border:14px solid red;"">","null","","","","","","","",""
"","html-keyboard-response","260","197828","0.0-374.0-0.0","3K5TEWLKGWX2ENZ752HDGPFXGKIIVG","A2199FQE7R6RF6","3H6W48L9F4B5OEOMH57RM53Z4H1WP0","","","","","","","","","","","",""
"","image-keyboard-response","261","198830","0.0-375.0","3K5TEWLKGWX2ENZ752HDGPFXGKIIVG","A2199FQE7R6RF6","3H6W48L9F4B5OEOMH57RM53Z4H1WP0","","","img/land4.png","","1002.0999999642372","-1","0","true","3","1,0.5,0.5,0.5,1,0.5,0.5,0.5,1","",""
"","html-keyboard-response","262","199132","0.0-376.0","3K5TEWLKGWX2ENZ752HDGPFXGKIIVG","A2199FQE7R6RF6","3H6W48L9F4B5OEOMH57RM53Z4H1WP0","","null","<img src=""img/land4.png"" style=""width:200px;border:14px solid red;"">","null","","","","","","","",""
"","html-keyboard-response","263","200658","0.0-377.0-0.0","3K5TEWLKGWX2ENZ752HDGPFXGKIIVG","A2199FQE7R6RF6","3H6W48L9F4B5OEOMH57RM53Z4H1WP0","","","","","","","","","","","",""
"","image-keyboard-response","264","201154","0.0-378.0","3K5TEWLKGWX2ENZ752HDGPFXGKIIVG","A2199FQE7R6RF6","3H6W48L9F4B5OEOMH57RM53Z4H1WP0","","494.80000001192093","img/land3.png","75","495.80000001192093","2","0","false","1","1,0.5,0.5,0.5,1,0.5,0.5,0.5,1","",""
"","html-keyboard-response","265","201456","0.0-379.0","3K5TEWLKGWX2ENZ752HDGPFXGKIIVG","A2199FQE7R6RF6","3H6W48L9F4B5OEOMH57RM53Z4H1WP0","","null","<img src=""img/land3.png"" style=""width:200px;border:14px solid red;"">","null","","","","","","","",""
"","image-keyboard-response","266","201722","0.0-381.0","3K5TEWLKGWX2ENZ752HDGPFXGKIIVG","A2199FQE7R6RF6","3H6W48L9F4B5OEOMH57RM53Z4H1WP0","","263.80000001192093","img/land6.png","75","265.10000002384186","2","1","false","2","1,0.5,0.5,0.5,1,0.5,0.5,0.5,1","",""
"","html-keyboard-response","267","202024","0.0-382.0","3K5TEWLKGWX2ENZ752HDGPFXGKIIVG","A2199FQE7R6RF6","3H6W48L9F4B5OEOMH57RM53Z4H1WP0","","null","<img src=""img/land6.png"" style=""width:200px; border:14px solid green;"">","null","","","","","","","",""
"","image-keyboard-response","268","202314","0.0-384.0","3K5TEWLKGWX2ENZ752HDGPFXGKIIVG","A2199FQE7R6RF6","3H6W48L9F4B5OEOMH57RM53Z4H1WP0","","288.5","img/land6.png","75","289.80000001192093","2","1","false","2","1,0.5,0.5,0.5,1,0.5,0.5,0.5,1","",""
"","html-keyboard-response","269","202617","0.0-385.0","3K5TEWLKGWX2ENZ752HDGPFXGKIIVG","A2199FQE7R6RF6","3H6W48L9F4B5OEOMH57RM53Z4H1WP0","","null","<img src=""img/land6.png"" style=""width:200px; border:14px solid green;"">","null","","","","","","","",""
"","image-keyboard-response","270","203274","0.0-387.0","3K5TEWLKGWX2ENZ752HDGPFXGKIIVG","A2199FQE7R6RF6","3H6W48L9F4B5OEOMH57RM53Z4H1WP0","","655.6999999880791","img/land4.png","76","657","3","1","false","3","1,0.5,0.5,0.5,1,0.5,0.5,0.5,1","",""
"","html-keyboard-response","271","203577","0.0-388.0","3K5TEWLKGWX2ENZ752HDGPFXGKIIVG","A2199FQE7R6RF6","3H6W48L9F4B5OEOMH57RM53Z4H1WP0","","null","<img src=""img/land4.png"" style=""width:200px; border:14px solid green;"">","null","","","","","","","",""
"","image-keyboard-response","272","204114","0.0-390.0","3K5TEWLKGWX2ENZ752HDGPFXGKIIVG","A2199FQE7R6RF6","3H6W48L9F4B5OEOMH57RM53Z4H1WP0","","535.6000000238419","img/land6.png","76","536.9000000357628","3","0","false","2","1,0.5,0.5,0.5,1,0.5,0.5,0.5,1","",""
"","html-keyboard-response","273","204419","0.0-391.0","3K5TEWLKGWX2ENZ752HDGPFXGKIIVG","A2199FQE7R6RF6","3H6W48L9F4B5OEOMH57RM53Z4H1WP0","","null","<img src=""img/land6.png"" style=""width:200px;border:14px solid red;"">","null","","","","","","","",""
"","image-keyboard-response","274","205042","0.0-393.0","3K5TEWLKGWX2ENZ752HDGPFXGKIIVG","A2199FQE7R6RF6","3H6W48L9F4B5OEOMH57RM53Z4H1WP0","","621","img/land4.png","75","622.3000000119209","2","1","false","3","1,0.5,0.5,0.5,1,0.5,0.5,0.5,1","",""
"","html-keyboard-response","275","205344","0.0-394.0","3K5TEWLKGWX2ENZ752HDGPFXGKIIVG","A2199FQE7R6RF6","3H6W48L9F4B5OEOMH57RM53Z4H1WP0","","null","<img src=""img/land4.png"" style=""width:200px; border:14px solid green;"">","null","","","","","","","",""
"","image-keyboard-response","276","206013","0.0-396.0","3K5TEWLKGWX2ENZ752HDGPFXGKIIVG","A2199FQE7R6RF6","3H6W48L9F4B5OEOMH57RM53Z4H1WP0","","667.5","img/land6.png","75","668.8999999761581","2","1","false","2","1,0.5,0.5,0.5,1,0.5,0.5,0.5,1","",""
"","html-keyboard-response","277","206315","0.0-397.0","3K5TEWLKGWX2ENZ752HDGPFXGKIIVG","A2199FQE7R6RF6","3H6W48L9F4B5OEOMH57RM53Z4H1WP0","","null","<img src=""img/land6.png"" style=""width:200px; border:14px solid green;"">","null","","","","","","","",""
"","image-keyboard-response","278","206914","0.0-399.0","3K5TEWLKGWX2ENZ752HDGPFXGKIIVG","A2199FQE7R6RF6","3H6W48L9F4B5OEOMH57RM53Z4H1WP0","","597.4000000357628","img/land4.png","75","598.6000000238419","2","0","false","3","1,0.5,0.5,0.5,1,0.5,0.5,0.5,1","",""
"","html-keyboard-response","279","207216","0.0-400.0","3K5TEWLKGWX2ENZ752HDGPFXGKIIVG","A2199FQE7R6RF6","3H6W48L9F4B5OEOMH57RM53Z4H1WP0","","null","<img src=""img/land4.png"" style=""width:200px;border:14px solid red;"">","null","","","","","","","",""
"","image-keyboard-response","280","207898","0.0-402.0","3K5TEWLKGWX2ENZ752HDGPFXGKIIVG","A2199FQE7R6RF6","3H6W48L9F4B5OEOMH57RM53Z4H1WP0","","680.4000000357628","img/land6.png","75","681.7000000476837","2","1","false","2","1,0.5,0.5,0.5,1,0.5,0.5,0.5,1","",""
"","html-keyboard-response","281","208200","0.0-403.0","3K5TEWLKGWX2ENZ752HDGPFXGKIIVG","A2199FQE7R6RF6","3H6W48L9F4B5OEOMH57RM53Z4H1WP0","","null","<img src=""img/land6.png"" style=""width:200px; border:14px solid green;"">","null","","","","","","","",""
"","image-keyboard-response","282","208946","0.0-405.0","3K5TEWLKGWX2ENZ752HDGPFXGKIIVG","A2199FQE7R6RF6","3H6W48L9F4B5OEOMH57RM53Z4H1WP0","","744.2000000476837","img/land4.png","76","745.5","3","1","false","3","1,0.5,0.5,0.5,1,0.5,0.5,0.5,1","",""
"","html-keyboard-response","283","209249","0.0-406.0","3K5TEWLKGWX2ENZ752HDGPFXGKIIVG","A2199FQE7R6RF6","3H6W48L9F4B5OEOMH57RM53Z4H1WP0","","null","<img src=""img/land4.png"" style=""width:200px; border:14px solid green;"">","null","","","","","","","",""
"","image-keyboard-response","284","209842","0.0-408.0","3K5TEWLKGWX2ENZ752HDGPFXGKIIVG","A2199FQE7R6RF6","3H6W48L9F4B5OEOMH57RM53Z4H1WP0","","591.7000000476837","img/land6.png","75","593","2","1","false","2","1,0.5,0.5,0.5,1,0.5,0.5,0.5,1","",""
"","html-keyboard-response","285","210144","0.0-409.0","3K5TEWLKGWX2ENZ752HDGPFXGKIIVG","A2199FQE7R6RF6","3H6W48L9F4B5OEOMH57RM53Z4H1WP0","","null","<img src=""img/land6.png"" style=""width:200px; border:14px solid green;"">","null","","","","","","","",""
"","image-keyboard-response","286","210890","0.0-411.0","3K5TEWLKGWX2ENZ752HDGPFXGKIIVG","A2199FQE7R6RF6","3H6W48L9F4B5OEOMH57RM53Z4H1WP0","","743.6999999880791","img/land3.png","74","745.1000000238419","1","1","false","1","1,0.5,0.5,0.5,1,0.5,0.5,0.5,1","",""
"","html-keyboard-response","287","211192","0.0-412.0","3K5TEWLKGWX2ENZ752HDGPFXGKIIVG","A2199FQE7R6RF6","3H6W48L9F4B5OEOMH57RM53Z4H1WP0","","null","<img src=""img/land3.png"" style=""width:200px; border:14px solid green;"">","null","","","","","","","",""
"","image-keyboard-response","288","212066","0.0-414.0","3K5TEWLKGWX2ENZ752HDGPFXGKIIVG","A2199FQE7R6RF6","3H6W48L9F4B5OEOMH57RM53Z4H1WP0","","872.3999999761581","img/land3.png","74","873.7000000476837","1","1","false","1","1,0.5,0.5,0.5,1,0.5,0.5,0.5,1","",""
"","html-keyboard-response","289","212368","0.0-415.0","3K5TEWLKGWX2ENZ752HDGPFXGKIIVG","A2199FQE7R6RF6","3H6W48L9F4B5OEOMH57RM53Z4H1WP0","","null","<img src=""img/land3.png"" style=""width:200px; border:14px solid green;"">","null","","","","","","","",""
"","image-keyboard-response","290","213114","0.0-417.0","3K5TEWLKGWX2ENZ752HDGPFXGKIIVG","A2199FQE7R6RF6","3H6W48L9F4B5OEOMH57RM53Z4H1WP0","","744.2000000476837","img/land4.png","76","745.5999999642372","3","1","false","3","1,0.5,0.5,0.5,1,0.5,0.5,0.5,1","",""
"","html-keyboard-response","291","213416","0.0-418.0","3K5TEWLKGWX2ENZ752HDGPFXGKIIVG","A2199FQE7R6RF6","3H6W48L9F4B5OEOMH57RM53Z4H1WP0","","null","<img src=""img/land4.png"" style=""width:200px; border:14px solid green;"">","null","","","","","","","",""
"","image-keyboard-response","292","214074","0.0-420.0","3K5TEWLKGWX2ENZ752HDGPFXGKIIVG","A2199FQE7R6RF6","3H6W48L9F4B5OEOMH57RM53Z4H1WP0","","656.4000000357628","img/land3.png","74","657.7000000476837","1","1","false","1","1,0.5,0.5,0.5,1,0.5,0.5,0.5,1","",""
"","html-keyboard-response","293","214376","0.0-421.0","3K5TEWLKGWX2ENZ752HDGPFXGKIIVG","A2199FQE7R6RF6","3H6W48L9F4B5OEOMH57RM53Z4H1WP0","","null","<img src=""img/land3.png"" style=""width:200px; border:14px solid green;"">","null","","","","","","","",""
"","image-keyboard-response","294","214954","0.0-423.0","3K5TEWLKGWX2ENZ752HDGPFXGKIIVG","A2199FQE7R6RF6","3H6W48L9F4B5OEOMH57RM53Z4H1WP0","","576.2999999523163","img/land4.png","76","577.6999999880791","3","1","false","3","1,0.5,0.5,0.5,1,0.5,0.5,0.5,1","",""
"","html-keyboard-response","295","215256","0.0-424.0","3K5TEWLKGWX2ENZ752HDGPFXGKIIVG","A2199FQE7R6RF6","3H6W48L9F4B5OEOMH57RM53Z4H1WP0","","null","<img src=""img/land4.png"" style=""width:200px; border:14px solid green;"">","null","","","","","","","",""
"","image-keyboard-response","296","215922","0.0-426.0","3K5TEWLKGWX2ENZ752HDGPFXGKIIVG","A2199FQE7R6RF6","3H6W48L9F4B5OEOMH57RM53Z4H1WP0","","664.5","img/land3.png","74","665.6999999880791","1","1","false","1","1,0.5,0.5,0.5,1,0.5,0.5,0.5,1","",""
"","html-keyboard-response","297","216224","0.0-427.0","3K5TEWLKGWX2ENZ752HDGPFXGKIIVG","A2199FQE7R6RF6","3H6W48L9F4B5OEOMH57RM53Z4H1WP0","","null","<img src=""img/land3.png"" style=""width:200px; border:14px solid green;"">","null","","","","","","","",""
"","image-keyboard-response","298","216908","0.0-429.0","3K5TEWLKGWX2ENZ752HDGPFXGKIIVG","A2199FQE7R6RF6","3H6W48L9F4B5OEOMH57RM53Z4H1WP0","","682.5","img/land6.png","75","683.9000000357628","2","1","false","2","1,0.5,0.5,0.5,1,0.5,0.5,0.5,1","",""
"","html-keyboard-response","299","217210","0.0-430.0","3K5TEWLKGWX2ENZ752HDGPFXGKIIVG","A2199FQE7R6RF6","3H6W48L9F4B5OEOMH57RM53Z4H1WP0","","null","<img src=""img/land6.png"" style=""width:200px; border:14px solid green;"">","null","","","","","","","",""
"","image-keyboard-response","300","218002","0.0-432.0","3K5TEWLKGWX2ENZ752HDGPFXGKIIVG","A2199FQE7R6RF6","3H6W48L9F4B5OEOMH57RM53Z4H1WP0","","789.8999999761581","img/land3.png","74","791","1","1","false","1","1,0.5,0.5,0.5,1,0.5,0.5,0.5,1","",""
"","html-keyboard-response","301","218304","0.0-433.0","3K5TEWLKGWX2ENZ752HDGPFXGKIIVG","A2199FQE7R6RF6","3H6W48L9F4B5OEOMH57RM53Z4H1WP0","","null","<img src=""img/land3.png"" style=""width:200px; border:14px solid green;"">","null","","","","","","","",""
"","image-keyboard-response","302","218882","0.0-435.0","3K5TEWLKGWX2ENZ752HDGPFXGKIIVG","A2199FQE7R6RF6","3H6W48L9F4B5OEOMH57RM53Z4H1WP0","","576.1000000238419","img/land4.png","76","577.3000000119209","3","1","false","3","1,0.5,0.5,0.5,1,0.5,0.5,0.5,1","",""
"","html-keyboard-response","303","219184","0.0-436.0","3K5TEWLKGWX2ENZ752HDGPFXGKIIVG","A2199FQE7R6RF6","3H6W48L9F4B5OEOMH57RM53Z4H1WP0","","null","<img src=""img/land4.png"" style=""width:200px; border:14px solid green;"">","null","","","","","","","",""
"","image-keyboard-response","304","219890","0.0-438.0","3K5TEWLKGWX2ENZ752HDGPFXGKIIVG","A2199FQE7R6RF6","3H6W48L9F4B5OEOMH57RM53Z4H1WP0","","703.3999999761581","img/land6.png","75","704.5999999642372","2","1","false","2","1,0.5,0.5,0.5,1,0.5,0.5,0.5,1","",""
"","html-keyboard-response","305","220192","0.0-439.0","3K5TEWLKGWX2ENZ752HDGPFXGKIIVG","A2199FQE7R6RF6","3H6W48L9F4B5OEOMH57RM53Z4H1WP0","","null","<img src=""img/land6.png"" style=""width:200px; border:14px solid green;"">","null","","","","","","","",""
"","image-keyboard-response","306","221194","0.0-441.0","3K5TEWLKGWX2ENZ752HDGPFXGKIIVG","A2199FQE7R6RF6","3H6W48L9F4B5OEOMH57RM53Z4H1WP0","","","img/land4.png","","1001.2000000476837","-1","0","true","3","1,0.5,0.5,0.5,1,0.5,0.5,0.5,1","",""
"","html-keyboard-response","307","221496","0.0-442.0","3K5TEWLKGWX2ENZ752HDGPFXGKIIVG","A2199FQE7R6RF6","3H6W48L9F4B5OEOMH57RM53Z4H1WP0","","null","<img src=""img/land4.png"" style=""width:200px;border:14px solid red;"">","null","","","","","","","",""
"","html-keyboard-response","308","226052","0.0-443.0-0.0","3K5TEWLKGWX2ENZ752HDGPFXGKIIVG","A2199FQE7R6RF6","3H6W48L9F4B5OEOMH57RM53Z4H1WP0","","","","","","","","","","","",""
"","image-keyboard-response","309","226449","0.0-444.0","3K5TEWLKGWX2ENZ752HDGPFXGKIIVG","A2199FQE7R6RF6","3H6W48L9F4B5OEOMH57RM53Z4H1WP0","","396.39999997615814","img/land3.png","75","397.5999999642372","2","1","false","1","1,0.5,0.5,0.5,1,0.5,0.5,0.5,1","",""
"","html-keyboard-response","310","226752","0.0-445.0","3K5TEWLKGWX2ENZ752HDGPFXGKIIVG","A2199FQE7R6RF6","3H6W48L9F4B5OEOMH57RM53Z4H1WP0","","null","<img src=""img/land3.png"" style=""width:200px; border:14px solid green;"">","null","","","","","","","",""
"","image-keyboard-response","311","227228","0.0-447.0","3K5TEWLKGWX2ENZ752HDGPFXGKIIVG","A2199FQE7R6RF6","3H6W48L9F4B5OEOMH57RM53Z4H1WP0","","474.89999997615814","img/land6.png","75","476.30000001192093","2","1","false","2","1,0.5,0.5,0.5,1,0.5,0.5,0.5,1","",""
"","html-keyboard-response","312","227531","0.0-448.0","3K5TEWLKGWX2ENZ752HDGPFXGKIIVG","A2199FQE7R6RF6","3H6W48L9F4B5OEOMH57RM53Z4H1WP0","","null","<img src=""img/land6.png"" style=""width:200px; border:14px solid green;"">","null","","","","","","","",""
"","image-keyboard-response","313","228042","0.0-450.0","3K5TEWLKGWX2ENZ752HDGPFXGKIIVG","A2199FQE7R6RF6","3H6W48L9F4B5OEOMH57RM53Z4H1WP0","","509.39999997615814","img/land3.png","75","510.80000001192093","2","0","false","1","1,0.5,0.5,0.5,1,0.5,0.5,0.5,1","",""
"","html-keyboard-response","314","228344","0.0-451.0","3K5TEWLKGWX2ENZ752HDGPFXGKIIVG","A2199FQE7R6RF6","3H6W48L9F4B5OEOMH57RM53Z4H1WP0","","null","<img src=""img/land3.png"" style=""width:200px;border:14px solid red;"">","null","","","","","","","",""
"","image-keyboard-response","315","228810","0.0-453.0","3K5TEWLKGWX2ENZ752HDGPFXGKIIVG","A2199FQE7R6RF6","3H6W48L9F4B5OEOMH57RM53Z4H1WP0","","464.30000001192093","img/land6.png","75","465.69999998807907","2","1","false","2","1,0.5,0.5,0.5,1,0.5,0.5,0.5,1","",""
"","html-keyboard-response","316","229111","0.0-454.0","3K5TEWLKGWX2ENZ752HDGPFXGKIIVG","A2199FQE7R6RF6","3H6W48L9F4B5OEOMH57RM53Z4H1WP0","","null","<img src=""img/land6.png"" style=""width:200px; border:14px solid green;"">","null","","","","","","","",""
"","image-keyboard-response","317","229562","0.0-456.0","3K5TEWLKGWX2ENZ752HDGPFXGKIIVG","A2199FQE7R6RF6","3H6W48L9F4B5OEOMH57RM53Z4H1WP0","","448.5999999642372","img/land3.png","75","449.80000001192093","2","1","false","1","1,0.5,0.5,0.5,1,0.5,0.5,0.5,1","",""
"","html-keyboard-response","318","229864","0.0-457.0","3K5TEWLKGWX2ENZ752HDGPFXGKIIVG","A2199FQE7R6RF6","3H6W48L9F4B5OEOMH57RM53Z4H1WP0","","null","<img src=""img/land3.png"" style=""width:200px; border:14px solid green;"">","null","","","","","","","",""
"","image-keyboard-response","319","230306","0.0-459.0","3K5TEWLKGWX2ENZ752HDGPFXGKIIVG","A2199FQE7R6RF6","3H6W48L9F4B5OEOMH57RM53Z4H1WP0","","440.10000002384186","img/land4.png","75","441.30000001192093","2","1","false","3","1,0.5,0.5,0.5,1,0.5,0.5,0.5,1","",""
"","html-keyboard-response","320","230608","0.0-460.0","3K5TEWLKGWX2ENZ752HDGPFXGKIIVG","A2199FQE7R6RF6","3H6W48L9F4B5OEOMH57RM53Z4H1WP0","","null","<img src=""img/land4.png"" style=""width:200px; border:14px solid green;"">","null","","","","","","","",""
"","image-keyboard-response","321","231010","0.0-462.0","3K5TEWLKGWX2ENZ752HDGPFXGKIIVG","A2199FQE7R6RF6","3H6W48L9F4B5OEOMH57RM53Z4H1WP0","","399.80000001192093","img/land6.png","75","401.19999998807907","2","1","false","2","1,0.5,0.5,0.5,1,0.5,0.5,0.5,1","",""
"","html-keyboard-response","322","231312","0.0-463.0","3K5TEWLKGWX2ENZ752HDGPFXGKIIVG","A2199FQE7R6RF6","3H6W48L9F4B5OEOMH57RM53Z4H1WP0","","null","<img src=""img/land6.png"" style=""width:200px; border:14px solid green;"">","null","","","","","","","",""
"","image-keyboard-response","323","231706","0.0-465.0","3K5TEWLKGWX2ENZ752HDGPFXGKIIVG","A2199FQE7R6RF6","3H6W48L9F4B5OEOMH57RM53Z4H1WP0","","392","img/land6.png","75","393.2999999523163","2","1","false","2","1,0.5,0.5,0.5,1,0.5,0.5,0.5,1","",""
"","html-keyboard-response","324","232008","0.0-466.0","3K5TEWLKGWX2ENZ752HDGPFXGKIIVG","A2199FQE7R6RF6","3H6W48L9F4B5OEOMH57RM53Z4H1WP0","","null","<img src=""img/land6.png"" style=""width:200px; border:14px solid green;"">","null","","","","","","","",""
"","image-keyboard-response","325","232682","0.0-468.0","3K5TEWLKGWX2ENZ752HDGPFXGKIIVG","A2199FQE7R6RF6","3H6W48L9F4B5OEOMH57RM53Z4H1WP0","","672","img/land3.png","74","673.3999999761581","1","1","false","1","1,0.5,0.5,0.5,1,0.5,0.5,0.5,1","",""
"","html-keyboard-response","326","232984","0.0-469.0","3K5TEWLKGWX2ENZ752HDGPFXGKIIVG","A2199FQE7R6RF6","3H6W48L9F4B5OEOMH57RM53Z4H1WP0","","null","<img src=""img/land3.png"" style=""width:200px; border:14px solid green;"">","null","","","","","","","",""
"","image-keyboard-response","327","233738","0.0-471.0","3K5TEWLKGWX2ENZ752HDGPFXGKIIVG","A2199FQE7R6RF6","3H6W48L9F4B5OEOMH57RM53Z4H1WP0","","752.4000000357628","img/land4.png","74","753.6000000238419","1","0","false","3","1,0.5,0.5,0.5,1,0.5,0.5,0.5,1","",""
"","html-keyboard-response","328","234040","0.0-472.0","3K5TEWLKGWX2ENZ752HDGPFXGKIIVG","A2199FQE7R6RF6","3H6W48L9F4B5OEOMH57RM53Z4H1WP0","","null","<img src=""img/land4.png"" style=""width:200px;border:14px solid red;"">","null","","","","","","","",""
"","image-keyboard-response","329","234570","0.0-474.0","3K5TEWLKGWX2ENZ752HDGPFXGKIIVG","A2199FQE7R6RF6","3H6W48L9F4B5OEOMH57RM53Z4H1WP0","","528.4000000357628","img/land6.png","75","529.6999999880791","2","1","false","2","1,0.5,0.5,0.5,1,0.5,0.5,0.5,1","",""
"","html-keyboard-response","330","234872","0.0-475.0","3K5TEWLKGWX2ENZ752HDGPFXGKIIVG","A2199FQE7R6RF6","3H6W48L9F4B5OEOMH57RM53Z4H1WP0","","null","<img src=""img/land6.png"" style=""width:200px; border:14px solid green;"">","null","","","","","","","",""
"","image-keyboard-response","331","235538","0.0-477.0","3K5TEWLKGWX2ENZ752HDGPFXGKIIVG","A2199FQE7R6RF6","3H6W48L9F4B5OEOMH57RM53Z4H1WP0","","664.4000000357628","img/land4.png","76","665.6999999880791","3","1","false","3","1,0.5,0.5,0.5,1,0.5,0.5,0.5,1","",""
"","html-keyboard-response","332","235840","0.0-478.0","3K5TEWLKGWX2ENZ752HDGPFXGKIIVG","A2199FQE7R6RF6","3H6W48L9F4B5OEOMH57RM53Z4H1WP0","","null","<img src=""img/land4.png"" style=""width:200px; border:14px solid green;"">","null","","","","","","","",""
"","image-keyboard-response","333","236314","0.0-480.0","3K5TEWLKGWX2ENZ752HDGPFXGKIIVG","A2199FQE7R6RF6","3H6W48L9F4B5OEOMH57RM53Z4H1WP0","","472.5","img/land6.png","75","473.7999999523163","2","1","false","2","1,0.5,0.5,0.5,1,0.5,0.5,0.5,1","",""
"","html-keyboard-response","334","236617","0.0-481.0","3K5TEWLKGWX2ENZ752HDGPFXGKIIVG","A2199FQE7R6RF6","3H6W48L9F4B5OEOMH57RM53Z4H1WP0","","null","<img src=""img/land6.png"" style=""width:200px; border:14px solid green;"">","null","","","","","","","",""
"","image-keyboard-response","335","237066","0.0-483.0","3K5TEWLKGWX2ENZ752HDGPFXGKIIVG","A2199FQE7R6RF6","3H6W48L9F4B5OEOMH57RM53Z4H1WP0","","447.5","img/land6.png","76","448.69999998807907","3","0","false","2","1,0.5,0.5,0.5,1,0.5,0.5,0.5,1","",""
"","html-keyboard-response","336","237368","0.0-484.0","3K5TEWLKGWX2ENZ752HDGPFXGKIIVG","A2199FQE7R6RF6","3H6W48L9F4B5OEOMH57RM53Z4H1WP0","","null","<img src=""img/land6.png"" style=""width:200px;border:14px solid red;"">","null","","","","","","","",""
"","image-keyboard-response","337","237820","0.0-486.0","3K5TEWLKGWX2ENZ752HDGPFXGKIIVG","A2199FQE7R6RF6","3H6W48L9F4B5OEOMH57RM53Z4H1WP0","","450","img/land4.png","75","451.30000001192093","2","1","false","3","1,0.5,0.5,0.5,1,0.5,0.5,0.5,1","",""
"","html-keyboard-response","338","238123","0.0-487.0","3K5TEWLKGWX2ENZ752HDGPFXGKIIVG","A2199FQE7R6RF6","3H6W48L9F4B5OEOMH57RM53Z4H1WP0","","null","<img src=""img/land4.png"" style=""width:200px; border:14px solid green;"">","null","","","","","","","",""
"","image-keyboard-response","339","238530","0.0-489.0","3K5TEWLKGWX2ENZ752HDGPFXGKIIVG","A2199FQE7R6RF6","3H6W48L9F4B5OEOMH57RM53Z4H1WP0","","405.30000001192093","img/land3.png","75","406.69999998807907","2","0","false","1","1,0.5,0.5,0.5,1,0.5,0.5,0.5,1","",""
"","html-keyboard-response","340","238832","0.0-490.0","3K5TEWLKGWX2ENZ752HDGPFXGKIIVG","A2199FQE7R6RF6","3H6W48L9F4B5OEOMH57RM53Z4H1WP0","","null","<img src=""img/land3.png"" style=""width:200px;border:14px solid red;"">","null","","","","","","","",""
"","image-keyboard-response","341","239306","0.0-492.0","3K5TEWLKGWX2ENZ752HDGPFXGKIIVG","A2199FQE7R6RF6","3H6W48L9F4B5OEOMH57RM53Z4H1WP0","","472.19999998807907","img/land3.png","75","473.39999997615814","2","0","false","1","1,0.5,0.5,0.5,1,0.5,0.5,0.5,1","",""
"","html-keyboard-response","342","239608","0.0-493.0","3K5TEWLKGWX2ENZ752HDGPFXGKIIVG","A2199FQE7R6RF6","3H6W48L9F4B5OEOMH57RM53Z4H1WP0","","null","<img src=""img/land3.png"" style=""width:200px;border:14px solid red;"">","null","","","","","","","",""
"","image-keyboard-response","343","240098","0.0-495.0","3K5TEWLKGWX2ENZ752HDGPFXGKIIVG","A2199FQE7R6RF6","3H6W48L9F4B5OEOMH57RM53Z4H1WP0","","487.69999998807907","img/land4.png","75","489.10000002384186","2","1","false","3","1,0.5,0.5,0.5,1,0.5,0.5,0.5,1","",""
"","html-keyboard-response","344","240399","0.0-496.0","3K5TEWLKGWX2ENZ752HDGPFXGKIIVG","A2199FQE7R6RF6","3H6W48L9F4B5OEOMH57RM53Z4H1WP0","","null","<img src=""img/land4.png"" style=""width:200px; border:14px solid green;"">","null","","","","","","","",""
"","image-keyboard-response","345","240922","0.0-498.0","3K5TEWLKGWX2ENZ752HDGPFXGKIIVG","A2199FQE7R6RF6","3H6W48L9F4B5OEOMH57RM53Z4H1WP0","","520.3999999761581","img/land6.png","75","521.8000000119209","2","1","false","2","1,0.5,0.5,0.5,1,0.5,0.5,0.5,1","",""
"","html-keyboard-response","346","241223","0.0-499.0","3K5TEWLKGWX2ENZ752HDGPFXGKIIVG","A2199FQE7R6RF6","3H6W48L9F4B5OEOMH57RM53Z4H1WP0","","null","<img src=""img/land6.png"" style=""width:200px; border:14px solid green;"">","null","","","","","","","",""
"","image-keyboard-response","347","241954","0.0-501.0","3K5TEWLKGWX2ENZ752HDGPFXGKIIVG","A2199FQE7R6RF6","3H6W48L9F4B5OEOMH57RM53Z4H1WP0","","728.3999999761581","img/land4.png","76","729.8000000119209","3","1","false","3","1,0.5,0.5,0.5,1,0.5,0.5,0.5,1","",""
"","html-keyboard-response","348","242263","0.0-502.0","3K5TEWLKGWX2ENZ752HDGPFXGKIIVG","A2199FQE7R6RF6","3H6W48L9F4B5OEOMH57RM53Z4H1WP0","","null","<img src=""img/land4.png"" style=""width:200px; border:14px solid green;"">","null","","","","","","","",""
"","image-keyboard-response","349","242802","0.0-504.0","3K5TEWLKGWX2ENZ752HDGPFXGKIIVG","A2199FQE7R6RF6","3H6W48L9F4B5OEOMH57RM53Z4H1WP0","","537","img/land4.png","76","538.1999999880791","3","1","false","3","1,0.5,0.5,0.5,1,0.5,0.5,0.5,1","",""
"","html-keyboard-response","350","243103","0.0-505.0","3K5TEWLKGWX2ENZ752HDGPFXGKIIVG","A2199FQE7R6RF6","3H6W48L9F4B5OEOMH57RM53Z4H1WP0","","null","<img src=""img/land4.png"" style=""width:200px; border:14px solid green;"">","null","","","","","","","",""
"","image-keyboard-response","351","243626","0.0-507.0","3K5TEWLKGWX2ENZ752HDGPFXGKIIVG","A2199FQE7R6RF6","3H6W48L9F4B5OEOMH57RM53Z4H1WP0","","520.5","img/land6.png","75","521.8000000119209","2","1","false","2","1,0.5,0.5,0.5,1,0.5,0.5,0.5,1","",""
"","html-keyboard-response","352","243941","0.0-508.0","3K5TEWLKGWX2ENZ752HDGPFXGKIIVG","A2199FQE7R6RF6","3H6W48L9F4B5OEOMH57RM53Z4H1WP0","","null","<img src=""img/land6.png"" style=""width:200px; border:14px solid green;"">","null","","","","","","","",""
"","image-keyboard-response","353","244658","0.0-510.0","3K5TEWLKGWX2ENZ752HDGPFXGKIIVG","A2199FQE7R6RF6","3H6W48L9F4B5OEOMH57RM53Z4H1WP0","","715.3000000119209","img/land3.png","74","716.6000000238419","1","1","false","1","1,0.5,0.5,0.5,1,0.5,0.5,0.5,1","",""
"","html-keyboard-response","354","244960","0.0-511.0","3K5TEWLKGWX2ENZ752HDGPFXGKIIVG","A2199FQE7R6RF6","3H6W48L9F4B5OEOMH57RM53Z4H1WP0","","null","<img src=""img/land3.png"" style=""width:200px; border:14px solid green;"">","null","","","","","","","",""
"","image-keyboard-response","355","245786","0.0-513.0","3K5TEWLKGWX2ENZ752HDGPFXGKIIVG","A2199FQE7R6RF6","3H6W48L9F4B5OEOMH57RM53Z4H1WP0","","824","img/land6.png","75","825.1999999880791","2","1","false","2","1,0.5,0.5,0.5,1,0.5,0.5,0.5,1","",""
"","html-keyboard-response","356","246089","0.0-514.0","3K5TEWLKGWX2ENZ752HDGPFXGKIIVG","A2199FQE7R6RF6","3H6W48L9F4B5OEOMH57RM53Z4H1WP0","","null","<img src=""img/land6.png"" style=""width:200px; border:14px solid green;"">","null","","","","","","","",""
"","image-keyboard-response","357","246554","0.0-516.0","3K5TEWLKGWX2ENZ752HDGPFXGKIIVG","A2199FQE7R6RF6","3H6W48L9F4B5OEOMH57RM53Z4H1WP0","","463.30000001192093","img/land3.png","74","464.69999998807907","1","1","false","1","1,0.5,0.5,0.5,1,0.5,0.5,0.5,1","",""
"","html-keyboard-response","358","246856","0.0-517.0","3K5TEWLKGWX2ENZ752HDGPFXGKIIVG","A2199FQE7R6RF6","3H6W48L9F4B5OEOMH57RM53Z4H1WP0","","null","<img src=""img/land3.png"" style=""width:200px; border:14px solid green;"">","null","","","","","","","",""
"","image-keyboard-response","359","247298","0.0-519.0","3K5TEWLKGWX2ENZ752HDGPFXGKIIVG","A2199FQE7R6RF6","3H6W48L9F4B5OEOMH57RM53Z4H1WP0","","440.19999998807907","img/land6.png","75","441.5","2","1","false","2","1,0.5,0.5,0.5,1,0.5,0.5,0.5,1","",""
"","html-keyboard-response","360","247600","0.0-520.0","3K5TEWLKGWX2ENZ752HDGPFXGKIIVG","A2199FQE7R6RF6","3H6W48L9F4B5OEOMH57RM53Z4H1WP0","","null","<img src=""img/land6.png"" style=""width:200px; border:14px solid green;"">","null","","","","","","","",""
"","image-keyboard-response","361","248124","0.0-522.0","3K5TEWLKGWX2ENZ752HDGPFXGKIIVG","A2199FQE7R6RF6","3H6W48L9F4B5OEOMH57RM53Z4H1WP0","","522.1999999880791","img/land6.png","75","523.3999999761581","2","1","false","2","1,0.5,0.5,0.5,1,0.5,0.5,0.5,1","",""
"","html-keyboard-response","362","248426","0.0-523.0","3K5TEWLKGWX2ENZ752HDGPFXGKIIVG","A2199FQE7R6RF6","3H6W48L9F4B5OEOMH57RM53Z4H1WP0","","null","<img src=""img/land6.png"" style=""width:200px; border:14px solid green;"">","null","","","","","","","",""
"","image-keyboard-response","363","249153","0.0-525.0","3K5TEWLKGWX2ENZ752HDGPFXGKIIVG","A2199FQE7R6RF6","3H6W48L9F4B5OEOMH57RM53Z4H1WP0","","725.7000000476837","img/land4.png","74","727","1","0","false","3","1,0.5,0.5,0.5,1,0.5,0.5,0.5,1","",""
"","html-keyboard-response","364","249456","0.0-526.0","3K5TEWLKGWX2ENZ752HDGPFXGKIIVG","A2199FQE7R6RF6","3H6W48L9F4B5OEOMH57RM53Z4H1WP0","","null","<img src=""img/land4.png"" style=""width:200px;border:14px solid red;"">","null","","","","","","","",""
"","image-keyboard-response","365","250058","0.0-528.0","3K5TEWLKGWX2ENZ752HDGPFXGKIIVG","A2199FQE7R6RF6","3H6W48L9F4B5OEOMH57RM53Z4H1WP0","","600.1999999880791","img/land3.png","75","601.5","2","0","false","1","1,0.5,0.5,0.5,1,0.5,0.5,0.5,1","",""
"","html-keyboard-response","366","250360","0.0-529.0","3K5TEWLKGWX2ENZ752HDGPFXGKIIVG","A2199FQE7R6RF6","3H6W48L9F4B5OEOMH57RM53Z4H1WP0","","null","<img src=""img/land3.png"" style=""width:200px;border:14px solid red;"">","null","","","","","","","",""
"","image-keyboard-response","367","250809","0.0-531.0","3K5TEWLKGWX2ENZ752HDGPFXGKIIVG","A2199FQE7R6RF6","3H6W48L9F4B5OEOMH57RM53Z4H1WP0","","448.19999998807907","img/land6.png","75","449.5","2","1","false","2","1,0.5,0.5,0.5,1,0.5,0.5,0.5,1","",""
"","html-keyboard-response","368","251112","0.0-532.0","3K5TEWLKGWX2ENZ752HDGPFXGKIIVG","A2199FQE7R6RF6","3H6W48L9F4B5OEOMH57RM53Z4H1WP0","","null","<img src=""img/land6.png"" style=""width:200px; border:14px solid green;"">","null","","","","","","","",""
"","image-keyboard-response","369","251617","0.0-534.0","3K5TEWLKGWX2ENZ752HDGPFXGKIIVG","A2199FQE7R6RF6","3H6W48L9F4B5OEOMH57RM53Z4H1WP0","","503.9000000357628","img/land3.png","75","505.19999998807907","2","0","false","1","1,0.5,0.5,0.5,1,0.5,0.5,0.5,1","",""
"","html-keyboard-response","370","251920","0.0-535.0","3K5TEWLKGWX2ENZ752HDGPFXGKIIVG","A2199FQE7R6RF6","3H6W48L9F4B5OEOMH57RM53Z4H1WP0","","null","<img src=""img/land3.png"" style=""width:200px;border:14px solid red;"">","null","","","","","","","",""
"","image-keyboard-response","371","252401","0.0-537.0","3K5TEWLKGWX2ENZ752HDGPFXGKIIVG","A2199FQE7R6RF6","3H6W48L9F4B5OEOMH57RM53Z4H1WP0","","479.80000001192093","img/land3.png","75","481.19999998807907","2","0","false","1","1,0.5,0.5,0.5,1,0.5,0.5,0.5,1","",""
"","html-keyboard-response","372","252703","0.0-538.0","3K5TEWLKGWX2ENZ752HDGPFXGKIIVG","A2199FQE7R6RF6","3H6W48L9F4B5OEOMH57RM53Z4H1WP0","","null","<img src=""img/land3.png"" style=""width:200px;border:14px solid red;"">","null","","","","","","","",""
"","image-keyboard-response","373","253257","0.0-540.0","3K5TEWLKGWX2ENZ752HDGPFXGKIIVG","A2199FQE7R6RF6","3H6W48L9F4B5OEOMH57RM53Z4H1WP0","","552.4000000357628","img/land6.png","76","553.6000000238419","3","1","false","2","1,0.5,0.5,0.5,1,0.5,0.5,0.5,1","",""
"","html-keyboard-response","374","253559","0.0-541.0","3K5TEWLKGWX2ENZ752HDGPFXGKIIVG","A2199FQE7R6RF6","3H6W48L9F4B5OEOMH57RM53Z4H1WP0","","null","<img src=""img/land6.png"" style=""width:200px; border:14px solid green;"">","null","","","","","","","",""
"","instructions","375","256177","0.0-543.0","3K5TEWLKGWX2ENZ752HDGPFXGKIIVG","A2199FQE7R6RF6","3H6W48L9F4B5OEOMH57RM53Z4H1WP0","[{""page_index"":0,""viewing_time"":2616.2000000476837}]","2616.600000023842","","","","","","","","","",""
"","survey-text","376","263840","0.0-544.0-0.0","3K5TEWLKGWX2ENZ752HDGPFXGKIIVG","A2199FQE7R6RF6","3H6W48L9F4B5OEOMH57RM53Z4H1WP0","","7659.800000011921","","","","","","","","","{""Q0"":""62""}",""
"","survey-multi-choice","377","266605","0.0-544.0-1.0","3K5TEWLKGWX2ENZ752HDGPFXGKIIVG","A2199FQE7R6RF6","3H6W48L9F4B5OEOMH57RM53Z4H1WP0","","2764","","","","","","","","","{""gender"":""M""}","[0]"
"","survey-text","378","278533","0.0-545.0","3K5TEWLKGWX2ENZ752HDGPFXGKIIVG","A2199FQE7R6RF6","3H6W48L9F4B5OEOMH57RM53Z4H1WP0","","11925.599999964237","","","","","","","","","{""Q0"":""A2199FQE7R6RF6""}",""
