"success","trial_type","trial_index","time_elapsed","internal_node_id","assignmentID","mturkID","hitID","view_history","rt","stimulus","key_press","reactionTime","a","r","warning","s","reward_cond","responses","question_order"
"true","fullscreen","0","3355","0.0-0.0","3RANCT1ZVG3SE0W1U2FRYG917NPUBU","A227W90ZO5I9RZ","3H6W48L9F4B5OEOMH57RM53Z4H1WP0","","","","","","","","","","","",""
"","instructions","1","49405","0.0-1.0","3RANCT1ZVG3SE0W1U2FRYG917NPUBU","A227W90ZO5I9RZ","3H6W48L9F4B5OEOMH57RM53Z4H1WP0","[{""page_index"":0,""viewing_time"":9624.899999976158},{""page_index"":1,""viewing_time"":4612.600000023842},{""page_index"":2,""viewing_time"":4349.300000011921},{""page_index"":3,""viewing_time"":4763.899999976158},{""page_index"":4,""viewing_time"":12526.300000011921},{""page_index"":5,""viewing_time"":4625.699999988079},{""page_index"":6,""viewing_time"":2672},{""page_index"":7,""viewing_time"":2869}]","46044.39999997616","","","","","","","","","",""
"","image-keyboard-response","2","50408","0.0-2.0","3RANCT1ZVG3SE0W1U2FRYG917NPUBU","A227W90ZO5I9RZ","3H6W48L9F4B5OEOMH57RM53Z4H1WP0","","","img/land2.png","","1003.3999999761581","-1","0","true","3","1,1,0,0,1,1,1,0,1","",""
"","html-keyboard-response","3","50715","0.0-3.0","3RANCT1ZVG3SE0W1U2FRYG917NPUBU","A227W90ZO5I9RZ","3H6W48L9F4B5OEOMH57RM53Z4H1WP0","","null","<img src=""img/land2.png"" style=""width:200px;border:14px solid red;"">","null","","","","","","","",""
"","html-keyboard-response","4","69320","0.0-4.0-0.0","3RANCT1ZVG3SE0W1U2FRYG917NPUBU","A227W90ZO5I9RZ","3H6W48L9F4B5OEOMH57RM53Z4H1WP0","","","","","","","","","","","",""
"","image-keyboard-response","5","70326","0.0-5.0","3RANCT1ZVG3SE0W1U2FRYG917NPUBU","A227W90ZO5I9RZ","3H6W48L9F4B5OEOMH57RM53Z4H1WP0","","","img/land5.png","","1005.8999999761581","-1","0","true","2","1,1,0,0,1,1,1,0,1","",""
"","html-keyboard-response","6","70636","0.0-6.0","3RANCT1ZVG3SE0W1U2FRYG917NPUBU","A227W90ZO5I9RZ","3H6W48L9F4B5OEOMH57RM53Z4H1WP0","","null","<img src=""img/land5.png"" style=""width:200px;border:14px solid red;"">","null","","","","","","","",""
"","html-keyboard-response","7","72210","0.0-7.0-0.0","3RANCT1ZVG3SE0W1U2FRYG917NPUBU","A227W90ZO5I9RZ","3H6W48L9F4B5OEOMH57RM53Z4H1WP0","","","","","","","","","","","",""
"","image-keyboard-response","8","73219","0.0-8.0","3RANCT1ZVG3SE0W1U2FRYG917NPUBU","A227W90ZO5I9RZ","3H6W48L9F4B5OEOMH57RM53Z4H1WP0","","","img/land2.png","","1008.5","-1","0","true","3","1,1,0,0,1,1,1,0,1","",""
"","html-keyboard-response","9","73527","0.0-9.0","3RANCT1ZVG3SE0W1U2FRYG917NPUBU","A227W90ZO5I9RZ","3H6W48L9F4B5OEOMH57RM53Z4H1WP0","","null","<img src=""img/land2.png"" style=""width:200px;border:14px solid red;"">","null","","","","","","","",""
"","html-keyboard-response","10","75079","0.0-10.0-0.0","3RANCT1ZVG3SE0W1U2FRYG917NPUBU","A227W90ZO5I9RZ","3H6W48L9F4B5OEOMH57RM53Z4H1WP0","","","","","","","","","","","",""
"","image-keyboard-response","11","75391","0.0-11.0","3RANCT1ZVG3SE0W1U2FRYG917NPUBU","A227W90ZO5I9RZ","3H6W48L9F4B5OEOMH57RM53Z4H1WP0","","310","img/land2.png","74","311.19999998807907","1","1","false","3","1,1,0,0,1,1,1,0,1","",""
"","html-keyboard-response","12","75704","0.0-12.0","3RANCT1ZVG3SE0W1U2FRYG917NPUBU","A227W90ZO5I9RZ","3H6W48L9F4B5OEOMH57RM53Z4H1WP0","","null","<img src=""img/land2.png"" style=""width:200px; border:14px solid green;"">","null","","","","","","","",""
"","image-keyboard-response","13","76284","0.0-14.0","3RANCT1ZVG3SE0W1U2FRYG917NPUBU","A227W90ZO5I9RZ","3H6W48L9F4B5OEOMH57RM53Z4H1WP0","","578.3000000119209","img/land2.png","74","579.7000000476837","1","1","false","3","1,1,0,0,1,1,1,0,1","",""
"","html-keyboard-response","14","76590","0.0-15.0","3RANCT1ZVG3SE0W1U2FRYG917NPUBU","A227W90ZO5I9RZ","3H6W48L9F4B5OEOMH57RM53Z4H1WP0","","null","<img src=""img/land2.png"" style=""width:200px; border:14px solid green;"">","null","","","","","","","",""
"","image-keyboard-response","15","77024","0.0-17.0","3RANCT1ZVG3SE0W1U2FRYG917NPUBU","A227W90ZO5I9RZ","3H6W48L9F4B5OEOMH57RM53Z4H1WP0","","431.5","img/land2.png","74","432.9000000357628","1","1","false","3","1,1,0,0,1,1,1,0,1","",""
"","html-keyboard-response","16","77333","0.0-18.0","3RANCT1ZVG3SE0W1U2FRYG917NPUBU","A227W90ZO5I9RZ","3H6W48L9F4B5OEOMH57RM53Z4H1WP0","","null","<img src=""img/land2.png"" style=""width:200px; border:14px solid green;"">","null","","","","","","","",""
"","image-keyboard-response","17","77757","0.0-20.0","3RANCT1ZVG3SE0W1U2FRYG917NPUBU","A227W90ZO5I9RZ","3H6W48L9F4B5OEOMH57RM53Z4H1WP0","","419.80000001192093","img/land2.png","74","421.89999997615814","1","1","false","3","1,1,0,0,1,1,1,0,1","",""
"","html-keyboard-response","18","78065","0.0-21.0","3RANCT1ZVG3SE0W1U2FRYG917NPUBU","A227W90ZO5I9RZ","3H6W48L9F4B5OEOMH57RM53Z4H1WP0","","null","<img src=""img/land2.png"" style=""width:200px; border:14px solid green;"">","null","","","","","","","",""
"","image-keyboard-response","19","79072","0.0-23.0","3RANCT1ZVG3SE0W1U2FRYG917NPUBU","A227W90ZO5I9RZ","3H6W48L9F4B5OEOMH57RM53Z4H1WP0","","1004.5","img/land5.png","75","1006.1000000238419","2","1","false","2","1,1,0,0,1,1,1,0,1","",""
"","html-keyboard-response","20","79379","0.0-24.0","3RANCT1ZVG3SE0W1U2FRYG917NPUBU","A227W90ZO5I9RZ","3H6W48L9F4B5OEOMH57RM53Z4H1WP0","","null","<img src=""img/land5.png"" style=""width:200px; border:14px solid green;"">","null","","","","","","","",""
"","image-keyboard-response","21","79759","0.0-26.0","3RANCT1ZVG3SE0W1U2FRYG917NPUBU","A227W90ZO5I9RZ","3H6W48L9F4B5OEOMH57RM53Z4H1WP0","","379","img/land5.png","75","380.19999998807907","2","1","false","2","1,1,0,0,1,1,1,0,1","",""
"","html-keyboard-response","22","80065","0.0-27.0","3RANCT1ZVG3SE0W1U2FRYG917NPUBU","A227W90ZO5I9RZ","3H6W48L9F4B5OEOMH57RM53Z4H1WP0","","null","<img src=""img/land5.png"" style=""width:200px; border:14px solid green;"">","null","","","","","","","",""
"","image-keyboard-response","23","81016","0.0-29.0","3RANCT1ZVG3SE0W1U2FRYG917NPUBU","A227W90ZO5I9RZ","3H6W48L9F4B5OEOMH57RM53Z4H1WP0","","946.3999999761581","img/land3.png","76","948","3","0","false","1","1,1,0,0,1,1,1,0,1","",""
"","html-keyboard-response","24","81318","0.0-30.0","3RANCT1ZVG3SE0W1U2FRYG917NPUBU","A227W90ZO5I9RZ","3H6W48L9F4B5OEOMH57RM53Z4H1WP0","","null","<img src=""img/land3.png"" style=""width:200px;border:14px solid red;"">","null","","","","","","","",""
"","image-keyboard-response","25","81506","0.0-32.0","3RANCT1ZVG3SE0W1U2FRYG917NPUBU","A227W90ZO5I9RZ","3H6W48L9F4B5OEOMH57RM53Z4H1WP0","","186.30000001192093","img/land5.png","76","187.69999998807907","3","1","false","2","1,1,0,0,1,1,1,0,1","",""
"","html-keyboard-response","26","81813","0.0-33.0","3RANCT1ZVG3SE0W1U2FRYG917NPUBU","A227W90ZO5I9RZ","3H6W48L9F4B5OEOMH57RM53Z4H1WP0","","null","<img src=""img/land5.png"" style=""width:200px; border:14px solid green;"">","null","","","","","","","",""
"","image-keyboard-response","27","82824","0.0-35.0","3RANCT1ZVG3SE0W1U2FRYG917NPUBU","A227W90ZO5I9RZ","3H6W48L9F4B5OEOMH57RM53Z4H1WP0","","","img/land3.png","","1011","-1","0","true","1","1,1,0,0,1,1,1,0,1","",""
"","html-keyboard-response","28","83126","0.0-36.0","3RANCT1ZVG3SE0W1U2FRYG917NPUBU","A227W90ZO5I9RZ","3H6W48L9F4B5OEOMH57RM53Z4H1WP0","","null","<img src=""img/land3.png"" style=""width:200px;border:14px solid red;"">","null","","","","","","","",""
"","html-keyboard-response","29","84357","0.0-37.0-0.0","3RANCT1ZVG3SE0W1U2FRYG917NPUBU","A227W90ZO5I9RZ","3H6W48L9F4B5OEOMH57RM53Z4H1WP0","","","","","","","","","","","",""
"","image-keyboard-response","30","85191","0.0-38.0","3RANCT1ZVG3SE0W1U2FRYG917NPUBU","A227W90ZO5I9RZ","3H6W48L9F4B5OEOMH57RM53Z4H1WP0","","832.5999999642372","img/land5.png","75","833.7999999523163","2","1","false","2","1,1,0,0,1,1,1,0,1","",""
"","html-keyboard-response","31","85500","0.0-39.0","3RANCT1ZVG3SE0W1U2FRYG917NPUBU","A227W90ZO5I9RZ","3H6W48L9F4B5OEOMH57RM53Z4H1WP0","","null","<img src=""img/land5.png"" style=""width:200px; border:14px solid green;"">","null","","","","","","","",""
"","image-keyboard-response","32","86068","0.0-41.0","3RANCT1ZVG3SE0W1U2FRYG917NPUBU","A227W90ZO5I9RZ","3H6W48L9F4B5OEOMH57RM53Z4H1WP0","","566.3000000119209","img/land3.png","75","567.5999999642372","2","1","false","1","1,1,0,0,1,1,1,0,1","",""
"","html-keyboard-response","33","86377","0.0-42.0","3RANCT1ZVG3SE0W1U2FRYG917NPUBU","A227W90ZO5I9RZ","3H6W48L9F4B5OEOMH57RM53Z4H1WP0","","null","<img src=""img/land3.png"" style=""width:200px; border:14px solid green;"">","null","","","","","","","",""
"","image-keyboard-response","34","86787","0.0-44.0","3RANCT1ZVG3SE0W1U2FRYG917NPUBU","A227W90ZO5I9RZ","3H6W48L9F4B5OEOMH57RM53Z4H1WP0","","409.5","img/land3.png","75","411","2","1","false","1","1,1,0,0,1,1,1,0,1","",""
"","html-keyboard-response","35","87090","0.0-45.0","3RANCT1ZVG3SE0W1U2FRYG917NPUBU","A227W90ZO5I9RZ","3H6W48L9F4B5OEOMH57RM53Z4H1WP0","","null","<img src=""img/land3.png"" style=""width:200px; border:14px solid green;"">","null","","","","","","","",""
"","image-keyboard-response","36","87792","0.0-47.0","3RANCT1ZVG3SE0W1U2FRYG917NPUBU","A227W90ZO5I9RZ","3H6W48L9F4B5OEOMH57RM53Z4H1WP0","","699.8999999761581","img/land2.png","75","701.3999999761581","2","0","false","3","1,1,0,0,1,1,1,0,1","",""
"","html-keyboard-response","37","88101","0.0-48.0","3RANCT1ZVG3SE0W1U2FRYG917NPUBU","A227W90ZO5I9RZ","3H6W48L9F4B5OEOMH57RM53Z4H1WP0","","null","<img src=""img/land2.png"" style=""width:200px;border:14px solid red;"">","null","","","","","","","",""
"","image-keyboard-response","38","89104","0.0-50.0","3RANCT1ZVG3SE0W1U2FRYG917NPUBU","A227W90ZO5I9RZ","3H6W48L9F4B5OEOMH57RM53Z4H1WP0","","","img/land5.png","","1003","-1","0","true","2","1,1,0,0,1,1,1,0,1","",""
"","html-keyboard-response","39","89409","0.0-51.0","3RANCT1ZVG3SE0W1U2FRYG917NPUBU","A227W90ZO5I9RZ","3H6W48L9F4B5OEOMH57RM53Z4H1WP0","","null","<img src=""img/land5.png"" style=""width:200px;border:14px solid red;"">","null","","","","","","","",""
"","html-keyboard-response","40","92134","0.0-52.0-0.0","3RANCT1ZVG3SE0W1U2FRYG917NPUBU","A227W90ZO5I9RZ","3H6W48L9F4B5OEOMH57RM53Z4H1WP0","","","","","","","","","","","",""
"","image-keyboard-response","41","92943","0.0-53.0","3RANCT1ZVG3SE0W1U2FRYG917NPUBU","A227W90ZO5I9RZ","3H6W48L9F4B5OEOMH57RM53Z4H1WP0","","808","img/land5.png","75","809","2","1","false","2","1,1,0,0,1,1,1,0,1","",""
"","html-keyboard-response","42","93253","0.0-54.0","3RANCT1ZVG3SE0W1U2FRYG917NPUBU","A227W90ZO5I9RZ","3H6W48L9F4B5OEOMH57RM53Z4H1WP0","","null","<img src=""img/land5.png"" style=""width:200px; border:14px solid green;"">","null","","","","","","","",""
"","image-keyboard-response","43","93860","0.0-56.0","3RANCT1ZVG3SE0W1U2FRYG917NPUBU","A227W90ZO5I9RZ","3H6W48L9F4B5OEOMH57RM53Z4H1WP0","","604.5","img/land2.png","75","605.7999999523163","2","0","false","3","1,1,0,0,1,1,1,0,1","",""
"","html-keyboard-response","44","94171","0.0-57.0","3RANCT1ZVG3SE0W1U2FRYG917NPUBU","A227W90ZO5I9RZ","3H6W48L9F4B5OEOMH57RM53Z4H1WP0","","null","<img src=""img/land2.png"" style=""width:200px;border:14px solid red;"">","null","","","","","","","",""
"","image-keyboard-response","45","94757","0.0-59.0","3RANCT1ZVG3SE0W1U2FRYG917NPUBU","A227W90ZO5I9RZ","3H6W48L9F4B5OEOMH57RM53Z4H1WP0","","583.8000000119209","img/land2.png","76","585.1999999880791","3","1","false","3","1,1,0,0,1,1,1,0,1","",""
"","html-keyboard-response","46","95065","0.0-60.0","3RANCT1ZVG3SE0W1U2FRYG917NPUBU","A227W90ZO5I9RZ","3H6W48L9F4B5OEOMH57RM53Z4H1WP0","","null","<img src=""img/land2.png"" style=""width:200px; border:14px solid green;"">","null","","","","","","","",""
"","image-keyboard-response","47","95230","0.0-62.0","3RANCT1ZVG3SE0W1U2FRYG917NPUBU","A227W90ZO5I9RZ","3H6W48L9F4B5OEOMH57RM53Z4H1WP0","","163.19999998807907","img/land3.png","76","164.79999995231628","3","0","false","1","1,1,0,0,1,1,1,0,1","",""
"","html-keyboard-response","48","95537","0.0-63.0","3RANCT1ZVG3SE0W1U2FRYG917NPUBU","A227W90ZO5I9RZ","3H6W48L9F4B5OEOMH57RM53Z4H1WP0","","null","<img src=""img/land3.png"" style=""width:200px;border:14px solid red;"">","null","","","","","","","",""
"","image-keyboard-response","49","95818","0.0-65.0","3RANCT1ZVG3SE0W1U2FRYG917NPUBU","A227W90ZO5I9RZ","3H6W48L9F4B5OEOMH57RM53Z4H1WP0","","279.7000000476837","img/land5.png","76","281","3","1","false","2","1,1,0,0,1,1,1,0,1","",""
"","html-keyboard-response","50","96128","0.0-66.0","3RANCT1ZVG3SE0W1U2FRYG917NPUBU","A227W90ZO5I9RZ","3H6W48L9F4B5OEOMH57RM53Z4H1WP0","","null","<img src=""img/land5.png"" style=""width:200px; border:14px solid green;"">","null","","","","","","","",""
"","image-keyboard-response","51","96304","0.0-68.0","3RANCT1ZVG3SE0W1U2FRYG917NPUBU","A227W90ZO5I9RZ","3H6W48L9F4B5OEOMH57RM53Z4H1WP0","","173.0999999642372","img/land3.png","75","174.5","2","1","false","1","1,1,0,0,1,1,1,0,1","",""
"","html-keyboard-response","52","96609","0.0-69.0","3RANCT1ZVG3SE0W1U2FRYG917NPUBU","A227W90ZO5I9RZ","3H6W48L9F4B5OEOMH57RM53Z4H1WP0","","null","<img src=""img/land3.png"" style=""width:200px; border:14px solid green;"">","null","","","","","","","",""
"","image-keyboard-response","53","96798","0.0-71.0","3RANCT1ZVG3SE0W1U2FRYG917NPUBU","A227W90ZO5I9RZ","3H6W48L9F4B5OEOMH57RM53Z4H1WP0","","186.89999997615814","img/land2.png","74","188.5","1","1","false","3","1,1,0,0,1,1,1,0,1","",""
"","html-keyboard-response","54","97109","0.0-72.0","3RANCT1ZVG3SE0W1U2FRYG917NPUBU","A227W90ZO5I9RZ","3H6W48L9F4B5OEOMH57RM53Z4H1WP0","","null","<img src=""img/land2.png"" style=""width:200px; border:14px solid green;"">","null","","","","","","","",""
"","image-keyboard-response","55","97225","0.0-74.0","3RANCT1ZVG3SE0W1U2FRYG917NPUBU","A227W90ZO5I9RZ","3H6W48L9F4B5OEOMH57RM53Z4H1WP0","","114.79999995231628","img/land5.png","74","116.20000004768372","1","0","false","2","1,1,0,0,1,1,1,0,1","",""
"","html-keyboard-response","56","97530","0.0-75.0","3RANCT1ZVG3SE0W1U2FRYG917NPUBU","A227W90ZO5I9RZ","3H6W48L9F4B5OEOMH57RM53Z4H1WP0","","null","<img src=""img/land5.png"" style=""width:200px;border:14px solid red;"">","null","","","","","","","",""
"","image-keyboard-response","57","97935","0.0-77.0","3RANCT1ZVG3SE0W1U2FRYG917NPUBU","A227W90ZO5I9RZ","3H6W48L9F4B5OEOMH57RM53Z4H1WP0","","402.5999999642372","img/land5.png","75","403.89999997615814","2","1","false","2","1,1,0,0,1,1,1,0,1","",""
"","html-keyboard-response","58","98239","0.0-78.0","3RANCT1ZVG3SE0W1U2FRYG917NPUBU","A227W90ZO5I9RZ","3H6W48L9F4B5OEOMH57RM53Z4H1WP0","","null","<img src=""img/land5.png"" style=""width:200px; border:14px solid green;"">","null","","","","","","","",""
"","image-keyboard-response","59","98343","0.0-80.0","3RANCT1ZVG3SE0W1U2FRYG917NPUBU","A227W90ZO5I9RZ","3H6W48L9F4B5OEOMH57RM53Z4H1WP0","","102.19999998807907","img/land5.png","75","103.69999998807907","2","1","false","2","1,1,0,0,1,1,1,0,1","",""
"","html-keyboard-response","60","98650","0.0-81.0","3RANCT1ZVG3SE0W1U2FRYG917NPUBU","A227W90ZO5I9RZ","3H6W48L9F4B5OEOMH57RM53Z4H1WP0","","null","<img src=""img/land5.png"" style=""width:200px; border:14px solid green;"">","null","","","","","","","",""
"","image-keyboard-response","61","98697","0.0-83.0","3RANCT1ZVG3SE0W1U2FRYG917NPUBU","A227W90ZO5I9RZ","3H6W48L9F4B5OEOMH57RM53Z4H1WP0","","45.59999996423721","img/land5.png","75","47.30000001192093","2","1","false","2","1,1,0,0,1,1,1,0,1","",""
"","html-keyboard-response","62","99005","0.0-84.0","3RANCT1ZVG3SE0W1U2FRYG917NPUBU","A227W90ZO5I9RZ","3H6W48L9F4B5OEOMH57RM53Z4H1WP0","","null","<img src=""img/land5.png"" style=""width:200px; border:14px solid green;"">","null","","","","","","","",""
"","image-keyboard-response","63","99100","0.0-86.0","3RANCT1ZVG3SE0W1U2FRYG917NPUBU","A227W90ZO5I9RZ","3H6W48L9F4B5OEOMH57RM53Z4H1WP0","","93.30000001192093","img/land3.png","75","94.89999997615814","2","1","false","1","1,1,0,0,1,1,1,0,1","",""
"","html-keyboard-response","64","99407","0.0-87.0","3RANCT1ZVG3SE0W1U2FRYG917NPUBU","A227W90ZO5I9RZ","3H6W48L9F4B5OEOMH57RM53Z4H1WP0","","null","<img src=""img/land3.png"" style=""width:200px; border:14px solid green;"">","null","","","","","","","",""
"","image-keyboard-response","65","99491","0.0-89.0","3RANCT1ZVG3SE0W1U2FRYG917NPUBU","A227W90ZO5I9RZ","3H6W48L9F4B5OEOMH57RM53Z4H1WP0","","82.19999998807907","img/land5.png","75","83.79999995231628","2","1","false","2","1,1,0,0,1,1,1,0,1","",""
"","html-keyboard-response","66","99800","0.0-90.0","3RANCT1ZVG3SE0W1U2FRYG917NPUBU","A227W90ZO5I9RZ","3H6W48L9F4B5OEOMH57RM53Z4H1WP0","","null","<img src=""img/land5.png"" style=""width:200px; border:14px solid green;"">","null","","","","","","","",""
"","image-keyboard-response","67","100115","0.0-92.0","3RANCT1ZVG3SE0W1U2FRYG917NPUBU","A227W90ZO5I9RZ","3H6W48L9F4B5OEOMH57RM53Z4H1WP0","","313.80000001192093","img/land2.png","75","315.19999998807907","2","0","false","3","1,1,0,0,1,1,1,0,1","",""
"","html-keyboard-response","68","100422","0.0-93.0","3RANCT1ZVG3SE0W1U2FRYG917NPUBU","A227W90ZO5I9RZ","3H6W48L9F4B5OEOMH57RM53Z4H1WP0","","null","<img src=""img/land2.png"" style=""width:200px;border:14px solid red;"">","null","","","","","","","",""
"","image-keyboard-response","69","100476","0.0-95.0","3RANCT1ZVG3SE0W1U2FRYG917NPUBU","A227W90ZO5I9RZ","3H6W48L9F4B5OEOMH57RM53Z4H1WP0","","52.40000003576279","img/land3.png","75","53.89999997615814","2","1","false","1","1,1,0,0,1,1,1,0,1","",""
"","html-keyboard-response","70","100781","0.0-96.0","3RANCT1ZVG3SE0W1U2FRYG917NPUBU","A227W90ZO5I9RZ","3H6W48L9F4B5OEOMH57RM53Z4H1WP0","","null","<img src=""img/land3.png"" style=""width:200px; border:14px solid green;"">","null","","","","","","","",""
"","image-keyboard-response","71","100783","0.0-98.0","3RANCT1ZVG3SE0W1U2FRYG917NPUBU","A227W90ZO5I9RZ","3H6W48L9F4B5OEOMH57RM53Z4H1WP0","","0.09999996423721313","img/land2.png","75","1.199999988079071","2","0","false","3","1,1,0,0,1,1,1,0,1","",""
"","html-keyboard-response","72","101093","0.0-99.0","3RANCT1ZVG3SE0W1U2FRYG917NPUBU","A227W90ZO5I9RZ","3H6W48L9F4B5OEOMH57RM53Z4H1WP0","","null","<img src=""img/land2.png"" style=""width:200px;border:14px solid red;"">","null","","","","","","","",""
"","image-keyboard-response","73","101330","0.0-101.0","3RANCT1ZVG3SE0W1U2FRYG917NPUBU","A227W90ZO5I9RZ","3H6W48L9F4B5OEOMH57RM53Z4H1WP0","","234","img/land2.png","74","235.39999997615814","1","1","false","3","1,1,0,0,1,1,1,0,1","",""
"","html-keyboard-response","74","101635","0.0-102.0","3RANCT1ZVG3SE0W1U2FRYG917NPUBU","A227W90ZO5I9RZ","3H6W48L9F4B5OEOMH57RM53Z4H1WP0","","null","<img src=""img/land2.png"" style=""width:200px; border:14px solid green;"">","null","","","","","","","",""
"","image-keyboard-response","75","101887","0.0-104.0","3RANCT1ZVG3SE0W1U2FRYG917NPUBU","A227W90ZO5I9RZ","3H6W48L9F4B5OEOMH57RM53Z4H1WP0","","249.5999999642372","img/land3.png","74","251.20000004768372","1","1","false","1","1,1,0,0,1,1,1,0,1","",""
"","html-keyboard-response","76","102189","0.0-105.0","3RANCT1ZVG3SE0W1U2FRYG917NPUBU","A227W90ZO5I9RZ","3H6W48L9F4B5OEOMH57RM53Z4H1WP0","","null","<img src=""img/land3.png"" style=""width:200px; border:14px solid green;"">","null","","","","","","","",""
"","image-keyboard-response","77","102564","0.0-107.0","3RANCT1ZVG3SE0W1U2FRYG917NPUBU","A227W90ZO5I9RZ","3H6W48L9F4B5OEOMH57RM53Z4H1WP0","","373","img/land5.png","76","374.60000002384186","3","1","false","2","1,1,0,0,1,1,1,0,1","",""
"","html-keyboard-response","78","102874","0.0-108.0","3RANCT1ZVG3SE0W1U2FRYG917NPUBU","A227W90ZO5I9RZ","3H6W48L9F4B5OEOMH57RM53Z4H1WP0","","null","<img src=""img/land5.png"" style=""width:200px; border:14px solid green;"">","null","","","","","","","",""
"","image-keyboard-response","79","103160","0.0-110.0","3RANCT1ZVG3SE0W1U2FRYG917NPUBU","A227W90ZO5I9RZ","3H6W48L9F4B5OEOMH57RM53Z4H1WP0","","283.19999998807907","img/land5.png","75","285.0999999642372","2","1","false","2","1,1,0,0,1,1,1,0,1","",""
"","html-keyboard-response","80","103469","0.0-111.0","3RANCT1ZVG3SE0W1U2FRYG917NPUBU","A227W90ZO5I9RZ","3H6W48L9F4B5OEOMH57RM53Z4H1WP0","","null","<img src=""img/land5.png"" style=""width:200px; border:14px solid green;"">","null","","","","","","","",""
"","image-keyboard-response","81","103498","0.0-113.0","3RANCT1ZVG3SE0W1U2FRYG917NPUBU","A227W90ZO5I9RZ","3H6W48L9F4B5OEOMH57RM53Z4H1WP0","","26.69999998807907","img/land5.png","75","28.200000047683716","2","1","false","2","1,1,0,0,1,1,1,0,1","",""
"","html-keyboard-response","82","103802","0.0-114.0","3RANCT1ZVG3SE0W1U2FRYG917NPUBU","A227W90ZO5I9RZ","3H6W48L9F4B5OEOMH57RM53Z4H1WP0","","null","<img src=""img/land5.png"" style=""width:200px; border:14px solid green;"">","null","","","","","","","",""
"","image-keyboard-response","83","104117","0.0-116.0","3RANCT1ZVG3SE0W1U2FRYG917NPUBU","A227W90ZO5I9RZ","3H6W48L9F4B5OEOMH57RM53Z4H1WP0","","312.19999998807907","img/land3.png","74","313.60000002384186","1","1","false","1","1,1,0,0,1,1,1,0,1","",""
"","html-keyboard-response","84","104425","0.0-117.0","3RANCT1ZVG3SE0W1U2FRYG917NPUBU","A227W90ZO5I9RZ","3H6W48L9F4B5OEOMH57RM53Z4H1WP0","","null","<img src=""img/land3.png"" style=""width:200px; border:14px solid green;"">","null","","","","","","","",""
"","image-keyboard-response","85","104430","0.0-119.0","3RANCT1ZVG3SE0W1U2FRYG917NPUBU","A227W90ZO5I9RZ","3H6W48L9F4B5OEOMH57RM53Z4H1WP0","","3.199999988079071","img/land3.png","74","4.899999976158142","1","1","false","1","1,1,0,0,1,1,1,0,1","",""
"","html-keyboard-response","86","104735","0.0-120.0","3RANCT1ZVG3SE0W1U2FRYG917NPUBU","A227W90ZO5I9RZ","3H6W48L9F4B5OEOMH57RM53Z4H1WP0","","null","<img src=""img/land3.png"" style=""width:200px; border:14px solid green;"">","null","","","","","","","",""
"","image-keyboard-response","87","104987","0.0-122.0","3RANCT1ZVG3SE0W1U2FRYG917NPUBU","A227W90ZO5I9RZ","3H6W48L9F4B5OEOMH57RM53Z4H1WP0","","250","img/land5.png","74","251.5","1","0","false","2","1,1,0,0,1,1,1,0,1","",""
"","html-keyboard-response","88","105289","0.0-123.0","3RANCT1ZVG3SE0W1U2FRYG917NPUBU","A227W90ZO5I9RZ","3H6W48L9F4B5OEOMH57RM53Z4H1WP0","","null","<img src=""img/land5.png"" style=""width:200px;border:14px solid red;"">","null","","","","","","","",""
"","image-keyboard-response","89","105777","0.0-125.0","3RANCT1ZVG3SE0W1U2FRYG917NPUBU","A227W90ZO5I9RZ","3H6W48L9F4B5OEOMH57RM53Z4H1WP0","","486","img/land2.png","76","487.30000001192093","3","1","false","3","1,1,0,0,1,1,1,0,1","",""
"","html-keyboard-response","90","106087","0.0-126.0","3RANCT1ZVG3SE0W1U2FRYG917NPUBU","A227W90ZO5I9RZ","3H6W48L9F4B5OEOMH57RM53Z4H1WP0","","null","<img src=""img/land2.png"" style=""width:200px; border:14px solid green;"">","null","","","","","","","",""
"","image-keyboard-response","91","106332","0.0-128.0","3RANCT1ZVG3SE0W1U2FRYG917NPUBU","A227W90ZO5I9RZ","3H6W48L9F4B5OEOMH57RM53Z4H1WP0","","243.39999997615814","img/land3.png","75","244.60000002384186","2","1","false","1","1,1,0,0,1,1,1,0,1","",""
"","html-keyboard-response","92","106638","0.0-129.0","3RANCT1ZVG3SE0W1U2FRYG917NPUBU","A227W90ZO5I9RZ","3H6W48L9F4B5OEOMH57RM53Z4H1WP0","","null","<img src=""img/land3.png"" style=""width:200px; border:14px solid green;"">","null","","","","","","","",""
"","image-keyboard-response","93","106920","0.0-131.0","3RANCT1ZVG3SE0W1U2FRYG917NPUBU","A227W90ZO5I9RZ","3H6W48L9F4B5OEOMH57RM53Z4H1WP0","","280.0999999642372","img/land3.png","75","281.5","2","1","false","1","1,1,0,0,1,1,1,0,1","",""
"","html-keyboard-response","94","107233","0.0-132.0","3RANCT1ZVG3SE0W1U2FRYG917NPUBU","A227W90ZO5I9RZ","3H6W48L9F4B5OEOMH57RM53Z4H1WP0","","null","<img src=""img/land3.png"" style=""width:200px; border:14px solid green;"">","null","","","","","","","",""
"","image-keyboard-response","95","107547","0.0-134.0","3RANCT1ZVG3SE0W1U2FRYG917NPUBU","A227W90ZO5I9RZ","3H6W48L9F4B5OEOMH57RM53Z4H1WP0","","312","img/land2.png","75","313.5","2","0","false","3","1,1,0,0,1,1,1,0,1","",""
"","html-keyboard-response","96","107852","0.0-135.0","3RANCT1ZVG3SE0W1U2FRYG917NPUBU","A227W90ZO5I9RZ","3H6W48L9F4B5OEOMH57RM53Z4H1WP0","","null","<img src=""img/land2.png"" style=""width:200px;border:14px solid red;"">","null","","","","","","","",""
"","image-keyboard-response","97","108113","0.0-137.0","3RANCT1ZVG3SE0W1U2FRYG917NPUBU","A227W90ZO5I9RZ","3H6W48L9F4B5OEOMH57RM53Z4H1WP0","","258.69999998807907","img/land3.png","75","260.19999998807907","2","1","false","1","1,1,0,0,1,1,1,0,1","",""
"","html-keyboard-response","98","108417","0.0-138.0","3RANCT1ZVG3SE0W1U2FRYG917NPUBU","A227W90ZO5I9RZ","3H6W48L9F4B5OEOMH57RM53Z4H1WP0","","null","<img src=""img/land3.png"" style=""width:200px; border:14px solid green;"">","null","","","","","","","",""
"","image-keyboard-response","99","108554","0.0-140.0","3RANCT1ZVG3SE0W1U2FRYG917NPUBU","A227W90ZO5I9RZ","3H6W48L9F4B5OEOMH57RM53Z4H1WP0","","135.39999997615814","img/land3.png","74","136.80000001192093","1","1","false","1","1,1,0,0,1,1,1,0,1","",""
"","html-keyboard-response","100","108871","0.0-141.0","3RANCT1ZVG3SE0W1U2FRYG917NPUBU","A227W90ZO5I9RZ","3H6W48L9F4B5OEOMH57RM53Z4H1WP0","","null","<img src=""img/land3.png"" style=""width:200px; border:14px solid green;"">","null","","","","","","","",""
"","image-keyboard-response","101","109160","0.0-143.0","3RANCT1ZVG3SE0W1U2FRYG917NPUBU","A227W90ZO5I9RZ","3H6W48L9F4B5OEOMH57RM53Z4H1WP0","","287.30000001192093","img/land3.png","76","288.5999999642372","3","0","false","1","1,1,0,0,1,1,1,0,1","",""
"","html-keyboard-response","102","109467","0.0-144.0","3RANCT1ZVG3SE0W1U2FRYG917NPUBU","A227W90ZO5I9RZ","3H6W48L9F4B5OEOMH57RM53Z4H1WP0","","null","<img src=""img/land3.png"" style=""width:200px;border:14px solid red;"">","null","","","","","","","",""
"","image-keyboard-response","103","109699","0.0-146.0","3RANCT1ZVG3SE0W1U2FRYG917NPUBU","A227W90ZO5I9RZ","3H6W48L9F4B5OEOMH57RM53Z4H1WP0","","229.69999998807907","img/land2.png","76","231.4000000357628","3","1","false","3","1,1,0,0,1,1,1,0,1","",""
"","html-keyboard-response","104","110007","0.0-147.0","3RANCT1ZVG3SE0W1U2FRYG917NPUBU","A227W90ZO5I9RZ","3H6W48L9F4B5OEOMH57RM53Z4H1WP0","","null","<img src=""img/land2.png"" style=""width:200px; border:14px solid green;"">","null","","","","","","","",""
"","image-keyboard-response","105","110009","0.0-149.0","3RANCT1ZVG3SE0W1U2FRYG917NPUBU","A227W90ZO5I9RZ","3H6W48L9F4B5OEOMH57RM53Z4H1WP0","","0.30000001192092896","img/land3.png","76","1.5999999642372131","3","0","false","1","1,1,0,0,1,1,1,0,1","",""
"","html-keyboard-response","106","110317","0.0-150.0","3RANCT1ZVG3SE0W1U2FRYG917NPUBU","A227W90ZO5I9RZ","3H6W48L9F4B5OEOMH57RM53Z4H1WP0","","null","<img src=""img/land3.png"" style=""width:200px;border:14px solid red;"">","null","","","","","","","",""
"","image-keyboard-response","107","110359","0.0-152.0","3RANCT1ZVG3SE0W1U2FRYG917NPUBU","A227W90ZO5I9RZ","3H6W48L9F4B5OEOMH57RM53Z4H1WP0","","40.09999996423721","img/land5.png","76","41.299999952316284","3","1","false","2","1,1,0,0,1,1,1,0,1","",""
"","html-keyboard-response","108","110665","0.0-153.0","3RANCT1ZVG3SE0W1U2FRYG917NPUBU","A227W90ZO5I9RZ","3H6W48L9F4B5OEOMH57RM53Z4H1WP0","","null","<img src=""img/land5.png"" style=""width:200px; border:14px solid green;"">","null","","","","","","","",""
"","image-keyboard-response","109","111054","0.0-155.0","3RANCT1ZVG3SE0W1U2FRYG917NPUBU","A227W90ZO5I9RZ","3H6W48L9F4B5OEOMH57RM53Z4H1WP0","","387.19999998807907","img/land2.png","75","388.60000002384186","2","0","false","3","1,1,0,0,1,1,1,0,1","",""
"","html-keyboard-response","110","111360","0.0-156.0","3RANCT1ZVG3SE0W1U2FRYG917NPUBU","A227W90ZO5I9RZ","3H6W48L9F4B5OEOMH57RM53Z4H1WP0","","null","<img src=""img/land2.png"" style=""width:200px;border:14px solid red;"">","null","","","","","","","",""
"","image-keyboard-response","111","111760","0.0-158.0","3RANCT1ZVG3SE0W1U2FRYG917NPUBU","A227W90ZO5I9RZ","3H6W48L9F4B5OEOMH57RM53Z4H1WP0","","398.2999999523163","img/land5.png","76","400.89999997615814","3","1","false","2","1,1,0,0,1,1,1,0,1","",""
"","html-keyboard-response","112","112065","0.0-159.0","3RANCT1ZVG3SE0W1U2FRYG917NPUBU","A227W90ZO5I9RZ","3H6W48L9F4B5OEOMH57RM53Z4H1WP0","","null","<img src=""img/land5.png"" style=""width:200px; border:14px solid green;"">","null","","","","","","","",""
"","image-keyboard-response","113","112317","0.0-161.0","3RANCT1ZVG3SE0W1U2FRYG917NPUBU","A227W90ZO5I9RZ","3H6W48L9F4B5OEOMH57RM53Z4H1WP0","","249.89999997615814","img/land3.png","76","251.4000000357628","3","0","false","1","1,1,0,0,1,1,1,0,1","",""
"","html-keyboard-response","114","112621","0.0-162.0","3RANCT1ZVG3SE0W1U2FRYG917NPUBU","A227W90ZO5I9RZ","3H6W48L9F4B5OEOMH57RM53Z4H1WP0","","null","<img src=""img/land3.png"" style=""width:200px;border:14px solid red;"">","null","","","","","","","",""
"","image-keyboard-response","115","112838","0.0-164.0","3RANCT1ZVG3SE0W1U2FRYG917NPUBU","A227W90ZO5I9RZ","3H6W48L9F4B5OEOMH57RM53Z4H1WP0","","215.60000002384186","img/land5.png","75","217","2","1","false","2","1,1,0,0,1,1,1,0,1","",""
"","html-keyboard-response","116","113146","0.0-165.0","3RANCT1ZVG3SE0W1U2FRYG917NPUBU","A227W90ZO5I9RZ","3H6W48L9F4B5OEOMH57RM53Z4H1WP0","","null","<img src=""img/land5.png"" style=""width:200px; border:14px solid green;"">","null","","","","","","","",""
"","image-keyboard-response","117","113380","0.0-167.0","3RANCT1ZVG3SE0W1U2FRYG917NPUBU","A227W90ZO5I9RZ","3H6W48L9F4B5OEOMH57RM53Z4H1WP0","","231.89999997615814","img/land5.png","74","233.39999997615814","1","0","false","2","1,1,0,0,1,1,1,0,1","",""
"","html-keyboard-response","118","113689","0.0-168.0","3RANCT1ZVG3SE0W1U2FRYG917NPUBU","A227W90ZO5I9RZ","3H6W48L9F4B5OEOMH57RM53Z4H1WP0","","null","<img src=""img/land5.png"" style=""width:200px;border:14px solid red;"">","null","","","","","","","",""
"","image-keyboard-response","119","113921","0.0-170.0","3RANCT1ZVG3SE0W1U2FRYG917NPUBU","A227W90ZO5I9RZ","3H6W48L9F4B5OEOMH57RM53Z4H1WP0","","230.89999997615814","img/land3.png","74","232.30000001192093","1","1","false","1","1,1,0,0,1,1,1,0,1","",""
"","html-keyboard-response","120","114229","0.0-171.0","3RANCT1ZVG3SE0W1U2FRYG917NPUBU","A227W90ZO5I9RZ","3H6W48L9F4B5OEOMH57RM53Z4H1WP0","","null","<img src=""img/land3.png"" style=""width:200px; border:14px solid green;"">","null","","","","","","","",""
"","image-keyboard-response","121","114439","0.0-173.0","3RANCT1ZVG3SE0W1U2FRYG917NPUBU","A227W90ZO5I9RZ","3H6W48L9F4B5OEOMH57RM53Z4H1WP0","","208.5","img/land5.png","76","209.69999998807907","3","1","false","2","1,1,0,0,1,1,1,0,1","",""
"","html-keyboard-response","122","114748","0.0-174.0","3RANCT1ZVG3SE0W1U2FRYG917NPUBU","A227W90ZO5I9RZ","3H6W48L9F4B5OEOMH57RM53Z4H1WP0","","null","<img src=""img/land5.png"" style=""width:200px; border:14px solid green;"">","null","","","","","","","",""
"","image-keyboard-response","123","114943","0.0-176.0","3RANCT1ZVG3SE0W1U2FRYG917NPUBU","A227W90ZO5I9RZ","3H6W48L9F4B5OEOMH57RM53Z4H1WP0","","193.5","img/land3.png","76","195.0999999642372","3","0","false","1","1,1,0,0,1,1,1,0,1","",""
"","html-keyboard-response","124","115247","0.0-177.0","3RANCT1ZVG3SE0W1U2FRYG917NPUBU","A227W90ZO5I9RZ","3H6W48L9F4B5OEOMH57RM53Z4H1WP0","","null","<img src=""img/land3.png"" style=""width:200px;border:14px solid red;"">","null","","","","","","","",""
"","image-keyboard-response","125","115299","0.0-179.0","3RANCT1ZVG3SE0W1U2FRYG917NPUBU","A227W90ZO5I9RZ","3H6W48L9F4B5OEOMH57RM53Z4H1WP0","","49.19999998807907","img/land5.png","76","51","3","1","false","2","1,1,0,0,1,1,1,0,1","",""
"","html-keyboard-response","126","115604","0.0-180.0","3RANCT1ZVG3SE0W1U2FRYG917NPUBU","A227W90ZO5I9RZ","3H6W48L9F4B5OEOMH57RM53Z4H1WP0","","null","<img src=""img/land5.png"" style=""width:200px; border:14px solid green;"">","null","","","","","","","",""
"","image-keyboard-response","127","115825","0.0-182.0","3RANCT1ZVG3SE0W1U2FRYG917NPUBU","A227W90ZO5I9RZ","3H6W48L9F4B5OEOMH57RM53Z4H1WP0","","219.4000000357628","img/land5.png","75","220.80000001192093","2","1","false","2","1,1,0,0,1,1,1,0,1","",""
"","html-keyboard-response","128","116133","0.0-183.0","3RANCT1ZVG3SE0W1U2FRYG917NPUBU","A227W90ZO5I9RZ","3H6W48L9F4B5OEOMH57RM53Z4H1WP0","","null","<img src=""img/land5.png"" style=""width:200px; border:14px solid green;"">","null","","","","","","","",""
"","image-keyboard-response","129","116354","0.0-185.0","3RANCT1ZVG3SE0W1U2FRYG917NPUBU","A227W90ZO5I9RZ","3H6W48L9F4B5OEOMH57RM53Z4H1WP0","","219.69999998807907","img/land5.png","75","221.0999999642372","2","1","false","2","1,1,0,0,1,1,1,0,1","",""
"","html-keyboard-response","130","116671","0.0-186.0","3RANCT1ZVG3SE0W1U2FRYG917NPUBU","A227W90ZO5I9RZ","3H6W48L9F4B5OEOMH57RM53Z4H1WP0","","null","<img src=""img/land5.png"" style=""width:200px; border:14px solid green;"">","null","","","","","","","",""
"","image-keyboard-response","131","116871","0.0-188.0","3RANCT1ZVG3SE0W1U2FRYG917NPUBU","A227W90ZO5I9RZ","3H6W48L9F4B5OEOMH57RM53Z4H1WP0","","198.30000001192093","img/land2.png","76","199.80000001192093","3","1","false","3","1,1,0,0,1,1,1,0,1","",""
"","html-keyboard-response","132","117183","0.0-189.0","3RANCT1ZVG3SE0W1U2FRYG917NPUBU","A227W90ZO5I9RZ","3H6W48L9F4B5OEOMH57RM53Z4H1WP0","","null","<img src=""img/land2.png"" style=""width:200px; border:14px solid green;"">","null","","","","","","","",""
"","image-keyboard-response","133","117414","0.0-191.0","3RANCT1ZVG3SE0W1U2FRYG917NPUBU","A227W90ZO5I9RZ","3H6W48L9F4B5OEOMH57RM53Z4H1WP0","","228.5","img/land5.png","75","229.9000000357628","2","1","false","2","1,1,0,0,1,1,1,0,1","",""
"","html-keyboard-response","134","117718","0.0-192.0","3RANCT1ZVG3SE0W1U2FRYG917NPUBU","A227W90ZO5I9RZ","3H6W48L9F4B5OEOMH57RM53Z4H1WP0","","null","<img src=""img/land5.png"" style=""width:200px; border:14px solid green;"">","null","","","","","","","",""
"","image-keyboard-response","135","117964","0.0-194.0","3RANCT1ZVG3SE0W1U2FRYG917NPUBU","A227W90ZO5I9RZ","3H6W48L9F4B5OEOMH57RM53Z4H1WP0","","244.5999999642372","img/land3.png","76","245.9000000357628","3","0","false","1","1,1,0,0,1,1,1,0,1","",""
"","html-keyboard-response","136","118267","0.0-195.0","3RANCT1ZVG3SE0W1U2FRYG917NPUBU","A227W90ZO5I9RZ","3H6W48L9F4B5OEOMH57RM53Z4H1WP0","","null","<img src=""img/land3.png"" style=""width:200px;border:14px solid red;"">","null","","","","","","","",""
"","image-keyboard-response","137","118456","0.0-197.0","3RANCT1ZVG3SE0W1U2FRYG917NPUBU","A227W90ZO5I9RZ","3H6W48L9F4B5OEOMH57RM53Z4H1WP0","","185.80000001192093","img/land2.png","76","187.19999998807907","3","1","false","3","1,1,0,0,1,1,1,0,1","",""
"","html-keyboard-response","138","118761","0.0-198.0","3RANCT1ZVG3SE0W1U2FRYG917NPUBU","A227W90ZO5I9RZ","3H6W48L9F4B5OEOMH57RM53Z4H1WP0","","null","<img src=""img/land2.png"" style=""width:200px; border:14px solid green;"">","null","","","","","","","",""
"","image-keyboard-response","139","118938","0.0-200.0","3RANCT1ZVG3SE0W1U2FRYG917NPUBU","A227W90ZO5I9RZ","3H6W48L9F4B5OEOMH57RM53Z4H1WP0","","174.80000001192093","img/land3.png","76","176.39999997615814","3","0","false","1","1,1,0,0,1,1,1,0,1","",""
"","html-keyboard-response","140","119248","0.0-201.0","3RANCT1ZVG3SE0W1U2FRYG917NPUBU","A227W90ZO5I9RZ","3H6W48L9F4B5OEOMH57RM53Z4H1WP0","","null","<img src=""img/land3.png"" style=""width:200px;border:14px solid red;"">","null","","","","","","","",""
"","image-keyboard-response","141","119294","0.0-203.0","3RANCT1ZVG3SE0W1U2FRYG917NPUBU","A227W90ZO5I9RZ","3H6W48L9F4B5OEOMH57RM53Z4H1WP0","","44","img/land5.png","75","45.60000002384186","2","1","false","2","1,1,0,0,1,1,1,0,1","",""
"","html-keyboard-response","142","119597","0.0-204.0","3RANCT1ZVG3SE0W1U2FRYG917NPUBU","A227W90ZO5I9RZ","3H6W48L9F4B5OEOMH57RM53Z4H1WP0","","null","<img src=""img/land5.png"" style=""width:200px; border:14px solid green;"">","null","","","","","","","",""
"","image-keyboard-response","143","119862","0.0-206.0","3RANCT1ZVG3SE0W1U2FRYG917NPUBU","A227W90ZO5I9RZ","3H6W48L9F4B5OEOMH57RM53Z4H1WP0","","262.60000002384186","img/land2.png","75","264","2","0","false","3","1,1,0,0,1,1,1,0,1","",""
"","html-keyboard-response","144","120171","0.0-207.0","3RANCT1ZVG3SE0W1U2FRYG917NPUBU","A227W90ZO5I9RZ","3H6W48L9F4B5OEOMH57RM53Z4H1WP0","","null","<img src=""img/land2.png"" style=""width:200px;border:14px solid red;"">","null","","","","","","","",""
"","image-keyboard-response","145","120207","0.0-209.0","3RANCT1ZVG3SE0W1U2FRYG917NPUBU","A227W90ZO5I9RZ","3H6W48L9F4B5OEOMH57RM53Z4H1WP0","","34.5","img/land3.png","75","35.69999998807907","2","1","false","1","1,1,0,0,1,1,1,0,1","",""
"","html-keyboard-response","146","120511","0.0-210.0","3RANCT1ZVG3SE0W1U2FRYG917NPUBU","A227W90ZO5I9RZ","3H6W48L9F4B5OEOMH57RM53Z4H1WP0","","null","<img src=""img/land3.png"" style=""width:200px; border:14px solid green;"">","null","","","","","","","",""
"","image-keyboard-response","147","120565","0.0-212.0","3RANCT1ZVG3SE0W1U2FRYG917NPUBU","A227W90ZO5I9RZ","3H6W48L9F4B5OEOMH57RM53Z4H1WP0","","51.60000002384186","img/land3.png","74","53.30000001192093","1","1","false","1","1,1,0,0,1,1,1,0,1","",""
"","html-keyboard-response","148","120868","0.0-213.0","3RANCT1ZVG3SE0W1U2FRYG917NPUBU","A227W90ZO5I9RZ","3H6W48L9F4B5OEOMH57RM53Z4H1WP0","","null","<img src=""img/land3.png"" style=""width:200px; border:14px solid green;"">","null","","","","","","","",""
"","image-keyboard-response","149","121089","0.0-215.0","3RANCT1ZVG3SE0W1U2FRYG917NPUBU","A227W90ZO5I9RZ","3H6W48L9F4B5OEOMH57RM53Z4H1WP0","","218.89999997615814","img/land2.png","75","220.29999995231628","2","0","false","3","1,1,0,0,1,1,1,0,1","",""
"","html-keyboard-response","150","121397","0.0-216.0","3RANCT1ZVG3SE0W1U2FRYG917NPUBU","A227W90ZO5I9RZ","3H6W48L9F4B5OEOMH57RM53Z4H1WP0","","null","<img src=""img/land2.png"" style=""width:200px;border:14px solid red;"">","null","","","","","","","",""
"","image-keyboard-response","151","121750","0.0-218.0","3RANCT1ZVG3SE0W1U2FRYG917NPUBU","A227W90ZO5I9RZ","3H6W48L9F4B5OEOMH57RM53Z4H1WP0","","351.30000001192093","img/land2.png","76","352.5999999642372","3","1","false","3","1,1,0,0,1,1,1,0,1","",""
"","html-keyboard-response","152","122058","0.0-219.0","3RANCT1ZVG3SE0W1U2FRYG917NPUBU","A227W90ZO5I9RZ","3H6W48L9F4B5OEOMH57RM53Z4H1WP0","","null","<img src=""img/land2.png"" style=""width:200px; border:14px solid green;"">","null","","","","","","","",""
"","image-keyboard-response","153","122082","0.0-221.0","3RANCT1ZVG3SE0W1U2FRYG917NPUBU","A227W90ZO5I9RZ","3H6W48L9F4B5OEOMH57RM53Z4H1WP0","","22.100000023841858","img/land5.png","76","23.400000035762787","3","1","false","2","1,1,0,0,1,1,1,0,1","",""
"","html-keyboard-response","154","122394","0.0-222.0","3RANCT1ZVG3SE0W1U2FRYG917NPUBU","A227W90ZO5I9RZ","3H6W48L9F4B5OEOMH57RM53Z4H1WP0","","null","<img src=""img/land5.png"" style=""width:200px; border:14px solid green;"">","null","","","","","","","",""
"","image-keyboard-response","155","122538","0.0-224.0","3RANCT1ZVG3SE0W1U2FRYG917NPUBU","A227W90ZO5I9RZ","3H6W48L9F4B5OEOMH57RM53Z4H1WP0","","141.89999997615814","img/land3.png","76","143.60000002384186","3","0","false","1","1,1,0,0,1,1,1,0,1","",""
"","html-keyboard-response","156","122842","0.0-225.0","3RANCT1ZVG3SE0W1U2FRYG917NPUBU","A227W90ZO5I9RZ","3H6W48L9F4B5OEOMH57RM53Z4H1WP0","","null","<img src=""img/land3.png"" style=""width:200px;border:14px solid red;"">","null","","","","","","","",""
"","image-keyboard-response","157","123108","0.0-227.0","3RANCT1ZVG3SE0W1U2FRYG917NPUBU","A227W90ZO5I9RZ","3H6W48L9F4B5OEOMH57RM53Z4H1WP0","","264.60000002384186","img/land3.png","75","266.10000002384186","2","1","false","1","1,1,0,0,1,1,1,0,1","",""
"","html-keyboard-response","158","123412","0.0-228.0","3RANCT1ZVG3SE0W1U2FRYG917NPUBU","A227W90ZO5I9RZ","3H6W48L9F4B5OEOMH57RM53Z4H1WP0","","null","<img src=""img/land3.png"" style=""width:200px; border:14px solid green;"">","null","","","","","","","",""
"","image-keyboard-response","159","123447","0.0-230.0","3RANCT1ZVG3SE0W1U2FRYG917NPUBU","A227W90ZO5I9RZ","3H6W48L9F4B5OEOMH57RM53Z4H1WP0","","33.60000002384186","img/land2.png","75","35.10000002384186","2","0","false","3","1,1,0,0,1,1,1,0,1","",""
"","html-keyboard-response","160","123757","0.0-231.0","3RANCT1ZVG3SE0W1U2FRYG917NPUBU","A227W90ZO5I9RZ","3H6W48L9F4B5OEOMH57RM53Z4H1WP0","","null","<img src=""img/land2.png"" style=""width:200px;border:14px solid red;"">","null","","","","","","","",""
"","image-keyboard-response","161","123782","0.0-233.0","3RANCT1ZVG3SE0W1U2FRYG917NPUBU","A227W90ZO5I9RZ","3H6W48L9F4B5OEOMH57RM53Z4H1WP0","","24.30000001192093","img/land2.png","74","25.400000035762787","1","1","false","3","1,1,0,0,1,1,1,0,1","",""
"","html-keyboard-response","162","124091","0.0-234.0","3RANCT1ZVG3SE0W1U2FRYG917NPUBU","A227W90ZO5I9RZ","3H6W48L9F4B5OEOMH57RM53Z4H1WP0","","null","<img src=""img/land2.png"" style=""width:200px; border:14px solid green;"">","null","","","","","","","",""
"","image-keyboard-response","163","124382","0.0-236.0","3RANCT1ZVG3SE0W1U2FRYG917NPUBU","A227W90ZO5I9RZ","3H6W48L9F4B5OEOMH57RM53Z4H1WP0","","289","img/land2.png","75","290.39999997615814","2","0","false","3","1,1,0,0,1,1,1,0,1","",""
"","html-keyboard-response","164","124690","0.0-237.0","3RANCT1ZVG3SE0W1U2FRYG917NPUBU","A227W90ZO5I9RZ","3H6W48L9F4B5OEOMH57RM53Z4H1WP0","","null","<img src=""img/land2.png"" style=""width:200px;border:14px solid red;"">","null","","","","","","","",""
"","image-keyboard-response","165","124709","0.0-239.0","3RANCT1ZVG3SE0W1U2FRYG917NPUBU","A227W90ZO5I9RZ","3H6W48L9F4B5OEOMH57RM53Z4H1WP0","","17.399999976158142","img/land2.png","75","18.600000023841858","2","0","false","3","1,1,0,0,1,1,1,0,1","",""
"","html-keyboard-response","166","125012","0.0-240.0","3RANCT1ZVG3SE0W1U2FRYG917NPUBU","A227W90ZO5I9RZ","3H6W48L9F4B5OEOMH57RM53Z4H1WP0","","null","<img src=""img/land2.png"" style=""width:200px;border:14px solid red;"">","null","","","","","","","",""
"","image-keyboard-response","167","125291","0.0-242.0","3RANCT1ZVG3SE0W1U2FRYG917NPUBU","A227W90ZO5I9RZ","3H6W48L9F4B5OEOMH57RM53Z4H1WP0","","277","img/land2.png","76","278.39999997615814","3","1","false","3","1,1,0,0,1,1,1,0,1","",""
"","html-keyboard-response","168","125598","0.0-243.0","3RANCT1ZVG3SE0W1U2FRYG917NPUBU","A227W90ZO5I9RZ","3H6W48L9F4B5OEOMH57RM53Z4H1WP0","","null","<img src=""img/land2.png"" style=""width:200px; border:14px solid green;"">","null","","","","","","","",""
"","image-keyboard-response","169","125837","0.0-245.0","3RANCT1ZVG3SE0W1U2FRYG917NPUBU","A227W90ZO5I9RZ","3H6W48L9F4B5OEOMH57RM53Z4H1WP0","","236.39999997615814","img/land3.png","76","238.0999999642372","3","0","false","1","1,1,0,0,1,1,1,0,1","",""
"","html-keyboard-response","170","126144","0.0-246.0","3RANCT1ZVG3SE0W1U2FRYG917NPUBU","A227W90ZO5I9RZ","3H6W48L9F4B5OEOMH57RM53Z4H1WP0","","null","<img src=""img/land3.png"" style=""width:200px;border:14px solid red;"">","null","","","","","","","",""
"","image-keyboard-response","171","126148","0.0-248.0","3RANCT1ZVG3SE0W1U2FRYG917NPUBU","A227W90ZO5I9RZ","3H6W48L9F4B5OEOMH57RM53Z4H1WP0","","0.19999998807907104","img/land5.png","76","1.800000011920929","3","1","false","2","1,1,0,0,1,1,1,0,1","",""
"","html-keyboard-response","172","126452","0.0-249.0","3RANCT1ZVG3SE0W1U2FRYG917NPUBU","A227W90ZO5I9RZ","3H6W48L9F4B5OEOMH57RM53Z4H1WP0","","null","<img src=""img/land5.png"" style=""width:200px; border:14px solid green;"">","null","","","","","","","",""
"","image-keyboard-response","173","126695","0.0-251.0","3RANCT1ZVG3SE0W1U2FRYG917NPUBU","A227W90ZO5I9RZ","3H6W48L9F4B5OEOMH57RM53Z4H1WP0","","241","img/land3.png","75","242.30000001192093","2","1","false","1","1,1,0,0,1,1,1,0,1","",""
"","html-keyboard-response","174","127002","0.0-252.0","3RANCT1ZVG3SE0W1U2FRYG917NPUBU","A227W90ZO5I9RZ","3H6W48L9F4B5OEOMH57RM53Z4H1WP0","","null","<img src=""img/land3.png"" style=""width:200px; border:14px solid green;"">","null","","","","","","","",""
"","image-keyboard-response","175","127004","0.0-254.0","3RANCT1ZVG3SE0W1U2FRYG917NPUBU","A227W90ZO5I9RZ","3H6W48L9F4B5OEOMH57RM53Z4H1WP0","","0.09999996423721313","img/land3.png","75","1.300000011920929","2","1","false","1","1,1,0,0,1,1,1,0,1","",""
"","html-keyboard-response","176","127314","0.0-255.0","3RANCT1ZVG3SE0W1U2FRYG917NPUBU","A227W90ZO5I9RZ","3H6W48L9F4B5OEOMH57RM53Z4H1WP0","","null","<img src=""img/land3.png"" style=""width:200px; border:14px solid green;"">","null","","","","","","","",""
"","image-keyboard-response","177","127427","0.0-257.0","3RANCT1ZVG3SE0W1U2FRYG917NPUBU","A227W90ZO5I9RZ","3H6W48L9F4B5OEOMH57RM53Z4H1WP0","","110.80000001192093","img/land5.png","75","112.80000001192093","2","1","false","2","1,1,0,0,1,1,1,0,1","",""
"","html-keyboard-response","178","127744","0.0-258.0","3RANCT1ZVG3SE0W1U2FRYG917NPUBU","A227W90ZO5I9RZ","3H6W48L9F4B5OEOMH57RM53Z4H1WP0","","null","<img src=""img/land5.png"" style=""width:200px; border:14px solid green;"">","null","","","","","","","",""
"","image-keyboard-response","179","127781","0.0-260.0","3RANCT1ZVG3SE0W1U2FRYG917NPUBU","A227W90ZO5I9RZ","3H6W48L9F4B5OEOMH57RM53Z4H1WP0","","36","img/land3.png","75","37.40000003576279","2","1","false","1","1,1,0,0,1,1,1,0,1","",""
"","html-keyboard-response","180","128092","0.0-261.0","3RANCT1ZVG3SE0W1U2FRYG917NPUBU","A227W90ZO5I9RZ","3H6W48L9F4B5OEOMH57RM53Z4H1WP0","","null","<img src=""img/land3.png"" style=""width:200px; border:14px solid green;"">","null","","","","","","","",""
"","image-keyboard-response","181","128114","0.0-263.0","3RANCT1ZVG3SE0W1U2FRYG917NPUBU","A227W90ZO5I9RZ","3H6W48L9F4B5OEOMH57RM53Z4H1WP0","","21","img/land2.png","74","22.19999998807907","1","1","false","3","1,1,0,0,1,1,1,0,1","",""
"","html-keyboard-response","182","128422","0.0-264.0","3RANCT1ZVG3SE0W1U2FRYG917NPUBU","A227W90ZO5I9RZ","3H6W48L9F4B5OEOMH57RM53Z4H1WP0","","null","<img src=""img/land2.png"" style=""width:200px; border:14px solid green;"">","null","","","","","","","",""
"","image-keyboard-response","183","128607","0.0-266.0","3RANCT1ZVG3SE0W1U2FRYG917NPUBU","A227W90ZO5I9RZ","3H6W48L9F4B5OEOMH57RM53Z4H1WP0","","183.20000004768372","img/land2.png","74","184.69999998807907","1","1","false","3","1,1,0,0,1,1,1,0,1","",""
"","html-keyboard-response","184","128915","0.0-267.0","3RANCT1ZVG3SE0W1U2FRYG917NPUBU","A227W90ZO5I9RZ","3H6W48L9F4B5OEOMH57RM53Z4H1WP0","","null","<img src=""img/land2.png"" style=""width:200px; border:14px solid green;"">","null","","","","","","","",""
"","image-keyboard-response","185","129184","0.0-269.0","3RANCT1ZVG3SE0W1U2FRYG917NPUBU","A227W90ZO5I9RZ","3H6W48L9F4B5OEOMH57RM53Z4H1WP0","","266","img/land2.png","75","267.5","2","0","false","3","1,1,0,0,1,1,1,0,1","",""
"","html-keyboard-response","186","129488","0.0-270.0","3RANCT1ZVG3SE0W1U2FRYG917NPUBU","A227W90ZO5I9RZ","3H6W48L9F4B5OEOMH57RM53Z4H1WP0","","null","<img src=""img/land2.png"" style=""width:200px;border:14px solid red;"">","null","","","","","","","",""
"","html-keyboard-response","187","135887","0.0-272.0","3RANCT1ZVG3SE0W1U2FRYG917NPUBU","A227W90ZO5I9RZ","3H6W48L9F4B5OEOMH57RM53Z4H1WP0","","","","","","","","","","","",""
"","image-keyboard-response","188","136692","0.0-273.0","3RANCT1ZVG3SE0W1U2FRYG917NPUBU","A227W90ZO5I9RZ","3H6W48L9F4B5OEOMH57RM53Z4H1WP0","","803.2999999523163","img/land1.png","76","805","3","1","false","3","1,0.5,0.5,0.5,1,0.5,0.5,0.5,1","",""
"","html-keyboard-response","189","137002","0.0-274.0","3RANCT1ZVG3SE0W1U2FRYG917NPUBU","A227W90ZO5I9RZ","3H6W48L9F4B5OEOMH57RM53Z4H1WP0","","null","<img src=""img/land1.png"" style=""width:200px; border:14px solid green;"">","null","","","","","","","",""
"","image-keyboard-response","190","137152","0.0-276.0","3RANCT1ZVG3SE0W1U2FRYG917NPUBU","A227W90ZO5I9RZ","3H6W48L9F4B5OEOMH57RM53Z4H1WP0","","148","img/land6.png","76","149.60000002384186","3","1","false","1","1,0.5,0.5,0.5,1,0.5,0.5,0.5,1","",""
"","html-keyboard-response","191","137456","0.0-277.0","3RANCT1ZVG3SE0W1U2FRYG917NPUBU","A227W90ZO5I9RZ","3H6W48L9F4B5OEOMH57RM53Z4H1WP0","","null","<img src=""img/land6.png"" style=""width:200px; border:14px solid green;"">","null","","","","","","","",""
"","image-keyboard-response","192","137622","0.0-279.0","3RANCT1ZVG3SE0W1U2FRYG917NPUBU","A227W90ZO5I9RZ","3H6W48L9F4B5OEOMH57RM53Z4H1WP0","","164.89999997615814","img/land1.png","76","166.19999998807907","3","1","false","3","1,0.5,0.5,0.5,1,0.5,0.5,0.5,1","",""
"","html-keyboard-response","193","137931","0.0-280.0","3RANCT1ZVG3SE0W1U2FRYG917NPUBU","A227W90ZO5I9RZ","3H6W48L9F4B5OEOMH57RM53Z4H1WP0","","null","<img src=""img/land1.png"" style=""width:200px; border:14px solid green;"">","null","","","","","","","",""
"","image-keyboard-response","194","138230","0.0-282.0","3RANCT1ZVG3SE0W1U2FRYG917NPUBU","A227W90ZO5I9RZ","3H6W48L9F4B5OEOMH57RM53Z4H1WP0","","297.0999999642372","img/land6.png","76","298.5","3","1","false","1","1,0.5,0.5,0.5,1,0.5,0.5,0.5,1","",""
"","html-keyboard-response","195","138537","0.0-283.0","3RANCT1ZVG3SE0W1U2FRYG917NPUBU","A227W90ZO5I9RZ","3H6W48L9F4B5OEOMH57RM53Z4H1WP0","","null","<img src=""img/land6.png"" style=""width:200px; border:14px solid green;"">","null","","","","","","","",""
"","image-keyboard-response","196","138568","0.0-285.0","3RANCT1ZVG3SE0W1U2FRYG917NPUBU","A227W90ZO5I9RZ","3H6W48L9F4B5OEOMH57RM53Z4H1WP0","","29.5","img/land1.png","76","30.69999998807907","3","1","false","3","1,0.5,0.5,0.5,1,0.5,0.5,0.5,1","",""
"","html-keyboard-response","197","138870","0.0-286.0","3RANCT1ZVG3SE0W1U2FRYG917NPUBU","A227W90ZO5I9RZ","3H6W48L9F4B5OEOMH57RM53Z4H1WP0","","null","<img src=""img/land1.png"" style=""width:200px; border:14px solid green;"">","null","","","","","","","",""
"","image-keyboard-response","198","139152","0.0-288.0","3RANCT1ZVG3SE0W1U2FRYG917NPUBU","A227W90ZO5I9RZ","3H6W48L9F4B5OEOMH57RM53Z4H1WP0","","280.10000002384186","img/land4.png","76","281.60000002384186","3","1","false","2","1,0.5,0.5,0.5,1,0.5,0.5,0.5,1","",""
"","html-keyboard-response","199","139456","0.0-289.0","3RANCT1ZVG3SE0W1U2FRYG917NPUBU","A227W90ZO5I9RZ","3H6W48L9F4B5OEOMH57RM53Z4H1WP0","","null","<img src=""img/land4.png"" style=""width:200px; border:14px solid green;"">","null","","","","","","","",""
"","image-keyboard-response","200","139481","0.0-291.0","3RANCT1ZVG3SE0W1U2FRYG917NPUBU","A227W90ZO5I9RZ","3H6W48L9F4B5OEOMH57RM53Z4H1WP0","","22.80000001192093","img/land1.png","76","24","3","1","false","3","1,0.5,0.5,0.5,1,0.5,0.5,0.5,1","",""
"","html-keyboard-response","201","139785","0.0-292.0","3RANCT1ZVG3SE0W1U2FRYG917NPUBU","A227W90ZO5I9RZ","3H6W48L9F4B5OEOMH57RM53Z4H1WP0","","null","<img src=""img/land1.png"" style=""width:200px; border:14px solid green;"">","null","","","","","","","",""
"","image-keyboard-response","202","140030","0.0-294.0","3RANCT1ZVG3SE0W1U2FRYG917NPUBU","A227W90ZO5I9RZ","3H6W48L9F4B5OEOMH57RM53Z4H1WP0","","242.89999997615814","img/land4.png","76","244.30000001192093","3","1","false","2","1,0.5,0.5,0.5,1,0.5,0.5,0.5,1","",""
"","html-keyboard-response","203","140337","0.0-295.0","3RANCT1ZVG3SE0W1U2FRYG917NPUBU","A227W90ZO5I9RZ","3H6W48L9F4B5OEOMH57RM53Z4H1WP0","","null","<img src=""img/land4.png"" style=""width:200px; border:14px solid green;"">","null","","","","","","","",""
"","image-keyboard-response","204","140639","0.0-297.0","3RANCT1ZVG3SE0W1U2FRYG917NPUBU","A227W90ZO5I9RZ","3H6W48L9F4B5OEOMH57RM53Z4H1WP0","","299.80000001192093","img/land4.png","76","301.30000001192093","3","1","false","2","1,0.5,0.5,0.5,1,0.5,0.5,0.5,1","",""
"","html-keyboard-response","205","140947","0.0-298.0","3RANCT1ZVG3SE0W1U2FRYG917NPUBU","A227W90ZO5I9RZ","3H6W48L9F4B5OEOMH57RM53Z4H1WP0","","null","<img src=""img/land4.png"" style=""width:200px; border:14px solid green;"">","null","","","","","","","",""
"","image-keyboard-response","206","140981","0.0-300.0","3RANCT1ZVG3SE0W1U2FRYG917NPUBU","A227W90ZO5I9RZ","3H6W48L9F4B5OEOMH57RM53Z4H1WP0","","31.600000023841858","img/land1.png","76","33","3","1","false","3","1,0.5,0.5,0.5,1,0.5,0.5,0.5,1","",""
"","html-keyboard-response","207","141294","0.0-301.0","3RANCT1ZVG3SE0W1U2FRYG917NPUBU","A227W90ZO5I9RZ","3H6W48L9F4B5OEOMH57RM53Z4H1WP0","","null","<img src=""img/land1.png"" style=""width:200px; border:14px solid green;"">","null","","","","","","","",""
"","image-keyboard-response","208","141555","0.0-303.0","3RANCT1ZVG3SE0W1U2FRYG917NPUBU","A227W90ZO5I9RZ","3H6W48L9F4B5OEOMH57RM53Z4H1WP0","","258.89999997615814","img/land4.png","76","260.19999998807907","3","1","false","2","1,0.5,0.5,0.5,1,0.5,0.5,0.5,1","",""
"","html-keyboard-response","209","141865","0.0-304.0","3RANCT1ZVG3SE0W1U2FRYG917NPUBU","A227W90ZO5I9RZ","3H6W48L9F4B5OEOMH57RM53Z4H1WP0","","null","<img src=""img/land4.png"" style=""width:200px; border:14px solid green;"">","null","","","","","","","",""
"","image-keyboard-response","210","141885","0.0-306.0","3RANCT1ZVG3SE0W1U2FRYG917NPUBU","A227W90ZO5I9RZ","3H6W48L9F4B5OEOMH57RM53Z4H1WP0","","18.30000001192093","img/land6.png","76","19.5","3","1","false","1","1,0.5,0.5,0.5,1,0.5,0.5,0.5,1","",""
"","html-keyboard-response","211","142188","0.0-307.0","3RANCT1ZVG3SE0W1U2FRYG917NPUBU","A227W90ZO5I9RZ","3H6W48L9F4B5OEOMH57RM53Z4H1WP0","","null","<img src=""img/land6.png"" style=""width:200px; border:14px solid green;"">","null","","","","","","","",""
"","image-keyboard-response","212","142445","0.0-309.0","3RANCT1ZVG3SE0W1U2FRYG917NPUBU","A227W90ZO5I9RZ","3H6W48L9F4B5OEOMH57RM53Z4H1WP0","","255","img/land6.png","76","256.30000001192093","3","1","false","1","1,0.5,0.5,0.5,1,0.5,0.5,0.5,1","",""
"","html-keyboard-response","213","142751","0.0-310.0","3RANCT1ZVG3SE0W1U2FRYG917NPUBU","A227W90ZO5I9RZ","3H6W48L9F4B5OEOMH57RM53Z4H1WP0","","null","<img src=""img/land6.png"" style=""width:200px; border:14px solid green;"">","null","","","","","","","",""
"","image-keyboard-response","214","142760","0.0-312.0","3RANCT1ZVG3SE0W1U2FRYG917NPUBU","A227W90ZO5I9RZ","3H6W48L9F4B5OEOMH57RM53Z4H1WP0","","6.600000023841858","img/land1.png","76","8.099999964237213","3","1","false","3","1,0.5,0.5,0.5,1,0.5,0.5,0.5,1","",""
"","html-keyboard-response","215","143076","0.0-313.0","3RANCT1ZVG3SE0W1U2FRYG917NPUBU","A227W90ZO5I9RZ","3H6W48L9F4B5OEOMH57RM53Z4H1WP0","","null","<img src=""img/land1.png"" style=""width:200px; border:14px solid green;"">","null","","","","","","","",""
"","image-keyboard-response","216","143544","0.0-315.0","3RANCT1ZVG3SE0W1U2FRYG917NPUBU","A227W90ZO5I9RZ","3H6W48L9F4B5OEOMH57RM53Z4H1WP0","","465.2999999523163","img/land1.png","76","467","3","1","false","3","1,0.5,0.5,0.5,1,0.5,0.5,0.5,1","",""
"","html-keyboard-response","217","143852","0.0-316.0","3RANCT1ZVG3SE0W1U2FRYG917NPUBU","A227W90ZO5I9RZ","3H6W48L9F4B5OEOMH57RM53Z4H1WP0","","null","<img src=""img/land1.png"" style=""width:200px; border:14px solid green;"">","null","","","","","","","",""
"","image-keyboard-response","218","144093","0.0-318.0","3RANCT1ZVG3SE0W1U2FRYG917NPUBU","A227W90ZO5I9RZ","3H6W48L9F4B5OEOMH57RM53Z4H1WP0","","239","img/land6.png","76","240.39999997615814","3","0","false","1","1,0.5,0.5,0.5,1,0.5,0.5,0.5,1","",""
"","html-keyboard-response","219","144401","0.0-319.0","3RANCT1ZVG3SE0W1U2FRYG917NPUBU","A227W90ZO5I9RZ","3H6W48L9F4B5OEOMH57RM53Z4H1WP0","","null","<img src=""img/land6.png"" style=""width:200px;border:14px solid red;"">","null","","","","","","","",""
"","image-keyboard-response","220","144747","0.0-321.0","3RANCT1ZVG3SE0W1U2FRYG917NPUBU","A227W90ZO5I9RZ","3H6W48L9F4B5OEOMH57RM53Z4H1WP0","","343.30000001192093","img/land1.png","76","344.9000000357628","3","1","false","3","1,0.5,0.5,0.5,1,0.5,0.5,0.5,1","",""
"","html-keyboard-response","221","145056","0.0-322.0","3RANCT1ZVG3SE0W1U2FRYG917NPUBU","A227W90ZO5I9RZ","3H6W48L9F4B5OEOMH57RM53Z4H1WP0","","null","<img src=""img/land1.png"" style=""width:200px; border:14px solid green;"">","null","","","","","","","",""
"","image-keyboard-response","222","145084","0.0-324.0","3RANCT1ZVG3SE0W1U2FRYG917NPUBU","A227W90ZO5I9RZ","3H6W48L9F4B5OEOMH57RM53Z4H1WP0","","25.80000001192093","img/land6.png","76","27.30000001192093","3","0","false","1","1,0.5,0.5,0.5,1,0.5,0.5,0.5,1","",""
"","html-keyboard-response","223","145387","0.0-325.0","3RANCT1ZVG3SE0W1U2FRYG917NPUBU","A227W90ZO5I9RZ","3H6W48L9F4B5OEOMH57RM53Z4H1WP0","","null","<img src=""img/land6.png"" style=""width:200px;border:14px solid red;"">","null","","","","","","","",""
"","image-keyboard-response","224","145597","0.0-327.0","3RANCT1ZVG3SE0W1U2FRYG917NPUBU","A227W90ZO5I9RZ","3H6W48L9F4B5OEOMH57RM53Z4H1WP0","","208.9000000357628","img/land4.png","76","210.19999998807907","3","1","false","2","1,0.5,0.5,0.5,1,0.5,0.5,0.5,1","",""
"","html-keyboard-response","225","145900","0.0-328.0","3RANCT1ZVG3SE0W1U2FRYG917NPUBU","A227W90ZO5I9RZ","3H6W48L9F4B5OEOMH57RM53Z4H1WP0","","null","<img src=""img/land4.png"" style=""width:200px; border:14px solid green;"">","null","","","","","","","",""
"","image-keyboard-response","226","146225","0.0-330.0","3RANCT1ZVG3SE0W1U2FRYG917NPUBU","A227W90ZO5I9RZ","3H6W48L9F4B5OEOMH57RM53Z4H1WP0","","322.7999999523163","img/land6.png","76","324.4000000357628","3","0","false","1","1,0.5,0.5,0.5,1,0.5,0.5,0.5,1","",""
"","html-keyboard-response","227","146526","0.0-331.0","3RANCT1ZVG3SE0W1U2FRYG917NPUBU","A227W90ZO5I9RZ","3H6W48L9F4B5OEOMH57RM53Z4H1WP0","","null","<img src=""img/land6.png"" style=""width:200px;border:14px solid red;"">","null","","","","","","","",""
"","image-keyboard-response","228","146701","0.0-333.0","3RANCT1ZVG3SE0W1U2FRYG917NPUBU","A227W90ZO5I9RZ","3H6W48L9F4B5OEOMH57RM53Z4H1WP0","","172.70000004768372","img/land6.png","76","174.69999998807907","3","1","false","1","1,0.5,0.5,0.5,1,0.5,0.5,0.5,1","",""
"","html-keyboard-response","229","147011","0.0-334.0","3RANCT1ZVG3SE0W1U2FRYG917NPUBU","A227W90ZO5I9RZ","3H6W48L9F4B5OEOMH57RM53Z4H1WP0","","null","<img src=""img/land6.png"" style=""width:200px; border:14px solid green;"">","null","","","","","","","",""
"","image-keyboard-response","230","147034","0.0-336.0","3RANCT1ZVG3SE0W1U2FRYG917NPUBU","A227W90ZO5I9RZ","3H6W48L9F4B5OEOMH57RM53Z4H1WP0","","21.600000023841858","img/land4.png","76","23","3","1","false","2","1,0.5,0.5,0.5,1,0.5,0.5,0.5,1","",""
"","html-keyboard-response","231","147339","0.0-337.0","3RANCT1ZVG3SE0W1U2FRYG917NPUBU","A227W90ZO5I9RZ","3H6W48L9F4B5OEOMH57RM53Z4H1WP0","","null","<img src=""img/land4.png"" style=""width:200px; border:14px solid green;"">","null","","","","","","","",""
"","image-keyboard-response","232","147680","0.0-339.0","3RANCT1ZVG3SE0W1U2FRYG917NPUBU","A227W90ZO5I9RZ","3H6W48L9F4B5OEOMH57RM53Z4H1WP0","","338.5999999642372","img/land4.png","75","339.7999999523163","2","1","false","2","1,0.5,0.5,0.5,1,0.5,0.5,0.5,1","",""
"","html-keyboard-response","233","147983","0.0-340.0","3RANCT1ZVG3SE0W1U2FRYG917NPUBU","A227W90ZO5I9RZ","3H6W48L9F4B5OEOMH57RM53Z4H1WP0","","null","<img src=""img/land4.png"" style=""width:200px; border:14px solid green;"">","null","","","","","","","",""
"","image-keyboard-response","234","147995","0.0-342.0","3RANCT1ZVG3SE0W1U2FRYG917NPUBU","A227W90ZO5I9RZ","3H6W48L9F4B5OEOMH57RM53Z4H1WP0","","10.5","img/land6.png","75","11.800000011920929","2","0","false","1","1,0.5,0.5,0.5,1,0.5,0.5,0.5,1","",""
"","html-keyboard-response","235","148309","0.0-343.0","3RANCT1ZVG3SE0W1U2FRYG917NPUBU","A227W90ZO5I9RZ","3H6W48L9F4B5OEOMH57RM53Z4H1WP0","","null","<img src=""img/land6.png"" style=""width:200px;border:14px solid red;"">","null","","","","","","","",""
"","image-keyboard-response","236","148327","0.0-345.0","3RANCT1ZVG3SE0W1U2FRYG917NPUBU","A227W90ZO5I9RZ","3H6W48L9F4B5OEOMH57RM53Z4H1WP0","","17","img/land4.png","76","18.19999998807907","3","1","false","2","1,0.5,0.5,0.5,1,0.5,0.5,0.5,1","",""
"","html-keyboard-response","237","148633","0.0-346.0","3RANCT1ZVG3SE0W1U2FRYG917NPUBU","A227W90ZO5I9RZ","3H6W48L9F4B5OEOMH57RM53Z4H1WP0","","null","<img src=""img/land4.png"" style=""width:200px; border:14px solid green;"">","null","","","","","","","",""
"","image-keyboard-response","238","148651","0.0-348.0","3RANCT1ZVG3SE0W1U2FRYG917NPUBU","A227W90ZO5I9RZ","3H6W48L9F4B5OEOMH57RM53Z4H1WP0","","16.5","img/land1.png","76","17.700000047683716","3","1","false","3","1,0.5,0.5,0.5,1,0.5,0.5,0.5,1","",""
"","html-keyboard-response","239","148957","0.0-349.0","3RANCT1ZVG3SE0W1U2FRYG917NPUBU","A227W90ZO5I9RZ","3H6W48L9F4B5OEOMH57RM53Z4H1WP0","","null","<img src=""img/land1.png"" style=""width:200px; border:14px solid green;"">","null","","","","","","","",""
"","image-keyboard-response","240","149200","0.0-351.0","3RANCT1ZVG3SE0W1U2FRYG917NPUBU","A227W90ZO5I9RZ","3H6W48L9F4B5OEOMH57RM53Z4H1WP0","","240.9000000357628","img/land1.png","76","242.30000001192093","3","1","false","3","1,0.5,0.5,0.5,1,0.5,0.5,0.5,1","",""
"","html-keyboard-response","241","149509","0.0-352.0","3RANCT1ZVG3SE0W1U2FRYG917NPUBU","A227W90ZO5I9RZ","3H6W48L9F4B5OEOMH57RM53Z4H1WP0","","null","<img src=""img/land1.png"" style=""width:200px; border:14px solid green;"">","null","","","","","","","",""
"","image-keyboard-response","242","150035","0.0-354.0","3RANCT1ZVG3SE0W1U2FRYG917NPUBU","A227W90ZO5I9RZ","3H6W48L9F4B5OEOMH57RM53Z4H1WP0","","524.1999999880791","img/land4.png","76","525.5999999642372","3","0","false","2","1,0.5,0.5,0.5,1,0.5,0.5,0.5,1","",""
"","html-keyboard-response","243","150344","0.0-355.0","3RANCT1ZVG3SE0W1U2FRYG917NPUBU","A227W90ZO5I9RZ","3H6W48L9F4B5OEOMH57RM53Z4H1WP0","","null","<img src=""img/land4.png"" style=""width:200px;border:14px solid red;"">","null","","","","","","","",""
"","image-keyboard-response","244","150350","0.0-357.0","3RANCT1ZVG3SE0W1U2FRYG917NPUBU","A227W90ZO5I9RZ","3H6W48L9F4B5OEOMH57RM53Z4H1WP0","","2.399999976158142","img/land6.png","76","5.599999964237213","3","1","false","1","1,0.5,0.5,0.5,1,0.5,0.5,0.5,1","",""
"","html-keyboard-response","245","150659","0.0-358.0","3RANCT1ZVG3SE0W1U2FRYG917NPUBU","A227W90ZO5I9RZ","3H6W48L9F4B5OEOMH57RM53Z4H1WP0","","null","<img src=""img/land6.png"" style=""width:200px; border:14px solid green;"">","null","","","","","","","",""
"","image-keyboard-response","246","150702","0.0-360.0","3RANCT1ZVG3SE0W1U2FRYG917NPUBU","A227W90ZO5I9RZ","3H6W48L9F4B5OEOMH57RM53Z4H1WP0","","39.69999998807907","img/land4.png","76","41","3","1","false","2","1,0.5,0.5,0.5,1,0.5,0.5,0.5,1","",""
"","html-keyboard-response","247","151011","0.0-361.0","3RANCT1ZVG3SE0W1U2FRYG917NPUBU","A227W90ZO5I9RZ","3H6W48L9F4B5OEOMH57RM53Z4H1WP0","","null","<img src=""img/land4.png"" style=""width:200px; border:14px solid green;"">","null","","","","","","","",""
"","image-keyboard-response","248","151033","0.0-363.0","3RANCT1ZVG3SE0W1U2FRYG917NPUBU","A227W90ZO5I9RZ","3H6W48L9F4B5OEOMH57RM53Z4H1WP0","","20.400000035762787","img/land1.png","76","22","3","1","false","3","1,0.5,0.5,0.5,1,0.5,0.5,0.5,1","",""
"","html-keyboard-response","249","151335","0.0-364.0","3RANCT1ZVG3SE0W1U2FRYG917NPUBU","A227W90ZO5I9RZ","3H6W48L9F4B5OEOMH57RM53Z4H1WP0","","null","<img src=""img/land1.png"" style=""width:200px; border:14px solid green;"">","null","","","","","","","",""
"","image-keyboard-response","250","151358","0.0-366.0","3RANCT1ZVG3SE0W1U2FRYG917NPUBU","A227W90ZO5I9RZ","3H6W48L9F4B5OEOMH57RM53Z4H1WP0","","20.600000023841858","img/land4.png","76","21.899999976158142","3","1","false","2","1,0.5,0.5,0.5,1,0.5,0.5,0.5,1","",""
"","html-keyboard-response","251","151667","0.0-367.0","3RANCT1ZVG3SE0W1U2FRYG917NPUBU","A227W90ZO5I9RZ","3H6W48L9F4B5OEOMH57RM53Z4H1WP0","","null","<img src=""img/land4.png"" style=""width:200px; border:14px solid green;"">","null","","","","","","","",""
"","image-keyboard-response","252","151960","0.0-369.0","3RANCT1ZVG3SE0W1U2FRYG917NPUBU","A227W90ZO5I9RZ","3H6W48L9F4B5OEOMH57RM53Z4H1WP0","","291.30000001192093","img/land4.png","76","292.89999997615814","3","1","false","2","1,0.5,0.5,0.5,1,0.5,0.5,0.5,1","",""
"","html-keyboard-response","253","152270","0.0-370.0","3RANCT1ZVG3SE0W1U2FRYG917NPUBU","A227W90ZO5I9RZ","3H6W48L9F4B5OEOMH57RM53Z4H1WP0","","null","<img src=""img/land4.png"" style=""width:200px; border:14px solid green;"">","null","","","","","","","",""
"","image-keyboard-response","254","152503","0.0-372.0","3RANCT1ZVG3SE0W1U2FRYG917NPUBU","A227W90ZO5I9RZ","3H6W48L9F4B5OEOMH57RM53Z4H1WP0","","230.70000004768372","img/land1.png","76","232.0999999642372","3","1","false","3","1,0.5,0.5,0.5,1,0.5,0.5,0.5,1","",""
"","html-keyboard-response","255","152806","0.0-373.0","3RANCT1ZVG3SE0W1U2FRYG917NPUBU","A227W90ZO5I9RZ","3H6W48L9F4B5OEOMH57RM53Z4H1WP0","","null","<img src=""img/land1.png"" style=""width:200px; border:14px solid green;"">","null","","","","","","","",""
"","image-keyboard-response","256","153132","0.0-375.0","3RANCT1ZVG3SE0W1U2FRYG917NPUBU","A227W90ZO5I9RZ","3H6W48L9F4B5OEOMH57RM53Z4H1WP0","","324.69999998807907","img/land6.png","76","326","3","0","false","1","1,0.5,0.5,0.5,1,0.5,0.5,0.5,1","",""
"","html-keyboard-response","257","153443","0.0-376.0","3RANCT1ZVG3SE0W1U2FRYG917NPUBU","A227W90ZO5I9RZ","3H6W48L9F4B5OEOMH57RM53Z4H1WP0","","null","<img src=""img/land6.png"" style=""width:200px;border:14px solid red;"">","null","","","","","","","",""
"","image-keyboard-response","258","153655","0.0-378.0","3RANCT1ZVG3SE0W1U2FRYG917NPUBU","A227W90ZO5I9RZ","3H6W48L9F4B5OEOMH57RM53Z4H1WP0","","209.80000001192093","img/land6.png","76","211.29999995231628","3","1","false","1","1,0.5,0.5,0.5,1,0.5,0.5,0.5,1","",""
"","html-keyboard-response","259","153961","0.0-379.0","3RANCT1ZVG3SE0W1U2FRYG917NPUBU","A227W90ZO5I9RZ","3H6W48L9F4B5OEOMH57RM53Z4H1WP0","","null","<img src=""img/land6.png"" style=""width:200px; border:14px solid green;"">","null","","","","","","","",""
"","image-keyboard-response","260","154180","0.0-381.0","3RANCT1ZVG3SE0W1U2FRYG917NPUBU","A227W90ZO5I9RZ","3H6W48L9F4B5OEOMH57RM53Z4H1WP0","","217.30000001192093","img/land6.png","76","218.60000002384186","3","1","false","1","1,0.5,0.5,0.5,1,0.5,0.5,0.5,1","",""
"","html-keyboard-response","261","154482","0.0-382.0","3RANCT1ZVG3SE0W1U2FRYG917NPUBU","A227W90ZO5I9RZ","3H6W48L9F4B5OEOMH57RM53Z4H1WP0","","null","<img src=""img/land6.png"" style=""width:200px; border:14px solid green;"">","null","","","","","","","",""
"","image-keyboard-response","262","154668","0.0-384.0","3RANCT1ZVG3SE0W1U2FRYG917NPUBU","A227W90ZO5I9RZ","3H6W48L9F4B5OEOMH57RM53Z4H1WP0","","183.79999995231628","img/land6.png","76","185.0999999642372","3","0","false","1","1,0.5,0.5,0.5,1,0.5,0.5,0.5,1","",""
"","html-keyboard-response","263","154974","0.0-385.0","3RANCT1ZVG3SE0W1U2FRYG917NPUBU","A227W90ZO5I9RZ","3H6W48L9F4B5OEOMH57RM53Z4H1WP0","","null","<img src=""img/land6.png"" style=""width:200px;border:14px solid red;"">","null","","","","","","","",""
"","image-keyboard-response","264","155259","0.0-387.0","3RANCT1ZVG3SE0W1U2FRYG917NPUBU","A227W90ZO5I9RZ","3H6W48L9F4B5OEOMH57RM53Z4H1WP0","","282.89999997615814","img/land1.png","76","284.39999997615814","3","1","false","3","1,0.5,0.5,0.5,1,0.5,0.5,0.5,1","",""
"","html-keyboard-response","265","155569","0.0-388.0","3RANCT1ZVG3SE0W1U2FRYG917NPUBU","A227W90ZO5I9RZ","3H6W48L9F4B5OEOMH57RM53Z4H1WP0","","null","<img src=""img/land1.png"" style=""width:200px; border:14px solid green;"">","null","","","","","","","",""
"","image-keyboard-response","266","155578","0.0-390.0","3RANCT1ZVG3SE0W1U2FRYG917NPUBU","A227W90ZO5I9RZ","3H6W48L9F4B5OEOMH57RM53Z4H1WP0","","6.799999952316284","img/land6.png","76","7.899999976158142","3","0","false","1","1,0.5,0.5,0.5,1,0.5,0.5,0.5,1","",""
"","html-keyboard-response","267","155888","0.0-391.0","3RANCT1ZVG3SE0W1U2FRYG917NPUBU","A227W90ZO5I9RZ","3H6W48L9F4B5OEOMH57RM53Z4H1WP0","","null","<img src=""img/land6.png"" style=""width:200px;border:14px solid red;"">","null","","","","","","","",""
"","image-keyboard-response","268","156178","0.0-393.0","3RANCT1ZVG3SE0W1U2FRYG917NPUBU","A227W90ZO5I9RZ","3H6W48L9F4B5OEOMH57RM53Z4H1WP0","","287.5999999642372","img/land4.png","76","288.89999997615814","3","1","false","2","1,0.5,0.5,0.5,1,0.5,0.5,0.5,1","",""
"","html-keyboard-response","269","156488","0.0-394.0","3RANCT1ZVG3SE0W1U2FRYG917NPUBU","A227W90ZO5I9RZ","3H6W48L9F4B5OEOMH57RM53Z4H1WP0","","null","<img src=""img/land4.png"" style=""width:200px; border:14px solid green;"">","null","","","","","","","",""
"","image-keyboard-response","270","156675","0.0-396.0","3RANCT1ZVG3SE0W1U2FRYG917NPUBU","A227W90ZO5I9RZ","3H6W48L9F4B5OEOMH57RM53Z4H1WP0","","185.80000001192093","img/land6.png","76","187.19999998807907","3","1","false","1","1,0.5,0.5,0.5,1,0.5,0.5,0.5,1","",""
"","html-keyboard-response","271","156979","0.0-397.0","3RANCT1ZVG3SE0W1U2FRYG917NPUBU","A227W90ZO5I9RZ","3H6W48L9F4B5OEOMH57RM53Z4H1WP0","","null","<img src=""img/land6.png"" style=""width:200px; border:14px solid green;"">","null","","","","","","","",""
"","image-keyboard-response","272","157190","0.0-399.0","3RANCT1ZVG3SE0W1U2FRYG917NPUBU","A227W90ZO5I9RZ","3H6W48L9F4B5OEOMH57RM53Z4H1WP0","","210.30000001192093","img/land1.png","76","211.5","3","1","false","3","1,0.5,0.5,0.5,1,0.5,0.5,0.5,1","",""
"","html-keyboard-response","273","157499","0.0-400.0","3RANCT1ZVG3SE0W1U2FRYG917NPUBU","A227W90ZO5I9RZ","3H6W48L9F4B5OEOMH57RM53Z4H1WP0","","null","<img src=""img/land1.png"" style=""width:200px; border:14px solid green;"">","null","","","","","","","",""
"","image-keyboard-response","274","157691","0.0-402.0","3RANCT1ZVG3SE0W1U2FRYG917NPUBU","A227W90ZO5I9RZ","3H6W48L9F4B5OEOMH57RM53Z4H1WP0","","190.69999998807907","img/land4.png","76","192.0999999642372","3","1","false","2","1,0.5,0.5,0.5,1,0.5,0.5,0.5,1","",""
"","html-keyboard-response","275","157999","0.0-403.0","3RANCT1ZVG3SE0W1U2FRYG917NPUBU","A227W90ZO5I9RZ","3H6W48L9F4B5OEOMH57RM53Z4H1WP0","","null","<img src=""img/land4.png"" style=""width:200px; border:14px solid green;"">","null","","","","","","","",""
"","image-keyboard-response","276","158235","0.0-405.0","3RANCT1ZVG3SE0W1U2FRYG917NPUBU","A227W90ZO5I9RZ","3H6W48L9F4B5OEOMH57RM53Z4H1WP0","","233.5999999642372","img/land6.png","76","235","3","1","false","1","1,0.5,0.5,0.5,1,0.5,0.5,0.5,1","",""
"","html-keyboard-response","277","158545","0.0-406.0","3RANCT1ZVG3SE0W1U2FRYG917NPUBU","A227W90ZO5I9RZ","3H6W48L9F4B5OEOMH57RM53Z4H1WP0","","null","<img src=""img/land6.png"" style=""width:200px; border:14px solid green;"">","null","","","","","","","",""
"","image-keyboard-response","278","158728","0.0-408.0","3RANCT1ZVG3SE0W1U2FRYG917NPUBU","A227W90ZO5I9RZ","3H6W48L9F4B5OEOMH57RM53Z4H1WP0","","181.5999999642372","img/land6.png","76","182.9000000357628","3","0","false","1","1,0.5,0.5,0.5,1,0.5,0.5,0.5,1","",""
"","html-keyboard-response","279","159033","0.0-409.0","3RANCT1ZVG3SE0W1U2FRYG917NPUBU","A227W90ZO5I9RZ","3H6W48L9F4B5OEOMH57RM53Z4H1WP0","","null","<img src=""img/land6.png"" style=""width:200px;border:14px solid red;"">","null","","","","","","","",""
"","image-keyboard-response","280","159228","0.0-411.0","3RANCT1ZVG3SE0W1U2FRYG917NPUBU","A227W90ZO5I9RZ","3H6W48L9F4B5OEOMH57RM53Z4H1WP0","","193.10000002384186","img/land1.png","76","194.60000002384186","3","1","false","3","1,0.5,0.5,0.5,1,0.5,0.5,0.5,1","",""
"","html-keyboard-response","281","159532","0.0-412.0","3RANCT1ZVG3SE0W1U2FRYG917NPUBU","A227W90ZO5I9RZ","3H6W48L9F4B5OEOMH57RM53Z4H1WP0","","null","<img src=""img/land1.png"" style=""width:200px; border:14px solid green;"">","null","","","","","","","",""
"","image-keyboard-response","282","159747","0.0-414.0","3RANCT1ZVG3SE0W1U2FRYG917NPUBU","A227W90ZO5I9RZ","3H6W48L9F4B5OEOMH57RM53Z4H1WP0","","212.60000002384186","img/land1.png","76","214.10000002384186","3","1","false","3","1,0.5,0.5,0.5,1,0.5,0.5,0.5,1","",""
"","html-keyboard-response","283","160054","0.0-415.0","3RANCT1ZVG3SE0W1U2FRYG917NPUBU","A227W90ZO5I9RZ","3H6W48L9F4B5OEOMH57RM53Z4H1WP0","","null","<img src=""img/land1.png"" style=""width:200px; border:14px solid green;"">","null","","","","","","","",""
"","image-keyboard-response","284","160215","0.0-417.0","3RANCT1ZVG3SE0W1U2FRYG917NPUBU","A227W90ZO5I9RZ","3H6W48L9F4B5OEOMH57RM53Z4H1WP0","","159.19999998807907","img/land6.png","76","160.5999999642372","3","0","false","1","1,0.5,0.5,0.5,1,0.5,0.5,0.5,1","",""
"","html-keyboard-response","285","160519","0.0-418.0","3RANCT1ZVG3SE0W1U2FRYG917NPUBU","A227W90ZO5I9RZ","3H6W48L9F4B5OEOMH57RM53Z4H1WP0","","null","<img src=""img/land6.png"" style=""width:200px;border:14px solid red;"">","null","","","","","","","",""
"","image-keyboard-response","286","160746","0.0-420.0","3RANCT1ZVG3SE0W1U2FRYG917NPUBU","A227W90ZO5I9RZ","3H6W48L9F4B5OEOMH57RM53Z4H1WP0","","225.0999999642372","img/land4.png","76","226.5","3","1","false","2","1,0.5,0.5,0.5,1,0.5,0.5,0.5,1","",""
"","html-keyboard-response","287","161048","0.0-421.0","3RANCT1ZVG3SE0W1U2FRYG917NPUBU","A227W90ZO5I9RZ","3H6W48L9F4B5OEOMH57RM53Z4H1WP0","","null","<img src=""img/land4.png"" style=""width:200px; border:14px solid green;"">","null","","","","","","","",""
"","image-keyboard-response","288","161103","0.0-423.0","3RANCT1ZVG3SE0W1U2FRYG917NPUBU","A227W90ZO5I9RZ","3H6W48L9F4B5OEOMH57RM53Z4H1WP0","","52.30000001192093","img/land6.png","76","53.69999998807907","3","0","false","1","1,0.5,0.5,0.5,1,0.5,0.5,0.5,1","",""
"","html-keyboard-response","289","161406","0.0-424.0","3RANCT1ZVG3SE0W1U2FRYG917NPUBU","A227W90ZO5I9RZ","3H6W48L9F4B5OEOMH57RM53Z4H1WP0","","null","<img src=""img/land6.png"" style=""width:200px;border:14px solid red;"">","null","","","","","","","",""
"","image-keyboard-response","290","161640","0.0-426.0","3RANCT1ZVG3SE0W1U2FRYG917NPUBU","A227W90ZO5I9RZ","3H6W48L9F4B5OEOMH57RM53Z4H1WP0","","232.39999997615814","img/land1.png","76","234","3","1","false","3","1,0.5,0.5,0.5,1,0.5,0.5,0.5,1","",""
"","html-keyboard-response","291","161943","0.0-427.0","3RANCT1ZVG3SE0W1U2FRYG917NPUBU","A227W90ZO5I9RZ","3H6W48L9F4B5OEOMH57RM53Z4H1WP0","","null","<img src=""img/land1.png"" style=""width:200px; border:14px solid green;"">","null","","","","","","","",""
"","image-keyboard-response","292","162111","0.0-429.0","3RANCT1ZVG3SE0W1U2FRYG917NPUBU","A227W90ZO5I9RZ","3H6W48L9F4B5OEOMH57RM53Z4H1WP0","","166.69999998807907","img/land1.png","76","168.10000002384186","3","1","false","3","1,0.5,0.5,0.5,1,0.5,0.5,0.5,1","",""
"","html-keyboard-response","293","162418","0.0-430.0","3RANCT1ZVG3SE0W1U2FRYG917NPUBU","A227W90ZO5I9RZ","3H6W48L9F4B5OEOMH57RM53Z4H1WP0","","null","<img src=""img/land1.png"" style=""width:200px; border:14px solid green;"">","null","","","","","","","",""
"","image-keyboard-response","294","162629","0.0-432.0","3RANCT1ZVG3SE0W1U2FRYG917NPUBU","A227W90ZO5I9RZ","3H6W48L9F4B5OEOMH57RM53Z4H1WP0","","209.39999997615814","img/land1.png","76","210.69999998807907","3","1","false","3","1,0.5,0.5,0.5,1,0.5,0.5,0.5,1","",""
"","html-keyboard-response","295","162936","0.0-433.0","3RANCT1ZVG3SE0W1U2FRYG917NPUBU","A227W90ZO5I9RZ","3H6W48L9F4B5OEOMH57RM53Z4H1WP0","","null","<img src=""img/land1.png"" style=""width:200px; border:14px solid green;"">","null","","","","","","","",""
"","image-keyboard-response","296","163160","0.0-435.0","3RANCT1ZVG3SE0W1U2FRYG917NPUBU","A227W90ZO5I9RZ","3H6W48L9F4B5OEOMH57RM53Z4H1WP0","","223","img/land1.png","76","224.5","3","1","false","3","1,0.5,0.5,0.5,1,0.5,0.5,0.5,1","",""
"","html-keyboard-response","297","163468","0.0-436.0","3RANCT1ZVG3SE0W1U2FRYG917NPUBU","A227W90ZO5I9RZ","3H6W48L9F4B5OEOMH57RM53Z4H1WP0","","null","<img src=""img/land1.png"" style=""width:200px; border:14px solid green;"">","null","","","","","","","",""
"","image-keyboard-response","298","163744","0.0-438.0","3RANCT1ZVG3SE0W1U2FRYG917NPUBU","A227W90ZO5I9RZ","3H6W48L9F4B5OEOMH57RM53Z4H1WP0","","273.30000001192093","img/land6.png","76","274.7999999523163","3","1","false","1","1,0.5,0.5,0.5,1,0.5,0.5,0.5,1","",""
"","html-keyboard-response","299","164053","0.0-439.0","3RANCT1ZVG3SE0W1U2FRYG917NPUBU","A227W90ZO5I9RZ","3H6W48L9F4B5OEOMH57RM53Z4H1WP0","","null","<img src=""img/land6.png"" style=""width:200px; border:14px solid green;"">","null","","","","","","","",""
"","image-keyboard-response","300","164212","0.0-441.0","3RANCT1ZVG3SE0W1U2FRYG917NPUBU","A227W90ZO5I9RZ","3H6W48L9F4B5OEOMH57RM53Z4H1WP0","","157.5","img/land1.png","75","158.9000000357628","2","0","false","3","1,0.5,0.5,0.5,1,0.5,0.5,0.5,1","",""
"","html-keyboard-response","301","164518","0.0-442.0","3RANCT1ZVG3SE0W1U2FRYG917NPUBU","A227W90ZO5I9RZ","3H6W48L9F4B5OEOMH57RM53Z4H1WP0","","null","<img src=""img/land1.png"" style=""width:200px;border:14px solid red;"">","null","","","","","","","",""
"","image-keyboard-response","302","164823","0.0-444.0","3RANCT1ZVG3SE0W1U2FRYG917NPUBU","A227W90ZO5I9RZ","3H6W48L9F4B5OEOMH57RM53Z4H1WP0","","303.39999997615814","img/land4.png","75","304.80000001192093","2","1","false","2","1,0.5,0.5,0.5,1,0.5,0.5,0.5,1","",""
"","html-keyboard-response","303","165129","0.0-445.0","3RANCT1ZVG3SE0W1U2FRYG917NPUBU","A227W90ZO5I9RZ","3H6W48L9F4B5OEOMH57RM53Z4H1WP0","","null","<img src=""img/land4.png"" style=""width:200px; border:14px solid green;"">","null","","","","","","","",""
"","image-keyboard-response","304","165538","0.0-447.0","3RANCT1ZVG3SE0W1U2FRYG917NPUBU","A227W90ZO5I9RZ","3H6W48L9F4B5OEOMH57RM53Z4H1WP0","","407","img/land4.png","75","408.5","2","1","false","2","1,0.5,0.5,0.5,1,0.5,0.5,0.5,1","",""
"","html-keyboard-response","305","165845","0.0-448.0","3RANCT1ZVG3SE0W1U2FRYG917NPUBU","A227W90ZO5I9RZ","3H6W48L9F4B5OEOMH57RM53Z4H1WP0","","null","<img src=""img/land4.png"" style=""width:200px; border:14px solid green;"">","null","","","","","","","",""
"","image-keyboard-response","306","166101","0.0-450.0","3RANCT1ZVG3SE0W1U2FRYG917NPUBU","A227W90ZO5I9RZ","3H6W48L9F4B5OEOMH57RM53Z4H1WP0","","253.9000000357628","img/land6.png","75","255.70000004768372","2","0","false","1","1,0.5,0.5,0.5,1,0.5,0.5,0.5,1","",""
"","html-keyboard-response","307","166408","0.0-451.0","3RANCT1ZVG3SE0W1U2FRYG917NPUBU","A227W90ZO5I9RZ","3H6W48L9F4B5OEOMH57RM53Z4H1WP0","","null","<img src=""img/land6.png"" style=""width:200px;border:14px solid red;"">","null","","","","","","","",""
"","image-keyboard-response","308","166589","0.0-453.0","3RANCT1ZVG3SE0W1U2FRYG917NPUBU","A227W90ZO5I9RZ","3H6W48L9F4B5OEOMH57RM53Z4H1WP0","","178.80000001192093","img/land6.png","76","180.19999998807907","3","1","false","1","1,0.5,0.5,0.5,1,0.5,0.5,0.5,1","",""
"","html-keyboard-response","309","166894","0.0-454.0","3RANCT1ZVG3SE0W1U2FRYG917NPUBU","A227W90ZO5I9RZ","3H6W48L9F4B5OEOMH57RM53Z4H1WP0","","null","<img src=""img/land6.png"" style=""width:200px; border:14px solid green;"">","null","","","","","","","",""
"","image-keyboard-response","310","167165","0.0-456.0","3RANCT1ZVG3SE0W1U2FRYG917NPUBU","A227W90ZO5I9RZ","3H6W48L9F4B5OEOMH57RM53Z4H1WP0","","269.2999999523163","img/land1.png","76","270.80000001192093","3","1","false","3","1,0.5,0.5,0.5,1,0.5,0.5,0.5,1","",""
"","html-keyboard-response","311","167468","0.0-457.0","3RANCT1ZVG3SE0W1U2FRYG917NPUBU","A227W90ZO5I9RZ","3H6W48L9F4B5OEOMH57RM53Z4H1WP0","","null","<img src=""img/land1.png"" style=""width:200px; border:14px solid green;"">","null","","","","","","","",""
"","image-keyboard-response","312","167753","0.0-459.0","3RANCT1ZVG3SE0W1U2FRYG917NPUBU","A227W90ZO5I9RZ","3H6W48L9F4B5OEOMH57RM53Z4H1WP0","","282.69999998807907","img/land4.png","76","284.60000002384186","3","0","false","2","1,0.5,0.5,0.5,1,0.5,0.5,0.5,1","",""
"","html-keyboard-response","313","168059","0.0-460.0","3RANCT1ZVG3SE0W1U2FRYG917NPUBU","A227W90ZO5I9RZ","3H6W48L9F4B5OEOMH57RM53Z4H1WP0","","null","<img src=""img/land4.png"" style=""width:200px;border:14px solid red;"">","null","","","","","","","",""
"","image-keyboard-response","314","168316","0.0-462.0","3RANCT1ZVG3SE0W1U2FRYG917NPUBU","A227W90ZO5I9RZ","3H6W48L9F4B5OEOMH57RM53Z4H1WP0","","255.39999997615814","img/land4.png","76","256.9000000357628","3","1","false","2","1,0.5,0.5,0.5,1,0.5,0.5,0.5,1","",""
"","html-keyboard-response","315","168626","0.0-463.0","3RANCT1ZVG3SE0W1U2FRYG917NPUBU","A227W90ZO5I9RZ","3H6W48L9F4B5OEOMH57RM53Z4H1WP0","","null","<img src=""img/land4.png"" style=""width:200px; border:14px solid green;"">","null","","","","","","","",""
"","image-keyboard-response","316","168885","0.0-465.0","3RANCT1ZVG3SE0W1U2FRYG917NPUBU","A227W90ZO5I9RZ","3H6W48L9F4B5OEOMH57RM53Z4H1WP0","","257.69999998807907","img/land6.png","76","259.19999998807907","3","0","false","1","1,0.5,0.5,0.5,1,0.5,0.5,0.5,1","",""
"","html-keyboard-response","317","169195","0.0-466.0","3RANCT1ZVG3SE0W1U2FRYG917NPUBU","A227W90ZO5I9RZ","3H6W48L9F4B5OEOMH57RM53Z4H1WP0","","null","<img src=""img/land6.png"" style=""width:200px;border:14px solid red;"">","null","","","","","","","",""
"","image-keyboard-response","318","169256","0.0-468.0","3RANCT1ZVG3SE0W1U2FRYG917NPUBU","A227W90ZO5I9RZ","3H6W48L9F4B5OEOMH57RM53Z4H1WP0","","58.799999952316284","img/land4.png","76","60.10000002384186","3","1","false","2","1,0.5,0.5,0.5,1,0.5,0.5,0.5,1","",""
"","html-keyboard-response","319","169562","0.0-469.0","3RANCT1ZVG3SE0W1U2FRYG917NPUBU","A227W90ZO5I9RZ","3H6W48L9F4B5OEOMH57RM53Z4H1WP0","","null","<img src=""img/land4.png"" style=""width:200px; border:14px solid green;"">","null","","","","","","","",""
"","image-keyboard-response","320","169849","0.0-471.0","3RANCT1ZVG3SE0W1U2FRYG917NPUBU","A227W90ZO5I9RZ","3H6W48L9F4B5OEOMH57RM53Z4H1WP0","","286.10000002384186","img/land6.png","75","287.5","2","0","false","1","1,0.5,0.5,0.5,1,0.5,0.5,0.5,1","",""
"","html-keyboard-response","321","170158","0.0-472.0","3RANCT1ZVG3SE0W1U2FRYG917NPUBU","A227W90ZO5I9RZ","3H6W48L9F4B5OEOMH57RM53Z4H1WP0","","null","<img src=""img/land6.png"" style=""width:200px;border:14px solid red;"">","null","","","","","","","",""
"","image-keyboard-response","322","170877","0.0-474.0","3RANCT1ZVG3SE0W1U2FRYG917NPUBU","A227W90ZO5I9RZ","3H6W48L9F4B5OEOMH57RM53Z4H1WP0","","716.5","img/land6.png","74","718.1999999880791","1","1","false","1","1,0.5,0.5,0.5,1,0.5,0.5,0.5,1","",""
"","html-keyboard-response","323","171186","0.0-475.0","3RANCT1ZVG3SE0W1U2FRYG917NPUBU","A227W90ZO5I9RZ","3H6W48L9F4B5OEOMH57RM53Z4H1WP0","","null","<img src=""img/land6.png"" style=""width:200px; border:14px solid green;"">","null","","","","","","","",""
"","image-keyboard-response","324","171487","0.0-477.0","3RANCT1ZVG3SE0W1U2FRYG917NPUBU","A227W90ZO5I9RZ","3H6W48L9F4B5OEOMH57RM53Z4H1WP0","","298.60000002384186","img/land1.png","74","300.30000001192093","1","1","false","3","1,0.5,0.5,0.5,1,0.5,0.5,0.5,1","",""
"","html-keyboard-response","325","171795","0.0-478.0","3RANCT1ZVG3SE0W1U2FRYG917NPUBU","A227W90ZO5I9RZ","3H6W48L9F4B5OEOMH57RM53Z4H1WP0","","null","<img src=""img/land1.png"" style=""width:200px; border:14px solid green;"">","null","","","","","","","",""
"","image-keyboard-response","326","172242","0.0-480.0","3RANCT1ZVG3SE0W1U2FRYG917NPUBU","A227W90ZO5I9RZ","3H6W48L9F4B5OEOMH57RM53Z4H1WP0","","444.89999997615814","img/land4.png","74","446.5999999642372","1","0","false","2","1,0.5,0.5,0.5,1,0.5,0.5,0.5,1","",""
"","html-keyboard-response","327","172548","0.0-481.0","3RANCT1ZVG3SE0W1U2FRYG917NPUBU","A227W90ZO5I9RZ","3H6W48L9F4B5OEOMH57RM53Z4H1WP0","","null","<img src=""img/land4.png"" style=""width:200px;border:14px solid red;"">","null","","","","","","","",""
"","image-keyboard-response","328","173030","0.0-483.0","3RANCT1ZVG3SE0W1U2FRYG917NPUBU","A227W90ZO5I9RZ","3H6W48L9F4B5OEOMH57RM53Z4H1WP0","","480.39999997615814","img/land1.png","75","481.7999999523163","2","0","false","3","1,0.5,0.5,0.5,1,0.5,0.5,0.5,1","",""
"","html-keyboard-response","329","173340","0.0-484.0","3RANCT1ZVG3SE0W1U2FRYG917NPUBU","A227W90ZO5I9RZ","3H6W48L9F4B5OEOMH57RM53Z4H1WP0","","null","<img src=""img/land1.png"" style=""width:200px;border:14px solid red;"">","null","","","","","","","",""
"","image-keyboard-response","330","173372","0.0-486.0","3RANCT1ZVG3SE0W1U2FRYG917NPUBU","A227W90ZO5I9RZ","3H6W48L9F4B5OEOMH57RM53Z4H1WP0","","29.19999998807907","img/land1.png","75","30.400000035762787","2","0","false","3","1,0.5,0.5,0.5,1,0.5,0.5,0.5,1","",""
"","html-keyboard-response","331","173674","0.0-487.0","3RANCT1ZVG3SE0W1U2FRYG917NPUBU","A227W90ZO5I9RZ","3H6W48L9F4B5OEOMH57RM53Z4H1WP0","","null","<img src=""img/land1.png"" style=""width:200px;border:14px solid red;"">","null","","","","","","","",""
"","image-keyboard-response","332","173796","0.0-489.0","3RANCT1ZVG3SE0W1U2FRYG917NPUBU","A227W90ZO5I9RZ","3H6W48L9F4B5OEOMH57RM53Z4H1WP0","","120.39999997615814","img/land4.png","76","121.90000003576279","3","1","false","2","1,0.5,0.5,0.5,1,0.5,0.5,0.5,1","",""
"","html-keyboard-response","333","174101","0.0-490.0","3RANCT1ZVG3SE0W1U2FRYG917NPUBU","A227W90ZO5I9RZ","3H6W48L9F4B5OEOMH57RM53Z4H1WP0","","null","<img src=""img/land4.png"" style=""width:200px; border:14px solid green;"">","null","","","","","","","",""
"","image-keyboard-response","334","174376","0.0-492.0","3RANCT1ZVG3SE0W1U2FRYG917NPUBU","A227W90ZO5I9RZ","3H6W48L9F4B5OEOMH57RM53Z4H1WP0","","273.69999998807907","img/land1.png","76","275","3","1","false","3","1,0.5,0.5,0.5,1,0.5,0.5,0.5,1","",""
"","html-keyboard-response","335","174684","0.0-493.0","3RANCT1ZVG3SE0W1U2FRYG917NPUBU","A227W90ZO5I9RZ","3H6W48L9F4B5OEOMH57RM53Z4H1WP0","","null","<img src=""img/land1.png"" style=""width:200px; border:14px solid green;"">","null","","","","","","","",""
"","image-keyboard-response","336","175174","0.0-495.0","3RANCT1ZVG3SE0W1U2FRYG917NPUBU","A227W90ZO5I9RZ","3H6W48L9F4B5OEOMH57RM53Z4H1WP0","","487.5999999642372","img/land1.png","76","489.19999998807907","3","1","false","3","1,0.5,0.5,0.5,1,0.5,0.5,0.5,1","",""
"","html-keyboard-response","337","175483","0.0-496.0","3RANCT1ZVG3SE0W1U2FRYG917NPUBU","A227W90ZO5I9RZ","3H6W48L9F4B5OEOMH57RM53Z4H1WP0","","null","<img src=""img/land1.png"" style=""width:200px; border:14px solid green;"">","null","","","","","","","",""
"","image-keyboard-response","338","175659","0.0-498.0","3RANCT1ZVG3SE0W1U2FRYG917NPUBU","A227W90ZO5I9RZ","3H6W48L9F4B5OEOMH57RM53Z4H1WP0","","174","img/land4.png","76","175.5999999642372","3","0","false","2","1,0.5,0.5,0.5,1,0.5,0.5,0.5,1","",""
"","html-keyboard-response","339","175967","0.0-499.0","3RANCT1ZVG3SE0W1U2FRYG917NPUBU","A227W90ZO5I9RZ","3H6W48L9F4B5OEOMH57RM53Z4H1WP0","","null","<img src=""img/land4.png"" style=""width:200px;border:14px solid red;"">","null","","","","","","","",""
"","image-keyboard-response","340","175982","0.0-501.0","3RANCT1ZVG3SE0W1U2FRYG917NPUBU","A227W90ZO5I9RZ","3H6W48L9F4B5OEOMH57RM53Z4H1WP0","","13","img/land1.png","76","14.400000035762787","3","1","false","3","1,0.5,0.5,0.5,1,0.5,0.5,0.5,1","",""
"","html-keyboard-response","341","176285","0.0-502.0","3RANCT1ZVG3SE0W1U2FRYG917NPUBU","A227W90ZO5I9RZ","3H6W48L9F4B5OEOMH57RM53Z4H1WP0","","null","<img src=""img/land1.png"" style=""width:200px; border:14px solid green;"">","null","","","","","","","",""
"","image-keyboard-response","342","176623","0.0-504.0","3RANCT1ZVG3SE0W1U2FRYG917NPUBU","A227W90ZO5I9RZ","3H6W48L9F4B5OEOMH57RM53Z4H1WP0","","336","img/land4.png","76","337.5999999642372","3","1","false","2","1,0.5,0.5,0.5,1,0.5,0.5,0.5,1","",""
"","html-keyboard-response","343","176931","0.0-505.0","3RANCT1ZVG3SE0W1U2FRYG917NPUBU","A227W90ZO5I9RZ","3H6W48L9F4B5OEOMH57RM53Z4H1WP0","","null","<img src=""img/land4.png"" style=""width:200px; border:14px solid green;"">","null","","","","","","","",""
"","image-keyboard-response","344","177153","0.0-507.0","3RANCT1ZVG3SE0W1U2FRYG917NPUBU","A227W90ZO5I9RZ","3H6W48L9F4B5OEOMH57RM53Z4H1WP0","","219.80000001192093","img/land6.png","76","221.4000000357628","3","1","false","1","1,0.5,0.5,0.5,1,0.5,0.5,0.5,1","",""
"","html-keyboard-response","345","177458","0.0-508.0","3RANCT1ZVG3SE0W1U2FRYG917NPUBU","A227W90ZO5I9RZ","3H6W48L9F4B5OEOMH57RM53Z4H1WP0","","null","<img src=""img/land6.png"" style=""width:200px; border:14px solid green;"">","null","","","","","","","",""
"","image-keyboard-response","346","177651","0.0-510.0","3RANCT1ZVG3SE0W1U2FRYG917NPUBU","A227W90ZO5I9RZ","3H6W48L9F4B5OEOMH57RM53Z4H1WP0","","191.69999998807907","img/land1.png","76","193.0999999642372","3","1","false","3","1,0.5,0.5,0.5,1,0.5,0.5,0.5,1","",""
"","html-keyboard-response","347","177959","0.0-511.0","3RANCT1ZVG3SE0W1U2FRYG917NPUBU","A227W90ZO5I9RZ","3H6W48L9F4B5OEOMH57RM53Z4H1WP0","","null","<img src=""img/land1.png"" style=""width:200px; border:14px solid green;"">","null","","","","","","","",""
"","image-keyboard-response","348","178183","0.0-513.0","3RANCT1ZVG3SE0W1U2FRYG917NPUBU","A227W90ZO5I9RZ","3H6W48L9F4B5OEOMH57RM53Z4H1WP0","","222.79999995231628","img/land4.png","76","224.20000004768372","3","0","false","2","1,0.5,0.5,0.5,1,0.5,0.5,0.5,1","",""
"","html-keyboard-response","349","178486","0.0-514.0","3RANCT1ZVG3SE0W1U2FRYG917NPUBU","A227W90ZO5I9RZ","3H6W48L9F4B5OEOMH57RM53Z4H1WP0","","null","<img src=""img/land4.png"" style=""width:200px;border:14px solid red;"">","null","","","","","","","",""
"","image-keyboard-response","350","178683","0.0-516.0","3RANCT1ZVG3SE0W1U2FRYG917NPUBU","A227W90ZO5I9RZ","3H6W48L9F4B5OEOMH57RM53Z4H1WP0","","194.80000001192093","img/land6.png","76","196.0999999642372","3","1","false","1","1,0.5,0.5,0.5,1,0.5,0.5,0.5,1","",""
"","html-keyboard-response","351","178995","0.0-517.0","3RANCT1ZVG3SE0W1U2FRYG917NPUBU","A227W90ZO5I9RZ","3H6W48L9F4B5OEOMH57RM53Z4H1WP0","","null","<img src=""img/land6.png"" style=""width:200px; border:14px solid green;"">","null","","","","","","","",""
"","image-keyboard-response","352","179229","0.0-519.0","3RANCT1ZVG3SE0W1U2FRYG917NPUBU","A227W90ZO5I9RZ","3H6W48L9F4B5OEOMH57RM53Z4H1WP0","","231.69999998807907","img/land4.png","76","233.30000001192093","3","0","false","2","1,0.5,0.5,0.5,1,0.5,0.5,0.5,1","",""
"","html-keyboard-response","353","179532","0.0-520.0","3RANCT1ZVG3SE0W1U2FRYG917NPUBU","A227W90ZO5I9RZ","3H6W48L9F4B5OEOMH57RM53Z4H1WP0","","null","<img src=""img/land4.png"" style=""width:200px;border:14px solid red;"">","null","","","","","","","",""
"","image-keyboard-response","354","179768","0.0-522.0","3RANCT1ZVG3SE0W1U2FRYG917NPUBU","A227W90ZO5I9RZ","3H6W48L9F4B5OEOMH57RM53Z4H1WP0","","233.29999995231628","img/land6.png","76","235.19999998807907","3","1","false","1","1,0.5,0.5,0.5,1,0.5,0.5,0.5,1","",""
"","html-keyboard-response","355","180077","0.0-523.0","3RANCT1ZVG3SE0W1U2FRYG917NPUBU","A227W90ZO5I9RZ","3H6W48L9F4B5OEOMH57RM53Z4H1WP0","","null","<img src=""img/land6.png"" style=""width:200px; border:14px solid green;"">","null","","","","","","","",""
"","image-keyboard-response","356","180342","0.0-525.0","3RANCT1ZVG3SE0W1U2FRYG917NPUBU","A227W90ZO5I9RZ","3H6W48L9F4B5OEOMH57RM53Z4H1WP0","","263.5","img/land4.png","76","265","3","1","false","2","1,0.5,0.5,0.5,1,0.5,0.5,0.5,1","",""
"","html-keyboard-response","357","180657","0.0-526.0","3RANCT1ZVG3SE0W1U2FRYG917NPUBU","A227W90ZO5I9RZ","3H6W48L9F4B5OEOMH57RM53Z4H1WP0","","null","<img src=""img/land4.png"" style=""width:200px; border:14px solid green;"">","null","","","","","","","",""
"","image-keyboard-response","358","180916","0.0-528.0","3RANCT1ZVG3SE0W1U2FRYG917NPUBU","A227W90ZO5I9RZ","3H6W48L9F4B5OEOMH57RM53Z4H1WP0","","256.30000001192093","img/land4.png","76","258.5","3","1","false","2","1,0.5,0.5,0.5,1,0.5,0.5,0.5,1","",""
"","html-keyboard-response","359","181223","0.0-529.0","3RANCT1ZVG3SE0W1U2FRYG917NPUBU","A227W90ZO5I9RZ","3H6W48L9F4B5OEOMH57RM53Z4H1WP0","","null","<img src=""img/land4.png"" style=""width:200px; border:14px solid green;"">","null","","","","","","","",""
"","image-keyboard-response","360","181474","0.0-531.0","3RANCT1ZVG3SE0W1U2FRYG917NPUBU","A227W90ZO5I9RZ","3H6W48L9F4B5OEOMH57RM53Z4H1WP0","","249.20000004768372","img/land6.png","76","250.69999998807907","3","0","false","1","1,0.5,0.5,0.5,1,0.5,0.5,0.5,1","",""
"","html-keyboard-response","361","181776","0.0-532.0","3RANCT1ZVG3SE0W1U2FRYG917NPUBU","A227W90ZO5I9RZ","3H6W48L9F4B5OEOMH57RM53Z4H1WP0","","null","<img src=""img/land6.png"" style=""width:200px;border:14px solid red;"">","null","","","","","","","",""
"","image-keyboard-response","362","181996","0.0-534.0","3RANCT1ZVG3SE0W1U2FRYG917NPUBU","A227W90ZO5I9RZ","3H6W48L9F4B5OEOMH57RM53Z4H1WP0","","217.4000000357628","img/land4.png","76","219","3","1","false","2","1,0.5,0.5,0.5,1,0.5,0.5,0.5,1","",""
"","html-keyboard-response","363","182302","0.0-535.0","3RANCT1ZVG3SE0W1U2FRYG917NPUBU","A227W90ZO5I9RZ","3H6W48L9F4B5OEOMH57RM53Z4H1WP0","","null","<img src=""img/land4.png"" style=""width:200px; border:14px solid green;"">","null","","","","","","","",""
"","image-keyboard-response","364","182513","0.0-537.0","3RANCT1ZVG3SE0W1U2FRYG917NPUBU","A227W90ZO5I9RZ","3H6W48L9F4B5OEOMH57RM53Z4H1WP0","","209","img/land4.png","76","210.4000000357628","3","0","false","2","1,0.5,0.5,0.5,1,0.5,0.5,0.5,1","",""
"","html-keyboard-response","365","182819","0.0-538.0","3RANCT1ZVG3SE0W1U2FRYG917NPUBU","A227W90ZO5I9RZ","3H6W48L9F4B5OEOMH57RM53Z4H1WP0","","null","<img src=""img/land4.png"" style=""width:200px;border:14px solid red;"">","null","","","","","","","",""
"","image-keyboard-response","366","183035","0.0-540.0","3RANCT1ZVG3SE0W1U2FRYG917NPUBU","A227W90ZO5I9RZ","3H6W48L9F4B5OEOMH57RM53Z4H1WP0","","214","img/land1.png","76","215.5","3","1","false","3","1,0.5,0.5,0.5,1,0.5,0.5,0.5,1","",""
"","html-keyboard-response","367","183338","0.0-541.0","3RANCT1ZVG3SE0W1U2FRYG917NPUBU","A227W90ZO5I9RZ","3H6W48L9F4B5OEOMH57RM53Z4H1WP0","","null","<img src=""img/land1.png"" style=""width:200px; border:14px solid green;"">","null","","","","","","","",""
"","instructions","368","185643","0.0-543.0","3RANCT1ZVG3SE0W1U2FRYG917NPUBU","A227W90ZO5I9RZ","3H6W48L9F4B5OEOMH57RM53Z4H1WP0","[{""page_index"":0,""viewing_time"":2303.5}]","2303.800000011921","","","","","","","","","",""
"","survey-text","369","190066","0.0-544.0-0.0","3RANCT1ZVG3SE0W1U2FRYG917NPUBU","A227W90ZO5I9RZ","3H6W48L9F4B5OEOMH57RM53Z4H1WP0","","4419.199999988079","","","","","","","","","{""Q0"":""63""}",""
"","survey-multi-choice","370","193873","0.0-544.0-1.0","3RANCT1ZVG3SE0W1U2FRYG917NPUBU","A227W90ZO5I9RZ","3H6W48L9F4B5OEOMH57RM53Z4H1WP0","","3805.100000023842","","","","","","","","","{""gender"":""F""}","[0]"
"","survey-text","371","199799","0.0-545.0","3RANCT1ZVG3SE0W1U2FRYG917NPUBU","A227W90ZO5I9RZ","3H6W48L9F4B5OEOMH57RM53Z4H1WP0","","5923.099999964237","","","","","","","","","{""Q0"":""A227W90ZO5I9RZ""}",""
