"success","trial_type","trial_index","time_elapsed","internal_node_id","assignmentID","mturkID","hitID","view_history","rt","stimulus","key_press","reactionTime","a","r","s","cond","reward_cond","reward_cond_actual","reward_matrix_idx","responses","question_order"
"true","fullscreen","0","4099","0.0-0.0","35USIKEBNS29DYVX1AMX95VFNCN6N5","A22BBAU24IEHPL","38DCH97KHHO4I6P2AJ31XKZ17OGJQZ","","","","","","","","","","","","","",""
"","instructions","1","118403","0.0-1.0","35USIKEBNS29DYVX1AMX95VFNCN6N5","A22BBAU24IEHPL","38DCH97KHHO4I6P2AJ31XKZ17OGJQZ","[{""page_index"":0,""viewing_time"":6349.79999999702},{""page_index"":1,""viewing_time"":6183.400000002235},{""page_index"":2,""viewing_time"":10111.699999999255},{""page_index"":3,""viewing_time"":42974.89999999851},{""page_index"":4,""viewing_time"":13703.800000000745},{""page_index"":5,""viewing_time"":26831.300000000745},{""page_index"":6,""viewing_time"":8144.10000000149}]","114300.5","","","","","","","","","","","",""
"","image-keyboard-response","2","120412","0.0-2.0","35USIKEBNS29DYVX1AMX95VFNCN6N5","A22BBAU24IEHPL","38DCH97KHHO4I6P2AJ31XKZ17OGJQZ","","","img/land4.png","","2008.300000000745","-1","0","1","2","1,0.5,0.5,0.5,1,0.5,0.5,0.5,1","0.5,1,0.5,0.5,0.5,1,1,0.5,0.5","3","",""
"","html-keyboard-response","3","120716","0.0-3.0","35USIKEBNS29DYVX1AMX95VFNCN6N5","A22BBAU24IEHPL","38DCH97KHHO4I6P2AJ31XKZ17OGJQZ","","null","<img src=""img/land4.png"" style=""width:200px;border:14px solid red;"">","null","","","","","","","","","",""
"","image-keyboard-response","4","122070","0.0-4.0","35USIKEBNS29DYVX1AMX95VFNCN6N5","A22BBAU24IEHPL","38DCH97KHHO4I6P2AJ31XKZ17OGJQZ","","1352.1000000014901","img/land4.png","75","1353.800000000745","2","1","1","2","1,0.5,0.5,0.5,1,0.5,0.5,0.5,1","0.5,1,0.5,0.5,0.5,1,1,0.5,0.5","3","",""
"","html-keyboard-response","5","122380","0.0-5.0","35USIKEBNS29DYVX1AMX95VFNCN6N5","A22BBAU24IEHPL","38DCH97KHHO4I6P2AJ31XKZ17OGJQZ","","null","<img src=""img/land4.png"" style=""width:200px; border:14px solid green;"">","null","","","","","","","","","",""
"","image-keyboard-response","6","123980","0.0-6.0","35USIKEBNS29DYVX1AMX95VFNCN6N5","A22BBAU24IEHPL","38DCH97KHHO4I6P2AJ31XKZ17OGJQZ","","1597.7999999970198","img/land4.png","75","1599.300000000745","2","1","1","2","1,0.5,0.5,0.5,1,0.5,0.5,0.5,1","0.5,1,0.5,0.5,0.5,1,1,0.5,0.5","3","",""
"","html-keyboard-response","7","124284","0.0-7.0","35USIKEBNS29DYVX1AMX95VFNCN6N5","A22BBAU24IEHPL","38DCH97KHHO4I6P2AJ31XKZ17OGJQZ","","null","<img src=""img/land4.png"" style=""width:200px; border:14px solid green;"">","null","","","","","","","","","",""
"","image-keyboard-response","8","125819","0.0-8.0","35USIKEBNS29DYVX1AMX95VFNCN6N5","A22BBAU24IEHPL","38DCH97KHHO4I6P2AJ31XKZ17OGJQZ","","1533.9000000022352","img/land4.png","75","1535.2999999970198","2","1","1","2","1,0.5,0.5,0.5,1,0.5,0.5,0.5,1","0.5,1,0.5,0.5,0.5,1,1,0.5,0.5","3","",""
"","html-keyboard-response","9","126124","0.0-9.0","35USIKEBNS29DYVX1AMX95VFNCN6N5","A22BBAU24IEHPL","38DCH97KHHO4I6P2AJ31XKZ17OGJQZ","","null","<img src=""img/land4.png"" style=""width:200px; border:14px solid green;"">","null","","","","","","","","","",""
"","image-keyboard-response","10","127212","0.0-10.0","35USIKEBNS29DYVX1AMX95VFNCN6N5","A22BBAU24IEHPL","38DCH97KHHO4I6P2AJ31XKZ17OGJQZ","","1085.800000000745","img/land4.png","75","1087.5","2","1","1","2","1,0.5,0.5,0.5,1,0.5,0.5,0.5,1","0.5,1,0.5,0.5,0.5,1,1,0.5,0.5","3","",""
"","html-keyboard-response","11","127516","0.0-11.0","35USIKEBNS29DYVX1AMX95VFNCN6N5","A22BBAU24IEHPL","38DCH97KHHO4I6P2AJ31XKZ17OGJQZ","","null","<img src=""img/land4.png"" style=""width:200px; border:14px solid green;"">","null","","","","","","","","","",""
"","image-keyboard-response","12","128659","0.0-12.0","35USIKEBNS29DYVX1AMX95VFNCN6N5","A22BBAU24IEHPL","38DCH97KHHO4I6P2AJ31XKZ17OGJQZ","","1141.699999999255","img/land4.png","75","1143","2","1","1","2","1,0.5,0.5,0.5,1,0.5,0.5,0.5,1","0.5,1,0.5,0.5,0.5,1,1,0.5,0.5","3","",""
"","html-keyboard-response","13","128964","0.0-13.0","35USIKEBNS29DYVX1AMX95VFNCN6N5","A22BBAU24IEHPL","38DCH97KHHO4I6P2AJ31XKZ17OGJQZ","","null","<img src=""img/land4.png"" style=""width:200px; border:14px solid green;"">","null","","","","","","","","","",""
"","image-keyboard-response","14","129949","0.0-14.0","35USIKEBNS29DYVX1AMX95VFNCN6N5","A22BBAU24IEHPL","38DCH97KHHO4I6P2AJ31XKZ17OGJQZ","","983.5","img/land4.png","75","984.8999999985099","2","1","1","2","1,0.5,0.5,0.5,1,0.5,0.5,0.5,1","0.5,1,0.5,0.5,0.5,1,1,0.5,0.5","3","",""
"","html-keyboard-response","15","130252","0.0-15.0","35USIKEBNS29DYVX1AMX95VFNCN6N5","A22BBAU24IEHPL","38DCH97KHHO4I6P2AJ31XKZ17OGJQZ","","null","<img src=""img/land4.png"" style=""width:200px; border:14px solid green;"">","null","","","","","","","","","",""
"","image-keyboard-response","16","131270","0.0-16.0","35USIKEBNS29DYVX1AMX95VFNCN6N5","A22BBAU24IEHPL","38DCH97KHHO4I6P2AJ31XKZ17OGJQZ","","1016.3999999985099","img/land4.png","75","1017.9000000022352","2","1","1","2","1,0.5,0.5,0.5,1,0.5,0.5,0.5,1","0.5,1,0.5,0.5,0.5,1,1,0.5,0.5","3","",""
"","html-keyboard-response","17","131580","0.0-17.0","35USIKEBNS29DYVX1AMX95VFNCN6N5","A22BBAU24IEHPL","38DCH97KHHO4I6P2AJ31XKZ17OGJQZ","","null","<img src=""img/land4.png"" style=""width:200px; border:14px solid green;"">","null","","","","","","","","","",""
"","image-keyboard-response","18","132310","0.0-18.0","35USIKEBNS29DYVX1AMX95VFNCN6N5","A22BBAU24IEHPL","38DCH97KHHO4I6P2AJ31XKZ17OGJQZ","","727.6999999992549","img/land4.png","75","729.1000000014901","2","1","1","2","1,0.5,0.5,0.5,1,0.5,0.5,0.5,1","0.5,1,0.5,0.5,0.5,1,1,0.5,0.5","3","",""
"","html-keyboard-response","19","132612","0.0-19.0","35USIKEBNS29DYVX1AMX95VFNCN6N5","A22BBAU24IEHPL","38DCH97KHHO4I6P2AJ31XKZ17OGJQZ","","null","<img src=""img/land4.png"" style=""width:200px; border:14px solid green;"">","null","","","","","","","","","",""
"","image-keyboard-response","20","133459","0.0-20.0","35USIKEBNS29DYVX1AMX95VFNCN6N5","A22BBAU24IEHPL","38DCH97KHHO4I6P2AJ31XKZ17OGJQZ","","845.3000000007451","img/land4.png","75","846.6999999992549","2","1","1","2","1,0.5,0.5,0.5,1,0.5,0.5,0.5,1","0.5,1,0.5,0.5,0.5,1,1,0.5,0.5","3","",""
"","html-keyboard-response","21","133764","0.0-21.0","35USIKEBNS29DYVX1AMX95VFNCN6N5","A22BBAU24IEHPL","38DCH97KHHO4I6P2AJ31XKZ17OGJQZ","","null","<img src=""img/land4.png"" style=""width:200px; border:14px solid green;"">","null","","","","","","","","","",""
"","image-keyboard-response","22","135079","0.0-22.0","35USIKEBNS29DYVX1AMX95VFNCN6N5","A22BBAU24IEHPL","38DCH97KHHO4I6P2AJ31XKZ17OGJQZ","","1313.300000000745","img/land6.png","75","1314.699999999255","2","0","2","2","1,0.5,0.5,0.5,1,0.5,0.5,0.5,1","0.5,1,0.5,0.5,0.5,1,1,0.5,0.5","3","",""
"","html-keyboard-response","23","135389","0.0-23.0","35USIKEBNS29DYVX1AMX95VFNCN6N5","A22BBAU24IEHPL","38DCH97KHHO4I6P2AJ31XKZ17OGJQZ","","null","<img src=""img/land6.png"" style=""width:200px;border:14px solid red;"">","null","","","","","","","","","",""
"","image-keyboard-response","24","136649","0.0-24.0","35USIKEBNS29DYVX1AMX95VFNCN6N5","A22BBAU24IEHPL","38DCH97KHHO4I6P2AJ31XKZ17OGJQZ","","1259.1000000014901","img/land4.png","75","1260.5","2","1","1","2","1,0.5,0.5,0.5,1,0.5,0.5,0.5,1","0.5,1,0.5,0.5,0.5,1,1,0.5,0.5","3","",""
"","html-keyboard-response","25","136957","0.0-25.0","35USIKEBNS29DYVX1AMX95VFNCN6N5","A22BBAU24IEHPL","38DCH97KHHO4I6P2AJ31XKZ17OGJQZ","","null","<img src=""img/land4.png"" style=""width:200px; border:14px solid green;"">","null","","","","","","","","","",""
"","image-keyboard-response","26","137979","0.0-26.0","35USIKEBNS29DYVX1AMX95VFNCN6N5","A22BBAU24IEHPL","38DCH97KHHO4I6P2AJ31XKZ17OGJQZ","","1021.1000000014901","img/land6.png","76","1022.5","3","1","2","2","1,0.5,0.5,0.5,1,0.5,0.5,0.5,1","0.5,1,0.5,0.5,0.5,1,1,0.5,0.5","3","",""
"","html-keyboard-response","27","138285","0.0-27.0","35USIKEBNS29DYVX1AMX95VFNCN6N5","A22BBAU24IEHPL","38DCH97KHHO4I6P2AJ31XKZ17OGJQZ","","null","<img src=""img/land6.png"" style=""width:200px; border:14px solid green;"">","null","","","","","","","","","",""
"","image-keyboard-response","28","138919","0.0-28.0","35USIKEBNS29DYVX1AMX95VFNCN6N5","A22BBAU24IEHPL","38DCH97KHHO4I6P2AJ31XKZ17OGJQZ","","633","img/land6.png","76","634.1999999992549","3","1","2","2","1,0.5,0.5,0.5,1,0.5,0.5,0.5,1","0.5,1,0.5,0.5,0.5,1,1,0.5,0.5","3","",""
"","html-keyboard-response","29","139228","0.0-29.0","35USIKEBNS29DYVX1AMX95VFNCN6N5","A22BBAU24IEHPL","38DCH97KHHO4I6P2AJ31XKZ17OGJQZ","","null","<img src=""img/land6.png"" style=""width:200px; border:14px solid green;"">","null","","","","","","","","","",""
"","image-keyboard-response","30","139530","0.0-30.0","35USIKEBNS29DYVX1AMX95VFNCN6N5","A22BBAU24IEHPL","38DCH97KHHO4I6P2AJ31XKZ17OGJQZ","","301.5","img/land6.png","76","302.3999999985099","3","1","2","2","1,0.5,0.5,0.5,1,0.5,0.5,0.5,1","0.5,1,0.5,0.5,0.5,1,1,0.5,0.5","3","",""
"","html-keyboard-response","31","139836","0.0-31.0","35USIKEBNS29DYVX1AMX95VFNCN6N5","A22BBAU24IEHPL","38DCH97KHHO4I6P2AJ31XKZ17OGJQZ","","null","<img src=""img/land6.png"" style=""width:200px; border:14px solid green;"">","null","","","","","","","","","",""
"","image-keyboard-response","32","140669","0.0-32.0","35USIKEBNS29DYVX1AMX95VFNCN6N5","A22BBAU24IEHPL","38DCH97KHHO4I6P2AJ31XKZ17OGJQZ","","832","img/land4.png","75","833.3000000007451","2","1","1","2","1,0.5,0.5,0.5,1,0.5,0.5,0.5,1","0.5,1,0.5,0.5,0.5,1,1,0.5,0.5","3","",""
"","html-keyboard-response","33","140972","0.0-33.0","35USIKEBNS29DYVX1AMX95VFNCN6N5","A22BBAU24IEHPL","38DCH97KHHO4I6P2AJ31XKZ17OGJQZ","","null","<img src=""img/land4.png"" style=""width:200px; border:14px solid green;"">","null","","","","","","","","","",""
"","image-keyboard-response","34","141589","0.0-34.0","35USIKEBNS29DYVX1AMX95VFNCN6N5","A22BBAU24IEHPL","38DCH97KHHO4I6P2AJ31XKZ17OGJQZ","","615.8000000007451","img/land6.png","76","617.1999999992549","3","1","2","2","1,0.5,0.5,0.5,1,0.5,0.5,0.5,1","0.5,1,0.5,0.5,0.5,1,1,0.5,0.5","3","",""
"","html-keyboard-response","35","141892","0.0-35.0","35USIKEBNS29DYVX1AMX95VFNCN6N5","A22BBAU24IEHPL","38DCH97KHHO4I6P2AJ31XKZ17OGJQZ","","null","<img src=""img/land6.png"" style=""width:200px; border:14px solid green;"">","null","","","","","","","","","",""
"","image-keyboard-response","36","142489","0.0-36.0","35USIKEBNS29DYVX1AMX95VFNCN6N5","A22BBAU24IEHPL","38DCH97KHHO4I6P2AJ31XKZ17OGJQZ","","596","img/land4.png","75","597.4000000022352","2","1","1","2","1,0.5,0.5,0.5,1,0.5,0.5,0.5,1","0.5,1,0.5,0.5,0.5,1,1,0.5,0.5","3","",""
"","html-keyboard-response","37","142796","0.0-37.0","35USIKEBNS29DYVX1AMX95VFNCN6N5","A22BBAU24IEHPL","38DCH97KHHO4I6P2AJ31XKZ17OGJQZ","","null","<img src=""img/land4.png"" style=""width:200px; border:14px solid green;"">","null","","","","","","","","","",""
"","image-keyboard-response","38","143659","0.0-38.0","35USIKEBNS29DYVX1AMX95VFNCN6N5","A22BBAU24IEHPL","38DCH97KHHO4I6P2AJ31XKZ17OGJQZ","","861.6999999992549","img/land4.png","76","863","3","1","1","2","1,0.5,0.5,0.5,1,0.5,0.5,0.5,1","0.5,1,0.5,0.5,0.5,1,1,0.5,0.5","3","",""
"","html-keyboard-response","39","143964","0.0-39.0","35USIKEBNS29DYVX1AMX95VFNCN6N5","A22BBAU24IEHPL","38DCH97KHHO4I6P2AJ31XKZ17OGJQZ","","null","<img src=""img/land4.png"" style=""width:200px; border:14px solid green;"">","null","","","","","","","","","",""
"","image-keyboard-response","40","144939","0.0-40.0","35USIKEBNS29DYVX1AMX95VFNCN6N5","A22BBAU24IEHPL","38DCH97KHHO4I6P2AJ31XKZ17OGJQZ","","973","img/land4.png","75","974.3999999985099","2","1","1","2","1,0.5,0.5,0.5,1,0.5,0.5,0.5,1","0.5,1,0.5,0.5,0.5,1,1,0.5,0.5","3","",""
"","html-keyboard-response","41","145244","0.0-41.0","35USIKEBNS29DYVX1AMX95VFNCN6N5","A22BBAU24IEHPL","38DCH97KHHO4I6P2AJ31XKZ17OGJQZ","","null","<img src=""img/land4.png"" style=""width:200px; border:14px solid green;"">","null","","","","","","","","","",""
"","image-keyboard-response","42","145889","0.0-42.0","35USIKEBNS29DYVX1AMX95VFNCN6N5","A22BBAU24IEHPL","38DCH97KHHO4I6P2AJ31XKZ17OGJQZ","","643.5","img/land6.png","76","644.3999999985099","3","1","2","2","1,0.5,0.5,0.5,1,0.5,0.5,0.5,1","0.5,1,0.5,0.5,0.5,1,1,0.5,0.5","3","",""
"","html-keyboard-response","43","146197","0.0-43.0","35USIKEBNS29DYVX1AMX95VFNCN6N5","A22BBAU24IEHPL","38DCH97KHHO4I6P2AJ31XKZ17OGJQZ","","null","<img src=""img/land6.png"" style=""width:200px; border:14px solid green;"">","null","","","","","","","","","",""
"","image-keyboard-response","44","148205","0.0-44.0","35USIKEBNS29DYVX1AMX95VFNCN6N5","A22BBAU24IEHPL","38DCH97KHHO4I6P2AJ31XKZ17OGJQZ","","","img/land5.png","","2008","-1","0","3","2","1,0.5,0.5,0.5,1,0.5,0.5,0.5,1","0.5,1,0.5,0.5,0.5,1,1,0.5,0.5","3","",""
"","html-keyboard-response","45","148508","0.0-45.0","35USIKEBNS29DYVX1AMX95VFNCN6N5","A22BBAU24IEHPL","38DCH97KHHO4I6P2AJ31XKZ17OGJQZ","","null","<img src=""img/land5.png"" style=""width:200px;border:14px solid red;"">","null","","","","","","","","","",""
"","image-keyboard-response","46","149660","0.0-46.0","35USIKEBNS29DYVX1AMX95VFNCN6N5","A22BBAU24IEHPL","38DCH97KHHO4I6P2AJ31XKZ17OGJQZ","","1149.7999999970198","img/land4.png","75","1151","2","1","1","2","1,0.5,0.5,0.5,1,0.5,0.5,0.5,1","0.5,1,0.5,0.5,0.5,1,1,0.5,0.5","3","",""
"","html-keyboard-response","47","149964","0.0-47.0","35USIKEBNS29DYVX1AMX95VFNCN6N5","A22BBAU24IEHPL","38DCH97KHHO4I6P2AJ31XKZ17OGJQZ","","null","<img src=""img/land4.png"" style=""width:200px; border:14px solid green;"">","null","","","","","","","","","",""
"","image-keyboard-response","48","150700","0.0-48.0","35USIKEBNS29DYVX1AMX95VFNCN6N5","A22BBAU24IEHPL","38DCH97KHHO4I6P2AJ31XKZ17OGJQZ","","733.6000000014901","img/land4.png","75","735","2","1","1","2","1,0.5,0.5,0.5,1,0.5,0.5,0.5,1","0.5,1,0.5,0.5,0.5,1,1,0.5,0.5","3","",""
"","html-keyboard-response","49","151005","0.0-49.0","35USIKEBNS29DYVX1AMX95VFNCN6N5","A22BBAU24IEHPL","38DCH97KHHO4I6P2AJ31XKZ17OGJQZ","","null","<img src=""img/land4.png"" style=""width:200px; border:14px solid green;"">","null","","","","","","","","","",""
"","image-keyboard-response","50","151431","0.0-50.0","35USIKEBNS29DYVX1AMX95VFNCN6N5","A22BBAU24IEHPL","38DCH97KHHO4I6P2AJ31XKZ17OGJQZ","","424.30000000074506","img/land4.png","75","425.9000000022352","2","1","1","2","1,0.5,0.5,0.5,1,0.5,0.5,0.5,1","0.5,1,0.5,0.5,0.5,1,1,0.5,0.5","3","",""
"","html-keyboard-response","51","151733","0.0-51.0","35USIKEBNS29DYVX1AMX95VFNCN6N5","A22BBAU24IEHPL","38DCH97KHHO4I6P2AJ31XKZ17OGJQZ","","null","<img src=""img/land4.png"" style=""width:200px; border:14px solid green;"">","null","","","","","","","","","",""
"","image-keyboard-response","52","152090","0.0-52.0","35USIKEBNS29DYVX1AMX95VFNCN6N5","A22BBAU24IEHPL","38DCH97KHHO4I6P2AJ31XKZ17OGJQZ","","355.5","img/land4.png","75","356.80000000074506","2","1","1","2","1,0.5,0.5,0.5,1,0.5,0.5,0.5,1","0.5,1,0.5,0.5,0.5,1,1,0.5,0.5","3","",""
"","html-keyboard-response","53","152397","0.0-53.0","35USIKEBNS29DYVX1AMX95VFNCN6N5","A22BBAU24IEHPL","38DCH97KHHO4I6P2AJ31XKZ17OGJQZ","","null","<img src=""img/land4.png"" style=""width:200px; border:14px solid green;"">","null","","","","","","","","","",""
"","image-keyboard-response","54","152750","0.0-54.0","35USIKEBNS29DYVX1AMX95VFNCN6N5","A22BBAU24IEHPL","38DCH97KHHO4I6P2AJ31XKZ17OGJQZ","","351.69999999925494","img/land4.png","75","353","2","1","1","2","1,0.5,0.5,0.5,1,0.5,0.5,0.5,1","0.5,1,0.5,0.5,0.5,1,1,0.5,0.5","3","",""
"","html-keyboard-response","55","153052","0.0-55.0","35USIKEBNS29DYVX1AMX95VFNCN6N5","A22BBAU24IEHPL","38DCH97KHHO4I6P2AJ31XKZ17OGJQZ","","null","<img src=""img/land4.png"" style=""width:200px; border:14px solid green;"">","null","","","","","","","","","",""
"","image-keyboard-response","56","153359","0.0-56.0","35USIKEBNS29DYVX1AMX95VFNCN6N5","A22BBAU24IEHPL","38DCH97KHHO4I6P2AJ31XKZ17OGJQZ","","305.4000000022352","img/land4.png","75","306.5","2","1","1","2","1,0.5,0.5,0.5,1,0.5,0.5,0.5,1","0.5,1,0.5,0.5,0.5,1,1,0.5,0.5","3","",""
"","html-keyboard-response","57","153660","0.0-57.0","35USIKEBNS29DYVX1AMX95VFNCN6N5","A22BBAU24IEHPL","38DCH97KHHO4I6P2AJ31XKZ17OGJQZ","","null","<img src=""img/land4.png"" style=""width:200px; border:14px solid green;"">","null","","","","","","","","","",""
"","image-keyboard-response","58","153999","0.0-58.0","35USIKEBNS29DYVX1AMX95VFNCN6N5","A22BBAU24IEHPL","38DCH97KHHO4I6P2AJ31XKZ17OGJQZ","","337.6000000014901","img/land4.png","75","338.6000000014901","2","1","1","2","1,0.5,0.5,0.5,1,0.5,0.5,0.5,1","0.5,1,0.5,0.5,0.5,1,1,0.5,0.5","3","",""
"","html-keyboard-response","59","154309","0.0-59.0","35USIKEBNS29DYVX1AMX95VFNCN6N5","A22BBAU24IEHPL","38DCH97KHHO4I6P2AJ31XKZ17OGJQZ","","null","<img src=""img/land4.png"" style=""width:200px; border:14px solid green;"">","null","","","","","","","","","",""
"","image-keyboard-response","60","154569","0.0-60.0","35USIKEBNS29DYVX1AMX95VFNCN6N5","A22BBAU24IEHPL","38DCH97KHHO4I6P2AJ31XKZ17OGJQZ","","259.5999999977648","img/land4.png","75","260.6000000014901","2","1","1","2","1,0.5,0.5,0.5,1,0.5,0.5,0.5,1","0.5,1,0.5,0.5,0.5,1,1,0.5,0.5","3","",""
"","html-keyboard-response","61","154877","0.0-61.0","35USIKEBNS29DYVX1AMX95VFNCN6N5","A22BBAU24IEHPL","38DCH97KHHO4I6P2AJ31XKZ17OGJQZ","","null","<img src=""img/land4.png"" style=""width:200px; border:14px solid green;"">","null","","","","","","","","","",""
"","image-keyboard-response","62","155109","0.0-62.0","35USIKEBNS29DYVX1AMX95VFNCN6N5","A22BBAU24IEHPL","38DCH97KHHO4I6P2AJ31XKZ17OGJQZ","","231.59999999776483","img/land4.png","75","232.60000000149012","2","1","1","2","1,0.5,0.5,0.5,1,0.5,0.5,0.5,1","0.5,1,0.5,0.5,0.5,1,1,0.5,0.5","3","",""
"","html-keyboard-response","63","155413","0.0-63.0","35USIKEBNS29DYVX1AMX95VFNCN6N5","A22BBAU24IEHPL","38DCH97KHHO4I6P2AJ31XKZ17OGJQZ","","null","<img src=""img/land4.png"" style=""width:200px; border:14px solid green;"">","null","","","","","","","","","",""
"","image-keyboard-response","64","155649","0.0-64.0","35USIKEBNS29DYVX1AMX95VFNCN6N5","A22BBAU24IEHPL","38DCH97KHHO4I6P2AJ31XKZ17OGJQZ","","235.59999999776483","img/land5.png","75","236.69999999925494","2","1","3","2","1,0.5,0.5,0.5,1,0.5,0.5,0.5,1","0.5,1,0.5,0.5,0.5,1,1,0.5,0.5","3","",""
"","html-keyboard-response","65","155957","0.0-65.0","35USIKEBNS29DYVX1AMX95VFNCN6N5","A22BBAU24IEHPL","38DCH97KHHO4I6P2AJ31XKZ17OGJQZ","","null","<img src=""img/land5.png"" style=""width:200px; border:14px solid green;"">","null","","","","","","","","","",""
"","image-keyboard-response","66","156409","0.0-66.0","35USIKEBNS29DYVX1AMX95VFNCN6N5","A22BBAU24IEHPL","38DCH97KHHO4I6P2AJ31XKZ17OGJQZ","","451.5999999977648","img/land4.png","75","452.5","2","1","1","2","1,0.5,0.5,0.5,1,0.5,0.5,0.5,1","0.5,1,0.5,0.5,0.5,1,1,0.5,0.5","3","",""
"","html-keyboard-response","67","156717","0.0-67.0","35USIKEBNS29DYVX1AMX95VFNCN6N5","A22BBAU24IEHPL","38DCH97KHHO4I6P2AJ31XKZ17OGJQZ","","null","<img src=""img/land4.png"" style=""width:200px; border:14px solid green;"">","null","","","","","","","","","",""
"","image-keyboard-response","68","156889","0.0-68.0","35USIKEBNS29DYVX1AMX95VFNCN6N5","A22BBAU24IEHPL","38DCH97KHHO4I6P2AJ31XKZ17OGJQZ","","171.5","img/land4.png","75","172.5","2","1","1","2","1,0.5,0.5,0.5,1,0.5,0.5,0.5,1","0.5,1,0.5,0.5,0.5,1,1,0.5,0.5","3","",""
"","html-keyboard-response","69","157199","0.0-69.0","35USIKEBNS29DYVX1AMX95VFNCN6N5","A22BBAU24IEHPL","38DCH97KHHO4I6P2AJ31XKZ17OGJQZ","","null","<img src=""img/land4.png"" style=""width:200px; border:14px solid green;"">","null","","","","","","","","","",""
"","image-keyboard-response","70","157259","0.0-70.0","35USIKEBNS29DYVX1AMX95VFNCN6N5","A22BBAU24IEHPL","38DCH97KHHO4I6P2AJ31XKZ17OGJQZ","","59.19999999925494","img/land6.png","75","60.19999999925494","2","0","2","2","1,0.5,0.5,0.5,1,0.5,0.5,0.5,1","0.5,1,0.5,0.5,0.5,1,1,0.5,0.5","3","",""
"","html-keyboard-response","71","157565","0.0-71.0","35USIKEBNS29DYVX1AMX95VFNCN6N5","A22BBAU24IEHPL","38DCH97KHHO4I6P2AJ31XKZ17OGJQZ","","null","<img src=""img/land6.png"" style=""width:200px;border:14px solid red;"">","null","","","","","","","","","",""
"","image-keyboard-response","72","158539","0.0-72.0","35USIKEBNS29DYVX1AMX95VFNCN6N5","A22BBAU24IEHPL","38DCH97KHHO4I6P2AJ31XKZ17OGJQZ","","973.3999999985099","img/land6.png","76","974.3999999985099","3","1","2","2","1,0.5,0.5,0.5,1,0.5,0.5,0.5,1","0.5,1,0.5,0.5,0.5,1,1,0.5,0.5","3","",""
"","html-keyboard-response","73","158845","0.0-73.0","35USIKEBNS29DYVX1AMX95VFNCN6N5","A22BBAU24IEHPL","38DCH97KHHO4I6P2AJ31XKZ17OGJQZ","","null","<img src=""img/land6.png"" style=""width:200px; border:14px solid green;"">","null","","","","","","","","","",""
"","image-keyboard-response","74","159519","0.0-74.0","35USIKEBNS29DYVX1AMX95VFNCN6N5","A22BBAU24IEHPL","38DCH97KHHO4I6P2AJ31XKZ17OGJQZ","","673.3999999985099","img/land5.png","75","674.6000000014901","2","0","3","2","1,0.5,0.5,0.5,1,0.5,0.5,0.5,1","0.5,1,0.5,0.5,0.5,1,1,0.5,0.5","3","",""
"","html-keyboard-response","75","159829","0.0-75.0","35USIKEBNS29DYVX1AMX95VFNCN6N5","A22BBAU24IEHPL","38DCH97KHHO4I6P2AJ31XKZ17OGJQZ","","null","<img src=""img/land5.png"" style=""width:200px;border:14px solid red;"">","null","","","","","","","","","",""
"","image-keyboard-response","76","160849","0.0-76.0","35USIKEBNS29DYVX1AMX95VFNCN6N5","A22BBAU24IEHPL","38DCH97KHHO4I6P2AJ31XKZ17OGJQZ","","1019.1999999992549","img/land4.png","74","1020.1999999992549","1","1","1","2","1,0.5,0.5,0.5,1,0.5,0.5,0.5,1","0.5,1,0.5,0.5,0.5,1,1,0.5,0.5","3","",""
"","html-keyboard-response","77","161157","0.0-77.0","35USIKEBNS29DYVX1AMX95VFNCN6N5","A22BBAU24IEHPL","38DCH97KHHO4I6P2AJ31XKZ17OGJQZ","","null","<img src=""img/land4.png"" style=""width:200px; border:14px solid green;"">","null","","","","","","","","","",""
"","image-keyboard-response","78","161609","0.0-78.0","35USIKEBNS29DYVX1AMX95VFNCN6N5","A22BBAU24IEHPL","38DCH97KHHO4I6P2AJ31XKZ17OGJQZ","","451.19999999925494","img/land4.png","74","452.29999999701977","1","1","1","2","1,0.5,0.5,0.5,1,0.5,0.5,0.5,1","0.5,1,0.5,0.5,0.5,1,1,0.5,0.5","3","",""
"","html-keyboard-response","79","161917","0.0-79.0","35USIKEBNS29DYVX1AMX95VFNCN6N5","A22BBAU24IEHPL","38DCH97KHHO4I6P2AJ31XKZ17OGJQZ","","null","<img src=""img/land4.png"" style=""width:200px; border:14px solid green;"">","null","","","","","","","","","",""
"","image-keyboard-response","80","162679","0.0-80.0","35USIKEBNS29DYVX1AMX95VFNCN6N5","A22BBAU24IEHPL","38DCH97KHHO4I6P2AJ31XKZ17OGJQZ","","761.1999999992549","img/land6.png","76","762.1000000014901","3","1","2","2","1,0.5,0.5,0.5,1,0.5,0.5,0.5,1","0.5,1,0.5,0.5,0.5,1,1,0.5,0.5","3","",""
"","html-keyboard-response","81","162989","0.0-81.0","35USIKEBNS29DYVX1AMX95VFNCN6N5","A22BBAU24IEHPL","38DCH97KHHO4I6P2AJ31XKZ17OGJQZ","","null","<img src=""img/land6.png"" style=""width:200px; border:14px solid green;"">","null","","","","","","","","","",""
"","image-keyboard-response","82","163360","0.0-82.0","35USIKEBNS29DYVX1AMX95VFNCN6N5","A22BBAU24IEHPL","38DCH97KHHO4I6P2AJ31XKZ17OGJQZ","","369.4000000022352","img/land6.png","76","370.5","3","1","2","2","1,0.5,0.5,0.5,1,0.5,0.5,0.5,1","0.5,1,0.5,0.5,0.5,1,1,0.5,0.5","3","",""
"","html-keyboard-response","83","163669","0.0-83.0","35USIKEBNS29DYVX1AMX95VFNCN6N5","A22BBAU24IEHPL","38DCH97KHHO4I6P2AJ31XKZ17OGJQZ","","null","<img src=""img/land6.png"" style=""width:200px; border:14px solid green;"">","null","","","","","","","","","",""
"","image-keyboard-response","84","163989","0.0-84.0","35USIKEBNS29DYVX1AMX95VFNCN6N5","A22BBAU24IEHPL","38DCH97KHHO4I6P2AJ31XKZ17OGJQZ","","319","img/land6.png","76","320","3","1","2","2","1,0.5,0.5,0.5,1,0.5,0.5,0.5,1","0.5,1,0.5,0.5,0.5,1,1,0.5,0.5","3","",""
"","html-keyboard-response","85","164293","0.0-85.0","35USIKEBNS29DYVX1AMX95VFNCN6N5","A22BBAU24IEHPL","38DCH97KHHO4I6P2AJ31XKZ17OGJQZ","","null","<img src=""img/land6.png"" style=""width:200px; border:14px solid green;"">","null","","","","","","","","","",""
"","image-keyboard-response","86","164929","0.0-86.0","35USIKEBNS29DYVX1AMX95VFNCN6N5","A22BBAU24IEHPL","38DCH97KHHO4I6P2AJ31XKZ17OGJQZ","","635","img/land4.png","74","636.1000000014901","1","1","1","2","1,0.5,0.5,0.5,1,0.5,0.5,0.5,1","0.5,1,0.5,0.5,0.5,1,1,0.5,0.5","3","",""
"","html-keyboard-response","87","165237","0.0-87.0","35USIKEBNS29DYVX1AMX95VFNCN6N5","A22BBAU24IEHPL","38DCH97KHHO4I6P2AJ31XKZ17OGJQZ","","null","<img src=""img/land4.png"" style=""width:200px; border:14px solid green;"">","null","","","","","","","","","",""
"","image-keyboard-response","88","165689","0.0-88.0","35USIKEBNS29DYVX1AMX95VFNCN6N5","A22BBAU24IEHPL","38DCH97KHHO4I6P2AJ31XKZ17OGJQZ","","451.29999999701977","img/land5.png","74","452.0999999977648","1","1","3","2","1,0.5,0.5,0.5,1,0.5,0.5,0.5,1","0.5,1,0.5,0.5,0.5,1,1,0.5,0.5","3","",""
"","html-keyboard-response","89","165997","0.0-89.0","35USIKEBNS29DYVX1AMX95VFNCN6N5","A22BBAU24IEHPL","38DCH97KHHO4I6P2AJ31XKZ17OGJQZ","","null","<img src=""img/land5.png"" style=""width:200px; border:14px solid green;"">","null","","","","","","","","","",""
"","image-keyboard-response","90","166249","0.0-90.0","35USIKEBNS29DYVX1AMX95VFNCN6N5","A22BBAU24IEHPL","38DCH97KHHO4I6P2AJ31XKZ17OGJQZ","","250.79999999701977","img/land5.png","74","251.89999999850988","1","1","3","2","1,0.5,0.5,0.5,1,0.5,0.5,0.5,1","0.5,1,0.5,0.5,0.5,1,1,0.5,0.5","3","",""
"","html-keyboard-response","91","166557","0.0-91.0","35USIKEBNS29DYVX1AMX95VFNCN6N5","A22BBAU24IEHPL","38DCH97KHHO4I6P2AJ31XKZ17OGJQZ","","null","<img src=""img/land5.png"" style=""width:200px; border:14px solid green;"">","null","","","","","","","","","",""
"","image-keyboard-response","92","166989","0.0-92.0","35USIKEBNS29DYVX1AMX95VFNCN6N5","A22BBAU24IEHPL","38DCH97KHHO4I6P2AJ31XKZ17OGJQZ","","430.8999999985099","img/land6.png","74","431.8999999985099","1","1","2","2","1,0.5,0.5,0.5,1,0.5,0.5,0.5,1","0.5,1,0.5,0.5,0.5,1,1,0.5,0.5","3","",""
"","html-keyboard-response","93","167293","0.0-93.0","35USIKEBNS29DYVX1AMX95VFNCN6N5","A22BBAU24IEHPL","38DCH97KHHO4I6P2AJ31XKZ17OGJQZ","","null","<img src=""img/land6.png"" style=""width:200px; border:14px solid green;"">","null","","","","","","","","","",""
"","image-keyboard-response","94","168079","0.0-94.0","35USIKEBNS29DYVX1AMX95VFNCN6N5","A22BBAU24IEHPL","38DCH97KHHO4I6P2AJ31XKZ17OGJQZ","","784.7999999970198","img/land4.png","74","785.8999999985099","1","1","1","2","1,0.5,0.5,0.5,1,0.5,0.5,0.5,1","0.5,1,0.5,0.5,0.5,1,1,0.5,0.5","3","",""
"","html-keyboard-response","95","168389","0.0-95.0","35USIKEBNS29DYVX1AMX95VFNCN6N5","A22BBAU24IEHPL","38DCH97KHHO4I6P2AJ31XKZ17OGJQZ","","null","<img src=""img/land4.png"" style=""width:200px; border:14px solid green;"">","null","","","","","","","","","",""
"","image-keyboard-response","96","168699","0.0-96.0","35USIKEBNS29DYVX1AMX95VFNCN6N5","A22BBAU24IEHPL","38DCH97KHHO4I6P2AJ31XKZ17OGJQZ","","308.79999999701977","img/land4.png","74","309.70000000298023","1","1","1","2","1,0.5,0.5,0.5,1,0.5,0.5,0.5,1","0.5,1,0.5,0.5,0.5,1,1,0.5,0.5","3","",""
"","html-keyboard-response","97","169005","0.0-97.0","35USIKEBNS29DYVX1AMX95VFNCN6N5","A22BBAU24IEHPL","38DCH97KHHO4I6P2AJ31XKZ17OGJQZ","","null","<img src=""img/land4.png"" style=""width:200px; border:14px solid green;"">","null","","","","","","","","","",""
"","image-keyboard-response","98","169269","0.0-98.0","35USIKEBNS29DYVX1AMX95VFNCN6N5","A22BBAU24IEHPL","38DCH97KHHO4I6P2AJ31XKZ17OGJQZ","","262.5999999977648","img/land5.png","74","263.69999999925494","1","1","3","2","1,0.5,0.5,0.5,1,0.5,0.5,0.5,1","0.5,1,0.5,0.5,0.5,1,1,0.5,0.5","3","",""
"","html-keyboard-response","99","169573","0.0-99.0","35USIKEBNS29DYVX1AMX95VFNCN6N5","A22BBAU24IEHPL","38DCH97KHHO4I6P2AJ31XKZ17OGJQZ","","null","<img src=""img/land5.png"" style=""width:200px; border:14px solid green;"">","null","","","","","","","","","",""
"","image-keyboard-response","100","170109","0.0-100.0","35USIKEBNS29DYVX1AMX95VFNCN6N5","A22BBAU24IEHPL","38DCH97KHHO4I6P2AJ31XKZ17OGJQZ","","535.5999999977648","img/land4.png","74","536.1999999992549","1","1","1","2","1,0.5,0.5,0.5,1,0.5,0.5,0.5,1","0.5,1,0.5,0.5,0.5,1,1,0.5,0.5","3","",""
"","html-keyboard-response","101","170413","0.0-101.0","35USIKEBNS29DYVX1AMX95VFNCN6N5","A22BBAU24IEHPL","38DCH97KHHO4I6P2AJ31XKZ17OGJQZ","","null","<img src=""img/land4.png"" style=""width:200px; border:14px solid green;"">","null","","","","","","","","","",""
"","image-keyboard-response","102","170599","0.0-102.0","35USIKEBNS29DYVX1AMX95VFNCN6N5","A22BBAU24IEHPL","38DCH97KHHO4I6P2AJ31XKZ17OGJQZ","","185","img/land4.png","74","186","1","0","1","2","1,0.5,0.5,0.5,1,0.5,0.5,0.5,1","0.5,1,0.5,0.5,0.5,1,1,0.5,0.5","3","",""
"","html-keyboard-response","103","170901","0.0-103.0","35USIKEBNS29DYVX1AMX95VFNCN6N5","A22BBAU24IEHPL","38DCH97KHHO4I6P2AJ31XKZ17OGJQZ","","null","<img src=""img/land4.png"" style=""width:200px;border:14px solid red;"">","null","","","","","","","","","",""
"","image-keyboard-response","104","171679","0.0-104.0","35USIKEBNS29DYVX1AMX95VFNCN6N5","A22BBAU24IEHPL","38DCH97KHHO4I6P2AJ31XKZ17OGJQZ","","777","img/land5.png","76","777.9000000022352","3","1","3","2","1,0.5,0.5,0.5,1,0.5,0.5,0.5,1","0.5,1,0.5,0.5,0.5,1,1,0.5,0.5","3","",""
"","html-keyboard-response","105","171989","0.0-105.0","35USIKEBNS29DYVX1AMX95VFNCN6N5","A22BBAU24IEHPL","38DCH97KHHO4I6P2AJ31XKZ17OGJQZ","","null","<img src=""img/land5.png"" style=""width:200px; border:14px solid green;"">","null","","","","","","","","","",""
"","image-keyboard-response","106","172939","0.0-106.0","35USIKEBNS29DYVX1AMX95VFNCN6N5","A22BBAU24IEHPL","38DCH97KHHO4I6P2AJ31XKZ17OGJQZ","","949.0999999977648","img/land4.png","76","950","3","0","1","2","1,0.5,0.5,0.5,1,0.5,0.5,0.5,1","0.5,1,0.5,0.5,0.5,1,1,0.5,0.5","3","",""
"","html-keyboard-response","107","173248","0.0-107.0","35USIKEBNS29DYVX1AMX95VFNCN6N5","A22BBAU24IEHPL","38DCH97KHHO4I6P2AJ31XKZ17OGJQZ","","null","<img src=""img/land4.png"" style=""width:200px;border:14px solid red;"">","null","","","","","","","","","",""
"","image-keyboard-response","108","173529","0.0-108.0","35USIKEBNS29DYVX1AMX95VFNCN6N5","A22BBAU24IEHPL","38DCH97KHHO4I6P2AJ31XKZ17OGJQZ","","279.69999999925494","img/land4.png","74","280.69999999925494","1","0","1","2","1,0.5,0.5,0.5,1,0.5,0.5,0.5,1","0.5,1,0.5,0.5,0.5,1,1,0.5,0.5","3","",""
"","html-keyboard-response","109","173837","0.0-109.0","35USIKEBNS29DYVX1AMX95VFNCN6N5","A22BBAU24IEHPL","38DCH97KHHO4I6P2AJ31XKZ17OGJQZ","","null","<img src=""img/land4.png"" style=""width:200px;border:14px solid red;"">","null","","","","","","","","","",""
"","image-keyboard-response","110","174829","0.0-110.0","35USIKEBNS29DYVX1AMX95VFNCN6N5","A22BBAU24IEHPL","38DCH97KHHO4I6P2AJ31XKZ17OGJQZ","","990.8000000007451","img/land4.png","75","991.8000000007451","2","1","1","2","1,0.5,0.5,0.5,1,0.5,0.5,0.5,1","0.5,1,0.5,0.5,0.5,1,1,0.5,0.5","3","",""
"","html-keyboard-response","111","175133","0.0-111.0","35USIKEBNS29DYVX1AMX95VFNCN6N5","A22BBAU24IEHPL","38DCH97KHHO4I6P2AJ31XKZ17OGJQZ","","null","<img src=""img/land4.png"" style=""width:200px; border:14px solid green;"">","null","","","","","","","","","",""
"","image-keyboard-response","112","175469","0.0-112.0","35USIKEBNS29DYVX1AMX95VFNCN6N5","A22BBAU24IEHPL","38DCH97KHHO4I6P2AJ31XKZ17OGJQZ","","334.69999999925494","img/land6.png","75","335.80000000074506","2","1","2","2","1,0.5,0.5,0.5,1,0.5,0.5,0.5,1","0.5,1,0.5,0.5,0.5,1,1,0.5,0.5","3","",""
"","html-keyboard-response","113","175773","0.0-113.0","35USIKEBNS29DYVX1AMX95VFNCN6N5","A22BBAU24IEHPL","38DCH97KHHO4I6P2AJ31XKZ17OGJQZ","","null","<img src=""img/land6.png"" style=""width:200px; border:14px solid green;"">","null","","","","","","","","","",""
"","image-keyboard-response","114","176099","0.0-114.0","35USIKEBNS29DYVX1AMX95VFNCN6N5","A22BBAU24IEHPL","38DCH97KHHO4I6P2AJ31XKZ17OGJQZ","","324.69999999925494","img/land4.png","75","325.69999999925494","2","1","1","2","1,0.5,0.5,0.5,1,0.5,0.5,0.5,1","0.5,1,0.5,0.5,0.5,1,1,0.5,0.5","3","",""
"","html-keyboard-response","115","176405","0.0-115.0","35USIKEBNS29DYVX1AMX95VFNCN6N5","A22BBAU24IEHPL","38DCH97KHHO4I6P2AJ31XKZ17OGJQZ","","null","<img src=""img/land4.png"" style=""width:200px; border:14px solid green;"">","null","","","","","","","","","",""
"","image-keyboard-response","116","176649","0.0-116.0","35USIKEBNS29DYVX1AMX95VFNCN6N5","A22BBAU24IEHPL","38DCH97KHHO4I6P2AJ31XKZ17OGJQZ","","242.59999999776483","img/land5.png","75","243.60000000149012","2","0","3","2","1,0.5,0.5,0.5,1,0.5,0.5,0.5,1","0.5,1,0.5,0.5,0.5,1,1,0.5,0.5","3","",""
"","html-keyboard-response","117","176957","0.0-117.0","35USIKEBNS29DYVX1AMX95VFNCN6N5","A22BBAU24IEHPL","38DCH97KHHO4I6P2AJ31XKZ17OGJQZ","","null","<img src=""img/land5.png"" style=""width:200px;border:14px solid red;"">","null","","","","","","","","","",""
"","image-keyboard-response","118","177509","0.0-118.0","35USIKEBNS29DYVX1AMX95VFNCN6N5","A22BBAU24IEHPL","38DCH97KHHO4I6P2AJ31XKZ17OGJQZ","","550.6999999992549","img/land5.png","76","551.7000000029802","3","0","3","2","1,0.5,0.5,0.5,1,0.5,0.5,0.5,1","0.5,1,0.5,0.5,0.5,1,1,0.5,0.5","3","",""
"","html-keyboard-response","119","177812","0.0-119.0","35USIKEBNS29DYVX1AMX95VFNCN6N5","A22BBAU24IEHPL","38DCH97KHHO4I6P2AJ31XKZ17OGJQZ","","null","<img src=""img/land5.png"" style=""width:200px;border:14px solid red;"">","null","","","","","","","","","",""
"","image-keyboard-response","120","178439","0.0-120.0","35USIKEBNS29DYVX1AMX95VFNCN6N5","A22BBAU24IEHPL","38DCH97KHHO4I6P2AJ31XKZ17OGJQZ","","625.3999999985099","img/land4.png","74","626.2999999970198","1","1","1","2","1,0.5,0.5,0.5,1,0.5,0.5,0.5,1","0.5,1,0.5,0.5,0.5,1,1,0.5,0.5","3","",""
"","html-keyboard-response","121","178740","0.0-121.0","35USIKEBNS29DYVX1AMX95VFNCN6N5","A22BBAU24IEHPL","38DCH97KHHO4I6P2AJ31XKZ17OGJQZ","","null","<img src=""img/land4.png"" style=""width:200px; border:14px solid green;"">","null","","","","","","","","","",""
"","image-keyboard-response","122","179139","0.0-122.0","35USIKEBNS29DYVX1AMX95VFNCN6N5","A22BBAU24IEHPL","38DCH97KHHO4I6P2AJ31XKZ17OGJQZ","","397.20000000298023","img/land4.png","74","398.30000000074506","1","0","1","2","1,0.5,0.5,0.5,1,0.5,0.5,0.5,1","0.5,1,0.5,0.5,0.5,1,1,0.5,0.5","3","",""
"","html-keyboard-response","123","179444","0.0-123.0","35USIKEBNS29DYVX1AMX95VFNCN6N5","A22BBAU24IEHPL","38DCH97KHHO4I6P2AJ31XKZ17OGJQZ","","null","<img src=""img/land4.png"" style=""width:200px;border:14px solid red;"">","null","","","","","","","","","",""
"","image-keyboard-response","124","179899","0.0-124.0","35USIKEBNS29DYVX1AMX95VFNCN6N5","A22BBAU24IEHPL","38DCH97KHHO4I6P2AJ31XKZ17OGJQZ","","453.30000000074506","img/land4.png","75","454.0999999977648","2","1","1","2","1,0.5,0.5,0.5,1,0.5,0.5,0.5,1","0.5,1,0.5,0.5,0.5,1,1,0.5,0.5","3","",""
"","html-keyboard-response","125","180211","0.0-125.0","35USIKEBNS29DYVX1AMX95VFNCN6N5","A22BBAU24IEHPL","38DCH97KHHO4I6P2AJ31XKZ17OGJQZ","","null","<img src=""img/land4.png"" style=""width:200px; border:14px solid green;"">","null","","","","","","","","","",""
"","image-keyboard-response","126","180550","0.0-126.0","35USIKEBNS29DYVX1AMX95VFNCN6N5","A22BBAU24IEHPL","38DCH97KHHO4I6P2AJ31XKZ17OGJQZ","","338.20000000298023","img/land4.png","75","339.0999999977648","2","1","1","2","1,0.5,0.5,0.5,1,0.5,0.5,0.5,1","0.5,1,0.5,0.5,0.5,1,1,0.5,0.5","3","",""
"","html-keyboard-response","127","180853","0.0-127.0","35USIKEBNS29DYVX1AMX95VFNCN6N5","A22BBAU24IEHPL","38DCH97KHHO4I6P2AJ31XKZ17OGJQZ","","null","<img src=""img/land4.png"" style=""width:200px; border:14px solid green;"">","null","","","","","","","","","",""
"","image-keyboard-response","128","181139","0.0-128.0","35USIKEBNS29DYVX1AMX95VFNCN6N5","A22BBAU24IEHPL","38DCH97KHHO4I6P2AJ31XKZ17OGJQZ","","284.8999999985099","img/land4.png","75","286","2","1","1","2","1,0.5,0.5,0.5,1,0.5,0.5,0.5,1","0.5,1,0.5,0.5,0.5,1,1,0.5,0.5","3","",""
"","html-keyboard-response","129","181445","0.0-129.0","35USIKEBNS29DYVX1AMX95VFNCN6N5","A22BBAU24IEHPL","38DCH97KHHO4I6P2AJ31XKZ17OGJQZ","","null","<img src=""img/land4.png"" style=""width:200px; border:14px solid green;"">","null","","","","","","","","","",""
"","image-keyboard-response","130","182479","0.0-130.0","35USIKEBNS29DYVX1AMX95VFNCN6N5","A22BBAU24IEHPL","38DCH97KHHO4I6P2AJ31XKZ17OGJQZ","","1033","img/land5.png","75","1034","2","1","3","2","1,0.5,0.5,0.5,1,0.5,0.5,0.5,1","0.5,1,0.5,0.5,0.5,1,1,0.5,0.5","3","",""
"","html-keyboard-response","131","182781","0.0-131.0","35USIKEBNS29DYVX1AMX95VFNCN6N5","A22BBAU24IEHPL","38DCH97KHHO4I6P2AJ31XKZ17OGJQZ","","null","<img src=""img/land5.png"" style=""width:200px; border:14px solid green;"">","null","","","","","","","","","",""
"","image-keyboard-response","132","183089","0.0-132.0","35USIKEBNS29DYVX1AMX95VFNCN6N5","A22BBAU24IEHPL","38DCH97KHHO4I6P2AJ31XKZ17OGJQZ","","306.69999999925494","img/land5.png","75","307.79999999701977","2","1","3","2","1,0.5,0.5,0.5,1,0.5,0.5,0.5,1","0.5,1,0.5,0.5,0.5,1,1,0.5,0.5","3","",""
"","html-keyboard-response","133","183397","0.0-133.0","35USIKEBNS29DYVX1AMX95VFNCN6N5","A22BBAU24IEHPL","38DCH97KHHO4I6P2AJ31XKZ17OGJQZ","","null","<img src=""img/land5.png"" style=""width:200px; border:14px solid green;"">","null","","","","","","","","","",""
"","image-keyboard-response","134","183589","0.0-134.0","35USIKEBNS29DYVX1AMX95VFNCN6N5","A22BBAU24IEHPL","38DCH97KHHO4I6P2AJ31XKZ17OGJQZ","","191.30000000074506","img/land4.png","75","192.30000000074506","2","1","1","2","1,0.5,0.5,0.5,1,0.5,0.5,0.5,1","0.5,1,0.5,0.5,0.5,1,1,0.5,0.5","3","",""
"","html-keyboard-response","135","183893","0.0-135.0","35USIKEBNS29DYVX1AMX95VFNCN6N5","A22BBAU24IEHPL","38DCH97KHHO4I6P2AJ31XKZ17OGJQZ","","null","<img src=""img/land4.png"" style=""width:200px; border:14px solid green;"">","null","","","","","","","","","",""
"","image-keyboard-response","136","184149","0.0-136.0","35USIKEBNS29DYVX1AMX95VFNCN6N5","A22BBAU24IEHPL","38DCH97KHHO4I6P2AJ31XKZ17OGJQZ","","254.80000000074506","img/land4.png","75","255.60000000149012","2","1","1","2","1,0.5,0.5,0.5,1,0.5,0.5,0.5,1","0.5,1,0.5,0.5,0.5,1,1,0.5,0.5","3","",""
"","html-keyboard-response","137","184453","0.0-137.0","35USIKEBNS29DYVX1AMX95VFNCN6N5","A22BBAU24IEHPL","38DCH97KHHO4I6P2AJ31XKZ17OGJQZ","","null","<img src=""img/land4.png"" style=""width:200px; border:14px solid green;"">","null","","","","","","","","","",""
"","image-keyboard-response","138","184629","0.0-138.0","35USIKEBNS29DYVX1AMX95VFNCN6N5","A22BBAU24IEHPL","38DCH97KHHO4I6P2AJ31XKZ17OGJQZ","","174.5","img/land4.png","75","175.5","2","1","1","2","1,0.5,0.5,0.5,1,0.5,0.5,0.5,1","0.5,1,0.5,0.5,0.5,1,1,0.5,0.5","3","",""
"","html-keyboard-response","139","184933","0.0-139.0","35USIKEBNS29DYVX1AMX95VFNCN6N5","A22BBAU24IEHPL","38DCH97KHHO4I6P2AJ31XKZ17OGJQZ","","null","<img src=""img/land4.png"" style=""width:200px; border:14px solid green;"">","null","","","","","","","","","",""
"","image-keyboard-response","140","185069","0.0-140.0","35USIKEBNS29DYVX1AMX95VFNCN6N5","A22BBAU24IEHPL","38DCH97KHHO4I6P2AJ31XKZ17OGJQZ","","134.69999999925494","img/land4.png","75","135.69999999925494","2","1","1","2","1,0.5,0.5,0.5,1,0.5,0.5,0.5,1","0.5,1,0.5,0.5,0.5,1,1,0.5,0.5","3","",""
"","html-keyboard-response","141","185373","0.0-141.0","35USIKEBNS29DYVX1AMX95VFNCN6N5","A22BBAU24IEHPL","38DCH97KHHO4I6P2AJ31XKZ17OGJQZ","","null","<img src=""img/land4.png"" style=""width:200px; border:14px solid green;"">","null","","","","","","","","","",""
"","image-keyboard-response","142","185489","0.0-142.0","35USIKEBNS29DYVX1AMX95VFNCN6N5","A22BBAU24IEHPL","38DCH97KHHO4I6P2AJ31XKZ17OGJQZ","","114.69999999925494","img/land4.png","75","115.69999999925494","2","1","1","2","1,0.5,0.5,0.5,1,0.5,0.5,0.5,1","0.5,1,0.5,0.5,0.5,1,1,0.5,0.5","3","",""
"","html-keyboard-response","143","185797","0.0-143.0","35USIKEBNS29DYVX1AMX95VFNCN6N5","A22BBAU24IEHPL","38DCH97KHHO4I6P2AJ31XKZ17OGJQZ","","null","<img src=""img/land4.png"" style=""width:200px; border:14px solid green;"">","null","","","","","","","","","",""
"","image-keyboard-response","144","185889","0.0-144.0","35USIKEBNS29DYVX1AMX95VFNCN6N5","A22BBAU24IEHPL","38DCH97KHHO4I6P2AJ31XKZ17OGJQZ","","90.69999999925494","img/land6.png","75","91.69999999925494","2","1","2","2","1,0.5,0.5,0.5,1,0.5,0.5,0.5,1","0.5,1,0.5,0.5,0.5,1,1,0.5,0.5","3","",""
"","html-keyboard-response","145","186197","0.0-145.0","35USIKEBNS29DYVX1AMX95VFNCN6N5","A22BBAU24IEHPL","38DCH97KHHO4I6P2AJ31XKZ17OGJQZ","","null","<img src=""img/land6.png"" style=""width:200px; border:14px solid green;"">","null","","","","","","","","","",""
"","image-keyboard-response","146","186549","0.0-146.0","35USIKEBNS29DYVX1AMX95VFNCN6N5","A22BBAU24IEHPL","38DCH97KHHO4I6P2AJ31XKZ17OGJQZ","","351.19999999925494","img/land6.png","75","351.9000000022352","2","1","2","2","1,0.5,0.5,0.5,1,0.5,0.5,0.5,1","0.5,1,0.5,0.5,0.5,1,1,0.5,0.5","3","",""
"","html-keyboard-response","147","186853","0.0-147.0","35USIKEBNS29DYVX1AMX95VFNCN6N5","A22BBAU24IEHPL","38DCH97KHHO4I6P2AJ31XKZ17OGJQZ","","null","<img src=""img/land6.png"" style=""width:200px; border:14px solid green;"">","null","","","","","","","","","",""
"","image-keyboard-response","148","186959","0.0-148.0","35USIKEBNS29DYVX1AMX95VFNCN6N5","A22BBAU24IEHPL","38DCH97KHHO4I6P2AJ31XKZ17OGJQZ","","104.5","img/land4.png","75","105.60000000149012","2","1","1","2","1,0.5,0.5,0.5,1,0.5,0.5,0.5,1","0.5,1,0.5,0.5,0.5,1,1,0.5,0.5","3","",""
"","html-keyboard-response","149","187261","0.0-149.0","35USIKEBNS29DYVX1AMX95VFNCN6N5","A22BBAU24IEHPL","38DCH97KHHO4I6P2AJ31XKZ17OGJQZ","","null","<img src=""img/land4.png"" style=""width:200px; border:14px solid green;"">","null","","","","","","","","","",""
"","image-keyboard-response","150","187339","0.0-150.0","35USIKEBNS29DYVX1AMX95VFNCN6N5","A22BBAU24IEHPL","38DCH97KHHO4I6P2AJ31XKZ17OGJQZ","","76.5","img/land5.png","75","77.60000000149012","2","0","3","2","1,0.5,0.5,0.5,1,0.5,0.5,0.5,1","0.5,1,0.5,0.5,0.5,1,1,0.5,0.5","3","",""
"","html-keyboard-response","151","187645","0.0-151.0","35USIKEBNS29DYVX1AMX95VFNCN6N5","A22BBAU24IEHPL","38DCH97KHHO4I6P2AJ31XKZ17OGJQZ","","null","<img src=""img/land5.png"" style=""width:200px;border:14px solid red;"">","null","","","","","","","","","",""
"","image-keyboard-response","152","187999","0.0-152.0","35USIKEBNS29DYVX1AMX95VFNCN6N5","A22BBAU24IEHPL","38DCH97KHHO4I6P2AJ31XKZ17OGJQZ","","352.3999999985099","img/land5.png","76","353.5","3","1","3","2","1,0.5,0.5,0.5,1,0.5,0.5,0.5,1","0.5,1,0.5,0.5,0.5,1,1,0.5,0.5","3","",""
"","html-keyboard-response","153","188301","0.0-153.0","35USIKEBNS29DYVX1AMX95VFNCN6N5","A22BBAU24IEHPL","38DCH97KHHO4I6P2AJ31XKZ17OGJQZ","","null","<img src=""img/land5.png"" style=""width:200px; border:14px solid green;"">","null","","","","","","","","","",""
"","image-keyboard-response","154","188409","0.0-154.0","35USIKEBNS29DYVX1AMX95VFNCN6N5","A22BBAU24IEHPL","38DCH97KHHO4I6P2AJ31XKZ17OGJQZ","","106.39999999850988","img/land4.png","76","107.39999999850988","3","1","1","2","1,0.5,0.5,0.5,1,0.5,0.5,0.5,1","0.5,1,0.5,0.5,0.5,1,1,0.5,0.5","3","",""
"","html-keyboard-response","155","188716","0.0-155.0","35USIKEBNS29DYVX1AMX95VFNCN6N5","A22BBAU24IEHPL","38DCH97KHHO4I6P2AJ31XKZ17OGJQZ","","null","<img src=""img/land4.png"" style=""width:200px; border:14px solid green;"">","null","","","","","","","","","",""
"","image-keyboard-response","156","189109","0.0-156.0","35USIKEBNS29DYVX1AMX95VFNCN6N5","A22BBAU24IEHPL","38DCH97KHHO4I6P2AJ31XKZ17OGJQZ","","390.79999999701977","img/land4.png","76","391.8999999985099","3","1","1","2","1,0.5,0.5,0.5,1,0.5,0.5,0.5,1","0.5,1,0.5,0.5,0.5,1,1,0.5,0.5","3","",""
"","html-keyboard-response","157","189413","0.0-157.0","35USIKEBNS29DYVX1AMX95VFNCN6N5","A22BBAU24IEHPL","38DCH97KHHO4I6P2AJ31XKZ17OGJQZ","","null","<img src=""img/land4.png"" style=""width:200px; border:14px solid green;"">","null","","","","","","","","","",""
"","image-keyboard-response","158","189509","0.0-158.0","35USIKEBNS29DYVX1AMX95VFNCN6N5","A22BBAU24IEHPL","38DCH97KHHO4I6P2AJ31XKZ17OGJQZ","","94.79999999701977","img/land5.png","76","95.80000000074506","3","0","3","2","1,0.5,0.5,0.5,1,0.5,0.5,0.5,1","0.5,1,0.5,0.5,0.5,1,1,0.5,0.5","3","",""
"","html-keyboard-response","159","189813","0.0-159.0","35USIKEBNS29DYVX1AMX95VFNCN6N5","A22BBAU24IEHPL","38DCH97KHHO4I6P2AJ31XKZ17OGJQZ","","null","<img src=""img/land5.png"" style=""width:200px;border:14px solid red;"">","null","","","","","","","","","",""
"","image-keyboard-response","160","190248","0.0-160.0","35USIKEBNS29DYVX1AMX95VFNCN6N5","A22BBAU24IEHPL","38DCH97KHHO4I6P2AJ31XKZ17OGJQZ","","434.69999999925494","img/land4.png","75","435.6000000014901","2","1","1","2","1,0.5,0.5,0.5,1,0.5,0.5,0.5,1","0.5,1,0.5,0.5,0.5,1,1,0.5,0.5","3","",""
"","html-keyboard-response","161","190557","0.0-161.0","35USIKEBNS29DYVX1AMX95VFNCN6N5","A22BBAU24IEHPL","38DCH97KHHO4I6P2AJ31XKZ17OGJQZ","","null","<img src=""img/land4.png"" style=""width:200px; border:14px solid green;"">","null","","","","","","","","","",""
"","image-keyboard-response","162","190739","0.0-162.0","35USIKEBNS29DYVX1AMX95VFNCN6N5","A22BBAU24IEHPL","38DCH97KHHO4I6P2AJ31XKZ17OGJQZ","","181.09999999776483","img/land4.png","75","181.80000000074506","2","1","1","2","1,0.5,0.5,0.5,1,0.5,0.5,0.5,1","0.5,1,0.5,0.5,0.5,1,1,0.5,0.5","3","",""
"","html-keyboard-response","163","191045","0.0-163.0","35USIKEBNS29DYVX1AMX95VFNCN6N5","A22BBAU24IEHPL","38DCH97KHHO4I6P2AJ31XKZ17OGJQZ","","null","<img src=""img/land4.png"" style=""width:200px; border:14px solid green;"">","null","","","","","","","","","",""
"","image-keyboard-response","164","191149","0.0-164.0","35USIKEBNS29DYVX1AMX95VFNCN6N5","A22BBAU24IEHPL","38DCH97KHHO4I6P2AJ31XKZ17OGJQZ","","102.69999999925494","img/land4.png","75","103.80000000074506","2","1","1","2","1,0.5,0.5,0.5,1,0.5,0.5,0.5,1","0.5,1,0.5,0.5,0.5,1,1,0.5,0.5","3","",""
"","html-keyboard-response","165","191453","0.0-165.0","35USIKEBNS29DYVX1AMX95VFNCN6N5","A22BBAU24IEHPL","38DCH97KHHO4I6P2AJ31XKZ17OGJQZ","","null","<img src=""img/land4.png"" style=""width:200px; border:14px solid green;"">","null","","","","","","","","","",""
"","image-keyboard-response","166","191519","0.0-166.0","35USIKEBNS29DYVX1AMX95VFNCN6N5","A22BBAU24IEHPL","38DCH97KHHO4I6P2AJ31XKZ17OGJQZ","","64.69999999925494","img/land5.png","75","65.80000000074506","2","1","3","2","1,0.5,0.5,0.5,1,0.5,0.5,0.5,1","0.5,1,0.5,0.5,0.5,1,1,0.5,0.5","3","",""
"","html-keyboard-response","167","191821","0.0-167.0","35USIKEBNS29DYVX1AMX95VFNCN6N5","A22BBAU24IEHPL","38DCH97KHHO4I6P2AJ31XKZ17OGJQZ","","null","<img src=""img/land5.png"" style=""width:200px; border:14px solid green;"">","null","","","","","","","","","",""
"","image-keyboard-response","168","192170","0.0-168.0","35USIKEBNS29DYVX1AMX95VFNCN6N5","A22BBAU24IEHPL","38DCH97KHHO4I6P2AJ31XKZ17OGJQZ","","347.69999999925494","img/land5.png","75","348.6000000014901","2","1","3","2","1,0.5,0.5,0.5,1,0.5,0.5,0.5,1","0.5,1,0.5,0.5,0.5,1,1,0.5,0.5","3","",""
"","html-keyboard-response","169","192477","0.0-169.0","35USIKEBNS29DYVX1AMX95VFNCN6N5","A22BBAU24IEHPL","38DCH97KHHO4I6P2AJ31XKZ17OGJQZ","","null","<img src=""img/land5.png"" style=""width:200px; border:14px solid green;"">","null","","","","","","","","","",""
"","image-keyboard-response","170","192669","0.0-170.0","35USIKEBNS29DYVX1AMX95VFNCN6N5","A22BBAU24IEHPL","38DCH97KHHO4I6P2AJ31XKZ17OGJQZ","","190.30000000074506","img/land5.png","75","191.40000000223517","2","0","3","2","1,0.5,0.5,0.5,1,0.5,0.5,0.5,1","0.5,1,0.5,0.5,0.5,1,1,0.5,0.5","3","",""
"","html-keyboard-response","171","192973","0.0-171.0","35USIKEBNS29DYVX1AMX95VFNCN6N5","A22BBAU24IEHPL","38DCH97KHHO4I6P2AJ31XKZ17OGJQZ","","null","<img src=""img/land5.png"" style=""width:200px;border:14px solid red;"">","null","","","","","","","","","",""
"","image-keyboard-response","172","193430","0.0-172.0","35USIKEBNS29DYVX1AMX95VFNCN6N5","A22BBAU24IEHPL","38DCH97KHHO4I6P2AJ31XKZ17OGJQZ","","455.30000000074506","img/land5.png","76","456.30000000074506","3","1","3","2","1,0.5,0.5,0.5,1,0.5,0.5,0.5,1","0.5,1,0.5,0.5,0.5,1,1,0.5,0.5","3","",""
"","html-keyboard-response","173","193733","0.0-173.0","35USIKEBNS29DYVX1AMX95VFNCN6N5","A22BBAU24IEHPL","38DCH97KHHO4I6P2AJ31XKZ17OGJQZ","","null","<img src=""img/land5.png"" style=""width:200px; border:14px solid green;"">","null","","","","","","","","","",""
"","image-keyboard-response","174","194739","0.0-174.0","35USIKEBNS29DYVX1AMX95VFNCN6N5","A22BBAU24IEHPL","38DCH97KHHO4I6P2AJ31XKZ17OGJQZ","","1004.8000000007451","img/land6.png","76","1005.8000000007451","3","1","2","2","1,0.5,0.5,0.5,1,0.5,0.5,0.5,1","0.5,1,0.5,0.5,0.5,1,1,0.5,0.5","3","",""
"","html-keyboard-response","175","195045","0.0-175.0","35USIKEBNS29DYVX1AMX95VFNCN6N5","A22BBAU24IEHPL","38DCH97KHHO4I6P2AJ31XKZ17OGJQZ","","null","<img src=""img/land6.png"" style=""width:200px; border:14px solid green;"">","null","","","","","","","","","",""
"","image-keyboard-response","176","195358","0.0-176.0","35USIKEBNS29DYVX1AMX95VFNCN6N5","A22BBAU24IEHPL","38DCH97KHHO4I6P2AJ31XKZ17OGJQZ","","312.0999999977648","img/land4.png","76","313.20000000298023","3","0","1","2","1,0.5,0.5,0.5,1,0.5,0.5,0.5,1","0.5,1,0.5,0.5,0.5,1,1,0.5,0.5","3","",""
"","html-keyboard-response","177","195661","0.0-177.0","35USIKEBNS29DYVX1AMX95VFNCN6N5","A22BBAU24IEHPL","38DCH97KHHO4I6P2AJ31XKZ17OGJQZ","","null","<img src=""img/land4.png"" style=""width:200px;border:14px solid red;"">","null","","","","","","","","","",""
"","image-keyboard-response","178","196369","0.0-178.0","35USIKEBNS29DYVX1AMX95VFNCN6N5","A22BBAU24IEHPL","38DCH97KHHO4I6P2AJ31XKZ17OGJQZ","","706.1999999992549","img/land5.png","76","707.2000000029802","3","0","3","2","1,0.5,0.5,0.5,1,0.5,0.5,0.5,1","0.5,1,0.5,0.5,0.5,1,1,0.5,0.5","3","",""
"","html-keyboard-response","179","196677","0.0-179.0","35USIKEBNS29DYVX1AMX95VFNCN6N5","A22BBAU24IEHPL","38DCH97KHHO4I6P2AJ31XKZ17OGJQZ","","null","<img src=""img/land5.png"" style=""width:200px;border:14px solid red;"">","null","","","","","","","","","",""
"","image-keyboard-response","180","197069","0.0-180.0","35USIKEBNS29DYVX1AMX95VFNCN6N5","A22BBAU24IEHPL","38DCH97KHHO4I6P2AJ31XKZ17OGJQZ","","391.0999999977648","img/land5.png","75","392.30000000074506","2","0","3","2","1,0.5,0.5,0.5,1,0.5,0.5,0.5,1","0.5,1,0.5,0.5,0.5,1,1,0.5,0.5","3","",""
"","html-keyboard-response","181","197373","0.0-181.0","35USIKEBNS29DYVX1AMX95VFNCN6N5","A22BBAU24IEHPL","38DCH97KHHO4I6P2AJ31XKZ17OGJQZ","","null","<img src=""img/land5.png"" style=""width:200px;border:14px solid red;"">","null","","","","","","","","","",""
"","image-keyboard-response","182","197638","0.0-182.0","35USIKEBNS29DYVX1AMX95VFNCN6N5","A22BBAU24IEHPL","38DCH97KHHO4I6P2AJ31XKZ17OGJQZ","","264.19999999925494","img/land5.png","75","265.20000000298023","2","1","3","2","1,0.5,0.5,0.5,1,0.5,0.5,0.5,1","0.5,1,0.5,0.5,0.5,1,1,0.5,0.5","3","",""
"","html-keyboard-response","183","197941","0.0-183.0","35USIKEBNS29DYVX1AMX95VFNCN6N5","A22BBAU24IEHPL","38DCH97KHHO4I6P2AJ31XKZ17OGJQZ","","null","<img src=""img/land5.png"" style=""width:200px; border:14px solid green;"">","null","","","","","","","","","",""
"","image-keyboard-response","184","198218","0.0-184.0","35USIKEBNS29DYVX1AMX95VFNCN6N5","A22BBAU24IEHPL","38DCH97KHHO4I6P2AJ31XKZ17OGJQZ","","275.9000000022352","img/land5.png","75","276.9000000022352","2","0","3","2","1,0.5,0.5,0.5,1,0.5,0.5,0.5,1","0.5,1,0.5,0.5,0.5,1,1,0.5,0.5","3","",""
"","html-keyboard-response","185","198525","0.0-185.0","35USIKEBNS29DYVX1AMX95VFNCN6N5","A22BBAU24IEHPL","38DCH97KHHO4I6P2AJ31XKZ17OGJQZ","","null","<img src=""img/land5.png"" style=""width:200px;border:14px solid red;"">","null","","","","","","","","","",""
"","image-keyboard-response","186","198918","0.0-186.0","35USIKEBNS29DYVX1AMX95VFNCN6N5","A22BBAU24IEHPL","38DCH97KHHO4I6P2AJ31XKZ17OGJQZ","","392","img/land5.png","75","393.1000000014901","2","1","3","2","1,0.5,0.5,0.5,1,0.5,0.5,0.5,1","0.5,1,0.5,0.5,0.5,1,1,0.5,0.5","3","",""
"","html-keyboard-response","187","199221","0.0-187.0","35USIKEBNS29DYVX1AMX95VFNCN6N5","A22BBAU24IEHPL","38DCH97KHHO4I6P2AJ31XKZ17OGJQZ","","null","<img src=""img/land5.png"" style=""width:200px; border:14px solid green;"">","null","","","","","","","","","",""
"","image-keyboard-response","188","199848","0.0-188.0","35USIKEBNS29DYVX1AMX95VFNCN6N5","A22BBAU24IEHPL","38DCH97KHHO4I6P2AJ31XKZ17OGJQZ","","625.8999999985099","img/land6.png","75","627","2","1","2","2","1,0.5,0.5,0.5,1,0.5,0.5,0.5,1","0.5,1,0.5,0.5,0.5,1,1,0.5,0.5","3","",""
"","html-keyboard-response","189","200156","0.0-189.0","35USIKEBNS29DYVX1AMX95VFNCN6N5","A22BBAU24IEHPL","38DCH97KHHO4I6P2AJ31XKZ17OGJQZ","","null","<img src=""img/land6.png"" style=""width:200px; border:14px solid green;"">","null","","","","","","","","","",""
"","image-keyboard-response","190","200338","0.0-190.0","35USIKEBNS29DYVX1AMX95VFNCN6N5","A22BBAU24IEHPL","38DCH97KHHO4I6P2AJ31XKZ17OGJQZ","","180.89999999850988","img/land5.png","75","181.89999999850988","2","0","3","2","1,0.5,0.5,0.5,1,0.5,0.5,0.5,1","0.5,1,0.5,0.5,0.5,1,1,0.5,0.5","3","",""
"","html-keyboard-response","191","200644","0.0-191.0","35USIKEBNS29DYVX1AMX95VFNCN6N5","A22BBAU24IEHPL","38DCH97KHHO4I6P2AJ31XKZ17OGJQZ","","null","<img src=""img/land5.png"" style=""width:200px;border:14px solid red;"">","null","","","","","","","","","",""
"","image-keyboard-response","192","201188","0.0-192.0","35USIKEBNS29DYVX1AMX95VFNCN6N5","A22BBAU24IEHPL","38DCH97KHHO4I6P2AJ31XKZ17OGJQZ","","542.8000000007451","img/land4.png","76","543.8999999985099","3","1","1","2","1,0.5,0.5,0.5,1,0.5,0.5,0.5,1","0.5,1,0.5,0.5,0.5,1,1,0.5,0.5","3","",""
"","html-keyboard-response","193","201492","0.0-193.0","35USIKEBNS29DYVX1AMX95VFNCN6N5","A22BBAU24IEHPL","38DCH97KHHO4I6P2AJ31XKZ17OGJQZ","","null","<img src=""img/land4.png"" style=""width:200px; border:14px solid green;"">","null","","","","","","","","","",""
"","image-keyboard-response","194","201718","0.0-194.0","35USIKEBNS29DYVX1AMX95VFNCN6N5","A22BBAU24IEHPL","38DCH97KHHO4I6P2AJ31XKZ17OGJQZ","","224.80000000074506","img/land5.png","76","225.69999999925494","3","0","3","2","1,0.5,0.5,0.5,1,0.5,0.5,0.5,1","0.5,1,0.5,0.5,0.5,1,1,0.5,0.5","3","",""
"","html-keyboard-response","195","202020","0.0-195.0","35USIKEBNS29DYVX1AMX95VFNCN6N5","A22BBAU24IEHPL","38DCH97KHHO4I6P2AJ31XKZ17OGJQZ","","null","<img src=""img/land5.png"" style=""width:200px;border:14px solid red;"">","null","","","","","","","","","",""
"","image-keyboard-response","196","202618","0.0-196.0","35USIKEBNS29DYVX1AMX95VFNCN6N5","A22BBAU24IEHPL","38DCH97KHHO4I6P2AJ31XKZ17OGJQZ","","596.8000000007451","img/land6.png","76","597.7999999970198","3","1","2","2","1,0.5,0.5,0.5,1,0.5,0.5,0.5,1","0.5,1,0.5,0.5,0.5,1,1,0.5,0.5","3","",""
"","html-keyboard-response","197","202924","0.0-197.0","35USIKEBNS29DYVX1AMX95VFNCN6N5","A22BBAU24IEHPL","38DCH97KHHO4I6P2AJ31XKZ17OGJQZ","","null","<img src=""img/land6.png"" style=""width:200px; border:14px solid green;"">","null","","","","","","","","","",""
"","image-keyboard-response","198","203248","0.0-198.0","35USIKEBNS29DYVX1AMX95VFNCN6N5","A22BBAU24IEHPL","38DCH97KHHO4I6P2AJ31XKZ17OGJQZ","","322.70000000298023","img/land4.png","76","323.6000000014901","3","0","1","2","1,0.5,0.5,0.5,1,0.5,0.5,0.5,1","0.5,1,0.5,0.5,0.5,1,1,0.5,0.5","3","",""
"","html-keyboard-response","199","203556","0.0-199.0","35USIKEBNS29DYVX1AMX95VFNCN6N5","A22BBAU24IEHPL","38DCH97KHHO4I6P2AJ31XKZ17OGJQZ","","null","<img src=""img/land4.png"" style=""width:200px;border:14px solid red;"">","null","","","","","","","","","",""
"","image-keyboard-response","200","204108","0.0-200.0","35USIKEBNS29DYVX1AMX95VFNCN6N5","A22BBAU24IEHPL","38DCH97KHHO4I6P2AJ31XKZ17OGJQZ","","551.2000000029802","img/land4.png","75","552","2","1","1","2","1,0.5,0.5,0.5,1,0.5,0.5,0.5,1","0.5,1,0.5,0.5,0.5,1,1,0.5,0.5","3","",""
"","html-keyboard-response","201","204412","0.0-201.0","35USIKEBNS29DYVX1AMX95VFNCN6N5","A22BBAU24IEHPL","38DCH97KHHO4I6P2AJ31XKZ17OGJQZ","","null","<img src=""img/land4.png"" style=""width:200px; border:14px solid green;"">","null","","","","","","","","","",""
"","image-keyboard-response","202","204708","0.0-202.0","35USIKEBNS29DYVX1AMX95VFNCN6N5","A22BBAU24IEHPL","38DCH97KHHO4I6P2AJ31XKZ17OGJQZ","","294.6000000014901","img/land4.png","75","295.69999999925494","2","1","1","2","1,0.5,0.5,0.5,1,0.5,0.5,0.5,1","0.5,1,0.5,0.5,0.5,1,1,0.5,0.5","3","",""
"","html-keyboard-response","203","205012","0.0-203.0","35USIKEBNS29DYVX1AMX95VFNCN6N5","A22BBAU24IEHPL","38DCH97KHHO4I6P2AJ31XKZ17OGJQZ","","null","<img src=""img/land4.png"" style=""width:200px; border:14px solid green;"">","null","","","","","","","","","",""
"","image-keyboard-response","204","205279","0.0-204.0","35USIKEBNS29DYVX1AMX95VFNCN6N5","A22BBAU24IEHPL","38DCH97KHHO4I6P2AJ31XKZ17OGJQZ","","264.8999999985099","img/land6.png","75","265.80000000074506","2","1","2","2","1,0.5,0.5,0.5,1,0.5,0.5,0.5,1","0.5,1,0.5,0.5,0.5,1,1,0.5,0.5","3","",""
"","html-keyboard-response","205","205580","0.0-205.0","35USIKEBNS29DYVX1AMX95VFNCN6N5","A22BBAU24IEHPL","38DCH97KHHO4I6P2AJ31XKZ17OGJQZ","","null","<img src=""img/land6.png"" style=""width:200px; border:14px solid green;"">","null","","","","","","","","","",""
"","image-keyboard-response","206","205898","0.0-206.0","35USIKEBNS29DYVX1AMX95VFNCN6N5","A22BBAU24IEHPL","38DCH97KHHO4I6P2AJ31XKZ17OGJQZ","","316.70000000298023","img/land4.png","75","317.5999999977648","2","1","1","2","1,0.5,0.5,0.5,1,0.5,0.5,0.5,1","0.5,1,0.5,0.5,0.5,1,1,0.5,0.5","3","",""
"","html-keyboard-response","207","206205","0.0-207.0","35USIKEBNS29DYVX1AMX95VFNCN6N5","A22BBAU24IEHPL","38DCH97KHHO4I6P2AJ31XKZ17OGJQZ","","null","<img src=""img/land4.png"" style=""width:200px; border:14px solid green;"">","null","","","","","","","","","",""
"","image-keyboard-response","208","206449","0.0-208.0","35USIKEBNS29DYVX1AMX95VFNCN6N5","A22BBAU24IEHPL","38DCH97KHHO4I6P2AJ31XKZ17OGJQZ","","243.5","img/land4.png","75","244.59999999776483","2","1","1","2","1,0.5,0.5,0.5,1,0.5,0.5,0.5,1","0.5,1,0.5,0.5,0.5,1,1,0.5,0.5","3","",""
"","html-keyboard-response","209","206757","0.0-209.0","35USIKEBNS29DYVX1AMX95VFNCN6N5","A22BBAU24IEHPL","38DCH97KHHO4I6P2AJ31XKZ17OGJQZ","","null","<img src=""img/land4.png"" style=""width:200px; border:14px solid green;"">","null","","","","","","","","","",""
"","image-keyboard-response","210","206948","0.0-210.0","35USIKEBNS29DYVX1AMX95VFNCN6N5","A22BBAU24IEHPL","38DCH97KHHO4I6P2AJ31XKZ17OGJQZ","","190.5","img/land4.png","75","191.5","2","1","1","2","1,0.5,0.5,0.5,1,0.5,0.5,0.5,1","0.5,1,0.5,0.5,0.5,1,1,0.5,0.5","3","",""
"","html-keyboard-response","211","207253","0.0-211.0","35USIKEBNS29DYVX1AMX95VFNCN6N5","A22BBAU24IEHPL","38DCH97KHHO4I6P2AJ31XKZ17OGJQZ","","null","<img src=""img/land4.png"" style=""width:200px; border:14px solid green;"">","null","","","","","","","","","",""
"","image-keyboard-response","212","207608","0.0-212.0","35USIKEBNS29DYVX1AMX95VFNCN6N5","A22BBAU24IEHPL","38DCH97KHHO4I6P2AJ31XKZ17OGJQZ","","354.3999999985099","img/land4.png","75","355.5","2","1","1","2","1,0.5,0.5,0.5,1,0.5,0.5,0.5,1","0.5,1,0.5,0.5,0.5,1,1,0.5,0.5","3","",""
"","html-keyboard-response","213","207917","0.0-213.0","35USIKEBNS29DYVX1AMX95VFNCN6N5","A22BBAU24IEHPL","38DCH97KHHO4I6P2AJ31XKZ17OGJQZ","","null","<img src=""img/land4.png"" style=""width:200px; border:14px solid green;"">","null","","","","","","","","","",""
"","image-keyboard-response","214","208389","0.0-214.0","35USIKEBNS29DYVX1AMX95VFNCN6N5","A22BBAU24IEHPL","38DCH97KHHO4I6P2AJ31XKZ17OGJQZ","","470.3999999985099","img/land6.png","75","471.4000000022352","2","1","2","2","1,0.5,0.5,0.5,1,0.5,0.5,0.5,1","0.5,1,0.5,0.5,0.5,1,1,0.5,0.5","3","",""
"","html-keyboard-response","215","208693","0.0-215.0","35USIKEBNS29DYVX1AMX95VFNCN6N5","A22BBAU24IEHPL","38DCH97KHHO4I6P2AJ31XKZ17OGJQZ","","null","<img src=""img/land6.png"" style=""width:200px; border:14px solid green;"">","null","","","","","","","","","",""
"","image-keyboard-response","216","208939","0.0-216.0","35USIKEBNS29DYVX1AMX95VFNCN6N5","A22BBAU24IEHPL","38DCH97KHHO4I6P2AJ31XKZ17OGJQZ","","244.29999999701977","img/land6.png","75","245.40000000223517","2","1","2","2","1,0.5,0.5,0.5,1,0.5,0.5,0.5,1","0.5,1,0.5,0.5,0.5,1,1,0.5,0.5","3","",""
"","html-keyboard-response","217","209245","0.0-217.0","35USIKEBNS29DYVX1AMX95VFNCN6N5","A22BBAU24IEHPL","38DCH97KHHO4I6P2AJ31XKZ17OGJQZ","","null","<img src=""img/land6.png"" style=""width:200px; border:14px solid green;"">","null","","","","","","","","","",""
"","image-keyboard-response","218","209399","0.0-218.0","35USIKEBNS29DYVX1AMX95VFNCN6N5","A22BBAU24IEHPL","38DCH97KHHO4I6P2AJ31XKZ17OGJQZ","","152.19999999925494","img/land5.png","75","153.30000000074506","2","0","3","2","1,0.5,0.5,0.5,1,0.5,0.5,0.5,1","0.5,1,0.5,0.5,0.5,1,1,0.5,0.5","3","",""
"","html-keyboard-response","219","209701","0.0-219.0","35USIKEBNS29DYVX1AMX95VFNCN6N5","A22BBAU24IEHPL","38DCH97KHHO4I6P2AJ31XKZ17OGJQZ","","null","<img src=""img/land5.png"" style=""width:200px;border:14px solid red;"">","null","","","","","","","","","",""
"","image-keyboard-response","220","210640","0.0-220.0","35USIKEBNS29DYVX1AMX95VFNCN6N5","A22BBAU24IEHPL","38DCH97KHHO4I6P2AJ31XKZ17OGJQZ","","937.3000000007451","img/land6.png","75","938.5","2","1","2","2","1,0.5,0.5,0.5,1,0.5,0.5,0.5,1","0.5,1,0.5,0.5,0.5,1,1,0.5,0.5","3","",""
"","html-keyboard-response","221","210949","0.0-221.0","35USIKEBNS29DYVX1AMX95VFNCN6N5","A22BBAU24IEHPL","38DCH97KHHO4I6P2AJ31XKZ17OGJQZ","","null","<img src=""img/land6.png"" style=""width:200px; border:14px solid green;"">","null","","","","","","","","","",""
"","image-keyboard-response","222","211179","0.0-222.0","35USIKEBNS29DYVX1AMX95VFNCN6N5","A22BBAU24IEHPL","38DCH97KHHO4I6P2AJ31XKZ17OGJQZ","","228.69999999925494","img/land6.png","75","229.69999999925494","2","1","2","2","1,0.5,0.5,0.5,1,0.5,0.5,0.5,1","0.5,1,0.5,0.5,0.5,1,1,0.5,0.5","3","",""
"","html-keyboard-response","223","211485","0.0-223.0","35USIKEBNS29DYVX1AMX95VFNCN6N5","A22BBAU24IEHPL","38DCH97KHHO4I6P2AJ31XKZ17OGJQZ","","null","<img src=""img/land6.png"" style=""width:200px; border:14px solid green;"">","null","","","","","","","","","",""
"","image-keyboard-response","224","211649","0.0-224.0","35USIKEBNS29DYVX1AMX95VFNCN6N5","A22BBAU24IEHPL","38DCH97KHHO4I6P2AJ31XKZ17OGJQZ","","162.59999999776483","img/land4.png","75","163.69999999925494","2","1","1","2","1,0.5,0.5,0.5,1,0.5,0.5,0.5,1","0.5,1,0.5,0.5,0.5,1,1,0.5,0.5","3","",""
"","html-keyboard-response","225","211957","0.0-225.0","35USIKEBNS29DYVX1AMX95VFNCN6N5","A22BBAU24IEHPL","38DCH97KHHO4I6P2AJ31XKZ17OGJQZ","","null","<img src=""img/land4.png"" style=""width:200px; border:14px solid green;"">","null","","","","","","","","","",""
"","image-keyboard-response","226","212179","0.0-226.0","35USIKEBNS29DYVX1AMX95VFNCN6N5","A22BBAU24IEHPL","38DCH97KHHO4I6P2AJ31XKZ17OGJQZ","","220.5","img/land4.png","75","221.60000000149012","2","1","1","2","1,0.5,0.5,0.5,1,0.5,0.5,0.5,1","0.5,1,0.5,0.5,0.5,1,1,0.5,0.5","3","",""
"","html-keyboard-response","227","212485","0.0-227.0","35USIKEBNS29DYVX1AMX95VFNCN6N5","A22BBAU24IEHPL","38DCH97KHHO4I6P2AJ31XKZ17OGJQZ","","null","<img src=""img/land4.png"" style=""width:200px; border:14px solid green;"">","null","","","","","","","","","",""
"","image-keyboard-response","228","212649","0.0-228.0","35USIKEBNS29DYVX1AMX95VFNCN6N5","A22BBAU24IEHPL","38DCH97KHHO4I6P2AJ31XKZ17OGJQZ","","162.39999999850988","img/land5.png","75","163.5","2","0","3","2","1,0.5,0.5,0.5,1,0.5,0.5,0.5,1","0.5,1,0.5,0.5,0.5,1,1,0.5,0.5","3","",""
"","html-keyboard-response","229","212957","0.0-229.0","35USIKEBNS29DYVX1AMX95VFNCN6N5","A22BBAU24IEHPL","38DCH97KHHO4I6P2AJ31XKZ17OGJQZ","","null","<img src=""img/land5.png"" style=""width:200px;border:14px solid red;"">","null","","","","","","","","","",""
"","image-keyboard-response","230","213519","0.0-230.0","35USIKEBNS29DYVX1AMX95VFNCN6N5","A22BBAU24IEHPL","38DCH97KHHO4I6P2AJ31XKZ17OGJQZ","","560.4000000022352","img/land4.png","75","561.4000000022352","2","1","1","2","1,0.5,0.5,0.5,1,0.5,0.5,0.5,1","0.5,1,0.5,0.5,0.5,1,1,0.5,0.5","3","",""
"","html-keyboard-response","231","213821","0.0-231.0","35USIKEBNS29DYVX1AMX95VFNCN6N5","A22BBAU24IEHPL","38DCH97KHHO4I6P2AJ31XKZ17OGJQZ","","null","<img src=""img/land4.png"" style=""width:200px; border:14px solid green;"">","null","","","","","","","","","",""
"","image-keyboard-response","232","214159","0.0-232.0","35USIKEBNS29DYVX1AMX95VFNCN6N5","A22BBAU24IEHPL","38DCH97KHHO4I6P2AJ31XKZ17OGJQZ","","336.30000000074506","img/land4.png","75","337.5","2","1","1","2","1,0.5,0.5,0.5,1,0.5,0.5,0.5,1","0.5,1,0.5,0.5,0.5,1,1,0.5,0.5","3","",""
"","html-keyboard-response","233","214462","0.0-233.0","35USIKEBNS29DYVX1AMX95VFNCN6N5","A22BBAU24IEHPL","38DCH97KHHO4I6P2AJ31XKZ17OGJQZ","","null","<img src=""img/land4.png"" style=""width:200px; border:14px solid green;"">","null","","","","","","","","","",""
"","image-keyboard-response","234","214609","0.0-234.0","35USIKEBNS29DYVX1AMX95VFNCN6N5","A22BBAU24IEHPL","38DCH97KHHO4I6P2AJ31XKZ17OGJQZ","","145.79999999701977","img/land4.png","75","146.80000000074506","2","1","1","2","1,0.5,0.5,0.5,1,0.5,0.5,0.5,1","0.5,1,0.5,0.5,0.5,1,1,0.5,0.5","3","",""
"","html-keyboard-response","235","214918","0.0-235.0","35USIKEBNS29DYVX1AMX95VFNCN6N5","A22BBAU24IEHPL","38DCH97KHHO4I6P2AJ31XKZ17OGJQZ","","null","<img src=""img/land4.png"" style=""width:200px; border:14px solid green;"">","null","","","","","","","","","",""
"","image-keyboard-response","236","215229","0.0-236.0","35USIKEBNS29DYVX1AMX95VFNCN6N5","A22BBAU24IEHPL","38DCH97KHHO4I6P2AJ31XKZ17OGJQZ","","309.69999999925494","img/land4.png","75","310.70000000298023","2","1","1","2","1,0.5,0.5,0.5,1,0.5,0.5,0.5,1","0.5,1,0.5,0.5,0.5,1,1,0.5,0.5","3","",""
"","html-keyboard-response","237","215534","0.0-237.0","35USIKEBNS29DYVX1AMX95VFNCN6N5","A22BBAU24IEHPL","38DCH97KHHO4I6P2AJ31XKZ17OGJQZ","","null","<img src=""img/land4.png"" style=""width:200px; border:14px solid green;"">","null","","","","","","","","","",""
"","image-keyboard-response","238","215749","0.0-238.0","35USIKEBNS29DYVX1AMX95VFNCN6N5","A22BBAU24IEHPL","38DCH97KHHO4I6P2AJ31XKZ17OGJQZ","","213.90000000223517","img/land4.png","75","214.89999999850988","2","1","1","2","1,0.5,0.5,0.5,1,0.5,0.5,0.5,1","0.5,1,0.5,0.5,0.5,1,1,0.5,0.5","3","",""
"","html-keyboard-response","239","216054","0.0-239.0","35USIKEBNS29DYVX1AMX95VFNCN6N5","A22BBAU24IEHPL","38DCH97KHHO4I6P2AJ31XKZ17OGJQZ","","null","<img src=""img/land4.png"" style=""width:200px; border:14px solid green;"">","null","","","","","","","","","",""
"","image-keyboard-response","240","216219","0.0-240.0","35USIKEBNS29DYVX1AMX95VFNCN6N5","A22BBAU24IEHPL","38DCH97KHHO4I6P2AJ31XKZ17OGJQZ","","163.60000000149012","img/land5.png","75","164.80000000074506","2","1","3","2","1,0.5,0.5,0.5,1,0.5,0.5,0.5,1","0.5,1,0.5,0.5,0.5,1,1,0.5,0.5","3","",""
"","html-keyboard-response","241","216526","0.0-241.0","35USIKEBNS29DYVX1AMX95VFNCN6N5","A22BBAU24IEHPL","38DCH97KHHO4I6P2AJ31XKZ17OGJQZ","","null","<img src=""img/land5.png"" style=""width:200px; border:14px solid green;"">","null","","","","","","","","","",""
"","image-keyboard-response","242","216880","0.0-242.0","35USIKEBNS29DYVX1AMX95VFNCN6N5","A22BBAU24IEHPL","38DCH97KHHO4I6P2AJ31XKZ17OGJQZ","","352.69999999925494","img/land6.png","75","353.6000000014901","2","0","2","2","1,0.5,0.5,0.5,1,0.5,0.5,0.5,1","0.5,1,0.5,0.5,0.5,1,1,0.5,0.5","3","",""
"","html-keyboard-response","243","217190","0.0-243.0","35USIKEBNS29DYVX1AMX95VFNCN6N5","A22BBAU24IEHPL","38DCH97KHHO4I6P2AJ31XKZ17OGJQZ","","null","<img src=""img/land6.png"" style=""width:200px;border:14px solid red;"">","null","","","","","","","","","",""
"","image-keyboard-response","244","217640","0.0-244.0","35USIKEBNS29DYVX1AMX95VFNCN6N5","A22BBAU24IEHPL","38DCH97KHHO4I6P2AJ31XKZ17OGJQZ","","448.6000000014901","img/land6.png","76","449.6000000014901","3","1","2","2","1,0.5,0.5,0.5,1,0.5,0.5,0.5,1","0.5,1,0.5,0.5,0.5,1,1,0.5,0.5","3","",""
"","html-keyboard-response","245","217950","0.0-245.0","35USIKEBNS29DYVX1AMX95VFNCN6N5","A22BBAU24IEHPL","38DCH97KHHO4I6P2AJ31XKZ17OGJQZ","","null","<img src=""img/land6.png"" style=""width:200px; border:14px solid green;"">","null","","","","","","","","","",""
"","image-keyboard-response","246","218138","0.0-246.0","35USIKEBNS29DYVX1AMX95VFNCN6N5","A22BBAU24IEHPL","38DCH97KHHO4I6P2AJ31XKZ17OGJQZ","","187.39999999850988","img/land6.png","76","188.60000000149012","3","1","2","2","1,0.5,0.5,0.5,1,0.5,0.5,0.5,1","0.5,1,0.5,0.5,0.5,1,1,0.5,0.5","3","",""
"","html-keyboard-response","247","218446","0.0-247.0","35USIKEBNS29DYVX1AMX95VFNCN6N5","A22BBAU24IEHPL","38DCH97KHHO4I6P2AJ31XKZ17OGJQZ","","null","<img src=""img/land6.png"" style=""width:200px; border:14px solid green;"">","null","","","","","","","","","",""
"","image-keyboard-response","248","218599","0.0-248.0","35USIKEBNS29DYVX1AMX95VFNCN6N5","A22BBAU24IEHPL","38DCH97KHHO4I6P2AJ31XKZ17OGJQZ","","151.5","img/land4.png","76","152.60000000149012","3","1","1","2","1,0.5,0.5,0.5,1,0.5,0.5,0.5,1","0.5,1,0.5,0.5,0.5,1,1,0.5,0.5","3","",""
"","html-keyboard-response","249","218901","0.0-249.0","35USIKEBNS29DYVX1AMX95VFNCN6N5","A22BBAU24IEHPL","38DCH97KHHO4I6P2AJ31XKZ17OGJQZ","","null","<img src=""img/land4.png"" style=""width:200px; border:14px solid green;"">","null","","","","","","","","","",""
"","image-keyboard-response","250","219368","0.0-250.0","35USIKEBNS29DYVX1AMX95VFNCN6N5","A22BBAU24IEHPL","38DCH97KHHO4I6P2AJ31XKZ17OGJQZ","","466.3999999985099","img/land6.png","76","467.5","3","1","2","2","1,0.5,0.5,0.5,1,0.5,0.5,0.5,1","0.5,1,0.5,0.5,0.5,1,1,0.5,0.5","3","",""
"","html-keyboard-response","251","219677","0.0-251.0","35USIKEBNS29DYVX1AMX95VFNCN6N5","A22BBAU24IEHPL","38DCH97KHHO4I6P2AJ31XKZ17OGJQZ","","null","<img src=""img/land6.png"" style=""width:200px; border:14px solid green;"">","null","","","","","","","","","",""
"","image-keyboard-response","252","219858","0.0-252.0","35USIKEBNS29DYVX1AMX95VFNCN6N5","A22BBAU24IEHPL","38DCH97KHHO4I6P2AJ31XKZ17OGJQZ","","180.5","img/land6.png","76","181.39999999850988","3","1","2","2","1,0.5,0.5,0.5,1,0.5,0.5,0.5,1","0.5,1,0.5,0.5,0.5,1,1,0.5,0.5","3","",""
"","html-keyboard-response","253","220165","0.0-253.0","35USIKEBNS29DYVX1AMX95VFNCN6N5","A22BBAU24IEHPL","38DCH97KHHO4I6P2AJ31XKZ17OGJQZ","","null","<img src=""img/land6.png"" style=""width:200px; border:14px solid green;"">","null","","","","","","","","","",""
"","image-keyboard-response","254","220329","0.0-254.0","35USIKEBNS29DYVX1AMX95VFNCN6N5","A22BBAU24IEHPL","38DCH97KHHO4I6P2AJ31XKZ17OGJQZ","","162.40000000223517","img/land4.png","76","163.40000000223517","3","1","1","2","1,0.5,0.5,0.5,1,0.5,0.5,0.5,1","0.5,1,0.5,0.5,0.5,1,1,0.5,0.5","3","",""
"","html-keyboard-response","255","220637","0.0-255.0","35USIKEBNS29DYVX1AMX95VFNCN6N5","A22BBAU24IEHPL","38DCH97KHHO4I6P2AJ31XKZ17OGJQZ","","null","<img src=""img/land4.png"" style=""width:200px; border:14px solid green;"">","null","","","","","","","","","",""
"","image-keyboard-response","256","220838","0.0-256.0","35USIKEBNS29DYVX1AMX95VFNCN6N5","A22BBAU24IEHPL","38DCH97KHHO4I6P2AJ31XKZ17OGJQZ","","200.39999999850988","img/land4.png","76","201.30000000074506","3","0","1","2","1,0.5,0.5,0.5,1,0.5,0.5,0.5,1","0.5,1,0.5,0.5,0.5,1,1,0.5,0.5","3","",""
"","html-keyboard-response","257","221141","0.0-257.0","35USIKEBNS29DYVX1AMX95VFNCN6N5","A22BBAU24IEHPL","38DCH97KHHO4I6P2AJ31XKZ17OGJQZ","","null","<img src=""img/land4.png"" style=""width:200px;border:14px solid red;"">","null","","","","","","","","","",""
"","image-keyboard-response","258","222248","0.0-258.0","35USIKEBNS29DYVX1AMX95VFNCN6N5","A22BBAU24IEHPL","38DCH97KHHO4I6P2AJ31XKZ17OGJQZ","","1106.199999999255","img/land4.png","76","1107.300000000745","3","0","1","2","1,0.5,0.5,0.5,1,0.5,0.5,0.5,1","0.5,1,0.5,0.5,0.5,1,1,0.5,0.5","3","",""
"","html-keyboard-response","259","222557","0.0-259.0","35USIKEBNS29DYVX1AMX95VFNCN6N5","A22BBAU24IEHPL","38DCH97KHHO4I6P2AJ31XKZ17OGJQZ","","null","<img src=""img/land4.png"" style=""width:200px;border:14px solid red;"">","null","","","","","","","","","",""
"","image-keyboard-response","260","223048","0.0-260.0","35USIKEBNS29DYVX1AMX95VFNCN6N5","A22BBAU24IEHPL","38DCH97KHHO4I6P2AJ31XKZ17OGJQZ","","490.19999999925494","img/land4.png","75","491.30000000074506","2","1","1","2","1,0.5,0.5,0.5,1,0.5,0.5,0.5,1","0.5,1,0.5,0.5,0.5,1,1,0.5,0.5","3","",""
"","html-keyboard-response","261","223357","0.0-261.0","35USIKEBNS29DYVX1AMX95VFNCN6N5","A22BBAU24IEHPL","38DCH97KHHO4I6P2AJ31XKZ17OGJQZ","","null","<img src=""img/land4.png"" style=""width:200px; border:14px solid green;"">","null","","","","","","","","","",""
"","image-keyboard-response","262","223459","0.0-262.0","35USIKEBNS29DYVX1AMX95VFNCN6N5","A22BBAU24IEHPL","38DCH97KHHO4I6P2AJ31XKZ17OGJQZ","","101.10000000149012","img/land4.png","75","102.09999999776483","2","1","1","2","1,0.5,0.5,0.5,1,0.5,0.5,0.5,1","0.5,1,0.5,0.5,0.5,1,1,0.5,0.5","3","",""
"","html-keyboard-response","263","223765","0.0-263.0","35USIKEBNS29DYVX1AMX95VFNCN6N5","A22BBAU24IEHPL","38DCH97KHHO4I6P2AJ31XKZ17OGJQZ","","null","<img src=""img/land4.png"" style=""width:200px; border:14px solid green;"">","null","","","","","","","","","",""
"","image-keyboard-response","264","223908","0.0-264.0","35USIKEBNS29DYVX1AMX95VFNCN6N5","A22BBAU24IEHPL","38DCH97KHHO4I6P2AJ31XKZ17OGJQZ","","142.19999999925494","img/land4.png","75","143.19999999925494","2","1","1","2","1,0.5,0.5,0.5,1,0.5,0.5,0.5,1","0.5,1,0.5,0.5,0.5,1,1,0.5,0.5","3","",""
"","html-keyboard-response","265","224213","0.0-265.0","35USIKEBNS29DYVX1AMX95VFNCN6N5","A22BBAU24IEHPL","38DCH97KHHO4I6P2AJ31XKZ17OGJQZ","","null","<img src=""img/land4.png"" style=""width:200px; border:14px solid green;"">","null","","","","","","","","","",""
"","image-keyboard-response","266","224348","0.0-266.0","35USIKEBNS29DYVX1AMX95VFNCN6N5","A22BBAU24IEHPL","38DCH97KHHO4I6P2AJ31XKZ17OGJQZ","","133.80000000074506","img/land4.png","75","135.10000000149012","2","1","1","2","1,0.5,0.5,0.5,1,0.5,0.5,0.5,1","0.5,1,0.5,0.5,0.5,1,1,0.5,0.5","3","",""
"","html-keyboard-response","267","224653","0.0-267.0","35USIKEBNS29DYVX1AMX95VFNCN6N5","A22BBAU24IEHPL","38DCH97KHHO4I6P2AJ31XKZ17OGJQZ","","null","<img src=""img/land4.png"" style=""width:200px; border:14px solid green;"">","null","","","","","","","","","",""
"","image-keyboard-response","268","224848","0.0-268.0","35USIKEBNS29DYVX1AMX95VFNCN6N5","A22BBAU24IEHPL","38DCH97KHHO4I6P2AJ31XKZ17OGJQZ","","194","img/land4.png","75","195.19999999925494","2","1","1","2","1,0.5,0.5,0.5,1,0.5,0.5,0.5,1","0.5,1,0.5,0.5,0.5,1,1,0.5,0.5","3","",""
"","html-keyboard-response","269","225157","0.0-269.0","35USIKEBNS29DYVX1AMX95VFNCN6N5","A22BBAU24IEHPL","38DCH97KHHO4I6P2AJ31XKZ17OGJQZ","","null","<img src=""img/land4.png"" style=""width:200px; border:14px solid green;"">","null","","","","","","","","","",""
"","image-keyboard-response","270","225248","0.0-270.0","35USIKEBNS29DYVX1AMX95VFNCN6N5","A22BBAU24IEHPL","38DCH97KHHO4I6P2AJ31XKZ17OGJQZ","","90.09999999776483","img/land4.png","75","91.09999999776483","2","1","1","2","1,0.5,0.5,0.5,1,0.5,0.5,0.5,1","0.5,1,0.5,0.5,0.5,1,1,0.5,0.5","3","",""
"","html-keyboard-response","271","225557","0.0-271.0","35USIKEBNS29DYVX1AMX95VFNCN6N5","A22BBAU24IEHPL","38DCH97KHHO4I6P2AJ31XKZ17OGJQZ","","null","<img src=""img/land4.png"" style=""width:200px; border:14px solid green;"">","null","","","","","","","","","",""
"","image-keyboard-response","272","225688","0.0-272.0","35USIKEBNS29DYVX1AMX95VFNCN6N5","A22BBAU24IEHPL","38DCH97KHHO4I6P2AJ31XKZ17OGJQZ","","130","img/land5.png","75","131","2","0","3","2","1,0.5,0.5,0.5,1,0.5,0.5,0.5,1","0.5,1,0.5,0.5,0.5,1,1,0.5,0.5","3","",""
"","html-keyboard-response","273","225997","0.0-273.0","35USIKEBNS29DYVX1AMX95VFNCN6N5","A22BBAU24IEHPL","38DCH97KHHO4I6P2AJ31XKZ17OGJQZ","","null","<img src=""img/land5.png"" style=""width:200px;border:14px solid red;"">","null","","","","","","","","","",""
"","image-keyboard-response","274","226489","0.0-274.0","35USIKEBNS29DYVX1AMX95VFNCN6N5","A22BBAU24IEHPL","38DCH97KHHO4I6P2AJ31XKZ17OGJQZ","","490.3999999985099","img/land4.png","74","491.4000000022352","1","1","1","2","1,0.5,0.5,0.5,1,0.5,0.5,0.5,1","0.5,1,0.5,0.5,0.5,1,1,0.5,0.5","3","",""
"","html-keyboard-response","275","226797","0.0-275.0","35USIKEBNS29DYVX1AMX95VFNCN6N5","A22BBAU24IEHPL","38DCH97KHHO4I6P2AJ31XKZ17OGJQZ","","null","<img src=""img/land4.png"" style=""width:200px; border:14px solid green;"">","null","","","","","","","","","",""
"","image-keyboard-response","276","227338","0.0-276.0","35USIKEBNS29DYVX1AMX95VFNCN6N5","A22BBAU24IEHPL","38DCH97KHHO4I6P2AJ31XKZ17OGJQZ","","539.7000000029802","img/land4.png","74","540.7999999970198","1","0","1","2","1,0.5,0.5,0.5,1,0.5,0.5,0.5,1","0.5,1,0.5,0.5,0.5,1,1,0.5,0.5","3","",""
"","html-keyboard-response","277","227645","0.0-277.0","35USIKEBNS29DYVX1AMX95VFNCN6N5","A22BBAU24IEHPL","38DCH97KHHO4I6P2AJ31XKZ17OGJQZ","","null","<img src=""img/land4.png"" style=""width:200px;border:14px solid red;"">","null","","","","","","","","","",""
"","image-keyboard-response","278","227838","0.0-278.0","35USIKEBNS29DYVX1AMX95VFNCN6N5","A22BBAU24IEHPL","38DCH97KHHO4I6P2AJ31XKZ17OGJQZ","","191.70000000298023","img/land4.png","75","192.69999999925494","2","1","1","2","1,0.5,0.5,0.5,1,0.5,0.5,0.5,1","0.5,1,0.5,0.5,0.5,1,1,0.5,0.5","3","",""
"","html-keyboard-response","279","228141","0.0-279.0","35USIKEBNS29DYVX1AMX95VFNCN6N5","A22BBAU24IEHPL","38DCH97KHHO4I6P2AJ31XKZ17OGJQZ","","null","<img src=""img/land4.png"" style=""width:200px; border:14px solid green;"">","null","","","","","","","","","",""
"","image-keyboard-response","280","228308","0.0-280.0","35USIKEBNS29DYVX1AMX95VFNCN6N5","A22BBAU24IEHPL","38DCH97KHHO4I6P2AJ31XKZ17OGJQZ","","165.60000000149012","img/land4.png","75","166.69999999925494","2","1","1","2","1,0.5,0.5,0.5,1,0.5,0.5,0.5,1","0.5,1,0.5,0.5,0.5,1,1,0.5,0.5","3","",""
"","html-keyboard-response","281","228613","0.0-281.0","35USIKEBNS29DYVX1AMX95VFNCN6N5","A22BBAU24IEHPL","38DCH97KHHO4I6P2AJ31XKZ17OGJQZ","","null","<img src=""img/land4.png"" style=""width:200px; border:14px solid green;"">","null","","","","","","","","","",""
"","image-keyboard-response","282","228778","0.0-282.0","35USIKEBNS29DYVX1AMX95VFNCN6N5","A22BBAU24IEHPL","38DCH97KHHO4I6P2AJ31XKZ17OGJQZ","","163.70000000298023","img/land5.png","75","164.69999999925494","2","0","3","2","1,0.5,0.5,0.5,1,0.5,0.5,0.5,1","0.5,1,0.5,0.5,0.5,1,1,0.5,0.5","3","",""
"","html-keyboard-response","283","229085","0.0-283.0","35USIKEBNS29DYVX1AMX95VFNCN6N5","A22BBAU24IEHPL","38DCH97KHHO4I6P2AJ31XKZ17OGJQZ","","null","<img src=""img/land5.png"" style=""width:200px;border:14px solid red;"">","null","","","","","","","","","",""
"","image-keyboard-response","284","230148","0.0-284.0","35USIKEBNS29DYVX1AMX95VFNCN6N5","A22BBAU24IEHPL","38DCH97KHHO4I6P2AJ31XKZ17OGJQZ","","1061.6000000014901","img/land4.png","75","1062.699999999255","2","1","1","2","1,0.5,0.5,0.5,1,0.5,0.5,0.5,1","0.5,1,0.5,0.5,0.5,1,1,0.5,0.5","3","",""
"","html-keyboard-response","285","230453","0.0-285.0","35USIKEBNS29DYVX1AMX95VFNCN6N5","A22BBAU24IEHPL","38DCH97KHHO4I6P2AJ31XKZ17OGJQZ","","null","<img src=""img/land4.png"" style=""width:200px; border:14px solid green;"">","null","","","","","","","","","",""
"","image-keyboard-response","286","230558","0.0-286.0","35USIKEBNS29DYVX1AMX95VFNCN6N5","A22BBAU24IEHPL","38DCH97KHHO4I6P2AJ31XKZ17OGJQZ","","103.39999999850988","img/land4.png","75","104.5","2","1","1","2","1,0.5,0.5,0.5,1,0.5,0.5,0.5,1","0.5,1,0.5,0.5,0.5,1,1,0.5,0.5","3","",""
"","html-keyboard-response","287","230861","0.0-287.0","35USIKEBNS29DYVX1AMX95VFNCN6N5","A22BBAU24IEHPL","38DCH97KHHO4I6P2AJ31XKZ17OGJQZ","","null","<img src=""img/land4.png"" style=""width:200px; border:14px solid green;"">","null","","","","","","","","","",""
"","image-keyboard-response","288","231048","0.0-288.0","35USIKEBNS29DYVX1AMX95VFNCN6N5","A22BBAU24IEHPL","38DCH97KHHO4I6P2AJ31XKZ17OGJQZ","","185.5","img/land4.png","75","186.59999999776483","2","1","1","2","1,0.5,0.5,0.5,1,0.5,0.5,0.5,1","0.5,1,0.5,0.5,0.5,1,1,0.5,0.5","3","",""
"","html-keyboard-response","289","231358","0.0-289.0","35USIKEBNS29DYVX1AMX95VFNCN6N5","A22BBAU24IEHPL","38DCH97KHHO4I6P2AJ31XKZ17OGJQZ","","null","<img src=""img/land4.png"" style=""width:200px; border:14px solid green;"">","null","","","","","","","","","",""
"","image-keyboard-response","290","231548","0.0-290.0","35USIKEBNS29DYVX1AMX95VFNCN6N5","A22BBAU24IEHPL","38DCH97KHHO4I6P2AJ31XKZ17OGJQZ","","189.29999999701977","img/land4.png","75","190.5","2","1","1","2","1,0.5,0.5,0.5,1,0.5,0.5,0.5,1","0.5,1,0.5,0.5,0.5,1,1,0.5,0.5","3","",""
"","html-keyboard-response","291","231854","0.0-291.0","35USIKEBNS29DYVX1AMX95VFNCN6N5","A22BBAU24IEHPL","38DCH97KHHO4I6P2AJ31XKZ17OGJQZ","","null","<img src=""img/land4.png"" style=""width:200px; border:14px solid green;"">","null","","","","","","","","","",""
"","image-keyboard-response","292","231988","0.0-292.0","35USIKEBNS29DYVX1AMX95VFNCN6N5","A22BBAU24IEHPL","38DCH97KHHO4I6P2AJ31XKZ17OGJQZ","","133.39999999850988","img/land4.png","75","134.5","2","1","1","2","1,0.5,0.5,0.5,1,0.5,0.5,0.5,1","0.5,1,0.5,0.5,0.5,1,1,0.5,0.5","3","",""
"","html-keyboard-response","293","232294","0.0-293.0","35USIKEBNS29DYVX1AMX95VFNCN6N5","A22BBAU24IEHPL","38DCH97KHHO4I6P2AJ31XKZ17OGJQZ","","null","<img src=""img/land4.png"" style=""width:200px; border:14px solid green;"">","null","","","","","","","","","",""
"","image-keyboard-response","294","232448","0.0-294.0","35USIKEBNS29DYVX1AMX95VFNCN6N5","A22BBAU24IEHPL","38DCH97KHHO4I6P2AJ31XKZ17OGJQZ","","153.19999999925494","img/land6.png","75","154.40000000223517","2","1","2","2","1,0.5,0.5,0.5,1,0.5,0.5,0.5,1","0.5,1,0.5,0.5,0.5,1,1,0.5,0.5","3","",""
"","html-keyboard-response","295","232758","0.0-295.0","35USIKEBNS29DYVX1AMX95VFNCN6N5","A22BBAU24IEHPL","38DCH97KHHO4I6P2AJ31XKZ17OGJQZ","","null","<img src=""img/land6.png"" style=""width:200px; border:14px solid green;"">","null","","","","","","","","","",""
"","image-keyboard-response","296","233959","0.0-296.0","35USIKEBNS29DYVX1AMX95VFNCN6N5","A22BBAU24IEHPL","38DCH97KHHO4I6P2AJ31XKZ17OGJQZ","","1200.2999999970198","img/land4.png","75","1201.4000000022352","2","1","1","2","1,0.5,0.5,0.5,1,0.5,0.5,0.5,1","0.5,1,0.5,0.5,0.5,1,1,0.5,0.5","3","",""
"","html-keyboard-response","297","234263","0.0-297.0","35USIKEBNS29DYVX1AMX95VFNCN6N5","A22BBAU24IEHPL","38DCH97KHHO4I6P2AJ31XKZ17OGJQZ","","null","<img src=""img/land4.png"" style=""width:200px; border:14px solid green;"">","null","","","","","","","","","",""
"","image-keyboard-response","298","234488","0.0-298.0","35USIKEBNS29DYVX1AMX95VFNCN6N5","A22BBAU24IEHPL","38DCH97KHHO4I6P2AJ31XKZ17OGJQZ","","224.59999999776483","img/land4.png","75","225.5","2","1","1","2","1,0.5,0.5,0.5,1,0.5,0.5,0.5,1","0.5,1,0.5,0.5,0.5,1,1,0.5,0.5","3","",""
"","html-keyboard-response","299","234797","0.0-299.0","35USIKEBNS29DYVX1AMX95VFNCN6N5","A22BBAU24IEHPL","38DCH97KHHO4I6P2AJ31XKZ17OGJQZ","","null","<img src=""img/land4.png"" style=""width:200px; border:14px solid green;"">","null","","","","","","","","","",""
"","image-keyboard-response","300","234948","0.0-300.0","35USIKEBNS29DYVX1AMX95VFNCN6N5","A22BBAU24IEHPL","38DCH97KHHO4I6P2AJ31XKZ17OGJQZ","","149.69999999925494","img/land6.png","75","150.69999999925494","2","0","2","2","1,0.5,0.5,0.5,1,0.5,0.5,0.5,1","0.5,1,0.5,0.5,0.5,1,1,0.5,0.5","3","",""
"","html-keyboard-response","301","235253","0.0-301.0","35USIKEBNS29DYVX1AMX95VFNCN6N5","A22BBAU24IEHPL","38DCH97KHHO4I6P2AJ31XKZ17OGJQZ","","null","<img src=""img/land6.png"" style=""width:200px;border:14px solid red;"">","null","","","","","","","","","",""
"","image-keyboard-response","302","236649","0.0-302.0","35USIKEBNS29DYVX1AMX95VFNCN6N5","A22BBAU24IEHPL","38DCH97KHHO4I6P2AJ31XKZ17OGJQZ","","1394","img/land1.png","74","1395","1","1","3","1","1,0.5,0.5,0.5,1,0.5,0.5,0.5,1","1,0.5,0.5,0.5,1,0.5,0.5,0.5,1","1","",""
"","html-keyboard-response","303","236957","0.0-303.0","35USIKEBNS29DYVX1AMX95VFNCN6N5","A22BBAU24IEHPL","38DCH97KHHO4I6P2AJ31XKZ17OGJQZ","","null","<img src=""img/land1.png"" style=""width:200px; border:14px solid green;"">","null","","","","","","","","","",""
"","image-keyboard-response","304","237258","0.0-304.0","35USIKEBNS29DYVX1AMX95VFNCN6N5","A22BBAU24IEHPL","38DCH97KHHO4I6P2AJ31XKZ17OGJQZ","","299.4000000022352","img/land1.png","74","300.3999999985099","1","0","3","1","1,0.5,0.5,0.5,1,0.5,0.5,0.5,1","1,0.5,0.5,0.5,1,0.5,0.5,0.5,1","1","",""
"","html-keyboard-response","305","237565","0.0-305.0","35USIKEBNS29DYVX1AMX95VFNCN6N5","A22BBAU24IEHPL","38DCH97KHHO4I6P2AJ31XKZ17OGJQZ","","null","<img src=""img/land1.png"" style=""width:200px;border:14px solid red;"">","null","","","","","","","","","",""
"","image-keyboard-response","306","239468","0.0-306.0","35USIKEBNS29DYVX1AMX95VFNCN6N5","A22BBAU24IEHPL","38DCH97KHHO4I6P2AJ31XKZ17OGJQZ","","1901.800000000745","img/land3.png","74","1903","1","1","2","1","1,0.5,0.5,0.5,1,0.5,0.5,0.5,1","1,0.5,0.5,0.5,1,0.5,0.5,0.5,1","1","",""
"","html-keyboard-response","307","239773","0.0-307.0","35USIKEBNS29DYVX1AMX95VFNCN6N5","A22BBAU24IEHPL","38DCH97KHHO4I6P2AJ31XKZ17OGJQZ","","null","<img src=""img/land3.png"" style=""width:200px; border:14px solid green;"">","null","","","","","","","","","",""
"","image-keyboard-response","308","240318","0.0-308.0","35USIKEBNS29DYVX1AMX95VFNCN6N5","A22BBAU24IEHPL","38DCH97KHHO4I6P2AJ31XKZ17OGJQZ","","543.6000000014901","img/land2.png","74","544.8999999985099","1","1","1","1","1,0.5,0.5,0.5,1,0.5,0.5,0.5,1","1,0.5,0.5,0.5,1,0.5,0.5,0.5,1","1","",""
"","html-keyboard-response","309","240621","0.0-309.0","35USIKEBNS29DYVX1AMX95VFNCN6N5","A22BBAU24IEHPL","38DCH97KHHO4I6P2AJ31XKZ17OGJQZ","","null","<img src=""img/land2.png"" style=""width:200px; border:14px solid green;"">","null","","","","","","","","","",""
"","image-keyboard-response","310","241118","0.0-310.0","35USIKEBNS29DYVX1AMX95VFNCN6N5","A22BBAU24IEHPL","38DCH97KHHO4I6P2AJ31XKZ17OGJQZ","","495.6000000014901","img/land3.png","74","496.6000000014901","1","1","2","1","1,0.5,0.5,0.5,1,0.5,0.5,0.5,1","1,0.5,0.5,0.5,1,0.5,0.5,0.5,1","1","",""
"","html-keyboard-response","311","241421","0.0-311.0","35USIKEBNS29DYVX1AMX95VFNCN6N5","A22BBAU24IEHPL","38DCH97KHHO4I6P2AJ31XKZ17OGJQZ","","null","<img src=""img/land3.png"" style=""width:200px; border:14px solid green;"">","null","","","","","","","","","",""
"","image-keyboard-response","312","241908","0.0-312.0","35USIKEBNS29DYVX1AMX95VFNCN6N5","A22BBAU24IEHPL","38DCH97KHHO4I6P2AJ31XKZ17OGJQZ","","485.6000000014901","img/land3.png","74","486.80000000074506","1","1","2","1","1,0.5,0.5,0.5,1,0.5,0.5,0.5,1","1,0.5,0.5,0.5,1,0.5,0.5,0.5,1","1","",""
"","html-keyboard-response","313","242213","0.0-313.0","35USIKEBNS29DYVX1AMX95VFNCN6N5","A22BBAU24IEHPL","38DCH97KHHO4I6P2AJ31XKZ17OGJQZ","","null","<img src=""img/land3.png"" style=""width:200px; border:14px solid green;"">","null","","","","","","","","","",""
"","image-keyboard-response","314","242618","0.0-314.0","35USIKEBNS29DYVX1AMX95VFNCN6N5","A22BBAU24IEHPL","38DCH97KHHO4I6P2AJ31XKZ17OGJQZ","","403.5","img/land2.png","74","404.6000000014901","1","1","1","1","1,0.5,0.5,0.5,1,0.5,0.5,0.5,1","1,0.5,0.5,0.5,1,0.5,0.5,0.5,1","1","",""
"","html-keyboard-response","315","242925","0.0-315.0","35USIKEBNS29DYVX1AMX95VFNCN6N5","A22BBAU24IEHPL","38DCH97KHHO4I6P2AJ31XKZ17OGJQZ","","null","<img src=""img/land2.png"" style=""width:200px; border:14px solid green;"">","null","","","","","","","","","",""
"","image-keyboard-response","316","243298","0.0-316.0","35USIKEBNS29DYVX1AMX95VFNCN6N5","A22BBAU24IEHPL","38DCH97KHHO4I6P2AJ31XKZ17OGJQZ","","371.6000000014901","img/land2.png","74","372.6000000014901","1","1","1","1","1,0.5,0.5,0.5,1,0.5,0.5,0.5,1","1,0.5,0.5,0.5,1,0.5,0.5,0.5,1","1","",""
"","html-keyboard-response","317","243605","0.0-317.0","35USIKEBNS29DYVX1AMX95VFNCN6N5","A22BBAU24IEHPL","38DCH97KHHO4I6P2AJ31XKZ17OGJQZ","","null","<img src=""img/land2.png"" style=""width:200px; border:14px solid green;"">","null","","","","","","","","","",""
"","image-keyboard-response","318","243888","0.0-318.0","35USIKEBNS29DYVX1AMX95VFNCN6N5","A22BBAU24IEHPL","38DCH97KHHO4I6P2AJ31XKZ17OGJQZ","","281.80000000074506","img/land1.png","74","282.80000000074506","1","1","3","1","1,0.5,0.5,0.5,1,0.5,0.5,0.5,1","1,0.5,0.5,0.5,1,0.5,0.5,0.5,1","1","",""
"","html-keyboard-response","319","244197","0.0-319.0","35USIKEBNS29DYVX1AMX95VFNCN6N5","A22BBAU24IEHPL","38DCH97KHHO4I6P2AJ31XKZ17OGJQZ","","null","<img src=""img/land1.png"" style=""width:200px; border:14px solid green;"">","null","","","","","","","","","",""
"","image-keyboard-response","320","244568","0.0-320.0","35USIKEBNS29DYVX1AMX95VFNCN6N5","A22BBAU24IEHPL","38DCH97KHHO4I6P2AJ31XKZ17OGJQZ","","369.69999999925494","img/land2.png","74","370.9000000022352","1","1","1","1","1,0.5,0.5,0.5,1,0.5,0.5,0.5,1","1,0.5,0.5,0.5,1,0.5,0.5,0.5,1","1","",""
"","html-keyboard-response","321","244877","0.0-321.0","35USIKEBNS29DYVX1AMX95VFNCN6N5","A22BBAU24IEHPL","38DCH97KHHO4I6P2AJ31XKZ17OGJQZ","","null","<img src=""img/land2.png"" style=""width:200px; border:14px solid green;"">","null","","","","","","","","","",""
"","image-keyboard-response","322","245128","0.0-322.0","35USIKEBNS29DYVX1AMX95VFNCN6N5","A22BBAU24IEHPL","38DCH97KHHO4I6P2AJ31XKZ17OGJQZ","","249.80000000074506","img/land2.png","74","250.90000000223517","1","1","1","1","1,0.5,0.5,0.5,1,0.5,0.5,0.5,1","1,0.5,0.5,0.5,1,0.5,0.5,0.5,1","1","",""
"","html-keyboard-response","323","245437","0.0-323.0","35USIKEBNS29DYVX1AMX95VFNCN6N5","A22BBAU24IEHPL","38DCH97KHHO4I6P2AJ31XKZ17OGJQZ","","null","<img src=""img/land2.png"" style=""width:200px; border:14px solid green;"">","null","","","","","","","","","",""
"","image-keyboard-response","324","245738","0.0-324.0","35USIKEBNS29DYVX1AMX95VFNCN6N5","A22BBAU24IEHPL","38DCH97KHHO4I6P2AJ31XKZ17OGJQZ","","299.5","img/land1.png","74","300.6000000014901","1","1","3","1","1,0.5,0.5,0.5,1,0.5,0.5,0.5,1","1,0.5,0.5,0.5,1,0.5,0.5,0.5,1","1","",""
"","html-keyboard-response","325","246045","0.0-325.0","35USIKEBNS29DYVX1AMX95VFNCN6N5","A22BBAU24IEHPL","38DCH97KHHO4I6P2AJ31XKZ17OGJQZ","","null","<img src=""img/land1.png"" style=""width:200px; border:14px solid green;"">","null","","","","","","","","","",""
"","image-keyboard-response","326","246308","0.0-326.0","35USIKEBNS29DYVX1AMX95VFNCN6N5","A22BBAU24IEHPL","38DCH97KHHO4I6P2AJ31XKZ17OGJQZ","","261.6000000014901","img/land1.png","74","262.6000000014901","1","1","3","1","1,0.5,0.5,0.5,1,0.5,0.5,0.5,1","1,0.5,0.5,0.5,1,0.5,0.5,0.5,1","1","",""
"","html-keyboard-response","327","246613","0.0-327.0","35USIKEBNS29DYVX1AMX95VFNCN6N5","A22BBAU24IEHPL","38DCH97KHHO4I6P2AJ31XKZ17OGJQZ","","null","<img src=""img/land1.png"" style=""width:200px; border:14px solid green;"">","null","","","","","","","","","",""
"","image-keyboard-response","328","246858","0.0-328.0","35USIKEBNS29DYVX1AMX95VFNCN6N5","A22BBAU24IEHPL","38DCH97KHHO4I6P2AJ31XKZ17OGJQZ","","243.69999999925494","img/land1.png","74","244.80000000074506","1","0","3","1","1,0.5,0.5,0.5,1,0.5,0.5,0.5,1","1,0.5,0.5,0.5,1,0.5,0.5,0.5,1","1","",""
"","html-keyboard-response","329","247165","0.0-329.0","35USIKEBNS29DYVX1AMX95VFNCN6N5","A22BBAU24IEHPL","38DCH97KHHO4I6P2AJ31XKZ17OGJQZ","","null","<img src=""img/land1.png"" style=""width:200px;border:14px solid red;"">","null","","","","","","","","","",""
"","image-keyboard-response","330","247638","0.0-330.0","35USIKEBNS29DYVX1AMX95VFNCN6N5","A22BBAU24IEHPL","38DCH97KHHO4I6P2AJ31XKZ17OGJQZ","","471.3999999985099","img/land2.png","74","472.5","1","1","1","1","1,0.5,0.5,0.5,1,0.5,0.5,0.5,1","1,0.5,0.5,0.5,1,0.5,0.5,0.5,1","1","",""
"","html-keyboard-response","331","247941","0.0-331.0","35USIKEBNS29DYVX1AMX95VFNCN6N5","A22BBAU24IEHPL","38DCH97KHHO4I6P2AJ31XKZ17OGJQZ","","null","<img src=""img/land2.png"" style=""width:200px; border:14px solid green;"">","null","","","","","","","","","",""
"","image-keyboard-response","332","248239","0.0-332.0","35USIKEBNS29DYVX1AMX95VFNCN6N5","A22BBAU24IEHPL","38DCH97KHHO4I6P2AJ31XKZ17OGJQZ","","296.4000000022352","img/land3.png","74","297.3999999985099","1","0","2","1","1,0.5,0.5,0.5,1,0.5,0.5,0.5,1","1,0.5,0.5,0.5,1,0.5,0.5,0.5,1","1","",""
"","html-keyboard-response","333","248541","0.0-333.0","35USIKEBNS29DYVX1AMX95VFNCN6N5","A22BBAU24IEHPL","38DCH97KHHO4I6P2AJ31XKZ17OGJQZ","","null","<img src=""img/land3.png"" style=""width:200px;border:14px solid red;"">","null","","","","","","","","","",""
"","image-keyboard-response","334","248908","0.0-334.0","35USIKEBNS29DYVX1AMX95VFNCN6N5","A22BBAU24IEHPL","38DCH97KHHO4I6P2AJ31XKZ17OGJQZ","","365.30000000074506","img/land2.png","74","366.3999999985099","1","1","1","1","1,0.5,0.5,0.5,1,0.5,0.5,0.5,1","1,0.5,0.5,0.5,1,0.5,0.5,0.5,1","1","",""
"","html-keyboard-response","335","249219","0.0-335.0","35USIKEBNS29DYVX1AMX95VFNCN6N5","A22BBAU24IEHPL","38DCH97KHHO4I6P2AJ31XKZ17OGJQZ","","null","<img src=""img/land2.png"" style=""width:200px; border:14px solid green;"">","null","","","","","","","","","",""
"","image-keyboard-response","336","249408","0.0-336.0","35USIKEBNS29DYVX1AMX95VFNCN6N5","A22BBAU24IEHPL","38DCH97KHHO4I6P2AJ31XKZ17OGJQZ","","187.80000000074506","img/land3.png","74","188.5","1","0","2","1","1,0.5,0.5,0.5,1,0.5,0.5,0.5,1","1,0.5,0.5,0.5,1,0.5,0.5,0.5,1","1","",""
"","html-keyboard-response","337","249717","0.0-337.0","35USIKEBNS29DYVX1AMX95VFNCN6N5","A22BBAU24IEHPL","38DCH97KHHO4I6P2AJ31XKZ17OGJQZ","","null","<img src=""img/land3.png"" style=""width:200px;border:14px solid red;"">","null","","","","","","","","","",""
"","image-keyboard-response","338","249909","0.0-338.0","35USIKEBNS29DYVX1AMX95VFNCN6N5","A22BBAU24IEHPL","38DCH97KHHO4I6P2AJ31XKZ17OGJQZ","","190.40000000223517","img/land1.png","74","191.39999999850988","1","0","3","1","1,0.5,0.5,0.5,1,0.5,0.5,0.5,1","1,0.5,0.5,0.5,1,0.5,0.5,0.5,1","1","",""
"","html-keyboard-response","339","250213","0.0-339.0","35USIKEBNS29DYVX1AMX95VFNCN6N5","A22BBAU24IEHPL","38DCH97KHHO4I6P2AJ31XKZ17OGJQZ","","null","<img src=""img/land1.png"" style=""width:200px;border:14px solid red;"">","null","","","","","","","","","",""
"","image-keyboard-response","340","250428","0.0-340.0","35USIKEBNS29DYVX1AMX95VFNCN6N5","A22BBAU24IEHPL","38DCH97KHHO4I6P2AJ31XKZ17OGJQZ","","213.20000000298023","img/land1.png","74","214.29999999701977","1","0","3","1","1,0.5,0.5,0.5,1,0.5,0.5,0.5,1","1,0.5,0.5,0.5,1,0.5,0.5,0.5,1","1","",""
"","html-keyboard-response","341","250733","0.0-341.0","35USIKEBNS29DYVX1AMX95VFNCN6N5","A22BBAU24IEHPL","38DCH97KHHO4I6P2AJ31XKZ17OGJQZ","","null","<img src=""img/land1.png"" style=""width:200px;border:14px solid red;"">","null","","","","","","","","","",""
"","image-keyboard-response","342","250918","0.0-342.0","35USIKEBNS29DYVX1AMX95VFNCN6N5","A22BBAU24IEHPL","38DCH97KHHO4I6P2AJ31XKZ17OGJQZ","","183.20000000298023","img/land3.png","74","184.19999999925494","1","1","2","1","1,0.5,0.5,0.5,1,0.5,0.5,0.5,1","1,0.5,0.5,0.5,1,0.5,0.5,0.5,1","1","",""
"","html-keyboard-response","343","251221","0.0-343.0","35USIKEBNS29DYVX1AMX95VFNCN6N5","A22BBAU24IEHPL","38DCH97KHHO4I6P2AJ31XKZ17OGJQZ","","null","<img src=""img/land3.png"" style=""width:200px; border:14px solid green;"">","null","","","","","","","","","",""
"","image-keyboard-response","344","251478","0.0-344.0","35USIKEBNS29DYVX1AMX95VFNCN6N5","A22BBAU24IEHPL","38DCH97KHHO4I6P2AJ31XKZ17OGJQZ","","255.5","img/land1.png","74","256.3999999985099","1","1","3","1","1,0.5,0.5,0.5,1,0.5,0.5,0.5,1","1,0.5,0.5,0.5,1,0.5,0.5,0.5,1","1","",""
"","html-keyboard-response","345","251781","0.0-345.0","35USIKEBNS29DYVX1AMX95VFNCN6N5","A22BBAU24IEHPL","38DCH97KHHO4I6P2AJ31XKZ17OGJQZ","","null","<img src=""img/land1.png"" style=""width:200px; border:14px solid green;"">","null","","","","","","","","","",""
"","image-keyboard-response","346","251949","0.0-346.0","35USIKEBNS29DYVX1AMX95VFNCN6N5","A22BBAU24IEHPL","38DCH97KHHO4I6P2AJ31XKZ17OGJQZ","","166","img/land1.png","74","167.19999999925494","1","0","3","1","1,0.5,0.5,0.5,1,0.5,0.5,0.5,1","1,0.5,0.5,0.5,1,0.5,0.5,0.5,1","1","",""
"","html-keyboard-response","347","252253","0.0-347.0","35USIKEBNS29DYVX1AMX95VFNCN6N5","A22BBAU24IEHPL","38DCH97KHHO4I6P2AJ31XKZ17OGJQZ","","null","<img src=""img/land1.png"" style=""width:200px;border:14px solid red;"">","null","","","","","","","","","",""
"","image-keyboard-response","348","252758","0.0-348.0","35USIKEBNS29DYVX1AMX95VFNCN6N5","A22BBAU24IEHPL","38DCH97KHHO4I6P2AJ31XKZ17OGJQZ","","503.20000000298023","img/land2.png","74","504.30000000074506","1","1","1","1","1,0.5,0.5,0.5,1,0.5,0.5,0.5,1","1,0.5,0.5,0.5,1,0.5,0.5,0.5,1","1","",""
"","html-keyboard-response","349","253061","0.0-349.0","35USIKEBNS29DYVX1AMX95VFNCN6N5","A22BBAU24IEHPL","38DCH97KHHO4I6P2AJ31XKZ17OGJQZ","","null","<img src=""img/land2.png"" style=""width:200px; border:14px solid green;"">","null","","","","","","","","","",""
"","image-keyboard-response","350","253468","0.0-350.0","35USIKEBNS29DYVX1AMX95VFNCN6N5","A22BBAU24IEHPL","38DCH97KHHO4I6P2AJ31XKZ17OGJQZ","","405","img/land1.png","74","406.19999999925494","1","0","3","1","1,0.5,0.5,0.5,1,0.5,0.5,0.5,1","1,0.5,0.5,0.5,1,0.5,0.5,0.5,1","1","",""
"","html-keyboard-response","351","253773","0.0-351.0","35USIKEBNS29DYVX1AMX95VFNCN6N5","A22BBAU24IEHPL","38DCH97KHHO4I6P2AJ31XKZ17OGJQZ","","null","<img src=""img/land1.png"" style=""width:200px;border:14px solid red;"">","null","","","","","","","","","",""
"","image-keyboard-response","352","254138","0.0-352.0","35USIKEBNS29DYVX1AMX95VFNCN6N5","A22BBAU24IEHPL","38DCH97KHHO4I6P2AJ31XKZ17OGJQZ","","363","img/land2.png","74","364.1000000014901","1","1","1","1","1,0.5,0.5,0.5,1,0.5,0.5,0.5,1","1,0.5,0.5,0.5,1,0.5,0.5,0.5,1","1","",""
"","html-keyboard-response","353","254445","0.0-353.0","35USIKEBNS29DYVX1AMX95VFNCN6N5","A22BBAU24IEHPL","38DCH97KHHO4I6P2AJ31XKZ17OGJQZ","","null","<img src=""img/land2.png"" style=""width:200px; border:14px solid green;"">","null","","","","","","","","","",""
"","image-keyboard-response","354","254638","0.0-354.0","35USIKEBNS29DYVX1AMX95VFNCN6N5","A22BBAU24IEHPL","38DCH97KHHO4I6P2AJ31XKZ17OGJQZ","","191","img/land3.png","74","192","1","1","2","1","1,0.5,0.5,0.5,1,0.5,0.5,0.5,1","1,0.5,0.5,0.5,1,0.5,0.5,0.5,1","1","",""
"","html-keyboard-response","355","254942","0.0-355.0","35USIKEBNS29DYVX1AMX95VFNCN6N5","A22BBAU24IEHPL","38DCH97KHHO4I6P2AJ31XKZ17OGJQZ","","null","<img src=""img/land3.png"" style=""width:200px; border:14px solid green;"">","null","","","","","","","","","",""
"","image-keyboard-response","356","255368","0.0-356.0","35USIKEBNS29DYVX1AMX95VFNCN6N5","A22BBAU24IEHPL","38DCH97KHHO4I6P2AJ31XKZ17OGJQZ","","424.8999999985099","img/land3.png","74","426","1","1","2","1","1,0.5,0.5,0.5,1,0.5,0.5,0.5,1","1,0.5,0.5,0.5,1,0.5,0.5,0.5,1","1","",""
"","html-keyboard-response","357","255678","0.0-357.0","35USIKEBNS29DYVX1AMX95VFNCN6N5","A22BBAU24IEHPL","38DCH97KHHO4I6P2AJ31XKZ17OGJQZ","","null","<img src=""img/land3.png"" style=""width:200px; border:14px solid green;"">","null","","","","","","","","","",""
"","image-keyboard-response","358","256069","0.0-358.0","35USIKEBNS29DYVX1AMX95VFNCN6N5","A22BBAU24IEHPL","38DCH97KHHO4I6P2AJ31XKZ17OGJQZ","","389.79999999701977","img/land1.png","74","391","1","0","3","1","1,0.5,0.5,0.5,1,0.5,0.5,0.5,1","1,0.5,0.5,0.5,1,0.5,0.5,0.5,1","1","",""
"","html-keyboard-response","359","256374","0.0-359.0","35USIKEBNS29DYVX1AMX95VFNCN6N5","A22BBAU24IEHPL","38DCH97KHHO4I6P2AJ31XKZ17OGJQZ","","null","<img src=""img/land1.png"" style=""width:200px;border:14px solid red;"">","null","","","","","","","","","",""
"","image-keyboard-response","360","256788","0.0-360.0","35USIKEBNS29DYVX1AMX95VFNCN6N5","A22BBAU24IEHPL","38DCH97KHHO4I6P2AJ31XKZ17OGJQZ","","412.79999999701977","img/land3.png","74","413.9000000022352","1","1","2","1","1,0.5,0.5,0.5,1,0.5,0.5,0.5,1","1,0.5,0.5,0.5,1,0.5,0.5,0.5,1","1","",""
"","html-keyboard-response","361","257094","0.0-361.0","35USIKEBNS29DYVX1AMX95VFNCN6N5","A22BBAU24IEHPL","38DCH97KHHO4I6P2AJ31XKZ17OGJQZ","","null","<img src=""img/land3.png"" style=""width:200px; border:14px solid green;"">","null","","","","","","","","","",""
