"success","trial_type","trial_index","time_elapsed","internal_node_id","assignmentID","mturkID","hitID","view_history","rt","stimulus","key_press","reactionTime","a","r","s","reward_cond","responses","question_order"
"true","fullscreen","0","5395","0.0-0.0","3BQU611VFQ6B6FT1Y764BERX7MX99Y","A25PFSORDO3SWQ","31ANT7FQN8OJYEBE2RCDNWOVYXNH57","","","","","","","","","","",""
"","instructions","1","38170","0.0-1.0","3BQU611VFQ6B6FT1Y764BERX7MX99Y","A25PFSORDO3SWQ","31ANT7FQN8OJYEBE2RCDNWOVYXNH57","[{""page_index"":0,""viewing_time"":4739},{""page_index"":1,""viewing_time"":10459},{""page_index"":2,""viewing_time"":3668},{""page_index"":3,""viewing_time"":3854},{""page_index"":4,""viewing_time"":4203},{""page_index"":5,""viewing_time"":2754},{""page_index"":6,""viewing_time"":3096}]","32773","","","","","","","","",""
"","image-keyboard-response","2","39583","0.0-2.0","3BQU611VFQ6B6FT1Y764BERX7MX99Y","A25PFSORDO3SWQ","31ANT7FQN8OJYEBE2RCDNWOVYXNH57","","1409","img/land3.png","75","1412","2","1","3","1,0.5,0.5,0.5,1,0.5,0.5,0.5,1","",""
"","html-keyboard-response","3","39899","0.0-3.0","3BQU611VFQ6B6FT1Y764BERX7MX99Y","A25PFSORDO3SWQ","31ANT7FQN8OJYEBE2RCDNWOVYXNH57","","null","<img src=""img/land3.png"" style=""width:200px; border:14px solid green;"">","null","","","","","","",""
"","image-keyboard-response","4","40539","0.0-4.0","3BQU611VFQ6B6FT1Y764BERX7MX99Y","A25PFSORDO3SWQ","31ANT7FQN8OJYEBE2RCDNWOVYXNH57","","637","img/land2.png","75","641","2","1","2","1,0.5,0.5,0.5,1,0.5,0.5,0.5,1","",""
"","html-keyboard-response","5","40854","0.0-5.0","3BQU611VFQ6B6FT1Y764BERX7MX99Y","A25PFSORDO3SWQ","31ANT7FQN8OJYEBE2RCDNWOVYXNH57","","null","<img src=""img/land2.png"" style=""width:200px; border:14px solid green;"">","null","","","","","","",""
"","image-keyboard-response","6","41516","0.0-6.0","3BQU611VFQ6B6FT1Y764BERX7MX99Y","A25PFSORDO3SWQ","31ANT7FQN8OJYEBE2RCDNWOVYXNH57","","659","img/land3.png","75","660","2","0","3","1,0.5,0.5,0.5,1,0.5,0.5,0.5,1","",""
"","html-keyboard-response","7","41820","0.0-7.0","3BQU611VFQ6B6FT1Y764BERX7MX99Y","A25PFSORDO3SWQ","31ANT7FQN8OJYEBE2RCDNWOVYXNH57","","null","<img src=""img/land3.png"" style=""width:200px;border:14px solid red;"">","null","","","","","","",""
"","image-keyboard-response","8","42636","0.0-8.0","3BQU611VFQ6B6FT1Y764BERX7MX99Y","A25PFSORDO3SWQ","31ANT7FQN8OJYEBE2RCDNWOVYXNH57","","814","img/land1.png","76","815","3","0","1","1,0.5,0.5,0.5,1,0.5,0.5,0.5,1","",""
"","html-keyboard-response","9","42952","0.0-9.0","3BQU611VFQ6B6FT1Y764BERX7MX99Y","A25PFSORDO3SWQ","31ANT7FQN8OJYEBE2RCDNWOVYXNH57","","null","<img src=""img/land1.png"" style=""width:200px;border:14px solid red;"">","null","","","","","","",""
"","image-keyboard-response","10","43428","0.0-10.0","3BQU611VFQ6B6FT1Y764BERX7MX99Y","A25PFSORDO3SWQ","31ANT7FQN8OJYEBE2RCDNWOVYXNH57","","476","img/land1.png","74","476","1","1","1","1,0.5,0.5,0.5,1,0.5,0.5,0.5,1","",""
"","html-keyboard-response","11","43736","0.0-11.0","3BQU611VFQ6B6FT1Y764BERX7MX99Y","A25PFSORDO3SWQ","31ANT7FQN8OJYEBE2RCDNWOVYXNH57","","null","<img src=""img/land1.png"" style=""width:200px; border:14px solid green;"">","null","","","","","","",""
"","image-keyboard-response","12","44344","0.0-12.0","3BQU611VFQ6B6FT1Y764BERX7MX99Y","A25PFSORDO3SWQ","31ANT7FQN8OJYEBE2RCDNWOVYXNH57","","606","img/land1.png","74","608","1","1","1","1,0.5,0.5,0.5,1,0.5,0.5,0.5,1","",""
"","html-keyboard-response","13","44647","0.0-13.0","3BQU611VFQ6B6FT1Y764BERX7MX99Y","A25PFSORDO3SWQ","31ANT7FQN8OJYEBE2RCDNWOVYXNH57","","null","<img src=""img/land1.png"" style=""width:200px; border:14px solid green;"">","null","","","","","","",""
"","image-keyboard-response","14","45343","0.0-14.0","3BQU611VFQ6B6FT1Y764BERX7MX99Y","A25PFSORDO3SWQ","31ANT7FQN8OJYEBE2RCDNWOVYXNH57","","697","img/land1.png","74","697","1","1","1","1,0.5,0.5,0.5,1,0.5,0.5,0.5,1","",""
"","html-keyboard-response","15","45660","0.0-15.0","3BQU611VFQ6B6FT1Y764BERX7MX99Y","A25PFSORDO3SWQ","31ANT7FQN8OJYEBE2RCDNWOVYXNH57","","null","<img src=""img/land1.png"" style=""width:200px; border:14px solid green;"">","null","","","","","","",""
"","image-keyboard-response","16","46262","0.0-16.0","3BQU611VFQ6B6FT1Y764BERX7MX99Y","A25PFSORDO3SWQ","31ANT7FQN8OJYEBE2RCDNWOVYXNH57","","599","img/land3.png","75","602","2","1","3","1,0.5,0.5,0.5,1,0.5,0.5,0.5,1","",""
"","html-keyboard-response","17","46576","0.0-17.0","3BQU611VFQ6B6FT1Y764BERX7MX99Y","A25PFSORDO3SWQ","31ANT7FQN8OJYEBE2RCDNWOVYXNH57","","null","<img src=""img/land3.png"" style=""width:200px; border:14px solid green;"">","null","","","","","","",""
"","image-keyboard-response","18","47095","0.0-18.0","3BQU611VFQ6B6FT1Y764BERX7MX99Y","A25PFSORDO3SWQ","31ANT7FQN8OJYEBE2RCDNWOVYXNH57","","519","img/land3.png","75","519","2","0","3","1,0.5,0.5,0.5,1,0.5,0.5,0.5,1","",""
"","html-keyboard-response","19","47402","0.0-19.0","3BQU611VFQ6B6FT1Y764BERX7MX99Y","A25PFSORDO3SWQ","31ANT7FQN8OJYEBE2RCDNWOVYXNH57","","null","<img src=""img/land3.png"" style=""width:200px;border:14px solid red;"">","null","","","","","","",""
"","image-keyboard-response","20","48173","0.0-20.0","3BQU611VFQ6B6FT1Y764BERX7MX99Y","A25PFSORDO3SWQ","31ANT7FQN8OJYEBE2RCDNWOVYXNH57","","770","img/land1.png","74","772","1","1","1","1,0.5,0.5,0.5,1,0.5,0.5,0.5,1","",""
"","html-keyboard-response","21","48477","0.0-21.0","3BQU611VFQ6B6FT1Y764BERX7MX99Y","A25PFSORDO3SWQ","31ANT7FQN8OJYEBE2RCDNWOVYXNH57","","null","<img src=""img/land1.png"" style=""width:200px; border:14px solid green;"">","null","","","","","","",""
"","image-keyboard-response","22","49171","0.0-22.0","3BQU611VFQ6B6FT1Y764BERX7MX99Y","A25PFSORDO3SWQ","31ANT7FQN8OJYEBE2RCDNWOVYXNH57","","692","img/land2.png","75","693","2","1","2","1,0.5,0.5,0.5,1,0.5,0.5,0.5,1","",""
"","html-keyboard-response","23","49475","0.0-23.0","3BQU611VFQ6B6FT1Y764BERX7MX99Y","A25PFSORDO3SWQ","31ANT7FQN8OJYEBE2RCDNWOVYXNH57","","null","<img src=""img/land2.png"" style=""width:200px; border:14px solid green;"">","null","","","","","","",""
"","image-keyboard-response","24","50412","0.0-24.0","3BQU611VFQ6B6FT1Y764BERX7MX99Y","A25PFSORDO3SWQ","31ANT7FQN8OJYEBE2RCDNWOVYXNH57","","937","img/land1.png","74","937","1","1","1","1,0.5,0.5,0.5,1,0.5,0.5,0.5,1","",""
"","html-keyboard-response","25","50723","0.0-25.0","3BQU611VFQ6B6FT1Y764BERX7MX99Y","A25PFSORDO3SWQ","31ANT7FQN8OJYEBE2RCDNWOVYXNH57","","null","<img src=""img/land1.png"" style=""width:200px; border:14px solid green;"">","null","","","","","","",""
"","image-keyboard-response","26","51330","0.0-26.0","3BQU611VFQ6B6FT1Y764BERX7MX99Y","A25PFSORDO3SWQ","31ANT7FQN8OJYEBE2RCDNWOVYXNH57","","606","img/land3.png","75","606","2","1","3","1,0.5,0.5,0.5,1,0.5,0.5,0.5,1","",""
"","html-keyboard-response","27","51635","0.0-27.0","3BQU611VFQ6B6FT1Y764BERX7MX99Y","A25PFSORDO3SWQ","31ANT7FQN8OJYEBE2RCDNWOVYXNH57","","null","<img src=""img/land3.png"" style=""width:200px; border:14px solid green;"">","null","","","","","","",""
"","image-keyboard-response","28","52144","0.0-28.0","3BQU611VFQ6B6FT1Y764BERX7MX99Y","A25PFSORDO3SWQ","31ANT7FQN8OJYEBE2RCDNWOVYXNH57","","509","img/land3.png","75","509","2","1","3","1,0.5,0.5,0.5,1,0.5,0.5,0.5,1","",""
"","html-keyboard-response","29","52446","0.0-29.0","3BQU611VFQ6B6FT1Y764BERX7MX99Y","A25PFSORDO3SWQ","31ANT7FQN8OJYEBE2RCDNWOVYXNH57","","null","<img src=""img/land3.png"" style=""width:200px; border:14px solid green;"">","null","","","","","","",""
"","image-keyboard-response","30","52899","0.0-30.0","3BQU611VFQ6B6FT1Y764BERX7MX99Y","A25PFSORDO3SWQ","31ANT7FQN8OJYEBE2RCDNWOVYXNH57","","451","img/land3.png","75","452","2","0","3","1,0.5,0.5,0.5,1,0.5,0.5,0.5,1","",""
"","html-keyboard-response","31","53213","0.0-31.0","3BQU611VFQ6B6FT1Y764BERX7MX99Y","A25PFSORDO3SWQ","31ANT7FQN8OJYEBE2RCDNWOVYXNH57","","null","<img src=""img/land3.png"" style=""width:200px;border:14px solid red;"">","null","","","","","","",""
"","image-keyboard-response","32","53957","0.0-32.0","3BQU611VFQ6B6FT1Y764BERX7MX99Y","A25PFSORDO3SWQ","31ANT7FQN8OJYEBE2RCDNWOVYXNH57","","743","img/land3.png","76","744","3","1","3","1,0.5,0.5,0.5,1,0.5,0.5,0.5,1","",""
"","html-keyboard-response","33","54260","0.0-33.0","3BQU611VFQ6B6FT1Y764BERX7MX99Y","A25PFSORDO3SWQ","31ANT7FQN8OJYEBE2RCDNWOVYXNH57","","null","<img src=""img/land3.png"" style=""width:200px; border:14px solid green;"">","null","","","","","","",""
"","image-keyboard-response","34","55196","0.0-34.0","3BQU611VFQ6B6FT1Y764BERX7MX99Y","A25PFSORDO3SWQ","31ANT7FQN8OJYEBE2RCDNWOVYXNH57","","936","img/land2.png","74","936","1","1","2","1,0.5,0.5,0.5,1,0.5,0.5,0.5,1","",""
"","html-keyboard-response","35","55497","0.0-35.0","3BQU611VFQ6B6FT1Y764BERX7MX99Y","A25PFSORDO3SWQ","31ANT7FQN8OJYEBE2RCDNWOVYXNH57","","null","<img src=""img/land2.png"" style=""width:200px; border:14px solid green;"">","null","","","","","","",""
"","image-keyboard-response","36","56599","0.0-36.0","3BQU611VFQ6B6FT1Y764BERX7MX99Y","A25PFSORDO3SWQ","31ANT7FQN8OJYEBE2RCDNWOVYXNH57","","1102","img/land3.png","75","1102","2","1","3","1,0.5,0.5,0.5,1,0.5,0.5,0.5,1","",""
"","html-keyboard-response","37","56903","0.0-37.0","3BQU611VFQ6B6FT1Y764BERX7MX99Y","A25PFSORDO3SWQ","31ANT7FQN8OJYEBE2RCDNWOVYXNH57","","null","<img src=""img/land3.png"" style=""width:200px; border:14px solid green;"">","null","","","","","","",""
"","image-keyboard-response","38","57881","0.0-38.0","3BQU611VFQ6B6FT1Y764BERX7MX99Y","A25PFSORDO3SWQ","31ANT7FQN8OJYEBE2RCDNWOVYXNH57","","977","img/land1.png","76","978","3","1","1","1,0.5,0.5,0.5,1,0.5,0.5,0.5,1","",""
"","html-keyboard-response","39","58189","0.0-39.0","3BQU611VFQ6B6FT1Y764BERX7MX99Y","A25PFSORDO3SWQ","31ANT7FQN8OJYEBE2RCDNWOVYXNH57","","null","<img src=""img/land1.png"" style=""width:200px; border:14px solid green;"">","null","","","","","","",""
"","image-keyboard-response","40","58757","0.0-40.0","3BQU611VFQ6B6FT1Y764BERX7MX99Y","A25PFSORDO3SWQ","31ANT7FQN8OJYEBE2RCDNWOVYXNH57","","568","img/land1.png","76","569","3","1","1","1,0.5,0.5,0.5,1,0.5,0.5,0.5,1","",""
"","html-keyboard-response","41","59064","0.0-41.0","3BQU611VFQ6B6FT1Y764BERX7MX99Y","A25PFSORDO3SWQ","31ANT7FQN8OJYEBE2RCDNWOVYXNH57","","null","<img src=""img/land1.png"" style=""width:200px; border:14px solid green;"">","null","","","","","","",""
"","image-keyboard-response","42","59956","0.0-42.0","3BQU611VFQ6B6FT1Y764BERX7MX99Y","A25PFSORDO3SWQ","31ANT7FQN8OJYEBE2RCDNWOVYXNH57","","892","img/land3.png","74","892","1","1","3","1,0.5,0.5,0.5,1,0.5,0.5,0.5,1","",""
"","html-keyboard-response","43","60260","0.0-43.0","3BQU611VFQ6B6FT1Y764BERX7MX99Y","A25PFSORDO3SWQ","31ANT7FQN8OJYEBE2RCDNWOVYXNH57","","null","<img src=""img/land3.png"" style=""width:200px; border:14px solid green;"">","null","","","","","","",""
"","image-keyboard-response","44","61076","0.0-44.0","3BQU611VFQ6B6FT1Y764BERX7MX99Y","A25PFSORDO3SWQ","31ANT7FQN8OJYEBE2RCDNWOVYXNH57","","816","img/land2.png","76","817","3","0","2","1,0.5,0.5,0.5,1,0.5,0.5,0.5,1","",""
"","html-keyboard-response","45","61385","0.0-45.0","3BQU611VFQ6B6FT1Y764BERX7MX99Y","A25PFSORDO3SWQ","31ANT7FQN8OJYEBE2RCDNWOVYXNH57","","null","<img src=""img/land2.png"" style=""width:200px;border:14px solid red;"">","null","","","","","","",""
"","image-keyboard-response","46","62253","0.0-46.0","3BQU611VFQ6B6FT1Y764BERX7MX99Y","A25PFSORDO3SWQ","31ANT7FQN8OJYEBE2RCDNWOVYXNH57","","866","img/land2.png","74","868","1","1","2","1,0.5,0.5,0.5,1,0.5,0.5,0.5,1","",""
"","html-keyboard-response","47","62555","0.0-47.0","3BQU611VFQ6B6FT1Y764BERX7MX99Y","A25PFSORDO3SWQ","31ANT7FQN8OJYEBE2RCDNWOVYXNH57","","null","<img src=""img/land2.png"" style=""width:200px; border:14px solid green;"">","null","","","","","","",""
"","image-keyboard-response","48","63474","0.0-48.0","3BQU611VFQ6B6FT1Y764BERX7MX99Y","A25PFSORDO3SWQ","31ANT7FQN8OJYEBE2RCDNWOVYXNH57","","917","img/land1.png","75","917","2","0","1","1,0.5,0.5,0.5,1,0.5,0.5,0.5,1","",""
"","html-keyboard-response","49","63781","0.0-49.0","3BQU611VFQ6B6FT1Y764BERX7MX99Y","A25PFSORDO3SWQ","31ANT7FQN8OJYEBE2RCDNWOVYXNH57","","null","<img src=""img/land1.png"" style=""width:200px;border:14px solid red;"">","null","","","","","","",""
"","image-keyboard-response","50","64696","0.0-50.0","3BQU611VFQ6B6FT1Y764BERX7MX99Y","A25PFSORDO3SWQ","31ANT7FQN8OJYEBE2RCDNWOVYXNH57","","913","img/land2.png","76","914","3","1","2","1,0.5,0.5,0.5,1,0.5,0.5,0.5,1","",""
"","html-keyboard-response","51","65005","0.0-51.0","3BQU611VFQ6B6FT1Y764BERX7MX99Y","A25PFSORDO3SWQ","31ANT7FQN8OJYEBE2RCDNWOVYXNH57","","null","<img src=""img/land2.png"" style=""width:200px; border:14px solid green;"">","null","","","","","","",""
"","image-keyboard-response","52","65853","0.0-52.0","3BQU611VFQ6B6FT1Y764BERX7MX99Y","A25PFSORDO3SWQ","31ANT7FQN8OJYEBE2RCDNWOVYXNH57","","847","img/land1.png","74","848","1","1","1","1,0.5,0.5,0.5,1,0.5,0.5,0.5,1","",""
"","html-keyboard-response","53","66166","0.0-53.0","3BQU611VFQ6B6FT1Y764BERX7MX99Y","A25PFSORDO3SWQ","31ANT7FQN8OJYEBE2RCDNWOVYXNH57","","null","<img src=""img/land1.png"" style=""width:200px; border:14px solid green;"">","null","","","","","","",""
"","image-keyboard-response","54","66809","0.0-54.0","3BQU611VFQ6B6FT1Y764BERX7MX99Y","A25PFSORDO3SWQ","31ANT7FQN8OJYEBE2RCDNWOVYXNH57","","642","img/land1.png","74","642","1","1","1","1,0.5,0.5,0.5,1,0.5,0.5,0.5,1","",""
"","html-keyboard-response","55","67123","0.0-55.0","3BQU611VFQ6B6FT1Y764BERX7MX99Y","A25PFSORDO3SWQ","31ANT7FQN8OJYEBE2RCDNWOVYXNH57","","null","<img src=""img/land1.png"" style=""width:200px; border:14px solid green;"">","null","","","","","","",""
"","image-keyboard-response","56","67625","0.0-56.0","3BQU611VFQ6B6FT1Y764BERX7MX99Y","A25PFSORDO3SWQ","31ANT7FQN8OJYEBE2RCDNWOVYXNH57","","502","img/land1.png","74","503","1","1","1","1,0.5,0.5,0.5,1,0.5,0.5,0.5,1","",""
"","html-keyboard-response","57","67934","0.0-57.0","3BQU611VFQ6B6FT1Y764BERX7MX99Y","A25PFSORDO3SWQ","31ANT7FQN8OJYEBE2RCDNWOVYXNH57","","null","<img src=""img/land1.png"" style=""width:200px; border:14px solid green;"">","null","","","","","","",""
"","image-keyboard-response","58","68645","0.0-58.0","3BQU611VFQ6B6FT1Y764BERX7MX99Y","A25PFSORDO3SWQ","31ANT7FQN8OJYEBE2RCDNWOVYXNH57","","711","img/land2.png","76","712","3","0","2","1,0.5,0.5,0.5,1,0.5,0.5,0.5,1","",""
"","html-keyboard-response","59","68949","0.0-59.0","3BQU611VFQ6B6FT1Y764BERX7MX99Y","A25PFSORDO3SWQ","31ANT7FQN8OJYEBE2RCDNWOVYXNH57","","null","<img src=""img/land2.png"" style=""width:200px;border:14px solid red;"">","null","","","","","","",""
"","image-keyboard-response","60","69704","0.0-60.0","3BQU611VFQ6B6FT1Y764BERX7MX99Y","A25PFSORDO3SWQ","31ANT7FQN8OJYEBE2RCDNWOVYXNH57","","751","img/land2.png","74","753","1","1","2","1,0.5,0.5,0.5,1,0.5,0.5,0.5,1","",""
"","html-keyboard-response","61","70015","0.0-61.0","3BQU611VFQ6B6FT1Y764BERX7MX99Y","A25PFSORDO3SWQ","31ANT7FQN8OJYEBE2RCDNWOVYXNH57","","null","<img src=""img/land2.png"" style=""width:200px; border:14px solid green;"">","null","","","","","","",""
"","image-keyboard-response","62","70864","0.0-62.0","3BQU611VFQ6B6FT1Y764BERX7MX99Y","A25PFSORDO3SWQ","31ANT7FQN8OJYEBE2RCDNWOVYXNH57","","848","img/land1.png","76","849","3","0","1","1,0.5,0.5,0.5,1,0.5,0.5,0.5,1","",""
"","html-keyboard-response","63","71168","0.0-63.0","3BQU611VFQ6B6FT1Y764BERX7MX99Y","A25PFSORDO3SWQ","31ANT7FQN8OJYEBE2RCDNWOVYXNH57","","null","<img src=""img/land1.png"" style=""width:200px;border:14px solid red;"">","null","","","","","","",""
"","image-keyboard-response","64","72001","0.0-64.0","3BQU611VFQ6B6FT1Y764BERX7MX99Y","A25PFSORDO3SWQ","31ANT7FQN8OJYEBE2RCDNWOVYXNH57","","832","img/land2.png","74","833","1","1","2","1,0.5,0.5,0.5,1,0.5,0.5,0.5,1","",""
"","html-keyboard-response","65","72319","0.0-65.0","3BQU611VFQ6B6FT1Y764BERX7MX99Y","A25PFSORDO3SWQ","31ANT7FQN8OJYEBE2RCDNWOVYXNH57","","null","<img src=""img/land2.png"" style=""width:200px; border:14px solid green;"">","null","","","","","","",""
"","image-keyboard-response","66","72837","0.0-66.0","3BQU611VFQ6B6FT1Y764BERX7MX99Y","A25PFSORDO3SWQ","31ANT7FQN8OJYEBE2RCDNWOVYXNH57","","517","img/land2.png","74","517","1","1","2","1,0.5,0.5,0.5,1,0.5,0.5,0.5,1","",""
"","html-keyboard-response","67","73148","0.0-67.0","3BQU611VFQ6B6FT1Y764BERX7MX99Y","A25PFSORDO3SWQ","31ANT7FQN8OJYEBE2RCDNWOVYXNH57","","null","<img src=""img/land2.png"" style=""width:200px; border:14px solid green;"">","null","","","","","","",""
"","image-keyboard-response","68","73875","0.0-68.0","3BQU611VFQ6B6FT1Y764BERX7MX99Y","A25PFSORDO3SWQ","31ANT7FQN8OJYEBE2RCDNWOVYXNH57","","727","img/land1.png","75","727","2","1","1","1,0.5,0.5,0.5,1,0.5,0.5,0.5,1","",""
"","html-keyboard-response","69","74180","0.0-69.0","3BQU611VFQ6B6FT1Y764BERX7MX99Y","A25PFSORDO3SWQ","31ANT7FQN8OJYEBE2RCDNWOVYXNH57","","null","<img src=""img/land1.png"" style=""width:200px; border:14px solid green;"">","null","","","","","","",""
"","image-keyboard-response","70","75057","0.0-70.0","3BQU611VFQ6B6FT1Y764BERX7MX99Y","A25PFSORDO3SWQ","31ANT7FQN8OJYEBE2RCDNWOVYXNH57","","875","img/land2.png","74","876","1","0","2","1,0.5,0.5,0.5,1,0.5,0.5,0.5,1","",""
"","html-keyboard-response","71","75366","0.0-71.0","3BQU611VFQ6B6FT1Y764BERX7MX99Y","A25PFSORDO3SWQ","31ANT7FQN8OJYEBE2RCDNWOVYXNH57","","null","<img src=""img/land2.png"" style=""width:200px;border:14px solid red;"">","null","","","","","","",""
"","image-keyboard-response","72","75850","0.0-72.0","3BQU611VFQ6B6FT1Y764BERX7MX99Y","A25PFSORDO3SWQ","31ANT7FQN8OJYEBE2RCDNWOVYXNH57","","484","img/land2.png","76","486","3","0","2","1,0.5,0.5,0.5,1,0.5,0.5,0.5,1","",""
"","html-keyboard-response","73","76190","0.0-73.0","3BQU611VFQ6B6FT1Y764BERX7MX99Y","A25PFSORDO3SWQ","31ANT7FQN8OJYEBE2RCDNWOVYXNH57","","null","<img src=""img/land2.png"" style=""width:200px;border:14px solid red;"">","null","","","","","","",""
"","image-keyboard-response","74","77761","0.0-74.0","3BQU611VFQ6B6FT1Y764BERX7MX99Y","A25PFSORDO3SWQ","31ANT7FQN8OJYEBE2RCDNWOVYXNH57","","1570","img/land3.png","76","1570","3","1","3","1,0.5,0.5,0.5,1,0.5,0.5,0.5,1","",""
"","html-keyboard-response","75","78065","0.0-75.0","3BQU611VFQ6B6FT1Y764BERX7MX99Y","A25PFSORDO3SWQ","31ANT7FQN8OJYEBE2RCDNWOVYXNH57","","null","<img src=""img/land3.png"" style=""width:200px; border:14px solid green;"">","null","","","","","","",""
"","image-keyboard-response","76","78696","0.0-76.0","3BQU611VFQ6B6FT1Y764BERX7MX99Y","A25PFSORDO3SWQ","31ANT7FQN8OJYEBE2RCDNWOVYXNH57","","630","img/land3.png","76","631","3","1","3","1,0.5,0.5,0.5,1,0.5,0.5,0.5,1","",""
"","html-keyboard-response","77","79008","0.0-77.0","3BQU611VFQ6B6FT1Y764BERX7MX99Y","A25PFSORDO3SWQ","31ANT7FQN8OJYEBE2RCDNWOVYXNH57","","null","<img src=""img/land3.png"" style=""width:200px; border:14px solid green;"">","null","","","","","","",""
"","image-keyboard-response","78","79833","0.0-78.0","3BQU611VFQ6B6FT1Y764BERX7MX99Y","A25PFSORDO3SWQ","31ANT7FQN8OJYEBE2RCDNWOVYXNH57","","824","img/land1.png","74","825","1","1","1","1,0.5,0.5,0.5,1,0.5,0.5,0.5,1","",""
"","html-keyboard-response","79","80135","0.0-79.0","3BQU611VFQ6B6FT1Y764BERX7MX99Y","A25PFSORDO3SWQ","31ANT7FQN8OJYEBE2RCDNWOVYXNH57","","null","<img src=""img/land1.png"" style=""width:200px; border:14px solid green;"">","null","","","","","","",""
"","image-keyboard-response","80","80893","0.0-80.0","3BQU611VFQ6B6FT1Y764BERX7MX99Y","A25PFSORDO3SWQ","31ANT7FQN8OJYEBE2RCDNWOVYXNH57","","757","img/land3.png","76","759","3","1","3","1,0.5,0.5,0.5,1,0.5,0.5,0.5,1","",""
"","html-keyboard-response","81","81198","0.0-81.0","3BQU611VFQ6B6FT1Y764BERX7MX99Y","A25PFSORDO3SWQ","31ANT7FQN8OJYEBE2RCDNWOVYXNH57","","null","<img src=""img/land3.png"" style=""width:200px; border:14px solid green;"">","null","","","","","","",""
"","image-keyboard-response","82","82091","0.0-82.0","3BQU611VFQ6B6FT1Y764BERX7MX99Y","A25PFSORDO3SWQ","31ANT7FQN8OJYEBE2RCDNWOVYXNH57","","892","img/land2.png","74","892","1","0","2","1,0.5,0.5,0.5,1,0.5,0.5,0.5,1","",""
"","html-keyboard-response","83","82403","0.0-83.0","3BQU611VFQ6B6FT1Y764BERX7MX99Y","A25PFSORDO3SWQ","31ANT7FQN8OJYEBE2RCDNWOVYXNH57","","null","<img src=""img/land2.png"" style=""width:200px;border:14px solid red;"">","null","","","","","","",""
"","image-keyboard-response","84","83556","0.0-84.0","3BQU611VFQ6B6FT1Y764BERX7MX99Y","A25PFSORDO3SWQ","31ANT7FQN8OJYEBE2RCDNWOVYXNH57","","1152","img/land3.png","76","1153","3","1","3","1,0.5,0.5,0.5,1,0.5,0.5,0.5,1","",""
"","html-keyboard-response","85","83859","0.0-85.0","3BQU611VFQ6B6FT1Y764BERX7MX99Y","A25PFSORDO3SWQ","31ANT7FQN8OJYEBE2RCDNWOVYXNH57","","null","<img src=""img/land3.png"" style=""width:200px; border:14px solid green;"">","null","","","","","","",""
"","image-keyboard-response","86","84614","0.0-86.0","3BQU611VFQ6B6FT1Y764BERX7MX99Y","A25PFSORDO3SWQ","31ANT7FQN8OJYEBE2RCDNWOVYXNH57","","754","img/land2.png","75","755","2","1","2","1,0.5,0.5,0.5,1,0.5,0.5,0.5,1","",""
"","html-keyboard-response","87","84925","0.0-87.0","3BQU611VFQ6B6FT1Y764BERX7MX99Y","A25PFSORDO3SWQ","31ANT7FQN8OJYEBE2RCDNWOVYXNH57","","null","<img src=""img/land2.png"" style=""width:200px; border:14px solid green;"">","null","","","","","","",""
"","image-keyboard-response","88","86096","0.0-88.0","3BQU611VFQ6B6FT1Y764BERX7MX99Y","A25PFSORDO3SWQ","31ANT7FQN8OJYEBE2RCDNWOVYXNH57","","1169","img/land1.png","74","1171","1","1","1","1,0.5,0.5,0.5,1,0.5,0.5,0.5,1","",""
"","html-keyboard-response","89","86403","0.0-89.0","3BQU611VFQ6B6FT1Y764BERX7MX99Y","A25PFSORDO3SWQ","31ANT7FQN8OJYEBE2RCDNWOVYXNH57","","null","<img src=""img/land1.png"" style=""width:200px; border:14px solid green;"">","null","","","","","","",""
"","image-keyboard-response","90","87621","0.0-90.0","3BQU611VFQ6B6FT1Y764BERX7MX99Y","A25PFSORDO3SWQ","31ANT7FQN8OJYEBE2RCDNWOVYXNH57","","1216","img/land3.png","76","1218","3","1","3","1,0.5,0.5,0.5,1,0.5,0.5,0.5,1","",""
"","html-keyboard-response","91","87926","0.0-91.0","3BQU611VFQ6B6FT1Y764BERX7MX99Y","A25PFSORDO3SWQ","31ANT7FQN8OJYEBE2RCDNWOVYXNH57","","null","<img src=""img/land3.png"" style=""width:200px; border:14px solid green;"">","null","","","","","","",""
"","image-keyboard-response","92","89064","0.0-92.0","3BQU611VFQ6B6FT1Y764BERX7MX99Y","A25PFSORDO3SWQ","31ANT7FQN8OJYEBE2RCDNWOVYXNH57","","1136","img/land1.png","75","1137","2","1","1","1,0.5,0.5,0.5,1,0.5,0.5,0.5,1","",""
"","html-keyboard-response","93","89377","0.0-93.0","3BQU611VFQ6B6FT1Y764BERX7MX99Y","A25PFSORDO3SWQ","31ANT7FQN8OJYEBE2RCDNWOVYXNH57","","null","<img src=""img/land1.png"" style=""width:200px; border:14px solid green;"">","null","","","","","","",""
"","image-keyboard-response","94","90586","0.0-94.0","3BQU611VFQ6B6FT1Y764BERX7MX99Y","A25PFSORDO3SWQ","31ANT7FQN8OJYEBE2RCDNWOVYXNH57","","1208","img/land2.png","74","1208","1","1","2","1,0.5,0.5,0.5,1,0.5,0.5,0.5,1","",""
"","html-keyboard-response","95","90896","0.0-95.0","3BQU611VFQ6B6FT1Y764BERX7MX99Y","A25PFSORDO3SWQ","31ANT7FQN8OJYEBE2RCDNWOVYXNH57","","null","<img src=""img/land2.png"" style=""width:200px; border:14px solid green;"">","null","","","","","","",""
"","image-keyboard-response","96","91603","0.0-96.0","3BQU611VFQ6B6FT1Y764BERX7MX99Y","A25PFSORDO3SWQ","31ANT7FQN8OJYEBE2RCDNWOVYXNH57","","707","img/land2.png","74","707","1","0","2","1,0.5,0.5,0.5,1,0.5,0.5,0.5,1","",""
"","html-keyboard-response","97","91914","0.0-97.0","3BQU611VFQ6B6FT1Y764BERX7MX99Y","A25PFSORDO3SWQ","31ANT7FQN8OJYEBE2RCDNWOVYXNH57","","null","<img src=""img/land2.png"" style=""width:200px;border:14px solid red;"">","null","","","","","","",""
"","image-keyboard-response","98","92603","0.0-98.0","3BQU611VFQ6B6FT1Y764BERX7MX99Y","A25PFSORDO3SWQ","31ANT7FQN8OJYEBE2RCDNWOVYXNH57","","688","img/land2.png","76","689","3","0","2","1,0.5,0.5,0.5,1,0.5,0.5,0.5,1","",""
"","html-keyboard-response","99","92918","0.0-99.0","3BQU611VFQ6B6FT1Y764BERX7MX99Y","A25PFSORDO3SWQ","31ANT7FQN8OJYEBE2RCDNWOVYXNH57","","null","<img src=""img/land2.png"" style=""width:200px;border:14px solid red;"">","null","","","","","","",""
"","image-keyboard-response","100","94127","0.0-100.0","3BQU611VFQ6B6FT1Y764BERX7MX99Y","A25PFSORDO3SWQ","31ANT7FQN8OJYEBE2RCDNWOVYXNH57","","1207","img/land3.png","76","1208","3","1","3","1,0.5,0.5,0.5,1,0.5,0.5,0.5,1","",""
"","html-keyboard-response","101","94427","0.0-101.0","3BQU611VFQ6B6FT1Y764BERX7MX99Y","A25PFSORDO3SWQ","31ANT7FQN8OJYEBE2RCDNWOVYXNH57","","null","<img src=""img/land3.png"" style=""width:200px; border:14px solid green;"">","null","","","","","","",""
"","image-keyboard-response","102","95408","0.0-102.0","3BQU611VFQ6B6FT1Y764BERX7MX99Y","A25PFSORDO3SWQ","31ANT7FQN8OJYEBE2RCDNWOVYXNH57","","978","img/land1.png","74","979","1","1","1","1,0.5,0.5,0.5,1,0.5,0.5,0.5,1","",""
"","html-keyboard-response","103","95717","0.0-103.0","3BQU611VFQ6B6FT1Y764BERX7MX99Y","A25PFSORDO3SWQ","31ANT7FQN8OJYEBE2RCDNWOVYXNH57","","null","<img src=""img/land1.png"" style=""width:200px; border:14px solid green;"">","null","","","","","","",""
"","image-keyboard-response","104","96487","0.0-104.0","3BQU611VFQ6B6FT1Y764BERX7MX99Y","A25PFSORDO3SWQ","31ANT7FQN8OJYEBE2RCDNWOVYXNH57","","768","img/land1.png","74","769","1","1","1","1,0.5,0.5,0.5,1,0.5,0.5,0.5,1","",""
"","html-keyboard-response","105","96795","0.0-105.0","3BQU611VFQ6B6FT1Y764BERX7MX99Y","A25PFSORDO3SWQ","31ANT7FQN8OJYEBE2RCDNWOVYXNH57","","null","<img src=""img/land1.png"" style=""width:200px; border:14px solid green;"">","null","","","","","","",""
"","image-keyboard-response","106","97869","0.0-106.0","3BQU611VFQ6B6FT1Y764BERX7MX99Y","A25PFSORDO3SWQ","31ANT7FQN8OJYEBE2RCDNWOVYXNH57","","1073","img/land2.png","76","1073","3","0","2","1,0.5,0.5,0.5,1,0.5,0.5,0.5,1","",""
"","html-keyboard-response","107","98176","0.0-107.0","3BQU611VFQ6B6FT1Y764BERX7MX99Y","A25PFSORDO3SWQ","31ANT7FQN8OJYEBE2RCDNWOVYXNH57","","null","<img src=""img/land2.png"" style=""width:200px;border:14px solid red;"">","null","","","","","","",""
"","image-keyboard-response","108","99130","0.0-108.0","3BQU611VFQ6B6FT1Y764BERX7MX99Y","A25PFSORDO3SWQ","31ANT7FQN8OJYEBE2RCDNWOVYXNH57","","953","img/land3.png","75","953","2","1","3","1,0.5,0.5,0.5,1,0.5,0.5,0.5,1","",""
"","html-keyboard-response","109","99435","0.0-109.0","3BQU611VFQ6B6FT1Y764BERX7MX99Y","A25PFSORDO3SWQ","31ANT7FQN8OJYEBE2RCDNWOVYXNH57","","null","<img src=""img/land3.png"" style=""width:200px; border:14px solid green;"">","null","","","","","","",""
"","image-keyboard-response","110","100854","0.0-110.0","3BQU611VFQ6B6FT1Y764BERX7MX99Y","A25PFSORDO3SWQ","31ANT7FQN8OJYEBE2RCDNWOVYXNH57","","1418","img/land1.png","74","1418","1","1","1","1,0.5,0.5,0.5,1,0.5,0.5,0.5,1","",""
"","html-keyboard-response","111","101165","0.0-111.0","3BQU611VFQ6B6FT1Y764BERX7MX99Y","A25PFSORDO3SWQ","31ANT7FQN8OJYEBE2RCDNWOVYXNH57","","null","<img src=""img/land1.png"" style=""width:200px; border:14px solid green;"">","null","","","","","","",""
"","image-keyboard-response","112","102160","0.0-112.0","3BQU611VFQ6B6FT1Y764BERX7MX99Y","A25PFSORDO3SWQ","31ANT7FQN8OJYEBE2RCDNWOVYXNH57","","993","img/land3.png","76","996","3","1","3","1,0.5,0.5,0.5,1,0.5,0.5,0.5,1","",""
"","html-keyboard-response","113","102468","0.0-113.0","3BQU611VFQ6B6FT1Y764BERX7MX99Y","A25PFSORDO3SWQ","31ANT7FQN8OJYEBE2RCDNWOVYXNH57","","null","<img src=""img/land3.png"" style=""width:200px; border:14px solid green;"">","null","","","","","","",""
"","image-keyboard-response","114","103276","0.0-114.0","3BQU611VFQ6B6FT1Y764BERX7MX99Y","A25PFSORDO3SWQ","31ANT7FQN8OJYEBE2RCDNWOVYXNH57","","805","img/land3.png","76","805","3","1","3","1,0.5,0.5,0.5,1,0.5,0.5,0.5,1","",""
"","html-keyboard-response","115","103580","0.0-115.0","3BQU611VFQ6B6FT1Y764BERX7MX99Y","A25PFSORDO3SWQ","31ANT7FQN8OJYEBE2RCDNWOVYXNH57","","null","<img src=""img/land3.png"" style=""width:200px; border:14px solid green;"">","null","","","","","","",""
"","image-keyboard-response","116","104454","0.0-116.0","3BQU611VFQ6B6FT1Y764BERX7MX99Y","A25PFSORDO3SWQ","31ANT7FQN8OJYEBE2RCDNWOVYXNH57","","874","img/land2.png","75","874","2","1","2","1,0.5,0.5,0.5,1,0.5,0.5,0.5,1","",""
"","html-keyboard-response","117","104767","0.0-117.0","3BQU611VFQ6B6FT1Y764BERX7MX99Y","A25PFSORDO3SWQ","31ANT7FQN8OJYEBE2RCDNWOVYXNH57","","null","<img src=""img/land2.png"" style=""width:200px; border:14px solid green;"">","null","","","","","","",""
"","image-keyboard-response","118","105575","0.0-118.0","3BQU611VFQ6B6FT1Y764BERX7MX99Y","A25PFSORDO3SWQ","31ANT7FQN8OJYEBE2RCDNWOVYXNH57","","805","img/land2.png","75","807","2","1","2","1,0.5,0.5,0.5,1,0.5,0.5,0.5,1","",""
"","html-keyboard-response","119","105877","0.0-119.0","3BQU611VFQ6B6FT1Y764BERX7MX99Y","A25PFSORDO3SWQ","31ANT7FQN8OJYEBE2RCDNWOVYXNH57","","null","<img src=""img/land2.png"" style=""width:200px; border:14px solid green;"">","null","","","","","","",""
"","image-keyboard-response","120","106732","0.0-120.0","3BQU611VFQ6B6FT1Y764BERX7MX99Y","A25PFSORDO3SWQ","31ANT7FQN8OJYEBE2RCDNWOVYXNH57","","853","img/land2.png","75","854","2","1","2","1,0.5,0.5,0.5,1,0.5,0.5,0.5,1","",""
"","html-keyboard-response","121","107036","0.0-121.0","3BQU611VFQ6B6FT1Y764BERX7MX99Y","A25PFSORDO3SWQ","31ANT7FQN8OJYEBE2RCDNWOVYXNH57","","null","<img src=""img/land2.png"" style=""width:200px; border:14px solid green;"">","null","","","","","","",""
"","image-keyboard-response","122","108783","0.0-122.0","3BQU611VFQ6B6FT1Y764BERX7MX99Y","A25PFSORDO3SWQ","31ANT7FQN8OJYEBE2RCDNWOVYXNH57","","1747","img/land3.png","76","1748","3","1","3","1,0.5,0.5,0.5,1,0.5,0.5,0.5,1","",""
"","html-keyboard-response","123","109088","0.0-123.0","3BQU611VFQ6B6FT1Y764BERX7MX99Y","A25PFSORDO3SWQ","31ANT7FQN8OJYEBE2RCDNWOVYXNH57","","null","<img src=""img/land3.png"" style=""width:200px; border:14px solid green;"">","null","","","","","","",""
"","image-keyboard-response","124","109879","0.0-124.0","3BQU611VFQ6B6FT1Y764BERX7MX99Y","A25PFSORDO3SWQ","31ANT7FQN8OJYEBE2RCDNWOVYXNH57","","791","img/land1.png","74","792","1","1","1","1,0.5,0.5,0.5,1,0.5,0.5,0.5,1","",""
"","html-keyboard-response","125","110183","0.0-125.0","3BQU611VFQ6B6FT1Y764BERX7MX99Y","A25PFSORDO3SWQ","31ANT7FQN8OJYEBE2RCDNWOVYXNH57","","null","<img src=""img/land1.png"" style=""width:200px; border:14px solid green;"">","null","","","","","","",""
"","image-keyboard-response","126","110917","0.0-126.0","3BQU611VFQ6B6FT1Y764BERX7MX99Y","A25PFSORDO3SWQ","31ANT7FQN8OJYEBE2RCDNWOVYXNH57","","733","img/land1.png","74","734","1","1","1","1,0.5,0.5,0.5,1,0.5,0.5,0.5,1","",""
"","html-keyboard-response","127","111232","0.0-127.0","3BQU611VFQ6B6FT1Y764BERX7MX99Y","A25PFSORDO3SWQ","31ANT7FQN8OJYEBE2RCDNWOVYXNH57","","null","<img src=""img/land1.png"" style=""width:200px; border:14px solid green;"">","null","","","","","","",""
"","image-keyboard-response","128","112059","0.0-128.0","3BQU611VFQ6B6FT1Y764BERX7MX99Y","A25PFSORDO3SWQ","31ANT7FQN8OJYEBE2RCDNWOVYXNH57","","826","img/land3.png","76","828","3","1","3","1,0.5,0.5,0.5,1,0.5,0.5,0.5,1","",""
"","html-keyboard-response","129","112364","0.0-129.0","3BQU611VFQ6B6FT1Y764BERX7MX99Y","A25PFSORDO3SWQ","31ANT7FQN8OJYEBE2RCDNWOVYXNH57","","null","<img src=""img/land3.png"" style=""width:200px; border:14px solid green;"">","null","","","","","","",""
"","image-keyboard-response","130","113722","0.0-130.0","3BQU611VFQ6B6FT1Y764BERX7MX99Y","A25PFSORDO3SWQ","31ANT7FQN8OJYEBE2RCDNWOVYXNH57","","1358","img/land1.png","74","1358","1","1","1","1,0.5,0.5,0.5,1,0.5,0.5,0.5,1","",""
"","html-keyboard-response","131","114028","0.0-131.0","3BQU611VFQ6B6FT1Y764BERX7MX99Y","A25PFSORDO3SWQ","31ANT7FQN8OJYEBE2RCDNWOVYXNH57","","null","<img src=""img/land1.png"" style=""width:200px; border:14px solid green;"">","null","","","","","","",""
"","image-keyboard-response","132","114905","0.0-132.0","3BQU611VFQ6B6FT1Y764BERX7MX99Y","A25PFSORDO3SWQ","31ANT7FQN8OJYEBE2RCDNWOVYXNH57","","877","img/land3.png","76","877","3","1","3","1,0.5,0.5,0.5,1,0.5,0.5,0.5,1","",""
"","html-keyboard-response","133","115219","0.0-133.0","3BQU611VFQ6B6FT1Y764BERX7MX99Y","A25PFSORDO3SWQ","31ANT7FQN8OJYEBE2RCDNWOVYXNH57","","null","<img src=""img/land3.png"" style=""width:200px; border:14px solid green;"">","null","","","","","","",""
"","image-keyboard-response","134","115799","0.0-134.0","3BQU611VFQ6B6FT1Y764BERX7MX99Y","A25PFSORDO3SWQ","31ANT7FQN8OJYEBE2RCDNWOVYXNH57","","581","img/land3.png","76","581","3","1","3","1,0.5,0.5,0.5,1,0.5,0.5,0.5,1","",""
"","html-keyboard-response","135","116110","0.0-135.0","3BQU611VFQ6B6FT1Y764BERX7MX99Y","A25PFSORDO3SWQ","31ANT7FQN8OJYEBE2RCDNWOVYXNH57","","null","<img src=""img/land3.png"" style=""width:200px; border:14px solid green;"">","null","","","","","","",""
"","image-keyboard-response","136","117121","0.0-136.0","3BQU611VFQ6B6FT1Y764BERX7MX99Y","A25PFSORDO3SWQ","31ANT7FQN8OJYEBE2RCDNWOVYXNH57","","1009","img/land2.png","75","1009","2","1","2","1,0.5,0.5,0.5,1,0.5,0.5,0.5,1","",""
"","html-keyboard-response","137","117425","0.0-137.0","3BQU611VFQ6B6FT1Y764BERX7MX99Y","A25PFSORDO3SWQ","31ANT7FQN8OJYEBE2RCDNWOVYXNH57","","null","<img src=""img/land2.png"" style=""width:200px; border:14px solid green;"">","null","","","","","","",""
"","image-keyboard-response","138","118339","0.0-138.0","3BQU611VFQ6B6FT1Y764BERX7MX99Y","A25PFSORDO3SWQ","31ANT7FQN8OJYEBE2RCDNWOVYXNH57","","915","img/land1.png","74","915","1","1","1","1,0.5,0.5,0.5,1,0.5,0.5,0.5,1","",""
"","html-keyboard-response","139","118645","0.0-139.0","3BQU611VFQ6B6FT1Y764BERX7MX99Y","A25PFSORDO3SWQ","31ANT7FQN8OJYEBE2RCDNWOVYXNH57","","null","<img src=""img/land1.png"" style=""width:200px; border:14px solid green;"">","null","","","","","","",""
"","image-keyboard-response","140","119258","0.0-140.0","3BQU611VFQ6B6FT1Y764BERX7MX99Y","A25PFSORDO3SWQ","31ANT7FQN8OJYEBE2RCDNWOVYXNH57","","613","img/land1.png","74","613","1","1","1","1,0.5,0.5,0.5,1,0.5,0.5,0.5,1","",""
"","html-keyboard-response","141","119566","0.0-141.0","3BQU611VFQ6B6FT1Y764BERX7MX99Y","A25PFSORDO3SWQ","31ANT7FQN8OJYEBE2RCDNWOVYXNH57","","null","<img src=""img/land1.png"" style=""width:200px; border:14px solid green;"">","null","","","","","","",""
"","image-keyboard-response","142","121107","0.0-142.0","3BQU611VFQ6B6FT1Y764BERX7MX99Y","A25PFSORDO3SWQ","31ANT7FQN8OJYEBE2RCDNWOVYXNH57","","1540","img/land2.png","75","1541","2","1","2","1,0.5,0.5,0.5,1,0.5,0.5,0.5,1","",""
"","html-keyboard-response","143","121410","0.0-143.0","3BQU611VFQ6B6FT1Y764BERX7MX99Y","A25PFSORDO3SWQ","31ANT7FQN8OJYEBE2RCDNWOVYXNH57","","null","<img src=""img/land2.png"" style=""width:200px; border:14px solid green;"">","null","","","","","","",""
"","image-keyboard-response","144","122447","0.0-144.0","3BQU611VFQ6B6FT1Y764BERX7MX99Y","A25PFSORDO3SWQ","31ANT7FQN8OJYEBE2RCDNWOVYXNH57","","1037","img/land1.png","74","1037","1","1","1","1,0.5,0.5,0.5,1,0.5,0.5,0.5,1","",""
"","html-keyboard-response","145","122756","0.0-145.0","3BQU611VFQ6B6FT1Y764BERX7MX99Y","A25PFSORDO3SWQ","31ANT7FQN8OJYEBE2RCDNWOVYXNH57","","null","<img src=""img/land1.png"" style=""width:200px; border:14px solid green;"">","null","","","","","","",""
"","image-keyboard-response","146","123221","0.0-146.0","3BQU611VFQ6B6FT1Y764BERX7MX99Y","A25PFSORDO3SWQ","31ANT7FQN8OJYEBE2RCDNWOVYXNH57","","464","img/land1.png","74","465","1","1","1","1,0.5,0.5,0.5,1,0.5,0.5,0.5,1","",""
"","html-keyboard-response","147","123524","0.0-147.0","3BQU611VFQ6B6FT1Y764BERX7MX99Y","A25PFSORDO3SWQ","31ANT7FQN8OJYEBE2RCDNWOVYXNH57","","null","<img src=""img/land1.png"" style=""width:200px; border:14px solid green;"">","null","","","","","","",""
"","image-keyboard-response","148","124038","0.0-148.0","3BQU611VFQ6B6FT1Y764BERX7MX99Y","A25PFSORDO3SWQ","31ANT7FQN8OJYEBE2RCDNWOVYXNH57","","513","img/land1.png","74","514","1","1","1","1,0.5,0.5,0.5,1,0.5,0.5,0.5,1","",""
"","html-keyboard-response","149","124340","0.0-149.0","3BQU611VFQ6B6FT1Y764BERX7MX99Y","A25PFSORDO3SWQ","31ANT7FQN8OJYEBE2RCDNWOVYXNH57","","null","<img src=""img/land1.png"" style=""width:200px; border:14px solid green;"">","null","","","","","","",""
"","image-keyboard-response","150","125300","0.0-150.0","3BQU611VFQ6B6FT1Y764BERX7MX99Y","A25PFSORDO3SWQ","31ANT7FQN8OJYEBE2RCDNWOVYXNH57","","959","img/land2.png","75","960","2","1","2","1,0.5,0.5,0.5,1,0.5,0.5,0.5,1","",""
"","html-keyboard-response","151","125610","0.0-151.0","3BQU611VFQ6B6FT1Y764BERX7MX99Y","A25PFSORDO3SWQ","31ANT7FQN8OJYEBE2RCDNWOVYXNH57","","null","<img src=""img/land2.png"" style=""width:200px; border:14px solid green;"">","null","","","","","","",""
"","image-keyboard-response","152","126358","0.0-152.0","3BQU611VFQ6B6FT1Y764BERX7MX99Y","A25PFSORDO3SWQ","31ANT7FQN8OJYEBE2RCDNWOVYXNH57","","748","img/land3.png","76","748","3","1","3","1,0.5,0.5,0.5,1,0.5,0.5,0.5,1","",""
"","html-keyboard-response","153","126673","0.0-153.0","3BQU611VFQ6B6FT1Y764BERX7MX99Y","A25PFSORDO3SWQ","31ANT7FQN8OJYEBE2RCDNWOVYXNH57","","null","<img src=""img/land3.png"" style=""width:200px; border:14px solid green;"">","null","","","","","","",""
"","image-keyboard-response","154","127455","0.0-154.0","3BQU611VFQ6B6FT1Y764BERX7MX99Y","A25PFSORDO3SWQ","31ANT7FQN8OJYEBE2RCDNWOVYXNH57","","782","img/land2.png","75","783","2","1","2","1,0.5,0.5,0.5,1,0.5,0.5,0.5,1","",""
"","html-keyboard-response","155","127767","0.0-155.0","3BQU611VFQ6B6FT1Y764BERX7MX99Y","A25PFSORDO3SWQ","31ANT7FQN8OJYEBE2RCDNWOVYXNH57","","null","<img src=""img/land2.png"" style=""width:200px; border:14px solid green;"">","null","","","","","","",""
"","image-keyboard-response","156","128292","0.0-156.0","3BQU611VFQ6B6FT1Y764BERX7MX99Y","A25PFSORDO3SWQ","31ANT7FQN8OJYEBE2RCDNWOVYXNH57","","525","img/land2.png","75","525","2","1","2","1,0.5,0.5,0.5,1,0.5,0.5,0.5,1","",""
"","html-keyboard-response","157","128596","0.0-157.0","3BQU611VFQ6B6FT1Y764BERX7MX99Y","A25PFSORDO3SWQ","31ANT7FQN8OJYEBE2RCDNWOVYXNH57","","null","<img src=""img/land2.png"" style=""width:200px; border:14px solid green;"">","null","","","","","","",""
"","image-keyboard-response","158","129819","0.0-158.0","3BQU611VFQ6B6FT1Y764BERX7MX99Y","A25PFSORDO3SWQ","31ANT7FQN8OJYEBE2RCDNWOVYXNH57","","1221","img/land3.png","76","1222","3","1","3","1,0.5,0.5,0.5,1,0.5,0.5,0.5,1","",""
"","html-keyboard-response","159","130125","0.0-159.0","3BQU611VFQ6B6FT1Y764BERX7MX99Y","A25PFSORDO3SWQ","31ANT7FQN8OJYEBE2RCDNWOVYXNH57","","null","<img src=""img/land3.png"" style=""width:200px; border:14px solid green;"">","null","","","","","","",""
"","image-keyboard-response","160","130591","0.0-160.0","3BQU611VFQ6B6FT1Y764BERX7MX99Y","A25PFSORDO3SWQ","31ANT7FQN8OJYEBE2RCDNWOVYXNH57","","466","img/land3.png","76","466","3","1","3","1,0.5,0.5,0.5,1,0.5,0.5,0.5,1","",""
"","html-keyboard-response","161","130905","0.0-161.0","3BQU611VFQ6B6FT1Y764BERX7MX99Y","A25PFSORDO3SWQ","31ANT7FQN8OJYEBE2RCDNWOVYXNH57","","null","<img src=""img/land3.png"" style=""width:200px; border:14px solid green;"">","null","","","","","","",""
"","image-keyboard-response","162","131287","0.0-162.0","3BQU611VFQ6B6FT1Y764BERX7MX99Y","A25PFSORDO3SWQ","31ANT7FQN8OJYEBE2RCDNWOVYXNH57","","380","img/land3.png","76","381","3","1","3","1,0.5,0.5,0.5,1,0.5,0.5,0.5,1","",""
"","html-keyboard-response","163","131591","0.0-163.0","3BQU611VFQ6B6FT1Y764BERX7MX99Y","A25PFSORDO3SWQ","31ANT7FQN8OJYEBE2RCDNWOVYXNH57","","null","<img src=""img/land3.png"" style=""width:200px; border:14px solid green;"">","null","","","","","","",""
"","image-keyboard-response","164","131999","0.0-164.0","3BQU611VFQ6B6FT1Y764BERX7MX99Y","A25PFSORDO3SWQ","31ANT7FQN8OJYEBE2RCDNWOVYXNH57","","407","img/land3.png","76","407","3","1","3","1,0.5,0.5,0.5,1,0.5,0.5,0.5,1","",""
"","html-keyboard-response","165","132313","0.0-165.0","3BQU611VFQ6B6FT1Y764BERX7MX99Y","A25PFSORDO3SWQ","31ANT7FQN8OJYEBE2RCDNWOVYXNH57","","null","<img src=""img/land3.png"" style=""width:200px; border:14px solid green;"">","null","","","","","","",""
"","image-keyboard-response","166","133279","0.0-166.0","3BQU611VFQ6B6FT1Y764BERX7MX99Y","A25PFSORDO3SWQ","31ANT7FQN8OJYEBE2RCDNWOVYXNH57","","965","img/land2.png","75","967","2","1","2","1,0.5,0.5,0.5,1,0.5,0.5,0.5,1","",""
"","html-keyboard-response","167","133581","0.0-167.0","3BQU611VFQ6B6FT1Y764BERX7MX99Y","A25PFSORDO3SWQ","31ANT7FQN8OJYEBE2RCDNWOVYXNH57","","null","<img src=""img/land2.png"" style=""width:200px; border:14px solid green;"">","null","","","","","","",""
"","image-keyboard-response","168","133973","0.0-168.0","3BQU611VFQ6B6FT1Y764BERX7MX99Y","A25PFSORDO3SWQ","31ANT7FQN8OJYEBE2RCDNWOVYXNH57","","392","img/land2.png","75","392","2","1","2","1,0.5,0.5,0.5,1,0.5,0.5,0.5,1","",""
"","html-keyboard-response","169","134285","0.0-169.0","3BQU611VFQ6B6FT1Y764BERX7MX99Y","A25PFSORDO3SWQ","31ANT7FQN8OJYEBE2RCDNWOVYXNH57","","null","<img src=""img/land2.png"" style=""width:200px; border:14px solid green;"">","null","","","","","","",""
"","html-keyboard-response","170","138708","0.0-170.0","3BQU611VFQ6B6FT1Y764BERX7MX99Y","A25PFSORDO3SWQ","31ANT7FQN8OJYEBE2RCDNWOVYXNH57","","","","","","","","","","",""
"","image-keyboard-response","171","140628","0.0-171.0","3BQU611VFQ6B6FT1Y764BERX7MX99Y","A25PFSORDO3SWQ","31ANT7FQN8OJYEBE2RCDNWOVYXNH57","","1918","img/land5.png","74","1920","1","0","2","1,0.5,0.5,0.5,1,0.5,0.5,0.5,1","",""
"","html-keyboard-response","172","140935","0.0-172.0","3BQU611VFQ6B6FT1Y764BERX7MX99Y","A25PFSORDO3SWQ","31ANT7FQN8OJYEBE2RCDNWOVYXNH57","","null","<img src=""img/land5.png"" style=""width:200px;border:14px solid red;"">","null","","","","","","",""
"","image-keyboard-response","173","142149","0.0-173.0","3BQU611VFQ6B6FT1Y764BERX7MX99Y","A25PFSORDO3SWQ","31ANT7FQN8OJYEBE2RCDNWOVYXNH57","","1214","img/land4.png","74","1214","1","1","1","1,0.5,0.5,0.5,1,0.5,0.5,0.5,1","",""
"","html-keyboard-response","174","142460","0.0-174.0","3BQU611VFQ6B6FT1Y764BERX7MX99Y","A25PFSORDO3SWQ","31ANT7FQN8OJYEBE2RCDNWOVYXNH57","","null","<img src=""img/land4.png"" style=""width:200px; border:14px solid green;"">","null","","","","","","",""
"","image-keyboard-response","175","143453","0.0-175.0","3BQU611VFQ6B6FT1Y764BERX7MX99Y","A25PFSORDO3SWQ","31ANT7FQN8OJYEBE2RCDNWOVYXNH57","","991","img/land6.png","76","992","3","1","3","1,0.5,0.5,0.5,1,0.5,0.5,0.5,1","",""
"","html-keyboard-response","176","143759","0.0-176.0","3BQU611VFQ6B6FT1Y764BERX7MX99Y","A25PFSORDO3SWQ","31ANT7FQN8OJYEBE2RCDNWOVYXNH57","","null","<img src=""img/land6.png"" style=""width:200px; border:14px solid green;"">","null","","","","","","",""
"","image-keyboard-response","177","144897","0.0-177.0","3BQU611VFQ6B6FT1Y764BERX7MX99Y","A25PFSORDO3SWQ","31ANT7FQN8OJYEBE2RCDNWOVYXNH57","","1137","img/land4.png","74","1138","1","1","1","1,0.5,0.5,0.5,1,0.5,0.5,0.5,1","",""
"","html-keyboard-response","178","145212","0.0-178.0","3BQU611VFQ6B6FT1Y764BERX7MX99Y","A25PFSORDO3SWQ","31ANT7FQN8OJYEBE2RCDNWOVYXNH57","","null","<img src=""img/land4.png"" style=""width:200px; border:14px solid green;"">","null","","","","","","",""
"","image-keyboard-response","179","146298","0.0-179.0","3BQU611VFQ6B6FT1Y764BERX7MX99Y","A25PFSORDO3SWQ","31ANT7FQN8OJYEBE2RCDNWOVYXNH57","","1085","img/land5.png","75","1086","2","1","2","1,0.5,0.5,0.5,1,0.5,0.5,0.5,1","",""
"","html-keyboard-response","180","146612","0.0-180.0","3BQU611VFQ6B6FT1Y764BERX7MX99Y","A25PFSORDO3SWQ","31ANT7FQN8OJYEBE2RCDNWOVYXNH57","","null","<img src=""img/land5.png"" style=""width:200px; border:14px solid green;"">","null","","","","","","",""
"","image-keyboard-response","181","147823","0.0-181.0","3BQU611VFQ6B6FT1Y764BERX7MX99Y","A25PFSORDO3SWQ","31ANT7FQN8OJYEBE2RCDNWOVYXNH57","","1210","img/land6.png","76","1211","3","1","3","1,0.5,0.5,0.5,1,0.5,0.5,0.5,1","",""
"","html-keyboard-response","182","148137","0.0-182.0","3BQU611VFQ6B6FT1Y764BERX7MX99Y","A25PFSORDO3SWQ","31ANT7FQN8OJYEBE2RCDNWOVYXNH57","","null","<img src=""img/land6.png"" style=""width:200px; border:14px solid green;"">","null","","","","","","",""
"","image-keyboard-response","183","149264","0.0-183.0","3BQU611VFQ6B6FT1Y764BERX7MX99Y","A25PFSORDO3SWQ","31ANT7FQN8OJYEBE2RCDNWOVYXNH57","","1125","img/land4.png","74","1126","1","1","1","1,0.5,0.5,0.5,1,0.5,0.5,0.5,1","",""
"","html-keyboard-response","184","149579","0.0-184.0","3BQU611VFQ6B6FT1Y764BERX7MX99Y","A25PFSORDO3SWQ","31ANT7FQN8OJYEBE2RCDNWOVYXNH57","","null","<img src=""img/land4.png"" style=""width:200px; border:14px solid green;"">","null","","","","","","",""
"","image-keyboard-response","185","150383","0.0-185.0","3BQU611VFQ6B6FT1Y764BERX7MX99Y","A25PFSORDO3SWQ","31ANT7FQN8OJYEBE2RCDNWOVYXNH57","","805","img/land4.png","74","805","1","1","1","1,0.5,0.5,0.5,1,0.5,0.5,0.5,1","",""
"","html-keyboard-response","186","150686","0.0-186.0","3BQU611VFQ6B6FT1Y764BERX7MX99Y","A25PFSORDO3SWQ","31ANT7FQN8OJYEBE2RCDNWOVYXNH57","","null","<img src=""img/land4.png"" style=""width:200px; border:14px solid green;"">","null","","","","","","",""
"","image-keyboard-response","187","151604","0.0-187.0","3BQU611VFQ6B6FT1Y764BERX7MX99Y","A25PFSORDO3SWQ","31ANT7FQN8OJYEBE2RCDNWOVYXNH57","","917","img/land6.png","76","918","3","1","3","1,0.5,0.5,0.5,1,0.5,0.5,0.5,1","",""
"","html-keyboard-response","188","151906","0.0-188.0","3BQU611VFQ6B6FT1Y764BERX7MX99Y","A25PFSORDO3SWQ","31ANT7FQN8OJYEBE2RCDNWOVYXNH57","","null","<img src=""img/land6.png"" style=""width:200px; border:14px solid green;"">","null","","","","","","",""
"","image-keyboard-response","189","152742","0.0-189.0","3BQU611VFQ6B6FT1Y764BERX7MX99Y","A25PFSORDO3SWQ","31ANT7FQN8OJYEBE2RCDNWOVYXNH57","","836","img/land4.png","74","837","1","1","1","1,0.5,0.5,0.5,1,0.5,0.5,0.5,1","",""
"","html-keyboard-response","190","153043","0.0-190.0","3BQU611VFQ6B6FT1Y764BERX7MX99Y","A25PFSORDO3SWQ","31ANT7FQN8OJYEBE2RCDNWOVYXNH57","","null","<img src=""img/land4.png"" style=""width:200px; border:14px solid green;"">","null","","","","","","",""
"","image-keyboard-response","191","153739","0.0-191.0","3BQU611VFQ6B6FT1Y764BERX7MX99Y","A25PFSORDO3SWQ","31ANT7FQN8OJYEBE2RCDNWOVYXNH57","","695","img/land4.png","74","696","1","1","1","1,0.5,0.5,0.5,1,0.5,0.5,0.5,1","",""
"","html-keyboard-response","192","154042","0.0-192.0","3BQU611VFQ6B6FT1Y764BERX7MX99Y","A25PFSORDO3SWQ","31ANT7FQN8OJYEBE2RCDNWOVYXNH57","","null","<img src=""img/land4.png"" style=""width:200px; border:14px solid green;"">","null","","","","","","",""
"","image-keyboard-response","193","154960","0.0-193.0","3BQU611VFQ6B6FT1Y764BERX7MX99Y","A25PFSORDO3SWQ","31ANT7FQN8OJYEBE2RCDNWOVYXNH57","","917","img/land5.png","75","918","2","1","2","1,0.5,0.5,0.5,1,0.5,0.5,0.5,1","",""
"","html-keyboard-response","194","155270","0.0-194.0","3BQU611VFQ6B6FT1Y764BERX7MX99Y","A25PFSORDO3SWQ","31ANT7FQN8OJYEBE2RCDNWOVYXNH57","","null","<img src=""img/land5.png"" style=""width:200px; border:14px solid green;"">","null","","","","","","",""
"","image-keyboard-response","195","156119","0.0-195.0","3BQU611VFQ6B6FT1Y764BERX7MX99Y","A25PFSORDO3SWQ","31ANT7FQN8OJYEBE2RCDNWOVYXNH57","","848","img/land4.png","74","848","1","1","1","1,0.5,0.5,0.5,1,0.5,0.5,0.5,1","",""
"","html-keyboard-response","196","156425","0.0-196.0","3BQU611VFQ6B6FT1Y764BERX7MX99Y","A25PFSORDO3SWQ","31ANT7FQN8OJYEBE2RCDNWOVYXNH57","","null","<img src=""img/land4.png"" style=""width:200px; border:14px solid green;"">","null","","","","","","",""
"","image-keyboard-response","197","157380","0.0-197.0","3BQU611VFQ6B6FT1Y764BERX7MX99Y","A25PFSORDO3SWQ","31ANT7FQN8OJYEBE2RCDNWOVYXNH57","","955","img/land6.png","76","956","3","1","3","1,0.5,0.5,0.5,1,0.5,0.5,0.5,1","",""
"","html-keyboard-response","198","157689","0.0-198.0","3BQU611VFQ6B6FT1Y764BERX7MX99Y","A25PFSORDO3SWQ","31ANT7FQN8OJYEBE2RCDNWOVYXNH57","","null","<img src=""img/land6.png"" style=""width:200px; border:14px solid green;"">","null","","","","","","",""
"","image-keyboard-response","199","158438","0.0-199.0","3BQU611VFQ6B6FT1Y764BERX7MX99Y","A25PFSORDO3SWQ","31ANT7FQN8OJYEBE2RCDNWOVYXNH57","","748","img/land5.png","75","748","2","1","2","1,0.5,0.5,0.5,1,0.5,0.5,0.5,1","",""
"","html-keyboard-response","200","158747","0.0-200.0","3BQU611VFQ6B6FT1Y764BERX7MX99Y","A25PFSORDO3SWQ","31ANT7FQN8OJYEBE2RCDNWOVYXNH57","","null","<img src=""img/land5.png"" style=""width:200px; border:14px solid green;"">","null","","","","","","",""
"","image-keyboard-response","201","160204","0.0-201.0","3BQU611VFQ6B6FT1Y764BERX7MX99Y","A25PFSORDO3SWQ","31ANT7FQN8OJYEBE2RCDNWOVYXNH57","","1456","img/land6.png","74","1456","1","0","3","1,0.5,0.5,0.5,1,0.5,0.5,0.5,1","",""
"","html-keyboard-response","202","160515","0.0-202.0","3BQU611VFQ6B6FT1Y764BERX7MX99Y","A25PFSORDO3SWQ","31ANT7FQN8OJYEBE2RCDNWOVYXNH57","","null","<img src=""img/land6.png"" style=""width:200px;border:14px solid red;"">","null","","","","","","",""
"","image-keyboard-response","203","161586","0.0-203.0","3BQU611VFQ6B6FT1Y764BERX7MX99Y","A25PFSORDO3SWQ","31ANT7FQN8OJYEBE2RCDNWOVYXNH57","","1070","img/land4.png","74","1070","1","1","1","1,0.5,0.5,0.5,1,0.5,0.5,0.5,1","",""
"","html-keyboard-response","204","161890","0.0-204.0","3BQU611VFQ6B6FT1Y764BERX7MX99Y","A25PFSORDO3SWQ","31ANT7FQN8OJYEBE2RCDNWOVYXNH57","","null","<img src=""img/land4.png"" style=""width:200px; border:14px solid green;"">","null","","","","","","",""
"","image-keyboard-response","205","162443","0.0-205.0","3BQU611VFQ6B6FT1Y764BERX7MX99Y","A25PFSORDO3SWQ","31ANT7FQN8OJYEBE2RCDNWOVYXNH57","","553","img/land4.png","74","554","1","1","1","1,0.5,0.5,0.5,1,0.5,0.5,0.5,1","",""
"","html-keyboard-response","206","162747","0.0-206.0","3BQU611VFQ6B6FT1Y764BERX7MX99Y","A25PFSORDO3SWQ","31ANT7FQN8OJYEBE2RCDNWOVYXNH57","","null","<img src=""img/land4.png"" style=""width:200px; border:14px solid green;"">","null","","","","","","",""
"","image-keyboard-response","207","163358","0.0-207.0","3BQU611VFQ6B6FT1Y764BERX7MX99Y","A25PFSORDO3SWQ","31ANT7FQN8OJYEBE2RCDNWOVYXNH57","","611","img/land4.png","74","611","1","1","1","1,0.5,0.5,0.5,1,0.5,0.5,0.5,1","",""
"","html-keyboard-response","208","163667","0.0-208.0","3BQU611VFQ6B6FT1Y764BERX7MX99Y","A25PFSORDO3SWQ","31ANT7FQN8OJYEBE2RCDNWOVYXNH57","","null","<img src=""img/land4.png"" style=""width:200px; border:14px solid green;"">","null","","","","","","",""
"","image-keyboard-response","209","165065","0.0-209.0","3BQU611VFQ6B6FT1Y764BERX7MX99Y","A25PFSORDO3SWQ","31ANT7FQN8OJYEBE2RCDNWOVYXNH57","","1398","img/land6.png","75","1398","2","1","3","1,0.5,0.5,0.5,1,0.5,0.5,0.5,1","",""
"","html-keyboard-response","210","165371","0.0-210.0","3BQU611VFQ6B6FT1Y764BERX7MX99Y","A25PFSORDO3SWQ","31ANT7FQN8OJYEBE2RCDNWOVYXNH57","","null","<img src=""img/land6.png"" style=""width:200px; border:14px solid green;"">","null","","","","","","",""
"","image-keyboard-response","211","166223","0.0-211.0","3BQU611VFQ6B6FT1Y764BERX7MX99Y","A25PFSORDO3SWQ","31ANT7FQN8OJYEBE2RCDNWOVYXNH57","","849","img/land4.png","74","850","1","1","1","1,0.5,0.5,0.5,1,0.5,0.5,0.5,1","",""
"","html-keyboard-response","212","166528","0.0-212.0","3BQU611VFQ6B6FT1Y764BERX7MX99Y","A25PFSORDO3SWQ","31ANT7FQN8OJYEBE2RCDNWOVYXNH57","","null","<img src=""img/land4.png"" style=""width:200px; border:14px solid green;"">","null","","","","","","",""
"","image-keyboard-response","213","167262","0.0-213.0","3BQU611VFQ6B6FT1Y764BERX7MX99Y","A25PFSORDO3SWQ","31ANT7FQN8OJYEBE2RCDNWOVYXNH57","","734","img/land4.png","74","734","1","1","1","1,0.5,0.5,0.5,1,0.5,0.5,0.5,1","",""
"","html-keyboard-response","214","167578","0.0-214.0","3BQU611VFQ6B6FT1Y764BERX7MX99Y","A25PFSORDO3SWQ","31ANT7FQN8OJYEBE2RCDNWOVYXNH57","","null","<img src=""img/land4.png"" style=""width:200px; border:14px solid green;"">","null","","","","","","",""
"","image-keyboard-response","215","168137","0.0-215.0","3BQU611VFQ6B6FT1Y764BERX7MX99Y","A25PFSORDO3SWQ","31ANT7FQN8OJYEBE2RCDNWOVYXNH57","","558","img/land4.png","74","559","1","1","1","1,0.5,0.5,0.5,1,0.5,0.5,0.5,1","",""
"","html-keyboard-response","216","168451","0.0-216.0","3BQU611VFQ6B6FT1Y764BERX7MX99Y","A25PFSORDO3SWQ","31ANT7FQN8OJYEBE2RCDNWOVYXNH57","","null","<img src=""img/land4.png"" style=""width:200px; border:14px solid green;"">","null","","","","","","",""
"","image-keyboard-response","217","169521","0.0-217.0","3BQU611VFQ6B6FT1Y764BERX7MX99Y","A25PFSORDO3SWQ","31ANT7FQN8OJYEBE2RCDNWOVYXNH57","","1069","img/land5.png","75","1069","2","1","2","1,0.5,0.5,0.5,1,0.5,0.5,0.5,1","",""
"","html-keyboard-response","218","169834","0.0-218.0","3BQU611VFQ6B6FT1Y764BERX7MX99Y","A25PFSORDO3SWQ","31ANT7FQN8OJYEBE2RCDNWOVYXNH57","","null","<img src=""img/land5.png"" style=""width:200px; border:14px solid green;"">","null","","","","","","",""
"","image-keyboard-response","219","170719","0.0-219.0","3BQU611VFQ6B6FT1Y764BERX7MX99Y","A25PFSORDO3SWQ","31ANT7FQN8OJYEBE2RCDNWOVYXNH57","","884","img/land4.png","74","885","1","1","1","1,0.5,0.5,0.5,1,0.5,0.5,0.5,1","",""
"","html-keyboard-response","220","171034","0.0-220.0","3BQU611VFQ6B6FT1Y764BERX7MX99Y","A25PFSORDO3SWQ","31ANT7FQN8OJYEBE2RCDNWOVYXNH57","","null","<img src=""img/land4.png"" style=""width:200px; border:14px solid green;"">","null","","","","","","",""
"","image-keyboard-response","221","172043","0.0-221.0","3BQU611VFQ6B6FT1Y764BERX7MX99Y","A25PFSORDO3SWQ","31ANT7FQN8OJYEBE2RCDNWOVYXNH57","","1006","img/land5.png","75","1008","2","1","2","1,0.5,0.5,0.5,1,0.5,0.5,0.5,1","",""
"","html-keyboard-response","222","172346","0.0-222.0","3BQU611VFQ6B6FT1Y764BERX7MX99Y","A25PFSORDO3SWQ","31ANT7FQN8OJYEBE2RCDNWOVYXNH57","","null","<img src=""img/land5.png"" style=""width:200px; border:14px solid green;"">","null","","","","","","",""
"","image-keyboard-response","223","172998","0.0-223.0","3BQU611VFQ6B6FT1Y764BERX7MX99Y","A25PFSORDO3SWQ","31ANT7FQN8OJYEBE2RCDNWOVYXNH57","","651","img/land5.png","75","651","2","1","2","1,0.5,0.5,0.5,1,0.5,0.5,0.5,1","",""
"","html-keyboard-response","224","173300","0.0-224.0","3BQU611VFQ6B6FT1Y764BERX7MX99Y","A25PFSORDO3SWQ","31ANT7FQN8OJYEBE2RCDNWOVYXNH57","","null","<img src=""img/land5.png"" style=""width:200px; border:14px solid green;"">","null","","","","","","",""
"","image-keyboard-response","225","174361","0.0-225.0","3BQU611VFQ6B6FT1Y764BERX7MX99Y","A25PFSORDO3SWQ","31ANT7FQN8OJYEBE2RCDNWOVYXNH57","","1061","img/land6.png","76","1061","3","1","3","1,0.5,0.5,0.5,1,0.5,0.5,0.5,1","",""
"","html-keyboard-response","226","174703","0.0-226.0","3BQU611VFQ6B6FT1Y764BERX7MX99Y","A25PFSORDO3SWQ","31ANT7FQN8OJYEBE2RCDNWOVYXNH57","","null","<img src=""img/land6.png"" style=""width:200px; border:14px solid green;"">","null","","","","","","",""
"","image-keyboard-response","227","175417","0.0-227.0","3BQU611VFQ6B6FT1Y764BERX7MX99Y","A25PFSORDO3SWQ","31ANT7FQN8OJYEBE2RCDNWOVYXNH57","","714","img/land4.png","74","714","1","1","1","1,0.5,0.5,0.5,1,0.5,0.5,0.5,1","",""
"","html-keyboard-response","228","175717","0.0-228.0","3BQU611VFQ6B6FT1Y764BERX7MX99Y","A25PFSORDO3SWQ","31ANT7FQN8OJYEBE2RCDNWOVYXNH57","","null","<img src=""img/land4.png"" style=""width:200px; border:14px solid green;"">","null","","","","","","",""
"","image-keyboard-response","229","176536","0.0-229.0","3BQU611VFQ6B6FT1Y764BERX7MX99Y","A25PFSORDO3SWQ","31ANT7FQN8OJYEBE2RCDNWOVYXNH57","","820","img/land6.png","76","820","3","1","3","1,0.5,0.5,0.5,1,0.5,0.5,0.5,1","",""
"","html-keyboard-response","230","176845","0.0-230.0","3BQU611VFQ6B6FT1Y764BERX7MX99Y","A25PFSORDO3SWQ","31ANT7FQN8OJYEBE2RCDNWOVYXNH57","","null","<img src=""img/land6.png"" style=""width:200px; border:14px solid green;"">","null","","","","","","",""
"","image-keyboard-response","231","177512","0.0-231.0","3BQU611VFQ6B6FT1Y764BERX7MX99Y","A25PFSORDO3SWQ","31ANT7FQN8OJYEBE2RCDNWOVYXNH57","","666","img/land4.png","74","666","1","1","1","1,0.5,0.5,0.5,1,0.5,0.5,0.5,1","",""
"","html-keyboard-response","232","177819","0.0-232.0","3BQU611VFQ6B6FT1Y764BERX7MX99Y","A25PFSORDO3SWQ","31ANT7FQN8OJYEBE2RCDNWOVYXNH57","","null","<img src=""img/land4.png"" style=""width:200px; border:14px solid green;"">","null","","","","","","",""
"","image-keyboard-response","233","178570","0.0-233.0","3BQU611VFQ6B6FT1Y764BERX7MX99Y","A25PFSORDO3SWQ","31ANT7FQN8OJYEBE2RCDNWOVYXNH57","","749","img/land4.png","74","749","1","1","1","1,0.5,0.5,0.5,1,0.5,0.5,0.5,1","",""
"","html-keyboard-response","234","178884","0.0-234.0","3BQU611VFQ6B6FT1Y764BERX7MX99Y","A25PFSORDO3SWQ","31ANT7FQN8OJYEBE2RCDNWOVYXNH57","","null","<img src=""img/land4.png"" style=""width:200px; border:14px solid green;"">","null","","","","","","",""
"","image-keyboard-response","235","179608","0.0-235.0","3BQU611VFQ6B6FT1Y764BERX7MX99Y","A25PFSORDO3SWQ","31ANT7FQN8OJYEBE2RCDNWOVYXNH57","","723","img/land5.png","75","723","2","1","2","1,0.5,0.5,0.5,1,0.5,0.5,0.5,1","",""
"","html-keyboard-response","236","179919","0.0-236.0","3BQU611VFQ6B6FT1Y764BERX7MX99Y","A25PFSORDO3SWQ","31ANT7FQN8OJYEBE2RCDNWOVYXNH57","","null","<img src=""img/land5.png"" style=""width:200px; border:14px solid green;"">","null","","","","","","",""
"","image-keyboard-response","237","180708","0.0-237.0","3BQU611VFQ6B6FT1Y764BERX7MX99Y","A25PFSORDO3SWQ","31ANT7FQN8OJYEBE2RCDNWOVYXNH57","","789","img/land6.png","76","789","3","1","3","1,0.5,0.5,0.5,1,0.5,0.5,0.5,1","",""
"","html-keyboard-response","238","181018","0.0-238.0","3BQU611VFQ6B6FT1Y764BERX7MX99Y","A25PFSORDO3SWQ","31ANT7FQN8OJYEBE2RCDNWOVYXNH57","","null","<img src=""img/land6.png"" style=""width:200px; border:14px solid green;"">","null","","","","","","",""
"","image-keyboard-response","239","181725","0.0-239.0","3BQU611VFQ6B6FT1Y764BERX7MX99Y","A25PFSORDO3SWQ","31ANT7FQN8OJYEBE2RCDNWOVYXNH57","","706","img/land6.png","76","707","3","1","3","1,0.5,0.5,0.5,1,0.5,0.5,0.5,1","",""
"","html-keyboard-response","240","182031","0.0-240.0","3BQU611VFQ6B6FT1Y764BERX7MX99Y","A25PFSORDO3SWQ","31ANT7FQN8OJYEBE2RCDNWOVYXNH57","","null","<img src=""img/land6.png"" style=""width:200px; border:14px solid green;"">","null","","","","","","",""
"","image-keyboard-response","241","183006","0.0-241.0","3BQU611VFQ6B6FT1Y764BERX7MX99Y","A25PFSORDO3SWQ","31ANT7FQN8OJYEBE2RCDNWOVYXNH57","","974","img/land4.png","74","974","1","1","1","1,0.5,0.5,0.5,1,0.5,0.5,0.5,1","",""
"","html-keyboard-response","242","183308","0.0-242.0","3BQU611VFQ6B6FT1Y764BERX7MX99Y","A25PFSORDO3SWQ","31ANT7FQN8OJYEBE2RCDNWOVYXNH57","","null","<img src=""img/land4.png"" style=""width:200px; border:14px solid green;"">","null","","","","","","",""
"","image-keyboard-response","243","184227","0.0-243.0","3BQU611VFQ6B6FT1Y764BERX7MX99Y","A25PFSORDO3SWQ","31ANT7FQN8OJYEBE2RCDNWOVYXNH57","","918","img/land6.png","76","918","3","1","3","1,0.5,0.5,0.5,1,0.5,0.5,0.5,1","",""
"","html-keyboard-response","244","184540","0.0-244.0","3BQU611VFQ6B6FT1Y764BERX7MX99Y","A25PFSORDO3SWQ","31ANT7FQN8OJYEBE2RCDNWOVYXNH57","","null","<img src=""img/land6.png"" style=""width:200px; border:14px solid green;"">","null","","","","","","",""
"","image-keyboard-response","245","185366","0.0-245.0","3BQU611VFQ6B6FT1Y764BERX7MX99Y","A25PFSORDO3SWQ","31ANT7FQN8OJYEBE2RCDNWOVYXNH57","","825","img/land5.png","75","825","2","1","2","1,0.5,0.5,0.5,1,0.5,0.5,0.5,1","",""
"","html-keyboard-response","246","185672","0.0-246.0","3BQU611VFQ6B6FT1Y764BERX7MX99Y","A25PFSORDO3SWQ","31ANT7FQN8OJYEBE2RCDNWOVYXNH57","","null","<img src=""img/land5.png"" style=""width:200px; border:14px solid green;"">","null","","","","","","",""
"","image-keyboard-response","247","186465","0.0-247.0","3BQU611VFQ6B6FT1Y764BERX7MX99Y","A25PFSORDO3SWQ","31ANT7FQN8OJYEBE2RCDNWOVYXNH57","","793","img/land5.png","75","793","2","1","2","1,0.5,0.5,0.5,1,0.5,0.5,0.5,1","",""
"","html-keyboard-response","248","186776","0.0-248.0","3BQU611VFQ6B6FT1Y764BERX7MX99Y","A25PFSORDO3SWQ","31ANT7FQN8OJYEBE2RCDNWOVYXNH57","","null","<img src=""img/land5.png"" style=""width:200px; border:14px solid green;"">","null","","","","","","",""
"","image-keyboard-response","249","187865","0.0-249.0","3BQU611VFQ6B6FT1Y764BERX7MX99Y","A25PFSORDO3SWQ","31ANT7FQN8OJYEBE2RCDNWOVYXNH57","","1088","img/land4.png","74","1089","1","1","1","1,0.5,0.5,0.5,1,0.5,0.5,0.5,1","",""
"","html-keyboard-response","250","188172","0.0-250.0","3BQU611VFQ6B6FT1Y764BERX7MX99Y","A25PFSORDO3SWQ","31ANT7FQN8OJYEBE2RCDNWOVYXNH57","","null","<img src=""img/land4.png"" style=""width:200px; border:14px solid green;"">","null","","","","","","",""
"","image-keyboard-response","251","188801","0.0-251.0","3BQU611VFQ6B6FT1Y764BERX7MX99Y","A25PFSORDO3SWQ","31ANT7FQN8OJYEBE2RCDNWOVYXNH57","","629","img/land4.png","74","630","1","1","1","1,0.5,0.5,0.5,1,0.5,0.5,0.5,1","",""
"","html-keyboard-response","252","189109","0.0-252.0","3BQU611VFQ6B6FT1Y764BERX7MX99Y","A25PFSORDO3SWQ","31ANT7FQN8OJYEBE2RCDNWOVYXNH57","","null","<img src=""img/land4.png"" style=""width:200px; border:14px solid green;"">","null","","","","","","",""
"","image-keyboard-response","253","189739","0.0-253.0","3BQU611VFQ6B6FT1Y764BERX7MX99Y","A25PFSORDO3SWQ","31ANT7FQN8OJYEBE2RCDNWOVYXNH57","","628","img/land4.png","74","629","1","1","1","1,0.5,0.5,0.5,1,0.5,0.5,0.5,1","",""
"","html-keyboard-response","254","190044","0.0-254.0","3BQU611VFQ6B6FT1Y764BERX7MX99Y","A25PFSORDO3SWQ","31ANT7FQN8OJYEBE2RCDNWOVYXNH57","","null","<img src=""img/land4.png"" style=""width:200px; border:14px solid green;"">","null","","","","","","",""
"","image-keyboard-response","255","191023","0.0-255.0","3BQU611VFQ6B6FT1Y764BERX7MX99Y","A25PFSORDO3SWQ","31ANT7FQN8OJYEBE2RCDNWOVYXNH57","","977","img/land6.png","76","977","3","1","3","1,0.5,0.5,0.5,1,0.5,0.5,0.5,1","",""
"","html-keyboard-response","256","191338","0.0-256.0","3BQU611VFQ6B6FT1Y764BERX7MX99Y","A25PFSORDO3SWQ","31ANT7FQN8OJYEBE2RCDNWOVYXNH57","","null","<img src=""img/land6.png"" style=""width:200px; border:14px solid green;"">","null","","","","","","",""
"","image-keyboard-response","257","192099","0.0-257.0","3BQU611VFQ6B6FT1Y764BERX7MX99Y","A25PFSORDO3SWQ","31ANT7FQN8OJYEBE2RCDNWOVYXNH57","","761","img/land4.png","74","761","1","1","1","1,0.5,0.5,0.5,1,0.5,0.5,0.5,1","",""
"","html-keyboard-response","258","192407","0.0-258.0","3BQU611VFQ6B6FT1Y764BERX7MX99Y","A25PFSORDO3SWQ","31ANT7FQN8OJYEBE2RCDNWOVYXNH57","","null","<img src=""img/land4.png"" style=""width:200px; border:14px solid green;"">","null","","","","","","",""
"","image-keyboard-response","259","193158","0.0-259.0","3BQU611VFQ6B6FT1Y764BERX7MX99Y","A25PFSORDO3SWQ","31ANT7FQN8OJYEBE2RCDNWOVYXNH57","","749","img/land4.png","74","751","1","1","1","1,0.5,0.5,0.5,1,0.5,0.5,0.5,1","",""
"","html-keyboard-response","260","193472","0.0-260.0","3BQU611VFQ6B6FT1Y764BERX7MX99Y","A25PFSORDO3SWQ","31ANT7FQN8OJYEBE2RCDNWOVYXNH57","","null","<img src=""img/land4.png"" style=""width:200px; border:14px solid green;"">","null","","","","","","",""
"","image-keyboard-response","261","196502","0.0-261.0","3BQU611VFQ6B6FT1Y764BERX7MX99Y","A25PFSORDO3SWQ","31ANT7FQN8OJYEBE2RCDNWOVYXNH57","","3029","img/land5.png","75","3030","2","1","2","1,0.5,0.5,0.5,1,0.5,0.5,0.5,1","",""
"","html-keyboard-response","262","196808","0.0-262.0","3BQU611VFQ6B6FT1Y764BERX7MX99Y","A25PFSORDO3SWQ","31ANT7FQN8OJYEBE2RCDNWOVYXNH57","","null","<img src=""img/land5.png"" style=""width:200px; border:14px solid green;"">","null","","","","","","",""
"","image-keyboard-response","263","197540","0.0-263.0","3BQU611VFQ6B6FT1Y764BERX7MX99Y","A25PFSORDO3SWQ","31ANT7FQN8OJYEBE2RCDNWOVYXNH57","","732","img/land6.png","76","732","3","1","3","1,0.5,0.5,0.5,1,0.5,0.5,0.5,1","",""
"","html-keyboard-response","264","197843","0.0-264.0","3BQU611VFQ6B6FT1Y764BERX7MX99Y","A25PFSORDO3SWQ","31ANT7FQN8OJYEBE2RCDNWOVYXNH57","","null","<img src=""img/land6.png"" style=""width:200px; border:14px solid green;"">","null","","","","","","",""
"","image-keyboard-response","265","198498","0.0-265.0","3BQU611VFQ6B6FT1Y764BERX7MX99Y","A25PFSORDO3SWQ","31ANT7FQN8OJYEBE2RCDNWOVYXNH57","","654","img/land6.png","76","655","3","1","3","1,0.5,0.5,0.5,1,0.5,0.5,0.5,1","",""
"","html-keyboard-response","266","198799","0.0-266.0","3BQU611VFQ6B6FT1Y764BERX7MX99Y","A25PFSORDO3SWQ","31ANT7FQN8OJYEBE2RCDNWOVYXNH57","","null","<img src=""img/land6.png"" style=""width:200px; border:14px solid green;"">","null","","","","","","",""
"","image-keyboard-response","267","199495","0.0-267.0","3BQU611VFQ6B6FT1Y764BERX7MX99Y","A25PFSORDO3SWQ","31ANT7FQN8OJYEBE2RCDNWOVYXNH57","","695","img/land4.png","74","696","1","1","1","1,0.5,0.5,0.5,1,0.5,0.5,0.5,1","",""
"","html-keyboard-response","268","199810","0.0-268.0","3BQU611VFQ6B6FT1Y764BERX7MX99Y","A25PFSORDO3SWQ","31ANT7FQN8OJYEBE2RCDNWOVYXNH57","","null","<img src=""img/land4.png"" style=""width:200px; border:14px solid green;"">","null","","","","","","",""
"","image-keyboard-response","269","201909","0.0-269.0","3BQU611VFQ6B6FT1Y764BERX7MX99Y","A25PFSORDO3SWQ","31ANT7FQN8OJYEBE2RCDNWOVYXNH57","","2098","img/land6.png","76","2100","3","1","3","1,0.5,0.5,0.5,1,0.5,0.5,0.5,1","",""
"","html-keyboard-response","270","202219","0.0-270.0","3BQU611VFQ6B6FT1Y764BERX7MX99Y","A25PFSORDO3SWQ","31ANT7FQN8OJYEBE2RCDNWOVYXNH57","","null","<img src=""img/land6.png"" style=""width:200px; border:14px solid green;"">","null","","","","","","",""
"","image-keyboard-response","271","202903","0.0-271.0","3BQU611VFQ6B6FT1Y764BERX7MX99Y","A25PFSORDO3SWQ","31ANT7FQN8OJYEBE2RCDNWOVYXNH57","","684","img/land4.png","74","685","1","1","1","1,0.5,0.5,0.5,1,0.5,0.5,0.5,1","",""
"","html-keyboard-response","272","203209","0.0-272.0","3BQU611VFQ6B6FT1Y764BERX7MX99Y","A25PFSORDO3SWQ","31ANT7FQN8OJYEBE2RCDNWOVYXNH57","","null","<img src=""img/land4.png"" style=""width:200px; border:14px solid green;"">","null","","","","","","",""
"","image-keyboard-response","273","203964","0.0-273.0","3BQU611VFQ6B6FT1Y764BERX7MX99Y","A25PFSORDO3SWQ","31ANT7FQN8OJYEBE2RCDNWOVYXNH57","","753","img/land5.png","75","753","2","1","2","1,0.5,0.5,0.5,1,0.5,0.5,0.5,1","",""
"","html-keyboard-response","274","204268","0.0-274.0","3BQU611VFQ6B6FT1Y764BERX7MX99Y","A25PFSORDO3SWQ","31ANT7FQN8OJYEBE2RCDNWOVYXNH57","","null","<img src=""img/land5.png"" style=""width:200px; border:14px solid green;"">","null","","","","","","",""
"","image-keyboard-response","275","205042","0.0-275.0","3BQU611VFQ6B6FT1Y764BERX7MX99Y","A25PFSORDO3SWQ","31ANT7FQN8OJYEBE2RCDNWOVYXNH57","","773","img/land5.png","75","775","2","1","2","1,0.5,0.5,0.5,1,0.5,0.5,0.5,1","",""
"","html-keyboard-response","276","205344","0.0-276.0","3BQU611VFQ6B6FT1Y764BERX7MX99Y","A25PFSORDO3SWQ","31ANT7FQN8OJYEBE2RCDNWOVYXNH57","","null","<img src=""img/land5.png"" style=""width:200px; border:14px solid green;"">","null","","","","","","",""
"","image-keyboard-response","277","206365","0.0-277.0","3BQU611VFQ6B6FT1Y764BERX7MX99Y","A25PFSORDO3SWQ","31ANT7FQN8OJYEBE2RCDNWOVYXNH57","","1020","img/land6.png","76","1022","3","1","3","1,0.5,0.5,0.5,1,0.5,0.5,0.5,1","",""
"","html-keyboard-response","278","206675","0.0-278.0","3BQU611VFQ6B6FT1Y764BERX7MX99Y","A25PFSORDO3SWQ","31ANT7FQN8OJYEBE2RCDNWOVYXNH57","","null","<img src=""img/land6.png"" style=""width:200px; border:14px solid green;"">","null","","","","","","",""
"","image-keyboard-response","279","207282","0.0-279.0","3BQU611VFQ6B6FT1Y764BERX7MX99Y","A25PFSORDO3SWQ","31ANT7FQN8OJYEBE2RCDNWOVYXNH57","","606","img/land6.png","76","607","3","1","3","1,0.5,0.5,0.5,1,0.5,0.5,0.5,1","",""
"","html-keyboard-response","280","207584","0.0-280.0","3BQU611VFQ6B6FT1Y764BERX7MX99Y","A25PFSORDO3SWQ","31ANT7FQN8OJYEBE2RCDNWOVYXNH57","","null","<img src=""img/land6.png"" style=""width:200px; border:14px solid green;"">","null","","","","","","",""
"","image-keyboard-response","281","208338","0.0-281.0","3BQU611VFQ6B6FT1Y764BERX7MX99Y","A25PFSORDO3SWQ","31ANT7FQN8OJYEBE2RCDNWOVYXNH57","","753","img/land4.png","74","754","1","1","1","1,0.5,0.5,0.5,1,0.5,0.5,0.5,1","",""
"","html-keyboard-response","282","208647","0.0-282.0","3BQU611VFQ6B6FT1Y764BERX7MX99Y","A25PFSORDO3SWQ","31ANT7FQN8OJYEBE2RCDNWOVYXNH57","","null","<img src=""img/land4.png"" style=""width:200px; border:14px solid green;"">","null","","","","","","",""
"","image-keyboard-response","283","209356","0.0-283.0","3BQU611VFQ6B6FT1Y764BERX7MX99Y","A25PFSORDO3SWQ","31ANT7FQN8OJYEBE2RCDNWOVYXNH57","","707","img/land5.png","75","708","2","1","2","1,0.5,0.5,0.5,1,0.5,0.5,0.5,1","",""
"","html-keyboard-response","284","209661","0.0-284.0","3BQU611VFQ6B6FT1Y764BERX7MX99Y","A25PFSORDO3SWQ","31ANT7FQN8OJYEBE2RCDNWOVYXNH57","","null","<img src=""img/land5.png"" style=""width:200px; border:14px solid green;"">","null","","","","","","",""
"","image-keyboard-response","285","210434","0.0-285.0","3BQU611VFQ6B6FT1Y764BERX7MX99Y","A25PFSORDO3SWQ","31ANT7FQN8OJYEBE2RCDNWOVYXNH57","","771","img/land4.png","74","773","1","1","1","1,0.5,0.5,0.5,1,0.5,0.5,0.5,1","",""
"","html-keyboard-response","286","210737","0.0-286.0","3BQU611VFQ6B6FT1Y764BERX7MX99Y","A25PFSORDO3SWQ","31ANT7FQN8OJYEBE2RCDNWOVYXNH57","","null","<img src=""img/land4.png"" style=""width:200px; border:14px solid green;"">","null","","","","","","",""
"","image-keyboard-response","287","211473","0.0-287.0","3BQU611VFQ6B6FT1Y764BERX7MX99Y","A25PFSORDO3SWQ","31ANT7FQN8OJYEBE2RCDNWOVYXNH57","","735","img/land5.png","75","736","2","1","2","1,0.5,0.5,0.5,1,0.5,0.5,0.5,1","",""
"","html-keyboard-response","288","211777","0.0-288.0","3BQU611VFQ6B6FT1Y764BERX7MX99Y","A25PFSORDO3SWQ","31ANT7FQN8OJYEBE2RCDNWOVYXNH57","","null","<img src=""img/land5.png"" style=""width:200px; border:14px solid green;"">","null","","","","","","",""
"","image-keyboard-response","289","212551","0.0-289.0","3BQU611VFQ6B6FT1Y764BERX7MX99Y","A25PFSORDO3SWQ","31ANT7FQN8OJYEBE2RCDNWOVYXNH57","","773","img/land4.png","74","775","1","1","1","1,0.5,0.5,0.5,1,0.5,0.5,0.5,1","",""
"","html-keyboard-response","290","212858","0.0-290.0","3BQU611VFQ6B6FT1Y764BERX7MX99Y","A25PFSORDO3SWQ","31ANT7FQN8OJYEBE2RCDNWOVYXNH57","","null","<img src=""img/land4.png"" style=""width:200px; border:14px solid green;"">","null","","","","","","",""
"","image-keyboard-response","291","213364","0.0-291.0","3BQU611VFQ6B6FT1Y764BERX7MX99Y","A25PFSORDO3SWQ","31ANT7FQN8OJYEBE2RCDNWOVYXNH57","","506","img/land4.png","74","507","1","1","1","1,0.5,0.5,0.5,1,0.5,0.5,0.5,1","",""
"","html-keyboard-response","292","213667","0.0-292.0","3BQU611VFQ6B6FT1Y764BERX7MX99Y","A25PFSORDO3SWQ","31ANT7FQN8OJYEBE2RCDNWOVYXNH57","","null","<img src=""img/land4.png"" style=""width:200px; border:14px solid green;"">","null","","","","","","",""
"","image-keyboard-response","293","214280","0.0-293.0","3BQU611VFQ6B6FT1Y764BERX7MX99Y","A25PFSORDO3SWQ","31ANT7FQN8OJYEBE2RCDNWOVYXNH57","","613","img/land4.png","74","614","1","1","1","1,0.5,0.5,0.5,1,0.5,0.5,0.5,1","",""
"","html-keyboard-response","294","214590","0.0-294.0","3BQU611VFQ6B6FT1Y764BERX7MX99Y","A25PFSORDO3SWQ","31ANT7FQN8OJYEBE2RCDNWOVYXNH57","","null","<img src=""img/land4.png"" style=""width:200px; border:14px solid green;"">","null","","","","","","",""
"","image-keyboard-response","295","215016","0.0-295.0","3BQU611VFQ6B6FT1Y764BERX7MX99Y","A25PFSORDO3SWQ","31ANT7FQN8OJYEBE2RCDNWOVYXNH57","","425","img/land4.png","74","426","1","1","1","1,0.5,0.5,0.5,1,0.5,0.5,0.5,1","",""
"","html-keyboard-response","296","215358","0.0-296.0","3BQU611VFQ6B6FT1Y764BERX7MX99Y","A25PFSORDO3SWQ","31ANT7FQN8OJYEBE2RCDNWOVYXNH57","","null","<img src=""img/land4.png"" style=""width:200px; border:14px solid green;"">","null","","","","","","",""
"","image-keyboard-response","297","216177","0.0-297.0","3BQU611VFQ6B6FT1Y764BERX7MX99Y","A25PFSORDO3SWQ","31ANT7FQN8OJYEBE2RCDNWOVYXNH57","","817","img/land6.png","76","819","3","1","3","1,0.5,0.5,0.5,1,0.5,0.5,0.5,1","",""
"","html-keyboard-response","298","216485","0.0-298.0","3BQU611VFQ6B6FT1Y764BERX7MX99Y","A25PFSORDO3SWQ","31ANT7FQN8OJYEBE2RCDNWOVYXNH57","","null","<img src=""img/land6.png"" style=""width:200px; border:14px solid green;"">","null","","","","","","",""
"","image-keyboard-response","299","217192","0.0-299.0","3BQU611VFQ6B6FT1Y764BERX7MX99Y","A25PFSORDO3SWQ","31ANT7FQN8OJYEBE2RCDNWOVYXNH57","","706","img/land4.png","74","707","1","1","1","1,0.5,0.5,0.5,1,0.5,0.5,0.5,1","",""
"","html-keyboard-response","300","217499","0.0-300.0","3BQU611VFQ6B6FT1Y764BERX7MX99Y","A25PFSORDO3SWQ","31ANT7FQN8OJYEBE2RCDNWOVYXNH57","","null","<img src=""img/land4.png"" style=""width:200px; border:14px solid green;"">","null","","","","","","",""
"","image-keyboard-response","301","218048","0.0-301.0","3BQU611VFQ6B6FT1Y764BERX7MX99Y","A25PFSORDO3SWQ","31ANT7FQN8OJYEBE2RCDNWOVYXNH57","","548","img/land4.png","74","549","1","1","1","1,0.5,0.5,0.5,1,0.5,0.5,0.5,1","",""
"","html-keyboard-response","302","218358","0.0-302.0","3BQU611VFQ6B6FT1Y764BERX7MX99Y","A25PFSORDO3SWQ","31ANT7FQN8OJYEBE2RCDNWOVYXNH57","","null","<img src=""img/land4.png"" style=""width:200px; border:14px solid green;"">","null","","","","","","",""
"","image-keyboard-response","303","218841","0.0-303.0","3BQU611VFQ6B6FT1Y764BERX7MX99Y","A25PFSORDO3SWQ","31ANT7FQN8OJYEBE2RCDNWOVYXNH57","","481","img/land4.png","74","482","1","1","1","1,0.5,0.5,0.5,1,0.5,0.5,0.5,1","",""
"","html-keyboard-response","304","219148","0.0-304.0","3BQU611VFQ6B6FT1Y764BERX7MX99Y","A25PFSORDO3SWQ","31ANT7FQN8OJYEBE2RCDNWOVYXNH57","","null","<img src=""img/land4.png"" style=""width:200px; border:14px solid green;"">","null","","","","","","",""
"","image-keyboard-response","305","219883","0.0-305.0","3BQU611VFQ6B6FT1Y764BERX7MX99Y","A25PFSORDO3SWQ","31ANT7FQN8OJYEBE2RCDNWOVYXNH57","","734","img/land6.png","76","735","3","1","3","1,0.5,0.5,0.5,1,0.5,0.5,0.5,1","",""
"","html-keyboard-response","306","220196","0.0-306.0","3BQU611VFQ6B6FT1Y764BERX7MX99Y","A25PFSORDO3SWQ","31ANT7FQN8OJYEBE2RCDNWOVYXNH57","","null","<img src=""img/land6.png"" style=""width:200px; border:14px solid green;"">","null","","","","","","",""
"","image-keyboard-response","307","220939","0.0-307.0","3BQU611VFQ6B6FT1Y764BERX7MX99Y","A25PFSORDO3SWQ","31ANT7FQN8OJYEBE2RCDNWOVYXNH57","","743","img/land5.png","75","744","2","1","2","1,0.5,0.5,0.5,1,0.5,0.5,0.5,1","",""
"","html-keyboard-response","308","221244","0.0-308.0","3BQU611VFQ6B6FT1Y764BERX7MX99Y","A25PFSORDO3SWQ","31ANT7FQN8OJYEBE2RCDNWOVYXNH57","","null","<img src=""img/land5.png"" style=""width:200px; border:14px solid green;"">","null","","","","","","",""
"","image-keyboard-response","309","221795","0.0-309.0","3BQU611VFQ6B6FT1Y764BERX7MX99Y","A25PFSORDO3SWQ","31ANT7FQN8OJYEBE2RCDNWOVYXNH57","","550","img/land5.png","75","551","2","1","2","1,0.5,0.5,0.5,1,0.5,0.5,0.5,1","",""
"","html-keyboard-response","310","222103","0.0-310.0","3BQU611VFQ6B6FT1Y764BERX7MX99Y","A25PFSORDO3SWQ","31ANT7FQN8OJYEBE2RCDNWOVYXNH57","","null","<img src=""img/land5.png"" style=""width:200px; border:14px solid green;"">","null","","","","","","",""
"","image-keyboard-response","311","222671","0.0-311.0","3BQU611VFQ6B6FT1Y764BERX7MX99Y","A25PFSORDO3SWQ","31ANT7FQN8OJYEBE2RCDNWOVYXNH57","","566","img/land5.png","75","566","2","1","2","1,0.5,0.5,0.5,1,0.5,0.5,0.5,1","",""
"","html-keyboard-response","312","222976","0.0-312.0","3BQU611VFQ6B6FT1Y764BERX7MX99Y","A25PFSORDO3SWQ","31ANT7FQN8OJYEBE2RCDNWOVYXNH57","","null","<img src=""img/land5.png"" style=""width:200px; border:14px solid green;"">","null","","","","","","",""
"","image-keyboard-response","313","223668","0.0-313.0","3BQU611VFQ6B6FT1Y764BERX7MX99Y","A25PFSORDO3SWQ","31ANT7FQN8OJYEBE2RCDNWOVYXNH57","","690","img/land4.png","74","691","1","1","1","1,0.5,0.5,0.5,1,0.5,0.5,0.5,1","",""
"","html-keyboard-response","314","223982","0.0-314.0","3BQU611VFQ6B6FT1Y764BERX7MX99Y","A25PFSORDO3SWQ","31ANT7FQN8OJYEBE2RCDNWOVYXNH57","","null","<img src=""img/land4.png"" style=""width:200px; border:14px solid green;"">","null","","","","","","",""
"","image-keyboard-response","315","224749","0.0-315.0","3BQU611VFQ6B6FT1Y764BERX7MX99Y","A25PFSORDO3SWQ","31ANT7FQN8OJYEBE2RCDNWOVYXNH57","","766","img/land6.png","76","766","3","1","3","1,0.5,0.5,0.5,1,0.5,0.5,0.5,1","",""
"","html-keyboard-response","316","225049","0.0-316.0","3BQU611VFQ6B6FT1Y764BERX7MX99Y","A25PFSORDO3SWQ","31ANT7FQN8OJYEBE2RCDNWOVYXNH57","","null","<img src=""img/land6.png"" style=""width:200px; border:14px solid green;"">","null","","","","","","",""
"","image-keyboard-response","317","225764","0.0-317.0","3BQU611VFQ6B6FT1Y764BERX7MX99Y","A25PFSORDO3SWQ","31ANT7FQN8OJYEBE2RCDNWOVYXNH57","","714","img/land4.png","74","714","1","1","1","1,0.5,0.5,0.5,1,0.5,0.5,0.5,1","",""
"","html-keyboard-response","318","226069","0.0-318.0","3BQU611VFQ6B6FT1Y764BERX7MX99Y","A25PFSORDO3SWQ","31ANT7FQN8OJYEBE2RCDNWOVYXNH57","","null","<img src=""img/land4.png"" style=""width:200px; border:14px solid green;"">","null","","","","","","",""
"","image-keyboard-response","319","226702","0.0-319.0","3BQU611VFQ6B6FT1Y764BERX7MX99Y","A25PFSORDO3SWQ","31ANT7FQN8OJYEBE2RCDNWOVYXNH57","","632","img/land4.png","74","633","1","1","1","1,0.5,0.5,0.5,1,0.5,0.5,0.5,1","",""
"","html-keyboard-response","320","227006","0.0-320.0","3BQU611VFQ6B6FT1Y764BERX7MX99Y","A25PFSORDO3SWQ","31ANT7FQN8OJYEBE2RCDNWOVYXNH57","","null","<img src=""img/land4.png"" style=""width:200px; border:14px solid green;"">","null","","","","","","",""
"","image-keyboard-response","321","227742","0.0-321.0","3BQU611VFQ6B6FT1Y764BERX7MX99Y","A25PFSORDO3SWQ","31ANT7FQN8OJYEBE2RCDNWOVYXNH57","","737","img/land6.png","76","738","3","1","3","1,0.5,0.5,0.5,1,0.5,0.5,0.5,1","",""
"","html-keyboard-response","322","228055","0.0-322.0","3BQU611VFQ6B6FT1Y764BERX7MX99Y","A25PFSORDO3SWQ","31ANT7FQN8OJYEBE2RCDNWOVYXNH57","","null","<img src=""img/land6.png"" style=""width:200px; border:14px solid green;"">","null","","","","","","",""
"","image-keyboard-response","323","228739","0.0-323.0","3BQU611VFQ6B6FT1Y764BERX7MX99Y","A25PFSORDO3SWQ","31ANT7FQN8OJYEBE2RCDNWOVYXNH57","","683","img/land4.png","74","683","1","1","1","1,0.5,0.5,0.5,1,0.5,0.5,0.5,1","",""
"","html-keyboard-response","324","229051","0.0-324.0","3BQU611VFQ6B6FT1Y764BERX7MX99Y","A25PFSORDO3SWQ","31ANT7FQN8OJYEBE2RCDNWOVYXNH57","","null","<img src=""img/land4.png"" style=""width:200px; border:14px solid green;"">","null","","","","","","",""
"","image-keyboard-response","325","229616","0.0-325.0","3BQU611VFQ6B6FT1Y764BERX7MX99Y","A25PFSORDO3SWQ","31ANT7FQN8OJYEBE2RCDNWOVYXNH57","","563","img/land4.png","74","564","1","1","1","1,0.5,0.5,0.5,1,0.5,0.5,0.5,1","",""
"","html-keyboard-response","326","229925","0.0-326.0","3BQU611VFQ6B6FT1Y764BERX7MX99Y","A25PFSORDO3SWQ","31ANT7FQN8OJYEBE2RCDNWOVYXNH57","","null","<img src=""img/land4.png"" style=""width:200px; border:14px solid green;"">","null","","","","","","",""
"","image-keyboard-response","327","230553","0.0-327.0","3BQU611VFQ6B6FT1Y764BERX7MX99Y","A25PFSORDO3SWQ","31ANT7FQN8OJYEBE2RCDNWOVYXNH57","","626","img/land5.png","75","627","2","1","2","1,0.5,0.5,0.5,1,0.5,0.5,0.5,1","",""
"","html-keyboard-response","328","230862","0.0-328.0","3BQU611VFQ6B6FT1Y764BERX7MX99Y","A25PFSORDO3SWQ","31ANT7FQN8OJYEBE2RCDNWOVYXNH57","","null","<img src=""img/land5.png"" style=""width:200px; border:14px solid green;"">","null","","","","","","",""
"","image-keyboard-response","329","231529","0.0-329.0","3BQU611VFQ6B6FT1Y764BERX7MX99Y","A25PFSORDO3SWQ","31ANT7FQN8OJYEBE2RCDNWOVYXNH57","","665","img/land4.png","74","666","1","1","1","1,0.5,0.5,0.5,1,0.5,0.5,0.5,1","",""
"","html-keyboard-response","330","231830","0.0-330.0","3BQU611VFQ6B6FT1Y764BERX7MX99Y","A25PFSORDO3SWQ","31ANT7FQN8OJYEBE2RCDNWOVYXNH57","","null","<img src=""img/land4.png"" style=""width:200px; border:14px solid green;"">","null","","","","","","",""
"","image-keyboard-response","331","232486","0.0-331.0","3BQU611VFQ6B6FT1Y764BERX7MX99Y","A25PFSORDO3SWQ","31ANT7FQN8OJYEBE2RCDNWOVYXNH57","","656","img/land5.png","75","657","2","1","2","1,0.5,0.5,0.5,1,0.5,0.5,0.5,1","",""
"","html-keyboard-response","332","232799","0.0-332.0","3BQU611VFQ6B6FT1Y764BERX7MX99Y","A25PFSORDO3SWQ","31ANT7FQN8OJYEBE2RCDNWOVYXNH57","","null","<img src=""img/land5.png"" style=""width:200px; border:14px solid green;"">","null","","","","","","",""
"","image-keyboard-response","333","233485","0.0-333.0","3BQU611VFQ6B6FT1Y764BERX7MX99Y","A25PFSORDO3SWQ","31ANT7FQN8OJYEBE2RCDNWOVYXNH57","","685","img/land4.png","74","686","1","1","1","1,0.5,0.5,0.5,1,0.5,0.5,0.5,1","",""
"","html-keyboard-response","334","233788","0.0-334.0","3BQU611VFQ6B6FT1Y764BERX7MX99Y","A25PFSORDO3SWQ","31ANT7FQN8OJYEBE2RCDNWOVYXNH57","","null","<img src=""img/land4.png"" style=""width:200px; border:14px solid green;"">","null","","","","","","",""
"","image-keyboard-response","335","234362","0.0-335.0","3BQU611VFQ6B6FT1Y764BERX7MX99Y","A25PFSORDO3SWQ","31ANT7FQN8OJYEBE2RCDNWOVYXNH57","","573","img/land4.png","74","574","1","1","1","1,0.5,0.5,0.5,1,0.5,0.5,0.5,1","",""
"","html-keyboard-response","336","234678","0.0-336.0","3BQU611VFQ6B6FT1Y764BERX7MX99Y","A25PFSORDO3SWQ","31ANT7FQN8OJYEBE2RCDNWOVYXNH57","","null","<img src=""img/land4.png"" style=""width:200px; border:14px solid green;"">","null","","","","","","",""
"","image-keyboard-response","337","235400","0.0-337.0","3BQU611VFQ6B6FT1Y764BERX7MX99Y","A25PFSORDO3SWQ","31ANT7FQN8OJYEBE2RCDNWOVYXNH57","","721","img/land5.png","75","722","2","1","2","1,0.5,0.5,0.5,1,0.5,0.5,0.5,1","",""
"","html-keyboard-response","338","235717","0.0-338.0","3BQU611VFQ6B6FT1Y764BERX7MX99Y","A25PFSORDO3SWQ","31ANT7FQN8OJYEBE2RCDNWOVYXNH57","","null","<img src=""img/land5.png"" style=""width:200px; border:14px solid green;"">","null","","","","","","",""
"","instructions","339","246235","0.0-339.0","3BQU611VFQ6B6FT1Y764BERX7MX99Y","A25PFSORDO3SWQ","31ANT7FQN8OJYEBE2RCDNWOVYXNH57","[{""page_index"":0,""viewing_time"":10518}]","10518","","","","","","","","",""
"","survey-text","340","253919","0.0-340.0-0.0","3BQU611VFQ6B6FT1Y764BERX7MX99Y","A25PFSORDO3SWQ","31ANT7FQN8OJYEBE2RCDNWOVYXNH57","","7682","","","","","","","","{""Q0"":""36""}",""
"","survey-multi-choice","341","259478","0.0-340.0-1.0","3BQU611VFQ6B6FT1Y764BERX7MX99Y","A25PFSORDO3SWQ","31ANT7FQN8OJYEBE2RCDNWOVYXNH57","","5557","","","","","","","","{""gender"":""M""}","[0]"
"","survey-text","342","282311","0.0-341.0","3BQU611VFQ6B6FT1Y764BERX7MX99Y","A25PFSORDO3SWQ","31ANT7FQN8OJYEBE2RCDNWOVYXNH57","","22832","","","","","","","","{""Q0"":""A25PFSORDO3SWQ""}",""
