"success","trial_type","trial_index","time_elapsed","internal_node_id","assignmentID","mturkID","hitID","view_history","rt","stimulus","key_press","reactionTime","a","r","s","cond","reward_cond","reward_cond_actual","reward_matrix_idx","responses","question_order"
"true","fullscreen","0","3669","0.0-0.0","3X4JMASXCNVCYEKLWV1799LUUYS0B7","A26WVAVVE1RM47","3WRBLBQ2GRU63BU2LFOJL1G32T90GO","","","","","","","","","","","","","",""
"","instructions","1","600570","0.0-1.0","3X4JMASXCNVCYEKLWV1799LUUYS0B7","A26WVAVVE1RM47","3WRBLBQ2GRU63BU2LFOJL1G32T90GO","[{""page_index"":0,""viewing_time"":1461.2999999970198},{""page_index"":1,""viewing_time"":20663.89999999106},{""page_index"":2,""viewing_time"":2369.9000000059605},{""page_index"":3,""viewing_time"":557856.299999997},{""page_index"":4,""viewing_time"":3464.1000000089407},{""page_index"":5,""viewing_time"":5137.899999991059},{""page_index"":6,""viewing_time"":5946.100000008941}]","596899.6999999881","","","","","","","","","","","",""
"","image-keyboard-response","2","602571","0.0-2.0","3X4JMASXCNVCYEKLWV1799LUUYS0B7","A26WVAVVE1RM47","3WRBLBQ2GRU63BU2LFOJL1G32T90GO","","","img/land2.png","","2001.199999988079","-1","0","1","2","0.8,0.2,0.2,0.2,0.8,0.2,0.2,0.2,0.8","0.2,0.2,0.8,0.8,0.2,0.2,0.2,0.8,0.2","2","",""
"","html-keyboard-response","3","602873","0.0-3.0","3X4JMASXCNVCYEKLWV1799LUUYS0B7","A26WVAVVE1RM47","3WRBLBQ2GRU63BU2LFOJL1G32T90GO","","null","<img src=""img/land2.png"" style=""width:200px;border:14px solid red;"">","null","","","","","","","","","",""
"","image-keyboard-response","4","604874","0.0-4.0","3X4JMASXCNVCYEKLWV1799LUUYS0B7","A26WVAVVE1RM47","3WRBLBQ2GRU63BU2LFOJL1G32T90GO","","","img/land2.png","","2000.5999999940395","-1","0","1","2","0.8,0.2,0.2,0.2,0.8,0.2,0.2,0.2,0.8","0.2,0.2,0.8,0.8,0.2,0.2,0.2,0.8,0.2","2","",""
"","html-keyboard-response","5","605175","0.0-5.0","3X4JMASXCNVCYEKLWV1799LUUYS0B7","A26WVAVVE1RM47","3WRBLBQ2GRU63BU2LFOJL1G32T90GO","","null","<img src=""img/land2.png"" style=""width:200px;border:14px solid red;"">","null","","","","","","","","","",""
"","image-keyboard-response","6","607176","0.0-6.0","3X4JMASXCNVCYEKLWV1799LUUYS0B7","A26WVAVVE1RM47","3WRBLBQ2GRU63BU2LFOJL1G32T90GO","","","img/land6.png","","2001","-1","0","2","2","0.8,0.2,0.2,0.2,0.8,0.2,0.2,0.2,0.8","0.2,0.2,0.8,0.8,0.2,0.2,0.2,0.8,0.2","2","",""
"","html-keyboard-response","7","607478","0.0-7.0","3X4JMASXCNVCYEKLWV1799LUUYS0B7","A26WVAVVE1RM47","3WRBLBQ2GRU63BU2LFOJL1G32T90GO","","null","<img src=""img/land6.png"" style=""width:200px;border:14px solid red;"">","null","","","","","","","","","",""
"","image-keyboard-response","8","608090","0.0-8.0","3X4JMASXCNVCYEKLWV1799LUUYS0B7","A26WVAVVE1RM47","3WRBLBQ2GRU63BU2LFOJL1G32T90GO","","610.5999999940395","img/land1.png","76","611.2000000029802","3","0","3","2","0.8,0.2,0.2,0.2,0.8,0.2,0.2,0.2,0.8","0.2,0.2,0.8,0.8,0.2,0.2,0.2,0.8,0.2","2","",""
"","html-keyboard-response","9","608392","0.0-9.0","3X4JMASXCNVCYEKLWV1799LUUYS0B7","A26WVAVVE1RM47","3WRBLBQ2GRU63BU2LFOJL1G32T90GO","","null","<img src=""img/land1.png"" style=""width:200px;border:14px solid red;"">","null","","","","","","","","","",""
"","image-keyboard-response","10","608746","0.0-10.0","3X4JMASXCNVCYEKLWV1799LUUYS0B7","A26WVAVVE1RM47","3WRBLBQ2GRU63BU2LFOJL1G32T90GO","","353.29999999701977","img/land2.png","74","353.70000000298023","1","0","1","2","0.8,0.2,0.2,0.2,0.8,0.2,0.2,0.2,0.8","0.2,0.2,0.8,0.8,0.2,0.2,0.2,0.8,0.2","2","",""
"","html-keyboard-response","11","609047","0.0-11.0","3X4JMASXCNVCYEKLWV1799LUUYS0B7","A26WVAVVE1RM47","3WRBLBQ2GRU63BU2LFOJL1G32T90GO","","null","<img src=""img/land2.png"" style=""width:200px;border:14px solid red;"">","null","","","","","","","","","",""
"","image-keyboard-response","12","609273","0.0-12.0","3X4JMASXCNVCYEKLWV1799LUUYS0B7","A26WVAVVE1RM47","3WRBLBQ2GRU63BU2LFOJL1G32T90GO","","225.5","img/land6.png","75","226","2","0","2","2","0.8,0.2,0.2,0.2,0.8,0.2,0.2,0.2,0.8","0.2,0.2,0.8,0.8,0.2,0.2,0.2,0.8,0.2","2","",""
"","html-keyboard-response","13","609575","0.0-13.0","3X4JMASXCNVCYEKLWV1799LUUYS0B7","A26WVAVVE1RM47","3WRBLBQ2GRU63BU2LFOJL1G32T90GO","","null","<img src=""img/land6.png"" style=""width:200px;border:14px solid red;"">","null","","","","","","","","","",""
"","image-keyboard-response","14","609777","0.0-14.0","3X4JMASXCNVCYEKLWV1799LUUYS0B7","A26WVAVVE1RM47","3WRBLBQ2GRU63BU2LFOJL1G32T90GO","","201.90000000596046","img/land6.png","76","202.40000000596046","3","0","2","2","0.8,0.2,0.2,0.2,0.8,0.2,0.2,0.2,0.8","0.2,0.2,0.8,0.8,0.2,0.2,0.2,0.8,0.2","2","",""
"","html-keyboard-response","15","610079","0.0-15.0","3X4JMASXCNVCYEKLWV1799LUUYS0B7","A26WVAVVE1RM47","3WRBLBQ2GRU63BU2LFOJL1G32T90GO","","null","<img src=""img/land6.png"" style=""width:200px;border:14px solid red;"">","null","","","","","","","","","",""
"","image-keyboard-response","16","610466","0.0-16.0","3X4JMASXCNVCYEKLWV1799LUUYS0B7","A26WVAVVE1RM47","3WRBLBQ2GRU63BU2LFOJL1G32T90GO","","385.8999999910593","img/land6.png","74","386.3999999910593","1","1","2","2","0.8,0.2,0.2,0.2,0.8,0.2,0.2,0.2,0.8","0.2,0.2,0.8,0.8,0.2,0.2,0.2,0.8,0.2","2","",""
"","html-keyboard-response","17","610766","0.0-17.0","3X4JMASXCNVCYEKLWV1799LUUYS0B7","A26WVAVVE1RM47","3WRBLBQ2GRU63BU2LFOJL1G32T90GO","","null","<img src=""img/land6.png"" style=""width:200px; border:14px solid green;"">","null","","","","","","","","","",""
"","image-keyboard-response","18","611025","0.0-18.0","3X4JMASXCNVCYEKLWV1799LUUYS0B7","A26WVAVVE1RM47","3WRBLBQ2GRU63BU2LFOJL1G32T90GO","","258.70000000298023","img/land1.png","74","259.20000000298023","1","0","3","2","0.8,0.2,0.2,0.2,0.8,0.2,0.2,0.2,0.8","0.2,0.2,0.8,0.8,0.2,0.2,0.2,0.8,0.2","2","",""
"","html-keyboard-response","19","611327","0.0-19.0","3X4JMASXCNVCYEKLWV1799LUUYS0B7","A26WVAVVE1RM47","3WRBLBQ2GRU63BU2LFOJL1G32T90GO","","null","<img src=""img/land1.png"" style=""width:200px;border:14px solid red;"">","null","","","","","","","","","",""
"","image-keyboard-response","20","611514","0.0-20.0","3X4JMASXCNVCYEKLWV1799LUUYS0B7","A26WVAVVE1RM47","3WRBLBQ2GRU63BU2LFOJL1G32T90GO","","185.8999999910593","img/land2.png","75","186.3999999910593","2","0","1","2","0.8,0.2,0.2,0.2,0.8,0.2,0.2,0.2,0.8","0.2,0.2,0.8,0.8,0.2,0.2,0.2,0.8,0.2","2","",""
"","html-keyboard-response","21","611815","0.0-21.0","3X4JMASXCNVCYEKLWV1799LUUYS0B7","A26WVAVVE1RM47","3WRBLBQ2GRU63BU2LFOJL1G32T90GO","","null","<img src=""img/land2.png"" style=""width:200px;border:14px solid red;"">","null","","","","","","","","","",""
"","image-keyboard-response","22","611993","0.0-22.0","3X4JMASXCNVCYEKLWV1799LUUYS0B7","A26WVAVVE1RM47","3WRBLBQ2GRU63BU2LFOJL1G32T90GO","","177.79999999701977","img/land2.png","74","178.19999998807907","1","0","1","2","0.8,0.2,0.2,0.2,0.8,0.2,0.2,0.2,0.8","0.2,0.2,0.8,0.8,0.2,0.2,0.2,0.8,0.2","2","",""
"","html-keyboard-response","23","612295","0.0-23.0","3X4JMASXCNVCYEKLWV1799LUUYS0B7","A26WVAVVE1RM47","3WRBLBQ2GRU63BU2LFOJL1G32T90GO","","null","<img src=""img/land2.png"" style=""width:200px;border:14px solid red;"">","null","","","","","","","","","",""
"","image-keyboard-response","24","612457","0.0-24.0","3X4JMASXCNVCYEKLWV1799LUUYS0B7","A26WVAVVE1RM47","3WRBLBQ2GRU63BU2LFOJL1G32T90GO","","161.30000001192093","img/land6.png","76","162","3","0","2","2","0.8,0.2,0.2,0.2,0.8,0.2,0.2,0.2,0.8","0.2,0.2,0.8,0.8,0.2,0.2,0.2,0.8,0.2","2","",""
"","html-keyboard-response","25","612759","0.0-25.0","3X4JMASXCNVCYEKLWV1799LUUYS0B7","A26WVAVVE1RM47","3WRBLBQ2GRU63BU2LFOJL1G32T90GO","","null","<img src=""img/land6.png"" style=""width:200px;border:14px solid red;"">","null","","","","","","","","","",""
"","image-keyboard-response","26","612930","0.0-26.0","3X4JMASXCNVCYEKLWV1799LUUYS0B7","A26WVAVVE1RM47","3WRBLBQ2GRU63BU2LFOJL1G32T90GO","","169.79999999701977","img/land2.png","74","170.1000000089407","1","0","1","2","0.8,0.2,0.2,0.2,0.8,0.2,0.2,0.2,0.8","0.2,0.2,0.8,0.8,0.2,0.2,0.2,0.8,0.2","2","",""
"","html-keyboard-response","27","613231","0.0-27.0","3X4JMASXCNVCYEKLWV1799LUUYS0B7","A26WVAVVE1RM47","3WRBLBQ2GRU63BU2LFOJL1G32T90GO","","null","<img src=""img/land2.png"" style=""width:200px;border:14px solid red;"">","null","","","","","","","","","",""
"","image-keyboard-response","28","613497","0.0-28.0","3X4JMASXCNVCYEKLWV1799LUUYS0B7","A26WVAVVE1RM47","3WRBLBQ2GRU63BU2LFOJL1G32T90GO","","265.70000000298023","img/land2.png","75","266.29999999701977","2","0","1","2","0.8,0.2,0.2,0.2,0.8,0.2,0.2,0.2,0.8","0.2,0.2,0.8,0.8,0.2,0.2,0.2,0.8,0.2","2","",""
"","html-keyboard-response","29","613799","0.0-29.0","3X4JMASXCNVCYEKLWV1799LUUYS0B7","A26WVAVVE1RM47","3WRBLBQ2GRU63BU2LFOJL1G32T90GO","","null","<img src=""img/land2.png"" style=""width:200px;border:14px solid red;"">","null","","","","","","","","","",""
"","image-keyboard-response","30","613865","0.0-30.0","3X4JMASXCNVCYEKLWV1799LUUYS0B7","A26WVAVVE1RM47","3WRBLBQ2GRU63BU2LFOJL1G32T90GO","","65.1000000089407","img/land2.png","74","65.70000000298023","1","0","1","2","0.8,0.2,0.2,0.2,0.8,0.2,0.2,0.2,0.8","0.2,0.2,0.8,0.8,0.2,0.2,0.2,0.8,0.2","2","",""
"","html-keyboard-response","31","614166","0.0-31.0","3X4JMASXCNVCYEKLWV1799LUUYS0B7","A26WVAVVE1RM47","3WRBLBQ2GRU63BU2LFOJL1G32T90GO","","null","<img src=""img/land2.png"" style=""width:200px;border:14px solid red;"">","null","","","","","","","","","",""
"","image-keyboard-response","32","614361","0.0-32.0","3X4JMASXCNVCYEKLWV1799LUUYS0B7","A26WVAVVE1RM47","3WRBLBQ2GRU63BU2LFOJL1G32T90GO","","194.59999999403954","img/land2.png","76","195","3","1","1","2","0.8,0.2,0.2,0.2,0.8,0.2,0.2,0.2,0.8","0.2,0.2,0.8,0.8,0.2,0.2,0.2,0.8,0.2","2","",""
"","html-keyboard-response","33","614663","0.0-33.0","3X4JMASXCNVCYEKLWV1799LUUYS0B7","A26WVAVVE1RM47","3WRBLBQ2GRU63BU2LFOJL1G32T90GO","","null","<img src=""img/land2.png"" style=""width:200px; border:14px solid green;"">","null","","","","","","","","","",""
"","image-keyboard-response","34","614897","0.0-34.0","3X4JMASXCNVCYEKLWV1799LUUYS0B7","A26WVAVVE1RM47","3WRBLBQ2GRU63BU2LFOJL1G32T90GO","","233.90000000596046","img/land2.png","76","234.20000000298023","3","1","1","2","0.8,0.2,0.2,0.2,0.8,0.2,0.2,0.2,0.8","0.2,0.2,0.8,0.8,0.2,0.2,0.2,0.8,0.2","2","",""
"","html-keyboard-response","35","615200","0.0-35.0","3X4JMASXCNVCYEKLWV1799LUUYS0B7","A26WVAVVE1RM47","3WRBLBQ2GRU63BU2LFOJL1G32T90GO","","null","<img src=""img/land2.png"" style=""width:200px; border:14px solid green;"">","null","","","","","","","","","",""
"","image-keyboard-response","36","615409","0.0-36.0","3X4JMASXCNVCYEKLWV1799LUUYS0B7","A26WVAVVE1RM47","3WRBLBQ2GRU63BU2LFOJL1G32T90GO","","209.20000000298023","img/land6.png","76","209.59999999403954","3","0","2","2","0.8,0.2,0.2,0.2,0.8,0.2,0.2,0.2,0.8","0.2,0.2,0.8,0.8,0.2,0.2,0.2,0.8,0.2","2","",""
"","html-keyboard-response","37","615711","0.0-37.0","3X4JMASXCNVCYEKLWV1799LUUYS0B7","A26WVAVVE1RM47","3WRBLBQ2GRU63BU2LFOJL1G32T90GO","","null","<img src=""img/land6.png"" style=""width:200px;border:14px solid red;"">","null","","","","","","","","","",""
"","image-keyboard-response","38","615865","0.0-38.0","3X4JMASXCNVCYEKLWV1799LUUYS0B7","A26WVAVVE1RM47","3WRBLBQ2GRU63BU2LFOJL1G32T90GO","","154","img/land1.png","74","154.6000000089407","1","0","3","2","0.8,0.2,0.2,0.2,0.8,0.2,0.2,0.2,0.8","0.2,0.2,0.8,0.8,0.2,0.2,0.2,0.8,0.2","2","",""
"","html-keyboard-response","39","616167","0.0-39.0","3X4JMASXCNVCYEKLWV1799LUUYS0B7","A26WVAVVE1RM47","3WRBLBQ2GRU63BU2LFOJL1G32T90GO","","null","<img src=""img/land1.png"" style=""width:200px;border:14px solid red;"">","null","","","","","","","","","",""
"","image-keyboard-response","40","616217","0.0-40.0","3X4JMASXCNVCYEKLWV1799LUUYS0B7","A26WVAVVE1RM47","3WRBLBQ2GRU63BU2LFOJL1G32T90GO","","49.20000000298023","img/land2.png","76","49.79999999701977","3","1","1","2","0.8,0.2,0.2,0.2,0.8,0.2,0.2,0.2,0.8","0.2,0.2,0.8,0.8,0.2,0.2,0.2,0.8,0.2","2","",""
"","html-keyboard-response","41","616519","0.0-41.0","3X4JMASXCNVCYEKLWV1799LUUYS0B7","A26WVAVVE1RM47","3WRBLBQ2GRU63BU2LFOJL1G32T90GO","","null","<img src=""img/land2.png"" style=""width:200px; border:14px solid green;"">","null","","","","","","","","","",""
"","image-keyboard-response","42","616618","0.0-42.0","3X4JMASXCNVCYEKLWV1799LUUYS0B7","A26WVAVVE1RM47","3WRBLBQ2GRU63BU2LFOJL1G32T90GO","","98.1000000089407","img/land2.png","74","98.5","1","1","1","2","0.8,0.2,0.2,0.2,0.8,0.2,0.2,0.2,0.8","0.2,0.2,0.8,0.8,0.2,0.2,0.2,0.8,0.2","2","",""
"","html-keyboard-response","43","616919","0.0-43.0","3X4JMASXCNVCYEKLWV1799LUUYS0B7","A26WVAVVE1RM47","3WRBLBQ2GRU63BU2LFOJL1G32T90GO","","null","<img src=""img/land2.png"" style=""width:200px; border:14px solid green;"">","null","","","","","","","","","",""
"","image-keyboard-response","44","617066","0.0-44.0","3X4JMASXCNVCYEKLWV1799LUUYS0B7","A26WVAVVE1RM47","3WRBLBQ2GRU63BU2LFOJL1G32T90GO","","145.79999999701977","img/land2.png","74","146.29999999701977","1","0","1","2","0.8,0.2,0.2,0.2,0.8,0.2,0.2,0.2,0.8","0.2,0.2,0.8,0.8,0.2,0.2,0.2,0.8,0.2","2","",""
"","html-keyboard-response","45","617368","0.0-45.0","3X4JMASXCNVCYEKLWV1799LUUYS0B7","A26WVAVVE1RM47","3WRBLBQ2GRU63BU2LFOJL1G32T90GO","","null","<img src=""img/land2.png"" style=""width:200px;border:14px solid red;"">","null","","","","","","","","","",""
"","image-keyboard-response","46","617489","0.0-46.0","3X4JMASXCNVCYEKLWV1799LUUYS0B7","A26WVAVVE1RM47","3WRBLBQ2GRU63BU2LFOJL1G32T90GO","","121.40000000596046","img/land2.png","74","122","1","0","1","2","0.8,0.2,0.2,0.2,0.8,0.2,0.2,0.2,0.8","0.2,0.2,0.8,0.8,0.2,0.2,0.2,0.8,0.2","2","",""
"","html-keyboard-response","47","617792","0.0-47.0","3X4JMASXCNVCYEKLWV1799LUUYS0B7","A26WVAVVE1RM47","3WRBLBQ2GRU63BU2LFOJL1G32T90GO","","null","<img src=""img/land2.png"" style=""width:200px;border:14px solid red;"">","null","","","","","","","","","",""
"","image-keyboard-response","48","617921","0.0-48.0","3X4JMASXCNVCYEKLWV1799LUUYS0B7","A26WVAVVE1RM47","3WRBLBQ2GRU63BU2LFOJL1G32T90GO","","128.90000000596046","img/land6.png","74","129.40000000596046","1","1","2","2","0.8,0.2,0.2,0.2,0.8,0.2,0.2,0.2,0.8","0.2,0.2,0.8,0.8,0.2,0.2,0.2,0.8,0.2","2","",""
"","html-keyboard-response","49","618222","0.0-49.0","3X4JMASXCNVCYEKLWV1799LUUYS0B7","A26WVAVVE1RM47","3WRBLBQ2GRU63BU2LFOJL1G32T90GO","","null","<img src=""img/land6.png"" style=""width:200px; border:14px solid green;"">","null","","","","","","","","","",""
"","image-keyboard-response","50","618634","0.0-50.0","3X4JMASXCNVCYEKLWV1799LUUYS0B7","A26WVAVVE1RM47","3WRBLBQ2GRU63BU2LFOJL1G32T90GO","","410.5","img/land1.png","74","411.1000000089407","1","0","3","2","0.8,0.2,0.2,0.2,0.8,0.2,0.2,0.2,0.8","0.2,0.2,0.8,0.8,0.2,0.2,0.2,0.8,0.2","2","",""
"","html-keyboard-response","51","618934","0.0-51.0","3X4JMASXCNVCYEKLWV1799LUUYS0B7","A26WVAVVE1RM47","3WRBLBQ2GRU63BU2LFOJL1G32T90GO","","null","<img src=""img/land1.png"" style=""width:200px;border:14px solid red;"">","null","","","","","","","","","",""
"","image-keyboard-response","52","619066","0.0-52.0","3X4JMASXCNVCYEKLWV1799LUUYS0B7","A26WVAVVE1RM47","3WRBLBQ2GRU63BU2LFOJL1G32T90GO","","131.09999999403954","img/land2.png","76","131.5","3","1","1","2","0.8,0.2,0.2,0.2,0.8,0.2,0.2,0.2,0.8","0.2,0.2,0.8,0.8,0.2,0.2,0.2,0.8,0.2","2","",""
"","html-keyboard-response","53","619368","0.0-53.0","3X4JMASXCNVCYEKLWV1799LUUYS0B7","A26WVAVVE1RM47","3WRBLBQ2GRU63BU2LFOJL1G32T90GO","","null","<img src=""img/land2.png"" style=""width:200px; border:14px solid green;"">","null","","","","","","","","","",""
"","image-keyboard-response","54","619585","0.0-54.0","3X4JMASXCNVCYEKLWV1799LUUYS0B7","A26WVAVVE1RM47","3WRBLBQ2GRU63BU2LFOJL1G32T90GO","","216.80000001192093","img/land1.png","76","217.19999998807907","3","0","3","2","0.8,0.2,0.2,0.2,0.8,0.2,0.2,0.2,0.8","0.2,0.2,0.8,0.8,0.2,0.2,0.2,0.8,0.2","2","",""
"","html-keyboard-response","55","619887","0.0-55.0","3X4JMASXCNVCYEKLWV1799LUUYS0B7","A26WVAVVE1RM47","3WRBLBQ2GRU63BU2LFOJL1G32T90GO","","null","<img src=""img/land1.png"" style=""width:200px;border:14px solid red;"">","null","","","","","","","","","",""
"","image-keyboard-response","56","619907","0.0-56.0","3X4JMASXCNVCYEKLWV1799LUUYS0B7","A26WVAVVE1RM47","3WRBLBQ2GRU63BU2LFOJL1G32T90GO","","19","img/land1.png","74","19.5","1","0","3","2","0.8,0.2,0.2,0.2,0.8,0.2,0.2,0.2,0.8","0.2,0.2,0.8,0.8,0.2,0.2,0.2,0.8,0.2","2","",""
"","html-keyboard-response","57","620208","0.0-57.0","3X4JMASXCNVCYEKLWV1799LUUYS0B7","A26WVAVVE1RM47","3WRBLBQ2GRU63BU2LFOJL1G32T90GO","","null","<img src=""img/land1.png"" style=""width:200px;border:14px solid red;"">","null","","","","","","","","","",""
"","image-keyboard-response","58","620449","0.0-58.0","3X4JMASXCNVCYEKLWV1799LUUYS0B7","A26WVAVVE1RM47","3WRBLBQ2GRU63BU2LFOJL1G32T90GO","","241","img/land2.png","75","241.3999999910593","2","0","1","2","0.8,0.2,0.2,0.2,0.8,0.2,0.2,0.2,0.8","0.2,0.2,0.8,0.8,0.2,0.2,0.2,0.8,0.2","2","",""
"","html-keyboard-response","59","620751","0.0-59.0","3X4JMASXCNVCYEKLWV1799LUUYS0B7","A26WVAVVE1RM47","3WRBLBQ2GRU63BU2LFOJL1G32T90GO","","null","<img src=""img/land2.png"" style=""width:200px;border:14px solid red;"">","null","","","","","","","","","",""
"","image-keyboard-response","60","620849","0.0-60.0","3X4JMASXCNVCYEKLWV1799LUUYS0B7","A26WVAVVE1RM47","3WRBLBQ2GRU63BU2LFOJL1G32T90GO","","97.70000000298023","img/land2.png","76","98.09999999403954","3","1","1","2","0.8,0.2,0.2,0.2,0.8,0.2,0.2,0.2,0.8","0.2,0.2,0.8,0.8,0.2,0.2,0.2,0.8,0.2","2","",""
"","html-keyboard-response","61","621151","0.0-61.0","3X4JMASXCNVCYEKLWV1799LUUYS0B7","A26WVAVVE1RM47","3WRBLBQ2GRU63BU2LFOJL1G32T90GO","","null","<img src=""img/land2.png"" style=""width:200px; border:14px solid green;"">","null","","","","","","","","","",""
"","image-keyboard-response","62","621290","0.0-62.0","3X4JMASXCNVCYEKLWV1799LUUYS0B7","A26WVAVVE1RM47","3WRBLBQ2GRU63BU2LFOJL1G32T90GO","","138.09999999403954","img/land2.png","76","138.6000000089407","3","1","1","2","0.8,0.2,0.2,0.2,0.8,0.2,0.2,0.2,0.8","0.2,0.2,0.8,0.8,0.2,0.2,0.2,0.8,0.2","2","",""
"","html-keyboard-response","63","621590","0.0-63.0","3X4JMASXCNVCYEKLWV1799LUUYS0B7","A26WVAVVE1RM47","3WRBLBQ2GRU63BU2LFOJL1G32T90GO","","null","<img src=""img/land2.png"" style=""width:200px; border:14px solid green;"">","null","","","","","","","","","",""
"","image-keyboard-response","64","621657","0.0-64.0","3X4JMASXCNVCYEKLWV1799LUUYS0B7","A26WVAVVE1RM47","3WRBLBQ2GRU63BU2LFOJL1G32T90GO","","66.6000000089407","img/land1.png","76","67","3","0","3","2","0.8,0.2,0.2,0.2,0.8,0.2,0.2,0.2,0.8","0.2,0.2,0.8,0.8,0.2,0.2,0.2,0.8,0.2","2","",""
"","html-keyboard-response","65","621959","0.0-65.0","3X4JMASXCNVCYEKLWV1799LUUYS0B7","A26WVAVVE1RM47","3WRBLBQ2GRU63BU2LFOJL1G32T90GO","","null","<img src=""img/land1.png"" style=""width:200px;border:14px solid red;"">","null","","","","","","","","","",""
"","image-keyboard-response","66","622169","0.0-66.0","3X4JMASXCNVCYEKLWV1799LUUYS0B7","A26WVAVVE1RM47","3WRBLBQ2GRU63BU2LFOJL1G32T90GO","","209.79999999701977","img/land2.png","75","210.29999999701977","2","1","1","2","0.8,0.2,0.2,0.2,0.8,0.2,0.2,0.2,0.8","0.2,0.2,0.8,0.8,0.2,0.2,0.2,0.8,0.2","2","",""
"","html-keyboard-response","67","622470","0.0-67.0","3X4JMASXCNVCYEKLWV1799LUUYS0B7","A26WVAVVE1RM47","3WRBLBQ2GRU63BU2LFOJL1G32T90GO","","null","<img src=""img/land2.png"" style=""width:200px; border:14px solid green;"">","null","","","","","","","","","",""
"","image-keyboard-response","68","622674","0.0-68.0","3X4JMASXCNVCYEKLWV1799LUUYS0B7","A26WVAVVE1RM47","3WRBLBQ2GRU63BU2LFOJL1G32T90GO","","202.5","img/land2.png","75","202.90000000596046","2","0","1","2","0.8,0.2,0.2,0.2,0.8,0.2,0.2,0.2,0.8","0.2,0.2,0.8,0.8,0.2,0.2,0.2,0.8,0.2","2","",""
"","html-keyboard-response","69","622975","0.0-69.0","3X4JMASXCNVCYEKLWV1799LUUYS0B7","A26WVAVVE1RM47","3WRBLBQ2GRU63BU2LFOJL1G32T90GO","","null","<img src=""img/land2.png"" style=""width:200px;border:14px solid red;"">","null","","","","","","","","","",""
"","image-keyboard-response","70","623194","0.0-70.0","3X4JMASXCNVCYEKLWV1799LUUYS0B7","A26WVAVVE1RM47","3WRBLBQ2GRU63BU2LFOJL1G32T90GO","","218","img/land6.png","76","218.3999999910593","3","0","2","2","0.8,0.2,0.2,0.2,0.8,0.2,0.2,0.2,0.8","0.2,0.2,0.8,0.8,0.2,0.2,0.2,0.8,0.2","2","",""
"","html-keyboard-response","71","623495","0.0-71.0","3X4JMASXCNVCYEKLWV1799LUUYS0B7","A26WVAVVE1RM47","3WRBLBQ2GRU63BU2LFOJL1G32T90GO","","null","<img src=""img/land6.png"" style=""width:200px;border:14px solid red;"">","null","","","","","","","","","",""
"","image-keyboard-response","72","623626","0.0-72.0","3X4JMASXCNVCYEKLWV1799LUUYS0B7","A26WVAVVE1RM47","3WRBLBQ2GRU63BU2LFOJL1G32T90GO","","129.8999999910593","img/land2.png","74","130.29999999701977","1","1","1","2","0.8,0.2,0.2,0.2,0.8,0.2,0.2,0.2,0.8","0.2,0.2,0.8,0.8,0.2,0.2,0.2,0.8,0.2","2","",""
"","html-keyboard-response","73","623927","0.0-73.0","3X4JMASXCNVCYEKLWV1799LUUYS0B7","A26WVAVVE1RM47","3WRBLBQ2GRU63BU2LFOJL1G32T90GO","","null","<img src=""img/land2.png"" style=""width:200px; border:14px solid green;"">","null","","","","","","","","","",""
"","image-keyboard-response","74","624161","0.0-74.0","3X4JMASXCNVCYEKLWV1799LUUYS0B7","A26WVAVVE1RM47","3WRBLBQ2GRU63BU2LFOJL1G32T90GO","","233.59999999403954","img/land1.png","76","234.09999999403954","3","1","3","2","0.8,0.2,0.2,0.2,0.8,0.2,0.2,0.2,0.8","0.2,0.2,0.8,0.8,0.2,0.2,0.2,0.8,0.2","2","",""
"","html-keyboard-response","75","624462","0.0-75.0","3X4JMASXCNVCYEKLWV1799LUUYS0B7","A26WVAVVE1RM47","3WRBLBQ2GRU63BU2LFOJL1G32T90GO","","null","<img src=""img/land1.png"" style=""width:200px; border:14px solid green;"">","null","","","","","","","","","",""
"","image-keyboard-response","76","624593","0.0-76.0","3X4JMASXCNVCYEKLWV1799LUUYS0B7","A26WVAVVE1RM47","3WRBLBQ2GRU63BU2LFOJL1G32T90GO","","130.70000000298023","img/land2.png","74","131.19999998807907","1","0","1","2","0.8,0.2,0.2,0.2,0.8,0.2,0.2,0.2,0.8","0.2,0.2,0.8,0.8,0.2,0.2,0.2,0.8,0.2","2","",""
"","html-keyboard-response","77","624895","0.0-77.0","3X4JMASXCNVCYEKLWV1799LUUYS0B7","A26WVAVVE1RM47","3WRBLBQ2GRU63BU2LFOJL1G32T90GO","","null","<img src=""img/land2.png"" style=""width:200px;border:14px solid red;"">","null","","","","","","","","","",""
"","image-keyboard-response","78","625121","0.0-78.0","3X4JMASXCNVCYEKLWV1799LUUYS0B7","A26WVAVVE1RM47","3WRBLBQ2GRU63BU2LFOJL1G32T90GO","","225","img/land2.png","75","226","2","1","1","2","0.8,0.2,0.2,0.2,0.8,0.2,0.2,0.2,0.8","0.2,0.2,0.8,0.8,0.2,0.2,0.2,0.8,0.2","2","",""
"","html-keyboard-response","79","625423","0.0-79.0","3X4JMASXCNVCYEKLWV1799LUUYS0B7","A26WVAVVE1RM47","3WRBLBQ2GRU63BU2LFOJL1G32T90GO","","null","<img src=""img/land2.png"" style=""width:200px; border:14px solid green;"">","null","","","","","","","","","",""
"","image-keyboard-response","80","625489","0.0-80.0","3X4JMASXCNVCYEKLWV1799LUUYS0B7","A26WVAVVE1RM47","3WRBLBQ2GRU63BU2LFOJL1G32T90GO","","66.1000000089407","img/land2.png","76","66.59999999403954","3","1","1","2","0.8,0.2,0.2,0.2,0.8,0.2,0.2,0.2,0.8","0.2,0.2,0.8,0.8,0.2,0.2,0.2,0.8,0.2","2","",""
"","html-keyboard-response","81","625790","0.0-81.0","3X4JMASXCNVCYEKLWV1799LUUYS0B7","A26WVAVVE1RM47","3WRBLBQ2GRU63BU2LFOJL1G32T90GO","","null","<img src=""img/land2.png"" style=""width:200px; border:14px solid green;"">","null","","","","","","","","","",""
"","image-keyboard-response","82","625986","0.0-82.0","3X4JMASXCNVCYEKLWV1799LUUYS0B7","A26WVAVVE1RM47","3WRBLBQ2GRU63BU2LFOJL1G32T90GO","","194.20000000298023","img/land6.png","75","195.09999999403954","2","0","2","2","0.8,0.2,0.2,0.2,0.8,0.2,0.2,0.2,0.8","0.2,0.2,0.8,0.8,0.2,0.2,0.2,0.8,0.2","2","",""
"","html-keyboard-response","83","626287","0.0-83.0","3X4JMASXCNVCYEKLWV1799LUUYS0B7","A26WVAVVE1RM47","3WRBLBQ2GRU63BU2LFOJL1G32T90GO","","null","<img src=""img/land6.png"" style=""width:200px;border:14px solid red;"">","null","","","","","","","","","",""
"","image-keyboard-response","84","626361","0.0-84.0","3X4JMASXCNVCYEKLWV1799LUUYS0B7","A26WVAVVE1RM47","3WRBLBQ2GRU63BU2LFOJL1G32T90GO","","73.70000000298023","img/land2.png","74","74","1","0","1","2","0.8,0.2,0.2,0.2,0.8,0.2,0.2,0.2,0.8","0.2,0.2,0.8,0.8,0.2,0.2,0.2,0.8,0.2","2","",""
"","html-keyboard-response","85","626662","0.0-85.0","3X4JMASXCNVCYEKLWV1799LUUYS0B7","A26WVAVVE1RM47","3WRBLBQ2GRU63BU2LFOJL1G32T90GO","","null","<img src=""img/land2.png"" style=""width:200px;border:14px solid red;"">","null","","","","","","","","","",""
"","image-keyboard-response","86","626713","0.0-86.0","3X4JMASXCNVCYEKLWV1799LUUYS0B7","A26WVAVVE1RM47","3WRBLBQ2GRU63BU2LFOJL1G32T90GO","","50.599999994039536","img/land1.png","76","51.099999994039536","3","0","3","2","0.8,0.2,0.2,0.2,0.8,0.2,0.2,0.2,0.8","0.2,0.2,0.8,0.8,0.2,0.2,0.2,0.8,0.2","2","",""
"","html-keyboard-response","87","627015","0.0-87.0","3X4JMASXCNVCYEKLWV1799LUUYS0B7","A26WVAVVE1RM47","3WRBLBQ2GRU63BU2LFOJL1G32T90GO","","null","<img src=""img/land1.png"" style=""width:200px;border:14px solid red;"">","null","","","","","","","","","",""
"","image-keyboard-response","88","627210","0.0-88.0","3X4JMASXCNVCYEKLWV1799LUUYS0B7","A26WVAVVE1RM47","3WRBLBQ2GRU63BU2LFOJL1G32T90GO","","194.5","img/land2.png","75","195","2","0","1","2","0.8,0.2,0.2,0.2,0.8,0.2,0.2,0.2,0.8","0.2,0.2,0.8,0.8,0.2,0.2,0.2,0.8,0.2","2","",""
"","html-keyboard-response","89","627512","0.0-89.0","3X4JMASXCNVCYEKLWV1799LUUYS0B7","A26WVAVVE1RM47","3WRBLBQ2GRU63BU2LFOJL1G32T90GO","","null","<img src=""img/land2.png"" style=""width:200px;border:14px solid red;"">","null","","","","","","","","","",""
"","image-keyboard-response","90","627625","0.0-90.0","3X4JMASXCNVCYEKLWV1799LUUYS0B7","A26WVAVVE1RM47","3WRBLBQ2GRU63BU2LFOJL1G32T90GO","","112.5","img/land2.png","74","112.79999999701977","1","0","1","2","0.8,0.2,0.2,0.2,0.8,0.2,0.2,0.2,0.8","0.2,0.2,0.8,0.8,0.2,0.2,0.2,0.8,0.2","2","",""
"","html-keyboard-response","91","627926","0.0-91.0","3X4JMASXCNVCYEKLWV1799LUUYS0B7","A26WVAVVE1RM47","3WRBLBQ2GRU63BU2LFOJL1G32T90GO","","null","<img src=""img/land2.png"" style=""width:200px;border:14px solid red;"">","null","","","","","","","","","",""
"","image-keyboard-response","92","628177","0.0-92.0","3X4JMASXCNVCYEKLWV1799LUUYS0B7","A26WVAVVE1RM47","3WRBLBQ2GRU63BU2LFOJL1G32T90GO","","250.3999999910593","img/land6.png","76","250.8999999910593","3","0","2","2","0.8,0.2,0.2,0.2,0.8,0.2,0.2,0.2,0.8","0.2,0.2,0.8,0.8,0.2,0.2,0.2,0.8,0.2","2","",""
"","html-keyboard-response","93","628479","0.0-93.0","3X4JMASXCNVCYEKLWV1799LUUYS0B7","A26WVAVVE1RM47","3WRBLBQ2GRU63BU2LFOJL1G32T90GO","","null","<img src=""img/land6.png"" style=""width:200px;border:14px solid red;"">","null","","","","","","","","","",""
"","image-keyboard-response","94","628665","0.0-94.0","3X4JMASXCNVCYEKLWV1799LUUYS0B7","A26WVAVVE1RM47","3WRBLBQ2GRU63BU2LFOJL1G32T90GO","","185.80000001192093","img/land2.png","74","186.20000000298023","1","0","1","2","0.8,0.2,0.2,0.2,0.8,0.2,0.2,0.2,0.8","0.2,0.2,0.8,0.8,0.2,0.2,0.2,0.8,0.2","2","",""
"","html-keyboard-response","95","628966","0.0-95.0","3X4JMASXCNVCYEKLWV1799LUUYS0B7","A26WVAVVE1RM47","3WRBLBQ2GRU63BU2LFOJL1G32T90GO","","null","<img src=""img/land2.png"" style=""width:200px;border:14px solid red;"">","null","","","","","","","","","",""
"","image-keyboard-response","96","629129","0.0-96.0","3X4JMASXCNVCYEKLWV1799LUUYS0B7","A26WVAVVE1RM47","3WRBLBQ2GRU63BU2LFOJL1G32T90GO","","162.69999998807907","img/land1.png","76","163","3","0","3","2","0.8,0.2,0.2,0.2,0.8,0.2,0.2,0.2,0.8","0.2,0.2,0.8,0.8,0.2,0.2,0.2,0.8,0.2","2","",""
"","html-keyboard-response","97","629431","0.0-97.0","3X4JMASXCNVCYEKLWV1799LUUYS0B7","A26WVAVVE1RM47","3WRBLBQ2GRU63BU2LFOJL1G32T90GO","","null","<img src=""img/land1.png"" style=""width:200px;border:14px solid red;"">","null","","","","","","","","","",""
"","image-keyboard-response","98","629593","0.0-98.0","3X4JMASXCNVCYEKLWV1799LUUYS0B7","A26WVAVVE1RM47","3WRBLBQ2GRU63BU2LFOJL1G32T90GO","","162.29999999701977","img/land2.png","76","162.79999999701977","3","1","1","2","0.8,0.2,0.2,0.2,0.8,0.2,0.2,0.2,0.8","0.2,0.2,0.8,0.8,0.2,0.2,0.2,0.8,0.2","2","",""
"","html-keyboard-response","99","629895","0.0-99.0","3X4JMASXCNVCYEKLWV1799LUUYS0B7","A26WVAVVE1RM47","3WRBLBQ2GRU63BU2LFOJL1G32T90GO","","null","<img src=""img/land2.png"" style=""width:200px; border:14px solid green;"">","null","","","","","","","","","",""
"","image-keyboard-response","100","630177","0.0-100.0","3X4JMASXCNVCYEKLWV1799LUUYS0B7","A26WVAVVE1RM47","3WRBLBQ2GRU63BU2LFOJL1G32T90GO","","282.20000000298023","img/land1.png","74","282.69999998807907","1","0","3","2","0.8,0.2,0.2,0.2,0.8,0.2,0.2,0.2,0.8","0.2,0.2,0.8,0.8,0.2,0.2,0.2,0.8,0.2","2","",""
"","html-keyboard-response","101","630479","0.0-101.0","3X4JMASXCNVCYEKLWV1799LUUYS0B7","A26WVAVVE1RM47","3WRBLBQ2GRU63BU2LFOJL1G32T90GO","","null","<img src=""img/land1.png"" style=""width:200px;border:14px solid red;"">","null","","","","","","","","","",""
"","image-keyboard-response","102","630553","0.0-102.0","3X4JMASXCNVCYEKLWV1799LUUYS0B7","A26WVAVVE1RM47","3WRBLBQ2GRU63BU2LFOJL1G32T90GO","","74.30000001192093","img/land2.png","76","74.70000000298023","3","1","1","2","0.8,0.2,0.2,0.2,0.8,0.2,0.2,0.2,0.8","0.2,0.2,0.8,0.8,0.2,0.2,0.2,0.8,0.2","2","",""
"","html-keyboard-response","103","630855","0.0-103.0","3X4JMASXCNVCYEKLWV1799LUUYS0B7","A26WVAVVE1RM47","3WRBLBQ2GRU63BU2LFOJL1G32T90GO","","null","<img src=""img/land2.png"" style=""width:200px; border:14px solid green;"">","null","","","","","","","","","",""
"","image-keyboard-response","104","630881","0.0-104.0","3X4JMASXCNVCYEKLWV1799LUUYS0B7","A26WVAVVE1RM47","3WRBLBQ2GRU63BU2LFOJL1G32T90GO","","25.799999997019768","img/land1.png","75","26.400000005960464","2","1","3","2","0.8,0.2,0.2,0.2,0.8,0.2,0.2,0.2,0.8","0.2,0.2,0.8,0.8,0.2,0.2,0.2,0.8,0.2","2","",""
"","html-keyboard-response","105","631183","0.0-105.0","3X4JMASXCNVCYEKLWV1799LUUYS0B7","A26WVAVVE1RM47","3WRBLBQ2GRU63BU2LFOJL1G32T90GO","","null","<img src=""img/land1.png"" style=""width:200px; border:14px solid green;"">","null","","","","","","","","","",""
"","image-keyboard-response","106","631266","0.0-106.0","3X4JMASXCNVCYEKLWV1799LUUYS0B7","A26WVAVVE1RM47","3WRBLBQ2GRU63BU2LFOJL1G32T90GO","","81.70000000298023","img/land2.png","75","82.20000000298023","2","0","1","2","0.8,0.2,0.2,0.2,0.8,0.2,0.2,0.2,0.8","0.2,0.2,0.8,0.8,0.2,0.2,0.2,0.8,0.2","2","",""
"","html-keyboard-response","107","631567","0.0-107.0","3X4JMASXCNVCYEKLWV1799LUUYS0B7","A26WVAVVE1RM47","3WRBLBQ2GRU63BU2LFOJL1G32T90GO","","null","<img src=""img/land2.png"" style=""width:200px;border:14px solid red;"">","null","","","","","","","","","",""
"","image-keyboard-response","108","631649","0.0-108.0","3X4JMASXCNVCYEKLWV1799LUUYS0B7","A26WVAVVE1RM47","3WRBLBQ2GRU63BU2LFOJL1G32T90GO","","81.59999999403954","img/land2.png","75","82.09999999403954","2","0","1","2","0.8,0.2,0.2,0.2,0.8,0.2,0.2,0.2,0.8","0.2,0.2,0.8,0.8,0.2,0.2,0.2,0.8,0.2","2","",""
"","html-keyboard-response","109","631951","0.0-109.0","3X4JMASXCNVCYEKLWV1799LUUYS0B7","A26WVAVVE1RM47","3WRBLBQ2GRU63BU2LFOJL1G32T90GO","","null","<img src=""img/land2.png"" style=""width:200px;border:14px solid red;"">","null","","","","","","","","","",""
"","image-keyboard-response","110","632049","0.0-110.0","3X4JMASXCNVCYEKLWV1799LUUYS0B7","A26WVAVVE1RM47","3WRBLBQ2GRU63BU2LFOJL1G32T90GO","","98.09999999403954","img/land2.png","74","98.5","1","1","1","2","0.8,0.2,0.2,0.2,0.8,0.2,0.2,0.2,0.8","0.2,0.2,0.8,0.8,0.2,0.2,0.2,0.8,0.2","2","",""
"","html-keyboard-response","111","632351","0.0-111.0","3X4JMASXCNVCYEKLWV1799LUUYS0B7","A26WVAVVE1RM47","3WRBLBQ2GRU63BU2LFOJL1G32T90GO","","null","<img src=""img/land2.png"" style=""width:200px; border:14px solid green;"">","null","","","","","","","","","",""
"","image-keyboard-response","112","632521","0.0-112.0","3X4JMASXCNVCYEKLWV1799LUUYS0B7","A26WVAVVE1RM47","3WRBLBQ2GRU63BU2LFOJL1G32T90GO","","169.90000000596046","img/land2.png","75","170.29999999701977","2","1","1","2","0.8,0.2,0.2,0.2,0.8,0.2,0.2,0.2,0.8","0.2,0.2,0.8,0.8,0.2,0.2,0.2,0.8,0.2","2","",""
"","html-keyboard-response","113","632823","0.0-113.0","3X4JMASXCNVCYEKLWV1799LUUYS0B7","A26WVAVVE1RM47","3WRBLBQ2GRU63BU2LFOJL1G32T90GO","","null","<img src=""img/land2.png"" style=""width:200px; border:14px solid green;"">","null","","","","","","","","","",""
"","image-keyboard-response","114","632873","0.0-114.0","3X4JMASXCNVCYEKLWV1799LUUYS0B7","A26WVAVVE1RM47","3WRBLBQ2GRU63BU2LFOJL1G32T90GO","","49.29999999701977","img/land2.png","74","49.80000001192093","1","0","1","2","0.8,0.2,0.2,0.2,0.8,0.2,0.2,0.2,0.8","0.2,0.2,0.8,0.8,0.2,0.2,0.2,0.8,0.2","2","",""
"","html-keyboard-response","115","633175","0.0-115.0","3X4JMASXCNVCYEKLWV1799LUUYS0B7","A26WVAVVE1RM47","3WRBLBQ2GRU63BU2LFOJL1G32T90GO","","null","<img src=""img/land2.png"" style=""width:200px;border:14px solid red;"">","null","","","","","","","","","",""
"","image-keyboard-response","116","633194","0.0-116.0","3X4JMASXCNVCYEKLWV1799LUUYS0B7","A26WVAVVE1RM47","3WRBLBQ2GRU63BU2LFOJL1G32T90GO","","18.700000002980232","img/land2.png","74","19.200000002980232","1","0","1","2","0.8,0.2,0.2,0.2,0.8,0.2,0.2,0.2,0.8","0.2,0.2,0.8,0.8,0.2,0.2,0.2,0.8,0.2","2","",""
"","html-keyboard-response","117","633495","0.0-117.0","3X4JMASXCNVCYEKLWV1799LUUYS0B7","A26WVAVVE1RM47","3WRBLBQ2GRU63BU2LFOJL1G32T90GO","","null","<img src=""img/land2.png"" style=""width:200px;border:14px solid red;"">","null","","","","","","","","","",""
"","image-keyboard-response","118","633586","0.0-118.0","3X4JMASXCNVCYEKLWV1799LUUYS0B7","A26WVAVVE1RM47","3WRBLBQ2GRU63BU2LFOJL1G32T90GO","","89.69999998807907","img/land2.png","74","90.40000000596046","1","0","1","2","0.8,0.2,0.2,0.2,0.8,0.2,0.2,0.2,0.8","0.2,0.2,0.8,0.8,0.2,0.2,0.2,0.8,0.2","2","",""
"","html-keyboard-response","119","633888","0.0-119.0","3X4JMASXCNVCYEKLWV1799LUUYS0B7","A26WVAVVE1RM47","3WRBLBQ2GRU63BU2LFOJL1G32T90GO","","null","<img src=""img/land2.png"" style=""width:200px;border:14px solid red;"">","null","","","","","","","","","",""
"","image-keyboard-response","120","635890","0.0-120.0","3X4JMASXCNVCYEKLWV1799LUUYS0B7","A26WVAVVE1RM47","3WRBLBQ2GRU63BU2LFOJL1G32T90GO","","","img/land2.png","","2002.1000000089407","-1","0","1","2","0.8,0.2,0.2,0.2,0.8,0.2,0.2,0.2,0.8","0.2,0.2,0.8,0.8,0.2,0.2,0.2,0.8,0.2","2","",""
"","html-keyboard-response","121","636191","0.0-121.0","3X4JMASXCNVCYEKLWV1799LUUYS0B7","A26WVAVVE1RM47","3WRBLBQ2GRU63BU2LFOJL1G32T90GO","","null","<img src=""img/land2.png"" style=""width:200px;border:14px solid red;"">","null","","","","","","","","","",""
"","image-keyboard-response","122","636337","0.0-122.0","3X4JMASXCNVCYEKLWV1799LUUYS0B7","A26WVAVVE1RM47","3WRBLBQ2GRU63BU2LFOJL1G32T90GO","","146","img/land2.png","75","146.29999999701977","2","0","1","2","0.8,0.2,0.2,0.2,0.8,0.2,0.2,0.2,0.8","0.2,0.2,0.8,0.8,0.2,0.2,0.2,0.8,0.2","2","",""
"","html-keyboard-response","123","636643","0.0-123.0","3X4JMASXCNVCYEKLWV1799LUUYS0B7","A26WVAVVE1RM47","3WRBLBQ2GRU63BU2LFOJL1G32T90GO","","null","<img src=""img/land2.png"" style=""width:200px;border:14px solid red;"">","null","","","","","","","","","",""
"","image-keyboard-response","124","637370","0.0-124.0","3X4JMASXCNVCYEKLWV1799LUUYS0B7","A26WVAVVE1RM47","3WRBLBQ2GRU63BU2LFOJL1G32T90GO","","725.6000000089407","img/land2.png","76","726.4000000059605","3","1","1","2","0.8,0.2,0.2,0.2,0.8,0.2,0.2,0.2,0.8","0.2,0.2,0.8,0.8,0.2,0.2,0.2,0.8,0.2","2","",""
"","html-keyboard-response","125","637671","0.0-125.0","3X4JMASXCNVCYEKLWV1799LUUYS0B7","A26WVAVVE1RM47","3WRBLBQ2GRU63BU2LFOJL1G32T90GO","","null","<img src=""img/land2.png"" style=""width:200px; border:14px solid green;"">","null","","","","","","","","","",""
"","image-keyboard-response","126","637713","0.0-126.0","3X4JMASXCNVCYEKLWV1799LUUYS0B7","A26WVAVVE1RM47","3WRBLBQ2GRU63BU2LFOJL1G32T90GO","","41.20000000298023","img/land2.png","74","41.599999994039536","1","0","1","2","0.8,0.2,0.2,0.2,0.8,0.2,0.2,0.2,0.8","0.2,0.2,0.8,0.8,0.2,0.2,0.2,0.8,0.2","2","",""
"","html-keyboard-response","127","638014","0.0-127.0","3X4JMASXCNVCYEKLWV1799LUUYS0B7","A26WVAVVE1RM47","3WRBLBQ2GRU63BU2LFOJL1G32T90GO","","null","<img src=""img/land2.png"" style=""width:200px;border:14px solid red;"">","null","","","","","","","","","",""
"","image-keyboard-response","128","638337","0.0-128.0","3X4JMASXCNVCYEKLWV1799LUUYS0B7","A26WVAVVE1RM47","3WRBLBQ2GRU63BU2LFOJL1G32T90GO","","322.90000000596046","img/land2.png","74","323.29999999701977","1","0","1","2","0.8,0.2,0.2,0.2,0.8,0.2,0.2,0.2,0.8","0.2,0.2,0.8,0.8,0.2,0.2,0.2,0.8,0.2","2","",""
"","html-keyboard-response","129","638639","0.0-129.0","3X4JMASXCNVCYEKLWV1799LUUYS0B7","A26WVAVVE1RM47","3WRBLBQ2GRU63BU2LFOJL1G32T90GO","","null","<img src=""img/land2.png"" style=""width:200px;border:14px solid red;"">","null","","","","","","","","","",""
"","image-keyboard-response","130","638706","0.0-130.0","3X4JMASXCNVCYEKLWV1799LUUYS0B7","A26WVAVVE1RM47","3WRBLBQ2GRU63BU2LFOJL1G32T90GO","","65.79999999701977","img/land1.png","74","66.29999999701977","1","0","3","2","0.8,0.2,0.2,0.2,0.8,0.2,0.2,0.2,0.8","0.2,0.2,0.8,0.8,0.2,0.2,0.2,0.8,0.2","2","",""
"","html-keyboard-response","131","639006","0.0-131.0","3X4JMASXCNVCYEKLWV1799LUUYS0B7","A26WVAVVE1RM47","3WRBLBQ2GRU63BU2LFOJL1G32T90GO","","null","<img src=""img/land1.png"" style=""width:200px;border:14px solid red;"">","null","","","","","","","","","",""
"","image-keyboard-response","132","639161","0.0-132.0","3X4JMASXCNVCYEKLWV1799LUUYS0B7","A26WVAVVE1RM47","3WRBLBQ2GRU63BU2LFOJL1G32T90GO","","154.3999999910593","img/land2.png","74","154.80000001192093","1","0","1","2","0.8,0.2,0.2,0.2,0.8,0.2,0.2,0.2,0.8","0.2,0.2,0.8,0.8,0.2,0.2,0.2,0.8,0.2","2","",""
"","html-keyboard-response","133","639462","0.0-133.0","3X4JMASXCNVCYEKLWV1799LUUYS0B7","A26WVAVVE1RM47","3WRBLBQ2GRU63BU2LFOJL1G32T90GO","","null","<img src=""img/land2.png"" style=""width:200px;border:14px solid red;"">","null","","","","","","","","","",""
"","image-keyboard-response","134","639465","0.0-134.0","3X4JMASXCNVCYEKLWV1799LUUYS0B7","A26WVAVVE1RM47","3WRBLBQ2GRU63BU2LFOJL1G32T90GO","","2.7000000029802322","img/land2.png","74","3","1","0","1","2","0.8,0.2,0.2,0.2,0.8,0.2,0.2,0.2,0.8","0.2,0.2,0.8,0.8,0.2,0.2,0.2,0.8,0.2","2","",""
"","html-keyboard-response","135","639767","0.0-135.0","3X4JMASXCNVCYEKLWV1799LUUYS0B7","A26WVAVVE1RM47","3WRBLBQ2GRU63BU2LFOJL1G32T90GO","","null","<img src=""img/land2.png"" style=""width:200px;border:14px solid red;"">","null","","","","","","","","","",""
"","image-keyboard-response","136","639881","0.0-136.0","3X4JMASXCNVCYEKLWV1799LUUYS0B7","A26WVAVVE1RM47","3WRBLBQ2GRU63BU2LFOJL1G32T90GO","","113.8999999910593","img/land2.png","74","114.5","1","0","1","2","0.8,0.2,0.2,0.2,0.8,0.2,0.2,0.2,0.8","0.2,0.2,0.8,0.8,0.2,0.2,0.2,0.8,0.2","2","",""
"","html-keyboard-response","137","640184","0.0-137.0","3X4JMASXCNVCYEKLWV1799LUUYS0B7","A26WVAVVE1RM47","3WRBLBQ2GRU63BU2LFOJL1G32T90GO","","null","<img src=""img/land2.png"" style=""width:200px;border:14px solid red;"">","null","","","","","","","","","",""
"","image-keyboard-response","138","640474","0.0-138.0","3X4JMASXCNVCYEKLWV1799LUUYS0B7","A26WVAVVE1RM47","3WRBLBQ2GRU63BU2LFOJL1G32T90GO","","289.5","img/land1.png","74","289.90000000596046","1","0","3","2","0.8,0.2,0.2,0.2,0.8,0.2,0.2,0.2,0.8","0.2,0.2,0.8,0.8,0.2,0.2,0.2,0.8,0.2","2","",""
"","html-keyboard-response","139","640775","0.0-139.0","3X4JMASXCNVCYEKLWV1799LUUYS0B7","A26WVAVVE1RM47","3WRBLBQ2GRU63BU2LFOJL1G32T90GO","","null","<img src=""img/land1.png"" style=""width:200px;border:14px solid red;"">","null","","","","","","","","","",""
"","image-keyboard-response","140","640978","0.0-140.0","3X4JMASXCNVCYEKLWV1799LUUYS0B7","A26WVAVVE1RM47","3WRBLBQ2GRU63BU2LFOJL1G32T90GO","","201.8999999910593","img/land2.png","74","202.29999999701977","1","0","1","2","0.8,0.2,0.2,0.2,0.8,0.2,0.2,0.2,0.8","0.2,0.2,0.8,0.8,0.2,0.2,0.2,0.8,0.2","2","",""
"","html-keyboard-response","141","641279","0.0-141.0","3X4JMASXCNVCYEKLWV1799LUUYS0B7","A26WVAVVE1RM47","3WRBLBQ2GRU63BU2LFOJL1G32T90GO","","null","<img src=""img/land2.png"" style=""width:200px;border:14px solid red;"">","null","","","","","","","","","",""
"","image-keyboard-response","142","641403","0.0-142.0","3X4JMASXCNVCYEKLWV1799LUUYS0B7","A26WVAVVE1RM47","3WRBLBQ2GRU63BU2LFOJL1G32T90GO","","123.6000000089407","img/land2.png","74","124.1000000089407","1","1","1","2","0.8,0.2,0.2,0.2,0.8,0.2,0.2,0.2,0.8","0.2,0.2,0.8,0.8,0.2,0.2,0.2,0.8,0.2","2","",""
"","html-keyboard-response","143","641705","0.0-143.0","3X4JMASXCNVCYEKLWV1799LUUYS0B7","A26WVAVVE1RM47","3WRBLBQ2GRU63BU2LFOJL1G32T90GO","","null","<img src=""img/land2.png"" style=""width:200px; border:14px solid green;"">","null","","","","","","","","","",""
"","image-keyboard-response","144","641818","0.0-144.0","3X4JMASXCNVCYEKLWV1799LUUYS0B7","A26WVAVVE1RM47","3WRBLBQ2GRU63BU2LFOJL1G32T90GO","","112.29999999701977","img/land2.png","74","112.80000001192093","1","1","1","2","0.8,0.2,0.2,0.2,0.8,0.2,0.2,0.2,0.8","0.2,0.2,0.8,0.8,0.2,0.2,0.2,0.8,0.2","2","",""
"","html-keyboard-response","145","642119","0.0-145.0","3X4JMASXCNVCYEKLWV1799LUUYS0B7","A26WVAVVE1RM47","3WRBLBQ2GRU63BU2LFOJL1G32T90GO","","null","<img src=""img/land2.png"" style=""width:200px; border:14px solid green;"">","null","","","","","","","","","",""
"","image-keyboard-response","146","642594","0.0-146.0","3X4JMASXCNVCYEKLWV1799LUUYS0B7","A26WVAVVE1RM47","3WRBLBQ2GRU63BU2LFOJL1G32T90GO","","474.5","img/land1.png","74","475","1","0","3","2","0.8,0.2,0.2,0.2,0.8,0.2,0.2,0.2,0.8","0.2,0.2,0.8,0.8,0.2,0.2,0.2,0.8,0.2","2","",""
"","html-keyboard-response","147","642895","0.0-147.0","3X4JMASXCNVCYEKLWV1799LUUYS0B7","A26WVAVVE1RM47","3WRBLBQ2GRU63BU2LFOJL1G32T90GO","","null","<img src=""img/land1.png"" style=""width:200px;border:14px solid red;"">","null","","","","","","","","","",""
"","image-keyboard-response","148","644896","0.0-148.0","3X4JMASXCNVCYEKLWV1799LUUYS0B7","A26WVAVVE1RM47","3WRBLBQ2GRU63BU2LFOJL1G32T90GO","","","img/land2.png","","2001.0999999940395","-1","0","1","2","0.8,0.2,0.2,0.2,0.8,0.2,0.2,0.2,0.8","0.2,0.2,0.8,0.8,0.2,0.2,0.2,0.8,0.2","2","",""
"","html-keyboard-response","149","645197","0.0-149.0","3X4JMASXCNVCYEKLWV1799LUUYS0B7","A26WVAVVE1RM47","3WRBLBQ2GRU63BU2LFOJL1G32T90GO","","null","<img src=""img/land2.png"" style=""width:200px;border:14px solid red;"">","null","","","","","","","","","",""
"","image-keyboard-response","150","646410","0.0-150.0","3X4JMASXCNVCYEKLWV1799LUUYS0B7","A26WVAVVE1RM47","3WRBLBQ2GRU63BU2LFOJL1G32T90GO","","1212.8999999910593","img/land2.png","74","1213.2999999970198","1","0","1","2","0.8,0.2,0.2,0.2,0.8,0.2,0.2,0.2,0.8","0.2,0.2,0.8,0.8,0.2,0.2,0.2,0.8,0.2","2","",""
"","html-keyboard-response","151","646712","0.0-151.0","3X4JMASXCNVCYEKLWV1799LUUYS0B7","A26WVAVVE1RM47","3WRBLBQ2GRU63BU2LFOJL1G32T90GO","","null","<img src=""img/land2.png"" style=""width:200px;border:14px solid red;"">","null","","","","","","","","","",""
"","image-keyboard-response","152","646714","0.0-152.0","3X4JMASXCNVCYEKLWV1799LUUYS0B7","A26WVAVVE1RM47","3WRBLBQ2GRU63BU2LFOJL1G32T90GO","","1.300000011920929","img/land2.png","74","1.7000000029802322","1","0","1","2","0.8,0.2,0.2,0.2,0.8,0.2,0.2,0.2,0.8","0.2,0.2,0.8,0.8,0.2,0.2,0.2,0.8,0.2","2","",""
"","html-keyboard-response","153","647015","0.0-153.0","3X4JMASXCNVCYEKLWV1799LUUYS0B7","A26WVAVVE1RM47","3WRBLBQ2GRU63BU2LFOJL1G32T90GO","","null","<img src=""img/land2.png"" style=""width:200px;border:14px solid red;"">","null","","","","","","","","","",""
"","image-keyboard-response","154","647058","0.0-154.0","3X4JMASXCNVCYEKLWV1799LUUYS0B7","A26WVAVVE1RM47","3WRBLBQ2GRU63BU2LFOJL1G32T90GO","","42.5","img/land2.png","75","42.900000005960464","2","0","1","2","0.8,0.2,0.2,0.2,0.8,0.2,0.2,0.2,0.8","0.2,0.2,0.8,0.8,0.2,0.2,0.2,0.8,0.2","2","",""
"","html-keyboard-response","155","647359","0.0-155.0","3X4JMASXCNVCYEKLWV1799LUUYS0B7","A26WVAVVE1RM47","3WRBLBQ2GRU63BU2LFOJL1G32T90GO","","null","<img src=""img/land2.png"" style=""width:200px;border:14px solid red;"">","null","","","","","","","","","",""
"","image-keyboard-response","156","647371","0.0-156.0","3X4JMASXCNVCYEKLWV1799LUUYS0B7","A26WVAVVE1RM47","3WRBLBQ2GRU63BU2LFOJL1G32T90GO","","11","img/land2.png","74","11.5","1","0","1","2","0.8,0.2,0.2,0.2,0.8,0.2,0.2,0.2,0.8","0.2,0.2,0.8,0.8,0.2,0.2,0.2,0.8,0.2","2","",""
"","html-keyboard-response","157","647672","0.0-157.0","3X4JMASXCNVCYEKLWV1799LUUYS0B7","A26WVAVVE1RM47","3WRBLBQ2GRU63BU2LFOJL1G32T90GO","","null","<img src=""img/land2.png"" style=""width:200px;border:14px solid red;"">","null","","","","","","","","","",""
"","image-keyboard-response","158","647786","0.0-158.0","3X4JMASXCNVCYEKLWV1799LUUYS0B7","A26WVAVVE1RM47","3WRBLBQ2GRU63BU2LFOJL1G32T90GO","","113.79999999701977","img/land2.png","74","114.29999999701977","1","0","1","2","0.8,0.2,0.2,0.2,0.8,0.2,0.2,0.2,0.8","0.2,0.2,0.8,0.8,0.2,0.2,0.2,0.8,0.2","2","",""
"","html-keyboard-response","159","648088","0.0-159.0","3X4JMASXCNVCYEKLWV1799LUUYS0B7","A26WVAVVE1RM47","3WRBLBQ2GRU63BU2LFOJL1G32T90GO","","null","<img src=""img/land2.png"" style=""width:200px;border:14px solid red;"">","null","","","","","","","","","",""
"","image-keyboard-response","160","648156","0.0-160.0","3X4JMASXCNVCYEKLWV1799LUUYS0B7","A26WVAVVE1RM47","3WRBLBQ2GRU63BU2LFOJL1G32T90GO","","66.70000000298023","img/land2.png","74","67.29999999701977","1","1","1","2","0.8,0.2,0.2,0.2,0.8,0.2,0.2,0.2,0.8","0.2,0.2,0.8,0.8,0.2,0.2,0.2,0.8,0.2","2","",""
"","html-keyboard-response","161","648462","0.0-161.0","3X4JMASXCNVCYEKLWV1799LUUYS0B7","A26WVAVVE1RM47","3WRBLBQ2GRU63BU2LFOJL1G32T90GO","","null","<img src=""img/land2.png"" style=""width:200px; border:14px solid green;"">","null","","","","","","","","","",""
"","image-keyboard-response","162","648498","0.0-162.0","3X4JMASXCNVCYEKLWV1799LUUYS0B7","A26WVAVVE1RM47","3WRBLBQ2GRU63BU2LFOJL1G32T90GO","","35.599999994039536","img/land1.png","74","35.8999999910593","1","0","3","2","0.8,0.2,0.2,0.2,0.8,0.2,0.2,0.2,0.8","0.2,0.2,0.8,0.8,0.2,0.2,0.2,0.8,0.2","2","",""
"","html-keyboard-response","163","648799","0.0-163.0","3X4JMASXCNVCYEKLWV1799LUUYS0B7","A26WVAVVE1RM47","3WRBLBQ2GRU63BU2LFOJL1G32T90GO","","null","<img src=""img/land1.png"" style=""width:200px;border:14px solid red;"">","null","","","","","","","","","",""
"","image-keyboard-response","164","648834","0.0-164.0","3X4JMASXCNVCYEKLWV1799LUUYS0B7","A26WVAVVE1RM47","3WRBLBQ2GRU63BU2LFOJL1G32T90GO","","34.3999999910593","img/land2.png","74","34.79999999701977","1","0","1","2","0.8,0.2,0.2,0.2,0.8,0.2,0.2,0.2,0.8","0.2,0.2,0.8,0.8,0.2,0.2,0.2,0.8,0.2","2","",""
"","html-keyboard-response","165","649136","0.0-165.0","3X4JMASXCNVCYEKLWV1799LUUYS0B7","A26WVAVVE1RM47","3WRBLBQ2GRU63BU2LFOJL1G32T90GO","","null","<img src=""img/land2.png"" style=""width:200px;border:14px solid red;"">","null","","","","","","","","","",""
"","image-keyboard-response","166","651137","0.0-166.0","3X4JMASXCNVCYEKLWV1799LUUYS0B7","A26WVAVVE1RM47","3WRBLBQ2GRU63BU2LFOJL1G32T90GO","","","img/land1.png","","2001.1000000089407","-1","0","3","2","0.8,0.2,0.2,0.2,0.8,0.2,0.2,0.2,0.8","0.2,0.2,0.8,0.8,0.2,0.2,0.2,0.8,0.2","2","",""
"","html-keyboard-response","167","651439","0.0-167.0","3X4JMASXCNVCYEKLWV1799LUUYS0B7","A26WVAVVE1RM47","3WRBLBQ2GRU63BU2LFOJL1G32T90GO","","null","<img src=""img/land1.png"" style=""width:200px;border:14px solid red;"">","null","","","","","","","","","",""
"","image-keyboard-response","168","653434","0.0-168.0","3X4JMASXCNVCYEKLWV1799LUUYS0B7","A26WVAVVE1RM47","3WRBLBQ2GRU63BU2LFOJL1G32T90GO","","1995","img/land6.png","74","1995.3999999910593","1","1","2","2","0.8,0.2,0.2,0.2,0.8,0.2,0.2,0.2,0.8","0.2,0.2,0.8,0.8,0.2,0.2,0.2,0.8,0.2","2","",""
"","html-keyboard-response","169","653735","0.0-169.0","3X4JMASXCNVCYEKLWV1799LUUYS0B7","A26WVAVVE1RM47","3WRBLBQ2GRU63BU2LFOJL1G32T90GO","","null","<img src=""img/land6.png"" style=""width:200px; border:14px solid green;"">","null","","","","","","","","","",""
"","image-keyboard-response","170","654099","0.0-170.0","3X4JMASXCNVCYEKLWV1799LUUYS0B7","A26WVAVVE1RM47","3WRBLBQ2GRU63BU2LFOJL1G32T90GO","","363.29999999701977","img/land6.png","74","363.5","1","1","2","2","0.8,0.2,0.2,0.2,0.8,0.2,0.2,0.2,0.8","0.2,0.2,0.8,0.8,0.2,0.2,0.2,0.8,0.2","2","",""
"","html-keyboard-response","171","654400","0.0-171.0","3X4JMASXCNVCYEKLWV1799LUUYS0B7","A26WVAVVE1RM47","3WRBLBQ2GRU63BU2LFOJL1G32T90GO","","null","<img src=""img/land6.png"" style=""width:200px; border:14px solid green;"">","null","","","","","","","","","",""
"","image-keyboard-response","172","656002","0.0-172.0","3X4JMASXCNVCYEKLWV1799LUUYS0B7","A26WVAVVE1RM47","3WRBLBQ2GRU63BU2LFOJL1G32T90GO","","1601.7999999970198","img/land1.png","74","1602.2999999970198","1","0","3","2","0.8,0.2,0.2,0.2,0.8,0.2,0.2,0.2,0.8","0.2,0.2,0.8,0.8,0.2,0.2,0.2,0.8,0.2","2","",""
"","html-keyboard-response","173","656304","0.0-173.0","3X4JMASXCNVCYEKLWV1799LUUYS0B7","A26WVAVVE1RM47","3WRBLBQ2GRU63BU2LFOJL1G32T90GO","","null","<img src=""img/land1.png"" style=""width:200px;border:14px solid red;"">","null","","","","","","","","","",""
"","image-keyboard-response","174","656330","0.0-174.0","3X4JMASXCNVCYEKLWV1799LUUYS0B7","A26WVAVVE1RM47","3WRBLBQ2GRU63BU2LFOJL1G32T90GO","","26.400000005960464","img/land2.png","74","26.900000005960464","1","1","1","2","0.8,0.2,0.2,0.2,0.8,0.2,0.2,0.2,0.8","0.2,0.2,0.8,0.8,0.2,0.2,0.2,0.8,0.2","2","",""
"","html-keyboard-response","175","656632","0.0-175.0","3X4JMASXCNVCYEKLWV1799LUUYS0B7","A26WVAVVE1RM47","3WRBLBQ2GRU63BU2LFOJL1G32T90GO","","null","<img src=""img/land2.png"" style=""width:200px; border:14px solid green;"">","null","","","","","","","","","",""
"","image-keyboard-response","176","656715","0.0-176.0","3X4JMASXCNVCYEKLWV1799LUUYS0B7","A26WVAVVE1RM47","3WRBLBQ2GRU63BU2LFOJL1G32T90GO","","82.5","img/land6.png","74","82.90000000596046","1","1","2","2","0.8,0.2,0.2,0.2,0.8,0.2,0.2,0.2,0.8","0.2,0.2,0.8,0.8,0.2,0.2,0.2,0.8,0.2","2","",""
"","html-keyboard-response","177","657016","0.0-177.0","3X4JMASXCNVCYEKLWV1799LUUYS0B7","A26WVAVVE1RM47","3WRBLBQ2GRU63BU2LFOJL1G32T90GO","","null","<img src=""img/land6.png"" style=""width:200px; border:14px solid green;"">","null","","","","","","","","","",""
"","image-keyboard-response","178","657130","0.0-178.0","3X4JMASXCNVCYEKLWV1799LUUYS0B7","A26WVAVVE1RM47","3WRBLBQ2GRU63BU2LFOJL1G32T90GO","","114.3999999910593","img/land2.png","74","114.59999999403954","1","1","1","2","0.8,0.2,0.2,0.2,0.8,0.2,0.2,0.2,0.8","0.2,0.2,0.8,0.8,0.2,0.2,0.2,0.8,0.2","2","",""
"","html-keyboard-response","179","657432","0.0-179.0","3X4JMASXCNVCYEKLWV1799LUUYS0B7","A26WVAVVE1RM47","3WRBLBQ2GRU63BU2LFOJL1G32T90GO","","null","<img src=""img/land2.png"" style=""width:200px; border:14px solid green;"">","null","","","","","","","","","",""
"","image-keyboard-response","180","657595","0.0-180.0","3X4JMASXCNVCYEKLWV1799LUUYS0B7","A26WVAVVE1RM47","3WRBLBQ2GRU63BU2LFOJL1G32T90GO","","162.09999999403954","img/land6.png","75","162.29999999701977","2","0","2","2","0.8,0.2,0.2,0.2,0.8,0.2,0.2,0.2,0.8","0.2,0.2,0.8,0.8,0.2,0.2,0.2,0.8,0.2","2","",""
"","html-keyboard-response","181","657895","0.0-181.0","3X4JMASXCNVCYEKLWV1799LUUYS0B7","A26WVAVVE1RM47","3WRBLBQ2GRU63BU2LFOJL1G32T90GO","","null","<img src=""img/land6.png"" style=""width:200px;border:14px solid red;"">","null","","","","","","","","","",""
"","image-keyboard-response","182","657907","0.0-182.0","3X4JMASXCNVCYEKLWV1799LUUYS0B7","A26WVAVVE1RM47","3WRBLBQ2GRU63BU2LFOJL1G32T90GO","","10.799999997019768","img/land2.png","75","11.200000002980232","2","0","1","2","0.8,0.2,0.2,0.2,0.8,0.2,0.2,0.2,0.8","0.2,0.2,0.8,0.8,0.2,0.2,0.2,0.8,0.2","2","",""
"","html-keyboard-response","183","658209","0.0-183.0","3X4JMASXCNVCYEKLWV1799LUUYS0B7","A26WVAVVE1RM47","3WRBLBQ2GRU63BU2LFOJL1G32T90GO","","null","<img src=""img/land2.png"" style=""width:200px;border:14px solid red;"">","null","","","","","","","","","",""
"","image-keyboard-response","184","658458","0.0-184.0","3X4JMASXCNVCYEKLWV1799LUUYS0B7","A26WVAVVE1RM47","3WRBLBQ2GRU63BU2LFOJL1G32T90GO","","249.40000000596046","img/land2.png","74","249.79999999701977","1","0","1","2","0.8,0.2,0.2,0.2,0.8,0.2,0.2,0.2,0.8","0.2,0.2,0.8,0.8,0.2,0.2,0.2,0.8,0.2","2","",""
"","html-keyboard-response","185","658760","0.0-185.0","3X4JMASXCNVCYEKLWV1799LUUYS0B7","A26WVAVVE1RM47","3WRBLBQ2GRU63BU2LFOJL1G32T90GO","","null","<img src=""img/land2.png"" style=""width:200px;border:14px solid red;"">","null","","","","","","","","","",""
"","image-keyboard-response","186","658762","0.0-186.0","3X4JMASXCNVCYEKLWV1799LUUYS0B7","A26WVAVVE1RM47","3WRBLBQ2GRU63BU2LFOJL1G32T90GO","","1.2999999970197678","img/land6.png","76","2.0999999940395355","3","0","2","2","0.8,0.2,0.2,0.2,0.8,0.2,0.2,0.2,0.8","0.2,0.2,0.8,0.8,0.2,0.2,0.2,0.8,0.2","2","",""
"","html-keyboard-response","187","659063","0.0-187.0","3X4JMASXCNVCYEKLWV1799LUUYS0B7","A26WVAVVE1RM47","3WRBLBQ2GRU63BU2LFOJL1G32T90GO","","null","<img src=""img/land6.png"" style=""width:200px;border:14px solid red;"">","null","","","","","","","","","",""
"","image-keyboard-response","188","659066","0.0-188.0","3X4JMASXCNVCYEKLWV1799LUUYS0B7","A26WVAVVE1RM47","3WRBLBQ2GRU63BU2LFOJL1G32T90GO","","2.5999999940395355","img/land6.png","74","3","1","1","2","2","0.8,0.2,0.2,0.2,0.8,0.2,0.2,0.2,0.8","0.2,0.2,0.8,0.8,0.2,0.2,0.2,0.8,0.2","2","",""
"","html-keyboard-response","189","659368","0.0-189.0","3X4JMASXCNVCYEKLWV1799LUUYS0B7","A26WVAVVE1RM47","3WRBLBQ2GRU63BU2LFOJL1G32T90GO","","null","<img src=""img/land6.png"" style=""width:200px; border:14px solid green;"">","null","","","","","","","","","",""
"","image-keyboard-response","190","659419","0.0-190.0","3X4JMASXCNVCYEKLWV1799LUUYS0B7","A26WVAVVE1RM47","3WRBLBQ2GRU63BU2LFOJL1G32T90GO","","50.900000005960464","img/land2.png","76","51.29999999701977","3","1","1","2","0.8,0.2,0.2,0.2,0.8,0.2,0.2,0.2,0.8","0.2,0.2,0.8,0.8,0.2,0.2,0.2,0.8,0.2","2","",""
"","html-keyboard-response","191","659721","0.0-191.0","3X4JMASXCNVCYEKLWV1799LUUYS0B7","A26WVAVVE1RM47","3WRBLBQ2GRU63BU2LFOJL1G32T90GO","","null","<img src=""img/land2.png"" style=""width:200px; border:14px solid green;"">","null","","","","","","","","","",""
"","image-keyboard-response","192","659771","0.0-192.0","3X4JMASXCNVCYEKLWV1799LUUYS0B7","A26WVAVVE1RM47","3WRBLBQ2GRU63BU2LFOJL1G32T90GO","","48.900000005960464","img/land1.png","74","49.599999994039536","1","0","3","2","0.8,0.2,0.2,0.2,0.8,0.2,0.2,0.2,0.8","0.2,0.2,0.8,0.8,0.2,0.2,0.2,0.8,0.2","2","",""
"","html-keyboard-response","193","660072","0.0-193.0","3X4JMASXCNVCYEKLWV1799LUUYS0B7","A26WVAVVE1RM47","3WRBLBQ2GRU63BU2LFOJL1G32T90GO","","null","<img src=""img/land1.png"" style=""width:200px;border:14px solid red;"">","null","","","","","","","","","",""
"","image-keyboard-response","194","660170","0.0-194.0","3X4JMASXCNVCYEKLWV1799LUUYS0B7","A26WVAVVE1RM47","3WRBLBQ2GRU63BU2LFOJL1G32T90GO","","97.79999999701977","img/land1.png","74","98.29999999701977","1","0","3","2","0.8,0.2,0.2,0.2,0.8,0.2,0.2,0.2,0.8","0.2,0.2,0.8,0.8,0.2,0.2,0.2,0.8,0.2","2","",""
"","html-keyboard-response","195","660472","0.0-195.0","3X4JMASXCNVCYEKLWV1799LUUYS0B7","A26WVAVVE1RM47","3WRBLBQ2GRU63BU2LFOJL1G32T90GO","","null","<img src=""img/land1.png"" style=""width:200px;border:14px solid red;"">","null","","","","","","","","","",""
"","image-keyboard-response","196","660538","0.0-196.0","3X4JMASXCNVCYEKLWV1799LUUYS0B7","A26WVAVVE1RM47","3WRBLBQ2GRU63BU2LFOJL1G32T90GO","","65.6000000089407","img/land6.png","75","66.20000000298023","2","1","2","2","0.8,0.2,0.2,0.2,0.8,0.2,0.2,0.2,0.8","0.2,0.2,0.8,0.8,0.2,0.2,0.2,0.8,0.2","2","",""
"","html-keyboard-response","197","660841","0.0-197.0","3X4JMASXCNVCYEKLWV1799LUUYS0B7","A26WVAVVE1RM47","3WRBLBQ2GRU63BU2LFOJL1G32T90GO","","null","<img src=""img/land6.png"" style=""width:200px; border:14px solid green;"">","null","","","","","","","","","",""
"","image-keyboard-response","198","660907","0.0-198.0","3X4JMASXCNVCYEKLWV1799LUUYS0B7","A26WVAVVE1RM47","3WRBLBQ2GRU63BU2LFOJL1G32T90GO","","65","img/land2.png","75","65.5","2","0","1","2","0.8,0.2,0.2,0.2,0.8,0.2,0.2,0.2,0.8","0.2,0.2,0.8,0.8,0.2,0.2,0.2,0.8,0.2","2","",""
"","html-keyboard-response","199","661209","0.0-199.0","3X4JMASXCNVCYEKLWV1799LUUYS0B7","A26WVAVVE1RM47","3WRBLBQ2GRU63BU2LFOJL1G32T90GO","","null","<img src=""img/land2.png"" style=""width:200px;border:14px solid red;"">","null","","","","","","","","","",""
"","image-keyboard-response","200","661378","0.0-200.0","3X4JMASXCNVCYEKLWV1799LUUYS0B7","A26WVAVVE1RM47","3WRBLBQ2GRU63BU2LFOJL1G32T90GO","","168.79999999701977","img/land1.png","76","169.29999999701977","3","0","3","2","0.8,0.2,0.2,0.2,0.8,0.2,0.2,0.2,0.8","0.2,0.2,0.8,0.8,0.2,0.2,0.2,0.8,0.2","2","",""
"","html-keyboard-response","201","661680","0.0-201.0","3X4JMASXCNVCYEKLWV1799LUUYS0B7","A26WVAVVE1RM47","3WRBLBQ2GRU63BU2LFOJL1G32T90GO","","null","<img src=""img/land1.png"" style=""width:200px;border:14px solid red;"">","null","","","","","","","","","",""
"","image-keyboard-response","202","661770","0.0-202.0","3X4JMASXCNVCYEKLWV1799LUUYS0B7","A26WVAVVE1RM47","3WRBLBQ2GRU63BU2LFOJL1G32T90GO","","89.79999999701977","img/land2.png","74","90.29999999701977","1","0","1","2","0.8,0.2,0.2,0.2,0.8,0.2,0.2,0.2,0.8","0.2,0.2,0.8,0.8,0.2,0.2,0.2,0.8,0.2","2","",""
"","html-keyboard-response","203","662071","0.0-203.0","3X4JMASXCNVCYEKLWV1799LUUYS0B7","A26WVAVVE1RM47","3WRBLBQ2GRU63BU2LFOJL1G32T90GO","","null","<img src=""img/land2.png"" style=""width:200px;border:14px solid red;"">","null","","","","","","","","","",""
"","image-keyboard-response","204","662322","0.0-204.0","3X4JMASXCNVCYEKLWV1799LUUYS0B7","A26WVAVVE1RM47","3WRBLBQ2GRU63BU2LFOJL1G32T90GO","","250.40000000596046","img/land2.png","76","250.79999999701977","3","0","1","2","0.8,0.2,0.2,0.2,0.8,0.2,0.2,0.2,0.8","0.2,0.2,0.8,0.8,0.2,0.2,0.2,0.8,0.2","2","",""
"","html-keyboard-response","205","662623","0.0-205.0","3X4JMASXCNVCYEKLWV1799LUUYS0B7","A26WVAVVE1RM47","3WRBLBQ2GRU63BU2LFOJL1G32T90GO","","null","<img src=""img/land2.png"" style=""width:200px;border:14px solid red;"">","null","","","","","","","","","",""
"","image-keyboard-response","206","664585","0.0-206.0","3X4JMASXCNVCYEKLWV1799LUUYS0B7","A26WVAVVE1RM47","3WRBLBQ2GRU63BU2LFOJL1G32T90GO","","1961.4000000059605","img/land1.png","74","1961.7999999970198","1","1","3","2","0.8,0.2,0.2,0.2,0.8,0.2,0.2,0.2,0.8","0.2,0.2,0.8,0.8,0.2,0.2,0.2,0.8,0.2","2","",""
"","html-keyboard-response","207","664886","0.0-207.0","3X4JMASXCNVCYEKLWV1799LUUYS0B7","A26WVAVVE1RM47","3WRBLBQ2GRU63BU2LFOJL1G32T90GO","","null","<img src=""img/land1.png"" style=""width:200px; border:14px solid green;"">","null","","","","","","","","","",""
"","image-keyboard-response","208","665022","0.0-208.0","3X4JMASXCNVCYEKLWV1799LUUYS0B7","A26WVAVVE1RM47","3WRBLBQ2GRU63BU2LFOJL1G32T90GO","","135.29999999701977","img/land2.png","74","135.8999999910593","1","0","1","2","0.8,0.2,0.2,0.2,0.8,0.2,0.2,0.2,0.8","0.2,0.2,0.8,0.8,0.2,0.2,0.2,0.8,0.2","2","",""
"","html-keyboard-response","209","665324","0.0-209.0","3X4JMASXCNVCYEKLWV1799LUUYS0B7","A26WVAVVE1RM47","3WRBLBQ2GRU63BU2LFOJL1G32T90GO","","null","<img src=""img/land2.png"" style=""width:200px;border:14px solid red;"">","null","","","","","","","","","",""
"","image-keyboard-response","210","665528","0.0-210.0","3X4JMASXCNVCYEKLWV1799LUUYS0B7","A26WVAVVE1RM47","3WRBLBQ2GRU63BU2LFOJL1G32T90GO","","203.8999999910593","img/land2.png","74","204.3999999910593","1","0","1","2","0.8,0.2,0.2,0.2,0.8,0.2,0.2,0.2,0.8","0.2,0.2,0.8,0.8,0.2,0.2,0.2,0.8,0.2","2","",""
"","html-keyboard-response","211","665830","0.0-211.0","3X4JMASXCNVCYEKLWV1799LUUYS0B7","A26WVAVVE1RM47","3WRBLBQ2GRU63BU2LFOJL1G32T90GO","","null","<img src=""img/land2.png"" style=""width:200px;border:14px solid red;"">","null","","","","","","","","","",""
"","image-keyboard-response","212","665894","0.0-212.0","3X4JMASXCNVCYEKLWV1799LUUYS0B7","A26WVAVVE1RM47","3WRBLBQ2GRU63BU2LFOJL1G32T90GO","","64","img/land2.png","76","64.29999999701977","3","1","1","2","0.8,0.2,0.2,0.2,0.8,0.2,0.2,0.2,0.8","0.2,0.2,0.8,0.8,0.2,0.2,0.2,0.8,0.2","2","",""
"","html-keyboard-response","213","666195","0.0-213.0","3X4JMASXCNVCYEKLWV1799LUUYS0B7","A26WVAVVE1RM47","3WRBLBQ2GRU63BU2LFOJL1G32T90GO","","null","<img src=""img/land2.png"" style=""width:200px; border:14px solid green;"">","null","","","","","","","","","",""
"","image-keyboard-response","214","666336","0.0-214.0","3X4JMASXCNVCYEKLWV1799LUUYS0B7","A26WVAVVE1RM47","3WRBLBQ2GRU63BU2LFOJL1G32T90GO","","140.3999999910593","img/land1.png","76","141","3","0","3","2","0.8,0.2,0.2,0.2,0.8,0.2,0.2,0.2,0.8","0.2,0.2,0.8,0.8,0.2,0.2,0.2,0.8,0.2","2","",""
"","html-keyboard-response","215","666637","0.0-215.0","3X4JMASXCNVCYEKLWV1799LUUYS0B7","A26WVAVVE1RM47","3WRBLBQ2GRU63BU2LFOJL1G32T90GO","","null","<img src=""img/land1.png"" style=""width:200px;border:14px solid red;"">","null","","","","","","","","","",""
"","image-keyboard-response","216","666683","0.0-216.0","3X4JMASXCNVCYEKLWV1799LUUYS0B7","A26WVAVVE1RM47","3WRBLBQ2GRU63BU2LFOJL1G32T90GO","","45.400000005960464","img/land2.png","75","45.900000005960464","2","1","1","2","0.8,0.2,0.2,0.2,0.8,0.2,0.2,0.2,0.8","0.2,0.2,0.8,0.8,0.2,0.2,0.2,0.8,0.2","2","",""
"","html-keyboard-response","217","666985","0.0-217.0","3X4JMASXCNVCYEKLWV1799LUUYS0B7","A26WVAVVE1RM47","3WRBLBQ2GRU63BU2LFOJL1G32T90GO","","null","<img src=""img/land2.png"" style=""width:200px; border:14px solid green;"">","null","","","","","","","","","",""
"","image-keyboard-response","218","667000","0.0-218.0","3X4JMASXCNVCYEKLWV1799LUUYS0B7","A26WVAVVE1RM47","3WRBLBQ2GRU63BU2LFOJL1G32T90GO","","14","img/land2.png","74","14.400000005960464","1","0","1","2","0.8,0.2,0.2,0.2,0.8,0.2,0.2,0.2,0.8","0.2,0.2,0.8,0.8,0.2,0.2,0.2,0.8,0.2","2","",""
"","html-keyboard-response","219","667301","0.0-219.0","3X4JMASXCNVCYEKLWV1799LUUYS0B7","A26WVAVVE1RM47","3WRBLBQ2GRU63BU2LFOJL1G32T90GO","","null","<img src=""img/land2.png"" style=""width:200px;border:14px solid red;"">","null","","","","","","","","","",""
"","image-keyboard-response","220","667337","0.0-220.0","3X4JMASXCNVCYEKLWV1799LUUYS0B7","A26WVAVVE1RM47","3WRBLBQ2GRU63BU2LFOJL1G32T90GO","","36","img/land2.png","75","36.400000005960464","2","0","1","2","0.8,0.2,0.2,0.2,0.8,0.2,0.2,0.2,0.8","0.2,0.2,0.8,0.8,0.2,0.2,0.2,0.8,0.2","2","",""
"","html-keyboard-response","221","667638","0.0-221.0","3X4JMASXCNVCYEKLWV1799LUUYS0B7","A26WVAVVE1RM47","3WRBLBQ2GRU63BU2LFOJL1G32T90GO","","null","<img src=""img/land2.png"" style=""width:200px;border:14px solid red;"">","null","","","","","","","","","",""
"","image-keyboard-response","222","667829","0.0-222.0","3X4JMASXCNVCYEKLWV1799LUUYS0B7","A26WVAVVE1RM47","3WRBLBQ2GRU63BU2LFOJL1G32T90GO","","190.09999999403954","img/land2.png","74","190.5","1","0","1","2","0.8,0.2,0.2,0.2,0.8,0.2,0.2,0.2,0.8","0.2,0.2,0.8,0.8,0.2,0.2,0.2,0.8,0.2","2","",""
"","html-keyboard-response","223","668131","0.0-223.0","3X4JMASXCNVCYEKLWV1799LUUYS0B7","A26WVAVVE1RM47","3WRBLBQ2GRU63BU2LFOJL1G32T90GO","","null","<img src=""img/land2.png"" style=""width:200px;border:14px solid red;"">","null","","","","","","","","","",""
"","image-keyboard-response","224","668226","0.0-224.0","3X4JMASXCNVCYEKLWV1799LUUYS0B7","A26WVAVVE1RM47","3WRBLBQ2GRU63BU2LFOJL1G32T90GO","","94.6000000089407","img/land6.png","76","94.8999999910593","3","0","2","2","0.8,0.2,0.2,0.2,0.8,0.2,0.2,0.2,0.8","0.2,0.2,0.8,0.8,0.2,0.2,0.2,0.8,0.2","2","",""
"","html-keyboard-response","225","668527","0.0-225.0","3X4JMASXCNVCYEKLWV1799LUUYS0B7","A26WVAVVE1RM47","3WRBLBQ2GRU63BU2LFOJL1G32T90GO","","null","<img src=""img/land6.png"" style=""width:200px;border:14px solid red;"">","null","","","","","","","","","",""
"","image-keyboard-response","226","668624","0.0-226.0","3X4JMASXCNVCYEKLWV1799LUUYS0B7","A26WVAVVE1RM47","3WRBLBQ2GRU63BU2LFOJL1G32T90GO","","95.59999999403954","img/land2.png","74","96.20000000298023","1","0","1","2","0.8,0.2,0.2,0.2,0.8,0.2,0.2,0.2,0.8","0.2,0.2,0.8,0.8,0.2,0.2,0.2,0.8,0.2","2","",""
"","html-keyboard-response","227","668925","0.0-227.0","3X4JMASXCNVCYEKLWV1799LUUYS0B7","A26WVAVVE1RM47","3WRBLBQ2GRU63BU2LFOJL1G32T90GO","","null","<img src=""img/land2.png"" style=""width:200px;border:14px solid red;"">","null","","","","","","","","","",""
"","image-keyboard-response","228","669086","0.0-228.0","3X4JMASXCNVCYEKLWV1799LUUYS0B7","A26WVAVVE1RM47","3WRBLBQ2GRU63BU2LFOJL1G32T90GO","","160.40000000596046","img/land2.png","76","160.80000001192093","3","0","1","2","0.8,0.2,0.2,0.2,0.8,0.2,0.2,0.2,0.8","0.2,0.2,0.8,0.8,0.2,0.2,0.2,0.8,0.2","2","",""
"","html-keyboard-response","229","669387","0.0-229.0","3X4JMASXCNVCYEKLWV1799LUUYS0B7","A26WVAVVE1RM47","3WRBLBQ2GRU63BU2LFOJL1G32T90GO","","null","<img src=""img/land2.png"" style=""width:200px;border:14px solid red;"">","null","","","","","","","","","",""
"","image-keyboard-response","230","669544","0.0-230.0","3X4JMASXCNVCYEKLWV1799LUUYS0B7","A26WVAVVE1RM47","3WRBLBQ2GRU63BU2LFOJL1G32T90GO","","156.29999999701977","img/land1.png","74","156.70000000298023","1","0","3","2","0.8,0.2,0.2,0.2,0.8,0.2,0.2,0.2,0.8","0.2,0.2,0.8,0.8,0.2,0.2,0.2,0.8,0.2","2","",""
"","html-keyboard-response","231","669845","0.0-231.0","3X4JMASXCNVCYEKLWV1799LUUYS0B7","A26WVAVVE1RM47","3WRBLBQ2GRU63BU2LFOJL1G32T90GO","","null","<img src=""img/land1.png"" style=""width:200px;border:14px solid red;"">","null","","","","","","","","","",""
"","image-keyboard-response","232","670067","0.0-232.0","3X4JMASXCNVCYEKLWV1799LUUYS0B7","A26WVAVVE1RM47","3WRBLBQ2GRU63BU2LFOJL1G32T90GO","","221.79999999701977","img/land2.png","74","222.29999999701977","1","0","1","2","0.8,0.2,0.2,0.2,0.8,0.2,0.2,0.2,0.8","0.2,0.2,0.8,0.8,0.2,0.2,0.2,0.8,0.2","2","",""
"","html-keyboard-response","233","670368","0.0-233.0","3X4JMASXCNVCYEKLWV1799LUUYS0B7","A26WVAVVE1RM47","3WRBLBQ2GRU63BU2LFOJL1G32T90GO","","null","<img src=""img/land2.png"" style=""width:200px;border:14px solid red;"">","null","","","","","","","","","",""
"","image-keyboard-response","234","670548","0.0-234.0","3X4JMASXCNVCYEKLWV1799LUUYS0B7","A26WVAVVE1RM47","3WRBLBQ2GRU63BU2LFOJL1G32T90GO","","179.20000000298023","img/land1.png","75","179.59999999403954","2","1","3","2","0.8,0.2,0.2,0.2,0.8,0.2,0.2,0.2,0.8","0.2,0.2,0.8,0.8,0.2,0.2,0.2,0.8,0.2","2","",""
"","html-keyboard-response","235","670850","0.0-235.0","3X4JMASXCNVCYEKLWV1799LUUYS0B7","A26WVAVVE1RM47","3WRBLBQ2GRU63BU2LFOJL1G32T90GO","","null","<img src=""img/land1.png"" style=""width:200px; border:14px solid green;"">","null","","","","","","","","","",""
"","image-keyboard-response","236","670874","0.0-236.0","3X4JMASXCNVCYEKLWV1799LUUYS0B7","A26WVAVVE1RM47","3WRBLBQ2GRU63BU2LFOJL1G32T90GO","","23.600000008940697","img/land6.png","75","24.299999997019768","2","0","2","2","0.8,0.2,0.2,0.2,0.8,0.2,0.2,0.2,0.8","0.2,0.2,0.8,0.8,0.2,0.2,0.2,0.8,0.2","2","",""
"","html-keyboard-response","237","671175","0.0-237.0","3X4JMASXCNVCYEKLWV1799LUUYS0B7","A26WVAVVE1RM47","3WRBLBQ2GRU63BU2LFOJL1G32T90GO","","null","<img src=""img/land6.png"" style=""width:200px;border:14px solid red;"">","null","","","","","","","","","",""
"","image-keyboard-response","238","671251","0.0-238.0","3X4JMASXCNVCYEKLWV1799LUUYS0B7","A26WVAVVE1RM47","3WRBLBQ2GRU63BU2LFOJL1G32T90GO","","75.29999999701977","img/land6.png","76","75.79999999701977","3","0","2","2","0.8,0.2,0.2,0.2,0.8,0.2,0.2,0.2,0.8","0.2,0.2,0.8,0.8,0.2,0.2,0.2,0.8,0.2","2","",""
"","html-keyboard-response","239","671553","0.0-239.0","3X4JMASXCNVCYEKLWV1799LUUYS0B7","A26WVAVVE1RM47","3WRBLBQ2GRU63BU2LFOJL1G32T90GO","","null","<img src=""img/land6.png"" style=""width:200px;border:14px solid red;"">","null","","","","","","","","","",""
"","image-keyboard-response","240","671648","0.0-240.0","3X4JMASXCNVCYEKLWV1799LUUYS0B7","A26WVAVVE1RM47","3WRBLBQ2GRU63BU2LFOJL1G32T90GO","","94.29999999701977","img/land1.png","76","94.79999999701977","3","0","3","2","0.8,0.2,0.2,0.2,0.8,0.2,0.2,0.2,0.8","0.2,0.2,0.8,0.8,0.2,0.2,0.2,0.8,0.2","2","",""
"","html-keyboard-response","241","671949","0.0-241.0","3X4JMASXCNVCYEKLWV1799LUUYS0B7","A26WVAVVE1RM47","3WRBLBQ2GRU63BU2LFOJL1G32T90GO","","null","<img src=""img/land1.png"" style=""width:200px;border:14px solid red;"">","null","","","","","","","","","",""
"","image-keyboard-response","242","671975","0.0-242.0","3X4JMASXCNVCYEKLWV1799LUUYS0B7","A26WVAVVE1RM47","3WRBLBQ2GRU63BU2LFOJL1G32T90GO","","25.099999994039536","img/land2.png","74","25.5","1","0","1","2","0.8,0.2,0.2,0.2,0.8,0.2,0.2,0.2,0.8","0.2,0.2,0.8,0.8,0.2,0.2,0.2,0.8,0.2","2","",""
"","html-keyboard-response","243","672276","0.0-243.0","3X4JMASXCNVCYEKLWV1799LUUYS0B7","A26WVAVVE1RM47","3WRBLBQ2GRU63BU2LFOJL1G32T90GO","","null","<img src=""img/land2.png"" style=""width:200px;border:14px solid red;"">","null","","","","","","","","","",""
"","image-keyboard-response","244","672404","0.0-244.0","3X4JMASXCNVCYEKLWV1799LUUYS0B7","A26WVAVVE1RM47","3WRBLBQ2GRU63BU2LFOJL1G32T90GO","","127.3999999910593","img/land6.png","74","127.80000001192093","1","1","2","2","0.8,0.2,0.2,0.2,0.8,0.2,0.2,0.2,0.8","0.2,0.2,0.8,0.8,0.2,0.2,0.2,0.8,0.2","2","",""
"","html-keyboard-response","245","672706","0.0-245.0","3X4JMASXCNVCYEKLWV1799LUUYS0B7","A26WVAVVE1RM47","3WRBLBQ2GRU63BU2LFOJL1G32T90GO","","null","<img src=""img/land6.png"" style=""width:200px; border:14px solid green;"">","null","","","","","","","","","",""
"","image-keyboard-response","246","672896","0.0-246.0","3X4JMASXCNVCYEKLWV1799LUUYS0B7","A26WVAVVE1RM47","3WRBLBQ2GRU63BU2LFOJL1G32T90GO","","189.3999999910593","img/land2.png","76","189.79999999701977","3","1","1","2","0.8,0.2,0.2,0.2,0.8,0.2,0.2,0.2,0.8","0.2,0.2,0.8,0.8,0.2,0.2,0.2,0.8,0.2","2","",""
"","html-keyboard-response","247","673198","0.0-247.0","3X4JMASXCNVCYEKLWV1799LUUYS0B7","A26WVAVVE1RM47","3WRBLBQ2GRU63BU2LFOJL1G32T90GO","","null","<img src=""img/land2.png"" style=""width:200px; border:14px solid green;"">","null","","","","","","","","","",""
"","image-keyboard-response","248","673283","0.0-248.0","3X4JMASXCNVCYEKLWV1799LUUYS0B7","A26WVAVVE1RM47","3WRBLBQ2GRU63BU2LFOJL1G32T90GO","","84.59999999403954","img/land6.png","74","85.09999999403954","1","1","2","2","0.8,0.2,0.2,0.2,0.8,0.2,0.2,0.2,0.8","0.2,0.2,0.8,0.8,0.2,0.2,0.2,0.8,0.2","2","",""
"","html-keyboard-response","249","673585","0.0-249.0","3X4JMASXCNVCYEKLWV1799LUUYS0B7","A26WVAVVE1RM47","3WRBLBQ2GRU63BU2LFOJL1G32T90GO","","null","<img src=""img/land6.png"" style=""width:200px; border:14px solid green;"">","null","","","","","","","","","",""
"","image-keyboard-response","250","674382","0.0-250.0","3X4JMASXCNVCYEKLWV1799LUUYS0B7","A26WVAVVE1RM47","3WRBLBQ2GRU63BU2LFOJL1G32T90GO","","796.7000000029802","img/land2.png","74","797.2000000029802","1","0","1","2","0.8,0.2,0.2,0.2,0.8,0.2,0.2,0.2,0.8","0.2,0.2,0.8,0.8,0.2,0.2,0.2,0.8,0.2","2","",""
"","html-keyboard-response","251","674683","0.0-251.0","3X4JMASXCNVCYEKLWV1799LUUYS0B7","A26WVAVVE1RM47","3WRBLBQ2GRU63BU2LFOJL1G32T90GO","","null","<img src=""img/land2.png"" style=""width:200px;border:14px solid red;"">","null","","","","","","","","","",""
"","image-keyboard-response","252","674820","0.0-252.0","3X4JMASXCNVCYEKLWV1799LUUYS0B7","A26WVAVVE1RM47","3WRBLBQ2GRU63BU2LFOJL1G32T90GO","","136.29999999701977","img/land6.png","74","136.59999999403954","1","1","2","2","0.8,0.2,0.2,0.2,0.8,0.2,0.2,0.2,0.8","0.2,0.2,0.8,0.8,0.2,0.2,0.2,0.8,0.2","2","",""
"","html-keyboard-response","253","675121","0.0-253.0","3X4JMASXCNVCYEKLWV1799LUUYS0B7","A26WVAVVE1RM47","3WRBLBQ2GRU63BU2LFOJL1G32T90GO","","null","<img src=""img/land6.png"" style=""width:200px; border:14px solid green;"">","null","","","","","","","","","",""
"","image-keyboard-response","254","675325","0.0-254.0","3X4JMASXCNVCYEKLWV1799LUUYS0B7","A26WVAVVE1RM47","3WRBLBQ2GRU63BU2LFOJL1G32T90GO","","203.59999999403954","img/land1.png","74","204","1","0","3","2","0.8,0.2,0.2,0.2,0.8,0.2,0.2,0.2,0.8","0.2,0.2,0.8,0.8,0.2,0.2,0.2,0.8,0.2","2","",""
"","html-keyboard-response","255","675628","0.0-255.0","3X4JMASXCNVCYEKLWV1799LUUYS0B7","A26WVAVVE1RM47","3WRBLBQ2GRU63BU2LFOJL1G32T90GO","","null","<img src=""img/land1.png"" style=""width:200px;border:14px solid red;"">","null","","","","","","","","","",""
"","image-keyboard-response","256","675703","0.0-256.0","3X4JMASXCNVCYEKLWV1799LUUYS0B7","A26WVAVVE1RM47","3WRBLBQ2GRU63BU2LFOJL1G32T90GO","","74.29999999701977","img/land6.png","76","74.90000000596046","3","0","2","2","0.8,0.2,0.2,0.2,0.8,0.2,0.2,0.2,0.8","0.2,0.2,0.8,0.8,0.2,0.2,0.2,0.8,0.2","2","",""
"","html-keyboard-response","257","676004","0.0-257.0","3X4JMASXCNVCYEKLWV1799LUUYS0B7","A26WVAVVE1RM47","3WRBLBQ2GRU63BU2LFOJL1G32T90GO","","null","<img src=""img/land6.png"" style=""width:200px;border:14px solid red;"">","null","","","","","","","","","",""
"","image-keyboard-response","258","676146","0.0-258.0","3X4JMASXCNVCYEKLWV1799LUUYS0B7","A26WVAVVE1RM47","3WRBLBQ2GRU63BU2LFOJL1G32T90GO","","141.5","img/land2.png","76","142","3","1","1","2","0.8,0.2,0.2,0.2,0.8,0.2,0.2,0.2,0.8","0.2,0.2,0.8,0.8,0.2,0.2,0.2,0.8,0.2","2","",""
"","html-keyboard-response","259","676448","0.0-259.0","3X4JMASXCNVCYEKLWV1799LUUYS0B7","A26WVAVVE1RM47","3WRBLBQ2GRU63BU2LFOJL1G32T90GO","","null","<img src=""img/land2.png"" style=""width:200px; border:14px solid green;"">","null","","","","","","","","","",""
"","image-keyboard-response","260","676492","0.0-260.0","3X4JMASXCNVCYEKLWV1799LUUYS0B7","A26WVAVVE1RM47","3WRBLBQ2GRU63BU2LFOJL1G32T90GO","","43.5","img/land1.png","75","44","2","0","3","2","0.8,0.2,0.2,0.2,0.8,0.2,0.2,0.2,0.8","0.2,0.2,0.8,0.8,0.2,0.2,0.2,0.8,0.2","2","",""
"","html-keyboard-response","261","676793","0.0-261.0","3X4JMASXCNVCYEKLWV1799LUUYS0B7","A26WVAVVE1RM47","3WRBLBQ2GRU63BU2LFOJL1G32T90GO","","null","<img src=""img/land1.png"" style=""width:200px;border:14px solid red;"">","null","","","","","","","","","",""
"","image-keyboard-response","262","676809","0.0-262.0","3X4JMASXCNVCYEKLWV1799LUUYS0B7","A26WVAVVE1RM47","3WRBLBQ2GRU63BU2LFOJL1G32T90GO","","14.899999991059303","img/land2.png","74","15.400000005960464","1","0","1","2","0.8,0.2,0.2,0.2,0.8,0.2,0.2,0.2,0.8","0.2,0.2,0.8,0.8,0.2,0.2,0.2,0.8,0.2","2","",""
"","html-keyboard-response","263","677111","0.0-263.0","3X4JMASXCNVCYEKLWV1799LUUYS0B7","A26WVAVVE1RM47","3WRBLBQ2GRU63BU2LFOJL1G32T90GO","","null","<img src=""img/land2.png"" style=""width:200px;border:14px solid red;"">","null","","","","","","","","","",""
"","image-keyboard-response","264","677147","0.0-264.0","3X4JMASXCNVCYEKLWV1799LUUYS0B7","A26WVAVVE1RM47","3WRBLBQ2GRU63BU2LFOJL1G32T90GO","","35.5","img/land2.png","75","35.8999999910593","2","0","1","2","0.8,0.2,0.2,0.2,0.8,0.2,0.2,0.2,0.8","0.2,0.2,0.8,0.8,0.2,0.2,0.2,0.8,0.2","2","",""
"","html-keyboard-response","265","677449","0.0-265.0","3X4JMASXCNVCYEKLWV1799LUUYS0B7","A26WVAVVE1RM47","3WRBLBQ2GRU63BU2LFOJL1G32T90GO","","null","<img src=""img/land2.png"" style=""width:200px;border:14px solid red;"">","null","","","","","","","","","",""
"","image-keyboard-response","266","677635","0.0-266.0","3X4JMASXCNVCYEKLWV1799LUUYS0B7","A26WVAVVE1RM47","3WRBLBQ2GRU63BU2LFOJL1G32T90GO","","185.40000000596046","img/land2.png","74","185.79999999701977","1","0","1","2","0.8,0.2,0.2,0.2,0.8,0.2,0.2,0.2,0.8","0.2,0.2,0.8,0.8,0.2,0.2,0.2,0.8,0.2","2","",""
"","html-keyboard-response","267","677936","0.0-267.0","3X4JMASXCNVCYEKLWV1799LUUYS0B7","A26WVAVVE1RM47","3WRBLBQ2GRU63BU2LFOJL1G32T90GO","","null","<img src=""img/land2.png"" style=""width:200px;border:14px solid red;"">","null","","","","","","","","","",""
"","image-keyboard-response","268","678032","0.0-268.0","3X4JMASXCNVCYEKLWV1799LUUYS0B7","A26WVAVVE1RM47","3WRBLBQ2GRU63BU2LFOJL1G32T90GO","","95.1000000089407","img/land6.png","76","95.5","3","0","2","2","0.8,0.2,0.2,0.2,0.8,0.2,0.2,0.2,0.8","0.2,0.2,0.8,0.8,0.2,0.2,0.2,0.8,0.2","2","",""
"","html-keyboard-response","269","678334","0.0-269.0","3X4JMASXCNVCYEKLWV1799LUUYS0B7","A26WVAVVE1RM47","3WRBLBQ2GRU63BU2LFOJL1G32T90GO","","null","<img src=""img/land6.png"" style=""width:200px;border:14px solid red;"">","null","","","","","","","","","",""
"","image-keyboard-response","270","678431","0.0-270.0","3X4JMASXCNVCYEKLWV1799LUUYS0B7","A26WVAVVE1RM47","3WRBLBQ2GRU63BU2LFOJL1G32T90GO","","96.6000000089407","img/land2.png","74","97","1","1","1","2","0.8,0.2,0.2,0.2,0.8,0.2,0.2,0.2,0.8","0.2,0.2,0.8,0.8,0.2,0.2,0.2,0.8,0.2","2","",""
"","html-keyboard-response","271","678732","0.0-271.0","3X4JMASXCNVCYEKLWV1799LUUYS0B7","A26WVAVVE1RM47","3WRBLBQ2GRU63BU2LFOJL1G32T90GO","","null","<img src=""img/land2.png"" style=""width:200px; border:14px solid green;"">","null","","","","","","","","","",""
"","image-keyboard-response","272","678892","0.0-272.0","3X4JMASXCNVCYEKLWV1799LUUYS0B7","A26WVAVVE1RM47","3WRBLBQ2GRU63BU2LFOJL1G32T90GO","","159.1000000089407","img/land2.png","76","159.59999999403954","3","1","1","2","0.8,0.2,0.2,0.2,0.8,0.2,0.2,0.2,0.8","0.2,0.2,0.8,0.8,0.2,0.2,0.2,0.8,0.2","2","",""
"","html-keyboard-response","273","679193","0.0-273.0","3X4JMASXCNVCYEKLWV1799LUUYS0B7","A26WVAVVE1RM47","3WRBLBQ2GRU63BU2LFOJL1G32T90GO","","null","<img src=""img/land2.png"" style=""width:200px; border:14px solid green;"">","null","","","","","","","","","",""
"","image-keyboard-response","274","679349","0.0-274.0","3X4JMASXCNVCYEKLWV1799LUUYS0B7","A26WVAVVE1RM47","3WRBLBQ2GRU63BU2LFOJL1G32T90GO","","155.20000000298023","img/land1.png","74","155.6000000089407","1","1","3","2","0.8,0.2,0.2,0.2,0.8,0.2,0.2,0.2,0.8","0.2,0.2,0.8,0.8,0.2,0.2,0.2,0.8,0.2","2","",""
"","html-keyboard-response","275","679650","0.0-275.0","3X4JMASXCNVCYEKLWV1799LUUYS0B7","A26WVAVVE1RM47","3WRBLBQ2GRU63BU2LFOJL1G32T90GO","","null","<img src=""img/land1.png"" style=""width:200px; border:14px solid green;"">","null","","","","","","","","","",""
"","image-keyboard-response","276","679872","0.0-276.0","3X4JMASXCNVCYEKLWV1799LUUYS0B7","A26WVAVVE1RM47","3WRBLBQ2GRU63BU2LFOJL1G32T90GO","","221.59999999403954","img/land6.png","74","222.09999999403954","1","0","2","2","0.8,0.2,0.2,0.2,0.8,0.2,0.2,0.2,0.8","0.2,0.2,0.8,0.8,0.2,0.2,0.2,0.8,0.2","2","",""
"","html-keyboard-response","277","680173","0.0-277.0","3X4JMASXCNVCYEKLWV1799LUUYS0B7","A26WVAVVE1RM47","3WRBLBQ2GRU63BU2LFOJL1G32T90GO","","null","<img src=""img/land6.png"" style=""width:200px;border:14px solid red;"">","null","","","","","","","","","",""
"","image-keyboard-response","278","680354","0.0-278.0","3X4JMASXCNVCYEKLWV1799LUUYS0B7","A26WVAVVE1RM47","3WRBLBQ2GRU63BU2LFOJL1G32T90GO","","180.09999999403954","img/land6.png","75","180.5","2","0","2","2","0.8,0.2,0.2,0.2,0.8,0.2,0.2,0.2,0.8","0.2,0.2,0.8,0.8,0.2,0.2,0.2,0.8,0.2","2","",""
"","html-keyboard-response","279","680656","0.0-279.0","3X4JMASXCNVCYEKLWV1799LUUYS0B7","A26WVAVVE1RM47","3WRBLBQ2GRU63BU2LFOJL1G32T90GO","","null","<img src=""img/land6.png"" style=""width:200px;border:14px solid red;"">","null","","","","","","","","","",""
"","image-keyboard-response","280","680679","0.0-280.0","3X4JMASXCNVCYEKLWV1799LUUYS0B7","A26WVAVVE1RM47","3WRBLBQ2GRU63BU2LFOJL1G32T90GO","","23","img/land2.png","75","23.299999997019768","2","0","1","2","0.8,0.2,0.2,0.2,0.8,0.2,0.2,0.2,0.8","0.2,0.2,0.8,0.8,0.2,0.2,0.2,0.8,0.2","2","",""
"","html-keyboard-response","281","680981","0.0-281.0","3X4JMASXCNVCYEKLWV1799LUUYS0B7","A26WVAVVE1RM47","3WRBLBQ2GRU63BU2LFOJL1G32T90GO","","null","<img src=""img/land2.png"" style=""width:200px;border:14px solid red;"">","null","","","","","","","","","",""
"","image-keyboard-response","282","681057","0.0-282.0","3X4JMASXCNVCYEKLWV1799LUUYS0B7","A26WVAVVE1RM47","3WRBLBQ2GRU63BU2LFOJL1G32T90GO","","75.40000000596046","img/land6.png","76","75.8999999910593","3","0","2","2","0.8,0.2,0.2,0.2,0.8,0.2,0.2,0.2,0.8","0.2,0.2,0.8,0.8,0.2,0.2,0.2,0.8,0.2","2","",""
"","html-keyboard-response","283","681359","0.0-283.0","3X4JMASXCNVCYEKLWV1799LUUYS0B7","A26WVAVVE1RM47","3WRBLBQ2GRU63BU2LFOJL1G32T90GO","","null","<img src=""img/land6.png"" style=""width:200px;border:14px solid red;"">","null","","","","","","","","","",""
"","image-keyboard-response","284","681454","0.0-284.0","3X4JMASXCNVCYEKLWV1799LUUYS0B7","A26WVAVVE1RM47","3WRBLBQ2GRU63BU2LFOJL1G32T90GO","","95","img/land2.png","76","95.3999999910593","3","1","1","2","0.8,0.2,0.2,0.2,0.8,0.2,0.2,0.2,0.8","0.2,0.2,0.8,0.8,0.2,0.2,0.2,0.8,0.2","2","",""
"","html-keyboard-response","285","681768","0.0-285.0","3X4JMASXCNVCYEKLWV1799LUUYS0B7","A26WVAVVE1RM47","3WRBLBQ2GRU63BU2LFOJL1G32T90GO","","null","<img src=""img/land2.png"" style=""width:200px; border:14px solid green;"">","null","","","","","","","","","",""
"","image-keyboard-response","286","681769","0.0-286.0","3X4JMASXCNVCYEKLWV1799LUUYS0B7","A26WVAVVE1RM47","3WRBLBQ2GRU63BU2LFOJL1G32T90GO","","0.29999999701976776","img/land2.png","74","1","1","0","1","2","0.8,0.2,0.2,0.2,0.8,0.2,0.2,0.2,0.8","0.2,0.2,0.8,0.8,0.2,0.2,0.2,0.8,0.2","2","",""
"","html-keyboard-response","287","682071","0.0-287.0","3X4JMASXCNVCYEKLWV1799LUUYS0B7","A26WVAVVE1RM47","3WRBLBQ2GRU63BU2LFOJL1G32T90GO","","null","<img src=""img/land2.png"" style=""width:200px;border:14px solid red;"">","null","","","","","","","","","",""
"","image-keyboard-response","288","682197","0.0-288.0","3X4JMASXCNVCYEKLWV1799LUUYS0B7","A26WVAVVE1RM47","3WRBLBQ2GRU63BU2LFOJL1G32T90GO","","125.8999999910593","img/land2.png","74","126.29999999701977","1","0","1","2","0.8,0.2,0.2,0.2,0.8,0.2,0.2,0.2,0.8","0.2,0.2,0.8,0.8,0.2,0.2,0.2,0.8,0.2","2","",""
"","html-keyboard-response","289","682499","0.0-289.0","3X4JMASXCNVCYEKLWV1799LUUYS0B7","A26WVAVVE1RM47","3WRBLBQ2GRU63BU2LFOJL1G32T90GO","","null","<img src=""img/land2.png"" style=""width:200px;border:14px solid red;"">","null","","","","","","","","","",""
"","image-keyboard-response","290","682689","0.0-290.0","3X4JMASXCNVCYEKLWV1799LUUYS0B7","A26WVAVVE1RM47","3WRBLBQ2GRU63BU2LFOJL1G32T90GO","","188.5","img/land2.png","76","189.20000000298023","3","1","1","2","0.8,0.2,0.2,0.2,0.8,0.2,0.2,0.2,0.8","0.2,0.2,0.8,0.8,0.2,0.2,0.2,0.8,0.2","2","",""
"","html-keyboard-response","291","682989","0.0-291.0","3X4JMASXCNVCYEKLWV1799LUUYS0B7","A26WVAVVE1RM47","3WRBLBQ2GRU63BU2LFOJL1G32T90GO","","null","<img src=""img/land2.png"" style=""width:200px; border:14px solid green;"">","null","","","","","","","","","",""
"","image-keyboard-response","292","683074","0.0-292.0","3X4JMASXCNVCYEKLWV1799LUUYS0B7","A26WVAVVE1RM47","3WRBLBQ2GRU63BU2LFOJL1G32T90GO","","84.59999999403954","img/land1.png","74","85.20000000298023","1","1","3","2","0.8,0.2,0.2,0.2,0.8,0.2,0.2,0.2,0.8","0.2,0.2,0.8,0.8,0.2,0.2,0.2,0.8,0.2","2","",""
"","html-keyboard-response","293","683376","0.0-293.0","3X4JMASXCNVCYEKLWV1799LUUYS0B7","A26WVAVVE1RM47","3WRBLBQ2GRU63BU2LFOJL1G32T90GO","","null","<img src=""img/land1.png"" style=""width:200px; border:14px solid green;"">","null","","","","","","","","","",""
"","image-keyboard-response","294","684167","0.0-294.0","3X4JMASXCNVCYEKLWV1799LUUYS0B7","A26WVAVVE1RM47","3WRBLBQ2GRU63BU2LFOJL1G32T90GO","","791","img/land2.png","74","791.4000000059605","1","0","1","2","0.8,0.2,0.2,0.2,0.8,0.2,0.2,0.2,0.8","0.2,0.2,0.8,0.8,0.2,0.2,0.2,0.8,0.2","2","",""
"","html-keyboard-response","295","684468","0.0-295.0","3X4JMASXCNVCYEKLWV1799LUUYS0B7","A26WVAVVE1RM47","3WRBLBQ2GRU63BU2LFOJL1G32T90GO","","null","<img src=""img/land2.png"" style=""width:200px;border:14px solid red;"">","null","","","","","","","","","",""
"","image-keyboard-response","296","684603","0.0-296.0","3X4JMASXCNVCYEKLWV1799LUUYS0B7","A26WVAVVE1RM47","3WRBLBQ2GRU63BU2LFOJL1G32T90GO","","134.29999999701977","img/land6.png","74","134.69999998807907","1","0","2","2","0.8,0.2,0.2,0.2,0.8,0.2,0.2,0.2,0.8","0.2,0.2,0.8,0.8,0.2,0.2,0.2,0.8,0.2","2","",""
"","html-keyboard-response","297","684904","0.0-297.0","3X4JMASXCNVCYEKLWV1799LUUYS0B7","A26WVAVVE1RM47","3WRBLBQ2GRU63BU2LFOJL1G32T90GO","","null","<img src=""img/land6.png"" style=""width:200px;border:14px solid red;"">","null","","","","","","","","","",""
"","image-keyboard-response","298","685106","0.0-298.0","3X4JMASXCNVCYEKLWV1799LUUYS0B7","A26WVAVVE1RM47","3WRBLBQ2GRU63BU2LFOJL1G32T90GO","","201.6000000089407","img/land6.png","74","202.09999999403954","1","1","2","2","0.8,0.2,0.2,0.2,0.8,0.2,0.2,0.2,0.8","0.2,0.2,0.8,0.8,0.2,0.2,0.2,0.8,0.2","2","",""
"","html-keyboard-response","299","685408","0.0-299.0","3X4JMASXCNVCYEKLWV1799LUUYS0B7","A26WVAVVE1RM47","3WRBLBQ2GRU63BU2LFOJL1G32T90GO","","null","<img src=""img/land6.png"" style=""width:200px; border:14px solid green;"">","null","","","","","","","","","",""
"","image-keyboard-response","300","685472","0.0-300.0","3X4JMASXCNVCYEKLWV1799LUUYS0B7","A26WVAVVE1RM47","3WRBLBQ2GRU63BU2LFOJL1G32T90GO","","62.70000000298023","img/land2.png","76","63.29999999701977","3","1","1","2","0.8,0.2,0.2,0.2,0.8,0.2,0.2,0.2,0.8","0.2,0.2,0.8,0.8,0.2,0.2,0.2,0.8,0.2","2","",""
"","html-keyboard-response","301","685774","0.0-301.0","3X4JMASXCNVCYEKLWV1799LUUYS0B7","A26WVAVVE1RM47","3WRBLBQ2GRU63BU2LFOJL1G32T90GO","","null","<img src=""img/land2.png"" style=""width:200px; border:14px solid green;"">","null","","","","","","","","","",""
"","image-keyboard-response","302","685912","0.0-302.0","3X4JMASXCNVCYEKLWV1799LUUYS0B7","A26WVAVVE1RM47","3WRBLBQ2GRU63BU2LFOJL1G32T90GO","","137.69999998807907","img/land5.png","76","138.20000000298023","3","1","1","1","0.8,0.2,0.2,0.2,0.8,0.2,0.2,0.2,0.8","0.8,0.2,0.2,0.2,0.8,0.2,0.2,0.2,0.8","1","",""
"","html-keyboard-response","303","686213","0.0-303.0","3X4JMASXCNVCYEKLWV1799LUUYS0B7","A26WVAVVE1RM47","3WRBLBQ2GRU63BU2LFOJL1G32T90GO","","null","<img src=""img/land5.png"" style=""width:200px; border:14px solid green;"">","null","","","","","","","","","",""
"","image-keyboard-response","304","686259","0.0-304.0","3X4JMASXCNVCYEKLWV1799LUUYS0B7","A26WVAVVE1RM47","3WRBLBQ2GRU63BU2LFOJL1G32T90GO","","45.5","img/land4.png","75","46","2","0","3","1","0.8,0.2,0.2,0.2,0.8,0.2,0.2,0.2,0.8","0.8,0.2,0.2,0.2,0.8,0.2,0.2,0.2,0.8","1","",""
"","html-keyboard-response","305","686561","0.0-305.0","3X4JMASXCNVCYEKLWV1799LUUYS0B7","A26WVAVVE1RM47","3WRBLBQ2GRU63BU2LFOJL1G32T90GO","","null","<img src=""img/land4.png"" style=""width:200px;border:14px solid red;"">","null","","","","","","","","","",""
"","image-keyboard-response","306","686575","0.0-306.0","3X4JMASXCNVCYEKLWV1799LUUYS0B7","A26WVAVVE1RM47","3WRBLBQ2GRU63BU2LFOJL1G32T90GO","","12.700000002980232","img/land3.png","74","13.200000002980232","1","0","2","1","0.8,0.2,0.2,0.2,0.8,0.2,0.2,0.2,0.8","0.8,0.2,0.2,0.2,0.8,0.2,0.2,0.2,0.8","1","",""
"","html-keyboard-response","307","686876","0.0-307.0","3X4JMASXCNVCYEKLWV1799LUUYS0B7","A26WVAVVE1RM47","3WRBLBQ2GRU63BU2LFOJL1G32T90GO","","null","<img src=""img/land3.png"" style=""width:200px;border:14px solid red;"">","null","","","","","","","","","",""
"","image-keyboard-response","308","686913","0.0-308.0","3X4JMASXCNVCYEKLWV1799LUUYS0B7","A26WVAVVE1RM47","3WRBLBQ2GRU63BU2LFOJL1G32T90GO","","36.79999999701977","img/land4.png","75","37.20000000298023","2","0","3","1","0.8,0.2,0.2,0.2,0.8,0.2,0.2,0.2,0.8","0.8,0.2,0.2,0.2,0.8,0.2,0.2,0.2,0.8","1","",""
"","html-keyboard-response","309","687214","0.0-309.0","3X4JMASXCNVCYEKLWV1799LUUYS0B7","A26WVAVVE1RM47","3WRBLBQ2GRU63BU2LFOJL1G32T90GO","","null","<img src=""img/land4.png"" style=""width:200px;border:14px solid red;"">","null","","","","","","","","","",""
"","image-keyboard-response","310","687403","0.0-310.0","3X4JMASXCNVCYEKLWV1799LUUYS0B7","A26WVAVVE1RM47","3WRBLBQ2GRU63BU2LFOJL1G32T90GO","","188.6000000089407","img/land3.png","74","189","1","1","2","1","0.8,0.2,0.2,0.2,0.8,0.2,0.2,0.2,0.8","0.8,0.2,0.2,0.2,0.8,0.2,0.2,0.2,0.8","1","",""
"","html-keyboard-response","311","687716","0.0-311.0","3X4JMASXCNVCYEKLWV1799LUUYS0B7","A26WVAVVE1RM47","3WRBLBQ2GRU63BU2LFOJL1G32T90GO","","null","<img src=""img/land3.png"" style=""width:200px; border:14px solid green;"">","null","","","","","","","","","",""
"","image-keyboard-response","312","687800","0.0-312.0","3X4JMASXCNVCYEKLWV1799LUUYS0B7","A26WVAVVE1RM47","3WRBLBQ2GRU63BU2LFOJL1G32T90GO","","83.69999998807907","img/land3.png","76","84.29999999701977","3","0","2","1","0.8,0.2,0.2,0.2,0.8,0.2,0.2,0.2,0.8","0.8,0.2,0.2,0.2,0.8,0.2,0.2,0.2,0.8","1","",""
"","html-keyboard-response","313","688102","0.0-313.0","3X4JMASXCNVCYEKLWV1799LUUYS0B7","A26WVAVVE1RM47","3WRBLBQ2GRU63BU2LFOJL1G32T90GO","","null","<img src=""img/land3.png"" style=""width:200px;border:14px solid red;"">","null","","","","","","","","","",""
"","image-keyboard-response","314","688198","0.0-314.0","3X4JMASXCNVCYEKLWV1799LUUYS0B7","A26WVAVVE1RM47","3WRBLBQ2GRU63BU2LFOJL1G32T90GO","","95.70000000298023","img/land5.png","74","96.09999999403954","1","1","1","1","0.8,0.2,0.2,0.2,0.8,0.2,0.2,0.2,0.8","0.8,0.2,0.2,0.2,0.8,0.2,0.2,0.2,0.8","1","",""
"","html-keyboard-response","315","688499","0.0-315.0","3X4JMASXCNVCYEKLWV1799LUUYS0B7","A26WVAVVE1RM47","3WRBLBQ2GRU63BU2LFOJL1G32T90GO","","null","<img src=""img/land5.png"" style=""width:200px; border:14px solid green;"">","null","","","","","","","","","",""
"","image-keyboard-response","316","688660","0.0-316.0","3X4JMASXCNVCYEKLWV1799LUUYS0B7","A26WVAVVE1RM47","3WRBLBQ2GRU63BU2LFOJL1G32T90GO","","159.79999999701977","img/land5.png","76","160.1000000089407","3","0","1","1","0.8,0.2,0.2,0.2,0.8,0.2,0.2,0.2,0.8","0.8,0.2,0.2,0.2,0.8,0.2,0.2,0.2,0.8","1","",""
"","html-keyboard-response","317","688961","0.0-317.0","3X4JMASXCNVCYEKLWV1799LUUYS0B7","A26WVAVVE1RM47","3WRBLBQ2GRU63BU2LFOJL1G32T90GO","","null","<img src=""img/land5.png"" style=""width:200px;border:14px solid red;"">","null","","","","","","","","","",""
"","image-keyboard-response","318","689118","0.0-318.0","3X4JMASXCNVCYEKLWV1799LUUYS0B7","A26WVAVVE1RM47","3WRBLBQ2GRU63BU2LFOJL1G32T90GO","","156.40000000596046","img/land4.png","74","157","1","0","3","1","0.8,0.2,0.2,0.2,0.8,0.2,0.2,0.2,0.8","0.8,0.2,0.2,0.2,0.8,0.2,0.2,0.2,0.8","1","",""
"","html-keyboard-response","319","689419","0.0-319.0","3X4JMASXCNVCYEKLWV1799LUUYS0B7","A26WVAVVE1RM47","3WRBLBQ2GRU63BU2LFOJL1G32T90GO","","null","<img src=""img/land4.png"" style=""width:200px;border:14px solid red;"">","null","","","","","","","","","",""
"","image-keyboard-response","320","689640","0.0-320.0","3X4JMASXCNVCYEKLWV1799LUUYS0B7","A26WVAVVE1RM47","3WRBLBQ2GRU63BU2LFOJL1G32T90GO","","219.8999999910593","img/land4.png","74","220.30000001192093","1","0","3","1","0.8,0.2,0.2,0.2,0.8,0.2,0.2,0.2,0.8","0.8,0.2,0.2,0.2,0.8,0.2,0.2,0.2,0.8","1","",""
"","html-keyboard-response","321","689942","0.0-321.0","3X4JMASXCNVCYEKLWV1799LUUYS0B7","A26WVAVVE1RM47","3WRBLBQ2GRU63BU2LFOJL1G32T90GO","","null","<img src=""img/land4.png"" style=""width:200px;border:14px solid red;"">","null","","","","","","","","","",""
"","image-keyboard-response","322","690121","0.0-322.0","3X4JMASXCNVCYEKLWV1799LUUYS0B7","A26WVAVVE1RM47","3WRBLBQ2GRU63BU2LFOJL1G32T90GO","","178.79999999701977","img/land3.png","75","179.29999999701977","2","0","2","1","0.8,0.2,0.2,0.2,0.8,0.2,0.2,0.2,0.8","0.8,0.2,0.2,0.2,0.8,0.2,0.2,0.2,0.8","1","",""
"","html-keyboard-response","323","690422","0.0-323.0","3X4JMASXCNVCYEKLWV1799LUUYS0B7","A26WVAVVE1RM47","3WRBLBQ2GRU63BU2LFOJL1G32T90GO","","null","<img src=""img/land3.png"" style=""width:200px;border:14px solid red;"">","null","","","","","","","","","",""
"","image-keyboard-response","324","690446","0.0-324.0","3X4JMASXCNVCYEKLWV1799LUUYS0B7","A26WVAVVE1RM47","3WRBLBQ2GRU63BU2LFOJL1G32T90GO","","23","img/land4.png","75","23.400000005960464","2","0","3","1","0.8,0.2,0.2,0.2,0.8,0.2,0.2,0.2,0.8","0.8,0.2,0.2,0.2,0.8,0.2,0.2,0.2,0.8","1","",""
"","html-keyboard-response","325","690747","0.0-325.0","3X4JMASXCNVCYEKLWV1799LUUYS0B7","A26WVAVVE1RM47","3WRBLBQ2GRU63BU2LFOJL1G32T90GO","","null","<img src=""img/land4.png"" style=""width:200px;border:14px solid red;"">","null","","","","","","","","","",""
"","image-keyboard-response","326","690824","0.0-326.0","3X4JMASXCNVCYEKLWV1799LUUYS0B7","A26WVAVVE1RM47","3WRBLBQ2GRU63BU2LFOJL1G32T90GO","","76.1000000089407","img/land4.png","76","76.40000000596046","3","1","3","1","0.8,0.2,0.2,0.2,0.8,0.2,0.2,0.2,0.8","0.8,0.2,0.2,0.2,0.8,0.2,0.2,0.2,0.8","1","",""
"","html-keyboard-response","327","691126","0.0-327.0","3X4JMASXCNVCYEKLWV1799LUUYS0B7","A26WVAVVE1RM47","3WRBLBQ2GRU63BU2LFOJL1G32T90GO","","null","<img src=""img/land4.png"" style=""width:200px; border:14px solid green;"">","null","","","","","","","","","",""
"","image-keyboard-response","328","691221","0.0-328.0","3X4JMASXCNVCYEKLWV1799LUUYS0B7","A26WVAVVE1RM47","3WRBLBQ2GRU63BU2LFOJL1G32T90GO","","93.79999999701977","img/land3.png","76","94.5","3","0","2","1","0.8,0.2,0.2,0.2,0.8,0.2,0.2,0.2,0.8","0.8,0.2,0.2,0.2,0.8,0.2,0.2,0.2,0.8","1","",""
"","html-keyboard-response","329","691522","0.0-329.0","3X4JMASXCNVCYEKLWV1799LUUYS0B7","A26WVAVVE1RM47","3WRBLBQ2GRU63BU2LFOJL1G32T90GO","","null","<img src=""img/land3.png"" style=""width:200px;border:14px solid red;"">","null","","","","","","","","","",""
"","image-keyboard-response","330","691536","0.0-330.0","3X4JMASXCNVCYEKLWV1799LUUYS0B7","A26WVAVVE1RM47","3WRBLBQ2GRU63BU2LFOJL1G32T90GO","","13.600000008940697","img/land3.png","74","13.900000005960464","1","0","2","1","0.8,0.2,0.2,0.2,0.8,0.2,0.2,0.2,0.8","0.8,0.2,0.2,0.2,0.8,0.2,0.2,0.2,0.8","1","",""
"","html-keyboard-response","331","691839","0.0-331.0","3X4JMASXCNVCYEKLWV1799LUUYS0B7","A26WVAVVE1RM47","3WRBLBQ2GRU63BU2LFOJL1G32T90GO","","null","<img src=""img/land3.png"" style=""width:200px;border:14px solid red;"">","null","","","","","","","","","",""
"","image-keyboard-response","332","691965","0.0-332.0","3X4JMASXCNVCYEKLWV1799LUUYS0B7","A26WVAVVE1RM47","3WRBLBQ2GRU63BU2LFOJL1G32T90GO","","125.6000000089407","img/land3.png","74","126.09999999403954","1","0","2","1","0.8,0.2,0.2,0.2,0.8,0.2,0.2,0.2,0.8","0.8,0.2,0.2,0.2,0.8,0.2,0.2,0.2,0.8","1","",""
"","html-keyboard-response","333","692267","0.0-333.0","3X4JMASXCNVCYEKLWV1799LUUYS0B7","A26WVAVVE1RM47","3WRBLBQ2GRU63BU2LFOJL1G32T90GO","","null","<img src=""img/land3.png"" style=""width:200px;border:14px solid red;"">","null","","","","","","","","","",""
"","image-keyboard-response","334","692456","0.0-334.0","3X4JMASXCNVCYEKLWV1799LUUYS0B7","A26WVAVVE1RM47","3WRBLBQ2GRU63BU2LFOJL1G32T90GO","","189.09999999403954","img/land3.png","76","189.59999999403954","3","0","2","1","0.8,0.2,0.2,0.2,0.8,0.2,0.2,0.2,0.8","0.8,0.2,0.2,0.2,0.8,0.2,0.2,0.2,0.8","1","",""
"","html-keyboard-response","335","692757","0.0-335.0","3X4JMASXCNVCYEKLWV1799LUUYS0B7","A26WVAVVE1RM47","3WRBLBQ2GRU63BU2LFOJL1G32T90GO","","null","<img src=""img/land3.png"" style=""width:200px;border:14px solid red;"">","null","","","","","","","","","",""
"","image-keyboard-response","336","692842","0.0-336.0","3X4JMASXCNVCYEKLWV1799LUUYS0B7","A26WVAVVE1RM47","3WRBLBQ2GRU63BU2LFOJL1G32T90GO","","84.5","img/land5.png","74","84.8999999910593","1","1","1","1","0.8,0.2,0.2,0.2,0.8,0.2,0.2,0.2,0.8","0.8,0.2,0.2,0.2,0.8,0.2,0.2,0.2,0.8","1","",""
"","html-keyboard-response","337","693143","0.0-337.0","3X4JMASXCNVCYEKLWV1799LUUYS0B7","A26WVAVVE1RM47","3WRBLBQ2GRU63BU2LFOJL1G32T90GO","","null","<img src=""img/land5.png"" style=""width:200px; border:14px solid green;"">","null","","","","","","","","","",""
"","image-keyboard-response","338","693939","0.0-338.0","3X4JMASXCNVCYEKLWV1799LUUYS0B7","A26WVAVVE1RM47","3WRBLBQ2GRU63BU2LFOJL1G32T90GO","","795.4000000059605","img/land3.png","74","795.8999999910593","1","0","2","1","0.8,0.2,0.2,0.2,0.8,0.2,0.2,0.2,0.8","0.8,0.2,0.2,0.2,0.8,0.2,0.2,0.2,0.8","1","",""
"","html-keyboard-response","339","694241","0.0-339.0","3X4JMASXCNVCYEKLWV1799LUUYS0B7","A26WVAVVE1RM47","3WRBLBQ2GRU63BU2LFOJL1G32T90GO","","null","<img src=""img/land3.png"" style=""width:200px;border:14px solid red;"">","null","","","","","","","","","",""
"","image-keyboard-response","340","694377","0.0-340.0","3X4JMASXCNVCYEKLWV1799LUUYS0B7","A26WVAVVE1RM47","3WRBLBQ2GRU63BU2LFOJL1G32T90GO","","135.5","img/land3.png","74","136","1","0","2","1","0.8,0.2,0.2,0.2,0.8,0.2,0.2,0.2,0.8","0.8,0.2,0.2,0.2,0.8,0.2,0.2,0.2,0.8","1","",""
"","html-keyboard-response","341","694680","0.0-341.0","3X4JMASXCNVCYEKLWV1799LUUYS0B7","A26WVAVVE1RM47","3WRBLBQ2GRU63BU2LFOJL1G32T90GO","","null","<img src=""img/land3.png"" style=""width:200px;border:14px solid red;"">","null","","","","","","","","","",""
"","image-keyboard-response","342","694882","0.0-342.0","3X4JMASXCNVCYEKLWV1799LUUYS0B7","A26WVAVVE1RM47","3WRBLBQ2GRU63BU2LFOJL1G32T90GO","","201.70000000298023","img/land3.png","74","202.09999999403954","1","1","2","1","0.8,0.2,0.2,0.2,0.8,0.2,0.2,0.2,0.8","0.8,0.2,0.2,0.2,0.8,0.2,0.2,0.2,0.8","1","",""
"","html-keyboard-response","343","695183","0.0-343.0","3X4JMASXCNVCYEKLWV1799LUUYS0B7","A26WVAVVE1RM47","3WRBLBQ2GRU63BU2LFOJL1G32T90GO","","null","<img src=""img/land3.png"" style=""width:200px; border:14px solid green;"">","null","","","","","","","","","",""
"","image-keyboard-response","344","695248","0.0-344.0","3X4JMASXCNVCYEKLWV1799LUUYS0B7","A26WVAVVE1RM47","3WRBLBQ2GRU63BU2LFOJL1G32T90GO","","64.90000000596046","img/land5.png","76","65.29999999701977","3","0","1","1","0.8,0.2,0.2,0.2,0.8,0.2,0.2,0.2,0.8","0.8,0.2,0.2,0.2,0.8,0.2,0.2,0.2,0.8","1","",""
"","html-keyboard-response","345","695550","0.0-345.0","3X4JMASXCNVCYEKLWV1799LUUYS0B7","A26WVAVVE1RM47","3WRBLBQ2GRU63BU2LFOJL1G32T90GO","","null","<img src=""img/land5.png"" style=""width:200px;border:14px solid red;"">","null","","","","","","","","","",""
"","image-keyboard-response","346","695690","0.0-346.0","3X4JMASXCNVCYEKLWV1799LUUYS0B7","A26WVAVVE1RM47","3WRBLBQ2GRU63BU2LFOJL1G32T90GO","","139.40000000596046","img/land3.png","76","140","3","0","2","1","0.8,0.2,0.2,0.2,0.8,0.2,0.2,0.2,0.8","0.8,0.2,0.2,0.2,0.8,0.2,0.2,0.2,0.8","1","",""
"","html-keyboard-response","347","695992","0.0-347.0","3X4JMASXCNVCYEKLWV1799LUUYS0B7","A26WVAVVE1RM47","3WRBLBQ2GRU63BU2LFOJL1G32T90GO","","null","<img src=""img/land3.png"" style=""width:200px;border:14px solid red;"">","null","","","","","","","","","",""
"","image-keyboard-response","348","696038","0.0-348.0","3X4JMASXCNVCYEKLWV1799LUUYS0B7","A26WVAVVE1RM47","3WRBLBQ2GRU63BU2LFOJL1G32T90GO","","45.20000000298023","img/land4.png","75","45.69999998807907","2","1","3","1","0.8,0.2,0.2,0.2,0.8,0.2,0.2,0.2,0.8","0.8,0.2,0.2,0.2,0.8,0.2,0.2,0.2,0.8","1","",""
"","html-keyboard-response","349","696339","0.0-349.0","3X4JMASXCNVCYEKLWV1799LUUYS0B7","A26WVAVVE1RM47","3WRBLBQ2GRU63BU2LFOJL1G32T90GO","","null","<img src=""img/land4.png"" style=""width:200px; border:14px solid green;"">","null","","","","","","","","","",""
"","image-keyboard-response","350","696352","0.0-350.0","3X4JMASXCNVCYEKLWV1799LUUYS0B7","A26WVAVVE1RM47","3WRBLBQ2GRU63BU2LFOJL1G32T90GO","","12.900000005960464","img/land3.png","74","13.400000005960464","1","0","2","1","0.8,0.2,0.2,0.2,0.8,0.2,0.2,0.2,0.8","0.8,0.2,0.2,0.2,0.8,0.2,0.2,0.2,0.8","1","",""
"","html-keyboard-response","351","696654","0.0-351.0","3X4JMASXCNVCYEKLWV1799LUUYS0B7","A26WVAVVE1RM47","3WRBLBQ2GRU63BU2LFOJL1G32T90GO","","null","<img src=""img/land3.png"" style=""width:200px;border:14px solid red;"">","null","","","","","","","","","",""
"","image-keyboard-response","352","696690","0.0-352.0","3X4JMASXCNVCYEKLWV1799LUUYS0B7","A26WVAVVE1RM47","3WRBLBQ2GRU63BU2LFOJL1G32T90GO","","35.20000000298023","img/land4.png","75","35.70000000298023","2","0","3","1","0.8,0.2,0.2,0.2,0.8,0.2,0.2,0.2,0.8","0.8,0.2,0.2,0.2,0.8,0.2,0.2,0.2,0.8","1","",""
"","html-keyboard-response","353","696991","0.0-353.0","3X4JMASXCNVCYEKLWV1799LUUYS0B7","A26WVAVVE1RM47","3WRBLBQ2GRU63BU2LFOJL1G32T90GO","","null","<img src=""img/land4.png"" style=""width:200px;border:14px solid red;"">","null","","","","","","","","","",""
"","image-keyboard-response","354","697179","0.0-354.0","3X4JMASXCNVCYEKLWV1799LUUYS0B7","A26WVAVVE1RM47","3WRBLBQ2GRU63BU2LFOJL1G32T90GO","","187.80000001192093","img/land4.png","74","188.3999999910593","1","1","3","1","0.8,0.2,0.2,0.2,0.8,0.2,0.2,0.2,0.8","0.8,0.2,0.2,0.2,0.8,0.2,0.2,0.2,0.8","1","",""
