"success","trial_type","trial_index","time_elapsed","internal_node_id","assignmentID","mturkID","hitID","view_history","rt","stimulus","key_press","reactionTime","a","r","s","cond","reward_cond","reward_cond_actual","reward_matrix_idx","responses","question_order"
"true","fullscreen","0","2457","0.0-0.0","354P56DE9LPPXB17SG8BED5H61G7SD","A276XK6HT76JZA","3RBI0I35XEP26UEZY8S8UZLEA1IY3E","","","","","","","","","","","","","",""
"","instructions","1","13544","0.0-1.0","354P56DE9LPPXB17SG8BED5H61G7SD","A276XK6HT76JZA","3RBI0I35XEP26UEZY8S8UZLEA1IY3E","[{""page_index"":0,""viewing_time"":1292},{""page_index"":1,""viewing_time"":1096},{""page_index"":2,""viewing_time"":1052},{""page_index"":3,""viewing_time"":1529},{""page_index"":4,""viewing_time"":3418},{""page_index"":5,""viewing_time"":1449},{""page_index"":6,""viewing_time"":1244}]","11083","","","","","","","","","","","",""
"","image-keyboard-response","2","15346","0.0-2.0","354P56DE9LPPXB17SG8BED5H61G7SD","A276XK6HT76JZA","3RBI0I35XEP26UEZY8S8UZLEA1IY3E","","1797","img/land5.png","74","1801","1","1","1","2","0.8,0.2,0.2,0.2,0.8,0.2,0.2,0.2,0.8","0.8,0.2,0.2,0.2,0.8,0.2,0.2,0.2,0.8","1","",""
"","html-keyboard-response","3","15648","0.0-3.0","354P56DE9LPPXB17SG8BED5H61G7SD","A276XK6HT76JZA","3RBI0I35XEP26UEZY8S8UZLEA1IY3E","","null","<img src=""img/land5.png"" style=""width:200px; border:14px solid green;"">","null","","","","","","","","","",""
"","image-keyboard-response","4","15708","0.0-4.0","354P56DE9LPPXB17SG8BED5H61G7SD","A276XK6HT76JZA","3RBI0I35XEP26UEZY8S8UZLEA1IY3E","","59","img/land5.png","74","60","1","0","1","2","0.8,0.2,0.2,0.2,0.8,0.2,0.2,0.2,0.8","0.8,0.2,0.2,0.2,0.8,0.2,0.2,0.2,0.8","1","",""
"","html-keyboard-response","5","16009","0.0-5.0","354P56DE9LPPXB17SG8BED5H61G7SD","A276XK6HT76JZA","3RBI0I35XEP26UEZY8S8UZLEA1IY3E","","null","<img src=""img/land5.png"" style=""width:200px;border:14px solid red;"">","null","","","","","","","","","",""
"","image-keyboard-response","6","16097","0.0-6.0","354P56DE9LPPXB17SG8BED5H61G7SD","A276XK6HT76JZA","3RBI0I35XEP26UEZY8S8UZLEA1IY3E","","87","img/land5.png","76","88","3","0","1","2","0.8,0.2,0.2,0.2,0.8,0.2,0.2,0.2,0.8","0.8,0.2,0.2,0.2,0.8,0.2,0.2,0.2,0.8","1","",""
"","html-keyboard-response","7","16398","0.0-7.0","354P56DE9LPPXB17SG8BED5H61G7SD","A276XK6HT76JZA","3RBI0I35XEP26UEZY8S8UZLEA1IY3E","","null","<img src=""img/land5.png"" style=""width:200px;border:14px solid red;"">","null","","","","","","","","","",""
"","image-keyboard-response","8","16523","0.0-8.0","354P56DE9LPPXB17SG8BED5H61G7SD","A276XK6HT76JZA","3RBI0I35XEP26UEZY8S8UZLEA1IY3E","","124","img/land4.png","74","125","1","0","3","2","0.8,0.2,0.2,0.2,0.8,0.2,0.2,0.2,0.8","0.8,0.2,0.2,0.2,0.8,0.2,0.2,0.2,0.8","1","",""
"","html-keyboard-response","9","16824","0.0-9.0","354P56DE9LPPXB17SG8BED5H61G7SD","A276XK6HT76JZA","3RBI0I35XEP26UEZY8S8UZLEA1IY3E","","null","<img src=""img/land4.png"" style=""width:200px;border:14px solid red;"">","null","","","","","","","","","",""
"","image-keyboard-response","10","16924","0.0-10.0","354P56DE9LPPXB17SG8BED5H61G7SD","A276XK6HT76JZA","3RBI0I35XEP26UEZY8S8UZLEA1IY3E","","99","img/land5.png","74","100","1","1","1","2","0.8,0.2,0.2,0.2,0.8,0.2,0.2,0.2,0.8","0.8,0.2,0.2,0.2,0.8,0.2,0.2,0.2,0.8","1","",""
"","html-keyboard-response","11","17226","0.0-11.0","354P56DE9LPPXB17SG8BED5H61G7SD","A276XK6HT76JZA","3RBI0I35XEP26UEZY8S8UZLEA1IY3E","","null","<img src=""img/land5.png"" style=""width:200px; border:14px solid green;"">","null","","","","","","","","","",""
"","image-keyboard-response","12","17311","0.0-12.0","354P56DE9LPPXB17SG8BED5H61G7SD","A276XK6HT76JZA","3RBI0I35XEP26UEZY8S8UZLEA1IY3E","","83","img/land4.png","76","85","3","1","3","2","0.8,0.2,0.2,0.2,0.8,0.2,0.2,0.2,0.8","0.8,0.2,0.2,0.2,0.8,0.2,0.2,0.2,0.8","1","",""
"","html-keyboard-response","13","17634","0.0-13.0","354P56DE9LPPXB17SG8BED5H61G7SD","A276XK6HT76JZA","3RBI0I35XEP26UEZY8S8UZLEA1IY3E","","null","<img src=""img/land4.png"" style=""width:200px; border:14px solid green;"">","null","","","","","","","","","",""
"","image-keyboard-response","14","17719","0.0-14.0","354P56DE9LPPXB17SG8BED5H61G7SD","A276XK6HT76JZA","3RBI0I35XEP26UEZY8S8UZLEA1IY3E","","83","img/land4.png","74","85","1","0","3","2","0.8,0.2,0.2,0.2,0.8,0.2,0.2,0.2,0.8","0.8,0.2,0.2,0.2,0.8,0.2,0.2,0.2,0.8","1","",""
"","html-keyboard-response","15","18020","0.0-15.0","354P56DE9LPPXB17SG8BED5H61G7SD","A276XK6HT76JZA","3RBI0I35XEP26UEZY8S8UZLEA1IY3E","","null","<img src=""img/land4.png"" style=""width:200px;border:14px solid red;"">","null","","","","","","","","","",""
"","image-keyboard-response","16","18076","0.0-16.0","354P56DE9LPPXB17SG8BED5H61G7SD","A276XK6HT76JZA","3RBI0I35XEP26UEZY8S8UZLEA1IY3E","","53","img/land2.png","76","55","3","0","2","2","0.8,0.2,0.2,0.2,0.8,0.2,0.2,0.2,0.8","0.8,0.2,0.2,0.2,0.8,0.2,0.2,0.2,0.8","1","",""
"","html-keyboard-response","17","18377","0.0-17.0","354P56DE9LPPXB17SG8BED5H61G7SD","A276XK6HT76JZA","3RBI0I35XEP26UEZY8S8UZLEA1IY3E","","null","<img src=""img/land2.png"" style=""width:200px;border:14px solid red;"">","null","","","","","","","","","",""
"","image-keyboard-response","18","18479","0.0-18.0","354P56DE9LPPXB17SG8BED5H61G7SD","A276XK6HT76JZA","3RBI0I35XEP26UEZY8S8UZLEA1IY3E","","101","img/land4.png","76","102","3","1","3","2","0.8,0.2,0.2,0.2,0.8,0.2,0.2,0.2,0.8","0.8,0.2,0.2,0.2,0.8,0.2,0.2,0.2,0.8","1","",""
"","html-keyboard-response","19","18781","0.0-19.0","354P56DE9LPPXB17SG8BED5H61G7SD","A276XK6HT76JZA","3RBI0I35XEP26UEZY8S8UZLEA1IY3E","","null","<img src=""img/land4.png"" style=""width:200px; border:14px solid green;"">","null","","","","","","","","","",""
"","image-keyboard-response","20","18828","0.0-20.0","354P56DE9LPPXB17SG8BED5H61G7SD","A276XK6HT76JZA","3RBI0I35XEP26UEZY8S8UZLEA1IY3E","","45","img/land5.png","75","47","2","0","1","2","0.8,0.2,0.2,0.2,0.8,0.2,0.2,0.2,0.8","0.8,0.2,0.2,0.2,0.8,0.2,0.2,0.2,0.8","1","",""
"","html-keyboard-response","21","19129","0.0-21.0","354P56DE9LPPXB17SG8BED5H61G7SD","A276XK6HT76JZA","3RBI0I35XEP26UEZY8S8UZLEA1IY3E","","null","<img src=""img/land5.png"" style=""width:200px;border:14px solid red;"">","null","","","","","","","","","",""
"","image-keyboard-response","22","19178","0.0-22.0","354P56DE9LPPXB17SG8BED5H61G7SD","A276XK6HT76JZA","3RBI0I35XEP26UEZY8S8UZLEA1IY3E","","49","img/land5.png","75","49","2","1","1","2","0.8,0.2,0.2,0.2,0.8,0.2,0.2,0.2,0.8","0.8,0.2,0.2,0.2,0.8,0.2,0.2,0.2,0.8","1","",""
"","html-keyboard-response","23","19481","0.0-23.0","354P56DE9LPPXB17SG8BED5H61G7SD","A276XK6HT76JZA","3RBI0I35XEP26UEZY8S8UZLEA1IY3E","","null","<img src=""img/land5.png"" style=""width:200px; border:14px solid green;"">","null","","","","","","","","","",""
"","image-keyboard-response","24","19565","0.0-24.0","354P56DE9LPPXB17SG8BED5H61G7SD","A276XK6HT76JZA","3RBI0I35XEP26UEZY8S8UZLEA1IY3E","","82","img/land4.png","75","84","2","0","3","2","0.8,0.2,0.2,0.2,0.8,0.2,0.2,0.2,0.8","0.8,0.2,0.2,0.2,0.8,0.2,0.2,0.2,0.8","1","",""
"","html-keyboard-response","25","19868","0.0-25.0","354P56DE9LPPXB17SG8BED5H61G7SD","A276XK6HT76JZA","3RBI0I35XEP26UEZY8S8UZLEA1IY3E","","null","<img src=""img/land4.png"" style=""width:200px;border:14px solid red;"">","null","","","","","","","","","",""
"","image-keyboard-response","26","19993","0.0-26.0","354P56DE9LPPXB17SG8BED5H61G7SD","A276XK6HT76JZA","3RBI0I35XEP26UEZY8S8UZLEA1IY3E","","123","img/land5.png","74","125","1","1","1","2","0.8,0.2,0.2,0.2,0.8,0.2,0.2,0.2,0.8","0.8,0.2,0.2,0.2,0.8,0.2,0.2,0.2,0.8","1","",""
"","html-keyboard-response","27","20296","0.0-27.0","354P56DE9LPPXB17SG8BED5H61G7SD","A276XK6HT76JZA","3RBI0I35XEP26UEZY8S8UZLEA1IY3E","","null","<img src=""img/land5.png"" style=""width:200px; border:14px solid green;"">","null","","","","","","","","","",""
"","image-keyboard-response","28","20347","0.0-28.0","354P56DE9LPPXB17SG8BED5H61G7SD","A276XK6HT76JZA","3RBI0I35XEP26UEZY8S8UZLEA1IY3E","","51","img/land2.png","76","51","3","0","2","2","0.8,0.2,0.2,0.2,0.8,0.2,0.2,0.2,0.8","0.8,0.2,0.2,0.2,0.8,0.2,0.2,0.2,0.8","1","",""
"","html-keyboard-response","29","20649","0.0-29.0","354P56DE9LPPXB17SG8BED5H61G7SD","A276XK6HT76JZA","3RBI0I35XEP26UEZY8S8UZLEA1IY3E","","null","<img src=""img/land2.png"" style=""width:200px;border:14px solid red;"">","null","","","","","","","","","",""
"","image-keyboard-response","30","20775","0.0-30.0","354P56DE9LPPXB17SG8BED5H61G7SD","A276XK6HT76JZA","3RBI0I35XEP26UEZY8S8UZLEA1IY3E","","125","img/land5.png","75","126","2","1","1","2","0.8,0.2,0.2,0.2,0.8,0.2,0.2,0.2,0.8","0.8,0.2,0.2,0.2,0.8,0.2,0.2,0.2,0.8","1","",""
"","html-keyboard-response","31","21076","0.0-31.0","354P56DE9LPPXB17SG8BED5H61G7SD","A276XK6HT76JZA","3RBI0I35XEP26UEZY8S8UZLEA1IY3E","","null","<img src=""img/land5.png"" style=""width:200px; border:14px solid green;"">","null","","","","","","","","","",""
"","image-keyboard-response","32","21146","0.0-32.0","354P56DE9LPPXB17SG8BED5H61G7SD","A276XK6HT76JZA","3RBI0I35XEP26UEZY8S8UZLEA1IY3E","","69","img/land5.png","75","70","2","0","1","2","0.8,0.2,0.2,0.2,0.8,0.2,0.2,0.2,0.8","0.8,0.2,0.2,0.2,0.8,0.2,0.2,0.2,0.8","1","",""
"","html-keyboard-response","33","21447","0.0-33.0","354P56DE9LPPXB17SG8BED5H61G7SD","A276XK6HT76JZA","3RBI0I35XEP26UEZY8S8UZLEA1IY3E","","null","<img src=""img/land5.png"" style=""width:200px;border:14px solid red;"">","null","","","","","","","","","",""
"","image-keyboard-response","34","21505","0.0-34.0","354P56DE9LPPXB17SG8BED5H61G7SD","A276XK6HT76JZA","3RBI0I35XEP26UEZY8S8UZLEA1IY3E","","57","img/land4.png","76","58","3","1","3","2","0.8,0.2,0.2,0.2,0.8,0.2,0.2,0.2,0.8","0.8,0.2,0.2,0.2,0.8,0.2,0.2,0.2,0.8","1","",""
"","html-keyboard-response","35","21806","0.0-35.0","354P56DE9LPPXB17SG8BED5H61G7SD","A276XK6HT76JZA","3RBI0I35XEP26UEZY8S8UZLEA1IY3E","","null","<img src=""img/land4.png"" style=""width:200px; border:14px solid green;"">","null","","","","","","","","","",""
"","image-keyboard-response","36","21939","0.0-36.0","354P56DE9LPPXB17SG8BED5H61G7SD","A276XK6HT76JZA","3RBI0I35XEP26UEZY8S8UZLEA1IY3E","","130","img/land5.png","74","133","1","1","1","2","0.8,0.2,0.2,0.2,0.8,0.2,0.2,0.2,0.8","0.8,0.2,0.2,0.2,0.8,0.2,0.2,0.2,0.8","1","",""
"","html-keyboard-response","37","22240","0.0-37.0","354P56DE9LPPXB17SG8BED5H61G7SD","A276XK6HT76JZA","3RBI0I35XEP26UEZY8S8UZLEA1IY3E","","null","<img src=""img/land5.png"" style=""width:200px; border:14px solid green;"">","null","","","","","","","","","",""
"","image-keyboard-response","38","22357","0.0-38.0","354P56DE9LPPXB17SG8BED5H61G7SD","A276XK6HT76JZA","3RBI0I35XEP26UEZY8S8UZLEA1IY3E","","115","img/land2.png","76","116","3","0","2","2","0.8,0.2,0.2,0.2,0.8,0.2,0.2,0.2,0.8","0.8,0.2,0.2,0.2,0.8,0.2,0.2,0.2,0.8","1","",""
"","html-keyboard-response","39","22658","0.0-39.0","354P56DE9LPPXB17SG8BED5H61G7SD","A276XK6HT76JZA","3RBI0I35XEP26UEZY8S8UZLEA1IY3E","","null","<img src=""img/land2.png"" style=""width:200px;border:14px solid red;"">","null","","","","","","","","","",""
"","image-keyboard-response","40","22835","0.0-40.0","354P56DE9LPPXB17SG8BED5H61G7SD","A276XK6HT76JZA","3RBI0I35XEP26UEZY8S8UZLEA1IY3E","","174","img/land5.png","74","176","1","1","1","2","0.8,0.2,0.2,0.2,0.8,0.2,0.2,0.2,0.8","0.8,0.2,0.2,0.2,0.8,0.2,0.2,0.2,0.8","1","",""
"","html-keyboard-response","41","23140","0.0-41.0","354P56DE9LPPXB17SG8BED5H61G7SD","A276XK6HT76JZA","3RBI0I35XEP26UEZY8S8UZLEA1IY3E","","null","<img src=""img/land5.png"" style=""width:200px; border:14px solid green;"">","null","","","","","","","","","",""
"","image-keyboard-response","42","23188","0.0-42.0","354P56DE9LPPXB17SG8BED5H61G7SD","A276XK6HT76JZA","3RBI0I35XEP26UEZY8S8UZLEA1IY3E","","45","img/land5.png","74","47","1","1","1","2","0.8,0.2,0.2,0.2,0.8,0.2,0.2,0.2,0.8","0.8,0.2,0.2,0.2,0.8,0.2,0.2,0.2,0.8","1","",""
"","html-keyboard-response","43","23491","0.0-43.0","354P56DE9LPPXB17SG8BED5H61G7SD","A276XK6HT76JZA","3RBI0I35XEP26UEZY8S8UZLEA1IY3E","","null","<img src=""img/land5.png"" style=""width:200px; border:14px solid green;"">","null","","","","","","","","","",""
"","image-keyboard-response","44","23580","0.0-44.0","354P56DE9LPPXB17SG8BED5H61G7SD","A276XK6HT76JZA","3RBI0I35XEP26UEZY8S8UZLEA1IY3E","","87","img/land5.png","74","89","1","1","1","2","0.8,0.2,0.2,0.2,0.8,0.2,0.2,0.2,0.8","0.8,0.2,0.2,0.2,0.8,0.2,0.2,0.2,0.8","1","",""
"","html-keyboard-response","45","23881","0.0-45.0","354P56DE9LPPXB17SG8BED5H61G7SD","A276XK6HT76JZA","3RBI0I35XEP26UEZY8S8UZLEA1IY3E","","null","<img src=""img/land5.png"" style=""width:200px; border:14px solid green;"">","null","","","","","","","","","",""
"","image-keyboard-response","46","23934","0.0-46.0","354P56DE9LPPXB17SG8BED5H61G7SD","A276XK6HT76JZA","3RBI0I35XEP26UEZY8S8UZLEA1IY3E","","51","img/land2.png","76","52","3","0","2","2","0.8,0.2,0.2,0.2,0.8,0.2,0.2,0.2,0.8","0.8,0.2,0.2,0.2,0.8,0.2,0.2,0.2,0.8","1","",""
"","html-keyboard-response","47","24234","0.0-47.0","354P56DE9LPPXB17SG8BED5H61G7SD","A276XK6HT76JZA","3RBI0I35XEP26UEZY8S8UZLEA1IY3E","","null","<img src=""img/land2.png"" style=""width:200px;border:14px solid red;"">","null","","","","","","","","","",""
"","image-keyboard-response","48","24279","0.0-48.0","354P56DE9LPPXB17SG8BED5H61G7SD","A276XK6HT76JZA","3RBI0I35XEP26UEZY8S8UZLEA1IY3E","","44","img/land5.png","76","45","3","0","1","2","0.8,0.2,0.2,0.2,0.8,0.2,0.2,0.2,0.8","0.8,0.2,0.2,0.2,0.8,0.2,0.2,0.2,0.8","1","",""
"","html-keyboard-response","49","24581","0.0-49.0","354P56DE9LPPXB17SG8BED5H61G7SD","A276XK6HT76JZA","3RBI0I35XEP26UEZY8S8UZLEA1IY3E","","null","<img src=""img/land5.png"" style=""width:200px;border:14px solid red;"">","null","","","","","","","","","",""
"","image-keyboard-response","50","24650","0.0-50.0","354P56DE9LPPXB17SG8BED5H61G7SD","A276XK6HT76JZA","3RBI0I35XEP26UEZY8S8UZLEA1IY3E","","68","img/land5.png","76","69","3","1","1","2","0.8,0.2,0.2,0.2,0.8,0.2,0.2,0.2,0.8","0.8,0.2,0.2,0.2,0.8,0.2,0.2,0.2,0.8","1","",""
"","html-keyboard-response","51","24950","0.0-51.0","354P56DE9LPPXB17SG8BED5H61G7SD","A276XK6HT76JZA","3RBI0I35XEP26UEZY8S8UZLEA1IY3E","","null","<img src=""img/land5.png"" style=""width:200px; border:14px solid green;"">","null","","","","","","","","","",""
"","image-keyboard-response","52","25134","0.0-52.0","354P56DE9LPPXB17SG8BED5H61G7SD","A276XK6HT76JZA","3RBI0I35XEP26UEZY8S8UZLEA1IY3E","","181","img/land4.png","74","183","1","0","3","2","0.8,0.2,0.2,0.2,0.8,0.2,0.2,0.2,0.8","0.8,0.2,0.2,0.2,0.8,0.2,0.2,0.2,0.8","1","",""
"","html-keyboard-response","53","25436","0.0-53.0","354P56DE9LPPXB17SG8BED5H61G7SD","A276XK6HT76JZA","3RBI0I35XEP26UEZY8S8UZLEA1IY3E","","null","<img src=""img/land4.png"" style=""width:200px;border:14px solid red;"">","null","","","","","","","","","",""
"","image-keyboard-response","54","25501","0.0-54.0","354P56DE9LPPXB17SG8BED5H61G7SD","A276XK6HT76JZA","3RBI0I35XEP26UEZY8S8UZLEA1IY3E","","63","img/land5.png","74","66","1","1","1","2","0.8,0.2,0.2,0.2,0.8,0.2,0.2,0.2,0.8","0.8,0.2,0.2,0.2,0.8,0.2,0.2,0.2,0.8","1","",""
"","html-keyboard-response","55","25806","0.0-55.0","354P56DE9LPPXB17SG8BED5H61G7SD","A276XK6HT76JZA","3RBI0I35XEP26UEZY8S8UZLEA1IY3E","","null","<img src=""img/land5.png"" style=""width:200px; border:14px solid green;"">","null","","","","","","","","","",""
"","image-keyboard-response","56","25848","0.0-56.0","354P56DE9LPPXB17SG8BED5H61G7SD","A276XK6HT76JZA","3RBI0I35XEP26UEZY8S8UZLEA1IY3E","","40","img/land2.png","74","42","1","0","2","2","0.8,0.2,0.2,0.2,0.8,0.2,0.2,0.2,0.8","0.8,0.2,0.2,0.2,0.8,0.2,0.2,0.2,0.8","1","",""
"","html-keyboard-response","57","26148","0.0-57.0","354P56DE9LPPXB17SG8BED5H61G7SD","A276XK6HT76JZA","3RBI0I35XEP26UEZY8S8UZLEA1IY3E","","null","<img src=""img/land2.png"" style=""width:200px;border:14px solid red;"">","null","","","","","","","","","",""
"","image-keyboard-response","58","26250","0.0-58.0","354P56DE9LPPXB17SG8BED5H61G7SD","A276XK6HT76JZA","3RBI0I35XEP26UEZY8S8UZLEA1IY3E","","100","img/land2.png","76","101","3","0","2","2","0.8,0.2,0.2,0.2,0.8,0.2,0.2,0.2,0.8","0.8,0.2,0.2,0.2,0.8,0.2,0.2,0.2,0.8","1","",""
"","html-keyboard-response","59","26552","0.0-59.0","354P56DE9LPPXB17SG8BED5H61G7SD","A276XK6HT76JZA","3RBI0I35XEP26UEZY8S8UZLEA1IY3E","","null","<img src=""img/land2.png"" style=""width:200px;border:14px solid red;"">","null","","","","","","","","","",""
"","image-keyboard-response","60","26636","0.0-60.0","354P56DE9LPPXB17SG8BED5H61G7SD","A276XK6HT76JZA","3RBI0I35XEP26UEZY8S8UZLEA1IY3E","","82","img/land5.png","75","84","2","0","1","2","0.8,0.2,0.2,0.2,0.8,0.2,0.2,0.2,0.8","0.8,0.2,0.2,0.2,0.8,0.2,0.2,0.2,0.8","1","",""
"","html-keyboard-response","61","26938","0.0-61.0","354P56DE9LPPXB17SG8BED5H61G7SD","A276XK6HT76JZA","3RBI0I35XEP26UEZY8S8UZLEA1IY3E","","null","<img src=""img/land5.png"" style=""width:200px;border:14px solid red;"">","null","","","","","","","","","",""
"","image-keyboard-response","62","27031","0.0-62.0","354P56DE9LPPXB17SG8BED5H61G7SD","A276XK6HT76JZA","3RBI0I35XEP26UEZY8S8UZLEA1IY3E","","91","img/land5.png","74","93","1","1","1","2","0.8,0.2,0.2,0.2,0.8,0.2,0.2,0.2,0.8","0.8,0.2,0.2,0.2,0.8,0.2,0.2,0.2,0.8","1","",""
"","html-keyboard-response","63","27333","0.0-63.0","354P56DE9LPPXB17SG8BED5H61G7SD","A276XK6HT76JZA","3RBI0I35XEP26UEZY8S8UZLEA1IY3E","","null","<img src=""img/land5.png"" style=""width:200px; border:14px solid green;"">","null","","","","","","","","","",""
"","image-keyboard-response","64","27427","0.0-64.0","354P56DE9LPPXB17SG8BED5H61G7SD","A276XK6HT76JZA","3RBI0I35XEP26UEZY8S8UZLEA1IY3E","","93","img/land4.png","75","94","2","0","3","2","0.8,0.2,0.2,0.2,0.8,0.2,0.2,0.2,0.8","0.8,0.2,0.2,0.2,0.8,0.2,0.2,0.2,0.8","1","",""
"","html-keyboard-response","65","27728","0.0-65.0","354P56DE9LPPXB17SG8BED5H61G7SD","A276XK6HT76JZA","3RBI0I35XEP26UEZY8S8UZLEA1IY3E","","null","<img src=""img/land4.png"" style=""width:200px;border:14px solid red;"">","null","","","","","","","","","",""
"","image-keyboard-response","66","27854","0.0-66.0","354P56DE9LPPXB17SG8BED5H61G7SD","A276XK6HT76JZA","3RBI0I35XEP26UEZY8S8UZLEA1IY3E","","122","img/land2.png","75","126","2","1","2","2","0.8,0.2,0.2,0.2,0.8,0.2,0.2,0.2,0.8","0.8,0.2,0.2,0.2,0.8,0.2,0.2,0.2,0.8","1","",""
"","html-keyboard-response","67","28157","0.0-67.0","354P56DE9LPPXB17SG8BED5H61G7SD","A276XK6HT76JZA","3RBI0I35XEP26UEZY8S8UZLEA1IY3E","","null","<img src=""img/land2.png"" style=""width:200px; border:14px solid green;"">","null","","","","","","","","","",""
"","image-keyboard-response","68","28265","0.0-68.0","354P56DE9LPPXB17SG8BED5H61G7SD","A276XK6HT76JZA","3RBI0I35XEP26UEZY8S8UZLEA1IY3E","","107","img/land5.png","75","109","2","0","1","2","0.8,0.2,0.2,0.2,0.8,0.2,0.2,0.2,0.8","0.8,0.2,0.2,0.2,0.8,0.2,0.2,0.2,0.8","1","",""
"","html-keyboard-response","69","28568","0.0-69.0","354P56DE9LPPXB17SG8BED5H61G7SD","A276XK6HT76JZA","3RBI0I35XEP26UEZY8S8UZLEA1IY3E","","null","<img src=""img/land5.png"" style=""width:200px;border:14px solid red;"">","null","","","","","","","","","",""
"","image-keyboard-response","70","28782","0.0-70.0","354P56DE9LPPXB17SG8BED5H61G7SD","A276XK6HT76JZA","3RBI0I35XEP26UEZY8S8UZLEA1IY3E","","212","img/land4.png","74","213","1","0","3","2","0.8,0.2,0.2,0.2,0.8,0.2,0.2,0.2,0.8","0.8,0.2,0.2,0.2,0.8,0.2,0.2,0.2,0.8","1","",""
"","html-keyboard-response","71","29095","0.0-71.0","354P56DE9LPPXB17SG8BED5H61G7SD","A276XK6HT76JZA","3RBI0I35XEP26UEZY8S8UZLEA1IY3E","","null","<img src=""img/land4.png"" style=""width:200px;border:14px solid red;"">","null","","","","","","","","","",""
"","image-keyboard-response","72","29711","0.0-72.0","354P56DE9LPPXB17SG8BED5H61G7SD","A276XK6HT76JZA","3RBI0I35XEP26UEZY8S8UZLEA1IY3E","","615","img/land4.png","76","616","3","1","3","2","0.8,0.2,0.2,0.2,0.8,0.2,0.2,0.2,0.8","0.8,0.2,0.2,0.2,0.8,0.2,0.2,0.2,0.8","1","",""
"","html-keyboard-response","73","30013","0.0-73.0","354P56DE9LPPXB17SG8BED5H61G7SD","A276XK6HT76JZA","3RBI0I35XEP26UEZY8S8UZLEA1IY3E","","null","<img src=""img/land4.png"" style=""width:200px; border:14px solid green;"">","null","","","","","","","","","",""
"","image-keyboard-response","74","30066","0.0-74.0","354P56DE9LPPXB17SG8BED5H61G7SD","A276XK6HT76JZA","3RBI0I35XEP26UEZY8S8UZLEA1IY3E","","52","img/land4.png","74","53","1","0","3","2","0.8,0.2,0.2,0.2,0.8,0.2,0.2,0.2,0.8","0.8,0.2,0.2,0.2,0.8,0.2,0.2,0.2,0.8","1","",""
"","html-keyboard-response","75","30367","0.0-75.0","354P56DE9LPPXB17SG8BED5H61G7SD","A276XK6HT76JZA","3RBI0I35XEP26UEZY8S8UZLEA1IY3E","","null","<img src=""img/land4.png"" style=""width:200px;border:14px solid red;"">","null","","","","","","","","","",""
"","image-keyboard-response","76","30407","0.0-76.0","354P56DE9LPPXB17SG8BED5H61G7SD","A276XK6HT76JZA","3RBI0I35XEP26UEZY8S8UZLEA1IY3E","","39","img/land5.png","75","40","2","0","1","2","0.8,0.2,0.2,0.2,0.8,0.2,0.2,0.2,0.8","0.8,0.2,0.2,0.2,0.8,0.2,0.2,0.2,0.8","1","",""
"","html-keyboard-response","77","30720","0.0-77.0","354P56DE9LPPXB17SG8BED5H61G7SD","A276XK6HT76JZA","3RBI0I35XEP26UEZY8S8UZLEA1IY3E","","null","<img src=""img/land5.png"" style=""width:200px;border:14px solid red;"">","null","","","","","","","","","",""
"","image-keyboard-response","78","30768","0.0-78.0","354P56DE9LPPXB17SG8BED5H61G7SD","A276XK6HT76JZA","3RBI0I35XEP26UEZY8S8UZLEA1IY3E","","47","img/land5.png","75","48","2","0","1","2","0.8,0.2,0.2,0.2,0.8,0.2,0.2,0.2,0.8","0.8,0.2,0.2,0.2,0.8,0.2,0.2,0.2,0.8","1","",""
"","html-keyboard-response","79","31071","0.0-79.0","354P56DE9LPPXB17SG8BED5H61G7SD","A276XK6HT76JZA","3RBI0I35XEP26UEZY8S8UZLEA1IY3E","","null","<img src=""img/land5.png"" style=""width:200px;border:14px solid red;"">","null","","","","","","","","","",""
"","image-keyboard-response","80","31167","0.0-80.0","354P56DE9LPPXB17SG8BED5H61G7SD","A276XK6HT76JZA","3RBI0I35XEP26UEZY8S8UZLEA1IY3E","","95","img/land2.png","76","96","3","1","2","2","0.8,0.2,0.2,0.2,0.8,0.2,0.2,0.2,0.8","0.8,0.2,0.2,0.2,0.8,0.2,0.2,0.2,0.8","1","",""
"","html-keyboard-response","81","31469","0.0-81.0","354P56DE9LPPXB17SG8BED5H61G7SD","A276XK6HT76JZA","3RBI0I35XEP26UEZY8S8UZLEA1IY3E","","null","<img src=""img/land2.png"" style=""width:200px; border:14px solid green;"">","null","","","","","","","","","",""
"","image-keyboard-response","82","31575","0.0-82.0","354P56DE9LPPXB17SG8BED5H61G7SD","A276XK6HT76JZA","3RBI0I35XEP26UEZY8S8UZLEA1IY3E","","105","img/land5.png","75","106","2","0","1","2","0.8,0.2,0.2,0.2,0.8,0.2,0.2,0.2,0.8","0.8,0.2,0.2,0.2,0.8,0.2,0.2,0.2,0.8","1","",""
"","html-keyboard-response","83","31877","0.0-83.0","354P56DE9LPPXB17SG8BED5H61G7SD","A276XK6HT76JZA","3RBI0I35XEP26UEZY8S8UZLEA1IY3E","","null","<img src=""img/land5.png"" style=""width:200px;border:14px solid red;"">","null","","","","","","","","","",""
"","image-keyboard-response","84","31961","0.0-84.0","354P56DE9LPPXB17SG8BED5H61G7SD","A276XK6HT76JZA","3RBI0I35XEP26UEZY8S8UZLEA1IY3E","","81","img/land5.png","74","84","1","1","1","2","0.8,0.2,0.2,0.2,0.8,0.2,0.2,0.2,0.8","0.8,0.2,0.2,0.2,0.8,0.2,0.2,0.2,0.8","1","",""
"","html-keyboard-response","85","32263","0.0-85.0","354P56DE9LPPXB17SG8BED5H61G7SD","A276XK6HT76JZA","3RBI0I35XEP26UEZY8S8UZLEA1IY3E","","null","<img src=""img/land5.png"" style=""width:200px; border:14px solid green;"">","null","","","","","","","","","",""
"","image-keyboard-response","86","32408","0.0-86.0","354P56DE9LPPXB17SG8BED5H61G7SD","A276XK6HT76JZA","3RBI0I35XEP26UEZY8S8UZLEA1IY3E","","144","img/land4.png","76","145","3","1","3","2","0.8,0.2,0.2,0.2,0.8,0.2,0.2,0.2,0.8","0.8,0.2,0.2,0.2,0.8,0.2,0.2,0.2,0.8","1","",""
"","html-keyboard-response","87","32709","0.0-87.0","354P56DE9LPPXB17SG8BED5H61G7SD","A276XK6HT76JZA","3RBI0I35XEP26UEZY8S8UZLEA1IY3E","","null","<img src=""img/land4.png"" style=""width:200px; border:14px solid green;"">","null","","","","","","","","","",""
"","image-keyboard-response","88","32803","0.0-88.0","354P56DE9LPPXB17SG8BED5H61G7SD","A276XK6HT76JZA","3RBI0I35XEP26UEZY8S8UZLEA1IY3E","","93","img/land5.png","75","94","2","0","1","2","0.8,0.2,0.2,0.2,0.8,0.2,0.2,0.2,0.8","0.8,0.2,0.2,0.2,0.8,0.2,0.2,0.2,0.8","1","",""
"","html-keyboard-response","89","33103","0.0-89.0","354P56DE9LPPXB17SG8BED5H61G7SD","A276XK6HT76JZA","3RBI0I35XEP26UEZY8S8UZLEA1IY3E","","null","<img src=""img/land5.png"" style=""width:200px;border:14px solid red;"">","null","","","","","","","","","",""
"","image-keyboard-response","90","33161","0.0-90.0","354P56DE9LPPXB17SG8BED5H61G7SD","A276XK6HT76JZA","3RBI0I35XEP26UEZY8S8UZLEA1IY3E","","56","img/land4.png","75","58","2","1","3","2","0.8,0.2,0.2,0.2,0.8,0.2,0.2,0.2,0.8","0.8,0.2,0.2,0.2,0.8,0.2,0.2,0.2,0.8","1","",""
"","html-keyboard-response","91","33477","0.0-91.0","354P56DE9LPPXB17SG8BED5H61G7SD","A276XK6HT76JZA","3RBI0I35XEP26UEZY8S8UZLEA1IY3E","","null","<img src=""img/land4.png"" style=""width:200px; border:14px solid green;"">","null","","","","","","","","","",""
"","image-keyboard-response","92","33498","0.0-92.0","354P56DE9LPPXB17SG8BED5H61G7SD","A276XK6HT76JZA","3RBI0I35XEP26UEZY8S8UZLEA1IY3E","","18","img/land5.png","75","21","2","0","1","2","0.8,0.2,0.2,0.2,0.8,0.2,0.2,0.2,0.8","0.8,0.2,0.2,0.2,0.8,0.2,0.2,0.2,0.8","1","",""
"","html-keyboard-response","93","33801","0.0-93.0","354P56DE9LPPXB17SG8BED5H61G7SD","A276XK6HT76JZA","3RBI0I35XEP26UEZY8S8UZLEA1IY3E","","null","<img src=""img/land5.png"" style=""width:200px;border:14px solid red;"">","null","","","","","","","","","",""
"","image-keyboard-response","94","33882","0.0-94.0","354P56DE9LPPXB17SG8BED5H61G7SD","A276XK6HT76JZA","3RBI0I35XEP26UEZY8S8UZLEA1IY3E","","80","img/land5.png","76","81","3","0","1","2","0.8,0.2,0.2,0.2,0.8,0.2,0.2,0.2,0.8","0.8,0.2,0.2,0.2,0.8,0.2,0.2,0.2,0.8","1","",""
"","html-keyboard-response","95","34183","0.0-95.0","354P56DE9LPPXB17SG8BED5H61G7SD","A276XK6HT76JZA","3RBI0I35XEP26UEZY8S8UZLEA1IY3E","","null","<img src=""img/land5.png"" style=""width:200px;border:14px solid red;"">","null","","","","","","","","","",""
"","image-keyboard-response","96","34256","0.0-96.0","354P56DE9LPPXB17SG8BED5H61G7SD","A276XK6HT76JZA","3RBI0I35XEP26UEZY8S8UZLEA1IY3E","","72","img/land2.png","76","73","3","0","2","2","0.8,0.2,0.2,0.2,0.8,0.2,0.2,0.2,0.8","0.8,0.2,0.2,0.2,0.8,0.2,0.2,0.2,0.8","1","",""
"","html-keyboard-response","97","34558","0.0-97.0","354P56DE9LPPXB17SG8BED5H61G7SD","A276XK6HT76JZA","3RBI0I35XEP26UEZY8S8UZLEA1IY3E","","null","<img src=""img/land2.png"" style=""width:200px;border:14px solid red;"">","null","","","","","","","","","",""
"","image-keyboard-response","98","34667","0.0-98.0","354P56DE9LPPXB17SG8BED5H61G7SD","A276XK6HT76JZA","3RBI0I35XEP26UEZY8S8UZLEA1IY3E","","108","img/land2.png","74","108","1","0","2","2","0.8,0.2,0.2,0.2,0.8,0.2,0.2,0.2,0.8","0.8,0.2,0.2,0.2,0.8,0.2,0.2,0.2,0.8","1","",""
"","html-keyboard-response","99","34968","0.0-99.0","354P56DE9LPPXB17SG8BED5H61G7SD","A276XK6HT76JZA","3RBI0I35XEP26UEZY8S8UZLEA1IY3E","","null","<img src=""img/land2.png"" style=""width:200px;border:14px solid red;"">","null","","","","","","","","","",""
"","image-keyboard-response","100","35076","0.0-100.0","354P56DE9LPPXB17SG8BED5H61G7SD","A276XK6HT76JZA","3RBI0I35XEP26UEZY8S8UZLEA1IY3E","","107","img/land5.png","76","108","3","0","1","2","0.8,0.2,0.2,0.2,0.8,0.2,0.2,0.2,0.8","0.8,0.2,0.2,0.2,0.8,0.2,0.2,0.2,0.8","1","",""
"","html-keyboard-response","101","35378","0.0-101.0","354P56DE9LPPXB17SG8BED5H61G7SD","A276XK6HT76JZA","3RBI0I35XEP26UEZY8S8UZLEA1IY3E","","null","<img src=""img/land5.png"" style=""width:200px;border:14px solid red;"">","null","","","","","","","","","",""
"","image-keyboard-response","102","35505","0.0-102.0","354P56DE9LPPXB17SG8BED5H61G7SD","A276XK6HT76JZA","3RBI0I35XEP26UEZY8S8UZLEA1IY3E","","126","img/land2.png","74","127","1","1","2","2","0.8,0.2,0.2,0.2,0.8,0.2,0.2,0.2,0.8","0.8,0.2,0.2,0.2,0.8,0.2,0.2,0.2,0.8","1","",""
"","html-keyboard-response","103","35809","0.0-103.0","354P56DE9LPPXB17SG8BED5H61G7SD","A276XK6HT76JZA","3RBI0I35XEP26UEZY8S8UZLEA1IY3E","","null","<img src=""img/land2.png"" style=""width:200px; border:14px solid green;"">","null","","","","","","","","","",""
"","image-keyboard-response","104","35865","0.0-104.0","354P56DE9LPPXB17SG8BED5H61G7SD","A276XK6HT76JZA","3RBI0I35XEP26UEZY8S8UZLEA1IY3E","","55","img/land5.png","74","56","1","0","1","2","0.8,0.2,0.2,0.2,0.8,0.2,0.2,0.2,0.8","0.8,0.2,0.2,0.2,0.8,0.2,0.2,0.2,0.8","1","",""
"","html-keyboard-response","105","36166","0.0-105.0","354P56DE9LPPXB17SG8BED5H61G7SD","A276XK6HT76JZA","3RBI0I35XEP26UEZY8S8UZLEA1IY3E","","null","<img src=""img/land5.png"" style=""width:200px;border:14px solid red;"">","null","","","","","","","","","",""
"","image-keyboard-response","106","36257","0.0-106.0","354P56DE9LPPXB17SG8BED5H61G7SD","A276XK6HT76JZA","3RBI0I35XEP26UEZY8S8UZLEA1IY3E","","90","img/land5.png","75","91","2","0","1","2","0.8,0.2,0.2,0.2,0.8,0.2,0.2,0.2,0.8","0.8,0.2,0.2,0.2,0.8,0.2,0.2,0.2,0.8","1","",""
"","html-keyboard-response","107","36559","0.0-107.0","354P56DE9LPPXB17SG8BED5H61G7SD","A276XK6HT76JZA","3RBI0I35XEP26UEZY8S8UZLEA1IY3E","","null","<img src=""img/land5.png"" style=""width:200px;border:14px solid red;"">","null","","","","","","","","","",""
"","image-keyboard-response","108","36717","0.0-108.0","354P56DE9LPPXB17SG8BED5H61G7SD","A276XK6HT76JZA","3RBI0I35XEP26UEZY8S8UZLEA1IY3E","","157","img/land5.png","75","158","2","0","1","2","0.8,0.2,0.2,0.2,0.8,0.2,0.2,0.2,0.8","0.8,0.2,0.2,0.2,0.8,0.2,0.2,0.2,0.8","1","",""
"","html-keyboard-response","109","37019","0.0-109.0","354P56DE9LPPXB17SG8BED5H61G7SD","A276XK6HT76JZA","3RBI0I35XEP26UEZY8S8UZLEA1IY3E","","null","<img src=""img/land5.png"" style=""width:200px;border:14px solid red;"">","null","","","","","","","","","",""
"","image-keyboard-response","110","37145","0.0-110.0","354P56DE9LPPXB17SG8BED5H61G7SD","A276XK6HT76JZA","3RBI0I35XEP26UEZY8S8UZLEA1IY3E","","125","img/land2.png","76","126","3","0","2","2","0.8,0.2,0.2,0.2,0.8,0.2,0.2,0.2,0.8","0.8,0.2,0.2,0.2,0.8,0.2,0.2,0.2,0.8","1","",""
"","html-keyboard-response","111","37447","0.0-111.0","354P56DE9LPPXB17SG8BED5H61G7SD","A276XK6HT76JZA","3RBI0I35XEP26UEZY8S8UZLEA1IY3E","","null","<img src=""img/land2.png"" style=""width:200px;border:14px solid red;"">","null","","","","","","","","","",""
"","image-keyboard-response","112","37547","0.0-112.0","354P56DE9LPPXB17SG8BED5H61G7SD","A276XK6HT76JZA","3RBI0I35XEP26UEZY8S8UZLEA1IY3E","","98","img/land4.png","76","100","3","1","3","2","0.8,0.2,0.2,0.2,0.8,0.2,0.2,0.2,0.8","0.8,0.2,0.2,0.2,0.8,0.2,0.2,0.2,0.8","1","",""
"","html-keyboard-response","113","37849","0.0-113.0","354P56DE9LPPXB17SG8BED5H61G7SD","A276XK6HT76JZA","3RBI0I35XEP26UEZY8S8UZLEA1IY3E","","null","<img src=""img/land4.png"" style=""width:200px; border:14px solid green;"">","null","","","","","","","","","",""
"","image-keyboard-response","114","38140","0.0-114.0","354P56DE9LPPXB17SG8BED5H61G7SD","A276XK6HT76JZA","3RBI0I35XEP26UEZY8S8UZLEA1IY3E","","289","img/land5.png","74","291","1","1","1","2","0.8,0.2,0.2,0.2,0.8,0.2,0.2,0.2,0.8","0.8,0.2,0.2,0.2,0.8,0.2,0.2,0.2,0.8","1","",""
"","html-keyboard-response","115","38442","0.0-115.0","354P56DE9LPPXB17SG8BED5H61G7SD","A276XK6HT76JZA","3RBI0I35XEP26UEZY8S8UZLEA1IY3E","","null","<img src=""img/land5.png"" style=""width:200px; border:14px solid green;"">","null","","","","","","","","","",""
"","image-keyboard-response","116","38553","0.0-116.0","354P56DE9LPPXB17SG8BED5H61G7SD","A276XK6HT76JZA","3RBI0I35XEP26UEZY8S8UZLEA1IY3E","","110","img/land5.png","74","111","1","1","1","2","0.8,0.2,0.2,0.2,0.8,0.2,0.2,0.2,0.8","0.8,0.2,0.2,0.2,0.8,0.2,0.2,0.2,0.8","1","",""
"","html-keyboard-response","117","38855","0.0-117.0","354P56DE9LPPXB17SG8BED5H61G7SD","A276XK6HT76JZA","3RBI0I35XEP26UEZY8S8UZLEA1IY3E","","null","<img src=""img/land5.png"" style=""width:200px; border:14px solid green;"">","null","","","","","","","","","",""
"","image-keyboard-response","118","39063","0.0-118.0","354P56DE9LPPXB17SG8BED5H61G7SD","A276XK6HT76JZA","3RBI0I35XEP26UEZY8S8UZLEA1IY3E","","206","img/land4.png","75","208","2","0","3","2","0.8,0.2,0.2,0.2,0.8,0.2,0.2,0.2,0.8","0.8,0.2,0.2,0.2,0.8,0.2,0.2,0.2,0.8","1","",""
"","html-keyboard-response","119","39366","0.0-119.0","354P56DE9LPPXB17SG8BED5H61G7SD","A276XK6HT76JZA","3RBI0I35XEP26UEZY8S8UZLEA1IY3E","","null","<img src=""img/land4.png"" style=""width:200px;border:14px solid red;"">","null","","","","","","","","","",""
"","image-keyboard-response","120","39471","0.0-120.0","354P56DE9LPPXB17SG8BED5H61G7SD","A276XK6HT76JZA","3RBI0I35XEP26UEZY8S8UZLEA1IY3E","","105","img/land5.png","74","105","1","0","1","2","0.8,0.2,0.2,0.2,0.8,0.2,0.2,0.2,0.8","0.8,0.2,0.2,0.2,0.8,0.2,0.2,0.2,0.8","1","",""
"","html-keyboard-response","121","39774","0.0-121.0","354P56DE9LPPXB17SG8BED5H61G7SD","A276XK6HT76JZA","3RBI0I35XEP26UEZY8S8UZLEA1IY3E","","null","<img src=""img/land5.png"" style=""width:200px;border:14px solid red;"">","null","","","","","","","","","",""
"","image-keyboard-response","122","39901","0.0-122.0","354P56DE9LPPXB17SG8BED5H61G7SD","A276XK6HT76JZA","3RBI0I35XEP26UEZY8S8UZLEA1IY3E","","126","img/land2.png","76","127","3","1","2","2","0.8,0.2,0.2,0.2,0.8,0.2,0.2,0.2,0.8","0.8,0.2,0.2,0.2,0.8,0.2,0.2,0.2,0.8","1","",""
"","html-keyboard-response","123","40201","0.0-123.0","354P56DE9LPPXB17SG8BED5H61G7SD","A276XK6HT76JZA","3RBI0I35XEP26UEZY8S8UZLEA1IY3E","","null","<img src=""img/land2.png"" style=""width:200px; border:14px solid green;"">","null","","","","","","","","","",""
"","image-keyboard-response","124","40308","0.0-124.0","354P56DE9LPPXB17SG8BED5H61G7SD","A276XK6HT76JZA","3RBI0I35XEP26UEZY8S8UZLEA1IY3E","","106","img/land4.png","76","107","3","0","3","2","0.8,0.2,0.2,0.2,0.8,0.2,0.2,0.2,0.8","0.8,0.2,0.2,0.2,0.8,0.2,0.2,0.2,0.8","1","",""
"","html-keyboard-response","125","40609","0.0-125.0","354P56DE9LPPXB17SG8BED5H61G7SD","A276XK6HT76JZA","3RBI0I35XEP26UEZY8S8UZLEA1IY3E","","null","<img src=""img/land4.png"" style=""width:200px;border:14px solid red;"">","null","","","","","","","","","",""
"","image-keyboard-response","126","40763","0.0-126.0","354P56DE9LPPXB17SG8BED5H61G7SD","A276XK6HT76JZA","3RBI0I35XEP26UEZY8S8UZLEA1IY3E","","152","img/land2.png","76","153","3","0","2","2","0.8,0.2,0.2,0.2,0.8,0.2,0.2,0.2,0.8","0.8,0.2,0.2,0.2,0.8,0.2,0.2,0.2,0.8","1","",""
"","html-keyboard-response","127","41067","0.0-127.0","354P56DE9LPPXB17SG8BED5H61G7SD","A276XK6HT76JZA","3RBI0I35XEP26UEZY8S8UZLEA1IY3E","","null","<img src=""img/land2.png"" style=""width:200px;border:14px solid red;"">","null","","","","","","","","","",""
"","image-keyboard-response","128","41166","0.0-128.0","354P56DE9LPPXB17SG8BED5H61G7SD","A276XK6HT76JZA","3RBI0I35XEP26UEZY8S8UZLEA1IY3E","","97","img/land5.png","74","99","1","1","1","2","0.8,0.2,0.2,0.2,0.8,0.2,0.2,0.2,0.8","0.8,0.2,0.2,0.2,0.8,0.2,0.2,0.2,0.8","1","",""
"","html-keyboard-response","129","41467","0.0-129.0","354P56DE9LPPXB17SG8BED5H61G7SD","A276XK6HT76JZA","3RBI0I35XEP26UEZY8S8UZLEA1IY3E","","null","<img src=""img/land5.png"" style=""width:200px; border:14px solid green;"">","null","","","","","","","","","",""
"","image-keyboard-response","130","41590","0.0-130.0","354P56DE9LPPXB17SG8BED5H61G7SD","A276XK6HT76JZA","3RBI0I35XEP26UEZY8S8UZLEA1IY3E","","122","img/land5.png","74","123","1","1","1","2","0.8,0.2,0.2,0.2,0.8,0.2,0.2,0.2,0.8","0.8,0.2,0.2,0.2,0.8,0.2,0.2,0.2,0.8","1","",""
"","html-keyboard-response","131","41894","0.0-131.0","354P56DE9LPPXB17SG8BED5H61G7SD","A276XK6HT76JZA","3RBI0I35XEP26UEZY8S8UZLEA1IY3E","","null","<img src=""img/land5.png"" style=""width:200px; border:14px solid green;"">","null","","","","","","","","","",""
"","image-keyboard-response","132","41916","0.0-132.0","354P56DE9LPPXB17SG8BED5H61G7SD","A276XK6HT76JZA","3RBI0I35XEP26UEZY8S8UZLEA1IY3E","","21","img/land5.png","75","22","2","0","1","2","0.8,0.2,0.2,0.2,0.8,0.2,0.2,0.2,0.8","0.8,0.2,0.2,0.2,0.8,0.2,0.2,0.2,0.8","1","",""
"","html-keyboard-response","133","42216","0.0-133.0","354P56DE9LPPXB17SG8BED5H61G7SD","A276XK6HT76JZA","3RBI0I35XEP26UEZY8S8UZLEA1IY3E","","null","<img src=""img/land5.png"" style=""width:200px;border:14px solid red;"">","null","","","","","","","","","",""
"","image-keyboard-response","134","42406","0.0-134.0","354P56DE9LPPXB17SG8BED5H61G7SD","A276XK6HT76JZA","3RBI0I35XEP26UEZY8S8UZLEA1IY3E","","189","img/land5.png","74","190","1","0","1","2","0.8,0.2,0.2,0.2,0.8,0.2,0.2,0.2,0.8","0.8,0.2,0.2,0.2,0.8,0.2,0.2,0.2,0.8","1","",""
"","html-keyboard-response","135","42708","0.0-135.0","354P56DE9LPPXB17SG8BED5H61G7SD","A276XK6HT76JZA","3RBI0I35XEP26UEZY8S8UZLEA1IY3E","","null","<img src=""img/land5.png"" style=""width:200px;border:14px solid red;"">","null","","","","","","","","","",""
"","image-keyboard-response","136","42816","0.0-136.0","354P56DE9LPPXB17SG8BED5H61G7SD","A276XK6HT76JZA","3RBI0I35XEP26UEZY8S8UZLEA1IY3E","","106","img/land5.png","76","108","3","0","1","2","0.8,0.2,0.2,0.2,0.8,0.2,0.2,0.2,0.8","0.8,0.2,0.2,0.2,0.8,0.2,0.2,0.2,0.8","1","",""
"","html-keyboard-response","137","43117","0.0-137.0","354P56DE9LPPXB17SG8BED5H61G7SD","A276XK6HT76JZA","3RBI0I35XEP26UEZY8S8UZLEA1IY3E","","null","<img src=""img/land5.png"" style=""width:200px;border:14px solid red;"">","null","","","","","","","","","",""
"","image-keyboard-response","138","43240","0.0-138.0","354P56DE9LPPXB17SG8BED5H61G7SD","A276XK6HT76JZA","3RBI0I35XEP26UEZY8S8UZLEA1IY3E","","122","img/land2.png","74","123","1","0","2","2","0.8,0.2,0.2,0.2,0.8,0.2,0.2,0.2,0.8","0.8,0.2,0.2,0.2,0.8,0.2,0.2,0.2,0.8","1","",""
"","html-keyboard-response","139","43542","0.0-139.0","354P56DE9LPPXB17SG8BED5H61G7SD","A276XK6HT76JZA","3RBI0I35XEP26UEZY8S8UZLEA1IY3E","","null","<img src=""img/land2.png"" style=""width:200px;border:14px solid red;"">","null","","","","","","","","","",""
"","image-keyboard-response","140","43735","0.0-140.0","354P56DE9LPPXB17SG8BED5H61G7SD","A276XK6HT76JZA","3RBI0I35XEP26UEZY8S8UZLEA1IY3E","","190","img/land5.png","74","193","1","0","1","2","0.8,0.2,0.2,0.2,0.8,0.2,0.2,0.2,0.8","0.8,0.2,0.2,0.2,0.8,0.2,0.2,0.2,0.8","1","",""
"","html-keyboard-response","141","44036","0.0-141.0","354P56DE9LPPXB17SG8BED5H61G7SD","A276XK6HT76JZA","3RBI0I35XEP26UEZY8S8UZLEA1IY3E","","null","<img src=""img/land5.png"" style=""width:200px;border:14px solid red;"">","null","","","","","","","","","",""
"","image-keyboard-response","142","44188","0.0-142.0","354P56DE9LPPXB17SG8BED5H61G7SD","A276XK6HT76JZA","3RBI0I35XEP26UEZY8S8UZLEA1IY3E","","151","img/land2.png","74","152","1","1","2","2","0.8,0.2,0.2,0.2,0.8,0.2,0.2,0.2,0.8","0.8,0.2,0.2,0.2,0.8,0.2,0.2,0.2,0.8","1","",""
"","html-keyboard-response","143","44490","0.0-143.0","354P56DE9LPPXB17SG8BED5H61G7SD","A276XK6HT76JZA","3RBI0I35XEP26UEZY8S8UZLEA1IY3E","","null","<img src=""img/land2.png"" style=""width:200px; border:14px solid green;"">","null","","","","","","","","","",""
"","image-keyboard-response","144","44560","0.0-144.0","354P56DE9LPPXB17SG8BED5H61G7SD","A276XK6HT76JZA","3RBI0I35XEP26UEZY8S8UZLEA1IY3E","","68","img/land5.png","74","70","1","1","1","2","0.8,0.2,0.2,0.2,0.8,0.2,0.2,0.2,0.8","0.8,0.2,0.2,0.2,0.8,0.2,0.2,0.2,0.8","1","",""
"","html-keyboard-response","145","44862","0.0-145.0","354P56DE9LPPXB17SG8BED5H61G7SD","A276XK6HT76JZA","3RBI0I35XEP26UEZY8S8UZLEA1IY3E","","null","<img src=""img/land5.png"" style=""width:200px; border:14px solid green;"">","null","","","","","","","","","",""
"","image-keyboard-response","146","44935","0.0-146.0","354P56DE9LPPXB17SG8BED5H61G7SD","A276XK6HT76JZA","3RBI0I35XEP26UEZY8S8UZLEA1IY3E","","71","img/land2.png","74","72","1","0","2","2","0.8,0.2,0.2,0.2,0.8,0.2,0.2,0.2,0.8","0.8,0.2,0.2,0.2,0.8,0.2,0.2,0.2,0.8","1","",""
"","html-keyboard-response","147","45242","0.0-147.0","354P56DE9LPPXB17SG8BED5H61G7SD","A276XK6HT76JZA","3RBI0I35XEP26UEZY8S8UZLEA1IY3E","","null","<img src=""img/land2.png"" style=""width:200px;border:14px solid red;"">","null","","","","","","","","","",""
"","image-keyboard-response","148","45334","0.0-148.0","354P56DE9LPPXB17SG8BED5H61G7SD","A276XK6HT76JZA","3RBI0I35XEP26UEZY8S8UZLEA1IY3E","","91","img/land5.png","76","93","3","0","1","2","0.8,0.2,0.2,0.2,0.8,0.2,0.2,0.2,0.8","0.8,0.2,0.2,0.2,0.8,0.2,0.2,0.2,0.8","1","",""
"","html-keyboard-response","149","45636","0.0-149.0","354P56DE9LPPXB17SG8BED5H61G7SD","A276XK6HT76JZA","3RBI0I35XEP26UEZY8S8UZLEA1IY3E","","null","<img src=""img/land5.png"" style=""width:200px;border:14px solid red;"">","null","","","","","","","","","",""
"","image-keyboard-response","150","45778","0.0-150.0","354P56DE9LPPXB17SG8BED5H61G7SD","A276XK6HT76JZA","3RBI0I35XEP26UEZY8S8UZLEA1IY3E","","141","img/land5.png","74","142","1","1","1","2","0.8,0.2,0.2,0.2,0.8,0.2,0.2,0.2,0.8","0.8,0.2,0.2,0.2,0.8,0.2,0.2,0.2,0.8","1","",""
"","html-keyboard-response","151","46080","0.0-151.0","354P56DE9LPPXB17SG8BED5H61G7SD","A276XK6HT76JZA","3RBI0I35XEP26UEZY8S8UZLEA1IY3E","","null","<img src=""img/land5.png"" style=""width:200px; border:14px solid green;"">","null","","","","","","","","","",""
"","image-keyboard-response","152","46167","0.0-152.0","354P56DE9LPPXB17SG8BED5H61G7SD","A276XK6HT76JZA","3RBI0I35XEP26UEZY8S8UZLEA1IY3E","","86","img/land5.png","74","87","1","0","1","2","0.8,0.2,0.2,0.2,0.8,0.2,0.2,0.2,0.8","0.8,0.2,0.2,0.2,0.8,0.2,0.2,0.2,0.8","1","",""
"","html-keyboard-response","153","46471","0.0-153.0","354P56DE9LPPXB17SG8BED5H61G7SD","A276XK6HT76JZA","3RBI0I35XEP26UEZY8S8UZLEA1IY3E","","null","<img src=""img/land5.png"" style=""width:200px;border:14px solid red;"">","null","","","","","","","","","",""
"","image-keyboard-response","154","46550","0.0-154.0","354P56DE9LPPXB17SG8BED5H61G7SD","A276XK6HT76JZA","3RBI0I35XEP26UEZY8S8UZLEA1IY3E","","77","img/land5.png","74","79","1","0","1","2","0.8,0.2,0.2,0.2,0.8,0.2,0.2,0.2,0.8","0.8,0.2,0.2,0.2,0.8,0.2,0.2,0.2,0.8","1","",""
"","html-keyboard-response","155","46852","0.0-155.0","354P56DE9LPPXB17SG8BED5H61G7SD","A276XK6HT76JZA","3RBI0I35XEP26UEZY8S8UZLEA1IY3E","","null","<img src=""img/land5.png"" style=""width:200px;border:14px solid red;"">","null","","","","","","","","","",""
"","image-keyboard-response","156","46964","0.0-156.0","354P56DE9LPPXB17SG8BED5H61G7SD","A276XK6HT76JZA","3RBI0I35XEP26UEZY8S8UZLEA1IY3E","","109","img/land5.png","76","111","3","1","1","2","0.8,0.2,0.2,0.2,0.8,0.2,0.2,0.2,0.8","0.8,0.2,0.2,0.2,0.8,0.2,0.2,0.2,0.8","1","",""
"","html-keyboard-response","157","47270","0.0-157.0","354P56DE9LPPXB17SG8BED5H61G7SD","A276XK6HT76JZA","3RBI0I35XEP26UEZY8S8UZLEA1IY3E","","null","<img src=""img/land5.png"" style=""width:200px; border:14px solid green;"">","null","","","","","","","","","",""
"","image-keyboard-response","158","47405","0.0-158.0","354P56DE9LPPXB17SG8BED5H61G7SD","A276XK6HT76JZA","3RBI0I35XEP26UEZY8S8UZLEA1IY3E","","134","img/land5.png","76","135","3","0","1","2","0.8,0.2,0.2,0.2,0.8,0.2,0.2,0.2,0.8","0.8,0.2,0.2,0.2,0.8,0.2,0.2,0.2,0.8","1","",""
"","html-keyboard-response","159","47705","0.0-159.0","354P56DE9LPPXB17SG8BED5H61G7SD","A276XK6HT76JZA","3RBI0I35XEP26UEZY8S8UZLEA1IY3E","","null","<img src=""img/land5.png"" style=""width:200px;border:14px solid red;"">","null","","","","","","","","","",""
"","image-keyboard-response","160","47837","0.0-160.0","354P56DE9LPPXB17SG8BED5H61G7SD","A276XK6HT76JZA","3RBI0I35XEP26UEZY8S8UZLEA1IY3E","","130","img/land2.png","76","132","3","0","2","2","0.8,0.2,0.2,0.2,0.8,0.2,0.2,0.2,0.8","0.8,0.2,0.2,0.2,0.8,0.2,0.2,0.2,0.8","1","",""
"","html-keyboard-response","161","48138","0.0-161.0","354P56DE9LPPXB17SG8BED5H61G7SD","A276XK6HT76JZA","3RBI0I35XEP26UEZY8S8UZLEA1IY3E","","null","<img src=""img/land2.png"" style=""width:200px;border:14px solid red;"">","null","","","","","","","","","",""
"","image-keyboard-response","162","48205","0.0-162.0","354P56DE9LPPXB17SG8BED5H61G7SD","A276XK6HT76JZA","3RBI0I35XEP26UEZY8S8UZLEA1IY3E","","65","img/land2.png","75","66","2","1","2","2","0.8,0.2,0.2,0.2,0.8,0.2,0.2,0.2,0.8","0.8,0.2,0.2,0.2,0.8,0.2,0.2,0.2,0.8","1","",""
"","html-keyboard-response","163","48507","0.0-163.0","354P56DE9LPPXB17SG8BED5H61G7SD","A276XK6HT76JZA","3RBI0I35XEP26UEZY8S8UZLEA1IY3E","","null","<img src=""img/land2.png"" style=""width:200px; border:14px solid green;"">","null","","","","","","","","","",""
"","image-keyboard-response","164","48652","0.0-164.0","354P56DE9LPPXB17SG8BED5H61G7SD","A276XK6HT76JZA","3RBI0I35XEP26UEZY8S8UZLEA1IY3E","","144","img/land5.png","75","145","2","1","1","2","0.8,0.2,0.2,0.2,0.8,0.2,0.2,0.2,0.8","0.8,0.2,0.2,0.2,0.8,0.2,0.2,0.2,0.8","1","",""
"","html-keyboard-response","165","48953","0.0-165.0","354P56DE9LPPXB17SG8BED5H61G7SD","A276XK6HT76JZA","3RBI0I35XEP26UEZY8S8UZLEA1IY3E","","null","<img src=""img/land5.png"" style=""width:200px; border:14px solid green;"">","null","","","","","","","","","",""
"","image-keyboard-response","166","49075","0.0-166.0","354P56DE9LPPXB17SG8BED5H61G7SD","A276XK6HT76JZA","3RBI0I35XEP26UEZY8S8UZLEA1IY3E","","122","img/land2.png","75","122","2","1","2","2","0.8,0.2,0.2,0.2,0.8,0.2,0.2,0.2,0.8","0.8,0.2,0.2,0.2,0.8,0.2,0.2,0.2,0.8","1","",""
"","html-keyboard-response","167","49376","0.0-167.0","354P56DE9LPPXB17SG8BED5H61G7SD","A276XK6HT76JZA","3RBI0I35XEP26UEZY8S8UZLEA1IY3E","","null","<img src=""img/land2.png"" style=""width:200px; border:14px solid green;"">","null","","","","","","","","","",""
"","image-keyboard-response","168","49483","0.0-168.0","354P56DE9LPPXB17SG8BED5H61G7SD","A276XK6HT76JZA","3RBI0I35XEP26UEZY8S8UZLEA1IY3E","","106","img/land5.png","76","107","3","0","1","2","0.8,0.2,0.2,0.2,0.8,0.2,0.2,0.2,0.8","0.8,0.2,0.2,0.2,0.8,0.2,0.2,0.2,0.8","1","",""
"","html-keyboard-response","169","49785","0.0-169.0","354P56DE9LPPXB17SG8BED5H61G7SD","A276XK6HT76JZA","3RBI0I35XEP26UEZY8S8UZLEA1IY3E","","null","<img src=""img/land5.png"" style=""width:200px;border:14px solid red;"">","null","","","","","","","","","",""
"","image-keyboard-response","170","49893","0.0-170.0","354P56DE9LPPXB17SG8BED5H61G7SD","A276XK6HT76JZA","3RBI0I35XEP26UEZY8S8UZLEA1IY3E","","108","img/land2.png","76","108","3","0","2","2","0.8,0.2,0.2,0.2,0.8,0.2,0.2,0.2,0.8","0.8,0.2,0.2,0.2,0.8,0.2,0.2,0.2,0.8","1","",""
"","html-keyboard-response","171","50195","0.0-171.0","354P56DE9LPPXB17SG8BED5H61G7SD","A276XK6HT76JZA","3RBI0I35XEP26UEZY8S8UZLEA1IY3E","","null","<img src=""img/land2.png"" style=""width:200px;border:14px solid red;"">","null","","","","","","","","","",""
"","image-keyboard-response","172","50314","0.0-172.0","354P56DE9LPPXB17SG8BED5H61G7SD","A276XK6HT76JZA","3RBI0I35XEP26UEZY8S8UZLEA1IY3E","","118","img/land4.png","74","119","1","0","3","2","0.8,0.2,0.2,0.2,0.8,0.2,0.2,0.2,0.8","0.8,0.2,0.2,0.2,0.8,0.2,0.2,0.2,0.8","1","",""
"","html-keyboard-response","173","50616","0.0-173.0","354P56DE9LPPXB17SG8BED5H61G7SD","A276XK6HT76JZA","3RBI0I35XEP26UEZY8S8UZLEA1IY3E","","null","<img src=""img/land4.png"" style=""width:200px;border:14px solid red;"">","null","","","","","","","","","",""
"","image-keyboard-response","174","50681","0.0-174.0","354P56DE9LPPXB17SG8BED5H61G7SD","A276XK6HT76JZA","3RBI0I35XEP26UEZY8S8UZLEA1IY3E","","65","img/land5.png","75","65","2","1","1","2","0.8,0.2,0.2,0.2,0.8,0.2,0.2,0.2,0.8","0.8,0.2,0.2,0.2,0.8,0.2,0.2,0.2,0.8","1","",""
"","html-keyboard-response","175","50985","0.0-175.0","354P56DE9LPPXB17SG8BED5H61G7SD","A276XK6HT76JZA","3RBI0I35XEP26UEZY8S8UZLEA1IY3E","","null","<img src=""img/land5.png"" style=""width:200px; border:14px solid green;"">","null","","","","","","","","","",""
"","image-keyboard-response","176","51236","0.0-176.0","354P56DE9LPPXB17SG8BED5H61G7SD","A276XK6HT76JZA","3RBI0I35XEP26UEZY8S8UZLEA1IY3E","","247","img/land5.png","76","251","3","0","1","2","0.8,0.2,0.2,0.2,0.8,0.2,0.2,0.2,0.8","0.8,0.2,0.2,0.2,0.8,0.2,0.2,0.2,0.8","1","",""
"","html-keyboard-response","177","51539","0.0-177.0","354P56DE9LPPXB17SG8BED5H61G7SD","A276XK6HT76JZA","3RBI0I35XEP26UEZY8S8UZLEA1IY3E","","null","<img src=""img/land5.png"" style=""width:200px;border:14px solid red;"">","null","","","","","","","","","",""
"","image-keyboard-response","178","51647","0.0-178.0","354P56DE9LPPXB17SG8BED5H61G7SD","A276XK6HT76JZA","3RBI0I35XEP26UEZY8S8UZLEA1IY3E","","107","img/land4.png","75","107","2","0","3","2","0.8,0.2,0.2,0.2,0.8,0.2,0.2,0.2,0.8","0.8,0.2,0.2,0.2,0.8,0.2,0.2,0.2,0.8","1","",""
"","html-keyboard-response","179","51955","0.0-179.0","354P56DE9LPPXB17SG8BED5H61G7SD","A276XK6HT76JZA","3RBI0I35XEP26UEZY8S8UZLEA1IY3E","","null","<img src=""img/land4.png"" style=""width:200px;border:14px solid red;"">","null","","","","","","","","","",""
"","image-keyboard-response","180","52080","0.0-180.0","354P56DE9LPPXB17SG8BED5H61G7SD","A276XK6HT76JZA","3RBI0I35XEP26UEZY8S8UZLEA1IY3E","","123","img/land2.png","75","124","2","1","2","2","0.8,0.2,0.2,0.2,0.8,0.2,0.2,0.2,0.8","0.8,0.2,0.2,0.2,0.8,0.2,0.2,0.2,0.8","1","",""
"","html-keyboard-response","181","52382","0.0-181.0","354P56DE9LPPXB17SG8BED5H61G7SD","A276XK6HT76JZA","3RBI0I35XEP26UEZY8S8UZLEA1IY3E","","null","<img src=""img/land2.png"" style=""width:200px; border:14px solid green;"">","null","","","","","","","","","",""
"","image-keyboard-response","182","52482","0.0-182.0","354P56DE9LPPXB17SG8BED5H61G7SD","A276XK6HT76JZA","3RBI0I35XEP26UEZY8S8UZLEA1IY3E","","100","img/land2.png","74","100","1","0","2","2","0.8,0.2,0.2,0.2,0.8,0.2,0.2,0.2,0.8","0.8,0.2,0.2,0.2,0.8,0.2,0.2,0.2,0.8","1","",""
"","html-keyboard-response","183","52784","0.0-183.0","354P56DE9LPPXB17SG8BED5H61G7SD","A276XK6HT76JZA","3RBI0I35XEP26UEZY8S8UZLEA1IY3E","","null","<img src=""img/land2.png"" style=""width:200px;border:14px solid red;"">","null","","","","","","","","","",""
"","image-keyboard-response","184","52908","0.0-184.0","354P56DE9LPPXB17SG8BED5H61G7SD","A276XK6HT76JZA","3RBI0I35XEP26UEZY8S8UZLEA1IY3E","","123","img/land5.png","76","126","3","0","1","2","0.8,0.2,0.2,0.2,0.8,0.2,0.2,0.2,0.8","0.8,0.2,0.2,0.2,0.8,0.2,0.2,0.2,0.8","1","",""
"","html-keyboard-response","185","53212","0.0-185.0","354P56DE9LPPXB17SG8BED5H61G7SD","A276XK6HT76JZA","3RBI0I35XEP26UEZY8S8UZLEA1IY3E","","null","<img src=""img/land5.png"" style=""width:200px;border:14px solid red;"">","null","","","","","","","","","",""
"","image-keyboard-response","186","53289","0.0-186.0","354P56DE9LPPXB17SG8BED5H61G7SD","A276XK6HT76JZA","3RBI0I35XEP26UEZY8S8UZLEA1IY3E","","63","img/land4.png","75","77","2","1","3","2","0.8,0.2,0.2,0.2,0.8,0.2,0.2,0.2,0.8","0.8,0.2,0.2,0.2,0.8,0.2,0.2,0.2,0.8","1","",""
"","html-keyboard-response","187","53592","0.0-187.0","354P56DE9LPPXB17SG8BED5H61G7SD","A276XK6HT76JZA","3RBI0I35XEP26UEZY8S8UZLEA1IY3E","","null","<img src=""img/land4.png"" style=""width:200px; border:14px solid green;"">","null","","","","","","","","","",""
"","image-keyboard-response","188","53695","0.0-188.0","354P56DE9LPPXB17SG8BED5H61G7SD","A276XK6HT76JZA","3RBI0I35XEP26UEZY8S8UZLEA1IY3E","","101","img/land5.png","75","103","2","0","1","2","0.8,0.2,0.2,0.2,0.8,0.2,0.2,0.2,0.8","0.8,0.2,0.2,0.2,0.8,0.2,0.2,0.2,0.8","1","",""
"","html-keyboard-response","189","53997","0.0-189.0","354P56DE9LPPXB17SG8BED5H61G7SD","A276XK6HT76JZA","3RBI0I35XEP26UEZY8S8UZLEA1IY3E","","null","<img src=""img/land5.png"" style=""width:200px;border:14px solid red;"">","null","","","","","","","","","",""
"","image-keyboard-response","190","54109","0.0-190.0","354P56DE9LPPXB17SG8BED5H61G7SD","A276XK6HT76JZA","3RBI0I35XEP26UEZY8S8UZLEA1IY3E","","112","img/land5.png","75","112","2","1","1","2","0.8,0.2,0.2,0.2,0.8,0.2,0.2,0.2,0.8","0.8,0.2,0.2,0.2,0.8,0.2,0.2,0.2,0.8","1","",""
"","html-keyboard-response","191","54410","0.0-191.0","354P56DE9LPPXB17SG8BED5H61G7SD","A276XK6HT76JZA","3RBI0I35XEP26UEZY8S8UZLEA1IY3E","","null","<img src=""img/land5.png"" style=""width:200px; border:14px solid green;"">","null","","","","","","","","","",""
"","image-keyboard-response","192","54431","0.0-192.0","354P56DE9LPPXB17SG8BED5H61G7SD","A276XK6HT76JZA","3RBI0I35XEP26UEZY8S8UZLEA1IY3E","","19","img/land5.png","74","20","1","1","1","2","0.8,0.2,0.2,0.2,0.8,0.2,0.2,0.2,0.8","0.8,0.2,0.2,0.2,0.8,0.2,0.2,0.2,0.8","1","",""
"","html-keyboard-response","193","54733","0.0-193.0","354P56DE9LPPXB17SG8BED5H61G7SD","A276XK6HT76JZA","3RBI0I35XEP26UEZY8S8UZLEA1IY3E","","null","<img src=""img/land5.png"" style=""width:200px; border:14px solid green;"">","null","","","","","","","","","",""
"","image-keyboard-response","194","54770","0.0-194.0","354P56DE9LPPXB17SG8BED5H61G7SD","A276XK6HT76JZA","3RBI0I35XEP26UEZY8S8UZLEA1IY3E","","35","img/land5.png","75","36","2","0","1","2","0.8,0.2,0.2,0.2,0.8,0.2,0.2,0.2,0.8","0.8,0.2,0.2,0.2,0.8,0.2,0.2,0.2,0.8","1","",""
"","html-keyboard-response","195","55072","0.0-195.0","354P56DE9LPPXB17SG8BED5H61G7SD","A276XK6HT76JZA","3RBI0I35XEP26UEZY8S8UZLEA1IY3E","","null","<img src=""img/land5.png"" style=""width:200px;border:14px solid red;"">","null","","","","","","","","","",""
"","image-keyboard-response","196","55082","0.0-196.0","354P56DE9LPPXB17SG8BED5H61G7SD","A276XK6HT76JZA","3RBI0I35XEP26UEZY8S8UZLEA1IY3E","","8","img/land4.png","74","9","1","0","3","2","0.8,0.2,0.2,0.2,0.8,0.2,0.2,0.2,0.8","0.8,0.2,0.2,0.2,0.8,0.2,0.2,0.2,0.8","1","",""
"","html-keyboard-response","197","55383","0.0-197.0","354P56DE9LPPXB17SG8BED5H61G7SD","A276XK6HT76JZA","3RBI0I35XEP26UEZY8S8UZLEA1IY3E","","null","<img src=""img/land4.png"" style=""width:200px;border:14px solid red;"">","null","","","","","","","","","",""
"","image-keyboard-response","198","55520","0.0-198.0","354P56DE9LPPXB17SG8BED5H61G7SD","A276XK6HT76JZA","3RBI0I35XEP26UEZY8S8UZLEA1IY3E","","136","img/land4.png","75","136","2","0","3","2","0.8,0.2,0.2,0.2,0.8,0.2,0.2,0.2,0.8","0.8,0.2,0.2,0.2,0.8,0.2,0.2,0.2,0.8","1","",""
"","html-keyboard-response","199","55822","0.0-199.0","354P56DE9LPPXB17SG8BED5H61G7SD","A276XK6HT76JZA","3RBI0I35XEP26UEZY8S8UZLEA1IY3E","","null","<img src=""img/land4.png"" style=""width:200px;border:14px solid red;"">","null","","","","","","","","","",""
"","image-keyboard-response","200","55866","0.0-200.0","354P56DE9LPPXB17SG8BED5H61G7SD","A276XK6HT76JZA","3RBI0I35XEP26UEZY8S8UZLEA1IY3E","","44","img/land2.png","75","45","2","0","2","2","0.8,0.2,0.2,0.2,0.8,0.2,0.2,0.2,0.8","0.8,0.2,0.2,0.2,0.8,0.2,0.2,0.2,0.8","1","",""
"","html-keyboard-response","201","56167","0.0-201.0","354P56DE9LPPXB17SG8BED5H61G7SD","A276XK6HT76JZA","3RBI0I35XEP26UEZY8S8UZLEA1IY3E","","null","<img src=""img/land2.png"" style=""width:200px;border:14px solid red;"">","null","","","","","","","","","",""
"","image-keyboard-response","202","56303","0.0-202.0","354P56DE9LPPXB17SG8BED5H61G7SD","A276XK6HT76JZA","3RBI0I35XEP26UEZY8S8UZLEA1IY3E","","135","img/land4.png","76","136","3","1","3","2","0.8,0.2,0.2,0.2,0.8,0.2,0.2,0.2,0.8","0.8,0.2,0.2,0.2,0.8,0.2,0.2,0.2,0.8","1","",""
"","html-keyboard-response","203","56604","0.0-203.0","354P56DE9LPPXB17SG8BED5H61G7SD","A276XK6HT76JZA","3RBI0I35XEP26UEZY8S8UZLEA1IY3E","","null","<img src=""img/land4.png"" style=""width:200px; border:14px solid green;"">","null","","","","","","","","","",""
"","image-keyboard-response","204","56726","0.0-204.0","354P56DE9LPPXB17SG8BED5H61G7SD","A276XK6HT76JZA","3RBI0I35XEP26UEZY8S8UZLEA1IY3E","","121","img/land5.png","76","121","3","0","1","2","0.8,0.2,0.2,0.2,0.8,0.2,0.2,0.2,0.8","0.8,0.2,0.2,0.2,0.8,0.2,0.2,0.2,0.8","1","",""
"","html-keyboard-response","205","57028","0.0-205.0","354P56DE9LPPXB17SG8BED5H61G7SD","A276XK6HT76JZA","3RBI0I35XEP26UEZY8S8UZLEA1IY3E","","null","<img src=""img/land5.png"" style=""width:200px;border:14px solid red;"">","null","","","","","","","","","",""
"","image-keyboard-response","206","57119","0.0-206.0","354P56DE9LPPXB17SG8BED5H61G7SD","A276XK6HT76JZA","3RBI0I35XEP26UEZY8S8UZLEA1IY3E","","89","img/land4.png","75","90","2","0","3","2","0.8,0.2,0.2,0.2,0.8,0.2,0.2,0.2,0.8","0.8,0.2,0.2,0.2,0.8,0.2,0.2,0.2,0.8","1","",""
"","html-keyboard-response","207","57422","0.0-207.0","354P56DE9LPPXB17SG8BED5H61G7SD","A276XK6HT76JZA","3RBI0I35XEP26UEZY8S8UZLEA1IY3E","","null","<img src=""img/land4.png"" style=""width:200px;border:14px solid red;"">","null","","","","","","","","","",""
"","image-keyboard-response","208","57443","0.0-208.0","354P56DE9LPPXB17SG8BED5H61G7SD","A276XK6HT76JZA","3RBI0I35XEP26UEZY8S8UZLEA1IY3E","","20","img/land5.png","74","21","1","1","1","2","0.8,0.2,0.2,0.2,0.8,0.2,0.2,0.2,0.8","0.8,0.2,0.2,0.2,0.8,0.2,0.2,0.2,0.8","1","",""
"","html-keyboard-response","209","57745","0.0-209.0","354P56DE9LPPXB17SG8BED5H61G7SD","A276XK6HT76JZA","3RBI0I35XEP26UEZY8S8UZLEA1IY3E","","null","<img src=""img/land5.png"" style=""width:200px; border:14px solid green;"">","null","","","","","","","","","",""
"","image-keyboard-response","210","57820","0.0-210.0","354P56DE9LPPXB17SG8BED5H61G7SD","A276XK6HT76JZA","3RBI0I35XEP26UEZY8S8UZLEA1IY3E","","74","img/land4.png","74","75","1","0","3","2","0.8,0.2,0.2,0.2,0.8,0.2,0.2,0.2,0.8","0.8,0.2,0.2,0.2,0.8,0.2,0.2,0.2,0.8","1","",""
"","html-keyboard-response","211","58122","0.0-211.0","354P56DE9LPPXB17SG8BED5H61G7SD","A276XK6HT76JZA","3RBI0I35XEP26UEZY8S8UZLEA1IY3E","","null","<img src=""img/land4.png"" style=""width:200px;border:14px solid red;"">","null","","","","","","","","","",""
"","image-keyboard-response","212","58248","0.0-212.0","354P56DE9LPPXB17SG8BED5H61G7SD","A276XK6HT76JZA","3RBI0I35XEP26UEZY8S8UZLEA1IY3E","","125","img/land5.png","75","125","2","0","1","2","0.8,0.2,0.2,0.2,0.8,0.2,0.2,0.2,0.8","0.8,0.2,0.2,0.2,0.8,0.2,0.2,0.2,0.8","1","",""
"","html-keyboard-response","213","58561","0.0-213.0","354P56DE9LPPXB17SG8BED5H61G7SD","A276XK6HT76JZA","3RBI0I35XEP26UEZY8S8UZLEA1IY3E","","null","<img src=""img/land5.png"" style=""width:200px;border:14px solid red;"">","null","","","","","","","","","",""
"","image-keyboard-response","214","58766","0.0-214.0","354P56DE9LPPXB17SG8BED5H61G7SD","A276XK6HT76JZA","3RBI0I35XEP26UEZY8S8UZLEA1IY3E","","203","img/land5.png","75","205","2","0","1","2","0.8,0.2,0.2,0.2,0.8,0.2,0.2,0.2,0.8","0.8,0.2,0.2,0.2,0.8,0.2,0.2,0.2,0.8","1","",""
"","html-keyboard-response","215","59068","0.0-215.0","354P56DE9LPPXB17SG8BED5H61G7SD","A276XK6HT76JZA","3RBI0I35XEP26UEZY8S8UZLEA1IY3E","","null","<img src=""img/land5.png"" style=""width:200px;border:14px solid red;"">","null","","","","","","","","","",""
"","image-keyboard-response","216","59224","0.0-216.0","354P56DE9LPPXB17SG8BED5H61G7SD","A276XK6HT76JZA","3RBI0I35XEP26UEZY8S8UZLEA1IY3E","","155","img/land5.png","76","156","3","0","1","2","0.8,0.2,0.2,0.2,0.8,0.2,0.2,0.2,0.8","0.8,0.2,0.2,0.2,0.8,0.2,0.2,0.2,0.8","1","",""
"","html-keyboard-response","217","59526","0.0-217.0","354P56DE9LPPXB17SG8BED5H61G7SD","A276XK6HT76JZA","3RBI0I35XEP26UEZY8S8UZLEA1IY3E","","null","<img src=""img/land5.png"" style=""width:200px;border:14px solid red;"">","null","","","","","","","","","",""
"","image-keyboard-response","218","59633","0.0-218.0","354P56DE9LPPXB17SG8BED5H61G7SD","A276XK6HT76JZA","3RBI0I35XEP26UEZY8S8UZLEA1IY3E","","106","img/land5.png","76","107","3","0","1","2","0.8,0.2,0.2,0.2,0.8,0.2,0.2,0.2,0.8","0.8,0.2,0.2,0.2,0.8,0.2,0.2,0.2,0.8","1","",""
"","html-keyboard-response","219","59937","0.0-219.0","354P56DE9LPPXB17SG8BED5H61G7SD","A276XK6HT76JZA","3RBI0I35XEP26UEZY8S8UZLEA1IY3E","","null","<img src=""img/land5.png"" style=""width:200px;border:14px solid red;"">","null","","","","","","","","","",""
"","image-keyboard-response","220","60063","0.0-220.0","354P56DE9LPPXB17SG8BED5H61G7SD","A276XK6HT76JZA","3RBI0I35XEP26UEZY8S8UZLEA1IY3E","","125","img/land5.png","75","126","2","0","1","2","0.8,0.2,0.2,0.2,0.8,0.2,0.2,0.2,0.8","0.8,0.2,0.2,0.2,0.8,0.2,0.2,0.2,0.8","1","",""
"","html-keyboard-response","221","60365","0.0-221.0","354P56DE9LPPXB17SG8BED5H61G7SD","A276XK6HT76JZA","3RBI0I35XEP26UEZY8S8UZLEA1IY3E","","null","<img src=""img/land5.png"" style=""width:200px;border:14px solid red;"">","null","","","","","","","","","",""
"","image-keyboard-response","222","60533","0.0-222.0","354P56DE9LPPXB17SG8BED5H61G7SD","A276XK6HT76JZA","3RBI0I35XEP26UEZY8S8UZLEA1IY3E","","167","img/land4.png","75","168","2","0","3","2","0.8,0.2,0.2,0.2,0.8,0.2,0.2,0.2,0.8","0.8,0.2,0.2,0.2,0.8,0.2,0.2,0.2,0.8","1","",""
"","html-keyboard-response","223","60835","0.0-223.0","354P56DE9LPPXB17SG8BED5H61G7SD","A276XK6HT76JZA","3RBI0I35XEP26UEZY8S8UZLEA1IY3E","","null","<img src=""img/land4.png"" style=""width:200px;border:14px solid red;"">","null","","","","","","","","","",""
"","image-keyboard-response","224","60968","0.0-224.0","354P56DE9LPPXB17SG8BED5H61G7SD","A276XK6HT76JZA","3RBI0I35XEP26UEZY8S8UZLEA1IY3E","","132","img/land4.png","75","133","2","0","3","2","0.8,0.2,0.2,0.2,0.8,0.2,0.2,0.2,0.8","0.8,0.2,0.2,0.2,0.8,0.2,0.2,0.2,0.8","1","",""
"","html-keyboard-response","225","61270","0.0-225.0","354P56DE9LPPXB17SG8BED5H61G7SD","A276XK6HT76JZA","3RBI0I35XEP26UEZY8S8UZLEA1IY3E","","null","<img src=""img/land4.png"" style=""width:200px;border:14px solid red;"">","null","","","","","","","","","",""
"","image-keyboard-response","226","61393","0.0-226.0","354P56DE9LPPXB17SG8BED5H61G7SD","A276XK6HT76JZA","3RBI0I35XEP26UEZY8S8UZLEA1IY3E","","122","img/land2.png","75","122","2","1","2","2","0.8,0.2,0.2,0.2,0.8,0.2,0.2,0.2,0.8","0.8,0.2,0.2,0.2,0.8,0.2,0.2,0.2,0.8","1","",""
"","html-keyboard-response","227","61695","0.0-227.0","354P56DE9LPPXB17SG8BED5H61G7SD","A276XK6HT76JZA","3RBI0I35XEP26UEZY8S8UZLEA1IY3E","","null","<img src=""img/land2.png"" style=""width:200px; border:14px solid green;"">","null","","","","","","","","","",""
"","image-keyboard-response","228","61854","0.0-228.0","354P56DE9LPPXB17SG8BED5H61G7SD","A276XK6HT76JZA","3RBI0I35XEP26UEZY8S8UZLEA1IY3E","","158","img/land5.png","75","160","2","1","1","2","0.8,0.2,0.2,0.2,0.8,0.2,0.2,0.2,0.8","0.8,0.2,0.2,0.2,0.8,0.2,0.2,0.2,0.8","1","",""
"","html-keyboard-response","229","62157","0.0-229.0","354P56DE9LPPXB17SG8BED5H61G7SD","A276XK6HT76JZA","3RBI0I35XEP26UEZY8S8UZLEA1IY3E","","null","<img src=""img/land5.png"" style=""width:200px; border:14px solid green;"">","null","","","","","","","","","",""
"","image-keyboard-response","230","62254","0.0-230.0","354P56DE9LPPXB17SG8BED5H61G7SD","A276XK6HT76JZA","3RBI0I35XEP26UEZY8S8UZLEA1IY3E","","97","img/land5.png","75","97","2","0","1","2","0.8,0.2,0.2,0.2,0.8,0.2,0.2,0.2,0.8","0.8,0.2,0.2,0.2,0.8,0.2,0.2,0.2,0.8","1","",""
"","html-keyboard-response","231","62556","0.0-231.0","354P56DE9LPPXB17SG8BED5H61G7SD","A276XK6HT76JZA","3RBI0I35XEP26UEZY8S8UZLEA1IY3E","","null","<img src=""img/land5.png"" style=""width:200px;border:14px solid red;"">","null","","","","","","","","","",""
"","image-keyboard-response","232","62647","0.0-232.0","354P56DE9LPPXB17SG8BED5H61G7SD","A276XK6HT76JZA","3RBI0I35XEP26UEZY8S8UZLEA1IY3E","","89","img/land5.png","76","90","3","0","1","2","0.8,0.2,0.2,0.2,0.8,0.2,0.2,0.2,0.8","0.8,0.2,0.2,0.2,0.8,0.2,0.2,0.2,0.8","1","",""
"","html-keyboard-response","233","62949","0.0-233.0","354P56DE9LPPXB17SG8BED5H61G7SD","A276XK6HT76JZA","3RBI0I35XEP26UEZY8S8UZLEA1IY3E","","null","<img src=""img/land5.png"" style=""width:200px;border:14px solid red;"">","null","","","","","","","","","",""
"","image-keyboard-response","234","63114","0.0-234.0","354P56DE9LPPXB17SG8BED5H61G7SD","A276XK6HT76JZA","3RBI0I35XEP26UEZY8S8UZLEA1IY3E","","165","img/land5.png","74","165","1","1","1","2","0.8,0.2,0.2,0.2,0.8,0.2,0.2,0.2,0.8","0.8,0.2,0.2,0.2,0.8,0.2,0.2,0.2,0.8","1","",""
"","html-keyboard-response","235","63415","0.0-235.0","354P56DE9LPPXB17SG8BED5H61G7SD","A276XK6HT76JZA","3RBI0I35XEP26UEZY8S8UZLEA1IY3E","","null","<img src=""img/land5.png"" style=""width:200px; border:14px solid green;"">","null","","","","","","","","","",""
"","image-keyboard-response","236","63574","0.0-236.0","354P56DE9LPPXB17SG8BED5H61G7SD","A276XK6HT76JZA","3RBI0I35XEP26UEZY8S8UZLEA1IY3E","","157","img/land5.png","75","159","2","0","1","2","0.8,0.2,0.2,0.2,0.8,0.2,0.2,0.2,0.8","0.8,0.2,0.2,0.2,0.8,0.2,0.2,0.2,0.8","1","",""
"","html-keyboard-response","237","63876","0.0-237.0","354P56DE9LPPXB17SG8BED5H61G7SD","A276XK6HT76JZA","3RBI0I35XEP26UEZY8S8UZLEA1IY3E","","null","<img src=""img/land5.png"" style=""width:200px;border:14px solid red;"">","null","","","","","","","","","",""
"","image-keyboard-response","238","64007","0.0-238.0","354P56DE9LPPXB17SG8BED5H61G7SD","A276XK6HT76JZA","3RBI0I35XEP26UEZY8S8UZLEA1IY3E","","129","img/land5.png","74","130","1","1","1","2","0.8,0.2,0.2,0.2,0.8,0.2,0.2,0.2,0.8","0.8,0.2,0.2,0.2,0.8,0.2,0.2,0.2,0.8","1","",""
"","html-keyboard-response","239","64310","0.0-239.0","354P56DE9LPPXB17SG8BED5H61G7SD","A276XK6HT76JZA","3RBI0I35XEP26UEZY8S8UZLEA1IY3E","","null","<img src=""img/land5.png"" style=""width:200px; border:14px solid green;"">","null","","","","","","","","","",""
"","image-keyboard-response","240","64435","0.0-240.0","354P56DE9LPPXB17SG8BED5H61G7SD","A276XK6HT76JZA","3RBI0I35XEP26UEZY8S8UZLEA1IY3E","","123","img/land2.png","74","124","1","0","2","2","0.8,0.2,0.2,0.2,0.8,0.2,0.2,0.2,0.8","0.8,0.2,0.2,0.2,0.8,0.2,0.2,0.2,0.8","1","",""
"","html-keyboard-response","241","64737","0.0-241.0","354P56DE9LPPXB17SG8BED5H61G7SD","A276XK6HT76JZA","3RBI0I35XEP26UEZY8S8UZLEA1IY3E","","null","<img src=""img/land2.png"" style=""width:200px;border:14px solid red;"">","null","","","","","","","","","",""
"","image-keyboard-response","242","64851","0.0-242.0","354P56DE9LPPXB17SG8BED5H61G7SD","A276XK6HT76JZA","3RBI0I35XEP26UEZY8S8UZLEA1IY3E","","112","img/land5.png","74","114","1","1","1","2","0.8,0.2,0.2,0.2,0.8,0.2,0.2,0.2,0.8","0.8,0.2,0.2,0.2,0.8,0.2,0.2,0.2,0.8","1","",""
"","html-keyboard-response","243","65156","0.0-243.0","354P56DE9LPPXB17SG8BED5H61G7SD","A276XK6HT76JZA","3RBI0I35XEP26UEZY8S8UZLEA1IY3E","","null","<img src=""img/land5.png"" style=""width:200px; border:14px solid green;"">","null","","","","","","","","","",""
"","image-keyboard-response","244","65281","0.0-244.0","354P56DE9LPPXB17SG8BED5H61G7SD","A276XK6HT76JZA","3RBI0I35XEP26UEZY8S8UZLEA1IY3E","","124","img/land4.png","74","124","1","0","3","2","0.8,0.2,0.2,0.2,0.8,0.2,0.2,0.2,0.8","0.8,0.2,0.2,0.2,0.8,0.2,0.2,0.2,0.8","1","",""
"","html-keyboard-response","245","65582","0.0-245.0","354P56DE9LPPXB17SG8BED5H61G7SD","A276XK6HT76JZA","3RBI0I35XEP26UEZY8S8UZLEA1IY3E","","null","<img src=""img/land4.png"" style=""width:200px;border:14px solid red;"">","null","","","","","","","","","",""
"","image-keyboard-response","246","65693","0.0-246.0","354P56DE9LPPXB17SG8BED5H61G7SD","A276XK6HT76JZA","3RBI0I35XEP26UEZY8S8UZLEA1IY3E","","108","img/land5.png","76","109","3","1","1","2","0.8,0.2,0.2,0.2,0.8,0.2,0.2,0.2,0.8","0.8,0.2,0.2,0.2,0.8,0.2,0.2,0.2,0.8","1","",""
"","html-keyboard-response","247","65993","0.0-247.0","354P56DE9LPPXB17SG8BED5H61G7SD","A276XK6HT76JZA","3RBI0I35XEP26UEZY8S8UZLEA1IY3E","","null","<img src=""img/land5.png"" style=""width:200px; border:14px solid green;"">","null","","","","","","","","","",""
"","image-keyboard-response","248","66197","0.0-248.0","354P56DE9LPPXB17SG8BED5H61G7SD","A276XK6HT76JZA","3RBI0I35XEP26UEZY8S8UZLEA1IY3E","","203","img/land5.png","76","204","3","0","1","2","0.8,0.2,0.2,0.2,0.8,0.2,0.2,0.2,0.8","0.8,0.2,0.2,0.2,0.8,0.2,0.2,0.2,0.8","1","",""
"","html-keyboard-response","249","66502","0.0-249.0","354P56DE9LPPXB17SG8BED5H61G7SD","A276XK6HT76JZA","3RBI0I35XEP26UEZY8S8UZLEA1IY3E","","null","<img src=""img/land5.png"" style=""width:200px;border:14px solid red;"">","null","","","","","","","","","",""
"","image-keyboard-response","250","66524","0.0-250.0","354P56DE9LPPXB17SG8BED5H61G7SD","A276XK6HT76JZA","3RBI0I35XEP26UEZY8S8UZLEA1IY3E","","20","img/land4.png","76","22","3","1","3","2","0.8,0.2,0.2,0.2,0.8,0.2,0.2,0.2,0.8","0.8,0.2,0.2,0.2,0.8,0.2,0.2,0.2,0.8","1","",""
"","html-keyboard-response","251","66825","0.0-251.0","354P56DE9LPPXB17SG8BED5H61G7SD","A276XK6HT76JZA","3RBI0I35XEP26UEZY8S8UZLEA1IY3E","","null","<img src=""img/land4.png"" style=""width:200px; border:14px solid green;"">","null","","","","","","","","","",""
"","image-keyboard-response","252","66998","0.0-252.0","354P56DE9LPPXB17SG8BED5H61G7SD","A276XK6HT76JZA","3RBI0I35XEP26UEZY8S8UZLEA1IY3E","","172","img/land5.png","76","172","3","0","1","2","0.8,0.2,0.2,0.2,0.8,0.2,0.2,0.2,0.8","0.8,0.2,0.2,0.2,0.8,0.2,0.2,0.2,0.8","1","",""
"","html-keyboard-response","253","67301","0.0-253.0","354P56DE9LPPXB17SG8BED5H61G7SD","A276XK6HT76JZA","3RBI0I35XEP26UEZY8S8UZLEA1IY3E","","null","<img src=""img/land5.png"" style=""width:200px;border:14px solid red;"">","null","","","","","","","","","",""
"","image-keyboard-response","254","67434","0.0-254.0","354P56DE9LPPXB17SG8BED5H61G7SD","A276XK6HT76JZA","3RBI0I35XEP26UEZY8S8UZLEA1IY3E","","132","img/land2.png","76","133","3","0","2","2","0.8,0.2,0.2,0.2,0.8,0.2,0.2,0.2,0.8","0.8,0.2,0.2,0.2,0.8,0.2,0.2,0.2,0.8","1","",""
"","html-keyboard-response","255","67736","0.0-255.0","354P56DE9LPPXB17SG8BED5H61G7SD","A276XK6HT76JZA","3RBI0I35XEP26UEZY8S8UZLEA1IY3E","","null","<img src=""img/land2.png"" style=""width:200px;border:14px solid red;"">","null","","","","","","","","","",""
"","image-keyboard-response","256","67814","0.0-256.0","354P56DE9LPPXB17SG8BED5H61G7SD","A276XK6HT76JZA","3RBI0I35XEP26UEZY8S8UZLEA1IY3E","","77","img/land5.png","74","78","1","1","1","2","0.8,0.2,0.2,0.2,0.8,0.2,0.2,0.2,0.8","0.8,0.2,0.2,0.2,0.8,0.2,0.2,0.2,0.8","1","",""
"","html-keyboard-response","257","68115","0.0-257.0","354P56DE9LPPXB17SG8BED5H61G7SD","A276XK6HT76JZA","3RBI0I35XEP26UEZY8S8UZLEA1IY3E","","null","<img src=""img/land5.png"" style=""width:200px; border:14px solid green;"">","null","","","","","","","","","",""
"","image-keyboard-response","258","68236","0.0-258.0","354P56DE9LPPXB17SG8BED5H61G7SD","A276XK6HT76JZA","3RBI0I35XEP26UEZY8S8UZLEA1IY3E","","119","img/land5.png","75","121","2","0","1","2","0.8,0.2,0.2,0.2,0.8,0.2,0.2,0.2,0.8","0.8,0.2,0.2,0.2,0.8,0.2,0.2,0.2,0.8","1","",""
"","html-keyboard-response","259","68538","0.0-259.0","354P56DE9LPPXB17SG8BED5H61G7SD","A276XK6HT76JZA","3RBI0I35XEP26UEZY8S8UZLEA1IY3E","","null","<img src=""img/land5.png"" style=""width:200px;border:14px solid red;"">","null","","","","","","","","","",""
"","image-keyboard-response","260","68653","0.0-260.0","354P56DE9LPPXB17SG8BED5H61G7SD","A276XK6HT76JZA","3RBI0I35XEP26UEZY8S8UZLEA1IY3E","","113","img/land4.png","75","115","2","0","3","2","0.8,0.2,0.2,0.2,0.8,0.2,0.2,0.2,0.8","0.8,0.2,0.2,0.2,0.8,0.2,0.2,0.2,0.8","1","",""
"","html-keyboard-response","261","68954","0.0-261.0","354P56DE9LPPXB17SG8BED5H61G7SD","A276XK6HT76JZA","3RBI0I35XEP26UEZY8S8UZLEA1IY3E","","null","<img src=""img/land4.png"" style=""width:200px;border:14px solid red;"">","null","","","","","","","","","",""
"","image-keyboard-response","262","69091","0.0-262.0","354P56DE9LPPXB17SG8BED5H61G7SD","A276XK6HT76JZA","3RBI0I35XEP26UEZY8S8UZLEA1IY3E","","136","img/land2.png","75","136","2","1","2","2","0.8,0.2,0.2,0.2,0.8,0.2,0.2,0.2,0.8","0.8,0.2,0.2,0.2,0.8,0.2,0.2,0.2,0.8","1","",""
"","html-keyboard-response","263","69393","0.0-263.0","354P56DE9LPPXB17SG8BED5H61G7SD","A276XK6HT76JZA","3RBI0I35XEP26UEZY8S8UZLEA1IY3E","","null","<img src=""img/land2.png"" style=""width:200px; border:14px solid green;"">","null","","","","","","","","","",""
"","image-keyboard-response","264","69557","0.0-264.0","354P56DE9LPPXB17SG8BED5H61G7SD","A276XK6HT76JZA","3RBI0I35XEP26UEZY8S8UZLEA1IY3E","","162","img/land2.png","75","163","2","1","2","2","0.8,0.2,0.2,0.2,0.8,0.2,0.2,0.2,0.8","0.8,0.2,0.2,0.2,0.8,0.2,0.2,0.2,0.8","1","",""
"","html-keyboard-response","265","69860","0.0-265.0","354P56DE9LPPXB17SG8BED5H61G7SD","A276XK6HT76JZA","3RBI0I35XEP26UEZY8S8UZLEA1IY3E","","null","<img src=""img/land2.png"" style=""width:200px; border:14px solid green;"">","null","","","","","","","","","",""
"","image-keyboard-response","266","69983","0.0-266.0","354P56DE9LPPXB17SG8BED5H61G7SD","A276XK6HT76JZA","3RBI0I35XEP26UEZY8S8UZLEA1IY3E","","122","img/land2.png","75","124","2","1","2","2","0.8,0.2,0.2,0.2,0.8,0.2,0.2,0.2,0.8","0.8,0.2,0.2,0.2,0.8,0.2,0.2,0.2,0.8","1","",""
"","html-keyboard-response","267","70284","0.0-267.0","354P56DE9LPPXB17SG8BED5H61G7SD","A276XK6HT76JZA","3RBI0I35XEP26UEZY8S8UZLEA1IY3E","","null","<img src=""img/land2.png"" style=""width:200px; border:14px solid green;"">","null","","","","","","","","","",""
"","image-keyboard-response","268","70475","0.0-268.0","354P56DE9LPPXB17SG8BED5H61G7SD","A276XK6HT76JZA","3RBI0I35XEP26UEZY8S8UZLEA1IY3E","","177","img/land5.png","75","191","2","0","1","2","0.8,0.2,0.2,0.2,0.8,0.2,0.2,0.2,0.8","0.8,0.2,0.2,0.2,0.8,0.2,0.2,0.2,0.8","1","",""
"","html-keyboard-response","269","70777","0.0-269.0","354P56DE9LPPXB17SG8BED5H61G7SD","A276XK6HT76JZA","3RBI0I35XEP26UEZY8S8UZLEA1IY3E","","null","<img src=""img/land5.png"" style=""width:200px;border:14px solid red;"">","null","","","","","","","","","",""
"","image-keyboard-response","270","70927","0.0-270.0","354P56DE9LPPXB17SG8BED5H61G7SD","A276XK6HT76JZA","3RBI0I35XEP26UEZY8S8UZLEA1IY3E","","148","img/land5.png","76","150","3","0","1","2","0.8,0.2,0.2,0.2,0.8,0.2,0.2,0.2,0.8","0.8,0.2,0.2,0.2,0.8,0.2,0.2,0.2,0.8","1","",""
"","html-keyboard-response","271","71229","0.0-271.0","354P56DE9LPPXB17SG8BED5H61G7SD","A276XK6HT76JZA","3RBI0I35XEP26UEZY8S8UZLEA1IY3E","","null","<img src=""img/land5.png"" style=""width:200px;border:14px solid red;"">","null","","","","","","","","","",""
"","image-keyboard-response","272","71360","0.0-272.0","354P56DE9LPPXB17SG8BED5H61G7SD","A276XK6HT76JZA","3RBI0I35XEP26UEZY8S8UZLEA1IY3E","","129","img/land5.png","76","130","3","0","1","2","0.8,0.2,0.2,0.2,0.8,0.2,0.2,0.2,0.8","0.8,0.2,0.2,0.2,0.8,0.2,0.2,0.2,0.8","1","",""
"","html-keyboard-response","273","71662","0.0-273.0","354P56DE9LPPXB17SG8BED5H61G7SD","A276XK6HT76JZA","3RBI0I35XEP26UEZY8S8UZLEA1IY3E","","null","<img src=""img/land5.png"" style=""width:200px;border:14px solid red;"">","null","","","","","","","","","",""
"","image-keyboard-response","274","71728","0.0-274.0","354P56DE9LPPXB17SG8BED5H61G7SD","A276XK6HT76JZA","3RBI0I35XEP26UEZY8S8UZLEA1IY3E","","64","img/land5.png","74","65","1","1","1","2","0.8,0.2,0.2,0.2,0.8,0.2,0.2,0.2,0.8","0.8,0.2,0.2,0.2,0.8,0.2,0.2,0.2,0.8","1","",""
"","html-keyboard-response","275","72040","0.0-275.0","354P56DE9LPPXB17SG8BED5H61G7SD","A276XK6HT76JZA","3RBI0I35XEP26UEZY8S8UZLEA1IY3E","","null","<img src=""img/land5.png"" style=""width:200px; border:14px solid green;"">","null","","","","","","","","","",""
"","image-keyboard-response","276","72106","0.0-276.0","354P56DE9LPPXB17SG8BED5H61G7SD","A276XK6HT76JZA","3RBI0I35XEP26UEZY8S8UZLEA1IY3E","","64","img/land5.png","75","64","2","0","1","2","0.8,0.2,0.2,0.2,0.8,0.2,0.2,0.2,0.8","0.8,0.2,0.2,0.2,0.8,0.2,0.2,0.2,0.8","1","",""
"","html-keyboard-response","277","72408","0.0-277.0","354P56DE9LPPXB17SG8BED5H61G7SD","A276XK6HT76JZA","3RBI0I35XEP26UEZY8S8UZLEA1IY3E","","null","<img src=""img/land5.png"" style=""width:200px;border:14px solid red;"">","null","","","","","","","","","",""
"","image-keyboard-response","278","72561","0.0-278.0","354P56DE9LPPXB17SG8BED5H61G7SD","A276XK6HT76JZA","3RBI0I35XEP26UEZY8S8UZLEA1IY3E","","152","img/land5.png","75","153","2","0","1","2","0.8,0.2,0.2,0.2,0.8,0.2,0.2,0.2,0.8","0.8,0.2,0.2,0.2,0.8,0.2,0.2,0.2,0.8","1","",""
"","html-keyboard-response","279","72862","0.0-279.0","354P56DE9LPPXB17SG8BED5H61G7SD","A276XK6HT76JZA","3RBI0I35XEP26UEZY8S8UZLEA1IY3E","","null","<img src=""img/land5.png"" style=""width:200px;border:14px solid red;"">","null","","","","","","","","","",""
"","image-keyboard-response","280","73017","0.0-280.0","354P56DE9LPPXB17SG8BED5H61G7SD","A276XK6HT76JZA","3RBI0I35XEP26UEZY8S8UZLEA1IY3E","","154","img/land5.png","75","154","2","0","1","2","0.8,0.2,0.2,0.2,0.8,0.2,0.2,0.2,0.8","0.8,0.2,0.2,0.2,0.8,0.2,0.2,0.2,0.8","1","",""
"","html-keyboard-response","281","73319","0.0-281.0","354P56DE9LPPXB17SG8BED5H61G7SD","A276XK6HT76JZA","3RBI0I35XEP26UEZY8S8UZLEA1IY3E","","null","<img src=""img/land5.png"" style=""width:200px;border:14px solid red;"">","null","","","","","","","","","",""
"","image-keyboard-response","282","73480","0.0-282.0","354P56DE9LPPXB17SG8BED5H61G7SD","A276XK6HT76JZA","3RBI0I35XEP26UEZY8S8UZLEA1IY3E","","160","img/land5.png","74","162","1","1","1","2","0.8,0.2,0.2,0.2,0.8,0.2,0.2,0.2,0.8","0.8,0.2,0.2,0.2,0.8,0.2,0.2,0.2,0.8","1","",""
"","html-keyboard-response","283","73782","0.0-283.0","354P56DE9LPPXB17SG8BED5H61G7SD","A276XK6HT76JZA","3RBI0I35XEP26UEZY8S8UZLEA1IY3E","","null","<img src=""img/land5.png"" style=""width:200px; border:14px solid green;"">","null","","","","","","","","","",""
"","image-keyboard-response","284","73912","0.0-284.0","354P56DE9LPPXB17SG8BED5H61G7SD","A276XK6HT76JZA","3RBI0I35XEP26UEZY8S8UZLEA1IY3E","","130","img/land5.png","75","130","2","0","1","2","0.8,0.2,0.2,0.2,0.8,0.2,0.2,0.2,0.8","0.8,0.2,0.2,0.2,0.8,0.2,0.2,0.2,0.8","1","",""
"","html-keyboard-response","285","74215","0.0-285.0","354P56DE9LPPXB17SG8BED5H61G7SD","A276XK6HT76JZA","3RBI0I35XEP26UEZY8S8UZLEA1IY3E","","null","<img src=""img/land5.png"" style=""width:200px;border:14px solid red;"">","null","","","","","","","","","",""
"","image-keyboard-response","286","74365","0.0-286.0","354P56DE9LPPXB17SG8BED5H61G7SD","A276XK6HT76JZA","3RBI0I35XEP26UEZY8S8UZLEA1IY3E","","150","img/land5.png","75","150","2","1","1","2","0.8,0.2,0.2,0.2,0.8,0.2,0.2,0.2,0.8","0.8,0.2,0.2,0.2,0.8,0.2,0.2,0.2,0.8","1","",""
"","html-keyboard-response","287","74666","0.0-287.0","354P56DE9LPPXB17SG8BED5H61G7SD","A276XK6HT76JZA","3RBI0I35XEP26UEZY8S8UZLEA1IY3E","","null","<img src=""img/land5.png"" style=""width:200px; border:14px solid green;"">","null","","","","","","","","","",""
"","image-keyboard-response","288","74766","0.0-288.0","354P56DE9LPPXB17SG8BED5H61G7SD","A276XK6HT76JZA","3RBI0I35XEP26UEZY8S8UZLEA1IY3E","","98","img/land5.png","74","100","1","0","1","2","0.8,0.2,0.2,0.2,0.8,0.2,0.2,0.2,0.8","0.8,0.2,0.2,0.2,0.8,0.2,0.2,0.2,0.8","1","",""
"","html-keyboard-response","289","75069","0.0-289.0","354P56DE9LPPXB17SG8BED5H61G7SD","A276XK6HT76JZA","3RBI0I35XEP26UEZY8S8UZLEA1IY3E","","null","<img src=""img/land5.png"" style=""width:200px;border:14px solid red;"">","null","","","","","","","","","",""
"","image-keyboard-response","290","75209","0.0-290.0","354P56DE9LPPXB17SG8BED5H61G7SD","A276XK6HT76JZA","3RBI0I35XEP26UEZY8S8UZLEA1IY3E","","139","img/land5.png","75","140","2","0","1","2","0.8,0.2,0.2,0.2,0.8,0.2,0.2,0.2,0.8","0.8,0.2,0.2,0.2,0.8,0.2,0.2,0.2,0.8","1","",""
"","html-keyboard-response","291","75512","0.0-291.0","354P56DE9LPPXB17SG8BED5H61G7SD","A276XK6HT76JZA","3RBI0I35XEP26UEZY8S8UZLEA1IY3E","","null","<img src=""img/land5.png"" style=""width:200px;border:14px solid red;"">","null","","","","","","","","","",""
"","image-keyboard-response","292","75572","0.0-292.0","354P56DE9LPPXB17SG8BED5H61G7SD","A276XK6HT76JZA","3RBI0I35XEP26UEZY8S8UZLEA1IY3E","","57","img/land5.png","76","61","3","1","1","2","0.8,0.2,0.2,0.2,0.8,0.2,0.2,0.2,0.8","0.8,0.2,0.2,0.2,0.8,0.2,0.2,0.2,0.8","1","",""
"","html-keyboard-response","293","75874","0.0-293.0","354P56DE9LPPXB17SG8BED5H61G7SD","A276XK6HT76JZA","3RBI0I35XEP26UEZY8S8UZLEA1IY3E","","null","<img src=""img/land5.png"" style=""width:200px; border:14px solid green;"">","null","","","","","","","","","",""
"","image-keyboard-response","294","76018","0.0-294.0","354P56DE9LPPXB17SG8BED5H61G7SD","A276XK6HT76JZA","3RBI0I35XEP26UEZY8S8UZLEA1IY3E","","143","img/land5.png","76","144","3","1","1","2","0.8,0.2,0.2,0.2,0.8,0.2,0.2,0.2,0.8","0.8,0.2,0.2,0.2,0.8,0.2,0.2,0.2,0.8","1","",""
"","html-keyboard-response","295","76321","0.0-295.0","354P56DE9LPPXB17SG8BED5H61G7SD","A276XK6HT76JZA","3RBI0I35XEP26UEZY8S8UZLEA1IY3E","","null","<img src=""img/land5.png"" style=""width:200px; border:14px solid green;"">","null","","","","","","","","","",""
"","image-keyboard-response","296","76837","0.0-296.0","354P56DE9LPPXB17SG8BED5H61G7SD","A276XK6HT76JZA","3RBI0I35XEP26UEZY8S8UZLEA1IY3E","","513","img/land4.png","76","516","3","0","3","2","0.8,0.2,0.2,0.2,0.8,0.2,0.2,0.2,0.8","0.8,0.2,0.2,0.2,0.8,0.2,0.2,0.2,0.8","1","",""
"","html-keyboard-response","297","77140","0.0-297.0","354P56DE9LPPXB17SG8BED5H61G7SD","A276XK6HT76JZA","3RBI0I35XEP26UEZY8S8UZLEA1IY3E","","null","<img src=""img/land4.png"" style=""width:200px;border:14px solid red;"">","null","","","","","","","","","",""
"","image-keyboard-response","298","77155","0.0-298.0","354P56DE9LPPXB17SG8BED5H61G7SD","A276XK6HT76JZA","3RBI0I35XEP26UEZY8S8UZLEA1IY3E","","14","img/land5.png","74","15","1","1","1","2","0.8,0.2,0.2,0.2,0.8,0.2,0.2,0.2,0.8","0.8,0.2,0.2,0.2,0.8,0.2,0.2,0.2,0.8","1","",""
"","html-keyboard-response","299","77455","0.0-299.0","354P56DE9LPPXB17SG8BED5H61G7SD","A276XK6HT76JZA","3RBI0I35XEP26UEZY8S8UZLEA1IY3E","","null","<img src=""img/land5.png"" style=""width:200px; border:14px solid green;"">","null","","","","","","","","","",""
"","image-keyboard-response","300","77649","0.0-300.0","354P56DE9LPPXB17SG8BED5H61G7SD","A276XK6HT76JZA","3RBI0I35XEP26UEZY8S8UZLEA1IY3E","","191","img/land5.png","76","193","3","0","1","2","0.8,0.2,0.2,0.2,0.8,0.2,0.2,0.2,0.8","0.8,0.2,0.2,0.2,0.8,0.2,0.2,0.2,0.8","1","",""
"","html-keyboard-response","301","77952","0.0-301.0","354P56DE9LPPXB17SG8BED5H61G7SD","A276XK6HT76JZA","3RBI0I35XEP26UEZY8S8UZLEA1IY3E","","null","<img src=""img/land5.png"" style=""width:200px;border:14px solid red;"">","null","","","","","","","","","",""
"","image-keyboard-response","302","78181","0.0-302.0","354P56DE9LPPXB17SG8BED5H61G7SD","A276XK6HT76JZA","3RBI0I35XEP26UEZY8S8UZLEA1IY3E","","226","img/land3.png","75","229","2","1","2","1","0.8,0.2,0.2,0.2,0.8,0.2,0.2,0.2,0.8","0.8,0.2,0.2,0.2,0.8,0.2,0.2,0.2,0.8","1","",""
"","html-keyboard-response","303","78483","0.0-303.0","354P56DE9LPPXB17SG8BED5H61G7SD","A276XK6HT76JZA","3RBI0I35XEP26UEZY8S8UZLEA1IY3E","","null","<img src=""img/land3.png"" style=""width:200px; border:14px solid green;"">","null","","","","","","","","","",""
"","image-keyboard-response","304","78637","0.0-304.0","354P56DE9LPPXB17SG8BED5H61G7SD","A276XK6HT76JZA","3RBI0I35XEP26UEZY8S8UZLEA1IY3E","","152","img/land1.png","74","153","1","0","3","1","0.8,0.2,0.2,0.2,0.8,0.2,0.2,0.2,0.8","0.8,0.2,0.2,0.2,0.8,0.2,0.2,0.2,0.8","1","",""
"","html-keyboard-response","305","78939","0.0-305.0","354P56DE9LPPXB17SG8BED5H61G7SD","A276XK6HT76JZA","3RBI0I35XEP26UEZY8S8UZLEA1IY3E","","null","<img src=""img/land1.png"" style=""width:200px;border:14px solid red;"">","null","","","","","","","","","",""
"","image-keyboard-response","306","79002","0.0-306.0","354P56DE9LPPXB17SG8BED5H61G7SD","A276XK6HT76JZA","3RBI0I35XEP26UEZY8S8UZLEA1IY3E","","61","img/land1.png","74","62","1","0","3","1","0.8,0.2,0.2,0.2,0.8,0.2,0.2,0.2,0.8","0.8,0.2,0.2,0.2,0.8,0.2,0.2,0.2,0.8","1","",""
"","html-keyboard-response","307","79314","0.0-307.0","354P56DE9LPPXB17SG8BED5H61G7SD","A276XK6HT76JZA","3RBI0I35XEP26UEZY8S8UZLEA1IY3E","","null","<img src=""img/land1.png"" style=""width:200px;border:14px solid red;"">","null","","","","","","","","","",""
"","image-keyboard-response","308","79346","0.0-308.0","354P56DE9LPPXB17SG8BED5H61G7SD","A276XK6HT76JZA","3RBI0I35XEP26UEZY8S8UZLEA1IY3E","","30","img/land3.png","76","32","3","0","2","1","0.8,0.2,0.2,0.2,0.8,0.2,0.2,0.2,0.8","0.8,0.2,0.2,0.2,0.8,0.2,0.2,0.2,0.8","1","",""
"","html-keyboard-response","309","79647","0.0-309.0","354P56DE9LPPXB17SG8BED5H61G7SD","A276XK6HT76JZA","3RBI0I35XEP26UEZY8S8UZLEA1IY3E","","null","<img src=""img/land3.png"" style=""width:200px;border:14px solid red;"">","null","","","","","","","","","",""
"","image-keyboard-response","310","79723","0.0-310.0","354P56DE9LPPXB17SG8BED5H61G7SD","A276XK6HT76JZA","3RBI0I35XEP26UEZY8S8UZLEA1IY3E","","74","img/land3.png","75","76","2","0","2","1","0.8,0.2,0.2,0.2,0.8,0.2,0.2,0.2,0.8","0.8,0.2,0.2,0.2,0.8,0.2,0.2,0.2,0.8","1","",""
"","html-keyboard-response","311","80025","0.0-311.0","354P56DE9LPPXB17SG8BED5H61G7SD","A276XK6HT76JZA","3RBI0I35XEP26UEZY8S8UZLEA1IY3E","","null","<img src=""img/land3.png"" style=""width:200px;border:14px solid red;"">","null","","","","","","","","","",""
"","image-keyboard-response","312","80044","0.0-312.0","354P56DE9LPPXB17SG8BED5H61G7SD","A276XK6HT76JZA","3RBI0I35XEP26UEZY8S8UZLEA1IY3E","","17","img/land1.png","74","19","1","0","3","1","0.8,0.2,0.2,0.2,0.8,0.2,0.2,0.2,0.8","0.8,0.2,0.2,0.2,0.8,0.2,0.2,0.2,0.8","1","",""
"","html-keyboard-response","313","80346","0.0-313.0","354P56DE9LPPXB17SG8BED5H61G7SD","A276XK6HT76JZA","3RBI0I35XEP26UEZY8S8UZLEA1IY3E","","null","<img src=""img/land1.png"" style=""width:200px;border:14px solid red;"">","null","","","","","","","","","",""
"","image-keyboard-response","314","80375","0.0-314.0","354P56DE9LPPXB17SG8BED5H61G7SD","A276XK6HT76JZA","3RBI0I35XEP26UEZY8S8UZLEA1IY3E","","28","img/land1.png","75","29","2","0","3","1","0.8,0.2,0.2,0.2,0.8,0.2,0.2,0.2,0.8","0.8,0.2,0.2,0.2,0.8,0.2,0.2,0.2,0.8","1","",""
"","html-keyboard-response","315","80677","0.0-315.0","354P56DE9LPPXB17SG8BED5H61G7SD","A276XK6HT76JZA","3RBI0I35XEP26UEZY8S8UZLEA1IY3E","","null","<img src=""img/land1.png"" style=""width:200px;border:14px solid red;"">","null","","","","","","","","","",""
"","image-keyboard-response","316","80737","0.0-316.0","354P56DE9LPPXB17SG8BED5H61G7SD","A276XK6HT76JZA","3RBI0I35XEP26UEZY8S8UZLEA1IY3E","","59","img/land3.png","76","60","3","0","2","1","0.8,0.2,0.2,0.2,0.8,0.2,0.2,0.2,0.8","0.8,0.2,0.2,0.2,0.8,0.2,0.2,0.2,0.8","1","",""
"","html-keyboard-response","317","81038","0.0-317.0","354P56DE9LPPXB17SG8BED5H61G7SD","A276XK6HT76JZA","3RBI0I35XEP26UEZY8S8UZLEA1IY3E","","null","<img src=""img/land3.png"" style=""width:200px;border:14px solid red;"">","null","","","","","","","","","",""
"","image-keyboard-response","318","81191","0.0-318.0","354P56DE9LPPXB17SG8BED5H61G7SD","A276XK6HT76JZA","3RBI0I35XEP26UEZY8S8UZLEA1IY3E","","152","img/land3.png","75","153","2","1","2","1","0.8,0.2,0.2,0.2,0.8,0.2,0.2,0.2,0.8","0.8,0.2,0.2,0.2,0.8,0.2,0.2,0.2,0.8","1","",""
"","html-keyboard-response","319","81497","0.0-319.0","354P56DE9LPPXB17SG8BED5H61G7SD","A276XK6HT76JZA","3RBI0I35XEP26UEZY8S8UZLEA1IY3E","","null","<img src=""img/land3.png"" style=""width:200px; border:14px solid green;"">","null","","","","","","","","","",""
"","image-keyboard-response","320","81512","0.0-320.0","354P56DE9LPPXB17SG8BED5H61G7SD","A276XK6HT76JZA","3RBI0I35XEP26UEZY8S8UZLEA1IY3E","","15","img/land1.png","76","15","3","1","3","1","0.8,0.2,0.2,0.2,0.8,0.2,0.2,0.2,0.8","0.8,0.2,0.2,0.2,0.8,0.2,0.2,0.2,0.8","1","",""
"","html-keyboard-response","321","81814","0.0-321.0","354P56DE9LPPXB17SG8BED5H61G7SD","A276XK6HT76JZA","3RBI0I35XEP26UEZY8S8UZLEA1IY3E","","null","<img src=""img/land1.png"" style=""width:200px; border:14px solid green;"">","null","","","","","","","","","",""
"","image-keyboard-response","322","81856","0.0-322.0","354P56DE9LPPXB17SG8BED5H61G7SD","A276XK6HT76JZA","3RBI0I35XEP26UEZY8S8UZLEA1IY3E","","40","img/land3.png","76","41","3","0","2","1","0.8,0.2,0.2,0.2,0.8,0.2,0.2,0.2,0.8","0.8,0.2,0.2,0.2,0.8,0.2,0.2,0.2,0.8","1","",""
"","html-keyboard-response","323","82158","0.0-323.0","354P56DE9LPPXB17SG8BED5H61G7SD","A276XK6HT76JZA","3RBI0I35XEP26UEZY8S8UZLEA1IY3E","","null","<img src=""img/land3.png"" style=""width:200px;border:14px solid red;"">","null","","","","","","","","","",""
"","image-keyboard-response","324","82289","0.0-324.0","354P56DE9LPPXB17SG8BED5H61G7SD","A276XK6HT76JZA","3RBI0I35XEP26UEZY8S8UZLEA1IY3E","","128","img/land3.png","76","130","3","0","2","1","0.8,0.2,0.2,0.2,0.8,0.2,0.2,0.2,0.8","0.8,0.2,0.2,0.2,0.8,0.2,0.2,0.2,0.8","1","",""
"","html-keyboard-response","325","82594","0.0-325.0","354P56DE9LPPXB17SG8BED5H61G7SD","A276XK6HT76JZA","3RBI0I35XEP26UEZY8S8UZLEA1IY3E","","null","<img src=""img/land3.png"" style=""width:200px;border:14px solid red;"">","null","","","","","","","","","",""
"","image-keyboard-response","326","82694","0.0-326.0","354P56DE9LPPXB17SG8BED5H61G7SD","A276XK6HT76JZA","3RBI0I35XEP26UEZY8S8UZLEA1IY3E","","100","img/land6.png","74","100","1","1","1","1","0.8,0.2,0.2,0.2,0.8,0.2,0.2,0.2,0.8","0.8,0.2,0.2,0.2,0.8,0.2,0.2,0.2,0.8","1","",""
"","html-keyboard-response","327","82997","0.0-327.0","354P56DE9LPPXB17SG8BED5H61G7SD","A276XK6HT76JZA","3RBI0I35XEP26UEZY8S8UZLEA1IY3E","","null","<img src=""img/land6.png"" style=""width:200px; border:14px solid green;"">","null","","","","","","","","","",""
"","image-keyboard-response","328","83107","0.0-328.0","354P56DE9LPPXB17SG8BED5H61G7SD","A276XK6HT76JZA","3RBI0I35XEP26UEZY8S8UZLEA1IY3E","","108","img/land6.png","76","110","3","0","1","1","0.8,0.2,0.2,0.2,0.8,0.2,0.2,0.2,0.8","0.8,0.2,0.2,0.2,0.8,0.2,0.2,0.2,0.8","1","",""
"","html-keyboard-response","329","83408","0.0-329.0","354P56DE9LPPXB17SG8BED5H61G7SD","A276XK6HT76JZA","3RBI0I35XEP26UEZY8S8UZLEA1IY3E","","null","<img src=""img/land6.png"" style=""width:200px;border:14px solid red;"">","null","","","","","","","","","",""
"","image-keyboard-response","330","83560","0.0-330.0","354P56DE9LPPXB17SG8BED5H61G7SD","A276XK6HT76JZA","3RBI0I35XEP26UEZY8S8UZLEA1IY3E","","150","img/land6.png","75","152","2","0","1","1","0.8,0.2,0.2,0.2,0.8,0.2,0.2,0.2,0.8","0.8,0.2,0.2,0.2,0.8,0.2,0.2,0.2,0.8","1","",""
"","html-keyboard-response","331","83863","0.0-331.0","354P56DE9LPPXB17SG8BED5H61G7SD","A276XK6HT76JZA","3RBI0I35XEP26UEZY8S8UZLEA1IY3E","","null","<img src=""img/land6.png"" style=""width:200px;border:14px solid red;"">","null","","","","","","","","","",""
"","image-keyboard-response","332","83988","0.0-332.0","354P56DE9LPPXB17SG8BED5H61G7SD","A276XK6HT76JZA","3RBI0I35XEP26UEZY8S8UZLEA1IY3E","","123","img/land6.png","75","125","2","0","1","1","0.8,0.2,0.2,0.2,0.8,0.2,0.2,0.2,0.8","0.8,0.2,0.2,0.2,0.8,0.2,0.2,0.2,0.8","1","",""
"","html-keyboard-response","333","84290","0.0-333.0","354P56DE9LPPXB17SG8BED5H61G7SD","A276XK6HT76JZA","3RBI0I35XEP26UEZY8S8UZLEA1IY3E","","null","<img src=""img/land6.png"" style=""width:200px;border:14px solid red;"">","null","","","","","","","","","",""
"","image-keyboard-response","334","84427","0.0-334.0","354P56DE9LPPXB17SG8BED5H61G7SD","A276XK6HT76JZA","3RBI0I35XEP26UEZY8S8UZLEA1IY3E","","137","img/land1.png","74","137","1","0","3","1","0.8,0.2,0.2,0.2,0.8,0.2,0.2,0.2,0.8","0.8,0.2,0.2,0.2,0.8,0.2,0.2,0.2,0.8","1","",""
"","html-keyboard-response","335","84730","0.0-335.0","354P56DE9LPPXB17SG8BED5H61G7SD","A276XK6HT76JZA","3RBI0I35XEP26UEZY8S8UZLEA1IY3E","","null","<img src=""img/land1.png"" style=""width:200px;border:14px solid red;"">","null","","","","","","","","","",""
"","image-keyboard-response","336","84900","0.0-336.0","354P56DE9LPPXB17SG8BED5H61G7SD","A276XK6HT76JZA","3RBI0I35XEP26UEZY8S8UZLEA1IY3E","","167","img/land3.png","74","168","1","0","2","1","0.8,0.2,0.2,0.2,0.8,0.2,0.2,0.2,0.8","0.8,0.2,0.2,0.2,0.8,0.2,0.2,0.2,0.8","1","",""
"","html-keyboard-response","337","85202","0.0-337.0","354P56DE9LPPXB17SG8BED5H61G7SD","A276XK6HT76JZA","3RBI0I35XEP26UEZY8S8UZLEA1IY3E","","null","<img src=""img/land3.png"" style=""width:200px;border:14px solid red;"">","null","","","","","","","","","",""
"","image-keyboard-response","338","85394","0.0-338.0","354P56DE9LPPXB17SG8BED5H61G7SD","A276XK6HT76JZA","3RBI0I35XEP26UEZY8S8UZLEA1IY3E","","191","img/land1.png","75","192","2","0","3","1","0.8,0.2,0.2,0.2,0.8,0.2,0.2,0.2,0.8","0.8,0.2,0.2,0.2,0.8,0.2,0.2,0.2,0.8","1","",""
"","html-keyboard-response","339","85696","0.0-339.0","354P56DE9LPPXB17SG8BED5H61G7SD","A276XK6HT76JZA","3RBI0I35XEP26UEZY8S8UZLEA1IY3E","","null","<img src=""img/land1.png"" style=""width:200px;border:14px solid red;"">","null","","","","","","","","","",""
"","image-keyboard-response","340","85843","0.0-340.0","354P56DE9LPPXB17SG8BED5H61G7SD","A276XK6HT76JZA","3RBI0I35XEP26UEZY8S8UZLEA1IY3E","","145","img/land6.png","76","147","3","0","1","1","0.8,0.2,0.2,0.2,0.8,0.2,0.2,0.2,0.8","0.8,0.2,0.2,0.2,0.8,0.2,0.2,0.2,0.8","1","",""
"","html-keyboard-response","341","86145","0.0-341.0","354P56DE9LPPXB17SG8BED5H61G7SD","A276XK6HT76JZA","3RBI0I35XEP26UEZY8S8UZLEA1IY3E","","null","<img src=""img/land6.png"" style=""width:200px;border:14px solid red;"">","null","","","","","","","","","",""
"","image-keyboard-response","342","86601","0.0-342.0","354P56DE9LPPXB17SG8BED5H61G7SD","A276XK6HT76JZA","3RBI0I35XEP26UEZY8S8UZLEA1IY3E","","452","img/land3.png","75","456","2","1","2","1","0.8,0.2,0.2,0.2,0.8,0.2,0.2,0.2,0.8","0.8,0.2,0.2,0.2,0.8,0.2,0.2,0.2,0.8","1","",""
"","html-keyboard-response","343","86904","0.0-343.0","354P56DE9LPPXB17SG8BED5H61G7SD","A276XK6HT76JZA","3RBI0I35XEP26UEZY8S8UZLEA1IY3E","","null","<img src=""img/land3.png"" style=""width:200px; border:14px solid green;"">","null","","","","","","","","","",""
"","image-keyboard-response","344","86984","0.0-344.0","354P56DE9LPPXB17SG8BED5H61G7SD","A276XK6HT76JZA","3RBI0I35XEP26UEZY8S8UZLEA1IY3E","","79","img/land1.png","76","79","3","1","3","1","0.8,0.2,0.2,0.2,0.8,0.2,0.2,0.2,0.8","0.8,0.2,0.2,0.2,0.8,0.2,0.2,0.2,0.8","1","",""
"","html-keyboard-response","345","87286","0.0-345.0","354P56DE9LPPXB17SG8BED5H61G7SD","A276XK6HT76JZA","3RBI0I35XEP26UEZY8S8UZLEA1IY3E","","null","<img src=""img/land1.png"" style=""width:200px; border:14px solid green;"">","null","","","","","","","","","",""
"","image-keyboard-response","346","87295","0.0-346.0","354P56DE9LPPXB17SG8BED5H61G7SD","A276XK6HT76JZA","3RBI0I35XEP26UEZY8S8UZLEA1IY3E","","8","img/land3.png","75","9","2","1","2","1","0.8,0.2,0.2,0.2,0.8,0.2,0.2,0.2,0.8","0.8,0.2,0.2,0.2,0.8,0.2,0.2,0.2,0.8","1","",""
"","html-keyboard-response","347","87597","0.0-347.0","354P56DE9LPPXB17SG8BED5H61G7SD","A276XK6HT76JZA","3RBI0I35XEP26UEZY8S8UZLEA1IY3E","","null","<img src=""img/land3.png"" style=""width:200px; border:14px solid green;"">","null","","","","","","","","","",""
"","image-keyboard-response","348","87734","0.0-348.0","354P56DE9LPPXB17SG8BED5H61G7SD","A276XK6HT76JZA","3RBI0I35XEP26UEZY8S8UZLEA1IY3E","","135","img/land1.png","74","137","1","1","3","1","0.8,0.2,0.2,0.2,0.8,0.2,0.2,0.2,0.8","0.8,0.2,0.2,0.2,0.8,0.2,0.2,0.2,0.8","1","",""
"","html-keyboard-response","349","88037","0.0-349.0","354P56DE9LPPXB17SG8BED5H61G7SD","A276XK6HT76JZA","3RBI0I35XEP26UEZY8S8UZLEA1IY3E","","null","<img src=""img/land1.png"" style=""width:200px; border:14px solid green;"">","null","","","","","","","","","",""
"","image-keyboard-response","350","88150","0.0-350.0","354P56DE9LPPXB17SG8BED5H61G7SD","A276XK6HT76JZA","3RBI0I35XEP26UEZY8S8UZLEA1IY3E","","112","img/land6.png","76","115","3","0","1","1","0.8,0.2,0.2,0.2,0.8,0.2,0.2,0.2,0.8","0.8,0.2,0.2,0.2,0.8,0.2,0.2,0.2,0.8","1","",""
"","html-keyboard-response","351","88454","0.0-351.0","354P56DE9LPPXB17SG8BED5H61G7SD","A276XK6HT76JZA","3RBI0I35XEP26UEZY8S8UZLEA1IY3E","","null","<img src=""img/land6.png"" style=""width:200px;border:14px solid red;"">","null","","","","","","","","","",""
"","image-keyboard-response","352","88592","0.0-352.0","354P56DE9LPPXB17SG8BED5H61G7SD","A276XK6HT76JZA","3RBI0I35XEP26UEZY8S8UZLEA1IY3E","","137","img/land6.png","76","137","3","0","1","1","0.8,0.2,0.2,0.2,0.8,0.2,0.2,0.2,0.8","0.8,0.2,0.2,0.2,0.8,0.2,0.2,0.2,0.8","1","",""
"","html-keyboard-response","353","88894","0.0-353.0","354P56DE9LPPXB17SG8BED5H61G7SD","A276XK6HT76JZA","3RBI0I35XEP26UEZY8S8UZLEA1IY3E","","null","<img src=""img/land6.png"" style=""width:200px;border:14px solid red;"">","null","","","","","","","","","",""
"","image-keyboard-response","354","88988","0.0-354.0","354P56DE9LPPXB17SG8BED5H61G7SD","A276XK6HT76JZA","3RBI0I35XEP26UEZY8S8UZLEA1IY3E","","92","img/land1.png","76","94","3","1","3","1","0.8,0.2,0.2,0.2,0.8,0.2,0.2,0.2,0.8","0.8,0.2,0.2,0.2,0.8,0.2,0.2,0.2,0.8","1","",""
"","html-keyboard-response","355","89316","0.0-355.0","354P56DE9LPPXB17SG8BED5H61G7SD","A276XK6HT76JZA","3RBI0I35XEP26UEZY8S8UZLEA1IY3E","","null","<img src=""img/land1.png"" style=""width:200px; border:14px solid green;"">","null","","","","","","","","","",""
"","image-keyboard-response","356","89424","0.0-356.0","354P56DE9LPPXB17SG8BED5H61G7SD","A276XK6HT76JZA","3RBI0I35XEP26UEZY8S8UZLEA1IY3E","","107","img/land6.png","74","107","1","1","1","1","0.8,0.2,0.2,0.2,0.8,0.2,0.2,0.2,0.8","0.8,0.2,0.2,0.2,0.8,0.2,0.2,0.2,0.8","1","",""
"","html-keyboard-response","357","89726","0.0-357.0","354P56DE9LPPXB17SG8BED5H61G7SD","A276XK6HT76JZA","3RBI0I35XEP26UEZY8S8UZLEA1IY3E","","null","<img src=""img/land6.png"" style=""width:200px; border:14px solid green;"">","null","","","","","","","","","",""
"","image-keyboard-response","358","89822","0.0-358.0","354P56DE9LPPXB17SG8BED5H61G7SD","A276XK6HT76JZA","3RBI0I35XEP26UEZY8S8UZLEA1IY3E","","95","img/land1.png","74","95","1","0","3","1","0.8,0.2,0.2,0.2,0.8,0.2,0.2,0.2,0.8","0.8,0.2,0.2,0.2,0.8,0.2,0.2,0.2,0.8","1","",""
"","html-keyboard-response","359","90125","0.0-359.0","354P56DE9LPPXB17SG8BED5H61G7SD","A276XK6HT76JZA","3RBI0I35XEP26UEZY8S8UZLEA1IY3E","","null","<img src=""img/land1.png"" style=""width:200px;border:14px solid red;"">","null","","","","","","","","","",""
"","image-keyboard-response","360","90217","0.0-360.0","354P56DE9LPPXB17SG8BED5H61G7SD","A276XK6HT76JZA","3RBI0I35XEP26UEZY8S8UZLEA1IY3E","","90","img/land1.png","76","92","3","1","3","1","0.8,0.2,0.2,0.2,0.8,0.2,0.2,0.2,0.8","0.8,0.2,0.2,0.2,0.8,0.2,0.2,0.2,0.8","1","",""
"","html-keyboard-response","361","90518","0.0-361.0","354P56DE9LPPXB17SG8BED5H61G7SD","A276XK6HT76JZA","3RBI0I35XEP26UEZY8S8UZLEA1IY3E","","null","<img src=""img/land1.png"" style=""width:200px; border:14px solid green;"">","null","","","","","","","","","",""
"","image-keyboard-response","362","90606","0.0-362.0","354P56DE9LPPXB17SG8BED5H61G7SD","A276XK6HT76JZA","3RBI0I35XEP26UEZY8S8UZLEA1IY3E","","87","img/land3.png","76","88","3","0","2","1","0.8,0.2,0.2,0.2,0.8,0.2,0.2,0.2,0.8","0.8,0.2,0.2,0.2,0.8,0.2,0.2,0.2,0.8","1","",""
"","html-keyboard-response","363","90908","0.0-363.0","354P56DE9LPPXB17SG8BED5H61G7SD","A276XK6HT76JZA","3RBI0I35XEP26UEZY8S8UZLEA1IY3E","","null","<img src=""img/land3.png"" style=""width:200px;border:14px solid red;"">","null","","","","","","","","","",""
"","image-keyboard-response","364","91021","0.0-364.0","354P56DE9LPPXB17SG8BED5H61G7SD","A276XK6HT76JZA","3RBI0I35XEP26UEZY8S8UZLEA1IY3E","","112","img/land6.png","76","114","3","1","1","1","0.8,0.2,0.2,0.2,0.8,0.2,0.2,0.2,0.8","0.8,0.2,0.2,0.2,0.8,0.2,0.2,0.2,0.8","1","",""
"","html-keyboard-response","365","91324","0.0-365.0","354P56DE9LPPXB17SG8BED5H61G7SD","A276XK6HT76JZA","3RBI0I35XEP26UEZY8S8UZLEA1IY3E","","null","<img src=""img/land6.png"" style=""width:200px; border:14px solid green;"">","null","","","","","","","","","",""
"","image-keyboard-response","366","91427","0.0-366.0","354P56DE9LPPXB17SG8BED5H61G7SD","A276XK6HT76JZA","3RBI0I35XEP26UEZY8S8UZLEA1IY3E","","102","img/land3.png","76","104","3","0","2","1","0.8,0.2,0.2,0.2,0.8,0.2,0.2,0.2,0.8","0.8,0.2,0.2,0.2,0.8,0.2,0.2,0.2,0.8","1","",""
"","html-keyboard-response","367","91730","0.0-367.0","354P56DE9LPPXB17SG8BED5H61G7SD","A276XK6HT76JZA","3RBI0I35XEP26UEZY8S8UZLEA1IY3E","","null","<img src=""img/land3.png"" style=""width:200px;border:14px solid red;"">","null","","","","","","","","","",""
"","image-keyboard-response","368","91817","0.0-368.0","354P56DE9LPPXB17SG8BED5H61G7SD","A276XK6HT76JZA","3RBI0I35XEP26UEZY8S8UZLEA1IY3E","","86","img/land3.png","76","87","3","0","2","1","0.8,0.2,0.2,0.2,0.8,0.2,0.2,0.2,0.8","0.8,0.2,0.2,0.2,0.8,0.2,0.2,0.2,0.8","1","",""
"","html-keyboard-response","369","92120","0.0-369.0","354P56DE9LPPXB17SG8BED5H61G7SD","A276XK6HT76JZA","3RBI0I35XEP26UEZY8S8UZLEA1IY3E","","null","<img src=""img/land3.png"" style=""width:200px;border:14px solid red;"">","null","","","","","","","","","",""
"","image-keyboard-response","370","92216","0.0-370.0","354P56DE9LPPXB17SG8BED5H61G7SD","A276XK6HT76JZA","3RBI0I35XEP26UEZY8S8UZLEA1IY3E","","94","img/land1.png","76","96","3","1","3","1","0.8,0.2,0.2,0.2,0.8,0.2,0.2,0.2,0.8","0.8,0.2,0.2,0.2,0.8,0.2,0.2,0.2,0.8","1","",""
"","html-keyboard-response","371","92518","0.0-371.0","354P56DE9LPPXB17SG8BED5H61G7SD","A276XK6HT76JZA","3RBI0I35XEP26UEZY8S8UZLEA1IY3E","","null","<img src=""img/land1.png"" style=""width:200px; border:14px solid green;"">","null","","","","","","","","","",""
"","image-keyboard-response","372","92617","0.0-372.0","354P56DE9LPPXB17SG8BED5H61G7SD","A276XK6HT76JZA","3RBI0I35XEP26UEZY8S8UZLEA1IY3E","","98","img/land1.png","74","99","1","0","3","1","0.8,0.2,0.2,0.2,0.8,0.2,0.2,0.2,0.8","0.8,0.2,0.2,0.2,0.8,0.2,0.2,0.2,0.8","1","",""
