"success","trial_type","trial_index","time_elapsed","internal_node_id","assignmentID","mturkID","hitID","view_history","rt","stimulus","key_press","reactionTime","a","r","warning","s","reward_cond","responses","question_order"
"true","fullscreen","0","1874","0.0-0.0","3DH6GAKTYZB5D7JMAHSJNJMHTYGYZZ","A27W025UEXS1G0","3S829FDFT2NBOHQMM1CIOU0HZYXDXL","","","","","","","","","","","",""
"","instructions","1","25633","0.0-1.0","3DH6GAKTYZB5D7JMAHSJNJMHTYGYZZ","A27W025UEXS1G0","3S829FDFT2NBOHQMM1CIOU0HZYXDXL","[{""page_index"":0,""viewing_time"":11967.10000000149},{""page_index"":1,""viewing_time"":2416.5},{""page_index"":2,""viewing_time"":498.5},{""page_index"":3,""viewing_time"":2671.300000000745},{""page_index"":4,""viewing_time"":1103.5999999977648},{""page_index"":5,""viewing_time"":921.5},{""page_index"":6,""viewing_time"":2779.10000000149},{""page_index"":7,""viewing_time"":1400.300000000745}]","23758.400000002235","","","","","","","","","",""
"","image-keyboard-response","2","25972","0.0-2.0","3DH6GAKTYZB5D7JMAHSJNJMHTYGYZZ","A27W025UEXS1G0","3S829FDFT2NBOHQMM1CIOU0HZYXDXL","","337.5","img/land9.png","74","338.3999999985099","1","1","false","1","0.8,0.2,0.2,0.2,0.8,0.2,0.2,0.2,0.8","",""
"","html-keyboard-response","3","26289","0.0-3.0","3DH6GAKTYZB5D7JMAHSJNJMHTYGYZZ","A27W025UEXS1G0","3S829FDFT2NBOHQMM1CIOU0HZYXDXL","","null","<img src=""img/land9.png"" style=""width:200px; border:14px solid green;"">","null","","","","","","","",""
"","image-keyboard-response","4","26509","0.0-5.0","3DH6GAKTYZB5D7JMAHSJNJMHTYGYZZ","A27W025UEXS1G0","3S829FDFT2NBOHQMM1CIOU0HZYXDXL","","219.19999999925494","img/land9.png","74","219.69999999925494","1","1","false","1","0.8,0.2,0.2,0.2,0.8,0.2,0.2,0.2,0.8","",""
"","html-keyboard-response","5","26810","0.0-6.0","3DH6GAKTYZB5D7JMAHSJNJMHTYGYZZ","A27W025UEXS1G0","3S829FDFT2NBOHQMM1CIOU0HZYXDXL","","null","<img src=""img/land9.png"" style=""width:200px; border:14px solid green;"">","null","","","","","","","",""
"","image-keyboard-response","6","27101","0.0-8.0","3DH6GAKTYZB5D7JMAHSJNJMHTYGYZZ","A27W025UEXS1G0","3S829FDFT2NBOHQMM1CIOU0HZYXDXL","","289.9000000022352","img/land3.png","74","290.30000000074506","1","0","false","3","0.8,0.2,0.2,0.2,0.8,0.2,0.2,0.2,0.8","",""
"","html-keyboard-response","7","27409","0.0-9.0","3DH6GAKTYZB5D7JMAHSJNJMHTYGYZZ","A27W025UEXS1G0","3S829FDFT2NBOHQMM1CIOU0HZYXDXL","","null","<img src=""img/land3.png"" style=""width:200px;border:14px solid red;"">","null","","","","","","","",""
"","image-keyboard-response","8","27781","0.0-11.0","3DH6GAKTYZB5D7JMAHSJNJMHTYGYZZ","A27W025UEXS1G0","3S829FDFT2NBOHQMM1CIOU0HZYXDXL","","371.79999999701977","img/land5.png","75","372.30000000074506","2","1","false","2","0.8,0.2,0.2,0.2,0.8,0.2,0.2,0.2,0.8","",""
"","html-keyboard-response","9","28086","0.0-12.0","3DH6GAKTYZB5D7JMAHSJNJMHTYGYZZ","A27W025UEXS1G0","3S829FDFT2NBOHQMM1CIOU0HZYXDXL","","null","<img src=""img/land5.png"" style=""width:200px; border:14px solid green;"">","null","","","","","","","",""
"","image-keyboard-response","10","28429","0.0-14.0","3DH6GAKTYZB5D7JMAHSJNJMHTYGYZZ","A27W025UEXS1G0","3S829FDFT2NBOHQMM1CIOU0HZYXDXL","","342.8999999985099","img/land5.png","75","343.3999999985099","2","1","false","2","0.8,0.2,0.2,0.2,0.8,0.2,0.2,0.2,0.8","",""
"","html-keyboard-response","11","28734","0.0-15.0","3DH6GAKTYZB5D7JMAHSJNJMHTYGYZZ","A27W025UEXS1G0","3S829FDFT2NBOHQMM1CIOU0HZYXDXL","","null","<img src=""img/land5.png"" style=""width:200px; border:14px solid green;"">","null","","","","","","","",""
"","image-keyboard-response","12","29013","0.0-17.0","3DH6GAKTYZB5D7JMAHSJNJMHTYGYZZ","A27W025UEXS1G0","3S829FDFT2NBOHQMM1CIOU0HZYXDXL","","278.30000000074506","img/land5.png","75","278.8999999985099","2","1","false","2","0.8,0.2,0.2,0.2,0.8,0.2,0.2,0.2,0.8","",""
"","html-keyboard-response","13","29319","0.0-18.0","3DH6GAKTYZB5D7JMAHSJNJMHTYGYZZ","A27W025UEXS1G0","3S829FDFT2NBOHQMM1CIOU0HZYXDXL","","null","<img src=""img/land5.png"" style=""width:200px; border:14px solid green;"">","null","","","","","","","",""
"","image-keyboard-response","14","29629","0.0-20.0","3DH6GAKTYZB5D7JMAHSJNJMHTYGYZZ","A27W025UEXS1G0","3S829FDFT2NBOHQMM1CIOU0HZYXDXL","","308.80000000074506","img/land5.png","75","309.30000000074506","2","1","false","2","0.8,0.2,0.2,0.2,0.8,0.2,0.2,0.2,0.8","",""
"","html-keyboard-response","15","29931","0.0-21.0","3DH6GAKTYZB5D7JMAHSJNJMHTYGYZZ","A27W025UEXS1G0","3S829FDFT2NBOHQMM1CIOU0HZYXDXL","","null","<img src=""img/land5.png"" style=""width:200px; border:14px solid green;"">","null","","","","","","","",""
"","image-keyboard-response","16","30317","0.0-23.0","3DH6GAKTYZB5D7JMAHSJNJMHTYGYZZ","A27W025UEXS1G0","3S829FDFT2NBOHQMM1CIOU0HZYXDXL","","385.3999999985099","img/land3.png","76","386","3","1","false","3","0.8,0.2,0.2,0.2,0.8,0.2,0.2,0.2,0.8","",""
"","html-keyboard-response","17","30618","0.0-24.0","3DH6GAKTYZB5D7JMAHSJNJMHTYGYZZ","A27W025UEXS1G0","3S829FDFT2NBOHQMM1CIOU0HZYXDXL","","null","<img src=""img/land3.png"" style=""width:200px; border:14px solid green;"">","null","","","","","","","",""
"","image-keyboard-response","18","31022","0.0-26.0","3DH6GAKTYZB5D7JMAHSJNJMHTYGYZZ","A27W025UEXS1G0","3S829FDFT2NBOHQMM1CIOU0HZYXDXL","","403","img/land5.png","75","403.5","2","1","false","2","0.8,0.2,0.2,0.2,0.8,0.2,0.2,0.2,0.8","",""
"","html-keyboard-response","19","31333","0.0-27.0","3DH6GAKTYZB5D7JMAHSJNJMHTYGYZZ","A27W025UEXS1G0","3S829FDFT2NBOHQMM1CIOU0HZYXDXL","","null","<img src=""img/land5.png"" style=""width:200px; border:14px solid green;"">","null","","","","","","","",""
"","image-keyboard-response","20","31821","0.0-29.0","3DH6GAKTYZB5D7JMAHSJNJMHTYGYZZ","A27W025UEXS1G0","3S829FDFT2NBOHQMM1CIOU0HZYXDXL","","487","img/land9.png","74","487.6000000014901","1","1","false","1","0.8,0.2,0.2,0.2,0.8,0.2,0.2,0.2,0.8","",""
"","html-keyboard-response","21","32123","0.0-30.0","3DH6GAKTYZB5D7JMAHSJNJMHTYGYZZ","A27W025UEXS1G0","3S829FDFT2NBOHQMM1CIOU0HZYXDXL","","null","<img src=""img/land9.png"" style=""width:200px; border:14px solid green;"">","null","","","","","","","",""
"","image-keyboard-response","22","32613","0.0-32.0","3DH6GAKTYZB5D7JMAHSJNJMHTYGYZZ","A27W025UEXS1G0","3S829FDFT2NBOHQMM1CIOU0HZYXDXL","","489.30000000074506","img/land5.png","75","489.80000000074506","2","0","false","2","0.8,0.2,0.2,0.2,0.8,0.2,0.2,0.2,0.8","",""
"","html-keyboard-response","23","32915","0.0-33.0","3DH6GAKTYZB5D7JMAHSJNJMHTYGYZZ","A27W025UEXS1G0","3S829FDFT2NBOHQMM1CIOU0HZYXDXL","","null","<img src=""img/land5.png"" style=""width:200px;border:14px solid red;"">","null","","","","","","","",""
"","image-keyboard-response","24","33245","0.0-35.0","3DH6GAKTYZB5D7JMAHSJNJMHTYGYZZ","A27W025UEXS1G0","3S829FDFT2NBOHQMM1CIOU0HZYXDXL","","329.19999999925494","img/land3.png","76","329.5","3","0","false","3","0.8,0.2,0.2,0.2,0.8,0.2,0.2,0.2,0.8","",""
"","html-keyboard-response","25","33546","0.0-36.0","3DH6GAKTYZB5D7JMAHSJNJMHTYGYZZ","A27W025UEXS1G0","3S829FDFT2NBOHQMM1CIOU0HZYXDXL","","null","<img src=""img/land3.png"" style=""width:200px;border:14px solid red;"">","null","","","","","","","",""
"","image-keyboard-response","26","33965","0.0-38.0","3DH6GAKTYZB5D7JMAHSJNJMHTYGYZZ","A27W025UEXS1G0","3S829FDFT2NBOHQMM1CIOU0HZYXDXL","","418","img/land9.png","75","418.5999999977648","2","0","false","1","0.8,0.2,0.2,0.2,0.8,0.2,0.2,0.2,0.8","",""
"","html-keyboard-response","27","34266","0.0-39.0","3DH6GAKTYZB5D7JMAHSJNJMHTYGYZZ","A27W025UEXS1G0","3S829FDFT2NBOHQMM1CIOU0HZYXDXL","","null","<img src=""img/land9.png"" style=""width:200px;border:14px solid red;"">","null","","","","","","","",""
"","image-keyboard-response","28","34845","0.0-41.0","3DH6GAKTYZB5D7JMAHSJNJMHTYGYZZ","A27W025UEXS1G0","3S829FDFT2NBOHQMM1CIOU0HZYXDXL","","578","img/land3.png","76","578.5999999977648","3","1","false","3","0.8,0.2,0.2,0.2,0.8,0.2,0.2,0.2,0.8","",""
"","html-keyboard-response","29","35146","0.0-42.0","3DH6GAKTYZB5D7JMAHSJNJMHTYGYZZ","A27W025UEXS1G0","3S829FDFT2NBOHQMM1CIOU0HZYXDXL","","null","<img src=""img/land3.png"" style=""width:200px; border:14px solid green;"">","null","","","","","","","",""
"","image-keyboard-response","30","35581","0.0-44.0","3DH6GAKTYZB5D7JMAHSJNJMHTYGYZZ","A27W025UEXS1G0","3S829FDFT2NBOHQMM1CIOU0HZYXDXL","","434.1000000014901","img/land5.png","74","434.5999999977648","1","0","false","2","0.8,0.2,0.2,0.2,0.8,0.2,0.2,0.2,0.8","",""
"","html-keyboard-response","31","35882","0.0-45.0","3DH6GAKTYZB5D7JMAHSJNJMHTYGYZZ","A27W025UEXS1G0","3S829FDFT2NBOHQMM1CIOU0HZYXDXL","","null","<img src=""img/land5.png"" style=""width:200px;border:14px solid red;"">","null","","","","","","","",""
"","image-keyboard-response","32","36389","0.0-47.0","3DH6GAKTYZB5D7JMAHSJNJMHTYGYZZ","A27W025UEXS1G0","3S829FDFT2NBOHQMM1CIOU0HZYXDXL","","506.30000000074506","img/land3.png","76","506.8999999985099","3","1","false","3","0.8,0.2,0.2,0.2,0.8,0.2,0.2,0.2,0.8","",""
"","html-keyboard-response","33","36690","0.0-48.0","3DH6GAKTYZB5D7JMAHSJNJMHTYGYZZ","A27W025UEXS1G0","3S829FDFT2NBOHQMM1CIOU0HZYXDXL","","null","<img src=""img/land3.png"" style=""width:200px; border:14px solid green;"">","null","","","","","","","",""
"","image-keyboard-response","34","37053","0.0-50.0","3DH6GAKTYZB5D7JMAHSJNJMHTYGYZZ","A27W025UEXS1G0","3S829FDFT2NBOHQMM1CIOU0HZYXDXL","","362","img/land3.png","76","362.5","3","0","false","3","0.8,0.2,0.2,0.2,0.8,0.2,0.2,0.2,0.8","",""
"","html-keyboard-response","35","37354","0.0-51.0","3DH6GAKTYZB5D7JMAHSJNJMHTYGYZZ","A27W025UEXS1G0","3S829FDFT2NBOHQMM1CIOU0HZYXDXL","","null","<img src=""img/land3.png"" style=""width:200px;border:14px solid red;"">","null","","","","","","","",""
"","image-keyboard-response","36","37725","0.0-53.0","3DH6GAKTYZB5D7JMAHSJNJMHTYGYZZ","A27W025UEXS1G0","3S829FDFT2NBOHQMM1CIOU0HZYXDXL","","369.9000000022352","img/land5.png","75","370.5","2","0","false","2","0.8,0.2,0.2,0.2,0.8,0.2,0.2,0.2,0.8","",""
"","html-keyboard-response","37","38027","0.0-54.0","3DH6GAKTYZB5D7JMAHSJNJMHTYGYZZ","A27W025UEXS1G0","3S829FDFT2NBOHQMM1CIOU0HZYXDXL","","null","<img src=""img/land5.png"" style=""width:200px;border:14px solid red;"">","null","","","","","","","",""
"","image-keyboard-response","38","38541","0.0-56.0","3DH6GAKTYZB5D7JMAHSJNJMHTYGYZZ","A27W025UEXS1G0","3S829FDFT2NBOHQMM1CIOU0HZYXDXL","","513.5","img/land3.png","76","514.1000000014901","3","1","false","3","0.8,0.2,0.2,0.2,0.8,0.2,0.2,0.2,0.8","",""
"","html-keyboard-response","39","38842","0.0-57.0","3DH6GAKTYZB5D7JMAHSJNJMHTYGYZZ","A27W025UEXS1G0","3S829FDFT2NBOHQMM1CIOU0HZYXDXL","","null","<img src=""img/land3.png"" style=""width:200px; border:14px solid green;"">","null","","","","","","","",""
"","image-keyboard-response","40","39317","0.0-59.0","3DH6GAKTYZB5D7JMAHSJNJMHTYGYZZ","A27W025UEXS1G0","3S829FDFT2NBOHQMM1CIOU0HZYXDXL","","474.5999999977648","img/land9.png","74","475.0999999977648","1","1","false","1","0.8,0.2,0.2,0.2,0.8,0.2,0.2,0.2,0.8","",""
"","html-keyboard-response","41","39618","0.0-60.0","3DH6GAKTYZB5D7JMAHSJNJMHTYGYZZ","A27W025UEXS1G0","3S829FDFT2NBOHQMM1CIOU0HZYXDXL","","null","<img src=""img/land9.png"" style=""width:200px; border:14px solid green;"">","null","","","","","","","",""
"","image-keyboard-response","42","40093","0.0-62.0","3DH6GAKTYZB5D7JMAHSJNJMHTYGYZZ","A27W025UEXS1G0","3S829FDFT2NBOHQMM1CIOU0HZYXDXL","","473.80000000074506","img/land3.png","76","474.6000000014901","3","1","false","3","0.8,0.2,0.2,0.2,0.8,0.2,0.2,0.2,0.8","",""
"","html-keyboard-response","43","40396","0.0-63.0","3DH6GAKTYZB5D7JMAHSJNJMHTYGYZZ","A27W025UEXS1G0","3S829FDFT2NBOHQMM1CIOU0HZYXDXL","","null","<img src=""img/land3.png"" style=""width:200px; border:14px solid green;"">","null","","","","","","","",""
"","image-keyboard-response","44","40685","0.0-65.0","3DH6GAKTYZB5D7JMAHSJNJMHTYGYZZ","A27W025UEXS1G0","3S829FDFT2NBOHQMM1CIOU0HZYXDXL","","287.6000000014901","img/land3.png","76","288.29999999701977","3","0","false","3","0.8,0.2,0.2,0.2,0.8,0.2,0.2,0.2,0.8","",""
"","html-keyboard-response","45","40987","0.0-66.0","3DH6GAKTYZB5D7JMAHSJNJMHTYGYZZ","A27W025UEXS1G0","3S829FDFT2NBOHQMM1CIOU0HZYXDXL","","null","<img src=""img/land3.png"" style=""width:200px;border:14px solid red;"">","null","","","","","","","",""
"","image-keyboard-response","46","41341","0.0-68.0","3DH6GAKTYZB5D7JMAHSJNJMHTYGYZZ","A27W025UEXS1G0","3S829FDFT2NBOHQMM1CIOU0HZYXDXL","","353.5","img/land3.png","76","353.80000000074506","3","1","false","3","0.8,0.2,0.2,0.2,0.8,0.2,0.2,0.2,0.8","",""
"","html-keyboard-response","47","41642","0.0-69.0","3DH6GAKTYZB5D7JMAHSJNJMHTYGYZZ","A27W025UEXS1G0","3S829FDFT2NBOHQMM1CIOU0HZYXDXL","","null","<img src=""img/land3.png"" style=""width:200px; border:14px solid green;"">","null","","","","","","","",""
"","image-keyboard-response","48","41981","0.0-71.0","3DH6GAKTYZB5D7JMAHSJNJMHTYGYZZ","A27W025UEXS1G0","3S829FDFT2NBOHQMM1CIOU0HZYXDXL","","337.69999999925494","img/land3.png","76","338.19999999925494","3","1","false","3","0.8,0.2,0.2,0.2,0.8,0.2,0.2,0.2,0.8","",""
"","html-keyboard-response","49","42283","0.0-72.0","3DH6GAKTYZB5D7JMAHSJNJMHTYGYZZ","A27W025UEXS1G0","3S829FDFT2NBOHQMM1CIOU0HZYXDXL","","null","<img src=""img/land3.png"" style=""width:200px; border:14px solid green;"">","null","","","","","","","",""
"","image-keyboard-response","50","42637","0.0-74.0","3DH6GAKTYZB5D7JMAHSJNJMHTYGYZZ","A27W025UEXS1G0","3S829FDFT2NBOHQMM1CIOU0HZYXDXL","","353","img/land3.png","76","353.9000000022352","3","1","false","3","0.8,0.2,0.2,0.2,0.8,0.2,0.2,0.2,0.8","",""
"","html-keyboard-response","51","42938","0.0-75.0","3DH6GAKTYZB5D7JMAHSJNJMHTYGYZZ","A27W025UEXS1G0","3S829FDFT2NBOHQMM1CIOU0HZYXDXL","","null","<img src=""img/land3.png"" style=""width:200px; border:14px solid green;"">","null","","","","","","","",""
"","image-keyboard-response","52","43277","0.0-77.0","3DH6GAKTYZB5D7JMAHSJNJMHTYGYZZ","A27W025UEXS1G0","3S829FDFT2NBOHQMM1CIOU0HZYXDXL","","338.1000000014901","img/land3.png","76","338.6000000014901","3","1","false","3","0.8,0.2,0.2,0.2,0.8,0.2,0.2,0.2,0.8","",""
"","html-keyboard-response","53","43578","0.0-78.0","3DH6GAKTYZB5D7JMAHSJNJMHTYGYZZ","A27W025UEXS1G0","3S829FDFT2NBOHQMM1CIOU0HZYXDXL","","null","<img src=""img/land3.png"" style=""width:200px; border:14px solid green;"">","null","","","","","","","",""
"","image-keyboard-response","54","44077","0.0-80.0","3DH6GAKTYZB5D7JMAHSJNJMHTYGYZZ","A27W025UEXS1G0","3S829FDFT2NBOHQMM1CIOU0HZYXDXL","","498.5999999977648","img/land5.png","75","499.0999999977648","2","0","false","2","0.8,0.2,0.2,0.2,0.8,0.2,0.2,0.2,0.8","",""
"","html-keyboard-response","55","44378","0.0-81.0","3DH6GAKTYZB5D7JMAHSJNJMHTYGYZZ","A27W025UEXS1G0","3S829FDFT2NBOHQMM1CIOU0HZYXDXL","","null","<img src=""img/land5.png"" style=""width:200px;border:14px solid red;"">","null","","","","","","","",""
"","image-keyboard-response","56","44677","0.0-83.0","3DH6GAKTYZB5D7JMAHSJNJMHTYGYZZ","A27W025UEXS1G0","3S829FDFT2NBOHQMM1CIOU0HZYXDXL","","297.80000000074506","img/land5.png","75","298.3999999985099","2","0","false","2","0.8,0.2,0.2,0.2,0.8,0.2,0.2,0.2,0.8","",""
"","html-keyboard-response","57","44978","0.0-84.0","3DH6GAKTYZB5D7JMAHSJNJMHTYGYZZ","A27W025UEXS1G0","3S829FDFT2NBOHQMM1CIOU0HZYXDXL","","null","<img src=""img/land5.png"" style=""width:200px;border:14px solid red;"">","null","","","","","","","",""
"","image-keyboard-response","58","45773","0.0-86.0","3DH6GAKTYZB5D7JMAHSJNJMHTYGYZZ","A27W025UEXS1G0","3S829FDFT2NBOHQMM1CIOU0HZYXDXL","","794.6999999992549","img/land9.png","74","795.2999999970198","1","1","false","1","0.8,0.2,0.2,0.2,0.8,0.2,0.2,0.2,0.8","",""
"","html-keyboard-response","59","46075","0.0-87.0","3DH6GAKTYZB5D7JMAHSJNJMHTYGYZZ","A27W025UEXS1G0","3S829FDFT2NBOHQMM1CIOU0HZYXDXL","","null","<img src=""img/land9.png"" style=""width:200px; border:14px solid green;"">","null","","","","","","","",""
"","image-keyboard-response","60","46390","0.0-89.0","3DH6GAKTYZB5D7JMAHSJNJMHTYGYZZ","A27W025UEXS1G0","3S829FDFT2NBOHQMM1CIOU0HZYXDXL","","314.19999999925494","img/land9.png","74","314.5999999977648","1","1","false","1","0.8,0.2,0.2,0.2,0.8,0.2,0.2,0.2,0.8","",""
"","html-keyboard-response","61","46691","0.0-90.0","3DH6GAKTYZB5D7JMAHSJNJMHTYGYZZ","A27W025UEXS1G0","3S829FDFT2NBOHQMM1CIOU0HZYXDXL","","null","<img src=""img/land9.png"" style=""width:200px; border:14px solid green;"">","null","","","","","","","",""
"","image-keyboard-response","62","46989","0.0-92.0","3DH6GAKTYZB5D7JMAHSJNJMHTYGYZZ","A27W025UEXS1G0","3S829FDFT2NBOHQMM1CIOU0HZYXDXL","","297","img/land9.png","74","297.3999999985099","1","0","false","1","0.8,0.2,0.2,0.2,0.8,0.2,0.2,0.2,0.8","",""
"","html-keyboard-response","63","47290","0.0-93.0","3DH6GAKTYZB5D7JMAHSJNJMHTYGYZZ","A27W025UEXS1G0","3S829FDFT2NBOHQMM1CIOU0HZYXDXL","","null","<img src=""img/land9.png"" style=""width:200px;border:14px solid red;"">","null","","","","","","","",""
"","image-keyboard-response","64","47877","0.0-95.0","3DH6GAKTYZB5D7JMAHSJNJMHTYGYZZ","A27W025UEXS1G0","3S829FDFT2NBOHQMM1CIOU0HZYXDXL","","585.8000000007451","img/land5.png","75","586.3000000007451","2","1","false","2","0.8,0.2,0.2,0.2,0.8,0.2,0.2,0.2,0.8","",""
"","html-keyboard-response","65","48178","0.0-96.0","3DH6GAKTYZB5D7JMAHSJNJMHTYGYZZ","A27W025UEXS1G0","3S829FDFT2NBOHQMM1CIOU0HZYXDXL","","null","<img src=""img/land5.png"" style=""width:200px; border:14px solid green;"">","null","","","","","","","",""
"","image-keyboard-response","66","48565","0.0-98.0","3DH6GAKTYZB5D7JMAHSJNJMHTYGYZZ","A27W025UEXS1G0","3S829FDFT2NBOHQMM1CIOU0HZYXDXL","","385.79999999701977","img/land3.png","76","386.30000000074506","3","1","false","3","0.8,0.2,0.2,0.2,0.8,0.2,0.2,0.2,0.8","",""
"","html-keyboard-response","67","48866","0.0-99.0","3DH6GAKTYZB5D7JMAHSJNJMHTYGYZZ","A27W025UEXS1G0","3S829FDFT2NBOHQMM1CIOU0HZYXDXL","","null","<img src=""img/land3.png"" style=""width:200px; border:14px solid green;"">","null","","","","","","","",""
"","image-keyboard-response","68","49285","0.0-101.0","3DH6GAKTYZB5D7JMAHSJNJMHTYGYZZ","A27W025UEXS1G0","3S829FDFT2NBOHQMM1CIOU0HZYXDXL","","418.8999999985099","img/land5.png","75","419.3999999985099","2","1","false","2","0.8,0.2,0.2,0.2,0.8,0.2,0.2,0.2,0.8","",""
"","html-keyboard-response","69","49586","0.0-102.0","3DH6GAKTYZB5D7JMAHSJNJMHTYGYZZ","A27W025UEXS1G0","3S829FDFT2NBOHQMM1CIOU0HZYXDXL","","null","<img src=""img/land5.png"" style=""width:200px; border:14px solid green;"">","null","","","","","","","",""
"","image-keyboard-response","70","50029","0.0-104.0","3DH6GAKTYZB5D7JMAHSJNJMHTYGYZZ","A27W025UEXS1G0","3S829FDFT2NBOHQMM1CIOU0HZYXDXL","","442","img/land9.png","74","442.69999999925494","1","1","false","1","0.8,0.2,0.2,0.2,0.8,0.2,0.2,0.2,0.8","",""
"","html-keyboard-response","71","50331","0.0-105.0","3DH6GAKTYZB5D7JMAHSJNJMHTYGYZZ","A27W025UEXS1G0","3S829FDFT2NBOHQMM1CIOU0HZYXDXL","","null","<img src=""img/land9.png"" style=""width:200px; border:14px solid green;"">","null","","","","","","","",""
"","image-keyboard-response","72","50821","0.0-107.0","3DH6GAKTYZB5D7JMAHSJNJMHTYGYZZ","A27W025UEXS1G0","3S829FDFT2NBOHQMM1CIOU0HZYXDXL","","489.19999999925494","img/land3.png","76","489.6000000014901","3","1","false","3","0.8,0.2,0.2,0.2,0.8,0.2,0.2,0.2,0.8","",""
"","html-keyboard-response","73","51122","0.0-108.0","3DH6GAKTYZB5D7JMAHSJNJMHTYGYZZ","A27W025UEXS1G0","3S829FDFT2NBOHQMM1CIOU0HZYXDXL","","null","<img src=""img/land3.png"" style=""width:200px; border:14px solid green;"">","null","","","","","","","",""
"","image-keyboard-response","74","51437","0.0-110.0","3DH6GAKTYZB5D7JMAHSJNJMHTYGYZZ","A27W025UEXS1G0","3S829FDFT2NBOHQMM1CIOU0HZYXDXL","","314.19999999925494","img/land3.png","76","314.8999999985099","3","0","false","3","0.8,0.2,0.2,0.2,0.8,0.2,0.2,0.2,0.8","",""
"","html-keyboard-response","75","51739","0.0-111.0","3DH6GAKTYZB5D7JMAHSJNJMHTYGYZZ","A27W025UEXS1G0","3S829FDFT2NBOHQMM1CIOU0HZYXDXL","","null","<img src=""img/land3.png"" style=""width:200px;border:14px solid red;"">","null","","","","","","","",""
"","image-keyboard-response","76","52045","0.0-113.0","3DH6GAKTYZB5D7JMAHSJNJMHTYGYZZ","A27W025UEXS1G0","3S829FDFT2NBOHQMM1CIOU0HZYXDXL","","305.79999999701977","img/land3.png","76","306.30000000074506","3","1","false","3","0.8,0.2,0.2,0.2,0.8,0.2,0.2,0.2,0.8","",""
"","html-keyboard-response","77","52347","0.0-114.0","3DH6GAKTYZB5D7JMAHSJNJMHTYGYZZ","A27W025UEXS1G0","3S829FDFT2NBOHQMM1CIOU0HZYXDXL","","null","<img src=""img/land3.png"" style=""width:200px; border:14px solid green;"">","null","","","","","","","",""
"","image-keyboard-response","78","52709","0.0-116.0","3DH6GAKTYZB5D7JMAHSJNJMHTYGYZZ","A27W025UEXS1G0","3S829FDFT2NBOHQMM1CIOU0HZYXDXL","","361.29999999701977","img/land3.png","76","361.8999999985099","3","0","false","3","0.8,0.2,0.2,0.2,0.8,0.2,0.2,0.2,0.8","",""
"","html-keyboard-response","79","53011","0.0-117.0","3DH6GAKTYZB5D7JMAHSJNJMHTYGYZZ","A27W025UEXS1G0","3S829FDFT2NBOHQMM1CIOU0HZYXDXL","","null","<img src=""img/land3.png"" style=""width:200px;border:14px solid red;"">","null","","","","","","","",""
"","image-keyboard-response","80","53453","0.0-119.0","3DH6GAKTYZB5D7JMAHSJNJMHTYGYZZ","A27W025UEXS1G0","3S829FDFT2NBOHQMM1CIOU0HZYXDXL","","441.6000000014901","img/land5.png","75","442.29999999701977","2","1","false","2","0.8,0.2,0.2,0.2,0.8,0.2,0.2,0.2,0.8","",""
"","html-keyboard-response","81","53755","0.0-120.0","3DH6GAKTYZB5D7JMAHSJNJMHTYGYZZ","A27W025UEXS1G0","3S829FDFT2NBOHQMM1CIOU0HZYXDXL","","null","<img src=""img/land5.png"" style=""width:200px; border:14px solid green;"">","null","","","","","","","",""
"","image-keyboard-response","82","54093","0.0-122.0","3DH6GAKTYZB5D7JMAHSJNJMHTYGYZZ","A27W025UEXS1G0","3S829FDFT2NBOHQMM1CIOU0HZYXDXL","","337.5999999977648","img/land5.png","75","338.19999999925494","2","1","false","2","0.8,0.2,0.2,0.2,0.8,0.2,0.2,0.2,0.8","",""
"","html-keyboard-response","83","54394","0.0-123.0","3DH6GAKTYZB5D7JMAHSJNJMHTYGYZZ","A27W025UEXS1G0","3S829FDFT2NBOHQMM1CIOU0HZYXDXL","","null","<img src=""img/land5.png"" style=""width:200px; border:14px solid green;"">","null","","","","","","","",""
"","image-keyboard-response","84","54709","0.0-125.0","3DH6GAKTYZB5D7JMAHSJNJMHTYGYZZ","A27W025UEXS1G0","3S829FDFT2NBOHQMM1CIOU0HZYXDXL","","314.5","img/land5.png","75","314.8999999985099","2","1","false","2","0.8,0.2,0.2,0.2,0.8,0.2,0.2,0.2,0.8","",""
"","html-keyboard-response","85","55011","0.0-126.0","3DH6GAKTYZB5D7JMAHSJNJMHTYGYZZ","A27W025UEXS1G0","3S829FDFT2NBOHQMM1CIOU0HZYXDXL","","null","<img src=""img/land5.png"" style=""width:200px; border:14px solid green;"">","null","","","","","","","",""
"","image-keyboard-response","86","55493","0.0-128.0","3DH6GAKTYZB5D7JMAHSJNJMHTYGYZZ","A27W025UEXS1G0","3S829FDFT2NBOHQMM1CIOU0HZYXDXL","","481.5999999977648","img/land9.png","74","482.0999999977648","1","1","false","1","0.8,0.2,0.2,0.2,0.8,0.2,0.2,0.2,0.8","",""
"","html-keyboard-response","87","55795","0.0-129.0","3DH6GAKTYZB5D7JMAHSJNJMHTYGYZZ","A27W025UEXS1G0","3S829FDFT2NBOHQMM1CIOU0HZYXDXL","","null","<img src=""img/land9.png"" style=""width:200px; border:14px solid green;"">","null","","","","","","","",""
"","image-keyboard-response","88","56166","0.0-131.0","3DH6GAKTYZB5D7JMAHSJNJMHTYGYZZ","A27W025UEXS1G0","3S829FDFT2NBOHQMM1CIOU0HZYXDXL","","370.0999999977648","img/land3.png","76","370.70000000298023","3","1","false","3","0.8,0.2,0.2,0.2,0.8,0.2,0.2,0.2,0.8","",""
"","html-keyboard-response","89","56467","0.0-132.0","3DH6GAKTYZB5D7JMAHSJNJMHTYGYZZ","A27W025UEXS1G0","3S829FDFT2NBOHQMM1CIOU0HZYXDXL","","null","<img src=""img/land3.png"" style=""width:200px; border:14px solid green;"">","null","","","","","","","",""
"","image-keyboard-response","90","56797","0.0-134.0","3DH6GAKTYZB5D7JMAHSJNJMHTYGYZZ","A27W025UEXS1G0","3S829FDFT2NBOHQMM1CIOU0HZYXDXL","","329","img/land3.png","76","329.5","3","1","false","3","0.8,0.2,0.2,0.2,0.8,0.2,0.2,0.2,0.8","",""
"","html-keyboard-response","91","57099","0.0-135.0","3DH6GAKTYZB5D7JMAHSJNJMHTYGYZZ","A27W025UEXS1G0","3S829FDFT2NBOHQMM1CIOU0HZYXDXL","","null","<img src=""img/land3.png"" style=""width:200px; border:14px solid green;"">","null","","","","","","","",""
"","image-keyboard-response","92","57685","0.0-137.0","3DH6GAKTYZB5D7JMAHSJNJMHTYGYZZ","A27W025UEXS1G0","3S829FDFT2NBOHQMM1CIOU0HZYXDXL","","585.5","img/land5.png","75","586","2","1","false","2","0.8,0.2,0.2,0.2,0.8,0.2,0.2,0.2,0.8","",""
"","html-keyboard-response","93","57986","0.0-138.0","3DH6GAKTYZB5D7JMAHSJNJMHTYGYZZ","A27W025UEXS1G0","3S829FDFT2NBOHQMM1CIOU0HZYXDXL","","null","<img src=""img/land5.png"" style=""width:200px; border:14px solid green;"">","null","","","","","","","",""
"","image-keyboard-response","94","58293","0.0-140.0","3DH6GAKTYZB5D7JMAHSJNJMHTYGYZZ","A27W025UEXS1G0","3S829FDFT2NBOHQMM1CIOU0HZYXDXL","","306","img/land5.png","75","306.3999999985099","2","1","false","2","0.8,0.2,0.2,0.2,0.8,0.2,0.2,0.2,0.8","",""
"","html-keyboard-response","95","58594","0.0-141.0","3DH6GAKTYZB5D7JMAHSJNJMHTYGYZZ","A27W025UEXS1G0","3S829FDFT2NBOHQMM1CIOU0HZYXDXL","","null","<img src=""img/land5.png"" style=""width:200px; border:14px solid green;"">","null","","","","","","","",""
"","image-keyboard-response","96","59037","0.0-143.0","3DH6GAKTYZB5D7JMAHSJNJMHTYGYZZ","A27W025UEXS1G0","3S829FDFT2NBOHQMM1CIOU0HZYXDXL","","442","img/land9.png","74","442.3999999985099","1","1","false","1","0.8,0.2,0.2,0.2,0.8,0.2,0.2,0.2,0.8","",""
"","html-keyboard-response","97","59338","0.0-144.0","3DH6GAKTYZB5D7JMAHSJNJMHTYGYZZ","A27W025UEXS1G0","3S829FDFT2NBOHQMM1CIOU0HZYXDXL","","null","<img src=""img/land9.png"" style=""width:200px; border:14px solid green;"">","null","","","","","","","",""
"","image-keyboard-response","98","59621","0.0-146.0","3DH6GAKTYZB5D7JMAHSJNJMHTYGYZZ","A27W025UEXS1G0","3S829FDFT2NBOHQMM1CIOU0HZYXDXL","","282.19999999925494","img/land9.png","74","282.69999999925494","1","1","false","1","0.8,0.2,0.2,0.2,0.8,0.2,0.2,0.2,0.8","",""
"","html-keyboard-response","99","59922","0.0-147.0","3DH6GAKTYZB5D7JMAHSJNJMHTYGYZZ","A27W025UEXS1G0","3S829FDFT2NBOHQMM1CIOU0HZYXDXL","","null","<img src=""img/land9.png"" style=""width:200px; border:14px solid green;"">","null","","","","","","","",""
"","image-keyboard-response","100","60333","0.0-149.0","3DH6GAKTYZB5D7JMAHSJNJMHTYGYZZ","A27W025UEXS1G0","3S829FDFT2NBOHQMM1CIOU0HZYXDXL","","409.70000000298023","img/land3.png","76","410.19999999925494","3","1","false","3","0.8,0.2,0.2,0.2,0.8,0.2,0.2,0.2,0.8","",""
"","html-keyboard-response","101","60634","0.0-150.0","3DH6GAKTYZB5D7JMAHSJNJMHTYGYZZ","A27W025UEXS1G0","3S829FDFT2NBOHQMM1CIOU0HZYXDXL","","null","<img src=""img/land3.png"" style=""width:200px; border:14px solid green;"">","null","","","","","","","",""
"","image-keyboard-response","102","60917","0.0-152.0","3DH6GAKTYZB5D7JMAHSJNJMHTYGYZZ","A27W025UEXS1G0","3S829FDFT2NBOHQMM1CIOU0HZYXDXL","","282.0999999977648","img/land3.png","76","282.6000000014901","3","0","false","3","0.8,0.2,0.2,0.2,0.8,0.2,0.2,0.2,0.8","",""
"","html-keyboard-response","103","61218","0.0-153.0","3DH6GAKTYZB5D7JMAHSJNJMHTYGYZZ","A27W025UEXS1G0","3S829FDFT2NBOHQMM1CIOU0HZYXDXL","","null","<img src=""img/land3.png"" style=""width:200px;border:14px solid red;"">","null","","","","","","","",""
"","image-keyboard-response","104","61645","0.0-155.0","3DH6GAKTYZB5D7JMAHSJNJMHTYGYZZ","A27W025UEXS1G0","3S829FDFT2NBOHQMM1CIOU0HZYXDXL","","426.1000000014901","img/land9.png","74","426.70000000298023","1","1","false","1","0.8,0.2,0.2,0.2,0.8,0.2,0.2,0.2,0.8","",""
"","html-keyboard-response","105","61947","0.0-156.0","3DH6GAKTYZB5D7JMAHSJNJMHTYGYZZ","A27W025UEXS1G0","3S829FDFT2NBOHQMM1CIOU0HZYXDXL","","null","<img src=""img/land9.png"" style=""width:200px; border:14px solid green;"">","null","","","","","","","",""
"","image-keyboard-response","106","62261","0.0-158.0","3DH6GAKTYZB5D7JMAHSJNJMHTYGYZZ","A27W025UEXS1G0","3S829FDFT2NBOHQMM1CIOU0HZYXDXL","","313.8999999985099","img/land9.png","74","314.30000000074506","1","1","false","1","0.8,0.2,0.2,0.2,0.8,0.2,0.2,0.2,0.8","",""
"","html-keyboard-response","107","62562","0.0-159.0","3DH6GAKTYZB5D7JMAHSJNJMHTYGYZZ","A27W025UEXS1G0","3S829FDFT2NBOHQMM1CIOU0HZYXDXL","","null","<img src=""img/land9.png"" style=""width:200px; border:14px solid green;"">","null","","","","","","","",""
"","image-keyboard-response","108","62989","0.0-161.0","3DH6GAKTYZB5D7JMAHSJNJMHTYGYZZ","A27W025UEXS1G0","3S829FDFT2NBOHQMM1CIOU0HZYXDXL","","425.80000000074506","img/land5.png","75","426.29999999701977","2","0","false","2","0.8,0.2,0.2,0.2,0.8,0.2,0.2,0.2,0.8","",""
"","html-keyboard-response","109","63290","0.0-162.0","3DH6GAKTYZB5D7JMAHSJNJMHTYGYZZ","A27W025UEXS1G0","3S829FDFT2NBOHQMM1CIOU0HZYXDXL","","null","<img src=""img/land5.png"" style=""width:200px;border:14px solid red;"">","null","","","","","","","",""
"","image-keyboard-response","110","63845","0.0-164.0","3DH6GAKTYZB5D7JMAHSJNJMHTYGYZZ","A27W025UEXS1G0","3S829FDFT2NBOHQMM1CIOU0HZYXDXL","","554.1999999992549","img/land9.png","74","554.8000000007451","1","1","false","1","0.8,0.2,0.2,0.2,0.8,0.2,0.2,0.2,0.8","",""
"","html-keyboard-response","111","64146","0.0-165.0","3DH6GAKTYZB5D7JMAHSJNJMHTYGYZZ","A27W025UEXS1G0","3S829FDFT2NBOHQMM1CIOU0HZYXDXL","","null","<img src=""img/land9.png"" style=""width:200px; border:14px solid green;"">","null","","","","","","","",""
"","image-keyboard-response","112","64621","0.0-167.0","3DH6GAKTYZB5D7JMAHSJNJMHTYGYZZ","A27W025UEXS1G0","3S829FDFT2NBOHQMM1CIOU0HZYXDXL","","474.19999999925494","img/land3.png","76","474.70000000298023","3","1","false","3","0.8,0.2,0.2,0.2,0.8,0.2,0.2,0.2,0.8","",""
"","html-keyboard-response","113","64922","0.0-168.0","3DH6GAKTYZB5D7JMAHSJNJMHTYGYZZ","A27W025UEXS1G0","3S829FDFT2NBOHQMM1CIOU0HZYXDXL","","null","<img src=""img/land3.png"" style=""width:200px; border:14px solid green;"">","null","","","","","","","",""
"","image-keyboard-response","114","65421","0.0-170.0","3DH6GAKTYZB5D7JMAHSJNJMHTYGYZZ","A27W025UEXS1G0","3S829FDFT2NBOHQMM1CIOU0HZYXDXL","","498","img/land9.png","74","498.5","1","1","false","1","0.8,0.2,0.2,0.2,0.8,0.2,0.2,0.2,0.8","",""
"","html-keyboard-response","115","65722","0.0-171.0","3DH6GAKTYZB5D7JMAHSJNJMHTYGYZZ","A27W025UEXS1G0","3S829FDFT2NBOHQMM1CIOU0HZYXDXL","","null","<img src=""img/land9.png"" style=""width:200px; border:14px solid green;"">","null","","","","","","","",""
"","image-keyboard-response","116","66133","0.0-173.0","3DH6GAKTYZB5D7JMAHSJNJMHTYGYZZ","A27W025UEXS1G0","3S829FDFT2NBOHQMM1CIOU0HZYXDXL","","410.19999999925494","img/land5.png","75","410.69999999925494","2","1","false","2","0.8,0.2,0.2,0.2,0.8,0.2,0.2,0.2,0.8","",""
"","html-keyboard-response","117","66435","0.0-174.0","3DH6GAKTYZB5D7JMAHSJNJMHTYGYZZ","A27W025UEXS1G0","3S829FDFT2NBOHQMM1CIOU0HZYXDXL","","null","<img src=""img/land5.png"" style=""width:200px; border:14px solid green;"">","null","","","","","","","",""
"","image-keyboard-response","118","66861","0.0-176.0","3DH6GAKTYZB5D7JMAHSJNJMHTYGYZZ","A27W025UEXS1G0","3S829FDFT2NBOHQMM1CIOU0HZYXDXL","","425.70000000298023","img/land3.png","76","426.19999999925494","3","0","false","3","0.8,0.2,0.2,0.2,0.8,0.2,0.2,0.2,0.8","",""
"","html-keyboard-response","119","67162","0.0-177.0","3DH6GAKTYZB5D7JMAHSJNJMHTYGYZZ","A27W025UEXS1G0","3S829FDFT2NBOHQMM1CIOU0HZYXDXL","","null","<img src=""img/land3.png"" style=""width:200px;border:14px solid red;"">","null","","","","","","","",""
"","image-keyboard-response","120","67597","0.0-179.0","3DH6GAKTYZB5D7JMAHSJNJMHTYGYZZ","A27W025UEXS1G0","3S829FDFT2NBOHQMM1CIOU0HZYXDXL","","434.1000000014901","img/land9.png","74","434.5","1","0","false","1","0.8,0.2,0.2,0.2,0.8,0.2,0.2,0.2,0.8","",""
"","html-keyboard-response","121","67898","0.0-180.0","3DH6GAKTYZB5D7JMAHSJNJMHTYGYZZ","A27W025UEXS1G0","3S829FDFT2NBOHQMM1CIOU0HZYXDXL","","null","<img src=""img/land9.png"" style=""width:200px;border:14px solid red;"">","null","","","","","","","",""
"","image-keyboard-response","122","68309","0.0-182.0","3DH6GAKTYZB5D7JMAHSJNJMHTYGYZZ","A27W025UEXS1G0","3S829FDFT2NBOHQMM1CIOU0HZYXDXL","","410","img/land3.png","75","410.29999999701977","2","0","false","3","0.8,0.2,0.2,0.2,0.8,0.2,0.2,0.2,0.8","",""
"","html-keyboard-response","123","68610","0.0-183.0","3DH6GAKTYZB5D7JMAHSJNJMHTYGYZZ","A27W025UEXS1G0","3S829FDFT2NBOHQMM1CIOU0HZYXDXL","","null","<img src=""img/land3.png"" style=""width:200px;border:14px solid red;"">","null","","","","","","","",""
"","image-keyboard-response","124","69245","0.0-185.0","3DH6GAKTYZB5D7JMAHSJNJMHTYGYZZ","A27W025UEXS1G0","3S829FDFT2NBOHQMM1CIOU0HZYXDXL","","633.9000000022352","img/land9.png","74","634.3000000007451","1","1","false","1","0.8,0.2,0.2,0.2,0.8,0.2,0.2,0.2,0.8","",""
"","html-keyboard-response","125","69547","0.0-186.0","3DH6GAKTYZB5D7JMAHSJNJMHTYGYZZ","A27W025UEXS1G0","3S829FDFT2NBOHQMM1CIOU0HZYXDXL","","null","<img src=""img/land9.png"" style=""width:200px; border:14px solid green;"">","null","","","","","","","",""
"","image-keyboard-response","126","69925","0.0-188.0","3DH6GAKTYZB5D7JMAHSJNJMHTYGYZZ","A27W025UEXS1G0","3S829FDFT2NBOHQMM1CIOU0HZYXDXL","","377.5","img/land9.png","74","378","1","0","false","1","0.8,0.2,0.2,0.2,0.8,0.2,0.2,0.2,0.8","",""
"","html-keyboard-response","127","70226","0.0-189.0","3DH6GAKTYZB5D7JMAHSJNJMHTYGYZZ","A27W025UEXS1G0","3S829FDFT2NBOHQMM1CIOU0HZYXDXL","","null","<img src=""img/land9.png"" style=""width:200px;border:14px solid red;"">","null","","","","","","","",""
"","image-keyboard-response","128","70525","0.0-191.0","3DH6GAKTYZB5D7JMAHSJNJMHTYGYZZ","A27W025UEXS1G0","3S829FDFT2NBOHQMM1CIOU0HZYXDXL","","298.5","img/land9.png","74","299.0999999977648","1","1","false","1","0.8,0.2,0.2,0.2,0.8,0.2,0.2,0.2,0.8","",""
"","html-keyboard-response","129","70827","0.0-192.0","3DH6GAKTYZB5D7JMAHSJNJMHTYGYZZ","A27W025UEXS1G0","3S829FDFT2NBOHQMM1CIOU0HZYXDXL","","null","<img src=""img/land9.png"" style=""width:200px; border:14px solid green;"">","null","","","","","","","",""
"","image-keyboard-response","130","71366","0.0-194.0","3DH6GAKTYZB5D7JMAHSJNJMHTYGYZZ","A27W025UEXS1G0","3S829FDFT2NBOHQMM1CIOU0HZYXDXL","","538.4000000022352","img/land5.png","75","539","2","1","false","2","0.8,0.2,0.2,0.2,0.8,0.2,0.2,0.2,0.8","",""
"","html-keyboard-response","131","71667","0.0-195.0","3DH6GAKTYZB5D7JMAHSJNJMHTYGYZZ","A27W025UEXS1G0","3S829FDFT2NBOHQMM1CIOU0HZYXDXL","","null","<img src=""img/land5.png"" style=""width:200px; border:14px solid green;"">","null","","","","","","","",""
"","image-keyboard-response","132","72061","0.0-197.0","3DH6GAKTYZB5D7JMAHSJNJMHTYGYZZ","A27W025UEXS1G0","3S829FDFT2NBOHQMM1CIOU0HZYXDXL","","393.3999999985099","img/land3.png","76","394","3","1","false","3","0.8,0.2,0.2,0.2,0.8,0.2,0.2,0.2,0.8","",""
"","html-keyboard-response","133","72363","0.0-198.0","3DH6GAKTYZB5D7JMAHSJNJMHTYGYZZ","A27W025UEXS1G0","3S829FDFT2NBOHQMM1CIOU0HZYXDXL","","null","<img src=""img/land3.png"" style=""width:200px; border:14px solid green;"">","null","","","","","","","",""
"","image-keyboard-response","134","72917","0.0-200.0","3DH6GAKTYZB5D7JMAHSJNJMHTYGYZZ","A27W025UEXS1G0","3S829FDFT2NBOHQMM1CIOU0HZYXDXL","","554","img/land9.png","74","554.6999999992549","1","1","false","1","0.8,0.2,0.2,0.2,0.8,0.2,0.2,0.2,0.8","",""
"","html-keyboard-response","135","73219","0.0-201.0","3DH6GAKTYZB5D7JMAHSJNJMHTYGYZZ","A27W025UEXS1G0","3S829FDFT2NBOHQMM1CIOU0HZYXDXL","","null","<img src=""img/land9.png"" style=""width:200px; border:14px solid green;"">","null","","","","","","","",""
"","image-keyboard-response","136","73837","0.0-203.0","3DH6GAKTYZB5D7JMAHSJNJMHTYGYZZ","A27W025UEXS1G0","3S829FDFT2NBOHQMM1CIOU0HZYXDXL","","617.5","img/land5.png","75","618","2","1","false","2","0.8,0.2,0.2,0.2,0.8,0.2,0.2,0.2,0.8","",""
"","html-keyboard-response","137","74138","0.0-204.0","3DH6GAKTYZB5D7JMAHSJNJMHTYGYZZ","A27W025UEXS1G0","3S829FDFT2NBOHQMM1CIOU0HZYXDXL","","null","<img src=""img/land5.png"" style=""width:200px; border:14px solid green;"">","null","","","","","","","",""
"","image-keyboard-response","138","74469","0.0-206.0","3DH6GAKTYZB5D7JMAHSJNJMHTYGYZZ","A27W025UEXS1G0","3S829FDFT2NBOHQMM1CIOU0HZYXDXL","","330.19999999925494","img/land5.png","75","330.6000000014901","2","1","false","2","0.8,0.2,0.2,0.2,0.8,0.2,0.2,0.2,0.8","",""
"","html-keyboard-response","139","74771","0.0-207.0","3DH6GAKTYZB5D7JMAHSJNJMHTYGYZZ","A27W025UEXS1G0","3S829FDFT2NBOHQMM1CIOU0HZYXDXL","","null","<img src=""img/land5.png"" style=""width:200px; border:14px solid green;"">","null","","","","","","","",""
"","image-keyboard-response","140","75197","0.0-209.0","3DH6GAKTYZB5D7JMAHSJNJMHTYGYZZ","A27W025UEXS1G0","3S829FDFT2NBOHQMM1CIOU0HZYXDXL","","425.5","img/land3.png","76","426.0999999977648","3","1","false","3","0.8,0.2,0.2,0.2,0.8,0.2,0.2,0.2,0.8","",""
"","html-keyboard-response","141","75498","0.0-210.0","3DH6GAKTYZB5D7JMAHSJNJMHTYGYZZ","A27W025UEXS1G0","3S829FDFT2NBOHQMM1CIOU0HZYXDXL","","null","<img src=""img/land3.png"" style=""width:200px; border:14px solid green;"">","null","","","","","","","",""
"","image-keyboard-response","142","76022","0.0-212.0","3DH6GAKTYZB5D7JMAHSJNJMHTYGYZZ","A27W025UEXS1G0","3S829FDFT2NBOHQMM1CIOU0HZYXDXL","","523.1999999992549","img/land5.png","75","523.8000000007451","2","1","false","2","0.8,0.2,0.2,0.2,0.8,0.2,0.2,0.2,0.8","",""
"","html-keyboard-response","143","76323","0.0-213.0","3DH6GAKTYZB5D7JMAHSJNJMHTYGYZZ","A27W025UEXS1G0","3S829FDFT2NBOHQMM1CIOU0HZYXDXL","","null","<img src=""img/land5.png"" style=""width:200px; border:14px solid green;"">","null","","","","","","","",""
"","image-keyboard-response","144","76750","0.0-215.0","3DH6GAKTYZB5D7JMAHSJNJMHTYGYZZ","A27W025UEXS1G0","3S829FDFT2NBOHQMM1CIOU0HZYXDXL","","425.69999999925494","img/land9.png","74","426.19999999925494","1","1","false","1","0.8,0.2,0.2,0.2,0.8,0.2,0.2,0.2,0.8","",""
"","html-keyboard-response","145","77051","0.0-216.0","3DH6GAKTYZB5D7JMAHSJNJMHTYGYZZ","A27W025UEXS1G0","3S829FDFT2NBOHQMM1CIOU0HZYXDXL","","null","<img src=""img/land9.png"" style=""width:200px; border:14px solid green;"">","null","","","","","","","",""
"","image-keyboard-response","146","77334","0.0-218.0","3DH6GAKTYZB5D7JMAHSJNJMHTYGYZZ","A27W025UEXS1G0","3S829FDFT2NBOHQMM1CIOU0HZYXDXL","","281.8999999985099","img/land9.png","74","282.30000000074506","1","0","false","1","0.8,0.2,0.2,0.2,0.8,0.2,0.2,0.2,0.8","",""
"","html-keyboard-response","147","77635","0.0-219.0","3DH6GAKTYZB5D7JMAHSJNJMHTYGYZZ","A27W025UEXS1G0","3S829FDFT2NBOHQMM1CIOU0HZYXDXL","","null","<img src=""img/land9.png"" style=""width:200px;border:14px solid red;"">","null","","","","","","","",""
"","image-keyboard-response","148","78093","0.0-221.0","3DH6GAKTYZB5D7JMAHSJNJMHTYGYZZ","A27W025UEXS1G0","3S829FDFT2NBOHQMM1CIOU0HZYXDXL","","457","img/land3.png","76","457.5","3","1","false","3","0.8,0.2,0.2,0.2,0.8,0.2,0.2,0.2,0.8","",""
"","html-keyboard-response","149","78395","0.0-222.0","3DH6GAKTYZB5D7JMAHSJNJMHTYGYZZ","A27W025UEXS1G0","3S829FDFT2NBOHQMM1CIOU0HZYXDXL","","null","<img src=""img/land3.png"" style=""width:200px; border:14px solid green;"">","null","","","","","","","",""
"","image-keyboard-response","150","78901","0.0-224.0","3DH6GAKTYZB5D7JMAHSJNJMHTYGYZZ","A27W025UEXS1G0","3S829FDFT2NBOHQMM1CIOU0HZYXDXL","","505.79999999701977","img/land9.png","74","506.3999999985099","1","0","false","1","0.8,0.2,0.2,0.2,0.8,0.2,0.2,0.2,0.8","",""
"","html-keyboard-response","151","79203","0.0-225.0","3DH6GAKTYZB5D7JMAHSJNJMHTYGYZZ","A27W025UEXS1G0","3S829FDFT2NBOHQMM1CIOU0HZYXDXL","","null","<img src=""img/land9.png"" style=""width:200px;border:14px solid red;"">","null","","","","","","","",""
"","image-keyboard-response","152","79541","0.0-227.0","3DH6GAKTYZB5D7JMAHSJNJMHTYGYZZ","A27W025UEXS1G0","3S829FDFT2NBOHQMM1CIOU0HZYXDXL","","337.30000000074506","img/land9.png","74","337.8999999985099","1","1","false","1","0.8,0.2,0.2,0.2,0.8,0.2,0.2,0.2,0.8","",""
"","html-keyboard-response","153","79846","0.0-228.0","3DH6GAKTYZB5D7JMAHSJNJMHTYGYZZ","A27W025UEXS1G0","3S829FDFT2NBOHQMM1CIOU0HZYXDXL","","null","<img src=""img/land9.png"" style=""width:200px; border:14px solid green;"">","null","","","","","","","",""
"","image-keyboard-response","154","80189","0.0-230.0","3DH6GAKTYZB5D7JMAHSJNJMHTYGYZZ","A27W025UEXS1G0","3S829FDFT2NBOHQMM1CIOU0HZYXDXL","","342.0999999977648","img/land9.png","74","342.69999999925494","1","1","false","1","0.8,0.2,0.2,0.2,0.8,0.2,0.2,0.2,0.8","",""
"","html-keyboard-response","155","80491","0.0-231.0","3DH6GAKTYZB5D7JMAHSJNJMHTYGYZZ","A27W025UEXS1G0","3S829FDFT2NBOHQMM1CIOU0HZYXDXL","","null","<img src=""img/land9.png"" style=""width:200px; border:14px solid green;"">","null","","","","","","","",""
"","image-keyboard-response","156","81109","0.0-233.0","3DH6GAKTYZB5D7JMAHSJNJMHTYGYZZ","A27W025UEXS1G0","3S829FDFT2NBOHQMM1CIOU0HZYXDXL","","617.3999999985099","img/land5.png","75","617.8999999985099","2","1","false","2","0.8,0.2,0.2,0.2,0.8,0.2,0.2,0.2,0.8","",""
"","html-keyboard-response","157","81410","0.0-234.0","3DH6GAKTYZB5D7JMAHSJNJMHTYGYZZ","A27W025UEXS1G0","3S829FDFT2NBOHQMM1CIOU0HZYXDXL","","null","<img src=""img/land5.png"" style=""width:200px; border:14px solid green;"">","null","","","","","","","",""
"","image-keyboard-response","158","81781","0.0-236.0","3DH6GAKTYZB5D7JMAHSJNJMHTYGYZZ","A27W025UEXS1G0","3S829FDFT2NBOHQMM1CIOU0HZYXDXL","","370.0999999977648","img/land5.png","75","370.5999999977648","2","1","false","2","0.8,0.2,0.2,0.2,0.8,0.2,0.2,0.2,0.8","",""
"","html-keyboard-response","159","82082","0.0-237.0","3DH6GAKTYZB5D7JMAHSJNJMHTYGYZZ","A27W025UEXS1G0","3S829FDFT2NBOHQMM1CIOU0HZYXDXL","","null","<img src=""img/land5.png"" style=""width:200px; border:14px solid green;"">","null","","","","","","","",""
"","image-keyboard-response","160","82605","0.0-239.0","3DH6GAKTYZB5D7JMAHSJNJMHTYGYZZ","A27W025UEXS1G0","3S829FDFT2NBOHQMM1CIOU0HZYXDXL","","521.5","img/land9.png","74","522","1","0","false","1","0.8,0.2,0.2,0.2,0.8,0.2,0.2,0.2,0.8","",""
"","html-keyboard-response","161","82906","0.0-240.0","3DH6GAKTYZB5D7JMAHSJNJMHTYGYZZ","A27W025UEXS1G0","3S829FDFT2NBOHQMM1CIOU0HZYXDXL","","null","<img src=""img/land9.png"" style=""width:200px;border:14px solid red;"">","null","","","","","","","",""
"","image-keyboard-response","162","83357","0.0-242.0","3DH6GAKTYZB5D7JMAHSJNJMHTYGYZZ","A27W025UEXS1G0","3S829FDFT2NBOHQMM1CIOU0HZYXDXL","","450.0999999977648","img/land3.png","76","450.5","3","0","false","3","0.8,0.2,0.2,0.2,0.8,0.2,0.2,0.2,0.8","",""
"","html-keyboard-response","163","83659","0.0-243.0","3DH6GAKTYZB5D7JMAHSJNJMHTYGYZZ","A27W025UEXS1G0","3S829FDFT2NBOHQMM1CIOU0HZYXDXL","","null","<img src=""img/land3.png"" style=""width:200px;border:14px solid red;"">","null","","","","","","","",""
"","image-keyboard-response","164","84141","0.0-245.0","3DH6GAKTYZB5D7JMAHSJNJMHTYGYZZ","A27W025UEXS1G0","3S829FDFT2NBOHQMM1CIOU0HZYXDXL","","481.6000000014901","img/land5.png","74","482.0999999977648","1","0","false","2","0.8,0.2,0.2,0.2,0.8,0.2,0.2,0.2,0.8","",""
"","html-keyboard-response","165","84444","0.0-246.0","3DH6GAKTYZB5D7JMAHSJNJMHTYGYZZ","A27W025UEXS1G0","3S829FDFT2NBOHQMM1CIOU0HZYXDXL","","null","<img src=""img/land5.png"" style=""width:200px;border:14px solid red;"">","null","","","","","","","",""
"","image-keyboard-response","166","84797","0.0-248.0","3DH6GAKTYZB5D7JMAHSJNJMHTYGYZZ","A27W025UEXS1G0","3S829FDFT2NBOHQMM1CIOU0HZYXDXL","","351.69999999925494","img/land5.png","75","352.0999999977648","2","1","false","2","0.8,0.2,0.2,0.2,0.8,0.2,0.2,0.2,0.8","",""
"","html-keyboard-response","167","85098","0.0-249.0","3DH6GAKTYZB5D7JMAHSJNJMHTYGYZZ","A27W025UEXS1G0","3S829FDFT2NBOHQMM1CIOU0HZYXDXL","","null","<img src=""img/land5.png"" style=""width:200px; border:14px solid green;"">","null","","","","","","","",""
"","image-keyboard-response","168","85757","0.0-251.0","3DH6GAKTYZB5D7JMAHSJNJMHTYGYZZ","A27W025UEXS1G0","3S829FDFT2NBOHQMM1CIOU0HZYXDXL","","658.5999999977648","img/land9.png","76","659.0999999977648","3","0","false","1","0.8,0.2,0.2,0.2,0.8,0.2,0.2,0.2,0.8","",""
"","html-keyboard-response","169","86059","0.0-252.0","3DH6GAKTYZB5D7JMAHSJNJMHTYGYZZ","A27W025UEXS1G0","3S829FDFT2NBOHQMM1CIOU0HZYXDXL","","null","<img src=""img/land9.png"" style=""width:200px;border:14px solid red;"">","null","","","","","","","",""
"","image-keyboard-response","170","86478","0.0-254.0","3DH6GAKTYZB5D7JMAHSJNJMHTYGYZZ","A27W025UEXS1G0","3S829FDFT2NBOHQMM1CIOU0HZYXDXL","","417.9000000022352","img/land9.png","74","418.5","1","1","false","1","0.8,0.2,0.2,0.2,0.8,0.2,0.2,0.2,0.8","",""
"","html-keyboard-response","171","86780","0.0-255.0","3DH6GAKTYZB5D7JMAHSJNJMHTYGYZZ","A27W025UEXS1G0","3S829FDFT2NBOHQMM1CIOU0HZYXDXL","","null","<img src=""img/land9.png"" style=""width:200px; border:14px solid green;"">","null","","","","","","","",""
"","image-keyboard-response","172","87149","0.0-257.0","3DH6GAKTYZB5D7JMAHSJNJMHTYGYZZ","A27W025UEXS1G0","3S829FDFT2NBOHQMM1CIOU0HZYXDXL","","368.69999999925494","img/land3.png","76","369.4000000022352","3","1","false","3","0.8,0.2,0.2,0.2,0.8,0.2,0.2,0.2,0.8","",""
"","html-keyboard-response","173","87450","0.0-258.0","3DH6GAKTYZB5D7JMAHSJNJMHTYGYZZ","A27W025UEXS1G0","3S829FDFT2NBOHQMM1CIOU0HZYXDXL","","null","<img src=""img/land3.png"" style=""width:200px; border:14px solid green;"">","null","","","","","","","",""
"","image-keyboard-response","174","87917","0.0-260.0","3DH6GAKTYZB5D7JMAHSJNJMHTYGYZZ","A27W025UEXS1G0","3S829FDFT2NBOHQMM1CIOU0HZYXDXL","","466.4000000022352","img/land5.png","75","466.8999999985099","2","0","false","2","0.8,0.2,0.2,0.2,0.8,0.2,0.2,0.2,0.8","",""
"","html-keyboard-response","175","88219","0.0-261.0","3DH6GAKTYZB5D7JMAHSJNJMHTYGYZZ","A27W025UEXS1G0","3S829FDFT2NBOHQMM1CIOU0HZYXDXL","","null","<img src=""img/land5.png"" style=""width:200px;border:14px solid red;"">","null","","","","","","","",""
"","image-keyboard-response","176","88589","0.0-263.0","3DH6GAKTYZB5D7JMAHSJNJMHTYGYZZ","A27W025UEXS1G0","3S829FDFT2NBOHQMM1CIOU0HZYXDXL","","369.79999999701977","img/land5.png","75","370.3999999985099","2","0","false","2","0.8,0.2,0.2,0.2,0.8,0.2,0.2,0.2,0.8","",""
"","html-keyboard-response","177","88890","0.0-264.0","3DH6GAKTYZB5D7JMAHSJNJMHTYGYZZ","A27W025UEXS1G0","3S829FDFT2NBOHQMM1CIOU0HZYXDXL","","null","<img src=""img/land5.png"" style=""width:200px;border:14px solid red;"">","null","","","","","","","",""
"","image-keyboard-response","178","89398","0.0-266.0","3DH6GAKTYZB5D7JMAHSJNJMHTYGYZZ","A27W025UEXS1G0","3S829FDFT2NBOHQMM1CIOU0HZYXDXL","","506.69999999925494","img/land9.png","74","507.19999999925494","1","1","false","1","0.8,0.2,0.2,0.2,0.8,0.2,0.2,0.2,0.8","",""
"","html-keyboard-response","179","89699","0.0-267.0","3DH6GAKTYZB5D7JMAHSJNJMHTYGYZZ","A27W025UEXS1G0","3S829FDFT2NBOHQMM1CIOU0HZYXDXL","","null","<img src=""img/land9.png"" style=""width:200px; border:14px solid green;"">","null","","","","","","","",""
"","image-keyboard-response","180","90109","0.0-269.0","3DH6GAKTYZB5D7JMAHSJNJMHTYGYZZ","A27W025UEXS1G0","3S829FDFT2NBOHQMM1CIOU0HZYXDXL","","409.5999999977648","img/land5.png","76","410.20000000298023","3","0","false","2","0.8,0.2,0.2,0.2,0.8,0.2,0.2,0.2,0.8","",""
"","html-keyboard-response","181","90411","0.0-270.0","3DH6GAKTYZB5D7JMAHSJNJMHTYGYZZ","A27W025UEXS1G0","3S829FDFT2NBOHQMM1CIOU0HZYXDXL","","null","<img src=""img/land5.png"" style=""width:200px;border:14px solid red;"">","null","","","","","","","",""
"","html-keyboard-response","182","92203","0.0-272.0","3DH6GAKTYZB5D7JMAHSJNJMHTYGYZZ","A27W025UEXS1G0","3S829FDFT2NBOHQMM1CIOU0HZYXDXL","","","","","","","","","","","",""
"","image-keyboard-response","183","92693","0.0-273.0","3DH6GAKTYZB5D7JMAHSJNJMHTYGYZZ","A27W025UEXS1G0","3S829FDFT2NBOHQMM1CIOU0HZYXDXL","","489","img/land4.png","74","489.5999999977648","1","0","false","1","0.8,0.8,0.2,0.2,0.8,0.8,0.8,0.2,0.8","",""
"","html-keyboard-response","184","92994","0.0-274.0","3DH6GAKTYZB5D7JMAHSJNJMHTYGYZZ","A27W025UEXS1G0","3S829FDFT2NBOHQMM1CIOU0HZYXDXL","","null","<img src=""img/land4.png"" style=""width:200px;border:14px solid red;"">","null","","","","","","","",""
"","image-keyboard-response","185","93429","0.0-276.0","3DH6GAKTYZB5D7JMAHSJNJMHTYGYZZ","A27W025UEXS1G0","3S829FDFT2NBOHQMM1CIOU0HZYXDXL","","433.80000000074506","img/land4.png","75","434.30000000074506","2","1","false","1","0.8,0.8,0.2,0.2,0.8,0.8,0.8,0.2,0.8","",""
"","html-keyboard-response","186","93731","0.0-277.0","3DH6GAKTYZB5D7JMAHSJNJMHTYGYZZ","A27W025UEXS1G0","3S829FDFT2NBOHQMM1CIOU0HZYXDXL","","null","<img src=""img/land4.png"" style=""width:200px; border:14px solid green;"">","null","","","","","","","",""
"","image-keyboard-response","187","94261","0.0-279.0","3DH6GAKTYZB5D7JMAHSJNJMHTYGYZZ","A27W025UEXS1G0","3S829FDFT2NBOHQMM1CIOU0HZYXDXL","","529.7999999970198","img/land1.png","74","530.2000000029802","1","0","false","2","0.8,0.8,0.2,0.2,0.8,0.8,0.8,0.2,0.8","",""
"","html-keyboard-response","188","94562","0.0-280.0","3DH6GAKTYZB5D7JMAHSJNJMHTYGYZZ","A27W025UEXS1G0","3S829FDFT2NBOHQMM1CIOU0HZYXDXL","","null","<img src=""img/land1.png"" style=""width:200px;border:14px solid red;"">","null","","","","","","","",""
"","image-keyboard-response","189","94909","0.0-282.0","3DH6GAKTYZB5D7JMAHSJNJMHTYGYZZ","A27W025UEXS1G0","3S829FDFT2NBOHQMM1CIOU0HZYXDXL","","346.19999999925494","img/land1.png","75","346.80000000074506","2","1","false","2","0.8,0.8,0.2,0.2,0.8,0.8,0.8,0.2,0.8","",""
"","html-keyboard-response","190","95211","0.0-283.0","3DH6GAKTYZB5D7JMAHSJNJMHTYGYZZ","A27W025UEXS1G0","3S829FDFT2NBOHQMM1CIOU0HZYXDXL","","null","<img src=""img/land1.png"" style=""width:200px; border:14px solid green;"">","null","","","","","","","",""
"","image-keyboard-response","191","95653","0.0-285.0","3DH6GAKTYZB5D7JMAHSJNJMHTYGYZZ","A27W025UEXS1G0","3S829FDFT2NBOHQMM1CIOU0HZYXDXL","","441.30000000074506","img/land4.png","75","441.69999999925494","2","1","false","1","0.8,0.8,0.2,0.2,0.8,0.8,0.8,0.2,0.8","",""
"","html-keyboard-response","192","95954","0.0-286.0","3DH6GAKTYZB5D7JMAHSJNJMHTYGYZZ","A27W025UEXS1G0","3S829FDFT2NBOHQMM1CIOU0HZYXDXL","","null","<img src=""img/land4.png"" style=""width:200px; border:14px solid green;"">","null","","","","","","","",""
"","image-keyboard-response","193","96165","0.0-288.0","3DH6GAKTYZB5D7JMAHSJNJMHTYGYZZ","A27W025UEXS1G0","3S829FDFT2NBOHQMM1CIOU0HZYXDXL","","209.89999999850988","img/land4.png","75","210.39999999850988","2","1","false","1","0.8,0.8,0.2,0.2,0.8,0.8,0.8,0.2,0.8","",""
"","html-keyboard-response","194","96467","0.0-289.0","3DH6GAKTYZB5D7JMAHSJNJMHTYGYZZ","A27W025UEXS1G0","3S829FDFT2NBOHQMM1CIOU0HZYXDXL","","null","<img src=""img/land4.png"" style=""width:200px; border:14px solid green;"">","null","","","","","","","",""
"","image-keyboard-response","195","96693","0.0-291.0","3DH6GAKTYZB5D7JMAHSJNJMHTYGYZZ","A27W025UEXS1G0","3S829FDFT2NBOHQMM1CIOU0HZYXDXL","","225.59999999776483","img/land1.png","75","226","2","1","false","2","0.8,0.8,0.2,0.2,0.8,0.8,0.8,0.2,0.8","",""
"","html-keyboard-response","196","96994","0.0-292.0","3DH6GAKTYZB5D7JMAHSJNJMHTYGYZZ","A27W025UEXS1G0","3S829FDFT2NBOHQMM1CIOU0HZYXDXL","","null","<img src=""img/land1.png"" style=""width:200px; border:14px solid green;"">","null","","","","","","","",""
"","image-keyboard-response","197","97141","0.0-294.0","3DH6GAKTYZB5D7JMAHSJNJMHTYGYZZ","A27W025UEXS1G0","3S829FDFT2NBOHQMM1CIOU0HZYXDXL","","146.79999999701977","img/land4.png","75","147.39999999850988","2","1","false","1","0.8,0.8,0.2,0.2,0.8,0.8,0.8,0.2,0.8","",""
"","html-keyboard-response","198","97443","0.0-295.0","3DH6GAKTYZB5D7JMAHSJNJMHTYGYZZ","A27W025UEXS1G0","3S829FDFT2NBOHQMM1CIOU0HZYXDXL","","null","<img src=""img/land4.png"" style=""width:200px; border:14px solid green;"">","null","","","","","","","",""
"","image-keyboard-response","199","97597","0.0-297.0","3DH6GAKTYZB5D7JMAHSJNJMHTYGYZZ","A27W025UEXS1G0","3S829FDFT2NBOHQMM1CIOU0HZYXDXL","","153.19999999925494","img/land4.png","75","154","2","1","false","1","0.8,0.8,0.2,0.2,0.8,0.8,0.8,0.2,0.8","",""
"","html-keyboard-response","200","97899","0.0-298.0","3DH6GAKTYZB5D7JMAHSJNJMHTYGYZZ","A27W025UEXS1G0","3S829FDFT2NBOHQMM1CIOU0HZYXDXL","","null","<img src=""img/land4.png"" style=""width:200px; border:14px solid green;"">","null","","","","","","","",""
"","image-keyboard-response","201","98133","0.0-300.0","3DH6GAKTYZB5D7JMAHSJNJMHTYGYZZ","A27W025UEXS1G0","3S829FDFT2NBOHQMM1CIOU0HZYXDXL","","234","img/land4.png","75","234.5","2","1","false","1","0.8,0.8,0.2,0.2,0.8,0.8,0.8,0.2,0.8","",""
"","html-keyboard-response","202","98434","0.0-301.0","3DH6GAKTYZB5D7JMAHSJNJMHTYGYZZ","A27W025UEXS1G0","3S829FDFT2NBOHQMM1CIOU0HZYXDXL","","null","<img src=""img/land4.png"" style=""width:200px; border:14px solid green;"">","null","","","","","","","",""
"","image-keyboard-response","203","98813","0.0-303.0","3DH6GAKTYZB5D7JMAHSJNJMHTYGYZZ","A27W025UEXS1G0","3S829FDFT2NBOHQMM1CIOU0HZYXDXL","","378.20000000298023","img/land1.png","75","378.6000000014901","2","1","false","2","0.8,0.8,0.2,0.2,0.8,0.8,0.8,0.2,0.8","",""
"","html-keyboard-response","204","99114","0.0-304.0","3DH6GAKTYZB5D7JMAHSJNJMHTYGYZZ","A27W025UEXS1G0","3S829FDFT2NBOHQMM1CIOU0HZYXDXL","","null","<img src=""img/land1.png"" style=""width:200px; border:14px solid green;"">","null","","","","","","","",""
"","image-keyboard-response","205","99309","0.0-306.0","3DH6GAKTYZB5D7JMAHSJNJMHTYGYZZ","A27W025UEXS1G0","3S829FDFT2NBOHQMM1CIOU0HZYXDXL","","194.09999999776483","img/land4.png","75","194.70000000298023","2","1","false","1","0.8,0.8,0.2,0.2,0.8,0.8,0.8,0.2,0.8","",""
"","html-keyboard-response","206","99610","0.0-307.0","3DH6GAKTYZB5D7JMAHSJNJMHTYGYZZ","A27W025UEXS1G0","3S829FDFT2NBOHQMM1CIOU0HZYXDXL","","null","<img src=""img/land4.png"" style=""width:200px; border:14px solid green;"">","null","","","","","","","",""
"","image-keyboard-response","207","99757","0.0-309.0","3DH6GAKTYZB5D7JMAHSJNJMHTYGYZZ","A27W025UEXS1G0","3S829FDFT2NBOHQMM1CIOU0HZYXDXL","","145.80000000074506","img/land6.png","75","146.19999999925494","2","1","false","3","0.8,0.8,0.2,0.2,0.8,0.8,0.8,0.2,0.8","",""
"","html-keyboard-response","208","100058","0.0-310.0","3DH6GAKTYZB5D7JMAHSJNJMHTYGYZZ","A27W025UEXS1G0","3S829FDFT2NBOHQMM1CIOU0HZYXDXL","","null","<img src=""img/land6.png"" style=""width:200px; border:14px solid green;"">","null","","","","","","","",""
"","image-keyboard-response","209","100301","0.0-312.0","3DH6GAKTYZB5D7JMAHSJNJMHTYGYZZ","A27W025UEXS1G0","3S829FDFT2NBOHQMM1CIOU0HZYXDXL","","242.30000000074506","img/land4.png","75","242.80000000074506","2","0","false","1","0.8,0.8,0.2,0.2,0.8,0.8,0.8,0.2,0.8","",""
"","html-keyboard-response","210","100602","0.0-313.0","3DH6GAKTYZB5D7JMAHSJNJMHTYGYZZ","A27W025UEXS1G0","3S829FDFT2NBOHQMM1CIOU0HZYXDXL","","null","<img src=""img/land4.png"" style=""width:200px;border:14px solid red;"">","null","","","","","","","",""
"","image-keyboard-response","211","100829","0.0-315.0","3DH6GAKTYZB5D7JMAHSJNJMHTYGYZZ","A27W025UEXS1G0","3S829FDFT2NBOHQMM1CIOU0HZYXDXL","","225.69999999925494","img/land6.png","75","226.30000000074506","2","0","false","3","0.8,0.8,0.2,0.2,0.8,0.8,0.8,0.2,0.8","",""
"","html-keyboard-response","212","101131","0.0-316.0","3DH6GAKTYZB5D7JMAHSJNJMHTYGYZZ","A27W025UEXS1G0","3S829FDFT2NBOHQMM1CIOU0HZYXDXL","","null","<img src=""img/land6.png"" style=""width:200px;border:14px solid red;"">","null","","","","","","","",""
"","image-keyboard-response","213","101429","0.0-318.0","3DH6GAKTYZB5D7JMAHSJNJMHTYGYZZ","A27W025UEXS1G0","3S829FDFT2NBOHQMM1CIOU0HZYXDXL","","297.80000000074506","img/land6.png","75","298.30000000074506","2","0","false","3","0.8,0.8,0.2,0.2,0.8,0.8,0.8,0.2,0.8","",""
"","html-keyboard-response","214","101730","0.0-319.0","3DH6GAKTYZB5D7JMAHSJNJMHTYGYZZ","A27W025UEXS1G0","3S829FDFT2NBOHQMM1CIOU0HZYXDXL","","null","<img src=""img/land6.png"" style=""width:200px;border:14px solid red;"">","null","","","","","","","",""
"","image-keyboard-response","215","102149","0.0-321.0","3DH6GAKTYZB5D7JMAHSJNJMHTYGYZZ","A27W025UEXS1G0","3S829FDFT2NBOHQMM1CIOU0HZYXDXL","","418.29999999701977","img/land1.png","75","418.8999999985099","2","1","false","2","0.8,0.8,0.2,0.2,0.8,0.8,0.8,0.2,0.8","",""
"","html-keyboard-response","216","102450","0.0-322.0","3DH6GAKTYZB5D7JMAHSJNJMHTYGYZZ","A27W025UEXS1G0","3S829FDFT2NBOHQMM1CIOU0HZYXDXL","","null","<img src=""img/land1.png"" style=""width:200px; border:14px solid green;"">","null","","","","","","","",""
"","image-keyboard-response","217","102597","0.0-324.0","3DH6GAKTYZB5D7JMAHSJNJMHTYGYZZ","A27W025UEXS1G0","3S829FDFT2NBOHQMM1CIOU0HZYXDXL","","145.89999999850988","img/land6.png","75","146.40000000223517","2","0","false","3","0.8,0.8,0.2,0.2,0.8,0.8,0.8,0.2,0.8","",""
"","html-keyboard-response","218","102899","0.0-325.0","3DH6GAKTYZB5D7JMAHSJNJMHTYGYZZ","A27W025UEXS1G0","3S829FDFT2NBOHQMM1CIOU0HZYXDXL","","null","<img src=""img/land6.png"" style=""width:200px;border:14px solid red;"">","null","","","","","","","",""
"","image-keyboard-response","219","103149","0.0-327.0","3DH6GAKTYZB5D7JMAHSJNJMHTYGYZZ","A27W025UEXS1G0","3S829FDFT2NBOHQMM1CIOU0HZYXDXL","","249.39999999850988","img/land4.png","75","249.89999999850988","2","0","false","1","0.8,0.8,0.2,0.2,0.8,0.8,0.8,0.2,0.8","",""
"","html-keyboard-response","220","103450","0.0-328.0","3DH6GAKTYZB5D7JMAHSJNJMHTYGYZZ","A27W025UEXS1G0","3S829FDFT2NBOHQMM1CIOU0HZYXDXL","","null","<img src=""img/land4.png"" style=""width:200px;border:14px solid red;"">","null","","","","","","","",""
"","image-keyboard-response","221","103693","0.0-330.0","3DH6GAKTYZB5D7JMAHSJNJMHTYGYZZ","A27W025UEXS1G0","3S829FDFT2NBOHQMM1CIOU0HZYXDXL","","242.19999999925494","img/land1.png","75","242.69999999925494","2","1","false","2","0.8,0.8,0.2,0.2,0.8,0.8,0.8,0.2,0.8","",""
"","html-keyboard-response","222","103994","0.0-331.0","3DH6GAKTYZB5D7JMAHSJNJMHTYGYZZ","A27W025UEXS1G0","3S829FDFT2NBOHQMM1CIOU0HZYXDXL","","null","<img src=""img/land1.png"" style=""width:200px; border:14px solid green;"">","null","","","","","","","",""
"","image-keyboard-response","223","104389","0.0-333.0","3DH6GAKTYZB5D7JMAHSJNJMHTYGYZZ","A27W025UEXS1G0","3S829FDFT2NBOHQMM1CIOU0HZYXDXL","","394.30000000074506","img/land6.png","75","394.8999999985099","2","0","false","3","0.8,0.8,0.2,0.2,0.8,0.8,0.8,0.2,0.8","",""
"","html-keyboard-response","224","104691","0.0-334.0","3DH6GAKTYZB5D7JMAHSJNJMHTYGYZZ","A27W025UEXS1G0","3S829FDFT2NBOHQMM1CIOU0HZYXDXL","","null","<img src=""img/land6.png"" style=""width:200px;border:14px solid red;"">","null","","","","","","","",""
"","image-keyboard-response","225","105021","0.0-336.0","3DH6GAKTYZB5D7JMAHSJNJMHTYGYZZ","A27W025UEXS1G0","3S829FDFT2NBOHQMM1CIOU0HZYXDXL","","330","img/land6.png","76","330.5999999977648","3","0","false","3","0.8,0.8,0.2,0.2,0.8,0.8,0.8,0.2,0.8","",""
"","html-keyboard-response","226","105323","0.0-337.0","3DH6GAKTYZB5D7JMAHSJNJMHTYGYZZ","A27W025UEXS1G0","3S829FDFT2NBOHQMM1CIOU0HZYXDXL","","null","<img src=""img/land6.png"" style=""width:200px;border:14px solid red;"">","null","","","","","","","",""
"","image-keyboard-response","227","105854","0.0-339.0","3DH6GAKTYZB5D7JMAHSJNJMHTYGYZZ","A27W025UEXS1G0","3S829FDFT2NBOHQMM1CIOU0HZYXDXL","","530.1999999992549","img/land1.png","75","531","2","1","false","2","0.8,0.8,0.2,0.2,0.8,0.8,0.8,0.2,0.8","",""
"","html-keyboard-response","228","106155","0.0-340.0","3DH6GAKTYZB5D7JMAHSJNJMHTYGYZZ","A27W025UEXS1G0","3S829FDFT2NBOHQMM1CIOU0HZYXDXL","","null","<img src=""img/land1.png"" style=""width:200px; border:14px solid green;"">","null","","","","","","","",""
"","image-keyboard-response","229","106589","0.0-342.0","3DH6GAKTYZB5D7JMAHSJNJMHTYGYZZ","A27W025UEXS1G0","3S829FDFT2NBOHQMM1CIOU0HZYXDXL","","433.5","img/land6.png","74","434","1","1","false","3","0.8,0.8,0.2,0.2,0.8,0.8,0.8,0.2,0.8","",""
"","html-keyboard-response","230","106891","0.0-343.0","3DH6GAKTYZB5D7JMAHSJNJMHTYGYZZ","A27W025UEXS1G0","3S829FDFT2NBOHQMM1CIOU0HZYXDXL","","null","<img src=""img/land6.png"" style=""width:200px; border:14px solid green;"">","null","","","","","","","",""
"","image-keyboard-response","231","107197","0.0-345.0","3DH6GAKTYZB5D7JMAHSJNJMHTYGYZZ","A27W025UEXS1G0","3S829FDFT2NBOHQMM1CIOU0HZYXDXL","","306","img/land6.png","75","306.6000000014901","2","0","false","3","0.8,0.8,0.2,0.2,0.8,0.8,0.8,0.2,0.8","",""
"","html-keyboard-response","232","107499","0.0-346.0","3DH6GAKTYZB5D7JMAHSJNJMHTYGYZZ","A27W025UEXS1G0","3S829FDFT2NBOHQMM1CIOU0HZYXDXL","","null","<img src=""img/land6.png"" style=""width:200px;border:14px solid red;"">","null","","","","","","","",""
"","image-keyboard-response","233","107637","0.0-348.0","3DH6GAKTYZB5D7JMAHSJNJMHTYGYZZ","A27W025UEXS1G0","3S829FDFT2NBOHQMM1CIOU0HZYXDXL","","137.59999999776483","img/land6.png","74","138.20000000298023","1","1","false","3","0.8,0.8,0.2,0.2,0.8,0.8,0.8,0.2,0.8","",""
"","html-keyboard-response","234","107939","0.0-349.0","3DH6GAKTYZB5D7JMAHSJNJMHTYGYZZ","A27W025UEXS1G0","3S829FDFT2NBOHQMM1CIOU0HZYXDXL","","null","<img src=""img/land6.png"" style=""width:200px; border:14px solid green;"">","null","","","","","","","",""
"","image-keyboard-response","235","108301","0.0-351.0","3DH6GAKTYZB5D7JMAHSJNJMHTYGYZZ","A27W025UEXS1G0","3S829FDFT2NBOHQMM1CIOU0HZYXDXL","","361.19999999925494","img/land6.png","74","361.80000000074506","1","1","false","3","0.8,0.8,0.2,0.2,0.8,0.8,0.8,0.2,0.8","",""
"","html-keyboard-response","236","108603","0.0-352.0","3DH6GAKTYZB5D7JMAHSJNJMHTYGYZZ","A27W025UEXS1G0","3S829FDFT2NBOHQMM1CIOU0HZYXDXL","","null","<img src=""img/land6.png"" style=""width:200px; border:14px solid green;"">","null","","","","","","","",""
"","image-keyboard-response","237","108973","0.0-354.0","3DH6GAKTYZB5D7JMAHSJNJMHTYGYZZ","A27W025UEXS1G0","3S829FDFT2NBOHQMM1CIOU0HZYXDXL","","369.3999999985099","img/land4.png","75","370.3999999985099","2","0","false","1","0.8,0.8,0.2,0.2,0.8,0.8,0.8,0.2,0.8","",""
"","html-keyboard-response","238","109274","0.0-355.0","3DH6GAKTYZB5D7JMAHSJNJMHTYGYZZ","A27W025UEXS1G0","3S829FDFT2NBOHQMM1CIOU0HZYXDXL","","null","<img src=""img/land4.png"" style=""width:200px;border:14px solid red;"">","null","","","","","","","",""
"","image-keyboard-response","239","109613","0.0-357.0","3DH6GAKTYZB5D7JMAHSJNJMHTYGYZZ","A27W025UEXS1G0","3S829FDFT2NBOHQMM1CIOU0HZYXDXL","","338.19999999925494","img/land4.png","75","338.6000000014901","2","1","false","1","0.8,0.8,0.2,0.2,0.8,0.8,0.8,0.2,0.8","",""
"","html-keyboard-response","240","109915","0.0-358.0","3DH6GAKTYZB5D7JMAHSJNJMHTYGYZZ","A27W025UEXS1G0","3S829FDFT2NBOHQMM1CIOU0HZYXDXL","","null","<img src=""img/land4.png"" style=""width:200px; border:14px solid green;"">","null","","","","","","","",""
"","image-keyboard-response","241","110125","0.0-360.0","3DH6GAKTYZB5D7JMAHSJNJMHTYGYZZ","A27W025UEXS1G0","3S829FDFT2NBOHQMM1CIOU0HZYXDXL","","209.60000000149012","img/land1.png","75","210","2","1","false","2","0.8,0.8,0.2,0.2,0.8,0.8,0.8,0.2,0.8","",""
"","html-keyboard-response","242","110426","0.0-361.0","3DH6GAKTYZB5D7JMAHSJNJMHTYGYZZ","A27W025UEXS1G0","3S829FDFT2NBOHQMM1CIOU0HZYXDXL","","null","<img src=""img/land1.png"" style=""width:200px; border:14px solid green;"">","null","","","","","","","",""
"","image-keyboard-response","243","110677","0.0-363.0","3DH6GAKTYZB5D7JMAHSJNJMHTYGYZZ","A27W025UEXS1G0","3S829FDFT2NBOHQMM1CIOU0HZYXDXL","","250.39999999850988","img/land1.png","75","250.89999999850988","2","0","false","2","0.8,0.8,0.2,0.2,0.8,0.8,0.8,0.2,0.8","",""
"","html-keyboard-response","244","110979","0.0-364.0","3DH6GAKTYZB5D7JMAHSJNJMHTYGYZZ","A27W025UEXS1G0","3S829FDFT2NBOHQMM1CIOU0HZYXDXL","","null","<img src=""img/land1.png"" style=""width:200px;border:14px solid red;"">","null","","","","","","","",""
"","image-keyboard-response","245","111317","0.0-366.0","3DH6GAKTYZB5D7JMAHSJNJMHTYGYZZ","A27W025UEXS1G0","3S829FDFT2NBOHQMM1CIOU0HZYXDXL","","337.80000000074506","img/land1.png","75","338.29999999701977","2","1","false","2","0.8,0.8,0.2,0.2,0.8,0.8,0.8,0.2,0.8","",""
"","html-keyboard-response","246","111619","0.0-367.0","3DH6GAKTYZB5D7JMAHSJNJMHTYGYZZ","A27W025UEXS1G0","3S829FDFT2NBOHQMM1CIOU0HZYXDXL","","null","<img src=""img/land1.png"" style=""width:200px; border:14px solid green;"">","null","","","","","","","",""
"","image-keyboard-response","247","112061","0.0-369.0","3DH6GAKTYZB5D7JMAHSJNJMHTYGYZZ","A27W025UEXS1G0","3S829FDFT2NBOHQMM1CIOU0HZYXDXL","","441.3999999985099","img/land6.png","74","441.8999999985099","1","1","false","3","0.8,0.8,0.2,0.2,0.8,0.8,0.8,0.2,0.8","",""
"","html-keyboard-response","248","112363","0.0-370.0","3DH6GAKTYZB5D7JMAHSJNJMHTYGYZZ","A27W025UEXS1G0","3S829FDFT2NBOHQMM1CIOU0HZYXDXL","","null","<img src=""img/land6.png"" style=""width:200px; border:14px solid green;"">","null","","","","","","","",""
"","image-keyboard-response","249","112709","0.0-372.0","3DH6GAKTYZB5D7JMAHSJNJMHTYGYZZ","A27W025UEXS1G0","3S829FDFT2NBOHQMM1CIOU0HZYXDXL","","345.6000000014901","img/land1.png","75","346","2","1","false","2","0.8,0.8,0.2,0.2,0.8,0.8,0.8,0.2,0.8","",""
"","html-keyboard-response","250","113010","0.0-373.0","3DH6GAKTYZB5D7JMAHSJNJMHTYGYZZ","A27W025UEXS1G0","3S829FDFT2NBOHQMM1CIOU0HZYXDXL","","null","<img src=""img/land1.png"" style=""width:200px; border:14px solid green;"">","null","","","","","","","",""
"","image-keyboard-response","251","113573","0.0-375.0","3DH6GAKTYZB5D7JMAHSJNJMHTYGYZZ","A27W025UEXS1G0","3S829FDFT2NBOHQMM1CIOU0HZYXDXL","","562.3999999985099","img/land4.png","75","563.0999999977648","2","1","false","1","0.8,0.8,0.2,0.2,0.8,0.8,0.8,0.2,0.8","",""
"","html-keyboard-response","252","113875","0.0-376.0","3DH6GAKTYZB5D7JMAHSJNJMHTYGYZZ","A27W025UEXS1G0","3S829FDFT2NBOHQMM1CIOU0HZYXDXL","","null","<img src=""img/land4.png"" style=""width:200px; border:14px solid green;"">","null","","","","","","","",""
"","image-keyboard-response","253","114366","0.0-378.0","3DH6GAKTYZB5D7JMAHSJNJMHTYGYZZ","A27W025UEXS1G0","3S829FDFT2NBOHQMM1CIOU0HZYXDXL","","490.5","img/land6.png","74","491.1000000014901","1","1","false","3","0.8,0.8,0.2,0.2,0.8,0.8,0.8,0.2,0.8","",""
"","html-keyboard-response","254","114668","0.0-379.0","3DH6GAKTYZB5D7JMAHSJNJMHTYGYZZ","A27W025UEXS1G0","3S829FDFT2NBOHQMM1CIOU0HZYXDXL","","null","<img src=""img/land6.png"" style=""width:200px; border:14px solid green;"">","null","","","","","","","",""
"","image-keyboard-response","255","115085","0.0-381.0","3DH6GAKTYZB5D7JMAHSJNJMHTYGYZZ","A27W025UEXS1G0","3S829FDFT2NBOHQMM1CIOU0HZYXDXL","","416.5","img/land4.png","75","417.1000000014901","2","1","false","1","0.8,0.8,0.2,0.2,0.8,0.8,0.8,0.2,0.8","",""
"","html-keyboard-response","256","115386","0.0-382.0","3DH6GAKTYZB5D7JMAHSJNJMHTYGYZZ","A27W025UEXS1G0","3S829FDFT2NBOHQMM1CIOU0HZYXDXL","","null","<img src=""img/land4.png"" style=""width:200px; border:14px solid green;"">","null","","","","","","","",""
"","image-keyboard-response","257","115806","0.0-384.0","3DH6GAKTYZB5D7JMAHSJNJMHTYGYZZ","A27W025UEXS1G0","3S829FDFT2NBOHQMM1CIOU0HZYXDXL","","418.5","img/land6.png","74","419","1","1","false","3","0.8,0.8,0.2,0.2,0.8,0.8,0.8,0.2,0.8","",""
"","html-keyboard-response","258","116107","0.0-385.0","3DH6GAKTYZB5D7JMAHSJNJMHTYGYZZ","A27W025UEXS1G0","3S829FDFT2NBOHQMM1CIOU0HZYXDXL","","null","<img src=""img/land6.png"" style=""width:200px; border:14px solid green;"">","null","","","","","","","",""
"","image-keyboard-response","259","116501","0.0-387.0","3DH6GAKTYZB5D7JMAHSJNJMHTYGYZZ","A27W025UEXS1G0","3S829FDFT2NBOHQMM1CIOU0HZYXDXL","","393.1000000014901","img/land6.png","74","393.5","1","1","false","3","0.8,0.8,0.2,0.2,0.8,0.8,0.8,0.2,0.8","",""
"","html-keyboard-response","260","116802","0.0-388.0","3DH6GAKTYZB5D7JMAHSJNJMHTYGYZZ","A27W025UEXS1G0","3S829FDFT2NBOHQMM1CIOU0HZYXDXL","","null","<img src=""img/land6.png"" style=""width:200px; border:14px solid green;"">","null","","","","","","","",""
"","image-keyboard-response","261","117133","0.0-390.0","3DH6GAKTYZB5D7JMAHSJNJMHTYGYZZ","A27W025UEXS1G0","3S829FDFT2NBOHQMM1CIOU0HZYXDXL","","329.80000000074506","img/land6.png","74","330.3999999985099","1","1","false","3","0.8,0.8,0.2,0.2,0.8,0.8,0.8,0.2,0.8","",""
"","html-keyboard-response","262","117435","0.0-391.0","3DH6GAKTYZB5D7JMAHSJNJMHTYGYZZ","A27W025UEXS1G0","3S829FDFT2NBOHQMM1CIOU0HZYXDXL","","null","<img src=""img/land6.png"" style=""width:200px; border:14px solid green;"">","null","","","","","","","",""
"","image-keyboard-response","263","117773","0.0-393.0","3DH6GAKTYZB5D7JMAHSJNJMHTYGYZZ","A27W025UEXS1G0","3S829FDFT2NBOHQMM1CIOU0HZYXDXL","","338.1000000014901","img/land1.png","75","338.5999999977648","2","1","false","2","0.8,0.8,0.2,0.2,0.8,0.8,0.8,0.2,0.8","",""
"","html-keyboard-response","264","118075","0.0-394.0","3DH6GAKTYZB5D7JMAHSJNJMHTYGYZZ","A27W025UEXS1G0","3S829FDFT2NBOHQMM1CIOU0HZYXDXL","","null","<img src=""img/land1.png"" style=""width:200px; border:14px solid green;"">","null","","","","","","","",""
"","image-keyboard-response","265","118245","0.0-396.0","3DH6GAKTYZB5D7JMAHSJNJMHTYGYZZ","A27W025UEXS1G0","3S829FDFT2NBOHQMM1CIOU0HZYXDXL","","169.10000000149012","img/land1.png","75","169.70000000298023","2","1","false","2","0.8,0.8,0.2,0.2,0.8,0.8,0.8,0.2,0.8","",""
"","html-keyboard-response","266","118546","0.0-397.0","3DH6GAKTYZB5D7JMAHSJNJMHTYGYZZ","A27W025UEXS1G0","3S829FDFT2NBOHQMM1CIOU0HZYXDXL","","null","<img src=""img/land1.png"" style=""width:200px; border:14px solid green;"">","null","","","","","","","",""
"","image-keyboard-response","267","118853","0.0-399.0","3DH6GAKTYZB5D7JMAHSJNJMHTYGYZZ","A27W025UEXS1G0","3S829FDFT2NBOHQMM1CIOU0HZYXDXL","","306.30000000074506","img/land1.png","75","307","2","1","false","2","0.8,0.8,0.2,0.2,0.8,0.8,0.8,0.2,0.8","",""
"","html-keyboard-response","268","119155","0.0-400.0","3DH6GAKTYZB5D7JMAHSJNJMHTYGYZZ","A27W025UEXS1G0","3S829FDFT2NBOHQMM1CIOU0HZYXDXL","","null","<img src=""img/land1.png"" style=""width:200px; border:14px solid green;"">","null","","","","","","","",""
"","image-keyboard-response","269","119469","0.0-402.0","3DH6GAKTYZB5D7JMAHSJNJMHTYGYZZ","A27W025UEXS1G0","3S829FDFT2NBOHQMM1CIOU0HZYXDXL","","313.69999999925494","img/land1.png","75","314.19999999925494","2","1","false","2","0.8,0.8,0.2,0.2,0.8,0.8,0.8,0.2,0.8","",""
"","html-keyboard-response","270","119770","0.0-403.0","3DH6GAKTYZB5D7JMAHSJNJMHTYGYZZ","A27W025UEXS1G0","3S829FDFT2NBOHQMM1CIOU0HZYXDXL","","null","<img src=""img/land1.png"" style=""width:200px; border:14px solid green;"">","null","","","","","","","",""
"","image-keyboard-response","271","120453","0.0-405.0","3DH6GAKTYZB5D7JMAHSJNJMHTYGYZZ","A27W025UEXS1G0","3S829FDFT2NBOHQMM1CIOU0HZYXDXL","","682.1999999992549","img/land4.png","75","682.6999999992549","2","1","false","1","0.8,0.8,0.2,0.2,0.8,0.8,0.8,0.2,0.8","",""
"","html-keyboard-response","272","120755","0.0-406.0","3DH6GAKTYZB5D7JMAHSJNJMHTYGYZZ","A27W025UEXS1G0","3S829FDFT2NBOHQMM1CIOU0HZYXDXL","","null","<img src=""img/land4.png"" style=""width:200px; border:14px solid green;"">","null","","","","","","","",""
"","image-keyboard-response","273","121293","0.0-408.0","3DH6GAKTYZB5D7JMAHSJNJMHTYGYZZ","A27W025UEXS1G0","3S829FDFT2NBOHQMM1CIOU0HZYXDXL","","537.3999999985099","img/land1.png","75","537.8000000007451","2","1","false","2","0.8,0.8,0.2,0.2,0.8,0.8,0.8,0.2,0.8","",""
"","html-keyboard-response","274","121594","0.0-409.0","3DH6GAKTYZB5D7JMAHSJNJMHTYGYZZ","A27W025UEXS1G0","3S829FDFT2NBOHQMM1CIOU0HZYXDXL","","null","<img src=""img/land1.png"" style=""width:200px; border:14px solid green;"">","null","","","","","","","",""
"","image-keyboard-response","275","121885","0.0-411.0","3DH6GAKTYZB5D7JMAHSJNJMHTYGYZZ","A27W025UEXS1G0","3S829FDFT2NBOHQMM1CIOU0HZYXDXL","","290.1000000014901","img/land1.png","75","290.5","2","1","false","2","0.8,0.8,0.2,0.2,0.8,0.8,0.8,0.2,0.8","",""
"","html-keyboard-response","276","122187","0.0-412.0","3DH6GAKTYZB5D7JMAHSJNJMHTYGYZZ","A27W025UEXS1G0","3S829FDFT2NBOHQMM1CIOU0HZYXDXL","","null","<img src=""img/land1.png"" style=""width:200px; border:14px solid green;"">","null","","","","","","","",""
"","image-keyboard-response","277","122477","0.0-414.0","3DH6GAKTYZB5D7JMAHSJNJMHTYGYZZ","A27W025UEXS1G0","3S829FDFT2NBOHQMM1CIOU0HZYXDXL","","289.79999999701977","img/land1.png","75","290.5","2","1","false","2","0.8,0.8,0.2,0.2,0.8,0.8,0.8,0.2,0.8","",""
"","html-keyboard-response","278","122779","0.0-415.0","3DH6GAKTYZB5D7JMAHSJNJMHTYGYZZ","A27W025UEXS1G0","3S829FDFT2NBOHQMM1CIOU0HZYXDXL","","null","<img src=""img/land1.png"" style=""width:200px; border:14px solid green;"">","null","","","","","","","",""
"","image-keyboard-response","279","123269","0.0-417.0","3DH6GAKTYZB5D7JMAHSJNJMHTYGYZZ","A27W025UEXS1G0","3S829FDFT2NBOHQMM1CIOU0HZYXDXL","","489.30000000074506","img/land6.png","74","490","1","0","false","3","0.8,0.8,0.2,0.2,0.8,0.8,0.8,0.2,0.8","",""
"","html-keyboard-response","280","123570","0.0-418.0","3DH6GAKTYZB5D7JMAHSJNJMHTYGYZZ","A27W025UEXS1G0","3S829FDFT2NBOHQMM1CIOU0HZYXDXL","","null","<img src=""img/land6.png"" style=""width:200px;border:14px solid red;"">","null","","","","","","","",""
"","image-keyboard-response","281","123997","0.0-420.0","3DH6GAKTYZB5D7JMAHSJNJMHTYGYZZ","A27W025UEXS1G0","3S829FDFT2NBOHQMM1CIOU0HZYXDXL","","426.19999999925494","img/land1.png","75","426.70000000298023","2","1","false","2","0.8,0.8,0.2,0.2,0.8,0.8,0.8,0.2,0.8","",""
"","html-keyboard-response","282","124298","0.0-421.0","3DH6GAKTYZB5D7JMAHSJNJMHTYGYZZ","A27W025UEXS1G0","3S829FDFT2NBOHQMM1CIOU0HZYXDXL","","null","<img src=""img/land1.png"" style=""width:200px; border:14px solid green;"">","null","","","","","","","",""
"","image-keyboard-response","283","124461","0.0-423.0","3DH6GAKTYZB5D7JMAHSJNJMHTYGYZZ","A27W025UEXS1G0","3S829FDFT2NBOHQMM1CIOU0HZYXDXL","","161.80000000074506","img/land4.png","75","162.5","2","1","false","1","0.8,0.8,0.2,0.2,0.8,0.8,0.8,0.2,0.8","",""
"","html-keyboard-response","284","124762","0.0-424.0","3DH6GAKTYZB5D7JMAHSJNJMHTYGYZZ","A27W025UEXS1G0","3S829FDFT2NBOHQMM1CIOU0HZYXDXL","","null","<img src=""img/land4.png"" style=""width:200px; border:14px solid green;"">","null","","","","","","","",""
"","image-keyboard-response","285","125077","0.0-426.0","3DH6GAKTYZB5D7JMAHSJNJMHTYGYZZ","A27W025UEXS1G0","3S829FDFT2NBOHQMM1CIOU0HZYXDXL","","314.4000000022352","img/land4.png","75","314.80000000074506","2","1","false","1","0.8,0.8,0.2,0.2,0.8,0.8,0.8,0.2,0.8","",""
"","html-keyboard-response","286","125379","0.0-427.0","3DH6GAKTYZB5D7JMAHSJNJMHTYGYZZ","A27W025UEXS1G0","3S829FDFT2NBOHQMM1CIOU0HZYXDXL","","null","<img src=""img/land4.png"" style=""width:200px; border:14px solid green;"">","null","","","","","","","",""
"","image-keyboard-response","287","125869","0.0-429.0","3DH6GAKTYZB5D7JMAHSJNJMHTYGYZZ","A27W025UEXS1G0","3S829FDFT2NBOHQMM1CIOU0HZYXDXL","","489.80000000074506","img/land6.png","74","490.29999999701977","1","1","false","3","0.8,0.8,0.2,0.2,0.8,0.8,0.8,0.2,0.8","",""
"","html-keyboard-response","288","126170","0.0-430.0","3DH6GAKTYZB5D7JMAHSJNJMHTYGYZZ","A27W025UEXS1G0","3S829FDFT2NBOHQMM1CIOU0HZYXDXL","","null","<img src=""img/land6.png"" style=""width:200px; border:14px solid green;"">","null","","","","","","","",""
"","image-keyboard-response","289","126597","0.0-432.0","3DH6GAKTYZB5D7JMAHSJNJMHTYGYZZ","A27W025UEXS1G0","3S829FDFT2NBOHQMM1CIOU0HZYXDXL","","425.80000000074506","img/land4.png","75","426.3999999985099","2","0","false","1","0.8,0.8,0.2,0.2,0.8,0.8,0.8,0.2,0.8","",""
"","html-keyboard-response","290","126899","0.0-433.0","3DH6GAKTYZB5D7JMAHSJNJMHTYGYZZ","A27W025UEXS1G0","3S829FDFT2NBOHQMM1CIOU0HZYXDXL","","null","<img src=""img/land4.png"" style=""width:200px;border:14px solid red;"">","null","","","","","","","",""
"","image-keyboard-response","291","127125","0.0-435.0","3DH6GAKTYZB5D7JMAHSJNJMHTYGYZZ","A27W025UEXS1G0","3S829FDFT2NBOHQMM1CIOU0HZYXDXL","","225.19999999925494","img/land1.png","75","225.69999999925494","2","0","false","2","0.8,0.8,0.2,0.2,0.8,0.8,0.8,0.2,0.8","",""
"","html-keyboard-response","292","127426","0.0-436.0","3DH6GAKTYZB5D7JMAHSJNJMHTYGYZZ","A27W025UEXS1G0","3S829FDFT2NBOHQMM1CIOU0HZYXDXL","","null","<img src=""img/land1.png"" style=""width:200px;border:14px solid red;"">","null","","","","","","","",""
"","image-keyboard-response","293","128077","0.0-438.0","3DH6GAKTYZB5D7JMAHSJNJMHTYGYZZ","A27W025UEXS1G0","3S829FDFT2NBOHQMM1CIOU0HZYXDXL","","650.6000000014901","img/land4.png","75","651","2","0","false","1","0.8,0.8,0.2,0.2,0.8,0.8,0.8,0.2,0.8","",""
"","html-keyboard-response","294","128378","0.0-439.0","3DH6GAKTYZB5D7JMAHSJNJMHTYGYZZ","A27W025UEXS1G0","3S829FDFT2NBOHQMM1CIOU0HZYXDXL","","null","<img src=""img/land4.png"" style=""width:200px;border:14px solid red;"">","null","","","","","","","",""
"","image-keyboard-response","295","128901","0.0-441.0","3DH6GAKTYZB5D7JMAHSJNJMHTYGYZZ","A27W025UEXS1G0","3S829FDFT2NBOHQMM1CIOU0HZYXDXL","","522.1000000014901","img/land6.png","74","522.6999999992549","1","1","false","3","0.8,0.8,0.2,0.2,0.8,0.8,0.8,0.2,0.8","",""
"","html-keyboard-response","296","129202","0.0-442.0","3DH6GAKTYZB5D7JMAHSJNJMHTYGYZZ","A27W025UEXS1G0","3S829FDFT2NBOHQMM1CIOU0HZYXDXL","","null","<img src=""img/land6.png"" style=""width:200px; border:14px solid green;"">","null","","","","","","","",""
"","image-keyboard-response","297","129541","0.0-444.0","3DH6GAKTYZB5D7JMAHSJNJMHTYGYZZ","A27W025UEXS1G0","3S829FDFT2NBOHQMM1CIOU0HZYXDXL","","337.70000000298023","img/land1.png","75","338.19999999925494","2","1","false","2","0.8,0.8,0.2,0.2,0.8,0.8,0.8,0.2,0.8","",""
"","html-keyboard-response","298","129842","0.0-445.0","3DH6GAKTYZB5D7JMAHSJNJMHTYGYZZ","A27W025UEXS1G0","3S829FDFT2NBOHQMM1CIOU0HZYXDXL","","null","<img src=""img/land1.png"" style=""width:200px; border:14px solid green;"">","null","","","","","","","",""
"","image-keyboard-response","299","129997","0.0-447.0","3DH6GAKTYZB5D7JMAHSJNJMHTYGYZZ","A27W025UEXS1G0","3S829FDFT2NBOHQMM1CIOU0HZYXDXL","","153.80000000074506","img/land1.png","75","154.39999999850988","2","1","false","2","0.8,0.8,0.2,0.2,0.8,0.8,0.8,0.2,0.8","",""
"","html-keyboard-response","300","130298","0.0-448.0","3DH6GAKTYZB5D7JMAHSJNJMHTYGYZZ","A27W025UEXS1G0","3S829FDFT2NBOHQMM1CIOU0HZYXDXL","","null","<img src=""img/land1.png"" style=""width:200px; border:14px solid green;"">","null","","","","","","","",""
"","image-keyboard-response","301","130509","0.0-450.0","3DH6GAKTYZB5D7JMAHSJNJMHTYGYZZ","A27W025UEXS1G0","3S829FDFT2NBOHQMM1CIOU0HZYXDXL","","209.90000000223517","img/land6.png","75","210.5","2","0","false","3","0.8,0.8,0.2,0.2,0.8,0.8,0.8,0.2,0.8","",""
"","html-keyboard-response","302","130810","0.0-451.0","3DH6GAKTYZB5D7JMAHSJNJMHTYGYZZ","A27W025UEXS1G0","3S829FDFT2NBOHQMM1CIOU0HZYXDXL","","null","<img src=""img/land6.png"" style=""width:200px;border:14px solid red;"">","null","","","","","","","",""
"","image-keyboard-response","303","131045","0.0-453.0","3DH6GAKTYZB5D7JMAHSJNJMHTYGYZZ","A27W025UEXS1G0","3S829FDFT2NBOHQMM1CIOU0HZYXDXL","","234","img/land6.png","74","234.5","1","1","false","3","0.8,0.8,0.2,0.2,0.8,0.8,0.8,0.2,0.8","",""
"","html-keyboard-response","304","131347","0.0-454.0","3DH6GAKTYZB5D7JMAHSJNJMHTYGYZZ","A27W025UEXS1G0","3S829FDFT2NBOHQMM1CIOU0HZYXDXL","","null","<img src=""img/land6.png"" style=""width:200px; border:14px solid green;"">","null","","","","","","","",""
"","image-keyboard-response","305","131757","0.0-456.0","3DH6GAKTYZB5D7JMAHSJNJMHTYGYZZ","A27W025UEXS1G0","3S829FDFT2NBOHQMM1CIOU0HZYXDXL","","409.5999999977648","img/land4.png","75","410.1000000014901","2","1","false","1","0.8,0.8,0.2,0.2,0.8,0.8,0.8,0.2,0.8","",""
"","html-keyboard-response","306","132059","0.0-457.0","3DH6GAKTYZB5D7JMAHSJNJMHTYGYZZ","A27W025UEXS1G0","3S829FDFT2NBOHQMM1CIOU0HZYXDXL","","null","<img src=""img/land4.png"" style=""width:200px; border:14px solid green;"">","null","","","","","","","",""
"","image-keyboard-response","307","132285","0.0-459.0","3DH6GAKTYZB5D7JMAHSJNJMHTYGYZZ","A27W025UEXS1G0","3S829FDFT2NBOHQMM1CIOU0HZYXDXL","","225.59999999776483","img/land4.png","75","226.19999999925494","2","0","false","1","0.8,0.8,0.2,0.2,0.8,0.8,0.8,0.2,0.8","",""
"","html-keyboard-response","308","132586","0.0-460.0","3DH6GAKTYZB5D7JMAHSJNJMHTYGYZZ","A27W025UEXS1G0","3S829FDFT2NBOHQMM1CIOU0HZYXDXL","","null","<img src=""img/land4.png"" style=""width:200px;border:14px solid red;"">","null","","","","","","","",""
"","image-keyboard-response","309","132861","0.0-462.0","3DH6GAKTYZB5D7JMAHSJNJMHTYGYZZ","A27W025UEXS1G0","3S829FDFT2NBOHQMM1CIOU0HZYXDXL","","274.19999999925494","img/land4.png","75","274.6000000014901","2","1","false","1","0.8,0.8,0.2,0.2,0.8,0.8,0.8,0.2,0.8","",""
"","html-keyboard-response","310","133162","0.0-463.0","3DH6GAKTYZB5D7JMAHSJNJMHTYGYZZ","A27W025UEXS1G0","3S829FDFT2NBOHQMM1CIOU0HZYXDXL","","null","<img src=""img/land4.png"" style=""width:200px; border:14px solid green;"">","null","","","","","","","",""
"","image-keyboard-response","311","133677","0.0-465.0","3DH6GAKTYZB5D7JMAHSJNJMHTYGYZZ","A27W025UEXS1G0","3S829FDFT2NBOHQMM1CIOU0HZYXDXL","","514.1000000014901","img/land6.png","74","514.6000000014901","1","0","false","3","0.8,0.8,0.2,0.2,0.8,0.8,0.8,0.2,0.8","",""
"","html-keyboard-response","312","133978","0.0-466.0","3DH6GAKTYZB5D7JMAHSJNJMHTYGYZZ","A27W025UEXS1G0","3S829FDFT2NBOHQMM1CIOU0HZYXDXL","","null","<img src=""img/land6.png"" style=""width:200px;border:14px solid red;"">","null","","","","","","","",""
"","image-keyboard-response","313","134253","0.0-468.0","3DH6GAKTYZB5D7JMAHSJNJMHTYGYZZ","A27W025UEXS1G0","3S829FDFT2NBOHQMM1CIOU0HZYXDXL","","274.6000000014901","img/land6.png","74","275.1000000014901","1","1","false","3","0.8,0.8,0.2,0.2,0.8,0.8,0.8,0.2,0.8","",""
"","html-keyboard-response","314","134554","0.0-469.0","3DH6GAKTYZB5D7JMAHSJNJMHTYGYZZ","A27W025UEXS1G0","3S829FDFT2NBOHQMM1CIOU0HZYXDXL","","null","<img src=""img/land6.png"" style=""width:200px; border:14px solid green;"">","null","","","","","","","",""
"","image-keyboard-response","315","134933","0.0-471.0","3DH6GAKTYZB5D7JMAHSJNJMHTYGYZZ","A27W025UEXS1G0","3S829FDFT2NBOHQMM1CIOU0HZYXDXL","","377.9000000022352","img/land6.png","74","378.4000000022352","1","0","false","3","0.8,0.8,0.2,0.2,0.8,0.8,0.8,0.2,0.8","",""
"","html-keyboard-response","316","135234","0.0-472.0","3DH6GAKTYZB5D7JMAHSJNJMHTYGYZZ","A27W025UEXS1G0","3S829FDFT2NBOHQMM1CIOU0HZYXDXL","","null","<img src=""img/land6.png"" style=""width:200px;border:14px solid red;"">","null","","","","","","","",""
"","image-keyboard-response","317","135685","0.0-474.0","3DH6GAKTYZB5D7JMAHSJNJMHTYGYZZ","A27W025UEXS1G0","3S829FDFT2NBOHQMM1CIOU0HZYXDXL","","450.30000000074506","img/land1.png","75","450.69999999925494","2","1","false","2","0.8,0.8,0.2,0.2,0.8,0.8,0.8,0.2,0.8","",""
"","html-keyboard-response","318","135987","0.0-475.0","3DH6GAKTYZB5D7JMAHSJNJMHTYGYZZ","A27W025UEXS1G0","3S829FDFT2NBOHQMM1CIOU0HZYXDXL","","null","<img src=""img/land1.png"" style=""width:200px; border:14px solid green;"">","null","","","","","","","",""
"","image-keyboard-response","319","136189","0.0-477.0","3DH6GAKTYZB5D7JMAHSJNJMHTYGYZZ","A27W025UEXS1G0","3S829FDFT2NBOHQMM1CIOU0HZYXDXL","","201.5","img/land6.png","75","202.10000000149012","2","0","false","3","0.8,0.8,0.2,0.2,0.8,0.8,0.8,0.2,0.8","",""
"","html-keyboard-response","320","136491","0.0-478.0","3DH6GAKTYZB5D7JMAHSJNJMHTYGYZZ","A27W025UEXS1G0","3S829FDFT2NBOHQMM1CIOU0HZYXDXL","","null","<img src=""img/land6.png"" style=""width:200px;border:14px solid red;"">","null","","","","","","","",""
"","image-keyboard-response","321","136733","0.0-480.0","3DH6GAKTYZB5D7JMAHSJNJMHTYGYZZ","A27W025UEXS1G0","3S829FDFT2NBOHQMM1CIOU0HZYXDXL","","241","img/land6.png","74","241.5","1","1","false","3","0.8,0.8,0.2,0.2,0.8,0.8,0.8,0.2,0.8","",""
"","html-keyboard-response","322","137035","0.0-481.0","3DH6GAKTYZB5D7JMAHSJNJMHTYGYZZ","A27W025UEXS1G0","3S829FDFT2NBOHQMM1CIOU0HZYXDXL","","null","<img src=""img/land6.png"" style=""width:200px; border:14px solid green;"">","null","","","","","","","",""
"","image-keyboard-response","323","137453","0.0-483.0","3DH6GAKTYZB5D7JMAHSJNJMHTYGYZZ","A27W025UEXS1G0","3S829FDFT2NBOHQMM1CIOU0HZYXDXL","","417.5999999977648","img/land4.png","75","418.0999999977648","2","1","false","1","0.8,0.8,0.2,0.2,0.8,0.8,0.8,0.2,0.8","",""
"","html-keyboard-response","324","137755","0.0-484.0","3DH6GAKTYZB5D7JMAHSJNJMHTYGYZZ","A27W025UEXS1G0","3S829FDFT2NBOHQMM1CIOU0HZYXDXL","","null","<img src=""img/land4.png"" style=""width:200px; border:14px solid green;"">","null","","","","","","","",""
"","image-keyboard-response","325","138110","0.0-486.0","3DH6GAKTYZB5D7JMAHSJNJMHTYGYZZ","A27W025UEXS1G0","3S829FDFT2NBOHQMM1CIOU0HZYXDXL","","354.19999999925494","img/land1.png","74","354.80000000074506","1","0","false","2","0.8,0.8,0.2,0.2,0.8,0.8,0.8,0.2,0.8","",""
"","html-keyboard-response","326","138411","0.0-487.0","3DH6GAKTYZB5D7JMAHSJNJMHTYGYZZ","A27W025UEXS1G0","3S829FDFT2NBOHQMM1CIOU0HZYXDXL","","null","<img src=""img/land1.png"" style=""width:200px;border:14px solid red;"">","null","","","","","","","",""
"","image-keyboard-response","327","139022","0.0-489.0","3DH6GAKTYZB5D7JMAHSJNJMHTYGYZZ","A27W025UEXS1G0","3S829FDFT2NBOHQMM1CIOU0HZYXDXL","","609.5","img/land4.png","75","610.1999999992549","2","1","false","1","0.8,0.8,0.2,0.2,0.8,0.8,0.8,0.2,0.8","",""
"","html-keyboard-response","328","139323","0.0-490.0","3DH6GAKTYZB5D7JMAHSJNJMHTYGYZZ","A27W025UEXS1G0","3S829FDFT2NBOHQMM1CIOU0HZYXDXL","","null","<img src=""img/land4.png"" style=""width:200px; border:14px solid green;"">","null","","","","","","","",""
"","image-keyboard-response","329","139837","0.0-492.0","3DH6GAKTYZB5D7JMAHSJNJMHTYGYZZ","A27W025UEXS1G0","3S829FDFT2NBOHQMM1CIOU0HZYXDXL","","513.8999999985099","img/land1.png","75","514.3000000007451","2","0","false","2","0.8,0.8,0.2,0.2,0.8,0.8,0.8,0.2,0.8","",""
"","html-keyboard-response","330","140138","0.0-493.0","3DH6GAKTYZB5D7JMAHSJNJMHTYGYZZ","A27W025UEXS1G0","3S829FDFT2NBOHQMM1CIOU0HZYXDXL","","null","<img src=""img/land1.png"" style=""width:200px;border:14px solid red;"">","null","","","","","","","",""
"","image-keyboard-response","331","140629","0.0-495.0","3DH6GAKTYZB5D7JMAHSJNJMHTYGYZZ","A27W025UEXS1G0","3S829FDFT2NBOHQMM1CIOU0HZYXDXL","","490.5","img/land6.png","74","491","1","1","false","3","0.8,0.8,0.2,0.2,0.8,0.8,0.8,0.2,0.8","",""
"","html-keyboard-response","332","140931","0.0-496.0","3DH6GAKTYZB5D7JMAHSJNJMHTYGYZZ","A27W025UEXS1G0","3S829FDFT2NBOHQMM1CIOU0HZYXDXL","","null","<img src=""img/land6.png"" style=""width:200px; border:14px solid green;"">","null","","","","","","","",""
"","image-keyboard-response","333","141309","0.0-498.0","3DH6GAKTYZB5D7JMAHSJNJMHTYGYZZ","A27W025UEXS1G0","3S829FDFT2NBOHQMM1CIOU0HZYXDXL","","377.6000000014901","img/land6.png","74","378.20000000298023","1","0","false","3","0.8,0.8,0.2,0.2,0.8,0.8,0.8,0.2,0.8","",""
"","html-keyboard-response","334","141625","0.0-499.0","3DH6GAKTYZB5D7JMAHSJNJMHTYGYZZ","A27W025UEXS1G0","3S829FDFT2NBOHQMM1CIOU0HZYXDXL","","null","<img src=""img/land6.png"" style=""width:200px;border:14px solid red;"">","null","","","","","","","",""
"","image-keyboard-response","335","141925","0.0-501.0","3DH6GAKTYZB5D7JMAHSJNJMHTYGYZZ","A27W025UEXS1G0","3S829FDFT2NBOHQMM1CIOU0HZYXDXL","","299.5","img/land6.png","74","300.3999999985099","1","0","false","3","0.8,0.8,0.2,0.2,0.8,0.8,0.8,0.2,0.8","",""
"","html-keyboard-response","336","142226","0.0-502.0","3DH6GAKTYZB5D7JMAHSJNJMHTYGYZZ","A27W025UEXS1G0","3S829FDFT2NBOHQMM1CIOU0HZYXDXL","","null","<img src=""img/land6.png"" style=""width:200px;border:14px solid red;"">","null","","","","","","","",""
"","image-keyboard-response","337","142647","0.0-504.0","3DH6GAKTYZB5D7JMAHSJNJMHTYGYZZ","A27W025UEXS1G0","3S829FDFT2NBOHQMM1CIOU0HZYXDXL","","419","img/land4.png","75","419.80000000074506","2","1","false","1","0.8,0.8,0.2,0.2,0.8,0.8,0.8,0.2,0.8","",""
"","html-keyboard-response","338","142947","0.0-505.0","3DH6GAKTYZB5D7JMAHSJNJMHTYGYZZ","A27W025UEXS1G0","3S829FDFT2NBOHQMM1CIOU0HZYXDXL","","null","<img src=""img/land4.png"" style=""width:200px; border:14px solid green;"">","null","","","","","","","",""
"","image-keyboard-response","339","143221","0.0-507.0","3DH6GAKTYZB5D7JMAHSJNJMHTYGYZZ","A27W025UEXS1G0","3S829FDFT2NBOHQMM1CIOU0HZYXDXL","","272.9000000022352","img/land4.png","75","273.30000000074506","2","1","false","1","0.8,0.8,0.2,0.2,0.8,0.8,0.8,0.2,0.8","",""
"","html-keyboard-response","340","143523","0.0-508.0","3DH6GAKTYZB5D7JMAHSJNJMHTYGYZZ","A27W025UEXS1G0","3S829FDFT2NBOHQMM1CIOU0HZYXDXL","","null","<img src=""img/land4.png"" style=""width:200px; border:14px solid green;"">","null","","","","","","","",""
"","image-keyboard-response","341","143973","0.0-510.0","3DH6GAKTYZB5D7JMAHSJNJMHTYGYZZ","A27W025UEXS1G0","3S829FDFT2NBOHQMM1CIOU0HZYXDXL","","449.80000000074506","img/land6.png","74","450.5","1","1","false","3","0.8,0.8,0.2,0.2,0.8,0.8,0.8,0.2,0.8","",""
"","html-keyboard-response","342","144275","0.0-511.0","3DH6GAKTYZB5D7JMAHSJNJMHTYGYZZ","A27W025UEXS1G0","3S829FDFT2NBOHQMM1CIOU0HZYXDXL","","null","<img src=""img/land6.png"" style=""width:200px; border:14px solid green;"">","null","","","","","","","",""
"","image-keyboard-response","343","144717","0.0-513.0","3DH6GAKTYZB5D7JMAHSJNJMHTYGYZZ","A27W025UEXS1G0","3S829FDFT2NBOHQMM1CIOU0HZYXDXL","","441.4000000022352","img/land1.png","75","442","2","1","false","2","0.8,0.8,0.2,0.2,0.8,0.8,0.8,0.2,0.8","",""
"","html-keyboard-response","344","145018","0.0-514.0","3DH6GAKTYZB5D7JMAHSJNJMHTYGYZZ","A27W025UEXS1G0","3S829FDFT2NBOHQMM1CIOU0HZYXDXL","","null","<img src=""img/land1.png"" style=""width:200px; border:14px solid green;"">","null","","","","","","","",""
"","image-keyboard-response","345","145541","0.0-516.0","3DH6GAKTYZB5D7JMAHSJNJMHTYGYZZ","A27W025UEXS1G0","3S829FDFT2NBOHQMM1CIOU0HZYXDXL","","522.7000000029802","img/land4.png","75","523.2999999970198","2","1","false","1","0.8,0.8,0.2,0.2,0.8,0.8,0.8,0.2,0.8","",""
"","html-keyboard-response","346","145843","0.0-517.0","3DH6GAKTYZB5D7JMAHSJNJMHTYGYZZ","A27W025UEXS1G0","3S829FDFT2NBOHQMM1CIOU0HZYXDXL","","null","<img src=""img/land4.png"" style=""width:200px; border:14px solid green;"">","null","","","","","","","",""
"","image-keyboard-response","347","146173","0.0-519.0","3DH6GAKTYZB5D7JMAHSJNJMHTYGYZZ","A27W025UEXS1G0","3S829FDFT2NBOHQMM1CIOU0HZYXDXL","","329.30000000074506","img/land4.png","75","329.79999999701977","2","1","false","1","0.8,0.8,0.2,0.2,0.8,0.8,0.8,0.2,0.8","",""
"","html-keyboard-response","348","146474","0.0-520.0","3DH6GAKTYZB5D7JMAHSJNJMHTYGYZZ","A27W025UEXS1G0","3S829FDFT2NBOHQMM1CIOU0HZYXDXL","","null","<img src=""img/land4.png"" style=""width:200px; border:14px solid green;"">","null","","","","","","","",""
"","image-keyboard-response","349","146781","0.0-522.0","3DH6GAKTYZB5D7JMAHSJNJMHTYGYZZ","A27W025UEXS1G0","3S829FDFT2NBOHQMM1CIOU0HZYXDXL","","306.5","img/land4.png","75","307","2","1","false","1","0.8,0.8,0.2,0.2,0.8,0.8,0.8,0.2,0.8","",""
"","html-keyboard-response","350","147082","0.0-523.0","3DH6GAKTYZB5D7JMAHSJNJMHTYGYZZ","A27W025UEXS1G0","3S829FDFT2NBOHQMM1CIOU0HZYXDXL","","null","<img src=""img/land4.png"" style=""width:200px; border:14px solid green;"">","null","","","","","","","",""
"","image-keyboard-response","351","147413","0.0-525.0","3DH6GAKTYZB5D7JMAHSJNJMHTYGYZZ","A27W025UEXS1G0","3S829FDFT2NBOHQMM1CIOU0HZYXDXL","","330","img/land4.png","75","330.70000000298023","2","0","false","1","0.8,0.8,0.2,0.2,0.8,0.8,0.8,0.2,0.8","",""
"","html-keyboard-response","352","147714","0.0-526.0","3DH6GAKTYZB5D7JMAHSJNJMHTYGYZZ","A27W025UEXS1G0","3S829FDFT2NBOHQMM1CIOU0HZYXDXL","","null","<img src=""img/land4.png"" style=""width:200px;border:14px solid red;"">","null","","","","","","","",""
"","image-keyboard-response","353","148421","0.0-528.0","3DH6GAKTYZB5D7JMAHSJNJMHTYGYZZ","A27W025UEXS1G0","3S829FDFT2NBOHQMM1CIOU0HZYXDXL","","706.3000000007451","img/land1.png","75","706.6999999992549","2","1","false","2","0.8,0.8,0.2,0.2,0.8,0.8,0.8,0.2,0.8","",""
"","html-keyboard-response","354","148722","0.0-529.0","3DH6GAKTYZB5D7JMAHSJNJMHTYGYZZ","A27W025UEXS1G0","3S829FDFT2NBOHQMM1CIOU0HZYXDXL","","null","<img src=""img/land1.png"" style=""width:200px; border:14px solid green;"">","null","","","","","","","",""
"","image-keyboard-response","355","149029","0.0-531.0","3DH6GAKTYZB5D7JMAHSJNJMHTYGYZZ","A27W025UEXS1G0","3S829FDFT2NBOHQMM1CIOU0HZYXDXL","","306.0999999977648","img/land1.png","75","306.5999999977648","2","1","false","2","0.8,0.8,0.2,0.2,0.8,0.8,0.8,0.2,0.8","",""
"","html-keyboard-response","356","149331","0.0-532.0","3DH6GAKTYZB5D7JMAHSJNJMHTYGYZZ","A27W025UEXS1G0","3S829FDFT2NBOHQMM1CIOU0HZYXDXL","","null","<img src=""img/land1.png"" style=""width:200px; border:14px solid green;"">","null","","","","","","","",""
"","image-keyboard-response","357","149637","0.0-534.0","3DH6GAKTYZB5D7JMAHSJNJMHTYGYZZ","A27W025UEXS1G0","3S829FDFT2NBOHQMM1CIOU0HZYXDXL","","305.80000000074506","img/land1.png","75","306.30000000074506","2","1","false","2","0.8,0.8,0.2,0.2,0.8,0.8,0.8,0.2,0.8","",""
"","html-keyboard-response","358","149938","0.0-535.0","3DH6GAKTYZB5D7JMAHSJNJMHTYGYZZ","A27W025UEXS1G0","3S829FDFT2NBOHQMM1CIOU0HZYXDXL","","null","<img src=""img/land1.png"" style=""width:200px; border:14px solid green;"">","null","","","","","","","",""
"","image-keyboard-response","359","150326","0.0-537.0","3DH6GAKTYZB5D7JMAHSJNJMHTYGYZZ","A27W025UEXS1G0","3S829FDFT2NBOHQMM1CIOU0HZYXDXL","","386.70000000298023","img/land6.png","74","387.29999999701977","1","1","false","3","0.8,0.8,0.2,0.2,0.8,0.8,0.8,0.2,0.8","",""
"","html-keyboard-response","360","150627","0.0-538.0","3DH6GAKTYZB5D7JMAHSJNJMHTYGYZZ","A27W025UEXS1G0","3S829FDFT2NBOHQMM1CIOU0HZYXDXL","","null","<img src=""img/land6.png"" style=""width:200px; border:14px solid green;"">","null","","","","","","","",""
"","image-keyboard-response","361","151037","0.0-540.0","3DH6GAKTYZB5D7JMAHSJNJMHTYGYZZ","A27W025UEXS1G0","3S829FDFT2NBOHQMM1CIOU0HZYXDXL","","409.19999999925494","img/land1.png","75","409.5999999977648","2","1","false","2","0.8,0.8,0.2,0.2,0.8,0.8,0.8,0.2,0.8","",""
"","html-keyboard-response","362","151338","0.0-541.0","3DH6GAKTYZB5D7JMAHSJNJMHTYGYZZ","A27W025UEXS1G0","3S829FDFT2NBOHQMM1CIOU0HZYXDXL","","null","<img src=""img/land1.png"" style=""width:200px; border:14px solid green;"">","null","","","","","","","",""
"","html-keyboard-response","363","152437","0.0-543.0","3DH6GAKTYZB5D7JMAHSJNJMHTYGYZZ","A27W025UEXS1G0","3S829FDFT2NBOHQMM1CIOU0HZYXDXL","","","","","","","","","","","",""
"","image-keyboard-response","364","152981","0.0-544.0","3DH6GAKTYZB5D7JMAHSJNJMHTYGYZZ","A27W025UEXS1G0","3S829FDFT2NBOHQMM1CIOU0HZYXDXL","","543.1999999992549","img/land7.png","76","544.0999999977648","3","0","false","1","0.6,0.6,0,0,0.6,0.6,0.6,0,0.6","",""
"","html-keyboard-response","365","153283","0.0-545.0","3DH6GAKTYZB5D7JMAHSJNJMHTYGYZZ","A27W025UEXS1G0","3S829FDFT2NBOHQMM1CIOU0HZYXDXL","","null","<img src=""img/land7.png"" style=""width:200px;border:14px solid red;"">","null","","","","","","","",""
"","image-keyboard-response","366","153766","0.0-547.0","3DH6GAKTYZB5D7JMAHSJNJMHTYGYZZ","A27W025UEXS1G0","3S829FDFT2NBOHQMM1CIOU0HZYXDXL","","482.5","img/land8.png","75","482.8999999985099","2","1","false","2","0.6,0.6,0,0,0.6,0.6,0.6,0,0.6","",""
"","html-keyboard-response","367","154068","0.0-548.0","3DH6GAKTYZB5D7JMAHSJNJMHTYGYZZ","A27W025UEXS1G0","3S829FDFT2NBOHQMM1CIOU0HZYXDXL","","null","<img src=""img/land8.png"" style=""width:200px; border:14px solid green;"">","null","","","","","","","",""
"","image-keyboard-response","368","154429","0.0-550.0","3DH6GAKTYZB5D7JMAHSJNJMHTYGYZZ","A27W025UEXS1G0","3S829FDFT2NBOHQMM1CIOU0HZYXDXL","","360.5","img/land8.png","75","360.8999999985099","2","1","false","2","0.6,0.6,0,0,0.6,0.6,0.6,0,0.6","",""
"","html-keyboard-response","369","154731","0.0-551.0","3DH6GAKTYZB5D7JMAHSJNJMHTYGYZZ","A27W025UEXS1G0","3S829FDFT2NBOHQMM1CIOU0HZYXDXL","","null","<img src=""img/land8.png"" style=""width:200px; border:14px solid green;"">","null","","","","","","","",""
"","image-keyboard-response","370","155341","0.0-553.0","3DH6GAKTYZB5D7JMAHSJNJMHTYGYZZ","A27W025UEXS1G0","3S829FDFT2NBOHQMM1CIOU0HZYXDXL","","608.8999999985099","img/land2.png","75","609.6000000014901","2","0","false","3","0.6,0.6,0,0,0.6,0.6,0.6,0,0.6","",""
"","html-keyboard-response","371","155642","0.0-554.0","3DH6GAKTYZB5D7JMAHSJNJMHTYGYZZ","A27W025UEXS1G0","3S829FDFT2NBOHQMM1CIOU0HZYXDXL","","null","<img src=""img/land2.png"" style=""width:200px;border:14px solid red;"">","null","","","","","","","",""
"","image-keyboard-response","372","156141","0.0-556.0","3DH6GAKTYZB5D7JMAHSJNJMHTYGYZZ","A27W025UEXS1G0","3S829FDFT2NBOHQMM1CIOU0HZYXDXL","","498.19999999925494","img/land7.png","75","498.69999999925494","2","0","false","1","0.6,0.6,0,0,0.6,0.6,0.6,0,0.6","",""
"","html-keyboard-response","373","156449","0.0-557.0","3DH6GAKTYZB5D7JMAHSJNJMHTYGYZZ","A27W025UEXS1G0","3S829FDFT2NBOHQMM1CIOU0HZYXDXL","","null","<img src=""img/land7.png"" style=""width:200px;border:14px solid red;"">","null","","","","","","","",""
"","image-keyboard-response","374","157085","0.0-559.0","3DH6GAKTYZB5D7JMAHSJNJMHTYGYZZ","A27W025UEXS1G0","3S829FDFT2NBOHQMM1CIOU0HZYXDXL","","635.1000000014901","img/land8.png","75","635.5999999977648","2","1","false","2","0.6,0.6,0,0,0.6,0.6,0.6,0,0.6","",""
"","html-keyboard-response","375","157387","0.0-560.0","3DH6GAKTYZB5D7JMAHSJNJMHTYGYZZ","A27W025UEXS1G0","3S829FDFT2NBOHQMM1CIOU0HZYXDXL","","null","<img src=""img/land8.png"" style=""width:200px; border:14px solid green;"">","null","","","","","","","",""
"","image-keyboard-response","376","157725","0.0-562.0","3DH6GAKTYZB5D7JMAHSJNJMHTYGYZZ","A27W025UEXS1G0","3S829FDFT2NBOHQMM1CIOU0HZYXDXL","","337.29999999701977","img/land2.png","74","337.80000000074506","1","0","false","3","0.6,0.6,0,0,0.6,0.6,0.6,0,0.6","",""
"","html-keyboard-response","377","158027","0.0-563.0","3DH6GAKTYZB5D7JMAHSJNJMHTYGYZZ","A27W025UEXS1G0","3S829FDFT2NBOHQMM1CIOU0HZYXDXL","","null","<img src=""img/land2.png"" style=""width:200px;border:14px solid red;"">","null","","","","","","","",""
"","image-keyboard-response","378","158541","0.0-565.0","3DH6GAKTYZB5D7JMAHSJNJMHTYGYZZ","A27W025UEXS1G0","3S829FDFT2NBOHQMM1CIOU0HZYXDXL","","513.8999999985099","img/land2.png","76","514.5","3","1","false","3","0.6,0.6,0,0,0.6,0.6,0.6,0,0.6","",""
"","html-keyboard-response","379","158844","0.0-566.0","3DH6GAKTYZB5D7JMAHSJNJMHTYGYZZ","A27W025UEXS1G0","3S829FDFT2NBOHQMM1CIOU0HZYXDXL","","null","<img src=""img/land2.png"" style=""width:200px; border:14px solid green;"">","null","","","","","","","",""
"","image-keyboard-response","380","159533","0.0-568.0","3DH6GAKTYZB5D7JMAHSJNJMHTYGYZZ","A27W025UEXS1G0","3S829FDFT2NBOHQMM1CIOU0HZYXDXL","","688.8000000007451","img/land2.png","76","689.3000000007451","3","0","false","3","0.6,0.6,0,0,0.6,0.6,0.6,0,0.6","",""
"","html-keyboard-response","381","159834","0.0-569.0","3DH6GAKTYZB5D7JMAHSJNJMHTYGYZZ","A27W025UEXS1G0","3S829FDFT2NBOHQMM1CIOU0HZYXDXL","","null","<img src=""img/land2.png"" style=""width:200px;border:14px solid red;"">","null","","","","","","","",""
"","image-keyboard-response","382","160614","0.0-571.0","3DH6GAKTYZB5D7JMAHSJNJMHTYGYZZ","A27W025UEXS1G0","3S829FDFT2NBOHQMM1CIOU0HZYXDXL","","778.3999999985099","img/land7.png","74","779.1000000014901","1","1","false","1","0.6,0.6,0,0,0.6,0.6,0.6,0,0.6","",""
"","html-keyboard-response","383","160916","0.0-572.0","3DH6GAKTYZB5D7JMAHSJNJMHTYGYZZ","A27W025UEXS1G0","3S829FDFT2NBOHQMM1CIOU0HZYXDXL","","null","<img src=""img/land7.png"" style=""width:200px; border:14px solid green;"">","null","","","","","","","",""
"","image-keyboard-response","384","161701","0.0-574.0","3DH6GAKTYZB5D7JMAHSJNJMHTYGYZZ","A27W025UEXS1G0","3S829FDFT2NBOHQMM1CIOU0HZYXDXL","","784.5999999977648","img/land8.png","75","785.1999999992549","2","1","false","2","0.6,0.6,0,0,0.6,0.6,0.6,0,0.6","",""
"","html-keyboard-response","385","162003","0.0-575.0","3DH6GAKTYZB5D7JMAHSJNJMHTYGYZZ","A27W025UEXS1G0","3S829FDFT2NBOHQMM1CIOU0HZYXDXL","","null","<img src=""img/land8.png"" style=""width:200px; border:14px solid green;"">","null","","","","","","","",""
