"success","trial_type","trial_index","time_elapsed","internal_node_id","assignmentID","mturkID","hitID","view_history","rt","stimulus","key_press","reactionTime","a","r","s","cond","reward_cond","reward_cond_actual","reward_matrix_idx","responses","question_order"
"true","fullscreen","0","9561","0.0-0.0","3WT783CTPC3WS6F18BUR4ANV291BCU","A2866TYG0D96LM","3BDORL6HKKZHMTYWD6BFF6WBDQ9CRF","","","","","","","","","","","","","",""
"","instructions","1","50013","0.0-1.0","3WT783CTPC3WS6F18BUR4ANV291BCU","A2866TYG0D96LM","3BDORL6HKKZHMTYWD6BFF6WBDQ9CRF","[{""page_index"":0,""viewing_time"":5801},{""page_index"":1,""viewing_time"":1565},{""page_index"":2,""viewing_time"":4018},{""page_index"":3,""viewing_time"":4581},{""page_index"":4,""viewing_time"":4313},{""page_index"":5,""viewing_time"":12686},{""page_index"":6,""viewing_time"":7485}]","40449","","","","","","","","","","","",""
"","image-keyboard-response","2","50771","0.0-2.0","3WT783CTPC3WS6F18BUR4ANV291BCU","A2866TYG0D96LM","3BDORL6HKKZHMTYWD6BFF6WBDQ9CRF","","758","img/land2.png","74","759","1","0","3","1","1,0.5,0.5,0.5,1,0.5,0.5,0.5,1","1,0.5,0.5,0.5,1,0.5,0.5,0.5,1","1","",""
"","html-keyboard-response","3","51085","0.0-3.0","3WT783CTPC3WS6F18BUR4ANV291BCU","A2866TYG0D96LM","3BDORL6HKKZHMTYWD6BFF6WBDQ9CRF","","null","<img src=""img/land2.png"" style=""width:200px;border:14px solid red;"">","null","","","","","","","","","",""
"","image-keyboard-response","4","52219","0.0-4.0","3WT783CTPC3WS6F18BUR4ANV291BCU","A2866TYG0D96LM","3BDORL6HKKZHMTYWD6BFF6WBDQ9CRF","","1133","img/land6.png","74","1135","1","1","2","1","1,0.5,0.5,0.5,1,0.5,0.5,0.5,1","1,0.5,0.5,0.5,1,0.5,0.5,0.5,1","1","",""
"","html-keyboard-response","5","52543","0.0-5.0","3WT783CTPC3WS6F18BUR4ANV291BCU","A2866TYG0D96LM","3BDORL6HKKZHMTYWD6BFF6WBDQ9CRF","","null","<img src=""img/land6.png"" style=""width:200px; border:14px solid green;"">","null","","","","","","","","","",""
"","image-keyboard-response","6","53404","0.0-6.0","3WT783CTPC3WS6F18BUR4ANV291BCU","A2866TYG0D96LM","3BDORL6HKKZHMTYWD6BFF6WBDQ9CRF","","860","img/land4.png","76","860","3","1","1","1","1,0.5,0.5,0.5,1,0.5,0.5,0.5,1","1,0.5,0.5,0.5,1,0.5,0.5,0.5,1","1","",""
"","html-keyboard-response","7","53708","0.0-7.0","3WT783CTPC3WS6F18BUR4ANV291BCU","A2866TYG0D96LM","3BDORL6HKKZHMTYWD6BFF6WBDQ9CRF","","null","<img src=""img/land4.png"" style=""width:200px; border:14px solid green;"">","null","","","","","","","","","",""
"","image-keyboard-response","8","54572","0.0-8.0","3WT783CTPC3WS6F18BUR4ANV291BCU","A2866TYG0D96LM","3BDORL6HKKZHMTYWD6BFF6WBDQ9CRF","","861","img/land6.png","74","863","1","0","2","1","1,0.5,0.5,0.5,1,0.5,0.5,0.5,1","1,0.5,0.5,0.5,1,0.5,0.5,0.5,1","1","",""
"","html-keyboard-response","9","54881","0.0-9.0","3WT783CTPC3WS6F18BUR4ANV291BCU","A2866TYG0D96LM","3BDORL6HKKZHMTYWD6BFF6WBDQ9CRF","","null","<img src=""img/land6.png"" style=""width:200px;border:14px solid red;"">","null","","","","","","","","","",""
"","image-keyboard-response","10","55594","0.0-10.0","3WT783CTPC3WS6F18BUR4ANV291BCU","A2866TYG0D96LM","3BDORL6HKKZHMTYWD6BFF6WBDQ9CRF","","713","img/land6.png","74","713","1","1","2","1","1,0.5,0.5,0.5,1,0.5,0.5,0.5,1","1,0.5,0.5,0.5,1,0.5,0.5,0.5,1","1","",""
"","html-keyboard-response","11","55900","0.0-11.0","3WT783CTPC3WS6F18BUR4ANV291BCU","A2866TYG0D96LM","3BDORL6HKKZHMTYWD6BFF6WBDQ9CRF","","null","<img src=""img/land6.png"" style=""width:200px; border:14px solid green;"">","null","","","","","","","","","",""
"","image-keyboard-response","12","56771","0.0-12.0","3WT783CTPC3WS6F18BUR4ANV291BCU","A2866TYG0D96LM","3BDORL6HKKZHMTYWD6BFF6WBDQ9CRF","","870","img/land4.png","75","871","2","1","1","1","1,0.5,0.5,0.5,1,0.5,0.5,0.5,1","1,0.5,0.5,0.5,1,0.5,0.5,0.5,1","1","",""
"","html-keyboard-response","13","57088","0.0-13.0","3WT783CTPC3WS6F18BUR4ANV291BCU","A2866TYG0D96LM","3BDORL6HKKZHMTYWD6BFF6WBDQ9CRF","","null","<img src=""img/land4.png"" style=""width:200px; border:14px solid green;"">","null","","","","","","","","","",""
"","image-keyboard-response","14","57724","0.0-14.0","3WT783CTPC3WS6F18BUR4ANV291BCU","A2866TYG0D96LM","3BDORL6HKKZHMTYWD6BFF6WBDQ9CRF","","635","img/land2.png","76","635","3","1","3","1","1,0.5,0.5,0.5,1,0.5,0.5,0.5,1","1,0.5,0.5,0.5,1,0.5,0.5,0.5,1","1","",""
"","html-keyboard-response","15","58038","0.0-15.0","3WT783CTPC3WS6F18BUR4ANV291BCU","A2866TYG0D96LM","3BDORL6HKKZHMTYWD6BFF6WBDQ9CRF","","null","<img src=""img/land2.png"" style=""width:200px; border:14px solid green;"">","null","","","","","","","","","",""
"","image-keyboard-response","16","59052","0.0-16.0","3WT783CTPC3WS6F18BUR4ANV291BCU","A2866TYG0D96LM","3BDORL6HKKZHMTYWD6BFF6WBDQ9CRF","","1013","img/land6.png","75","1014","2","1","2","1","1,0.5,0.5,0.5,1,0.5,0.5,0.5,1","1,0.5,0.5,0.5,1,0.5,0.5,0.5,1","1","",""
"","html-keyboard-response","17","59363","0.0-17.0","3WT783CTPC3WS6F18BUR4ANV291BCU","A2866TYG0D96LM","3BDORL6HKKZHMTYWD6BFF6WBDQ9CRF","","null","<img src=""img/land6.png"" style=""width:200px; border:14px solid green;"">","null","","","","","","","","","",""
"","image-keyboard-response","18","60075","0.0-18.0","3WT783CTPC3WS6F18BUR4ANV291BCU","A2866TYG0D96LM","3BDORL6HKKZHMTYWD6BFF6WBDQ9CRF","","711","img/land2.png","76","711","3","1","3","1","1,0.5,0.5,0.5,1,0.5,0.5,0.5,1","1,0.5,0.5,0.5,1,0.5,0.5,0.5,1","1","",""
"","html-keyboard-response","19","60382","0.0-19.0","3WT783CTPC3WS6F18BUR4ANV291BCU","A2866TYG0D96LM","3BDORL6HKKZHMTYWD6BFF6WBDQ9CRF","","null","<img src=""img/land2.png"" style=""width:200px; border:14px solid green;"">","null","","","","","","","","","",""
"","image-keyboard-response","20","60884","0.0-20.0","3WT783CTPC3WS6F18BUR4ANV291BCU","A2866TYG0D96LM","3BDORL6HKKZHMTYWD6BFF6WBDQ9CRF","","499","img/land2.png","76","501","3","1","3","1","1,0.5,0.5,0.5,1,0.5,0.5,0.5,1","1,0.5,0.5,0.5,1,0.5,0.5,0.5,1","1","",""
"","html-keyboard-response","21","61185","0.0-21.0","3WT783CTPC3WS6F18BUR4ANV291BCU","A2866TYG0D96LM","3BDORL6HKKZHMTYWD6BFF6WBDQ9CRF","","null","<img src=""img/land2.png"" style=""width:200px; border:14px solid green;"">","null","","","","","","","","","",""
"","image-keyboard-response","22","61988","0.0-22.0","3WT783CTPC3WS6F18BUR4ANV291BCU","A2866TYG0D96LM","3BDORL6HKKZHMTYWD6BFF6WBDQ9CRF","","801","img/land4.png","75","803","2","1","1","1","1,0.5,0.5,0.5,1,0.5,0.5,0.5,1","1,0.5,0.5,0.5,1,0.5,0.5,0.5,1","1","",""
"","html-keyboard-response","23","62304","0.0-23.0","3WT783CTPC3WS6F18BUR4ANV291BCU","A2866TYG0D96LM","3BDORL6HKKZHMTYWD6BFF6WBDQ9CRF","","null","<img src=""img/land4.png"" style=""width:200px; border:14px solid green;"">","null","","","","","","","","","",""
"","image-keyboard-response","24","63148","0.0-24.0","3WT783CTPC3WS6F18BUR4ANV291BCU","A2866TYG0D96LM","3BDORL6HKKZHMTYWD6BFF6WBDQ9CRF","","843","img/land2.png","74","845","1","1","3","1","1,0.5,0.5,0.5,1,0.5,0.5,0.5,1","1,0.5,0.5,0.5,1,0.5,0.5,0.5,1","1","",""
"","html-keyboard-response","25","63454","0.0-25.0","3WT783CTPC3WS6F18BUR4ANV291BCU","A2866TYG0D96LM","3BDORL6HKKZHMTYWD6BFF6WBDQ9CRF","","null","<img src=""img/land2.png"" style=""width:200px; border:14px solid green;"">","null","","","","","","","","","",""
"","image-keyboard-response","26","63954","0.0-26.0","3WT783CTPC3WS6F18BUR4ANV291BCU","A2866TYG0D96LM","3BDORL6HKKZHMTYWD6BFF6WBDQ9CRF","","498","img/land2.png","74","499","1","0","3","1","1,0.5,0.5,0.5,1,0.5,0.5,0.5,1","1,0.5,0.5,0.5,1,0.5,0.5,0.5,1","1","",""
"","html-keyboard-response","27","64257","0.0-27.0","3WT783CTPC3WS6F18BUR4ANV291BCU","A2866TYG0D96LM","3BDORL6HKKZHMTYWD6BFF6WBDQ9CRF","","null","<img src=""img/land2.png"" style=""width:200px;border:14px solid red;"">","null","","","","","","","","","",""
"","image-keyboard-response","28","65100","0.0-28.0","3WT783CTPC3WS6F18BUR4ANV291BCU","A2866TYG0D96LM","3BDORL6HKKZHMTYWD6BFF6WBDQ9CRF","","842","img/land4.png","75","842","2","1","1","1","1,0.5,0.5,0.5,1,0.5,0.5,0.5,1","1,0.5,0.5,0.5,1,0.5,0.5,0.5,1","1","",""
"","html-keyboard-response","29","65414","0.0-29.0","3WT783CTPC3WS6F18BUR4ANV291BCU","A2866TYG0D96LM","3BDORL6HKKZHMTYWD6BFF6WBDQ9CRF","","null","<img src=""img/land4.png"" style=""width:200px; border:14px solid green;"">","null","","","","","","","","","",""
"","image-keyboard-response","30","65931","0.0-30.0","3WT783CTPC3WS6F18BUR4ANV291BCU","A2866TYG0D96LM","3BDORL6HKKZHMTYWD6BFF6WBDQ9CRF","","516","img/land4.png","75","517","2","1","1","1","1,0.5,0.5,0.5,1,0.5,0.5,0.5,1","1,0.5,0.5,0.5,1,0.5,0.5,0.5,1","1","",""
"","html-keyboard-response","31","66263","0.0-31.0","3WT783CTPC3WS6F18BUR4ANV291BCU","A2866TYG0D96LM","3BDORL6HKKZHMTYWD6BFF6WBDQ9CRF","","null","<img src=""img/land4.png"" style=""width:200px; border:14px solid green;"">","null","","","","","","","","","",""
"","image-keyboard-response","32","67451","0.0-32.0","3WT783CTPC3WS6F18BUR4ANV291BCU","A2866TYG0D96LM","3BDORL6HKKZHMTYWD6BFF6WBDQ9CRF","","1187","img/land6.png","76","1188","3","1","2","1","1,0.5,0.5,0.5,1,0.5,0.5,0.5,1","1,0.5,0.5,0.5,1,0.5,0.5,0.5,1","1","",""
"","html-keyboard-response","33","67767","0.0-33.0","3WT783CTPC3WS6F18BUR4ANV291BCU","A2866TYG0D96LM","3BDORL6HKKZHMTYWD6BFF6WBDQ9CRF","","null","<img src=""img/land6.png"" style=""width:200px; border:14px solid green;"">","null","","","","","","","","","",""
"","image-keyboard-response","34","68594","0.0-34.0","3WT783CTPC3WS6F18BUR4ANV291BCU","A2866TYG0D96LM","3BDORL6HKKZHMTYWD6BFF6WBDQ9CRF","","826","img/land2.png","74","826","1","0","3","1","1,0.5,0.5,0.5,1,0.5,0.5,0.5,1","1,0.5,0.5,0.5,1,0.5,0.5,0.5,1","1","",""
"","html-keyboard-response","35","68909","0.0-35.0","3WT783CTPC3WS6F18BUR4ANV291BCU","A2866TYG0D96LM","3BDORL6HKKZHMTYWD6BFF6WBDQ9CRF","","null","<img src=""img/land2.png"" style=""width:200px;border:14px solid red;"">","null","","","","","","","","","",""
"","image-keyboard-response","36","69772","0.0-36.0","3WT783CTPC3WS6F18BUR4ANV291BCU","A2866TYG0D96LM","3BDORL6HKKZHMTYWD6BFF6WBDQ9CRF","","862","img/land2.png","74","862","1","0","3","1","1,0.5,0.5,0.5,1,0.5,0.5,0.5,1","1,0.5,0.5,0.5,1,0.5,0.5,0.5,1","1","",""
"","html-keyboard-response","37","70075","0.0-37.0","3WT783CTPC3WS6F18BUR4ANV291BCU","A2866TYG0D96LM","3BDORL6HKKZHMTYWD6BFF6WBDQ9CRF","","null","<img src=""img/land2.png"" style=""width:200px;border:14px solid red;"">","null","","","","","","","","","",""
"","image-keyboard-response","38","70916","0.0-38.0","3WT783CTPC3WS6F18BUR4ANV291BCU","A2866TYG0D96LM","3BDORL6HKKZHMTYWD6BFF6WBDQ9CRF","","839","img/land6.png","76","840","3","1","2","1","1,0.5,0.5,0.5,1,0.5,0.5,0.5,1","1,0.5,0.5,0.5,1,0.5,0.5,0.5,1","1","",""
"","html-keyboard-response","39","71232","0.0-39.0","3WT783CTPC3WS6F18BUR4ANV291BCU","A2866TYG0D96LM","3BDORL6HKKZHMTYWD6BFF6WBDQ9CRF","","null","<img src=""img/land6.png"" style=""width:200px; border:14px solid green;"">","null","","","","","","","","","",""
"","image-keyboard-response","40","72043","0.0-40.0","3WT783CTPC3WS6F18BUR4ANV291BCU","A2866TYG0D96LM","3BDORL6HKKZHMTYWD6BFF6WBDQ9CRF","","810","img/land6.png","76","811","3","1","2","1","1,0.5,0.5,0.5,1,0.5,0.5,0.5,1","1,0.5,0.5,0.5,1,0.5,0.5,0.5,1","1","",""
"","html-keyboard-response","41","72351","0.0-41.0","3WT783CTPC3WS6F18BUR4ANV291BCU","A2866TYG0D96LM","3BDORL6HKKZHMTYWD6BFF6WBDQ9CRF","","null","<img src=""img/land6.png"" style=""width:200px; border:14px solid green;"">","null","","","","","","","","","",""
"","image-keyboard-response","42","73243","0.0-42.0","3WT783CTPC3WS6F18BUR4ANV291BCU","A2866TYG0D96LM","3BDORL6HKKZHMTYWD6BFF6WBDQ9CRF","","891","img/land4.png","75","892","2","1","1","1","1,0.5,0.5,0.5,1,0.5,0.5,0.5,1","1,0.5,0.5,0.5,1,0.5,0.5,0.5,1","1","",""
"","html-keyboard-response","43","73554","0.0-43.0","3WT783CTPC3WS6F18BUR4ANV291BCU","A2866TYG0D96LM","3BDORL6HKKZHMTYWD6BFF6WBDQ9CRF","","null","<img src=""img/land4.png"" style=""width:200px; border:14px solid green;"">","null","","","","","","","","","",""
"","image-keyboard-response","44","74812","0.0-44.0","3WT783CTPC3WS6F18BUR4ANV291BCU","A2866TYG0D96LM","3BDORL6HKKZHMTYWD6BFF6WBDQ9CRF","","1255","img/land6.png","74","1256","1","0","2","1","1,0.5,0.5,0.5,1,0.5,0.5,0.5,1","1,0.5,0.5,0.5,1,0.5,0.5,0.5,1","1","",""
"","html-keyboard-response","45","75128","0.0-45.0","3WT783CTPC3WS6F18BUR4ANV291BCU","A2866TYG0D96LM","3BDORL6HKKZHMTYWD6BFF6WBDQ9CRF","","null","<img src=""img/land6.png"" style=""width:200px;border:14px solid red;"">","null","","","","","","","","","",""
"","image-keyboard-response","46","76163","0.0-46.0","3WT783CTPC3WS6F18BUR4ANV291BCU","A2866TYG0D96LM","3BDORL6HKKZHMTYWD6BFF6WBDQ9CRF","","1034","img/land2.png","74","1035","1","0","3","1","1,0.5,0.5,0.5,1,0.5,0.5,0.5,1","1,0.5,0.5,0.5,1,0.5,0.5,0.5,1","1","",""
"","html-keyboard-response","47","76471","0.0-47.0","3WT783CTPC3WS6F18BUR4ANV291BCU","A2866TYG0D96LM","3BDORL6HKKZHMTYWD6BFF6WBDQ9CRF","","null","<img src=""img/land2.png"" style=""width:200px;border:14px solid red;"">","null","","","","","","","","","",""
"","image-keyboard-response","48","77747","0.0-48.0","3WT783CTPC3WS6F18BUR4ANV291BCU","A2866TYG0D96LM","3BDORL6HKKZHMTYWD6BFF6WBDQ9CRF","","1276","img/land4.png","76","1276","3","1","1","1","1,0.5,0.5,0.5,1,0.5,0.5,0.5,1","1,0.5,0.5,0.5,1,0.5,0.5,0.5,1","1","",""
"","html-keyboard-response","49","78054","0.0-49.0","3WT783CTPC3WS6F18BUR4ANV291BCU","A2866TYG0D96LM","3BDORL6HKKZHMTYWD6BFF6WBDQ9CRF","","null","<img src=""img/land4.png"" style=""width:200px; border:14px solid green;"">","null","","","","","","","","","",""
"","image-keyboard-response","50","79227","0.0-50.0","3WT783CTPC3WS6F18BUR4ANV291BCU","A2866TYG0D96LM","3BDORL6HKKZHMTYWD6BFF6WBDQ9CRF","","1173","img/land6.png","74","1174","1","0","2","1","1,0.5,0.5,0.5,1,0.5,0.5,0.5,1","1,0.5,0.5,0.5,1,0.5,0.5,0.5,1","1","",""
"","html-keyboard-response","51","79542","0.0-51.0","3WT783CTPC3WS6F18BUR4ANV291BCU","A2866TYG0D96LM","3BDORL6HKKZHMTYWD6BFF6WBDQ9CRF","","null","<img src=""img/land6.png"" style=""width:200px;border:14px solid red;"">","null","","","","","","","","","",""
"","image-keyboard-response","52","80195","0.0-52.0","3WT783CTPC3WS6F18BUR4ANV291BCU","A2866TYG0D96LM","3BDORL6HKKZHMTYWD6BFF6WBDQ9CRF","","651","img/land6.png","75","653","2","1","2","1","1,0.5,0.5,0.5,1,0.5,0.5,0.5,1","1,0.5,0.5,0.5,1,0.5,0.5,0.5,1","1","",""
"","html-keyboard-response","53","80514","0.0-53.0","3WT783CTPC3WS6F18BUR4ANV291BCU","A2866TYG0D96LM","3BDORL6HKKZHMTYWD6BFF6WBDQ9CRF","","null","<img src=""img/land6.png"" style=""width:200px; border:14px solid green;"">","null","","","","","","","","","",""
"","image-keyboard-response","54","81172","0.0-54.0","3WT783CTPC3WS6F18BUR4ANV291BCU","A2866TYG0D96LM","3BDORL6HKKZHMTYWD6BFF6WBDQ9CRF","","657","img/land6.png","75","657","2","1","2","1","1,0.5,0.5,0.5,1,0.5,0.5,0.5,1","1,0.5,0.5,0.5,1,0.5,0.5,0.5,1","1","",""
"","html-keyboard-response","55","81480","0.0-55.0","3WT783CTPC3WS6F18BUR4ANV291BCU","A2866TYG0D96LM","3BDORL6HKKZHMTYWD6BFF6WBDQ9CRF","","null","<img src=""img/land6.png"" style=""width:200px; border:14px solid green;"">","null","","","","","","","","","",""
"","image-keyboard-response","56","81930","0.0-56.0","3WT783CTPC3WS6F18BUR4ANV291BCU","A2866TYG0D96LM","3BDORL6HKKZHMTYWD6BFF6WBDQ9CRF","","449","img/land6.png","75","450","2","1","2","1","1,0.5,0.5,0.5,1,0.5,0.5,0.5,1","1,0.5,0.5,0.5,1,0.5,0.5,0.5,1","1","",""
"","html-keyboard-response","57","82235","0.0-57.0","3WT783CTPC3WS6F18BUR4ANV291BCU","A2866TYG0D96LM","3BDORL6HKKZHMTYWD6BFF6WBDQ9CRF","","null","<img src=""img/land6.png"" style=""width:200px; border:14px solid green;"">","null","","","","","","","","","",""
"","image-keyboard-response","58","82635","0.0-58.0","3WT783CTPC3WS6F18BUR4ANV291BCU","A2866TYG0D96LM","3BDORL6HKKZHMTYWD6BFF6WBDQ9CRF","","399","img/land6.png","75","400","2","1","2","1","1,0.5,0.5,0.5,1,0.5,0.5,0.5,1","1,0.5,0.5,0.5,1,0.5,0.5,0.5,1","1","",""
"","html-keyboard-response","59","82937","0.0-59.0","3WT783CTPC3WS6F18BUR4ANV291BCU","A2866TYG0D96LM","3BDORL6HKKZHMTYWD6BFF6WBDQ9CRF","","null","<img src=""img/land6.png"" style=""width:200px; border:14px solid green;"">","null","","","","","","","","","",""
"","image-keyboard-response","60","83812","0.0-60.0","3WT783CTPC3WS6F18BUR4ANV291BCU","A2866TYG0D96LM","3BDORL6HKKZHMTYWD6BFF6WBDQ9CRF","","872","img/land2.png","74","874","1","1","3","1","1,0.5,0.5,0.5,1,0.5,0.5,0.5,1","1,0.5,0.5,0.5,1,0.5,0.5,0.5,1","1","",""
"","html-keyboard-response","61","84125","0.0-61.0","3WT783CTPC3WS6F18BUR4ANV291BCU","A2866TYG0D96LM","3BDORL6HKKZHMTYWD6BFF6WBDQ9CRF","","null","<img src=""img/land2.png"" style=""width:200px; border:14px solid green;"">","null","","","","","","","","","",""
"","image-keyboard-response","62","84556","0.0-62.0","3WT783CTPC3WS6F18BUR4ANV291BCU","A2866TYG0D96LM","3BDORL6HKKZHMTYWD6BFF6WBDQ9CRF","","429","img/land2.png","74","429","1","0","3","1","1,0.5,0.5,0.5,1,0.5,0.5,0.5,1","1,0.5,0.5,0.5,1,0.5,0.5,0.5,1","1","",""
"","html-keyboard-response","63","84859","0.0-63.0","3WT783CTPC3WS6F18BUR4ANV291BCU","A2866TYG0D96LM","3BDORL6HKKZHMTYWD6BFF6WBDQ9CRF","","null","<img src=""img/land2.png"" style=""width:200px;border:14px solid red;"">","null","","","","","","","","","",""
"","image-keyboard-response","64","85859","0.0-64.0","3WT783CTPC3WS6F18BUR4ANV291BCU","A2866TYG0D96LM","3BDORL6HKKZHMTYWD6BFF6WBDQ9CRF","","998","img/land4.png","76","999","3","1","1","1","1,0.5,0.5,0.5,1,0.5,0.5,0.5,1","1,0.5,0.5,0.5,1,0.5,0.5,0.5,1","1","",""
"","html-keyboard-response","65","86163","0.0-65.0","3WT783CTPC3WS6F18BUR4ANV291BCU","A2866TYG0D96LM","3BDORL6HKKZHMTYWD6BFF6WBDQ9CRF","","null","<img src=""img/land4.png"" style=""width:200px; border:14px solid green;"">","null","","","","","","","","","",""
"","image-keyboard-response","66","86523","0.0-66.0","3WT783CTPC3WS6F18BUR4ANV291BCU","A2866TYG0D96LM","3BDORL6HKKZHMTYWD6BFF6WBDQ9CRF","","358","img/land4.png","76","360","3","0","1","1","1,0.5,0.5,0.5,1,0.5,0.5,0.5,1","1,0.5,0.5,0.5,1,0.5,0.5,0.5,1","1","",""
"","html-keyboard-response","67","86834","0.0-67.0","3WT783CTPC3WS6F18BUR4ANV291BCU","A2866TYG0D96LM","3BDORL6HKKZHMTYWD6BFF6WBDQ9CRF","","null","<img src=""img/land4.png"" style=""width:200px;border:14px solid red;"">","null","","","","","","","","","",""
"","image-keyboard-response","68","87716","0.0-68.0","3WT783CTPC3WS6F18BUR4ANV291BCU","A2866TYG0D96LM","3BDORL6HKKZHMTYWD6BFF6WBDQ9CRF","","880","img/land4.png","76","881","3","1","1","1","1,0.5,0.5,0.5,1,0.5,0.5,0.5,1","1,0.5,0.5,0.5,1,0.5,0.5,0.5,1","1","",""
"","html-keyboard-response","69","88038","0.0-69.0","3WT783CTPC3WS6F18BUR4ANV291BCU","A2866TYG0D96LM","3BDORL6HKKZHMTYWD6BFF6WBDQ9CRF","","null","<img src=""img/land4.png"" style=""width:200px; border:14px solid green;"">","null","","","","","","","","","",""
"","image-keyboard-response","70","89132","0.0-70.0","3WT783CTPC3WS6F18BUR4ANV291BCU","A2866TYG0D96LM","3BDORL6HKKZHMTYWD6BFF6WBDQ9CRF","","1091","img/land2.png","74","1093","1","1","3","1","1,0.5,0.5,0.5,1,0.5,0.5,0.5,1","1,0.5,0.5,0.5,1,0.5,0.5,0.5,1","1","",""
"","html-keyboard-response","71","89443","0.0-71.0","3WT783CTPC3WS6F18BUR4ANV291BCU","A2866TYG0D96LM","3BDORL6HKKZHMTYWD6BFF6WBDQ9CRF","","null","<img src=""img/land2.png"" style=""width:200px; border:14px solid green;"">","null","","","","","","","","","",""
"","image-keyboard-response","72","90747","0.0-72.0","3WT783CTPC3WS6F18BUR4ANV291BCU","A2866TYG0D96LM","3BDORL6HKKZHMTYWD6BFF6WBDQ9CRF","","1304","img/land6.png","75","1305","2","1","2","1","1,0.5,0.5,0.5,1,0.5,0.5,0.5,1","1,0.5,0.5,0.5,1,0.5,0.5,0.5,1","1","",""
"","html-keyboard-response","73","91063","0.0-73.0","3WT783CTPC3WS6F18BUR4ANV291BCU","A2866TYG0D96LM","3BDORL6HKKZHMTYWD6BFF6WBDQ9CRF","","null","<img src=""img/land6.png"" style=""width:200px; border:14px solid green;"">","null","","","","","","","","","",""
"","image-keyboard-response","74","91995","0.0-74.0","3WT783CTPC3WS6F18BUR4ANV291BCU","A2866TYG0D96LM","3BDORL6HKKZHMTYWD6BFF6WBDQ9CRF","","930","img/land4.png","74","932","1","1","1","1","1,0.5,0.5,0.5,1,0.5,0.5,0.5,1","1,0.5,0.5,0.5,1,0.5,0.5,0.5,1","1","",""
"","html-keyboard-response","75","92299","0.0-75.0","3WT783CTPC3WS6F18BUR4ANV291BCU","A2866TYG0D96LM","3BDORL6HKKZHMTYWD6BFF6WBDQ9CRF","","null","<img src=""img/land4.png"" style=""width:200px; border:14px solid green;"">","null","","","","","","","","","",""
"","image-keyboard-response","76","93156","0.0-76.0","3WT783CTPC3WS6F18BUR4ANV291BCU","A2866TYG0D96LM","3BDORL6HKKZHMTYWD6BFF6WBDQ9CRF","","856","img/land2.png","75","857","2","0","3","1","1,0.5,0.5,0.5,1,0.5,0.5,0.5,1","1,0.5,0.5,0.5,1,0.5,0.5,0.5,1","1","",""
"","html-keyboard-response","77","93470","0.0-77.0","3WT783CTPC3WS6F18BUR4ANV291BCU","A2866TYG0D96LM","3BDORL6HKKZHMTYWD6BFF6WBDQ9CRF","","null","<img src=""img/land2.png"" style=""width:200px;border:14px solid red;"">","null","","","","","","","","","",""
"","image-keyboard-response","78","95148","0.0-78.0","3WT783CTPC3WS6F18BUR4ANV291BCU","A2866TYG0D96LM","3BDORL6HKKZHMTYWD6BFF6WBDQ9CRF","","1674","img/land4.png","76","1677","3","1","1","1","1,0.5,0.5,0.5,1,0.5,0.5,0.5,1","1,0.5,0.5,0.5,1,0.5,0.5,0.5,1","1","",""
"","html-keyboard-response","79","95461","0.0-79.0","3WT783CTPC3WS6F18BUR4ANV291BCU","A2866TYG0D96LM","3BDORL6HKKZHMTYWD6BFF6WBDQ9CRF","","null","<img src=""img/land4.png"" style=""width:200px; border:14px solid green;"">","null","","","","","","","","","",""
"","image-keyboard-response","80","96818","0.0-80.0","3WT783CTPC3WS6F18BUR4ANV291BCU","A2866TYG0D96LM","3BDORL6HKKZHMTYWD6BFF6WBDQ9CRF","","1356","img/land6.png","75","1356","2","1","2","1","1,0.5,0.5,0.5,1,0.5,0.5,0.5,1","1,0.5,0.5,0.5,1,0.5,0.5,0.5,1","1","",""
"","html-keyboard-response","81","97127","0.0-81.0","3WT783CTPC3WS6F18BUR4ANV291BCU","A2866TYG0D96LM","3BDORL6HKKZHMTYWD6BFF6WBDQ9CRF","","null","<img src=""img/land6.png"" style=""width:200px; border:14px solid green;"">","null","","","","","","","","","",""
"","image-keyboard-response","82","97985","0.0-82.0","3WT783CTPC3WS6F18BUR4ANV291BCU","A2866TYG0D96LM","3BDORL6HKKZHMTYWD6BFF6WBDQ9CRF","","858","img/land4.png","76","858","3","0","1","1","1,0.5,0.5,0.5,1,0.5,0.5,0.5,1","1,0.5,0.5,0.5,1,0.5,0.5,0.5,1","1","",""
"","html-keyboard-response","83","98299","0.0-83.0","3WT783CTPC3WS6F18BUR4ANV291BCU","A2866TYG0D96LM","3BDORL6HKKZHMTYWD6BFF6WBDQ9CRF","","null","<img src=""img/land4.png"" style=""width:200px;border:14px solid red;"">","null","","","","","","","","","",""
"","image-keyboard-response","84","99314","0.0-84.0","3WT783CTPC3WS6F18BUR4ANV291BCU","A2866TYG0D96LM","3BDORL6HKKZHMTYWD6BFF6WBDQ9CRF","","1014","img/land4.png","76","1014","3","0","1","1","1,0.5,0.5,0.5,1,0.5,0.5,0.5,1","1,0.5,0.5,0.5,1,0.5,0.5,0.5,1","1","",""
"","html-keyboard-response","85","99619","0.0-85.0","3WT783CTPC3WS6F18BUR4ANV291BCU","A2866TYG0D96LM","3BDORL6HKKZHMTYWD6BFF6WBDQ9CRF","","null","<img src=""img/land4.png"" style=""width:200px;border:14px solid red;"">","null","","","","","","","","","",""
"","image-keyboard-response","86","101225","0.0-86.0","3WT783CTPC3WS6F18BUR4ANV291BCU","A2866TYG0D96LM","3BDORL6HKKZHMTYWD6BFF6WBDQ9CRF","","1607","img/land2.png","74","1607","1","0","3","1","1,0.5,0.5,0.5,1,0.5,0.5,0.5,1","1,0.5,0.5,0.5,1,0.5,0.5,0.5,1","1","",""
"","html-keyboard-response","87","101539","0.0-87.0","3WT783CTPC3WS6F18BUR4ANV291BCU","A2866TYG0D96LM","3BDORL6HKKZHMTYWD6BFF6WBDQ9CRF","","null","<img src=""img/land2.png"" style=""width:200px;border:14px solid red;"">","null","","","","","","","","","",""
"","image-keyboard-response","88","102569","0.0-88.0","3WT783CTPC3WS6F18BUR4ANV291BCU","A2866TYG0D96LM","3BDORL6HKKZHMTYWD6BFF6WBDQ9CRF","","1029","img/land4.png","76","1029","3","0","1","1","1,0.5,0.5,0.5,1,0.5,0.5,0.5,1","1,0.5,0.5,0.5,1,0.5,0.5,0.5,1","1","",""
"","html-keyboard-response","89","102880","0.0-89.0","3WT783CTPC3WS6F18BUR4ANV291BCU","A2866TYG0D96LM","3BDORL6HKKZHMTYWD6BFF6WBDQ9CRF","","null","<img src=""img/land4.png"" style=""width:200px;border:14px solid red;"">","null","","","","","","","","","",""
"","image-keyboard-response","90","103674","0.0-90.0","3WT783CTPC3WS6F18BUR4ANV291BCU","A2866TYG0D96LM","3BDORL6HKKZHMTYWD6BFF6WBDQ9CRF","","793","img/land6.png","75","793","2","1","2","1","1,0.5,0.5,0.5,1,0.5,0.5,0.5,1","1,0.5,0.5,0.5,1,0.5,0.5,0.5,1","1","",""
"","html-keyboard-response","91","103983","0.0-91.0","3WT783CTPC3WS6F18BUR4ANV291BCU","A2866TYG0D96LM","3BDORL6HKKZHMTYWD6BFF6WBDQ9CRF","","null","<img src=""img/land6.png"" style=""width:200px; border:14px solid green;"">","null","","","","","","","","","",""
"","image-keyboard-response","92","104419","0.0-92.0","3WT783CTPC3WS6F18BUR4ANV291BCU","A2866TYG0D96LM","3BDORL6HKKZHMTYWD6BFF6WBDQ9CRF","","436","img/land6.png","75","436","2","1","2","1","1,0.5,0.5,0.5,1,0.5,0.5,0.5,1","1,0.5,0.5,0.5,1,0.5,0.5,0.5,1","1","",""
"","html-keyboard-response","93","104733","0.0-93.0","3WT783CTPC3WS6F18BUR4ANV291BCU","A2866TYG0D96LM","3BDORL6HKKZHMTYWD6BFF6WBDQ9CRF","","null","<img src=""img/land6.png"" style=""width:200px; border:14px solid green;"">","null","","","","","","","","","",""
"","image-keyboard-response","94","105715","0.0-94.0","3WT783CTPC3WS6F18BUR4ANV291BCU","A2866TYG0D96LM","3BDORL6HKKZHMTYWD6BFF6WBDQ9CRF","","981","img/land4.png","74","982","1","1","1","1","1,0.5,0.5,0.5,1,0.5,0.5,0.5,1","1,0.5,0.5,0.5,1,0.5,0.5,0.5,1","1","",""
"","html-keyboard-response","95","106022","0.0-95.0","3WT783CTPC3WS6F18BUR4ANV291BCU","A2866TYG0D96LM","3BDORL6HKKZHMTYWD6BFF6WBDQ9CRF","","null","<img src=""img/land4.png"" style=""width:200px; border:14px solid green;"">","null","","","","","","","","","",""
"","image-keyboard-response","96","106411","0.0-96.0","3WT783CTPC3WS6F18BUR4ANV291BCU","A2866TYG0D96LM","3BDORL6HKKZHMTYWD6BFF6WBDQ9CRF","","388","img/land4.png","74","389","1","1","1","1","1,0.5,0.5,0.5,1,0.5,0.5,0.5,1","1,0.5,0.5,0.5,1,0.5,0.5,0.5,1","1","",""
"","html-keyboard-response","97","106724","0.0-97.0","3WT783CTPC3WS6F18BUR4ANV291BCU","A2866TYG0D96LM","3BDORL6HKKZHMTYWD6BFF6WBDQ9CRF","","null","<img src=""img/land4.png"" style=""width:200px; border:14px solid green;"">","null","","","","","","","","","",""
"","image-keyboard-response","98","107075","0.0-98.0","3WT783CTPC3WS6F18BUR4ANV291BCU","A2866TYG0D96LM","3BDORL6HKKZHMTYWD6BFF6WBDQ9CRF","","350","img/land4.png","74","352","1","1","1","1","1,0.5,0.5,0.5,1,0.5,0.5,0.5,1","1,0.5,0.5,0.5,1,0.5,0.5,0.5,1","1","",""
"","html-keyboard-response","99","107395","0.0-99.0","3WT783CTPC3WS6F18BUR4ANV291BCU","A2866TYG0D96LM","3BDORL6HKKZHMTYWD6BFF6WBDQ9CRF","","null","<img src=""img/land4.png"" style=""width:200px; border:14px solid green;"">","null","","","","","","","","","",""
"","image-keyboard-response","100","107868","0.0-100.0","3WT783CTPC3WS6F18BUR4ANV291BCU","A2866TYG0D96LM","3BDORL6HKKZHMTYWD6BFF6WBDQ9CRF","","471","img/land4.png","74","473","1","1","1","1","1,0.5,0.5,0.5,1,0.5,0.5,0.5,1","1,0.5,0.5,0.5,1,0.5,0.5,0.5,1","1","",""
"","html-keyboard-response","101","108174","0.0-101.0","3WT783CTPC3WS6F18BUR4ANV291BCU","A2866TYG0D96LM","3BDORL6HKKZHMTYWD6BFF6WBDQ9CRF","","null","<img src=""img/land4.png"" style=""width:200px; border:14px solid green;"">","null","","","","","","","","","",""
"","image-keyboard-response","102","108548","0.0-102.0","3WT783CTPC3WS6F18BUR4ANV291BCU","A2866TYG0D96LM","3BDORL6HKKZHMTYWD6BFF6WBDQ9CRF","","371","img/land4.png","74","373","1","1","1","1","1,0.5,0.5,0.5,1,0.5,0.5,0.5,1","1,0.5,0.5,0.5,1,0.5,0.5,0.5,1","1","",""
"","html-keyboard-response","103","108861","0.0-103.0","3WT783CTPC3WS6F18BUR4ANV291BCU","A2866TYG0D96LM","3BDORL6HKKZHMTYWD6BFF6WBDQ9CRF","","null","<img src=""img/land4.png"" style=""width:200px; border:14px solid green;"">","null","","","","","","","","","",""
"","image-keyboard-response","104","109291","0.0-104.0","3WT783CTPC3WS6F18BUR4ANV291BCU","A2866TYG0D96LM","3BDORL6HKKZHMTYWD6BFF6WBDQ9CRF","","429","img/land4.png","74","430","1","1","1","1","1,0.5,0.5,0.5,1,0.5,0.5,0.5,1","1,0.5,0.5,0.5,1,0.5,0.5,0.5,1","1","",""
"","html-keyboard-response","105","109601","0.0-105.0","3WT783CTPC3WS6F18BUR4ANV291BCU","A2866TYG0D96LM","3BDORL6HKKZHMTYWD6BFF6WBDQ9CRF","","null","<img src=""img/land4.png"" style=""width:200px; border:14px solid green;"">","null","","","","","","","","","",""
"","image-keyboard-response","106","110643","0.0-106.0","3WT783CTPC3WS6F18BUR4ANV291BCU","A2866TYG0D96LM","3BDORL6HKKZHMTYWD6BFF6WBDQ9CRF","","1040","img/land6.png","75","1042","2","1","2","1","1,0.5,0.5,0.5,1,0.5,0.5,0.5,1","1,0.5,0.5,0.5,1,0.5,0.5,0.5,1","1","",""
"","html-keyboard-response","107","110952","0.0-107.0","3WT783CTPC3WS6F18BUR4ANV291BCU","A2866TYG0D96LM","3BDORL6HKKZHMTYWD6BFF6WBDQ9CRF","","null","<img src=""img/land6.png"" style=""width:200px; border:14px solid green;"">","null","","","","","","","","","",""
"","image-keyboard-response","108","111979","0.0-108.0","3WT783CTPC3WS6F18BUR4ANV291BCU","A2866TYG0D96LM","3BDORL6HKKZHMTYWD6BFF6WBDQ9CRF","","1027","img/land2.png","76","1028","3","1","3","1","1,0.5,0.5,0.5,1,0.5,0.5,0.5,1","1,0.5,0.5,0.5,1,0.5,0.5,0.5,1","1","",""
"","html-keyboard-response","109","112287","0.0-109.0","3WT783CTPC3WS6F18BUR4ANV291BCU","A2866TYG0D96LM","3BDORL6HKKZHMTYWD6BFF6WBDQ9CRF","","null","<img src=""img/land2.png"" style=""width:200px; border:14px solid green;"">","null","","","","","","","","","",""
"","image-keyboard-response","110","112626","0.0-110.0","3WT783CTPC3WS6F18BUR4ANV291BCU","A2866TYG0D96LM","3BDORL6HKKZHMTYWD6BFF6WBDQ9CRF","","337","img/land2.png","76","338","3","1","3","1","1,0.5,0.5,0.5,1,0.5,0.5,0.5,1","1,0.5,0.5,0.5,1,0.5,0.5,0.5,1","1","",""
"","html-keyboard-response","111","112927","0.0-111.0","3WT783CTPC3WS6F18BUR4ANV291BCU","A2866TYG0D96LM","3BDORL6HKKZHMTYWD6BFF6WBDQ9CRF","","null","<img src=""img/land2.png"" style=""width:200px; border:14px solid green;"">","null","","","","","","","","","",""
"","image-keyboard-response","112","113907","0.0-112.0","3WT783CTPC3WS6F18BUR4ANV291BCU","A2866TYG0D96LM","3BDORL6HKKZHMTYWD6BFF6WBDQ9CRF","","980","img/land6.png","75","980","2","1","2","1","1,0.5,0.5,0.5,1,0.5,0.5,0.5,1","1,0.5,0.5,0.5,1,0.5,0.5,0.5,1","1","",""
"","html-keyboard-response","113","114215","0.0-113.0","3WT783CTPC3WS6F18BUR4ANV291BCU","A2866TYG0D96LM","3BDORL6HKKZHMTYWD6BFF6WBDQ9CRF","","null","<img src=""img/land6.png"" style=""width:200px; border:14px solid green;"">","null","","","","","","","","","",""
"","image-keyboard-response","114","115131","0.0-114.0","3WT783CTPC3WS6F18BUR4ANV291BCU","A2866TYG0D96LM","3BDORL6HKKZHMTYWD6BFF6WBDQ9CRF","","915","img/land2.png","76","916","3","1","3","1","1,0.5,0.5,0.5,1,0.5,0.5,0.5,1","1,0.5,0.5,0.5,1,0.5,0.5,0.5,1","1","",""
"","html-keyboard-response","115","115435","0.0-115.0","3WT783CTPC3WS6F18BUR4ANV291BCU","A2866TYG0D96LM","3BDORL6HKKZHMTYWD6BFF6WBDQ9CRF","","null","<img src=""img/land2.png"" style=""width:200px; border:14px solid green;"">","null","","","","","","","","","",""
"","image-keyboard-response","116","115827","0.0-116.0","3WT783CTPC3WS6F18BUR4ANV291BCU","A2866TYG0D96LM","3BDORL6HKKZHMTYWD6BFF6WBDQ9CRF","","391","img/land2.png","76","392","3","1","3","1","1,0.5,0.5,0.5,1,0.5,0.5,0.5,1","1,0.5,0.5,0.5,1,0.5,0.5,0.5,1","1","",""
"","html-keyboard-response","117","116137","0.0-117.0","3WT783CTPC3WS6F18BUR4ANV291BCU","A2866TYG0D96LM","3BDORL6HKKZHMTYWD6BFF6WBDQ9CRF","","null","<img src=""img/land2.png"" style=""width:200px; border:14px solid green;"">","null","","","","","","","","","",""
"","image-keyboard-response","118","116476","0.0-118.0","3WT783CTPC3WS6F18BUR4ANV291BCU","A2866TYG0D96LM","3BDORL6HKKZHMTYWD6BFF6WBDQ9CRF","","337","img/land2.png","76","338","3","1","3","1","1,0.5,0.5,0.5,1,0.5,0.5,0.5,1","1,0.5,0.5,0.5,1,0.5,0.5,0.5,1","1","",""
"","html-keyboard-response","119","116786","0.0-119.0","3WT783CTPC3WS6F18BUR4ANV291BCU","A2866TYG0D96LM","3BDORL6HKKZHMTYWD6BFF6WBDQ9CRF","","null","<img src=""img/land2.png"" style=""width:200px; border:14px solid green;"">","null","","","","","","","","","",""
"","image-keyboard-response","120","117667","0.0-120.0","3WT783CTPC3WS6F18BUR4ANV291BCU","A2866TYG0D96LM","3BDORL6HKKZHMTYWD6BFF6WBDQ9CRF","","879","img/land6.png","75","881","2","1","2","1","1,0.5,0.5,0.5,1,0.5,0.5,0.5,1","1,0.5,0.5,0.5,1,0.5,0.5,0.5,1","1","",""
"","html-keyboard-response","121","117974","0.0-121.0","3WT783CTPC3WS6F18BUR4ANV291BCU","A2866TYG0D96LM","3BDORL6HKKZHMTYWD6BFF6WBDQ9CRF","","null","<img src=""img/land6.png"" style=""width:200px; border:14px solid green;"">","null","","","","","","","","","",""
"","image-keyboard-response","122","118971","0.0-122.0","3WT783CTPC3WS6F18BUR4ANV291BCU","A2866TYG0D96LM","3BDORL6HKKZHMTYWD6BFF6WBDQ9CRF","","995","img/land4.png","74","997","1","1","1","1","1,0.5,0.5,0.5,1,0.5,0.5,0.5,1","1,0.5,0.5,0.5,1,0.5,0.5,0.5,1","1","",""
"","html-keyboard-response","123","119278","0.0-123.0","3WT783CTPC3WS6F18BUR4ANV291BCU","A2866TYG0D96LM","3BDORL6HKKZHMTYWD6BFF6WBDQ9CRF","","null","<img src=""img/land4.png"" style=""width:200px; border:14px solid green;"">","null","","","","","","","","","",""
"","image-keyboard-response","124","120379","0.0-124.0","3WT783CTPC3WS6F18BUR4ANV291BCU","A2866TYG0D96LM","3BDORL6HKKZHMTYWD6BFF6WBDQ9CRF","","1099","img/land2.png","76","1101","3","1","3","1","1,0.5,0.5,0.5,1,0.5,0.5,0.5,1","1,0.5,0.5,0.5,1,0.5,0.5,0.5,1","1","",""
"","html-keyboard-response","125","120682","0.0-125.0","3WT783CTPC3WS6F18BUR4ANV291BCU","A2866TYG0D96LM","3BDORL6HKKZHMTYWD6BFF6WBDQ9CRF","","null","<img src=""img/land2.png"" style=""width:200px; border:14px solid green;"">","null","","","","","","","","","",""
"","image-keyboard-response","126","121467","0.0-126.0","3WT783CTPC3WS6F18BUR4ANV291BCU","A2866TYG0D96LM","3BDORL6HKKZHMTYWD6BFF6WBDQ9CRF","","782","img/land6.png","75","784","2","1","2","1","1,0.5,0.5,0.5,1,0.5,0.5,0.5,1","1,0.5,0.5,0.5,1,0.5,0.5,0.5,1","1","",""
"","html-keyboard-response","127","121770","0.0-127.0","3WT783CTPC3WS6F18BUR4ANV291BCU","A2866TYG0D96LM","3BDORL6HKKZHMTYWD6BFF6WBDQ9CRF","","null","<img src=""img/land6.png"" style=""width:200px; border:14px solid green;"">","null","","","","","","","","","",""
"","image-keyboard-response","128","123379","0.0-128.0","3WT783CTPC3WS6F18BUR4ANV291BCU","A2866TYG0D96LM","3BDORL6HKKZHMTYWD6BFF6WBDQ9CRF","","1608","img/land4.png","76","1608","3","1","1","1","1,0.5,0.5,0.5,1,0.5,0.5,0.5,1","1,0.5,0.5,0.5,1,0.5,0.5,0.5,1","1","",""
"","html-keyboard-response","129","123693","0.0-129.0","3WT783CTPC3WS6F18BUR4ANV291BCU","A2866TYG0D96LM","3BDORL6HKKZHMTYWD6BFF6WBDQ9CRF","","null","<img src=""img/land4.png"" style=""width:200px; border:14px solid green;"">","null","","","","","","","","","",""
"","image-keyboard-response","130","124339","0.0-130.0","3WT783CTPC3WS6F18BUR4ANV291BCU","A2866TYG0D96LM","3BDORL6HKKZHMTYWD6BFF6WBDQ9CRF","","645","img/land6.png","75","647","2","1","2","1","1,0.5,0.5,0.5,1,0.5,0.5,0.5,1","1,0.5,0.5,0.5,1,0.5,0.5,0.5,1","1","",""
"","html-keyboard-response","131","124648","0.0-131.0","3WT783CTPC3WS6F18BUR4ANV291BCU","A2866TYG0D96LM","3BDORL6HKKZHMTYWD6BFF6WBDQ9CRF","","null","<img src=""img/land6.png"" style=""width:200px; border:14px solid green;"">","null","","","","","","","","","",""
"","image-keyboard-response","132","125139","0.0-132.0","3WT783CTPC3WS6F18BUR4ANV291BCU","A2866TYG0D96LM","3BDORL6HKKZHMTYWD6BFF6WBDQ9CRF","","490","img/land6.png","75","491","2","1","2","1","1,0.5,0.5,0.5,1,0.5,0.5,0.5,1","1,0.5,0.5,0.5,1,0.5,0.5,0.5,1","1","",""
"","html-keyboard-response","133","125451","0.0-133.0","3WT783CTPC3WS6F18BUR4ANV291BCU","A2866TYG0D96LM","3BDORL6HKKZHMTYWD6BFF6WBDQ9CRF","","null","<img src=""img/land6.png"" style=""width:200px; border:14px solid green;"">","null","","","","","","","","","",""
"","image-keyboard-response","134","125859","0.0-134.0","3WT783CTPC3WS6F18BUR4ANV291BCU","A2866TYG0D96LM","3BDORL6HKKZHMTYWD6BFF6WBDQ9CRF","","407","img/land6.png","75","408","2","1","2","1","1,0.5,0.5,0.5,1,0.5,0.5,0.5,1","1,0.5,0.5,0.5,1,0.5,0.5,0.5,1","1","",""
"","html-keyboard-response","135","126169","0.0-135.0","3WT783CTPC3WS6F18BUR4ANV291BCU","A2866TYG0D96LM","3BDORL6HKKZHMTYWD6BFF6WBDQ9CRF","","null","<img src=""img/land6.png"" style=""width:200px; border:14px solid green;"">","null","","","","","","","","","",""
"","image-keyboard-response","136","127547","0.0-136.0","3WT783CTPC3WS6F18BUR4ANV291BCU","A2866TYG0D96LM","3BDORL6HKKZHMTYWD6BFF6WBDQ9CRF","","1377","img/land4.png","74","1378","1","1","1","1","1,0.5,0.5,0.5,1,0.5,0.5,0.5,1","1,0.5,0.5,0.5,1,0.5,0.5,0.5,1","1","",""
"","html-keyboard-response","137","127859","0.0-137.0","3WT783CTPC3WS6F18BUR4ANV291BCU","A2866TYG0D96LM","3BDORL6HKKZHMTYWD6BFF6WBDQ9CRF","","null","<img src=""img/land4.png"" style=""width:200px; border:14px solid green;"">","null","","","","","","","","","",""
"","image-keyboard-response","138","128674","0.0-138.0","3WT783CTPC3WS6F18BUR4ANV291BCU","A2866TYG0D96LM","3BDORL6HKKZHMTYWD6BFF6WBDQ9CRF","","814","img/land2.png","76","815","3","1","3","1","1,0.5,0.5,0.5,1,0.5,0.5,0.5,1","1,0.5,0.5,0.5,1,0.5,0.5,0.5,1","1","",""
"","html-keyboard-response","139","128977","0.0-139.0","3WT783CTPC3WS6F18BUR4ANV291BCU","A2866TYG0D96LM","3BDORL6HKKZHMTYWD6BFF6WBDQ9CRF","","null","<img src=""img/land2.png"" style=""width:200px; border:14px solid green;"">","null","","","","","","","","","",""
"","image-keyboard-response","140","129411","0.0-140.0","3WT783CTPC3WS6F18BUR4ANV291BCU","A2866TYG0D96LM","3BDORL6HKKZHMTYWD6BFF6WBDQ9CRF","","432","img/land2.png","76","434","3","1","3","1","1,0.5,0.5,0.5,1,0.5,0.5,0.5,1","1,0.5,0.5,0.5,1,0.5,0.5,0.5,1","1","",""
"","html-keyboard-response","141","129727","0.0-141.0","3WT783CTPC3WS6F18BUR4ANV291BCU","A2866TYG0D96LM","3BDORL6HKKZHMTYWD6BFF6WBDQ9CRF","","null","<img src=""img/land2.png"" style=""width:200px; border:14px solid green;"">","null","","","","","","","","","",""
"","image-keyboard-response","142","131107","0.0-142.0","3WT783CTPC3WS6F18BUR4ANV291BCU","A2866TYG0D96LM","3BDORL6HKKZHMTYWD6BFF6WBDQ9CRF","","1380","img/land4.png","75","1380","2","0","1","1","1,0.5,0.5,0.5,1,0.5,0.5,0.5,1","1,0.5,0.5,0.5,1,0.5,0.5,0.5,1","1","",""
"","html-keyboard-response","143","131417","0.0-143.0","3WT783CTPC3WS6F18BUR4ANV291BCU","A2866TYG0D96LM","3BDORL6HKKZHMTYWD6BFF6WBDQ9CRF","","null","<img src=""img/land4.png"" style=""width:200px;border:14px solid red;"">","null","","","","","","","","","",""
"","image-keyboard-response","144","132259","0.0-144.0","3WT783CTPC3WS6F18BUR4ANV291BCU","A2866TYG0D96LM","3BDORL6HKKZHMTYWD6BFF6WBDQ9CRF","","841","img/land6.png","75","842","2","1","2","1","1,0.5,0.5,0.5,1,0.5,0.5,0.5,1","1,0.5,0.5,0.5,1,0.5,0.5,0.5,1","1","",""
"","html-keyboard-response","145","132573","0.0-145.0","3WT783CTPC3WS6F18BUR4ANV291BCU","A2866TYG0D96LM","3BDORL6HKKZHMTYWD6BFF6WBDQ9CRF","","null","<img src=""img/land6.png"" style=""width:200px; border:14px solid green;"">","null","","","","","","","","","",""
"","image-keyboard-response","146","133571","0.0-146.0","3WT783CTPC3WS6F18BUR4ANV291BCU","A2866TYG0D96LM","3BDORL6HKKZHMTYWD6BFF6WBDQ9CRF","","996","img/land4.png","74","998","1","1","1","1","1,0.5,0.5,0.5,1,0.5,0.5,0.5,1","1,0.5,0.5,0.5,1,0.5,0.5,0.5,1","1","",""
"","html-keyboard-response","147","133878","0.0-147.0","3WT783CTPC3WS6F18BUR4ANV291BCU","A2866TYG0D96LM","3BDORL6HKKZHMTYWD6BFF6WBDQ9CRF","","null","<img src=""img/land4.png"" style=""width:200px; border:14px solid green;"">","null","","","","","","","","","",""
"","image-keyboard-response","148","134612","0.0-148.0","3WT783CTPC3WS6F18BUR4ANV291BCU","A2866TYG0D96LM","3BDORL6HKKZHMTYWD6BFF6WBDQ9CRF","","733","img/land6.png","75","733","2","1","2","1","1,0.5,0.5,0.5,1,0.5,0.5,0.5,1","1,0.5,0.5,0.5,1,0.5,0.5,0.5,1","1","",""
"","html-keyboard-response","149","134928","0.0-149.0","3WT783CTPC3WS6F18BUR4ANV291BCU","A2866TYG0D96LM","3BDORL6HKKZHMTYWD6BFF6WBDQ9CRF","","null","<img src=""img/land6.png"" style=""width:200px; border:14px solid green;"">","null","","","","","","","","","",""
"","image-keyboard-response","150","135530","0.0-150.0","3WT783CTPC3WS6F18BUR4ANV291BCU","A2866TYG0D96LM","3BDORL6HKKZHMTYWD6BFF6WBDQ9CRF","","601","img/land4.png","74","602","1","1","1","1","1,0.5,0.5,0.5,1,0.5,0.5,0.5,1","1,0.5,0.5,0.5,1,0.5,0.5,0.5,1","1","",""
"","html-keyboard-response","151","135842","0.0-151.0","3WT783CTPC3WS6F18BUR4ANV291BCU","A2866TYG0D96LM","3BDORL6HKKZHMTYWD6BFF6WBDQ9CRF","","null","<img src=""img/land4.png"" style=""width:200px; border:14px solid green;"">","null","","","","","","","","","",""
"","image-keyboard-response","152","136673","0.0-152.0","3WT783CTPC3WS6F18BUR4ANV291BCU","A2866TYG0D96LM","3BDORL6HKKZHMTYWD6BFF6WBDQ9CRF","","830","img/land2.png","76","832","3","1","3","1","1,0.5,0.5,0.5,1,0.5,0.5,0.5,1","1,0.5,0.5,0.5,1,0.5,0.5,0.5,1","1","",""
"","html-keyboard-response","153","136995","0.0-153.0","3WT783CTPC3WS6F18BUR4ANV291BCU","A2866TYG0D96LM","3BDORL6HKKZHMTYWD6BFF6WBDQ9CRF","","null","<img src=""img/land2.png"" style=""width:200px; border:14px solid green;"">","null","","","","","","","","","",""
"","image-keyboard-response","154","137923","0.0-154.0","3WT783CTPC3WS6F18BUR4ANV291BCU","A2866TYG0D96LM","3BDORL6HKKZHMTYWD6BFF6WBDQ9CRF","","927","img/land6.png","75","928","2","1","2","1","1,0.5,0.5,0.5,1,0.5,0.5,0.5,1","1,0.5,0.5,0.5,1,0.5,0.5,0.5,1","1","",""
"","html-keyboard-response","155","138230","0.0-155.0","3WT783CTPC3WS6F18BUR4ANV291BCU","A2866TYG0D96LM","3BDORL6HKKZHMTYWD6BFF6WBDQ9CRF","","null","<img src=""img/land6.png"" style=""width:200px; border:14px solid green;"">","null","","","","","","","","","",""
"","image-keyboard-response","156","139404","0.0-156.0","3WT783CTPC3WS6F18BUR4ANV291BCU","A2866TYG0D96LM","3BDORL6HKKZHMTYWD6BFF6WBDQ9CRF","","1172","img/land2.png","76","1173","3","1","3","1","1,0.5,0.5,0.5,1,0.5,0.5,0.5,1","1,0.5,0.5,0.5,1,0.5,0.5,0.5,1","1","",""
"","html-keyboard-response","157","139719","0.0-157.0","3WT783CTPC3WS6F18BUR4ANV291BCU","A2866TYG0D96LM","3BDORL6HKKZHMTYWD6BFF6WBDQ9CRF","","null","<img src=""img/land2.png"" style=""width:200px; border:14px solid green;"">","null","","","","","","","","","",""
"","image-keyboard-response","158","140132","0.0-158.0","3WT783CTPC3WS6F18BUR4ANV291BCU","A2866TYG0D96LM","3BDORL6HKKZHMTYWD6BFF6WBDQ9CRF","","412","img/land2.png","76","413","3","1","3","1","1,0.5,0.5,0.5,1,0.5,0.5,0.5,1","1,0.5,0.5,0.5,1,0.5,0.5,0.5,1","1","",""
"","html-keyboard-response","159","140436","0.0-159.0","3WT783CTPC3WS6F18BUR4ANV291BCU","A2866TYG0D96LM","3BDORL6HKKZHMTYWD6BFF6WBDQ9CRF","","null","<img src=""img/land2.png"" style=""width:200px; border:14px solid green;"">","null","","","","","","","","","",""
"","image-keyboard-response","160","141364","0.0-160.0","3WT783CTPC3WS6F18BUR4ANV291BCU","A2866TYG0D96LM","3BDORL6HKKZHMTYWD6BFF6WBDQ9CRF","","926","img/land6.png","75","927","2","1","2","1","1,0.5,0.5,0.5,1,0.5,0.5,0.5,1","1,0.5,0.5,0.5,1,0.5,0.5,0.5,1","1","",""
"","html-keyboard-response","161","141671","0.0-161.0","3WT783CTPC3WS6F18BUR4ANV291BCU","A2866TYG0D96LM","3BDORL6HKKZHMTYWD6BFF6WBDQ9CRF","","null","<img src=""img/land6.png"" style=""width:200px; border:14px solid green;"">","null","","","","","","","","","",""
"","image-keyboard-response","162","142356","0.0-162.0","3WT783CTPC3WS6F18BUR4ANV291BCU","A2866TYG0D96LM","3BDORL6HKKZHMTYWD6BFF6WBDQ9CRF","","684","img/land2.png","76","684","3","1","3","1","1,0.5,0.5,0.5,1,0.5,0.5,0.5,1","1,0.5,0.5,0.5,1,0.5,0.5,0.5,1","1","",""
"","html-keyboard-response","163","142659","0.0-163.0","3WT783CTPC3WS6F18BUR4ANV291BCU","A2866TYG0D96LM","3BDORL6HKKZHMTYWD6BFF6WBDQ9CRF","","null","<img src=""img/land2.png"" style=""width:200px; border:14px solid green;"">","null","","","","","","","","","",""
"","image-keyboard-response","164","143043","0.0-164.0","3WT783CTPC3WS6F18BUR4ANV291BCU","A2866TYG0D96LM","3BDORL6HKKZHMTYWD6BFF6WBDQ9CRF","","384","img/land2.png","76","384","3","1","3","1","1,0.5,0.5,0.5,1,0.5,0.5,0.5,1","1,0.5,0.5,0.5,1,0.5,0.5,0.5,1","1","",""
"","html-keyboard-response","165","143346","0.0-165.0","3WT783CTPC3WS6F18BUR4ANV291BCU","A2866TYG0D96LM","3BDORL6HKKZHMTYWD6BFF6WBDQ9CRF","","null","<img src=""img/land2.png"" style=""width:200px; border:14px solid green;"">","null","","","","","","","","","",""
"","image-keyboard-response","166","144572","0.0-166.0","3WT783CTPC3WS6F18BUR4ANV291BCU","A2866TYG0D96LM","3BDORL6HKKZHMTYWD6BFF6WBDQ9CRF","","1224","img/land4.png","74","1225","1","1","1","1","1,0.5,0.5,0.5,1,0.5,0.5,0.5,1","1,0.5,0.5,0.5,1,0.5,0.5,0.5,1","1","",""
"","html-keyboard-response","167","144881","0.0-167.0","3WT783CTPC3WS6F18BUR4ANV291BCU","A2866TYG0D96LM","3BDORL6HKKZHMTYWD6BFF6WBDQ9CRF","","null","<img src=""img/land4.png"" style=""width:200px; border:14px solid green;"">","null","","","","","","","","","",""
"","image-keyboard-response","168","145636","0.0-168.0","3WT783CTPC3WS6F18BUR4ANV291BCU","A2866TYG0D96LM","3BDORL6HKKZHMTYWD6BFF6WBDQ9CRF","","752","img/land2.png","76","754","3","1","3","1","1,0.5,0.5,0.5,1,0.5,0.5,0.5,1","1,0.5,0.5,0.5,1,0.5,0.5,0.5,1","1","",""
"","html-keyboard-response","169","145938","0.0-169.0","3WT783CTPC3WS6F18BUR4ANV291BCU","A2866TYG0D96LM","3BDORL6HKKZHMTYWD6BFF6WBDQ9CRF","","null","<img src=""img/land2.png"" style=""width:200px; border:14px solid green;"">","null","","","","","","","","","",""
"","image-keyboard-response","170","147411","0.0-170.0","3WT783CTPC3WS6F18BUR4ANV291BCU","A2866TYG0D96LM","3BDORL6HKKZHMTYWD6BFF6WBDQ9CRF","","1472","img/land4.png","76","1472","3","0","1","1","1,0.5,0.5,0.5,1,0.5,0.5,0.5,1","1,0.5,0.5,0.5,1,0.5,0.5,0.5,1","1","",""
"","html-keyboard-response","171","147728","0.0-171.0","3WT783CTPC3WS6F18BUR4ANV291BCU","A2866TYG0D96LM","3BDORL6HKKZHMTYWD6BFF6WBDQ9CRF","","null","<img src=""img/land4.png"" style=""width:200px;border:14px solid red;"">","null","","","","","","","","","",""
"","image-keyboard-response","172","148731","0.0-172.0","3WT783CTPC3WS6F18BUR4ANV291BCU","A2866TYG0D96LM","3BDORL6HKKZHMTYWD6BFF6WBDQ9CRF","","1002","img/land2.png","76","1003","3","1","3","1","1,0.5,0.5,0.5,1,0.5,0.5,0.5,1","1,0.5,0.5,0.5,1,0.5,0.5,0.5,1","1","",""
"","html-keyboard-response","173","149048","0.0-173.0","3WT783CTPC3WS6F18BUR4ANV291BCU","A2866TYG0D96LM","3BDORL6HKKZHMTYWD6BFF6WBDQ9CRF","","null","<img src=""img/land2.png"" style=""width:200px; border:14px solid green;"">","null","","","","","","","","","",""
"","image-keyboard-response","174","149860","0.0-174.0","3WT783CTPC3WS6F18BUR4ANV291BCU","A2866TYG0D96LM","3BDORL6HKKZHMTYWD6BFF6WBDQ9CRF","","810","img/land6.png","75","811","2","1","2","1","1,0.5,0.5,0.5,1,0.5,0.5,0.5,1","1,0.5,0.5,0.5,1,0.5,0.5,0.5,1","1","",""
"","html-keyboard-response","175","150167","0.0-175.0","3WT783CTPC3WS6F18BUR4ANV291BCU","A2866TYG0D96LM","3BDORL6HKKZHMTYWD6BFF6WBDQ9CRF","","null","<img src=""img/land6.png"" style=""width:200px; border:14px solid green;"">","null","","","","","","","","","",""
"","image-keyboard-response","176","150649","0.0-176.0","3WT783CTPC3WS6F18BUR4ANV291BCU","A2866TYG0D96LM","3BDORL6HKKZHMTYWD6BFF6WBDQ9CRF","","482","img/land4.png","74","482","1","1","1","1","1,0.5,0.5,0.5,1,0.5,0.5,0.5,1","1,0.5,0.5,0.5,1,0.5,0.5,0.5,1","1","",""
"","html-keyboard-response","177","150954","0.0-177.0","3WT783CTPC3WS6F18BUR4ANV291BCU","A2866TYG0D96LM","3BDORL6HKKZHMTYWD6BFF6WBDQ9CRF","","null","<img src=""img/land4.png"" style=""width:200px; border:14px solid green;"">","null","","","","","","","","","",""
"","image-keyboard-response","178","152067","0.0-178.0","3WT783CTPC3WS6F18BUR4ANV291BCU","A2866TYG0D96LM","3BDORL6HKKZHMTYWD6BFF6WBDQ9CRF","","1111","img/land2.png","76","1114","3","1","3","1","1,0.5,0.5,0.5,1,0.5,0.5,0.5,1","1,0.5,0.5,0.5,1,0.5,0.5,0.5,1","1","",""
"","html-keyboard-response","179","152373","0.0-179.0","3WT783CTPC3WS6F18BUR4ANV291BCU","A2866TYG0D96LM","3BDORL6HKKZHMTYWD6BFF6WBDQ9CRF","","null","<img src=""img/land2.png"" style=""width:200px; border:14px solid green;"">","null","","","","","","","","","",""
"","image-keyboard-response","180","153091","0.0-180.0","3WT783CTPC3WS6F18BUR4ANV291BCU","A2866TYG0D96LM","3BDORL6HKKZHMTYWD6BFF6WBDQ9CRF","","716","img/land6.png","75","717","2","1","2","1","1,0.5,0.5,0.5,1,0.5,0.5,0.5,1","1,0.5,0.5,0.5,1,0.5,0.5,0.5,1","1","",""
"","html-keyboard-response","181","153393","0.0-181.0","3WT783CTPC3WS6F18BUR4ANV291BCU","A2866TYG0D96LM","3BDORL6HKKZHMTYWD6BFF6WBDQ9CRF","","null","<img src=""img/land6.png"" style=""width:200px; border:14px solid green;"">","null","","","","","","","","","",""
"","html-keyboard-response","182","156153","0.0-182.0","3WT783CTPC3WS6F18BUR4ANV291BCU","A2866TYG0D96LM","3BDORL6HKKZHMTYWD6BFF6WBDQ9CRF","","","","","","","","","","","","","",""
"","image-keyboard-response","183","157265","0.0-183.0","3WT783CTPC3WS6F18BUR4ANV291BCU","A2866TYG0D96LM","3BDORL6HKKZHMTYWD6BFF6WBDQ9CRF","","1111","img/land1.png","74","1112","1","1","1","2","1,0.5,0.5,0.5,1,0.5,0.5,0.5,1","0.5,1,0.5,0.5,0.5,1,1,0.5,0.5","3","",""
"","html-keyboard-response","184","157573","0.0-184.0","3WT783CTPC3WS6F18BUR4ANV291BCU","A2866TYG0D96LM","3BDORL6HKKZHMTYWD6BFF6WBDQ9CRF","","null","<img src=""img/land1.png"" style=""width:200px; border:14px solid green;"">","null","","","","","","","","","",""
"","image-keyboard-response","185","158097","0.0-185.0","3WT783CTPC3WS6F18BUR4ANV291BCU","A2866TYG0D96LM","3BDORL6HKKZHMTYWD6BFF6WBDQ9CRF","","525","img/land1.png","74","526","1","0","1","2","1,0.5,0.5,0.5,1,0.5,0.5,0.5,1","0.5,1,0.5,0.5,0.5,1,1,0.5,0.5","3","",""
"","html-keyboard-response","186","158407","0.0-186.0","3WT783CTPC3WS6F18BUR4ANV291BCU","A2866TYG0D96LM","3BDORL6HKKZHMTYWD6BFF6WBDQ9CRF","","null","<img src=""img/land1.png"" style=""width:200px;border:14px solid red;"">","null","","","","","","","","","",""
"","image-keyboard-response","187","159697","0.0-187.0","3WT783CTPC3WS6F18BUR4ANV291BCU","A2866TYG0D96LM","3BDORL6HKKZHMTYWD6BFF6WBDQ9CRF","","1291","img/land5.png","76","1291","3","1","3","2","1,0.5,0.5,0.5,1,0.5,0.5,0.5,1","0.5,1,0.5,0.5,0.5,1,1,0.5,0.5","3","",""
"","html-keyboard-response","188","160011","0.0-188.0","3WT783CTPC3WS6F18BUR4ANV291BCU","A2866TYG0D96LM","3BDORL6HKKZHMTYWD6BFF6WBDQ9CRF","","null","<img src=""img/land5.png"" style=""width:200px; border:14px solid green;"">","null","","","","","","","","","",""
"","image-keyboard-response","189","160874","0.0-189.0","3WT783CTPC3WS6F18BUR4ANV291BCU","A2866TYG0D96LM","3BDORL6HKKZHMTYWD6BFF6WBDQ9CRF","","863","img/land3.png","75","863","2","0","2","2","1,0.5,0.5,0.5,1,0.5,0.5,0.5,1","0.5,1,0.5,0.5,0.5,1,1,0.5,0.5","3","",""
"","html-keyboard-response","190","161183","0.0-190.0","3WT783CTPC3WS6F18BUR4ANV291BCU","A2866TYG0D96LM","3BDORL6HKKZHMTYWD6BFF6WBDQ9CRF","","null","<img src=""img/land3.png"" style=""width:200px;border:14px solid red;"">","null","","","","","","","","","",""
"","image-keyboard-response","191","162345","0.0-191.0","3WT783CTPC3WS6F18BUR4ANV291BCU","A2866TYG0D96LM","3BDORL6HKKZHMTYWD6BFF6WBDQ9CRF","","1162","img/land5.png","75","1162","2","1","3","2","1,0.5,0.5,0.5,1,0.5,0.5,0.5,1","0.5,1,0.5,0.5,0.5,1,1,0.5,0.5","3","",""
"","html-keyboard-response","192","162649","0.0-192.0","3WT783CTPC3WS6F18BUR4ANV291BCU","A2866TYG0D96LM","3BDORL6HKKZHMTYWD6BFF6WBDQ9CRF","","null","<img src=""img/land5.png"" style=""width:200px; border:14px solid green;"">","null","","","","","","","","","",""
"","image-keyboard-response","193","163738","0.0-193.0","3WT783CTPC3WS6F18BUR4ANV291BCU","A2866TYG0D96LM","3BDORL6HKKZHMTYWD6BFF6WBDQ9CRF","","1088","img/land1.png","76","1088","3","0","1","2","1,0.5,0.5,0.5,1,0.5,0.5,0.5,1","0.5,1,0.5,0.5,0.5,1,1,0.5,0.5","3","",""
"","html-keyboard-response","194","164053","0.0-194.0","3WT783CTPC3WS6F18BUR4ANV291BCU","A2866TYG0D96LM","3BDORL6HKKZHMTYWD6BFF6WBDQ9CRF","","null","<img src=""img/land1.png"" style=""width:200px;border:14px solid red;"">","null","","","","","","","","","",""
"","image-keyboard-response","195","164698","0.0-195.0","3WT783CTPC3WS6F18BUR4ANV291BCU","A2866TYG0D96LM","3BDORL6HKKZHMTYWD6BFF6WBDQ9CRF","","646","img/land1.png","74","646","1","1","1","2","1,0.5,0.5,0.5,1,0.5,0.5,0.5,1","0.5,1,0.5,0.5,0.5,1,1,0.5,0.5","3","",""
"","html-keyboard-response","196","165009","0.0-196.0","3WT783CTPC3WS6F18BUR4ANV291BCU","A2866TYG0D96LM","3BDORL6HKKZHMTYWD6BFF6WBDQ9CRF","","null","<img src=""img/land1.png"" style=""width:200px; border:14px solid green;"">","null","","","","","","","","","",""
"","image-keyboard-response","197","165563","0.0-197.0","3WT783CTPC3WS6F18BUR4ANV291BCU","A2866TYG0D96LM","3BDORL6HKKZHMTYWD6BFF6WBDQ9CRF","","554","img/land1.png","74","554","1","1","1","2","1,0.5,0.5,0.5,1,0.5,0.5,0.5,1","0.5,1,0.5,0.5,0.5,1,1,0.5,0.5","3","",""
"","html-keyboard-response","198","165881","0.0-198.0","3WT783CTPC3WS6F18BUR4ANV291BCU","A2866TYG0D96LM","3BDORL6HKKZHMTYWD6BFF6WBDQ9CRF","","null","<img src=""img/land1.png"" style=""width:200px; border:14px solid green;"">","null","","","","","","","","","",""
"","image-keyboard-response","199","166315","0.0-199.0","3WT783CTPC3WS6F18BUR4ANV291BCU","A2866TYG0D96LM","3BDORL6HKKZHMTYWD6BFF6WBDQ9CRF","","433","img/land1.png","74","435","1","0","1","2","1,0.5,0.5,0.5,1,0.5,0.5,0.5,1","0.5,1,0.5,0.5,0.5,1,1,0.5,0.5","3","",""
"","html-keyboard-response","200","166629","0.0-200.0","3WT783CTPC3WS6F18BUR4ANV291BCU","A2866TYG0D96LM","3BDORL6HKKZHMTYWD6BFF6WBDQ9CRF","","null","<img src=""img/land1.png"" style=""width:200px;border:14px solid red;"">","null","","","","","","","","","",""
"","image-keyboard-response","201","167835","0.0-201.0","3WT783CTPC3WS6F18BUR4ANV291BCU","A2866TYG0D96LM","3BDORL6HKKZHMTYWD6BFF6WBDQ9CRF","","1204","img/land5.png","75","1206","2","0","3","2","1,0.5,0.5,0.5,1,0.5,0.5,0.5,1","0.5,1,0.5,0.5,0.5,1,1,0.5,0.5","3","",""
"","html-keyboard-response","202","168150","0.0-202.0","3WT783CTPC3WS6F18BUR4ANV291BCU","A2866TYG0D96LM","3BDORL6HKKZHMTYWD6BFF6WBDQ9CRF","","null","<img src=""img/land5.png"" style=""width:200px;border:14px solid red;"">","null","","","","","","","","","",""
"","image-keyboard-response","203","169387","0.0-203.0","3WT783CTPC3WS6F18BUR4ANV291BCU","A2866TYG0D96LM","3BDORL6HKKZHMTYWD6BFF6WBDQ9CRF","","1236","img/land1.png","74","1236","1","1","1","2","1,0.5,0.5,0.5,1,0.5,0.5,0.5,1","0.5,1,0.5,0.5,0.5,1,1,0.5,0.5","3","",""
"","html-keyboard-response","204","169693","0.0-204.0","3WT783CTPC3WS6F18BUR4ANV291BCU","A2866TYG0D96LM","3BDORL6HKKZHMTYWD6BFF6WBDQ9CRF","","null","<img src=""img/land1.png"" style=""width:200px; border:14px solid green;"">","null","","","","","","","","","",""
"","image-keyboard-response","205","170059","0.0-205.0","3WT783CTPC3WS6F18BUR4ANV291BCU","A2866TYG0D96LM","3BDORL6HKKZHMTYWD6BFF6WBDQ9CRF","","365","img/land1.png","74","366","1","0","1","2","1,0.5,0.5,0.5,1,0.5,0.5,0.5,1","0.5,1,0.5,0.5,0.5,1,1,0.5,0.5","3","",""
"","html-keyboard-response","206","170373","0.0-206.0","3WT783CTPC3WS6F18BUR4ANV291BCU","A2866TYG0D96LM","3BDORL6HKKZHMTYWD6BFF6WBDQ9CRF","","null","<img src=""img/land1.png"" style=""width:200px;border:14px solid red;"">","null","","","","","","","","","",""
"","image-keyboard-response","207","171387","0.0-207.0","3WT783CTPC3WS6F18BUR4ANV291BCU","A2866TYG0D96LM","3BDORL6HKKZHMTYWD6BFF6WBDQ9CRF","","1013","img/land5.png","76","1014","3","1","3","2","1,0.5,0.5,0.5,1,0.5,0.5,0.5,1","0.5,1,0.5,0.5,0.5,1,1,0.5,0.5","3","",""
"","html-keyboard-response","208","171698","0.0-208.0","3WT783CTPC3WS6F18BUR4ANV291BCU","A2866TYG0D96LM","3BDORL6HKKZHMTYWD6BFF6WBDQ9CRF","","null","<img src=""img/land5.png"" style=""width:200px; border:14px solid green;"">","null","","","","","","","","","",""
"","image-keyboard-response","209","172875","0.0-209.0","3WT783CTPC3WS6F18BUR4ANV291BCU","A2866TYG0D96LM","3BDORL6HKKZHMTYWD6BFF6WBDQ9CRF","","1175","img/land3.png","75","1177","2","1","2","2","1,0.5,0.5,0.5,1,0.5,0.5,0.5,1","0.5,1,0.5,0.5,0.5,1,1,0.5,0.5","3","",""
"","html-keyboard-response","210","173181","0.0-210.0","3WT783CTPC3WS6F18BUR4ANV291BCU","A2866TYG0D96LM","3BDORL6HKKZHMTYWD6BFF6WBDQ9CRF","","null","<img src=""img/land3.png"" style=""width:200px; border:14px solid green;"">","null","","","","","","","","","",""
"","image-keyboard-response","211","174155","0.0-211.0","3WT783CTPC3WS6F18BUR4ANV291BCU","A2866TYG0D96LM","3BDORL6HKKZHMTYWD6BFF6WBDQ9CRF","","972","img/land5.png","76","973","3","0","3","2","1,0.5,0.5,0.5,1,0.5,0.5,0.5,1","0.5,1,0.5,0.5,0.5,1,1,0.5,0.5","3","",""
"","html-keyboard-response","212","174469","0.0-212.0","3WT783CTPC3WS6F18BUR4ANV291BCU","A2866TYG0D96LM","3BDORL6HKKZHMTYWD6BFF6WBDQ9CRF","","null","<img src=""img/land5.png"" style=""width:200px;border:14px solid red;"">","null","","","","","","","","","",""
"","image-keyboard-response","213","175587","0.0-213.0","3WT783CTPC3WS6F18BUR4ANV291BCU","A2866TYG0D96LM","3BDORL6HKKZHMTYWD6BFF6WBDQ9CRF","","1116","img/land1.png","76","1117","3","1","1","2","1,0.5,0.5,0.5,1,0.5,0.5,0.5,1","0.5,1,0.5,0.5,0.5,1,1,0.5,0.5","3","",""
"","html-keyboard-response","214","175890","0.0-214.0","3WT783CTPC3WS6F18BUR4ANV291BCU","A2866TYG0D96LM","3BDORL6HKKZHMTYWD6BFF6WBDQ9CRF","","null","<img src=""img/land1.png"" style=""width:200px; border:14px solid green;"">","null","","","","","","","","","",""
"","image-keyboard-response","215","176915","0.0-215.0","3WT783CTPC3WS6F18BUR4ANV291BCU","A2866TYG0D96LM","3BDORL6HKKZHMTYWD6BFF6WBDQ9CRF","","1024","img/land3.png","76","1025","3","1","2","2","1,0.5,0.5,0.5,1,0.5,0.5,0.5,1","0.5,1,0.5,0.5,0.5,1,1,0.5,0.5","3","",""
"","html-keyboard-response","216","177232","0.0-216.0","3WT783CTPC3WS6F18BUR4ANV291BCU","A2866TYG0D96LM","3BDORL6HKKZHMTYWD6BFF6WBDQ9CRF","","null","<img src=""img/land3.png"" style=""width:200px; border:14px solid green;"">","null","","","","","","","","","",""
"","image-keyboard-response","217","178500","0.0-217.0","3WT783CTPC3WS6F18BUR4ANV291BCU","A2866TYG0D96LM","3BDORL6HKKZHMTYWD6BFF6WBDQ9CRF","","1266","img/land1.png","75","1268","2","1","1","2","1,0.5,0.5,0.5,1,0.5,0.5,0.5,1","0.5,1,0.5,0.5,0.5,1,1,0.5,0.5","3","",""
"","html-keyboard-response","218","178821","0.0-218.0","3WT783CTPC3WS6F18BUR4ANV291BCU","A2866TYG0D96LM","3BDORL6HKKZHMTYWD6BFF6WBDQ9CRF","","null","<img src=""img/land1.png"" style=""width:200px; border:14px solid green;"">","null","","","","","","","","","",""
"","image-keyboard-response","219","179307","0.0-219.0","3WT783CTPC3WS6F18BUR4ANV291BCU","A2866TYG0D96LM","3BDORL6HKKZHMTYWD6BFF6WBDQ9CRF","","485","img/land1.png","75","486","2","1","1","2","1,0.5,0.5,0.5,1,0.5,0.5,0.5,1","0.5,1,0.5,0.5,0.5,1,1,0.5,0.5","3","",""
"","html-keyboard-response","220","179623","0.0-220.0","3WT783CTPC3WS6F18BUR4ANV291BCU","A2866TYG0D96LM","3BDORL6HKKZHMTYWD6BFF6WBDQ9CRF","","null","<img src=""img/land1.png"" style=""width:200px; border:14px solid green;"">","null","","","","","","","","","",""
"","image-keyboard-response","221","180003","0.0-221.0","3WT783CTPC3WS6F18BUR4ANV291BCU","A2866TYG0D96LM","3BDORL6HKKZHMTYWD6BFF6WBDQ9CRF","","379","img/land1.png","75","380","2","1","1","2","1,0.5,0.5,0.5,1,0.5,0.5,0.5,1","0.5,1,0.5,0.5,0.5,1,1,0.5,0.5","3","",""
"","html-keyboard-response","222","180325","0.0-222.0","3WT783CTPC3WS6F18BUR4ANV291BCU","A2866TYG0D96LM","3BDORL6HKKZHMTYWD6BFF6WBDQ9CRF","","null","<img src=""img/land1.png"" style=""width:200px; border:14px solid green;"">","null","","","","","","","","","",""
"","image-keyboard-response","223","181211","0.0-223.0","3WT783CTPC3WS6F18BUR4ANV291BCU","A2866TYG0D96LM","3BDORL6HKKZHMTYWD6BFF6WBDQ9CRF","","884","img/land3.png","76","885","3","1","2","2","1,0.5,0.5,0.5,1,0.5,0.5,0.5,1","0.5,1,0.5,0.5,0.5,1,1,0.5,0.5","3","",""
"","html-keyboard-response","224","181529","0.0-224.0","3WT783CTPC3WS6F18BUR4ANV291BCU","A2866TYG0D96LM","3BDORL6HKKZHMTYWD6BFF6WBDQ9CRF","","null","<img src=""img/land3.png"" style=""width:200px; border:14px solid green;"">","null","","","","","","","","","",""
"","image-keyboard-response","225","182371","0.0-225.0","3WT783CTPC3WS6F18BUR4ANV291BCU","A2866TYG0D96LM","3BDORL6HKKZHMTYWD6BFF6WBDQ9CRF","","840","img/land1.png","75","842","2","1","1","2","1,0.5,0.5,0.5,1,0.5,0.5,0.5,1","0.5,1,0.5,0.5,0.5,1,1,0.5,0.5","3","",""
"","html-keyboard-response","226","182679","0.0-226.0","3WT783CTPC3WS6F18BUR4ANV291BCU","A2866TYG0D96LM","3BDORL6HKKZHMTYWD6BFF6WBDQ9CRF","","null","<img src=""img/land1.png"" style=""width:200px; border:14px solid green;"">","null","","","","","","","","","",""
"","image-keyboard-response","227","183444","0.0-227.0","3WT783CTPC3WS6F18BUR4ANV291BCU","A2866TYG0D96LM","3BDORL6HKKZHMTYWD6BFF6WBDQ9CRF","","763","img/land3.png","76","764","3","1","2","2","1,0.5,0.5,0.5,1,0.5,0.5,0.5,1","0.5,1,0.5,0.5,0.5,1,1,0.5,0.5","3","",""
"","html-keyboard-response","228","183752","0.0-228.0","3WT783CTPC3WS6F18BUR4ANV291BCU","A2866TYG0D96LM","3BDORL6HKKZHMTYWD6BFF6WBDQ9CRF","","null","<img src=""img/land3.png"" style=""width:200px; border:14px solid green;"">","null","","","","","","","","","",""
"","image-keyboard-response","229","184523","0.0-229.0","3WT783CTPC3WS6F18BUR4ANV291BCU","A2866TYG0D96LM","3BDORL6HKKZHMTYWD6BFF6WBDQ9CRF","","770","img/land5.png","74","772","1","1","3","2","1,0.5,0.5,0.5,1,0.5,0.5,0.5,1","0.5,1,0.5,0.5,0.5,1,1,0.5,0.5","3","",""
"","html-keyboard-response","230","184840","0.0-230.0","3WT783CTPC3WS6F18BUR4ANV291BCU","A2866TYG0D96LM","3BDORL6HKKZHMTYWD6BFF6WBDQ9CRF","","null","<img src=""img/land5.png"" style=""width:200px; border:14px solid green;"">","null","","","","","","","","","",""
"","image-keyboard-response","231","186483","0.0-231.0","3WT783CTPC3WS6F18BUR4ANV291BCU","A2866TYG0D96LM","3BDORL6HKKZHMTYWD6BFF6WBDQ9CRF","","1642","img/land1.png","76","1644","3","1","1","2","1,0.5,0.5,0.5,1,0.5,0.5,0.5,1","0.5,1,0.5,0.5,0.5,1,1,0.5,0.5","3","",""
"","html-keyboard-response","232","186792","0.0-232.0","3WT783CTPC3WS6F18BUR4ANV291BCU","A2866TYG0D96LM","3BDORL6HKKZHMTYWD6BFF6WBDQ9CRF","","null","<img src=""img/land1.png"" style=""width:200px; border:14px solid green;"">","null","","","","","","","","","",""
"","image-keyboard-response","233","187227","0.0-233.0","3WT783CTPC3WS6F18BUR4ANV291BCU","A2866TYG0D96LM","3BDORL6HKKZHMTYWD6BFF6WBDQ9CRF","","433","img/land1.png","76","434","3","1","1","2","1,0.5,0.5,0.5,1,0.5,0.5,0.5,1","0.5,1,0.5,0.5,0.5,1,1,0.5,0.5","3","",""
"","html-keyboard-response","234","187548","0.0-234.0","3WT783CTPC3WS6F18BUR4ANV291BCU","A2866TYG0D96LM","3BDORL6HKKZHMTYWD6BFF6WBDQ9CRF","","null","<img src=""img/land1.png"" style=""width:200px; border:14px solid green;"">","null","","","","","","","","","",""
"","image-keyboard-response","235","187907","0.0-235.0","3WT783CTPC3WS6F18BUR4ANV291BCU","A2866TYG0D96LM","3BDORL6HKKZHMTYWD6BFF6WBDQ9CRF","","358","img/land1.png","76","359","3","1","1","2","1,0.5,0.5,0.5,1,0.5,0.5,0.5,1","0.5,1,0.5,0.5,0.5,1,1,0.5,0.5","3","",""
"","html-keyboard-response","236","188212","0.0-236.0","3WT783CTPC3WS6F18BUR4ANV291BCU","A2866TYG0D96LM","3BDORL6HKKZHMTYWD6BFF6WBDQ9CRF","","null","<img src=""img/land1.png"" style=""width:200px; border:14px solid green;"">","null","","","","","","","","","",""
"","image-keyboard-response","237","188587","0.0-237.0","3WT783CTPC3WS6F18BUR4ANV291BCU","A2866TYG0D96LM","3BDORL6HKKZHMTYWD6BFF6WBDQ9CRF","","373","img/land1.png","76","375","3","1","1","2","1,0.5,0.5,0.5,1,0.5,0.5,0.5,1","0.5,1,0.5,0.5,0.5,1,1,0.5,0.5","3","",""
"","html-keyboard-response","238","188899","0.0-238.0","3WT783CTPC3WS6F18BUR4ANV291BCU","A2866TYG0D96LM","3BDORL6HKKZHMTYWD6BFF6WBDQ9CRF","","null","<img src=""img/land1.png"" style=""width:200px; border:14px solid green;"">","null","","","","","","","","","",""
"","image-keyboard-response","239","189292","0.0-239.0","3WT783CTPC3WS6F18BUR4ANV291BCU","A2866TYG0D96LM","3BDORL6HKKZHMTYWD6BFF6WBDQ9CRF","","390","img/land1.png","76","393","3","1","1","2","1,0.5,0.5,0.5,1,0.5,0.5,0.5,1","0.5,1,0.5,0.5,0.5,1,1,0.5,0.5","3","",""
"","html-keyboard-response","240","189601","0.0-240.0","3WT783CTPC3WS6F18BUR4ANV291BCU","A2866TYG0D96LM","3BDORL6HKKZHMTYWD6BFF6WBDQ9CRF","","null","<img src=""img/land1.png"" style=""width:200px; border:14px solid green;"">","null","","","","","","","","","",""
"","image-keyboard-response","241","190419","0.0-241.0","3WT783CTPC3WS6F18BUR4ANV291BCU","A2866TYG0D96LM","3BDORL6HKKZHMTYWD6BFF6WBDQ9CRF","","818","img/land3.png","75","818","2","1","2","2","1,0.5,0.5,0.5,1,0.5,0.5,0.5,1","0.5,1,0.5,0.5,0.5,1,1,0.5,0.5","3","",""
"","html-keyboard-response","242","190735","0.0-242.0","3WT783CTPC3WS6F18BUR4ANV291BCU","A2866TYG0D96LM","3BDORL6HKKZHMTYWD6BFF6WBDQ9CRF","","null","<img src=""img/land3.png"" style=""width:200px; border:14px solid green;"">","null","","","","","","","","","",""
"","image-keyboard-response","243","191657","0.0-243.0","3WT783CTPC3WS6F18BUR4ANV291BCU","A2866TYG0D96LM","3BDORL6HKKZHMTYWD6BFF6WBDQ9CRF","","921","img/land1.png","74","921","1","1","1","2","1,0.5,0.5,0.5,1,0.5,0.5,0.5,1","0.5,1,0.5,0.5,0.5,1,1,0.5,0.5","3","",""
"","html-keyboard-response","244","191962","0.0-244.0","3WT783CTPC3WS6F18BUR4ANV291BCU","A2866TYG0D96LM","3BDORL6HKKZHMTYWD6BFF6WBDQ9CRF","","null","<img src=""img/land1.png"" style=""width:200px; border:14px solid green;"">","null","","","","","","","","","",""
"","image-keyboard-response","245","192355","0.0-245.0","3WT783CTPC3WS6F18BUR4ANV291BCU","A2866TYG0D96LM","3BDORL6HKKZHMTYWD6BFF6WBDQ9CRF","","393","img/land1.png","74","394","1","1","1","2","1,0.5,0.5,0.5,1,0.5,0.5,0.5,1","0.5,1,0.5,0.5,0.5,1,1,0.5,0.5","3","",""
"","html-keyboard-response","246","192663","0.0-246.0","3WT783CTPC3WS6F18BUR4ANV291BCU","A2866TYG0D96LM","3BDORL6HKKZHMTYWD6BFF6WBDQ9CRF","","null","<img src=""img/land1.png"" style=""width:200px; border:14px solid green;"">","null","","","","","","","","","",""
"","image-keyboard-response","247","193747","0.0-247.0","3WT783CTPC3WS6F18BUR4ANV291BCU","A2866TYG0D96LM","3BDORL6HKKZHMTYWD6BFF6WBDQ9CRF","","1082","img/land3.png","76","1084","3","1","2","2","1,0.5,0.5,0.5,1,0.5,0.5,0.5,1","0.5,1,0.5,0.5,0.5,1,1,0.5,0.5","3","",""
"","html-keyboard-response","248","194068","0.0-248.0","3WT783CTPC3WS6F18BUR4ANV291BCU","A2866TYG0D96LM","3BDORL6HKKZHMTYWD6BFF6WBDQ9CRF","","null","<img src=""img/land3.png"" style=""width:200px; border:14px solid green;"">","null","","","","","","","","","",""
"","image-keyboard-response","249","194419","0.0-249.0","3WT783CTPC3WS6F18BUR4ANV291BCU","A2866TYG0D96LM","3BDORL6HKKZHMTYWD6BFF6WBDQ9CRF","","350","img/land3.png","76","351","3","1","2","2","1,0.5,0.5,0.5,1,0.5,0.5,0.5,1","0.5,1,0.5,0.5,0.5,1,1,0.5,0.5","3","",""
"","html-keyboard-response","250","194733","0.0-250.0","3WT783CTPC3WS6F18BUR4ANV291BCU","A2866TYG0D96LM","3BDORL6HKKZHMTYWD6BFF6WBDQ9CRF","","null","<img src=""img/land3.png"" style=""width:200px; border:14px solid green;"">","null","","","","","","","","","",""
"","image-keyboard-response","251","195890","0.0-251.0","3WT783CTPC3WS6F18BUR4ANV291BCU","A2866TYG0D96LM","3BDORL6HKKZHMTYWD6BFF6WBDQ9CRF","","1155","img/land5.png","75","1157","2","1","3","2","1,0.5,0.5,0.5,1,0.5,0.5,0.5,1","0.5,1,0.5,0.5,0.5,1,1,0.5,0.5","3","",""
"","html-keyboard-response","252","196194","0.0-252.0","3WT783CTPC3WS6F18BUR4ANV291BCU","A2866TYG0D96LM","3BDORL6HKKZHMTYWD6BFF6WBDQ9CRF","","null","<img src=""img/land5.png"" style=""width:200px; border:14px solid green;"">","null","","","","","","","","","",""
"","image-keyboard-response","253","196588","0.0-253.0","3WT783CTPC3WS6F18BUR4ANV291BCU","A2866TYG0D96LM","3BDORL6HKKZHMTYWD6BFF6WBDQ9CRF","","392","img/land5.png","75","393","2","0","3","2","1,0.5,0.5,0.5,1,0.5,0.5,0.5,1","0.5,1,0.5,0.5,0.5,1,1,0.5,0.5","3","",""
"","html-keyboard-response","254","196896","0.0-254.0","3WT783CTPC3WS6F18BUR4ANV291BCU","A2866TYG0D96LM","3BDORL6HKKZHMTYWD6BFF6WBDQ9CRF","","null","<img src=""img/land5.png"" style=""width:200px;border:14px solid red;"">","null","","","","","","","","","",""
"","image-keyboard-response","255","197499","0.0-255.0","3WT783CTPC3WS6F18BUR4ANV291BCU","A2866TYG0D96LM","3BDORL6HKKZHMTYWD6BFF6WBDQ9CRF","","602","img/land5.png","75","603","2","0","3","2","1,0.5,0.5,0.5,1,0.5,0.5,0.5,1","0.5,1,0.5,0.5,0.5,1,1,0.5,0.5","3","",""
"","html-keyboard-response","256","197821","0.0-256.0","3WT783CTPC3WS6F18BUR4ANV291BCU","A2866TYG0D96LM","3BDORL6HKKZHMTYWD6BFF6WBDQ9CRF","","null","<img src=""img/land5.png"" style=""width:200px;border:14px solid red;"">","null","","","","","","","","","",""
"","image-keyboard-response","257","199059","0.0-257.0","3WT783CTPC3WS6F18BUR4ANV291BCU","A2866TYG0D96LM","3BDORL6HKKZHMTYWD6BFF6WBDQ9CRF","","1237","img/land1.png","75","1238","2","1","1","2","1,0.5,0.5,0.5,1,0.5,0.5,0.5,1","0.5,1,0.5,0.5,0.5,1,1,0.5,0.5","3","",""
"","html-keyboard-response","258","199372","0.0-258.0","3WT783CTPC3WS6F18BUR4ANV291BCU","A2866TYG0D96LM","3BDORL6HKKZHMTYWD6BFF6WBDQ9CRF","","null","<img src=""img/land1.png"" style=""width:200px; border:14px solid green;"">","null","","","","","","","","","",""
"","image-keyboard-response","259","199763","0.0-259.0","3WT783CTPC3WS6F18BUR4ANV291BCU","A2866TYG0D96LM","3BDORL6HKKZHMTYWD6BFF6WBDQ9CRF","","389","img/land1.png","75","390","2","1","1","2","1,0.5,0.5,0.5,1,0.5,0.5,0.5,1","0.5,1,0.5,0.5,0.5,1,1,0.5,0.5","3","",""
"","html-keyboard-response","260","200075","0.0-260.0","3WT783CTPC3WS6F18BUR4ANV291BCU","A2866TYG0D96LM","3BDORL6HKKZHMTYWD6BFF6WBDQ9CRF","","null","<img src=""img/land1.png"" style=""width:200px; border:14px solid green;"">","null","","","","","","","","","",""
"","image-keyboard-response","261","200681","0.0-261.0","3WT783CTPC3WS6F18BUR4ANV291BCU","A2866TYG0D96LM","3BDORL6HKKZHMTYWD6BFF6WBDQ9CRF","","606","img/land1.png","75","607","2","1","1","2","1,0.5,0.5,0.5,1,0.5,0.5,0.5,1","0.5,1,0.5,0.5,0.5,1,1,0.5,0.5","3","",""
"","html-keyboard-response","262","200993","0.0-262.0","3WT783CTPC3WS6F18BUR4ANV291BCU","A2866TYG0D96LM","3BDORL6HKKZHMTYWD6BFF6WBDQ9CRF","","null","<img src=""img/land1.png"" style=""width:200px; border:14px solid green;"">","null","","","","","","","","","",""
"","image-keyboard-response","263","201411","0.0-263.0","3WT783CTPC3WS6F18BUR4ANV291BCU","A2866TYG0D96LM","3BDORL6HKKZHMTYWD6BFF6WBDQ9CRF","","417","img/land1.png","75","418","2","1","1","2","1,0.5,0.5,0.5,1,0.5,0.5,0.5,1","0.5,1,0.5,0.5,0.5,1,1,0.5,0.5","3","",""
"","html-keyboard-response","264","201733","0.0-264.0","3WT783CTPC3WS6F18BUR4ANV291BCU","A2866TYG0D96LM","3BDORL6HKKZHMTYWD6BFF6WBDQ9CRF","","null","<img src=""img/land1.png"" style=""width:200px; border:14px solid green;"">","null","","","","","","","","","",""
"","image-keyboard-response","265","202795","0.0-265.0","3WT783CTPC3WS6F18BUR4ANV291BCU","A2866TYG0D96LM","3BDORL6HKKZHMTYWD6BFF6WBDQ9CRF","","1060","img/land3.png","76","1061","3","1","2","2","1,0.5,0.5,0.5,1,0.5,0.5,0.5,1","0.5,1,0.5,0.5,0.5,1,1,0.5,0.5","3","",""
"","html-keyboard-response","266","203099","0.0-266.0","3WT783CTPC3WS6F18BUR4ANV291BCU","A2866TYG0D96LM","3BDORL6HKKZHMTYWD6BFF6WBDQ9CRF","","null","<img src=""img/land3.png"" style=""width:200px; border:14px solid green;"">","null","","","","","","","","","",""
"","image-keyboard-response","267","204059","0.0-267.0","3WT783CTPC3WS6F18BUR4ANV291BCU","A2866TYG0D96LM","3BDORL6HKKZHMTYWD6BFF6WBDQ9CRF","","958","img/land1.png","75","960","2","1","1","2","1,0.5,0.5,0.5,1,0.5,0.5,0.5,1","0.5,1,0.5,0.5,0.5,1,1,0.5,0.5","3","",""
"","html-keyboard-response","268","204372","0.0-268.0","3WT783CTPC3WS6F18BUR4ANV291BCU","A2866TYG0D96LM","3BDORL6HKKZHMTYWD6BFF6WBDQ9CRF","","null","<img src=""img/land1.png"" style=""width:200px; border:14px solid green;"">","null","","","","","","","","","",""
"","image-keyboard-response","269","205027","0.0-269.0","3WT783CTPC3WS6F18BUR4ANV291BCU","A2866TYG0D96LM","3BDORL6HKKZHMTYWD6BFF6WBDQ9CRF","","653","img/land5.png","74","655","1","1","3","2","1,0.5,0.5,0.5,1,0.5,0.5,0.5,1","0.5,1,0.5,0.5,0.5,1,1,0.5,0.5","3","",""
"","html-keyboard-response","270","205344","0.0-270.0","3WT783CTPC3WS6F18BUR4ANV291BCU","A2866TYG0D96LM","3BDORL6HKKZHMTYWD6BFF6WBDQ9CRF","","null","<img src=""img/land5.png"" style=""width:200px; border:14px solid green;"">","null","","","","","","","","","",""
"","image-keyboard-response","271","205682","0.0-271.0","3WT783CTPC3WS6F18BUR4ANV291BCU","A2866TYG0D96LM","3BDORL6HKKZHMTYWD6BFF6WBDQ9CRF","","336","img/land5.png","74","338","1","1","3","2","1,0.5,0.5,0.5,1,0.5,0.5,0.5,1","0.5,1,0.5,0.5,0.5,1,1,0.5,0.5","3","",""
"","html-keyboard-response","272","205993","0.0-272.0","3WT783CTPC3WS6F18BUR4ANV291BCU","A2866TYG0D96LM","3BDORL6HKKZHMTYWD6BFF6WBDQ9CRF","","null","<img src=""img/land5.png"" style=""width:200px; border:14px solid green;"">","null","","","","","","","","","",""
"","image-keyboard-response","273","206891","0.0-273.0","3WT783CTPC3WS6F18BUR4ANV291BCU","A2866TYG0D96LM","3BDORL6HKKZHMTYWD6BFF6WBDQ9CRF","","896","img/land1.png","75","898","2","1","1","2","1,0.5,0.5,0.5,1,0.5,0.5,0.5,1","0.5,1,0.5,0.5,0.5,1,1,0.5,0.5","3","",""
"","html-keyboard-response","274","207197","0.0-274.0","3WT783CTPC3WS6F18BUR4ANV291BCU","A2866TYG0D96LM","3BDORL6HKKZHMTYWD6BFF6WBDQ9CRF","","null","<img src=""img/land1.png"" style=""width:200px; border:14px solid green;"">","null","","","","","","","","","",""
"","image-keyboard-response","275","207603","0.0-275.0","3WT783CTPC3WS6F18BUR4ANV291BCU","A2866TYG0D96LM","3BDORL6HKKZHMTYWD6BFF6WBDQ9CRF","","404","img/land1.png","75","406","2","1","1","2","1,0.5,0.5,0.5,1,0.5,0.5,0.5,1","0.5,1,0.5,0.5,0.5,1,1,0.5,0.5","3","",""
"","html-keyboard-response","276","207914","0.0-276.0","3WT783CTPC3WS6F18BUR4ANV291BCU","A2866TYG0D96LM","3BDORL6HKKZHMTYWD6BFF6WBDQ9CRF","","null","<img src=""img/land1.png"" style=""width:200px; border:14px solid green;"">","null","","","","","","","","","",""
"","image-keyboard-response","277","208348","0.0-277.0","3WT783CTPC3WS6F18BUR4ANV291BCU","A2866TYG0D96LM","3BDORL6HKKZHMTYWD6BFF6WBDQ9CRF","","431","img/land1.png","75","432","2","1","1","2","1,0.5,0.5,0.5,1,0.5,0.5,0.5,1","0.5,1,0.5,0.5,0.5,1,1,0.5,0.5","3","",""
"","html-keyboard-response","278","208655","0.0-278.0","3WT783CTPC3WS6F18BUR4ANV291BCU","A2866TYG0D96LM","3BDORL6HKKZHMTYWD6BFF6WBDQ9CRF","","null","<img src=""img/land1.png"" style=""width:200px; border:14px solid green;"">","null","","","","","","","","","",""
"","image-keyboard-response","279","209059","0.0-279.0","3WT783CTPC3WS6F18BUR4ANV291BCU","A2866TYG0D96LM","3BDORL6HKKZHMTYWD6BFF6WBDQ9CRF","","403","img/land1.png","75","405","2","1","1","2","1,0.5,0.5,0.5,1,0.5,0.5,0.5,1","0.5,1,0.5,0.5,0.5,1,1,0.5,0.5","3","",""
"","html-keyboard-response","280","209373","0.0-280.0","3WT783CTPC3WS6F18BUR4ANV291BCU","A2866TYG0D96LM","3BDORL6HKKZHMTYWD6BFF6WBDQ9CRF","","null","<img src=""img/land1.png"" style=""width:200px; border:14px solid green;"">","null","","","","","","","","","",""
"","image-keyboard-response","281","210459","0.0-281.0","3WT783CTPC3WS6F18BUR4ANV291BCU","A2866TYG0D96LM","3BDORL6HKKZHMTYWD6BFF6WBDQ9CRF","","1085","img/land5.png","76","1086","3","1","3","2","1,0.5,0.5,0.5,1,0.5,0.5,0.5,1","0.5,1,0.5,0.5,0.5,1,1,0.5,0.5","3","",""
"","html-keyboard-response","282","210762","0.0-282.0","3WT783CTPC3WS6F18BUR4ANV291BCU","A2866TYG0D96LM","3BDORL6HKKZHMTYWD6BFF6WBDQ9CRF","","null","<img src=""img/land5.png"" style=""width:200px; border:14px solid green;"">","null","","","","","","","","","",""
"","image-keyboard-response","283","211739","0.0-283.0","3WT783CTPC3WS6F18BUR4ANV291BCU","A2866TYG0D96LM","3BDORL6HKKZHMTYWD6BFF6WBDQ9CRF","","976","img/land1.png","75","977","2","1","1","2","1,0.5,0.5,0.5,1,0.5,0.5,0.5,1","0.5,1,0.5,0.5,0.5,1,1,0.5,0.5","3","",""
"","html-keyboard-response","284","212043","0.0-284.0","3WT783CTPC3WS6F18BUR4ANV291BCU","A2866TYG0D96LM","3BDORL6HKKZHMTYWD6BFF6WBDQ9CRF","","null","<img src=""img/land1.png"" style=""width:200px; border:14px solid green;"">","null","","","","","","","","","",""
"","image-keyboard-response","285","212355","0.0-285.0","3WT783CTPC3WS6F18BUR4ANV291BCU","A2866TYG0D96LM","3BDORL6HKKZHMTYWD6BFF6WBDQ9CRF","","311","img/land1.png","75","312","2","1","1","2","1,0.5,0.5,0.5,1,0.5,0.5,0.5,1","0.5,1,0.5,0.5,0.5,1,1,0.5,0.5","3","",""
"","html-keyboard-response","286","212668","0.0-286.0","3WT783CTPC3WS6F18BUR4ANV291BCU","A2866TYG0D96LM","3BDORL6HKKZHMTYWD6BFF6WBDQ9CRF","","null","<img src=""img/land1.png"" style=""width:200px; border:14px solid green;"">","null","","","","","","","","","",""
"","image-keyboard-response","287","213891","0.0-287.0","3WT783CTPC3WS6F18BUR4ANV291BCU","A2866TYG0D96LM","3BDORL6HKKZHMTYWD6BFF6WBDQ9CRF","","1223","img/land5.png","76","1224","3","1","3","2","1,0.5,0.5,0.5,1,0.5,0.5,0.5,1","0.5,1,0.5,0.5,0.5,1,1,0.5,0.5","3","",""
"","html-keyboard-response","288","214204","0.0-288.0","3WT783CTPC3WS6F18BUR4ANV291BCU","A2866TYG0D96LM","3BDORL6HKKZHMTYWD6BFF6WBDQ9CRF","","null","<img src=""img/land5.png"" style=""width:200px; border:14px solid green;"">","null","","","","","","","","","",""
"","image-keyboard-response","289","215019","0.0-289.0","3WT783CTPC3WS6F18BUR4ANV291BCU","A2866TYG0D96LM","3BDORL6HKKZHMTYWD6BFF6WBDQ9CRF","","816","img/land1.png","75","816","2","1","1","2","1,0.5,0.5,0.5,1,0.5,0.5,0.5,1","0.5,1,0.5,0.5,0.5,1,1,0.5,0.5","3","",""
"","html-keyboard-response","290","215322","0.0-290.0","3WT783CTPC3WS6F18BUR4ANV291BCU","A2866TYG0D96LM","3BDORL6HKKZHMTYWD6BFF6WBDQ9CRF","","null","<img src=""img/land1.png"" style=""width:200px; border:14px solid green;"">","null","","","","","","","","","",""
"","image-keyboard-response","291","216265","0.0-291.0","3WT783CTPC3WS6F18BUR4ANV291BCU","A2866TYG0D96LM","3BDORL6HKKZHMTYWD6BFF6WBDQ9CRF","","942","img/land3.png","76","943","3","1","2","2","1,0.5,0.5,0.5,1,0.5,0.5,0.5,1","0.5,1,0.5,0.5,0.5,1,1,0.5,0.5","3","",""
"","html-keyboard-response","292","216579","0.0-292.0","3WT783CTPC3WS6F18BUR4ANV291BCU","A2866TYG0D96LM","3BDORL6HKKZHMTYWD6BFF6WBDQ9CRF","","null","<img src=""img/land3.png"" style=""width:200px; border:14px solid green;"">","null","","","","","","","","","",""
"","image-keyboard-response","293","217713","0.0-293.0","3WT783CTPC3WS6F18BUR4ANV291BCU","A2866TYG0D96LM","3BDORL6HKKZHMTYWD6BFF6WBDQ9CRF","","1134","img/land1.png","75","1135","2","1","1","2","1,0.5,0.5,0.5,1,0.5,0.5,0.5,1","0.5,1,0.5,0.5,0.5,1,1,0.5,0.5","3","",""
"","html-keyboard-response","294","218030","0.0-294.0","3WT783CTPC3WS6F18BUR4ANV291BCU","A2866TYG0D96LM","3BDORL6HKKZHMTYWD6BFF6WBDQ9CRF","","null","<img src=""img/land1.png"" style=""width:200px; border:14px solid green;"">","null","","","","","","","","","",""
"","image-keyboard-response","295","218370","0.0-295.0","3WT783CTPC3WS6F18BUR4ANV291BCU","A2866TYG0D96LM","3BDORL6HKKZHMTYWD6BFF6WBDQ9CRF","","341","img/land1.png","75","341","2","1","1","2","1,0.5,0.5,0.5,1,0.5,0.5,0.5,1","0.5,1,0.5,0.5,0.5,1,1,0.5,0.5","3","",""
"","html-keyboard-response","296","218684","0.0-296.0","3WT783CTPC3WS6F18BUR4ANV291BCU","A2866TYG0D96LM","3BDORL6HKKZHMTYWD6BFF6WBDQ9CRF","","null","<img src=""img/land1.png"" style=""width:200px; border:14px solid green;"">","null","","","","","","","","","",""
"","image-keyboard-response","297","219002","0.0-297.0","3WT783CTPC3WS6F18BUR4ANV291BCU","A2866TYG0D96LM","3BDORL6HKKZHMTYWD6BFF6WBDQ9CRF","","317","img/land1.png","75","318","2","1","1","2","1,0.5,0.5,0.5,1,0.5,0.5,0.5,1","0.5,1,0.5,0.5,0.5,1,1,0.5,0.5","3","",""
"","html-keyboard-response","298","219318","0.0-298.0","3WT783CTPC3WS6F18BUR4ANV291BCU","A2866TYG0D96LM","3BDORL6HKKZHMTYWD6BFF6WBDQ9CRF","","null","<img src=""img/land1.png"" style=""width:200px; border:14px solid green;"">","null","","","","","","","","","",""
"","image-keyboard-response","299","220578","0.0-299.0","3WT783CTPC3WS6F18BUR4ANV291BCU","A2866TYG0D96LM","3BDORL6HKKZHMTYWD6BFF6WBDQ9CRF","","1259","img/land5.png","74","1260","1","1","3","2","1,0.5,0.5,0.5,1,0.5,0.5,0.5,1","0.5,1,0.5,0.5,0.5,1,1,0.5,0.5","3","",""
"","html-keyboard-response","300","220890","0.0-300.0","3WT783CTPC3WS6F18BUR4ANV291BCU","A2866TYG0D96LM","3BDORL6HKKZHMTYWD6BFF6WBDQ9CRF","","null","<img src=""img/land5.png"" style=""width:200px; border:14px solid green;"">","null","","","","","","","","","",""
"","image-keyboard-response","301","221618","0.0-301.0","3WT783CTPC3WS6F18BUR4ANV291BCU","A2866TYG0D96LM","3BDORL6HKKZHMTYWD6BFF6WBDQ9CRF","","727","img/land3.png","76","728","3","1","2","2","1,0.5,0.5,0.5,1,0.5,0.5,0.5,1","0.5,1,0.5,0.5,0.5,1,1,0.5,0.5","3","",""
"","html-keyboard-response","302","221924","0.0-302.0","3WT783CTPC3WS6F18BUR4ANV291BCU","A2866TYG0D96LM","3BDORL6HKKZHMTYWD6BFF6WBDQ9CRF","","null","<img src=""img/land3.png"" style=""width:200px; border:14px solid green;"">","null","","","","","","","","","",""
"","image-keyboard-response","303","222290","0.0-303.0","3WT783CTPC3WS6F18BUR4ANV291BCU","A2866TYG0D96LM","3BDORL6HKKZHMTYWD6BFF6WBDQ9CRF","","365","img/land3.png","76","366","3","1","2","2","1,0.5,0.5,0.5,1,0.5,0.5,0.5,1","0.5,1,0.5,0.5,0.5,1,1,0.5,0.5","3","",""
"","html-keyboard-response","304","222595","0.0-304.0","3WT783CTPC3WS6F18BUR4ANV291BCU","A2866TYG0D96LM","3BDORL6HKKZHMTYWD6BFF6WBDQ9CRF","","null","<img src=""img/land3.png"" style=""width:200px; border:14px solid green;"">","null","","","","","","","","","",""
"","image-keyboard-response","305","223354","0.0-305.0","3WT783CTPC3WS6F18BUR4ANV291BCU","A2866TYG0D96LM","3BDORL6HKKZHMTYWD6BFF6WBDQ9CRF","","758","img/land5.png","74","759","1","1","3","2","1,0.5,0.5,0.5,1,0.5,0.5,0.5,1","0.5,1,0.5,0.5,0.5,1,1,0.5,0.5","3","",""
"","html-keyboard-response","306","223660","0.0-306.0","3WT783CTPC3WS6F18BUR4ANV291BCU","A2866TYG0D96LM","3BDORL6HKKZHMTYWD6BFF6WBDQ9CRF","","null","<img src=""img/land5.png"" style=""width:200px; border:14px solid green;"">","null","","","","","","","","","",""
"","image-keyboard-response","307","224387","0.0-307.0","3WT783CTPC3WS6F18BUR4ANV291BCU","A2866TYG0D96LM","3BDORL6HKKZHMTYWD6BFF6WBDQ9CRF","","727","img/land1.png","75","728","2","1","1","2","1,0.5,0.5,0.5,1,0.5,0.5,0.5,1","0.5,1,0.5,0.5,0.5,1,1,0.5,0.5","3","",""
"","html-keyboard-response","308","224700","0.0-308.0","3WT783CTPC3WS6F18BUR4ANV291BCU","A2866TYG0D96LM","3BDORL6HKKZHMTYWD6BFF6WBDQ9CRF","","null","<img src=""img/land1.png"" style=""width:200px; border:14px solid green;"">","null","","","","","","","","","",""
"","image-keyboard-response","309","225099","0.0-309.0","3WT783CTPC3WS6F18BUR4ANV291BCU","A2866TYG0D96LM","3BDORL6HKKZHMTYWD6BFF6WBDQ9CRF","","397","img/land1.png","75","398","2","1","1","2","1,0.5,0.5,0.5,1,0.5,0.5,0.5,1","0.5,1,0.5,0.5,0.5,1,1,0.5,0.5","3","",""
"","html-keyboard-response","310","225403","0.0-310.0","3WT783CTPC3WS6F18BUR4ANV291BCU","A2866TYG0D96LM","3BDORL6HKKZHMTYWD6BFF6WBDQ9CRF","","null","<img src=""img/land1.png"" style=""width:200px; border:14px solid green;"">","null","","","","","","","","","",""
"","image-keyboard-response","311","225987","0.0-311.0","3WT783CTPC3WS6F18BUR4ANV291BCU","A2866TYG0D96LM","3BDORL6HKKZHMTYWD6BFF6WBDQ9CRF","","582","img/land1.png","75","583","2","1","1","2","1,0.5,0.5,0.5,1,0.5,0.5,0.5,1","0.5,1,0.5,0.5,0.5,1,1,0.5,0.5","3","",""
"","html-keyboard-response","312","226306","0.0-312.0","3WT783CTPC3WS6F18BUR4ANV291BCU","A2866TYG0D96LM","3BDORL6HKKZHMTYWD6BFF6WBDQ9CRF","","null","<img src=""img/land1.png"" style=""width:200px; border:14px solid green;"">","null","","","","","","","","","",""
"","image-keyboard-response","313","226650","0.0-313.0","3WT783CTPC3WS6F18BUR4ANV291BCU","A2866TYG0D96LM","3BDORL6HKKZHMTYWD6BFF6WBDQ9CRF","","343","img/land1.png","75","343","2","1","1","2","1,0.5,0.5,0.5,1,0.5,0.5,0.5,1","0.5,1,0.5,0.5,0.5,1,1,0.5,0.5","3","",""
"","html-keyboard-response","314","226955","0.0-314.0","3WT783CTPC3WS6F18BUR4ANV291BCU","A2866TYG0D96LM","3BDORL6HKKZHMTYWD6BFF6WBDQ9CRF","","null","<img src=""img/land1.png"" style=""width:200px; border:14px solid green;"">","null","","","","","","","","","",""
"","image-keyboard-response","315","227714","0.0-315.0","3WT783CTPC3WS6F18BUR4ANV291BCU","A2866TYG0D96LM","3BDORL6HKKZHMTYWD6BFF6WBDQ9CRF","","757","img/land3.png","76","759","3","1","2","2","1,0.5,0.5,0.5,1,0.5,0.5,0.5,1","0.5,1,0.5,0.5,0.5,1,1,0.5,0.5","3","",""
"","html-keyboard-response","316","228027","0.0-316.0","3WT783CTPC3WS6F18BUR4ANV291BCU","A2866TYG0D96LM","3BDORL6HKKZHMTYWD6BFF6WBDQ9CRF","","null","<img src=""img/land3.png"" style=""width:200px; border:14px solid green;"">","null","","","","","","","","","",""
"","image-keyboard-response","317","229043","0.0-317.0","3WT783CTPC3WS6F18BUR4ANV291BCU","A2866TYG0D96LM","3BDORL6HKKZHMTYWD6BFF6WBDQ9CRF","","1014","img/land1.png","75","1015","2","1","1","2","1,0.5,0.5,0.5,1,0.5,0.5,0.5,1","0.5,1,0.5,0.5,0.5,1,1,0.5,0.5","3","",""
"","html-keyboard-response","318","229347","0.0-318.0","3WT783CTPC3WS6F18BUR4ANV291BCU","A2866TYG0D96LM","3BDORL6HKKZHMTYWD6BFF6WBDQ9CRF","","null","<img src=""img/land1.png"" style=""width:200px; border:14px solid green;"">","null","","","","","","","","","",""
"","image-keyboard-response","319","229698","0.0-319.0","3WT783CTPC3WS6F18BUR4ANV291BCU","A2866TYG0D96LM","3BDORL6HKKZHMTYWD6BFF6WBDQ9CRF","","349","img/land1.png","75","350","2","1","1","2","1,0.5,0.5,0.5,1,0.5,0.5,0.5,1","0.5,1,0.5,0.5,0.5,1,1,0.5,0.5","3","",""
"","html-keyboard-response","320","230018","0.0-320.0","3WT783CTPC3WS6F18BUR4ANV291BCU","A2866TYG0D96LM","3BDORL6HKKZHMTYWD6BFF6WBDQ9CRF","","null","<img src=""img/land1.png"" style=""width:200px; border:14px solid green;"">","null","","","","","","","","","",""
"","image-keyboard-response","321","231459","0.0-321.0","3WT783CTPC3WS6F18BUR4ANV291BCU","A2866TYG0D96LM","3BDORL6HKKZHMTYWD6BFF6WBDQ9CRF","","1440","img/land5.png","74","1441","1","1","3","2","1,0.5,0.5,0.5,1,0.5,0.5,0.5,1","0.5,1,0.5,0.5,0.5,1,1,0.5,0.5","3","",""
"","html-keyboard-response","322","231770","0.0-322.0","3WT783CTPC3WS6F18BUR4ANV291BCU","A2866TYG0D96LM","3BDORL6HKKZHMTYWD6BFF6WBDQ9CRF","","null","<img src=""img/land5.png"" style=""width:200px; border:14px solid green;"">","null","","","","","","","","","",""
"","image-keyboard-response","323","232531","0.0-323.0","3WT783CTPC3WS6F18BUR4ANV291BCU","A2866TYG0D96LM","3BDORL6HKKZHMTYWD6BFF6WBDQ9CRF","","760","img/land1.png","75","760","2","1","1","2","1,0.5,0.5,0.5,1,0.5,0.5,0.5,1","0.5,1,0.5,0.5,0.5,1,1,0.5,0.5","3","",""
"","html-keyboard-response","324","232842","0.0-324.0","3WT783CTPC3WS6F18BUR4ANV291BCU","A2866TYG0D96LM","3BDORL6HKKZHMTYWD6BFF6WBDQ9CRF","","null","<img src=""img/land1.png"" style=""width:200px; border:14px solid green;"">","null","","","","","","","","","",""
"","image-keyboard-response","325","233179","0.0-325.0","3WT783CTPC3WS6F18BUR4ANV291BCU","A2866TYG0D96LM","3BDORL6HKKZHMTYWD6BFF6WBDQ9CRF","","336","img/land1.png","75","337","2","1","1","2","1,0.5,0.5,0.5,1,0.5,0.5,0.5,1","0.5,1,0.5,0.5,0.5,1,1,0.5,0.5","3","",""
"","html-keyboard-response","326","233491","0.0-326.0","3WT783CTPC3WS6F18BUR4ANV291BCU","A2866TYG0D96LM","3BDORL6HKKZHMTYWD6BFF6WBDQ9CRF","","null","<img src=""img/land1.png"" style=""width:200px; border:14px solid green;"">","null","","","","","","","","","",""
"","image-keyboard-response","327","234267","0.0-327.0","3WT783CTPC3WS6F18BUR4ANV291BCU","A2866TYG0D96LM","3BDORL6HKKZHMTYWD6BFF6WBDQ9CRF","","775","img/land3.png","76","775","3","1","2","2","1,0.5,0.5,0.5,1,0.5,0.5,0.5,1","0.5,1,0.5,0.5,0.5,1,1,0.5,0.5","3","",""
"","html-keyboard-response","328","234579","0.0-328.0","3WT783CTPC3WS6F18BUR4ANV291BCU","A2866TYG0D96LM","3BDORL6HKKZHMTYWD6BFF6WBDQ9CRF","","null","<img src=""img/land3.png"" style=""width:200px; border:14px solid green;"">","null","","","","","","","","","",""
"","image-keyboard-response","329","234907","0.0-329.0","3WT783CTPC3WS6F18BUR4ANV291BCU","A2866TYG0D96LM","3BDORL6HKKZHMTYWD6BFF6WBDQ9CRF","","328","img/land3.png","76","328","3","1","2","2","1,0.5,0.5,0.5,1,0.5,0.5,0.5,1","0.5,1,0.5,0.5,0.5,1,1,0.5,0.5","3","",""
"","html-keyboard-response","330","235212","0.0-330.0","3WT783CTPC3WS6F18BUR4ANV291BCU","A2866TYG0D96LM","3BDORL6HKKZHMTYWD6BFF6WBDQ9CRF","","null","<img src=""img/land3.png"" style=""width:200px; border:14px solid green;"">","null","","","","","","","","","",""
"","image-keyboard-response","331","235579","0.0-331.0","3WT783CTPC3WS6F18BUR4ANV291BCU","A2866TYG0D96LM","3BDORL6HKKZHMTYWD6BFF6WBDQ9CRF","","366","img/land3.png","76","367","3","1","2","2","1,0.5,0.5,0.5,1,0.5,0.5,0.5,1","0.5,1,0.5,0.5,0.5,1,1,0.5,0.5","3","",""
"","html-keyboard-response","332","235883","0.0-332.0","3WT783CTPC3WS6F18BUR4ANV291BCU","A2866TYG0D96LM","3BDORL6HKKZHMTYWD6BFF6WBDQ9CRF","","null","<img src=""img/land3.png"" style=""width:200px; border:14px solid green;"">","null","","","","","","","","","",""
"","image-keyboard-response","333","236866","0.0-333.0","3WT783CTPC3WS6F18BUR4ANV291BCU","A2866TYG0D96LM","3BDORL6HKKZHMTYWD6BFF6WBDQ9CRF","","983","img/land1.png","75","983","2","1","1","2","1,0.5,0.5,0.5,1,0.5,0.5,0.5,1","0.5,1,0.5,0.5,0.5,1,1,0.5,0.5","3","",""
"","html-keyboard-response","334","237171","0.0-334.0","3WT783CTPC3WS6F18BUR4ANV291BCU","A2866TYG0D96LM","3BDORL6HKKZHMTYWD6BFF6WBDQ9CRF","","null","<img src=""img/land1.png"" style=""width:200px; border:14px solid green;"">","null","","","","","","","","","",""
"","image-keyboard-response","335","237483","0.0-335.0","3WT783CTPC3WS6F18BUR4ANV291BCU","A2866TYG0D96LM","3BDORL6HKKZHMTYWD6BFF6WBDQ9CRF","","311","img/land1.png","75","313","2","1","1","2","1,0.5,0.5,0.5,1,0.5,0.5,0.5,1","0.5,1,0.5,0.5,0.5,1,1,0.5,0.5","3","",""
"","html-keyboard-response","336","237789","0.0-336.0","3WT783CTPC3WS6F18BUR4ANV291BCU","A2866TYG0D96LM","3BDORL6HKKZHMTYWD6BFF6WBDQ9CRF","","null","<img src=""img/land1.png"" style=""width:200px; border:14px solid green;"">","null","","","","","","","","","",""
"","image-keyboard-response","337","238107","0.0-337.0","3WT783CTPC3WS6F18BUR4ANV291BCU","A2866TYG0D96LM","3BDORL6HKKZHMTYWD6BFF6WBDQ9CRF","","318","img/land1.png","75","319","2","1","1","2","1,0.5,0.5,0.5,1,0.5,0.5,0.5,1","0.5,1,0.5,0.5,0.5,1,1,0.5,0.5","3","",""
"","html-keyboard-response","338","238422","0.0-338.0","3WT783CTPC3WS6F18BUR4ANV291BCU","A2866TYG0D96LM","3BDORL6HKKZHMTYWD6BFF6WBDQ9CRF","","null","<img src=""img/land1.png"" style=""width:200px; border:14px solid green;"">","null","","","","","","","","","",""
"","image-keyboard-response","339","239123","0.0-339.0","3WT783CTPC3WS6F18BUR4ANV291BCU","A2866TYG0D96LM","3BDORL6HKKZHMTYWD6BFF6WBDQ9CRF","","700","img/land3.png","76","701","3","1","2","2","1,0.5,0.5,0.5,1,0.5,0.5,0.5,1","0.5,1,0.5,0.5,0.5,1,1,0.5,0.5","3","",""
"","html-keyboard-response","340","239424","0.0-340.0","3WT783CTPC3WS6F18BUR4ANV291BCU","A2866TYG0D96LM","3BDORL6HKKZHMTYWD6BFF6WBDQ9CRF","","null","<img src=""img/land3.png"" style=""width:200px; border:14px solid green;"">","null","","","","","","","","","",""
"","image-keyboard-response","341","240139","0.0-341.0","3WT783CTPC3WS6F18BUR4ANV291BCU","A2866TYG0D96LM","3BDORL6HKKZHMTYWD6BFF6WBDQ9CRF","","713","img/land1.png","75","713","2","1","1","2","1,0.5,0.5,0.5,1,0.5,0.5,0.5,1","0.5,1,0.5,0.5,0.5,1,1,0.5,0.5","3","",""
"","html-keyboard-response","342","240451","0.0-342.0","3WT783CTPC3WS6F18BUR4ANV291BCU","A2866TYG0D96LM","3BDORL6HKKZHMTYWD6BFF6WBDQ9CRF","","null","<img src=""img/land1.png"" style=""width:200px; border:14px solid green;"">","null","","","","","","","","","",""
"","image-keyboard-response","343","241051","0.0-343.0","3WT783CTPC3WS6F18BUR4ANV291BCU","A2866TYG0D96LM","3BDORL6HKKZHMTYWD6BFF6WBDQ9CRF","","600","img/land3.png","76","601","3","1","2","2","1,0.5,0.5,0.5,1,0.5,0.5,0.5,1","0.5,1,0.5,0.5,0.5,1,1,0.5,0.5","3","",""
"","html-keyboard-response","344","241353","0.0-344.0","3WT783CTPC3WS6F18BUR4ANV291BCU","A2866TYG0D96LM","3BDORL6HKKZHMTYWD6BFF6WBDQ9CRF","","null","<img src=""img/land3.png"" style=""width:200px; border:14px solid green;"">","null","","","","","","","","","",""
"","image-keyboard-response","345","242204","0.0-345.0","3WT783CTPC3WS6F18BUR4ANV291BCU","A2866TYG0D96LM","3BDORL6HKKZHMTYWD6BFF6WBDQ9CRF","","849","img/land5.png","74","850","1","1","3","2","1,0.5,0.5,0.5,1,0.5,0.5,0.5,1","0.5,1,0.5,0.5,0.5,1,1,0.5,0.5","3","",""
"","html-keyboard-response","346","242519","0.0-346.0","3WT783CTPC3WS6F18BUR4ANV291BCU","A2866TYG0D96LM","3BDORL6HKKZHMTYWD6BFF6WBDQ9CRF","","null","<img src=""img/land5.png"" style=""width:200px; border:14px solid green;"">","null","","","","","","","","","",""
"","image-keyboard-response","347","243427","0.0-347.0","3WT783CTPC3WS6F18BUR4ANV291BCU","A2866TYG0D96LM","3BDORL6HKKZHMTYWD6BFF6WBDQ9CRF","","907","img/land1.png","75","908","2","1","1","2","1,0.5,0.5,0.5,1,0.5,0.5,0.5,1","0.5,1,0.5,0.5,0.5,1,1,0.5,0.5","3","",""
"","html-keyboard-response","348","243739","0.0-348.0","3WT783CTPC3WS6F18BUR4ANV291BCU","A2866TYG0D96LM","3BDORL6HKKZHMTYWD6BFF6WBDQ9CRF","","null","<img src=""img/land1.png"" style=""width:200px; border:14px solid green;"">","null","","","","","","","","","",""
"","image-keyboard-response","349","244419","0.0-349.0","3WT783CTPC3WS6F18BUR4ANV291BCU","A2866TYG0D96LM","3BDORL6HKKZHMTYWD6BFF6WBDQ9CRF","","679","img/land3.png","76","680","3","1","2","2","1,0.5,0.5,0.5,1,0.5,0.5,0.5,1","0.5,1,0.5,0.5,0.5,1,1,0.5,0.5","3","",""
"","html-keyboard-response","350","244726","0.0-350.0","3WT783CTPC3WS6F18BUR4ANV291BCU","A2866TYG0D96LM","3BDORL6HKKZHMTYWD6BFF6WBDQ9CRF","","null","<img src=""img/land3.png"" style=""width:200px; border:14px solid green;"">","null","","","","","","","","","",""
"","image-keyboard-response","351","245203","0.0-351.0","3WT783CTPC3WS6F18BUR4ANV291BCU","A2866TYG0D96LM","3BDORL6HKKZHMTYWD6BFF6WBDQ9CRF","","476","img/land1.png","75","477","2","1","1","2","1,0.5,0.5,0.5,1,0.5,0.5,0.5,1","0.5,1,0.5,0.5,0.5,1,1,0.5,0.5","3","",""
"","html-keyboard-response","352","245513","0.0-352.0","3WT783CTPC3WS6F18BUR4ANV291BCU","A2866TYG0D96LM","3BDORL6HKKZHMTYWD6BFF6WBDQ9CRF","","null","<img src=""img/land1.png"" style=""width:200px; border:14px solid green;"">","null","","","","","","","","","",""
"","image-keyboard-response","353","246027","0.0-353.0","3WT783CTPC3WS6F18BUR4ANV291BCU","A2866TYG0D96LM","3BDORL6HKKZHMTYWD6BFF6WBDQ9CRF","","513","img/land3.png","76","513","3","1","2","2","1,0.5,0.5,0.5,1,0.5,0.5,0.5,1","0.5,1,0.5,0.5,0.5,1,1,0.5,0.5","3","",""
"","html-keyboard-response","354","246332","0.0-354.0","3WT783CTPC3WS6F18BUR4ANV291BCU","A2866TYG0D96LM","3BDORL6HKKZHMTYWD6BFF6WBDQ9CRF","","null","<img src=""img/land3.png"" style=""width:200px; border:14px solid green;"">","null","","","","","","","","","",""
"","image-keyboard-response","355","246827","0.0-355.0","3WT783CTPC3WS6F18BUR4ANV291BCU","A2866TYG0D96LM","3BDORL6HKKZHMTYWD6BFF6WBDQ9CRF","","495","img/land3.png","76","495","3","1","2","2","1,0.5,0.5,0.5,1,0.5,0.5,0.5,1","0.5,1,0.5,0.5,0.5,1,1,0.5,0.5","3","",""
"","html-keyboard-response","356","247134","0.0-356.0","3WT783CTPC3WS6F18BUR4ANV291BCU","A2866TYG0D96LM","3BDORL6HKKZHMTYWD6BFF6WBDQ9CRF","","null","<img src=""img/land3.png"" style=""width:200px; border:14px solid green;"">","null","","","","","","","","","",""
"","image-keyboard-response","357","247811","0.0-357.0","3WT783CTPC3WS6F18BUR4ANV291BCU","A2866TYG0D96LM","3BDORL6HKKZHMTYWD6BFF6WBDQ9CRF","","677","img/land1.png","75","677","2","1","1","2","1,0.5,0.5,0.5,1,0.5,0.5,0.5,1","0.5,1,0.5,0.5,0.5,1,1,0.5,0.5","3","",""
"","html-keyboard-response","358","248122","0.0-358.0","3WT783CTPC3WS6F18BUR4ANV291BCU","A2866TYG0D96LM","3BDORL6HKKZHMTYWD6BFF6WBDQ9CRF","","null","<img src=""img/land1.png"" style=""width:200px; border:14px solid green;"">","null","","","","","","","","","",""
"","image-keyboard-response","359","248619","0.0-359.0","3WT783CTPC3WS6F18BUR4ANV291BCU","A2866TYG0D96LM","3BDORL6HKKZHMTYWD6BFF6WBDQ9CRF","","496","img/land1.png","75","498","2","1","1","2","1,0.5,0.5,0.5,1,0.5,0.5,0.5,1","0.5,1,0.5,0.5,0.5,1,1,0.5,0.5","3","",""
"","html-keyboard-response","360","248923","0.0-360.0","3WT783CTPC3WS6F18BUR4ANV291BCU","A2866TYG0D96LM","3BDORL6HKKZHMTYWD6BFF6WBDQ9CRF","","null","<img src=""img/land1.png"" style=""width:200px; border:14px solid green;"">","null","","","","","","","","","",""
"","image-keyboard-response","361","249339","0.0-361.0","3WT783CTPC3WS6F18BUR4ANV291BCU","A2866TYG0D96LM","3BDORL6HKKZHMTYWD6BFF6WBDQ9CRF","","414","img/land1.png","75","416","2","1","1","2","1,0.5,0.5,0.5,1,0.5,0.5,0.5,1","0.5,1,0.5,0.5,0.5,1,1,0.5,0.5","3","",""
"","html-keyboard-response","362","249642","0.0-362.0","3WT783CTPC3WS6F18BUR4ANV291BCU","A2866TYG0D96LM","3BDORL6HKKZHMTYWD6BFF6WBDQ9CRF","","null","<img src=""img/land1.png"" style=""width:200px; border:14px solid green;"">","null","","","","","","","","","",""
"","image-keyboard-response","363","250219","0.0-363.0","3WT783CTPC3WS6F18BUR4ANV291BCU","A2866TYG0D96LM","3BDORL6HKKZHMTYWD6BFF6WBDQ9CRF","","576","img/land3.png","76","577","3","1","2","2","1,0.5,0.5,0.5,1,0.5,0.5,0.5,1","0.5,1,0.5,0.5,0.5,1,1,0.5,0.5","3","",""
"","html-keyboard-response","364","250529","0.0-364.0","3WT783CTPC3WS6F18BUR4ANV291BCU","A2866TYG0D96LM","3BDORL6HKKZHMTYWD6BFF6WBDQ9CRF","","null","<img src=""img/land3.png"" style=""width:200px; border:14px solid green;"">","null","","","","","","","","","",""
"","image-keyboard-response","365","251299","0.0-365.0","3WT783CTPC3WS6F18BUR4ANV291BCU","A2866TYG0D96LM","3BDORL6HKKZHMTYWD6BFF6WBDQ9CRF","","769","img/land1.png","75","770","2","1","1","2","1,0.5,0.5,0.5,1,0.5,0.5,0.5,1","0.5,1,0.5,0.5,0.5,1,1,0.5,0.5","3","",""
"","html-keyboard-response","366","251601","0.0-366.0","3WT783CTPC3WS6F18BUR4ANV291BCU","A2866TYG0D96LM","3BDORL6HKKZHMTYWD6BFF6WBDQ9CRF","","null","<img src=""img/land1.png"" style=""width:200px; border:14px solid green;"">","null","","","","","","","","","",""
"","image-keyboard-response","367","251971","0.0-367.0","3WT783CTPC3WS6F18BUR4ANV291BCU","A2866TYG0D96LM","3BDORL6HKKZHMTYWD6BFF6WBDQ9CRF","","370","img/land1.png","75","370","2","1","1","2","1,0.5,0.5,0.5,1,0.5,0.5,0.5,1","0.5,1,0.5,0.5,0.5,1,1,0.5,0.5","3","",""
"","html-keyboard-response","368","252287","0.0-368.0","3WT783CTPC3WS6F18BUR4ANV291BCU","A2866TYG0D96LM","3BDORL6HKKZHMTYWD6BFF6WBDQ9CRF","","null","<img src=""img/land1.png"" style=""width:200px; border:14px solid green;"">","null","","","","","","","","","",""
"","image-keyboard-response","369","252883","0.0-369.0","3WT783CTPC3WS6F18BUR4ANV291BCU","A2866TYG0D96LM","3BDORL6HKKZHMTYWD6BFF6WBDQ9CRF","","594","img/land5.png","74","595","1","1","3","2","1,0.5,0.5,0.5,1,0.5,0.5,0.5,1","0.5,1,0.5,0.5,0.5,1,1,0.5,0.5","3","",""
"","html-keyboard-response","370","253190","0.0-370.0","3WT783CTPC3WS6F18BUR4ANV291BCU","A2866TYG0D96LM","3BDORL6HKKZHMTYWD6BFF6WBDQ9CRF","","null","<img src=""img/land5.png"" style=""width:200px; border:14px solid green;"">","null","","","","","","","","","",""
"","image-keyboard-response","371","253835","0.0-371.0","3WT783CTPC3WS6F18BUR4ANV291BCU","A2866TYG0D96LM","3BDORL6HKKZHMTYWD6BFF6WBDQ9CRF","","643","img/land1.png","75","643","2","1","1","2","1,0.5,0.5,0.5,1,0.5,0.5,0.5,1","0.5,1,0.5,0.5,0.5,1,1,0.5,0.5","3","",""
"","html-keyboard-response","372","254141","0.0-372.0","3WT783CTPC3WS6F18BUR4ANV291BCU","A2866TYG0D96LM","3BDORL6HKKZHMTYWD6BFF6WBDQ9CRF","","null","<img src=""img/land1.png"" style=""width:200px; border:14px solid green;"">","null","","","","","","","","","",""
"","image-keyboard-response","373","254531","0.0-373.0","3WT783CTPC3WS6F18BUR4ANV291BCU","A2866TYG0D96LM","3BDORL6HKKZHMTYWD6BFF6WBDQ9CRF","","390","img/land1.png","75","390","2","1","1","2","1,0.5,0.5,0.5,1,0.5,0.5,0.5,1","0.5,1,0.5,0.5,0.5,1,1,0.5,0.5","3","",""
"","html-keyboard-response","374","254843","0.0-374.0","3WT783CTPC3WS6F18BUR4ANV291BCU","A2866TYG0D96LM","3BDORL6HKKZHMTYWD6BFF6WBDQ9CRF","","null","<img src=""img/land1.png"" style=""width:200px; border:14px solid green;"">","null","","","","","","","","","",""
"","image-keyboard-response","375","256465","0.0-375.0","3WT783CTPC3WS6F18BUR4ANV291BCU","A2866TYG0D96LM","3BDORL6HKKZHMTYWD6BFF6WBDQ9CRF","","1623","img/land5.png","74","1623","1","1","3","2","1,0.5,0.5,0.5,1,0.5,0.5,0.5,1","0.5,1,0.5,0.5,0.5,1,1,0.5,0.5","3","",""
"","html-keyboard-response","376","256783","0.0-376.0","3WT783CTPC3WS6F18BUR4ANV291BCU","A2866TYG0D96LM","3BDORL6HKKZHMTYWD6BFF6WBDQ9CRF","","null","<img src=""img/land5.png"" style=""width:200px; border:14px solid green;"">","null","","","","","","","","","",""
"","image-keyboard-response","377","257731","0.0-377.0","3WT783CTPC3WS6F18BUR4ANV291BCU","A2866TYG0D96LM","3BDORL6HKKZHMTYWD6BFF6WBDQ9CRF","","946","img/land1.png","75","947","2","1","1","2","1,0.5,0.5,0.5,1,0.5,0.5,0.5,1","0.5,1,0.5,0.5,0.5,1,1,0.5,0.5","3","",""
