"success","trial_type","trial_index","time_elapsed","internal_node_id","assignmentID","mturkID","hitID","view_history","rt","stimulus","key_press","reactionTime","a","r","s","cond","reward_cond","reward_cond_actual","reward_matrix_idx","responses","question_order"
"true","fullscreen","0","2538","0.0-0.0","","","","","","","","","","","","","","","","",""
"","instructions","1","14858","0.0-1.0","","","","[{""page_index"":0,""viewing_time"":1181.7000000476837},{""page_index"":1,""viewing_time"":1048.0999999046326},{""page_index"":2,""viewing_time"":455.90000009536743},{""page_index"":3,""viewing_time"":2528.4000000953674},{""page_index"":4,""viewing_time"":4264.5},{""page_index"":5,""viewing_time"":2008.1999998092651},{""page_index"":6,""viewing_time"":832.1000001430511}]","12319.100000143051","","","","","","","","","","","",""
"","image-keyboard-response","2","15586","0.0-2.0","","","","","727.3000001907349","img/land2.png","75","728","2","1","2","2","1,0.5,0.5,0.5,1,0.5,0.5,0.5,1","1,0.5,0.5,0.5,1,0.5,0.5,0.5,1","","",""
"","html-keyboard-response","3","15888","0.0-3.0","","","","","null","<img src=""img/land2.png"" style=""width:200px; border:14px solid green;"">","null","","","","","","","","","",""
"","image-keyboard-response","4","16426","0.0-4.0","","","","","538","img/land2.png","75","538.5","2","1","2","2","1,0.5,0.5,0.5,1,0.5,0.5,0.5,1","1,0.5,0.5,0.5,1,0.5,0.5,0.5,1","","",""
"","html-keyboard-response","5","16732","0.0-5.0","","","","","null","<img src=""img/land2.png"" style=""width:200px; border:14px solid green;"">","null","","","","","","","","","",""
"","image-keyboard-response","6","17171","0.0-6.0","","","","","437.7000000476837","img/land2.png","75","438.2000000476837","2","1","2","2","1,0.5,0.5,0.5,1,0.5,0.5,0.5,1","1,0.5,0.5,0.5,1,0.5,0.5,0.5,1","","",""
"","html-keyboard-response","7","17484","0.0-7.0","","","","","null","<img src=""img/land2.png"" style=""width:200px; border:14px solid green;"">","null","","","","","","","","","",""
"","image-keyboard-response","8","17874","0.0-8.0","","","","","389.90000009536743","img/land2.png","75","390.39999985694885","2","1","2","2","1,0.5,0.5,0.5,1,0.5,0.5,0.5,1","1,0.5,0.5,0.5,1,0.5,0.5,0.5,1","","",""
"","html-keyboard-response","9","18186","0.0-9.0","","","","","null","<img src=""img/land2.png"" style=""width:200px; border:14px solid green;"">","null","","","","","","","","","",""
"","image-keyboard-response","10","18723","0.0-10.0","","","","","535.8999998569489","img/land1.png","76","536.2999999523163","3","1","1","2","1,0.5,0.5,0.5,1,0.5,0.5,0.5,1","1,0.5,0.5,0.5,1,0.5,0.5,0.5,1","","",""
"","html-keyboard-response","11","19032","0.0-11.0","","","","","null","<img src=""img/land1.png"" style=""width:200px; border:14px solid green;"">","null","","","","","","","","","",""
"","image-keyboard-response","12","19283","0.0-12.0","","","","","250.09999990463257","img/land3.png","76","250.60000014305115","3","1","3","2","1,0.5,0.5,0.5,1,0.5,0.5,0.5,1","1,0.5,0.5,0.5,1,0.5,0.5,0.5,1","","",""
"","html-keyboard-response","13","19587","0.0-13.0","","","","","null","<img src=""img/land3.png"" style=""width:200px; border:14px solid green;"">","null","","","","","","","","","",""
"","image-keyboard-response","14","19939","0.0-14.0","","","","","350.7999999523163","img/land2.png","76","351.09999990463257","3","0","2","2","1,0.5,0.5,0.5,1,0.5,0.5,0.5,1","1,0.5,0.5,0.5,1,0.5,0.5,0.5,1","","",""
"","html-keyboard-response","15","20243","0.0-15.0","","","","","null","<img src=""img/land2.png"" style=""width:200px;border:14px solid red;"">","null","","","","","","","","","",""
"","image-keyboard-response","16","20995","0.0-16.0","","","","","751.3000001907349","img/land2.png","75","751.5","2","1","2","2","1,0.5,0.5,0.5,1,0.5,0.5,0.5,1","1,0.5,0.5,0.5,1,0.5,0.5,0.5,1","","",""
"","html-keyboard-response","17","21299","0.0-17.0","","","","","null","<img src=""img/land2.png"" style=""width:200px; border:14px solid green;"">","null","","","","","","","","","",""
"","image-keyboard-response","18","21587","0.0-18.0","","","","","287.40000009536743","img/land1.png","75","287.7999999523163","2","1","1","2","1,0.5,0.5,0.5,1,0.5,0.5,0.5,1","1,0.5,0.5,0.5,1,0.5,0.5,0.5,1","","",""
"","html-keyboard-response","19","21889","0.0-19.0","","","","","null","<img src=""img/land1.png"" style=""width:200px; border:14px solid green;"">","null","","","","","","","","","",""
"","image-keyboard-response","20","22419","0.0-20.0","","","","","529.0999999046326","img/land2.png","75","529.5","2","1","2","2","1,0.5,0.5,0.5,1,0.5,0.5,0.5,1","1,0.5,0.5,0.5,1,0.5,0.5,0.5,1","","",""
"","html-keyboard-response","21","22728","0.0-21.0","","","","","null","<img src=""img/land2.png"" style=""width:200px; border:14px solid green;"">","null","","","","","","","","","",""
"","image-keyboard-response","22","23339","0.0-22.0","","","","","610.6000001430511","img/land3.png","76","611.0999999046326","3","1","3","2","1,0.5,0.5,0.5,1,0.5,0.5,0.5,1","1,0.5,0.5,0.5,1,0.5,0.5,0.5,1","","",""
"","html-keyboard-response","23","23650","0.0-23.0","","","","","null","<img src=""img/land3.png"" style=""width:200px; border:14px solid green;"">","null","","","","","","","","","",""
"","image-keyboard-response","24","24267","0.0-24.0","","","","","616.5","img/land1.png","75","616.9000000953674","2","1","1","2","1,0.5,0.5,0.5,1,0.5,0.5,0.5,1","1,0.5,0.5,0.5,1,0.5,0.5,0.5,1","","",""
"","html-keyboard-response","25","24578","0.0-25.0","","","","","null","<img src=""img/land1.png"" style=""width:200px; border:14px solid green;"">","null","","","","","","","","","",""
"","image-keyboard-response","26","25307","0.0-26.0","","","","","728.7999999523163","img/land3.png","76","729.2000000476837","3","1","3","2","1,0.5,0.5,0.5,1,0.5,0.5,0.5,1","1,0.5,0.5,0.5,1,0.5,0.5,0.5,1","","",""
"","html-keyboard-response","27","25622","0.0-27.0","","","","","null","<img src=""img/land3.png"" style=""width:200px; border:14px solid green;"">","null","","","","","","","","","",""
"","image-keyboard-response","28","26099","0.0-28.0","","","","","477","img/land2.png","75","477.40000009536743","2","1","2","2","1,0.5,0.5,0.5,1,0.5,0.5,0.5,1","1,0.5,0.5,0.5,1,0.5,0.5,0.5,1","","",""
"","html-keyboard-response","29","26401","0.0-29.0","","","","","null","<img src=""img/land2.png"" style=""width:200px; border:14px solid green;"">","null","","","","","","","","","",""
"","image-keyboard-response","30","26804","0.0-30.0","","","","","402.5","img/land1.png","74","402.90000009536743","1","1","1","2","1,0.5,0.5,0.5,1,0.5,0.5,0.5,1","1,0.5,0.5,0.5,1,0.5,0.5,0.5,1","","",""
"","html-keyboard-response","31","27112","0.0-31.0","","","","","null","<img src=""img/land1.png"" style=""width:200px; border:14px solid green;"">","null","","","","","","","","","",""
"","image-keyboard-response","32","27684","0.0-32.0","","","","","570.7999999523163","img/land1.png","74","571.2999999523163","1","1","1","2","1,0.5,0.5,0.5,1,0.5,0.5,0.5,1","1,0.5,0.5,0.5,1,0.5,0.5,0.5,1","","",""
"","html-keyboard-response","33","27997","0.0-33.0","","","","","null","<img src=""img/land1.png"" style=""width:200px; border:14px solid green;"">","null","","","","","","","","","",""
"","image-keyboard-response","34","28660","0.0-34.0","","","","","662.2999999523163","img/land3.png","75","662.6000001430511","2","1","3","2","1,0.5,0.5,0.5,1,0.5,0.5,0.5,1","1,0.5,0.5,0.5,1,0.5,0.5,0.5,1","","",""
"","html-keyboard-response","35","28964","0.0-35.0","","","","","null","<img src=""img/land3.png"" style=""width:200px; border:14px solid green;"">","null","","","","","","","","","",""
"","image-keyboard-response","36","29644","0.0-36.0","","","","","678.7999999523163","img/land2.png","74","679.2000000476837","1","1","2","2","1,0.5,0.5,0.5,1,0.5,0.5,0.5,1","1,0.5,0.5,0.5,1,0.5,0.5,0.5,1","","",""
"","html-keyboard-response","37","29944","0.0-37.0","","","","","null","<img src=""img/land2.png"" style=""width:200px; border:14px solid green;"">","null","","","","","","","","","",""
"","image-keyboard-response","38","30252","0.0-38.0","","","","","306.89999985694885","img/land2.png","74","307.5","1","1","2","2","1,0.5,0.5,0.5,1,0.5,0.5,0.5,1","1,0.5,0.5,0.5,1,0.5,0.5,0.5,1","","",""
"","html-keyboard-response","39","30553","0.0-39.0","","","","","null","<img src=""img/land2.png"" style=""width:200px; border:14px solid green;"">","null","","","","","","","","","",""
"","image-keyboard-response","40","31228","0.0-40.0","","","","","674.6999998092651","img/land2.png","75","675.1000001430511","2","1","2","2","1,0.5,0.5,0.5,1,0.5,0.5,0.5,1","1,0.5,0.5,0.5,1,0.5,0.5,0.5,1","","",""
"","html-keyboard-response","41","31529","0.0-41.0","","","","","null","<img src=""img/land2.png"" style=""width:200px; border:14px solid green;"">","null","","","","","","","","","",""
"","image-keyboard-response","42","32220","0.0-42.0","","","","","690.7999999523163","img/land1.png","75","691.2000000476837","2","0","1","2","1,0.5,0.5,0.5,1,0.5,0.5,0.5,1","1,0.5,0.5,0.5,1,0.5,0.5,0.5,1","","",""
"","html-keyboard-response","43","32521","0.0-43.0","","","","","null","<img src=""img/land1.png"" style=""width:200px;border:14px solid red;"">","null","","","","","","","","","",""
"","image-keyboard-response","44","33524","0.0-44.0","","","","","1003.2000000476837","img/land3.png","74","1003.5999999046326","1","1","3","2","1,0.5,0.5,0.5,1,0.5,0.5,0.5,1","1,0.5,0.5,0.5,1,0.5,0.5,0.5,1","","",""
"","html-keyboard-response","45","33826","0.0-45.0","","","","","null","<img src=""img/land3.png"" style=""width:200px; border:14px solid green;"">","null","","","","","","","","","",""
"","image-keyboard-response","46","34108","0.0-46.0","","","","","281.7999999523163","img/land3.png","74","282.40000009536743","1","1","3","2","1,0.5,0.5,0.5,1,0.5,0.5,0.5,1","1,0.5,0.5,0.5,1,0.5,0.5,0.5,1","","",""
"","html-keyboard-response","47","34409","0.0-47.0","","","","","null","<img src=""img/land3.png"" style=""width:200px; border:14px solid green;"">","null","","","","","","","","","",""
"","image-keyboard-response","48","34716","0.0-48.0","","","","","306.5","img/land3.png","74","306.90000009536743","1","1","3","2","1,0.5,0.5,0.5,1,0.5,0.5,0.5,1","1,0.5,0.5,0.5,1,0.5,0.5,0.5,1","","",""
"","html-keyboard-response","49","35017","0.0-49.0","","","","","null","<img src=""img/land3.png"" style=""width:200px; border:14px solid green;"">","null","","","","","","","","","",""
"","image-keyboard-response","50","35764","0.0-50.0","","","","","747","img/land2.png","75","747.3999998569489","2","1","2","2","1,0.5,0.5,0.5,1,0.5,0.5,0.5,1","1,0.5,0.5,0.5,1,0.5,0.5,0.5,1","","",""
"","html-keyboard-response","51","36066","0.0-51.0","","","","","null","<img src=""img/land2.png"" style=""width:200px; border:14px solid green;"">","null","","","","","","","","","",""
"","image-keyboard-response","52","36309","0.0-52.0","","","","","242.20000004768372","img/land3.png","75","242.70000004768372","2","1","3","2","1,0.5,0.5,0.5,1,0.5,0.5,0.5,1","1,0.5,0.5,0.5,1,0.5,0.5,0.5,1","","",""
"","html-keyboard-response","53","36609","0.0-53.0","","","","","null","<img src=""img/land3.png"" style=""width:200px; border:14px solid green;"">","null","","","","","","","","","",""
"","image-keyboard-response","54","37229","0.0-54.0","","","","","618.8999998569489","img/land1.png","75","619.3000001907349","2","0","1","2","1,0.5,0.5,0.5,1,0.5,0.5,0.5,1","1,0.5,0.5,0.5,1,0.5,0.5,0.5,1","","",""
"","html-keyboard-response","55","37530","0.0-55.0","","","","","null","<img src=""img/land1.png"" style=""width:200px;border:14px solid red;"">","null","","","","","","","","","",""
"","image-keyboard-response","56","38661","0.0-56.0","","","","","1130.2000000476837","img/land2.png","75","1130.5","2","1","2","2","1,0.5,0.5,0.5,1,0.5,0.5,0.5,1","1,0.5,0.5,0.5,1,0.5,0.5,0.5,1","","",""
"","html-keyboard-response","57","38961","0.0-57.0","","","","","null","<img src=""img/land2.png"" style=""width:200px; border:14px solid green;"">","null","","","","","","","","","",""
"","image-keyboard-response","58","39461","0.0-58.0","","","","","498.90000009536743","img/land2.png","75","499.2999999523163","2","1","2","2","1,0.5,0.5,0.5,1,0.5,0.5,0.5,1","1,0.5,0.5,0.5,1,0.5,0.5,0.5,1","","",""
"","html-keyboard-response","59","39762","0.0-59.0","","","","","null","<img src=""img/land2.png"" style=""width:200px; border:14px solid green;"">","null","","","","","","","","","",""
"","image-keyboard-response","60","40029","0.0-60.0","","","","","266.2000000476837","img/land3.png","76","266.69999980926514","3","1","3","2","1,0.5,0.5,0.5,1,0.5,0.5,0.5,1","1,0.5,0.5,0.5,1,0.5,0.5,0.5,1","","",""
"","html-keyboard-response","61","40330","0.0-61.0","","","","","null","<img src=""img/land3.png"" style=""width:200px; border:14px solid green;"">","null","","","","","","","","","",""
"","image-keyboard-response","62","41165","0.0-62.0","","","","","834.7999999523163","img/land1.png","76","835.2999999523163","3","0","1","2","1,0.5,0.5,0.5,1,0.5,0.5,0.5,1","1,0.5,0.5,0.5,1,0.5,0.5,0.5,1","","",""
"","html-keyboard-response","63","41475","0.0-63.0","","","","","null","<img src=""img/land1.png"" style=""width:200px;border:14px solid red;"">","null","","","","","","","","","",""
"","image-keyboard-response","64","42197","0.0-64.0","","","","","721.9000000953674","img/land3.png","76","722.3000001907349","3","1","3","2","1,0.5,0.5,0.5,1,0.5,0.5,0.5,1","1,0.5,0.5,0.5,1,0.5,0.5,0.5,1","","",""
"","html-keyboard-response","65","42499","0.0-65.0","","","","","null","<img src=""img/land3.png"" style=""width:200px; border:14px solid green;"">","null","","","","","","","","","",""
"","image-keyboard-response","66","43102","0.0-66.0","","","","","602","img/land2.png","76","602.5","3","0","2","2","1,0.5,0.5,0.5,1,0.5,0.5,0.5,1","1,0.5,0.5,0.5,1,0.5,0.5,0.5,1","","",""
"","html-keyboard-response","67","43403","0.0-67.0","","","","","null","<img src=""img/land2.png"" style=""width:200px;border:14px solid red;"">","null","","","","","","","","","",""
"","image-keyboard-response","68","43742","0.0-68.0","","","","","338.40000009536743","img/land2.png","74","338.90000009536743","1","0","2","2","1,0.5,0.5,0.5,1,0.5,0.5,0.5,1","1,0.5,0.5,0.5,1,0.5,0.5,0.5,1","","",""
"","html-keyboard-response","69","44043","0.0-69.0","","","","","null","<img src=""img/land2.png"" style=""width:200px;border:14px solid red;"">","null","","","","","","","","","",""
"","image-keyboard-response","70","44438","0.0-70.0","","","","","394.90000009536743","img/land1.png","74","395.19999980926514","1","1","1","2","1,0.5,0.5,0.5,1,0.5,0.5,0.5,1","1,0.5,0.5,0.5,1,0.5,0.5,0.5,1","","",""
"","html-keyboard-response","71","44741","0.0-71.0","","","","","null","<img src=""img/land1.png"" style=""width:200px; border:14px solid green;"">","null","","","","","","","","","",""
"","image-keyboard-response","72","45159","0.0-72.0","","","","","416.7000000476837","img/land2.png","75","417.09999990463257","2","1","2","2","1,0.5,0.5,0.5,1,0.5,0.5,0.5,1","1,0.5,0.5,0.5,1,0.5,0.5,0.5,1","","",""
"","html-keyboard-response","73","45460","0.0-73.0","","","","","null","<img src=""img/land2.png"" style=""width:200px; border:14px solid green;"">","null","","","","","","","","","",""
"","image-keyboard-response","74","45806","0.0-74.0","","","","","345.7000000476837","img/land1.png","74","346.09999990463257","1","1","1","2","1,0.5,0.5,0.5,1,0.5,0.5,0.5,1","1,0.5,0.5,0.5,1,0.5,0.5,0.5,1","","",""
"","html-keyboard-response","75","46108","0.0-75.0","","","","","null","<img src=""img/land1.png"" style=""width:200px; border:14px solid green;"">","null","","","","","","","","","",""
"","image-keyboard-response","76","46606","0.0-76.0","","","","","498.40000009536743","img/land2.png","75","498.7000000476837","2","1","2","2","1,0.5,0.5,0.5,1,0.5,0.5,0.5,1","1,0.5,0.5,0.5,1,0.5,0.5,0.5,1","","",""
"","html-keyboard-response","77","46907","0.0-77.0","","","","","null","<img src=""img/land2.png"" style=""width:200px; border:14px solid green;"">","null","","","","","","","","","",""
"","image-keyboard-response","78","47270","0.0-78.0","","","","","362.7000000476837","img/land2.png","75","363.09999990463257","2","1","2","2","1,0.5,0.5,0.5,1,0.5,0.5,0.5,1","1,0.5,0.5,0.5,1,0.5,0.5,0.5,1","","",""
"","html-keyboard-response","79","47572","0.0-79.0","","","","","null","<img src=""img/land2.png"" style=""width:200px; border:14px solid green;"">","null","","","","","","","","","",""
"","image-keyboard-response","80","47894","0.0-80.0","","","","","322.09999990463257","img/land2.png","75","322.5","2","1","2","2","1,0.5,0.5,0.5,1,0.5,0.5,0.5,1","1,0.5,0.5,0.5,1,0.5,0.5,0.5,1","","",""
"","html-keyboard-response","81","48195","0.0-81.0","","","","","null","<img src=""img/land2.png"" style=""width:200px; border:14px solid green;"">","null","","","","","","","","","",""
"","image-keyboard-response","82","48519","0.0-82.0","","","","","322.59999990463257","img/land2.png","75","323","2","1","2","2","1,0.5,0.5,0.5,1,0.5,0.5,0.5,1","1,0.5,0.5,0.5,1,0.5,0.5,0.5,1","","",""
"","html-keyboard-response","83","48819","0.0-83.0","","","","","null","<img src=""img/land2.png"" style=""width:200px; border:14px solid green;"">","null","","","","","","","","","",""
"","image-keyboard-response","84","49151","0.0-84.0","","","","","331.09999990463257","img/land2.png","75","331.5","2","1","2","2","1,0.5,0.5,0.5,1,0.5,0.5,0.5,1","1,0.5,0.5,0.5,1,0.5,0.5,0.5,1","","",""
"","html-keyboard-response","85","49452","0.0-85.0","","","","","null","<img src=""img/land2.png"" style=""width:200px; border:14px solid green;"">","null","","","","","","","","","",""
"","image-keyboard-response","86","49679","0.0-86.0","","","","","226.60000014305115","img/land2.png","75","227.10000014305115","2","1","2","2","1,0.5,0.5,0.5,1,0.5,0.5,0.5,1","1,0.5,0.5,0.5,1,0.5,0.5,0.5,1","","",""
"","html-keyboard-response","87","49980","0.0-87.0","","","","","null","<img src=""img/land2.png"" style=""width:200px; border:14px solid green;"">","null","","","","","","","","","",""
"","image-keyboard-response","88","50351","0.0-88.0","","","","","370.2000000476837","img/land2.png","75","370.60000014305115","2","1","2","2","1,0.5,0.5,0.5,1,0.5,0.5,0.5,1","1,0.5,0.5,0.5,1,0.5,0.5,0.5,1","","",""
"","html-keyboard-response","89","50652","0.0-89.0","","","","","null","<img src=""img/land2.png"" style=""width:200px; border:14px solid green;"">","null","","","","","","","","","",""
"","image-keyboard-response","90","50879","0.0-90.0","","","","","226.70000004768372","img/land2.png","75","227","2","1","2","2","1,0.5,0.5,0.5,1,0.5,0.5,0.5,1","1,0.5,0.5,0.5,1,0.5,0.5,0.5,1","","",""
"","html-keyboard-response","91","51180","0.0-91.0","","","","","null","<img src=""img/land2.png"" style=""width:200px; border:14px solid green;"">","null","","","","","","","","","",""
"","image-keyboard-response","92","51447","0.0-92.0","","","","","266.2999999523163","img/land1.png","75","266.59999990463257","2","1","1","2","1,0.5,0.5,0.5,1,0.5,0.5,0.5,1","1,0.5,0.5,0.5,1,0.5,0.5,0.5,1","","",""
"","html-keyboard-response","93","51748","0.0-93.0","","","","","null","<img src=""img/land1.png"" style=""width:200px; border:14px solid green;"">","null","","","","","","","","","",""
"","image-keyboard-response","94","51935","0.0-94.0","","","","","186.70000004768372","img/land2.png","74","187.09999990463257","1","1","2","2","1,0.5,0.5,0.5,1,0.5,0.5,0.5,1","1,0.5,0.5,0.5,1,0.5,0.5,0.5,1","","",""
"","html-keyboard-response","95","52236","0.0-95.0","","","","","null","<img src=""img/land2.png"" style=""width:200px; border:14px solid green;"">","null","","","","","","","","","",""
"","image-keyboard-response","96","52391","0.0-96.0","","","","","154.30000019073486","img/land3.png","74","154.79999995231628","1","0","3","2","1,0.5,0.5,0.5,1,0.5,0.5,0.5,1","1,0.5,0.5,0.5,1,0.5,0.5,0.5,1","","",""
"","html-keyboard-response","97","52692","0.0-97.0","","","","","null","<img src=""img/land3.png"" style=""width:200px;border:14px solid red;"">","null","","","","","","","","","",""
"","image-keyboard-response","98","52967","0.0-98.0","","","","","275.09999990463257","img/land2.png","74","275.5","1","1","2","2","1,0.5,0.5,0.5,1,0.5,0.5,0.5,1","1,0.5,0.5,0.5,1,0.5,0.5,0.5,1","","",""
"","html-keyboard-response","99","53268","0.0-99.0","","","","","null","<img src=""img/land2.png"" style=""width:200px; border:14px solid green;"">","null","","","","","","","","","",""
"","image-keyboard-response","100","53647","0.0-100.0","","","","","378.59999990463257","img/land2.png","75","379","2","1","2","2","1,0.5,0.5,0.5,1,0.5,0.5,0.5,1","1,0.5,0.5,0.5,1,0.5,0.5,0.5,1","","",""
"","html-keyboard-response","101","53948","0.0-101.0","","","","","null","<img src=""img/land2.png"" style=""width:200px; border:14px solid green;"">","null","","","","","","","","","",""
"","image-keyboard-response","102","54151","0.0-102.0","","","","","203.20000004768372","img/land3.png","75","203.5","2","1","3","2","1,0.5,0.5,0.5,1,0.5,0.5,0.5,1","1,0.5,0.5,0.5,1,0.5,0.5,0.5,1","","",""
"","html-keyboard-response","103","54452","0.0-103.0","","","","","null","<img src=""img/land3.png"" style=""width:200px; border:14px solid green;"">","null","","","","","","","","","",""
"","image-keyboard-response","104","54759","0.0-104.0","","","","","306.5","img/land2.png","76","307","3","0","2","2","1,0.5,0.5,0.5,1,0.5,0.5,0.5,1","1,0.5,0.5,0.5,1,0.5,0.5,0.5,1","","",""
"","html-keyboard-response","105","55061","0.0-105.0","","","","","null","<img src=""img/land2.png"" style=""width:200px;border:14px solid red;"">","null","","","","","","","","","",""
"","image-keyboard-response","106","55384","0.0-106.0","","","","","322.2999999523163","img/land2.png","75","322.69999980926514","2","1","2","2","1,0.5,0.5,0.5,1,0.5,0.5,0.5,1","1,0.5,0.5,0.5,1,0.5,0.5,0.5,1","","",""
"","html-keyboard-response","107","55684","0.0-107.0","","","","","null","<img src=""img/land2.png"" style=""width:200px; border:14px solid green;"">","null","","","","","","","","","",""
"","image-keyboard-response","108","55808","0.0-108.0","","","","","122.40000009536743","img/land2.png","75","123.10000014305115","2","1","2","2","1,0.5,0.5,0.5,1,0.5,0.5,0.5,1","1,0.5,0.5,0.5,1,0.5,0.5,0.5,1","","",""
"","html-keyboard-response","109","56109","0.0-109.0","","","","","null","<img src=""img/land2.png"" style=""width:200px; border:14px solid green;"">","null","","","","","","","","","",""
"","image-keyboard-response","110","56207","0.0-110.0","","","","","98.20000004768372","img/land2.png","74","98.69999980926514","1","0","2","2","1,0.5,0.5,0.5,1,0.5,0.5,0.5,1","1,0.5,0.5,0.5,1,0.5,0.5,0.5,1","","",""
"","html-keyboard-response","111","56520","0.0-111.0","","","","","null","<img src=""img/land2.png"" style=""width:200px;border:14px solid red;"">","null","","","","","","","","","",""
"","image-keyboard-response","112","56655","0.0-112.0","","","","","134.90000009536743","img/land2.png","75","135.29999995231628","2","1","2","2","1,0.5,0.5,0.5,1,0.5,0.5,0.5,1","1,0.5,0.5,0.5,1,0.5,0.5,0.5,1","","",""
"","html-keyboard-response","113","56956","0.0-113.0","","","","","null","<img src=""img/land2.png"" style=""width:200px; border:14px solid green;"">","null","","","","","","","","","",""
"","image-keyboard-response","114","57056","0.0-114.0","","","","","98.5","img/land3.png","75","99","2","1","3","2","1,0.5,0.5,0.5,1,0.5,0.5,0.5,1","1,0.5,0.5,0.5,1,0.5,0.5,0.5,1","","",""
"","html-keyboard-response","115","57357","0.0-115.0","","","","","null","<img src=""img/land3.png"" style=""width:200px; border:14px solid green;"">","null","","","","","","","","","",""
"","image-keyboard-response","116","57536","0.0-116.0","","","","","178.20000004768372","img/land2.png","76","178.70000004768372","3","1","2","2","1,0.5,0.5,0.5,1,0.5,0.5,0.5,1","1,0.5,0.5,0.5,1,0.5,0.5,0.5,1","","",""
"","html-keyboard-response","117","57836","0.0-117.0","","","","","null","<img src=""img/land2.png"" style=""width:200px; border:14px solid green;"">","null","","","","","","","","","",""
"","image-keyboard-response","118","58152","0.0-118.0","","","","","314.89999985694885","img/land2.png","75","315.39999985694885","2","1","2","2","1,0.5,0.5,0.5,1,0.5,0.5,0.5,1","1,0.5,0.5,0.5,1,0.5,0.5,0.5,1","","",""
"","html-keyboard-response","119","58453","0.0-119.0","","","","","null","<img src=""img/land2.png"" style=""width:200px; border:14px solid green;"">","null","","","","","","","","","",""
"","image-keyboard-response","120","58640","0.0-120.0","","","","","186.40000009536743","img/land1.png","76","186.79999995231628","3","1","1","2","1,0.5,0.5,0.5,1,0.5,0.5,0.5,1","1,0.5,0.5,0.5,1,0.5,0.5,0.5,1","","",""
"","html-keyboard-response","121","58940","0.0-121.0","","","","","null","<img src=""img/land1.png"" style=""width:200px; border:14px solid green;"">","null","","","","","","","","","",""
"","image-keyboard-response","122","59160","0.0-122.0","","","","","219","img/land2.png","75","219.5","2","1","2","2","1,0.5,0.5,0.5,1,0.5,0.5,0.5,1","1,0.5,0.5,0.5,1,0.5,0.5,0.5,1","","",""
"","html-keyboard-response","123","59461","0.0-123.0","","","","","null","<img src=""img/land2.png"" style=""width:200px; border:14px solid green;"">","null","","","","","","","","","",""
"","image-keyboard-response","124","59792","0.0-124.0","","","","","330.59999990463257","img/land2.png","75","331.09999990463257","2","1","2","2","1,0.5,0.5,0.5,1,0.5,0.5,0.5,1","1,0.5,0.5,0.5,1,0.5,0.5,0.5,1","","",""
"","html-keyboard-response","125","60093","0.0-125.0","","","","","null","<img src=""img/land2.png"" style=""width:200px; border:14px solid green;"">","null","","","","","","","","","",""
"","image-keyboard-response","126","60336","0.0-126.0","","","","","242.29999995231628","img/land1.png","75","242.70000004768372","2","0","1","2","1,0.5,0.5,0.5,1,0.5,0.5,0.5,1","1,0.5,0.5,0.5,1,0.5,0.5,0.5,1","","",""
"","html-keyboard-response","127","60637","0.0-127.0","","","","","null","<img src=""img/land1.png"" style=""width:200px;border:14px solid red;"">","null","","","","","","","","","",""
"","image-keyboard-response","128","60872","0.0-128.0","","","","","234.70000004768372","img/land2.png","74","235.09999990463257","1","1","2","2","1,0.5,0.5,0.5,1,0.5,0.5,0.5,1","1,0.5,0.5,0.5,1,0.5,0.5,0.5,1","","",""
"","html-keyboard-response","129","61175","0.0-129.0","","","","","null","<img src=""img/land2.png"" style=""width:200px; border:14px solid green;"">","null","","","","","","","","","",""
"","image-keyboard-response","130","61400","0.0-130.0","","","","","224.20000004768372","img/land2.png","75","224.59999990463257","2","1","2","2","1,0.5,0.5,0.5,1,0.5,0.5,0.5,1","1,0.5,0.5,0.5,1,0.5,0.5,0.5,1","","",""
"","html-keyboard-response","131","61701","0.0-131.0","","","","","null","<img src=""img/land2.png"" style=""width:200px; border:14px solid green;"">","null","","","","","","","","","",""
"","image-keyboard-response","132","61896","0.0-132.0","","","","","194.79999995231628","img/land1.png","75","195.29999995231628","2","1","1","2","1,0.5,0.5,0.5,1,0.5,0.5,0.5,1","1,0.5,0.5,0.5,1,0.5,0.5,0.5,1","","",""
"","html-keyboard-response","133","62197","0.0-133.0","","","","","null","<img src=""img/land1.png"" style=""width:200px; border:14px solid green;"">","null","","","","","","","","","",""
"","image-keyboard-response","134","62368","0.0-134.0","","","","","170.60000014305115","img/land2.png","76","170.89999985694885","3","0","2","2","1,0.5,0.5,0.5,1,0.5,0.5,0.5,1","1,0.5,0.5,0.5,1,0.5,0.5,0.5,1","","",""
"","html-keyboard-response","135","62670","0.0-135.0","","","","","null","<img src=""img/land2.png"" style=""width:200px;border:14px solid red;"">","null","","","","","","","","","",""
"","image-keyboard-response","136","62816","0.0-136.0","","","","","146.10000014305115","img/land1.png","74","146.5","1","1","1","2","1,0.5,0.5,0.5,1,0.5,0.5,0.5,1","1,0.5,0.5,0.5,1,0.5,0.5,0.5,1","","",""
"","html-keyboard-response","137","63117","0.0-137.0","","","","","null","<img src=""img/land1.png"" style=""width:200px; border:14px solid green;"">","null","","","","","","","","","",""
"","image-keyboard-response","138","63408","0.0-138.0","","","","","290.7000000476837","img/land2.png","75","291.2000000476837","2","1","2","2","1,0.5,0.5,0.5,1,0.5,0.5,0.5,1","1,0.5,0.5,0.5,1,0.5,0.5,0.5,1","","",""
"","html-keyboard-response","139","63710","0.0-139.0","","","","","null","<img src=""img/land2.png"" style=""width:200px; border:14px solid green;"">","null","","","","","","","","","",""
"","image-keyboard-response","140","63896","0.0-140.0","","","","","186.29999995231628","img/land2.png","74","186.70000004768372","1","1","2","2","1,0.5,0.5,0.5,1,0.5,0.5,0.5,1","1,0.5,0.5,0.5,1,0.5,0.5,0.5,1","","",""
"","html-keyboard-response","141","64197","0.0-141.0","","","","","null","<img src=""img/land2.png"" style=""width:200px; border:14px solid green;"">","null","","","","","","","","","",""
"","image-keyboard-response","142","64505","0.0-142.0","","","","","306.90000009536743","img/land3.png","75","307.39999985694885","2","0","3","2","1,0.5,0.5,0.5,1,0.5,0.5,0.5,1","1,0.5,0.5,0.5,1,0.5,0.5,0.5,1","","",""
"","html-keyboard-response","143","64806","0.0-143.0","","","","","null","<img src=""img/land3.png"" style=""width:200px;border:14px solid red;"">","null","","","","","","","","","",""
"","image-keyboard-response","144","65032","0.0-144.0","","","","","226.30000019073486","img/land2.png","74","226.79999995231628","1","0","2","2","1,0.5,0.5,0.5,1,0.5,0.5,0.5,1","1,0.5,0.5,0.5,1,0.5,0.5,0.5,1","","",""
"","html-keyboard-response","145","65333","0.0-145.0","","","","","null","<img src=""img/land2.png"" style=""width:200px;border:14px solid red;"">","null","","","","","","","","","",""
"","image-keyboard-response","146","65457","0.0-146.0","","","","","123","img/land2.png","75","123.39999985694885","2","1","2","2","1,0.5,0.5,0.5,1,0.5,0.5,0.5,1","1,0.5,0.5,0.5,1,0.5,0.5,0.5,1","","",""
"","html-keyboard-response","147","65757","0.0-147.0","","","","","null","<img src=""img/land2.png"" style=""width:200px; border:14px solid green;"">","null","","","","","","","","","",""
"","image-keyboard-response","148","65841","0.0-148.0","","","","","82.59999990463257","img/land2.png","75","83.10000014305115","2","1","2","2","1,0.5,0.5,0.5,1,0.5,0.5,0.5,1","1,0.5,0.5,0.5,1,0.5,0.5,0.5,1","","",""
"","html-keyboard-response","149","66142","0.0-149.0","","","","","null","<img src=""img/land2.png"" style=""width:200px; border:14px solid green;"">","null","","","","","","","","","",""
"","image-keyboard-response","150","66297","0.0-150.0","","","","","154.5","img/land2.png","75","155.19999980926514","2","1","2","2","1,0.5,0.5,0.5,1,0.5,0.5,0.5,1","1,0.5,0.5,0.5,1,0.5,0.5,0.5,1","","",""
"","html-keyboard-response","151","66598","0.0-151.0","","","","","null","<img src=""img/land2.png"" style=""width:200px; border:14px solid green;"">","null","","","","","","","","","",""
"","image-keyboard-response","152","66609","0.0-152.0","","","","","10","img/land1.png","74","10.299999952316284","1","1","1","2","1,0.5,0.5,0.5,1,0.5,0.5,0.5,1","1,0.5,0.5,0.5,1,0.5,0.5,0.5,1","","",""
"","html-keyboard-response","153","66910","0.0-153.0","","","","","null","<img src=""img/land1.png"" style=""width:200px; border:14px solid green;"">","null","","","","","","","","","",""
"","image-keyboard-response","154","67097","0.0-154.0","","","","","186.5","img/land1.png","74","187.09999990463257","1","1","1","2","1,0.5,0.5,0.5,1,0.5,0.5,0.5,1","1,0.5,0.5,0.5,1,0.5,0.5,0.5,1","","",""
"","html-keyboard-response","155","67398","0.0-155.0","","","","","null","<img src=""img/land1.png"" style=""width:200px; border:14px solid green;"">","null","","","","","","","","","",""
"","image-keyboard-response","156","67449","0.0-156.0","","","","","50.09999990463257","img/land1.png","74","50.5","1","1","1","2","1,0.5,0.5,0.5,1,0.5,0.5,0.5,1","1,0.5,0.5,0.5,1,0.5,0.5,0.5,1","","",""
"","html-keyboard-response","157","67750","0.0-157.0","","","","","null","<img src=""img/land1.png"" style=""width:200px; border:14px solid green;"">","null","","","","","","","","","",""
"","image-keyboard-response","158","67897","0.0-158.0","","","","","146.09999990463257","img/land2.png","75","146.5","2","1","2","2","1,0.5,0.5,0.5,1,0.5,0.5,0.5,1","1,0.5,0.5,0.5,1,0.5,0.5,0.5,1","","",""
"","html-keyboard-response","159","68198","0.0-159.0","","","","","null","<img src=""img/land2.png"" style=""width:200px; border:14px solid green;"">","null","","","","","","","","","",""
"","image-keyboard-response","160","68249","0.0-160.0","","","","","50.700000047683716","img/land2.png","74","51.10000014305115","1","0","2","2","1,0.5,0.5,0.5,1,0.5,0.5,0.5,1","1,0.5,0.5,0.5,1,0.5,0.5,0.5,1","","",""
"","html-keyboard-response","161","68550","0.0-161.0","","","","","null","<img src=""img/land2.png"" style=""width:200px;border:14px solid red;"">","null","","","","","","","","","",""
"","image-keyboard-response","162","68553","0.0-162.0","","","","","2.4000000953674316","img/land1.png","75","2.799999952316284","2","0","1","2","1,0.5,0.5,0.5,1,0.5,0.5,0.5,1","1,0.5,0.5,0.5,1,0.5,0.5,0.5,1","","",""
"","html-keyboard-response","163","68853","0.0-163.0","","","","","null","<img src=""img/land1.png"" style=""width:200px;border:14px solid red;"">","null","","","","","","","","","",""
"","image-keyboard-response","164","69137","0.0-164.0","","","","","283.2000000476837","img/land2.png","76","283.59999990463257","3","1","2","2","1,0.5,0.5,0.5,1,0.5,0.5,0.5,1","1,0.5,0.5,0.5,1,0.5,0.5,0.5,1","","",""
"","html-keyboard-response","165","69438","0.0-165.0","","","","","null","<img src=""img/land2.png"" style=""width:200px; border:14px solid green;"">","null","","","","","","","","","",""
"","image-keyboard-response","166","69625","0.0-166.0","","","","","186.70000004768372","img/land3.png","75","187","2","1","3","2","1,0.5,0.5,0.5,1,0.5,0.5,0.5,1","1,0.5,0.5,0.5,1,0.5,0.5,0.5,1","","",""
"","html-keyboard-response","167","69926","0.0-167.0","","","","","null","<img src=""img/land3.png"" style=""width:200px; border:14px solid green;"">","null","","","","","","","","","",""
"","image-keyboard-response","168","70153","0.0-168.0","","","","","226.20000004768372","img/land2.png","74","226.69999980926514","1","1","2","2","1,0.5,0.5,0.5,1,0.5,0.5,0.5,1","1,0.5,0.5,0.5,1,0.5,0.5,0.5,1","","",""
"","html-keyboard-response","169","70461","0.0-169.0","","","","","null","<img src=""img/land2.png"" style=""width:200px; border:14px solid green;"">","null","","","","","","","","","",""
"","image-keyboard-response","170","70497","0.0-170.0","","","","","35.89999985694885","img/land1.png","74","36.299999952316284","1","1","1","2","1,0.5,0.5,0.5,1,0.5,0.5,0.5,1","1,0.5,0.5,0.5,1,0.5,0.5,0.5,1","","",""
"","html-keyboard-response","171","70798","0.0-171.0","","","","","null","<img src=""img/land1.png"" style=""width:200px; border:14px solid green;"">","null","","","","","","","","","",""
"","image-keyboard-response","172","71065","0.0-172.0","","","","","266.59999990463257","img/land1.png","75","267","2","1","1","2","1,0.5,0.5,0.5,1,0.5,0.5,0.5,1","1,0.5,0.5,0.5,1,0.5,0.5,0.5,1","","",""
"","html-keyboard-response","173","71367","0.0-173.0","","","","","null","<img src=""img/land1.png"" style=""width:200px; border:14px solid green;"">","null","","","","","","","","","",""
"","image-keyboard-response","174","71609","0.0-174.0","","","","","242.20000004768372","img/land2.png","75","242.60000014305115","2","1","2","2","1,0.5,0.5,0.5,1,0.5,0.5,0.5,1","1,0.5,0.5,0.5,1,0.5,0.5,0.5,1","","",""
"","html-keyboard-response","175","71917","0.0-175.0","","","","","null","<img src=""img/land2.png"" style=""width:200px; border:14px solid green;"">","null","","","","","","","","","",""
"","image-keyboard-response","176","72017","0.0-176.0","","","","","99.70000004768372","img/land3.png","76","100.20000004768372","3","1","3","2","1,0.5,0.5,0.5,1,0.5,0.5,0.5,1","1,0.5,0.5,0.5,1,0.5,0.5,0.5,1","","",""
"","html-keyboard-response","177","72318","0.0-177.0","","","","","null","<img src=""img/land3.png"" style=""width:200px; border:14px solid green;"">","null","","","","","","","","","",""
"","image-keyboard-response","178","72345","0.0-178.0","","","","","26.399999856948853","img/land3.png","74","26.90000009536743","1","0","3","2","1,0.5,0.5,0.5,1,0.5,0.5,0.5,1","1,0.5,0.5,0.5,1,0.5,0.5,0.5,1","","",""
"","html-keyboard-response","179","72647","0.0-179.0","","","","","null","<img src=""img/land3.png"" style=""width:200px;border:14px solid red;"">","null","","","","","","","","","",""
"","image-keyboard-response","180","72817","0.0-180.0","","","","","170.20000004768372","img/land2.png","75","170.5","2","1","2","2","1,0.5,0.5,0.5,1,0.5,0.5,0.5,1","1,0.5,0.5,0.5,1,0.5,0.5,0.5,1","","",""
"","html-keyboard-response","181","73118","0.0-181.0","","","","","null","<img src=""img/land2.png"" style=""width:200px; border:14px solid green;"">","null","","","","","","","","","",""
"","image-keyboard-response","182","73361","0.0-182.0","","","","","242.70000004768372","img/land1.png","75","243.20000004768372","2","1","1","2","1,0.5,0.5,0.5,1,0.5,0.5,0.5,1","1,0.5,0.5,0.5,1,0.5,0.5,0.5,1","","",""
"","html-keyboard-response","183","73663","0.0-183.0","","","","","null","<img src=""img/land1.png"" style=""width:200px; border:14px solid green;"">","null","","","","","","","","","",""
"","image-keyboard-response","184","73961","0.0-184.0","","","","","298.30000019073486","img/land2.png","76","298.7999999523163","3","0","2","2","1,0.5,0.5,0.5,1,0.5,0.5,0.5,1","1,0.5,0.5,0.5,1,0.5,0.5,0.5,1","","",""
"","html-keyboard-response","185","74262","0.0-185.0","","","","","null","<img src=""img/land2.png"" style=""width:200px;border:14px solid red;"">","null","","","","","","","","","",""
"","image-keyboard-response","186","74410","0.0-186.0","","","","","147.20000004768372","img/land3.png","75","147.60000014305115","2","1","3","2","1,0.5,0.5,0.5,1,0.5,0.5,0.5,1","1,0.5,0.5,0.5,1,0.5,0.5,0.5,1","","",""
"","html-keyboard-response","187","74723","0.0-187.0","","","","","null","<img src=""img/land3.png"" style=""width:200px; border:14px solid green;"">","null","","","","","","","","","",""
"","image-keyboard-response","188","74970","0.0-188.0","","","","","246.09999990463257","img/land2.png","76","246.79999995231628","3","1","2","2","1,0.5,0.5,0.5,1,0.5,0.5,0.5,1","1,0.5,0.5,0.5,1,0.5,0.5,0.5,1","","",""
"","html-keyboard-response","189","75271","0.0-189.0","","","","","null","<img src=""img/land2.png"" style=""width:200px; border:14px solid green;"">","null","","","","","","","","","",""
"","image-keyboard-response","190","75490","0.0-190.0","","","","","218.20000004768372","img/land3.png","76","218.59999990463257","3","1","3","2","1,0.5,0.5,0.5,1,0.5,0.5,0.5,1","1,0.5,0.5,0.5,1,0.5,0.5,0.5,1","","",""
"","html-keyboard-response","191","75791","0.0-191.0","","","","","null","<img src=""img/land3.png"" style=""width:200px; border:14px solid green;"">","null","","","","","","","","","",""
"","image-keyboard-response","192","75898","0.0-192.0","","","","","106.79999995231628","img/land1.png","75","107.29999995231628","2","0","1","2","1,0.5,0.5,0.5,1,0.5,0.5,0.5,1","1,0.5,0.5,0.5,1,0.5,0.5,0.5,1","","",""
"","html-keyboard-response","193","76199","0.0-193.0","","","","","null","<img src=""img/land1.png"" style=""width:200px;border:14px solid red;"">","null","","","","","","","","","",""
"","image-keyboard-response","194","76306","0.0-194.0","","","","","106.29999995231628","img/land3.png","74","106.80000019073486","1","1","3","2","1,0.5,0.5,0.5,1,0.5,0.5,0.5,1","1,0.5,0.5,0.5,1,0.5,0.5,0.5,1","","",""
"","html-keyboard-response","195","76606","0.0-195.0","","","","","null","<img src=""img/land3.png"" style=""width:200px; border:14px solid green;"">","null","","","","","","","","","",""
"","image-keyboard-response","196","76658","0.0-196.0","","","","","51","img/land2.png","74","51.59999990463257","1","1","2","2","1,0.5,0.5,0.5,1,0.5,0.5,0.5,1","1,0.5,0.5,0.5,1,0.5,0.5,0.5,1","","",""
"","html-keyboard-response","197","76959","0.0-197.0","","","","","null","<img src=""img/land2.png"" style=""width:200px; border:14px solid green;"">","null","","","","","","","","","",""
"","image-keyboard-response","198","77034","0.0-198.0","","","","","74.69999980926514","img/land2.png","75","75.39999985694885","2","1","2","2","1,0.5,0.5,0.5,1,0.5,0.5,0.5,1","1,0.5,0.5,0.5,1,0.5,0.5,0.5,1","","",""
"","html-keyboard-response","199","77335","0.0-199.0","","","","","null","<img src=""img/land2.png"" style=""width:200px; border:14px solid green;"">","null","","","","","","","","","",""
"","image-keyboard-response","200","77546","0.0-200.0","","","","","210.5","img/land2.png","75","210.90000009536743","2","1","2","2","1,0.5,0.5,0.5,1,0.5,0.5,0.5,1","1,0.5,0.5,0.5,1,0.5,0.5,0.5,1","","",""
"","html-keyboard-response","201","77847","0.0-201.0","","","","","null","<img src=""img/land2.png"" style=""width:200px; border:14px solid green;"">","null","","","","","","","","","",""
"","image-keyboard-response","202","77882","0.0-202.0","","","","","34.09999990463257","img/land2.png","76","34.5","3","0","2","2","1,0.5,0.5,0.5,1,0.5,0.5,0.5,1","1,0.5,0.5,0.5,1,0.5,0.5,0.5,1","","",""
"","html-keyboard-response","203","78183","0.0-203.0","","","","","null","<img src=""img/land2.png"" style=""width:200px;border:14px solid red;"">","null","","","","","","","","","",""
"","image-keyboard-response","204","78210","0.0-204.0","","","","","26.700000047683716","img/land2.png","74","27.199999809265137","1","0","2","2","1,0.5,0.5,0.5,1,0.5,0.5,0.5,1","1,0.5,0.5,0.5,1,0.5,0.5,0.5,1","","",""
"","html-keyboard-response","205","78511","0.0-205.0","","","","","null","<img src=""img/land2.png"" style=""width:200px;border:14px solid red;"">","null","","","","","","","","","",""
"","image-keyboard-response","206","78578","0.0-206.0","","","","","66.5","img/land3.png","75","66.89999985694885","2","0","3","2","1,0.5,0.5,0.5,1,0.5,0.5,0.5,1","1,0.5,0.5,0.5,1,0.5,0.5,0.5,1","","",""
"","html-keyboard-response","207","78879","0.0-207.0","","","","","null","<img src=""img/land3.png"" style=""width:200px;border:14px solid red;"">","null","","","","","","","","","",""
"","image-keyboard-response","208","79130","0.0-208.0","","","","","250.39999985694885","img/land2.png","75","250.70000004768372","2","1","2","2","1,0.5,0.5,0.5,1,0.5,0.5,0.5,1","1,0.5,0.5,0.5,1,0.5,0.5,0.5,1","","",""
"","html-keyboard-response","209","79431","0.0-209.0","","","","","null","<img src=""img/land2.png"" style=""width:200px; border:14px solid green;"">","null","","","","","","","","","",""
"","image-keyboard-response","210","79634","0.0-210.0","","","","","202.79999995231628","img/land2.png","75","203.10000014305115","2","1","2","2","1,0.5,0.5,0.5,1,0.5,0.5,0.5,1","1,0.5,0.5,0.5,1,0.5,0.5,0.5,1","","",""
"","html-keyboard-response","211","79935","0.0-211.0","","","","","null","<img src=""img/land2.png"" style=""width:200px; border:14px solid green;"">","null","","","","","","","","","",""
"","image-keyboard-response","212","80090","0.0-212.0","","","","","154.40000009536743","img/land2.png","75","154.79999995231628","2","1","2","2","1,0.5,0.5,0.5,1,0.5,0.5,0.5,1","1,0.5,0.5,0.5,1,0.5,0.5,0.5,1","","",""
"","html-keyboard-response","213","80392","0.0-213.0","","","","","null","<img src=""img/land2.png"" style=""width:200px; border:14px solid green;"">","null","","","","","","","","","",""
"","image-keyboard-response","214","80498","0.0-214.0","","","","","106","img/land1.png","75","106.29999995231628","2","0","1","2","1,0.5,0.5,0.5,1,0.5,0.5,0.5,1","1,0.5,0.5,0.5,1,0.5,0.5,0.5,1","","",""
"","html-keyboard-response","215","80799","0.0-215.0","","","","","null","<img src=""img/land1.png"" style=""width:200px;border:14px solid red;"">","null","","","","","","","","","",""
"","image-keyboard-response","216","81066","0.0-216.0","","","","","266.7000000476837","img/land2.png","75","267.10000014305115","2","1","2","2","1,0.5,0.5,0.5,1,0.5,0.5,0.5,1","1,0.5,0.5,0.5,1,0.5,0.5,0.5,1","","",""
"","html-keyboard-response","217","81368","0.0-217.0","","","","","null","<img src=""img/land2.png"" style=""width:200px; border:14px solid green;"">","null","","","","","","","","","",""
"","image-keyboard-response","218","81618","0.0-218.0","","","","","250.30000019073486","img/land2.png","75","250.79999995231628","2","1","2","2","1,0.5,0.5,0.5,1,0.5,0.5,0.5,1","1,0.5,0.5,0.5,1,0.5,0.5,0.5,1","","",""
"","html-keyboard-response","219","81919","0.0-219.0","","","","","null","<img src=""img/land2.png"" style=""width:200px; border:14px solid green;"">","null","","","","","","","","","",""
"","image-keyboard-response","220","82074","0.0-220.0","","","","","154.80000019073486","img/land3.png","75","155.20000004768372","2","1","3","2","1,0.5,0.5,0.5,1,0.5,0.5,0.5,1","1,0.5,0.5,0.5,1,0.5,0.5,0.5,1","","",""
"","html-keyboard-response","221","82376","0.0-221.0","","","","","null","<img src=""img/land3.png"" style=""width:200px; border:14px solid green;"">","null","","","","","","","","","",""
"","image-keyboard-response","222","82378","0.0-222.0","","","","","2.5","img/land2.png","74","2.799999952316284","1","1","2","2","1,0.5,0.5,0.5,1,0.5,0.5,0.5,1","1,0.5,0.5,0.5,1,0.5,0.5,0.5,1","","",""
"","html-keyboard-response","223","82680","0.0-223.0","","","","","null","<img src=""img/land2.png"" style=""width:200px; border:14px solid green;"">","null","","","","","","","","","",""
"","image-keyboard-response","224","82987","0.0-224.0","","","","","306.2000000476837","img/land3.png","74","306.59999990463257","1","0","3","2","1,0.5,0.5,0.5,1,0.5,0.5,0.5,1","1,0.5,0.5,0.5,1,0.5,0.5,0.5,1","","",""
"","html-keyboard-response","225","83287","0.0-225.0","","","","","null","<img src=""img/land3.png"" style=""width:200px;border:14px solid red;"">","null","","","","","","","","","",""
"","image-keyboard-response","226","83539","0.0-226.0","","","","","250.69999980926514","img/land2.png","75","251.20000004768372","2","1","2","2","1,0.5,0.5,0.5,1,0.5,0.5,0.5,1","1,0.5,0.5,0.5,1,0.5,0.5,0.5,1","","",""
"","html-keyboard-response","227","83840","0.0-227.0","","","","","null","<img src=""img/land2.png"" style=""width:200px; border:14px solid green;"">","null","","","","","","","","","",""
"","image-keyboard-response","228","84147","0.0-228.0","","","","","306.40000009536743","img/land2.png","75","306.60000014305115","2","1","2","2","1,0.5,0.5,0.5,1,0.5,0.5,0.5,1","1,0.5,0.5,0.5,1,0.5,0.5,0.5,1","","",""
"","html-keyboard-response","229","84447","0.0-229.0","","","","","null","<img src=""img/land2.png"" style=""width:200px; border:14px solid green;"">","null","","","","","","","","","",""
"","image-keyboard-response","230","84547","0.0-230.0","","","","","98.70000004768372","img/land2.png","75","99.09999990463257","2","1","2","2","1,0.5,0.5,0.5,1,0.5,0.5,0.5,1","1,0.5,0.5,0.5,1,0.5,0.5,0.5,1","","",""
"","html-keyboard-response","231","84848","0.0-231.0","","","","","null","<img src=""img/land2.png"" style=""width:200px; border:14px solid green;"">","null","","","","","","","","","",""
"","image-keyboard-response","232","85043","0.0-232.0","","","","","194.59999990463257","img/land2.png","75","194.90000009536743","2","1","2","2","1,0.5,0.5,0.5,1,0.5,0.5,0.5,1","1,0.5,0.5,0.5,1,0.5,0.5,0.5,1","","",""
"","html-keyboard-response","233","85344","0.0-233.0","","","","","null","<img src=""img/land2.png"" style=""width:200px; border:14px solid green;"">","null","","","","","","","","","",""
"","image-keyboard-response","234","85403","0.0-234.0","","","","","58.09999990463257","img/land2.png","75","58.40000009536743","2","1","2","2","1,0.5,0.5,0.5,1,0.5,0.5,0.5,1","1,0.5,0.5,0.5,1,0.5,0.5,0.5,1","","",""
"","html-keyboard-response","235","85704","0.0-235.0","","","","","null","<img src=""img/land2.png"" style=""width:200px; border:14px solid green;"">","null","","","","","","","","","",""
"","image-keyboard-response","236","85787","0.0-236.0","","","","","82.79999995231628","img/land2.png","75","83.29999995231628","2","1","2","2","1,0.5,0.5,0.5,1,0.5,0.5,0.5,1","1,0.5,0.5,0.5,1,0.5,0.5,0.5,1","","",""
"","html-keyboard-response","237","86088","0.0-237.0","","","","","null","<img src=""img/land2.png"" style=""width:200px; border:14px solid green;"">","null","","","","","","","","","",""
"","image-keyboard-response","238","86187","0.0-238.0","","","","","98.39999985694885","img/land2.png","75","98.90000009536743","2","1","2","2","1,0.5,0.5,0.5,1,0.5,0.5,0.5,1","1,0.5,0.5,0.5,1,0.5,0.5,0.5,1","","",""
"","html-keyboard-response","239","86488","0.0-239.0","","","","","null","<img src=""img/land2.png"" style=""width:200px; border:14px solid green;"">","null","","","","","","","","","",""
"","image-keyboard-response","240","86539","0.0-240.0","","","","","50.200000047683716","img/land1.png","75","50.5","2","0","1","2","1,0.5,0.5,0.5,1,0.5,0.5,0.5,1","1,0.5,0.5,0.5,1,0.5,0.5,0.5,1","","",""
"","html-keyboard-response","241","86840","0.0-241.0","","","","","null","<img src=""img/land1.png"" style=""width:200px;border:14px solid red;"">","null","","","","","","","","","",""
"","image-keyboard-response","242","86947","0.0-242.0","","","","","107","img/land3.png","74","107.40000009536743","1","1","3","2","1,0.5,0.5,0.5,1,0.5,0.5,0.5,1","1,0.5,0.5,0.5,1,0.5,0.5,0.5,1","","",""
"","html-keyboard-response","243","87248","0.0-243.0","","","","","null","<img src=""img/land3.png"" style=""width:200px; border:14px solid green;"">","null","","","","","","","","","",""
"","image-keyboard-response","244","87555","0.0-244.0","","","","","306.5","img/land2.png","74","306.89999985694885","1","1","2","2","1,0.5,0.5,0.5,1,0.5,0.5,0.5,1","1,0.5,0.5,0.5,1,0.5,0.5,0.5,1","","",""
"","html-keyboard-response","245","87857","0.0-245.0","","","","","null","<img src=""img/land2.png"" style=""width:200px; border:14px solid green;"">","null","","","","","","","","","",""
"","image-keyboard-response","246","87939","0.0-246.0","","","","","81.79999995231628","img/land2.png","75","82.29999995231628","2","1","2","2","1,0.5,0.5,0.5,1,0.5,0.5,0.5,1","1,0.5,0.5,0.5,1,0.5,0.5,0.5,1","","",""
"","html-keyboard-response","247","88240","0.0-247.0","","","","","null","<img src=""img/land2.png"" style=""width:200px; border:14px solid green;"">","null","","","","","","","","","",""
"","image-keyboard-response","248","88363","0.0-248.0","","","","","122.89999985694885","img/land1.png","75","123.5","2","1","1","2","1,0.5,0.5,0.5,1,0.5,0.5,0.5,1","1,0.5,0.5,0.5,1,0.5,0.5,0.5,1","","",""
"","html-keyboard-response","249","88664","0.0-249.0","","","","","null","<img src=""img/land1.png"" style=""width:200px; border:14px solid green;"">","null","","","","","","","","","",""
"","image-keyboard-response","250","88819","0.0-250.0","","","","","154.40000009536743","img/land3.png","76","154.79999995231628","3","1","3","2","1,0.5,0.5,0.5,1,0.5,0.5,0.5,1","1,0.5,0.5,0.5,1,0.5,0.5,0.5,1","","",""
"","html-keyboard-response","251","89121","0.0-251.0","","","","","null","<img src=""img/land3.png"" style=""width:200px; border:14px solid green;"">","null","","","","","","","","","",""
"","image-keyboard-response","252","89499","0.0-252.0","","","","","378.09999990463257","img/land2.png","75","378.5","2","1","2","2","1,0.5,0.5,0.5,1,0.5,0.5,0.5,1","1,0.5,0.5,0.5,1,0.5,0.5,0.5,1","","",""
"","html-keyboard-response","253","89800","0.0-253.0","","","","","null","<img src=""img/land2.png"" style=""width:200px; border:14px solid green;"">","null","","","","","","","","","",""
"","image-keyboard-response","254","89891","0.0-254.0","","","","","90.70000004768372","img/land2.png","75","91","2","1","2","2","1,0.5,0.5,0.5,1,0.5,0.5,0.5,1","1,0.5,0.5,0.5,1,0.5,0.5,0.5,1","","",""
"","html-keyboard-response","255","90193","0.0-255.0","","","","","null","<img src=""img/land2.png"" style=""width:200px; border:14px solid green;"">","null","","","","","","","","","",""
"","image-keyboard-response","256","90395","0.0-256.0","","","","","202.40000009536743","img/land2.png","75","202.70000004768372","2","1","2","2","1,0.5,0.5,0.5,1,0.5,0.5,0.5,1","1,0.5,0.5,0.5,1,0.5,0.5,0.5,1","","",""
"","html-keyboard-response","257","90696","0.0-257.0","","","","","null","<img src=""img/land2.png"" style=""width:200px; border:14px solid green;"">","null","","","","","","","","","",""
"","image-keyboard-response","258","90851","0.0-258.0","","","","","154.80000019073486","img/land2.png","74","155.29999995231628","1","1","2","2","1,0.5,0.5,0.5,1,0.5,0.5,0.5,1","1,0.5,0.5,0.5,1,0.5,0.5,0.5,1","","",""
"","html-keyboard-response","259","91153","0.0-259.0","","","","","null","<img src=""img/land2.png"" style=""width:200px; border:14px solid green;"">","null","","","","","","","","","",""
"","image-keyboard-response","260","91364","0.0-260.0","","","","","210.5","img/land3.png","75","210.89999985694885","2","1","3","2","1,0.5,0.5,0.5,1,0.5,0.5,0.5,1","1,0.5,0.5,0.5,1,0.5,0.5,0.5,1","","",""
"","html-keyboard-response","261","91665","0.0-261.0","","","","","null","<img src=""img/land3.png"" style=""width:200px; border:14px solid green;"">","null","","","","","","","","","",""
"","image-keyboard-response","262","91940","0.0-262.0","","","","","274.09999990463257","img/land2.png","76","274.5","3","1","2","2","1,0.5,0.5,0.5,1,0.5,0.5,0.5,1","1,0.5,0.5,0.5,1,0.5,0.5,0.5,1","","",""
"","html-keyboard-response","263","92241","0.0-263.0","","","","","null","<img src=""img/land2.png"" style=""width:200px; border:14px solid green;"">","null","","","","","","","","","",""
"","image-keyboard-response","264","92468","0.0-264.0","","","","","226.70000004768372","img/land2.png","75","227.09999990463257","2","1","2","2","1,0.5,0.5,0.5,1,0.5,0.5,0.5,1","1,0.5,0.5,0.5,1,0.5,0.5,0.5,1","","",""
"","html-keyboard-response","265","92769","0.0-265.0","","","","","null","<img src=""img/land2.png"" style=""width:200px; border:14px solid green;"">","null","","","","","","","","","",""
"","image-keyboard-response","266","92972","0.0-266.0","","","","","202.20000004768372","img/land3.png","75","202.59999990463257","2","1","3","2","1,0.5,0.5,0.5,1,0.5,0.5,0.5,1","1,0.5,0.5,0.5,1,0.5,0.5,0.5,1","","",""
"","html-keyboard-response","267","93272","0.0-267.0","","","","","null","<img src=""img/land3.png"" style=""width:200px; border:14px solid green;"">","null","","","","","","","","","",""
"","image-keyboard-response","268","93428","0.0-268.0","","","","","154.89999985694885","img/land2.png","74","155.40000009536743","1","1","2","2","1,0.5,0.5,0.5,1,0.5,0.5,0.5,1","1,0.5,0.5,0.5,1,0.5,0.5,0.5,1","","",""
"","html-keyboard-response","269","93729","0.0-269.0","","","","","null","<img src=""img/land2.png"" style=""width:200px; border:14px solid green;"">","null","","","","","","","","","",""
"","image-keyboard-response","270","94020","0.0-270.0","","","","","290.5","img/land2.png","75","290.90000009536743","2","1","2","2","1,0.5,0.5,0.5,1,0.5,0.5,0.5,1","1,0.5,0.5,0.5,1,0.5,0.5,0.5,1","","",""
"","html-keyboard-response","271","94320","0.0-271.0","","","","","null","<img src=""img/land2.png"" style=""width:200px; border:14px solid green;"">","null","","","","","","","","","",""
"","image-keyboard-response","272","94540","0.0-272.0","","","","","219.10000014305115","img/land3.png","75","219.40000009536743","2","0","3","2","1,0.5,0.5,0.5,1,0.5,0.5,0.5,1","1,0.5,0.5,0.5,1,0.5,0.5,0.5,1","","",""
"","html-keyboard-response","273","94841","0.0-273.0","","","","","null","<img src=""img/land3.png"" style=""width:200px;border:14px solid red;"">","null","","","","","","","","","",""
"","image-keyboard-response","274","95028","0.0-274.0","","","","","186.60000014305115","img/land2.png","75","187","2","1","2","2","1,0.5,0.5,0.5,1,0.5,0.5,0.5,1","1,0.5,0.5,0.5,1,0.5,0.5,0.5,1","","",""
"","html-keyboard-response","275","95329","0.0-275.0","","","","","null","<img src=""img/land2.png"" style=""width:200px; border:14px solid green;"">","null","","","","","","","","","",""
"","image-keyboard-response","276","95492","0.0-276.0","","","","","162.29999995231628","img/land2.png","75","162.70000004768372","2","1","2","2","1,0.5,0.5,0.5,1,0.5,0.5,0.5,1","1,0.5,0.5,0.5,1,0.5,0.5,0.5,1","","",""
"","html-keyboard-response","277","95793","0.0-277.0","","","","","null","<img src=""img/land2.png"" style=""width:200px; border:14px solid green;"">","null","","","","","","","","","",""
"","image-keyboard-response","278","96052","0.0-278.0","","","","","258.7000000476837","img/land3.png","74","259.2999999523163","1","1","3","2","1,0.5,0.5,0.5,1,0.5,0.5,0.5,1","1,0.5,0.5,0.5,1,0.5,0.5,0.5,1","","",""
"","html-keyboard-response","279","96353","0.0-279.0","","","","","null","<img src=""img/land3.png"" style=""width:200px; border:14px solid green;"">","null","","","","","","","","","",""
"","image-keyboard-response","280","96652","0.0-280.0","","","","","298.39999985694885","img/land2.png","75","298.7000000476837","2","1","2","2","1,0.5,0.5,0.5,1,0.5,0.5,0.5,1","1,0.5,0.5,0.5,1,0.5,0.5,0.5,1","","",""
"","html-keyboard-response","281","96953","0.0-281.0","","","","","null","<img src=""img/land2.png"" style=""width:200px; border:14px solid green;"">","null","","","","","","","","","",""
"","image-keyboard-response","282","97268","0.0-282.0","","","","","315","img/land1.png","75","315.2999999523163","2","0","1","2","1,0.5,0.5,0.5,1,0.5,0.5,0.5,1","1,0.5,0.5,0.5,1,0.5,0.5,0.5,1","","",""
"","html-keyboard-response","283","97569","0.0-283.0","","","","","null","<img src=""img/land1.png"" style=""width:200px;border:14px solid red;"">","null","","","","","","","","","",""
"","image-keyboard-response","284","97844","0.0-284.0","","","","","274.39999985694885","img/land2.png","76","275","3","1","2","2","1,0.5,0.5,0.5,1,0.5,0.5,0.5,1","1,0.5,0.5,0.5,1,0.5,0.5,0.5,1","","",""
"","html-keyboard-response","285","98145","0.0-285.0","","","","","null","<img src=""img/land2.png"" style=""width:200px; border:14px solid green;"">","null","","","","","","","","","",""
"","image-keyboard-response","286","98397","0.0-286.0","","","","","251.5","img/land3.png","75","252","2","0","3","2","1,0.5,0.5,0.5,1,0.5,0.5,0.5,1","1,0.5,0.5,0.5,1,0.5,0.5,0.5,1","","",""
"","html-keyboard-response","287","98698","0.0-287.0","","","","","null","<img src=""img/land3.png"" style=""width:200px;border:14px solid red;"">","null","","","","","","","","","",""
"","image-keyboard-response","288","98893","0.0-288.0","","","","","193.59999990463257","img/land1.png","74","194.10000014305115","1","1","1","2","1,0.5,0.5,0.5,1,0.5,0.5,0.5,1","1,0.5,0.5,0.5,1,0.5,0.5,0.5,1","","",""
"","html-keyboard-response","289","99194","0.0-289.0","","","","","null","<img src=""img/land1.png"" style=""width:200px; border:14px solid green;"">","null","","","","","","","","","",""
"","image-keyboard-response","290","99444","0.0-290.0","","","","","250","img/land2.png","75","250.5","2","1","2","2","1,0.5,0.5,0.5,1,0.5,0.5,0.5,1","1,0.5,0.5,0.5,1,0.5,0.5,0.5,1","","",""
"","html-keyboard-response","291","99745","0.0-291.0","","","","","null","<img src=""img/land2.png"" style=""width:200px; border:14px solid green;"">","null","","","","","","","","","",""
"","image-keyboard-response","292","99861","0.0-292.0","","","","","114.70000004768372","img/land2.png","75","115.20000004768372","2","1","2","2","1,0.5,0.5,0.5,1,0.5,0.5,0.5,1","1,0.5,0.5,0.5,1,0.5,0.5,0.5,1","","",""
"","html-keyboard-response","293","100162","0.0-293.0","","","","","null","<img src=""img/land2.png"" style=""width:200px; border:14px solid green;"">","null","","","","","","","","","",""
"","image-keyboard-response","294","100309","0.0-294.0","","","","","146.29999995231628","img/land2.png","74","146.79999995231628","1","0","2","2","1,0.5,0.5,0.5,1,0.5,0.5,0.5,1","1,0.5,0.5,0.5,1,0.5,0.5,0.5,1","","",""
"","html-keyboard-response","295","100609","0.0-295.0","","","","","null","<img src=""img/land2.png"" style=""width:200px;border:14px solid red;"">","null","","","","","","","","","",""
"","image-keyboard-response","296","100709","0.0-296.0","","","","","99.09999990463257","img/land1.png","75","99.40000009536743","2","1","1","2","1,0.5,0.5,0.5,1,0.5,0.5,0.5,1","1,0.5,0.5,0.5,1,0.5,0.5,0.5,1","","",""
"","html-keyboard-response","297","101010","0.0-297.0","","","","","null","<img src=""img/land1.png"" style=""width:200px; border:14px solid green;"">","null","","","","","","","","","",""
"","image-keyboard-response","298","101205","0.0-298.0","","","","","194.69999980926514","img/land1.png","75","195","2","0","1","2","1,0.5,0.5,0.5,1,0.5,0.5,0.5,1","1,0.5,0.5,0.5,1,0.5,0.5,0.5,1","","",""
"","html-keyboard-response","299","101506","0.0-299.0","","","","","null","<img src=""img/land1.png"" style=""width:200px;border:14px solid red;"">","null","","","","","","","","","",""
"","image-keyboard-response","300","101669","0.0-300.0","","","","","162.19999980926514","img/land2.png","75","162.70000004768372","2","1","2","2","1,0.5,0.5,0.5,1,0.5,0.5,0.5,1","1,0.5,0.5,0.5,1,0.5,0.5,0.5,1","","",""
"","html-keyboard-response","301","101969","0.0-301.0","","","","","null","<img src=""img/land2.png"" style=""width:200px; border:14px solid green;"">","null","","","","","","","","","",""
"","html-keyboard-response","302","104677","0.0-302.0","","","","","","","","","","","","","","","","",""
"","image-keyboard-response","303","105349","0.0-303.0","","","","","671.4000000953674","img/land5.png","75","672","2","1","2","2","1,0.5,0.5,0.5,1,0.5,0.5,0.5,1","1,0.5,0.5,0.5,1,0.5,0.5,0.5,1","","",""
"","html-keyboard-response","304","105651","0.0-304.0","","","","","null","<img src=""img/land5.png"" style=""width:200px; border:14px solid green;"">","null","","","","","","","","","",""
"","image-keyboard-response","305","105845","0.0-305.0","","","","","194.20000004768372","img/land6.png","75","194.79999995231628","2","1","3","2","1,0.5,0.5,0.5,1,0.5,0.5,0.5,1","1,0.5,0.5,0.5,1,0.5,0.5,0.5,1","","",""
"","html-keyboard-response","306","106146","0.0-306.0","","","","","null","<img src=""img/land6.png"" style=""width:200px; border:14px solid green;"">","null","","","","","","","","","",""
"","image-keyboard-response","307","106485","0.0-307.0","","","","","338.7000000476837","img/land5.png","74","339.19999980926514","1","0","2","2","1,0.5,0.5,0.5,1,0.5,0.5,0.5,1","1,0.5,0.5,0.5,1,0.5,0.5,0.5,1","","",""
"","html-keyboard-response","308","106787","0.0-308.0","","","","","null","<img src=""img/land5.png"" style=""width:200px;border:14px solid red;"">","null","","","","","","","","","",""
"","image-keyboard-response","309","106941","0.0-309.0","","","","","154","img/land6.png","75","154.59999990463257","2","0","3","2","1,0.5,0.5,0.5,1,0.5,0.5,0.5,1","1,0.5,0.5,0.5,1,0.5,0.5,0.5,1","","",""
"","html-keyboard-response","310","107242","0.0-310.0","","","","","null","<img src=""img/land6.png"" style=""width:200px;border:14px solid red;"">","null","","","","","","","","","",""
"","image-keyboard-response","311","107405","0.0-311.0","","","","","162.70000004768372","img/land6.png","75","163","2","1","3","2","1,0.5,0.5,0.5,1,0.5,0.5,0.5,1","1,0.5,0.5,0.5,1,0.5,0.5,0.5,1","","",""
"","html-keyboard-response","312","107707","0.0-312.0","","","","","null","<img src=""img/land6.png"" style=""width:200px; border:14px solid green;"">","null","","","","","","","","","",""
"","image-keyboard-response","313","107893","0.0-313.0","","","","","186.40000009536743","img/land6.png","76","186.89999985694885","3","1","3","2","1,0.5,0.5,0.5,1,0.5,0.5,0.5,1","1,0.5,0.5,0.5,1,0.5,0.5,0.5,1","","",""
"","html-keyboard-response","314","108194","0.0-314.0","","","","","null","<img src=""img/land6.png"" style=""width:200px; border:14px solid green;"">","null","","","","","","","","","",""
"","image-keyboard-response","315","108414","0.0-315.0","","","","","219","img/land6.png","75","219.40000009536743","2","1","3","2","1,0.5,0.5,0.5,1,0.5,0.5,0.5,1","1,0.5,0.5,0.5,1,0.5,0.5,0.5,1","","",""
"","html-keyboard-response","316","108715","0.0-316.0","","","","","null","<img src=""img/land6.png"" style=""width:200px; border:14px solid green;"">","null","","","","","","","","","",""
"","image-keyboard-response","317","108854","0.0-317.0","","","","","138.40000009536743","img/land5.png","76","138.89999985694885","3","0","2","2","1,0.5,0.5,0.5,1,0.5,0.5,0.5,1","1,0.5,0.5,0.5,1,0.5,0.5,0.5,1","","",""
"","html-keyboard-response","318","109155","0.0-318.0","","","","","null","<img src=""img/land5.png"" style=""width:200px;border:14px solid red;"">","null","","","","","","","","","",""
"","image-keyboard-response","319","109334","0.0-319.0","","","","","178.29999995231628","img/land5.png","74","178.70000004768372","1","0","2","2","1,0.5,0.5,0.5,1,0.5,0.5,0.5,1","1,0.5,0.5,0.5,1,0.5,0.5,0.5,1","","",""
"","html-keyboard-response","320","109634","0.0-320.0","","","","","null","<img src=""img/land5.png"" style=""width:200px;border:14px solid red;"">","null","","","","","","","","","",""
"","image-keyboard-response","321","109838","0.0-321.0","","","","","202.5","img/land4.png","75","203.09999990463257","2","1","1","2","1,0.5,0.5,0.5,1,0.5,0.5,0.5,1","1,0.5,0.5,0.5,1,0.5,0.5,0.5,1","","",""
"","html-keyboard-response","322","110139","0.0-322.0","","","","","null","<img src=""img/land4.png"" style=""width:200px; border:14px solid green;"">","null","","","","","","","","","",""
"","image-keyboard-response","323","110334","0.0-323.0","","","","","194.40000009536743","img/land6.png","75","194.79999995231628","2","1","3","2","1,0.5,0.5,0.5,1,0.5,0.5,0.5,1","1,0.5,0.5,0.5,1,0.5,0.5,0.5,1","","",""
"","html-keyboard-response","324","110635","0.0-324.0","","","","","null","<img src=""img/land6.png"" style=""width:200px; border:14px solid green;"">","null","","","","","","","","","",""
"","image-keyboard-response","325","110798","0.0-325.0","","","","","161.90000009536743","img/land4.png","75","162.5","2","0","1","2","1,0.5,0.5,0.5,1,0.5,0.5,0.5,1","1,0.5,0.5,0.5,1,0.5,0.5,0.5,1","","",""
"","html-keyboard-response","326","111099","0.0-326.0","","","","","null","<img src=""img/land4.png"" style=""width:200px;border:14px solid red;"">","null","","","","","","","","","",""
"","image-keyboard-response","327","111470","0.0-327.0","","","","","370.60000014305115","img/land6.png","74","371.09999990463257","1","0","3","2","1,0.5,0.5,0.5,1,0.5,0.5,0.5,1","1,0.5,0.5,0.5,1,0.5,0.5,0.5,1","","",""
"","html-keyboard-response","328","111771","0.0-328.0","","","","","null","<img src=""img/land6.png"" style=""width:200px;border:14px solid red;"">","null","","","","","","","","","",""
"","image-keyboard-response","329","111966","0.0-329.0","","","","","194.29999995231628","img/land4.png","75","194.70000004768372","2","0","1","2","1,0.5,0.5,0.5,1,0.5,0.5,0.5,1","1,0.5,0.5,0.5,1,0.5,0.5,0.5,1","","",""
"","html-keyboard-response","330","112267","0.0-330.0","","","","","null","<img src=""img/land4.png"" style=""width:200px;border:14px solid red;"">","null","","","","","","","","","",""
"","image-keyboard-response","331","112582","0.0-331.0","","","","","314.7000000476837","img/land5.png","75","315.19999980926514","2","1","2","2","1,0.5,0.5,0.5,1,0.5,0.5,0.5,1","1,0.5,0.5,0.5,1,0.5,0.5,0.5,1","","",""
"","html-keyboard-response","332","112883","0.0-332.0","","","","","null","<img src=""img/land5.png"" style=""width:200px; border:14px solid green;"">","null","","","","","","","","","",""
"","image-keyboard-response","333","113166","0.0-333.0","","","","","282.2999999523163","img/land4.png","75","282.69999980926514","2","0","1","2","1,0.5,0.5,0.5,1,0.5,0.5,0.5,1","1,0.5,0.5,0.5,1,0.5,0.5,0.5,1","","",""
"","html-keyboard-response","334","113467","0.0-334.0","","","","","null","<img src=""img/land4.png"" style=""width:200px;border:14px solid red;"">","null","","","","","","","","","",""
"","image-keyboard-response","335","113926","0.0-335.0","","","","","458.7999999523163","img/land6.png","76","459.2000000476837","3","1","3","2","1,0.5,0.5,0.5,1,0.5,0.5,0.5,1","1,0.5,0.5,0.5,1,0.5,0.5,0.5,1","","",""
"","html-keyboard-response","336","114228","0.0-336.0","","","","","null","<img src=""img/land6.png"" style=""width:200px; border:14px solid green;"">","null","","","","","","","","","",""
"","image-keyboard-response","337","114398","0.0-337.0","","","","","170","img/land4.png","75","170.5","2","0","1","2","1,0.5,0.5,0.5,1,0.5,0.5,0.5,1","1,0.5,0.5,0.5,1,0.5,0.5,0.5,1","","",""
"","html-keyboard-response","338","114699","0.0-338.0","","","","","null","<img src=""img/land4.png"" style=""width:200px;border:14px solid red;"">","null","","","","","","","","","",""
"","image-keyboard-response","339","114934","0.0-339.0","","","","","234.79999995231628","img/land5.png","76","235.20000004768372","3","1","2","2","1,0.5,0.5,0.5,1,0.5,0.5,0.5,1","1,0.5,0.5,0.5,1,0.5,0.5,0.5,1","","",""
"","html-keyboard-response","340","115235","0.0-340.0","","","","","null","<img src=""img/land5.png"" style=""width:200px; border:14px solid green;"">","null","","","","","","","","","",""
"","image-keyboard-response","341","115526","0.0-341.0","","","","","290.39999985694885","img/land6.png","76","290.80000019073486","3","1","3","2","1,0.5,0.5,0.5,1,0.5,0.5,0.5,1","1,0.5,0.5,0.5,1,0.5,0.5,0.5,1","","",""
"","html-keyboard-response","342","115827","0.0-342.0","","","","","null","<img src=""img/land6.png"" style=""width:200px; border:14px solid green;"">","null","","","","","","","","","",""
"","image-keyboard-response","343","115975","0.0-343.0","","","","","147.09999990463257","img/land6.png","75","147.5","2","1","3","2","1,0.5,0.5,0.5,1,0.5,0.5,0.5,1","1,0.5,0.5,0.5,1,0.5,0.5,0.5,1","","",""
"","html-keyboard-response","344","116275","0.0-344.0","","","","","null","<img src=""img/land6.png"" style=""width:200px; border:14px solid green;"">","null","","","","","","","","","",""
"","image-keyboard-response","345","116614","0.0-345.0","","","","","338.5","img/land5.png","75","338.90000009536743","2","1","2","2","1,0.5,0.5,0.5,1,0.5,0.5,0.5,1","1,0.5,0.5,0.5,1,0.5,0.5,0.5,1","","",""
"","html-keyboard-response","346","116915","0.0-346.0","","","","","null","<img src=""img/land5.png"" style=""width:200px; border:14px solid green;"">","null","","","","","","","","","",""
"","image-keyboard-response","347","117143","0.0-347.0","","","","","227.09999990463257","img/land4.png","75","227.60000014305115","2","0","1","2","1,0.5,0.5,0.5,1,0.5,0.5,0.5,1","1,0.5,0.5,0.5,1,0.5,0.5,0.5,1","","",""
"","html-keyboard-response","348","117443","0.0-348.0","","","","","null","<img src=""img/land4.png"" style=""width:200px;border:14px solid red;"">","null","","","","","","","","","",""
"","image-keyboard-response","349","117543","0.0-349.0","","","","","98.5","img/land4.png","74","99","1","1","1","2","1,0.5,0.5,0.5,1,0.5,0.5,0.5,1","1,0.5,0.5,0.5,1,0.5,0.5,0.5,1","","",""
"","html-keyboard-response","350","117844","0.0-350.0","","","","","null","<img src=""img/land4.png"" style=""width:200px; border:14px solid green;"">","null","","","","","","","","","",""
"","image-keyboard-response","351","117951","0.0-351.0","","","","","106.29999995231628","img/land4.png","75","106.70000004768372","2","0","1","2","1,0.5,0.5,0.5,1,0.5,0.5,0.5,1","1,0.5,0.5,0.5,1,0.5,0.5,0.5,1","","",""
"","html-keyboard-response","352","118251","0.0-352.0","","","","","null","<img src=""img/land4.png"" style=""width:200px;border:14px solid red;"">","null","","","","","","","","","",""
"","image-keyboard-response","353","118527","0.0-353.0","","","","","275","img/land4.png","75","275.5","2","0","1","2","1,0.5,0.5,0.5,1,0.5,0.5,0.5,1","1,0.5,0.5,0.5,1,0.5,0.5,0.5,1","","",""
"","html-keyboard-response","354","118828","0.0-354.0","","","","","null","<img src=""img/land4.png"" style=""width:200px;border:14px solid red;"">","null","","","","","","","","","",""
"","image-keyboard-response","355","119039","0.0-355.0","","","","","210.60000014305115","img/land4.png","76","210.89999985694885","3","0","1","2","1,0.5,0.5,0.5,1,0.5,0.5,0.5,1","1,0.5,0.5,0.5,1,0.5,0.5,0.5,1","","",""
"","html-keyboard-response","356","119340","0.0-356.0","","","","","null","<img src=""img/land4.png"" style=""width:200px;border:14px solid red;"">","null","","","","","","","","","",""
"","image-keyboard-response","357","119503","0.0-357.0","","","","","162.10000014305115","img/land4.png","75","162.5","2","1","1","2","1,0.5,0.5,0.5,1,0.5,0.5,0.5,1","1,0.5,0.5,0.5,1,0.5,0.5,0.5,1","","",""
"","html-keyboard-response","358","119804","0.0-358.0","","","","","null","<img src=""img/land4.png"" style=""width:200px; border:14px solid green;"">","null","","","","","","","","","",""
"","image-keyboard-response","359","120047","0.0-359.0","","","","","242.90000009536743","img/land5.png","75","243.40000009536743","2","1","2","2","1,0.5,0.5,0.5,1,0.5,0.5,0.5,1","1,0.5,0.5,0.5,1,0.5,0.5,0.5,1","","",""
"","html-keyboard-response","360","120348","0.0-360.0","","","","","null","<img src=""img/land5.png"" style=""width:200px; border:14px solid green;"">","null","","","","","","","","","",""
"","image-keyboard-response","361","120543","0.0-361.0","","","","","194.20000004768372","img/land5.png","74","194.69999980926514","1","0","2","2","1,0.5,0.5,0.5,1,0.5,0.5,0.5,1","1,0.5,0.5,0.5,1,0.5,0.5,0.5,1","","",""
"","html-keyboard-response","362","120844","0.0-362.0","","","","","null","<img src=""img/land5.png"" style=""width:200px;border:14px solid red;"">","null","","","","","","","","","",""
"","image-keyboard-response","363","120895","0.0-363.0","","","","","50.90000009536743","img/land4.png","75","51.299999952316284","2","0","1","2","1,0.5,0.5,0.5,1,0.5,0.5,0.5,1","1,0.5,0.5,0.5,1,0.5,0.5,0.5,1","","",""
"","html-keyboard-response","364","121196","0.0-364.0","","","","","null","<img src=""img/land4.png"" style=""width:200px;border:14px solid red;"">","null","","","","","","","","","",""
"","image-keyboard-response","365","121407","0.0-365.0","","","","","210.70000004768372","img/land6.png","75","211.20000004768372","2","0","3","2","1,0.5,0.5,0.5,1,0.5,0.5,0.5,1","1,0.5,0.5,0.5,1,0.5,0.5,0.5,1","","",""
"","html-keyboard-response","366","121708","0.0-366.0","","","","","null","<img src=""img/land6.png"" style=""width:200px;border:14px solid red;"">","null","","","","","","","","","",""
"","image-keyboard-response","367","121935","0.0-367.0","","","","","226.20000004768372","img/land4.png","76","226.70000004768372","3","1","1","2","1,0.5,0.5,0.5,1,0.5,0.5,0.5,1","1,0.5,0.5,0.5,1,0.5,0.5,0.5,1","","",""
"","html-keyboard-response","368","122236","0.0-368.0","","","","","null","<img src=""img/land4.png"" style=""width:200px; border:14px solid green;"">","null","","","","","","","","","",""
"","image-keyboard-response","369","122391","0.0-369.0","","","","","154.79999995231628","img/land6.png","75","155.20000004768372","2","0","3","2","1,0.5,0.5,0.5,1,0.5,0.5,0.5,1","1,0.5,0.5,0.5,1,0.5,0.5,0.5,1","","",""
"","html-keyboard-response","370","122692","0.0-370.0","","","","","null","<img src=""img/land6.png"" style=""width:200px;border:14px solid red;"">","null","","","","","","","","","",""
"","image-keyboard-response","371","122951","0.0-371.0","","","","","258.40000009536743","img/land6.png","75","259","2","0","3","2","1,0.5,0.5,0.5,1,0.5,0.5,0.5,1","1,0.5,0.5,0.5,1,0.5,0.5,0.5,1","","",""
"","html-keyboard-response","372","123253","0.0-372.0","","","","","null","<img src=""img/land6.png"" style=""width:200px;border:14px solid red;"">","null","","","","","","","","","",""
"","image-keyboard-response","373","123439","0.0-373.0","","","","","186","img/land4.png","75","186.5","2","0","1","2","1,0.5,0.5,0.5,1,0.5,0.5,0.5,1","1,0.5,0.5,0.5,1,0.5,0.5,0.5,1","","",""
"","html-keyboard-response","374","123740","0.0-374.0","","","","","null","<img src=""img/land4.png"" style=""width:200px;border:14px solid red;"">","null","","","","","","","","","",""
"","image-keyboard-response","375","123951","0.0-375.0","","","","","210.70000004768372","img/land4.png","76","211","3","1","1","2","1,0.5,0.5,0.5,1,0.5,0.5,0.5,1","1,0.5,0.5,0.5,1,0.5,0.5,0.5,1","","",""
"","html-keyboard-response","376","124253","0.0-376.0","","","","","null","<img src=""img/land4.png"" style=""width:200px; border:14px solid green;"">","null","","","","","","","","","",""
"","image-keyboard-response","377","124455","0.0-377.0","","","","","202.20000004768372","img/land4.png","75","202.59999990463257","2","0","1","2","1,0.5,0.5,0.5,1,0.5,0.5,0.5,1","1,0.5,0.5,0.5,1,0.5,0.5,0.5,1","","",""
"","html-keyboard-response","378","124756","0.0-378.0","","","","","null","<img src=""img/land4.png"" style=""width:200px;border:14px solid red;"">","null","","","","","","","","","",""
"","image-keyboard-response","379","124943","0.0-379.0","","","","","186.90000009536743","img/land4.png","74","187.29999995231628","1","1","1","2","1,0.5,0.5,0.5,1,0.5,0.5,0.5,1","1,0.5,0.5,0.5,1,0.5,0.5,0.5,1","","",""
"","html-keyboard-response","380","125245","0.0-380.0","","","","","null","<img src=""img/land4.png"" style=""width:200px; border:14px solid green;"">","null","","","","","","","","","",""
"","image-keyboard-response","381","125375","0.0-381.0","","","","","130.40000009536743","img/land5.png","75","130.79999995231628","2","1","2","2","1,0.5,0.5,0.5,1,0.5,0.5,0.5,1","1,0.5,0.5,0.5,1,0.5,0.5,0.5,1","","",""
"","html-keyboard-response","382","125677","0.0-382.0","","","","","null","<img src=""img/land5.png"" style=""width:200px; border:14px solid green;"">","null","","","","","","","","","",""
"","image-keyboard-response","383","125944","0.0-383.0","","","","","266.09999990463257","img/land6.png","74","266.5","1","1","3","2","1,0.5,0.5,0.5,1,0.5,0.5,0.5,1","1,0.5,0.5,0.5,1,0.5,0.5,0.5,1","","",""
"","html-keyboard-response","384","126244","0.0-384.0","","","","","null","<img src=""img/land6.png"" style=""width:200px; border:14px solid green;"">","null","","","","","","","","","",""
"","image-keyboard-response","385","126464","0.0-385.0","","","","","218.79999995231628","img/land5.png","75","219.30000019073486","2","1","2","2","1,0.5,0.5,0.5,1,0.5,0.5,0.5,1","1,0.5,0.5,0.5,1,0.5,0.5,0.5,1","","",""
"","html-keyboard-response","386","126765","0.0-386.0","","","","","null","<img src=""img/land5.png"" style=""width:200px; border:14px solid green;"">","null","","","","","","","","","",""
"","image-keyboard-response","387","126984","0.0-387.0","","","","","218.20000004768372","img/land6.png","75","218.60000014305115","2","0","3","2","1,0.5,0.5,0.5,1,0.5,0.5,0.5,1","1,0.5,0.5,0.5,1,0.5,0.5,0.5,1","","",""
"","html-keyboard-response","388","127284","0.0-388.0","","","","","null","<img src=""img/land6.png"" style=""width:200px;border:14px solid red;"">","null","","","","","","","","","",""
"","image-keyboard-response","389","127432","0.0-389.0","","","","","146.90000009536743","img/land5.png","76","147.20000004768372","3","0","2","2","1,0.5,0.5,0.5,1,0.5,0.5,0.5,1","1,0.5,0.5,0.5,1,0.5,0.5,0.5,1","","",""
"","html-keyboard-response","390","127733","0.0-390.0","","","","","null","<img src=""img/land5.png"" style=""width:200px;border:14px solid red;"">","null","","","","","","","","","",""
"","image-keyboard-response","391","127960","0.0-391.0","","","","","226.5","img/land4.png","75","226.90000009536743","2","0","1","2","1,0.5,0.5,0.5,1,0.5,0.5,0.5,1","1,0.5,0.5,0.5,1,0.5,0.5,0.5,1","","",""
"","html-keyboard-response","392","128275","0.0-392.0","","","","","null","<img src=""img/land4.png"" style=""width:200px;border:14px solid red;"">","null","","","","","","","","","",""
"","image-keyboard-response","393","128424","0.0-393.0","","","","","148.20000004768372","img/land4.png","75","148.5","2","1","1","2","1,0.5,0.5,0.5,1,0.5,0.5,0.5,1","1,0.5,0.5,0.5,1,0.5,0.5,0.5,1","","",""
"","html-keyboard-response","394","128725","0.0-394.0","","","","","null","<img src=""img/land4.png"" style=""width:200px; border:14px solid green;"">","null","","","","","","","","","",""
"","image-keyboard-response","395","128832","0.0-395.0","","","","","106.59999990463257","img/land4.png","74","107.09999990463257","1","1","1","2","1,0.5,0.5,0.5,1,0.5,0.5,0.5,1","1,0.5,0.5,0.5,1,0.5,0.5,0.5,1","","",""
"","html-keyboard-response","396","129133","0.0-396.0","","","","","null","<img src=""img/land4.png"" style=""width:200px; border:14px solid green;"">","null","","","","","","","","","",""
"","image-keyboard-response","397","129328","0.0-397.0","","","","","194.40000009536743","img/land6.png","75","194.79999995231628","2","0","3","2","1,0.5,0.5,0.5,1,0.5,0.5,0.5,1","1,0.5,0.5,0.5,1,0.5,0.5,0.5,1","","",""
"","html-keyboard-response","398","129629","0.0-398.0","","","","","null","<img src=""img/land6.png"" style=""width:200px;border:14px solid red;"">","null","","","","","","","","","",""
"","image-keyboard-response","399","129832","0.0-399.0","","","","","203","img/land5.png","75","203.39999985694885","2","1","2","2","1,0.5,0.5,0.5,1,0.5,0.5,0.5,1","1,0.5,0.5,0.5,1,0.5,0.5,0.5,1","","",""
"","html-keyboard-response","400","130133","0.0-400.0","","","","","null","<img src=""img/land5.png"" style=""width:200px; border:14px solid green;"">","null","","","","","","","","","",""
"","image-keyboard-response","401","130304","0.0-401.0","","","","","170.59999990463257","img/land5.png","75","171.10000014305115","2","1","2","2","1,0.5,0.5,0.5,1,0.5,0.5,0.5,1","1,0.5,0.5,0.5,1,0.5,0.5,0.5,1","","",""
"","html-keyboard-response","402","130605","0.0-402.0","","","","","null","<img src=""img/land5.png"" style=""width:200px; border:14px solid green;"">","null","","","","","","","","","",""
"","image-keyboard-response","403","130720","0.0-403.0","","","","","114.29999995231628","img/land5.png","76","114.59999990463257","3","1","2","2","1,0.5,0.5,0.5,1,0.5,0.5,0.5,1","1,0.5,0.5,0.5,1,0.5,0.5,0.5,1","","",""
"","html-keyboard-response","404","131022","0.0-404.0","","","","","null","<img src=""img/land5.png"" style=""width:200px; border:14px solid green;"">","null","","","","","","","","","",""
"","image-keyboard-response","405","131160","0.0-405.0","","","","","137","img/land6.png","75","137.70000004768372","2","1","3","2","1,0.5,0.5,0.5,1,0.5,0.5,0.5,1","1,0.5,0.5,0.5,1,0.5,0.5,0.5,1","","",""
"","html-keyboard-response","406","131461","0.0-406.0","","","","","null","<img src=""img/land6.png"" style=""width:200px; border:14px solid green;"">","null","","","","","","","","","",""
"","image-keyboard-response","407","131584","0.0-407.0","","","","","122.5","img/land5.png","74","122.89999985694885","1","1","2","2","1,0.5,0.5,0.5,1,0.5,0.5,0.5,1","1,0.5,0.5,0.5,1,0.5,0.5,0.5,1","","",""
"","html-keyboard-response","408","131886","0.0-408.0","","","","","null","<img src=""img/land5.png"" style=""width:200px; border:14px solid green;"">","null","","","","","","","","","",""
"","image-keyboard-response","409","132008","0.0-409.0","","","","","122.10000014305115","img/land6.png","75","122.5","2","0","3","2","1,0.5,0.5,0.5,1,0.5,0.5,0.5,1","1,0.5,0.5,0.5,1,0.5,0.5,0.5,1","","",""
"","html-keyboard-response","410","132309","0.0-410.0","","","","","null","<img src=""img/land6.png"" style=""width:200px;border:14px solid red;"">","null","","","","","","","","","",""
"","image-keyboard-response","411","132464","0.0-411.0","","","","","154.79999995231628","img/land4.png","75","155.20000004768372","2","1","1","2","1,0.5,0.5,0.5,1,0.5,0.5,0.5,1","1,0.5,0.5,0.5,1,0.5,0.5,0.5,1","","",""
"","html-keyboard-response","412","132765","0.0-412.0","","","","","null","<img src=""img/land4.png"" style=""width:200px; border:14px solid green;"">","null","","","","","","","","","",""
"","image-keyboard-response","413","132944","0.0-413.0","","","","","178.5","img/land4.png","75","178.90000009536743","2","1","1","2","1,0.5,0.5,0.5,1,0.5,0.5,0.5,1","1,0.5,0.5,0.5,1,0.5,0.5,0.5,1","","",""
"","html-keyboard-response","414","133246","0.0-414.0","","","","","null","<img src=""img/land4.png"" style=""width:200px; border:14px solid green;"">","null","","","","","","","","","",""
"","image-keyboard-response","415","133408","0.0-415.0","","","","","162.20000004768372","img/land6.png","76","162.5","3","1","3","2","1,0.5,0.5,0.5,1,0.5,0.5,0.5,1","1,0.5,0.5,0.5,1,0.5,0.5,0.5,1","","",""
"","html-keyboard-response","416","133709","0.0-416.0","","","","","null","<img src=""img/land6.png"" style=""width:200px; border:14px solid green;"">","null","","","","","","","","","",""
"","image-keyboard-response","417","133784","0.0-417.0","","","","","74.70000004768372","img/land6.png","75","75.09999990463257","2","1","3","2","1,0.5,0.5,0.5,1,0.5,0.5,0.5,1","1,0.5,0.5,0.5,1,0.5,0.5,0.5,1","","",""
"","html-keyboard-response","418","134091","0.0-418.0","","","","","null","<img src=""img/land6.png"" style=""width:200px; border:14px solid green;"">","null","","","","","","","","","",""
"","image-keyboard-response","419","134217","0.0-419.0","","","","","125.5","img/land5.png","75","125.89999985694885","2","1","2","2","1,0.5,0.5,0.5,1,0.5,0.5,0.5,1","1,0.5,0.5,0.5,1,0.5,0.5,0.5,1","","",""
"","html-keyboard-response","420","134518","0.0-420.0","","","","","null","<img src=""img/land5.png"" style=""width:200px; border:14px solid green;"">","null","","","","","","","","","",""
"","image-keyboard-response","421","134649","0.0-421.0","","","","","130","img/land4.png","74","130.39999985694885","1","1","1","2","1,0.5,0.5,0.5,1,0.5,0.5,0.5,1","1,0.5,0.5,0.5,1,0.5,0.5,0.5,1","","",""
"","html-keyboard-response","422","134949","0.0-422.0","","","","","null","<img src=""img/land4.png"" style=""width:200px; border:14px solid green;"">","null","","","","","","","","","",""
"","image-keyboard-response","423","135089","0.0-423.0","","","","","138.59999990463257","img/land5.png","75","139.20000004768372","2","1","2","2","1,0.5,0.5,0.5,1,0.5,0.5,0.5,1","1,0.5,0.5,0.5,1,0.5,0.5,0.5,1","","",""
"","html-keyboard-response","424","135390","0.0-424.0","","","","","null","<img src=""img/land5.png"" style=""width:200px; border:14px solid green;"">","null","","","","","","","","","",""
"","image-keyboard-response","425","135657","0.0-425.0","","","","","266.2999999523163","img/land6.png","76","266.7999999523163","3","1","3","2","1,0.5,0.5,0.5,1,0.5,0.5,0.5,1","1,0.5,0.5,0.5,1,0.5,0.5,0.5,1","","",""
"","html-keyboard-response","426","135957","0.0-426.0","","","","","null","<img src=""img/land6.png"" style=""width:200px; border:14px solid green;"">","null","","","","","","","","","",""
"","image-keyboard-response","427","136009","0.0-427.0","","","","","50.89999985694885","img/land5.png","75","51.299999952316284","2","1","2","2","1,0.5,0.5,0.5,1,0.5,0.5,0.5,1","1,0.5,0.5,0.5,1,0.5,0.5,0.5,1","","",""
"","html-keyboard-response","428","136310","0.0-428.0","","","","","null","<img src=""img/land5.png"" style=""width:200px; border:14px solid green;"">","null","","","","","","","","","",""
"","image-keyboard-response","429","136417","0.0-429.0","","","","","106.70000004768372","img/land5.png","75","107","2","1","2","2","1,0.5,0.5,0.5,1,0.5,0.5,0.5,1","1,0.5,0.5,0.5,1,0.5,0.5,0.5,1","","",""
"","html-keyboard-response","430","136718","0.0-430.0","","","","","null","<img src=""img/land5.png"" style=""width:200px; border:14px solid green;"">","null","","","","","","","","","",""
"","image-keyboard-response","431","136737","0.0-431.0","","","","","18.299999952316284","img/land6.png","74","18.899999856948853","1","0","3","2","1,0.5,0.5,0.5,1,0.5,0.5,0.5,1","1,0.5,0.5,0.5,1,0.5,0.5,0.5,1","","",""
"","html-keyboard-response","432","137038","0.0-432.0","","","","","null","<img src=""img/land6.png"" style=""width:200px;border:14px solid red;"">","null","","","","","","","","","",""
"","image-keyboard-response","433","137113","0.0-433.0","","","","","74","img/land4.png","75","74.5","2","0","1","2","1,0.5,0.5,0.5,1,0.5,0.5,0.5,1","1,0.5,0.5,0.5,1,0.5,0.5,0.5,1","","",""
"","html-keyboard-response","434","137414","0.0-434.0","","","","","null","<img src=""img/land4.png"" style=""width:200px;border:14px solid red;"">","null","","","","","","","","","",""
"","image-keyboard-response","435","137497","0.0-435.0","","","","","82.80000019073486","img/land4.png","76","83.20000004768372","3","0","1","2","1,0.5,0.5,0.5,1,0.5,0.5,0.5,1","1,0.5,0.5,0.5,1,0.5,0.5,0.5,1","","",""
"","html-keyboard-response","436","137798","0.0-436.0","","","","","null","<img src=""img/land4.png"" style=""width:200px;border:14px solid red;"">","null","","","","","","","","","",""
"","image-keyboard-response","437","137857","0.0-437.0","","","","","58.59999990463257","img/land4.png","75","59","2","1","1","2","1,0.5,0.5,0.5,1,0.5,0.5,0.5,1","1,0.5,0.5,0.5,1,0.5,0.5,0.5,1","","",""
"","html-keyboard-response","438","138158","0.0-438.0","","","","","null","<img src=""img/land4.png"" style=""width:200px; border:14px solid green;"">","null","","","","","","","","","",""
"","image-keyboard-response","439","138233","0.0-439.0","","","","","74.20000004768372","img/land5.png","74","74.59999990463257","1","1","2","2","1,0.5,0.5,0.5,1,0.5,0.5,0.5,1","1,0.5,0.5,0.5,1,0.5,0.5,0.5,1","","",""
"","html-keyboard-response","440","138534","0.0-440.0","","","","","null","<img src=""img/land5.png"" style=""width:200px; border:14px solid green;"">","null","","","","","","","","","",""
"","image-keyboard-response","441","138641","0.0-441.0","","","","","106.90000009536743","img/land5.png","75","107.5","2","1","2","2","1,0.5,0.5,0.5,1,0.5,0.5,0.5,1","1,0.5,0.5,0.5,1,0.5,0.5,0.5,1","","",""
"","html-keyboard-response","442","138942","0.0-442.0","","","","","null","<img src=""img/land5.png"" style=""width:200px; border:14px solid green;"">","null","","","","","","","","","",""
"","image-keyboard-response","443","139089","0.0-443.0","","","","","146.5","img/land5.png","75","147","2","1","2","2","1,0.5,0.5,0.5,1,0.5,0.5,0.5,1","1,0.5,0.5,0.5,1,0.5,0.5,0.5,1","","",""
"","html-keyboard-response","444","139390","0.0-444.0","","","","","null","<img src=""img/land5.png"" style=""width:200px; border:14px solid green;"">","null","","","","","","","","","",""
"","image-keyboard-response","445","139505","0.0-445.0","","","","","114.19999980926514","img/land5.png","76","114.70000004768372","3","1","2","2","1,0.5,0.5,0.5,1,0.5,0.5,0.5,1","1,0.5,0.5,0.5,1,0.5,0.5,0.5,1","","",""
"","html-keyboard-response","446","139806","0.0-446.0","","","","","null","<img src=""img/land5.png"" style=""width:200px; border:14px solid green;"">","null","","","","","","","","","",""
"","image-keyboard-response","447","139874","0.0-447.0","","","","","68","img/land5.png","75","68.5","2","1","2","2","1,0.5,0.5,0.5,1,0.5,0.5,0.5,1","1,0.5,0.5,0.5,1,0.5,0.5,0.5,1","","",""
"","html-keyboard-response","448","140175","0.0-448.0","","","","","null","<img src=""img/land5.png"" style=""width:200px; border:14px solid green;"">","null","","","","","","","","","",""
"","image-keyboard-response","449","140241","0.0-449.0","","","","","65.5","img/land5.png","74","66.20000004768372","1","1","2","2","1,0.5,0.5,0.5,1,0.5,0.5,0.5,1","1,0.5,0.5,0.5,1,0.5,0.5,0.5,1","","",""
"","html-keyboard-response","450","140542","0.0-450.0","","","","","null","<img src=""img/land5.png"" style=""width:200px; border:14px solid green;"">","null","","","","","","","","","",""
"","image-keyboard-response","451","140601","0.0-451.0","","","","","58.200000047683716","img/land4.png","75","58.700000047683716","2","1","1","2","1,0.5,0.5,0.5,1,0.5,0.5,0.5,1","1,0.5,0.5,0.5,1,0.5,0.5,0.5,1","","",""
"","html-keyboard-response","452","140902","0.0-452.0","","","","","null","<img src=""img/land4.png"" style=""width:200px; border:14px solid green;"">","null","","","","","","","","","",""
"","image-keyboard-response","453","141025","0.0-453.0","","","","","123","img/land6.png","76","123.59999990463257","3","1","3","2","1,0.5,0.5,0.5,1,0.5,0.5,0.5,1","1,0.5,0.5,0.5,1,0.5,0.5,0.5,1","","",""
"","html-keyboard-response","454","141326","0.0-454.0","","","","","null","<img src=""img/land6.png"" style=""width:200px; border:14px solid green;"">","null","","","","","","","","","",""
"","image-keyboard-response","455","141425","0.0-455.0","","","","","98.70000004768372","img/land4.png","75","99.09999990463257","2","0","1","2","1,0.5,0.5,0.5,1,0.5,0.5,0.5,1","1,0.5,0.5,0.5,1,0.5,0.5,0.5,1","","",""
"","html-keyboard-response","456","141727","0.0-456.0","","","","","null","<img src=""img/land4.png"" style=""width:200px;border:14px solid red;"">","null","","","","","","","","","",""
"","image-keyboard-response","457","141778","0.0-457.0","","","","","50.299999952316284","img/land6.png","74","50.90000009536743","1","0","3","2","1,0.5,0.5,0.5,1,0.5,0.5,0.5,1","1,0.5,0.5,0.5,1,0.5,0.5,0.5,1","","",""
"","html-keyboard-response","458","142079","0.0-458.0","","","","","null","<img src=""img/land6.png"" style=""width:200px;border:14px solid red;"">","null","","","","","","","","","",""
"","image-keyboard-response","459","142210","0.0-459.0","","","","","130.19999980926514","img/land5.png","75","130.79999995231628","2","1","2","2","1,0.5,0.5,0.5,1,0.5,0.5,0.5,1","1,0.5,0.5,0.5,1,0.5,0.5,0.5,1","","",""
"","html-keyboard-response","460","142511","0.0-460.0","","","","","null","<img src=""img/land5.png"" style=""width:200px; border:14px solid green;"">","null","","","","","","","","","",""
"","image-keyboard-response","461","142633","0.0-461.0","","","","","121.60000014305115","img/land6.png","75","122.09999990463257","2","0","3","2","1,0.5,0.5,0.5,1,0.5,0.5,0.5,1","1,0.5,0.5,0.5,1,0.5,0.5,0.5,1","","",""
"","html-keyboard-response","462","142935","0.0-462.0","","","","","null","<img src=""img/land6.png"" style=""width:200px;border:14px solid red;"">","null","","","","","","","","","",""
"","image-keyboard-response","463","142969","0.0-463.0","","","","","34.40000009536743","img/land5.png","76","34.69999980926514","3","1","2","2","1,0.5,0.5,0.5,1,0.5,0.5,0.5,1","1,0.5,0.5,0.5,1,0.5,0.5,0.5,1","","",""
"","html-keyboard-response","464","143271","0.0-464.0","","","","","null","<img src=""img/land5.png"" style=""width:200px; border:14px solid green;"">","null","","","","","","","","","",""
"","image-keyboard-response","465","143330","0.0-465.0","","","","","58.09999990463257","img/land4.png","74","58.39999985694885","1","1","1","2","1,0.5,0.5,0.5,1,0.5,0.5,0.5,1","1,0.5,0.5,0.5,1,0.5,0.5,0.5,1","","",""
"","html-keyboard-response","466","143630","0.0-466.0","","","","","null","<img src=""img/land4.png"" style=""width:200px; border:14px solid green;"">","null","","","","","","","","","",""
"","image-keyboard-response","467","143778","0.0-467.0","","","","","146.79999995231628","img/land5.png","75","147.29999995231628","2","1","2","2","1,0.5,0.5,0.5,1,0.5,0.5,0.5,1","1,0.5,0.5,0.5,1,0.5,0.5,0.5,1","","",""
"","html-keyboard-response","468","144079","0.0-468.0","","","","","null","<img src=""img/land5.png"" style=""width:200px; border:14px solid green;"">","null","","","","","","","","","",""
"","image-keyboard-response","469","144202","0.0-469.0","","","","","122.39999985694885","img/land6.png","75","122.79999995231628","2","0","3","2","1,0.5,0.5,0.5,1,0.5,0.5,0.5,1","1,0.5,0.5,0.5,1,0.5,0.5,0.5,1","","",""
"","html-keyboard-response","470","144503","0.0-470.0","","","","","null","<img src=""img/land6.png"" style=""width:200px;border:14px solid red;"">","null","","","","","","","","","",""
"","image-keyboard-response","471","144546","0.0-471.0","","","","","42","img/land6.png","76","42.40000009536743","3","1","3","2","1,0.5,0.5,0.5,1,0.5,0.5,0.5,1","1,0.5,0.5,0.5,1,0.5,0.5,0.5,1","","",""
"","html-keyboard-response","472","144846","0.0-472.0","","","","","null","<img src=""img/land6.png"" style=""width:200px; border:14px solid green;"">","null","","","","","","","","","",""
"","image-keyboard-response","473","144890","0.0-473.0","","","","","42.799999952316284","img/land6.png","75","43.60000014305115","2","1","3","2","1,0.5,0.5,0.5,1,0.5,0.5,0.5,1","1,0.5,0.5,0.5,1,0.5,0.5,0.5,1","","",""
"","html-keyboard-response","474","145191","0.0-474.0","","","","","null","<img src=""img/land6.png"" style=""width:200px; border:14px solid green;"">","null","","","","","","","","","",""
"","image-keyboard-response","475","145258","0.0-475.0","","","","","66.59999990463257","img/land6.png","74","67","1","1","3","2","1,0.5,0.5,0.5,1,0.5,0.5,0.5,1","1,0.5,0.5,0.5,1,0.5,0.5,0.5,1","","",""
"","html-keyboard-response","476","145559","0.0-476.0","","","","","null","<img src=""img/land6.png"" style=""width:200px; border:14px solid green;"">","null","","","","","","","","","",""
"","image-keyboard-response","477","145658","0.0-477.0","","","","","98.29999995231628","img/land4.png","75","98.70000004768372","2","1","1","2","1,0.5,0.5,0.5,1,0.5,0.5,0.5,1","1,0.5,0.5,0.5,1,0.5,0.5,0.5,1","","",""
"","html-keyboard-response","478","145958","0.0-478.0","","","","","null","<img src=""img/land4.png"" style=""width:200px; border:14px solid green;"">","null","","","","","","","","","",""
"","image-keyboard-response","479","146074","0.0-479.0","","","","","115","img/land6.png","76","115.5","3","1","3","2","1,0.5,0.5,0.5,1,0.5,0.5,0.5,1","1,0.5,0.5,0.5,1,0.5,0.5,0.5,1","","",""
"","html-keyboard-response","480","146375","0.0-480.0","","","","","null","<img src=""img/land6.png"" style=""width:200px; border:14px solid green;"">","null","","","","","","","","","",""
"","image-keyboard-response","481","146410","0.0-481.0","","","","","34.700000047683716","img/land5.png","75","35.09999990463257","2","1","2","2","1,0.5,0.5,0.5,1,0.5,0.5,0.5,1","1,0.5,0.5,0.5,1,0.5,0.5,0.5,1","","",""
"","html-keyboard-response","482","146711","0.0-482.0","","","","","null","<img src=""img/land5.png"" style=""width:200px; border:14px solid green;"">","null","","","","","","","","","",""
"","instructions","483","150306","0.0-483.0","","","","[{""page_index"":0,""viewing_time"":3595}]","3595.0999999046326","","","","","","","","","","","",""
"","survey-text","484","155900","0.0-484.0-0.0","","","","","5591.099999904633","","","","","","","","","","","{""Q0"":""26""}",""
"","survey-multi-choice","485","157628","0.0-484.0-1.0","","","","","1727.2999999523163","","","","","","","","","","","{""gender"":""M""}","[0]"
"","survey-text","486","169780","0.0-485.0","","","","","12152.200000047684","","","","","","","","","","","{""Q0"":""A28HB7240OFGEW""}",""
