"success","trial_type","trial_index","time_elapsed","internal_node_id","assignmentID","mturkID","hitID","view_history","rt","stimulus","key_press","reactionTime","a","r","s","cond","reward_cond","reward_cond_actual","reward_matrix_idx","responses","question_order"
"true","fullscreen","0","78998","0.0-0.0","3WMOAN2SRCJUSOAY2IU5LXBE5IGVNE","A290TNNAJJQCWL","37SDSEDIN9ORHL92Y0GV7TIFJ2X187","","","","","","","","","","","","","",""
"","instructions","1","97883","0.0-1.0","3WMOAN2SRCJUSOAY2IU5LXBE5IGVNE","A290TNNAJJQCWL","37SDSEDIN9ORHL92Y0GV7TIFJ2X187","[{""page_index"":0,""viewing_time"":2846.3000000715256},{""page_index"":1,""viewing_time"":5079.100000023842},{""page_index"":2,""viewing_time"":150.89999997615814},{""page_index"":3,""viewing_time"":4003.899999976158},{""page_index"":4,""viewing_time"":3466},{""page_index"":5,""viewing_time"":2103.899999976158},{""page_index"":6,""viewing_time"":1232}]","18882.900000095367","","","","","","","","","","","",""
"","image-keyboard-response","2","98326","0.0-2.0","3WMOAN2SRCJUSOAY2IU5LXBE5IGVNE","A290TNNAJJQCWL","37SDSEDIN9ORHL92Y0GV7TIFJ2X187","","441.10000002384186","img/land5.png","76","442.5","3","0","3","1","0.8,0.2,0.2,0.2,0.8,0.2,0.2,0.2,0.8","0.8,0.2,0.2,0.2,0.8,0.2,0.2,0.2,0.8","1","",""
"","html-keyboard-response","3","98628","0.0-3.0","3WMOAN2SRCJUSOAY2IU5LXBE5IGVNE","A290TNNAJJQCWL","37SDSEDIN9ORHL92Y0GV7TIFJ2X187","","null","<img src=""img/land5.png"" style=""width:200px;border:14px solid red;"">","null","","","","","","","","","",""
"","image-keyboard-response","4","99102","0.0-4.0","3WMOAN2SRCJUSOAY2IU5LXBE5IGVNE","A290TNNAJJQCWL","37SDSEDIN9ORHL92Y0GV7TIFJ2X187","","472.39999997615814","img/land5.png","76","473.3000000715256","3","1","3","1","0.8,0.2,0.2,0.2,0.8,0.2,0.2,0.2,0.8","0.8,0.2,0.2,0.2,0.8,0.2,0.2,0.2,0.8","1","",""
"","html-keyboard-response","5","99403","0.0-5.0","3WMOAN2SRCJUSOAY2IU5LXBE5IGVNE","A290TNNAJJQCWL","37SDSEDIN9ORHL92Y0GV7TIFJ2X187","","null","<img src=""img/land5.png"" style=""width:200px; border:14px solid green;"">","null","","","","","","","","","",""
"","image-keyboard-response","6","99983","0.0-6.0","3WMOAN2SRCJUSOAY2IU5LXBE5IGVNE","A290TNNAJJQCWL","37SDSEDIN9ORHL92Y0GV7TIFJ2X187","","579","img/land4.png","76","579.8999999761581","3","0","1","1","0.8,0.2,0.2,0.2,0.8,0.2,0.2,0.2,0.8","0.8,0.2,0.2,0.2,0.8,0.2,0.2,0.2,0.8","1","",""
"","html-keyboard-response","7","100285","0.0-7.0","3WMOAN2SRCJUSOAY2IU5LXBE5IGVNE","A290TNNAJJQCWL","37SDSEDIN9ORHL92Y0GV7TIFJ2X187","","null","<img src=""img/land4.png"" style=""width:200px;border:14px solid red;"">","null","","","","","","","","","",""
"","image-keyboard-response","8","100836","0.0-8.0","3WMOAN2SRCJUSOAY2IU5LXBE5IGVNE","A290TNNAJJQCWL","37SDSEDIN9ORHL92Y0GV7TIFJ2X187","","550.4000000953674","img/land2.png","75","551.2999999523163","2","1","2","1","0.8,0.2,0.2,0.2,0.8,0.2,0.2,0.2,0.8","0.8,0.2,0.2,0.2,0.8,0.2,0.2,0.2,0.8","1","",""
"","html-keyboard-response","9","101138","0.0-9.0","3WMOAN2SRCJUSOAY2IU5LXBE5IGVNE","A290TNNAJJQCWL","37SDSEDIN9ORHL92Y0GV7TIFJ2X187","","null","<img src=""img/land2.png"" style=""width:200px; border:14px solid green;"">","null","","","","","","","","","",""
"","image-keyboard-response","10","101512","0.0-10.0","3WMOAN2SRCJUSOAY2IU5LXBE5IGVNE","A290TNNAJJQCWL","37SDSEDIN9ORHL92Y0GV7TIFJ2X187","","373.2000000476837","img/land2.png","75","374.2999999523163","2","1","2","1","0.8,0.2,0.2,0.2,0.8,0.2,0.2,0.2,0.8","0.8,0.2,0.2,0.2,0.8,0.2,0.2,0.2,0.8","1","",""
"","html-keyboard-response","11","101814","0.0-11.0","3WMOAN2SRCJUSOAY2IU5LXBE5IGVNE","A290TNNAJJQCWL","37SDSEDIN9ORHL92Y0GV7TIFJ2X187","","null","<img src=""img/land2.png"" style=""width:200px; border:14px solid green;"">","null","","","","","","","","","",""
"","image-keyboard-response","12","102137","0.0-12.0","3WMOAN2SRCJUSOAY2IU5LXBE5IGVNE","A290TNNAJJQCWL","37SDSEDIN9ORHL92Y0GV7TIFJ2X187","","321.89999997615814","img/land2.png","75","322.89999997615814","2","1","2","1","0.8,0.2,0.2,0.2,0.8,0.2,0.2,0.2,0.8","0.8,0.2,0.2,0.2,0.8,0.2,0.2,0.2,0.8","1","",""
"","html-keyboard-response","13","102438","0.0-13.0","3WMOAN2SRCJUSOAY2IU5LXBE5IGVNE","A290TNNAJJQCWL","37SDSEDIN9ORHL92Y0GV7TIFJ2X187","","null","<img src=""img/land2.png"" style=""width:200px; border:14px solid green;"">","null","","","","","","","","","",""
"","image-keyboard-response","14","102720","0.0-14.0","3WMOAN2SRCJUSOAY2IU5LXBE5IGVNE","A290TNNAJJQCWL","37SDSEDIN9ORHL92Y0GV7TIFJ2X187","","281.5","img/land2.png","75","282.2000000476837","2","1","2","1","0.8,0.2,0.2,0.2,0.8,0.2,0.2,0.2,0.8","0.8,0.2,0.2,0.2,0.8,0.2,0.2,0.2,0.8","1","",""
"","html-keyboard-response","15","103022","0.0-15.0","3WMOAN2SRCJUSOAY2IU5LXBE5IGVNE","A290TNNAJJQCWL","37SDSEDIN9ORHL92Y0GV7TIFJ2X187","","null","<img src=""img/land2.png"" style=""width:200px; border:14px solid green;"">","null","","","","","","","","","",""
"","image-keyboard-response","16","103725","0.0-16.0","3WMOAN2SRCJUSOAY2IU5LXBE5IGVNE","A290TNNAJJQCWL","37SDSEDIN9ORHL92Y0GV7TIFJ2X187","","702.3999999761581","img/land5.png","74","703.3000000715256","1","0","3","1","0.8,0.2,0.2,0.2,0.8,0.2,0.2,0.2,0.8","0.8,0.2,0.2,0.2,0.8,0.2,0.2,0.2,0.8","1","",""
"","html-keyboard-response","17","104027","0.0-17.0","3WMOAN2SRCJUSOAY2IU5LXBE5IGVNE","A290TNNAJJQCWL","37SDSEDIN9ORHL92Y0GV7TIFJ2X187","","null","<img src=""img/land5.png"" style=""width:200px;border:14px solid red;"">","null","","","","","","","","","",""
"","image-keyboard-response","18","104563","0.0-18.0","3WMOAN2SRCJUSOAY2IU5LXBE5IGVNE","A290TNNAJJQCWL","37SDSEDIN9ORHL92Y0GV7TIFJ2X187","","535.3000000715256","img/land4.png","75","536","2","0","1","1","0.8,0.2,0.2,0.2,0.8,0.2,0.2,0.2,0.8","0.8,0.2,0.2,0.2,0.8,0.2,0.2,0.2,0.8","1","",""
"","html-keyboard-response","19","104865","0.0-19.0","3WMOAN2SRCJUSOAY2IU5LXBE5IGVNE","A290TNNAJJQCWL","37SDSEDIN9ORHL92Y0GV7TIFJ2X187","","null","<img src=""img/land4.png"" style=""width:200px;border:14px solid red;"">","null","","","","","","","","","",""
"","image-keyboard-response","20","105534","0.0-20.0","3WMOAN2SRCJUSOAY2IU5LXBE5IGVNE","A290TNNAJJQCWL","37SDSEDIN9ORHL92Y0GV7TIFJ2X187","","668.1000000238419","img/land5.png","74","668.8999999761581","1","0","3","1","0.8,0.2,0.2,0.2,0.8,0.2,0.2,0.2,0.8","0.8,0.2,0.2,0.2,0.8,0.2,0.2,0.2,0.8","1","",""
"","html-keyboard-response","21","105836","0.0-21.0","3WMOAN2SRCJUSOAY2IU5LXBE5IGVNE","A290TNNAJJQCWL","37SDSEDIN9ORHL92Y0GV7TIFJ2X187","","null","<img src=""img/land5.png"" style=""width:200px;border:14px solid red;"">","null","","","","","","","","","",""
"","image-keyboard-response","22","106564","0.0-22.0","3WMOAN2SRCJUSOAY2IU5LXBE5IGVNE","A290TNNAJJQCWL","37SDSEDIN9ORHL92Y0GV7TIFJ2X187","","727","img/land5.png","74","728","1","0","3","1","0.8,0.2,0.2,0.2,0.8,0.2,0.2,0.2,0.8","0.8,0.2,0.2,0.2,0.8,0.2,0.2,0.2,0.8","1","",""
"","html-keyboard-response","23","106866","0.0-23.0","3WMOAN2SRCJUSOAY2IU5LXBE5IGVNE","A290TNNAJJQCWL","37SDSEDIN9ORHL92Y0GV7TIFJ2X187","","null","<img src=""img/land5.png"" style=""width:200px;border:14px solid red;"">","null","","","","","","","","","",""
"","image-keyboard-response","24","107516","0.0-24.0","3WMOAN2SRCJUSOAY2IU5LXBE5IGVNE","A290TNNAJJQCWL","37SDSEDIN9ORHL92Y0GV7TIFJ2X187","","648.8999999761581","img/land4.png","75","649.7999999523163","2","0","1","1","0.8,0.2,0.2,0.2,0.8,0.2,0.2,0.2,0.8","0.8,0.2,0.2,0.2,0.8,0.2,0.2,0.2,0.8","1","",""
"","html-keyboard-response","25","107817","0.0-25.0","3WMOAN2SRCJUSOAY2IU5LXBE5IGVNE","A290TNNAJJQCWL","37SDSEDIN9ORHL92Y0GV7TIFJ2X187","","null","<img src=""img/land4.png"" style=""width:200px;border:14px solid red;"">","null","","","","","","","","","",""
"","image-keyboard-response","26","108490","0.0-26.0","3WMOAN2SRCJUSOAY2IU5LXBE5IGVNE","A290TNNAJJQCWL","37SDSEDIN9ORHL92Y0GV7TIFJ2X187","","671.9000000953674","img/land5.png","76","672.6999999284744","3","1","3","1","0.8,0.2,0.2,0.2,0.8,0.2,0.2,0.2,0.8","0.8,0.2,0.2,0.2,0.8,0.2,0.2,0.2,0.8","1","",""
"","html-keyboard-response","27","108805","0.0-27.0","3WMOAN2SRCJUSOAY2IU5LXBE5IGVNE","A290TNNAJJQCWL","37SDSEDIN9ORHL92Y0GV7TIFJ2X187","","null","<img src=""img/land5.png"" style=""width:200px; border:14px solid green;"">","null","","","","","","","","","",""
"","image-keyboard-response","28","109131","0.0-28.0","3WMOAN2SRCJUSOAY2IU5LXBE5IGVNE","A290TNNAJJQCWL","37SDSEDIN9ORHL92Y0GV7TIFJ2X187","","325.10000002384186","img/land5.png","76","326.10000002384186","3","1","3","1","0.8,0.2,0.2,0.2,0.8,0.2,0.2,0.2,0.8","0.8,0.2,0.2,0.2,0.8,0.2,0.2,0.2,0.8","1","",""
"","html-keyboard-response","29","109433","0.0-29.0","3WMOAN2SRCJUSOAY2IU5LXBE5IGVNE","A290TNNAJJQCWL","37SDSEDIN9ORHL92Y0GV7TIFJ2X187","","null","<img src=""img/land5.png"" style=""width:200px; border:14px solid green;"">","null","","","","","","","","","",""
"","image-keyboard-response","30","110017","0.0-30.0","3WMOAN2SRCJUSOAY2IU5LXBE5IGVNE","A290TNNAJJQCWL","37SDSEDIN9ORHL92Y0GV7TIFJ2X187","","583.1000000238419","img/land2.png","74","583.8000000715256","1","0","2","1","0.8,0.2,0.2,0.2,0.8,0.2,0.2,0.2,0.8","0.8,0.2,0.2,0.2,0.8,0.2,0.2,0.2,0.8","1","",""
"","html-keyboard-response","31","110319","0.0-31.0","3WMOAN2SRCJUSOAY2IU5LXBE5IGVNE","A290TNNAJJQCWL","37SDSEDIN9ORHL92Y0GV7TIFJ2X187","","null","<img src=""img/land2.png"" style=""width:200px;border:14px solid red;"">","null","","","","","","","","","",""
"","image-keyboard-response","32","110438","0.0-32.0","3WMOAN2SRCJUSOAY2IU5LXBE5IGVNE","A290TNNAJJQCWL","37SDSEDIN9ORHL92Y0GV7TIFJ2X187","","118.80000007152557","img/land5.png","75","119.60000002384186","2","0","3","1","0.8,0.2,0.2,0.2,0.8,0.2,0.2,0.2,0.8","0.8,0.2,0.2,0.2,0.8,0.2,0.2,0.2,0.8","1","",""
"","html-keyboard-response","33","110742","0.0-33.0","3WMOAN2SRCJUSOAY2IU5LXBE5IGVNE","A290TNNAJJQCWL","37SDSEDIN9ORHL92Y0GV7TIFJ2X187","","null","<img src=""img/land5.png"" style=""width:200px;border:14px solid red;"">","null","","","","","","","","","",""
"","image-keyboard-response","34","111097","0.0-34.0","3WMOAN2SRCJUSOAY2IU5LXBE5IGVNE","A290TNNAJJQCWL","37SDSEDIN9ORHL92Y0GV7TIFJ2X187","","353.39999997615814","img/land5.png","76","354.39999997615814","3","1","3","1","0.8,0.2,0.2,0.2,0.8,0.2,0.2,0.2,0.8","0.8,0.2,0.2,0.2,0.8,0.2,0.2,0.2,0.8","1","",""
"","html-keyboard-response","35","111399","0.0-35.0","3WMOAN2SRCJUSOAY2IU5LXBE5IGVNE","A290TNNAJJQCWL","37SDSEDIN9ORHL92Y0GV7TIFJ2X187","","null","<img src=""img/land5.png"" style=""width:200px; border:14px solid green;"">","null","","","","","","","","","",""
"","image-keyboard-response","36","112019","0.0-36.0","3WMOAN2SRCJUSOAY2IU5LXBE5IGVNE","A290TNNAJJQCWL","37SDSEDIN9ORHL92Y0GV7TIFJ2X187","","618.7000000476837","img/land4.png","75","619.8999999761581","2","0","1","1","0.8,0.2,0.2,0.2,0.8,0.2,0.2,0.2,0.8","0.8,0.2,0.2,0.2,0.8,0.2,0.2,0.2,0.8","1","",""
"","html-keyboard-response","37","112321","0.0-37.0","3WMOAN2SRCJUSOAY2IU5LXBE5IGVNE","A290TNNAJJQCWL","37SDSEDIN9ORHL92Y0GV7TIFJ2X187","","null","<img src=""img/land4.png"" style=""width:200px;border:14px solid red;"">","null","","","","","","","","","",""
"","image-keyboard-response","38","112850","0.0-38.0","3WMOAN2SRCJUSOAY2IU5LXBE5IGVNE","A290TNNAJJQCWL","37SDSEDIN9ORHL92Y0GV7TIFJ2X187","","527.7000000476837","img/land4.png","75","528.6000000238419","2","0","1","1","0.8,0.2,0.2,0.2,0.8,0.2,0.2,0.2,0.8","0.8,0.2,0.2,0.2,0.8,0.2,0.2,0.2,0.8","1","",""
"","html-keyboard-response","39","113151","0.0-39.0","3WMOAN2SRCJUSOAY2IU5LXBE5IGVNE","A290TNNAJJQCWL","37SDSEDIN9ORHL92Y0GV7TIFJ2X187","","null","<img src=""img/land4.png"" style=""width:200px;border:14px solid red;"">","null","","","","","","","","","",""
"","image-keyboard-response","40","113754","0.0-40.0","3WMOAN2SRCJUSOAY2IU5LXBE5IGVNE","A290TNNAJJQCWL","37SDSEDIN9ORHL92Y0GV7TIFJ2X187","","602","img/land5.png","76","602.7999999523163","3","1","3","1","0.8,0.2,0.2,0.2,0.8,0.2,0.2,0.2,0.8","0.8,0.2,0.2,0.2,0.8,0.2,0.2,0.2,0.8","1","",""
"","html-keyboard-response","41","114056","0.0-41.0","3WMOAN2SRCJUSOAY2IU5LXBE5IGVNE","A290TNNAJJQCWL","37SDSEDIN9ORHL92Y0GV7TIFJ2X187","","null","<img src=""img/land5.png"" style=""width:200px; border:14px solid green;"">","null","","","","","","","","","",""
"","image-keyboard-response","42","114490","0.0-42.0","3WMOAN2SRCJUSOAY2IU5LXBE5IGVNE","A290TNNAJJQCWL","37SDSEDIN9ORHL92Y0GV7TIFJ2X187","","432.90000009536743","img/land5.png","76","433.6999999284744","3","1","3","1","0.8,0.2,0.2,0.2,0.8,0.2,0.2,0.2,0.8","0.8,0.2,0.2,0.2,0.8,0.2,0.2,0.2,0.8","1","",""
"","html-keyboard-response","43","114791","0.0-43.0","3WMOAN2SRCJUSOAY2IU5LXBE5IGVNE","A290TNNAJJQCWL","37SDSEDIN9ORHL92Y0GV7TIFJ2X187","","null","<img src=""img/land5.png"" style=""width:200px; border:14px solid green;"">","null","","","","","","","","","",""
"","image-keyboard-response","44","115337","0.0-44.0","3WMOAN2SRCJUSOAY2IU5LXBE5IGVNE","A290TNNAJJQCWL","37SDSEDIN9ORHL92Y0GV7TIFJ2X187","","545.1000000238419","img/land2.png","75","545.8000000715256","2","0","2","1","0.8,0.2,0.2,0.2,0.8,0.2,0.2,0.2,0.8","0.8,0.2,0.2,0.2,0.8,0.2,0.2,0.2,0.8","1","",""
"","html-keyboard-response","45","115641","0.0-45.0","3WMOAN2SRCJUSOAY2IU5LXBE5IGVNE","A290TNNAJJQCWL","37SDSEDIN9ORHL92Y0GV7TIFJ2X187","","null","<img src=""img/land2.png"" style=""width:200px;border:14px solid red;"">","null","","","","","","","","","",""
"","image-keyboard-response","46","116253","0.0-46.0","3WMOAN2SRCJUSOAY2IU5LXBE5IGVNE","A290TNNAJJQCWL","37SDSEDIN9ORHL92Y0GV7TIFJ2X187","","610.8000000715256","img/land5.png","76","611.5999999046326","3","1","3","1","0.8,0.2,0.2,0.2,0.8,0.2,0.2,0.2,0.8","0.8,0.2,0.2,0.2,0.8,0.2,0.2,0.2,0.8","1","",""
"","html-keyboard-response","47","116562","0.0-47.0","3WMOAN2SRCJUSOAY2IU5LXBE5IGVNE","A290TNNAJJQCWL","37SDSEDIN9ORHL92Y0GV7TIFJ2X187","","null","<img src=""img/land5.png"" style=""width:200px; border:14px solid green;"">","null","","","","","","","","","",""
"","image-keyboard-response","48","117339","0.0-48.0","3WMOAN2SRCJUSOAY2IU5LXBE5IGVNE","A290TNNAJJQCWL","37SDSEDIN9ORHL92Y0GV7TIFJ2X187","","776.1000000238419","img/land2.png","74","777.1000000238419","1","0","2","1","0.8,0.2,0.2,0.2,0.8,0.2,0.2,0.2,0.8","0.8,0.2,0.2,0.2,0.8,0.2,0.2,0.2,0.8","1","",""
"","html-keyboard-response","49","117641","0.0-49.0","3WMOAN2SRCJUSOAY2IU5LXBE5IGVNE","A290TNNAJJQCWL","37SDSEDIN9ORHL92Y0GV7TIFJ2X187","","null","<img src=""img/land2.png"" style=""width:200px;border:14px solid red;"">","null","","","","","","","","","",""
"","image-keyboard-response","50","118057","0.0-50.0","3WMOAN2SRCJUSOAY2IU5LXBE5IGVNE","A290TNNAJJQCWL","37SDSEDIN9ORHL92Y0GV7TIFJ2X187","","415.8000000715256","img/land2.png","74","416.39999997615814","1","1","2","1","0.8,0.2,0.2,0.2,0.8,0.2,0.2,0.2,0.8","0.8,0.2,0.2,0.2,0.8,0.2,0.2,0.2,0.8","1","",""
"","html-keyboard-response","51","118360","0.0-51.0","3WMOAN2SRCJUSOAY2IU5LXBE5IGVNE","A290TNNAJJQCWL","37SDSEDIN9ORHL92Y0GV7TIFJ2X187","","null","<img src=""img/land2.png"" style=""width:200px; border:14px solid green;"">","null","","","","","","","","","",""
"","image-keyboard-response","52","119076","0.0-52.0","3WMOAN2SRCJUSOAY2IU5LXBE5IGVNE","A290TNNAJJQCWL","37SDSEDIN9ORHL92Y0GV7TIFJ2X187","","714.8999999761581","img/land4.png","75","715.6999999284744","2","0","1","1","0.8,0.2,0.2,0.2,0.8,0.2,0.2,0.2,0.8","0.8,0.2,0.2,0.2,0.8,0.2,0.2,0.2,0.8","1","",""
"","html-keyboard-response","53","119377","0.0-53.0","3WMOAN2SRCJUSOAY2IU5LXBE5IGVNE","A290TNNAJJQCWL","37SDSEDIN9ORHL92Y0GV7TIFJ2X187","","null","<img src=""img/land4.png"" style=""width:200px;border:14px solid red;"">","null","","","","","","","","","",""
"","image-keyboard-response","54","119705","0.0-54.0","3WMOAN2SRCJUSOAY2IU5LXBE5IGVNE","A290TNNAJJQCWL","37SDSEDIN9ORHL92Y0GV7TIFJ2X187","","327.59999990463257","img/land4.png","74","328.39999997615814","1","1","1","1","0.8,0.2,0.2,0.2,0.8,0.2,0.2,0.2,0.8","0.8,0.2,0.2,0.2,0.8,0.2,0.2,0.2,0.8","1","",""
"","html-keyboard-response","55","120007","0.0-55.0","3WMOAN2SRCJUSOAY2IU5LXBE5IGVNE","A290TNNAJJQCWL","37SDSEDIN9ORHL92Y0GV7TIFJ2X187","","null","<img src=""img/land4.png"" style=""width:200px; border:14px solid green;"">","null","","","","","","","","","",""
"","image-keyboard-response","56","120245","0.0-56.0","3WMOAN2SRCJUSOAY2IU5LXBE5IGVNE","A290TNNAJJQCWL","37SDSEDIN9ORHL92Y0GV7TIFJ2X187","","236.60000002384186","img/land4.png","74","237.30000007152557","1","0","1","1","0.8,0.2,0.2,0.2,0.8,0.2,0.2,0.2,0.8","0.8,0.2,0.2,0.2,0.8,0.2,0.2,0.2,0.8","1","",""
"","html-keyboard-response","57","120546","0.0-57.0","3WMOAN2SRCJUSOAY2IU5LXBE5IGVNE","A290TNNAJJQCWL","37SDSEDIN9ORHL92Y0GV7TIFJ2X187","","null","<img src=""img/land4.png"" style=""width:200px;border:14px solid red;"">","null","","","","","","","","","",""
"","image-keyboard-response","58","120795","0.0-58.0","3WMOAN2SRCJUSOAY2IU5LXBE5IGVNE","A290TNNAJJQCWL","37SDSEDIN9ORHL92Y0GV7TIFJ2X187","","247.80000007152557","img/land4.png","74","248.79999995231628","1","1","1","1","0.8,0.2,0.2,0.2,0.8,0.2,0.2,0.2,0.8","0.8,0.2,0.2,0.2,0.8,0.2,0.2,0.2,0.8","1","",""
"","html-keyboard-response","59","121102","0.0-59.0","3WMOAN2SRCJUSOAY2IU5LXBE5IGVNE","A290TNNAJJQCWL","37SDSEDIN9ORHL92Y0GV7TIFJ2X187","","null","<img src=""img/land4.png"" style=""width:200px; border:14px solid green;"">","null","","","","","","","","","",""
"","image-keyboard-response","60","121809","0.0-60.0","3WMOAN2SRCJUSOAY2IU5LXBE5IGVNE","A290TNNAJJQCWL","37SDSEDIN9ORHL92Y0GV7TIFJ2X187","","706.1000000238419","img/land5.png","76","706.9000000953674","3","1","3","1","0.8,0.2,0.2,0.2,0.8,0.2,0.2,0.2,0.8","0.8,0.2,0.2,0.2,0.8,0.2,0.2,0.2,0.8","1","",""
"","html-keyboard-response","61","122111","0.0-61.0","3WMOAN2SRCJUSOAY2IU5LXBE5IGVNE","A290TNNAJJQCWL","37SDSEDIN9ORHL92Y0GV7TIFJ2X187","","null","<img src=""img/land5.png"" style=""width:200px; border:14px solid green;"">","null","","","","","","","","","",""
"","image-keyboard-response","62","122696","0.0-62.0","3WMOAN2SRCJUSOAY2IU5LXBE5IGVNE","A290TNNAJJQCWL","37SDSEDIN9ORHL92Y0GV7TIFJ2X187","","583.6999999284744","img/land2.png","75","584.8000000715256","2","1","2","1","0.8,0.2,0.2,0.2,0.8,0.2,0.2,0.2,0.8","0.8,0.2,0.2,0.2,0.8,0.2,0.2,0.2,0.8","1","",""
"","html-keyboard-response","63","122997","0.0-63.0","3WMOAN2SRCJUSOAY2IU5LXBE5IGVNE","A290TNNAJJQCWL","37SDSEDIN9ORHL92Y0GV7TIFJ2X187","","null","<img src=""img/land2.png"" style=""width:200px; border:14px solid green;"">","null","","","","","","","","","",""
"","image-keyboard-response","64","123313","0.0-64.0","3WMOAN2SRCJUSOAY2IU5LXBE5IGVNE","A290TNNAJJQCWL","37SDSEDIN9ORHL92Y0GV7TIFJ2X187","","314.3000000715256","img/land2.png","75","315.1999999284744","2","1","2","1","0.8,0.2,0.2,0.2,0.8,0.2,0.2,0.2,0.8","0.8,0.2,0.2,0.2,0.8,0.2,0.2,0.2,0.8","1","",""
"","html-keyboard-response","65","123615","0.0-65.0","3WMOAN2SRCJUSOAY2IU5LXBE5IGVNE","A290TNNAJJQCWL","37SDSEDIN9ORHL92Y0GV7TIFJ2X187","","null","<img src=""img/land2.png"" style=""width:200px; border:14px solid green;"">","null","","","","","","","","","",""
"","image-keyboard-response","66","124188","0.0-66.0","3WMOAN2SRCJUSOAY2IU5LXBE5IGVNE","A290TNNAJJQCWL","37SDSEDIN9ORHL92Y0GV7TIFJ2X187","","571.7000000476837","img/land5.png","76","572.5","3","1","3","1","0.8,0.2,0.2,0.2,0.8,0.2,0.2,0.2,0.8","0.8,0.2,0.2,0.2,0.8,0.2,0.2,0.2,0.8","1","",""
"","html-keyboard-response","67","124495","0.0-67.0","3WMOAN2SRCJUSOAY2IU5LXBE5IGVNE","A290TNNAJJQCWL","37SDSEDIN9ORHL92Y0GV7TIFJ2X187","","null","<img src=""img/land5.png"" style=""width:200px; border:14px solid green;"">","null","","","","","","","","","",""
"","image-keyboard-response","68","125376","0.0-68.0","3WMOAN2SRCJUSOAY2IU5LXBE5IGVNE","A290TNNAJJQCWL","37SDSEDIN9ORHL92Y0GV7TIFJ2X187","","880","img/land4.png","74","880.7999999523163","1","1","1","1","0.8,0.2,0.2,0.2,0.8,0.2,0.2,0.2,0.8","0.8,0.2,0.2,0.2,0.8,0.2,0.2,0.2,0.8","1","",""
"","html-keyboard-response","69","125677","0.0-69.0","3WMOAN2SRCJUSOAY2IU5LXBE5IGVNE","A290TNNAJJQCWL","37SDSEDIN9ORHL92Y0GV7TIFJ2X187","","null","<img src=""img/land4.png"" style=""width:200px; border:14px solid green;"">","null","","","","","","","","","",""
"","image-keyboard-response","70","125905","0.0-70.0","3WMOAN2SRCJUSOAY2IU5LXBE5IGVNE","A290TNNAJJQCWL","37SDSEDIN9ORHL92Y0GV7TIFJ2X187","","227.10000002384186","img/land5.png","74","227.79999995231628","1","0","3","1","0.8,0.2,0.2,0.2,0.8,0.2,0.2,0.2,0.8","0.8,0.2,0.2,0.2,0.8,0.2,0.2,0.2,0.8","1","",""
"","html-keyboard-response","71","126207","0.0-71.0","3WMOAN2SRCJUSOAY2IU5LXBE5IGVNE","A290TNNAJJQCWL","37SDSEDIN9ORHL92Y0GV7TIFJ2X187","","null","<img src=""img/land5.png"" style=""width:200px;border:14px solid red;"">","null","","","","","","","","","",""
"","image-keyboard-response","72","126413","0.0-72.0","3WMOAN2SRCJUSOAY2IU5LXBE5IGVNE","A290TNNAJJQCWL","37SDSEDIN9ORHL92Y0GV7TIFJ2X187","","204.79999995231628","img/land2.png","75","205.69999992847443","2","1","2","1","0.8,0.2,0.2,0.2,0.8,0.2,0.2,0.2,0.8","0.8,0.2,0.2,0.2,0.8,0.2,0.2,0.2,0.8","1","",""
"","html-keyboard-response","73","126714","0.0-73.0","3WMOAN2SRCJUSOAY2IU5LXBE5IGVNE","A290TNNAJJQCWL","37SDSEDIN9ORHL92Y0GV7TIFJ2X187","","null","<img src=""img/land2.png"" style=""width:200px; border:14px solid green;"">","null","","","","","","","","","",""
"","image-keyboard-response","74","127055","0.0-74.0","3WMOAN2SRCJUSOAY2IU5LXBE5IGVNE","A290TNNAJJQCWL","37SDSEDIN9ORHL92Y0GV7TIFJ2X187","","339.40000009536743","img/land2.png","75","340.1999999284744","2","1","2","1","0.8,0.2,0.2,0.2,0.8,0.2,0.2,0.2,0.8","0.8,0.2,0.2,0.2,0.8,0.2,0.2,0.2,0.8","1","",""
"","html-keyboard-response","75","127356","0.0-75.0","3WMOAN2SRCJUSOAY2IU5LXBE5IGVNE","A290TNNAJJQCWL","37SDSEDIN9ORHL92Y0GV7TIFJ2X187","","null","<img src=""img/land2.png"" style=""width:200px; border:14px solid green;"">","null","","","","","","","","","",""
"","image-keyboard-response","76","127967","0.0-76.0","3WMOAN2SRCJUSOAY2IU5LXBE5IGVNE","A290TNNAJJQCWL","37SDSEDIN9ORHL92Y0GV7TIFJ2X187","","609.7999999523163","img/land4.png","76","610.6000000238419","3","1","1","1","0.8,0.2,0.2,0.2,0.8,0.2,0.2,0.2,0.8","0.8,0.2,0.2,0.2,0.8,0.2,0.2,0.2,0.8","1","",""
"","html-keyboard-response","77","128270","0.0-77.0","3WMOAN2SRCJUSOAY2IU5LXBE5IGVNE","A290TNNAJJQCWL","37SDSEDIN9ORHL92Y0GV7TIFJ2X187","","null","<img src=""img/land4.png"" style=""width:200px; border:14px solid green;"">","null","","","","","","","","","",""
"","image-keyboard-response","78","128529","0.0-78.0","3WMOAN2SRCJUSOAY2IU5LXBE5IGVNE","A290TNNAJJQCWL","37SDSEDIN9ORHL92Y0GV7TIFJ2X187","","259.10000002384186","img/land4.png","74","259.7000000476837","1","1","1","1","0.8,0.2,0.2,0.2,0.8,0.2,0.2,0.2,0.8","0.8,0.2,0.2,0.2,0.8,0.2,0.2,0.2,0.8","1","",""
"","html-keyboard-response","79","128831","0.0-79.0","3WMOAN2SRCJUSOAY2IU5LXBE5IGVNE","A290TNNAJJQCWL","37SDSEDIN9ORHL92Y0GV7TIFJ2X187","","null","<img src=""img/land4.png"" style=""width:200px; border:14px solid green;"">","null","","","","","","","","","",""
"","image-keyboard-response","80","129551","0.0-80.0","3WMOAN2SRCJUSOAY2IU5LXBE5IGVNE","A290TNNAJJQCWL","37SDSEDIN9ORHL92Y0GV7TIFJ2X187","","719.7000000476837","img/land2.png","75","720.6000000238419","2","0","2","1","0.8,0.2,0.2,0.2,0.8,0.2,0.2,0.2,0.8","0.8,0.2,0.2,0.2,0.8,0.2,0.2,0.2,0.8","1","",""
"","html-keyboard-response","81","129854","0.0-81.0","3WMOAN2SRCJUSOAY2IU5LXBE5IGVNE","A290TNNAJJQCWL","37SDSEDIN9ORHL92Y0GV7TIFJ2X187","","null","<img src=""img/land2.png"" style=""width:200px;border:14px solid red;"">","null","","","","","","","","","",""
"","image-keyboard-response","82","130384","0.0-82.0","3WMOAN2SRCJUSOAY2IU5LXBE5IGVNE","A290TNNAJJQCWL","37SDSEDIN9ORHL92Y0GV7TIFJ2X187","","529.1999999284744","img/land5.png","76","530.1999999284744","3","0","3","1","0.8,0.2,0.2,0.2,0.8,0.2,0.2,0.2,0.8","0.8,0.2,0.2,0.2,0.8,0.2,0.2,0.2,0.8","1","",""
"","html-keyboard-response","83","130687","0.0-83.0","3WMOAN2SRCJUSOAY2IU5LXBE5IGVNE","A290TNNAJJQCWL","37SDSEDIN9ORHL92Y0GV7TIFJ2X187","","null","<img src=""img/land5.png"" style=""width:200px;border:14px solid red;"">","null","","","","","","","","","",""
"","image-keyboard-response","84","131165","0.0-84.0","3WMOAN2SRCJUSOAY2IU5LXBE5IGVNE","A290TNNAJJQCWL","37SDSEDIN9ORHL92Y0GV7TIFJ2X187","","477.39999997615814","img/land5.png","76","478.2999999523163","3","0","3","1","0.8,0.2,0.2,0.2,0.8,0.2,0.2,0.2,0.8","0.8,0.2,0.2,0.2,0.8,0.2,0.2,0.2,0.8","1","",""
"","html-keyboard-response","85","131468","0.0-85.0","3WMOAN2SRCJUSOAY2IU5LXBE5IGVNE","A290TNNAJJQCWL","37SDSEDIN9ORHL92Y0GV7TIFJ2X187","","null","<img src=""img/land5.png"" style=""width:200px;border:14px solid red;"">","null","","","","","","","","","",""
"","image-keyboard-response","86","131861","0.0-86.0","3WMOAN2SRCJUSOAY2IU5LXBE5IGVNE","A290TNNAJJQCWL","37SDSEDIN9ORHL92Y0GV7TIFJ2X187","","392.2000000476837","img/land5.png","76","393.09999990463257","3","1","3","1","0.8,0.2,0.2,0.2,0.8,0.2,0.2,0.2,0.8","0.8,0.2,0.2,0.2,0.8,0.2,0.2,0.2,0.8","1","",""
"","html-keyboard-response","87","132162","0.0-87.0","3WMOAN2SRCJUSOAY2IU5LXBE5IGVNE","A290TNNAJJQCWL","37SDSEDIN9ORHL92Y0GV7TIFJ2X187","","null","<img src=""img/land5.png"" style=""width:200px; border:14px solid green;"">","null","","","","","","","","","",""
"","image-keyboard-response","88","132591","0.0-88.0","3WMOAN2SRCJUSOAY2IU5LXBE5IGVNE","A290TNNAJJQCWL","37SDSEDIN9ORHL92Y0GV7TIFJ2X187","","428.10000002384186","img/land5.png","76","428.89999997615814","3","1","3","1","0.8,0.2,0.2,0.2,0.8,0.2,0.2,0.2,0.8","0.8,0.2,0.2,0.2,0.8,0.2,0.2,0.2,0.8","1","",""
"","html-keyboard-response","89","132902","0.0-89.0","3WMOAN2SRCJUSOAY2IU5LXBE5IGVNE","A290TNNAJJQCWL","37SDSEDIN9ORHL92Y0GV7TIFJ2X187","","null","<img src=""img/land5.png"" style=""width:200px; border:14px solid green;"">","null","","","","","","","","","",""
"","image-keyboard-response","90","133545","0.0-90.0","3WMOAN2SRCJUSOAY2IU5LXBE5IGVNE","A290TNNAJJQCWL","37SDSEDIN9ORHL92Y0GV7TIFJ2X187","","642.3000000715256","img/land4.png","75","643.0999999046326","2","0","1","1","0.8,0.2,0.2,0.2,0.8,0.2,0.2,0.2,0.8","0.8,0.2,0.2,0.2,0.8,0.2,0.2,0.2,0.8","1","",""
"","html-keyboard-response","91","133847","0.0-91.0","3WMOAN2SRCJUSOAY2IU5LXBE5IGVNE","A290TNNAJJQCWL","37SDSEDIN9ORHL92Y0GV7TIFJ2X187","","null","<img src=""img/land4.png"" style=""width:200px;border:14px solid red;"">","null","","","","","","","","","",""
"","image-keyboard-response","92","134260","0.0-92.0","3WMOAN2SRCJUSOAY2IU5LXBE5IGVNE","A290TNNAJJQCWL","37SDSEDIN9ORHL92Y0GV7TIFJ2X187","","412.10000002384186","img/land5.png","75","412.7999999523163","2","0","3","1","0.8,0.2,0.2,0.2,0.8,0.2,0.2,0.2,0.8","0.8,0.2,0.2,0.2,0.8,0.2,0.2,0.2,0.8","1","",""
"","html-keyboard-response","93","134568","0.0-93.0","3WMOAN2SRCJUSOAY2IU5LXBE5IGVNE","A290TNNAJJQCWL","37SDSEDIN9ORHL92Y0GV7TIFJ2X187","","null","<img src=""img/land5.png"" style=""width:200px;border:14px solid red;"">","null","","","","","","","","","",""
"","image-keyboard-response","94","134804","0.0-94.0","3WMOAN2SRCJUSOAY2IU5LXBE5IGVNE","A290TNNAJJQCWL","37SDSEDIN9ORHL92Y0GV7TIFJ2X187","","234.70000004768372","img/land4.png","76","235.80000007152557","3","0","1","1","0.8,0.2,0.2,0.2,0.8,0.2,0.2,0.2,0.8","0.8,0.2,0.2,0.2,0.8,0.2,0.2,0.2,0.8","1","",""
"","html-keyboard-response","95","135105","0.0-95.0","3WMOAN2SRCJUSOAY2IU5LXBE5IGVNE","A290TNNAJJQCWL","37SDSEDIN9ORHL92Y0GV7TIFJ2X187","","null","<img src=""img/land4.png"" style=""width:200px;border:14px solid red;"">","null","","","","","","","","","",""
"","image-keyboard-response","96","135381","0.0-96.0","3WMOAN2SRCJUSOAY2IU5LXBE5IGVNE","A290TNNAJJQCWL","37SDSEDIN9ORHL92Y0GV7TIFJ2X187","","274.5","img/land4.png","74","275.39999997615814","1","1","1","1","0.8,0.2,0.2,0.2,0.8,0.2,0.2,0.2,0.8","0.8,0.2,0.2,0.2,0.8,0.2,0.2,0.2,0.8","1","",""
"","html-keyboard-response","97","135684","0.0-97.0","3WMOAN2SRCJUSOAY2IU5LXBE5IGVNE","A290TNNAJJQCWL","37SDSEDIN9ORHL92Y0GV7TIFJ2X187","","null","<img src=""img/land4.png"" style=""width:200px; border:14px solid green;"">","null","","","","","","","","","",""
"","image-keyboard-response","98","135851","0.0-98.0","3WMOAN2SRCJUSOAY2IU5LXBE5IGVNE","A290TNNAJJQCWL","37SDSEDIN9ORHL92Y0GV7TIFJ2X187","","166.30000007152557","img/land2.png","74","167","1","0","2","1","0.8,0.2,0.2,0.2,0.8,0.2,0.2,0.2,0.8","0.8,0.2,0.2,0.2,0.8,0.2,0.2,0.2,0.8","1","",""
"","html-keyboard-response","99","136152","0.0-99.0","3WMOAN2SRCJUSOAY2IU5LXBE5IGVNE","A290TNNAJJQCWL","37SDSEDIN9ORHL92Y0GV7TIFJ2X187","","null","<img src=""img/land2.png"" style=""width:200px;border:14px solid red;"">","null","","","","","","","","","",""
"","image-keyboard-response","100","136335","0.0-100.0","3WMOAN2SRCJUSOAY2IU5LXBE5IGVNE","A290TNNAJJQCWL","37SDSEDIN9ORHL92Y0GV7TIFJ2X187","","181.10000002384186","img/land4.png","75","182","2","0","1","1","0.8,0.2,0.2,0.2,0.8,0.2,0.2,0.2,0.8","0.8,0.2,0.2,0.2,0.8,0.2,0.2,0.2,0.8","1","",""
"","html-keyboard-response","101","136636","0.0-101.0","3WMOAN2SRCJUSOAY2IU5LXBE5IGVNE","A290TNNAJJQCWL","37SDSEDIN9ORHL92Y0GV7TIFJ2X187","","null","<img src=""img/land4.png"" style=""width:200px;border:14px solid red;"">","null","","","","","","","","","",""
"","image-keyboard-response","102","136936","0.0-102.0","3WMOAN2SRCJUSOAY2IU5LXBE5IGVNE","A290TNNAJJQCWL","37SDSEDIN9ORHL92Y0GV7TIFJ2X187","","299.10000002384186","img/land4.png","74","299.89999997615814","1","1","1","1","0.8,0.2,0.2,0.2,0.8,0.2,0.2,0.2,0.8","0.8,0.2,0.2,0.2,0.8,0.2,0.2,0.2,0.8","1","",""
"","html-keyboard-response","103","137237","0.0-103.0","3WMOAN2SRCJUSOAY2IU5LXBE5IGVNE","A290TNNAJJQCWL","37SDSEDIN9ORHL92Y0GV7TIFJ2X187","","null","<img src=""img/land4.png"" style=""width:200px; border:14px solid green;"">","null","","","","","","","","","",""
"","image-keyboard-response","104","137412","0.0-104.0","3WMOAN2SRCJUSOAY2IU5LXBE5IGVNE","A290TNNAJJQCWL","37SDSEDIN9ORHL92Y0GV7TIFJ2X187","","173.5","img/land2.png","74","174.30000007152557","1","0","2","1","0.8,0.2,0.2,0.2,0.8,0.2,0.2,0.2,0.8","0.8,0.2,0.2,0.2,0.8,0.2,0.2,0.2,0.8","1","",""
"","html-keyboard-response","105","137719","0.0-105.0","3WMOAN2SRCJUSOAY2IU5LXBE5IGVNE","A290TNNAJJQCWL","37SDSEDIN9ORHL92Y0GV7TIFJ2X187","","null","<img src=""img/land2.png"" style=""width:200px;border:14px solid red;"">","null","","","","","","","","","",""
"","image-keyboard-response","106","137778","0.0-106.0","3WMOAN2SRCJUSOAY2IU5LXBE5IGVNE","A290TNNAJJQCWL","37SDSEDIN9ORHL92Y0GV7TIFJ2X187","","59","img/land2.png","75","59.699999928474426","2","1","2","1","0.8,0.2,0.2,0.2,0.8,0.2,0.2,0.2,0.8","0.8,0.2,0.2,0.2,0.8,0.2,0.2,0.2,0.8","1","",""
"","html-keyboard-response","107","138079","0.0-107.0","3WMOAN2SRCJUSOAY2IU5LXBE5IGVNE","A290TNNAJJQCWL","37SDSEDIN9ORHL92Y0GV7TIFJ2X187","","null","<img src=""img/land2.png"" style=""width:200px; border:14px solid green;"">","null","","","","","","","","","",""
"","image-keyboard-response","108","138307","0.0-108.0","3WMOAN2SRCJUSOAY2IU5LXBE5IGVNE","A290TNNAJJQCWL","37SDSEDIN9ORHL92Y0GV7TIFJ2X187","","227.20000004768372","img/land5.png","75","227.89999997615814","2","0","3","1","0.8,0.2,0.2,0.2,0.8,0.2,0.2,0.2,0.8","0.8,0.2,0.2,0.2,0.8,0.2,0.2,0.2,0.8","1","",""
"","html-keyboard-response","109","138610","0.0-109.0","3WMOAN2SRCJUSOAY2IU5LXBE5IGVNE","A290TNNAJJQCWL","37SDSEDIN9ORHL92Y0GV7TIFJ2X187","","null","<img src=""img/land5.png"" style=""width:200px;border:14px solid red;"">","null","","","","","","","","","",""
"","image-keyboard-response","110","138689","0.0-110.0","3WMOAN2SRCJUSOAY2IU5LXBE5IGVNE","A290TNNAJJQCWL","37SDSEDIN9ORHL92Y0GV7TIFJ2X187","","78.59999990463257","img/land5.png","76","79.5","3","0","3","1","0.8,0.2,0.2,0.2,0.8,0.2,0.2,0.2,0.8","0.8,0.2,0.2,0.2,0.8,0.2,0.2,0.2,0.8","1","",""
"","html-keyboard-response","111","138991","0.0-111.0","3WMOAN2SRCJUSOAY2IU5LXBE5IGVNE","A290TNNAJJQCWL","37SDSEDIN9ORHL92Y0GV7TIFJ2X187","","null","<img src=""img/land5.png"" style=""width:200px;border:14px solid red;"">","null","","","","","","","","","",""
"","image-keyboard-response","112","139133","0.0-112.0","3WMOAN2SRCJUSOAY2IU5LXBE5IGVNE","A290TNNAJJQCWL","37SDSEDIN9ORHL92Y0GV7TIFJ2X187","","141.5","img/land4.png","76","142.29999995231628","3","0","1","1","0.8,0.2,0.2,0.2,0.8,0.2,0.2,0.2,0.8","0.8,0.2,0.2,0.2,0.8,0.2,0.2,0.2,0.8","1","",""
"","html-keyboard-response","113","139435","0.0-113.0","3WMOAN2SRCJUSOAY2IU5LXBE5IGVNE","A290TNNAJJQCWL","37SDSEDIN9ORHL92Y0GV7TIFJ2X187","","null","<img src=""img/land4.png"" style=""width:200px;border:14px solid red;"">","null","","","","","","","","","",""
"","image-keyboard-response","114","139674","0.0-114.0","3WMOAN2SRCJUSOAY2IU5LXBE5IGVNE","A290TNNAJJQCWL","37SDSEDIN9ORHL92Y0GV7TIFJ2X187","","238.30000007152557","img/land5.png","75","239.79999995231628","2","1","3","1","0.8,0.2,0.2,0.2,0.8,0.2,0.2,0.2,0.8","0.8,0.2,0.2,0.2,0.8,0.2,0.2,0.2,0.8","1","",""
"","html-keyboard-response","115","139991","0.0-115.0","3WMOAN2SRCJUSOAY2IU5LXBE5IGVNE","A290TNNAJJQCWL","37SDSEDIN9ORHL92Y0GV7TIFJ2X187","","null","<img src=""img/land5.png"" style=""width:200px; border:14px solid green;"">","null","","","","","","","","","",""
"","image-keyboard-response","116","140350","0.0-116.0","3WMOAN2SRCJUSOAY2IU5LXBE5IGVNE","A290TNNAJJQCWL","37SDSEDIN9ORHL92Y0GV7TIFJ2X187","","358.6999999284744","img/land4.png","76","359.5","3","0","1","1","0.8,0.2,0.2,0.2,0.8,0.2,0.2,0.2,0.8","0.8,0.2,0.2,0.2,0.8,0.2,0.2,0.2,0.8","1","",""
"","html-keyboard-response","117","140653","0.0-117.0","3WMOAN2SRCJUSOAY2IU5LXBE5IGVNE","A290TNNAJJQCWL","37SDSEDIN9ORHL92Y0GV7TIFJ2X187","","null","<img src=""img/land4.png"" style=""width:200px;border:14px solid red;"">","null","","","","","","","","","",""
"","image-keyboard-response","118","140744","0.0-118.0","3WMOAN2SRCJUSOAY2IU5LXBE5IGVNE","A290TNNAJJQCWL","37SDSEDIN9ORHL92Y0GV7TIFJ2X187","","90.39999997615814","img/land4.png","76","91.20000004768372","3","0","1","1","0.8,0.2,0.2,0.2,0.8,0.2,0.2,0.2,0.8","0.8,0.2,0.2,0.2,0.8,0.2,0.2,0.2,0.8","1","",""
"","html-keyboard-response","119","141046","0.0-119.0","3WMOAN2SRCJUSOAY2IU5LXBE5IGVNE","A290TNNAJJQCWL","37SDSEDIN9ORHL92Y0GV7TIFJ2X187","","null","<img src=""img/land4.png"" style=""width:200px;border:14px solid red;"">","null","","","","","","","","","",""
"","image-keyboard-response","120","141310","0.0-120.0","3WMOAN2SRCJUSOAY2IU5LXBE5IGVNE","A290TNNAJJQCWL","37SDSEDIN9ORHL92Y0GV7TIFJ2X187","","263.2000000476837","img/land5.png","74","264.10000002384186","1","0","3","1","0.8,0.2,0.2,0.2,0.8,0.2,0.2,0.2,0.8","0.8,0.2,0.2,0.2,0.8,0.2,0.2,0.2,0.8","1","",""
"","html-keyboard-response","121","141612","0.0-121.0","3WMOAN2SRCJUSOAY2IU5LXBE5IGVNE","A290TNNAJJQCWL","37SDSEDIN9ORHL92Y0GV7TIFJ2X187","","null","<img src=""img/land5.png"" style=""width:200px;border:14px solid red;"">","null","","","","","","","","","",""
"","image-keyboard-response","122","141878","0.0-122.0","3WMOAN2SRCJUSOAY2IU5LXBE5IGVNE","A290TNNAJJQCWL","37SDSEDIN9ORHL92Y0GV7TIFJ2X187","","265.10000002384186","img/land5.png","76","265.90000009536743","3","1","3","1","0.8,0.2,0.2,0.2,0.8,0.2,0.2,0.2,0.8","0.8,0.2,0.2,0.2,0.8,0.2,0.2,0.2,0.8","1","",""
"","html-keyboard-response","123","142179","0.0-123.0","3WMOAN2SRCJUSOAY2IU5LXBE5IGVNE","A290TNNAJJQCWL","37SDSEDIN9ORHL92Y0GV7TIFJ2X187","","null","<img src=""img/land5.png"" style=""width:200px; border:14px solid green;"">","null","","","","","","","","","",""
"","image-keyboard-response","124","142411","0.0-124.0","3WMOAN2SRCJUSOAY2IU5LXBE5IGVNE","A290TNNAJJQCWL","37SDSEDIN9ORHL92Y0GV7TIFJ2X187","","231.20000004768372","img/land4.png","76","232","3","0","1","1","0.8,0.2,0.2,0.2,0.8,0.2,0.2,0.2,0.8","0.8,0.2,0.2,0.2,0.8,0.2,0.2,0.2,0.8","1","",""
"","html-keyboard-response","125","142713","0.0-125.0","3WMOAN2SRCJUSOAY2IU5LXBE5IGVNE","A290TNNAJJQCWL","37SDSEDIN9ORHL92Y0GV7TIFJ2X187","","null","<img src=""img/land4.png"" style=""width:200px;border:14px solid red;"">","null","","","","","","","","","",""
"","image-keyboard-response","126","142842","0.0-126.0","3WMOAN2SRCJUSOAY2IU5LXBE5IGVNE","A290TNNAJJQCWL","37SDSEDIN9ORHL92Y0GV7TIFJ2X187","","128.20000004768372","img/land2.png","75","129","2","1","2","1","0.8,0.2,0.2,0.2,0.8,0.2,0.2,0.2,0.8","0.8,0.2,0.2,0.2,0.8,0.2,0.2,0.2,0.8","1","",""
"","html-keyboard-response","127","143145","0.0-127.0","3WMOAN2SRCJUSOAY2IU5LXBE5IGVNE","A290TNNAJJQCWL","37SDSEDIN9ORHL92Y0GV7TIFJ2X187","","null","<img src=""img/land2.png"" style=""width:200px; border:14px solid green;"">","null","","","","","","","","","",""
"","image-keyboard-response","128","143524","0.0-128.0","3WMOAN2SRCJUSOAY2IU5LXBE5IGVNE","A290TNNAJJQCWL","37SDSEDIN9ORHL92Y0GV7TIFJ2X187","","378","img/land4.png","74","378.7000000476837","1","1","1","1","0.8,0.2,0.2,0.2,0.8,0.2,0.2,0.2,0.8","0.8,0.2,0.2,0.2,0.8,0.2,0.2,0.2,0.8","1","",""
"","html-keyboard-response","129","143825","0.0-129.0","3WMOAN2SRCJUSOAY2IU5LXBE5IGVNE","A290TNNAJJQCWL","37SDSEDIN9ORHL92Y0GV7TIFJ2X187","","null","<img src=""img/land4.png"" style=""width:200px; border:14px solid green;"">","null","","","","","","","","","",""
"","image-keyboard-response","130","144025","0.0-130.0","3WMOAN2SRCJUSOAY2IU5LXBE5IGVNE","A290TNNAJJQCWL","37SDSEDIN9ORHL92Y0GV7TIFJ2X187","","197.70000004768372","img/land5.png","74","198.5","1","0","3","1","0.8,0.2,0.2,0.2,0.8,0.2,0.2,0.2,0.8","0.8,0.2,0.2,0.2,0.8,0.2,0.2,0.2,0.8","1","",""
"","html-keyboard-response","131","144326","0.0-131.0","3WMOAN2SRCJUSOAY2IU5LXBE5IGVNE","A290TNNAJJQCWL","37SDSEDIN9ORHL92Y0GV7TIFJ2X187","","null","<img src=""img/land5.png"" style=""width:200px;border:14px solid red;"">","null","","","","","","","","","",""
"","image-keyboard-response","132","144856","0.0-132.0","3WMOAN2SRCJUSOAY2IU5LXBE5IGVNE","A290TNNAJJQCWL","37SDSEDIN9ORHL92Y0GV7TIFJ2X187","","528.6999999284744","img/land2.png","75","529.3999999761581","2","1","2","1","0.8,0.2,0.2,0.2,0.8,0.2,0.2,0.2,0.8","0.8,0.2,0.2,0.2,0.8,0.2,0.2,0.2,0.8","1","",""
"","html-keyboard-response","133","145157","0.0-133.0","3WMOAN2SRCJUSOAY2IU5LXBE5IGVNE","A290TNNAJJQCWL","37SDSEDIN9ORHL92Y0GV7TIFJ2X187","","null","<img src=""img/land2.png"" style=""width:200px; border:14px solid green;"">","null","","","","","","","","","",""
"","image-keyboard-response","134","145459","0.0-134.0","3WMOAN2SRCJUSOAY2IU5LXBE5IGVNE","A290TNNAJJQCWL","37SDSEDIN9ORHL92Y0GV7TIFJ2X187","","301.3000000715256","img/land2.png","75","302.1999999284744","2","1","2","1","0.8,0.2,0.2,0.2,0.8,0.2,0.2,0.2,0.8","0.8,0.2,0.2,0.2,0.8,0.2,0.2,0.2,0.8","1","",""
"","html-keyboard-response","135","145761","0.0-135.0","3WMOAN2SRCJUSOAY2IU5LXBE5IGVNE","A290TNNAJJQCWL","37SDSEDIN9ORHL92Y0GV7TIFJ2X187","","null","<img src=""img/land2.png"" style=""width:200px; border:14px solid green;"">","null","","","","","","","","","",""
"","image-keyboard-response","136","146032","0.0-136.0","3WMOAN2SRCJUSOAY2IU5LXBE5IGVNE","A290TNNAJJQCWL","37SDSEDIN9ORHL92Y0GV7TIFJ2X187","","269.7999999523163","img/land4.png","75","270.5","2","1","1","1","0.8,0.2,0.2,0.2,0.8,0.2,0.2,0.2,0.8","0.8,0.2,0.2,0.2,0.8,0.2,0.2,0.2,0.8","1","",""
"","html-keyboard-response","137","146333","0.0-137.0","3WMOAN2SRCJUSOAY2IU5LXBE5IGVNE","A290TNNAJJQCWL","37SDSEDIN9ORHL92Y0GV7TIFJ2X187","","null","<img src=""img/land4.png"" style=""width:200px; border:14px solid green;"">","null","","","","","","","","","",""
"","image-keyboard-response","138","146359","0.0-138.0","3WMOAN2SRCJUSOAY2IU5LXBE5IGVNE","A290TNNAJJQCWL","37SDSEDIN9ORHL92Y0GV7TIFJ2X187","","24.59999990463257","img/land2.png","74","25.5","1","0","2","1","0.8,0.2,0.2,0.2,0.8,0.2,0.2,0.2,0.8","0.8,0.2,0.2,0.2,0.8,0.2,0.2,0.2,0.8","1","",""
"","html-keyboard-response","139","146660","0.0-139.0","3WMOAN2SRCJUSOAY2IU5LXBE5IGVNE","A290TNNAJJQCWL","37SDSEDIN9ORHL92Y0GV7TIFJ2X187","","null","<img src=""img/land2.png"" style=""width:200px;border:14px solid red;"">","null","","","","","","","","","",""
"","image-keyboard-response","140","147199","0.0-140.0","3WMOAN2SRCJUSOAY2IU5LXBE5IGVNE","A290TNNAJJQCWL","37SDSEDIN9ORHL92Y0GV7TIFJ2X187","","537.7000000476837","img/land2.png","75","538.5999999046326","2","0","2","1","0.8,0.2,0.2,0.2,0.8,0.2,0.2,0.2,0.8","0.8,0.2,0.2,0.2,0.8,0.2,0.2,0.2,0.8","1","",""
"","html-keyboard-response","141","147500","0.0-141.0","3WMOAN2SRCJUSOAY2IU5LXBE5IGVNE","A290TNNAJJQCWL","37SDSEDIN9ORHL92Y0GV7TIFJ2X187","","null","<img src=""img/land2.png"" style=""width:200px;border:14px solid red;"">","null","","","","","","","","","",""
"","image-keyboard-response","142","147797","0.0-142.0","3WMOAN2SRCJUSOAY2IU5LXBE5IGVNE","A290TNNAJJQCWL","37SDSEDIN9ORHL92Y0GV7TIFJ2X187","","296","img/land2.png","75","296.6999999284744","2","1","2","1","0.8,0.2,0.2,0.2,0.8,0.2,0.2,0.2,0.8","0.8,0.2,0.2,0.2,0.8,0.2,0.2,0.2,0.8","1","",""
"","html-keyboard-response","143","148098","0.0-143.0","3WMOAN2SRCJUSOAY2IU5LXBE5IGVNE","A290TNNAJJQCWL","37SDSEDIN9ORHL92Y0GV7TIFJ2X187","","null","<img src=""img/land2.png"" style=""width:200px; border:14px solid green;"">","null","","","","","","","","","",""
"","image-keyboard-response","144","148206","0.0-144.0","3WMOAN2SRCJUSOAY2IU5LXBE5IGVNE","A290TNNAJJQCWL","37SDSEDIN9ORHL92Y0GV7TIFJ2X187","","107.30000007152557","img/land2.png","75","108.10000002384186","2","0","2","1","0.8,0.2,0.2,0.2,0.8,0.2,0.2,0.2,0.8","0.8,0.2,0.2,0.2,0.8,0.2,0.2,0.2,0.8","1","",""
"","html-keyboard-response","145","148508","0.0-145.0","3WMOAN2SRCJUSOAY2IU5LXBE5IGVNE","A290TNNAJJQCWL","37SDSEDIN9ORHL92Y0GV7TIFJ2X187","","null","<img src=""img/land2.png"" style=""width:200px;border:14px solid red;"">","null","","","","","","","","","",""
"","image-keyboard-response","146","149007","0.0-146.0","3WMOAN2SRCJUSOAY2IU5LXBE5IGVNE","A290TNNAJJQCWL","37SDSEDIN9ORHL92Y0GV7TIFJ2X187","","497.7999999523163","img/land4.png","74","498.8000000715256","1","1","1","1","0.8,0.2,0.2,0.2,0.8,0.2,0.2,0.2,0.8","0.8,0.2,0.2,0.2,0.8,0.2,0.2,0.2,0.8","1","",""
"","html-keyboard-response","147","149308","0.0-147.0","3WMOAN2SRCJUSOAY2IU5LXBE5IGVNE","A290TNNAJJQCWL","37SDSEDIN9ORHL92Y0GV7TIFJ2X187","","null","<img src=""img/land4.png"" style=""width:200px; border:14px solid green;"">","null","","","","","","","","","",""
"","image-keyboard-response","148","149735","0.0-148.0","3WMOAN2SRCJUSOAY2IU5LXBE5IGVNE","A290TNNAJJQCWL","37SDSEDIN9ORHL92Y0GV7TIFJ2X187","","425.89999997615814","img/land5.png","75","426.7000000476837","2","1","3","1","0.8,0.2,0.2,0.2,0.8,0.2,0.2,0.2,0.8","0.8,0.2,0.2,0.2,0.8,0.2,0.2,0.2,0.8","1","",""
"","html-keyboard-response","149","150036","0.0-149.0","3WMOAN2SRCJUSOAY2IU5LXBE5IGVNE","A290TNNAJJQCWL","37SDSEDIN9ORHL92Y0GV7TIFJ2X187","","null","<img src=""img/land5.png"" style=""width:200px; border:14px solid green;"">","null","","","","","","","","","",""
"","image-keyboard-response","150","150068","0.0-150.0","3WMOAN2SRCJUSOAY2IU5LXBE5IGVNE","A290TNNAJJQCWL","37SDSEDIN9ORHL92Y0GV7TIFJ2X187","","30.399999976158142","img/land2.png","76","31.399999976158142","3","0","2","1","0.8,0.2,0.2,0.2,0.8,0.2,0.2,0.2,0.8","0.8,0.2,0.2,0.2,0.8,0.2,0.2,0.2,0.8","1","",""
"","html-keyboard-response","151","150370","0.0-151.0","3WMOAN2SRCJUSOAY2IU5LXBE5IGVNE","A290TNNAJJQCWL","37SDSEDIN9ORHL92Y0GV7TIFJ2X187","","null","<img src=""img/land2.png"" style=""width:200px;border:14px solid red;"">","null","","","","","","","","","",""
"","image-keyboard-response","152","151088","0.0-152.0","3WMOAN2SRCJUSOAY2IU5LXBE5IGVNE","A290TNNAJJQCWL","37SDSEDIN9ORHL92Y0GV7TIFJ2X187","","716.7999999523163","img/land4.png","76","717.7000000476837","3","1","1","1","0.8,0.2,0.2,0.2,0.8,0.2,0.2,0.2,0.8","0.8,0.2,0.2,0.2,0.8,0.2,0.2,0.2,0.8","1","",""
"","html-keyboard-response","153","151389","0.0-153.0","3WMOAN2SRCJUSOAY2IU5LXBE5IGVNE","A290TNNAJJQCWL","37SDSEDIN9ORHL92Y0GV7TIFJ2X187","","null","<img src=""img/land4.png"" style=""width:200px; border:14px solid green;"">","null","","","","","","","","","",""
"","image-keyboard-response","154","151718","0.0-154.0","3WMOAN2SRCJUSOAY2IU5LXBE5IGVNE","A290TNNAJJQCWL","37SDSEDIN9ORHL92Y0GV7TIFJ2X187","","327.60000002384186","img/land4.png","75","328.2999999523163","2","0","1","1","0.8,0.2,0.2,0.2,0.8,0.2,0.2,0.2,0.8","0.8,0.2,0.2,0.2,0.8,0.2,0.2,0.2,0.8","1","",""
"","html-keyboard-response","155","152019","0.0-155.0","3WMOAN2SRCJUSOAY2IU5LXBE5IGVNE","A290TNNAJJQCWL","37SDSEDIN9ORHL92Y0GV7TIFJ2X187","","null","<img src=""img/land4.png"" style=""width:200px;border:14px solid red;"">","null","","","","","","","","","",""
"","image-keyboard-response","156","152362","0.0-156.0","3WMOAN2SRCJUSOAY2IU5LXBE5IGVNE","A290TNNAJJQCWL","37SDSEDIN9ORHL92Y0GV7TIFJ2X187","","341.7999999523163","img/land2.png","74","342.7000000476837","1","0","2","1","0.8,0.2,0.2,0.2,0.8,0.2,0.2,0.2,0.8","0.8,0.2,0.2,0.2,0.8,0.2,0.2,0.2,0.8","1","",""
"","html-keyboard-response","157","152664","0.0-157.0","3WMOAN2SRCJUSOAY2IU5LXBE5IGVNE","A290TNNAJJQCWL","37SDSEDIN9ORHL92Y0GV7TIFJ2X187","","null","<img src=""img/land2.png"" style=""width:200px;border:14px solid red;"">","null","","","","","","","","","",""
"","image-keyboard-response","158","153086","0.0-158.0","3WMOAN2SRCJUSOAY2IU5LXBE5IGVNE","A290TNNAJJQCWL","37SDSEDIN9ORHL92Y0GV7TIFJ2X187","","421.59999990463257","img/land4.png","75","422.39999997615814","2","0","1","1","0.8,0.2,0.2,0.2,0.8,0.2,0.2,0.2,0.8","0.8,0.2,0.2,0.2,0.8,0.2,0.2,0.2,0.8","1","",""
"","html-keyboard-response","159","153389","0.0-159.0","3WMOAN2SRCJUSOAY2IU5LXBE5IGVNE","A290TNNAJJQCWL","37SDSEDIN9ORHL92Y0GV7TIFJ2X187","","null","<img src=""img/land4.png"" style=""width:200px;border:14px solid red;"">","null","","","","","","","","","",""
"","image-keyboard-response","160","153538","0.0-160.0","3WMOAN2SRCJUSOAY2IU5LXBE5IGVNE","A290TNNAJJQCWL","37SDSEDIN9ORHL92Y0GV7TIFJ2X187","","147.90000009536743","img/land2.png","76","148.60000002384186","3","0","2","1","0.8,0.2,0.2,0.2,0.8,0.2,0.2,0.2,0.8","0.8,0.2,0.2,0.2,0.8,0.2,0.2,0.2,0.8","1","",""
"","html-keyboard-response","161","153841","0.0-161.0","3WMOAN2SRCJUSOAY2IU5LXBE5IGVNE","A290TNNAJJQCWL","37SDSEDIN9ORHL92Y0GV7TIFJ2X187","","null","<img src=""img/land2.png"" style=""width:200px;border:14px solid red;"">","null","","","","","","","","","",""
"","image-keyboard-response","162","154233","0.0-162.0","3WMOAN2SRCJUSOAY2IU5LXBE5IGVNE","A290TNNAJJQCWL","37SDSEDIN9ORHL92Y0GV7TIFJ2X187","","391","img/land5.png","76","391.89999997615814","3","0","3","1","0.8,0.2,0.2,0.2,0.8,0.2,0.2,0.2,0.8","0.8,0.2,0.2,0.2,0.8,0.2,0.2,0.2,0.8","1","",""
"","html-keyboard-response","163","154536","0.0-163.0","3WMOAN2SRCJUSOAY2IU5LXBE5IGVNE","A290TNNAJJQCWL","37SDSEDIN9ORHL92Y0GV7TIFJ2X187","","null","<img src=""img/land5.png"" style=""width:200px;border:14px solid red;"">","null","","","","","","","","","",""
"","image-keyboard-response","164","155083","0.0-164.0","3WMOAN2SRCJUSOAY2IU5LXBE5IGVNE","A290TNNAJJQCWL","37SDSEDIN9ORHL92Y0GV7TIFJ2X187","","545.9000000953674","img/land4.png","75","546.7999999523163","2","0","1","1","0.8,0.2,0.2,0.2,0.8,0.2,0.2,0.2,0.8","0.8,0.2,0.2,0.2,0.8,0.2,0.2,0.2,0.8","1","",""
"","html-keyboard-response","165","155384","0.0-165.0","3WMOAN2SRCJUSOAY2IU5LXBE5IGVNE","A290TNNAJJQCWL","37SDSEDIN9ORHL92Y0GV7TIFJ2X187","","null","<img src=""img/land4.png"" style=""width:200px;border:14px solid red;"">","null","","","","","","","","","",""
"","image-keyboard-response","166","155638","0.0-166.0","3WMOAN2SRCJUSOAY2IU5LXBE5IGVNE","A290TNNAJJQCWL","37SDSEDIN9ORHL92Y0GV7TIFJ2X187","","253.20000004768372","img/land4.png","74","254","1","1","1","1","0.8,0.2,0.2,0.2,0.8,0.2,0.2,0.2,0.8","0.8,0.2,0.2,0.2,0.8,0.2,0.2,0.2,0.8","1","",""
"","html-keyboard-response","167","155948","0.0-167.0","3WMOAN2SRCJUSOAY2IU5LXBE5IGVNE","A290TNNAJJQCWL","37SDSEDIN9ORHL92Y0GV7TIFJ2X187","","null","<img src=""img/land4.png"" style=""width:200px; border:14px solid green;"">","null","","","","","","","","","",""
"","image-keyboard-response","168","156458","0.0-168.0","3WMOAN2SRCJUSOAY2IU5LXBE5IGVNE","A290TNNAJJQCWL","37SDSEDIN9ORHL92Y0GV7TIFJ2X187","","508.89999997615814","img/land2.png","75","509.7000000476837","2","1","2","1","0.8,0.2,0.2,0.2,0.8,0.2,0.2,0.2,0.8","0.8,0.2,0.2,0.2,0.8,0.2,0.2,0.2,0.8","1","",""
"","html-keyboard-response","169","156762","0.0-169.0","3WMOAN2SRCJUSOAY2IU5LXBE5IGVNE","A290TNNAJJQCWL","37SDSEDIN9ORHL92Y0GV7TIFJ2X187","","null","<img src=""img/land2.png"" style=""width:200px; border:14px solid green;"">","null","","","","","","","","","",""
"","image-keyboard-response","170","157095","0.0-170.0","3WMOAN2SRCJUSOAY2IU5LXBE5IGVNE","A290TNNAJJQCWL","37SDSEDIN9ORHL92Y0GV7TIFJ2X187","","331.40000009536743","img/land2.png","75","332.10000002384186","2","1","2","1","0.8,0.2,0.2,0.2,0.8,0.2,0.2,0.2,0.8","0.8,0.2,0.2,0.2,0.8,0.2,0.2,0.2,0.8","1","",""
"","html-keyboard-response","171","157397","0.0-171.0","3WMOAN2SRCJUSOAY2IU5LXBE5IGVNE","A290TNNAJJQCWL","37SDSEDIN9ORHL92Y0GV7TIFJ2X187","","null","<img src=""img/land2.png"" style=""width:200px; border:14px solid green;"">","null","","","","","","","","","",""
"","image-keyboard-response","172","157839","0.0-172.0","3WMOAN2SRCJUSOAY2IU5LXBE5IGVNE","A290TNNAJJQCWL","37SDSEDIN9ORHL92Y0GV7TIFJ2X187","","440.60000002384186","img/land5.png","74","441.7000000476837","1","1","3","1","0.8,0.2,0.2,0.2,0.8,0.2,0.2,0.2,0.8","0.8,0.2,0.2,0.2,0.8,0.2,0.2,0.2,0.8","1","",""
"","html-keyboard-response","173","158141","0.0-173.0","3WMOAN2SRCJUSOAY2IU5LXBE5IGVNE","A290TNNAJJQCWL","37SDSEDIN9ORHL92Y0GV7TIFJ2X187","","null","<img src=""img/land5.png"" style=""width:200px; border:14px solid green;"">","null","","","","","","","","","",""
"","image-keyboard-response","174","158211","0.0-174.0","3WMOAN2SRCJUSOAY2IU5LXBE5IGVNE","A290TNNAJJQCWL","37SDSEDIN9ORHL92Y0GV7TIFJ2X187","","68.80000007152557","img/land2.png","76","69.5","3","0","2","1","0.8,0.2,0.2,0.2,0.8,0.2,0.2,0.2,0.8","0.8,0.2,0.2,0.2,0.8,0.2,0.2,0.2,0.8","1","",""
"","html-keyboard-response","175","158512","0.0-175.0","3WMOAN2SRCJUSOAY2IU5LXBE5IGVNE","A290TNNAJJQCWL","37SDSEDIN9ORHL92Y0GV7TIFJ2X187","","null","<img src=""img/land2.png"" style=""width:200px;border:14px solid red;"">","null","","","","","","","","","",""
"","image-keyboard-response","176","158815","0.0-176.0","3WMOAN2SRCJUSOAY2IU5LXBE5IGVNE","A290TNNAJJQCWL","37SDSEDIN9ORHL92Y0GV7TIFJ2X187","","302.2999999523163","img/land2.png","75","303.2000000476837","2","1","2","1","0.8,0.2,0.2,0.2,0.8,0.2,0.2,0.2,0.8","0.8,0.2,0.2,0.2,0.8,0.2,0.2,0.2,0.8","1","",""
"","html-keyboard-response","177","159117","0.0-177.0","3WMOAN2SRCJUSOAY2IU5LXBE5IGVNE","A290TNNAJJQCWL","37SDSEDIN9ORHL92Y0GV7TIFJ2X187","","null","<img src=""img/land2.png"" style=""width:200px; border:14px solid green;"">","null","","","","","","","","","",""
"","image-keyboard-response","178","159685","0.0-178.0","3WMOAN2SRCJUSOAY2IU5LXBE5IGVNE","A290TNNAJJQCWL","37SDSEDIN9ORHL92Y0GV7TIFJ2X187","","567.2999999523163","img/land5.png","76","568.1999999284744","3","1","3","1","0.8,0.2,0.2,0.2,0.8,0.2,0.2,0.2,0.8","0.8,0.2,0.2,0.2,0.8,0.2,0.2,0.2,0.8","1","",""
"","html-keyboard-response","179","159987","0.0-179.0","3WMOAN2SRCJUSOAY2IU5LXBE5IGVNE","A290TNNAJJQCWL","37SDSEDIN9ORHL92Y0GV7TIFJ2X187","","null","<img src=""img/land5.png"" style=""width:200px; border:14px solid green;"">","null","","","","","","","","","",""
"","image-keyboard-response","180","160467","0.0-180.0","3WMOAN2SRCJUSOAY2IU5LXBE5IGVNE","A290TNNAJJQCWL","37SDSEDIN9ORHL92Y0GV7TIFJ2X187","","479.5","img/land4.png","75","480.2999999523163","2","0","1","1","0.8,0.2,0.2,0.2,0.8,0.2,0.2,0.2,0.8","0.8,0.2,0.2,0.2,0.8,0.2,0.2,0.2,0.8","1","",""
"","html-keyboard-response","181","160770","0.0-181.0","3WMOAN2SRCJUSOAY2IU5LXBE5IGVNE","A290TNNAJJQCWL","37SDSEDIN9ORHL92Y0GV7TIFJ2X187","","null","<img src=""img/land4.png"" style=""width:200px;border:14px solid red;"">","null","","","","","","","","","",""
"","html-keyboard-response","182","165277","0.0-182.0","3WMOAN2SRCJUSOAY2IU5LXBE5IGVNE","A290TNNAJJQCWL","37SDSEDIN9ORHL92Y0GV7TIFJ2X187","","","","","","","","","","","","","",""
"","image-keyboard-response","183","165982","0.0-183.0","3WMOAN2SRCJUSOAY2IU5LXBE5IGVNE","A290TNNAJJQCWL","37SDSEDIN9ORHL92Y0GV7TIFJ2X187","","703.7000000476837","img/land3.png","76","704.7000000476837","3","0","1","2","0.8,0.2,0.2,0.2,0.8,0.2,0.2,0.2,0.8","0.2,0.8,0.2,0.2,0.2,0.8,0.8,0.2,0.2","3","",""
"","html-keyboard-response","184","166284","0.0-184.0","3WMOAN2SRCJUSOAY2IU5LXBE5IGVNE","A290TNNAJJQCWL","37SDSEDIN9ORHL92Y0GV7TIFJ2X187","","null","<img src=""img/land3.png"" style=""width:200px;border:14px solid red;"">","null","","","","","","","","","",""
"","image-keyboard-response","185","166708","0.0-185.0","3WMOAN2SRCJUSOAY2IU5LXBE5IGVNE","A290TNNAJJQCWL","37SDSEDIN9ORHL92Y0GV7TIFJ2X187","","422","img/land3.png","76","423","3","0","1","2","0.8,0.2,0.2,0.2,0.8,0.2,0.2,0.2,0.8","0.2,0.8,0.2,0.2,0.2,0.8,0.8,0.2,0.2","3","",""
"","html-keyboard-response","186","167010","0.0-186.0","3WMOAN2SRCJUSOAY2IU5LXBE5IGVNE","A290TNNAJJQCWL","37SDSEDIN9ORHL92Y0GV7TIFJ2X187","","null","<img src=""img/land3.png"" style=""width:200px;border:14px solid red;"">","null","","","","","","","","","",""
"","image-keyboard-response","187","167691","0.0-187.0","3WMOAN2SRCJUSOAY2IU5LXBE5IGVNE","A290TNNAJJQCWL","37SDSEDIN9ORHL92Y0GV7TIFJ2X187","","680.6999999284744","img/land6.png","76","681.6000000238419","3","1","2","2","0.8,0.2,0.2,0.2,0.8,0.2,0.2,0.2,0.8","0.2,0.8,0.2,0.2,0.2,0.8,0.8,0.2,0.2","3","",""
"","html-keyboard-response","188","167993","0.0-188.0","3WMOAN2SRCJUSOAY2IU5LXBE5IGVNE","A290TNNAJJQCWL","37SDSEDIN9ORHL92Y0GV7TIFJ2X187","","null","<img src=""img/land6.png"" style=""width:200px; border:14px solid green;"">","null","","","","","","","","","",""
"","image-keyboard-response","189","168728","0.0-189.0","3WMOAN2SRCJUSOAY2IU5LXBE5IGVNE","A290TNNAJJQCWL","37SDSEDIN9ORHL92Y0GV7TIFJ2X187","","734.1999999284744","img/land3.png","75","735","2","1","1","2","0.8,0.2,0.2,0.2,0.8,0.2,0.2,0.2,0.8","0.2,0.8,0.2,0.2,0.2,0.8,0.8,0.2,0.2","3","",""
"","html-keyboard-response","190","169045","0.0-190.0","3WMOAN2SRCJUSOAY2IU5LXBE5IGVNE","A290TNNAJJQCWL","37SDSEDIN9ORHL92Y0GV7TIFJ2X187","","null","<img src=""img/land3.png"" style=""width:200px; border:14px solid green;"">","null","","","","","","","","","",""
"","image-keyboard-response","191","169411","0.0-191.0","3WMOAN2SRCJUSOAY2IU5LXBE5IGVNE","A290TNNAJJQCWL","37SDSEDIN9ORHL92Y0GV7TIFJ2X187","","365.5","img/land3.png","75","366.2000000476837","2","1","1","2","0.8,0.2,0.2,0.2,0.8,0.2,0.2,0.2,0.8","0.2,0.8,0.2,0.2,0.2,0.8,0.8,0.2,0.2","3","",""
"","html-keyboard-response","192","169714","0.0-192.0","3WMOAN2SRCJUSOAY2IU5LXBE5IGVNE","A290TNNAJJQCWL","37SDSEDIN9ORHL92Y0GV7TIFJ2X187","","null","<img src=""img/land3.png"" style=""width:200px; border:14px solid green;"">","null","","","","","","","","","",""
"","image-keyboard-response","193","170095","0.0-193.0","3WMOAN2SRCJUSOAY2IU5LXBE5IGVNE","A290TNNAJJQCWL","37SDSEDIN9ORHL92Y0GV7TIFJ2X187","","379.60000002384186","img/land3.png","75","380.60000002384186","2","1","1","2","0.8,0.2,0.2,0.2,0.8,0.2,0.2,0.2,0.8","0.2,0.8,0.2,0.2,0.2,0.8,0.8,0.2,0.2","3","",""
"","html-keyboard-response","194","170396","0.0-194.0","3WMOAN2SRCJUSOAY2IU5LXBE5IGVNE","A290TNNAJJQCWL","37SDSEDIN9ORHL92Y0GV7TIFJ2X187","","null","<img src=""img/land3.png"" style=""width:200px; border:14px solid green;"">","null","","","","","","","","","",""
"","image-keyboard-response","195","170942","0.0-195.0","3WMOAN2SRCJUSOAY2IU5LXBE5IGVNE","A290TNNAJJQCWL","37SDSEDIN9ORHL92Y0GV7TIFJ2X187","","545.3000000715256","img/land1.png","76","546","3","0","3","2","0.8,0.2,0.2,0.2,0.8,0.2,0.2,0.2,0.8","0.2,0.8,0.2,0.2,0.2,0.8,0.8,0.2,0.2","3","",""
"","html-keyboard-response","196","171244","0.0-196.0","3WMOAN2SRCJUSOAY2IU5LXBE5IGVNE","A290TNNAJJQCWL","37SDSEDIN9ORHL92Y0GV7TIFJ2X187","","null","<img src=""img/land1.png"" style=""width:200px;border:14px solid red;"">","null","","","","","","","","","",""
"","image-keyboard-response","197","171695","0.0-197.0","3WMOAN2SRCJUSOAY2IU5LXBE5IGVNE","A290TNNAJJQCWL","37SDSEDIN9ORHL92Y0GV7TIFJ2X187","","449.6999999284744","img/land3.png","75","450.39999997615814","2","1","1","2","0.8,0.2,0.2,0.2,0.8,0.2,0.2,0.2,0.8","0.2,0.8,0.2,0.2,0.2,0.8,0.8,0.2,0.2","3","",""
"","html-keyboard-response","198","171996","0.0-198.0","3WMOAN2SRCJUSOAY2IU5LXBE5IGVNE","A290TNNAJJQCWL","37SDSEDIN9ORHL92Y0GV7TIFJ2X187","","null","<img src=""img/land3.png"" style=""width:200px; border:14px solid green;"">","null","","","","","","","","","",""
"","image-keyboard-response","199","172480","0.0-199.0","3WMOAN2SRCJUSOAY2IU5LXBE5IGVNE","A290TNNAJJQCWL","37SDSEDIN9ORHL92Y0GV7TIFJ2X187","","482.60000002384186","img/land1.png","74","483.5","1","0","3","2","0.8,0.2,0.2,0.2,0.8,0.2,0.2,0.2,0.8","0.2,0.8,0.2,0.2,0.2,0.8,0.8,0.2,0.2","3","",""
"","html-keyboard-response","200","172785","0.0-200.0","3WMOAN2SRCJUSOAY2IU5LXBE5IGVNE","A290TNNAJJQCWL","37SDSEDIN9ORHL92Y0GV7TIFJ2X187","","null","<img src=""img/land1.png"" style=""width:200px;border:14px solid red;"">","null","","","","","","","","","",""
"","image-keyboard-response","201","173284","0.0-201.0","3WMOAN2SRCJUSOAY2IU5LXBE5IGVNE","A290TNNAJJQCWL","37SDSEDIN9ORHL92Y0GV7TIFJ2X187","","497.5","img/land3.png","75","498.39999997615814","2","1","1","2","0.8,0.2,0.2,0.2,0.8,0.2,0.2,0.2,0.8","0.2,0.8,0.2,0.2,0.2,0.8,0.8,0.2,0.2","3","",""
"","html-keyboard-response","202","173588","0.0-202.0","3WMOAN2SRCJUSOAY2IU5LXBE5IGVNE","A290TNNAJJQCWL","37SDSEDIN9ORHL92Y0GV7TIFJ2X187","","null","<img src=""img/land3.png"" style=""width:200px; border:14px solid green;"">","null","","","","","","","","","",""
"","image-keyboard-response","203","173926","0.0-203.0","3WMOAN2SRCJUSOAY2IU5LXBE5IGVNE","A290TNNAJJQCWL","37SDSEDIN9ORHL92Y0GV7TIFJ2X187","","336.2999999523163","img/land3.png","75","337.2000000476837","2","1","1","2","0.8,0.2,0.2,0.2,0.8,0.2,0.2,0.2,0.8","0.2,0.8,0.2,0.2,0.2,0.8,0.8,0.2,0.2","3","",""
"","html-keyboard-response","204","174228","0.0-204.0","3WMOAN2SRCJUSOAY2IU5LXBE5IGVNE","A290TNNAJJQCWL","37SDSEDIN9ORHL92Y0GV7TIFJ2X187","","null","<img src=""img/land3.png"" style=""width:200px; border:14px solid green;"">","null","","","","","","","","","",""
"","image-keyboard-response","205","174551","0.0-205.0","3WMOAN2SRCJUSOAY2IU5LXBE5IGVNE","A290TNNAJJQCWL","37SDSEDIN9ORHL92Y0GV7TIFJ2X187","","321.2999999523163","img/land3.png","75","322.39999997615814","2","1","1","2","0.8,0.2,0.2,0.2,0.8,0.2,0.2,0.2,0.8","0.2,0.8,0.2,0.2,0.2,0.8,0.8,0.2,0.2","3","",""
"","html-keyboard-response","206","174852","0.0-206.0","3WMOAN2SRCJUSOAY2IU5LXBE5IGVNE","A290TNNAJJQCWL","37SDSEDIN9ORHL92Y0GV7TIFJ2X187","","null","<img src=""img/land3.png"" style=""width:200px; border:14px solid green;"">","null","","","","","","","","","",""
"","image-keyboard-response","207","175376","0.0-207.0","3WMOAN2SRCJUSOAY2IU5LXBE5IGVNE","A290TNNAJJQCWL","37SDSEDIN9ORHL92Y0GV7TIFJ2X187","","522.7000000476837","img/land6.png","76","523.5","3","1","2","2","0.8,0.2,0.2,0.2,0.8,0.2,0.2,0.2,0.8","0.2,0.8,0.2,0.2,0.2,0.8,0.8,0.2,0.2","3","",""
"","html-keyboard-response","208","175677","0.0-208.0","3WMOAN2SRCJUSOAY2IU5LXBE5IGVNE","A290TNNAJJQCWL","37SDSEDIN9ORHL92Y0GV7TIFJ2X187","","null","<img src=""img/land6.png"" style=""width:200px; border:14px solid green;"">","null","","","","","","","","","",""
"","image-keyboard-response","209","176208","0.0-209.0","3WMOAN2SRCJUSOAY2IU5LXBE5IGVNE","A290TNNAJJQCWL","37SDSEDIN9ORHL92Y0GV7TIFJ2X187","","530.1000000238419","img/land3.png","75","531.1000000238419","2","1","1","2","0.8,0.2,0.2,0.2,0.8,0.2,0.2,0.2,0.8","0.2,0.8,0.2,0.2,0.2,0.8,0.8,0.2,0.2","3","",""
"","html-keyboard-response","210","176511","0.0-210.0","3WMOAN2SRCJUSOAY2IU5LXBE5IGVNE","A290TNNAJJQCWL","37SDSEDIN9ORHL92Y0GV7TIFJ2X187","","null","<img src=""img/land3.png"" style=""width:200px; border:14px solid green;"">","null","","","","","","","","","",""
"","image-keyboard-response","211","177006","0.0-211.0","3WMOAN2SRCJUSOAY2IU5LXBE5IGVNE","A290TNNAJJQCWL","37SDSEDIN9ORHL92Y0GV7TIFJ2X187","","492.7999999523163","img/land6.png","76","495.10000002384186","3","1","2","2","0.8,0.2,0.2,0.2,0.8,0.2,0.2,0.2,0.8","0.2,0.8,0.2,0.2,0.2,0.8,0.8,0.2,0.2","3","",""
"","html-keyboard-response","212","177308","0.0-212.0","3WMOAN2SRCJUSOAY2IU5LXBE5IGVNE","A290TNNAJJQCWL","37SDSEDIN9ORHL92Y0GV7TIFJ2X187","","null","<img src=""img/land6.png"" style=""width:200px; border:14px solid green;"">","null","","","","","","","","","",""
"","image-keyboard-response","213","177793","0.0-213.0","3WMOAN2SRCJUSOAY2IU5LXBE5IGVNE","A290TNNAJJQCWL","37SDSEDIN9ORHL92Y0GV7TIFJ2X187","","483.60000002384186","img/land3.png","76","484.5","3","1","1","2","0.8,0.2,0.2,0.2,0.8,0.2,0.2,0.2,0.8","0.2,0.8,0.2,0.2,0.2,0.8,0.8,0.2,0.2","3","",""
"","html-keyboard-response","214","178094","0.0-214.0","3WMOAN2SRCJUSOAY2IU5LXBE5IGVNE","A290TNNAJJQCWL","37SDSEDIN9ORHL92Y0GV7TIFJ2X187","","null","<img src=""img/land3.png"" style=""width:200px; border:14px solid green;"">","null","","","","","","","","","",""
"","image-keyboard-response","215","178551","0.0-215.0","3WMOAN2SRCJUSOAY2IU5LXBE5IGVNE","A290TNNAJJQCWL","37SDSEDIN9ORHL92Y0GV7TIFJ2X187","","455.09999990463257","img/land3.png","75","456.10000002384186","2","1","1","2","0.8,0.2,0.2,0.2,0.8,0.2,0.2,0.2,0.8","0.2,0.8,0.2,0.2,0.2,0.8,0.8,0.2,0.2","3","",""
"","html-keyboard-response","216","178853","0.0-216.0","3WMOAN2SRCJUSOAY2IU5LXBE5IGVNE","A290TNNAJJQCWL","37SDSEDIN9ORHL92Y0GV7TIFJ2X187","","null","<img src=""img/land3.png"" style=""width:200px; border:14px solid green;"">","null","","","","","","","","","",""
"","image-keyboard-response","217","179393","0.0-217.0","3WMOAN2SRCJUSOAY2IU5LXBE5IGVNE","A290TNNAJJQCWL","37SDSEDIN9ORHL92Y0GV7TIFJ2X187","","538.8999999761581","img/land6.png","76","539.6000000238419","3","1","2","2","0.8,0.2,0.2,0.2,0.8,0.2,0.2,0.2,0.8","0.2,0.8,0.2,0.2,0.2,0.8,0.8,0.2,0.2","3","",""
"","html-keyboard-response","218","179694","0.0-218.0","3WMOAN2SRCJUSOAY2IU5LXBE5IGVNE","A290TNNAJJQCWL","37SDSEDIN9ORHL92Y0GV7TIFJ2X187","","null","<img src=""img/land6.png"" style=""width:200px; border:14px solid green;"">","null","","","","","","","","","",""
"","image-keyboard-response","219","180223","0.0-219.0","3WMOAN2SRCJUSOAY2IU5LXBE5IGVNE","A290TNNAJJQCWL","37SDSEDIN9ORHL92Y0GV7TIFJ2X187","","527.7999999523163","img/land3.png","75","528.6000000238419","2","1","1","2","0.8,0.2,0.2,0.2,0.8,0.2,0.2,0.2,0.8","0.2,0.8,0.2,0.2,0.2,0.8,0.8,0.2,0.2","3","",""
"","html-keyboard-response","220","180525","0.0-220.0","3WMOAN2SRCJUSOAY2IU5LXBE5IGVNE","A290TNNAJJQCWL","37SDSEDIN9ORHL92Y0GV7TIFJ2X187","","null","<img src=""img/land3.png"" style=""width:200px; border:14px solid green;"">","null","","","","","","","","","",""
"","image-keyboard-response","221","180923","0.0-221.0","3WMOAN2SRCJUSOAY2IU5LXBE5IGVNE","A290TNNAJJQCWL","37SDSEDIN9ORHL92Y0GV7TIFJ2X187","","397.2999999523163","img/land3.png","75","398.1999999284744","2","1","1","2","0.8,0.2,0.2,0.2,0.8,0.2,0.2,0.2,0.8","0.2,0.8,0.2,0.2,0.2,0.8,0.8,0.2,0.2","3","",""
"","html-keyboard-response","222","181225","0.0-222.0","3WMOAN2SRCJUSOAY2IU5LXBE5IGVNE","A290TNNAJJQCWL","37SDSEDIN9ORHL92Y0GV7TIFJ2X187","","null","<img src=""img/land3.png"" style=""width:200px; border:14px solid green;"">","null","","","","","","","","","",""
"","image-keyboard-response","223","181683","0.0-223.0","3WMOAN2SRCJUSOAY2IU5LXBE5IGVNE","A290TNNAJJQCWL","37SDSEDIN9ORHL92Y0GV7TIFJ2X187","","456.7999999523163","img/land6.png","76","457.60000002384186","3","1","2","2","0.8,0.2,0.2,0.2,0.8,0.2,0.2,0.2,0.8","0.2,0.8,0.2,0.2,0.2,0.8,0.8,0.2,0.2","3","",""
"","html-keyboard-response","224","181984","0.0-224.0","3WMOAN2SRCJUSOAY2IU5LXBE5IGVNE","A290TNNAJJQCWL","37SDSEDIN9ORHL92Y0GV7TIFJ2X187","","null","<img src=""img/land6.png"" style=""width:200px; border:14px solid green;"">","null","","","","","","","","","",""
"","image-keyboard-response","225","182376","0.0-225.0","3WMOAN2SRCJUSOAY2IU5LXBE5IGVNE","A290TNNAJJQCWL","37SDSEDIN9ORHL92Y0GV7TIFJ2X187","","390.7999999523163","img/land3.png","76","391.5","3","0","1","2","0.8,0.2,0.2,0.2,0.8,0.2,0.2,0.2,0.8","0.2,0.8,0.2,0.2,0.2,0.8,0.8,0.2,0.2","3","",""
"","html-keyboard-response","226","182677","0.0-226.0","3WMOAN2SRCJUSOAY2IU5LXBE5IGVNE","A290TNNAJJQCWL","37SDSEDIN9ORHL92Y0GV7TIFJ2X187","","null","<img src=""img/land3.png"" style=""width:200px;border:14px solid red;"">","null","","","","","","","","","",""
"","image-keyboard-response","227","183108","0.0-227.0","3WMOAN2SRCJUSOAY2IU5LXBE5IGVNE","A290TNNAJJQCWL","37SDSEDIN9ORHL92Y0GV7TIFJ2X187","","429.6999999284744","img/land1.png","75","430.60000002384186","2","0","3","2","0.8,0.2,0.2,0.2,0.8,0.2,0.2,0.2,0.8","0.2,0.8,0.2,0.2,0.2,0.8,0.8,0.2,0.2","3","",""
"","html-keyboard-response","228","183410","0.0-228.0","3WMOAN2SRCJUSOAY2IU5LXBE5IGVNE","A290TNNAJJQCWL","37SDSEDIN9ORHL92Y0GV7TIFJ2X187","","null","<img src=""img/land1.png"" style=""width:200px;border:14px solid red;"">","null","","","","","","","","","",""
"","image-keyboard-response","229","183448","0.0-229.0","3WMOAN2SRCJUSOAY2IU5LXBE5IGVNE","A290TNNAJJQCWL","37SDSEDIN9ORHL92Y0GV7TIFJ2X187","","36.799999952316284","img/land1.png","74","37.5","1","1","3","2","0.8,0.2,0.2,0.2,0.8,0.2,0.2,0.2,0.8","0.2,0.8,0.2,0.2,0.2,0.8,0.8,0.2,0.2","3","",""
"","html-keyboard-response","230","183750","0.0-230.0","3WMOAN2SRCJUSOAY2IU5LXBE5IGVNE","A290TNNAJJQCWL","37SDSEDIN9ORHL92Y0GV7TIFJ2X187","","null","<img src=""img/land1.png"" style=""width:200px; border:14px solid green;"">","null","","","","","","","","","",""
"","image-keyboard-response","231","183929","0.0-231.0","3WMOAN2SRCJUSOAY2IU5LXBE5IGVNE","A290TNNAJJQCWL","37SDSEDIN9ORHL92Y0GV7TIFJ2X187","","178.30000007152557","img/land3.png","74","179.10000002384186","1","0","1","2","0.8,0.2,0.2,0.2,0.8,0.2,0.2,0.2,0.8","0.2,0.8,0.2,0.2,0.2,0.8,0.8,0.2,0.2","3","",""
"","html-keyboard-response","232","184232","0.0-232.0","3WMOAN2SRCJUSOAY2IU5LXBE5IGVNE","A290TNNAJJQCWL","37SDSEDIN9ORHL92Y0GV7TIFJ2X187","","null","<img src=""img/land3.png"" style=""width:200px;border:14px solid red;"">","null","","","","","","","","","",""
"","image-keyboard-response","233","184394","0.0-233.0","3WMOAN2SRCJUSOAY2IU5LXBE5IGVNE","A290TNNAJJQCWL","37SDSEDIN9ORHL92Y0GV7TIFJ2X187","","161.19999992847443","img/land3.png","75","162.10000002384186","2","1","1","2","0.8,0.2,0.2,0.2,0.8,0.2,0.2,0.2,0.8","0.2,0.8,0.2,0.2,0.2,0.8,0.8,0.2,0.2","3","",""
"","html-keyboard-response","234","184696","0.0-234.0","3WMOAN2SRCJUSOAY2IU5LXBE5IGVNE","A290TNNAJJQCWL","37SDSEDIN9ORHL92Y0GV7TIFJ2X187","","null","<img src=""img/land3.png"" style=""width:200px; border:14px solid green;"">","null","","","","","","","","","",""
"","image-keyboard-response","235","184853","0.0-235.0","3WMOAN2SRCJUSOAY2IU5LXBE5IGVNE","A290TNNAJJQCWL","37SDSEDIN9ORHL92Y0GV7TIFJ2X187","","156.39999997615814","img/land1.png","75","157.20000004768372","2","1","3","2","0.8,0.2,0.2,0.2,0.8,0.2,0.2,0.2,0.8","0.2,0.8,0.2,0.2,0.2,0.8,0.8,0.2,0.2","3","",""
"","html-keyboard-response","236","185155","0.0-236.0","3WMOAN2SRCJUSOAY2IU5LXBE5IGVNE","A290TNNAJJQCWL","37SDSEDIN9ORHL92Y0GV7TIFJ2X187","","null","<img src=""img/land1.png"" style=""width:200px; border:14px solid green;"">","null","","","","","","","","","",""
"","image-keyboard-response","237","185625","0.0-237.0","3WMOAN2SRCJUSOAY2IU5LXBE5IGVNE","A290TNNAJJQCWL","37SDSEDIN9ORHL92Y0GV7TIFJ2X187","","468.89999997615814","img/land3.png","75","469.60000002384186","2","1","1","2","0.8,0.2,0.2,0.2,0.8,0.2,0.2,0.2,0.8","0.2,0.8,0.2,0.2,0.2,0.8,0.8,0.2,0.2","3","",""
"","html-keyboard-response","238","185926","0.0-238.0","3WMOAN2SRCJUSOAY2IU5LXBE5IGVNE","A290TNNAJJQCWL","37SDSEDIN9ORHL92Y0GV7TIFJ2X187","","null","<img src=""img/land3.png"" style=""width:200px; border:14px solid green;"">","null","","","","","","","","","",""
"","image-keyboard-response","239","186267","0.0-239.0","3WMOAN2SRCJUSOAY2IU5LXBE5IGVNE","A290TNNAJJQCWL","37SDSEDIN9ORHL92Y0GV7TIFJ2X187","","340.2999999523163","img/land3.png","75","341.09999990463257","2","1","1","2","0.8,0.2,0.2,0.2,0.8,0.2,0.2,0.2,0.8","0.2,0.8,0.2,0.2,0.2,0.8,0.8,0.2,0.2","3","",""
"","html-keyboard-response","240","186569","0.0-240.0","3WMOAN2SRCJUSOAY2IU5LXBE5IGVNE","A290TNNAJJQCWL","37SDSEDIN9ORHL92Y0GV7TIFJ2X187","","null","<img src=""img/land3.png"" style=""width:200px; border:14px solid green;"">","null","","","","","","","","","",""
"","image-keyboard-response","241","186906","0.0-241.0","3WMOAN2SRCJUSOAY2IU5LXBE5IGVNE","A290TNNAJJQCWL","37SDSEDIN9ORHL92Y0GV7TIFJ2X187","","336.5","img/land3.png","75","337.39999997615814","2","1","1","2","0.8,0.2,0.2,0.2,0.8,0.2,0.2,0.2,0.8","0.2,0.8,0.2,0.2,0.2,0.8,0.8,0.2,0.2","3","",""
"","html-keyboard-response","242","187208","0.0-242.0","3WMOAN2SRCJUSOAY2IU5LXBE5IGVNE","A290TNNAJJQCWL","37SDSEDIN9ORHL92Y0GV7TIFJ2X187","","null","<img src=""img/land3.png"" style=""width:200px; border:14px solid green;"">","null","","","","","","","","","",""
"","image-keyboard-response","243","187487","0.0-243.0","3WMOAN2SRCJUSOAY2IU5LXBE5IGVNE","A290TNNAJJQCWL","37SDSEDIN9ORHL92Y0GV7TIFJ2X187","","277.2999999523163","img/land3.png","75","278","2","1","1","2","0.8,0.2,0.2,0.2,0.8,0.2,0.2,0.2,0.8","0.2,0.8,0.2,0.2,0.2,0.8,0.8,0.2,0.2","3","",""
"","html-keyboard-response","244","187788","0.0-244.0","3WMOAN2SRCJUSOAY2IU5LXBE5IGVNE","A290TNNAJJQCWL","37SDSEDIN9ORHL92Y0GV7TIFJ2X187","","null","<img src=""img/land3.png"" style=""width:200px; border:14px solid green;"">","null","","","","","","","","","",""
"","image-keyboard-response","245","188583","0.0-245.0","3WMOAN2SRCJUSOAY2IU5LXBE5IGVNE","A290TNNAJJQCWL","37SDSEDIN9ORHL92Y0GV7TIFJ2X187","","793.6999999284744","img/land6.png","76","794.6000000238419","3","0","2","2","0.8,0.2,0.2,0.2,0.8,0.2,0.2,0.2,0.8","0.2,0.8,0.2,0.2,0.2,0.8,0.8,0.2,0.2","3","",""
"","html-keyboard-response","246","188884","0.0-246.0","3WMOAN2SRCJUSOAY2IU5LXBE5IGVNE","A290TNNAJJQCWL","37SDSEDIN9ORHL92Y0GV7TIFJ2X187","","null","<img src=""img/land6.png"" style=""width:200px;border:14px solid red;"">","null","","","","","","","","","",""
"","image-keyboard-response","247","189423","0.0-247.0","3WMOAN2SRCJUSOAY2IU5LXBE5IGVNE","A290TNNAJJQCWL","37SDSEDIN9ORHL92Y0GV7TIFJ2X187","","537.5","img/land1.png","74","538.2000000476837","1","1","3","2","0.8,0.2,0.2,0.2,0.8,0.2,0.2,0.2,0.8","0.2,0.8,0.2,0.2,0.2,0.8,0.8,0.2,0.2","3","",""
"","html-keyboard-response","248","189725","0.0-248.0","3WMOAN2SRCJUSOAY2IU5LXBE5IGVNE","A290TNNAJJQCWL","37SDSEDIN9ORHL92Y0GV7TIFJ2X187","","null","<img src=""img/land1.png"" style=""width:200px; border:14px solid green;"">","null","","","","","","","","","",""
"","image-keyboard-response","249","190345","0.0-249.0","3WMOAN2SRCJUSOAY2IU5LXBE5IGVNE","A290TNNAJJQCWL","37SDSEDIN9ORHL92Y0GV7TIFJ2X187","","619.5999999046326","img/land6.png","76","620.3999999761581","3","1","2","2","0.8,0.2,0.2,0.2,0.8,0.2,0.2,0.2,0.8","0.2,0.8,0.2,0.2,0.2,0.8,0.8,0.2,0.2","3","",""
"","html-keyboard-response","250","190647","0.0-250.0","3WMOAN2SRCJUSOAY2IU5LXBE5IGVNE","A290TNNAJJQCWL","37SDSEDIN9ORHL92Y0GV7TIFJ2X187","","null","<img src=""img/land6.png"" style=""width:200px; border:14px solid green;"">","null","","","","","","","","","",""
"","image-keyboard-response","251","191173","0.0-251.0","3WMOAN2SRCJUSOAY2IU5LXBE5IGVNE","A290TNNAJJQCWL","37SDSEDIN9ORHL92Y0GV7TIFJ2X187","","524.6999999284744","img/land3.png","75","525.6999999284744","2","1","1","2","0.8,0.2,0.2,0.2,0.8,0.2,0.2,0.2,0.8","0.2,0.8,0.2,0.2,0.2,0.8,0.8,0.2,0.2","3","",""
"","html-keyboard-response","252","191474","0.0-252.0","3WMOAN2SRCJUSOAY2IU5LXBE5IGVNE","A290TNNAJJQCWL","37SDSEDIN9ORHL92Y0GV7TIFJ2X187","","null","<img src=""img/land3.png"" style=""width:200px; border:14px solid green;"">","null","","","","","","","","","",""
"","image-keyboard-response","253","191986","0.0-253.0","3WMOAN2SRCJUSOAY2IU5LXBE5IGVNE","A290TNNAJJQCWL","37SDSEDIN9ORHL92Y0GV7TIFJ2X187","","511","img/land6.png","76","511.8000000715256","3","1","2","2","0.8,0.2,0.2,0.2,0.8,0.2,0.2,0.2,0.8","0.2,0.8,0.2,0.2,0.2,0.8,0.8,0.2,0.2","3","",""
"","html-keyboard-response","254","192297","0.0-254.0","3WMOAN2SRCJUSOAY2IU5LXBE5IGVNE","A290TNNAJJQCWL","37SDSEDIN9ORHL92Y0GV7TIFJ2X187","","null","<img src=""img/land6.png"" style=""width:200px; border:14px solid green;"">","null","","","","","","","","","",""
"","image-keyboard-response","255","192786","0.0-255.0","3WMOAN2SRCJUSOAY2IU5LXBE5IGVNE","A290TNNAJJQCWL","37SDSEDIN9ORHL92Y0GV7TIFJ2X187","","488","img/land3.png","75","488.7999999523163","2","1","1","2","0.8,0.2,0.2,0.2,0.8,0.2,0.2,0.2,0.8","0.2,0.8,0.2,0.2,0.2,0.8,0.8,0.2,0.2","3","",""
"","html-keyboard-response","256","193087","0.0-256.0","3WMOAN2SRCJUSOAY2IU5LXBE5IGVNE","A290TNNAJJQCWL","37SDSEDIN9ORHL92Y0GV7TIFJ2X187","","null","<img src=""img/land3.png"" style=""width:200px; border:14px solid green;"">","null","","","","","","","","","",""
"","image-keyboard-response","257","193766","0.0-257.0","3WMOAN2SRCJUSOAY2IU5LXBE5IGVNE","A290TNNAJJQCWL","37SDSEDIN9ORHL92Y0GV7TIFJ2X187","","677.7000000476837","img/land1.png","74","678.5","1","1","3","2","0.8,0.2,0.2,0.2,0.8,0.2,0.2,0.2,0.8","0.2,0.8,0.2,0.2,0.2,0.8,0.8,0.2,0.2","3","",""
"","html-keyboard-response","258","194067","0.0-258.0","3WMOAN2SRCJUSOAY2IU5LXBE5IGVNE","A290TNNAJJQCWL","37SDSEDIN9ORHL92Y0GV7TIFJ2X187","","null","<img src=""img/land1.png"" style=""width:200px; border:14px solid green;"">","null","","","","","","","","","",""
"","image-keyboard-response","259","194557","0.0-259.0","3WMOAN2SRCJUSOAY2IU5LXBE5IGVNE","A290TNNAJJQCWL","37SDSEDIN9ORHL92Y0GV7TIFJ2X187","","488.2999999523163","img/land3.png","75","489.10000002384186","2","1","1","2","0.8,0.2,0.2,0.2,0.8,0.2,0.2,0.2,0.8","0.2,0.8,0.2,0.2,0.2,0.8,0.8,0.2,0.2","3","",""
"","html-keyboard-response","260","194858","0.0-260.0","3WMOAN2SRCJUSOAY2IU5LXBE5IGVNE","A290TNNAJJQCWL","37SDSEDIN9ORHL92Y0GV7TIFJ2X187","","null","<img src=""img/land3.png"" style=""width:200px; border:14px solid green;"">","null","","","","","","","","","",""
"","image-keyboard-response","261","195286","0.0-261.0","3WMOAN2SRCJUSOAY2IU5LXBE5IGVNE","A290TNNAJJQCWL","37SDSEDIN9ORHL92Y0GV7TIFJ2X187","","426.2999999523163","img/land3.png","75","427.39999997615814","2","0","1","2","0.8,0.2,0.2,0.2,0.8,0.2,0.2,0.2,0.8","0.2,0.8,0.2,0.2,0.2,0.8,0.8,0.2,0.2","3","",""
"","html-keyboard-response","262","195587","0.0-262.0","3WMOAN2SRCJUSOAY2IU5LXBE5IGVNE","A290TNNAJJQCWL","37SDSEDIN9ORHL92Y0GV7TIFJ2X187","","null","<img src=""img/land3.png"" style=""width:200px;border:14px solid red;"">","null","","","","","","","","","",""
"","image-keyboard-response","263","196239","0.0-263.0","3WMOAN2SRCJUSOAY2IU5LXBE5IGVNE","A290TNNAJJQCWL","37SDSEDIN9ORHL92Y0GV7TIFJ2X187","","650.2999999523163","img/land1.png","74","651.1000000238419","1","1","3","2","0.8,0.2,0.2,0.2,0.8,0.2,0.2,0.2,0.8","0.2,0.8,0.2,0.2,0.2,0.8,0.8,0.2,0.2","3","",""
"","html-keyboard-response","264","196540","0.0-264.0","3WMOAN2SRCJUSOAY2IU5LXBE5IGVNE","A290TNNAJJQCWL","37SDSEDIN9ORHL92Y0GV7TIFJ2X187","","null","<img src=""img/land1.png"" style=""width:200px; border:14px solid green;"">","null","","","","","","","","","",""
"","image-keyboard-response","265","196890","0.0-265.0","3WMOAN2SRCJUSOAY2IU5LXBE5IGVNE","A290TNNAJJQCWL","37SDSEDIN9ORHL92Y0GV7TIFJ2X187","","348.7999999523163","img/land1.png","74","349.6999999284744","1","1","3","2","0.8,0.2,0.2,0.2,0.8,0.2,0.2,0.2,0.8","0.2,0.8,0.2,0.2,0.2,0.8,0.8,0.2,0.2","3","",""
"","html-keyboard-response","266","197192","0.0-266.0","3WMOAN2SRCJUSOAY2IU5LXBE5IGVNE","A290TNNAJJQCWL","37SDSEDIN9ORHL92Y0GV7TIFJ2X187","","null","<img src=""img/land1.png"" style=""width:200px; border:14px solid green;"">","null","","","","","","","","","",""
"","image-keyboard-response","267","197691","0.0-267.0","3WMOAN2SRCJUSOAY2IU5LXBE5IGVNE","A290TNNAJJQCWL","37SDSEDIN9ORHL92Y0GV7TIFJ2X187","","498","img/land3.png","75","498.89999997615814","2","1","1","2","0.8,0.2,0.2,0.2,0.8,0.2,0.2,0.2,0.8","0.2,0.8,0.2,0.2,0.2,0.8,0.8,0.2,0.2","3","",""
"","html-keyboard-response","268","197992","0.0-268.0","3WMOAN2SRCJUSOAY2IU5LXBE5IGVNE","A290TNNAJJQCWL","37SDSEDIN9ORHL92Y0GV7TIFJ2X187","","null","<img src=""img/land3.png"" style=""width:200px; border:14px solid green;"">","null","","","","","","","","","",""
"","image-keyboard-response","269","198497","0.0-269.0","3WMOAN2SRCJUSOAY2IU5LXBE5IGVNE","A290TNNAJJQCWL","37SDSEDIN9ORHL92Y0GV7TIFJ2X187","","504.5","img/land6.png","76","505.39999997615814","3","1","2","2","0.8,0.2,0.2,0.2,0.8,0.2,0.2,0.2,0.8","0.2,0.8,0.2,0.2,0.2,0.8,0.8,0.2,0.2","3","",""
"","html-keyboard-response","270","198799","0.0-270.0","3WMOAN2SRCJUSOAY2IU5LXBE5IGVNE","A290TNNAJJQCWL","37SDSEDIN9ORHL92Y0GV7TIFJ2X187","","null","<img src=""img/land6.png"" style=""width:200px; border:14px solid green;"">","null","","","","","","","","","",""
"","image-keyboard-response","271","199357","0.0-271.0","3WMOAN2SRCJUSOAY2IU5LXBE5IGVNE","A290TNNAJJQCWL","37SDSEDIN9ORHL92Y0GV7TIFJ2X187","","557.1000000238419","img/land3.png","75","558","2","0","1","2","0.8,0.2,0.2,0.2,0.8,0.2,0.2,0.2,0.8","0.2,0.8,0.2,0.2,0.2,0.8,0.8,0.2,0.2","3","",""
"","html-keyboard-response","272","199660","0.0-272.0","3WMOAN2SRCJUSOAY2IU5LXBE5IGVNE","A290TNNAJJQCWL","37SDSEDIN9ORHL92Y0GV7TIFJ2X187","","null","<img src=""img/land3.png"" style=""width:200px;border:14px solid red;"">","null","","","","","","","","","",""
"","image-keyboard-response","273","200022","0.0-273.0","3WMOAN2SRCJUSOAY2IU5LXBE5IGVNE","A290TNNAJJQCWL","37SDSEDIN9ORHL92Y0GV7TIFJ2X187","","360.5","img/land3.png","75","361.5","2","1","1","2","0.8,0.2,0.2,0.2,0.8,0.2,0.2,0.2,0.8","0.2,0.8,0.2,0.2,0.2,0.8,0.8,0.2,0.2","3","",""
"","html-keyboard-response","274","200323","0.0-274.0","3WMOAN2SRCJUSOAY2IU5LXBE5IGVNE","A290TNNAJJQCWL","37SDSEDIN9ORHL92Y0GV7TIFJ2X187","","null","<img src=""img/land3.png"" style=""width:200px; border:14px solid green;"">","null","","","","","","","","","",""
"","image-keyboard-response","275","200667","0.0-275.0","3WMOAN2SRCJUSOAY2IU5LXBE5IGVNE","A290TNNAJJQCWL","37SDSEDIN9ORHL92Y0GV7TIFJ2X187","","343","img/land3.png","76","344.10000002384186","3","0","1","2","0.8,0.2,0.2,0.2,0.8,0.2,0.2,0.2,0.8","0.2,0.8,0.2,0.2,0.2,0.8,0.8,0.2,0.2","3","",""
"","html-keyboard-response","276","200969","0.0-276.0","3WMOAN2SRCJUSOAY2IU5LXBE5IGVNE","A290TNNAJJQCWL","37SDSEDIN9ORHL92Y0GV7TIFJ2X187","","null","<img src=""img/land3.png"" style=""width:200px;border:14px solid red;"">","null","","","","","","","","","",""
"","image-keyboard-response","277","201277","0.0-277.0","3WMOAN2SRCJUSOAY2IU5LXBE5IGVNE","A290TNNAJJQCWL","37SDSEDIN9ORHL92Y0GV7TIFJ2X187","","307.8000000715256","img/land3.png","74","308.60000002384186","1","0","1","2","0.8,0.2,0.2,0.2,0.8,0.2,0.2,0.2,0.8","0.2,0.8,0.2,0.2,0.2,0.8,0.8,0.2,0.2","3","",""
"","html-keyboard-response","278","201579","0.0-278.0","3WMOAN2SRCJUSOAY2IU5LXBE5IGVNE","A290TNNAJJQCWL","37SDSEDIN9ORHL92Y0GV7TIFJ2X187","","null","<img src=""img/land3.png"" style=""width:200px;border:14px solid red;"">","null","","","","","","","","","",""
"","image-keyboard-response","279","201841","0.0-279.0","3WMOAN2SRCJUSOAY2IU5LXBE5IGVNE","A290TNNAJJQCWL","37SDSEDIN9ORHL92Y0GV7TIFJ2X187","","260.89999997615814","img/land3.png","75","261.7000000476837","2","1","1","2","0.8,0.2,0.2,0.2,0.8,0.2,0.2,0.2,0.8","0.2,0.8,0.2,0.2,0.2,0.8,0.8,0.2,0.2","3","",""
"","html-keyboard-response","280","202142","0.0-280.0","3WMOAN2SRCJUSOAY2IU5LXBE5IGVNE","A290TNNAJJQCWL","37SDSEDIN9ORHL92Y0GV7TIFJ2X187","","null","<img src=""img/land3.png"" style=""width:200px; border:14px solid green;"">","null","","","","","","","","","",""
"","image-keyboard-response","281","202564","0.0-281.0","3WMOAN2SRCJUSOAY2IU5LXBE5IGVNE","A290TNNAJJQCWL","37SDSEDIN9ORHL92Y0GV7TIFJ2X187","","420.89999997615814","img/land3.png","75","421.89999997615814","2","1","1","2","0.8,0.2,0.2,0.2,0.8,0.2,0.2,0.2,0.8","0.2,0.8,0.2,0.2,0.2,0.8,0.8,0.2,0.2","3","",""
"","html-keyboard-response","282","202865","0.0-282.0","3WMOAN2SRCJUSOAY2IU5LXBE5IGVNE","A290TNNAJJQCWL","37SDSEDIN9ORHL92Y0GV7TIFJ2X187","","null","<img src=""img/land3.png"" style=""width:200px; border:14px solid green;"">","null","","","","","","","","","",""
"","image-keyboard-response","283","203369","0.0-283.0","3WMOAN2SRCJUSOAY2IU5LXBE5IGVNE","A290TNNAJJQCWL","37SDSEDIN9ORHL92Y0GV7TIFJ2X187","","503.2000000476837","img/land6.png","76","504.10000002384186","3","1","2","2","0.8,0.2,0.2,0.2,0.8,0.2,0.2,0.2,0.8","0.2,0.8,0.2,0.2,0.2,0.8,0.8,0.2,0.2","3","",""
"","html-keyboard-response","284","203671","0.0-284.0","3WMOAN2SRCJUSOAY2IU5LXBE5IGVNE","A290TNNAJJQCWL","37SDSEDIN9ORHL92Y0GV7TIFJ2X187","","null","<img src=""img/land6.png"" style=""width:200px; border:14px solid green;"">","null","","","","","","","","","",""
"","image-keyboard-response","285","204148","0.0-285.0","3WMOAN2SRCJUSOAY2IU5LXBE5IGVNE","A290TNNAJJQCWL","37SDSEDIN9ORHL92Y0GV7TIFJ2X187","","475.8000000715256","img/land1.png","74","476.6999999284744","1","1","3","2","0.8,0.2,0.2,0.2,0.8,0.2,0.2,0.2,0.8","0.2,0.8,0.2,0.2,0.2,0.8,0.8,0.2,0.2","3","",""
"","html-keyboard-response","286","204450","0.0-286.0","3WMOAN2SRCJUSOAY2IU5LXBE5IGVNE","A290TNNAJJQCWL","37SDSEDIN9ORHL92Y0GV7TIFJ2X187","","null","<img src=""img/land1.png"" style=""width:200px; border:14px solid green;"">","null","","","","","","","","","",""
"","image-keyboard-response","287","205052","0.0-287.0","3WMOAN2SRCJUSOAY2IU5LXBE5IGVNE","A290TNNAJJQCWL","37SDSEDIN9ORHL92Y0GV7TIFJ2X187","","600.8999999761581","img/land3.png","75","601.8999999761581","2","1","1","2","0.8,0.2,0.2,0.2,0.8,0.2,0.2,0.2,0.8","0.2,0.8,0.2,0.2,0.2,0.8,0.8,0.2,0.2","3","",""
"","html-keyboard-response","288","205359","0.0-288.0","3WMOAN2SRCJUSOAY2IU5LXBE5IGVNE","A290TNNAJJQCWL","37SDSEDIN9ORHL92Y0GV7TIFJ2X187","","null","<img src=""img/land3.png"" style=""width:200px; border:14px solid green;"">","null","","","","","","","","","",""
"","image-keyboard-response","289","205713","0.0-289.0","3WMOAN2SRCJUSOAY2IU5LXBE5IGVNE","A290TNNAJJQCWL","37SDSEDIN9ORHL92Y0GV7TIFJ2X187","","352.60000002384186","img/land3.png","75","353.60000002384186","2","0","1","2","0.8,0.2,0.2,0.2,0.8,0.2,0.2,0.2,0.8","0.2,0.8,0.2,0.2,0.2,0.8,0.8,0.2,0.2","3","",""
"","html-keyboard-response","290","206015","0.0-290.0","3WMOAN2SRCJUSOAY2IU5LXBE5IGVNE","A290TNNAJJQCWL","37SDSEDIN9ORHL92Y0GV7TIFJ2X187","","null","<img src=""img/land3.png"" style=""width:200px;border:14px solid red;"">","null","","","","","","","","","",""
"","image-keyboard-response","291","206389","0.0-291.0","3WMOAN2SRCJUSOAY2IU5LXBE5IGVNE","A290TNNAJJQCWL","37SDSEDIN9ORHL92Y0GV7TIFJ2X187","","373.40000009536743","img/land3.png","75","374.2999999523163","2","1","1","2","0.8,0.2,0.2,0.2,0.8,0.2,0.2,0.2,0.8","0.2,0.8,0.2,0.2,0.2,0.8,0.8,0.2,0.2","3","",""
"","html-keyboard-response","292","206692","0.0-292.0","3WMOAN2SRCJUSOAY2IU5LXBE5IGVNE","A290TNNAJJQCWL","37SDSEDIN9ORHL92Y0GV7TIFJ2X187","","null","<img src=""img/land3.png"" style=""width:200px; border:14px solid green;"">","null","","","","","","","","","",""
"","image-keyboard-response","293","207063","0.0-293.0","3WMOAN2SRCJUSOAY2IU5LXBE5IGVNE","A290TNNAJJQCWL","37SDSEDIN9ORHL92Y0GV7TIFJ2X187","","369.7999999523163","img/land3.png","75","370.59999990463257","2","1","1","2","0.8,0.2,0.2,0.2,0.8,0.2,0.2,0.2,0.8","0.2,0.8,0.2,0.2,0.2,0.8,0.8,0.2,0.2","3","",""
"","html-keyboard-response","294","207365","0.0-294.0","3WMOAN2SRCJUSOAY2IU5LXBE5IGVNE","A290TNNAJJQCWL","37SDSEDIN9ORHL92Y0GV7TIFJ2X187","","null","<img src=""img/land3.png"" style=""width:200px; border:14px solid green;"">","null","","","","","","","","","",""
"","image-keyboard-response","295","207688","0.0-295.0","3WMOAN2SRCJUSOAY2IU5LXBE5IGVNE","A290TNNAJJQCWL","37SDSEDIN9ORHL92Y0GV7TIFJ2X187","","321.7000000476837","img/land3.png","75","322.5","2","0","1","2","0.8,0.2,0.2,0.2,0.8,0.2,0.2,0.2,0.8","0.2,0.8,0.2,0.2,0.2,0.8,0.8,0.2,0.2","3","",""
"","html-keyboard-response","296","207989","0.0-296.0","3WMOAN2SRCJUSOAY2IU5LXBE5IGVNE","A290TNNAJJQCWL","37SDSEDIN9ORHL92Y0GV7TIFJ2X187","","null","<img src=""img/land3.png"" style=""width:200px;border:14px solid red;"">","null","","","","","","","","","",""
"","image-keyboard-response","297","208425","0.0-297.0","3WMOAN2SRCJUSOAY2IU5LXBE5IGVNE","A290TNNAJJQCWL","37SDSEDIN9ORHL92Y0GV7TIFJ2X187","","433.8000000715256","img/land1.png","76","434.59999990463257","3","0","3","2","0.8,0.2,0.2,0.2,0.8,0.2,0.2,0.2,0.8","0.2,0.8,0.2,0.2,0.2,0.8,0.8,0.2,0.2","3","",""
"","html-keyboard-response","298","208727","0.0-298.0","3WMOAN2SRCJUSOAY2IU5LXBE5IGVNE","A290TNNAJJQCWL","37SDSEDIN9ORHL92Y0GV7TIFJ2X187","","null","<img src=""img/land1.png"" style=""width:200px;border:14px solid red;"">","null","","","","","","","","","",""
"","image-keyboard-response","299","208766","0.0-299.0","3WMOAN2SRCJUSOAY2IU5LXBE5IGVNE","A290TNNAJJQCWL","37SDSEDIN9ORHL92Y0GV7TIFJ2X187","","37.299999952316284","img/land1.png","74","38.200000047683716","1","1","3","2","0.8,0.2,0.2,0.2,0.8,0.2,0.2,0.2,0.8","0.2,0.8,0.2,0.2,0.2,0.8,0.8,0.2,0.2","3","",""
"","html-keyboard-response","300","209068","0.0-300.0","3WMOAN2SRCJUSOAY2IU5LXBE5IGVNE","A290TNNAJJQCWL","37SDSEDIN9ORHL92Y0GV7TIFJ2X187","","null","<img src=""img/land1.png"" style=""width:200px; border:14px solid green;"">","null","","","","","","","","","",""
"","image-keyboard-response","301","209654","0.0-301.0","3WMOAN2SRCJUSOAY2IU5LXBE5IGVNE","A290TNNAJJQCWL","37SDSEDIN9ORHL92Y0GV7TIFJ2X187","","585.1000000238419","img/land6.png","76","585.7999999523163","3","1","2","2","0.8,0.2,0.2,0.2,0.8,0.2,0.2,0.2,0.8","0.2,0.8,0.2,0.2,0.2,0.8,0.8,0.2,0.2","3","",""
"","html-keyboard-response","302","209956","0.0-302.0","3WMOAN2SRCJUSOAY2IU5LXBE5IGVNE","A290TNNAJJQCWL","37SDSEDIN9ORHL92Y0GV7TIFJ2X187","","null","<img src=""img/land6.png"" style=""width:200px; border:14px solid green;"">","null","","","","","","","","","",""
"","image-keyboard-response","303","210583","0.0-303.0","3WMOAN2SRCJUSOAY2IU5LXBE5IGVNE","A290TNNAJJQCWL","37SDSEDIN9ORHL92Y0GV7TIFJ2X187","","625.3999999761581","img/land1.png","74","626.1999999284744","1","1","3","2","0.8,0.2,0.2,0.2,0.8,0.2,0.2,0.2,0.8","0.2,0.8,0.2,0.2,0.2,0.8,0.8,0.2,0.2","3","",""
"","html-keyboard-response","304","210885","0.0-304.0","3WMOAN2SRCJUSOAY2IU5LXBE5IGVNE","A290TNNAJJQCWL","37SDSEDIN9ORHL92Y0GV7TIFJ2X187","","null","<img src=""img/land1.png"" style=""width:200px; border:14px solid green;"">","null","","","","","","","","","",""
"","image-keyboard-response","305","211357","0.0-305.0","3WMOAN2SRCJUSOAY2IU5LXBE5IGVNE","A290TNNAJJQCWL","37SDSEDIN9ORHL92Y0GV7TIFJ2X187","","470.39999997615814","img/land3.png","75","471.1999999284744","2","1","1","2","0.8,0.2,0.2,0.2,0.8,0.2,0.2,0.2,0.8","0.2,0.8,0.2,0.2,0.2,0.8,0.8,0.2,0.2","3","",""
"","html-keyboard-response","306","211659","0.0-306.0","3WMOAN2SRCJUSOAY2IU5LXBE5IGVNE","A290TNNAJJQCWL","37SDSEDIN9ORHL92Y0GV7TIFJ2X187","","null","<img src=""img/land3.png"" style=""width:200px; border:14px solid green;"">","null","","","","","","","","","",""
"","image-keyboard-response","307","212140","0.0-307.0","3WMOAN2SRCJUSOAY2IU5LXBE5IGVNE","A290TNNAJJQCWL","37SDSEDIN9ORHL92Y0GV7TIFJ2X187","","480.5","img/land1.png","75","481.2999999523163","2","0","3","2","0.8,0.2,0.2,0.2,0.8,0.2,0.2,0.2,0.8","0.2,0.8,0.2,0.2,0.2,0.8,0.8,0.2,0.2","3","",""
"","html-keyboard-response","308","212442","0.0-308.0","3WMOAN2SRCJUSOAY2IU5LXBE5IGVNE","A290TNNAJJQCWL","37SDSEDIN9ORHL92Y0GV7TIFJ2X187","","null","<img src=""img/land1.png"" style=""width:200px;border:14px solid red;"">","null","","","","","","","","","",""
"","image-keyboard-response","309","212821","0.0-309.0","3WMOAN2SRCJUSOAY2IU5LXBE5IGVNE","A290TNNAJJQCWL","37SDSEDIN9ORHL92Y0GV7TIFJ2X187","","378.10000002384186","img/land1.png","74","379.10000002384186","1","1","3","2","0.8,0.2,0.2,0.2,0.8,0.2,0.2,0.2,0.8","0.2,0.8,0.2,0.2,0.2,0.8,0.8,0.2,0.2","3","",""
"","html-keyboard-response","310","213126","0.0-310.0","3WMOAN2SRCJUSOAY2IU5LXBE5IGVNE","A290TNNAJJQCWL","37SDSEDIN9ORHL92Y0GV7TIFJ2X187","","null","<img src=""img/land1.png"" style=""width:200px; border:14px solid green;"">","null","","","","","","","","","",""
"","image-keyboard-response","311","213687","0.0-311.0","3WMOAN2SRCJUSOAY2IU5LXBE5IGVNE","A290TNNAJJQCWL","37SDSEDIN9ORHL92Y0GV7TIFJ2X187","","560","img/land6.png","76","560.8999999761581","3","1","2","2","0.8,0.2,0.2,0.2,0.8,0.2,0.2,0.2,0.8","0.2,0.8,0.2,0.2,0.2,0.8,0.8,0.2,0.2","3","",""
"","html-keyboard-response","312","213990","0.0-312.0","3WMOAN2SRCJUSOAY2IU5LXBE5IGVNE","A290TNNAJJQCWL","37SDSEDIN9ORHL92Y0GV7TIFJ2X187","","null","<img src=""img/land6.png"" style=""width:200px; border:14px solid green;"">","null","","","","","","","","","",""
"","image-keyboard-response","313","214604","0.0-313.0","3WMOAN2SRCJUSOAY2IU5LXBE5IGVNE","A290TNNAJJQCWL","37SDSEDIN9ORHL92Y0GV7TIFJ2X187","","613.2000000476837","img/land3.png","75","614.1000000238419","2","1","1","2","0.8,0.2,0.2,0.2,0.8,0.2,0.2,0.2,0.8","0.2,0.8,0.2,0.2,0.2,0.8,0.8,0.2,0.2","3","",""
"","html-keyboard-response","314","214917","0.0-314.0","3WMOAN2SRCJUSOAY2IU5LXBE5IGVNE","A290TNNAJJQCWL","37SDSEDIN9ORHL92Y0GV7TIFJ2X187","","null","<img src=""img/land3.png"" style=""width:200px; border:14px solid green;"">","null","","","","","","","","","",""
"","image-keyboard-response","315","215303","0.0-315.0","3WMOAN2SRCJUSOAY2IU5LXBE5IGVNE","A290TNNAJJQCWL","37SDSEDIN9ORHL92Y0GV7TIFJ2X187","","384.7999999523163","img/land3.png","75","385.60000002384186","2","1","1","2","0.8,0.2,0.2,0.2,0.8,0.2,0.2,0.2,0.8","0.2,0.8,0.2,0.2,0.2,0.8,0.8,0.2,0.2","3","",""
"","html-keyboard-response","316","215604","0.0-316.0","3WMOAN2SRCJUSOAY2IU5LXBE5IGVNE","A290TNNAJJQCWL","37SDSEDIN9ORHL92Y0GV7TIFJ2X187","","null","<img src=""img/land3.png"" style=""width:200px; border:14px solid green;"">","null","","","","","","","","","",""
"","image-keyboard-response","317","215921","0.0-317.0","3WMOAN2SRCJUSOAY2IU5LXBE5IGVNE","A290TNNAJJQCWL","37SDSEDIN9ORHL92Y0GV7TIFJ2X187","","315.1999999284744","img/land3.png","75","316.2000000476837","2","1","1","2","0.8,0.2,0.2,0.2,0.8,0.2,0.2,0.2,0.8","0.2,0.8,0.2,0.2,0.2,0.8,0.8,0.2,0.2","3","",""
"","html-keyboard-response","318","216222","0.0-318.0","3WMOAN2SRCJUSOAY2IU5LXBE5IGVNE","A290TNNAJJQCWL","37SDSEDIN9ORHL92Y0GV7TIFJ2X187","","null","<img src=""img/land3.png"" style=""width:200px; border:14px solid green;"">","null","","","","","","","","","",""
"","image-keyboard-response","319","216594","0.0-319.0","3WMOAN2SRCJUSOAY2IU5LXBE5IGVNE","A290TNNAJJQCWL","37SDSEDIN9ORHL92Y0GV7TIFJ2X187","","370.5","img/land3.png","75","371.2999999523163","2","1","1","2","0.8,0.2,0.2,0.2,0.8,0.2,0.2,0.2,0.8","0.2,0.8,0.2,0.2,0.2,0.8,0.8,0.2,0.2","3","",""
"","html-keyboard-response","320","216896","0.0-320.0","3WMOAN2SRCJUSOAY2IU5LXBE5IGVNE","A290TNNAJJQCWL","37SDSEDIN9ORHL92Y0GV7TIFJ2X187","","null","<img src=""img/land3.png"" style=""width:200px; border:14px solid green;"">","null","","","","","","","","","",""
"","image-keyboard-response","321","217418","0.0-321.0","3WMOAN2SRCJUSOAY2IU5LXBE5IGVNE","A290TNNAJJQCWL","37SDSEDIN9ORHL92Y0GV7TIFJ2X187","","521.7000000476837","img/land6.png","76","522.6999999284744","3","1","2","2","0.8,0.2,0.2,0.2,0.8,0.2,0.2,0.2,0.8","0.2,0.8,0.2,0.2,0.2,0.8,0.8,0.2,0.2","3","",""
"","html-keyboard-response","322","217721","0.0-322.0","3WMOAN2SRCJUSOAY2IU5LXBE5IGVNE","A290TNNAJJQCWL","37SDSEDIN9ORHL92Y0GV7TIFJ2X187","","null","<img src=""img/land6.png"" style=""width:200px; border:14px solid green;"">","null","","","","","","","","","",""
"","image-keyboard-response","323","218350","0.0-323.0","3WMOAN2SRCJUSOAY2IU5LXBE5IGVNE","A290TNNAJJQCWL","37SDSEDIN9ORHL92Y0GV7TIFJ2X187","","628.6000000238419","img/land1.png","74","629.6000000238419","1","1","3","2","0.8,0.2,0.2,0.2,0.8,0.2,0.2,0.2,0.8","0.2,0.8,0.2,0.2,0.2,0.8,0.8,0.2,0.2","3","",""
"","html-keyboard-response","324","218652","0.0-324.0","3WMOAN2SRCJUSOAY2IU5LXBE5IGVNE","A290TNNAJJQCWL","37SDSEDIN9ORHL92Y0GV7TIFJ2X187","","null","<img src=""img/land1.png"" style=""width:200px; border:14px solid green;"">","null","","","","","","","","","",""
"","image-keyboard-response","325","219362","0.0-325.0","3WMOAN2SRCJUSOAY2IU5LXBE5IGVNE","A290TNNAJJQCWL","37SDSEDIN9ORHL92Y0GV7TIFJ2X187","","709","img/land6.png","75","709.7999999523163","2","1","2","2","0.8,0.2,0.2,0.2,0.8,0.2,0.2,0.2,0.8","0.2,0.8,0.2,0.2,0.2,0.8,0.8,0.2,0.2","3","",""
"","html-keyboard-response","326","219663","0.0-326.0","3WMOAN2SRCJUSOAY2IU5LXBE5IGVNE","A290TNNAJJQCWL","37SDSEDIN9ORHL92Y0GV7TIFJ2X187","","null","<img src=""img/land6.png"" style=""width:200px; border:14px solid green;"">","null","","","","","","","","","",""
"","image-keyboard-response","327","219934","0.0-327.0","3WMOAN2SRCJUSOAY2IU5LXBE5IGVNE","A290TNNAJJQCWL","37SDSEDIN9ORHL92Y0GV7TIFJ2X187","","270.39999997615814","img/land6.png","75","271.2000000476837","2","0","2","2","0.8,0.2,0.2,0.2,0.8,0.2,0.2,0.2,0.8","0.2,0.8,0.2,0.2,0.2,0.8,0.8,0.2,0.2","3","",""
"","html-keyboard-response","328","220238","0.0-328.0","3WMOAN2SRCJUSOAY2IU5LXBE5IGVNE","A290TNNAJJQCWL","37SDSEDIN9ORHL92Y0GV7TIFJ2X187","","null","<img src=""img/land6.png"" style=""width:200px;border:14px solid red;"">","null","","","","","","","","","",""
"","image-keyboard-response","329","220758","0.0-329.0","3WMOAN2SRCJUSOAY2IU5LXBE5IGVNE","A290TNNAJJQCWL","37SDSEDIN9ORHL92Y0GV7TIFJ2X187","","518.8999999761581","img/land3.png","76","519.8000000715256","3","0","1","2","0.8,0.2,0.2,0.2,0.8,0.2,0.2,0.2,0.8","0.2,0.8,0.2,0.2,0.2,0.8,0.8,0.2,0.2","3","",""
"","html-keyboard-response","330","221059","0.0-330.0","3WMOAN2SRCJUSOAY2IU5LXBE5IGVNE","A290TNNAJJQCWL","37SDSEDIN9ORHL92Y0GV7TIFJ2X187","","null","<img src=""img/land3.png"" style=""width:200px;border:14px solid red;"">","null","","","","","","","","","",""
"","image-keyboard-response","331","221307","0.0-331.0","3WMOAN2SRCJUSOAY2IU5LXBE5IGVNE","A290TNNAJJQCWL","37SDSEDIN9ORHL92Y0GV7TIFJ2X187","","247","img/land3.png","74","247.90000009536743","1","0","1","2","0.8,0.2,0.2,0.2,0.8,0.2,0.2,0.2,0.8","0.2,0.8,0.2,0.2,0.2,0.8,0.8,0.2,0.2","3","",""
"","html-keyboard-response","332","221609","0.0-332.0","3WMOAN2SRCJUSOAY2IU5LXBE5IGVNE","A290TNNAJJQCWL","37SDSEDIN9ORHL92Y0GV7TIFJ2X187","","null","<img src=""img/land3.png"" style=""width:200px;border:14px solid red;"">","null","","","","","","","","","",""
"","image-keyboard-response","333","221840","0.0-333.0","3WMOAN2SRCJUSOAY2IU5LXBE5IGVNE","A290TNNAJJQCWL","37SDSEDIN9ORHL92Y0GV7TIFJ2X187","","229.80000007152557","img/land6.png","75","230.69999992847443","2","0","2","2","0.8,0.2,0.2,0.2,0.8,0.2,0.2,0.2,0.8","0.2,0.8,0.2,0.2,0.2,0.8,0.8,0.2,0.2","3","",""
"","html-keyboard-response","334","222142","0.0-334.0","3WMOAN2SRCJUSOAY2IU5LXBE5IGVNE","A290TNNAJJQCWL","37SDSEDIN9ORHL92Y0GV7TIFJ2X187","","null","<img src=""img/land6.png"" style=""width:200px;border:14px solid red;"">","null","","","","","","","","","",""
"","image-keyboard-response","335","222607","0.0-335.0","3WMOAN2SRCJUSOAY2IU5LXBE5IGVNE","A290TNNAJJQCWL","37SDSEDIN9ORHL92Y0GV7TIFJ2X187","","464.1999999284744","img/land1.png","76","465.10000002384186","3","0","3","2","0.8,0.2,0.2,0.2,0.8,0.2,0.2,0.2,0.8","0.2,0.8,0.2,0.2,0.2,0.8,0.8,0.2,0.2","3","",""
"","html-keyboard-response","336","222909","0.0-336.0","3WMOAN2SRCJUSOAY2IU5LXBE5IGVNE","A290TNNAJJQCWL","37SDSEDIN9ORHL92Y0GV7TIFJ2X187","","null","<img src=""img/land1.png"" style=""width:200px;border:14px solid red;"">","null","","","","","","","","","",""
"","image-keyboard-response","337","222913","0.0-337.0","3WMOAN2SRCJUSOAY2IU5LXBE5IGVNE","A290TNNAJJQCWL","37SDSEDIN9ORHL92Y0GV7TIFJ2X187","","2.600000023841858","img/land3.png","74","3.600000023841858","1","1","1","2","0.8,0.2,0.2,0.2,0.8,0.2,0.2,0.2,0.8","0.2,0.8,0.2,0.2,0.2,0.8,0.8,0.2,0.2","3","",""
"","html-keyboard-response","338","223214","0.0-338.0","3WMOAN2SRCJUSOAY2IU5LXBE5IGVNE","A290TNNAJJQCWL","37SDSEDIN9ORHL92Y0GV7TIFJ2X187","","null","<img src=""img/land3.png"" style=""width:200px; border:14px solid green;"">","null","","","","","","","","","",""
"","image-keyboard-response","339","223512","0.0-339.0","3WMOAN2SRCJUSOAY2IU5LXBE5IGVNE","A290TNNAJJQCWL","37SDSEDIN9ORHL92Y0GV7TIFJ2X187","","296.1999999284744","img/land3.png","75","297.3000000715256","2","1","1","2","0.8,0.2,0.2,0.2,0.8,0.2,0.2,0.2,0.8","0.2,0.8,0.2,0.2,0.2,0.8,0.8,0.2,0.2","3","",""
"","html-keyboard-response","340","223813","0.0-340.0","3WMOAN2SRCJUSOAY2IU5LXBE5IGVNE","A290TNNAJJQCWL","37SDSEDIN9ORHL92Y0GV7TIFJ2X187","","null","<img src=""img/land3.png"" style=""width:200px; border:14px solid green;"">","null","","","","","","","","","",""
"","image-keyboard-response","341","223962","0.0-341.0","3WMOAN2SRCJUSOAY2IU5LXBE5IGVNE","A290TNNAJJQCWL","37SDSEDIN9ORHL92Y0GV7TIFJ2X187","","148","img/land3.png","75","148.89999997615814","2","1","1","2","0.8,0.2,0.2,0.2,0.8,0.2,0.2,0.2,0.8","0.2,0.8,0.2,0.2,0.2,0.8,0.8,0.2,0.2","3","",""
"","html-keyboard-response","342","224264","0.0-342.0","3WMOAN2SRCJUSOAY2IU5LXBE5IGVNE","A290TNNAJJQCWL","37SDSEDIN9ORHL92Y0GV7TIFJ2X187","","null","<img src=""img/land3.png"" style=""width:200px; border:14px solid green;"">","null","","","","","","","","","",""
"","image-keyboard-response","343","224342","0.0-343.0","3WMOAN2SRCJUSOAY2IU5LXBE5IGVNE","A290TNNAJJQCWL","37SDSEDIN9ORHL92Y0GV7TIFJ2X187","","77.19999992847443","img/land3.png","75","78.19999992847443","2","1","1","2","0.8,0.2,0.2,0.2,0.8,0.2,0.2,0.2,0.8","0.2,0.8,0.2,0.2,0.2,0.8,0.8,0.2,0.2","3","",""
"","html-keyboard-response","344","224644","0.0-344.0","3WMOAN2SRCJUSOAY2IU5LXBE5IGVNE","A290TNNAJJQCWL","37SDSEDIN9ORHL92Y0GV7TIFJ2X187","","null","<img src=""img/land3.png"" style=""width:200px; border:14px solid green;"">","null","","","","","","","","","",""
"","image-keyboard-response","345","225313","0.0-345.0","3WMOAN2SRCJUSOAY2IU5LXBE5IGVNE","A290TNNAJJQCWL","37SDSEDIN9ORHL92Y0GV7TIFJ2X187","","668","img/land1.png","74","668.8999999761581","1","1","3","2","0.8,0.2,0.2,0.2,0.8,0.2,0.2,0.2,0.8","0.2,0.8,0.2,0.2,0.2,0.8,0.8,0.2,0.2","3","",""
"","html-keyboard-response","346","225616","0.0-346.0","3WMOAN2SRCJUSOAY2IU5LXBE5IGVNE","A290TNNAJJQCWL","37SDSEDIN9ORHL92Y0GV7TIFJ2X187","","null","<img src=""img/land1.png"" style=""width:200px; border:14px solid green;"">","null","","","","","","","","","",""
"","image-keyboard-response","347","226115","0.0-347.0","3WMOAN2SRCJUSOAY2IU5LXBE5IGVNE","A290TNNAJJQCWL","37SDSEDIN9ORHL92Y0GV7TIFJ2X187","","497.2999999523163","img/land3.png","75","498.3000000715256","2","1","1","2","0.8,0.2,0.2,0.2,0.8,0.2,0.2,0.2,0.8","0.2,0.8,0.2,0.2,0.2,0.8,0.8,0.2,0.2","3","",""
"","html-keyboard-response","348","226417","0.0-348.0","3WMOAN2SRCJUSOAY2IU5LXBE5IGVNE","A290TNNAJJQCWL","37SDSEDIN9ORHL92Y0GV7TIFJ2X187","","null","<img src=""img/land3.png"" style=""width:200px; border:14px solid green;"">","null","","","","","","","","","",""
"","image-keyboard-response","349","226951","0.0-349.0","3WMOAN2SRCJUSOAY2IU5LXBE5IGVNE","A290TNNAJJQCWL","37SDSEDIN9ORHL92Y0GV7TIFJ2X187","","532.5","img/land6.png","74","533.6000000238419","1","0","2","2","0.8,0.2,0.2,0.2,0.8,0.2,0.2,0.2,0.8","0.2,0.8,0.2,0.2,0.2,0.8,0.8,0.2,0.2","3","",""
"","html-keyboard-response","350","227254","0.0-350.0","3WMOAN2SRCJUSOAY2IU5LXBE5IGVNE","A290TNNAJJQCWL","37SDSEDIN9ORHL92Y0GV7TIFJ2X187","","null","<img src=""img/land6.png"" style=""width:200px;border:14px solid red;"">","null","","","","","","","","","",""
"","image-keyboard-response","351","227737","0.0-351.0","3WMOAN2SRCJUSOAY2IU5LXBE5IGVNE","A290TNNAJJQCWL","37SDSEDIN9ORHL92Y0GV7TIFJ2X187","","482.10000002384186","img/land3.png","75","483","2","0","1","2","0.8,0.2,0.2,0.2,0.8,0.2,0.2,0.2,0.8","0.2,0.8,0.2,0.2,0.2,0.8,0.8,0.2,0.2","3","",""
"","html-keyboard-response","352","228040","0.0-352.0","3WMOAN2SRCJUSOAY2IU5LXBE5IGVNE","A290TNNAJJQCWL","37SDSEDIN9ORHL92Y0GV7TIFJ2X187","","null","<img src=""img/land3.png"" style=""width:200px;border:14px solid red;"">","null","","","","","","","","","",""
"","image-keyboard-response","353","228477","0.0-353.0","3WMOAN2SRCJUSOAY2IU5LXBE5IGVNE","A290TNNAJJQCWL","37SDSEDIN9ORHL92Y0GV7TIFJ2X187","","435.60000002384186","img/land3.png","75","436.2000000476837","2","1","1","2","0.8,0.2,0.2,0.2,0.8,0.2,0.2,0.2,0.8","0.2,0.8,0.2,0.2,0.2,0.8,0.8,0.2,0.2","3","",""
