"success","trial_type","trial_index","time_elapsed","internal_node_id","assignmentID","mturkID","hitID","view_history","rt","stimulus","key_press","reactionTime","a","r","s","cond","reward_cond","reward_cond_actual","reward_matrix_idx","responses","question_order"
"true","fullscreen","0","3537","0.0-0.0","3P4RDNWND6STNSZDOD3UD143OWFIJ0","A2925DTZ2BLK51","3MXX6RQ9EVRTFC527Z18RDK8KW6P4R","","","","","","","","","","","","","",""
"","instructions","1","38912","0.0-1.0","3P4RDNWND6STNSZDOD3UD143OWFIJ0","A2925DTZ2BLK51","3MXX6RQ9EVRTFC527Z18RDK8KW6P4R","[{""page_index"":0,""viewing_time"":1877.4000000953674},{""page_index"":1,""viewing_time"":4849.799999952316},{""page_index"":2,""viewing_time"":1129.5},{""page_index"":3,""viewing_time"":8889.099999904633},{""page_index"":4,""viewing_time"":5010.200000047684},{""page_index"":5,""viewing_time"":10713.5},{""page_index"":6,""viewing_time"":2898.7000000476837}]","35369.299999952316","","","","","","","","","","","",""
"","image-keyboard-response","2","40264","0.0-2.0","3P4RDNWND6STNSZDOD3UD143OWFIJ0","A2925DTZ2BLK51","3MXX6RQ9EVRTFC527Z18RDK8KW6P4R","","1347.8999998569489","img/land4.png","74","1351.7000000476837","1","0","2","1","0.8,0.2,0.2,0.2,0.8,0.2,0.2,0.2,0.8","0.8,0.2,0.2,0.2,0.8,0.2,0.2,0.2,0.8","1","",""
"","html-keyboard-response","3","40575","0.0-3.0","3P4RDNWND6STNSZDOD3UD143OWFIJ0","A2925DTZ2BLK51","3MXX6RQ9EVRTFC527Z18RDK8KW6P4R","","null","<img src=""img/land4.png"" style=""width:200px;border:14px solid red;"">","null","","","","","","","","","",""
"","image-keyboard-response","4","41727","0.0-4.0","3P4RDNWND6STNSZDOD3UD143OWFIJ0","A2925DTZ2BLK51","3MXX6RQ9EVRTFC527Z18RDK8KW6P4R","","1148.5999999046326","img/land3.png","74","1151.1000001430511","1","0","3","1","0.8,0.2,0.2,0.2,0.8,0.2,0.2,0.2,0.8","0.8,0.2,0.2,0.2,0.8,0.2,0.2,0.2,0.8","1","",""
"","html-keyboard-response","5","42043","0.0-5.0","3P4RDNWND6STNSZDOD3UD143OWFIJ0","A2925DTZ2BLK51","3MXX6RQ9EVRTFC527Z18RDK8KW6P4R","","null","<img src=""img/land3.png"" style=""width:200px;border:14px solid red;"">","null","","","","","","","","","",""
"","image-keyboard-response","6","42893","0.0-6.0","3P4RDNWND6STNSZDOD3UD143OWFIJ0","A2925DTZ2BLK51","3MXX6RQ9EVRTFC527Z18RDK8KW6P4R","","847.7000000476837","img/land3.png","74","850.7000000476837","1","0","3","1","0.8,0.2,0.2,0.2,0.8,0.2,0.2,0.2,0.8","0.8,0.2,0.2,0.2,0.8,0.2,0.2,0.2,0.8","1","",""
"","html-keyboard-response","7","43202","0.0-7.0","3P4RDNWND6STNSZDOD3UD143OWFIJ0","A2925DTZ2BLK51","3MXX6RQ9EVRTFC527Z18RDK8KW6P4R","","null","<img src=""img/land3.png"" style=""width:200px;border:14px solid red;"">","null","","","","","","","","","",""
"","image-keyboard-response","8","43563","0.0-8.0","3P4RDNWND6STNSZDOD3UD143OWFIJ0","A2925DTZ2BLK51","3MXX6RQ9EVRTFC527Z18RDK8KW6P4R","","357.60000014305115","img/land3.png","75","360","2","1","3","1","0.8,0.2,0.2,0.2,0.8,0.2,0.2,0.2,0.8","0.8,0.2,0.2,0.2,0.8,0.2,0.2,0.2,0.8","1","",""
"","html-keyboard-response","9","43874","0.0-9.0","3P4RDNWND6STNSZDOD3UD143OWFIJ0","A2925DTZ2BLK51","3MXX6RQ9EVRTFC527Z18RDK8KW6P4R","","null","<img src=""img/land3.png"" style=""width:200px; border:14px solid green;"">","null","","","","","","","","","",""
"","image-keyboard-response","10","44693","0.0-10.0","3P4RDNWND6STNSZDOD3UD143OWFIJ0","A2925DTZ2BLK51","3MXX6RQ9EVRTFC527Z18RDK8KW6P4R","","816.2000000476837","img/land3.png","75","818.9000000953674","2","0","3","1","0.8,0.2,0.2,0.2,0.8,0.2,0.2,0.2,0.8","0.8,0.2,0.2,0.2,0.8,0.2,0.2,0.2,0.8","1","",""
"","html-keyboard-response","11","45008","0.0-11.0","3P4RDNWND6STNSZDOD3UD143OWFIJ0","A2925DTZ2BLK51","3MXX6RQ9EVRTFC527Z18RDK8KW6P4R","","null","<img src=""img/land3.png"" style=""width:200px;border:14px solid red;"">","null","","","","","","","","","",""
"","image-keyboard-response","12","46157","0.0-12.0","3P4RDNWND6STNSZDOD3UD143OWFIJ0","A2925DTZ2BLK51","3MXX6RQ9EVRTFC527Z18RDK8KW6P4R","","1145.9000000953674","img/land4.png","76","1148.1000001430511","3","0","2","1","0.8,0.2,0.2,0.2,0.8,0.2,0.2,0.2,0.8","0.8,0.2,0.2,0.2,0.8,0.2,0.2,0.2,0.8","1","",""
"","html-keyboard-response","13","46468","0.0-13.0","3P4RDNWND6STNSZDOD3UD143OWFIJ0","A2925DTZ2BLK51","3MXX6RQ9EVRTFC527Z18RDK8KW6P4R","","null","<img src=""img/land4.png"" style=""width:200px;border:14px solid red;"">","null","","","","","","","","","",""
"","image-keyboard-response","14","47507","0.0-14.0","3P4RDNWND6STNSZDOD3UD143OWFIJ0","A2925DTZ2BLK51","3MXX6RQ9EVRTFC527Z18RDK8KW6P4R","","1036.3999998569489","img/land4.png","75","1038.7999999523163","2","1","2","1","0.8,0.2,0.2,0.2,0.8,0.2,0.2,0.2,0.8","0.8,0.2,0.2,0.2,0.8,0.2,0.2,0.2,0.8","1","",""
"","html-keyboard-response","15","47818","0.0-15.0","3P4RDNWND6STNSZDOD3UD143OWFIJ0","A2925DTZ2BLK51","3MXX6RQ9EVRTFC527Z18RDK8KW6P4R","","null","<img src=""img/land4.png"" style=""width:200px; border:14px solid green;"">","null","","","","","","","","","",""
"","image-keyboard-response","16","48433","0.0-16.0","3P4RDNWND6STNSZDOD3UD143OWFIJ0","A2925DTZ2BLK51","3MXX6RQ9EVRTFC527Z18RDK8KW6P4R","","612.2000000476837","img/land4.png","75","614.6000001430511","2","0","2","1","0.8,0.2,0.2,0.2,0.8,0.2,0.2,0.2,0.8","0.8,0.2,0.2,0.2,0.8,0.2,0.2,0.2,0.8","1","",""
"","html-keyboard-response","17","48738","0.0-17.0","3P4RDNWND6STNSZDOD3UD143OWFIJ0","A2925DTZ2BLK51","3MXX6RQ9EVRTFC527Z18RDK8KW6P4R","","null","<img src=""img/land4.png"" style=""width:200px;border:14px solid red;"">","null","","","","","","","","","",""
"","image-keyboard-response","18","50366","0.0-18.0","3P4RDNWND6STNSZDOD3UD143OWFIJ0","A2925DTZ2BLK51","3MXX6RQ9EVRTFC527Z18RDK8KW6P4R","","1625.0999999046326","img/land2.png","74","1627.7999999523163","1","1","1","1","0.8,0.2,0.2,0.2,0.8,0.2,0.2,0.2,0.8","0.8,0.2,0.2,0.2,0.8,0.2,0.2,0.2,0.8","1","",""
"","html-keyboard-response","19","50673","0.0-19.0","3P4RDNWND6STNSZDOD3UD143OWFIJ0","A2925DTZ2BLK51","3MXX6RQ9EVRTFC527Z18RDK8KW6P4R","","null","<img src=""img/land2.png"" style=""width:200px; border:14px solid green;"">","null","","","","","","","","","",""
"","image-keyboard-response","20","51605","0.0-20.0","3P4RDNWND6STNSZDOD3UD143OWFIJ0","A2925DTZ2BLK51","3MXX6RQ9EVRTFC527Z18RDK8KW6P4R","","929.5","img/land3.png","75","931.9000000953674","2","0","3","1","0.8,0.2,0.2,0.2,0.8,0.2,0.2,0.2,0.8","0.8,0.2,0.2,0.2,0.8,0.2,0.2,0.2,0.8","1","",""
"","html-keyboard-response","21","51913","0.0-21.0","3P4RDNWND6STNSZDOD3UD143OWFIJ0","A2925DTZ2BLK51","3MXX6RQ9EVRTFC527Z18RDK8KW6P4R","","null","<img src=""img/land3.png"" style=""width:200px;border:14px solid red;"">","null","","","","","","","","","",""
"","image-keyboard-response","22","52723","0.0-22.0","3P4RDNWND6STNSZDOD3UD143OWFIJ0","A2925DTZ2BLK51","3MXX6RQ9EVRTFC527Z18RDK8KW6P4R","","806.2000000476837","img/land2.png","74","808.7999999523163","1","0","1","1","0.8,0.2,0.2,0.2,0.8,0.2,0.2,0.2,0.8","0.8,0.2,0.2,0.2,0.8,0.2,0.2,0.2,0.8","1","",""
"","html-keyboard-response","23","53032","0.0-23.0","3P4RDNWND6STNSZDOD3UD143OWFIJ0","A2925DTZ2BLK51","3MXX6RQ9EVRTFC527Z18RDK8KW6P4R","","null","<img src=""img/land2.png"" style=""width:200px;border:14px solid red;"">","null","","","","","","","","","",""
"","image-keyboard-response","24","54173","0.0-24.0","3P4RDNWND6STNSZDOD3UD143OWFIJ0","A2925DTZ2BLK51","3MXX6RQ9EVRTFC527Z18RDK8KW6P4R","","1137.5","img/land3.png","75","1140.2999999523163","2","0","3","1","0.8,0.2,0.2,0.2,0.8,0.2,0.2,0.2,0.8","0.8,0.2,0.2,0.2,0.8,0.2,0.2,0.2,0.8","1","",""
"","html-keyboard-response","25","54489","0.0-25.0","3P4RDNWND6STNSZDOD3UD143OWFIJ0","A2925DTZ2BLK51","3MXX6RQ9EVRTFC527Z18RDK8KW6P4R","","null","<img src=""img/land3.png"" style=""width:200px;border:14px solid red;"">","null","","","","","","","","","",""
"","image-keyboard-response","26","55295","0.0-26.0","3P4RDNWND6STNSZDOD3UD143OWFIJ0","A2925DTZ2BLK51","3MXX6RQ9EVRTFC527Z18RDK8KW6P4R","","803.2000000476837","img/land4.png","75","805.6000001430511","2","1","2","1","0.8,0.2,0.2,0.2,0.8,0.2,0.2,0.2,0.8","0.8,0.2,0.2,0.2,0.8,0.2,0.2,0.2,0.8","1","",""
"","html-keyboard-response","27","55605","0.0-27.0","3P4RDNWND6STNSZDOD3UD143OWFIJ0","A2925DTZ2BLK51","3MXX6RQ9EVRTFC527Z18RDK8KW6P4R","","null","<img src=""img/land4.png"" style=""width:200px; border:14px solid green;"">","null","","","","","","","","","",""
"","image-keyboard-response","28","56746","0.0-28.0","3P4RDNWND6STNSZDOD3UD143OWFIJ0","A2925DTZ2BLK51","3MXX6RQ9EVRTFC527Z18RDK8KW6P4R","","1138.5999999046326","img/land2.png","75","1140.6000001430511","2","0","1","1","0.8,0.2,0.2,0.2,0.8,0.2,0.2,0.2,0.8","0.8,0.2,0.2,0.2,0.8,0.2,0.2,0.2,0.8","1","",""
"","html-keyboard-response","29","57062","0.0-29.0","3P4RDNWND6STNSZDOD3UD143OWFIJ0","A2925DTZ2BLK51","3MXX6RQ9EVRTFC527Z18RDK8KW6P4R","","null","<img src=""img/land2.png"" style=""width:200px;border:14px solid red;"">","null","","","","","","","","","",""
"","image-keyboard-response","30","57822","0.0-30.0","3P4RDNWND6STNSZDOD3UD143OWFIJ0","A2925DTZ2BLK51","3MXX6RQ9EVRTFC527Z18RDK8KW6P4R","","756.7000000476837","img/land4.png","75","759","2","0","2","1","0.8,0.2,0.2,0.2,0.8,0.2,0.2,0.2,0.8","0.8,0.2,0.2,0.2,0.8,0.2,0.2,0.2,0.8","1","",""
"","html-keyboard-response","31","58141","0.0-31.0","3P4RDNWND6STNSZDOD3UD143OWFIJ0","A2925DTZ2BLK51","3MXX6RQ9EVRTFC527Z18RDK8KW6P4R","","null","<img src=""img/land4.png"" style=""width:200px;border:14px solid red;"">","null","","","","","","","","","",""
"","image-keyboard-response","32","58859","0.0-32.0","3P4RDNWND6STNSZDOD3UD143OWFIJ0","A2925DTZ2BLK51","3MXX6RQ9EVRTFC527Z18RDK8KW6P4R","","715.2999999523163","img/land4.png","76","717.5","3","0","2","1","0.8,0.2,0.2,0.2,0.8,0.2,0.2,0.2,0.8","0.8,0.2,0.2,0.2,0.8,0.2,0.2,0.2,0.8","1","",""
"","html-keyboard-response","33","59179","0.0-33.0","3P4RDNWND6STNSZDOD3UD143OWFIJ0","A2925DTZ2BLK51","3MXX6RQ9EVRTFC527Z18RDK8KW6P4R","","null","<img src=""img/land4.png"" style=""width:200px;border:14px solid red;"">","null","","","","","","","","","",""
"","image-keyboard-response","34","61040","0.0-34.0","3P4RDNWND6STNSZDOD3UD143OWFIJ0","A2925DTZ2BLK51","3MXX6RQ9EVRTFC527Z18RDK8KW6P4R","","1852","img/land3.png","75","1854.7000000476837","2","0","3","1","0.8,0.2,0.2,0.2,0.8,0.2,0.2,0.2,0.8","0.8,0.2,0.2,0.2,0.8,0.2,0.2,0.2,0.8","1","",""
"","html-keyboard-response","35","61358","0.0-35.0","3P4RDNWND6STNSZDOD3UD143OWFIJ0","A2925DTZ2BLK51","3MXX6RQ9EVRTFC527Z18RDK8KW6P4R","","null","<img src=""img/land3.png"" style=""width:200px;border:14px solid red;"">","null","","","","","","","","","",""
"","image-keyboard-response","36","62513","0.0-36.0","3P4RDNWND6STNSZDOD3UD143OWFIJ0","A2925DTZ2BLK51","3MXX6RQ9EVRTFC527Z18RDK8KW6P4R","","1151.9000000953674","img/land4.png","76","1154.2999999523163","3","0","2","1","0.8,0.2,0.2,0.2,0.8,0.2,0.2,0.2,0.8","0.8,0.2,0.2,0.2,0.8,0.2,0.2,0.2,0.8","1","",""
"","html-keyboard-response","37","62825","0.0-37.0","3P4RDNWND6STNSZDOD3UD143OWFIJ0","A2925DTZ2BLK51","3MXX6RQ9EVRTFC527Z18RDK8KW6P4R","","null","<img src=""img/land4.png"" style=""width:200px;border:14px solid red;"">","null","","","","","","","","","",""
"","image-keyboard-response","38","63763","0.0-38.0","3P4RDNWND6STNSZDOD3UD143OWFIJ0","A2925DTZ2BLK51","3MXX6RQ9EVRTFC527Z18RDK8KW6P4R","","935.2000000476837","img/land4.png","74","937.5","1","0","2","1","0.8,0.2,0.2,0.2,0.8,0.2,0.2,0.2,0.8","0.8,0.2,0.2,0.2,0.8,0.2,0.2,0.2,0.8","1","",""
"","html-keyboard-response","39","64077","0.0-39.0","3P4RDNWND6STNSZDOD3UD143OWFIJ0","A2925DTZ2BLK51","3MXX6RQ9EVRTFC527Z18RDK8KW6P4R","","null","<img src=""img/land4.png"" style=""width:200px;border:14px solid red;"">","null","","","","","","","","","",""
"","image-keyboard-response","40","65364","0.0-40.0","3P4RDNWND6STNSZDOD3UD143OWFIJ0","A2925DTZ2BLK51","3MXX6RQ9EVRTFC527Z18RDK8KW6P4R","","1284.4000000953674","img/land3.png","74","1286.5999999046326","1","1","3","1","0.8,0.2,0.2,0.2,0.8,0.2,0.2,0.2,0.8","0.8,0.2,0.2,0.2,0.8,0.2,0.2,0.2,0.8","1","",""
"","html-keyboard-response","41","65683","0.0-41.0","3P4RDNWND6STNSZDOD3UD143OWFIJ0","A2925DTZ2BLK51","3MXX6RQ9EVRTFC527Z18RDK8KW6P4R","","null","<img src=""img/land3.png"" style=""width:200px; border:14px solid green;"">","null","","","","","","","","","",""
"","image-keyboard-response","42","66995","0.0-42.0","3P4RDNWND6STNSZDOD3UD143OWFIJ0","A2925DTZ2BLK51","3MXX6RQ9EVRTFC527Z18RDK8KW6P4R","","1309.6000001430511","img/land4.png","74","1311.5","1","1","2","1","0.8,0.2,0.2,0.2,0.8,0.2,0.2,0.2,0.8","0.8,0.2,0.2,0.2,0.8,0.2,0.2,0.2,0.8","1","",""
"","html-keyboard-response","43","67314","0.0-43.0","3P4RDNWND6STNSZDOD3UD143OWFIJ0","A2925DTZ2BLK51","3MXX6RQ9EVRTFC527Z18RDK8KW6P4R","","null","<img src=""img/land4.png"" style=""width:200px; border:14px solid green;"">","null","","","","","","","","","",""
"","image-keyboard-response","44","68839","0.0-44.0","3P4RDNWND6STNSZDOD3UD143OWFIJ0","A2925DTZ2BLK51","3MXX6RQ9EVRTFC527Z18RDK8KW6P4R","","1521.6000001430511","img/land2.png","75","1523.7999999523163","2","0","1","1","0.8,0.2,0.2,0.2,0.8,0.2,0.2,0.2,0.8","0.8,0.2,0.2,0.2,0.8,0.2,0.2,0.2,0.8","1","",""
"","html-keyboard-response","45","69145","0.0-45.0","3P4RDNWND6STNSZDOD3UD143OWFIJ0","A2925DTZ2BLK51","3MXX6RQ9EVRTFC527Z18RDK8KW6P4R","","null","<img src=""img/land2.png"" style=""width:200px;border:14px solid red;"">","null","","","","","","","","","",""
"","image-keyboard-response","46","69849","0.0-46.0","3P4RDNWND6STNSZDOD3UD143OWFIJ0","A2925DTZ2BLK51","3MXX6RQ9EVRTFC527Z18RDK8KW6P4R","","701.6999998092651","img/land4.png","74","704","1","0","2","1","0.8,0.2,0.2,0.2,0.8,0.2,0.2,0.2,0.8","0.8,0.2,0.2,0.2,0.8,0.2,0.2,0.2,0.8","1","",""
"","html-keyboard-response","47","70156","0.0-47.0","3P4RDNWND6STNSZDOD3UD143OWFIJ0","A2925DTZ2BLK51","3MXX6RQ9EVRTFC527Z18RDK8KW6P4R","","null","<img src=""img/land4.png"" style=""width:200px;border:14px solid red;"">","null","","","","","","","","","",""
"","image-keyboard-response","48","71132","0.0-48.0","3P4RDNWND6STNSZDOD3UD143OWFIJ0","A2925DTZ2BLK51","3MXX6RQ9EVRTFC527Z18RDK8KW6P4R","","973.1000001430511","img/land2.png","74","975.6000001430511","1","1","1","1","0.8,0.2,0.2,0.2,0.8,0.2,0.2,0.2,0.8","0.8,0.2,0.2,0.2,0.8,0.2,0.2,0.2,0.8","1","",""
"","html-keyboard-response","49","71451","0.0-49.0","3P4RDNWND6STNSZDOD3UD143OWFIJ0","A2925DTZ2BLK51","3MXX6RQ9EVRTFC527Z18RDK8KW6P4R","","null","<img src=""img/land2.png"" style=""width:200px; border:14px solid green;"">","null","","","","","","","","","",""
"","image-keyboard-response","50","72690","0.0-50.0","3P4RDNWND6STNSZDOD3UD143OWFIJ0","A2925DTZ2BLK51","3MXX6RQ9EVRTFC527Z18RDK8KW6P4R","","1235.9000000953674","img/land4.png","76","1238.2999999523163","3","0","2","1","0.8,0.2,0.2,0.2,0.8,0.2,0.2,0.2,0.8","0.8,0.2,0.2,0.2,0.8,0.2,0.2,0.2,0.8","1","",""
"","html-keyboard-response","51","72999","0.0-51.0","3P4RDNWND6STNSZDOD3UD143OWFIJ0","A2925DTZ2BLK51","3MXX6RQ9EVRTFC527Z18RDK8KW6P4R","","null","<img src=""img/land4.png"" style=""width:200px;border:14px solid red;"">","null","","","","","","","","","",""
"","image-keyboard-response","52","73611","0.0-52.0","3P4RDNWND6STNSZDOD3UD143OWFIJ0","A2925DTZ2BLK51","3MXX6RQ9EVRTFC527Z18RDK8KW6P4R","","608.7000000476837","img/land2.png","74","610.9000000953674","1","1","1","1","0.8,0.2,0.2,0.2,0.8,0.2,0.2,0.2,0.8","0.8,0.2,0.2,0.2,0.8,0.2,0.2,0.2,0.8","1","",""
"","html-keyboard-response","53","73929","0.0-53.0","3P4RDNWND6STNSZDOD3UD143OWFIJ0","A2925DTZ2BLK51","3MXX6RQ9EVRTFC527Z18RDK8KW6P4R","","null","<img src=""img/land2.png"" style=""width:200px; border:14px solid green;"">","null","","","","","","","","","",""
"","image-keyboard-response","54","74586","0.0-54.0","3P4RDNWND6STNSZDOD3UD143OWFIJ0","A2925DTZ2BLK51","3MXX6RQ9EVRTFC527Z18RDK8KW6P4R","","654.5","img/land2.png","74","656.7999999523163","1","1","1","1","0.8,0.2,0.2,0.2,0.8,0.2,0.2,0.2,0.8","0.8,0.2,0.2,0.2,0.8,0.2,0.2,0.2,0.8","1","",""
"","html-keyboard-response","55","74895","0.0-55.0","3P4RDNWND6STNSZDOD3UD143OWFIJ0","A2925DTZ2BLK51","3MXX6RQ9EVRTFC527Z18RDK8KW6P4R","","null","<img src=""img/land2.png"" style=""width:200px; border:14px solid green;"">","null","","","","","","","","","",""
"","image-keyboard-response","56","75660","0.0-56.0","3P4RDNWND6STNSZDOD3UD143OWFIJ0","A2925DTZ2BLK51","3MXX6RQ9EVRTFC527Z18RDK8KW6P4R","","762.7000000476837","img/land4.png","74","765.2000000476837","1","0","2","1","0.8,0.2,0.2,0.2,0.8,0.2,0.2,0.2,0.8","0.8,0.2,0.2,0.2,0.8,0.2,0.2,0.2,0.8","1","",""
"","html-keyboard-response","57","75963","0.0-57.0","3P4RDNWND6STNSZDOD3UD143OWFIJ0","A2925DTZ2BLK51","3MXX6RQ9EVRTFC527Z18RDK8KW6P4R","","null","<img src=""img/land4.png"" style=""width:200px;border:14px solid red;"">","null","","","","","","","","","",""
"","image-keyboard-response","58","77638","0.0-58.0","3P4RDNWND6STNSZDOD3UD143OWFIJ0","A2925DTZ2BLK51","3MXX6RQ9EVRTFC527Z18RDK8KW6P4R","","1672","img/land4.png","76","1674.5999999046326","3","0","2","1","0.8,0.2,0.2,0.2,0.8,0.2,0.2,0.2,0.8","0.8,0.2,0.2,0.2,0.8,0.2,0.2,0.2,0.8","1","",""
"","html-keyboard-response","59","77945","0.0-59.0","3P4RDNWND6STNSZDOD3UD143OWFIJ0","A2925DTZ2BLK51","3MXX6RQ9EVRTFC527Z18RDK8KW6P4R","","null","<img src=""img/land4.png"" style=""width:200px;border:14px solid red;"">","null","","","","","","","","","",""
"","image-keyboard-response","60","78582","0.0-60.0","3P4RDNWND6STNSZDOD3UD143OWFIJ0","A2925DTZ2BLK51","3MXX6RQ9EVRTFC527Z18RDK8KW6P4R","","634.0999999046326","img/land4.png","75","636.4000000953674","2","0","2","1","0.8,0.2,0.2,0.2,0.8,0.2,0.2,0.2,0.8","0.8,0.2,0.2,0.2,0.8,0.2,0.2,0.2,0.8","1","",""
"","html-keyboard-response","61","78894","0.0-61.0","3P4RDNWND6STNSZDOD3UD143OWFIJ0","A2925DTZ2BLK51","3MXX6RQ9EVRTFC527Z18RDK8KW6P4R","","null","<img src=""img/land4.png"" style=""width:200px;border:14px solid red;"">","null","","","","","","","","","",""
"","image-keyboard-response","62","79781","0.0-62.0","3P4RDNWND6STNSZDOD3UD143OWFIJ0","A2925DTZ2BLK51","3MXX6RQ9EVRTFC527Z18RDK8KW6P4R","","883.7000000476837","img/land2.png","74","886.0999999046326","1","1","1","1","0.8,0.2,0.2,0.2,0.8,0.2,0.2,0.2,0.8","0.8,0.2,0.2,0.2,0.8,0.2,0.2,0.2,0.8","1","",""
"","html-keyboard-response","63","80094","0.0-63.0","3P4RDNWND6STNSZDOD3UD143OWFIJ0","A2925DTZ2BLK51","3MXX6RQ9EVRTFC527Z18RDK8KW6P4R","","null","<img src=""img/land2.png"" style=""width:200px; border:14px solid green;"">","null","","","","","","","","","",""
"","image-keyboard-response","64","81018","0.0-64.0","3P4RDNWND6STNSZDOD3UD143OWFIJ0","A2925DTZ2BLK51","3MXX6RQ9EVRTFC527Z18RDK8KW6P4R","","921.1999998092651","img/land3.png","74","923.5999999046326","1","0","3","1","0.8,0.2,0.2,0.2,0.8,0.2,0.2,0.2,0.8","0.8,0.2,0.2,0.2,0.8,0.2,0.2,0.2,0.8","1","",""
"","html-keyboard-response","65","81339","0.0-65.0","3P4RDNWND6STNSZDOD3UD143OWFIJ0","A2925DTZ2BLK51","3MXX6RQ9EVRTFC527Z18RDK8KW6P4R","","null","<img src=""img/land3.png"" style=""width:200px;border:14px solid red;"">","null","","","","","","","","","",""
"","image-keyboard-response","66","82017","0.0-66.0","3P4RDNWND6STNSZDOD3UD143OWFIJ0","A2925DTZ2BLK51","3MXX6RQ9EVRTFC527Z18RDK8KW6P4R","","675.2000000476837","img/land2.png","74","677.6999998092651","1","1","1","1","0.8,0.2,0.2,0.2,0.8,0.2,0.2,0.2,0.8","0.8,0.2,0.2,0.2,0.8,0.2,0.2,0.2,0.8","1","",""
"","html-keyboard-response","67","82326","0.0-67.0","3P4RDNWND6STNSZDOD3UD143OWFIJ0","A2925DTZ2BLK51","3MXX6RQ9EVRTFC527Z18RDK8KW6P4R","","null","<img src=""img/land2.png"" style=""width:200px; border:14px solid green;"">","null","","","","","","","","","",""
"","image-keyboard-response","68","82795","0.0-68.0","3P4RDNWND6STNSZDOD3UD143OWFIJ0","A2925DTZ2BLK51","3MXX6RQ9EVRTFC527Z18RDK8KW6P4R","","466.09999990463257","img/land2.png","74","468.40000009536743","1","1","1","1","0.8,0.2,0.2,0.2,0.8,0.2,0.2,0.2,0.8","0.8,0.2,0.2,0.2,0.8,0.2,0.2,0.2,0.8","1","",""
"","html-keyboard-response","69","83101","0.0-69.0","3P4RDNWND6STNSZDOD3UD143OWFIJ0","A2925DTZ2BLK51","3MXX6RQ9EVRTFC527Z18RDK8KW6P4R","","null","<img src=""img/land2.png"" style=""width:200px; border:14px solid green;"">","null","","","","","","","","","",""
"","image-keyboard-response","70","83433","0.0-70.0","3P4RDNWND6STNSZDOD3UD143OWFIJ0","A2925DTZ2BLK51","3MXX6RQ9EVRTFC527Z18RDK8KW6P4R","","329.59999990463257","img/land2.png","74","331.90000009536743","1","1","1","1","0.8,0.2,0.2,0.2,0.8,0.2,0.2,0.2,0.8","0.8,0.2,0.2,0.2,0.8,0.2,0.2,0.2,0.8","1","",""
"","html-keyboard-response","71","83740","0.0-71.0","3P4RDNWND6STNSZDOD3UD143OWFIJ0","A2925DTZ2BLK51","3MXX6RQ9EVRTFC527Z18RDK8KW6P4R","","null","<img src=""img/land2.png"" style=""width:200px; border:14px solid green;"">","null","","","","","","","","","",""
"","image-keyboard-response","72","84860","0.0-72.0","3P4RDNWND6STNSZDOD3UD143OWFIJ0","A2925DTZ2BLK51","3MXX6RQ9EVRTFC527Z18RDK8KW6P4R","","1117.3000001907349","img/land3.png","74","1119.7000000476837","1","0","3","1","0.8,0.2,0.2,0.2,0.8,0.2,0.2,0.2,0.8","0.8,0.2,0.2,0.2,0.8,0.2,0.2,0.2,0.8","1","",""
"","html-keyboard-response","73","85169","0.0-73.0","3P4RDNWND6STNSZDOD3UD143OWFIJ0","A2925DTZ2BLK51","3MXX6RQ9EVRTFC527Z18RDK8KW6P4R","","null","<img src=""img/land3.png"" style=""width:200px;border:14px solid red;"">","null","","","","","","","","","",""
"","image-keyboard-response","74","85682","0.0-74.0","3P4RDNWND6STNSZDOD3UD143OWFIJ0","A2925DTZ2BLK51","3MXX6RQ9EVRTFC527Z18RDK8KW6P4R","","510.59999990463257","img/land3.png","74","513.0999999046326","1","0","3","1","0.8,0.2,0.2,0.2,0.8,0.2,0.2,0.2,0.8","0.8,0.2,0.2,0.2,0.8,0.2,0.2,0.2,0.8","1","",""
"","html-keyboard-response","75","85987","0.0-75.0","3P4RDNWND6STNSZDOD3UD143OWFIJ0","A2925DTZ2BLK51","3MXX6RQ9EVRTFC527Z18RDK8KW6P4R","","null","<img src=""img/land3.png"" style=""width:200px;border:14px solid red;"">","null","","","","","","","","","",""
"","image-keyboard-response","76","86698","0.0-76.0","3P4RDNWND6STNSZDOD3UD143OWFIJ0","A2925DTZ2BLK51","3MXX6RQ9EVRTFC527Z18RDK8KW6P4R","","708.2000000476837","img/land2.png","74","710.6000001430511","1","1","1","1","0.8,0.2,0.2,0.2,0.8,0.2,0.2,0.2,0.8","0.8,0.2,0.2,0.2,0.8,0.2,0.2,0.2,0.8","1","",""
"","html-keyboard-response","77","87015","0.0-77.0","3P4RDNWND6STNSZDOD3UD143OWFIJ0","A2925DTZ2BLK51","3MXX6RQ9EVRTFC527Z18RDK8KW6P4R","","null","<img src=""img/land2.png"" style=""width:200px; border:14px solid green;"">","null","","","","","","","","","",""
"","image-keyboard-response","78","87858","0.0-78.0","3P4RDNWND6STNSZDOD3UD143OWFIJ0","A2925DTZ2BLK51","3MXX6RQ9EVRTFC527Z18RDK8KW6P4R","","840.8999998569489","img/land4.png","76","843.7999999523163","3","0","2","1","0.8,0.2,0.2,0.2,0.8,0.2,0.2,0.2,0.8","0.8,0.2,0.2,0.2,0.8,0.2,0.2,0.2,0.8","1","",""
"","html-keyboard-response","79","88169","0.0-79.0","3P4RDNWND6STNSZDOD3UD143OWFIJ0","A2925DTZ2BLK51","3MXX6RQ9EVRTFC527Z18RDK8KW6P4R","","null","<img src=""img/land4.png"" style=""width:200px;border:14px solid red;"">","null","","","","","","","","","",""
"","image-keyboard-response","80","89643","0.0-80.0","3P4RDNWND6STNSZDOD3UD143OWFIJ0","A2925DTZ2BLK51","3MXX6RQ9EVRTFC527Z18RDK8KW6P4R","","1470.6999998092651","img/land3.png","75","1473.5","2","0","3","1","0.8,0.2,0.2,0.2,0.8,0.2,0.2,0.2,0.8","0.8,0.2,0.2,0.2,0.8,0.2,0.2,0.2,0.8","1","",""
"","html-keyboard-response","81","89987","0.0-81.0","3P4RDNWND6STNSZDOD3UD143OWFIJ0","A2925DTZ2BLK51","3MXX6RQ9EVRTFC527Z18RDK8KW6P4R","","null","<img src=""img/land3.png"" style=""width:200px;border:14px solid red;"">","null","","","","","","","","","",""
"","image-keyboard-response","82","91223","0.0-82.0","3P4RDNWND6STNSZDOD3UD143OWFIJ0","A2925DTZ2BLK51","3MXX6RQ9EVRTFC527Z18RDK8KW6P4R","","1233.1000001430511","img/land4.png","74","1235.3999998569489","1","0","2","1","0.8,0.2,0.2,0.2,0.8,0.2,0.2,0.2,0.8","0.8,0.2,0.2,0.2,0.8,0.2,0.2,0.2,0.8","1","",""
"","html-keyboard-response","83","91537","0.0-83.0","3P4RDNWND6STNSZDOD3UD143OWFIJ0","A2925DTZ2BLK51","3MXX6RQ9EVRTFC527Z18RDK8KW6P4R","","null","<img src=""img/land4.png"" style=""width:200px;border:14px solid red;"">","null","","","","","","","","","",""
"","image-keyboard-response","84","92164","0.0-84.0","3P4RDNWND6STNSZDOD3UD143OWFIJ0","A2925DTZ2BLK51","3MXX6RQ9EVRTFC527Z18RDK8KW6P4R","","624.5","img/land2.png","74","627.0999999046326","1","1","1","1","0.8,0.2,0.2,0.2,0.8,0.2,0.2,0.2,0.8","0.8,0.2,0.2,0.2,0.8,0.2,0.2,0.2,0.8","1","",""
"","html-keyboard-response","85","92469","0.0-85.0","3P4RDNWND6STNSZDOD3UD143OWFIJ0","A2925DTZ2BLK51","3MXX6RQ9EVRTFC527Z18RDK8KW6P4R","","null","<img src=""img/land2.png"" style=""width:200px; border:14px solid green;"">","null","","","","","","","","","",""
"","image-keyboard-response","86","93279","0.0-86.0","3P4RDNWND6STNSZDOD3UD143OWFIJ0","A2925DTZ2BLK51","3MXX6RQ9EVRTFC527Z18RDK8KW6P4R","","806.9000000953674","img/land3.png","76","809.5999999046326","3","1","3","1","0.8,0.2,0.2,0.2,0.8,0.2,0.2,0.2,0.8","0.8,0.2,0.2,0.2,0.8,0.2,0.2,0.2,0.8","1","",""
"","html-keyboard-response","87","93583","0.0-87.0","3P4RDNWND6STNSZDOD3UD143OWFIJ0","A2925DTZ2BLK51","3MXX6RQ9EVRTFC527Z18RDK8KW6P4R","","null","<img src=""img/land3.png"" style=""width:200px; border:14px solid green;"">","null","","","","","","","","","",""
"","image-keyboard-response","88","95433","0.0-88.0","3P4RDNWND6STNSZDOD3UD143OWFIJ0","A2925DTZ2BLK51","3MXX6RQ9EVRTFC527Z18RDK8KW6P4R","","1847.3999998569489","img/land2.png","74","1849.8999998569489","1","1","1","1","0.8,0.2,0.2,0.2,0.8,0.2,0.2,0.2,0.8","0.8,0.2,0.2,0.2,0.8,0.2,0.2,0.2,0.8","1","",""
"","html-keyboard-response","89","95745","0.0-89.0","3P4RDNWND6STNSZDOD3UD143OWFIJ0","A2925DTZ2BLK51","3MXX6RQ9EVRTFC527Z18RDK8KW6P4R","","null","<img src=""img/land2.png"" style=""width:200px; border:14px solid green;"">","null","","","","","","","","","",""
"","image-keyboard-response","90","96432","0.0-90.0","3P4RDNWND6STNSZDOD3UD143OWFIJ0","A2925DTZ2BLK51","3MXX6RQ9EVRTFC527Z18RDK8KW6P4R","","684.9000000953674","img/land3.png","76","687.3000001907349","3","0","3","1","0.8,0.2,0.2,0.2,0.8,0.2,0.2,0.2,0.8","0.8,0.2,0.2,0.2,0.8,0.2,0.2,0.2,0.8","1","",""
"","html-keyboard-response","91","96738","0.0-91.0","3P4RDNWND6STNSZDOD3UD143OWFIJ0","A2925DTZ2BLK51","3MXX6RQ9EVRTFC527Z18RDK8KW6P4R","","null","<img src=""img/land3.png"" style=""width:200px;border:14px solid red;"">","null","","","","","","","","","",""
"","image-keyboard-response","92","98460","0.0-92.0","3P4RDNWND6STNSZDOD3UD143OWFIJ0","A2925DTZ2BLK51","3MXX6RQ9EVRTFC527Z18RDK8KW6P4R","","1719.5","img/land4.png","75","1721.5","2","0","2","1","0.8,0.2,0.2,0.2,0.8,0.2,0.2,0.2,0.8","0.8,0.2,0.2,0.2,0.8,0.2,0.2,0.2,0.8","1","",""
"","html-keyboard-response","93","98769","0.0-93.0","3P4RDNWND6STNSZDOD3UD143OWFIJ0","A2925DTZ2BLK51","3MXX6RQ9EVRTFC527Z18RDK8KW6P4R","","null","<img src=""img/land4.png"" style=""width:200px;border:14px solid red;"">","null","","","","","","","","","",""
"","image-keyboard-response","94","99766","0.0-94.0","3P4RDNWND6STNSZDOD3UD143OWFIJ0","A2925DTZ2BLK51","3MXX6RQ9EVRTFC527Z18RDK8KW6P4R","","994","img/land3.png","75","996.2999999523163","2","0","3","1","0.8,0.2,0.2,0.2,0.8,0.2,0.2,0.2,0.8","0.8,0.2,0.2,0.2,0.8,0.2,0.2,0.2,0.8","1","",""
"","html-keyboard-response","95","100071","0.0-95.0","3P4RDNWND6STNSZDOD3UD143OWFIJ0","A2925DTZ2BLK51","3MXX6RQ9EVRTFC527Z18RDK8KW6P4R","","null","<img src=""img/land3.png"" style=""width:200px;border:14px solid red;"">","null","","","","","","","","","",""
"","image-keyboard-response","96","100671","0.0-96.0","3P4RDNWND6STNSZDOD3UD143OWFIJ0","A2925DTZ2BLK51","3MXX6RQ9EVRTFC527Z18RDK8KW6P4R","","596.8999998569489","img/land2.png","74","599.2000000476837","1","1","1","1","0.8,0.2,0.2,0.2,0.8,0.2,0.2,0.2,0.8","0.8,0.2,0.2,0.2,0.8,0.2,0.2,0.2,0.8","1","",""
"","html-keyboard-response","97","100976","0.0-97.0","3P4RDNWND6STNSZDOD3UD143OWFIJ0","A2925DTZ2BLK51","3MXX6RQ9EVRTFC527Z18RDK8KW6P4R","","null","<img src=""img/land2.png"" style=""width:200px; border:14px solid green;"">","null","","","","","","","","","",""
"","image-keyboard-response","98","101709","0.0-98.0","3P4RDNWND6STNSZDOD3UD143OWFIJ0","A2925DTZ2BLK51","3MXX6RQ9EVRTFC527Z18RDK8KW6P4R","","730.0999999046326","img/land4.png","76","732.2000000476837","3","0","2","1","0.8,0.2,0.2,0.2,0.8,0.2,0.2,0.2,0.8","0.8,0.2,0.2,0.2,0.8,0.2,0.2,0.2,0.8","1","",""
"","html-keyboard-response","99","102020","0.0-99.0","3P4RDNWND6STNSZDOD3UD143OWFIJ0","A2925DTZ2BLK51","3MXX6RQ9EVRTFC527Z18RDK8KW6P4R","","null","<img src=""img/land4.png"" style=""width:200px;border:14px solid red;"">","null","","","","","","","","","",""
"","image-keyboard-response","100","103400","0.0-100.0","3P4RDNWND6STNSZDOD3UD143OWFIJ0","A2925DTZ2BLK51","3MXX6RQ9EVRTFC527Z18RDK8KW6P4R","","1376.4000000953674","img/land3.png","75","1378.6999998092651","2","0","3","1","0.8,0.2,0.2,0.2,0.8,0.2,0.2,0.2,0.8","0.8,0.2,0.2,0.2,0.8,0.2,0.2,0.2,0.8","1","",""
"","html-keyboard-response","101","103703","0.0-101.0","3P4RDNWND6STNSZDOD3UD143OWFIJ0","A2925DTZ2BLK51","3MXX6RQ9EVRTFC527Z18RDK8KW6P4R","","null","<img src=""img/land3.png"" style=""width:200px;border:14px solid red;"">","null","","","","","","","","","",""
"","image-keyboard-response","102","105353","0.0-102.0","3P4RDNWND6STNSZDOD3UD143OWFIJ0","A2925DTZ2BLK51","3MXX6RQ9EVRTFC527Z18RDK8KW6P4R","","1646.9000000953674","img/land4.png","75","1649.1999998092651","2","1","2","1","0.8,0.2,0.2,0.2,0.8,0.2,0.2,0.2,0.8","0.8,0.2,0.2,0.2,0.8,0.2,0.2,0.2,0.8","1","",""
"","html-keyboard-response","103","105660","0.0-103.0","3P4RDNWND6STNSZDOD3UD143OWFIJ0","A2925DTZ2BLK51","3MXX6RQ9EVRTFC527Z18RDK8KW6P4R","","null","<img src=""img/land4.png"" style=""width:200px; border:14px solid green;"">","null","","","","","","","","","",""
"","image-keyboard-response","104","106697","0.0-104.0","3P4RDNWND6STNSZDOD3UD143OWFIJ0","A2925DTZ2BLK51","3MXX6RQ9EVRTFC527Z18RDK8KW6P4R","","1034","img/land3.png","75","1036.2999999523163","2","1","3","1","0.8,0.2,0.2,0.2,0.8,0.2,0.2,0.2,0.8","0.8,0.2,0.2,0.2,0.8,0.2,0.2,0.2,0.8","1","",""
"","html-keyboard-response","105","107017","0.0-105.0","3P4RDNWND6STNSZDOD3UD143OWFIJ0","A2925DTZ2BLK51","3MXX6RQ9EVRTFC527Z18RDK8KW6P4R","","null","<img src=""img/land3.png"" style=""width:200px; border:14px solid green;"">","null","","","","","","","","","",""
"","image-keyboard-response","106","107934","0.0-106.0","3P4RDNWND6STNSZDOD3UD143OWFIJ0","A2925DTZ2BLK51","3MXX6RQ9EVRTFC527Z18RDK8KW6P4R","","913.6000001430511","img/land4.png","75","915.8999998569489","2","1","2","1","0.8,0.2,0.2,0.2,0.8,0.2,0.2,0.2,0.8","0.8,0.2,0.2,0.2,0.8,0.2,0.2,0.2,0.8","1","",""
"","html-keyboard-response","107","108237","0.0-107.0","3P4RDNWND6STNSZDOD3UD143OWFIJ0","A2925DTZ2BLK51","3MXX6RQ9EVRTFC527Z18RDK8KW6P4R","","null","<img src=""img/land4.png"" style=""width:200px; border:14px solid green;"">","null","","","","","","","","","",""
"","image-keyboard-response","108","108925","0.0-108.0","3P4RDNWND6STNSZDOD3UD143OWFIJ0","A2925DTZ2BLK51","3MXX6RQ9EVRTFC527Z18RDK8KW6P4R","","685.4000000953674","img/land4.png","75","687.3999998569489","2","1","2","1","0.8,0.2,0.2,0.2,0.8,0.2,0.2,0.2,0.8","0.8,0.2,0.2,0.2,0.8,0.2,0.2,0.2,0.8","1","",""
"","html-keyboard-response","109","109237","0.0-109.0","3P4RDNWND6STNSZDOD3UD143OWFIJ0","A2925DTZ2BLK51","3MXX6RQ9EVRTFC527Z18RDK8KW6P4R","","null","<img src=""img/land4.png"" style=""width:200px; border:14px solid green;"">","null","","","","","","","","","",""
"","image-keyboard-response","110","109824","0.0-110.0","3P4RDNWND6STNSZDOD3UD143OWFIJ0","A2925DTZ2BLK51","3MXX6RQ9EVRTFC527Z18RDK8KW6P4R","","583.7999999523163","img/land3.png","75","586","2","1","3","1","0.8,0.2,0.2,0.2,0.8,0.2,0.2,0.2,0.8","0.8,0.2,0.2,0.2,0.8,0.2,0.2,0.2,0.8","1","",""
"","html-keyboard-response","111","110129","0.0-111.0","3P4RDNWND6STNSZDOD3UD143OWFIJ0","A2925DTZ2BLK51","3MXX6RQ9EVRTFC527Z18RDK8KW6P4R","","null","<img src=""img/land3.png"" style=""width:200px; border:14px solid green;"">","null","","","","","","","","","",""
"","image-keyboard-response","112","110514","0.0-112.0","3P4RDNWND6STNSZDOD3UD143OWFIJ0","A2925DTZ2BLK51","3MXX6RQ9EVRTFC527Z18RDK8KW6P4R","","383.09999990463257","img/land3.png","75","385.2000000476837","2","0","3","1","0.8,0.2,0.2,0.2,0.8,0.2,0.2,0.2,0.8","0.8,0.2,0.2,0.2,0.8,0.2,0.2,0.2,0.8","1","",""
"","html-keyboard-response","113","110823","0.0-113.0","3P4RDNWND6STNSZDOD3UD143OWFIJ0","A2925DTZ2BLK51","3MXX6RQ9EVRTFC527Z18RDK8KW6P4R","","null","<img src=""img/land3.png"" style=""width:200px;border:14px solid red;"">","null","","","","","","","","","",""
"","image-keyboard-response","114","111646","0.0-114.0","3P4RDNWND6STNSZDOD3UD143OWFIJ0","A2925DTZ2BLK51","3MXX6RQ9EVRTFC527Z18RDK8KW6P4R","","820","img/land2.png","74","822.2000000476837","1","1","1","1","0.8,0.2,0.2,0.2,0.8,0.2,0.2,0.2,0.8","0.8,0.2,0.2,0.2,0.8,0.2,0.2,0.2,0.8","1","",""
"","html-keyboard-response","115","111972","0.0-115.0","3P4RDNWND6STNSZDOD3UD143OWFIJ0","A2925DTZ2BLK51","3MXX6RQ9EVRTFC527Z18RDK8KW6P4R","","null","<img src=""img/land2.png"" style=""width:200px; border:14px solid green;"">","null","","","","","","","","","",""
"","image-keyboard-response","116","112321","0.0-116.0","3P4RDNWND6STNSZDOD3UD143OWFIJ0","A2925DTZ2BLK51","3MXX6RQ9EVRTFC527Z18RDK8KW6P4R","","346.90000009536743","img/land2.png","74","349.2999999523163","1","0","1","1","0.8,0.2,0.2,0.2,0.8,0.2,0.2,0.2,0.8","0.8,0.2,0.2,0.2,0.8,0.2,0.2,0.2,0.8","1","",""
"","html-keyboard-response","117","112627","0.0-117.0","3P4RDNWND6STNSZDOD3UD143OWFIJ0","A2925DTZ2BLK51","3MXX6RQ9EVRTFC527Z18RDK8KW6P4R","","null","<img src=""img/land2.png"" style=""width:200px;border:14px solid red;"">","null","","","","","","","","","",""
"","image-keyboard-response","118","113441","0.0-118.0","3P4RDNWND6STNSZDOD3UD143OWFIJ0","A2925DTZ2BLK51","3MXX6RQ9EVRTFC527Z18RDK8KW6P4R","","811.2999999523163","img/land2.png","74","813.5999999046326","1","1","1","1","0.8,0.2,0.2,0.2,0.8,0.2,0.2,0.2,0.8","0.8,0.2,0.2,0.2,0.8,0.2,0.2,0.2,0.8","1","",""
"","html-keyboard-response","119","113750","0.0-119.0","3P4RDNWND6STNSZDOD3UD143OWFIJ0","A2925DTZ2BLK51","3MXX6RQ9EVRTFC527Z18RDK8KW6P4R","","null","<img src=""img/land2.png"" style=""width:200px; border:14px solid green;"">","null","","","","","","","","","",""
"","image-keyboard-response","120","114539","0.0-120.0","3P4RDNWND6STNSZDOD3UD143OWFIJ0","A2925DTZ2BLK51","3MXX6RQ9EVRTFC527Z18RDK8KW6P4R","","785.5","img/land4.png","76","787.8999998569489","3","1","2","1","0.8,0.2,0.2,0.2,0.8,0.2,0.2,0.2,0.8","0.8,0.2,0.2,0.2,0.8,0.2,0.2,0.2,0.8","1","",""
"","html-keyboard-response","121","114847","0.0-121.0","3P4RDNWND6STNSZDOD3UD143OWFIJ0","A2925DTZ2BLK51","3MXX6RQ9EVRTFC527Z18RDK8KW6P4R","","null","<img src=""img/land4.png"" style=""width:200px; border:14px solid green;"">","null","","","","","","","","","",""
"","image-keyboard-response","122","115457","0.0-122.0","3P4RDNWND6STNSZDOD3UD143OWFIJ0","A2925DTZ2BLK51","3MXX6RQ9EVRTFC527Z18RDK8KW6P4R","","607.2000000476837","img/land3.png","76","609.5","3","1","3","1","0.8,0.2,0.2,0.2,0.8,0.2,0.2,0.2,0.8","0.8,0.2,0.2,0.2,0.8,0.2,0.2,0.2,0.8","1","",""
"","html-keyboard-response","123","115770","0.0-123.0","3P4RDNWND6STNSZDOD3UD143OWFIJ0","A2925DTZ2BLK51","3MXX6RQ9EVRTFC527Z18RDK8KW6P4R","","null","<img src=""img/land3.png"" style=""width:200px; border:14px solid green;"">","null","","","","","","","","","",""
"","image-keyboard-response","124","117166","0.0-124.0","3P4RDNWND6STNSZDOD3UD143OWFIJ0","A2925DTZ2BLK51","3MXX6RQ9EVRTFC527Z18RDK8KW6P4R","","1392.7000000476837","img/land2.png","74","1395.0999999046326","1","1","1","1","0.8,0.2,0.2,0.2,0.8,0.2,0.2,0.2,0.8","0.8,0.2,0.2,0.2,0.8,0.2,0.2,0.2,0.8","1","",""
"","html-keyboard-response","125","117477","0.0-125.0","3P4RDNWND6STNSZDOD3UD143OWFIJ0","A2925DTZ2BLK51","3MXX6RQ9EVRTFC527Z18RDK8KW6P4R","","null","<img src=""img/land2.png"" style=""width:200px; border:14px solid green;"">","null","","","","","","","","","",""
"","image-keyboard-response","126","118243","0.0-126.0","3P4RDNWND6STNSZDOD3UD143OWFIJ0","A2925DTZ2BLK51","3MXX6RQ9EVRTFC527Z18RDK8KW6P4R","","763.2999999523163","img/land3.png","76","765.7000000476837","3","0","3","1","0.8,0.2,0.2,0.2,0.8,0.2,0.2,0.2,0.8","0.8,0.2,0.2,0.2,0.8,0.2,0.2,0.2,0.8","1","",""
"","html-keyboard-response","127","118548","0.0-127.0","3P4RDNWND6STNSZDOD3UD143OWFIJ0","A2925DTZ2BLK51","3MXX6RQ9EVRTFC527Z18RDK8KW6P4R","","null","<img src=""img/land3.png"" style=""width:200px;border:14px solid red;"">","null","","","","","","","","","",""
"","image-keyboard-response","128","119298","0.0-128.0","3P4RDNWND6STNSZDOD3UD143OWFIJ0","A2925DTZ2BLK51","3MXX6RQ9EVRTFC527Z18RDK8KW6P4R","","747.7999999523163","img/land3.png","75","750.1000001430511","2","1","3","1","0.8,0.2,0.2,0.2,0.8,0.2,0.2,0.2,0.8","0.8,0.2,0.2,0.2,0.8,0.2,0.2,0.2,0.8","1","",""
"","html-keyboard-response","129","119610","0.0-129.0","3P4RDNWND6STNSZDOD3UD143OWFIJ0","A2925DTZ2BLK51","3MXX6RQ9EVRTFC527Z18RDK8KW6P4R","","null","<img src=""img/land3.png"" style=""width:200px; border:14px solid green;"">","null","","","","","","","","","",""
"","image-keyboard-response","130","121543","0.0-130.0","3P4RDNWND6STNSZDOD3UD143OWFIJ0","A2925DTZ2BLK51","3MXX6RQ9EVRTFC527Z18RDK8KW6P4R","","1930.2000000476837","img/land4.png","76","1932.5999999046326","3","0","2","1","0.8,0.2,0.2,0.2,0.8,0.2,0.2,0.2,0.8","0.8,0.2,0.2,0.2,0.8,0.2,0.2,0.2,0.8","1","",""
"","html-keyboard-response","131","121863","0.0-131.0","3P4RDNWND6STNSZDOD3UD143OWFIJ0","A2925DTZ2BLK51","3MXX6RQ9EVRTFC527Z18RDK8KW6P4R","","null","<img src=""img/land4.png"" style=""width:200px;border:14px solid red;"">","null","","","","","","","","","",""
"","image-keyboard-response","132","122461","0.0-132.0","3P4RDNWND6STNSZDOD3UD143OWFIJ0","A2925DTZ2BLK51","3MXX6RQ9EVRTFC527Z18RDK8KW6P4R","","595.2000000476837","img/land2.png","74","597.3999998569489","1","1","1","1","0.8,0.2,0.2,0.2,0.8,0.2,0.2,0.2,0.8","0.8,0.2,0.2,0.2,0.8,0.2,0.2,0.2,0.8","1","",""
"","html-keyboard-response","133","122768","0.0-133.0","3P4RDNWND6STNSZDOD3UD143OWFIJ0","A2925DTZ2BLK51","3MXX6RQ9EVRTFC527Z18RDK8KW6P4R","","null","<img src=""img/land2.png"" style=""width:200px; border:14px solid green;"">","null","","","","","","","","","",""
"","image-keyboard-response","134","123821","0.0-134.0","3P4RDNWND6STNSZDOD3UD143OWFIJ0","A2925DTZ2BLK51","3MXX6RQ9EVRTFC527Z18RDK8KW6P4R","","1048.2000000476837","img/land4.png","76","1050.5","3","0","2","1","0.8,0.2,0.2,0.2,0.8,0.2,0.2,0.2,0.8","0.8,0.2,0.2,0.2,0.8,0.2,0.2,0.2,0.8","1","",""
"","html-keyboard-response","135","124129","0.0-135.0","3P4RDNWND6STNSZDOD3UD143OWFIJ0","A2925DTZ2BLK51","3MXX6RQ9EVRTFC527Z18RDK8KW6P4R","","null","<img src=""img/land4.png"" style=""width:200px;border:14px solid red;"">","null","","","","","","","","","",""
"","image-keyboard-response","136","125206","0.0-136.0","3P4RDNWND6STNSZDOD3UD143OWFIJ0","A2925DTZ2BLK51","3MXX6RQ9EVRTFC527Z18RDK8KW6P4R","","1074.7999999523163","img/land4.png","74","1077.2000000476837","1","0","2","1","0.8,0.2,0.2,0.2,0.8,0.2,0.2,0.2,0.8","0.8,0.2,0.2,0.2,0.8,0.2,0.2,0.2,0.8","1","",""
"","html-keyboard-response","137","125513","0.0-137.0","3P4RDNWND6STNSZDOD3UD143OWFIJ0","A2925DTZ2BLK51","3MXX6RQ9EVRTFC527Z18RDK8KW6P4R","","null","<img src=""img/land4.png"" style=""width:200px;border:14px solid red;"">","null","","","","","","","","","",""
"","image-keyboard-response","138","125936","0.0-138.0","3P4RDNWND6STNSZDOD3UD143OWFIJ0","A2925DTZ2BLK51","3MXX6RQ9EVRTFC527Z18RDK8KW6P4R","","419.7000000476837","img/land4.png","75","422.10000014305115","2","1","2","1","0.8,0.2,0.2,0.2,0.8,0.2,0.2,0.2,0.8","0.8,0.2,0.2,0.2,0.8,0.2,0.2,0.2,0.8","1","",""
"","html-keyboard-response","139","126248","0.0-139.0","3P4RDNWND6STNSZDOD3UD143OWFIJ0","A2925DTZ2BLK51","3MXX6RQ9EVRTFC527Z18RDK8KW6P4R","","null","<img src=""img/land4.png"" style=""width:200px; border:14px solid green;"">","null","","","","","","","","","",""
"","image-keyboard-response","140","127546","0.0-140.0","3P4RDNWND6STNSZDOD3UD143OWFIJ0","A2925DTZ2BLK51","3MXX6RQ9EVRTFC527Z18RDK8KW6P4R","","1295.2999999523163","img/land2.png","74","1297.7000000476837","1","1","1","1","0.8,0.2,0.2,0.2,0.8,0.2,0.2,0.2,0.8","0.8,0.2,0.2,0.2,0.8,0.2,0.2,0.2,0.8","1","",""
"","html-keyboard-response","141","127861","0.0-141.0","3P4RDNWND6STNSZDOD3UD143OWFIJ0","A2925DTZ2BLK51","3MXX6RQ9EVRTFC527Z18RDK8KW6P4R","","null","<img src=""img/land2.png"" style=""width:200px; border:14px solid green;"">","null","","","","","","","","","",""
"","image-keyboard-response","142","129681","0.0-142.0","3P4RDNWND6STNSZDOD3UD143OWFIJ0","A2925DTZ2BLK51","3MXX6RQ9EVRTFC527Z18RDK8KW6P4R","","1817.5","img/land3.png","75","1819.5999999046326","2","0","3","1","0.8,0.2,0.2,0.2,0.8,0.2,0.2,0.2,0.8","0.8,0.2,0.2,0.2,0.8,0.2,0.2,0.2,0.8","1","",""
"","html-keyboard-response","143","129994","0.0-143.0","3P4RDNWND6STNSZDOD3UD143OWFIJ0","A2925DTZ2BLK51","3MXX6RQ9EVRTFC527Z18RDK8KW6P4R","","null","<img src=""img/land3.png"" style=""width:200px;border:14px solid red;"">","null","","","","","","","","","",""
"","image-keyboard-response","144","131388","0.0-144.0","3P4RDNWND6STNSZDOD3UD143OWFIJ0","A2925DTZ2BLK51","3MXX6RQ9EVRTFC527Z18RDK8KW6P4R","","1391.2000000476837","img/land4.png","74","1393.6000001430511","1","1","2","1","0.8,0.2,0.2,0.2,0.8,0.2,0.2,0.2,0.8","0.8,0.2,0.2,0.2,0.8,0.2,0.2,0.2,0.8","1","",""
"","html-keyboard-response","145","131699","0.0-145.0","3P4RDNWND6STNSZDOD3UD143OWFIJ0","A2925DTZ2BLK51","3MXX6RQ9EVRTFC527Z18RDK8KW6P4R","","null","<img src=""img/land4.png"" style=""width:200px; border:14px solid green;"">","null","","","","","","","","","",""
"","image-keyboard-response","146","132356","0.0-146.0","3P4RDNWND6STNSZDOD3UD143OWFIJ0","A2925DTZ2BLK51","3MXX6RQ9EVRTFC527Z18RDK8KW6P4R","","654.8000001907349","img/land2.png","74","657.0999999046326","1","1","1","1","0.8,0.2,0.2,0.2,0.8,0.2,0.2,0.2,0.8","0.8,0.2,0.2,0.2,0.8,0.2,0.2,0.2,0.8","1","",""
"","html-keyboard-response","147","132675","0.0-147.0","3P4RDNWND6STNSZDOD3UD143OWFIJ0","A2925DTZ2BLK51","3MXX6RQ9EVRTFC527Z18RDK8KW6P4R","","null","<img src=""img/land2.png"" style=""width:200px; border:14px solid green;"">","null","","","","","","","","","",""
"","image-keyboard-response","148","133137","0.0-148.0","3P4RDNWND6STNSZDOD3UD143OWFIJ0","A2925DTZ2BLK51","3MXX6RQ9EVRTFC527Z18RDK8KW6P4R","","459","img/land2.png","74","461.40000009536743","1","0","1","1","0.8,0.2,0.2,0.2,0.8,0.2,0.2,0.2,0.8","0.8,0.2,0.2,0.2,0.8,0.2,0.2,0.2,0.8","1","",""
"","html-keyboard-response","149","133454","0.0-149.0","3P4RDNWND6STNSZDOD3UD143OWFIJ0","A2925DTZ2BLK51","3MXX6RQ9EVRTFC527Z18RDK8KW6P4R","","null","<img src=""img/land2.png"" style=""width:200px;border:14px solid red;"">","null","","","","","","","","","",""
"","image-keyboard-response","150","134819","0.0-150.0","3P4RDNWND6STNSZDOD3UD143OWFIJ0","A2925DTZ2BLK51","3MXX6RQ9EVRTFC527Z18RDK8KW6P4R","","1362.7999999523163","img/land3.png","76","1365","3","1","3","1","0.8,0.2,0.2,0.2,0.8,0.2,0.2,0.2,0.8","0.8,0.2,0.2,0.2,0.8,0.2,0.2,0.2,0.8","1","",""
"","html-keyboard-response","151","135128","0.0-151.0","3P4RDNWND6STNSZDOD3UD143OWFIJ0","A2925DTZ2BLK51","3MXX6RQ9EVRTFC527Z18RDK8KW6P4R","","null","<img src=""img/land3.png"" style=""width:200px; border:14px solid green;"">","null","","","","","","","","","",""
"","image-keyboard-response","152","135850","0.0-152.0","3P4RDNWND6STNSZDOD3UD143OWFIJ0","A2925DTZ2BLK51","3MXX6RQ9EVRTFC527Z18RDK8KW6P4R","","719.7999999523163","img/land2.png","74","722","1","1","1","1","0.8,0.2,0.2,0.2,0.8,0.2,0.2,0.2,0.8","0.8,0.2,0.2,0.2,0.8,0.2,0.2,0.2,0.8","1","",""
"","html-keyboard-response","153","136165","0.0-153.0","3P4RDNWND6STNSZDOD3UD143OWFIJ0","A2925DTZ2BLK51","3MXX6RQ9EVRTFC527Z18RDK8KW6P4R","","null","<img src=""img/land2.png"" style=""width:200px; border:14px solid green;"">","null","","","","","","","","","",""
"","image-keyboard-response","154","137516","0.0-154.0","3P4RDNWND6STNSZDOD3UD143OWFIJ0","A2925DTZ2BLK51","3MXX6RQ9EVRTFC527Z18RDK8KW6P4R","","1348.3000001907349","img/land4.png","76","1350.7000000476837","3","0","2","1","0.8,0.2,0.2,0.2,0.8,0.2,0.2,0.2,0.8","0.8,0.2,0.2,0.2,0.8,0.2,0.2,0.2,0.8","1","",""
"","html-keyboard-response","155","137834","0.0-155.0","3P4RDNWND6STNSZDOD3UD143OWFIJ0","A2925DTZ2BLK51","3MXX6RQ9EVRTFC527Z18RDK8KW6P4R","","null","<img src=""img/land4.png"" style=""width:200px;border:14px solid red;"">","null","","","","","","","","","",""
"","image-keyboard-response","156","138409","0.0-156.0","3P4RDNWND6STNSZDOD3UD143OWFIJ0","A2925DTZ2BLK51","3MXX6RQ9EVRTFC527Z18RDK8KW6P4R","","572.2999999523163","img/land2.png","74","574.6000001430511","1","1","1","1","0.8,0.2,0.2,0.2,0.8,0.2,0.2,0.2,0.8","0.8,0.2,0.2,0.2,0.8,0.2,0.2,0.2,0.8","1","",""
"","html-keyboard-response","157","138718","0.0-157.0","3P4RDNWND6STNSZDOD3UD143OWFIJ0","A2925DTZ2BLK51","3MXX6RQ9EVRTFC527Z18RDK8KW6P4R","","null","<img src=""img/land2.png"" style=""width:200px; border:14px solid green;"">","null","","","","","","","","","",""
"","image-keyboard-response","158","139133","0.0-158.0","3P4RDNWND6STNSZDOD3UD143OWFIJ0","A2925DTZ2BLK51","3MXX6RQ9EVRTFC527Z18RDK8KW6P4R","","412.2999999523163","img/land2.png","74","414.2999999523163","1","1","1","1","0.8,0.2,0.2,0.2,0.8,0.2,0.2,0.2,0.8","0.8,0.2,0.2,0.2,0.8,0.2,0.2,0.2,0.8","1","",""
"","html-keyboard-response","159","139444","0.0-159.0","3P4RDNWND6STNSZDOD3UD143OWFIJ0","A2925DTZ2BLK51","3MXX6RQ9EVRTFC527Z18RDK8KW6P4R","","null","<img src=""img/land2.png"" style=""width:200px; border:14px solid green;"">","null","","","","","","","","","",""
"","image-keyboard-response","160","140180","0.0-160.0","3P4RDNWND6STNSZDOD3UD143OWFIJ0","A2925DTZ2BLK51","3MXX6RQ9EVRTFC527Z18RDK8KW6P4R","","733.6000001430511","img/land3.png","75","735.7999999523163","2","0","3","1","0.8,0.2,0.2,0.2,0.8,0.2,0.2,0.2,0.8","0.8,0.2,0.2,0.2,0.8,0.2,0.2,0.2,0.8","1","",""
"","html-keyboard-response","161","140501","0.0-161.0","3P4RDNWND6STNSZDOD3UD143OWFIJ0","A2925DTZ2BLK51","3MXX6RQ9EVRTFC527Z18RDK8KW6P4R","","null","<img src=""img/land3.png"" style=""width:200px;border:14px solid red;"">","null","","","","","","","","","",""
"","image-keyboard-response","162","141050","0.0-162.0","3P4RDNWND6STNSZDOD3UD143OWFIJ0","A2925DTZ2BLK51","3MXX6RQ9EVRTFC527Z18RDK8KW6P4R","","546.2999999523163","img/land2.png","74","548.8000001907349","1","1","1","1","0.8,0.2,0.2,0.2,0.8,0.2,0.2,0.2,0.8","0.8,0.2,0.2,0.2,0.8,0.2,0.2,0.2,0.8","1","",""
"","html-keyboard-response","163","141359","0.0-163.0","3P4RDNWND6STNSZDOD3UD143OWFIJ0","A2925DTZ2BLK51","3MXX6RQ9EVRTFC527Z18RDK8KW6P4R","","null","<img src=""img/land2.png"" style=""width:200px; border:14px solid green;"">","null","","","","","","","","","",""
"","image-keyboard-response","164","141723","0.0-164.0","3P4RDNWND6STNSZDOD3UD143OWFIJ0","A2925DTZ2BLK51","3MXX6RQ9EVRTFC527Z18RDK8KW6P4R","","360.90000009536743","img/land2.png","74","363.2999999523163","1","1","1","1","0.8,0.2,0.2,0.2,0.8,0.2,0.2,0.2,0.8","0.8,0.2,0.2,0.2,0.8,0.2,0.2,0.2,0.8","1","",""
"","html-keyboard-response","165","142027","0.0-165.0","3P4RDNWND6STNSZDOD3UD143OWFIJ0","A2925DTZ2BLK51","3MXX6RQ9EVRTFC527Z18RDK8KW6P4R","","null","<img src=""img/land2.png"" style=""width:200px; border:14px solid green;"">","null","","","","","","","","","",""
"","image-keyboard-response","166","142530","0.0-166.0","3P4RDNWND6STNSZDOD3UD143OWFIJ0","A2925DTZ2BLK51","3MXX6RQ9EVRTFC527Z18RDK8KW6P4R","","500.2999999523163","img/land4.png","74","502.59999990463257","1","0","2","1","0.8,0.2,0.2,0.2,0.8,0.2,0.2,0.2,0.8","0.8,0.2,0.2,0.2,0.8,0.2,0.2,0.2,0.8","1","",""
"","html-keyboard-response","167","142843","0.0-167.0","3P4RDNWND6STNSZDOD3UD143OWFIJ0","A2925DTZ2BLK51","3MXX6RQ9EVRTFC527Z18RDK8KW6P4R","","null","<img src=""img/land4.png"" style=""width:200px;border:14px solid red;"">","null","","","","","","","","","",""
"","image-keyboard-response","168","143859","0.0-168.0","3P4RDNWND6STNSZDOD3UD143OWFIJ0","A2925DTZ2BLK51","3MXX6RQ9EVRTFC527Z18RDK8KW6P4R","","1013.4000000953674","img/land3.png","74","1015.7999999523163","1","0","3","1","0.8,0.2,0.2,0.2,0.8,0.2,0.2,0.2,0.8","0.8,0.2,0.2,0.2,0.8,0.2,0.2,0.2,0.8","1","",""
"","html-keyboard-response","169","144164","0.0-169.0","3P4RDNWND6STNSZDOD3UD143OWFIJ0","A2925DTZ2BLK51","3MXX6RQ9EVRTFC527Z18RDK8KW6P4R","","null","<img src=""img/land3.png"" style=""width:200px;border:14px solid red;"">","null","","","","","","","","","",""
"","image-keyboard-response","170","144727","0.0-170.0","3P4RDNWND6STNSZDOD3UD143OWFIJ0","A2925DTZ2BLK51","3MXX6RQ9EVRTFC527Z18RDK8KW6P4R","","559.7999999523163","img/land2.png","74","562.1000001430511","1","1","1","1","0.8,0.2,0.2,0.2,0.8,0.2,0.2,0.2,0.8","0.8,0.2,0.2,0.2,0.8,0.2,0.2,0.2,0.8","1","",""
"","html-keyboard-response","171","145044","0.0-171.0","3P4RDNWND6STNSZDOD3UD143OWFIJ0","A2925DTZ2BLK51","3MXX6RQ9EVRTFC527Z18RDK8KW6P4R","","null","<img src=""img/land2.png"" style=""width:200px; border:14px solid green;"">","null","","","","","","","","","",""
"","image-keyboard-response","172","146528","0.0-172.0","3P4RDNWND6STNSZDOD3UD143OWFIJ0","A2925DTZ2BLK51","3MXX6RQ9EVRTFC527Z18RDK8KW6P4R","","1481.8999998569489","img/land3.png","76","1484.2000000476837","3","0","3","1","0.8,0.2,0.2,0.2,0.8,0.2,0.2,0.2,0.8","0.8,0.2,0.2,0.2,0.8,0.2,0.2,0.2,0.8","1","",""
"","html-keyboard-response","173","146832","0.0-173.0","3P4RDNWND6STNSZDOD3UD143OWFIJ0","A2925DTZ2BLK51","3MXX6RQ9EVRTFC527Z18RDK8KW6P4R","","null","<img src=""img/land3.png"" style=""width:200px;border:14px solid red;"">","null","","","","","","","","","",""
"","image-keyboard-response","174","147417","0.0-174.0","3P4RDNWND6STNSZDOD3UD143OWFIJ0","A2925DTZ2BLK51","3MXX6RQ9EVRTFC527Z18RDK8KW6P4R","","581.7000000476837","img/land3.png","75","584","2","0","3","1","0.8,0.2,0.2,0.2,0.8,0.2,0.2,0.2,0.8","0.8,0.2,0.2,0.2,0.8,0.2,0.2,0.2,0.8","1","",""
"","html-keyboard-response","175","147729","0.0-175.0","3P4RDNWND6STNSZDOD3UD143OWFIJ0","A2925DTZ2BLK51","3MXX6RQ9EVRTFC527Z18RDK8KW6P4R","","null","<img src=""img/land3.png"" style=""width:200px;border:14px solid red;"">","null","","","","","","","","","",""
"","image-keyboard-response","176","148022","0.0-176.0","3P4RDNWND6STNSZDOD3UD143OWFIJ0","A2925DTZ2BLK51","3MXX6RQ9EVRTFC527Z18RDK8KW6P4R","","289.59999990463257","img/land3.png","74","292.2000000476837","1","1","3","1","0.8,0.2,0.2,0.2,0.8,0.2,0.2,0.2,0.8","0.8,0.2,0.2,0.2,0.8,0.2,0.2,0.2,0.8","1","",""
"","html-keyboard-response","177","148340","0.0-177.0","3P4RDNWND6STNSZDOD3UD143OWFIJ0","A2925DTZ2BLK51","3MXX6RQ9EVRTFC527Z18RDK8KW6P4R","","null","<img src=""img/land3.png"" style=""width:200px; border:14px solid green;"">","null","","","","","","","","","",""
"","image-keyboard-response","178","148878","0.0-178.0","3P4RDNWND6STNSZDOD3UD143OWFIJ0","A2925DTZ2BLK51","3MXX6RQ9EVRTFC527Z18RDK8KW6P4R","","535.0999999046326","img/land3.png","74","537.4000000953674","1","1","3","1","0.8,0.2,0.2,0.2,0.8,0.2,0.2,0.2,0.8","0.8,0.2,0.2,0.2,0.8,0.2,0.2,0.2,0.8","1","",""
"","html-keyboard-response","179","149189","0.0-179.0","3P4RDNWND6STNSZDOD3UD143OWFIJ0","A2925DTZ2BLK51","3MXX6RQ9EVRTFC527Z18RDK8KW6P4R","","null","<img src=""img/land3.png"" style=""width:200px; border:14px solid green;"">","null","","","","","","","","","",""
"","image-keyboard-response","180","149784","0.0-180.0","3P4RDNWND6STNSZDOD3UD143OWFIJ0","A2925DTZ2BLK51","3MXX6RQ9EVRTFC527Z18RDK8KW6P4R","","592","img/land2.png","74","594.2000000476837","1","1","1","1","0.8,0.2,0.2,0.2,0.8,0.2,0.2,0.2,0.8","0.8,0.2,0.2,0.2,0.8,0.2,0.2,0.2,0.8","1","",""
"","html-keyboard-response","181","150093","0.0-181.0","3P4RDNWND6STNSZDOD3UD143OWFIJ0","A2925DTZ2BLK51","3MXX6RQ9EVRTFC527Z18RDK8KW6P4R","","null","<img src=""img/land2.png"" style=""width:200px; border:14px solid green;"">","null","","","","","","","","","",""
"","html-keyboard-response","182","152853","0.0-182.0","3P4RDNWND6STNSZDOD3UD143OWFIJ0","A2925DTZ2BLK51","3MXX6RQ9EVRTFC527Z18RDK8KW6P4R","","","","","","","","","","","","","",""
"","image-keyboard-response","183","154599","0.0-183.0","3P4RDNWND6STNSZDOD3UD143OWFIJ0","A2925DTZ2BLK51","3MXX6RQ9EVRTFC527Z18RDK8KW6P4R","","1742.7999999523163","img/land5.png","75","1746.1000001430511","2","0","2","2","0.8,0.2,0.2,0.2,0.8,0.2,0.2,0.2,0.8","0.2,0.2,0.8,0.8,0.2,0.2,0.2,0.8,0.2","2","",""
"","html-keyboard-response","184","154911","0.0-184.0","3P4RDNWND6STNSZDOD3UD143OWFIJ0","A2925DTZ2BLK51","3MXX6RQ9EVRTFC527Z18RDK8KW6P4R","","null","<img src=""img/land5.png"" style=""width:200px;border:14px solid red;"">","null","","","","","","","","","",""
"","image-keyboard-response","185","155835","0.0-185.0","3P4RDNWND6STNSZDOD3UD143OWFIJ0","A2925DTZ2BLK51","3MXX6RQ9EVRTFC527Z18RDK8KW6P4R","","920.8999998569489","img/land1.png","76","923.7999999523163","3","1","1","2","0.8,0.2,0.2,0.2,0.8,0.2,0.2,0.2,0.8","0.2,0.2,0.8,0.8,0.2,0.2,0.2,0.8,0.2","2","",""
"","html-keyboard-response","186","156154","0.0-186.0","3P4RDNWND6STNSZDOD3UD143OWFIJ0","A2925DTZ2BLK51","3MXX6RQ9EVRTFC527Z18RDK8KW6P4R","","null","<img src=""img/land1.png"" style=""width:200px; border:14px solid green;"">","null","","","","","","","","","",""
"","image-keyboard-response","187","156675","0.0-187.0","3P4RDNWND6STNSZDOD3UD143OWFIJ0","A2925DTZ2BLK51","3MXX6RQ9EVRTFC527Z18RDK8KW6P4R","","518.1999998092651","img/land1.png","76","520.5999999046326","3","0","1","2","0.8,0.2,0.2,0.2,0.8,0.2,0.2,0.2,0.8","0.2,0.2,0.8,0.8,0.2,0.2,0.2,0.8,0.2","2","",""
"","html-keyboard-response","188","156980","0.0-188.0","3P4RDNWND6STNSZDOD3UD143OWFIJ0","A2925DTZ2BLK51","3MXX6RQ9EVRTFC527Z18RDK8KW6P4R","","null","<img src=""img/land1.png"" style=""width:200px;border:14px solid red;"">","null","","","","","","","","","",""
"","image-keyboard-response","189","157596","0.0-189.0","3P4RDNWND6STNSZDOD3UD143OWFIJ0","A2925DTZ2BLK51","3MXX6RQ9EVRTFC527Z18RDK8KW6P4R","","613.2999999523163","img/land1.png","76","615.8999998569489","3","1","1","2","0.8,0.2,0.2,0.2,0.8,0.2,0.2,0.2,0.8","0.2,0.2,0.8,0.8,0.2,0.2,0.2,0.8,0.2","2","",""
"","html-keyboard-response","190","157915","0.0-190.0","3P4RDNWND6STNSZDOD3UD143OWFIJ0","A2925DTZ2BLK51","3MXX6RQ9EVRTFC527Z18RDK8KW6P4R","","null","<img src=""img/land1.png"" style=""width:200px; border:14px solid green;"">","null","","","","","","","","","",""
"","image-keyboard-response","191","158424","0.0-191.0","3P4RDNWND6STNSZDOD3UD143OWFIJ0","A2925DTZ2BLK51","3MXX6RQ9EVRTFC527Z18RDK8KW6P4R","","504.7999999523163","img/land1.png","76","507.90000009536743","3","1","1","2","0.8,0.2,0.2,0.2,0.8,0.2,0.2,0.2,0.8","0.2,0.2,0.8,0.8,0.2,0.2,0.2,0.8,0.2","2","",""
"","html-keyboard-response","192","158730","0.0-192.0","3P4RDNWND6STNSZDOD3UD143OWFIJ0","A2925DTZ2BLK51","3MXX6RQ9EVRTFC527Z18RDK8KW6P4R","","null","<img src=""img/land1.png"" style=""width:200px; border:14px solid green;"">","null","","","","","","","","","",""
"","image-keyboard-response","193","159293","0.0-193.0","3P4RDNWND6STNSZDOD3UD143OWFIJ0","A2925DTZ2BLK51","3MXX6RQ9EVRTFC527Z18RDK8KW6P4R","","559.9000000953674","img/land1.png","76","562.5","3","1","1","2","0.8,0.2,0.2,0.2,0.8,0.2,0.2,0.2,0.8","0.2,0.2,0.8,0.8,0.2,0.2,0.2,0.8,0.2","2","",""
"","html-keyboard-response","194","159597","0.0-194.0","3P4RDNWND6STNSZDOD3UD143OWFIJ0","A2925DTZ2BLK51","3MXX6RQ9EVRTFC527Z18RDK8KW6P4R","","null","<img src=""img/land1.png"" style=""width:200px; border:14px solid green;"">","null","","","","","","","","","",""
"","image-keyboard-response","195","160086","0.0-195.0","3P4RDNWND6STNSZDOD3UD143OWFIJ0","A2925DTZ2BLK51","3MXX6RQ9EVRTFC527Z18RDK8KW6P4R","","486.2999999523163","img/land1.png","76","488.7000000476837","3","1","1","2","0.8,0.2,0.2,0.2,0.8,0.2,0.2,0.2,0.8","0.2,0.2,0.8,0.8,0.2,0.2,0.2,0.8,0.2","2","",""
"","html-keyboard-response","196","160395","0.0-196.0","3P4RDNWND6STNSZDOD3UD143OWFIJ0","A2925DTZ2BLK51","3MXX6RQ9EVRTFC527Z18RDK8KW6P4R","","null","<img src=""img/land1.png"" style=""width:200px; border:14px solid green;"">","null","","","","","","","","","",""
"","image-keyboard-response","197","161532","0.0-197.0","3P4RDNWND6STNSZDOD3UD143OWFIJ0","A2925DTZ2BLK51","3MXX6RQ9EVRTFC527Z18RDK8KW6P4R","","1134","img/land6.png","74","1136.4000000953674","1","0","3","2","0.8,0.2,0.2,0.2,0.8,0.2,0.2,0.2,0.8","0.2,0.2,0.8,0.8,0.2,0.2,0.2,0.8,0.2","2","",""
"","html-keyboard-response","198","161839","0.0-198.0","3P4RDNWND6STNSZDOD3UD143OWFIJ0","A2925DTZ2BLK51","3MXX6RQ9EVRTFC527Z18RDK8KW6P4R","","null","<img src=""img/land6.png"" style=""width:200px;border:14px solid red;"">","null","","","","","","","","","",""
"","image-keyboard-response","199","163849","0.0-199.0","3P4RDNWND6STNSZDOD3UD143OWFIJ0","A2925DTZ2BLK51","3MXX6RQ9EVRTFC527Z18RDK8KW6P4R","","","img/land1.png","","2010.1000001430511","-1","0","1","2","0.8,0.2,0.2,0.2,0.8,0.2,0.2,0.2,0.8","0.2,0.2,0.8,0.8,0.2,0.2,0.2,0.8,0.2","2","",""
"","html-keyboard-response","200","164159","0.0-200.0","3P4RDNWND6STNSZDOD3UD143OWFIJ0","A2925DTZ2BLK51","3MXX6RQ9EVRTFC527Z18RDK8KW6P4R","","null","<img src=""img/land1.png"" style=""width:200px;border:14px solid red;"">","null","","","","","","","","","",""
"","image-keyboard-response","201","164752","0.0-201.0","3P4RDNWND6STNSZDOD3UD143OWFIJ0","A2925DTZ2BLK51","3MXX6RQ9EVRTFC527Z18RDK8KW6P4R","","590.9000000953674","img/land1.png","74","593.3999998569489","1","0","1","2","0.8,0.2,0.2,0.2,0.8,0.2,0.2,0.2,0.8","0.2,0.2,0.8,0.8,0.2,0.2,0.2,0.8,0.2","2","",""
"","html-keyboard-response","202","165067","0.0-202.0","3P4RDNWND6STNSZDOD3UD143OWFIJ0","A2925DTZ2BLK51","3MXX6RQ9EVRTFC527Z18RDK8KW6P4R","","null","<img src=""img/land1.png"" style=""width:200px;border:14px solid red;"">","null","","","","","","","","","",""
"","image-keyboard-response","203","165379","0.0-203.0","3P4RDNWND6STNSZDOD3UD143OWFIJ0","A2925DTZ2BLK51","3MXX6RQ9EVRTFC527Z18RDK8KW6P4R","","308.7000000476837","img/land1.png","74","311.2999999523163","1","0","1","2","0.8,0.2,0.2,0.2,0.8,0.2,0.2,0.2,0.8","0.2,0.2,0.8,0.8,0.2,0.2,0.2,0.8,0.2","2","",""
"","html-keyboard-response","204","165687","0.0-204.0","3P4RDNWND6STNSZDOD3UD143OWFIJ0","A2925DTZ2BLK51","3MXX6RQ9EVRTFC527Z18RDK8KW6P4R","","null","<img src=""img/land1.png"" style=""width:200px;border:14px solid red;"">","null","","","","","","","","","",""
"","image-keyboard-response","205","166611","0.0-205.0","3P4RDNWND6STNSZDOD3UD143OWFIJ0","A2925DTZ2BLK51","3MXX6RQ9EVRTFC527Z18RDK8KW6P4R","","921.6000001430511","img/land1.png","76","924","3","1","1","2","0.8,0.2,0.2,0.2,0.8,0.2,0.2,0.2,0.8","0.2,0.2,0.8,0.8,0.2,0.2,0.2,0.8,0.2","2","",""
"","html-keyboard-response","206","166919","0.0-206.0","3P4RDNWND6STNSZDOD3UD143OWFIJ0","A2925DTZ2BLK51","3MXX6RQ9EVRTFC527Z18RDK8KW6P4R","","null","<img src=""img/land1.png"" style=""width:200px; border:14px solid green;"">","null","","","","","","","","","",""
"","image-keyboard-response","207","167404","0.0-207.0","3P4RDNWND6STNSZDOD3UD143OWFIJ0","A2925DTZ2BLK51","3MXX6RQ9EVRTFC527Z18RDK8KW6P4R","","482.2999999523163","img/land1.png","76","484.7000000476837","3","1","1","2","0.8,0.2,0.2,0.2,0.8,0.2,0.2,0.2,0.8","0.2,0.2,0.8,0.8,0.2,0.2,0.2,0.8,0.2","2","",""
"","html-keyboard-response","208","167707","0.0-208.0","3P4RDNWND6STNSZDOD3UD143OWFIJ0","A2925DTZ2BLK51","3MXX6RQ9EVRTFC527Z18RDK8KW6P4R","","null","<img src=""img/land1.png"" style=""width:200px; border:14px solid green;"">","null","","","","","","","","","",""
"","image-keyboard-response","209","168042","0.0-209.0","3P4RDNWND6STNSZDOD3UD143OWFIJ0","A2925DTZ2BLK51","3MXX6RQ9EVRTFC527Z18RDK8KW6P4R","","331.09999990463257","img/land1.png","76","333.59999990463257","3","1","1","2","0.8,0.2,0.2,0.2,0.8,0.2,0.2,0.2,0.8","0.2,0.2,0.8,0.8,0.2,0.2,0.2,0.8,0.2","2","",""
"","html-keyboard-response","210","168351","0.0-210.0","3P4RDNWND6STNSZDOD3UD143OWFIJ0","A2925DTZ2BLK51","3MXX6RQ9EVRTFC527Z18RDK8KW6P4R","","null","<img src=""img/land1.png"" style=""width:200px; border:14px solid green;"">","null","","","","","","","","","",""
"","image-keyboard-response","211","168720","0.0-211.0","3P4RDNWND6STNSZDOD3UD143OWFIJ0","A2925DTZ2BLK51","3MXX6RQ9EVRTFC527Z18RDK8KW6P4R","","365.69999980926514","img/land1.png","76","368.2999999523163","3","1","1","2","0.8,0.2,0.2,0.2,0.8,0.2,0.2,0.2,0.8","0.2,0.2,0.8,0.8,0.2,0.2,0.2,0.8,0.2","2","",""
"","html-keyboard-response","212","169030","0.0-212.0","3P4RDNWND6STNSZDOD3UD143OWFIJ0","A2925DTZ2BLK51","3MXX6RQ9EVRTFC527Z18RDK8KW6P4R","","null","<img src=""img/land1.png"" style=""width:200px; border:14px solid green;"">","null","","","","","","","","","",""
"","image-keyboard-response","213","169416","0.0-213.0","3P4RDNWND6STNSZDOD3UD143OWFIJ0","A2925DTZ2BLK51","3MXX6RQ9EVRTFC527Z18RDK8KW6P4R","","382.5","img/land1.png","76","385.10000014305115","3","0","1","2","0.8,0.2,0.2,0.2,0.8,0.2,0.2,0.2,0.8","0.2,0.2,0.8,0.8,0.2,0.2,0.2,0.8,0.2","2","",""
"","html-keyboard-response","214","169733","0.0-214.0","3P4RDNWND6STNSZDOD3UD143OWFIJ0","A2925DTZ2BLK51","3MXX6RQ9EVRTFC527Z18RDK8KW6P4R","","null","<img src=""img/land1.png"" style=""width:200px;border:14px solid red;"">","null","","","","","","","","","",""
"","image-keyboard-response","215","170264","0.0-215.0","3P4RDNWND6STNSZDOD3UD143OWFIJ0","A2925DTZ2BLK51","3MXX6RQ9EVRTFC527Z18RDK8KW6P4R","","528.1999998092651","img/land1.png","76","530.6000001430511","3","1","1","2","0.8,0.2,0.2,0.2,0.8,0.2,0.2,0.2,0.8","0.2,0.2,0.8,0.8,0.2,0.2,0.2,0.8,0.2","2","",""
"","html-keyboard-response","216","170569","0.0-216.0","3P4RDNWND6STNSZDOD3UD143OWFIJ0","A2925DTZ2BLK51","3MXX6RQ9EVRTFC527Z18RDK8KW6P4R","","null","<img src=""img/land1.png"" style=""width:200px; border:14px solid green;"">","null","","","","","","","","","",""
"","image-keyboard-response","217","171466","0.0-217.0","3P4RDNWND6STNSZDOD3UD143OWFIJ0","A2925DTZ2BLK51","3MXX6RQ9EVRTFC527Z18RDK8KW6P4R","","894","img/land5.png","75","899","2","0","2","2","0.8,0.2,0.2,0.2,0.8,0.2,0.2,0.2,0.8","0.2,0.2,0.8,0.8,0.2,0.2,0.2,0.8,0.2","2","",""
"","html-keyboard-response","218","171773","0.0-218.0","3P4RDNWND6STNSZDOD3UD143OWFIJ0","A2925DTZ2BLK51","3MXX6RQ9EVRTFC527Z18RDK8KW6P4R","","null","<img src=""img/land5.png"" style=""width:200px;border:14px solid red;"">","null","","","","","","","","","",""
"","image-keyboard-response","219","173009","0.0-219.0","3P4RDNWND6STNSZDOD3UD143OWFIJ0","A2925DTZ2BLK51","3MXX6RQ9EVRTFC527Z18RDK8KW6P4R","","1232.8999998569489","img/land6.png","76","1235.5999999046326","3","0","3","2","0.8,0.2,0.2,0.2,0.8,0.2,0.2,0.2,0.8","0.2,0.2,0.8,0.8,0.2,0.2,0.2,0.8,0.2","2","",""
"","html-keyboard-response","220","173323","0.0-220.0","3P4RDNWND6STNSZDOD3UD143OWFIJ0","A2925DTZ2BLK51","3MXX6RQ9EVRTFC527Z18RDK8KW6P4R","","null","<img src=""img/land6.png"" style=""width:200px;border:14px solid red;"">","null","","","","","","","","","",""
"","image-keyboard-response","221","174077","0.0-221.0","3P4RDNWND6STNSZDOD3UD143OWFIJ0","A2925DTZ2BLK51","3MXX6RQ9EVRTFC527Z18RDK8KW6P4R","","750.5999999046326","img/land1.png","76","753.2999999523163","3","1","1","2","0.8,0.2,0.2,0.2,0.8,0.2,0.2,0.2,0.8","0.2,0.2,0.8,0.8,0.2,0.2,0.2,0.8,0.2","2","",""
"","html-keyboard-response","222","174387","0.0-222.0","3P4RDNWND6STNSZDOD3UD143OWFIJ0","A2925DTZ2BLK51","3MXX6RQ9EVRTFC527Z18RDK8KW6P4R","","null","<img src=""img/land1.png"" style=""width:200px; border:14px solid green;"">","null","","","","","","","","","",""
"","image-keyboard-response","223","174713","0.0-223.0","3P4RDNWND6STNSZDOD3UD143OWFIJ0","A2925DTZ2BLK51","3MXX6RQ9EVRTFC527Z18RDK8KW6P4R","","323.2999999523163","img/land1.png","76","325.5","3","1","1","2","0.8,0.2,0.2,0.2,0.8,0.2,0.2,0.2,0.8","0.2,0.2,0.8,0.8,0.2,0.2,0.2,0.8,0.2","2","",""
"","html-keyboard-response","224","175025","0.0-224.0","3P4RDNWND6STNSZDOD3UD143OWFIJ0","A2925DTZ2BLK51","3MXX6RQ9EVRTFC527Z18RDK8KW6P4R","","null","<img src=""img/land1.png"" style=""width:200px; border:14px solid green;"">","null","","","","","","","","","",""
"","image-keyboard-response","225","176288","0.0-225.0","3P4RDNWND6STNSZDOD3UD143OWFIJ0","A2925DTZ2BLK51","3MXX6RQ9EVRTFC527Z18RDK8KW6P4R","","1260.7000000476837","img/land6.png","74","1263.2999999523163","1","0","3","2","0.8,0.2,0.2,0.2,0.8,0.2,0.2,0.2,0.8","0.2,0.2,0.8,0.8,0.2,0.2,0.2,0.8,0.2","2","",""
"","html-keyboard-response","226","176603","0.0-226.0","3P4RDNWND6STNSZDOD3UD143OWFIJ0","A2925DTZ2BLK51","3MXX6RQ9EVRTFC527Z18RDK8KW6P4R","","null","<img src=""img/land6.png"" style=""width:200px;border:14px solid red;"">","null","","","","","","","","","",""
"","image-keyboard-response","227","177240","0.0-227.0","3P4RDNWND6STNSZDOD3UD143OWFIJ0","A2925DTZ2BLK51","3MXX6RQ9EVRTFC527Z18RDK8KW6P4R","","634.6999998092651","img/land1.png","76","637","3","1","1","2","0.8,0.2,0.2,0.2,0.8,0.2,0.2,0.2,0.8","0.2,0.2,0.8,0.8,0.2,0.2,0.2,0.8,0.2","2","",""
"","html-keyboard-response","228","177548","0.0-228.0","3P4RDNWND6STNSZDOD3UD143OWFIJ0","A2925DTZ2BLK51","3MXX6RQ9EVRTFC527Z18RDK8KW6P4R","","null","<img src=""img/land1.png"" style=""width:200px; border:14px solid green;"">","null","","","","","","","","","",""
"","image-keyboard-response","229","177840","0.0-229.0","3P4RDNWND6STNSZDOD3UD143OWFIJ0","A2925DTZ2BLK51","3MXX6RQ9EVRTFC527Z18RDK8KW6P4R","","288.39999985694885","img/land1.png","76","291.10000014305115","3","1","1","2","0.8,0.2,0.2,0.2,0.8,0.2,0.2,0.2,0.8","0.2,0.2,0.8,0.8,0.2,0.2,0.2,0.8,0.2","2","",""
"","html-keyboard-response","230","178147","0.0-230.0","3P4RDNWND6STNSZDOD3UD143OWFIJ0","A2925DTZ2BLK51","3MXX6RQ9EVRTFC527Z18RDK8KW6P4R","","null","<img src=""img/land1.png"" style=""width:200px; border:14px solid green;"">","null","","","","","","","","","",""
"","image-keyboard-response","231","178817","0.0-231.0","3P4RDNWND6STNSZDOD3UD143OWFIJ0","A2925DTZ2BLK51","3MXX6RQ9EVRTFC527Z18RDK8KW6P4R","","666.5","img/land6.png","75","669.2000000476837","2","1","3","2","0.8,0.2,0.2,0.2,0.8,0.2,0.2,0.2,0.8","0.2,0.2,0.8,0.8,0.2,0.2,0.2,0.8,0.2","2","",""
"","html-keyboard-response","232","179121","0.0-232.0","3P4RDNWND6STNSZDOD3UD143OWFIJ0","A2925DTZ2BLK51","3MXX6RQ9EVRTFC527Z18RDK8KW6P4R","","null","<img src=""img/land6.png"" style=""width:200px; border:14px solid green;"">","null","","","","","","","","","",""
"","image-keyboard-response","233","179506","0.0-233.0","3P4RDNWND6STNSZDOD3UD143OWFIJ0","A2925DTZ2BLK51","3MXX6RQ9EVRTFC527Z18RDK8KW6P4R","","382.59999990463257","img/land6.png","75","385.2000000476837","2","1","3","2","0.8,0.2,0.2,0.2,0.8,0.2,0.2,0.2,0.8","0.2,0.2,0.8,0.8,0.2,0.2,0.2,0.8,0.2","2","",""
"","html-keyboard-response","234","179817","0.0-234.0","3P4RDNWND6STNSZDOD3UD143OWFIJ0","A2925DTZ2BLK51","3MXX6RQ9EVRTFC527Z18RDK8KW6P4R","","null","<img src=""img/land6.png"" style=""width:200px; border:14px solid green;"">","null","","","","","","","","","",""
"","image-keyboard-response","235","180583","0.0-235.0","3P4RDNWND6STNSZDOD3UD143OWFIJ0","A2925DTZ2BLK51","3MXX6RQ9EVRTFC527Z18RDK8KW6P4R","","762.4000000953674","img/land1.png","76","765","3","1","1","2","0.8,0.2,0.2,0.2,0.8,0.2,0.2,0.2,0.8","0.2,0.2,0.8,0.8,0.2,0.2,0.2,0.8,0.2","2","",""
"","html-keyboard-response","236","180890","0.0-236.0","3P4RDNWND6STNSZDOD3UD143OWFIJ0","A2925DTZ2BLK51","3MXX6RQ9EVRTFC527Z18RDK8KW6P4R","","null","<img src=""img/land1.png"" style=""width:200px; border:14px solid green;"">","null","","","","","","","","","",""
"","image-keyboard-response","237","181234","0.0-237.0","3P4RDNWND6STNSZDOD3UD143OWFIJ0","A2925DTZ2BLK51","3MXX6RQ9EVRTFC527Z18RDK8KW6P4R","","341","img/land1.png","76","343.5","3","1","1","2","0.8,0.2,0.2,0.2,0.8,0.2,0.2,0.2,0.8","0.2,0.2,0.8,0.8,0.2,0.2,0.2,0.8,0.2","2","",""
"","html-keyboard-response","238","181552","0.0-238.0","3P4RDNWND6STNSZDOD3UD143OWFIJ0","A2925DTZ2BLK51","3MXX6RQ9EVRTFC527Z18RDK8KW6P4R","","null","<img src=""img/land1.png"" style=""width:200px; border:14px solid green;"">","null","","","","","","","","","",""
"","image-keyboard-response","239","181944","0.0-239.0","3P4RDNWND6STNSZDOD3UD143OWFIJ0","A2925DTZ2BLK51","3MXX6RQ9EVRTFC527Z18RDK8KW6P4R","","388.59999990463257","img/land1.png","76","390.89999985694885","3","1","1","2","0.8,0.2,0.2,0.2,0.8,0.2,0.2,0.2,0.8","0.2,0.2,0.8,0.8,0.2,0.2,0.2,0.8,0.2","2","",""
"","html-keyboard-response","240","182254","0.0-240.0","3P4RDNWND6STNSZDOD3UD143OWFIJ0","A2925DTZ2BLK51","3MXX6RQ9EVRTFC527Z18RDK8KW6P4R","","null","<img src=""img/land1.png"" style=""width:200px; border:14px solid green;"">","null","","","","","","","","","",""
"","image-keyboard-response","241","182636","0.0-241.0","3P4RDNWND6STNSZDOD3UD143OWFIJ0","A2925DTZ2BLK51","3MXX6RQ9EVRTFC527Z18RDK8KW6P4R","","379.10000014305115","img/land1.png","76","381.59999990463257","3","1","1","2","0.8,0.2,0.2,0.2,0.8,0.2,0.2,0.2,0.8","0.2,0.2,0.8,0.8,0.2,0.2,0.2,0.8,0.2","2","",""
"","html-keyboard-response","242","182940","0.0-242.0","3P4RDNWND6STNSZDOD3UD143OWFIJ0","A2925DTZ2BLK51","3MXX6RQ9EVRTFC527Z18RDK8KW6P4R","","null","<img src=""img/land1.png"" style=""width:200px; border:14px solid green;"">","null","","","","","","","","","",""
"","image-keyboard-response","243","183265","0.0-243.0","3P4RDNWND6STNSZDOD3UD143OWFIJ0","A2925DTZ2BLK51","3MXX6RQ9EVRTFC527Z18RDK8KW6P4R","","322","img/land1.png","76","324.59999990463257","3","1","1","2","0.8,0.2,0.2,0.2,0.8,0.2,0.2,0.2,0.8","0.2,0.2,0.8,0.8,0.2,0.2,0.2,0.8,0.2","2","",""
"","html-keyboard-response","244","183570","0.0-244.0","3P4RDNWND6STNSZDOD3UD143OWFIJ0","A2925DTZ2BLK51","3MXX6RQ9EVRTFC527Z18RDK8KW6P4R","","null","<img src=""img/land1.png"" style=""width:200px; border:14px solid green;"">","null","","","","","","","","","",""
"","image-keyboard-response","245","183915","0.0-245.0","3P4RDNWND6STNSZDOD3UD143OWFIJ0","A2925DTZ2BLK51","3MXX6RQ9EVRTFC527Z18RDK8KW6P4R","","341.89999985694885","img/land1.png","76","344.39999985694885","3","1","1","2","0.8,0.2,0.2,0.2,0.8,0.2,0.2,0.2,0.8","0.2,0.2,0.8,0.8,0.2,0.2,0.2,0.8,0.2","2","",""
"","html-keyboard-response","246","184221","0.0-246.0","3P4RDNWND6STNSZDOD3UD143OWFIJ0","A2925DTZ2BLK51","3MXX6RQ9EVRTFC527Z18RDK8KW6P4R","","null","<img src=""img/land1.png"" style=""width:200px; border:14px solid green;"">","null","","","","","","","","","",""
"","image-keyboard-response","247","184948","0.0-247.0","3P4RDNWND6STNSZDOD3UD143OWFIJ0","A2925DTZ2BLK51","3MXX6RQ9EVRTFC527Z18RDK8KW6P4R","","725","img/land6.png","75","727.1000001430511","2","1","3","2","0.8,0.2,0.2,0.2,0.8,0.2,0.2,0.2,0.8","0.2,0.2,0.8,0.8,0.2,0.2,0.2,0.8,0.2","2","",""
"","html-keyboard-response","248","185259","0.0-248.0","3P4RDNWND6STNSZDOD3UD143OWFIJ0","A2925DTZ2BLK51","3MXX6RQ9EVRTFC527Z18RDK8KW6P4R","","null","<img src=""img/land6.png"" style=""width:200px; border:14px solid green;"">","null","","","","","","","","","",""
"","image-keyboard-response","249","185639","0.0-249.0","3P4RDNWND6STNSZDOD3UD143OWFIJ0","A2925DTZ2BLK51","3MXX6RQ9EVRTFC527Z18RDK8KW6P4R","","377.2000000476837","img/land6.png","75","379.7000000476837","2","1","3","2","0.8,0.2,0.2,0.2,0.8,0.2,0.2,0.2,0.8","0.2,0.2,0.8,0.8,0.2,0.2,0.2,0.8,0.2","2","",""
"","html-keyboard-response","250","185949","0.0-250.0","3P4RDNWND6STNSZDOD3UD143OWFIJ0","A2925DTZ2BLK51","3MXX6RQ9EVRTFC527Z18RDK8KW6P4R","","null","<img src=""img/land6.png"" style=""width:200px; border:14px solid green;"">","null","","","","","","","","","",""
"","image-keyboard-response","251","186687","0.0-251.0","3P4RDNWND6STNSZDOD3UD143OWFIJ0","A2925DTZ2BLK51","3MXX6RQ9EVRTFC527Z18RDK8KW6P4R","","735.4000000953674","img/land1.png","76","738","3","1","1","2","0.8,0.2,0.2,0.2,0.8,0.2,0.2,0.2,0.8","0.2,0.2,0.8,0.8,0.2,0.2,0.2,0.8,0.2","2","",""
"","html-keyboard-response","252","186999","0.0-252.0","3P4RDNWND6STNSZDOD3UD143OWFIJ0","A2925DTZ2BLK51","3MXX6RQ9EVRTFC527Z18RDK8KW6P4R","","null","<img src=""img/land1.png"" style=""width:200px; border:14px solid green;"">","null","","","","","","","","","",""
"","image-keyboard-response","253","187396","0.0-253.0","3P4RDNWND6STNSZDOD3UD143OWFIJ0","A2925DTZ2BLK51","3MXX6RQ9EVRTFC527Z18RDK8KW6P4R","","393.7999999523163","img/land1.png","76","396.39999985694885","3","1","1","2","0.8,0.2,0.2,0.2,0.8,0.2,0.2,0.2,0.8","0.2,0.2,0.8,0.8,0.2,0.2,0.2,0.8,0.2","2","",""
"","html-keyboard-response","254","187703","0.0-254.0","3P4RDNWND6STNSZDOD3UD143OWFIJ0","A2925DTZ2BLK51","3MXX6RQ9EVRTFC527Z18RDK8KW6P4R","","null","<img src=""img/land1.png"" style=""width:200px; border:14px solid green;"">","null","","","","","","","","","",""
"","image-keyboard-response","255","188081","0.0-255.0","3P4RDNWND6STNSZDOD3UD143OWFIJ0","A2925DTZ2BLK51","3MXX6RQ9EVRTFC527Z18RDK8KW6P4R","","374.7999999523163","img/land1.png","76","377.69999980926514","3","1","1","2","0.8,0.2,0.2,0.2,0.8,0.2,0.2,0.2,0.8","0.2,0.2,0.8,0.8,0.2,0.2,0.2,0.8,0.2","2","",""
"","html-keyboard-response","256","188400","0.0-256.0","3P4RDNWND6STNSZDOD3UD143OWFIJ0","A2925DTZ2BLK51","3MXX6RQ9EVRTFC527Z18RDK8KW6P4R","","null","<img src=""img/land1.png"" style=""width:200px; border:14px solid green;"">","null","","","","","","","","","",""
"","image-keyboard-response","257","188890","0.0-257.0","3P4RDNWND6STNSZDOD3UD143OWFIJ0","A2925DTZ2BLK51","3MXX6RQ9EVRTFC527Z18RDK8KW6P4R","","486.60000014305115","img/land6.png","75","489.7000000476837","2","1","3","2","0.8,0.2,0.2,0.2,0.8,0.2,0.2,0.2,0.8","0.2,0.2,0.8,0.8,0.2,0.2,0.2,0.8,0.2","2","",""
"","html-keyboard-response","258","189198","0.0-258.0","3P4RDNWND6STNSZDOD3UD143OWFIJ0","A2925DTZ2BLK51","3MXX6RQ9EVRTFC527Z18RDK8KW6P4R","","null","<img src=""img/land6.png"" style=""width:200px; border:14px solid green;"">","null","","","","","","","","","",""
"","image-keyboard-response","259","189806","0.0-259.0","3P4RDNWND6STNSZDOD3UD143OWFIJ0","A2925DTZ2BLK51","3MXX6RQ9EVRTFC527Z18RDK8KW6P4R","","604.9000000953674","img/land1.png","76","607.7000000476837","3","1","1","2","0.8,0.2,0.2,0.2,0.8,0.2,0.2,0.2,0.8","0.2,0.2,0.8,0.8,0.2,0.2,0.2,0.8,0.2","2","",""
"","html-keyboard-response","260","190111","0.0-260.0","3P4RDNWND6STNSZDOD3UD143OWFIJ0","A2925DTZ2BLK51","3MXX6RQ9EVRTFC527Z18RDK8KW6P4R","","null","<img src=""img/land1.png"" style=""width:200px; border:14px solid green;"">","null","","","","","","","","","",""
"","image-keyboard-response","261","191727","0.0-261.0","3P4RDNWND6STNSZDOD3UD143OWFIJ0","A2925DTZ2BLK51","3MXX6RQ9EVRTFC527Z18RDK8KW6P4R","","1612.6000001430511","img/land5.png","75","1615.3000001907349","2","0","2","2","0.8,0.2,0.2,0.2,0.8,0.2,0.2,0.2,0.8","0.2,0.2,0.8,0.8,0.2,0.2,0.2,0.8,0.2","2","",""
"","html-keyboard-response","262","192032","0.0-262.0","3P4RDNWND6STNSZDOD3UD143OWFIJ0","A2925DTZ2BLK51","3MXX6RQ9EVRTFC527Z18RDK8KW6P4R","","null","<img src=""img/land5.png"" style=""width:200px;border:14px solid red;"">","null","","","","","","","","","",""
"","image-keyboard-response","263","193462","0.0-263.0","3P4RDNWND6STNSZDOD3UD143OWFIJ0","A2925DTZ2BLK51","3MXX6RQ9EVRTFC527Z18RDK8KW6P4R","","1426.8999998569489","img/land6.png","75","1429.2999999523163","2","1","3","2","0.8,0.2,0.2,0.2,0.8,0.2,0.2,0.2,0.8","0.2,0.2,0.8,0.8,0.2,0.2,0.2,0.8,0.2","2","",""
"","html-keyboard-response","264","193771","0.0-264.0","3P4RDNWND6STNSZDOD3UD143OWFIJ0","A2925DTZ2BLK51","3MXX6RQ9EVRTFC527Z18RDK8KW6P4R","","null","<img src=""img/land6.png"" style=""width:200px; border:14px solid green;"">","null","","","","","","","","","",""
"","image-keyboard-response","265","194134","0.0-265.0","3P4RDNWND6STNSZDOD3UD143OWFIJ0","A2925DTZ2BLK51","3MXX6RQ9EVRTFC527Z18RDK8KW6P4R","","360.09999990463257","img/land6.png","75","362.7000000476837","2","0","3","2","0.8,0.2,0.2,0.2,0.8,0.2,0.2,0.2,0.8","0.2,0.2,0.8,0.8,0.2,0.2,0.2,0.8,0.2","2","",""
"","html-keyboard-response","266","194452","0.0-266.0","3P4RDNWND6STNSZDOD3UD143OWFIJ0","A2925DTZ2BLK51","3MXX6RQ9EVRTFC527Z18RDK8KW6P4R","","null","<img src=""img/land6.png"" style=""width:200px;border:14px solid red;"">","null","","","","","","","","","",""
"","image-keyboard-response","267","195206","0.0-267.0","3P4RDNWND6STNSZDOD3UD143OWFIJ0","A2925DTZ2BLK51","3MXX6RQ9EVRTFC527Z18RDK8KW6P4R","","751.4000000953674","img/land1.png","76","753.5999999046326","3","0","1","2","0.8,0.2,0.2,0.2,0.8,0.2,0.2,0.2,0.8","0.2,0.2,0.8,0.8,0.2,0.2,0.2,0.8,0.2","2","",""
"","html-keyboard-response","268","195517","0.0-268.0","3P4RDNWND6STNSZDOD3UD143OWFIJ0","A2925DTZ2BLK51","3MXX6RQ9EVRTFC527Z18RDK8KW6P4R","","null","<img src=""img/land1.png"" style=""width:200px;border:14px solid red;"">","null","","","","","","","","","",""
"","image-keyboard-response","269","196059","0.0-269.0","3P4RDNWND6STNSZDOD3UD143OWFIJ0","A2925DTZ2BLK51","3MXX6RQ9EVRTFC527Z18RDK8KW6P4R","","539","img/land1.png","76","541.5999999046326","3","0","1","2","0.8,0.2,0.2,0.2,0.8,0.2,0.2,0.2,0.8","0.2,0.2,0.8,0.8,0.2,0.2,0.2,0.8,0.2","2","",""
"","html-keyboard-response","270","196367","0.0-270.0","3P4RDNWND6STNSZDOD3UD143OWFIJ0","A2925DTZ2BLK51","3MXX6RQ9EVRTFC527Z18RDK8KW6P4R","","null","<img src=""img/land1.png"" style=""width:200px;border:14px solid red;"">","null","","","","","","","","","",""
"","image-keyboard-response","271","197108","0.0-271.0","3P4RDNWND6STNSZDOD3UD143OWFIJ0","A2925DTZ2BLK51","3MXX6RQ9EVRTFC527Z18RDK8KW6P4R","","738.7000000476837","img/land1.png","76","741.2999999523163","3","0","1","2","0.8,0.2,0.2,0.2,0.8,0.2,0.2,0.2,0.8","0.2,0.2,0.8,0.8,0.2,0.2,0.2,0.8,0.2","2","",""
"","html-keyboard-response","272","197415","0.0-272.0","3P4RDNWND6STNSZDOD3UD143OWFIJ0","A2925DTZ2BLK51","3MXX6RQ9EVRTFC527Z18RDK8KW6P4R","","null","<img src=""img/land1.png"" style=""width:200px;border:14px solid red;"">","null","","","","","","","","","",""
"","image-keyboard-response","273","197653","0.0-273.0","3P4RDNWND6STNSZDOD3UD143OWFIJ0","A2925DTZ2BLK51","3MXX6RQ9EVRTFC527Z18RDK8KW6P4R","","235","img/land6.png","75","237.5","2","1","3","2","0.8,0.2,0.2,0.2,0.8,0.2,0.2,0.2,0.8","0.2,0.2,0.8,0.8,0.2,0.2,0.2,0.8,0.2","2","",""
"","html-keyboard-response","274","197965","0.0-274.0","3P4RDNWND6STNSZDOD3UD143OWFIJ0","A2925DTZ2BLK51","3MXX6RQ9EVRTFC527Z18RDK8KW6P4R","","null","<img src=""img/land6.png"" style=""width:200px; border:14px solid green;"">","null","","","","","","","","","",""
"","image-keyboard-response","275","199006","0.0-275.0","3P4RDNWND6STNSZDOD3UD143OWFIJ0","A2925DTZ2BLK51","3MXX6RQ9EVRTFC527Z18RDK8KW6P4R","","1037.9000000953674","img/land5.png","74","1040.3999998569489","1","1","2","2","0.8,0.2,0.2,0.2,0.8,0.2,0.2,0.2,0.8","0.2,0.2,0.8,0.8,0.2,0.2,0.2,0.8,0.2","2","",""
"","html-keyboard-response","276","199316","0.0-276.0","3P4RDNWND6STNSZDOD3UD143OWFIJ0","A2925DTZ2BLK51","3MXX6RQ9EVRTFC527Z18RDK8KW6P4R","","null","<img src=""img/land5.png"" style=""width:200px; border:14px solid green;"">","null","","","","","","","","","",""
"","image-keyboard-response","277","200222","0.0-277.0","3P4RDNWND6STNSZDOD3UD143OWFIJ0","A2925DTZ2BLK51","3MXX6RQ9EVRTFC527Z18RDK8KW6P4R","","902.7999999523163","img/land6.png","75","905.2999999523163","2","0","3","2","0.8,0.2,0.2,0.2,0.8,0.2,0.2,0.2,0.8","0.2,0.2,0.8,0.8,0.2,0.2,0.2,0.8,0.2","2","",""
"","html-keyboard-response","278","200531","0.0-278.0","3P4RDNWND6STNSZDOD3UD143OWFIJ0","A2925DTZ2BLK51","3MXX6RQ9EVRTFC527Z18RDK8KW6P4R","","null","<img src=""img/land6.png"" style=""width:200px;border:14px solid red;"">","null","","","","","","","","","",""
"","image-keyboard-response","279","201242","0.0-279.0","3P4RDNWND6STNSZDOD3UD143OWFIJ0","A2925DTZ2BLK51","3MXX6RQ9EVRTFC527Z18RDK8KW6P4R","","708.3000001907349","img/land5.png","74","710.7000000476837","1","1","2","2","0.8,0.2,0.2,0.2,0.8,0.2,0.2,0.2,0.8","0.2,0.2,0.8,0.8,0.2,0.2,0.2,0.8,0.2","2","",""
"","html-keyboard-response","280","201549","0.0-280.0","3P4RDNWND6STNSZDOD3UD143OWFIJ0","A2925DTZ2BLK51","3MXX6RQ9EVRTFC527Z18RDK8KW6P4R","","null","<img src=""img/land5.png"" style=""width:200px; border:14px solid green;"">","null","","","","","","","","","",""
"","image-keyboard-response","281","202546","0.0-281.0","3P4RDNWND6STNSZDOD3UD143OWFIJ0","A2925DTZ2BLK51","3MXX6RQ9EVRTFC527Z18RDK8KW6P4R","","994.7000000476837","img/land1.png","76","997.5999999046326","3","1","1","2","0.8,0.2,0.2,0.2,0.8,0.2,0.2,0.2,0.8","0.2,0.2,0.8,0.8,0.2,0.2,0.2,0.8,0.2","2","",""
"","html-keyboard-response","282","202853","0.0-282.0","3P4RDNWND6STNSZDOD3UD143OWFIJ0","A2925DTZ2BLK51","3MXX6RQ9EVRTFC527Z18RDK8KW6P4R","","null","<img src=""img/land1.png"" style=""width:200px; border:14px solid green;"">","null","","","","","","","","","",""
"","image-keyboard-response","283","203252","0.0-283.0","3P4RDNWND6STNSZDOD3UD143OWFIJ0","A2925DTZ2BLK51","3MXX6RQ9EVRTFC527Z18RDK8KW6P4R","","396.09999990463257","img/land1.png","76","398.7000000476837","3","1","1","2","0.8,0.2,0.2,0.2,0.8,0.2,0.2,0.2,0.8","0.2,0.2,0.8,0.8,0.2,0.2,0.2,0.8,0.2","2","",""
"","html-keyboard-response","284","203566","0.0-284.0","3P4RDNWND6STNSZDOD3UD143OWFIJ0","A2925DTZ2BLK51","3MXX6RQ9EVRTFC527Z18RDK8KW6P4R","","null","<img src=""img/land1.png"" style=""width:200px; border:14px solid green;"">","null","","","","","","","","","",""
"","image-keyboard-response","285","204571","0.0-285.0","3P4RDNWND6STNSZDOD3UD143OWFIJ0","A2925DTZ2BLK51","3MXX6RQ9EVRTFC527Z18RDK8KW6P4R","","1001.9000000953674","img/land5.png","74","1004.3999998569489","1","0","2","2","0.8,0.2,0.2,0.2,0.8,0.2,0.2,0.2,0.8","0.2,0.2,0.8,0.8,0.2,0.2,0.2,0.8,0.2","2","",""
"","html-keyboard-response","286","204890","0.0-286.0","3P4RDNWND6STNSZDOD3UD143OWFIJ0","A2925DTZ2BLK51","3MXX6RQ9EVRTFC527Z18RDK8KW6P4R","","null","<img src=""img/land5.png"" style=""width:200px;border:14px solid red;"">","null","","","","","","","","","",""
"","image-keyboard-response","287","205957","0.0-287.0","3P4RDNWND6STNSZDOD3UD143OWFIJ0","A2925DTZ2BLK51","3MXX6RQ9EVRTFC527Z18RDK8KW6P4R","","1064.5","img/land6.png","75","1066.6000001430511","2","0","3","2","0.8,0.2,0.2,0.2,0.8,0.2,0.2,0.2,0.8","0.2,0.2,0.8,0.8,0.2,0.2,0.2,0.8,0.2","2","",""
"","html-keyboard-response","288","206262","0.0-288.0","3P4RDNWND6STNSZDOD3UD143OWFIJ0","A2925DTZ2BLK51","3MXX6RQ9EVRTFC527Z18RDK8KW6P4R","","null","<img src=""img/land6.png"" style=""width:200px;border:14px solid red;"">","null","","","","","","","","","",""
"","image-keyboard-response","289","207423","0.0-289.0","3P4RDNWND6STNSZDOD3UD143OWFIJ0","A2925DTZ2BLK51","3MXX6RQ9EVRTFC527Z18RDK8KW6P4R","","1157.5","img/land5.png","74","1159.8999998569489","1","1","2","2","0.8,0.2,0.2,0.2,0.8,0.2,0.2,0.2,0.8","0.2,0.2,0.8,0.8,0.2,0.2,0.2,0.8,0.2","2","",""
"","html-keyboard-response","290","207728","0.0-290.0","3P4RDNWND6STNSZDOD3UD143OWFIJ0","A2925DTZ2BLK51","3MXX6RQ9EVRTFC527Z18RDK8KW6P4R","","null","<img src=""img/land5.png"" style=""width:200px; border:14px solid green;"">","null","","","","","","","","","",""
"","image-keyboard-response","291","208337","0.0-291.0","3P4RDNWND6STNSZDOD3UD143OWFIJ0","A2925DTZ2BLK51","3MXX6RQ9EVRTFC527Z18RDK8KW6P4R","","606.2999999523163","img/land1.png","76","608.5999999046326","3","1","1","2","0.8,0.2,0.2,0.2,0.8,0.2,0.2,0.2,0.8","0.2,0.2,0.8,0.8,0.2,0.2,0.2,0.8,0.2","2","",""
"","html-keyboard-response","292","208647","0.0-292.0","3P4RDNWND6STNSZDOD3UD143OWFIJ0","A2925DTZ2BLK51","3MXX6RQ9EVRTFC527Z18RDK8KW6P4R","","null","<img src=""img/land1.png"" style=""width:200px; border:14px solid green;"">","null","","","","","","","","","",""
"","image-keyboard-response","293","209319","0.0-293.0","3P4RDNWND6STNSZDOD3UD143OWFIJ0","A2925DTZ2BLK51","3MXX6RQ9EVRTFC527Z18RDK8KW6P4R","","668.6000001430511","img/land5.png","74","671","1","1","2","2","0.8,0.2,0.2,0.2,0.8,0.2,0.2,0.2,0.8","0.2,0.2,0.8,0.8,0.2,0.2,0.2,0.8,0.2","2","",""
"","html-keyboard-response","294","209628","0.0-294.0","3P4RDNWND6STNSZDOD3UD143OWFIJ0","A2925DTZ2BLK51","3MXX6RQ9EVRTFC527Z18RDK8KW6P4R","","null","<img src=""img/land5.png"" style=""width:200px; border:14px solid green;"">","null","","","","","","","","","",""
"","image-keyboard-response","295","210479","0.0-295.0","3P4RDNWND6STNSZDOD3UD143OWFIJ0","A2925DTZ2BLK51","3MXX6RQ9EVRTFC527Z18RDK8KW6P4R","","847.9000000953674","img/land1.png","76","850.4000000953674","3","1","1","2","0.8,0.2,0.2,0.2,0.8,0.2,0.2,0.2,0.8","0.2,0.2,0.8,0.8,0.2,0.2,0.2,0.8,0.2","2","",""
"","html-keyboard-response","296","210796","0.0-296.0","3P4RDNWND6STNSZDOD3UD143OWFIJ0","A2925DTZ2BLK51","3MXX6RQ9EVRTFC527Z18RDK8KW6P4R","","null","<img src=""img/land1.png"" style=""width:200px; border:14px solid green;"">","null","","","","","","","","","",""
"","image-keyboard-response","297","211412","0.0-297.0","3P4RDNWND6STNSZDOD3UD143OWFIJ0","A2925DTZ2BLK51","3MXX6RQ9EVRTFC527Z18RDK8KW6P4R","","612.5","img/land6.png","75","615.2999999523163","2","1","3","2","0.8,0.2,0.2,0.2,0.8,0.2,0.2,0.2,0.8","0.2,0.2,0.8,0.8,0.2,0.2,0.2,0.8,0.2","2","",""
"","html-keyboard-response","298","211717","0.0-298.0","3P4RDNWND6STNSZDOD3UD143OWFIJ0","A2925DTZ2BLK51","3MXX6RQ9EVRTFC527Z18RDK8KW6P4R","","null","<img src=""img/land6.png"" style=""width:200px; border:14px solid green;"">","null","","","","","","","","","",""
"","image-keyboard-response","299","212265","0.0-299.0","3P4RDNWND6STNSZDOD3UD143OWFIJ0","A2925DTZ2BLK51","3MXX6RQ9EVRTFC527Z18RDK8KW6P4R","","544.4000000953674","img/land1.png","76","546.7999999523163","3","1","1","2","0.8,0.2,0.2,0.2,0.8,0.2,0.2,0.2,0.8","0.2,0.2,0.8,0.8,0.2,0.2,0.2,0.8,0.2","2","",""
"","html-keyboard-response","300","212583","0.0-300.0","3P4RDNWND6STNSZDOD3UD143OWFIJ0","A2925DTZ2BLK51","3MXX6RQ9EVRTFC527Z18RDK8KW6P4R","","null","<img src=""img/land1.png"" style=""width:200px; border:14px solid green;"">","null","","","","","","","","","",""
"","image-keyboard-response","301","212989","0.0-301.0","3P4RDNWND6STNSZDOD3UD143OWFIJ0","A2925DTZ2BLK51","3MXX6RQ9EVRTFC527Z18RDK8KW6P4R","","402.90000009536743","img/land1.png","76","405.5","3","1","1","2","0.8,0.2,0.2,0.2,0.8,0.2,0.2,0.2,0.8","0.2,0.2,0.8,0.8,0.2,0.2,0.2,0.8,0.2","2","",""
"","html-keyboard-response","302","213300","0.0-302.0","3P4RDNWND6STNSZDOD3UD143OWFIJ0","A2925DTZ2BLK51","3MXX6RQ9EVRTFC527Z18RDK8KW6P4R","","null","<img src=""img/land1.png"" style=""width:200px; border:14px solid green;"">","null","","","","","","","","","",""
"","image-keyboard-response","303","213587","0.0-303.0","3P4RDNWND6STNSZDOD3UD143OWFIJ0","A2925DTZ2BLK51","3MXX6RQ9EVRTFC527Z18RDK8KW6P4R","","284.30000019073486","img/land1.png","76","286.7999999523163","3","1","1","2","0.8,0.2,0.2,0.2,0.8,0.2,0.2,0.2,0.8","0.2,0.2,0.8,0.8,0.2,0.2,0.2,0.8,0.2","2","",""
"","html-keyboard-response","304","213897","0.0-304.0","3P4RDNWND6STNSZDOD3UD143OWFIJ0","A2925DTZ2BLK51","3MXX6RQ9EVRTFC527Z18RDK8KW6P4R","","null","<img src=""img/land1.png"" style=""width:200px; border:14px solid green;"">","null","","","","","","","","","",""
"","image-keyboard-response","305","214645","0.0-305.0","3P4RDNWND6STNSZDOD3UD143OWFIJ0","A2925DTZ2BLK51","3MXX6RQ9EVRTFC527Z18RDK8KW6P4R","","745","img/land6.png","75","747.5","2","1","3","2","0.8,0.2,0.2,0.2,0.8,0.2,0.2,0.2,0.8","0.2,0.2,0.8,0.8,0.2,0.2,0.2,0.8,0.2","2","",""
"","html-keyboard-response","306","214950","0.0-306.0","3P4RDNWND6STNSZDOD3UD143OWFIJ0","A2925DTZ2BLK51","3MXX6RQ9EVRTFC527Z18RDK8KW6P4R","","null","<img src=""img/land6.png"" style=""width:200px; border:14px solid green;"">","null","","","","","","","","","",""
"","image-keyboard-response","307","215631","0.0-307.0","3P4RDNWND6STNSZDOD3UD143OWFIJ0","A2925DTZ2BLK51","3MXX6RQ9EVRTFC527Z18RDK8KW6P4R","","678","img/land1.png","76","680.6000001430511","3","1","1","2","0.8,0.2,0.2,0.2,0.8,0.2,0.2,0.2,0.8","0.2,0.2,0.8,0.8,0.2,0.2,0.2,0.8,0.2","2","",""
"","html-keyboard-response","308","215941","0.0-308.0","3P4RDNWND6STNSZDOD3UD143OWFIJ0","A2925DTZ2BLK51","3MXX6RQ9EVRTFC527Z18RDK8KW6P4R","","null","<img src=""img/land1.png"" style=""width:200px; border:14px solid green;"">","null","","","","","","","","","",""
"","image-keyboard-response","309","216281","0.0-309.0","3P4RDNWND6STNSZDOD3UD143OWFIJ0","A2925DTZ2BLK51","3MXX6RQ9EVRTFC527Z18RDK8KW6P4R","","337.7000000476837","img/land1.png","76","340","3","1","1","2","0.8,0.2,0.2,0.2,0.8,0.2,0.2,0.2,0.8","0.2,0.2,0.8,0.8,0.2,0.2,0.2,0.8,0.2","2","",""
"","html-keyboard-response","310","216585","0.0-310.0","3P4RDNWND6STNSZDOD3UD143OWFIJ0","A2925DTZ2BLK51","3MXX6RQ9EVRTFC527Z18RDK8KW6P4R","","null","<img src=""img/land1.png"" style=""width:200px; border:14px solid green;"">","null","","","","","","","","","",""
"","image-keyboard-response","311","216950","0.0-311.0","3P4RDNWND6STNSZDOD3UD143OWFIJ0","A2925DTZ2BLK51","3MXX6RQ9EVRTFC527Z18RDK8KW6P4R","","361.7000000476837","img/land1.png","76","364.2000000476837","3","1","1","2","0.8,0.2,0.2,0.2,0.8,0.2,0.2,0.2,0.8","0.2,0.2,0.8,0.8,0.2,0.2,0.2,0.8,0.2","2","",""
"","html-keyboard-response","312","217255","0.0-312.0","3P4RDNWND6STNSZDOD3UD143OWFIJ0","A2925DTZ2BLK51","3MXX6RQ9EVRTFC527Z18RDK8KW6P4R","","null","<img src=""img/land1.png"" style=""width:200px; border:14px solid green;"">","null","","","","","","","","","",""
"","image-keyboard-response","313","217637","0.0-313.0","3P4RDNWND6STNSZDOD3UD143OWFIJ0","A2925DTZ2BLK51","3MXX6RQ9EVRTFC527Z18RDK8KW6P4R","","379.40000009536743","img/land1.png","76","382","3","1","1","2","0.8,0.2,0.2,0.2,0.8,0.2,0.2,0.2,0.8","0.2,0.2,0.8,0.8,0.2,0.2,0.2,0.8,0.2","2","",""
"","html-keyboard-response","314","217941","0.0-314.0","3P4RDNWND6STNSZDOD3UD143OWFIJ0","A2925DTZ2BLK51","3MXX6RQ9EVRTFC527Z18RDK8KW6P4R","","null","<img src=""img/land1.png"" style=""width:200px; border:14px solid green;"">","null","","","","","","","","","",""
"","image-keyboard-response","315","218695","0.0-315.0","3P4RDNWND6STNSZDOD3UD143OWFIJ0","A2925DTZ2BLK51","3MXX6RQ9EVRTFC527Z18RDK8KW6P4R","","750.6000001430511","img/land5.png","74","753.2000000476837","1","1","2","2","0.8,0.2,0.2,0.2,0.8,0.2,0.2,0.2,0.8","0.2,0.2,0.8,0.8,0.2,0.2,0.2,0.8,0.2","2","",""
"","html-keyboard-response","316","219014","0.0-316.0","3P4RDNWND6STNSZDOD3UD143OWFIJ0","A2925DTZ2BLK51","3MXX6RQ9EVRTFC527Z18RDK8KW6P4R","","null","<img src=""img/land5.png"" style=""width:200px; border:14px solid green;"">","null","","","","","","","","","",""
"","image-keyboard-response","317","219385","0.0-317.0","3P4RDNWND6STNSZDOD3UD143OWFIJ0","A2925DTZ2BLK51","3MXX6RQ9EVRTFC527Z18RDK8KW6P4R","","368.30000019073486","img/land5.png","74","370.7000000476837","1","1","2","2","0.8,0.2,0.2,0.2,0.8,0.2,0.2,0.2,0.8","0.2,0.2,0.8,0.8,0.2,0.2,0.2,0.8,0.2","2","",""
"","html-keyboard-response","318","219689","0.0-318.0","3P4RDNWND6STNSZDOD3UD143OWFIJ0","A2925DTZ2BLK51","3MXX6RQ9EVRTFC527Z18RDK8KW6P4R","","null","<img src=""img/land5.png"" style=""width:200px; border:14px solid green;"">","null","","","","","","","","","",""
"","image-keyboard-response","319","220386","0.0-319.0","3P4RDNWND6STNSZDOD3UD143OWFIJ0","A2925DTZ2BLK51","3MXX6RQ9EVRTFC527Z18RDK8KW6P4R","","694.6000001430511","img/land1.png","76","697.2000000476837","3","0","1","2","0.8,0.2,0.2,0.2,0.8,0.2,0.2,0.2,0.8","0.2,0.2,0.8,0.8,0.2,0.2,0.2,0.8,0.2","2","",""
"","html-keyboard-response","320","220704","0.0-320.0","3P4RDNWND6STNSZDOD3UD143OWFIJ0","A2925DTZ2BLK51","3MXX6RQ9EVRTFC527Z18RDK8KW6P4R","","null","<img src=""img/land1.png"" style=""width:200px;border:14px solid red;"">","null","","","","","","","","","",""
"","image-keyboard-response","321","221056","0.0-321.0","3P4RDNWND6STNSZDOD3UD143OWFIJ0","A2925DTZ2BLK51","3MXX6RQ9EVRTFC527Z18RDK8KW6P4R","","349.10000014305115","img/land1.png","76","351.60000014305115","3","0","1","2","0.8,0.2,0.2,0.2,0.8,0.2,0.2,0.2,0.8","0.2,0.2,0.8,0.8,0.2,0.2,0.2,0.8,0.2","2","",""
"","html-keyboard-response","322","221368","0.0-322.0","3P4RDNWND6STNSZDOD3UD143OWFIJ0","A2925DTZ2BLK51","3MXX6RQ9EVRTFC527Z18RDK8KW6P4R","","null","<img src=""img/land1.png"" style=""width:200px;border:14px solid red;"">","null","","","","","","","","","",""
"","image-keyboard-response","323","222027","0.0-323.0","3P4RDNWND6STNSZDOD3UD143OWFIJ0","A2925DTZ2BLK51","3MXX6RQ9EVRTFC527Z18RDK8KW6P4R","","655.8999998569489","img/land6.png","75","658.4000000953674","2","1","3","2","0.8,0.2,0.2,0.2,0.8,0.2,0.2,0.2,0.8","0.2,0.2,0.8,0.8,0.2,0.2,0.2,0.8,0.2","2","",""
"","html-keyboard-response","324","222340","0.0-324.0","3P4RDNWND6STNSZDOD3UD143OWFIJ0","A2925DTZ2BLK51","3MXX6RQ9EVRTFC527Z18RDK8KW6P4R","","null","<img src=""img/land6.png"" style=""width:200px; border:14px solid green;"">","null","","","","","","","","","",""
"","image-keyboard-response","325","223293","0.0-325.0","3P4RDNWND6STNSZDOD3UD143OWFIJ0","A2925DTZ2BLK51","3MXX6RQ9EVRTFC527Z18RDK8KW6P4R","","950.5999999046326","img/land5.png","74","953.2000000476837","1","1","2","2","0.8,0.2,0.2,0.2,0.8,0.2,0.2,0.2,0.8","0.2,0.2,0.8,0.8,0.2,0.2,0.2,0.8,0.2","2","",""
"","html-keyboard-response","326","223599","0.0-326.0","3P4RDNWND6STNSZDOD3UD143OWFIJ0","A2925DTZ2BLK51","3MXX6RQ9EVRTFC527Z18RDK8KW6P4R","","null","<img src=""img/land5.png"" style=""width:200px; border:14px solid green;"">","null","","","","","","","","","",""
"","image-keyboard-response","327","224284","0.0-327.0","3P4RDNWND6STNSZDOD3UD143OWFIJ0","A2925DTZ2BLK51","3MXX6RQ9EVRTFC527Z18RDK8KW6P4R","","681.4000000953674","img/land1.png","76","683.7999999523163","3","1","1","2","0.8,0.2,0.2,0.2,0.8,0.2,0.2,0.2,0.8","0.2,0.2,0.8,0.8,0.2,0.2,0.2,0.8,0.2","2","",""
"","html-keyboard-response","328","224595","0.0-328.0","3P4RDNWND6STNSZDOD3UD143OWFIJ0","A2925DTZ2BLK51","3MXX6RQ9EVRTFC527Z18RDK8KW6P4R","","null","<img src=""img/land1.png"" style=""width:200px; border:14px solid green;"">","null","","","","","","","","","",""
"","image-keyboard-response","329","224913","0.0-329.0","3P4RDNWND6STNSZDOD3UD143OWFIJ0","A2925DTZ2BLK51","3MXX6RQ9EVRTFC527Z18RDK8KW6P4R","","315","img/land1.png","76","317.80000019073486","3","1","1","2","0.8,0.2,0.2,0.2,0.8,0.2,0.2,0.2,0.8","0.2,0.2,0.8,0.8,0.2,0.2,0.2,0.8,0.2","2","",""
"","html-keyboard-response","330","225223","0.0-330.0","3P4RDNWND6STNSZDOD3UD143OWFIJ0","A2925DTZ2BLK51","3MXX6RQ9EVRTFC527Z18RDK8KW6P4R","","null","<img src=""img/land1.png"" style=""width:200px; border:14px solid green;"">","null","","","","","","","","","",""
"","image-keyboard-response","331","225547","0.0-331.0","3P4RDNWND6STNSZDOD3UD143OWFIJ0","A2925DTZ2BLK51","3MXX6RQ9EVRTFC527Z18RDK8KW6P4R","","320.89999985694885","img/land1.png","76","323.40000009536743","3","1","1","2","0.8,0.2,0.2,0.2,0.8,0.2,0.2,0.2,0.8","0.2,0.2,0.8,0.8,0.2,0.2,0.2,0.8,0.2","2","",""
"","html-keyboard-response","332","225855","0.0-332.0","3P4RDNWND6STNSZDOD3UD143OWFIJ0","A2925DTZ2BLK51","3MXX6RQ9EVRTFC527Z18RDK8KW6P4R","","null","<img src=""img/land1.png"" style=""width:200px; border:14px solid green;"">","null","","","","","","","","","",""
"","image-keyboard-response","333","226218","0.0-333.0","3P4RDNWND6STNSZDOD3UD143OWFIJ0","A2925DTZ2BLK51","3MXX6RQ9EVRTFC527Z18RDK8KW6P4R","","359.39999985694885","img/land1.png","76","361.90000009536743","3","1","1","2","0.8,0.2,0.2,0.2,0.8,0.2,0.2,0.2,0.8","0.2,0.2,0.8,0.8,0.2,0.2,0.2,0.8,0.2","2","",""
"","html-keyboard-response","334","226533","0.0-334.0","3P4RDNWND6STNSZDOD3UD143OWFIJ0","A2925DTZ2BLK51","3MXX6RQ9EVRTFC527Z18RDK8KW6P4R","","null","<img src=""img/land1.png"" style=""width:200px; border:14px solid green;"">","null","","","","","","","","","",""
"","image-keyboard-response","335","226889","0.0-335.0","3P4RDNWND6STNSZDOD3UD143OWFIJ0","A2925DTZ2BLK51","3MXX6RQ9EVRTFC527Z18RDK8KW6P4R","","353.59999990463257","img/land1.png","76","355.89999985694885","3","1","1","2","0.8,0.2,0.2,0.2,0.8,0.2,0.2,0.2,0.8","0.2,0.2,0.8,0.8,0.2,0.2,0.2,0.8,0.2","2","",""
"","html-keyboard-response","336","227197","0.0-336.0","3P4RDNWND6STNSZDOD3UD143OWFIJ0","A2925DTZ2BLK51","3MXX6RQ9EVRTFC527Z18RDK8KW6P4R","","null","<img src=""img/land1.png"" style=""width:200px; border:14px solid green;"">","null","","","","","","","","","",""
"","image-keyboard-response","337","227495","0.0-337.0","3P4RDNWND6STNSZDOD3UD143OWFIJ0","A2925DTZ2BLK51","3MXX6RQ9EVRTFC527Z18RDK8KW6P4R","","295","img/land1.png","76","297.60000014305115","3","1","1","2","0.8,0.2,0.2,0.2,0.8,0.2,0.2,0.2,0.8","0.2,0.2,0.8,0.8,0.2,0.2,0.2,0.8,0.2","2","",""
"","html-keyboard-response","338","227801","0.0-338.0","3P4RDNWND6STNSZDOD3UD143OWFIJ0","A2925DTZ2BLK51","3MXX6RQ9EVRTFC527Z18RDK8KW6P4R","","null","<img src=""img/land1.png"" style=""width:200px; border:14px solid green;"">","null","","","","","","","","","",""
"","image-keyboard-response","339","228096","0.0-339.0","3P4RDNWND6STNSZDOD3UD143OWFIJ0","A2925DTZ2BLK51","3MXX6RQ9EVRTFC527Z18RDK8KW6P4R","","294","img/land1.png","76","295.2000000476837","3","0","1","2","0.8,0.2,0.2,0.2,0.8,0.2,0.2,0.2,0.8","0.2,0.2,0.8,0.8,0.2,0.2,0.2,0.8,0.2","2","",""
"","html-keyboard-response","340","228399","0.0-340.0","3P4RDNWND6STNSZDOD3UD143OWFIJ0","A2925DTZ2BLK51","3MXX6RQ9EVRTFC527Z18RDK8KW6P4R","","null","<img src=""img/land1.png"" style=""width:200px;border:14px solid red;"">","null","","","","","","","","","",""
"","image-keyboard-response","341","228845","0.0-341.0","3P4RDNWND6STNSZDOD3UD143OWFIJ0","A2925DTZ2BLK51","3MXX6RQ9EVRTFC527Z18RDK8KW6P4R","","443.5","img/land1.png","76","445.7999999523163","3","1","1","2","0.8,0.2,0.2,0.2,0.8,0.2,0.2,0.2,0.8","0.2,0.2,0.8,0.8,0.2,0.2,0.2,0.8,0.2","2","",""
"","html-keyboard-response","342","229150","0.0-342.0","3P4RDNWND6STNSZDOD3UD143OWFIJ0","A2925DTZ2BLK51","3MXX6RQ9EVRTFC527Z18RDK8KW6P4R","","null","<img src=""img/land1.png"" style=""width:200px; border:14px solid green;"">","null","","","","","","","","","",""
"","image-keyboard-response","343","229445","0.0-343.0","3P4RDNWND6STNSZDOD3UD143OWFIJ0","A2925DTZ2BLK51","3MXX6RQ9EVRTFC527Z18RDK8KW6P4R","","292.5","img/land1.png","76","295","3","1","1","2","0.8,0.2,0.2,0.2,0.8,0.2,0.2,0.2,0.8","0.2,0.2,0.8,0.8,0.2,0.2,0.2,0.8,0.2","2","",""
"","html-keyboard-response","344","229756","0.0-344.0","3P4RDNWND6STNSZDOD3UD143OWFIJ0","A2925DTZ2BLK51","3MXX6RQ9EVRTFC527Z18RDK8KW6P4R","","null","<img src=""img/land1.png"" style=""width:200px; border:14px solid green;"">","null","","","","","","","","","",""
"","image-keyboard-response","345","230468","0.0-345.0","3P4RDNWND6STNSZDOD3UD143OWFIJ0","A2925DTZ2BLK51","3MXX6RQ9EVRTFC527Z18RDK8KW6P4R","","708.7999999523163","img/land5.png","74","711.2999999523163","1","1","2","2","0.8,0.2,0.2,0.2,0.8,0.2,0.2,0.2,0.8","0.2,0.2,0.8,0.8,0.2,0.2,0.2,0.8,0.2","2","",""
"","html-keyboard-response","346","230775","0.0-346.0","3P4RDNWND6STNSZDOD3UD143OWFIJ0","A2925DTZ2BLK51","3MXX6RQ9EVRTFC527Z18RDK8KW6P4R","","null","<img src=""img/land5.png"" style=""width:200px; border:14px solid green;"">","null","","","","","","","","","",""
"","image-keyboard-response","347","231590","0.0-347.0","3P4RDNWND6STNSZDOD3UD143OWFIJ0","A2925DTZ2BLK51","3MXX6RQ9EVRTFC527Z18RDK8KW6P4R","","811.7000000476837","img/land6.png","75","814.2999999523163","2","0","3","2","0.8,0.2,0.2,0.2,0.8,0.2,0.2,0.2,0.8","0.2,0.2,0.8,0.8,0.2,0.2,0.2,0.8,0.2","2","",""
"","html-keyboard-response","348","231904","0.0-348.0","3P4RDNWND6STNSZDOD3UD143OWFIJ0","A2925DTZ2BLK51","3MXX6RQ9EVRTFC527Z18RDK8KW6P4R","","null","<img src=""img/land6.png"" style=""width:200px;border:14px solid red;"">","null","","","","","","","","","",""
"","image-keyboard-response","349","232587","0.0-349.0","3P4RDNWND6STNSZDOD3UD143OWFIJ0","A2925DTZ2BLK51","3MXX6RQ9EVRTFC527Z18RDK8KW6P4R","","680.8000001907349","img/land1.png","76","682.7000000476837","3","1","1","2","0.8,0.2,0.2,0.2,0.8,0.2,0.2,0.2,0.8","0.2,0.2,0.8,0.8,0.2,0.2,0.2,0.8,0.2","2","",""
"","html-keyboard-response","350","232892","0.0-350.0","3P4RDNWND6STNSZDOD3UD143OWFIJ0","A2925DTZ2BLK51","3MXX6RQ9EVRTFC527Z18RDK8KW6P4R","","null","<img src=""img/land1.png"" style=""width:200px; border:14px solid green;"">","null","","","","","","","","","",""
"","image-keyboard-response","351","233177","0.0-351.0","3P4RDNWND6STNSZDOD3UD143OWFIJ0","A2925DTZ2BLK51","3MXX6RQ9EVRTFC527Z18RDK8KW6P4R","","282.09999990463257","img/land1.png","76","285","3","1","1","2","0.8,0.2,0.2,0.2,0.8,0.2,0.2,0.2,0.8","0.2,0.2,0.8,0.8,0.2,0.2,0.2,0.8,0.2","2","",""
"","html-keyboard-response","352","233481","0.0-352.0","3P4RDNWND6STNSZDOD3UD143OWFIJ0","A2925DTZ2BLK51","3MXX6RQ9EVRTFC527Z18RDK8KW6P4R","","null","<img src=""img/land1.png"" style=""width:200px; border:14px solid green;"">","null","","","","","","","","","",""
"","image-keyboard-response","353","234128","0.0-353.0","3P4RDNWND6STNSZDOD3UD143OWFIJ0","A2925DTZ2BLK51","3MXX6RQ9EVRTFC527Z18RDK8KW6P4R","","643.7999999523163","img/land6.png","75","646.2999999523163","2","1","3","2","0.8,0.2,0.2,0.2,0.8,0.2,0.2,0.2,0.8","0.2,0.2,0.8,0.8,0.2,0.2,0.2,0.8,0.2","2","",""
"","html-keyboard-response","354","234434","0.0-354.0","3P4RDNWND6STNSZDOD3UD143OWFIJ0","A2925DTZ2BLK51","3MXX6RQ9EVRTFC527Z18RDK8KW6P4R","","null","<img src=""img/land6.png"" style=""width:200px; border:14px solid green;"">","null","","","","","","","","","",""
