"success","trial_type","trial_index","time_elapsed","internal_node_id","assignmentID","mturkID","hitID","view_history","rt","stimulus","key_press","reactionTime","a","r","s","cond","reward_cond","reward_cond_actual","reward_matrix_idx","responses","question_order"
"true","fullscreen","0","3322","0.0-0.0","3P529IW9KZ7F8RLNQQ9MQJ43BGQLFL","A299UKNV45FVI6","38DCH97KHHO4I6P2AJ31XKZ17OGJQZ","","","","","","","","","","","","","",""
"","instructions","1","16875","0.0-1.0","3P529IW9KZ7F8RLNQQ9MQJ43BGQLFL","A299UKNV45FVI6","38DCH97KHHO4I6P2AJ31XKZ17OGJQZ","[{""page_index"":0,""viewing_time"":2300},{""page_index"":1,""viewing_time"":2155},{""page_index"":2,""viewing_time"":947},{""page_index"":3,""viewing_time"":2044},{""page_index"":4,""viewing_time"":1954},{""page_index"":5,""viewing_time"":2035},{""page_index"":6,""viewing_time"":2109}]","13545","","","","","","","","","","","",""
"","image-keyboard-response","2","18290","0.0-2.0","3P529IW9KZ7F8RLNQQ9MQJ43BGQLFL","A299UKNV45FVI6","38DCH97KHHO4I6P2AJ31XKZ17OGJQZ","","1407","img/land4.png","76","1413","3","0","2","1","1,0.5,0.5,0.5,1,0.5,0.5,0.5,1","1,0.5,0.5,0.5,1,0.5,0.5,0.5,1","1","",""
"","html-keyboard-response","3","18595","0.0-3.0","3P529IW9KZ7F8RLNQQ9MQJ43BGQLFL","A299UKNV45FVI6","38DCH97KHHO4I6P2AJ31XKZ17OGJQZ","","null","<img src=""img/land4.png"" style=""width:200px;border:14px solid red;"">","null","","","","","","","","","",""
"","image-keyboard-response","4","18848","0.0-4.0","3P529IW9KZ7F8RLNQQ9MQJ43BGQLFL","A299UKNV45FVI6","38DCH97KHHO4I6P2AJ31XKZ17OGJQZ","","250","img/land5.png","74","252","1","1","1","1","1,0.5,0.5,0.5,1,0.5,0.5,0.5,1","1,0.5,0.5,0.5,1,0.5,0.5,0.5,1","1","",""
"","html-keyboard-response","5","19173","0.0-5.0","3P529IW9KZ7F8RLNQQ9MQJ43BGQLFL","A299UKNV45FVI6","38DCH97KHHO4I6P2AJ31XKZ17OGJQZ","","null","<img src=""img/land5.png"" style=""width:200px; border:14px solid green;"">","null","","","","","","","","","",""
"","image-keyboard-response","6","19198","0.0-6.0","3P529IW9KZ7F8RLNQQ9MQJ43BGQLFL","A299UKNV45FVI6","38DCH97KHHO4I6P2AJ31XKZ17OGJQZ","","23","img/land5.png","74","24","1","1","1","1","1,0.5,0.5,0.5,1,0.5,0.5,0.5,1","1,0.5,0.5,0.5,1,0.5,0.5,0.5,1","1","",""
"","html-keyboard-response","7","19503","0.0-7.0","3P529IW9KZ7F8RLNQQ9MQJ43BGQLFL","A299UKNV45FVI6","38DCH97KHHO4I6P2AJ31XKZ17OGJQZ","","null","<img src=""img/land5.png"" style=""width:200px; border:14px solid green;"">","null","","","","","","","","","",""
"","image-keyboard-response","8","19626","0.0-8.0","3P529IW9KZ7F8RLNQQ9MQJ43BGQLFL","A299UKNV45FVI6","38DCH97KHHO4I6P2AJ31XKZ17OGJQZ","","120","img/land4.png","74","122","1","0","2","1","1,0.5,0.5,0.5,1,0.5,0.5,0.5,1","1,0.5,0.5,0.5,1,0.5,0.5,0.5,1","1","",""
"","html-keyboard-response","9","19931","0.0-9.0","3P529IW9KZ7F8RLNQQ9MQJ43BGQLFL","A299UKNV45FVI6","38DCH97KHHO4I6P2AJ31XKZ17OGJQZ","","null","<img src=""img/land4.png"" style=""width:200px;border:14px solid red;"">","null","","","","","","","","","",""
"","image-keyboard-response","10","20026","0.0-10.0","3P529IW9KZ7F8RLNQQ9MQJ43BGQLFL","A299UKNV45FVI6","38DCH97KHHO4I6P2AJ31XKZ17OGJQZ","","89","img/land5.png","75","91","2","1","1","1","1,0.5,0.5,0.5,1,0.5,0.5,0.5,1","1,0.5,0.5,0.5,1,0.5,0.5,0.5,1","1","",""
"","html-keyboard-response","11","20329","0.0-11.0","3P529IW9KZ7F8RLNQQ9MQJ43BGQLFL","A299UKNV45FVI6","38DCH97KHHO4I6P2AJ31XKZ17OGJQZ","","null","<img src=""img/land5.png"" style=""width:200px; border:14px solid green;"">","null","","","","","","","","","",""
"","image-keyboard-response","12","20520","0.0-12.0","3P529IW9KZ7F8RLNQQ9MQJ43BGQLFL","A299UKNV45FVI6","38DCH97KHHO4I6P2AJ31XKZ17OGJQZ","","189","img/land5.png","74","191","1","1","1","1","1,0.5,0.5,0.5,1,0.5,0.5,0.5,1","1,0.5,0.5,0.5,1,0.5,0.5,0.5,1","1","",""
"","html-keyboard-response","13","20853","0.0-13.0","3P529IW9KZ7F8RLNQQ9MQJ43BGQLFL","A299UKNV45FVI6","38DCH97KHHO4I6P2AJ31XKZ17OGJQZ","","null","<img src=""img/land5.png"" style=""width:200px; border:14px solid green;"">","null","","","","","","","","","",""
"","image-keyboard-response","14","20903","0.0-14.0","3P529IW9KZ7F8RLNQQ9MQJ43BGQLFL","A299UKNV45FVI6","38DCH97KHHO4I6P2AJ31XKZ17OGJQZ","","46","img/land3.png","75","48","2","0","3","1","1,0.5,0.5,0.5,1,0.5,0.5,0.5,1","1,0.5,0.5,0.5,1,0.5,0.5,0.5,1","1","",""
"","html-keyboard-response","15","21205","0.0-15.0","3P529IW9KZ7F8RLNQQ9MQJ43BGQLFL","A299UKNV45FVI6","38DCH97KHHO4I6P2AJ31XKZ17OGJQZ","","null","<img src=""img/land3.png"" style=""width:200px;border:14px solid red;"">","null","","","","","","","","","",""
"","image-keyboard-response","16","21226","0.0-16.0","3P529IW9KZ7F8RLNQQ9MQJ43BGQLFL","A299UKNV45FVI6","38DCH97KHHO4I6P2AJ31XKZ17OGJQZ","","18","img/land3.png","75","21","2","1","3","1","1,0.5,0.5,0.5,1,0.5,0.5,0.5,1","1,0.5,0.5,0.5,1,0.5,0.5,0.5,1","1","",""
"","html-keyboard-response","17","21529","0.0-17.0","3P529IW9KZ7F8RLNQQ9MQJ43BGQLFL","A299UKNV45FVI6","38DCH97KHHO4I6P2AJ31XKZ17OGJQZ","","null","<img src=""img/land3.png"" style=""width:200px; border:14px solid green;"">","null","","","","","","","","","",""
"","image-keyboard-response","18","21597","0.0-18.0","3P529IW9KZ7F8RLNQQ9MQJ43BGQLFL","A299UKNV45FVI6","38DCH97KHHO4I6P2AJ31XKZ17OGJQZ","","64","img/land3.png","75","66","2","1","3","1","1,0.5,0.5,0.5,1,0.5,0.5,0.5,1","1,0.5,0.5,0.5,1,0.5,0.5,0.5,1","1","",""
"","html-keyboard-response","19","21900","0.0-19.0","3P529IW9KZ7F8RLNQQ9MQJ43BGQLFL","A299UKNV45FVI6","38DCH97KHHO4I6P2AJ31XKZ17OGJQZ","","null","<img src=""img/land3.png"" style=""width:200px; border:14px solid green;"">","null","","","","","","","","","",""
"","image-keyboard-response","20","22075","0.0-20.0","3P529IW9KZ7F8RLNQQ9MQJ43BGQLFL","A299UKNV45FVI6","38DCH97KHHO4I6P2AJ31XKZ17OGJQZ","","174","img/land5.png","74","175","1","1","1","1","1,0.5,0.5,0.5,1,0.5,0.5,0.5,1","1,0.5,0.5,0.5,1,0.5,0.5,0.5,1","1","",""
"","html-keyboard-response","21","22378","0.0-21.0","3P529IW9KZ7F8RLNQQ9MQJ43BGQLFL","A299UKNV45FVI6","38DCH97KHHO4I6P2AJ31XKZ17OGJQZ","","null","<img src=""img/land5.png"" style=""width:200px; border:14px solid green;"">","null","","","","","","","","","",""
"","image-keyboard-response","22","22421","0.0-22.0","3P529IW9KZ7F8RLNQQ9MQJ43BGQLFL","A299UKNV45FVI6","38DCH97KHHO4I6P2AJ31XKZ17OGJQZ","","40","img/land3.png","75","42","2","1","3","1","1,0.5,0.5,0.5,1,0.5,0.5,0.5,1","1,0.5,0.5,0.5,1,0.5,0.5,0.5,1","1","",""
"","html-keyboard-response","23","22722","0.0-23.0","3P529IW9KZ7F8RLNQQ9MQJ43BGQLFL","A299UKNV45FVI6","38DCH97KHHO4I6P2AJ31XKZ17OGJQZ","","null","<img src=""img/land3.png"" style=""width:200px; border:14px solid green;"">","null","","","","","","","","","",""
"","image-keyboard-response","24","22831","0.0-24.0","3P529IW9KZ7F8RLNQQ9MQJ43BGQLFL","A299UKNV45FVI6","38DCH97KHHO4I6P2AJ31XKZ17OGJQZ","","108","img/land4.png","74","108","1","0","2","1","1,0.5,0.5,0.5,1,0.5,0.5,0.5,1","1,0.5,0.5,0.5,1,0.5,0.5,0.5,1","1","",""
"","html-keyboard-response","25","23135","0.0-25.0","3P529IW9KZ7F8RLNQQ9MQJ43BGQLFL","A299UKNV45FVI6","38DCH97KHHO4I6P2AJ31XKZ17OGJQZ","","null","<img src=""img/land4.png"" style=""width:200px;border:14px solid red;"">","null","","","","","","","","","",""
"","image-keyboard-response","26","23150","0.0-26.0","3P529IW9KZ7F8RLNQQ9MQJ43BGQLFL","A299UKNV45FVI6","38DCH97KHHO4I6P2AJ31XKZ17OGJQZ","","13","img/land4.png","75","14","2","1","2","1","1,0.5,0.5,0.5,1,0.5,0.5,0.5,1","1,0.5,0.5,0.5,1,0.5,0.5,0.5,1","1","",""
"","html-keyboard-response","27","23452","0.0-27.0","3P529IW9KZ7F8RLNQQ9MQJ43BGQLFL","A299UKNV45FVI6","38DCH97KHHO4I6P2AJ31XKZ17OGJQZ","","null","<img src=""img/land4.png"" style=""width:200px; border:14px solid green;"">","null","","","","","","","","","",""
"","image-keyboard-response","28","23508","0.0-28.0","3P529IW9KZ7F8RLNQQ9MQJ43BGQLFL","A299UKNV45FVI6","38DCH97KHHO4I6P2AJ31XKZ17OGJQZ","","55","img/land3.png","75","56","2","0","3","1","1,0.5,0.5,0.5,1,0.5,0.5,0.5,1","1,0.5,0.5,0.5,1,0.5,0.5,0.5,1","1","",""
"","html-keyboard-response","29","23931","0.0-29.0","3P529IW9KZ7F8RLNQQ9MQJ43BGQLFL","A299UKNV45FVI6","38DCH97KHHO4I6P2AJ31XKZ17OGJQZ","","null","<img src=""img/land3.png"" style=""width:200px;border:14px solid red;"">","null","","","","","","","","","",""
"","image-keyboard-response","30","23974","0.0-30.0","3P529IW9KZ7F8RLNQQ9MQJ43BGQLFL","A299UKNV45FVI6","38DCH97KHHO4I6P2AJ31XKZ17OGJQZ","","40","img/land5.png","74","42","1","1","1","1","1,0.5,0.5,0.5,1,0.5,0.5,0.5,1","1,0.5,0.5,0.5,1,0.5,0.5,0.5,1","1","",""
"","html-keyboard-response","31","24275","0.0-31.0","3P529IW9KZ7F8RLNQQ9MQJ43BGQLFL","A299UKNV45FVI6","38DCH97KHHO4I6P2AJ31XKZ17OGJQZ","","null","<img src=""img/land5.png"" style=""width:200px; border:14px solid green;"">","null","","","","","","","","","",""
"","image-keyboard-response","32","24312","0.0-32.0","3P529IW9KZ7F8RLNQQ9MQJ43BGQLFL","A299UKNV45FVI6","38DCH97KHHO4I6P2AJ31XKZ17OGJQZ","","22","img/land4.png","74","25","1","0","2","1","1,0.5,0.5,0.5,1,0.5,0.5,0.5,1","1,0.5,0.5,0.5,1,0.5,0.5,0.5,1","1","",""
"","html-keyboard-response","33","24618","0.0-33.0","3P529IW9KZ7F8RLNQQ9MQJ43BGQLFL","A299UKNV45FVI6","38DCH97KHHO4I6P2AJ31XKZ17OGJQZ","","null","<img src=""img/land4.png"" style=""width:200px;border:14px solid red;"">","null","","","","","","","","","",""
"","image-keyboard-response","34","24645","0.0-34.0","3P529IW9KZ7F8RLNQQ9MQJ43BGQLFL","A299UKNV45FVI6","38DCH97KHHO4I6P2AJ31XKZ17OGJQZ","","24","img/land4.png","75","26","2","1","2","1","1,0.5,0.5,0.5,1,0.5,0.5,0.5,1","1,0.5,0.5,0.5,1,0.5,0.5,0.5,1","1","",""
"","html-keyboard-response","35","24946","0.0-35.0","3P529IW9KZ7F8RLNQQ9MQJ43BGQLFL","A299UKNV45FVI6","38DCH97KHHO4I6P2AJ31XKZ17OGJQZ","","null","<img src=""img/land4.png"" style=""width:200px; border:14px solid green;"">","null","","","","","","","","","",""
"","image-keyboard-response","36","25040","0.0-36.0","3P529IW9KZ7F8RLNQQ9MQJ43BGQLFL","A299UKNV45FVI6","38DCH97KHHO4I6P2AJ31XKZ17OGJQZ","","90","img/land4.png","75","93","2","1","2","1","1,0.5,0.5,0.5,1,0.5,0.5,0.5,1","1,0.5,0.5,0.5,1,0.5,0.5,0.5,1","1","",""
"","html-keyboard-response","37","25387","0.0-37.0","3P529IW9KZ7F8RLNQQ9MQJ43BGQLFL","A299UKNV45FVI6","38DCH97KHHO4I6P2AJ31XKZ17OGJQZ","","null","<img src=""img/land4.png"" style=""width:200px; border:14px solid green;"">","null","","","","","","","","","",""
"","image-keyboard-response","38","25452","0.0-38.0","3P529IW9KZ7F8RLNQQ9MQJ43BGQLFL","A299UKNV45FVI6","38DCH97KHHO4I6P2AJ31XKZ17OGJQZ","","61","img/land5.png","75","65","2","0","1","1","1,0.5,0.5,0.5,1,0.5,0.5,0.5,1","1,0.5,0.5,0.5,1,0.5,0.5,0.5,1","1","",""
"","html-keyboard-response","39","25757","0.0-39.0","3P529IW9KZ7F8RLNQQ9MQJ43BGQLFL","A299UKNV45FVI6","38DCH97KHHO4I6P2AJ31XKZ17OGJQZ","","null","<img src=""img/land5.png"" style=""width:200px;border:14px solid red;"">","null","","","","","","","","","",""
"","image-keyboard-response","40","25915","0.0-40.0","3P529IW9KZ7F8RLNQQ9MQJ43BGQLFL","A299UKNV45FVI6","38DCH97KHHO4I6P2AJ31XKZ17OGJQZ","","145","img/land3.png","75","154","2","0","3","1","1,0.5,0.5,0.5,1,0.5,0.5,0.5,1","1,0.5,0.5,0.5,1,0.5,0.5,0.5,1","1","",""
"","html-keyboard-response","41","26231","0.0-41.0","3P529IW9KZ7F8RLNQQ9MQJ43BGQLFL","A299UKNV45FVI6","38DCH97KHHO4I6P2AJ31XKZ17OGJQZ","","null","<img src=""img/land3.png"" style=""width:200px;border:14px solid red;"">","null","","","","","","","","","",""
"","image-keyboard-response","42","26290","0.0-42.0","3P529IW9KZ7F8RLNQQ9MQJ43BGQLFL","A299UKNV45FVI6","38DCH97KHHO4I6P2AJ31XKZ17OGJQZ","","53","img/land4.png","76","57","3","1","2","1","1,0.5,0.5,0.5,1,0.5,0.5,0.5,1","1,0.5,0.5,0.5,1,0.5,0.5,0.5,1","1","",""
"","html-keyboard-response","43","26593","0.0-43.0","3P529IW9KZ7F8RLNQQ9MQJ43BGQLFL","A299UKNV45FVI6","38DCH97KHHO4I6P2AJ31XKZ17OGJQZ","","null","<img src=""img/land4.png"" style=""width:200px; border:14px solid green;"">","null","","","","","","","","","",""
"","image-keyboard-response","44","26695","0.0-44.0","3P529IW9KZ7F8RLNQQ9MQJ43BGQLFL","A299UKNV45FVI6","38DCH97KHHO4I6P2AJ31XKZ17OGJQZ","","99","img/land3.png","75","101","2","1","3","1","1,0.5,0.5,0.5,1,0.5,0.5,0.5,1","1,0.5,0.5,0.5,1,0.5,0.5,0.5,1","1","",""
"","html-keyboard-response","45","26997","0.0-45.0","3P529IW9KZ7F8RLNQQ9MQJ43BGQLFL","A299UKNV45FVI6","38DCH97KHHO4I6P2AJ31XKZ17OGJQZ","","null","<img src=""img/land3.png"" style=""width:200px; border:14px solid green;"">","null","","","","","","","","","",""
"","image-keyboard-response","46","27011","0.0-46.0","3P529IW9KZ7F8RLNQQ9MQJ43BGQLFL","A299UKNV45FVI6","38DCH97KHHO4I6P2AJ31XKZ17OGJQZ","","11","img/land5.png","76","13","3","1","1","1","1,0.5,0.5,0.5,1,0.5,0.5,0.5,1","1,0.5,0.5,0.5,1,0.5,0.5,0.5,1","1","",""
"","html-keyboard-response","47","27311","0.0-47.0","3P529IW9KZ7F8RLNQQ9MQJ43BGQLFL","A299UKNV45FVI6","38DCH97KHHO4I6P2AJ31XKZ17OGJQZ","","null","<img src=""img/land5.png"" style=""width:200px; border:14px solid green;"">","null","","","","","","","","","",""
"","image-keyboard-response","48","27519","0.0-48.0","3P529IW9KZ7F8RLNQQ9MQJ43BGQLFL","A299UKNV45FVI6","38DCH97KHHO4I6P2AJ31XKZ17OGJQZ","","205","img/land3.png","74","207","1","0","3","1","1,0.5,0.5,0.5,1,0.5,0.5,0.5,1","1,0.5,0.5,0.5,1,0.5,0.5,0.5,1","1","",""
"","html-keyboard-response","49","27879","0.0-49.0","3P529IW9KZ7F8RLNQQ9MQJ43BGQLFL","A299UKNV45FVI6","38DCH97KHHO4I6P2AJ31XKZ17OGJQZ","","null","<img src=""img/land3.png"" style=""width:200px;border:14px solid red;"">","null","","","","","","","","","",""
"","image-keyboard-response","50","27941","0.0-50.0","3P529IW9KZ7F8RLNQQ9MQJ43BGQLFL","A299UKNV45FVI6","38DCH97KHHO4I6P2AJ31XKZ17OGJQZ","","58","img/land4.png","75","60","2","1","2","1","1,0.5,0.5,0.5,1,0.5,0.5,0.5,1","1,0.5,0.5,0.5,1,0.5,0.5,0.5,1","1","",""
"","html-keyboard-response","51","28242","0.0-51.0","3P529IW9KZ7F8RLNQQ9MQJ43BGQLFL","A299UKNV45FVI6","38DCH97KHHO4I6P2AJ31XKZ17OGJQZ","","null","<img src=""img/land4.png"" style=""width:200px; border:14px solid green;"">","null","","","","","","","","","",""
"","image-keyboard-response","52","28320","0.0-52.0","3P529IW9KZ7F8RLNQQ9MQJ43BGQLFL","A299UKNV45FVI6","38DCH97KHHO4I6P2AJ31XKZ17OGJQZ","","76","img/land5.png","75","78","2","0","1","1","1,0.5,0.5,0.5,1,0.5,0.5,0.5,1","1,0.5,0.5,0.5,1,0.5,0.5,0.5,1","1","",""
"","html-keyboard-response","53","28624","0.0-53.0","3P529IW9KZ7F8RLNQQ9MQJ43BGQLFL","A299UKNV45FVI6","38DCH97KHHO4I6P2AJ31XKZ17OGJQZ","","null","<img src=""img/land5.png"" style=""width:200px;border:14px solid red;"">","null","","","","","","","","","",""
"","image-keyboard-response","54","28680","0.0-54.0","3P529IW9KZ7F8RLNQQ9MQJ43BGQLFL","A299UKNV45FVI6","38DCH97KHHO4I6P2AJ31XKZ17OGJQZ","","53","img/land3.png","75","55","2","0","3","1","1,0.5,0.5,0.5,1,0.5,0.5,0.5,1","1,0.5,0.5,0.5,1,0.5,0.5,0.5,1","1","",""
"","html-keyboard-response","55","28983","0.0-55.0","3P529IW9KZ7F8RLNQQ9MQJ43BGQLFL","A299UKNV45FVI6","38DCH97KHHO4I6P2AJ31XKZ17OGJQZ","","null","<img src=""img/land3.png"" style=""width:200px;border:14px solid red;"">","null","","","","","","","","","",""
"","image-keyboard-response","56","29012","0.0-56.0","3P529IW9KZ7F8RLNQQ9MQJ43BGQLFL","A299UKNV45FVI6","38DCH97KHHO4I6P2AJ31XKZ17OGJQZ","","25","img/land5.png","75","27","2","0","1","1","1,0.5,0.5,0.5,1,0.5,0.5,0.5,1","1,0.5,0.5,0.5,1,0.5,0.5,0.5,1","1","",""
"","html-keyboard-response","57","29313","0.0-57.0","3P529IW9KZ7F8RLNQQ9MQJ43BGQLFL","A299UKNV45FVI6","38DCH97KHHO4I6P2AJ31XKZ17OGJQZ","","null","<img src=""img/land5.png"" style=""width:200px;border:14px solid red;"">","null","","","","","","","","","",""
"","image-keyboard-response","58","29357","0.0-58.0","3P529IW9KZ7F8RLNQQ9MQJ43BGQLFL","A299UKNV45FVI6","38DCH97KHHO4I6P2AJ31XKZ17OGJQZ","","37","img/land4.png","76","41","3","0","2","1","1,0.5,0.5,0.5,1,0.5,0.5,0.5,1","1,0.5,0.5,0.5,1,0.5,0.5,0.5,1","1","",""
"","html-keyboard-response","59","29781","0.0-59.0","3P529IW9KZ7F8RLNQQ9MQJ43BGQLFL","A299UKNV45FVI6","38DCH97KHHO4I6P2AJ31XKZ17OGJQZ","","null","<img src=""img/land4.png"" style=""width:200px;border:14px solid red;"">","null","","","","","","","","","",""
"","image-keyboard-response","60","29813","0.0-60.0","3P529IW9KZ7F8RLNQQ9MQJ43BGQLFL","A299UKNV45FVI6","38DCH97KHHO4I6P2AJ31XKZ17OGJQZ","","28","img/land4.png","74","32","1","0","2","1","1,0.5,0.5,0.5,1,0.5,0.5,0.5,1","1,0.5,0.5,0.5,1,0.5,0.5,0.5,1","1","",""
"","html-keyboard-response","61","30114","0.0-61.0","3P529IW9KZ7F8RLNQQ9MQJ43BGQLFL","A299UKNV45FVI6","38DCH97KHHO4I6P2AJ31XKZ17OGJQZ","","null","<img src=""img/land4.png"" style=""width:200px;border:14px solid red;"">","null","","","","","","","","","",""
"","image-keyboard-response","62","30166","0.0-62.0","3P529IW9KZ7F8RLNQQ9MQJ43BGQLFL","A299UKNV45FVI6","38DCH97KHHO4I6P2AJ31XKZ17OGJQZ","","50","img/land3.png","76","51","3","1","3","1","1,0.5,0.5,0.5,1,0.5,0.5,0.5,1","1,0.5,0.5,0.5,1,0.5,0.5,0.5,1","1","",""
"","html-keyboard-response","63","30470","0.0-63.0","3P529IW9KZ7F8RLNQQ9MQJ43BGQLFL","A299UKNV45FVI6","38DCH97KHHO4I6P2AJ31XKZ17OGJQZ","","null","<img src=""img/land3.png"" style=""width:200px; border:14px solid green;"">","null","","","","","","","","","",""
"","image-keyboard-response","64","30530","0.0-64.0","3P529IW9KZ7F8RLNQQ9MQJ43BGQLFL","A299UKNV45FVI6","38DCH97KHHO4I6P2AJ31XKZ17OGJQZ","","54","img/land4.png","75","59","2","1","2","1","1,0.5,0.5,0.5,1,0.5,0.5,0.5,1","1,0.5,0.5,0.5,1,0.5,0.5,0.5,1","1","",""
"","html-keyboard-response","65","30835","0.0-65.0","3P529IW9KZ7F8RLNQQ9MQJ43BGQLFL","A299UKNV45FVI6","38DCH97KHHO4I6P2AJ31XKZ17OGJQZ","","null","<img src=""img/land4.png"" style=""width:200px; border:14px solid green;"">","null","","","","","","","","","",""
"","image-keyboard-response","66","30893","0.0-66.0","3P529IW9KZ7F8RLNQQ9MQJ43BGQLFL","A299UKNV45FVI6","38DCH97KHHO4I6P2AJ31XKZ17OGJQZ","","52","img/land4.png","75","56","2","1","2","1","1,0.5,0.5,0.5,1,0.5,0.5,0.5,1","1,0.5,0.5,0.5,1,0.5,0.5,0.5,1","1","",""
"","html-keyboard-response","67","31255","0.0-67.0","3P529IW9KZ7F8RLNQQ9MQJ43BGQLFL","A299UKNV45FVI6","38DCH97KHHO4I6P2AJ31XKZ17OGJQZ","","null","<img src=""img/land4.png"" style=""width:200px; border:14px solid green;"">","null","","","","","","","","","",""
"","image-keyboard-response","68","31300","0.0-68.0","3P529IW9KZ7F8RLNQQ9MQJ43BGQLFL","A299UKNV45FVI6","38DCH97KHHO4I6P2AJ31XKZ17OGJQZ","","44","img/land4.png","74","44","1","1","2","1","1,0.5,0.5,0.5,1,0.5,0.5,0.5,1","1,0.5,0.5,0.5,1,0.5,0.5,0.5,1","1","",""
"","html-keyboard-response","69","31602","0.0-69.0","3P529IW9KZ7F8RLNQQ9MQJ43BGQLFL","A299UKNV45FVI6","38DCH97KHHO4I6P2AJ31XKZ17OGJQZ","","null","<img src=""img/land4.png"" style=""width:200px; border:14px solid green;"">","null","","","","","","","","","",""
"","image-keyboard-response","70","31617","0.0-70.0","3P529IW9KZ7F8RLNQQ9MQJ43BGQLFL","A299UKNV45FVI6","38DCH97KHHO4I6P2AJ31XKZ17OGJQZ","","13","img/land4.png","75","14","2","1","2","1","1,0.5,0.5,0.5,1,0.5,0.5,0.5,1","1,0.5,0.5,0.5,1,0.5,0.5,0.5,1","1","",""
"","html-keyboard-response","71","31919","0.0-71.0","3P529IW9KZ7F8RLNQQ9MQJ43BGQLFL","A299UKNV45FVI6","38DCH97KHHO4I6P2AJ31XKZ17OGJQZ","","null","<img src=""img/land4.png"" style=""width:200px; border:14px solid green;"">","null","","","","","","","","","",""
"","image-keyboard-response","72","32013","0.0-72.0","3P529IW9KZ7F8RLNQQ9MQJ43BGQLFL","A299UKNV45FVI6","38DCH97KHHO4I6P2AJ31XKZ17OGJQZ","","92","img/land3.png","75","93","2","0","3","1","1,0.5,0.5,0.5,1,0.5,0.5,0.5,1","1,0.5,0.5,0.5,1,0.5,0.5,0.5,1","1","",""
"","html-keyboard-response","73","32315","0.0-73.0","3P529IW9KZ7F8RLNQQ9MQJ43BGQLFL","A299UKNV45FVI6","38DCH97KHHO4I6P2AJ31XKZ17OGJQZ","","null","<img src=""img/land3.png"" style=""width:200px;border:14px solid red;"">","null","","","","","","","","","",""
"","image-keyboard-response","74","32384","0.0-74.0","3P529IW9KZ7F8RLNQQ9MQJ43BGQLFL","A299UKNV45FVI6","38DCH97KHHO4I6P2AJ31XKZ17OGJQZ","","66","img/land5.png","75","67","2","1","1","1","1,0.5,0.5,0.5,1,0.5,0.5,0.5,1","1,0.5,0.5,0.5,1,0.5,0.5,0.5,1","1","",""
"","html-keyboard-response","75","32689","0.0-75.0","3P529IW9KZ7F8RLNQQ9MQJ43BGQLFL","A299UKNV45FVI6","38DCH97KHHO4I6P2AJ31XKZ17OGJQZ","","null","<img src=""img/land5.png"" style=""width:200px; border:14px solid green;"">","null","","","","","","","","","",""
"","image-keyboard-response","76","32795","0.0-76.0","3P529IW9KZ7F8RLNQQ9MQJ43BGQLFL","A299UKNV45FVI6","38DCH97KHHO4I6P2AJ31XKZ17OGJQZ","","95","img/land5.png","75","103","2","1","1","1","1,0.5,0.5,0.5,1,0.5,0.5,0.5,1","1,0.5,0.5,0.5,1,0.5,0.5,0.5,1","1","",""
"","html-keyboard-response","77","33101","0.0-77.0","3P529IW9KZ7F8RLNQQ9MQJ43BGQLFL","A299UKNV45FVI6","38DCH97KHHO4I6P2AJ31XKZ17OGJQZ","","null","<img src=""img/land5.png"" style=""width:200px; border:14px solid green;"">","null","","","","","","","","","",""
"","image-keyboard-response","78","33214","0.0-78.0","3P529IW9KZ7F8RLNQQ9MQJ43BGQLFL","A299UKNV45FVI6","38DCH97KHHO4I6P2AJ31XKZ17OGJQZ","","110","img/land3.png","75","112","2","1","3","1","1,0.5,0.5,0.5,1,0.5,0.5,0.5,1","1,0.5,0.5,0.5,1,0.5,0.5,0.5,1","1","",""
"","html-keyboard-response","79","33518","0.0-79.0","3P529IW9KZ7F8RLNQQ9MQJ43BGQLFL","A299UKNV45FVI6","38DCH97KHHO4I6P2AJ31XKZ17OGJQZ","","null","<img src=""img/land3.png"" style=""width:200px; border:14px solid green;"">","null","","","","","","","","","",""
"","image-keyboard-response","80","33639","0.0-80.0","3P529IW9KZ7F8RLNQQ9MQJ43BGQLFL","A299UKNV45FVI6","38DCH97KHHO4I6P2AJ31XKZ17OGJQZ","","117","img/land4.png","75","120","2","1","2","1","1,0.5,0.5,0.5,1,0.5,0.5,0.5,1","1,0.5,0.5,0.5,1,0.5,0.5,0.5,1","1","",""
"","html-keyboard-response","81","33952","0.0-81.0","3P529IW9KZ7F8RLNQQ9MQJ43BGQLFL","A299UKNV45FVI6","38DCH97KHHO4I6P2AJ31XKZ17OGJQZ","","null","<img src=""img/land4.png"" style=""width:200px; border:14px solid green;"">","null","","","","","","","","","",""
"","image-keyboard-response","82","34156","0.0-82.0","3P529IW9KZ7F8RLNQQ9MQJ43BGQLFL","A299UKNV45FVI6","38DCH97KHHO4I6P2AJ31XKZ17OGJQZ","","201","img/land3.png","75","203","2","1","3","1","1,0.5,0.5,0.5,1,0.5,0.5,0.5,1","1,0.5,0.5,0.5,1,0.5,0.5,0.5,1","1","",""
"","html-keyboard-response","83","34458","0.0-83.0","3P529IW9KZ7F8RLNQQ9MQJ43BGQLFL","A299UKNV45FVI6","38DCH97KHHO4I6P2AJ31XKZ17OGJQZ","","null","<img src=""img/land3.png"" style=""width:200px; border:14px solid green;"">","null","","","","","","","","","",""
"","image-keyboard-response","84","34578","0.0-84.0","3P529IW9KZ7F8RLNQQ9MQJ43BGQLFL","A299UKNV45FVI6","38DCH97KHHO4I6P2AJ31XKZ17OGJQZ","","117","img/land5.png","75","118","2","1","1","1","1,0.5,0.5,0.5,1,0.5,0.5,0.5,1","1,0.5,0.5,0.5,1,0.5,0.5,0.5,1","1","",""
"","html-keyboard-response","85","34882","0.0-85.0","3P529IW9KZ7F8RLNQQ9MQJ43BGQLFL","A299UKNV45FVI6","38DCH97KHHO4I6P2AJ31XKZ17OGJQZ","","null","<img src=""img/land5.png"" style=""width:200px; border:14px solid green;"">","null","","","","","","","","","",""
"","image-keyboard-response","86","34932","0.0-86.0","3P529IW9KZ7F8RLNQQ9MQJ43BGQLFL","A299UKNV45FVI6","38DCH97KHHO4I6P2AJ31XKZ17OGJQZ","","47","img/land5.png","75","49","2","1","1","1","1,0.5,0.5,0.5,1,0.5,0.5,0.5,1","1,0.5,0.5,0.5,1,0.5,0.5,0.5,1","1","",""
"","html-keyboard-response","87","35394","0.0-87.0","3P529IW9KZ7F8RLNQQ9MQJ43BGQLFL","A299UKNV45FVI6","38DCH97KHHO4I6P2AJ31XKZ17OGJQZ","","null","<img src=""img/land5.png"" style=""width:200px; border:14px solid green;"">","null","","","","","","","","","",""
"","image-keyboard-response","88","35453","0.0-88.0","3P529IW9KZ7F8RLNQQ9MQJ43BGQLFL","A299UKNV45FVI6","38DCH97KHHO4I6P2AJ31XKZ17OGJQZ","","54","img/land3.png","74","59","1","0","3","1","1,0.5,0.5,0.5,1,0.5,0.5,0.5,1","1,0.5,0.5,0.5,1,0.5,0.5,0.5,1","1","",""
"","html-keyboard-response","89","35759","0.0-89.0","3P529IW9KZ7F8RLNQQ9MQJ43BGQLFL","A299UKNV45FVI6","38DCH97KHHO4I6P2AJ31XKZ17OGJQZ","","null","<img src=""img/land3.png"" style=""width:200px;border:14px solid red;"">","null","","","","","","","","","",""
"","image-keyboard-response","90","35875","0.0-90.0","3P529IW9KZ7F8RLNQQ9MQJ43BGQLFL","A299UKNV45FVI6","38DCH97KHHO4I6P2AJ31XKZ17OGJQZ","","114","img/land4.png","74","115","1","0","2","1","1,0.5,0.5,0.5,1,0.5,0.5,0.5,1","1,0.5,0.5,0.5,1,0.5,0.5,0.5,1","1","",""
"","html-keyboard-response","91","36178","0.0-91.0","3P529IW9KZ7F8RLNQQ9MQJ43BGQLFL","A299UKNV45FVI6","38DCH97KHHO4I6P2AJ31XKZ17OGJQZ","","null","<img src=""img/land4.png"" style=""width:200px;border:14px solid red;"">","null","","","","","","","","","",""
"","image-keyboard-response","92","36329","0.0-92.0","3P529IW9KZ7F8RLNQQ9MQJ43BGQLFL","A299UKNV45FVI6","38DCH97KHHO4I6P2AJ31XKZ17OGJQZ","","148","img/land4.png","74","150","1","1","2","1","1,0.5,0.5,0.5,1,0.5,0.5,0.5,1","1,0.5,0.5,0.5,1,0.5,0.5,0.5,1","1","",""
"","html-keyboard-response","93","36713","0.0-93.0","3P529IW9KZ7F8RLNQQ9MQJ43BGQLFL","A299UKNV45FVI6","38DCH97KHHO4I6P2AJ31XKZ17OGJQZ","","null","<img src=""img/land4.png"" style=""width:200px; border:14px solid green;"">","null","","","","","","","","","",""
"","image-keyboard-response","94","36748","0.0-94.0","3P529IW9KZ7F8RLNQQ9MQJ43BGQLFL","A299UKNV45FVI6","38DCH97KHHO4I6P2AJ31XKZ17OGJQZ","","35","img/land5.png","74","35","1","1","1","1","1,0.5,0.5,0.5,1,0.5,0.5,0.5,1","1,0.5,0.5,0.5,1,0.5,0.5,0.5,1","1","",""
"","html-keyboard-response","95","37051","0.0-95.0","3P529IW9KZ7F8RLNQQ9MQJ43BGQLFL","A299UKNV45FVI6","38DCH97KHHO4I6P2AJ31XKZ17OGJQZ","","null","<img src=""img/land5.png"" style=""width:200px; border:14px solid green;"">","null","","","","","","","","","",""
"","image-keyboard-response","96","37233","0.0-96.0","3P529IW9KZ7F8RLNQQ9MQJ43BGQLFL","A299UKNV45FVI6","38DCH97KHHO4I6P2AJ31XKZ17OGJQZ","","179","img/land5.png","74","180","1","1","1","1","1,0.5,0.5,0.5,1,0.5,0.5,0.5,1","1,0.5,0.5,0.5,1,0.5,0.5,0.5,1","1","",""
"","html-keyboard-response","97","37534","0.0-97.0","3P529IW9KZ7F8RLNQQ9MQJ43BGQLFL","A299UKNV45FVI6","38DCH97KHHO4I6P2AJ31XKZ17OGJQZ","","null","<img src=""img/land5.png"" style=""width:200px; border:14px solid green;"">","null","","","","","","","","","",""
"","image-keyboard-response","98","37559","0.0-98.0","3P529IW9KZ7F8RLNQQ9MQJ43BGQLFL","A299UKNV45FVI6","38DCH97KHHO4I6P2AJ31XKZ17OGJQZ","","19","img/land5.png","75","22","2","0","1","1","1,0.5,0.5,0.5,1,0.5,0.5,0.5,1","1,0.5,0.5,0.5,1,0.5,0.5,0.5,1","1","",""
"","html-keyboard-response","99","37985","0.0-99.0","3P529IW9KZ7F8RLNQQ9MQJ43BGQLFL","A299UKNV45FVI6","38DCH97KHHO4I6P2AJ31XKZ17OGJQZ","","null","<img src=""img/land5.png"" style=""width:200px;border:14px solid red;"">","null","","","","","","","","","",""
"","image-keyboard-response","100","38103","0.0-100.0","3P529IW9KZ7F8RLNQQ9MQJ43BGQLFL","A299UKNV45FVI6","38DCH97KHHO4I6P2AJ31XKZ17OGJQZ","","116","img/land4.png","74","118","1","1","2","1","1,0.5,0.5,0.5,1,0.5,0.5,0.5,1","1,0.5,0.5,0.5,1,0.5,0.5,0.5,1","1","",""
"","html-keyboard-response","101","38405","0.0-101.0","3P529IW9KZ7F8RLNQQ9MQJ43BGQLFL","A299UKNV45FVI6","38DCH97KHHO4I6P2AJ31XKZ17OGJQZ","","null","<img src=""img/land4.png"" style=""width:200px; border:14px solid green;"">","null","","","","","","","","","",""
"","image-keyboard-response","102","38504","0.0-102.0","3P529IW9KZ7F8RLNQQ9MQJ43BGQLFL","A299UKNV45FVI6","38DCH97KHHO4I6P2AJ31XKZ17OGJQZ","","95","img/land3.png","75","97","2","0","3","1","1,0.5,0.5,0.5,1,0.5,0.5,0.5,1","1,0.5,0.5,0.5,1,0.5,0.5,0.5,1","1","",""
"","html-keyboard-response","103","38806","0.0-103.0","3P529IW9KZ7F8RLNQQ9MQJ43BGQLFL","A299UKNV45FVI6","38DCH97KHHO4I6P2AJ31XKZ17OGJQZ","","null","<img src=""img/land3.png"" style=""width:200px;border:14px solid red;"">","null","","","","","","","","","",""
"","image-keyboard-response","104","38852","0.0-104.0","3P529IW9KZ7F8RLNQQ9MQJ43BGQLFL","A299UKNV45FVI6","38DCH97KHHO4I6P2AJ31XKZ17OGJQZ","","42","img/land4.png","75","45","2","1","2","1","1,0.5,0.5,0.5,1,0.5,0.5,0.5,1","1,0.5,0.5,0.5,1,0.5,0.5,0.5,1","1","",""
"","html-keyboard-response","105","39155","0.0-105.0","3P529IW9KZ7F8RLNQQ9MQJ43BGQLFL","A299UKNV45FVI6","38DCH97KHHO4I6P2AJ31XKZ17OGJQZ","","null","<img src=""img/land4.png"" style=""width:200px; border:14px solid green;"">","null","","","","","","","","","",""
"","image-keyboard-response","106","39235","0.0-106.0","3P529IW9KZ7F8RLNQQ9MQJ43BGQLFL","A299UKNV45FVI6","38DCH97KHHO4I6P2AJ31XKZ17OGJQZ","","77","img/land5.png","75","79","2","1","1","1","1,0.5,0.5,0.5,1,0.5,0.5,0.5,1","1,0.5,0.5,0.5,1,0.5,0.5,0.5,1","1","",""
"","html-keyboard-response","107","39683","0.0-107.0","3P529IW9KZ7F8RLNQQ9MQJ43BGQLFL","A299UKNV45FVI6","38DCH97KHHO4I6P2AJ31XKZ17OGJQZ","","null","<img src=""img/land5.png"" style=""width:200px; border:14px solid green;"">","null","","","","","","","","","",""
"","image-keyboard-response","108","39710","0.0-108.0","3P529IW9KZ7F8RLNQQ9MQJ43BGQLFL","A299UKNV45FVI6","38DCH97KHHO4I6P2AJ31XKZ17OGJQZ","","26","img/land4.png","74","26","1","1","2","1","1,0.5,0.5,0.5,1,0.5,0.5,0.5,1","1,0.5,0.5,0.5,1,0.5,0.5,0.5,1","1","",""
"","html-keyboard-response","109","40011","0.0-109.0","3P529IW9KZ7F8RLNQQ9MQJ43BGQLFL","A299UKNV45FVI6","38DCH97KHHO4I6P2AJ31XKZ17OGJQZ","","null","<img src=""img/land4.png"" style=""width:200px; border:14px solid green;"">","null","","","","","","","","","",""
"","image-keyboard-response","110","40118","0.0-110.0","3P529IW9KZ7F8RLNQQ9MQJ43BGQLFL","A299UKNV45FVI6","38DCH97KHHO4I6P2AJ31XKZ17OGJQZ","","103","img/land5.png","75","105","2","0","1","1","1,0.5,0.5,0.5,1,0.5,0.5,0.5,1","1,0.5,0.5,0.5,1,0.5,0.5,0.5,1","1","",""
"","html-keyboard-response","111","40420","0.0-111.0","3P529IW9KZ7F8RLNQQ9MQJ43BGQLFL","A299UKNV45FVI6","38DCH97KHHO4I6P2AJ31XKZ17OGJQZ","","null","<img src=""img/land5.png"" style=""width:200px;border:14px solid red;"">","null","","","","","","","","","",""
"","image-keyboard-response","112","40444","0.0-112.0","3P529IW9KZ7F8RLNQQ9MQJ43BGQLFL","A299UKNV45FVI6","38DCH97KHHO4I6P2AJ31XKZ17OGJQZ","","21","img/land4.png","74","23","1","0","2","1","1,0.5,0.5,0.5,1,0.5,0.5,0.5,1","1,0.5,0.5,0.5,1,0.5,0.5,0.5,1","1","",""
"","html-keyboard-response","113","40748","0.0-113.0","3P529IW9KZ7F8RLNQQ9MQJ43BGQLFL","A299UKNV45FVI6","38DCH97KHHO4I6P2AJ31XKZ17OGJQZ","","null","<img src=""img/land4.png"" style=""width:200px;border:14px solid red;"">","null","","","","","","","","","",""
"","image-keyboard-response","114","40821","0.0-114.0","3P529IW9KZ7F8RLNQQ9MQJ43BGQLFL","A299UKNV45FVI6","38DCH97KHHO4I6P2AJ31XKZ17OGJQZ","","69","img/land5.png","75","71","2","1","1","1","1,0.5,0.5,0.5,1,0.5,0.5,0.5,1","1,0.5,0.5,0.5,1,0.5,0.5,0.5,1","1","",""
"","html-keyboard-response","115","41127","0.0-115.0","3P529IW9KZ7F8RLNQQ9MQJ43BGQLFL","A299UKNV45FVI6","38DCH97KHHO4I6P2AJ31XKZ17OGJQZ","","null","<img src=""img/land5.png"" style=""width:200px; border:14px solid green;"">","null","","","","","","","","","",""
"","image-keyboard-response","116","41337","0.0-116.0","3P529IW9KZ7F8RLNQQ9MQJ43BGQLFL","A299UKNV45FVI6","38DCH97KHHO4I6P2AJ31XKZ17OGJQZ","","209","img/land4.png","74","210","1","0","2","1","1,0.5,0.5,0.5,1,0.5,0.5,0.5,1","1,0.5,0.5,0.5,1,0.5,0.5,0.5,1","1","",""
"","html-keyboard-response","117","41638","0.0-117.0","3P529IW9KZ7F8RLNQQ9MQJ43BGQLFL","A299UKNV45FVI6","38DCH97KHHO4I6P2AJ31XKZ17OGJQZ","","null","<img src=""img/land4.png"" style=""width:200px;border:14px solid red;"">","null","","","","","","","","","",""
"","image-keyboard-response","118","41739","0.0-118.0","3P529IW9KZ7F8RLNQQ9MQJ43BGQLFL","A299UKNV45FVI6","38DCH97KHHO4I6P2AJ31XKZ17OGJQZ","","97","img/land5.png","75","99","2","0","1","1","1,0.5,0.5,0.5,1,0.5,0.5,0.5,1","1,0.5,0.5,0.5,1,0.5,0.5,0.5,1","1","",""
"","html-keyboard-response","119","42041","0.0-119.0","3P529IW9KZ7F8RLNQQ9MQJ43BGQLFL","A299UKNV45FVI6","38DCH97KHHO4I6P2AJ31XKZ17OGJQZ","","null","<img src=""img/land5.png"" style=""width:200px;border:14px solid red;"">","null","","","","","","","","","",""
"","image-keyboard-response","120","42173","0.0-120.0","3P529IW9KZ7F8RLNQQ9MQJ43BGQLFL","A299UKNV45FVI6","38DCH97KHHO4I6P2AJ31XKZ17OGJQZ","","130","img/land3.png","75","131","2","0","3","1","1,0.5,0.5,0.5,1,0.5,0.5,0.5,1","1,0.5,0.5,0.5,1,0.5,0.5,0.5,1","1","",""
"","html-keyboard-response","121","42478","0.0-121.0","3P529IW9KZ7F8RLNQQ9MQJ43BGQLFL","A299UKNV45FVI6","38DCH97KHHO4I6P2AJ31XKZ17OGJQZ","","null","<img src=""img/land3.png"" style=""width:200px;border:14px solid red;"">","null","","","","","","","","","",""
"","image-keyboard-response","122","42594","0.0-122.0","3P529IW9KZ7F8RLNQQ9MQJ43BGQLFL","A299UKNV45FVI6","38DCH97KHHO4I6P2AJ31XKZ17OGJQZ","","107","img/land4.png","75","112","2","1","2","1","1,0.5,0.5,0.5,1,0.5,0.5,0.5,1","1,0.5,0.5,0.5,1,0.5,0.5,0.5,1","1","",""
"","html-keyboard-response","123","42898","0.0-123.0","3P529IW9KZ7F8RLNQQ9MQJ43BGQLFL","A299UKNV45FVI6","38DCH97KHHO4I6P2AJ31XKZ17OGJQZ","","null","<img src=""img/land4.png"" style=""width:200px; border:14px solid green;"">","null","","","","","","","","","",""
"","image-keyboard-response","124","42978","0.0-124.0","3P529IW9KZ7F8RLNQQ9MQJ43BGQLFL","A299UKNV45FVI6","38DCH97KHHO4I6P2AJ31XKZ17OGJQZ","","78","img/land5.png","75","79","2","1","1","1","1,0.5,0.5,0.5,1,0.5,0.5,0.5,1","1,0.5,0.5,0.5,1,0.5,0.5,0.5,1","1","",""
"","html-keyboard-response","125","43281","0.0-125.0","3P529IW9KZ7F8RLNQQ9MQJ43BGQLFL","A299UKNV45FVI6","38DCH97KHHO4I6P2AJ31XKZ17OGJQZ","","null","<img src=""img/land5.png"" style=""width:200px; border:14px solid green;"">","null","","","","","","","","","",""
"","image-keyboard-response","126","43377","0.0-126.0","3P529IW9KZ7F8RLNQQ9MQJ43BGQLFL","A299UKNV45FVI6","38DCH97KHHO4I6P2AJ31XKZ17OGJQZ","","94","img/land4.png","76","94","3","0","2","1","1,0.5,0.5,0.5,1,0.5,0.5,0.5,1","1,0.5,0.5,0.5,1,0.5,0.5,0.5,1","1","",""
"","html-keyboard-response","127","43680","0.0-127.0","3P529IW9KZ7F8RLNQQ9MQJ43BGQLFL","A299UKNV45FVI6","38DCH97KHHO4I6P2AJ31XKZ17OGJQZ","","null","<img src=""img/land4.png"" style=""width:200px;border:14px solid red;"">","null","","","","","","","","","",""
"","image-keyboard-response","128","43847","0.0-128.0","3P529IW9KZ7F8RLNQQ9MQJ43BGQLFL","A299UKNV45FVI6","38DCH97KHHO4I6P2AJ31XKZ17OGJQZ","","165","img/land3.png","76","166","3","1","3","1","1,0.5,0.5,0.5,1,0.5,0.5,0.5,1","1,0.5,0.5,0.5,1,0.5,0.5,0.5,1","1","",""
"","html-keyboard-response","129","44153","0.0-129.0","3P529IW9KZ7F8RLNQQ9MQJ43BGQLFL","A299UKNV45FVI6","38DCH97KHHO4I6P2AJ31XKZ17OGJQZ","","null","<img src=""img/land3.png"" style=""width:200px; border:14px solid green;"">","null","","","","","","","","","",""
"","image-keyboard-response","130","44260","0.0-130.0","3P529IW9KZ7F8RLNQQ9MQJ43BGQLFL","A299UKNV45FVI6","38DCH97KHHO4I6P2AJ31XKZ17OGJQZ","","98","img/land3.png","76","104","3","1","3","1","1,0.5,0.5,0.5,1,0.5,0.5,0.5,1","1,0.5,0.5,0.5,1,0.5,0.5,0.5,1","1","",""
"","html-keyboard-response","131","44565","0.0-131.0","3P529IW9KZ7F8RLNQQ9MQJ43BGQLFL","A299UKNV45FVI6","38DCH97KHHO4I6P2AJ31XKZ17OGJQZ","","null","<img src=""img/land3.png"" style=""width:200px; border:14px solid green;"">","null","","","","","","","","","",""
"","image-keyboard-response","132","44590","0.0-132.0","3P529IW9KZ7F8RLNQQ9MQJ43BGQLFL","A299UKNV45FVI6","38DCH97KHHO4I6P2AJ31XKZ17OGJQZ","","25","img/land3.png","76","26","3","1","3","1","1,0.5,0.5,0.5,1,0.5,0.5,0.5,1","1,0.5,0.5,0.5,1,0.5,0.5,0.5,1","1","",""
"","html-keyboard-response","133","44898","0.0-133.0","3P529IW9KZ7F8RLNQQ9MQJ43BGQLFL","A299UKNV45FVI6","38DCH97KHHO4I6P2AJ31XKZ17OGJQZ","","null","<img src=""img/land3.png"" style=""width:200px; border:14px solid green;"">","null","","","","","","","","","",""
"","image-keyboard-response","134","44907","0.0-134.0","3P529IW9KZ7F8RLNQQ9MQJ43BGQLFL","A299UKNV45FVI6","38DCH97KHHO4I6P2AJ31XKZ17OGJQZ","","2","img/land3.png","74","5","1","1","3","1","1,0.5,0.5,0.5,1,0.5,0.5,0.5,1","1,0.5,0.5,0.5,1,0.5,0.5,0.5,1","1","",""
"","html-keyboard-response","135","45212","0.0-135.0","3P529IW9KZ7F8RLNQQ9MQJ43BGQLFL","A299UKNV45FVI6","38DCH97KHHO4I6P2AJ31XKZ17OGJQZ","","null","<img src=""img/land3.png"" style=""width:200px; border:14px solid green;"">","null","","","","","","","","","",""
"","image-keyboard-response","136","45282","0.0-136.0","3P529IW9KZ7F8RLNQQ9MQJ43BGQLFL","A299UKNV45FVI6","38DCH97KHHO4I6P2AJ31XKZ17OGJQZ","","67","img/land3.png","74","68","1","1","3","1","1,0.5,0.5,0.5,1,0.5,0.5,0.5,1","1,0.5,0.5,0.5,1,0.5,0.5,0.5,1","1","",""
"","html-keyboard-response","137","45582","0.0-137.0","3P529IW9KZ7F8RLNQQ9MQJ43BGQLFL","A299UKNV45FVI6","38DCH97KHHO4I6P2AJ31XKZ17OGJQZ","","null","<img src=""img/land3.png"" style=""width:200px; border:14px solid green;"">","null","","","","","","","","","",""
"","image-keyboard-response","138","45688","0.0-138.0","3P529IW9KZ7F8RLNQQ9MQJ43BGQLFL","A299UKNV45FVI6","38DCH97KHHO4I6P2AJ31XKZ17OGJQZ","","104","img/land3.png","74","105","1","1","3","1","1,0.5,0.5,0.5,1,0.5,0.5,0.5,1","1,0.5,0.5,0.5,1,0.5,0.5,0.5,1","1","",""
"","html-keyboard-response","139","45993","0.0-139.0","3P529IW9KZ7F8RLNQQ9MQJ43BGQLFL","A299UKNV45FVI6","38DCH97KHHO4I6P2AJ31XKZ17OGJQZ","","null","<img src=""img/land3.png"" style=""width:200px; border:14px solid green;"">","null","","","","","","","","","",""
"","image-keyboard-response","140","46033","0.0-140.0","3P529IW9KZ7F8RLNQQ9MQJ43BGQLFL","A299UKNV45FVI6","38DCH97KHHO4I6P2AJ31XKZ17OGJQZ","","36","img/land5.png","74","39","1","1","1","1","1,0.5,0.5,0.5,1,0.5,0.5,0.5,1","1,0.5,0.5,0.5,1,0.5,0.5,0.5,1","1","",""
"","html-keyboard-response","141","46406","0.0-141.0","3P529IW9KZ7F8RLNQQ9MQJ43BGQLFL","A299UKNV45FVI6","38DCH97KHHO4I6P2AJ31XKZ17OGJQZ","","null","<img src=""img/land5.png"" style=""width:200px; border:14px solid green;"">","null","","","","","","","","","",""
"","image-keyboard-response","142","46801","0.0-142.0","3P529IW9KZ7F8RLNQQ9MQJ43BGQLFL","A299UKNV45FVI6","38DCH97KHHO4I6P2AJ31XKZ17OGJQZ","","395","img/land3.png","74","396","1","0","3","1","1,0.5,0.5,0.5,1,0.5,0.5,0.5,1","1,0.5,0.5,0.5,1,0.5,0.5,0.5,1","1","",""
"","html-keyboard-response","143","47105","0.0-143.0","3P529IW9KZ7F8RLNQQ9MQJ43BGQLFL","A299UKNV45FVI6","38DCH97KHHO4I6P2AJ31XKZ17OGJQZ","","null","<img src=""img/land3.png"" style=""width:200px;border:14px solid red;"">","null","","","","","","","","","",""
"","image-keyboard-response","144","47136","0.0-144.0","3P529IW9KZ7F8RLNQQ9MQJ43BGQLFL","A299UKNV45FVI6","38DCH97KHHO4I6P2AJ31XKZ17OGJQZ","","28","img/land3.png","74","30","1","0","3","1","1,0.5,0.5,0.5,1,0.5,0.5,0.5,1","1,0.5,0.5,0.5,1,0.5,0.5,0.5,1","1","",""
"","html-keyboard-response","145","47445","0.0-145.0","3P529IW9KZ7F8RLNQQ9MQJ43BGQLFL","A299UKNV45FVI6","38DCH97KHHO4I6P2AJ31XKZ17OGJQZ","","null","<img src=""img/land3.png"" style=""width:200px;border:14px solid red;"">","null","","","","","","","","","",""
"","image-keyboard-response","146","47559","0.0-146.0","3P529IW9KZ7F8RLNQQ9MQJ43BGQLFL","A299UKNV45FVI6","38DCH97KHHO4I6P2AJ31XKZ17OGJQZ","","104","img/land5.png","74","106","1","1","1","1","1,0.5,0.5,0.5,1,0.5,0.5,0.5,1","1,0.5,0.5,0.5,1,0.5,0.5,0.5,1","1","",""
"","html-keyboard-response","147","47981","0.0-147.0","3P529IW9KZ7F8RLNQQ9MQJ43BGQLFL","A299UKNV45FVI6","38DCH97KHHO4I6P2AJ31XKZ17OGJQZ","","null","<img src=""img/land5.png"" style=""width:200px; border:14px solid green;"">","null","","","","","","","","","",""
"","image-keyboard-response","148","48066","0.0-148.0","3P529IW9KZ7F8RLNQQ9MQJ43BGQLFL","A299UKNV45FVI6","38DCH97KHHO4I6P2AJ31XKZ17OGJQZ","","84","img/land5.png","74","85","1","1","1","1","1,0.5,0.5,0.5,1,0.5,0.5,0.5,1","1,0.5,0.5,0.5,1,0.5,0.5,0.5,1","1","",""
"","html-keyboard-response","149","48368","0.0-149.0","3P529IW9KZ7F8RLNQQ9MQJ43BGQLFL","A299UKNV45FVI6","38DCH97KHHO4I6P2AJ31XKZ17OGJQZ","","null","<img src=""img/land5.png"" style=""width:200px; border:14px solid green;"">","null","","","","","","","","","",""
"","image-keyboard-response","150","48371","0.0-150.0","3P529IW9KZ7F8RLNQQ9MQJ43BGQLFL","A299UKNV45FVI6","38DCH97KHHO4I6P2AJ31XKZ17OGJQZ","","1","img/land3.png","74","2","1","1","3","1","1,0.5,0.5,0.5,1,0.5,0.5,0.5,1","1,0.5,0.5,0.5,1,0.5,0.5,0.5,1","1","",""
"","html-keyboard-response","151","48676","0.0-151.0","3P529IW9KZ7F8RLNQQ9MQJ43BGQLFL","A299UKNV45FVI6","38DCH97KHHO4I6P2AJ31XKZ17OGJQZ","","null","<img src=""img/land3.png"" style=""width:200px; border:14px solid green;"">","null","","","","","","","","","",""
"","image-keyboard-response","152","48808","0.0-152.0","3P529IW9KZ7F8RLNQQ9MQJ43BGQLFL","A299UKNV45FVI6","38DCH97KHHO4I6P2AJ31XKZ17OGJQZ","","128","img/land4.png","75","130","2","1","2","1","1,0.5,0.5,0.5,1,0.5,0.5,0.5,1","1,0.5,0.5,0.5,1,0.5,0.5,0.5,1","1","",""
"","html-keyboard-response","153","49113","0.0-153.0","3P529IW9KZ7F8RLNQQ9MQJ43BGQLFL","A299UKNV45FVI6","38DCH97KHHO4I6P2AJ31XKZ17OGJQZ","","null","<img src=""img/land4.png"" style=""width:200px; border:14px solid green;"">","null","","","","","","","","","",""
"","image-keyboard-response","154","49190","0.0-154.0","3P529IW9KZ7F8RLNQQ9MQJ43BGQLFL","A299UKNV45FVI6","38DCH97KHHO4I6P2AJ31XKZ17OGJQZ","","76","img/land5.png","74","76","1","1","1","1","1,0.5,0.5,0.5,1,0.5,0.5,0.5,1","1,0.5,0.5,0.5,1,0.5,0.5,0.5,1","1","",""
"","html-keyboard-response","155","49490","0.0-155.0","3P529IW9KZ7F8RLNQQ9MQJ43BGQLFL","A299UKNV45FVI6","38DCH97KHHO4I6P2AJ31XKZ17OGJQZ","","null","<img src=""img/land5.png"" style=""width:200px; border:14px solid green;"">","null","","","","","","","","","",""
"","image-keyboard-response","156","49567","0.0-156.0","3P529IW9KZ7F8RLNQQ9MQJ43BGQLFL","A299UKNV45FVI6","38DCH97KHHO4I6P2AJ31XKZ17OGJQZ","","74","img/land5.png","74","77","1","1","1","1","1,0.5,0.5,0.5,1,0.5,0.5,0.5,1","1,0.5,0.5,0.5,1,0.5,0.5,0.5,1","1","",""
"","html-keyboard-response","157","49875","0.0-157.0","3P529IW9KZ7F8RLNQQ9MQJ43BGQLFL","A299UKNV45FVI6","38DCH97KHHO4I6P2AJ31XKZ17OGJQZ","","null","<img src=""img/land5.png"" style=""width:200px; border:14px solid green;"">","null","","","","","","","","","",""
"","image-keyboard-response","158","49964","0.0-158.0","3P529IW9KZ7F8RLNQQ9MQJ43BGQLFL","A299UKNV45FVI6","38DCH97KHHO4I6P2AJ31XKZ17OGJQZ","","85","img/land3.png","74","87","1","0","3","1","1,0.5,0.5,0.5,1,0.5,0.5,0.5,1","1,0.5,0.5,0.5,1,0.5,0.5,0.5,1","1","",""
"","html-keyboard-response","159","50272","0.0-159.0","3P529IW9KZ7F8RLNQQ9MQJ43BGQLFL","A299UKNV45FVI6","38DCH97KHHO4I6P2AJ31XKZ17OGJQZ","","null","<img src=""img/land3.png"" style=""width:200px;border:14px solid red;"">","null","","","","","","","","","",""
"","image-keyboard-response","160","50343","0.0-160.0","3P529IW9KZ7F8RLNQQ9MQJ43BGQLFL","A299UKNV45FVI6","38DCH97KHHO4I6P2AJ31XKZ17OGJQZ","","67","img/land3.png","76","69","3","1","3","1","1,0.5,0.5,0.5,1,0.5,0.5,0.5,1","1,0.5,0.5,0.5,1,0.5,0.5,0.5,1","1","",""
"","html-keyboard-response","161","50681","0.0-161.0","3P529IW9KZ7F8RLNQQ9MQJ43BGQLFL","A299UKNV45FVI6","38DCH97KHHO4I6P2AJ31XKZ17OGJQZ","","null","<img src=""img/land3.png"" style=""width:200px; border:14px solid green;"">","null","","","","","","","","","",""
"","image-keyboard-response","162","50741","0.0-162.0","3P529IW9KZ7F8RLNQQ9MQJ43BGQLFL","A299UKNV45FVI6","38DCH97KHHO4I6P2AJ31XKZ17OGJQZ","","42","img/land3.png","74","45","1","0","3","1","1,0.5,0.5,0.5,1,0.5,0.5,0.5,1","1,0.5,0.5,0.5,1,0.5,0.5,0.5,1","1","",""
"","html-keyboard-response","163","51043","0.0-163.0","3P529IW9KZ7F8RLNQQ9MQJ43BGQLFL","A299UKNV45FVI6","38DCH97KHHO4I6P2AJ31XKZ17OGJQZ","","null","<img src=""img/land3.png"" style=""width:200px;border:14px solid red;"">","null","","","","","","","","","",""
"","image-keyboard-response","164","51142","0.0-164.0","3P529IW9KZ7F8RLNQQ9MQJ43BGQLFL","A299UKNV45FVI6","38DCH97KHHO4I6P2AJ31XKZ17OGJQZ","","95","img/land4.png","74","97","1","0","2","1","1,0.5,0.5,0.5,1,0.5,0.5,0.5,1","1,0.5,0.5,0.5,1,0.5,0.5,0.5,1","1","",""
"","html-keyboard-response","165","51449","0.0-165.0","3P529IW9KZ7F8RLNQQ9MQJ43BGQLFL","A299UKNV45FVI6","38DCH97KHHO4I6P2AJ31XKZ17OGJQZ","","null","<img src=""img/land4.png"" style=""width:200px;border:14px solid red;"">","null","","","","","","","","","",""
"","image-keyboard-response","166","51534","0.0-166.0","3P529IW9KZ7F8RLNQQ9MQJ43BGQLFL","A299UKNV45FVI6","38DCH97KHHO4I6P2AJ31XKZ17OGJQZ","","80","img/land5.png","74","83","1","1","1","1","1,0.5,0.5,0.5,1,0.5,0.5,0.5,1","1,0.5,0.5,0.5,1,0.5,0.5,0.5,1","1","",""
"","html-keyboard-response","167","51836","0.0-167.0","3P529IW9KZ7F8RLNQQ9MQJ43BGQLFL","A299UKNV45FVI6","38DCH97KHHO4I6P2AJ31XKZ17OGJQZ","","null","<img src=""img/land5.png"" style=""width:200px; border:14px solid green;"">","null","","","","","","","","","",""
"","image-keyboard-response","168","51920","0.0-168.0","3P529IW9KZ7F8RLNQQ9MQJ43BGQLFL","A299UKNV45FVI6","38DCH97KHHO4I6P2AJ31XKZ17OGJQZ","","80","img/land4.png","74","82","1","1","2","1","1,0.5,0.5,0.5,1,0.5,0.5,0.5,1","1,0.5,0.5,0.5,1,0.5,0.5,0.5,1","1","",""
"","html-keyboard-response","169","52223","0.0-169.0","3P529IW9KZ7F8RLNQQ9MQJ43BGQLFL","A299UKNV45FVI6","38DCH97KHHO4I6P2AJ31XKZ17OGJQZ","","null","<img src=""img/land4.png"" style=""width:200px; border:14px solid green;"">","null","","","","","","","","","",""
"","image-keyboard-response","170","52302","0.0-170.0","3P529IW9KZ7F8RLNQQ9MQJ43BGQLFL","A299UKNV45FVI6","38DCH97KHHO4I6P2AJ31XKZ17OGJQZ","","75","img/land5.png","74","77","1","1","1","1","1,0.5,0.5,0.5,1,0.5,0.5,0.5,1","1,0.5,0.5,0.5,1,0.5,0.5,0.5,1","1","",""
"","html-keyboard-response","171","52607","0.0-171.0","3P529IW9KZ7F8RLNQQ9MQJ43BGQLFL","A299UKNV45FVI6","38DCH97KHHO4I6P2AJ31XKZ17OGJQZ","","null","<img src=""img/land5.png"" style=""width:200px; border:14px solid green;"">","null","","","","","","","","","",""
"","image-keyboard-response","172","52704","0.0-172.0","3P529IW9KZ7F8RLNQQ9MQJ43BGQLFL","A299UKNV45FVI6","38DCH97KHHO4I6P2AJ31XKZ17OGJQZ","","94","img/land3.png","74","96","1","1","3","1","1,0.5,0.5,0.5,1,0.5,0.5,0.5,1","1,0.5,0.5,0.5,1,0.5,0.5,0.5,1","1","",""
"","html-keyboard-response","173","53008","0.0-173.0","3P529IW9KZ7F8RLNQQ9MQJ43BGQLFL","A299UKNV45FVI6","38DCH97KHHO4I6P2AJ31XKZ17OGJQZ","","null","<img src=""img/land3.png"" style=""width:200px; border:14px solid green;"">","null","","","","","","","","","",""
"","image-keyboard-response","174","53082","0.0-174.0","3P529IW9KZ7F8RLNQQ9MQJ43BGQLFL","A299UKNV45FVI6","38DCH97KHHO4I6P2AJ31XKZ17OGJQZ","","63","img/land4.png","74","65","1","1","2","1","1,0.5,0.5,0.5,1,0.5,0.5,0.5,1","1,0.5,0.5,0.5,1,0.5,0.5,0.5,1","1","",""
"","html-keyboard-response","175","53388","0.0-175.0","3P529IW9KZ7F8RLNQQ9MQJ43BGQLFL","A299UKNV45FVI6","38DCH97KHHO4I6P2AJ31XKZ17OGJQZ","","null","<img src=""img/land4.png"" style=""width:200px; border:14px solid green;"">","null","","","","","","","","","",""
"","image-keyboard-response","176","53449","0.0-176.0","3P529IW9KZ7F8RLNQQ9MQJ43BGQLFL","A299UKNV45FVI6","38DCH97KHHO4I6P2AJ31XKZ17OGJQZ","","60","img/land5.png","74","61","1","1","1","1","1,0.5,0.5,0.5,1,0.5,0.5,0.5,1","1,0.5,0.5,0.5,1,0.5,0.5,0.5,1","1","",""
"","html-keyboard-response","177","53751","0.0-177.0","3P529IW9KZ7F8RLNQQ9MQJ43BGQLFL","A299UKNV45FVI6","38DCH97KHHO4I6P2AJ31XKZ17OGJQZ","","null","<img src=""img/land5.png"" style=""width:200px; border:14px solid green;"">","null","","","","","","","","","",""
"","image-keyboard-response","178","53782","0.0-178.0","3P529IW9KZ7F8RLNQQ9MQJ43BGQLFL","A299UKNV45FVI6","38DCH97KHHO4I6P2AJ31XKZ17OGJQZ","","30","img/land4.png","74","30","1","1","2","1","1,0.5,0.5,0.5,1,0.5,0.5,0.5,1","1,0.5,0.5,0.5,1,0.5,0.5,0.5,1","1","",""
"","html-keyboard-response","179","54084","0.0-179.0","3P529IW9KZ7F8RLNQQ9MQJ43BGQLFL","A299UKNV45FVI6","38DCH97KHHO4I6P2AJ31XKZ17OGJQZ","","null","<img src=""img/land4.png"" style=""width:200px; border:14px solid green;"">","null","","","","","","","","","",""
"","image-keyboard-response","180","54254","0.0-180.0","3P529IW9KZ7F8RLNQQ9MQJ43BGQLFL","A299UKNV45FVI6","38DCH97KHHO4I6P2AJ31XKZ17OGJQZ","","165","img/land3.png","74","170","1","0","3","1","1,0.5,0.5,0.5,1,0.5,0.5,0.5,1","1,0.5,0.5,0.5,1,0.5,0.5,0.5,1","1","",""
"","html-keyboard-response","181","54562","0.0-181.0","3P529IW9KZ7F8RLNQQ9MQJ43BGQLFL","A299UKNV45FVI6","38DCH97KHHO4I6P2AJ31XKZ17OGJQZ","","null","<img src=""img/land3.png"" style=""width:200px;border:14px solid red;"">","null","","","","","","","","","",""
"","html-keyboard-response","182","57575","0.0-182.0","3P529IW9KZ7F8RLNQQ9MQJ43BGQLFL","A299UKNV45FVI6","38DCH97KHHO4I6P2AJ31XKZ17OGJQZ","","","","","","","","","","","","","",""
"","image-keyboard-response","183","57906","0.0-183.0","3P529IW9KZ7F8RLNQQ9MQJ43BGQLFL","A299UKNV45FVI6","38DCH97KHHO4I6P2AJ31XKZ17OGJQZ","","323","img/land2.png","76","330","3","1","2","2","1,0.5,0.5,0.5,1,0.5,0.5,0.5,1","0.5,0.5,1,1,0.5,0.5,0.5,1,0.5","2","",""
"","html-keyboard-response","184","58220","0.0-184.0","3P529IW9KZ7F8RLNQQ9MQJ43BGQLFL","A299UKNV45FVI6","38DCH97KHHO4I6P2AJ31XKZ17OGJQZ","","null","<img src=""img/land2.png"" style=""width:200px; border:14px solid green;"">","null","","","","","","","","","",""
"","image-keyboard-response","185","58279","0.0-185.0","3P529IW9KZ7F8RLNQQ9MQJ43BGQLFL","A299UKNV45FVI6","38DCH97KHHO4I6P2AJ31XKZ17OGJQZ","","58","img/land6.png","74","62","1","0","1","2","1,0.5,0.5,0.5,1,0.5,0.5,0.5,1","0.5,0.5,1,1,0.5,0.5,0.5,1,0.5","2","",""
"","html-keyboard-response","186","58587","0.0-186.0","3P529IW9KZ7F8RLNQQ9MQJ43BGQLFL","A299UKNV45FVI6","38DCH97KHHO4I6P2AJ31XKZ17OGJQZ","","null","<img src=""img/land6.png"" style=""width:200px;border:14px solid red;"">","null","","","","","","","","","",""
"","image-keyboard-response","187","58642","0.0-187.0","3P529IW9KZ7F8RLNQQ9MQJ43BGQLFL","A299UKNV45FVI6","38DCH97KHHO4I6P2AJ31XKZ17OGJQZ","","53","img/land6.png","74","54","1","1","1","2","1,0.5,0.5,0.5,1,0.5,0.5,0.5,1","0.5,0.5,1,1,0.5,0.5,0.5,1,0.5","2","",""
"","html-keyboard-response","188","58951","0.0-188.0","3P529IW9KZ7F8RLNQQ9MQJ43BGQLFL","A299UKNV45FVI6","38DCH97KHHO4I6P2AJ31XKZ17OGJQZ","","null","<img src=""img/land6.png"" style=""width:200px; border:14px solid green;"">","null","","","","","","","","","",""
"","image-keyboard-response","189","58988","0.0-189.0","3P529IW9KZ7F8RLNQQ9MQJ43BGQLFL","A299UKNV45FVI6","38DCH97KHHO4I6P2AJ31XKZ17OGJQZ","","30","img/land6.png","74","33","1","1","1","2","1,0.5,0.5,0.5,1,0.5,0.5,0.5,1","0.5,0.5,1,1,0.5,0.5,0.5,1,0.5","2","",""
"","html-keyboard-response","190","59420","0.0-190.0","3P529IW9KZ7F8RLNQQ9MQJ43BGQLFL","A299UKNV45FVI6","38DCH97KHHO4I6P2AJ31XKZ17OGJQZ","","null","<img src=""img/land6.png"" style=""width:200px; border:14px solid green;"">","null","","","","","","","","","",""
"","image-keyboard-response","191","59423","0.0-191.0","3P529IW9KZ7F8RLNQQ9MQJ43BGQLFL","A299UKNV45FVI6","38DCH97KHHO4I6P2AJ31XKZ17OGJQZ","","0","img/land2.png","75","1","2","1","2","2","1,0.5,0.5,0.5,1,0.5,0.5,0.5,1","0.5,0.5,1,1,0.5,0.5,0.5,1,0.5","2","",""
"","html-keyboard-response","192","59784","0.0-192.0","3P529IW9KZ7F8RLNQQ9MQJ43BGQLFL","A299UKNV45FVI6","38DCH97KHHO4I6P2AJ31XKZ17OGJQZ","","null","<img src=""img/land2.png"" style=""width:200px; border:14px solid green;"">","null","","","","","","","","","",""
"","image-keyboard-response","193","59818","0.0-193.0","3P529IW9KZ7F8RLNQQ9MQJ43BGQLFL","A299UKNV45FVI6","38DCH97KHHO4I6P2AJ31XKZ17OGJQZ","","30","img/land6.png","75","34","2","1","1","2","1,0.5,0.5,0.5,1,0.5,0.5,0.5,1","0.5,0.5,1,1,0.5,0.5,0.5,1,0.5","2","",""
"","html-keyboard-response","194","60119","0.0-194.0","3P529IW9KZ7F8RLNQQ9MQJ43BGQLFL","A299UKNV45FVI6","38DCH97KHHO4I6P2AJ31XKZ17OGJQZ","","null","<img src=""img/land6.png"" style=""width:200px; border:14px solid green;"">","null","","","","","","","","","",""
"","image-keyboard-response","195","60267","0.0-195.0","3P529IW9KZ7F8RLNQQ9MQJ43BGQLFL","A299UKNV45FVI6","38DCH97KHHO4I6P2AJ31XKZ17OGJQZ","","148","img/land6.png","76","148","3","1","1","2","1,0.5,0.5,0.5,1,0.5,0.5,0.5,1","0.5,0.5,1,1,0.5,0.5,0.5,1,0.5","2","",""
"","html-keyboard-response","196","60615","0.0-196.0","3P529IW9KZ7F8RLNQQ9MQJ43BGQLFL","A299UKNV45FVI6","38DCH97KHHO4I6P2AJ31XKZ17OGJQZ","","null","<img src=""img/land6.png"" style=""width:200px; border:14px solid green;"">","null","","","","","","","","","",""
"","image-keyboard-response","197","60668","0.0-197.0","3P529IW9KZ7F8RLNQQ9MQJ43BGQLFL","A299UKNV45FVI6","38DCH97KHHO4I6P2AJ31XKZ17OGJQZ","","53","img/land2.png","76","53","3","1","2","2","1,0.5,0.5,0.5,1,0.5,0.5,0.5,1","0.5,0.5,1,1,0.5,0.5,0.5,1,0.5","2","",""
"","html-keyboard-response","198","60969","0.0-198.0","3P529IW9KZ7F8RLNQQ9MQJ43BGQLFL","A299UKNV45FVI6","38DCH97KHHO4I6P2AJ31XKZ17OGJQZ","","null","<img src=""img/land2.png"" style=""width:200px; border:14px solid green;"">","null","","","","","","","","","",""
"","image-keyboard-response","199","60997","0.0-199.0","3P529IW9KZ7F8RLNQQ9MQJ43BGQLFL","A299UKNV45FVI6","38DCH97KHHO4I6P2AJ31XKZ17OGJQZ","","23","img/land6.png","76","27","3","1","1","2","1,0.5,0.5,0.5,1,0.5,0.5,0.5,1","0.5,0.5,1,1,0.5,0.5,0.5,1,0.5","2","",""
"","html-keyboard-response","200","61299","0.0-200.0","3P529IW9KZ7F8RLNQQ9MQJ43BGQLFL","A299UKNV45FVI6","38DCH97KHHO4I6P2AJ31XKZ17OGJQZ","","null","<img src=""img/land6.png"" style=""width:200px; border:14px solid green;"">","null","","","","","","","","","",""
"","image-keyboard-response","201","61307","0.0-201.0","3P529IW9KZ7F8RLNQQ9MQJ43BGQLFL","A299UKNV45FVI6","38DCH97KHHO4I6P2AJ31XKZ17OGJQZ","","5","img/land1.png","74","7","1","0","3","2","1,0.5,0.5,0.5,1,0.5,0.5,0.5,1","0.5,0.5,1,1,0.5,0.5,0.5,1,0.5","2","",""
"","html-keyboard-response","202","61609","0.0-202.0","3P529IW9KZ7F8RLNQQ9MQJ43BGQLFL","A299UKNV45FVI6","38DCH97KHHO4I6P2AJ31XKZ17OGJQZ","","null","<img src=""img/land1.png"" style=""width:200px;border:14px solid red;"">","null","","","","","","","","","",""
"","image-keyboard-response","203","61665","0.0-203.0","3P529IW9KZ7F8RLNQQ9MQJ43BGQLFL","A299UKNV45FVI6","38DCH97KHHO4I6P2AJ31XKZ17OGJQZ","","54","img/land6.png","75","56","2","1","1","2","1,0.5,0.5,0.5,1,0.5,0.5,0.5,1","0.5,0.5,1,1,0.5,0.5,0.5,1,0.5","2","",""
"","html-keyboard-response","204","61970","0.0-204.0","3P529IW9KZ7F8RLNQQ9MQJ43BGQLFL","A299UKNV45FVI6","38DCH97KHHO4I6P2AJ31XKZ17OGJQZ","","null","<img src=""img/land6.png"" style=""width:200px; border:14px solid green;"">","null","","","","","","","","","",""
"","image-keyboard-response","205","62027","0.0-205.0","3P529IW9KZ7F8RLNQQ9MQJ43BGQLFL","A299UKNV45FVI6","38DCH97KHHO4I6P2AJ31XKZ17OGJQZ","","46","img/land1.png","75","52","2","1","3","2","1,0.5,0.5,0.5,1,0.5,0.5,0.5,1","0.5,0.5,1,1,0.5,0.5,0.5,1,0.5","2","",""
"","html-keyboard-response","206","62331","0.0-206.0","3P529IW9KZ7F8RLNQQ9MQJ43BGQLFL","A299UKNV45FVI6","38DCH97KHHO4I6P2AJ31XKZ17OGJQZ","","null","<img src=""img/land1.png"" style=""width:200px; border:14px solid green;"">","null","","","","","","","","","",""
"","image-keyboard-response","207","62400","0.0-207.0","3P529IW9KZ7F8RLNQQ9MQJ43BGQLFL","A299UKNV45FVI6","38DCH97KHHO4I6P2AJ31XKZ17OGJQZ","","67","img/land6.png","75","68","2","0","1","2","1,0.5,0.5,0.5,1,0.5,0.5,0.5,1","0.5,0.5,1,1,0.5,0.5,0.5,1,0.5","2","",""
"","html-keyboard-response","208","62700","0.0-208.0","3P529IW9KZ7F8RLNQQ9MQJ43BGQLFL","A299UKNV45FVI6","38DCH97KHHO4I6P2AJ31XKZ17OGJQZ","","null","<img src=""img/land6.png"" style=""width:200px;border:14px solid red;"">","null","","","","","","","","","",""
"","image-keyboard-response","209","62731","0.0-209.0","3P529IW9KZ7F8RLNQQ9MQJ43BGQLFL","A299UKNV45FVI6","38DCH97KHHO4I6P2AJ31XKZ17OGJQZ","","27","img/land6.png","75","30","2","1","1","2","1,0.5,0.5,0.5,1,0.5,0.5,0.5,1","0.5,0.5,1,1,0.5,0.5,0.5,1,0.5","2","",""
"","html-keyboard-response","210","63088","0.0-210.0","3P529IW9KZ7F8RLNQQ9MQJ43BGQLFL","A299UKNV45FVI6","38DCH97KHHO4I6P2AJ31XKZ17OGJQZ","","null","<img src=""img/land6.png"" style=""width:200px; border:14px solid green;"">","null","","","","","","","","","",""
"","image-keyboard-response","211","63138","0.0-211.0","3P529IW9KZ7F8RLNQQ9MQJ43BGQLFL","A299UKNV45FVI6","38DCH97KHHO4I6P2AJ31XKZ17OGJQZ","","50","img/land2.png","75","50","2","1","2","2","1,0.5,0.5,0.5,1,0.5,0.5,0.5,1","0.5,0.5,1,1,0.5,0.5,0.5,1,0.5","2","",""
"","html-keyboard-response","212","63449","0.0-212.0","3P529IW9KZ7F8RLNQQ9MQJ43BGQLFL","A299UKNV45FVI6","38DCH97KHHO4I6P2AJ31XKZ17OGJQZ","","null","<img src=""img/land2.png"" style=""width:200px; border:14px solid green;"">","null","","","","","","","","","",""
"","image-keyboard-response","213","63501","0.0-213.0","3P529IW9KZ7F8RLNQQ9MQJ43BGQLFL","A299UKNV45FVI6","38DCH97KHHO4I6P2AJ31XKZ17OGJQZ","","36","img/land6.png","74","39","1","0","1","2","1,0.5,0.5,0.5,1,0.5,0.5,0.5,1","0.5,0.5,1,1,0.5,0.5,0.5,1,0.5","2","",""
"","html-keyboard-response","214","63803","0.0-214.0","3P529IW9KZ7F8RLNQQ9MQJ43BGQLFL","A299UKNV45FVI6","38DCH97KHHO4I6P2AJ31XKZ17OGJQZ","","null","<img src=""img/land6.png"" style=""width:200px;border:14px solid red;"">","null","","","","","","","","","",""
"","image-keyboard-response","215","63891","0.0-215.0","3P529IW9KZ7F8RLNQQ9MQJ43BGQLFL","A299UKNV45FVI6","38DCH97KHHO4I6P2AJ31XKZ17OGJQZ","","83","img/land6.png","74","85","1","0","1","2","1,0.5,0.5,0.5,1,0.5,0.5,0.5,1","0.5,0.5,1,1,0.5,0.5,0.5,1,0.5","2","",""
"","html-keyboard-response","216","64193","0.0-216.0","3P529IW9KZ7F8RLNQQ9MQJ43BGQLFL","A299UKNV45FVI6","38DCH97KHHO4I6P2AJ31XKZ17OGJQZ","","null","<img src=""img/land6.png"" style=""width:200px;border:14px solid red;"">","null","","","","","","","","","",""
"","image-keyboard-response","217","64293","0.0-217.0","3P529IW9KZ7F8RLNQQ9MQJ43BGQLFL","A299UKNV45FVI6","38DCH97KHHO4I6P2AJ31XKZ17OGJQZ","","96","img/land2.png","74","99","1","1","2","2","1,0.5,0.5,0.5,1,0.5,0.5,0.5,1","0.5,0.5,1,1,0.5,0.5,0.5,1,0.5","2","",""
"","html-keyboard-response","218","64596","0.0-218.0","3P529IW9KZ7F8RLNQQ9MQJ43BGQLFL","A299UKNV45FVI6","38DCH97KHHO4I6P2AJ31XKZ17OGJQZ","","null","<img src=""img/land2.png"" style=""width:200px; border:14px solid green;"">","null","","","","","","","","","",""
"","image-keyboard-response","219","64692","0.0-219.0","3P529IW9KZ7F8RLNQQ9MQJ43BGQLFL","A299UKNV45FVI6","38DCH97KHHO4I6P2AJ31XKZ17OGJQZ","","93","img/land6.png","74","95","1","1","1","2","1,0.5,0.5,0.5,1,0.5,0.5,0.5,1","0.5,0.5,1,1,0.5,0.5,0.5,1,0.5","2","",""
"","html-keyboard-response","220","65029","0.0-220.0","3P529IW9KZ7F8RLNQQ9MQJ43BGQLFL","A299UKNV45FVI6","38DCH97KHHO4I6P2AJ31XKZ17OGJQZ","","null","<img src=""img/land6.png"" style=""width:200px; border:14px solid green;"">","null","","","","","","","","","",""
"","image-keyboard-response","221","65099","0.0-221.0","3P529IW9KZ7F8RLNQQ9MQJ43BGQLFL","A299UKNV45FVI6","38DCH97KHHO4I6P2AJ31XKZ17OGJQZ","","70","img/land1.png","75","70","2","1","3","2","1,0.5,0.5,0.5,1,0.5,0.5,0.5,1","0.5,0.5,1,1,0.5,0.5,0.5,1,0.5","2","",""
"","html-keyboard-response","222","65404","0.0-222.0","3P529IW9KZ7F8RLNQQ9MQJ43BGQLFL","A299UKNV45FVI6","38DCH97KHHO4I6P2AJ31XKZ17OGJQZ","","null","<img src=""img/land1.png"" style=""width:200px; border:14px solid green;"">","null","","","","","","","","","",""
"","image-keyboard-response","223","65490","0.0-223.0","3P529IW9KZ7F8RLNQQ9MQJ43BGQLFL","A299UKNV45FVI6","38DCH97KHHO4I6P2AJ31XKZ17OGJQZ","","80","img/land6.png","74","85","1","0","1","2","1,0.5,0.5,0.5,1,0.5,0.5,0.5,1","0.5,0.5,1,1,0.5,0.5,0.5,1,0.5","2","",""
"","html-keyboard-response","224","65795","0.0-224.0","3P529IW9KZ7F8RLNQQ9MQJ43BGQLFL","A299UKNV45FVI6","38DCH97KHHO4I6P2AJ31XKZ17OGJQZ","","null","<img src=""img/land6.png"" style=""width:200px;border:14px solid red;"">","null","","","","","","","","","",""
"","image-keyboard-response","225","65898","0.0-225.0","3P529IW9KZ7F8RLNQQ9MQJ43BGQLFL","A299UKNV45FVI6","38DCH97KHHO4I6P2AJ31XKZ17OGJQZ","","101","img/land2.png","76","102","3","0","2","2","1,0.5,0.5,0.5,1,0.5,0.5,0.5,1","0.5,0.5,1,1,0.5,0.5,0.5,1,0.5","2","",""
"","html-keyboard-response","226","66199","0.0-226.0","3P529IW9KZ7F8RLNQQ9MQJ43BGQLFL","A299UKNV45FVI6","38DCH97KHHO4I6P2AJ31XKZ17OGJQZ","","null","<img src=""img/land2.png"" style=""width:200px;border:14px solid red;"">","null","","","","","","","","","",""
"","image-keyboard-response","227","66214","0.0-227.0","3P529IW9KZ7F8RLNQQ9MQJ43BGQLFL","A299UKNV45FVI6","38DCH97KHHO4I6P2AJ31XKZ17OGJQZ","","13","img/land6.png","76","14","3","1","1","2","1,0.5,0.5,0.5,1,0.5,0.5,0.5,1","0.5,0.5,1,1,0.5,0.5,0.5,1,0.5","2","",""
"","html-keyboard-response","228","66516","0.0-228.0","3P529IW9KZ7F8RLNQQ9MQJ43BGQLFL","A299UKNV45FVI6","38DCH97KHHO4I6P2AJ31XKZ17OGJQZ","","null","<img src=""img/land6.png"" style=""width:200px; border:14px solid green;"">","null","","","","","","","","","",""
"","image-keyboard-response","229","66743","0.0-229.0","3P529IW9KZ7F8RLNQQ9MQJ43BGQLFL","A299UKNV45FVI6","38DCH97KHHO4I6P2AJ31XKZ17OGJQZ","","225","img/land6.png","74","227","1","1","1","2","1,0.5,0.5,0.5,1,0.5,0.5,0.5,1","0.5,0.5,1,1,0.5,0.5,0.5,1,0.5","2","",""
"","html-keyboard-response","230","67046","0.0-230.0","3P529IW9KZ7F8RLNQQ9MQJ43BGQLFL","A299UKNV45FVI6","38DCH97KHHO4I6P2AJ31XKZ17OGJQZ","","null","<img src=""img/land6.png"" style=""width:200px; border:14px solid green;"">","null","","","","","","","","","",""
"","image-keyboard-response","231","67328","0.0-231.0","3P529IW9KZ7F8RLNQQ9MQJ43BGQLFL","A299UKNV45FVI6","38DCH97KHHO4I6P2AJ31XKZ17OGJQZ","","280","img/land6.png","76","282","3","1","1","2","1,0.5,0.5,0.5,1,0.5,0.5,0.5,1","0.5,0.5,1,1,0.5,0.5,0.5,1,0.5","2","",""
"","html-keyboard-response","232","67629","0.0-232.0","3P529IW9KZ7F8RLNQQ9MQJ43BGQLFL","A299UKNV45FVI6","38DCH97KHHO4I6P2AJ31XKZ17OGJQZ","","null","<img src=""img/land6.png"" style=""width:200px; border:14px solid green;"">","null","","","","","","","","","",""
"","image-keyboard-response","233","67670","0.0-233.0","3P529IW9KZ7F8RLNQQ9MQJ43BGQLFL","A299UKNV45FVI6","38DCH97KHHO4I6P2AJ31XKZ17OGJQZ","","36","img/land6.png","74","40","1","0","1","2","1,0.5,0.5,0.5,1,0.5,0.5,0.5,1","0.5,0.5,1,1,0.5,0.5,0.5,1,0.5","2","",""
"","html-keyboard-response","234","67973","0.0-234.0","3P529IW9KZ7F8RLNQQ9MQJ43BGQLFL","A299UKNV45FVI6","38DCH97KHHO4I6P2AJ31XKZ17OGJQZ","","null","<img src=""img/land6.png"" style=""width:200px;border:14px solid red;"">","null","","","","","","","","","",""
"","image-keyboard-response","235","68014","0.0-235.0","3P529IW9KZ7F8RLNQQ9MQJ43BGQLFL","A299UKNV45FVI6","38DCH97KHHO4I6P2AJ31XKZ17OGJQZ","","38","img/land6.png","76","40","3","1","1","2","1,0.5,0.5,0.5,1,0.5,0.5,0.5,1","0.5,0.5,1,1,0.5,0.5,0.5,1,0.5","2","",""
"","html-keyboard-response","236","68498","0.0-236.0","3P529IW9KZ7F8RLNQQ9MQJ43BGQLFL","A299UKNV45FVI6","38DCH97KHHO4I6P2AJ31XKZ17OGJQZ","","null","<img src=""img/land6.png"" style=""width:200px; border:14px solid green;"">","null","","","","","","","","","",""
"","image-keyboard-response","237","68537","0.0-237.0","3P529IW9KZ7F8RLNQQ9MQJ43BGQLFL","A299UKNV45FVI6","38DCH97KHHO4I6P2AJ31XKZ17OGJQZ","","37","img/land1.png","74","39","1","0","3","2","1,0.5,0.5,0.5,1,0.5,0.5,0.5,1","0.5,0.5,1,1,0.5,0.5,0.5,1,0.5","2","",""
"","html-keyboard-response","238","68838","0.0-238.0","3P529IW9KZ7F8RLNQQ9MQJ43BGQLFL","A299UKNV45FVI6","38DCH97KHHO4I6P2AJ31XKZ17OGJQZ","","null","<img src=""img/land1.png"" style=""width:200px;border:14px solid red;"">","null","","","","","","","","","",""
"","image-keyboard-response","239","68915","0.0-239.0","3P529IW9KZ7F8RLNQQ9MQJ43BGQLFL","A299UKNV45FVI6","38DCH97KHHO4I6P2AJ31XKZ17OGJQZ","","76","img/land6.png","74","76","1","0","1","2","1,0.5,0.5,0.5,1,0.5,0.5,0.5,1","0.5,0.5,1,1,0.5,0.5,0.5,1,0.5","2","",""
"","html-keyboard-response","240","69218","0.0-240.0","3P529IW9KZ7F8RLNQQ9MQJ43BGQLFL","A299UKNV45FVI6","38DCH97KHHO4I6P2AJ31XKZ17OGJQZ","","null","<img src=""img/land6.png"" style=""width:200px;border:14px solid red;"">","null","","","","","","","","","",""
"","image-keyboard-response","241","69273","0.0-241.0","3P529IW9KZ7F8RLNQQ9MQJ43BGQLFL","A299UKNV45FVI6","38DCH97KHHO4I6P2AJ31XKZ17OGJQZ","","52","img/land6.png","74","54","1","1","1","2","1,0.5,0.5,0.5,1,0.5,0.5,0.5,1","0.5,0.5,1,1,0.5,0.5,0.5,1,0.5","2","",""
"","html-keyboard-response","242","69638","0.0-242.0","3P529IW9KZ7F8RLNQQ9MQJ43BGQLFL","A299UKNV45FVI6","38DCH97KHHO4I6P2AJ31XKZ17OGJQZ","","null","<img src=""img/land6.png"" style=""width:200px; border:14px solid green;"">","null","","","","","","","","","",""
"","image-keyboard-response","243","69696","0.0-243.0","3P529IW9KZ7F8RLNQQ9MQJ43BGQLFL","A299UKNV45FVI6","38DCH97KHHO4I6P2AJ31XKZ17OGJQZ","","57","img/land6.png","74","57","1","1","1","2","1,0.5,0.5,0.5,1,0.5,0.5,0.5,1","0.5,0.5,1,1,0.5,0.5,0.5,1,0.5","2","",""
"","html-keyboard-response","244","69999","0.0-244.0","3P529IW9KZ7F8RLNQQ9MQJ43BGQLFL","A299UKNV45FVI6","38DCH97KHHO4I6P2AJ31XKZ17OGJQZ","","null","<img src=""img/land6.png"" style=""width:200px; border:14px solid green;"">","null","","","","","","","","","",""
"","image-keyboard-response","245","70034","0.0-245.0","3P529IW9KZ7F8RLNQQ9MQJ43BGQLFL","A299UKNV45FVI6","38DCH97KHHO4I6P2AJ31XKZ17OGJQZ","","33","img/land6.png","74","34","1","1","1","2","1,0.5,0.5,0.5,1,0.5,0.5,0.5,1","0.5,0.5,1,1,0.5,0.5,0.5,1,0.5","2","",""
"","html-keyboard-response","246","70335","0.0-246.0","3P529IW9KZ7F8RLNQQ9MQJ43BGQLFL","A299UKNV45FVI6","38DCH97KHHO4I6P2AJ31XKZ17OGJQZ","","null","<img src=""img/land6.png"" style=""width:200px; border:14px solid green;"">","null","","","","","","","","","",""
"","image-keyboard-response","247","70431","0.0-247.0","3P529IW9KZ7F8RLNQQ9MQJ43BGQLFL","A299UKNV45FVI6","38DCH97KHHO4I6P2AJ31XKZ17OGJQZ","","94","img/land1.png","74","95","1","0","3","2","1,0.5,0.5,0.5,1,0.5,0.5,0.5,1","0.5,0.5,1,1,0.5,0.5,0.5,1,0.5","2","",""
"","html-keyboard-response","248","70733","0.0-248.0","3P529IW9KZ7F8RLNQQ9MQJ43BGQLFL","A299UKNV45FVI6","38DCH97KHHO4I6P2AJ31XKZ17OGJQZ","","null","<img src=""img/land1.png"" style=""width:200px;border:14px solid red;"">","null","","","","","","","","","",""
"","image-keyboard-response","249","70852","0.0-249.0","3P529IW9KZ7F8RLNQQ9MQJ43BGQLFL","A299UKNV45FVI6","38DCH97KHHO4I6P2AJ31XKZ17OGJQZ","","113","img/land6.png","74","115","1","0","1","2","1,0.5,0.5,0.5,1,0.5,0.5,0.5,1","0.5,0.5,1,1,0.5,0.5,0.5,1,0.5","2","",""
"","html-keyboard-response","250","71180","0.0-250.0","3P529IW9KZ7F8RLNQQ9MQJ43BGQLFL","A299UKNV45FVI6","38DCH97KHHO4I6P2AJ31XKZ17OGJQZ","","null","<img src=""img/land6.png"" style=""width:200px;border:14px solid red;"">","null","","","","","","","","","",""
"","image-keyboard-response","251","71207","0.0-251.0","3P529IW9KZ7F8RLNQQ9MQJ43BGQLFL","A299UKNV45FVI6","38DCH97KHHO4I6P2AJ31XKZ17OGJQZ","","24","img/land6.png","74","26","1","1","1","2","1,0.5,0.5,0.5,1,0.5,0.5,0.5,1","0.5,0.5,1,1,0.5,0.5,0.5,1,0.5","2","",""
"","html-keyboard-response","252","71509","0.0-252.0","3P529IW9KZ7F8RLNQQ9MQJ43BGQLFL","A299UKNV45FVI6","38DCH97KHHO4I6P2AJ31XKZ17OGJQZ","","null","<img src=""img/land6.png"" style=""width:200px; border:14px solid green;"">","null","","","","","","","","","",""
"","image-keyboard-response","253","71672","0.0-253.0","3P529IW9KZ7F8RLNQQ9MQJ43BGQLFL","A299UKNV45FVI6","38DCH97KHHO4I6P2AJ31XKZ17OGJQZ","","161","img/land6.png","74","162","1","1","1","2","1,0.5,0.5,0.5,1,0.5,0.5,0.5,1","0.5,0.5,1,1,0.5,0.5,0.5,1,0.5","2","",""
"","html-keyboard-response","254","71974","0.0-254.0","3P529IW9KZ7F8RLNQQ9MQJ43BGQLFL","A299UKNV45FVI6","38DCH97KHHO4I6P2AJ31XKZ17OGJQZ","","null","<img src=""img/land6.png"" style=""width:200px; border:14px solid green;"">","null","","","","","","","","","",""
"","image-keyboard-response","255","72088","0.0-255.0","3P529IW9KZ7F8RLNQQ9MQJ43BGQLFL","A299UKNV45FVI6","38DCH97KHHO4I6P2AJ31XKZ17OGJQZ","","110","img/land1.png","74","112","1","1","3","2","1,0.5,0.5,0.5,1,0.5,0.5,0.5,1","0.5,0.5,1,1,0.5,0.5,0.5,1,0.5","2","",""
"","html-keyboard-response","256","72391","0.0-256.0","3P529IW9KZ7F8RLNQQ9MQJ43BGQLFL","A299UKNV45FVI6","38DCH97KHHO4I6P2AJ31XKZ17OGJQZ","","null","<img src=""img/land1.png"" style=""width:200px; border:14px solid green;"">","null","","","","","","","","","",""
"","image-keyboard-response","257","72525","0.0-257.0","3P529IW9KZ7F8RLNQQ9MQJ43BGQLFL","A299UKNV45FVI6","38DCH97KHHO4I6P2AJ31XKZ17OGJQZ","","130","img/land1.png","74","133","1","0","3","2","1,0.5,0.5,0.5,1,0.5,0.5,0.5,1","0.5,0.5,1,1,0.5,0.5,0.5,1,0.5","2","",""
"","html-keyboard-response","258","72828","0.0-258.0","3P529IW9KZ7F8RLNQQ9MQJ43BGQLFL","A299UKNV45FVI6","38DCH97KHHO4I6P2AJ31XKZ17OGJQZ","","null","<img src=""img/land1.png"" style=""width:200px;border:14px solid red;"">","null","","","","","","","","","",""
"","image-keyboard-response","259","72913","0.0-259.0","3P529IW9KZ7F8RLNQQ9MQJ43BGQLFL","A299UKNV45FVI6","38DCH97KHHO4I6P2AJ31XKZ17OGJQZ","","84","img/land6.png","74","85","1","1","1","2","1,0.5,0.5,0.5,1,0.5,0.5,0.5,1","0.5,0.5,1,1,0.5,0.5,0.5,1,0.5","2","",""
"","html-keyboard-response","260","73287","0.0-260.0","3P529IW9KZ7F8RLNQQ9MQJ43BGQLFL","A299UKNV45FVI6","38DCH97KHHO4I6P2AJ31XKZ17OGJQZ","","null","<img src=""img/land6.png"" style=""width:200px; border:14px solid green;"">","null","","","","","","","","","",""
"","image-keyboard-response","261","73516","0.0-261.0","3P529IW9KZ7F8RLNQQ9MQJ43BGQLFL","A299UKNV45FVI6","38DCH97KHHO4I6P2AJ31XKZ17OGJQZ","","229","img/land1.png","74","230","1","1","3","2","1,0.5,0.5,0.5,1,0.5,0.5,0.5,1","0.5,0.5,1,1,0.5,0.5,0.5,1,0.5","2","",""
"","html-keyboard-response","262","73820","0.0-262.0","3P529IW9KZ7F8RLNQQ9MQJ43BGQLFL","A299UKNV45FVI6","38DCH97KHHO4I6P2AJ31XKZ17OGJQZ","","null","<img src=""img/land1.png"" style=""width:200px; border:14px solid green;"">","null","","","","","","","","","",""
"","image-keyboard-response","263","73956","0.0-263.0","3P529IW9KZ7F8RLNQQ9MQJ43BGQLFL","A299UKNV45FVI6","38DCH97KHHO4I6P2AJ31XKZ17OGJQZ","","132","img/land6.png","75","134","2","0","1","2","1,0.5,0.5,0.5,1,0.5,0.5,0.5,1","0.5,0.5,1,1,0.5,0.5,0.5,1,0.5","2","",""
"","html-keyboard-response","264","74260","0.0-264.0","3P529IW9KZ7F8RLNQQ9MQJ43BGQLFL","A299UKNV45FVI6","38DCH97KHHO4I6P2AJ31XKZ17OGJQZ","","null","<img src=""img/land6.png"" style=""width:200px;border:14px solid red;"">","null","","","","","","","","","",""
"","image-keyboard-response","265","74386","0.0-265.0","3P529IW9KZ7F8RLNQQ9MQJ43BGQLFL","A299UKNV45FVI6","38DCH97KHHO4I6P2AJ31XKZ17OGJQZ","","123","img/land1.png","75","125","2","1","3","2","1,0.5,0.5,0.5,1,0.5,0.5,0.5,1","0.5,0.5,1,1,0.5,0.5,0.5,1,0.5","2","",""
"","html-keyboard-response","266","74692","0.0-266.0","3P529IW9KZ7F8RLNQQ9MQJ43BGQLFL","A299UKNV45FVI6","38DCH97KHHO4I6P2AJ31XKZ17OGJQZ","","null","<img src=""img/land1.png"" style=""width:200px; border:14px solid green;"">","null","","","","","","","","","",""
"","image-keyboard-response","267","74864","0.0-267.0","3P529IW9KZ7F8RLNQQ9MQJ43BGQLFL","A299UKNV45FVI6","38DCH97KHHO4I6P2AJ31XKZ17OGJQZ","","166","img/land1.png","75","168","2","1","3","2","1,0.5,0.5,0.5,1,0.5,0.5,0.5,1","0.5,0.5,1,1,0.5,0.5,0.5,1,0.5","2","",""
"","html-keyboard-response","268","75210","0.0-268.0","3P529IW9KZ7F8RLNQQ9MQJ43BGQLFL","A299UKNV45FVI6","38DCH97KHHO4I6P2AJ31XKZ17OGJQZ","","null","<img src=""img/land1.png"" style=""width:200px; border:14px solid green;"">","null","","","","","","","","","",""
"","image-keyboard-response","269","75419","0.0-269.0","3P529IW9KZ7F8RLNQQ9MQJ43BGQLFL","A299UKNV45FVI6","38DCH97KHHO4I6P2AJ31XKZ17OGJQZ","","207","img/land2.png","74","208","1","1","2","2","1,0.5,0.5,0.5,1,0.5,0.5,0.5,1","0.5,0.5,1,1,0.5,0.5,0.5,1,0.5","2","",""
"","html-keyboard-response","270","75721","0.0-270.0","3P529IW9KZ7F8RLNQQ9MQJ43BGQLFL","A299UKNV45FVI6","38DCH97KHHO4I6P2AJ31XKZ17OGJQZ","","null","<img src=""img/land2.png"" style=""width:200px; border:14px solid green;"">","null","","","","","","","","","",""
"","image-keyboard-response","271","75744","0.0-271.0","3P529IW9KZ7F8RLNQQ9MQJ43BGQLFL","A299UKNV45FVI6","38DCH97KHHO4I6P2AJ31XKZ17OGJQZ","","19","img/land2.png","74","22","1","1","2","2","1,0.5,0.5,0.5,1,0.5,0.5,0.5,1","0.5,0.5,1,1,0.5,0.5,0.5,1,0.5","2","",""
"","html-keyboard-response","272","76047","0.0-272.0","3P529IW9KZ7F8RLNQQ9MQJ43BGQLFL","A299UKNV45FVI6","38DCH97KHHO4I6P2AJ31XKZ17OGJQZ","","null","<img src=""img/land2.png"" style=""width:200px; border:14px solid green;"">","null","","","","","","","","","",""
"","image-keyboard-response","273","76148","0.0-273.0","3P529IW9KZ7F8RLNQQ9MQJ43BGQLFL","A299UKNV45FVI6","38DCH97KHHO4I6P2AJ31XKZ17OGJQZ","","96","img/land2.png","74","98","1","1","2","2","1,0.5,0.5,0.5,1,0.5,0.5,0.5,1","0.5,0.5,1,1,0.5,0.5,0.5,1,0.5","2","",""
"","html-keyboard-response","274","76465","0.0-274.0","3P529IW9KZ7F8RLNQQ9MQJ43BGQLFL","A299UKNV45FVI6","38DCH97KHHO4I6P2AJ31XKZ17OGJQZ","","null","<img src=""img/land2.png"" style=""width:200px; border:14px solid green;"">","null","","","","","","","","","",""
"","image-keyboard-response","275","76562","0.0-275.0","3P529IW9KZ7F8RLNQQ9MQJ43BGQLFL","A299UKNV45FVI6","38DCH97KHHO4I6P2AJ31XKZ17OGJQZ","","93","img/land1.png","74","95","1","0","3","2","1,0.5,0.5,0.5,1,0.5,0.5,0.5,1","0.5,0.5,1,1,0.5,0.5,0.5,1,0.5","2","",""
"","html-keyboard-response","276","76897","0.0-276.0","3P529IW9KZ7F8RLNQQ9MQJ43BGQLFL","A299UKNV45FVI6","38DCH97KHHO4I6P2AJ31XKZ17OGJQZ","","null","<img src=""img/land1.png"" style=""width:200px;border:14px solid red;"">","null","","","","","","","","","",""
"","image-keyboard-response","277","77263","0.0-277.0","3P529IW9KZ7F8RLNQQ9MQJ43BGQLFL","A299UKNV45FVI6","38DCH97KHHO4I6P2AJ31XKZ17OGJQZ","","364","img/land6.png","74","366","1","0","1","2","1,0.5,0.5,0.5,1,0.5,0.5,0.5,1","0.5,0.5,1,1,0.5,0.5,0.5,1,0.5","2","",""
"","html-keyboard-response","278","77565","0.0-278.0","3P529IW9KZ7F8RLNQQ9MQJ43BGQLFL","A299UKNV45FVI6","38DCH97KHHO4I6P2AJ31XKZ17OGJQZ","","null","<img src=""img/land6.png"" style=""width:200px;border:14px solid red;"">","null","","","","","","","","","",""
"","image-keyboard-response","279","77617","0.0-279.0","3P529IW9KZ7F8RLNQQ9MQJ43BGQLFL","A299UKNV45FVI6","38DCH97KHHO4I6P2AJ31XKZ17OGJQZ","","47","img/land1.png","74","50","1","0","3","2","1,0.5,0.5,0.5,1,0.5,0.5,0.5,1","0.5,0.5,1,1,0.5,0.5,0.5,1,0.5","2","",""
"","html-keyboard-response","280","77920","0.0-280.0","3P529IW9KZ7F8RLNQQ9MQJ43BGQLFL","A299UKNV45FVI6","38DCH97KHHO4I6P2AJ31XKZ17OGJQZ","","null","<img src=""img/land1.png"" style=""width:200px;border:14px solid red;"">","null","","","","","","","","","",""
"","image-keyboard-response","281","78022","0.0-281.0","3P529IW9KZ7F8RLNQQ9MQJ43BGQLFL","A299UKNV45FVI6","38DCH97KHHO4I6P2AJ31XKZ17OGJQZ","","99","img/land6.png","74","101","1","1","1","2","1,0.5,0.5,0.5,1,0.5,0.5,0.5,1","0.5,0.5,1,1,0.5,0.5,0.5,1,0.5","2","",""
"","html-keyboard-response","282","78326","0.0-282.0","3P529IW9KZ7F8RLNQQ9MQJ43BGQLFL","A299UKNV45FVI6","38DCH97KHHO4I6P2AJ31XKZ17OGJQZ","","null","<img src=""img/land6.png"" style=""width:200px; border:14px solid green;"">","null","","","","","","","","","",""
"","image-keyboard-response","283","78503","0.0-283.0","3P529IW9KZ7F8RLNQQ9MQJ43BGQLFL","A299UKNV45FVI6","38DCH97KHHO4I6P2AJ31XKZ17OGJQZ","","174","img/land1.png","74","176","1","1","3","2","1,0.5,0.5,0.5,1,0.5,0.5,0.5,1","0.5,0.5,1,1,0.5,0.5,0.5,1,0.5","2","",""
"","html-keyboard-response","284","78806","0.0-284.0","3P529IW9KZ7F8RLNQQ9MQJ43BGQLFL","A299UKNV45FVI6","38DCH97KHHO4I6P2AJ31XKZ17OGJQZ","","null","<img src=""img/land1.png"" style=""width:200px; border:14px solid green;"">","null","","","","","","","","","",""
"","image-keyboard-response","285","78981","0.0-285.0","3P529IW9KZ7F8RLNQQ9MQJ43BGQLFL","A299UKNV45FVI6","38DCH97KHHO4I6P2AJ31XKZ17OGJQZ","","172","img/land2.png","74","175","1","1","2","2","1,0.5,0.5,0.5,1,0.5,0.5,0.5,1","0.5,0.5,1,1,0.5,0.5,0.5,1,0.5","2","",""
"","html-keyboard-response","286","79302","0.0-286.0","3P529IW9KZ7F8RLNQQ9MQJ43BGQLFL","A299UKNV45FVI6","38DCH97KHHO4I6P2AJ31XKZ17OGJQZ","","null","<img src=""img/land2.png"" style=""width:200px; border:14px solid green;"">","null","","","","","","","","","",""
"","image-keyboard-response","287","79542","0.0-287.0","3P529IW9KZ7F8RLNQQ9MQJ43BGQLFL","A299UKNV45FVI6","38DCH97KHHO4I6P2AJ31XKZ17OGJQZ","","235","img/land1.png","74","239","1","1","3","2","1,0.5,0.5,0.5,1,0.5,0.5,0.5,1","0.5,0.5,1,1,0.5,0.5,0.5,1,0.5","2","",""
"","html-keyboard-response","288","79872","0.0-288.0","3P529IW9KZ7F8RLNQQ9MQJ43BGQLFL","A299UKNV45FVI6","38DCH97KHHO4I6P2AJ31XKZ17OGJQZ","","null","<img src=""img/land1.png"" style=""width:200px; border:14px solid green;"">","null","","","","","","","","","",""
"","image-keyboard-response","289","79907","0.0-289.0","3P529IW9KZ7F8RLNQQ9MQJ43BGQLFL","A299UKNV45FVI6","38DCH97KHHO4I6P2AJ31XKZ17OGJQZ","","28","img/land1.png","74","35","1","1","3","2","1,0.5,0.5,0.5,1,0.5,0.5,0.5,1","0.5,0.5,1,1,0.5,0.5,0.5,1,0.5","2","",""
"","html-keyboard-response","290","80213","0.0-290.0","3P529IW9KZ7F8RLNQQ9MQJ43BGQLFL","A299UKNV45FVI6","38DCH97KHHO4I6P2AJ31XKZ17OGJQZ","","null","<img src=""img/land1.png"" style=""width:200px; border:14px solid green;"">","null","","","","","","","","","",""
"","image-keyboard-response","291","80321","0.0-291.0","3P529IW9KZ7F8RLNQQ9MQJ43BGQLFL","A299UKNV45FVI6","38DCH97KHHO4I6P2AJ31XKZ17OGJQZ","","102","img/land6.png","74","104","1","0","1","2","1,0.5,0.5,0.5,1,0.5,0.5,0.5,1","0.5,0.5,1,1,0.5,0.5,0.5,1,0.5","2","",""
"","html-keyboard-response","292","80641","0.0-292.0","3P529IW9KZ7F8RLNQQ9MQJ43BGQLFL","A299UKNV45FVI6","38DCH97KHHO4I6P2AJ31XKZ17OGJQZ","","null","<img src=""img/land6.png"" style=""width:200px;border:14px solid red;"">","null","","","","","","","","","",""
"","image-keyboard-response","293","80790","0.0-293.0","3P529IW9KZ7F8RLNQQ9MQJ43BGQLFL","A299UKNV45FVI6","38DCH97KHHO4I6P2AJ31XKZ17OGJQZ","","145","img/land6.png","74","148","1","1","1","2","1,0.5,0.5,0.5,1,0.5,0.5,0.5,1","0.5,0.5,1,1,0.5,0.5,0.5,1,0.5","2","",""
"","html-keyboard-response","294","81186","0.0-294.0","3P529IW9KZ7F8RLNQQ9MQJ43BGQLFL","A299UKNV45FVI6","38DCH97KHHO4I6P2AJ31XKZ17OGJQZ","","null","<img src=""img/land6.png"" style=""width:200px; border:14px solid green;"">","null","","","","","","","","","",""
"","image-keyboard-response","295","81362","0.0-295.0","3P529IW9KZ7F8RLNQQ9MQJ43BGQLFL","A299UKNV45FVI6","38DCH97KHHO4I6P2AJ31XKZ17OGJQZ","","174","img/land2.png","75","176","2","1","2","2","1,0.5,0.5,0.5,1,0.5,0.5,0.5,1","0.5,0.5,1,1,0.5,0.5,0.5,1,0.5","2","",""
"","html-keyboard-response","296","81670","0.0-296.0","3P529IW9KZ7F8RLNQQ9MQJ43BGQLFL","A299UKNV45FVI6","38DCH97KHHO4I6P2AJ31XKZ17OGJQZ","","null","<img src=""img/land2.png"" style=""width:200px; border:14px solid green;"">","null","","","","","","","","","",""
"","image-keyboard-response","297","81697","0.0-297.0","3P529IW9KZ7F8RLNQQ9MQJ43BGQLFL","A299UKNV45FVI6","38DCH97KHHO4I6P2AJ31XKZ17OGJQZ","","25","img/land6.png","76","26","3","1","1","2","1,0.5,0.5,0.5,1,0.5,0.5,0.5,1","0.5,0.5,1,1,0.5,0.5,0.5,1,0.5","2","",""
"","html-keyboard-response","298","81998","0.0-298.0","3P529IW9KZ7F8RLNQQ9MQJ43BGQLFL","A299UKNV45FVI6","38DCH97KHHO4I6P2AJ31XKZ17OGJQZ","","null","<img src=""img/land6.png"" style=""width:200px; border:14px solid green;"">","null","","","","","","","","","",""
"","image-keyboard-response","299","82162","0.0-299.0","3P529IW9KZ7F8RLNQQ9MQJ43BGQLFL","A299UKNV45FVI6","38DCH97KHHO4I6P2AJ31XKZ17OGJQZ","","159","img/land2.png","74","162","1","1","2","2","1,0.5,0.5,0.5,1,0.5,0.5,0.5,1","0.5,0.5,1,1,0.5,0.5,0.5,1,0.5","2","",""
"","html-keyboard-response","300","82466","0.0-300.0","3P529IW9KZ7F8RLNQQ9MQJ43BGQLFL","A299UKNV45FVI6","38DCH97KHHO4I6P2AJ31XKZ17OGJQZ","","null","<img src=""img/land2.png"" style=""width:200px; border:14px solid green;"">","null","","","","","","","","","",""
"","image-keyboard-response","301","82593","0.0-301.0","3P529IW9KZ7F8RLNQQ9MQJ43BGQLFL","A299UKNV45FVI6","38DCH97KHHO4I6P2AJ31XKZ17OGJQZ","","124","img/land6.png","76","125","3","1","1","2","1,0.5,0.5,0.5,1,0.5,0.5,0.5,1","0.5,0.5,1,1,0.5,0.5,0.5,1,0.5","2","",""
"","html-keyboard-response","302","82896","0.0-302.0","3P529IW9KZ7F8RLNQQ9MQJ43BGQLFL","A299UKNV45FVI6","38DCH97KHHO4I6P2AJ31XKZ17OGJQZ","","null","<img src=""img/land6.png"" style=""width:200px; border:14px solid green;"">","null","","","","","","","","","",""
"","image-keyboard-response","303","82934","0.0-303.0","3P529IW9KZ7F8RLNQQ9MQJ43BGQLFL","A299UKNV45FVI6","38DCH97KHHO4I6P2AJ31XKZ17OGJQZ","","36","img/land6.png","76","37","3","1","1","2","1,0.5,0.5,0.5,1,0.5,0.5,0.5,1","0.5,0.5,1,1,0.5,0.5,0.5,1,0.5","2","",""
"","html-keyboard-response","304","83236","0.0-304.0","3P529IW9KZ7F8RLNQQ9MQJ43BGQLFL","A299UKNV45FVI6","38DCH97KHHO4I6P2AJ31XKZ17OGJQZ","","null","<img src=""img/land6.png"" style=""width:200px; border:14px solid green;"">","null","","","","","","","","","",""
"","image-keyboard-response","305","83313","0.0-305.0","3P529IW9KZ7F8RLNQQ9MQJ43BGQLFL","A299UKNV45FVI6","38DCH97KHHO4I6P2AJ31XKZ17OGJQZ","","73","img/land6.png","76","74","3","1","1","2","1,0.5,0.5,0.5,1,0.5,0.5,0.5,1","0.5,0.5,1,1,0.5,0.5,0.5,1,0.5","2","",""
"","html-keyboard-response","306","83619","0.0-306.0","3P529IW9KZ7F8RLNQQ9MQJ43BGQLFL","A299UKNV45FVI6","38DCH97KHHO4I6P2AJ31XKZ17OGJQZ","","null","<img src=""img/land6.png"" style=""width:200px; border:14px solid green;"">","null","","","","","","","","","",""
"","image-keyboard-response","307","83729","0.0-307.0","3P529IW9KZ7F8RLNQQ9MQJ43BGQLFL","A299UKNV45FVI6","38DCH97KHHO4I6P2AJ31XKZ17OGJQZ","","107","img/land6.png","75","111","2","1","1","2","1,0.5,0.5,0.5,1,0.5,0.5,0.5,1","0.5,0.5,1,1,0.5,0.5,0.5,1,0.5","2","",""
"","html-keyboard-response","308","84037","0.0-308.0","3P529IW9KZ7F8RLNQQ9MQJ43BGQLFL","A299UKNV45FVI6","38DCH97KHHO4I6P2AJ31XKZ17OGJQZ","","null","<img src=""img/land6.png"" style=""width:200px; border:14px solid green;"">","null","","","","","","","","","",""
"","image-keyboard-response","309","84103","0.0-309.0","3P529IW9KZ7F8RLNQQ9MQJ43BGQLFL","A299UKNV45FVI6","38DCH97KHHO4I6P2AJ31XKZ17OGJQZ","","59","img/land1.png","76","63","3","1","3","2","1,0.5,0.5,0.5,1,0.5,0.5,0.5,1","0.5,0.5,1,1,0.5,0.5,0.5,1,0.5","2","",""
"","html-keyboard-response","310","84408","0.0-310.0","3P529IW9KZ7F8RLNQQ9MQJ43BGQLFL","A299UKNV45FVI6","38DCH97KHHO4I6P2AJ31XKZ17OGJQZ","","null","<img src=""img/land1.png"" style=""width:200px; border:14px solid green;"">","null","","","","","","","","","",""
"","image-keyboard-response","311","84508","0.0-311.0","3P529IW9KZ7F8RLNQQ9MQJ43BGQLFL","A299UKNV45FVI6","38DCH97KHHO4I6P2AJ31XKZ17OGJQZ","","97","img/land6.png","76","99","3","1","1","2","1,0.5,0.5,0.5,1,0.5,0.5,0.5,1","0.5,0.5,1,1,0.5,0.5,0.5,1,0.5","2","",""
"","html-keyboard-response","312","84810","0.0-312.0","3P529IW9KZ7F8RLNQQ9MQJ43BGQLFL","A299UKNV45FVI6","38DCH97KHHO4I6P2AJ31XKZ17OGJQZ","","null","<img src=""img/land6.png"" style=""width:200px; border:14px solid green;"">","null","","","","","","","","","",""
"","image-keyboard-response","313","84907","0.0-313.0","3P529IW9KZ7F8RLNQQ9MQJ43BGQLFL","A299UKNV45FVI6","38DCH97KHHO4I6P2AJ31XKZ17OGJQZ","","95","img/land6.png","74","97","1","1","1","2","1,0.5,0.5,0.5,1,0.5,0.5,0.5,1","0.5,0.5,1,1,0.5,0.5,0.5,1,0.5","2","",""
"","html-keyboard-response","314","85210","0.0-314.0","3P529IW9KZ7F8RLNQQ9MQJ43BGQLFL","A299UKNV45FVI6","38DCH97KHHO4I6P2AJ31XKZ17OGJQZ","","null","<img src=""img/land6.png"" style=""width:200px; border:14px solid green;"">","null","","","","","","","","","",""
"","image-keyboard-response","315","85227","0.0-315.0","3P529IW9KZ7F8RLNQQ9MQJ43BGQLFL","A299UKNV45FVI6","38DCH97KHHO4I6P2AJ31XKZ17OGJQZ","","15","img/land6.png","76","16","3","1","1","2","1,0.5,0.5,0.5,1,0.5,0.5,0.5,1","0.5,0.5,1,1,0.5,0.5,0.5,1,0.5","2","",""
"","html-keyboard-response","316","85530","0.0-316.0","3P529IW9KZ7F8RLNQQ9MQJ43BGQLFL","A299UKNV45FVI6","38DCH97KHHO4I6P2AJ31XKZ17OGJQZ","","null","<img src=""img/land6.png"" style=""width:200px; border:14px solid green;"">","null","","","","","","","","","",""
"","image-keyboard-response","317","85689","0.0-317.0","3P529IW9KZ7F8RLNQQ9MQJ43BGQLFL","A299UKNV45FVI6","38DCH97KHHO4I6P2AJ31XKZ17OGJQZ","","152","img/land1.png","76","158","3","0","3","2","1,0.5,0.5,0.5,1,0.5,0.5,0.5,1","0.5,0.5,1,1,0.5,0.5,0.5,1,0.5","2","",""
"","html-keyboard-response","318","85993","0.0-318.0","3P529IW9KZ7F8RLNQQ9MQJ43BGQLFL","A299UKNV45FVI6","38DCH97KHHO4I6P2AJ31XKZ17OGJQZ","","null","<img src=""img/land1.png"" style=""width:200px;border:14px solid red;"">","null","","","","","","","","","",""
"","image-keyboard-response","319","86052","0.0-319.0","3P529IW9KZ7F8RLNQQ9MQJ43BGQLFL","A299UKNV45FVI6","38DCH97KHHO4I6P2AJ31XKZ17OGJQZ","","56","img/land6.png","75","57","2","0","1","2","1,0.5,0.5,0.5,1,0.5,0.5,0.5,1","0.5,0.5,1,1,0.5,0.5,0.5,1,0.5","2","",""
"","html-keyboard-response","320","86354","0.0-320.0","3P529IW9KZ7F8RLNQQ9MQJ43BGQLFL","A299UKNV45FVI6","38DCH97KHHO4I6P2AJ31XKZ17OGJQZ","","null","<img src=""img/land6.png"" style=""width:200px;border:14px solid red;"">","null","","","","","","","","","",""
"","image-keyboard-response","321","86535","0.0-321.0","3P529IW9KZ7F8RLNQQ9MQJ43BGQLFL","A299UKNV45FVI6","38DCH97KHHO4I6P2AJ31XKZ17OGJQZ","","178","img/land6.png","75","179","2","1","1","2","1,0.5,0.5,0.5,1,0.5,0.5,0.5,1","0.5,0.5,1,1,0.5,0.5,0.5,1,0.5","2","",""
"","html-keyboard-response","322","86874","0.0-322.0","3P529IW9KZ7F8RLNQQ9MQJ43BGQLFL","A299UKNV45FVI6","38DCH97KHHO4I6P2AJ31XKZ17OGJQZ","","null","<img src=""img/land6.png"" style=""width:200px; border:14px solid green;"">","null","","","","","","","","","",""
"","image-keyboard-response","323","87093","0.0-323.0","3P529IW9KZ7F8RLNQQ9MQJ43BGQLFL","A299UKNV45FVI6","38DCH97KHHO4I6P2AJ31XKZ17OGJQZ","","217","img/land2.png","76","219","3","1","2","2","1,0.5,0.5,0.5,1,0.5,0.5,0.5,1","0.5,0.5,1,1,0.5,0.5,0.5,1,0.5","2","",""
"","html-keyboard-response","324","87395","0.0-324.0","3P529IW9KZ7F8RLNQQ9MQJ43BGQLFL","A299UKNV45FVI6","38DCH97KHHO4I6P2AJ31XKZ17OGJQZ","","null","<img src=""img/land2.png"" style=""width:200px; border:14px solid green;"">","null","","","","","","","","","",""
"","image-keyboard-response","325","87543","0.0-325.0","3P529IW9KZ7F8RLNQQ9MQJ43BGQLFL","A299UKNV45FVI6","38DCH97KHHO4I6P2AJ31XKZ17OGJQZ","","143","img/land6.png","75","147","2","0","1","2","1,0.5,0.5,0.5,1,0.5,0.5,0.5,1","0.5,0.5,1,1,0.5,0.5,0.5,1,0.5","2","",""
"","html-keyboard-response","326","87850","0.0-326.0","3P529IW9KZ7F8RLNQQ9MQJ43BGQLFL","A299UKNV45FVI6","38DCH97KHHO4I6P2AJ31XKZ17OGJQZ","","null","<img src=""img/land6.png"" style=""width:200px;border:14px solid red;"">","null","","","","","","","","","",""
"","image-keyboard-response","327","87935","0.0-327.0","3P529IW9KZ7F8RLNQQ9MQJ43BGQLFL","A299UKNV45FVI6","38DCH97KHHO4I6P2AJ31XKZ17OGJQZ","","82","img/land6.png","74","83","1","0","1","2","1,0.5,0.5,0.5,1,0.5,0.5,0.5,1","0.5,0.5,1,1,0.5,0.5,0.5,1,0.5","2","",""
"","html-keyboard-response","328","88239","0.0-328.0","3P529IW9KZ7F8RLNQQ9MQJ43BGQLFL","A299UKNV45FVI6","38DCH97KHHO4I6P2AJ31XKZ17OGJQZ","","null","<img src=""img/land6.png"" style=""width:200px;border:14px solid red;"">","null","","","","","","","","","",""
"","image-keyboard-response","329","88350","0.0-329.0","3P529IW9KZ7F8RLNQQ9MQJ43BGQLFL","A299UKNV45FVI6","38DCH97KHHO4I6P2AJ31XKZ17OGJQZ","","106","img/land6.png","74","110","1","0","1","2","1,0.5,0.5,0.5,1,0.5,0.5,0.5,1","0.5,0.5,1,1,0.5,0.5,0.5,1,0.5","2","",""
"","html-keyboard-response","330","88655","0.0-330.0","3P529IW9KZ7F8RLNQQ9MQJ43BGQLFL","A299UKNV45FVI6","38DCH97KHHO4I6P2AJ31XKZ17OGJQZ","","null","<img src=""img/land6.png"" style=""width:200px;border:14px solid red;"">","null","","","","","","","","","",""
"","image-keyboard-response","331","88778","0.0-331.0","3P529IW9KZ7F8RLNQQ9MQJ43BGQLFL","A299UKNV45FVI6","38DCH97KHHO4I6P2AJ31XKZ17OGJQZ","","119","img/land6.png","76","122","3","1","1","2","1,0.5,0.5,0.5,1,0.5,0.5,0.5,1","0.5,0.5,1,1,0.5,0.5,0.5,1,0.5","2","",""
"","html-keyboard-response","332","89081","0.0-332.0","3P529IW9KZ7F8RLNQQ9MQJ43BGQLFL","A299UKNV45FVI6","38DCH97KHHO4I6P2AJ31XKZ17OGJQZ","","null","<img src=""img/land6.png"" style=""width:200px; border:14px solid green;"">","null","","","","","","","","","",""
"","image-keyboard-response","333","89179","0.0-333.0","3P529IW9KZ7F8RLNQQ9MQJ43BGQLFL","A299UKNV45FVI6","38DCH97KHHO4I6P2AJ31XKZ17OGJQZ","","95","img/land6.png","74","98","1","1","1","2","1,0.5,0.5,0.5,1,0.5,0.5,0.5,1","0.5,0.5,1,1,0.5,0.5,0.5,1,0.5","2","",""
"","html-keyboard-response","334","89482","0.0-334.0","3P529IW9KZ7F8RLNQQ9MQJ43BGQLFL","A299UKNV45FVI6","38DCH97KHHO4I6P2AJ31XKZ17OGJQZ","","null","<img src=""img/land6.png"" style=""width:200px; border:14px solid green;"">","null","","","","","","","","","",""
"","image-keyboard-response","335","89683","0.0-335.0","3P529IW9KZ7F8RLNQQ9MQJ43BGQLFL","A299UKNV45FVI6","38DCH97KHHO4I6P2AJ31XKZ17OGJQZ","","198","img/land6.png","74","200","1","0","1","2","1,0.5,0.5,0.5,1,0.5,0.5,0.5,1","0.5,0.5,1,1,0.5,0.5,0.5,1,0.5","2","",""
"","html-keyboard-response","336","89994","0.0-336.0","3P529IW9KZ7F8RLNQQ9MQJ43BGQLFL","A299UKNV45FVI6","38DCH97KHHO4I6P2AJ31XKZ17OGJQZ","","null","<img src=""img/land6.png"" style=""width:200px;border:14px solid red;"">","null","","","","","","","","","",""
"","image-keyboard-response","337","90063","0.0-337.0","3P529IW9KZ7F8RLNQQ9MQJ43BGQLFL","A299UKNV45FVI6","38DCH97KHHO4I6P2AJ31XKZ17OGJQZ","","69","img/land6.png","74","70","1","1","1","2","1,0.5,0.5,0.5,1,0.5,0.5,0.5,1","0.5,0.5,1,1,0.5,0.5,0.5,1,0.5","2","",""
"","html-keyboard-response","338","90387","0.0-338.0","3P529IW9KZ7F8RLNQQ9MQJ43BGQLFL","A299UKNV45FVI6","38DCH97KHHO4I6P2AJ31XKZ17OGJQZ","","null","<img src=""img/land6.png"" style=""width:200px; border:14px solid green;"">","null","","","","","","","","","",""
"","image-keyboard-response","339","90511","0.0-339.0","3P529IW9KZ7F8RLNQQ9MQJ43BGQLFL","A299UKNV45FVI6","38DCH97KHHO4I6P2AJ31XKZ17OGJQZ","","115","img/land6.png","74","122","1","1","1","2","1,0.5,0.5,0.5,1,0.5,0.5,0.5,1","0.5,0.5,1,1,0.5,0.5,0.5,1,0.5","2","",""
"","html-keyboard-response","340","90813","0.0-340.0","3P529IW9KZ7F8RLNQQ9MQJ43BGQLFL","A299UKNV45FVI6","38DCH97KHHO4I6P2AJ31XKZ17OGJQZ","","null","<img src=""img/land6.png"" style=""width:200px; border:14px solid green;"">","null","","","","","","","","","",""
"","image-keyboard-response","341","91009","0.0-341.0","3P529IW9KZ7F8RLNQQ9MQJ43BGQLFL","A299UKNV45FVI6","38DCH97KHHO4I6P2AJ31XKZ17OGJQZ","","193","img/land1.png","76","195","3","0","3","2","1,0.5,0.5,0.5,1,0.5,0.5,0.5,1","0.5,0.5,1,1,0.5,0.5,0.5,1,0.5","2","",""
"","html-keyboard-response","342","91394","0.0-342.0","3P529IW9KZ7F8RLNQQ9MQJ43BGQLFL","A299UKNV45FVI6","38DCH97KHHO4I6P2AJ31XKZ17OGJQZ","","null","<img src=""img/land1.png"" style=""width:200px;border:14px solid red;"">","null","","","","","","","","","",""
"","image-keyboard-response","343","91503","0.0-343.0","3P529IW9KZ7F8RLNQQ9MQJ43BGQLFL","A299UKNV45FVI6","38DCH97KHHO4I6P2AJ31XKZ17OGJQZ","","106","img/land6.png","74","109","1","1","1","2","1,0.5,0.5,0.5,1,0.5,0.5,0.5,1","0.5,0.5,1,1,0.5,0.5,0.5,1,0.5","2","",""
"","html-keyboard-response","344","91806","0.0-344.0","3P529IW9KZ7F8RLNQQ9MQJ43BGQLFL","A299UKNV45FVI6","38DCH97KHHO4I6P2AJ31XKZ17OGJQZ","","null","<img src=""img/land6.png"" style=""width:200px; border:14px solid green;"">","null","","","","","","","","","",""
"","image-keyboard-response","345","91896","0.0-345.0","3P529IW9KZ7F8RLNQQ9MQJ43BGQLFL","A299UKNV45FVI6","38DCH97KHHO4I6P2AJ31XKZ17OGJQZ","","88","img/land2.png","75","90","2","0","2","2","1,0.5,0.5,0.5,1,0.5,0.5,0.5,1","0.5,0.5,1,1,0.5,0.5,0.5,1,0.5","2","",""
"","html-keyboard-response","346","92199","0.0-346.0","3P529IW9KZ7F8RLNQQ9MQJ43BGQLFL","A299UKNV45FVI6","38DCH97KHHO4I6P2AJ31XKZ17OGJQZ","","null","<img src=""img/land2.png"" style=""width:200px;border:14px solid red;"">","null","","","","","","","","","",""
"","image-keyboard-response","347","92289","0.0-347.0","3P529IW9KZ7F8RLNQQ9MQJ43BGQLFL","A299UKNV45FVI6","38DCH97KHHO4I6P2AJ31XKZ17OGJQZ","","85","img/land6.png","74","88","1","1","1","2","1,0.5,0.5,0.5,1,0.5,0.5,0.5,1","0.5,0.5,1,1,0.5,0.5,0.5,1,0.5","2","",""
"","html-keyboard-response","348","92594","0.0-348.0","3P529IW9KZ7F8RLNQQ9MQJ43BGQLFL","A299UKNV45FVI6","38DCH97KHHO4I6P2AJ31XKZ17OGJQZ","","null","<img src=""img/land6.png"" style=""width:200px; border:14px solid green;"">","null","","","","","","","","","",""
"","image-keyboard-response","349","92726","0.0-349.0","3P529IW9KZ7F8RLNQQ9MQJ43BGQLFL","A299UKNV45FVI6","38DCH97KHHO4I6P2AJ31XKZ17OGJQZ","","130","img/land1.png","74","131","1","1","3","2","1,0.5,0.5,0.5,1,0.5,0.5,0.5,1","0.5,0.5,1,1,0.5,0.5,0.5,1,0.5","2","",""
"","html-keyboard-response","350","93033","0.0-350.0","3P529IW9KZ7F8RLNQQ9MQJ43BGQLFL","A299UKNV45FVI6","38DCH97KHHO4I6P2AJ31XKZ17OGJQZ","","null","<img src=""img/land1.png"" style=""width:200px; border:14px solid green;"">","null","","","","","","","","","",""
"","image-keyboard-response","351","93267","0.0-351.0","3P529IW9KZ7F8RLNQQ9MQJ43BGQLFL","A299UKNV45FVI6","38DCH97KHHO4I6P2AJ31XKZ17OGJQZ","","221","img/land6.png","74","227","1","0","1","2","1,0.5,0.5,0.5,1,0.5,0.5,0.5,1","0.5,0.5,1,1,0.5,0.5,0.5,1,0.5","2","",""
"","html-keyboard-response","352","93632","0.0-352.0","3P529IW9KZ7F8RLNQQ9MQJ43BGQLFL","A299UKNV45FVI6","38DCH97KHHO4I6P2AJ31XKZ17OGJQZ","","null","<img src=""img/land6.png"" style=""width:200px;border:14px solid red;"">","null","","","","","","","","","",""
"","image-keyboard-response","353","93668","0.0-353.0","3P529IW9KZ7F8RLNQQ9MQJ43BGQLFL","A299UKNV45FVI6","38DCH97KHHO4I6P2AJ31XKZ17OGJQZ","","33","img/land1.png","74","37","1","0","3","2","1,0.5,0.5,0.5,1,0.5,0.5,0.5,1","0.5,0.5,1,1,0.5,0.5,0.5,1,0.5","2","",""
"","html-keyboard-response","354","93971","0.0-354.0","3P529IW9KZ7F8RLNQQ9MQJ43BGQLFL","A299UKNV45FVI6","38DCH97KHHO4I6P2AJ31XKZ17OGJQZ","","null","<img src=""img/land1.png"" style=""width:200px;border:14px solid red;"">","null","","","","","","","","","",""
"","image-keyboard-response","355","93988","0.0-355.0","3P529IW9KZ7F8RLNQQ9MQJ43BGQLFL","A299UKNV45FVI6","38DCH97KHHO4I6P2AJ31XKZ17OGJQZ","","13","img/land2.png","74","16","1","1","2","2","1,0.5,0.5,0.5,1,0.5,0.5,0.5,1","0.5,0.5,1,1,0.5,0.5,0.5,1,0.5","2","",""
"","html-keyboard-response","356","94293","0.0-356.0","3P529IW9KZ7F8RLNQQ9MQJ43BGQLFL","A299UKNV45FVI6","38DCH97KHHO4I6P2AJ31XKZ17OGJQZ","","null","<img src=""img/land2.png"" style=""width:200px; border:14px solid green;"">","null","","","","","","","","","",""
"","image-keyboard-response","357","94455","0.0-357.0","3P529IW9KZ7F8RLNQQ9MQJ43BGQLFL","A299UKNV45FVI6","38DCH97KHHO4I6P2AJ31XKZ17OGJQZ","","153","img/land6.png","74","161","1","0","1","2","1,0.5,0.5,0.5,1,0.5,0.5,0.5,1","0.5,0.5,1,1,0.5,0.5,0.5,1,0.5","2","",""
"","html-keyboard-response","358","94857","0.0-358.0","3P529IW9KZ7F8RLNQQ9MQJ43BGQLFL","A299UKNV45FVI6","38DCH97KHHO4I6P2AJ31XKZ17OGJQZ","","null","<img src=""img/land6.png"" style=""width:200px;border:14px solid red;"">","null","","","","","","","","","",""
"","image-keyboard-response","359","94876","0.0-359.0","3P529IW9KZ7F8RLNQQ9MQJ43BGQLFL","A299UKNV45FVI6","38DCH97KHHO4I6P2AJ31XKZ17OGJQZ","","19","img/land6.png","74","19","1","1","1","2","1,0.5,0.5,0.5,1,0.5,0.5,0.5,1","0.5,0.5,1,1,0.5,0.5,0.5,1,0.5","2","",""
"","html-keyboard-response","360","95178","0.0-360.0","3P529IW9KZ7F8RLNQQ9MQJ43BGQLFL","A299UKNV45FVI6","38DCH97KHHO4I6P2AJ31XKZ17OGJQZ","","null","<img src=""img/land6.png"" style=""width:200px; border:14px solid green;"">","null","","","","","","","","","",""
"","image-keyboard-response","361","95332","0.0-361.0","3P529IW9KZ7F8RLNQQ9MQJ43BGQLFL","A299UKNV45FVI6","38DCH97KHHO4I6P2AJ31XKZ17OGJQZ","","153","img/land6.png","75","155","2","0","1","2","1,0.5,0.5,0.5,1,0.5,0.5,0.5,1","0.5,0.5,1,1,0.5,0.5,0.5,1,0.5","2","",""
"","html-keyboard-response","362","95636","0.0-362.0","3P529IW9KZ7F8RLNQQ9MQJ43BGQLFL","A299UKNV45FVI6","38DCH97KHHO4I6P2AJ31XKZ17OGJQZ","","null","<img src=""img/land6.png"" style=""width:200px;border:14px solid red;"">","null","","","","","","","","","",""
"","image-keyboard-response","363","95742","0.0-363.0","3P529IW9KZ7F8RLNQQ9MQJ43BGQLFL","A299UKNV45FVI6","38DCH97KHHO4I6P2AJ31XKZ17OGJQZ","","103","img/land1.png","75","105","2","1","3","2","1,0.5,0.5,0.5,1,0.5,0.5,0.5,1","0.5,0.5,1,1,0.5,0.5,0.5,1,0.5","2","",""
"","html-keyboard-response","364","96046","0.0-364.0","3P529IW9KZ7F8RLNQQ9MQJ43BGQLFL","A299UKNV45FVI6","38DCH97KHHO4I6P2AJ31XKZ17OGJQZ","","null","<img src=""img/land1.png"" style=""width:200px; border:14px solid green;"">","null","","","","","","","","","",""
"","image-keyboard-response","365","96131","0.0-365.0","3P529IW9KZ7F8RLNQQ9MQJ43BGQLFL","A299UKNV45FVI6","38DCH97KHHO4I6P2AJ31XKZ17OGJQZ","","82","img/land6.png","74","83","1","1","1","2","1,0.5,0.5,0.5,1,0.5,0.5,0.5,1","0.5,0.5,1,1,0.5,0.5,0.5,1,0.5","2","",""
"","html-keyboard-response","366","96437","0.0-366.0","3P529IW9KZ7F8RLNQQ9MQJ43BGQLFL","A299UKNV45FVI6","38DCH97KHHO4I6P2AJ31XKZ17OGJQZ","","null","<img src=""img/land6.png"" style=""width:200px; border:14px solid green;"">","null","","","","","","","","","",""
"","image-keyboard-response","367","96549","0.0-367.0","3P529IW9KZ7F8RLNQQ9MQJ43BGQLFL","A299UKNV45FVI6","38DCH97KHHO4I6P2AJ31XKZ17OGJQZ","","106","img/land6.png","75","110","2","1","1","2","1,0.5,0.5,0.5,1,0.5,0.5,0.5,1","0.5,0.5,1,1,0.5,0.5,0.5,1,0.5","2","",""
"","html-keyboard-response","368","96851","0.0-368.0","3P529IW9KZ7F8RLNQQ9MQJ43BGQLFL","A299UKNV45FVI6","38DCH97KHHO4I6P2AJ31XKZ17OGJQZ","","null","<img src=""img/land6.png"" style=""width:200px; border:14px solid green;"">","null","","","","","","","","","",""
"","image-keyboard-response","369","96972","0.0-369.0","3P529IW9KZ7F8RLNQQ9MQJ43BGQLFL","A299UKNV45FVI6","38DCH97KHHO4I6P2AJ31XKZ17OGJQZ","","118","img/land1.png","76","119","3","0","3","2","1,0.5,0.5,0.5,1,0.5,0.5,0.5,1","0.5,0.5,1,1,0.5,0.5,0.5,1,0.5","2","",""
"","html-keyboard-response","370","97386","0.0-370.0","3P529IW9KZ7F8RLNQQ9MQJ43BGQLFL","A299UKNV45FVI6","38DCH97KHHO4I6P2AJ31XKZ17OGJQZ","","null","<img src=""img/land1.png"" style=""width:200px;border:14px solid red;"">","null","","","","","","","","","",""
"","image-keyboard-response","371","97583","0.0-371.0","3P529IW9KZ7F8RLNQQ9MQJ43BGQLFL","A299UKNV45FVI6","38DCH97KHHO4I6P2AJ31XKZ17OGJQZ","","196","img/land1.png","74","197","1","0","3","2","1,0.5,0.5,0.5,1,0.5,0.5,0.5,1","0.5,0.5,1,1,0.5,0.5,0.5,1,0.5","2","",""
"","html-keyboard-response","372","97886","0.0-372.0","3P529IW9KZ7F8RLNQQ9MQJ43BGQLFL","A299UKNV45FVI6","38DCH97KHHO4I6P2AJ31XKZ17OGJQZ","","null","<img src=""img/land1.png"" style=""width:200px;border:14px solid red;"">","null","","","","","","","","","",""
"","image-keyboard-response","373","98089","0.0-373.0","3P529IW9KZ7F8RLNQQ9MQJ43BGQLFL","A299UKNV45FVI6","38DCH97KHHO4I6P2AJ31XKZ17OGJQZ","","198","img/land1.png","76","202","3","0","3","2","1,0.5,0.5,0.5,1,0.5,0.5,0.5,1","0.5,0.5,1,1,0.5,0.5,0.5,1,0.5","2","",""
"","html-keyboard-response","374","98394","0.0-374.0","3P529IW9KZ7F8RLNQQ9MQJ43BGQLFL","A299UKNV45FVI6","38DCH97KHHO4I6P2AJ31XKZ17OGJQZ","","null","<img src=""img/land1.png"" style=""width:200px;border:14px solid red;"">","null","","","","","","","","","",""
"","image-keyboard-response","375","98554","0.0-375.0","3P529IW9KZ7F8RLNQQ9MQJ43BGQLFL","A299UKNV45FVI6","38DCH97KHHO4I6P2AJ31XKZ17OGJQZ","","155","img/land6.png","76","158","3","1","1","2","1,0.5,0.5,0.5,1,0.5,0.5,0.5,1","0.5,0.5,1,1,0.5,0.5,0.5,1,0.5","2","",""
"","html-keyboard-response","376","98858","0.0-376.0","3P529IW9KZ7F8RLNQQ9MQJ43BGQLFL","A299UKNV45FVI6","38DCH97KHHO4I6P2AJ31XKZ17OGJQZ","","null","<img src=""img/land6.png"" style=""width:200px; border:14px solid green;"">","null","","","","","","","","","",""
"","image-keyboard-response","377","98992","0.0-377.0","3P529IW9KZ7F8RLNQQ9MQJ43BGQLFL","A299UKNV45FVI6","38DCH97KHHO4I6P2AJ31XKZ17OGJQZ","","128","img/land2.png","74","131","1","1","2","2","1,0.5,0.5,0.5,1,0.5,0.5,0.5,1","0.5,0.5,1,1,0.5,0.5,0.5,1,0.5","2","",""
"","html-keyboard-response","378","99431","0.0-378.0","3P529IW9KZ7F8RLNQQ9MQJ43BGQLFL","A299UKNV45FVI6","38DCH97KHHO4I6P2AJ31XKZ17OGJQZ","","null","<img src=""img/land2.png"" style=""width:200px; border:14px solid green;"">","null","","","","","","","","","",""
"","image-keyboard-response","379","99557","0.0-379.0","3P529IW9KZ7F8RLNQQ9MQJ43BGQLFL","A299UKNV45FVI6","38DCH97KHHO4I6P2AJ31XKZ17OGJQZ","","124","img/land6.png","74","125","1","1","1","2","1,0.5,0.5,0.5,1,0.5,0.5,0.5,1","0.5,0.5,1,1,0.5,0.5,0.5,1,0.5","2","",""
"","html-keyboard-response","380","99862","0.0-380.0","3P529IW9KZ7F8RLNQQ9MQJ43BGQLFL","A299UKNV45FVI6","38DCH97KHHO4I6P2AJ31XKZ17OGJQZ","","null","<img src=""img/land6.png"" style=""width:200px; border:14px solid green;"">","null","","","","","","","","","",""
