"success","trial_type","trial_index","time_elapsed","internal_node_id","assignmentID","mturkID","hitID","view_history","rt","stimulus","key_press","reactionTime","a","r","s","cond","reward_cond","reward_cond_actual","reward_matrix_idx","responses","question_order"
"true","fullscreen","0","5576","0.0-0.0","3X3OR7WPZ0M6TCB0IC3GGRNHPU2L8U","A2APG8MSLJ6G2K","3THR0FZ95PF7SK0MYRNAOUHTWDJOLG","","","","","","","","","","","","","",""
"","instructions","1","41614","0.0-1.0","3X3OR7WPZ0M6TCB0IC3GGRNHPU2L8U","A2APG8MSLJ6G2K","3THR0FZ95PF7SK0MYRNAOUHTWDJOLG","[{""page_index"":0,""viewing_time"":3304},{""page_index"":1,""viewing_time"":874.8000001907349},{""page_index"":2,""viewing_time"":3891.199999809265},{""page_index"":3,""viewing_time"":13050.300000190735},{""page_index"":4,""viewing_time"":2498.2999999523163},{""page_index"":5,""viewing_time"":7043.700000047684},{""page_index"":6,""viewing_time"":5373.599999904633}]","36036.200000047684","","","","","","","","","","","",""
"","image-keyboard-response","2","42807","0.0-2.0","3X3OR7WPZ0M6TCB0IC3GGRNHPU2L8U","A2APG8MSLJ6G2K","3THR0FZ95PF7SK0MYRNAOUHTWDJOLG","","1191.8999998569489","img/land5.png","74","1193","1","1","1","2","0.8,0.2,0.2,0.2,0.8,0.2,0.2,0.2,0.8","0.2,0.8,0.2,0.2,0.2,0.8,0.8,0.2,0.2","3","",""
"","html-keyboard-response","3","43109","0.0-3.0","3X3OR7WPZ0M6TCB0IC3GGRNHPU2L8U","A2APG8MSLJ6G2K","3THR0FZ95PF7SK0MYRNAOUHTWDJOLG","","null","<img src=""img/land5.png"" style=""width:200px; border:14px solid green;"">","null","","","","","","","","","",""
"","image-keyboard-response","4","43447","0.0-4.0","3X3OR7WPZ0M6TCB0IC3GGRNHPU2L8U","A2APG8MSLJ6G2K","3THR0FZ95PF7SK0MYRNAOUHTWDJOLG","","337.40000009536743","img/land2.png","74","338","1","1","3","2","0.8,0.2,0.2,0.2,0.8,0.2,0.2,0.2,0.8","0.2,0.8,0.2,0.2,0.2,0.8,0.8,0.2,0.2","3","",""
"","html-keyboard-response","5","43748","0.0-5.0","3X3OR7WPZ0M6TCB0IC3GGRNHPU2L8U","A2APG8MSLJ6G2K","3THR0FZ95PF7SK0MYRNAOUHTWDJOLG","","null","<img src=""img/land2.png"" style=""width:200px; border:14px solid green;"">","null","","","","","","","","","",""
"","image-keyboard-response","6","44168","0.0-6.0","3X3OR7WPZ0M6TCB0IC3GGRNHPU2L8U","A2APG8MSLJ6G2K","3THR0FZ95PF7SK0MYRNAOUHTWDJOLG","","418.5","img/land5.png","74","419.2999999523163","1","0","1","2","0.8,0.2,0.2,0.2,0.8,0.2,0.2,0.2,0.8","0.2,0.8,0.2,0.2,0.2,0.8,0.8,0.2,0.2","3","",""
"","html-keyboard-response","7","44470","0.0-7.0","3X3OR7WPZ0M6TCB0IC3GGRNHPU2L8U","A2APG8MSLJ6G2K","3THR0FZ95PF7SK0MYRNAOUHTWDJOLG","","null","<img src=""img/land5.png"" style=""width:200px;border:14px solid red;"">","null","","","","","","","","","",""
"","image-keyboard-response","8","44688","0.0-8.0","3X3OR7WPZ0M6TCB0IC3GGRNHPU2L8U","A2APG8MSLJ6G2K","3THR0FZ95PF7SK0MYRNAOUHTWDJOLG","","217.10000014305115","img/land5.png","75","217.70000004768372","2","1","1","2","0.8,0.2,0.2,0.2,0.8,0.2,0.2,0.2,0.8","0.2,0.8,0.2,0.2,0.2,0.8,0.8,0.2,0.2","3","",""
"","html-keyboard-response","9","44989","0.0-9.0","3X3OR7WPZ0M6TCB0IC3GGRNHPU2L8U","A2APG8MSLJ6G2K","3THR0FZ95PF7SK0MYRNAOUHTWDJOLG","","null","<img src=""img/land5.png"" style=""width:200px; border:14px solid green;"">","null","","","","","","","","","",""
"","image-keyboard-response","10","45295","0.0-10.0","3X3OR7WPZ0M6TCB0IC3GGRNHPU2L8U","A2APG8MSLJ6G2K","3THR0FZ95PF7SK0MYRNAOUHTWDJOLG","","304.7999999523163","img/land5.png","75","305.80000019073486","2","1","1","2","0.8,0.2,0.2,0.2,0.8,0.2,0.2,0.2,0.8","0.2,0.8,0.2,0.2,0.2,0.8,0.8,0.2,0.2","3","",""
"","html-keyboard-response","11","45596","0.0-11.0","3X3OR7WPZ0M6TCB0IC3GGRNHPU2L8U","A2APG8MSLJ6G2K","3THR0FZ95PF7SK0MYRNAOUHTWDJOLG","","null","<img src=""img/land5.png"" style=""width:200px; border:14px solid green;"">","null","","","","","","","","","",""
"","image-keyboard-response","12","45863","0.0-12.0","3X3OR7WPZ0M6TCB0IC3GGRNHPU2L8U","A2APG8MSLJ6G2K","3THR0FZ95PF7SK0MYRNAOUHTWDJOLG","","266.39999985694885","img/land5.png","75","267","2","1","1","2","0.8,0.2,0.2,0.2,0.8,0.2,0.2,0.2,0.8","0.2,0.8,0.2,0.2,0.2,0.8,0.8,0.2,0.2","3","",""
"","html-keyboard-response","13","46165","0.0-13.0","3X3OR7WPZ0M6TCB0IC3GGRNHPU2L8U","A2APG8MSLJ6G2K","3THR0FZ95PF7SK0MYRNAOUHTWDJOLG","","null","<img src=""img/land5.png"" style=""width:200px; border:14px solid green;"">","null","","","","","","","","","",""
"","image-keyboard-response","14","46383","0.0-14.0","3X3OR7WPZ0M6TCB0IC3GGRNHPU2L8U","A2APG8MSLJ6G2K","3THR0FZ95PF7SK0MYRNAOUHTWDJOLG","","217","img/land5.png","75","217.59999990463257","2","0","1","2","0.8,0.2,0.2,0.2,0.8,0.2,0.2,0.2,0.8","0.2,0.8,0.2,0.2,0.2,0.8,0.8,0.2,0.2","3","",""
"","html-keyboard-response","15","46685","0.0-15.0","3X3OR7WPZ0M6TCB0IC3GGRNHPU2L8U","A2APG8MSLJ6G2K","3THR0FZ95PF7SK0MYRNAOUHTWDJOLG","","null","<img src=""img/land5.png"" style=""width:200px;border:14px solid red;"">","null","","","","","","","","","",""
"","image-keyboard-response","16","46935","0.0-16.0","3X3OR7WPZ0M6TCB0IC3GGRNHPU2L8U","A2APG8MSLJ6G2K","3THR0FZ95PF7SK0MYRNAOUHTWDJOLG","","249.20000004768372","img/land1.png","76","249.70000004768372","3","1","2","2","0.8,0.2,0.2,0.2,0.8,0.2,0.2,0.2,0.8","0.2,0.8,0.2,0.2,0.2,0.8,0.8,0.2,0.2","3","",""
"","html-keyboard-response","17","47236","0.0-17.0","3X3OR7WPZ0M6TCB0IC3GGRNHPU2L8U","A2APG8MSLJ6G2K","3THR0FZ95PF7SK0MYRNAOUHTWDJOLG","","null","<img src=""img/land1.png"" style=""width:200px; border:14px solid green;"">","null","","","","","","","","","",""
"","image-keyboard-response","18","47471","0.0-18.0","3X3OR7WPZ0M6TCB0IC3GGRNHPU2L8U","A2APG8MSLJ6G2K","3THR0FZ95PF7SK0MYRNAOUHTWDJOLG","","234.60000014305115","img/land5.png","76","235.29999995231628","3","1","1","2","0.8,0.2,0.2,0.2,0.8,0.2,0.2,0.2,0.8","0.2,0.8,0.2,0.2,0.2,0.8,0.8,0.2,0.2","3","",""
"","html-keyboard-response","19","47773","0.0-19.0","3X3OR7WPZ0M6TCB0IC3GGRNHPU2L8U","A2APG8MSLJ6G2K","3THR0FZ95PF7SK0MYRNAOUHTWDJOLG","","null","<img src=""img/land5.png"" style=""width:200px; border:14px solid green;"">","null","","","","","","","","","",""
"","image-keyboard-response","20","48079","0.0-20.0","3X3OR7WPZ0M6TCB0IC3GGRNHPU2L8U","A2APG8MSLJ6G2K","3THR0FZ95PF7SK0MYRNAOUHTWDJOLG","","305.90000009536743","img/land5.png","76","306.7000000476837","3","0","1","2","0.8,0.2,0.2,0.2,0.8,0.2,0.2,0.2,0.8","0.2,0.8,0.2,0.2,0.2,0.8,0.8,0.2,0.2","3","",""
"","html-keyboard-response","21","48381","0.0-21.0","3X3OR7WPZ0M6TCB0IC3GGRNHPU2L8U","A2APG8MSLJ6G2K","3THR0FZ95PF7SK0MYRNAOUHTWDJOLG","","null","<img src=""img/land5.png"" style=""width:200px;border:14px solid red;"">","null","","","","","","","","","",""
"","image-keyboard-response","22","48751","0.0-22.0","3X3OR7WPZ0M6TCB0IC3GGRNHPU2L8U","A2APG8MSLJ6G2K","3THR0FZ95PF7SK0MYRNAOUHTWDJOLG","","369.60000014305115","img/land1.png","75","370.2999999523163","2","0","2","2","0.8,0.2,0.2,0.2,0.8,0.2,0.2,0.2,0.8","0.2,0.8,0.2,0.2,0.2,0.8,0.8,0.2,0.2","3","",""
"","html-keyboard-response","23","49053","0.0-23.0","3X3OR7WPZ0M6TCB0IC3GGRNHPU2L8U","A2APG8MSLJ6G2K","3THR0FZ95PF7SK0MYRNAOUHTWDJOLG","","null","<img src=""img/land1.png"" style=""width:200px;border:14px solid red;"">","null","","","","","","","","","",""
"","image-keyboard-response","24","49343","0.0-24.0","3X3OR7WPZ0M6TCB0IC3GGRNHPU2L8U","A2APG8MSLJ6G2K","3THR0FZ95PF7SK0MYRNAOUHTWDJOLG","","289.2000000476837","img/land5.png","74","289.7000000476837","1","0","1","2","0.8,0.2,0.2,0.2,0.8,0.2,0.2,0.2,0.8","0.2,0.8,0.2,0.2,0.2,0.8,0.8,0.2,0.2","3","",""
"","html-keyboard-response","25","49645","0.0-25.0","3X3OR7WPZ0M6TCB0IC3GGRNHPU2L8U","A2APG8MSLJ6G2K","3THR0FZ95PF7SK0MYRNAOUHTWDJOLG","","null","<img src=""img/land5.png"" style=""width:200px;border:14px solid red;"">","null","","","","","","","","","",""
"","image-keyboard-response","26","50215","0.0-26.0","3X3OR7WPZ0M6TCB0IC3GGRNHPU2L8U","A2APG8MSLJ6G2K","3THR0FZ95PF7SK0MYRNAOUHTWDJOLG","","569.6999998092651","img/land1.png","75","570.4000000953674","2","0","2","2","0.8,0.2,0.2,0.2,0.8,0.2,0.2,0.2,0.8","0.2,0.8,0.2,0.2,0.2,0.8,0.8,0.2,0.2","3","",""
"","html-keyboard-response","27","50516","0.0-27.0","3X3OR7WPZ0M6TCB0IC3GGRNHPU2L8U","A2APG8MSLJ6G2K","3THR0FZ95PF7SK0MYRNAOUHTWDJOLG","","null","<img src=""img/land1.png"" style=""width:200px;border:14px solid red;"">","null","","","","","","","","","",""
"","image-keyboard-response","28","50967","0.0-28.0","3X3OR7WPZ0M6TCB0IC3GGRNHPU2L8U","A2APG8MSLJ6G2K","3THR0FZ95PF7SK0MYRNAOUHTWDJOLG","","450.09999990463257","img/land5.png","75","450.7000000476837","2","1","1","2","0.8,0.2,0.2,0.2,0.8,0.2,0.2,0.2,0.8","0.2,0.8,0.2,0.2,0.2,0.8,0.8,0.2,0.2","3","",""
"","html-keyboard-response","29","51269","0.0-29.0","3X3OR7WPZ0M6TCB0IC3GGRNHPU2L8U","A2APG8MSLJ6G2K","3THR0FZ95PF7SK0MYRNAOUHTWDJOLG","","null","<img src=""img/land5.png"" style=""width:200px; border:14px solid green;"">","null","","","","","","","","","",""
"","image-keyboard-response","30","51711","0.0-30.0","3X3OR7WPZ0M6TCB0IC3GGRNHPU2L8U","A2APG8MSLJ6G2K","3THR0FZ95PF7SK0MYRNAOUHTWDJOLG","","441.7999999523163","img/land1.png","75","442.5","2","0","2","2","0.8,0.2,0.2,0.2,0.8,0.2,0.2,0.2,0.8","0.2,0.8,0.2,0.2,0.2,0.8,0.8,0.2,0.2","3","",""
"","html-keyboard-response","31","52013","0.0-31.0","3X3OR7WPZ0M6TCB0IC3GGRNHPU2L8U","A2APG8MSLJ6G2K","3THR0FZ95PF7SK0MYRNAOUHTWDJOLG","","null","<img src=""img/land1.png"" style=""width:200px;border:14px solid red;"">","null","","","","","","","","","",""
"","image-keyboard-response","32","52280","0.0-32.0","3X3OR7WPZ0M6TCB0IC3GGRNHPU2L8U","A2APG8MSLJ6G2K","3THR0FZ95PF7SK0MYRNAOUHTWDJOLG","","265.90000009536743","img/land1.png","74","266.59999990463257","1","1","2","2","0.8,0.2,0.2,0.2,0.8,0.2,0.2,0.2,0.8","0.2,0.8,0.2,0.2,0.2,0.8,0.8,0.2,0.2","3","",""
"","html-keyboard-response","33","52581","0.0-33.0","3X3OR7WPZ0M6TCB0IC3GGRNHPU2L8U","A2APG8MSLJ6G2K","3THR0FZ95PF7SK0MYRNAOUHTWDJOLG","","null","<img src=""img/land1.png"" style=""width:200px; border:14px solid green;"">","null","","","","","","","","","",""
"","image-keyboard-response","34","52918","0.0-34.0","3X3OR7WPZ0M6TCB0IC3GGRNHPU2L8U","A2APG8MSLJ6G2K","3THR0FZ95PF7SK0MYRNAOUHTWDJOLG","","336.39999985694885","img/land5.png","74","337.10000014305115","1","0","1","2","0.8,0.2,0.2,0.2,0.8,0.2,0.2,0.2,0.8","0.2,0.8,0.2,0.2,0.2,0.8,0.8,0.2,0.2","3","",""
"","html-keyboard-response","35","53219","0.0-35.0","3X3OR7WPZ0M6TCB0IC3GGRNHPU2L8U","A2APG8MSLJ6G2K","3THR0FZ95PF7SK0MYRNAOUHTWDJOLG","","null","<img src=""img/land5.png"" style=""width:200px;border:14px solid red;"">","null","","","","","","","","","",""
"","image-keyboard-response","36","53463","0.0-36.0","3X3OR7WPZ0M6TCB0IC3GGRNHPU2L8U","A2APG8MSLJ6G2K","3THR0FZ95PF7SK0MYRNAOUHTWDJOLG","","242.79999995231628","img/land5.png","76","243.40000009536743","3","0","1","2","0.8,0.2,0.2,0.2,0.8,0.2,0.2,0.2,0.8","0.2,0.8,0.2,0.2,0.2,0.8,0.8,0.2,0.2","3","",""
"","html-keyboard-response","37","53766","0.0-37.0","3X3OR7WPZ0M6TCB0IC3GGRNHPU2L8U","A2APG8MSLJ6G2K","3THR0FZ95PF7SK0MYRNAOUHTWDJOLG","","null","<img src=""img/land5.png"" style=""width:200px;border:14px solid red;"">","null","","","","","","","","","",""
"","image-keyboard-response","38","53895","0.0-38.0","3X3OR7WPZ0M6TCB0IC3GGRNHPU2L8U","A2APG8MSLJ6G2K","3THR0FZ95PF7SK0MYRNAOUHTWDJOLG","","128.80000019073486","img/land5.png","76","129.5","3","1","1","2","0.8,0.2,0.2,0.2,0.8,0.2,0.2,0.2,0.8","0.2,0.8,0.2,0.2,0.2,0.8,0.8,0.2,0.2","3","",""
"","html-keyboard-response","39","54197","0.0-39.0","3X3OR7WPZ0M6TCB0IC3GGRNHPU2L8U","A2APG8MSLJ6G2K","3THR0FZ95PF7SK0MYRNAOUHTWDJOLG","","null","<img src=""img/land5.png"" style=""width:200px; border:14px solid green;"">","null","","","","","","","","","",""
"","image-keyboard-response","40","54551","0.0-40.0","3X3OR7WPZ0M6TCB0IC3GGRNHPU2L8U","A2APG8MSLJ6G2K","3THR0FZ95PF7SK0MYRNAOUHTWDJOLG","","353.2999999523163","img/land5.png","76","354","3","0","1","2","0.8,0.2,0.2,0.2,0.8,0.2,0.2,0.2,0.8","0.2,0.8,0.2,0.2,0.2,0.8,0.8,0.2,0.2","3","",""
"","html-keyboard-response","41","54853","0.0-41.0","3X3OR7WPZ0M6TCB0IC3GGRNHPU2L8U","A2APG8MSLJ6G2K","3THR0FZ95PF7SK0MYRNAOUHTWDJOLG","","null","<img src=""img/land5.png"" style=""width:200px;border:14px solid red;"">","null","","","","","","","","","",""
"","image-keyboard-response","42","55167","0.0-42.0","3X3OR7WPZ0M6TCB0IC3GGRNHPU2L8U","A2APG8MSLJ6G2K","3THR0FZ95PF7SK0MYRNAOUHTWDJOLG","","313.2000000476837","img/land2.png","75","313.7999999523163","2","0","3","2","0.8,0.2,0.2,0.2,0.8,0.2,0.2,0.2,0.8","0.2,0.8,0.2,0.2,0.2,0.8,0.8,0.2,0.2","3","",""
"","html-keyboard-response","43","55468","0.0-43.0","3X3OR7WPZ0M6TCB0IC3GGRNHPU2L8U","A2APG8MSLJ6G2K","3THR0FZ95PF7SK0MYRNAOUHTWDJOLG","","null","<img src=""img/land2.png"" style=""width:200px;border:14px solid red;"">","null","","","","","","","","","",""
"","image-keyboard-response","44","55991","0.0-44.0","3X3OR7WPZ0M6TCB0IC3GGRNHPU2L8U","A2APG8MSLJ6G2K","3THR0FZ95PF7SK0MYRNAOUHTWDJOLG","","522.2000000476837","img/land5.png","74","522.7000000476837","1","0","1","2","0.8,0.2,0.2,0.2,0.8,0.2,0.2,0.2,0.8","0.2,0.8,0.2,0.2,0.2,0.8,0.8,0.2,0.2","3","",""
"","html-keyboard-response","45","56293","0.0-45.0","3X3OR7WPZ0M6TCB0IC3GGRNHPU2L8U","A2APG8MSLJ6G2K","3THR0FZ95PF7SK0MYRNAOUHTWDJOLG","","null","<img src=""img/land5.png"" style=""width:200px;border:14px solid red;"">","null","","","","","","","","","",""
"","image-keyboard-response","46","56863","0.0-46.0","3X3OR7WPZ0M6TCB0IC3GGRNHPU2L8U","A2APG8MSLJ6G2K","3THR0FZ95PF7SK0MYRNAOUHTWDJOLG","","570","img/land5.png","75","570.6000001430511","2","1","1","2","0.8,0.2,0.2,0.2,0.8,0.2,0.2,0.2,0.8","0.2,0.8,0.2,0.2,0.2,0.8,0.8,0.2,0.2","3","",""
"","html-keyboard-response","47","57165","0.0-47.0","3X3OR7WPZ0M6TCB0IC3GGRNHPU2L8U","A2APG8MSLJ6G2K","3THR0FZ95PF7SK0MYRNAOUHTWDJOLG","","null","<img src=""img/land5.png"" style=""width:200px; border:14px solid green;"">","null","","","","","","","","","",""
"","image-keyboard-response","48","57535","0.0-48.0","3X3OR7WPZ0M6TCB0IC3GGRNHPU2L8U","A2APG8MSLJ6G2K","3THR0FZ95PF7SK0MYRNAOUHTWDJOLG","","369.7999999523163","img/land5.png","75","370.40000009536743","2","1","1","2","0.8,0.2,0.2,0.2,0.8,0.2,0.2,0.2,0.8","0.2,0.8,0.2,0.2,0.2,0.8,0.8,0.2,0.2","3","",""
"","html-keyboard-response","49","57837","0.0-49.0","3X3OR7WPZ0M6TCB0IC3GGRNHPU2L8U","A2APG8MSLJ6G2K","3THR0FZ95PF7SK0MYRNAOUHTWDJOLG","","null","<img src=""img/land5.png"" style=""width:200px; border:14px solid green;"">","null","","","","","","","","","",""
"","image-keyboard-response","50","58175","0.0-50.0","3X3OR7WPZ0M6TCB0IC3GGRNHPU2L8U","A2APG8MSLJ6G2K","3THR0FZ95PF7SK0MYRNAOUHTWDJOLG","","337.7000000476837","img/land5.png","75","338.2000000476837","2","1","1","2","0.8,0.2,0.2,0.2,0.8,0.2,0.2,0.2,0.8","0.2,0.8,0.2,0.2,0.2,0.8,0.8,0.2,0.2","3","",""
"","html-keyboard-response","51","58478","0.0-51.0","3X3OR7WPZ0M6TCB0IC3GGRNHPU2L8U","A2APG8MSLJ6G2K","3THR0FZ95PF7SK0MYRNAOUHTWDJOLG","","null","<img src=""img/land5.png"" style=""width:200px; border:14px solid green;"">","null","","","","","","","","","",""
"","image-keyboard-response","52","59320","0.0-52.0","3X3OR7WPZ0M6TCB0IC3GGRNHPU2L8U","A2APG8MSLJ6G2K","3THR0FZ95PF7SK0MYRNAOUHTWDJOLG","","840.8000001907349","img/land2.png","76","841.5","3","0","3","2","0.8,0.2,0.2,0.2,0.8,0.2,0.2,0.2,0.8","0.2,0.8,0.2,0.2,0.2,0.8,0.8,0.2,0.2","3","",""
"","html-keyboard-response","53","59621","0.0-53.0","3X3OR7WPZ0M6TCB0IC3GGRNHPU2L8U","A2APG8MSLJ6G2K","3THR0FZ95PF7SK0MYRNAOUHTWDJOLG","","null","<img src=""img/land2.png"" style=""width:200px;border:14px solid red;"">","null","","","","","","","","","",""
"","image-keyboard-response","54","60288","0.0-54.0","3X3OR7WPZ0M6TCB0IC3GGRNHPU2L8U","A2APG8MSLJ6G2K","3THR0FZ95PF7SK0MYRNAOUHTWDJOLG","","665.7000000476837","img/land5.png","74","666.2999999523163","1","0","1","2","0.8,0.2,0.2,0.2,0.8,0.2,0.2,0.2,0.8","0.2,0.8,0.2,0.2,0.2,0.8,0.8,0.2,0.2","3","",""
"","html-keyboard-response","55","60589","0.0-55.0","3X3OR7WPZ0M6TCB0IC3GGRNHPU2L8U","A2APG8MSLJ6G2K","3THR0FZ95PF7SK0MYRNAOUHTWDJOLG","","null","<img src=""img/land5.png"" style=""width:200px;border:14px solid red;"">","null","","","","","","","","","",""
"","image-keyboard-response","56","61016","0.0-56.0","3X3OR7WPZ0M6TCB0IC3GGRNHPU2L8U","A2APG8MSLJ6G2K","3THR0FZ95PF7SK0MYRNAOUHTWDJOLG","","426.10000014305115","img/land5.png","75","426.69999980926514","2","0","1","2","0.8,0.2,0.2,0.2,0.8,0.2,0.2,0.2,0.8","0.2,0.8,0.2,0.2,0.2,0.8,0.8,0.2,0.2","3","",""
"","html-keyboard-response","57","61318","0.0-57.0","3X3OR7WPZ0M6TCB0IC3GGRNHPU2L8U","A2APG8MSLJ6G2K","3THR0FZ95PF7SK0MYRNAOUHTWDJOLG","","null","<img src=""img/land5.png"" style=""width:200px;border:14px solid red;"">","null","","","","","","","","","",""
"","image-keyboard-response","58","61864","0.0-58.0","3X3OR7WPZ0M6TCB0IC3GGRNHPU2L8U","A2APG8MSLJ6G2K","3THR0FZ95PF7SK0MYRNAOUHTWDJOLG","","545.2999999523163","img/land5.png","76","545.9000000953674","3","0","1","2","0.8,0.2,0.2,0.2,0.8,0.2,0.2,0.2,0.8","0.2,0.8,0.2,0.2,0.2,0.8,0.8,0.2,0.2","3","",""
"","html-keyboard-response","59","62169","0.0-59.0","3X3OR7WPZ0M6TCB0IC3GGRNHPU2L8U","A2APG8MSLJ6G2K","3THR0FZ95PF7SK0MYRNAOUHTWDJOLG","","null","<img src=""img/land5.png"" style=""width:200px;border:14px solid red;"">","null","","","","","","","","","",""
"","image-keyboard-response","60","62568","0.0-60.0","3X3OR7WPZ0M6TCB0IC3GGRNHPU2L8U","A2APG8MSLJ6G2K","3THR0FZ95PF7SK0MYRNAOUHTWDJOLG","","398.40000009536743","img/land1.png","76","398.89999985694885","3","1","2","2","0.8,0.2,0.2,0.2,0.8,0.2,0.2,0.2,0.8","0.2,0.8,0.2,0.2,0.2,0.8,0.8,0.2,0.2","3","",""
"","html-keyboard-response","61","62869","0.0-61.0","3X3OR7WPZ0M6TCB0IC3GGRNHPU2L8U","A2APG8MSLJ6G2K","3THR0FZ95PF7SK0MYRNAOUHTWDJOLG","","null","<img src=""img/land1.png"" style=""width:200px; border:14px solid green;"">","null","","","","","","","","","",""
"","image-keyboard-response","62","63360","0.0-62.0","3X3OR7WPZ0M6TCB0IC3GGRNHPU2L8U","A2APG8MSLJ6G2K","3THR0FZ95PF7SK0MYRNAOUHTWDJOLG","","490.5","img/land2.png","76","491.09999990463257","3","0","3","2","0.8,0.2,0.2,0.2,0.8,0.2,0.2,0.2,0.8","0.2,0.8,0.2,0.2,0.2,0.8,0.8,0.2,0.2","3","",""
"","html-keyboard-response","63","63662","0.0-63.0","3X3OR7WPZ0M6TCB0IC3GGRNHPU2L8U","A2APG8MSLJ6G2K","3THR0FZ95PF7SK0MYRNAOUHTWDJOLG","","null","<img src=""img/land2.png"" style=""width:200px;border:14px solid red;"">","null","","","","","","","","","",""
"","image-keyboard-response","64","64016","0.0-64.0","3X3OR7WPZ0M6TCB0IC3GGRNHPU2L8U","A2APG8MSLJ6G2K","3THR0FZ95PF7SK0MYRNAOUHTWDJOLG","","352.80000019073486","img/land5.png","75","353.2000000476837","2","1","1","2","0.8,0.2,0.2,0.2,0.8,0.2,0.2,0.2,0.8","0.2,0.8,0.2,0.2,0.2,0.8,0.8,0.2,0.2","3","",""
"","html-keyboard-response","65","64318","0.0-65.0","3X3OR7WPZ0M6TCB0IC3GGRNHPU2L8U","A2APG8MSLJ6G2K","3THR0FZ95PF7SK0MYRNAOUHTWDJOLG","","null","<img src=""img/land5.png"" style=""width:200px; border:14px solid green;"">","null","","","","","","","","","",""
"","image-keyboard-response","66","64751","0.0-66.0","3X3OR7WPZ0M6TCB0IC3GGRNHPU2L8U","A2APG8MSLJ6G2K","3THR0FZ95PF7SK0MYRNAOUHTWDJOLG","","432.7999999523163","img/land2.png","75","433.39999985694885","2","1","3","2","0.8,0.2,0.2,0.2,0.8,0.2,0.2,0.2,0.8","0.2,0.8,0.2,0.2,0.2,0.8,0.8,0.2,0.2","3","",""
"","html-keyboard-response","67","65054","0.0-67.0","3X3OR7WPZ0M6TCB0IC3GGRNHPU2L8U","A2APG8MSLJ6G2K","3THR0FZ95PF7SK0MYRNAOUHTWDJOLG","","null","<img src=""img/land2.png"" style=""width:200px; border:14px solid green;"">","null","","","","","","","","","",""
"","image-keyboard-response","68","65382","0.0-68.0","3X3OR7WPZ0M6TCB0IC3GGRNHPU2L8U","A2APG8MSLJ6G2K","3THR0FZ95PF7SK0MYRNAOUHTWDJOLG","","327.59999990463257","img/land5.png","75","328.40000009536743","2","0","1","2","0.8,0.2,0.2,0.2,0.8,0.2,0.2,0.2,0.8","0.2,0.8,0.2,0.2,0.2,0.8,0.8,0.2,0.2","3","",""
"","html-keyboard-response","69","65684","0.0-69.0","3X3OR7WPZ0M6TCB0IC3GGRNHPU2L8U","A2APG8MSLJ6G2K","3THR0FZ95PF7SK0MYRNAOUHTWDJOLG","","null","<img src=""img/land5.png"" style=""width:200px;border:14px solid red;"">","null","","","","","","","","","",""
"","image-keyboard-response","70","65960","0.0-70.0","3X3OR7WPZ0M6TCB0IC3GGRNHPU2L8U","A2APG8MSLJ6G2K","3THR0FZ95PF7SK0MYRNAOUHTWDJOLG","","275.59999990463257","img/land5.png","74","276.2999999523163","1","0","1","2","0.8,0.2,0.2,0.2,0.8,0.2,0.2,0.2,0.8","0.2,0.8,0.2,0.2,0.2,0.8,0.8,0.2,0.2","3","",""
"","html-keyboard-response","71","66261","0.0-71.0","3X3OR7WPZ0M6TCB0IC3GGRNHPU2L8U","A2APG8MSLJ6G2K","3THR0FZ95PF7SK0MYRNAOUHTWDJOLG","","null","<img src=""img/land5.png"" style=""width:200px;border:14px solid red;"">","null","","","","","","","","","",""
"","image-keyboard-response","72","66904","0.0-72.0","3X3OR7WPZ0M6TCB0IC3GGRNHPU2L8U","A2APG8MSLJ6G2K","3THR0FZ95PF7SK0MYRNAOUHTWDJOLG","","641.5999999046326","img/land2.png","74","642.0999999046326","1","1","3","2","0.8,0.2,0.2,0.2,0.8,0.2,0.2,0.2,0.8","0.2,0.8,0.2,0.2,0.2,0.8,0.8,0.2,0.2","3","",""
"","html-keyboard-response","73","67206","0.0-73.0","3X3OR7WPZ0M6TCB0IC3GGRNHPU2L8U","A2APG8MSLJ6G2K","3THR0FZ95PF7SK0MYRNAOUHTWDJOLG","","null","<img src=""img/land2.png"" style=""width:200px; border:14px solid green;"">","null","","","","","","","","","",""
"","image-keyboard-response","74","67655","0.0-74.0","3X3OR7WPZ0M6TCB0IC3GGRNHPU2L8U","A2APG8MSLJ6G2K","3THR0FZ95PF7SK0MYRNAOUHTWDJOLG","","448.89999985694885","img/land5.png","74","449.59999990463257","1","0","1","2","0.8,0.2,0.2,0.2,0.8,0.2,0.2,0.2,0.8","0.2,0.8,0.2,0.2,0.2,0.8,0.8,0.2,0.2","3","",""
"","html-keyboard-response","75","67957","0.0-75.0","3X3OR7WPZ0M6TCB0IC3GGRNHPU2L8U","A2APG8MSLJ6G2K","3THR0FZ95PF7SK0MYRNAOUHTWDJOLG","","null","<img src=""img/land5.png"" style=""width:200px;border:14px solid red;"">","null","","","","","","","","","",""
"","image-keyboard-response","76","68296","0.0-76.0","3X3OR7WPZ0M6TCB0IC3GGRNHPU2L8U","A2APG8MSLJ6G2K","3THR0FZ95PF7SK0MYRNAOUHTWDJOLG","","338.09999990463257","img/land5.png","75","338.59999990463257","2","1","1","2","0.8,0.2,0.2,0.2,0.8,0.2,0.2,0.2,0.8","0.2,0.8,0.2,0.2,0.2,0.8,0.8,0.2,0.2","3","",""
"","html-keyboard-response","77","68598","0.0-77.0","3X3OR7WPZ0M6TCB0IC3GGRNHPU2L8U","A2APG8MSLJ6G2K","3THR0FZ95PF7SK0MYRNAOUHTWDJOLG","","null","<img src=""img/land5.png"" style=""width:200px; border:14px solid green;"">","null","","","","","","","","","",""
"","image-keyboard-response","78","68936","0.0-78.0","3X3OR7WPZ0M6TCB0IC3GGRNHPU2L8U","A2APG8MSLJ6G2K","3THR0FZ95PF7SK0MYRNAOUHTWDJOLG","","337.7000000476837","img/land5.png","75","338.2000000476837","2","1","1","2","0.8,0.2,0.2,0.2,0.8,0.2,0.2,0.2,0.8","0.2,0.8,0.2,0.2,0.2,0.8,0.8,0.2,0.2","3","",""
"","html-keyboard-response","79","69238","0.0-79.0","3X3OR7WPZ0M6TCB0IC3GGRNHPU2L8U","A2APG8MSLJ6G2K","3THR0FZ95PF7SK0MYRNAOUHTWDJOLG","","null","<img src=""img/land5.png"" style=""width:200px; border:14px solid green;"">","null","","","","","","","","","",""
"","image-keyboard-response","80","69600","0.0-80.0","3X3OR7WPZ0M6TCB0IC3GGRNHPU2L8U","A2APG8MSLJ6G2K","3THR0FZ95PF7SK0MYRNAOUHTWDJOLG","","361.40000009536743","img/land5.png","75","362","2","1","1","2","0.8,0.2,0.2,0.2,0.8,0.2,0.2,0.2,0.8","0.2,0.8,0.2,0.2,0.2,0.8,0.8,0.2,0.2","3","",""
"","html-keyboard-response","81","69901","0.0-81.0","3X3OR7WPZ0M6TCB0IC3GGRNHPU2L8U","A2APG8MSLJ6G2K","3THR0FZ95PF7SK0MYRNAOUHTWDJOLG","","null","<img src=""img/land5.png"" style=""width:200px; border:14px solid green;"">","null","","","","","","","","","",""
"","image-keyboard-response","82","70391","0.0-82.0","3X3OR7WPZ0M6TCB0IC3GGRNHPU2L8U","A2APG8MSLJ6G2K","3THR0FZ95PF7SK0MYRNAOUHTWDJOLG","","489.2000000476837","img/land1.png","75","490","2","0","2","2","0.8,0.2,0.2,0.2,0.8,0.2,0.2,0.2,0.8","0.2,0.8,0.2,0.2,0.2,0.8,0.8,0.2,0.2","3","",""
"","html-keyboard-response","83","70692","0.0-83.0","3X3OR7WPZ0M6TCB0IC3GGRNHPU2L8U","A2APG8MSLJ6G2K","3THR0FZ95PF7SK0MYRNAOUHTWDJOLG","","null","<img src=""img/land1.png"" style=""width:200px;border:14px solid red;"">","null","","","","","","","","","",""
"","image-keyboard-response","84","70968","0.0-84.0","3X3OR7WPZ0M6TCB0IC3GGRNHPU2L8U","A2APG8MSLJ6G2K","3THR0FZ95PF7SK0MYRNAOUHTWDJOLG","","274.40000009536743","img/land5.png","76","275.10000014305115","3","0","1","2","0.8,0.2,0.2,0.2,0.8,0.2,0.2,0.2,0.8","0.2,0.8,0.2,0.2,0.2,0.8,0.8,0.2,0.2","3","",""
"","html-keyboard-response","85","71269","0.0-85.0","3X3OR7WPZ0M6TCB0IC3GGRNHPU2L8U","A2APG8MSLJ6G2K","3THR0FZ95PF7SK0MYRNAOUHTWDJOLG","","null","<img src=""img/land5.png"" style=""width:200px;border:14px solid red;"">","null","","","","","","","","","",""
"","image-keyboard-response","86","71888","0.0-86.0","3X3OR7WPZ0M6TCB0IC3GGRNHPU2L8U","A2APG8MSLJ6G2K","3THR0FZ95PF7SK0MYRNAOUHTWDJOLG","","618.4000000953674","img/land5.png","76","618.8999998569489","3","0","1","2","0.8,0.2,0.2,0.2,0.8,0.2,0.2,0.2,0.8","0.2,0.8,0.2,0.2,0.2,0.8,0.8,0.2,0.2","3","",""
"","html-keyboard-response","87","72189","0.0-87.0","3X3OR7WPZ0M6TCB0IC3GGRNHPU2L8U","A2APG8MSLJ6G2K","3THR0FZ95PF7SK0MYRNAOUHTWDJOLG","","null","<img src=""img/land5.png"" style=""width:200px;border:14px solid red;"">","null","","","","","","","","","",""
"","image-keyboard-response","88","72504","0.0-88.0","3X3OR7WPZ0M6TCB0IC3GGRNHPU2L8U","A2APG8MSLJ6G2K","3THR0FZ95PF7SK0MYRNAOUHTWDJOLG","","313.40000009536743","img/land2.png","74","314.19999980926514","1","1","3","2","0.8,0.2,0.2,0.2,0.8,0.2,0.2,0.2,0.8","0.2,0.8,0.2,0.2,0.2,0.8,0.8,0.2,0.2","3","",""
"","html-keyboard-response","89","72806","0.0-89.0","3X3OR7WPZ0M6TCB0IC3GGRNHPU2L8U","A2APG8MSLJ6G2K","3THR0FZ95PF7SK0MYRNAOUHTWDJOLG","","null","<img src=""img/land2.png"" style=""width:200px; border:14px solid green;"">","null","","","","","","","","","",""
"","image-keyboard-response","90","73336","0.0-90.0","3X3OR7WPZ0M6TCB0IC3GGRNHPU2L8U","A2APG8MSLJ6G2K","3THR0FZ95PF7SK0MYRNAOUHTWDJOLG","","529.4000000953674","img/land2.png","74","530","1","1","3","2","0.8,0.2,0.2,0.2,0.8,0.2,0.2,0.2,0.8","0.2,0.8,0.2,0.2,0.2,0.8,0.8,0.2,0.2","3","",""
"","html-keyboard-response","91","73638","0.0-91.0","3X3OR7WPZ0M6TCB0IC3GGRNHPU2L8U","A2APG8MSLJ6G2K","3THR0FZ95PF7SK0MYRNAOUHTWDJOLG","","null","<img src=""img/land2.png"" style=""width:200px; border:14px solid green;"">","null","","","","","","","","","",""
"","image-keyboard-response","92","74312","0.0-92.0","3X3OR7WPZ0M6TCB0IC3GGRNHPU2L8U","A2APG8MSLJ6G2K","3THR0FZ95PF7SK0MYRNAOUHTWDJOLG","","672.8000001907349","img/land1.png","75","673.5","2","0","2","2","0.8,0.2,0.2,0.2,0.8,0.2,0.2,0.2,0.8","0.2,0.8,0.2,0.2,0.2,0.8,0.8,0.2,0.2","3","",""
"","html-keyboard-response","93","74613","0.0-93.0","3X3OR7WPZ0M6TCB0IC3GGRNHPU2L8U","A2APG8MSLJ6G2K","3THR0FZ95PF7SK0MYRNAOUHTWDJOLG","","null","<img src=""img/land1.png"" style=""width:200px;border:14px solid red;"">","null","","","","","","","","","",""
"","image-keyboard-response","94","75023","0.0-94.0","3X3OR7WPZ0M6TCB0IC3GGRNHPU2L8U","A2APG8MSLJ6G2K","3THR0FZ95PF7SK0MYRNAOUHTWDJOLG","","409.19999980926514","img/land2.png","76","409.89999985694885","3","0","3","2","0.8,0.2,0.2,0.2,0.8,0.2,0.2,0.2,0.8","0.2,0.8,0.2,0.2,0.2,0.8,0.8,0.2,0.2","3","",""
"","html-keyboard-response","95","75325","0.0-95.0","3X3OR7WPZ0M6TCB0IC3GGRNHPU2L8U","A2APG8MSLJ6G2K","3THR0FZ95PF7SK0MYRNAOUHTWDJOLG","","null","<img src=""img/land2.png"" style=""width:200px;border:14px solid red;"">","null","","","","","","","","","",""
"","image-keyboard-response","96","75672","0.0-96.0","3X3OR7WPZ0M6TCB0IC3GGRNHPU2L8U","A2APG8MSLJ6G2K","3THR0FZ95PF7SK0MYRNAOUHTWDJOLG","","345.39999985694885","img/land5.png","75","346.19999980926514","2","1","1","2","0.8,0.2,0.2,0.2,0.8,0.2,0.2,0.2,0.8","0.2,0.8,0.2,0.2,0.2,0.8,0.8,0.2,0.2","3","",""
"","html-keyboard-response","97","75973","0.0-97.0","3X3OR7WPZ0M6TCB0IC3GGRNHPU2L8U","A2APG8MSLJ6G2K","3THR0FZ95PF7SK0MYRNAOUHTWDJOLG","","null","<img src=""img/land5.png"" style=""width:200px; border:14px solid green;"">","null","","","","","","","","","",""
"","image-keyboard-response","98","76359","0.0-98.0","3X3OR7WPZ0M6TCB0IC3GGRNHPU2L8U","A2APG8MSLJ6G2K","3THR0FZ95PF7SK0MYRNAOUHTWDJOLG","","385.60000014305115","img/land5.png","75","386.2999999523163","2","0","1","2","0.8,0.2,0.2,0.2,0.8,0.2,0.2,0.2,0.8","0.2,0.8,0.2,0.2,0.2,0.8,0.8,0.2,0.2","3","",""
"","html-keyboard-response","99","76661","0.0-99.0","3X3OR7WPZ0M6TCB0IC3GGRNHPU2L8U","A2APG8MSLJ6G2K","3THR0FZ95PF7SK0MYRNAOUHTWDJOLG","","null","<img src=""img/land5.png"" style=""width:200px;border:14px solid red;"">","null","","","","","","","","","",""
"","image-keyboard-response","100","76976","0.0-100.0","3X3OR7WPZ0M6TCB0IC3GGRNHPU2L8U","A2APG8MSLJ6G2K","3THR0FZ95PF7SK0MYRNAOUHTWDJOLG","","314.10000014305115","img/land5.png","74","314.7000000476837","1","1","1","2","0.8,0.2,0.2,0.2,0.8,0.2,0.2,0.2,0.8","0.2,0.8,0.2,0.2,0.2,0.8,0.8,0.2,0.2","3","",""
"","html-keyboard-response","101","77276","0.0-101.0","3X3OR7WPZ0M6TCB0IC3GGRNHPU2L8U","A2APG8MSLJ6G2K","3THR0FZ95PF7SK0MYRNAOUHTWDJOLG","","null","<img src=""img/land5.png"" style=""width:200px; border:14px solid green;"">","null","","","","","","","","","",""
"","image-keyboard-response","102","77664","0.0-102.0","3X3OR7WPZ0M6TCB0IC3GGRNHPU2L8U","A2APG8MSLJ6G2K","3THR0FZ95PF7SK0MYRNAOUHTWDJOLG","","386.60000014305115","img/land2.png","74","387.2000000476837","1","1","3","2","0.8,0.2,0.2,0.2,0.8,0.2,0.2,0.2,0.8","0.2,0.8,0.2,0.2,0.2,0.8,0.8,0.2,0.2","3","",""
"","html-keyboard-response","103","77966","0.0-103.0","3X3OR7WPZ0M6TCB0IC3GGRNHPU2L8U","A2APG8MSLJ6G2K","3THR0FZ95PF7SK0MYRNAOUHTWDJOLG","","null","<img src=""img/land2.png"" style=""width:200px; border:14px solid green;"">","null","","","","","","","","","",""
"","image-keyboard-response","104","78368","0.0-104.0","3X3OR7WPZ0M6TCB0IC3GGRNHPU2L8U","A2APG8MSLJ6G2K","3THR0FZ95PF7SK0MYRNAOUHTWDJOLG","","401.30000019073486","img/land2.png","74","401.89999985694885","1","1","3","2","0.8,0.2,0.2,0.2,0.8,0.2,0.2,0.2,0.8","0.2,0.8,0.2,0.2,0.2,0.8,0.8,0.2,0.2","3","",""
"","html-keyboard-response","105","78669","0.0-105.0","3X3OR7WPZ0M6TCB0IC3GGRNHPU2L8U","A2APG8MSLJ6G2K","3THR0FZ95PF7SK0MYRNAOUHTWDJOLG","","null","<img src=""img/land2.png"" style=""width:200px; border:14px solid green;"">","null","","","","","","","","","",""
"","image-keyboard-response","106","79055","0.0-106.0","3X3OR7WPZ0M6TCB0IC3GGRNHPU2L8U","A2APG8MSLJ6G2K","3THR0FZ95PF7SK0MYRNAOUHTWDJOLG","","385.80000019073486","img/land1.png","74","386.5","1","0","2","2","0.8,0.2,0.2,0.2,0.8,0.2,0.2,0.2,0.8","0.2,0.8,0.2,0.2,0.2,0.8,0.8,0.2,0.2","3","",""
"","html-keyboard-response","107","79356","0.0-107.0","3X3OR7WPZ0M6TCB0IC3GGRNHPU2L8U","A2APG8MSLJ6G2K","3THR0FZ95PF7SK0MYRNAOUHTWDJOLG","","null","<img src=""img/land1.png"" style=""width:200px;border:14px solid red;"">","null","","","","","","","","","",""
"","image-keyboard-response","108","79624","0.0-108.0","3X3OR7WPZ0M6TCB0IC3GGRNHPU2L8U","A2APG8MSLJ6G2K","3THR0FZ95PF7SK0MYRNAOUHTWDJOLG","","266.7000000476837","img/land5.png","76","267.2999999523163","3","0","1","2","0.8,0.2,0.2,0.2,0.8,0.2,0.2,0.2,0.8","0.2,0.8,0.2,0.2,0.2,0.8,0.8,0.2,0.2","3","",""
"","html-keyboard-response","109","79926","0.0-109.0","3X3OR7WPZ0M6TCB0IC3GGRNHPU2L8U","A2APG8MSLJ6G2K","3THR0FZ95PF7SK0MYRNAOUHTWDJOLG","","null","<img src=""img/land5.png"" style=""width:200px;border:14px solid red;"">","null","","","","","","","","","",""
"","image-keyboard-response","110","80255","0.0-110.0","3X3OR7WPZ0M6TCB0IC3GGRNHPU2L8U","A2APG8MSLJ6G2K","3THR0FZ95PF7SK0MYRNAOUHTWDJOLG","","328.89999985694885","img/land5.png","75","329.5","2","1","1","2","0.8,0.2,0.2,0.2,0.8,0.2,0.2,0.2,0.8","0.2,0.8,0.2,0.2,0.2,0.8,0.8,0.2,0.2","3","",""
"","html-keyboard-response","111","80556","0.0-111.0","3X3OR7WPZ0M6TCB0IC3GGRNHPU2L8U","A2APG8MSLJ6G2K","3THR0FZ95PF7SK0MYRNAOUHTWDJOLG","","null","<img src=""img/land5.png"" style=""width:200px; border:14px solid green;"">","null","","","","","","","","","",""
"","image-keyboard-response","112","80920","0.0-112.0","3X3OR7WPZ0M6TCB0IC3GGRNHPU2L8U","A2APG8MSLJ6G2K","3THR0FZ95PF7SK0MYRNAOUHTWDJOLG","","362.7999999523163","img/land2.png","74","363.40000009536743","1","1","3","2","0.8,0.2,0.2,0.2,0.8,0.2,0.2,0.2,0.8","0.2,0.8,0.2,0.2,0.2,0.8,0.8,0.2,0.2","3","",""
"","html-keyboard-response","113","81221","0.0-113.0","3X3OR7WPZ0M6TCB0IC3GGRNHPU2L8U","A2APG8MSLJ6G2K","3THR0FZ95PF7SK0MYRNAOUHTWDJOLG","","null","<img src=""img/land2.png"" style=""width:200px; border:14px solid green;"">","null","","","","","","","","","",""
"","image-keyboard-response","114","81496","0.0-114.0","3X3OR7WPZ0M6TCB0IC3GGRNHPU2L8U","A2APG8MSLJ6G2K","3THR0FZ95PF7SK0MYRNAOUHTWDJOLG","","274.2000000476837","img/land1.png","76","274.7999999523163","3","0","2","2","0.8,0.2,0.2,0.2,0.8,0.2,0.2,0.2,0.8","0.2,0.8,0.2,0.2,0.2,0.8,0.8,0.2,0.2","3","",""
"","html-keyboard-response","115","81797","0.0-115.0","3X3OR7WPZ0M6TCB0IC3GGRNHPU2L8U","A2APG8MSLJ6G2K","3THR0FZ95PF7SK0MYRNAOUHTWDJOLG","","null","<img src=""img/land1.png"" style=""width:200px;border:14px solid red;"">","null","","","","","","","","","",""
"","image-keyboard-response","116","82096","0.0-116.0","3X3OR7WPZ0M6TCB0IC3GGRNHPU2L8U","A2APG8MSLJ6G2K","3THR0FZ95PF7SK0MYRNAOUHTWDJOLG","","298.30000019073486","img/land1.png","75","298.7000000476837","2","0","2","2","0.8,0.2,0.2,0.2,0.8,0.2,0.2,0.2,0.8","0.2,0.8,0.2,0.2,0.2,0.8,0.8,0.2,0.2","3","",""
"","html-keyboard-response","117","82397","0.0-117.0","3X3OR7WPZ0M6TCB0IC3GGRNHPU2L8U","A2APG8MSLJ6G2K","3THR0FZ95PF7SK0MYRNAOUHTWDJOLG","","null","<img src=""img/land1.png"" style=""width:200px;border:14px solid red;"">","null","","","","","","","","","",""
"","image-keyboard-response","118","82678","0.0-118.0","3X3OR7WPZ0M6TCB0IC3GGRNHPU2L8U","A2APG8MSLJ6G2K","3THR0FZ95PF7SK0MYRNAOUHTWDJOLG","","280.7000000476837","img/land5.png","74","281.19999980926514","1","0","1","2","0.8,0.2,0.2,0.2,0.8,0.2,0.2,0.2,0.8","0.2,0.8,0.2,0.2,0.2,0.8,0.8,0.2,0.2","3","",""
"","html-keyboard-response","119","82980","0.0-119.0","3X3OR7WPZ0M6TCB0IC3GGRNHPU2L8U","A2APG8MSLJ6G2K","3THR0FZ95PF7SK0MYRNAOUHTWDJOLG","","null","<img src=""img/land5.png"" style=""width:200px;border:14px solid red;"">","null","","","","","","","","","",""
"","image-keyboard-response","120","83352","0.0-120.0","3X3OR7WPZ0M6TCB0IC3GGRNHPU2L8U","A2APG8MSLJ6G2K","3THR0FZ95PF7SK0MYRNAOUHTWDJOLG","","371.59999990463257","img/land2.png","74","372.2000000476837","1","0","3","2","0.8,0.2,0.2,0.2,0.8,0.2,0.2,0.2,0.8","0.2,0.8,0.2,0.2,0.2,0.8,0.8,0.2,0.2","3","",""
"","html-keyboard-response","121","83653","0.0-121.0","3X3OR7WPZ0M6TCB0IC3GGRNHPU2L8U","A2APG8MSLJ6G2K","3THR0FZ95PF7SK0MYRNAOUHTWDJOLG","","null","<img src=""img/land2.png"" style=""width:200px;border:14px solid red;"">","null","","","","","","","","","",""
"","image-keyboard-response","122","83960","0.0-122.0","3X3OR7WPZ0M6TCB0IC3GGRNHPU2L8U","A2APG8MSLJ6G2K","3THR0FZ95PF7SK0MYRNAOUHTWDJOLG","","306.10000014305115","img/land2.png","75","306.7999999523163","2","0","3","2","0.8,0.2,0.2,0.2,0.8,0.2,0.2,0.2,0.8","0.2,0.8,0.2,0.2,0.2,0.8,0.8,0.2,0.2","3","",""
"","html-keyboard-response","123","84261","0.0-123.0","3X3OR7WPZ0M6TCB0IC3GGRNHPU2L8U","A2APG8MSLJ6G2K","3THR0FZ95PF7SK0MYRNAOUHTWDJOLG","","null","<img src=""img/land2.png"" style=""width:200px;border:14px solid red;"">","null","","","","","","","","","",""
"","image-keyboard-response","124","84528","0.0-124.0","3X3OR7WPZ0M6TCB0IC3GGRNHPU2L8U","A2APG8MSLJ6G2K","3THR0FZ95PF7SK0MYRNAOUHTWDJOLG","","265.2999999523163","img/land2.png","75","266","2","0","3","2","0.8,0.2,0.2,0.2,0.8,0.2,0.2,0.2,0.8","0.2,0.8,0.2,0.2,0.2,0.8,0.8,0.2,0.2","3","",""
"","html-keyboard-response","125","84829","0.0-125.0","3X3OR7WPZ0M6TCB0IC3GGRNHPU2L8U","A2APG8MSLJ6G2K","3THR0FZ95PF7SK0MYRNAOUHTWDJOLG","","null","<img src=""img/land2.png"" style=""width:200px;border:14px solid red;"">","null","","","","","","","","","",""
"","image-keyboard-response","126","84872","0.0-126.0","3X3OR7WPZ0M6TCB0IC3GGRNHPU2L8U","A2APG8MSLJ6G2K","3THR0FZ95PF7SK0MYRNAOUHTWDJOLG","","42","img/land1.png","76","42.700000047683716","3","1","2","2","0.8,0.2,0.2,0.2,0.8,0.2,0.2,0.2,0.8","0.2,0.8,0.2,0.2,0.2,0.8,0.8,0.2,0.2","3","",""
"","html-keyboard-response","127","85173","0.0-127.0","3X3OR7WPZ0M6TCB0IC3GGRNHPU2L8U","A2APG8MSLJ6G2K","3THR0FZ95PF7SK0MYRNAOUHTWDJOLG","","null","<img src=""img/land1.png"" style=""width:200px; border:14px solid green;"">","null","","","","","","","","","",""
"","image-keyboard-response","128","85807","0.0-128.0","3X3OR7WPZ0M6TCB0IC3GGRNHPU2L8U","A2APG8MSLJ6G2K","3THR0FZ95PF7SK0MYRNAOUHTWDJOLG","","633.2999999523163","img/land5.png","74","633.9000000953674","1","0","1","2","0.8,0.2,0.2,0.2,0.8,0.2,0.2,0.2,0.8","0.2,0.8,0.2,0.2,0.2,0.8,0.8,0.2,0.2","3","",""
"","html-keyboard-response","129","86108","0.0-129.0","3X3OR7WPZ0M6TCB0IC3GGRNHPU2L8U","A2APG8MSLJ6G2K","3THR0FZ95PF7SK0MYRNAOUHTWDJOLG","","null","<img src=""img/land5.png"" style=""width:200px;border:14px solid red;"">","null","","","","","","","","","",""
"","image-keyboard-response","130","86423","0.0-130.0","3X3OR7WPZ0M6TCB0IC3GGRNHPU2L8U","A2APG8MSLJ6G2K","3THR0FZ95PF7SK0MYRNAOUHTWDJOLG","","314.69999980926514","img/land5.png","75","315.2000000476837","2","1","1","2","0.8,0.2,0.2,0.2,0.8,0.2,0.2,0.2,0.8","0.2,0.8,0.2,0.2,0.2,0.8,0.8,0.2,0.2","3","",""
"","html-keyboard-response","131","86725","0.0-131.0","3X3OR7WPZ0M6TCB0IC3GGRNHPU2L8U","A2APG8MSLJ6G2K","3THR0FZ95PF7SK0MYRNAOUHTWDJOLG","","null","<img src=""img/land5.png"" style=""width:200px; border:14px solid green;"">","null","","","","","","","","","",""
"","image-keyboard-response","132","87144","0.0-132.0","3X3OR7WPZ0M6TCB0IC3GGRNHPU2L8U","A2APG8MSLJ6G2K","3THR0FZ95PF7SK0MYRNAOUHTWDJOLG","","418","img/land2.png","75","418.7000000476837","2","0","3","2","0.8,0.2,0.2,0.2,0.8,0.2,0.2,0.2,0.8","0.2,0.8,0.2,0.2,0.2,0.8,0.8,0.2,0.2","3","",""
"","html-keyboard-response","133","87446","0.0-133.0","3X3OR7WPZ0M6TCB0IC3GGRNHPU2L8U","A2APG8MSLJ6G2K","3THR0FZ95PF7SK0MYRNAOUHTWDJOLG","","null","<img src=""img/land2.png"" style=""width:200px;border:14px solid red;"">","null","","","","","","","","","",""
"","image-keyboard-response","134","87568","0.0-134.0","3X3OR7WPZ0M6TCB0IC3GGRNHPU2L8U","A2APG8MSLJ6G2K","3THR0FZ95PF7SK0MYRNAOUHTWDJOLG","","120.89999985694885","img/land2.png","76","121.60000014305115","3","0","3","2","0.8,0.2,0.2,0.2,0.8,0.2,0.2,0.2,0.8","0.2,0.8,0.2,0.2,0.2,0.8,0.8,0.2,0.2","3","",""
"","html-keyboard-response","135","87869","0.0-135.0","3X3OR7WPZ0M6TCB0IC3GGRNHPU2L8U","A2APG8MSLJ6G2K","3THR0FZ95PF7SK0MYRNAOUHTWDJOLG","","null","<img src=""img/land2.png"" style=""width:200px;border:14px solid red;"">","null","","","","","","","","","",""
"","image-keyboard-response","136","88303","0.0-136.0","3X3OR7WPZ0M6TCB0IC3GGRNHPU2L8U","A2APG8MSLJ6G2K","3THR0FZ95PF7SK0MYRNAOUHTWDJOLG","","433.39999985694885","img/land5.png","76","434.09999990463257","3","0","1","2","0.8,0.2,0.2,0.2,0.8,0.2,0.2,0.2,0.8","0.2,0.8,0.2,0.2,0.2,0.8,0.8,0.2,0.2","3","",""
"","html-keyboard-response","137","88604","0.0-137.0","3X3OR7WPZ0M6TCB0IC3GGRNHPU2L8U","A2APG8MSLJ6G2K","3THR0FZ95PF7SK0MYRNAOUHTWDJOLG","","null","<img src=""img/land5.png"" style=""width:200px;border:14px solid red;"">","null","","","","","","","","","",""
"","image-keyboard-response","138","88959","0.0-138.0","3X3OR7WPZ0M6TCB0IC3GGRNHPU2L8U","A2APG8MSLJ6G2K","3THR0FZ95PF7SK0MYRNAOUHTWDJOLG","","354.7999999523163","img/land5.png","74","355.39999985694885","1","0","1","2","0.8,0.2,0.2,0.2,0.8,0.2,0.2,0.2,0.8","0.2,0.8,0.2,0.2,0.2,0.8,0.8,0.2,0.2","3","",""
"","html-keyboard-response","139","89261","0.0-139.0","3X3OR7WPZ0M6TCB0IC3GGRNHPU2L8U","A2APG8MSLJ6G2K","3THR0FZ95PF7SK0MYRNAOUHTWDJOLG","","null","<img src=""img/land5.png"" style=""width:200px;border:14px solid red;"">","null","","","","","","","","","",""
"","image-keyboard-response","140","89304","0.0-140.0","3X3OR7WPZ0M6TCB0IC3GGRNHPU2L8U","A2APG8MSLJ6G2K","3THR0FZ95PF7SK0MYRNAOUHTWDJOLG","","42.30000019073486","img/land5.png","74","42.90000009536743","1","0","1","2","0.8,0.2,0.2,0.2,0.8,0.2,0.2,0.2,0.8","0.2,0.8,0.2,0.2,0.2,0.8,0.8,0.2,0.2","3","",""
"","html-keyboard-response","141","89605","0.0-141.0","3X3OR7WPZ0M6TCB0IC3GGRNHPU2L8U","A2APG8MSLJ6G2K","3THR0FZ95PF7SK0MYRNAOUHTWDJOLG","","null","<img src=""img/land5.png"" style=""width:200px;border:14px solid red;"">","null","","","","","","","","","",""
"","image-keyboard-response","142","90144","0.0-142.0","3X3OR7WPZ0M6TCB0IC3GGRNHPU2L8U","A2APG8MSLJ6G2K","3THR0FZ95PF7SK0MYRNAOUHTWDJOLG","","538.0999999046326","img/land5.png","75","538.7000000476837","2","1","1","2","0.8,0.2,0.2,0.2,0.8,0.2,0.2,0.2,0.8","0.2,0.8,0.2,0.2,0.2,0.8,0.8,0.2,0.2","3","",""
"","html-keyboard-response","143","90446","0.0-143.0","3X3OR7WPZ0M6TCB0IC3GGRNHPU2L8U","A2APG8MSLJ6G2K","3THR0FZ95PF7SK0MYRNAOUHTWDJOLG","","null","<img src=""img/land5.png"" style=""width:200px; border:14px solid green;"">","null","","","","","","","","","",""
"","image-keyboard-response","144","90960","0.0-144.0","3X3OR7WPZ0M6TCB0IC3GGRNHPU2L8U","A2APG8MSLJ6G2K","3THR0FZ95PF7SK0MYRNAOUHTWDJOLG","","513.3000001907349","img/land1.png","75","514","2","0","2","2","0.8,0.2,0.2,0.2,0.8,0.2,0.2,0.2,0.8","0.2,0.8,0.2,0.2,0.2,0.8,0.8,0.2,0.2","3","",""
"","html-keyboard-response","145","91261","0.0-145.0","3X3OR7WPZ0M6TCB0IC3GGRNHPU2L8U","A2APG8MSLJ6G2K","3THR0FZ95PF7SK0MYRNAOUHTWDJOLG","","null","<img src=""img/land1.png"" style=""width:200px;border:14px solid red;"">","null","","","","","","","","","",""
"","image-keyboard-response","146","91527","0.0-146.0","3X3OR7WPZ0M6TCB0IC3GGRNHPU2L8U","A2APG8MSLJ6G2K","3THR0FZ95PF7SK0MYRNAOUHTWDJOLG","","265.7000000476837","img/land5.png","74","266.2999999523163","1","0","1","2","0.8,0.2,0.2,0.2,0.8,0.2,0.2,0.2,0.8","0.2,0.8,0.2,0.2,0.2,0.8,0.8,0.2,0.2","3","",""
"","html-keyboard-response","147","91828","0.0-147.0","3X3OR7WPZ0M6TCB0IC3GGRNHPU2L8U","A2APG8MSLJ6G2K","3THR0FZ95PF7SK0MYRNAOUHTWDJOLG","","null","<img src=""img/land5.png"" style=""width:200px;border:14px solid red;"">","null","","","","","","","","","",""
"","image-keyboard-response","148","91968","0.0-148.0","3X3OR7WPZ0M6TCB0IC3GGRNHPU2L8U","A2APG8MSLJ6G2K","3THR0FZ95PF7SK0MYRNAOUHTWDJOLG","","138.5","img/land5.png","76","139.09999990463257","3","0","1","2","0.8,0.2,0.2,0.2,0.8,0.2,0.2,0.2,0.8","0.2,0.8,0.2,0.2,0.2,0.8,0.8,0.2,0.2","3","",""
"","html-keyboard-response","149","92269","0.0-149.0","3X3OR7WPZ0M6TCB0IC3GGRNHPU2L8U","A2APG8MSLJ6G2K","3THR0FZ95PF7SK0MYRNAOUHTWDJOLG","","null","<img src=""img/land5.png"" style=""width:200px;border:14px solid red;"">","null","","","","","","","","","",""
"","image-keyboard-response","150","92744","0.0-150.0","3X3OR7WPZ0M6TCB0IC3GGRNHPU2L8U","A2APG8MSLJ6G2K","3THR0FZ95PF7SK0MYRNAOUHTWDJOLG","","474","img/land5.png","75","474.40000009536743","2","1","1","2","0.8,0.2,0.2,0.2,0.8,0.2,0.2,0.2,0.8","0.2,0.8,0.2,0.2,0.2,0.8,0.8,0.2,0.2","3","",""
"","html-keyboard-response","151","93045","0.0-151.0","3X3OR7WPZ0M6TCB0IC3GGRNHPU2L8U","A2APG8MSLJ6G2K","3THR0FZ95PF7SK0MYRNAOUHTWDJOLG","","null","<img src=""img/land5.png"" style=""width:200px; border:14px solid green;"">","null","","","","","","","","","",""
"","image-keyboard-response","152","93368","0.0-152.0","3X3OR7WPZ0M6TCB0IC3GGRNHPU2L8U","A2APG8MSLJ6G2K","3THR0FZ95PF7SK0MYRNAOUHTWDJOLG","","321.7000000476837","img/land5.png","75","322.5","2","1","1","2","0.8,0.2,0.2,0.2,0.8,0.2,0.2,0.2,0.8","0.2,0.8,0.2,0.2,0.2,0.8,0.8,0.2,0.2","3","",""
"","html-keyboard-response","153","93669","0.0-153.0","3X3OR7WPZ0M6TCB0IC3GGRNHPU2L8U","A2APG8MSLJ6G2K","3THR0FZ95PF7SK0MYRNAOUHTWDJOLG","","null","<img src=""img/land5.png"" style=""width:200px; border:14px solid green;"">","null","","","","","","","","","",""
"","image-keyboard-response","154","94016","0.0-154.0","3X3OR7WPZ0M6TCB0IC3GGRNHPU2L8U","A2APG8MSLJ6G2K","3THR0FZ95PF7SK0MYRNAOUHTWDJOLG","","345.90000009536743","img/land5.png","75","346.5","2","1","1","2","0.8,0.2,0.2,0.2,0.8,0.2,0.2,0.2,0.8","0.2,0.8,0.2,0.2,0.2,0.8,0.8,0.2,0.2","3","",""
"","html-keyboard-response","155","94318","0.0-155.0","3X3OR7WPZ0M6TCB0IC3GGRNHPU2L8U","A2APG8MSLJ6G2K","3THR0FZ95PF7SK0MYRNAOUHTWDJOLG","","null","<img src=""img/land5.png"" style=""width:200px; border:14px solid green;"">","null","","","","","","","","","",""
"","image-keyboard-response","156","94664","0.0-156.0","3X3OR7WPZ0M6TCB0IC3GGRNHPU2L8U","A2APG8MSLJ6G2K","3THR0FZ95PF7SK0MYRNAOUHTWDJOLG","","345.2999999523163","img/land5.png","75","346","2","1","1","2","0.8,0.2,0.2,0.2,0.8,0.2,0.2,0.2,0.8","0.2,0.8,0.2,0.2,0.2,0.8,0.8,0.2,0.2","3","",""
"","html-keyboard-response","157","94965","0.0-157.0","3X3OR7WPZ0M6TCB0IC3GGRNHPU2L8U","A2APG8MSLJ6G2K","3THR0FZ95PF7SK0MYRNAOUHTWDJOLG","","null","<img src=""img/land5.png"" style=""width:200px; border:14px solid green;"">","null","","","","","","","","","",""
"","image-keyboard-response","158","95839","0.0-158.0","3X3OR7WPZ0M6TCB0IC3GGRNHPU2L8U","A2APG8MSLJ6G2K","3THR0FZ95PF7SK0MYRNAOUHTWDJOLG","","873.9000000953674","img/land1.png","75","874.6000001430511","2","1","2","2","0.8,0.2,0.2,0.2,0.8,0.2,0.2,0.2,0.8","0.2,0.8,0.2,0.2,0.2,0.8,0.8,0.2,0.2","3","",""
"","html-keyboard-response","159","96142","0.0-159.0","3X3OR7WPZ0M6TCB0IC3GGRNHPU2L8U","A2APG8MSLJ6G2K","3THR0FZ95PF7SK0MYRNAOUHTWDJOLG","","null","<img src=""img/land1.png"" style=""width:200px; border:14px solid green;"">","null","","","","","","","","","",""
"","image-keyboard-response","160","96464","0.0-160.0","3X3OR7WPZ0M6TCB0IC3GGRNHPU2L8U","A2APG8MSLJ6G2K","3THR0FZ95PF7SK0MYRNAOUHTWDJOLG","","321.40000009536743","img/land1.png","75","322","2","0","2","2","0.8,0.2,0.2,0.2,0.8,0.2,0.2,0.2,0.8","0.2,0.8,0.2,0.2,0.2,0.8,0.8,0.2,0.2","3","",""
"","html-keyboard-response","161","96765","0.0-161.0","3X3OR7WPZ0M6TCB0IC3GGRNHPU2L8U","A2APG8MSLJ6G2K","3THR0FZ95PF7SK0MYRNAOUHTWDJOLG","","null","<img src=""img/land1.png"" style=""width:200px;border:14px solid red;"">","null","","","","","","","","","",""
"","image-keyboard-response","162","97216","0.0-162.0","3X3OR7WPZ0M6TCB0IC3GGRNHPU2L8U","A2APG8MSLJ6G2K","3THR0FZ95PF7SK0MYRNAOUHTWDJOLG","","450.09999990463257","img/land2.png","76","450.69999980926514","3","0","3","2","0.8,0.2,0.2,0.2,0.8,0.2,0.2,0.2,0.8","0.2,0.8,0.2,0.2,0.2,0.8,0.8,0.2,0.2","3","",""
"","html-keyboard-response","163","97517","0.0-163.0","3X3OR7WPZ0M6TCB0IC3GGRNHPU2L8U","A2APG8MSLJ6G2K","3THR0FZ95PF7SK0MYRNAOUHTWDJOLG","","null","<img src=""img/land2.png"" style=""width:200px;border:14px solid red;"">","null","","","","","","","","","",""
"","image-keyboard-response","164","97912","0.0-164.0","3X3OR7WPZ0M6TCB0IC3GGRNHPU2L8U","A2APG8MSLJ6G2K","3THR0FZ95PF7SK0MYRNAOUHTWDJOLG","","394","img/land5.png","74","394.59999990463257","1","0","1","2","0.8,0.2,0.2,0.2,0.8,0.2,0.2,0.2,0.8","0.2,0.8,0.2,0.2,0.2,0.8,0.8,0.2,0.2","3","",""
"","html-keyboard-response","165","98213","0.0-165.0","3X3OR7WPZ0M6TCB0IC3GGRNHPU2L8U","A2APG8MSLJ6G2K","3THR0FZ95PF7SK0MYRNAOUHTWDJOLG","","null","<img src=""img/land5.png"" style=""width:200px;border:14px solid red;"">","null","","","","","","","","","",""
"","image-keyboard-response","166","98792","0.0-166.0","3X3OR7WPZ0M6TCB0IC3GGRNHPU2L8U","A2APG8MSLJ6G2K","3THR0FZ95PF7SK0MYRNAOUHTWDJOLG","","578.7000000476837","img/land5.png","75","579.2000000476837","2","1","1","2","0.8,0.2,0.2,0.2,0.8,0.2,0.2,0.2,0.8","0.2,0.8,0.2,0.2,0.2,0.8,0.8,0.2,0.2","3","",""
"","html-keyboard-response","167","99093","0.0-167.0","3X3OR7WPZ0M6TCB0IC3GGRNHPU2L8U","A2APG8MSLJ6G2K","3THR0FZ95PF7SK0MYRNAOUHTWDJOLG","","null","<img src=""img/land5.png"" style=""width:200px; border:14px solid green;"">","null","","","","","","","","","",""
"","image-keyboard-response","168","99535","0.0-168.0","3X3OR7WPZ0M6TCB0IC3GGRNHPU2L8U","A2APG8MSLJ6G2K","3THR0FZ95PF7SK0MYRNAOUHTWDJOLG","","441.7000000476837","img/land5.png","74","442.2999999523163","1","0","1","2","0.8,0.2,0.2,0.2,0.8,0.2,0.2,0.2,0.8","0.2,0.8,0.2,0.2,0.2,0.8,0.8,0.2,0.2","3","",""
"","html-keyboard-response","169","99837","0.0-169.0","3X3OR7WPZ0M6TCB0IC3GGRNHPU2L8U","A2APG8MSLJ6G2K","3THR0FZ95PF7SK0MYRNAOUHTWDJOLG","","null","<img src=""img/land5.png"" style=""width:200px;border:14px solid red;"">","null","","","","","","","","","",""
"","image-keyboard-response","170","100471","0.0-170.0","3X3OR7WPZ0M6TCB0IC3GGRNHPU2L8U","A2APG8MSLJ6G2K","3THR0FZ95PF7SK0MYRNAOUHTWDJOLG","","633.5","img/land1.png","75","634","2","0","2","2","0.8,0.2,0.2,0.2,0.8,0.2,0.2,0.2,0.8","0.2,0.8,0.2,0.2,0.2,0.8,0.8,0.2,0.2","3","",""
"","html-keyboard-response","171","100772","0.0-171.0","3X3OR7WPZ0M6TCB0IC3GGRNHPU2L8U","A2APG8MSLJ6G2K","3THR0FZ95PF7SK0MYRNAOUHTWDJOLG","","null","<img src=""img/land1.png"" style=""width:200px;border:14px solid red;"">","null","","","","","","","","","",""
"","image-keyboard-response","172","101328","0.0-172.0","3X3OR7WPZ0M6TCB0IC3GGRNHPU2L8U","A2APG8MSLJ6G2K","3THR0FZ95PF7SK0MYRNAOUHTWDJOLG","","554.7000000476837","img/land1.png","74","555.3999998569489","1","0","2","2","0.8,0.2,0.2,0.2,0.8,0.2,0.2,0.2,0.8","0.2,0.8,0.2,0.2,0.2,0.8,0.8,0.2,0.2","3","",""
"","html-keyboard-response","173","101629","0.0-173.0","3X3OR7WPZ0M6TCB0IC3GGRNHPU2L8U","A2APG8MSLJ6G2K","3THR0FZ95PF7SK0MYRNAOUHTWDJOLG","","null","<img src=""img/land1.png"" style=""width:200px;border:14px solid red;"">","null","","","","","","","","","",""
"","image-keyboard-response","174","101912","0.0-174.0","3X3OR7WPZ0M6TCB0IC3GGRNHPU2L8U","A2APG8MSLJ6G2K","3THR0FZ95PF7SK0MYRNAOUHTWDJOLG","","281.5","img/land1.png","74","282.2999999523163","1","0","2","2","0.8,0.2,0.2,0.2,0.8,0.2,0.2,0.2,0.8","0.2,0.8,0.2,0.2,0.2,0.8,0.8,0.2,0.2","3","",""
"","html-keyboard-response","175","102218","0.0-175.0","3X3OR7WPZ0M6TCB0IC3GGRNHPU2L8U","A2APG8MSLJ6G2K","3THR0FZ95PF7SK0MYRNAOUHTWDJOLG","","null","<img src=""img/land1.png"" style=""width:200px;border:14px solid red;"">","null","","","","","","","","","",""
"","image-keyboard-response","176","102856","0.0-176.0","3X3OR7WPZ0M6TCB0IC3GGRNHPU2L8U","A2APG8MSLJ6G2K","3THR0FZ95PF7SK0MYRNAOUHTWDJOLG","","637.2000000476837","img/land2.png","75","638","2","1","3","2","0.8,0.2,0.2,0.2,0.8,0.2,0.2,0.2,0.8","0.2,0.8,0.2,0.2,0.2,0.8,0.8,0.2,0.2","3","",""
"","html-keyboard-response","177","103158","0.0-177.0","3X3OR7WPZ0M6TCB0IC3GGRNHPU2L8U","A2APG8MSLJ6G2K","3THR0FZ95PF7SK0MYRNAOUHTWDJOLG","","null","<img src=""img/land2.png"" style=""width:200px; border:14px solid green;"">","null","","","","","","","","","",""
"","image-keyboard-response","178","103735","0.0-178.0","3X3OR7WPZ0M6TCB0IC3GGRNHPU2L8U","A2APG8MSLJ6G2K","3THR0FZ95PF7SK0MYRNAOUHTWDJOLG","","576.5","img/land5.png","75","577.0999999046326","2","1","1","2","0.8,0.2,0.2,0.2,0.8,0.2,0.2,0.2,0.8","0.2,0.8,0.2,0.2,0.2,0.8,0.8,0.2,0.2","3","",""
"","html-keyboard-response","179","104037","0.0-179.0","3X3OR7WPZ0M6TCB0IC3GGRNHPU2L8U","A2APG8MSLJ6G2K","3THR0FZ95PF7SK0MYRNAOUHTWDJOLG","","null","<img src=""img/land5.png"" style=""width:200px; border:14px solid green;"">","null","","","","","","","","","",""
"","image-keyboard-response","180","104391","0.0-180.0","3X3OR7WPZ0M6TCB0IC3GGRNHPU2L8U","A2APG8MSLJ6G2K","3THR0FZ95PF7SK0MYRNAOUHTWDJOLG","","353.7999999523163","img/land5.png","75","354.2999999523163","2","1","1","2","0.8,0.2,0.2,0.2,0.8,0.2,0.2,0.2,0.8","0.2,0.8,0.2,0.2,0.2,0.8,0.8,0.2,0.2","3","",""
"","html-keyboard-response","181","104693","0.0-181.0","3X3OR7WPZ0M6TCB0IC3GGRNHPU2L8U","A2APG8MSLJ6G2K","3THR0FZ95PF7SK0MYRNAOUHTWDJOLG","","null","<img src=""img/land5.png"" style=""width:200px; border:14px solid green;"">","null","","","","","","","","","",""
"","image-keyboard-response","182","105064","0.0-182.0","3X3OR7WPZ0M6TCB0IC3GGRNHPU2L8U","A2APG8MSLJ6G2K","3THR0FZ95PF7SK0MYRNAOUHTWDJOLG","","370.2999999523163","img/land5.png","75","371","2","1","1","2","0.8,0.2,0.2,0.2,0.8,0.2,0.2,0.2,0.8","0.2,0.8,0.2,0.2,0.2,0.8,0.8,0.2,0.2","3","",""
"","html-keyboard-response","183","105366","0.0-183.0","3X3OR7WPZ0M6TCB0IC3GGRNHPU2L8U","A2APG8MSLJ6G2K","3THR0FZ95PF7SK0MYRNAOUHTWDJOLG","","null","<img src=""img/land5.png"" style=""width:200px; border:14px solid green;"">","null","","","","","","","","","",""
"","image-keyboard-response","184","105759","0.0-184.0","3X3OR7WPZ0M6TCB0IC3GGRNHPU2L8U","A2APG8MSLJ6G2K","3THR0FZ95PF7SK0MYRNAOUHTWDJOLG","","392.7999999523163","img/land5.png","75","393.59999990463257","2","1","1","2","0.8,0.2,0.2,0.2,0.8,0.2,0.2,0.2,0.8","0.2,0.8,0.2,0.2,0.2,0.8,0.8,0.2,0.2","3","",""
"","html-keyboard-response","185","106061","0.0-185.0","3X3OR7WPZ0M6TCB0IC3GGRNHPU2L8U","A2APG8MSLJ6G2K","3THR0FZ95PF7SK0MYRNAOUHTWDJOLG","","null","<img src=""img/land5.png"" style=""width:200px; border:14px solid green;"">","null","","","","","","","","","",""
"","image-keyboard-response","186","106631","0.0-186.0","3X3OR7WPZ0M6TCB0IC3GGRNHPU2L8U","A2APG8MSLJ6G2K","3THR0FZ95PF7SK0MYRNAOUHTWDJOLG","","569.5999999046326","img/land2.png","74","570.2000000476837","1","1","3","2","0.8,0.2,0.2,0.2,0.8,0.2,0.2,0.2,0.8","0.2,0.8,0.2,0.2,0.2,0.8,0.8,0.2,0.2","3","",""
"","html-keyboard-response","187","106933","0.0-187.0","3X3OR7WPZ0M6TCB0IC3GGRNHPU2L8U","A2APG8MSLJ6G2K","3THR0FZ95PF7SK0MYRNAOUHTWDJOLG","","null","<img src=""img/land2.png"" style=""width:200px; border:14px solid green;"">","null","","","","","","","","","",""
"","image-keyboard-response","188","107407","0.0-188.0","3X3OR7WPZ0M6TCB0IC3GGRNHPU2L8U","A2APG8MSLJ6G2K","3THR0FZ95PF7SK0MYRNAOUHTWDJOLG","","473.80000019073486","img/land5.png","74","474.2999999523163","1","1","1","2","0.8,0.2,0.2,0.2,0.8,0.2,0.2,0.2,0.8","0.2,0.8,0.2,0.2,0.2,0.8,0.8,0.2,0.2","3","",""
"","html-keyboard-response","189","107709","0.0-189.0","3X3OR7WPZ0M6TCB0IC3GGRNHPU2L8U","A2APG8MSLJ6G2K","3THR0FZ95PF7SK0MYRNAOUHTWDJOLG","","null","<img src=""img/land5.png"" style=""width:200px; border:14px solid green;"">","null","","","","","","","","","",""
"","image-keyboard-response","190","108159","0.0-190.0","3X3OR7WPZ0M6TCB0IC3GGRNHPU2L8U","A2APG8MSLJ6G2K","3THR0FZ95PF7SK0MYRNAOUHTWDJOLG","","449.39999985694885","img/land5.png","75","449.90000009536743","2","0","1","2","0.8,0.2,0.2,0.2,0.8,0.2,0.2,0.2,0.8","0.2,0.8,0.2,0.2,0.2,0.8,0.8,0.2,0.2","3","",""
"","html-keyboard-response","191","108460","0.0-191.0","3X3OR7WPZ0M6TCB0IC3GGRNHPU2L8U","A2APG8MSLJ6G2K","3THR0FZ95PF7SK0MYRNAOUHTWDJOLG","","null","<img src=""img/land5.png"" style=""width:200px;border:14px solid red;"">","null","","","","","","","","","",""
"","image-keyboard-response","192","108912","0.0-192.0","3X3OR7WPZ0M6TCB0IC3GGRNHPU2L8U","A2APG8MSLJ6G2K","3THR0FZ95PF7SK0MYRNAOUHTWDJOLG","","451","img/land1.png","74","451.5","1","0","2","2","0.8,0.2,0.2,0.2,0.8,0.2,0.2,0.2,0.8","0.2,0.8,0.2,0.2,0.2,0.8,0.8,0.2,0.2","3","",""
"","html-keyboard-response","193","109213","0.0-193.0","3X3OR7WPZ0M6TCB0IC3GGRNHPU2L8U","A2APG8MSLJ6G2K","3THR0FZ95PF7SK0MYRNAOUHTWDJOLG","","null","<img src=""img/land1.png"" style=""width:200px;border:14px solid red;"">","null","","","","","","","","","",""
"","image-keyboard-response","194","109959","0.0-194.0","3X3OR7WPZ0M6TCB0IC3GGRNHPU2L8U","A2APG8MSLJ6G2K","3THR0FZ95PF7SK0MYRNAOUHTWDJOLG","","745.9000000953674","img/land2.png","74","746.5","1","1","3","2","0.8,0.2,0.2,0.2,0.8,0.2,0.2,0.2,0.8","0.2,0.8,0.2,0.2,0.2,0.8,0.8,0.2,0.2","3","",""
"","html-keyboard-response","195","110260","0.0-195.0","3X3OR7WPZ0M6TCB0IC3GGRNHPU2L8U","A2APG8MSLJ6G2K","3THR0FZ95PF7SK0MYRNAOUHTWDJOLG","","null","<img src=""img/land2.png"" style=""width:200px; border:14px solid green;"">","null","","","","","","","","","",""
"","image-keyboard-response","196","110568","0.0-196.0","3X3OR7WPZ0M6TCB0IC3GGRNHPU2L8U","A2APG8MSLJ6G2K","3THR0FZ95PF7SK0MYRNAOUHTWDJOLG","","306.5","img/land1.png","74","307.2999999523163","1","0","2","2","0.8,0.2,0.2,0.2,0.8,0.2,0.2,0.2,0.8","0.2,0.8,0.2,0.2,0.2,0.8,0.8,0.2,0.2","3","",""
"","html-keyboard-response","197","110869","0.0-197.0","3X3OR7WPZ0M6TCB0IC3GGRNHPU2L8U","A2APG8MSLJ6G2K","3THR0FZ95PF7SK0MYRNAOUHTWDJOLG","","null","<img src=""img/land1.png"" style=""width:200px;border:14px solid red;"">","null","","","","","","","","","",""
"","image-keyboard-response","198","111456","0.0-198.0","3X3OR7WPZ0M6TCB0IC3GGRNHPU2L8U","A2APG8MSLJ6G2K","3THR0FZ95PF7SK0MYRNAOUHTWDJOLG","","585.4000000953674","img/land5.png","74","586.1000001430511","1","0","1","2","0.8,0.2,0.2,0.2,0.8,0.2,0.2,0.2,0.8","0.2,0.8,0.2,0.2,0.2,0.8,0.8,0.2,0.2","3","",""
"","html-keyboard-response","199","111758","0.0-199.0","3X3OR7WPZ0M6TCB0IC3GGRNHPU2L8U","A2APG8MSLJ6G2K","3THR0FZ95PF7SK0MYRNAOUHTWDJOLG","","null","<img src=""img/land5.png"" style=""width:200px;border:14px solid red;"">","null","","","","","","","","","",""
"","image-keyboard-response","200","112016","0.0-200.0","3X3OR7WPZ0M6TCB0IC3GGRNHPU2L8U","A2APG8MSLJ6G2K","3THR0FZ95PF7SK0MYRNAOUHTWDJOLG","","256.60000014305115","img/land5.png","75","257.89999985694885","2","0","1","2","0.8,0.2,0.2,0.2,0.8,0.2,0.2,0.2,0.8","0.2,0.8,0.2,0.2,0.2,0.8,0.8,0.2,0.2","3","",""
"","html-keyboard-response","201","112318","0.0-201.0","3X3OR7WPZ0M6TCB0IC3GGRNHPU2L8U","A2APG8MSLJ6G2K","3THR0FZ95PF7SK0MYRNAOUHTWDJOLG","","null","<img src=""img/land5.png"" style=""width:200px;border:14px solid red;"">","null","","","","","","","","","",""
"","image-keyboard-response","202","112688","0.0-202.0","3X3OR7WPZ0M6TCB0IC3GGRNHPU2L8U","A2APG8MSLJ6G2K","3THR0FZ95PF7SK0MYRNAOUHTWDJOLG","","369.2999999523163","img/land1.png","75","369.89999985694885","2","0","2","2","0.8,0.2,0.2,0.2,0.8,0.2,0.2,0.2,0.8","0.2,0.8,0.2,0.2,0.2,0.8,0.8,0.2,0.2","3","",""
"","html-keyboard-response","203","112990","0.0-203.0","3X3OR7WPZ0M6TCB0IC3GGRNHPU2L8U","A2APG8MSLJ6G2K","3THR0FZ95PF7SK0MYRNAOUHTWDJOLG","","null","<img src=""img/land1.png"" style=""width:200px;border:14px solid red;"">","null","","","","","","","","","",""
"","image-keyboard-response","204","113344","0.0-204.0","3X3OR7WPZ0M6TCB0IC3GGRNHPU2L8U","A2APG8MSLJ6G2K","3THR0FZ95PF7SK0MYRNAOUHTWDJOLG","","353.2000000476837","img/land1.png","75","353.90000009536743","2","0","2","2","0.8,0.2,0.2,0.2,0.8,0.2,0.2,0.2,0.8","0.2,0.8,0.2,0.2,0.2,0.8,0.8,0.2,0.2","3","",""
"","html-keyboard-response","205","113645","0.0-205.0","3X3OR7WPZ0M6TCB0IC3GGRNHPU2L8U","A2APG8MSLJ6G2K","3THR0FZ95PF7SK0MYRNAOUHTWDJOLG","","null","<img src=""img/land1.png"" style=""width:200px;border:14px solid red;"">","null","","","","","","","","","",""
"","image-keyboard-response","206","114320","0.0-206.0","3X3OR7WPZ0M6TCB0IC3GGRNHPU2L8U","A2APG8MSLJ6G2K","3THR0FZ95PF7SK0MYRNAOUHTWDJOLG","","673.9000000953674","img/land5.png","75","674.5999999046326","2","1","1","2","0.8,0.2,0.2,0.2,0.8,0.2,0.2,0.2,0.8","0.2,0.8,0.2,0.2,0.2,0.8,0.8,0.2,0.2","3","",""
"","html-keyboard-response","207","114621","0.0-207.0","3X3OR7WPZ0M6TCB0IC3GGRNHPU2L8U","A2APG8MSLJ6G2K","3THR0FZ95PF7SK0MYRNAOUHTWDJOLG","","null","<img src=""img/land5.png"" style=""width:200px; border:14px solid green;"">","null","","","","","","","","","",""
"","image-keyboard-response","208","115407","0.0-208.0","3X3OR7WPZ0M6TCB0IC3GGRNHPU2L8U","A2APG8MSLJ6G2K","3THR0FZ95PF7SK0MYRNAOUHTWDJOLG","","785.6000001430511","img/land1.png","75","786.0999999046326","2","1","2","2","0.8,0.2,0.2,0.2,0.8,0.2,0.2,0.2,0.8","0.2,0.8,0.2,0.2,0.2,0.8,0.8,0.2,0.2","3","",""
"","html-keyboard-response","209","115709","0.0-209.0","3X3OR7WPZ0M6TCB0IC3GGRNHPU2L8U","A2APG8MSLJ6G2K","3THR0FZ95PF7SK0MYRNAOUHTWDJOLG","","null","<img src=""img/land1.png"" style=""width:200px; border:14px solid green;"">","null","","","","","","","","","",""
"","image-keyboard-response","210","116184","0.0-210.0","3X3OR7WPZ0M6TCB0IC3GGRNHPU2L8U","A2APG8MSLJ6G2K","3THR0FZ95PF7SK0MYRNAOUHTWDJOLG","","473.90000009536743","img/land2.png","75","474.40000009536743","2","0","3","2","0.8,0.2,0.2,0.2,0.8,0.2,0.2,0.2,0.8","0.2,0.8,0.2,0.2,0.2,0.8,0.8,0.2,0.2","3","",""
"","html-keyboard-response","211","116484","0.0-211.0","3X3OR7WPZ0M6TCB0IC3GGRNHPU2L8U","A2APG8MSLJ6G2K","3THR0FZ95PF7SK0MYRNAOUHTWDJOLG","","null","<img src=""img/land2.png"" style=""width:200px;border:14px solid red;"">","null","","","","","","","","","",""
"","image-keyboard-response","212","116895","0.0-212.0","3X3OR7WPZ0M6TCB0IC3GGRNHPU2L8U","A2APG8MSLJ6G2K","3THR0FZ95PF7SK0MYRNAOUHTWDJOLG","","409.69999980926514","img/land5.png","74","410.39999985694885","1","0","1","2","0.8,0.2,0.2,0.2,0.8,0.2,0.2,0.2,0.8","0.2,0.8,0.2,0.2,0.2,0.8,0.8,0.2,0.2","3","",""
"","html-keyboard-response","213","117196","0.0-213.0","3X3OR7WPZ0M6TCB0IC3GGRNHPU2L8U","A2APG8MSLJ6G2K","3THR0FZ95PF7SK0MYRNAOUHTWDJOLG","","null","<img src=""img/land5.png"" style=""width:200px;border:14px solid red;"">","null","","","","","","","","","",""
"","image-keyboard-response","214","117280","0.0-214.0","3X3OR7WPZ0M6TCB0IC3GGRNHPU2L8U","A2APG8MSLJ6G2K","3THR0FZ95PF7SK0MYRNAOUHTWDJOLG","","83.10000014305115","img/land5.png","75","83.79999995231628","2","1","1","2","0.8,0.2,0.2,0.2,0.8,0.2,0.2,0.2,0.8","0.2,0.8,0.2,0.2,0.2,0.8,0.8,0.2,0.2","3","",""
"","html-keyboard-response","215","117582","0.0-215.0","3X3OR7WPZ0M6TCB0IC3GGRNHPU2L8U","A2APG8MSLJ6G2K","3THR0FZ95PF7SK0MYRNAOUHTWDJOLG","","null","<img src=""img/land5.png"" style=""width:200px; border:14px solid green;"">","null","","","","","","","","","",""
"","image-keyboard-response","216","117888","0.0-216.0","3X3OR7WPZ0M6TCB0IC3GGRNHPU2L8U","A2APG8MSLJ6G2K","3THR0FZ95PF7SK0MYRNAOUHTWDJOLG","","304.90000009536743","img/land5.png","75","305.40000009536743","2","1","1","2","0.8,0.2,0.2,0.2,0.8,0.2,0.2,0.2,0.8","0.2,0.8,0.2,0.2,0.2,0.8,0.8,0.2,0.2","3","",""
"","html-keyboard-response","217","118189","0.0-217.0","3X3OR7WPZ0M6TCB0IC3GGRNHPU2L8U","A2APG8MSLJ6G2K","3THR0FZ95PF7SK0MYRNAOUHTWDJOLG","","null","<img src=""img/land5.png"" style=""width:200px; border:14px solid green;"">","null","","","","","","","","","",""
"","image-keyboard-response","218","118495","0.0-218.0","3X3OR7WPZ0M6TCB0IC3GGRNHPU2L8U","A2APG8MSLJ6G2K","3THR0FZ95PF7SK0MYRNAOUHTWDJOLG","","305","img/land5.png","75","305.5","2","1","1","2","0.8,0.2,0.2,0.2,0.8,0.2,0.2,0.2,0.8","0.2,0.8,0.2,0.2,0.2,0.8,0.8,0.2,0.2","3","",""
"","html-keyboard-response","219","118797","0.0-219.0","3X3OR7WPZ0M6TCB0IC3GGRNHPU2L8U","A2APG8MSLJ6G2K","3THR0FZ95PF7SK0MYRNAOUHTWDJOLG","","null","<img src=""img/land5.png"" style=""width:200px; border:14px solid green;"">","null","","","","","","","","","",""
"","image-keyboard-response","220","120080","0.0-220.0","3X3OR7WPZ0M6TCB0IC3GGRNHPU2L8U","A2APG8MSLJ6G2K","3THR0FZ95PF7SK0MYRNAOUHTWDJOLG","","1281.8999998569489","img/land2.png","74","1282.5999999046326","1","0","3","2","0.8,0.2,0.2,0.2,0.8,0.2,0.2,0.2,0.8","0.2,0.8,0.2,0.2,0.2,0.8,0.8,0.2,0.2","3","",""
"","html-keyboard-response","221","120380","0.0-221.0","3X3OR7WPZ0M6TCB0IC3GGRNHPU2L8U","A2APG8MSLJ6G2K","3THR0FZ95PF7SK0MYRNAOUHTWDJOLG","","null","<img src=""img/land2.png"" style=""width:200px;border:14px solid red;"">","null","","","","","","","","","",""
"","image-keyboard-response","222","121072","0.0-222.0","3X3OR7WPZ0M6TCB0IC3GGRNHPU2L8U","A2APG8MSLJ6G2K","3THR0FZ95PF7SK0MYRNAOUHTWDJOLG","","690.5","img/land1.png","76","691","3","0","2","2","0.8,0.2,0.2,0.2,0.8,0.2,0.2,0.2,0.8","0.2,0.8,0.2,0.2,0.2,0.8,0.8,0.2,0.2","3","",""
"","html-keyboard-response","223","121373","0.0-223.0","3X3OR7WPZ0M6TCB0IC3GGRNHPU2L8U","A2APG8MSLJ6G2K","3THR0FZ95PF7SK0MYRNAOUHTWDJOLG","","null","<img src=""img/land1.png"" style=""width:200px;border:14px solid red;"">","null","","","","","","","","","",""
"","image-keyboard-response","224","122047","0.0-224.0","3X3OR7WPZ0M6TCB0IC3GGRNHPU2L8U","A2APG8MSLJ6G2K","3THR0FZ95PF7SK0MYRNAOUHTWDJOLG","","673.5999999046326","img/land5.png","75","674.2000000476837","2","1","1","2","0.8,0.2,0.2,0.2,0.8,0.2,0.2,0.2,0.8","0.2,0.8,0.2,0.2,0.2,0.8,0.8,0.2,0.2","3","",""
"","html-keyboard-response","225","122348","0.0-225.0","3X3OR7WPZ0M6TCB0IC3GGRNHPU2L8U","A2APG8MSLJ6G2K","3THR0FZ95PF7SK0MYRNAOUHTWDJOLG","","null","<img src=""img/land5.png"" style=""width:200px; border:14px solid green;"">","null","","","","","","","","","",""
"","image-keyboard-response","226","122663","0.0-226.0","3X3OR7WPZ0M6TCB0IC3GGRNHPU2L8U","A2APG8MSLJ6G2K","3THR0FZ95PF7SK0MYRNAOUHTWDJOLG","","314.40000009536743","img/land5.png","75","315","2","1","1","2","0.8,0.2,0.2,0.2,0.8,0.2,0.2,0.2,0.8","0.2,0.8,0.2,0.2,0.2,0.8,0.8,0.2,0.2","3","",""
"","html-keyboard-response","227","122964","0.0-227.0","3X3OR7WPZ0M6TCB0IC3GGRNHPU2L8U","A2APG8MSLJ6G2K","3THR0FZ95PF7SK0MYRNAOUHTWDJOLG","","null","<img src=""img/land5.png"" style=""width:200px; border:14px solid green;"">","null","","","","","","","","","",""
"","image-keyboard-response","228","123288","0.0-228.0","3X3OR7WPZ0M6TCB0IC3GGRNHPU2L8U","A2APG8MSLJ6G2K","3THR0FZ95PF7SK0MYRNAOUHTWDJOLG","","322.69999980926514","img/land5.png","75","323.2999999523163","2","0","1","2","0.8,0.2,0.2,0.2,0.8,0.2,0.2,0.2,0.8","0.2,0.8,0.2,0.2,0.2,0.8,0.8,0.2,0.2","3","",""
"","html-keyboard-response","229","123589","0.0-229.0","3X3OR7WPZ0M6TCB0IC3GGRNHPU2L8U","A2APG8MSLJ6G2K","3THR0FZ95PF7SK0MYRNAOUHTWDJOLG","","null","<img src=""img/land5.png"" style=""width:200px;border:14px solid red;"">","null","","","","","","","","","",""
"","image-keyboard-response","230","123992","0.0-230.0","3X3OR7WPZ0M6TCB0IC3GGRNHPU2L8U","A2APG8MSLJ6G2K","3THR0FZ95PF7SK0MYRNAOUHTWDJOLG","","402.2000000476837","img/land5.png","76","402.7999999523163","3","0","1","2","0.8,0.2,0.2,0.2,0.8,0.2,0.2,0.2,0.8","0.2,0.8,0.2,0.2,0.2,0.8,0.8,0.2,0.2","3","",""
"","html-keyboard-response","231","124294","0.0-231.0","3X3OR7WPZ0M6TCB0IC3GGRNHPU2L8U","A2APG8MSLJ6G2K","3THR0FZ95PF7SK0MYRNAOUHTWDJOLG","","null","<img src=""img/land5.png"" style=""width:200px;border:14px solid red;"">","null","","","","","","","","","",""
"","image-keyboard-response","232","124711","0.0-232.0","3X3OR7WPZ0M6TCB0IC3GGRNHPU2L8U","A2APG8MSLJ6G2K","3THR0FZ95PF7SK0MYRNAOUHTWDJOLG","","416.60000014305115","img/land2.png","74","417.09999990463257","1","1","3","2","0.8,0.2,0.2,0.2,0.8,0.2,0.2,0.2,0.8","0.2,0.8,0.2,0.2,0.2,0.8,0.8,0.2,0.2","3","",""
"","html-keyboard-response","233","125013","0.0-233.0","3X3OR7WPZ0M6TCB0IC3GGRNHPU2L8U","A2APG8MSLJ6G2K","3THR0FZ95PF7SK0MYRNAOUHTWDJOLG","","null","<img src=""img/land2.png"" style=""width:200px; border:14px solid green;"">","null","","","","","","","","","",""
"","image-keyboard-response","234","125639","0.0-234.0","3X3OR7WPZ0M6TCB0IC3GGRNHPU2L8U","A2APG8MSLJ6G2K","3THR0FZ95PF7SK0MYRNAOUHTWDJOLG","","625.5999999046326","img/land2.png","74","626.2000000476837","1","1","3","2","0.8,0.2,0.2,0.2,0.8,0.2,0.2,0.2,0.8","0.2,0.8,0.2,0.2,0.2,0.8,0.8,0.2,0.2","3","",""
"","html-keyboard-response","235","125940","0.0-235.0","3X3OR7WPZ0M6TCB0IC3GGRNHPU2L8U","A2APG8MSLJ6G2K","3THR0FZ95PF7SK0MYRNAOUHTWDJOLG","","null","<img src=""img/land2.png"" style=""width:200px; border:14px solid green;"">","null","","","","","","","","","",""
"","image-keyboard-response","236","126568","0.0-236.0","3X3OR7WPZ0M6TCB0IC3GGRNHPU2L8U","A2APG8MSLJ6G2K","3THR0FZ95PF7SK0MYRNAOUHTWDJOLG","","626.2999999523163","img/land5.png","75","627.0999999046326","2","1","1","2","0.8,0.2,0.2,0.2,0.8,0.2,0.2,0.2,0.8","0.2,0.8,0.2,0.2,0.2,0.8,0.8,0.2,0.2","3","",""
"","html-keyboard-response","237","126870","0.0-237.0","3X3OR7WPZ0M6TCB0IC3GGRNHPU2L8U","A2APG8MSLJ6G2K","3THR0FZ95PF7SK0MYRNAOUHTWDJOLG","","null","<img src=""img/land5.png"" style=""width:200px; border:14px solid green;"">","null","","","","","","","","","",""
"","image-keyboard-response","238","127224","0.0-238.0","3X3OR7WPZ0M6TCB0IC3GGRNHPU2L8U","A2APG8MSLJ6G2K","3THR0FZ95PF7SK0MYRNAOUHTWDJOLG","","352.89999985694885","img/land5.png","75","353.5","2","1","1","2","0.8,0.2,0.2,0.2,0.8,0.2,0.2,0.2,0.8","0.2,0.8,0.2,0.2,0.2,0.8,0.8,0.2,0.2","3","",""
"","html-keyboard-response","239","127525","0.0-239.0","3X3OR7WPZ0M6TCB0IC3GGRNHPU2L8U","A2APG8MSLJ6G2K","3THR0FZ95PF7SK0MYRNAOUHTWDJOLG","","null","<img src=""img/land5.png"" style=""width:200px; border:14px solid green;"">","null","","","","","","","","","",""
"","image-keyboard-response","240","127967","0.0-240.0","3X3OR7WPZ0M6TCB0IC3GGRNHPU2L8U","A2APG8MSLJ6G2K","3THR0FZ95PF7SK0MYRNAOUHTWDJOLG","","441","img/land5.png","75","441.90000009536743","2","1","1","2","0.8,0.2,0.2,0.2,0.8,0.2,0.2,0.2,0.8","0.2,0.8,0.2,0.2,0.2,0.8,0.8,0.2,0.2","3","",""
"","html-keyboard-response","241","128269","0.0-241.0","3X3OR7WPZ0M6TCB0IC3GGRNHPU2L8U","A2APG8MSLJ6G2K","3THR0FZ95PF7SK0MYRNAOUHTWDJOLG","","null","<img src=""img/land5.png"" style=""width:200px; border:14px solid green;"">","null","","","","","","","","","",""
"","image-keyboard-response","242","128648","0.0-242.0","3X3OR7WPZ0M6TCB0IC3GGRNHPU2L8U","A2APG8MSLJ6G2K","3THR0FZ95PF7SK0MYRNAOUHTWDJOLG","","377.80000019073486","img/land5.png","75","378.2000000476837","2","1","1","2","0.8,0.2,0.2,0.2,0.8,0.2,0.2,0.2,0.8","0.2,0.8,0.2,0.2,0.2,0.8,0.8,0.2,0.2","3","",""
"","html-keyboard-response","243","128949","0.0-243.0","3X3OR7WPZ0M6TCB0IC3GGRNHPU2L8U","A2APG8MSLJ6G2K","3THR0FZ95PF7SK0MYRNAOUHTWDJOLG","","null","<img src=""img/land5.png"" style=""width:200px; border:14px solid green;"">","null","","","","","","","","","",""
"","image-keyboard-response","244","129600","0.0-244.0","3X3OR7WPZ0M6TCB0IC3GGRNHPU2L8U","A2APG8MSLJ6G2K","3THR0FZ95PF7SK0MYRNAOUHTWDJOLG","","650.2999999523163","img/land1.png","74","650.7000000476837","1","0","2","2","0.8,0.2,0.2,0.2,0.8,0.2,0.2,0.2,0.8","0.2,0.8,0.2,0.2,0.2,0.8,0.8,0.2,0.2","3","",""
"","html-keyboard-response","245","129901","0.0-245.0","3X3OR7WPZ0M6TCB0IC3GGRNHPU2L8U","A2APG8MSLJ6G2K","3THR0FZ95PF7SK0MYRNAOUHTWDJOLG","","null","<img src=""img/land1.png"" style=""width:200px;border:14px solid red;"">","null","","","","","","","","","",""
"","image-keyboard-response","246","130823","0.0-246.0","3X3OR7WPZ0M6TCB0IC3GGRNHPU2L8U","A2APG8MSLJ6G2K","3THR0FZ95PF7SK0MYRNAOUHTWDJOLG","","921.2999999523163","img/land5.png","76","922","3","1","1","2","0.8,0.2,0.2,0.2,0.8,0.2,0.2,0.2,0.8","0.2,0.8,0.2,0.2,0.2,0.8,0.8,0.2,0.2","3","",""
"","html-keyboard-response","247","131124","0.0-247.0","3X3OR7WPZ0M6TCB0IC3GGRNHPU2L8U","A2APG8MSLJ6G2K","3THR0FZ95PF7SK0MYRNAOUHTWDJOLG","","null","<img src=""img/land5.png"" style=""width:200px; border:14px solid green;"">","null","","","","","","","","","",""
"","image-keyboard-response","248","131679","0.0-248.0","3X3OR7WPZ0M6TCB0IC3GGRNHPU2L8U","A2APG8MSLJ6G2K","3THR0FZ95PF7SK0MYRNAOUHTWDJOLG","","554.4000000953674","img/land5.png","76","554.9000000953674","3","1","1","2","0.8,0.2,0.2,0.2,0.8,0.2,0.2,0.2,0.8","0.2,0.8,0.2,0.2,0.2,0.8,0.8,0.2,0.2","3","",""
"","html-keyboard-response","249","131981","0.0-249.0","3X3OR7WPZ0M6TCB0IC3GGRNHPU2L8U","A2APG8MSLJ6G2K","3THR0FZ95PF7SK0MYRNAOUHTWDJOLG","","null","<img src=""img/land5.png"" style=""width:200px; border:14px solid green;"">","null","","","","","","","","","",""
"","image-keyboard-response","250","132303","0.0-250.0","3X3OR7WPZ0M6TCB0IC3GGRNHPU2L8U","A2APG8MSLJ6G2K","3THR0FZ95PF7SK0MYRNAOUHTWDJOLG","","321.19999980926514","img/land5.png","76","321.7999999523163","3","0","1","2","0.8,0.2,0.2,0.2,0.8,0.2,0.2,0.2,0.8","0.2,0.8,0.2,0.2,0.2,0.8,0.8,0.2,0.2","3","",""
"","html-keyboard-response","251","132605","0.0-251.0","3X3OR7WPZ0M6TCB0IC3GGRNHPU2L8U","A2APG8MSLJ6G2K","3THR0FZ95PF7SK0MYRNAOUHTWDJOLG","","null","<img src=""img/land5.png"" style=""width:200px;border:14px solid red;"">","null","","","","","","","","","",""
"","image-keyboard-response","252","133160","0.0-252.0","3X3OR7WPZ0M6TCB0IC3GGRNHPU2L8U","A2APG8MSLJ6G2K","3THR0FZ95PF7SK0MYRNAOUHTWDJOLG","","553.2999999523163","img/land1.png","75","554.1999998092651","2","0","2","2","0.8,0.2,0.2,0.2,0.8,0.2,0.2,0.2,0.8","0.2,0.8,0.2,0.2,0.2,0.8,0.8,0.2,0.2","3","",""
"","html-keyboard-response","253","133461","0.0-253.0","3X3OR7WPZ0M6TCB0IC3GGRNHPU2L8U","A2APG8MSLJ6G2K","3THR0FZ95PF7SK0MYRNAOUHTWDJOLG","","null","<img src=""img/land1.png"" style=""width:200px;border:14px solid red;"">","null","","","","","","","","","",""
"","image-keyboard-response","254","133503","0.0-254.0","3X3OR7WPZ0M6TCB0IC3GGRNHPU2L8U","A2APG8MSLJ6G2K","3THR0FZ95PF7SK0MYRNAOUHTWDJOLG","","41.90000009536743","img/land5.png","75","42.60000014305115","2","1","1","2","0.8,0.2,0.2,0.2,0.8,0.2,0.2,0.2,0.8","0.2,0.8,0.2,0.2,0.2,0.8,0.8,0.2,0.2","3","",""
"","html-keyboard-response","255","133804","0.0-255.0","3X3OR7WPZ0M6TCB0IC3GGRNHPU2L8U","A2APG8MSLJ6G2K","3THR0FZ95PF7SK0MYRNAOUHTWDJOLG","","null","<img src=""img/land5.png"" style=""width:200px; border:14px solid green;"">","null","","","","","","","","","",""
"","image-keyboard-response","256","134168","0.0-256.0","3X3OR7WPZ0M6TCB0IC3GGRNHPU2L8U","A2APG8MSLJ6G2K","3THR0FZ95PF7SK0MYRNAOUHTWDJOLG","","362.60000014305115","img/land5.png","75","363.2000000476837","2","0","1","2","0.8,0.2,0.2,0.2,0.8,0.2,0.2,0.2,0.8","0.2,0.8,0.2,0.2,0.2,0.8,0.8,0.2,0.2","3","",""
"","html-keyboard-response","257","134469","0.0-257.0","3X3OR7WPZ0M6TCB0IC3GGRNHPU2L8U","A2APG8MSLJ6G2K","3THR0FZ95PF7SK0MYRNAOUHTWDJOLG","","null","<img src=""img/land5.png"" style=""width:200px;border:14px solid red;"">","null","","","","","","","","","",""
"","image-keyboard-response","258","134895","0.0-258.0","3X3OR7WPZ0M6TCB0IC3GGRNHPU2L8U","A2APG8MSLJ6G2K","3THR0FZ95PF7SK0MYRNAOUHTWDJOLG","","425.69999980926514","img/land5.png","74","426.2999999523163","1","0","1","2","0.8,0.2,0.2,0.2,0.8,0.2,0.2,0.2,0.8","0.2,0.8,0.2,0.2,0.2,0.8,0.8,0.2,0.2","3","",""
"","html-keyboard-response","259","135197","0.0-259.0","3X3OR7WPZ0M6TCB0IC3GGRNHPU2L8U","A2APG8MSLJ6G2K","3THR0FZ95PF7SK0MYRNAOUHTWDJOLG","","null","<img src=""img/land5.png"" style=""width:200px;border:14px solid red;"">","null","","","","","","","","","",""
"","image-keyboard-response","260","135599","0.0-260.0","3X3OR7WPZ0M6TCB0IC3GGRNHPU2L8U","A2APG8MSLJ6G2K","3THR0FZ95PF7SK0MYRNAOUHTWDJOLG","","401.2000000476837","img/land2.png","75","401.80000019073486","2","0","3","2","0.8,0.2,0.2,0.2,0.8,0.2,0.2,0.2,0.8","0.2,0.8,0.2,0.2,0.2,0.8,0.8,0.2,0.2","3","",""
"","html-keyboard-response","261","135901","0.0-261.0","3X3OR7WPZ0M6TCB0IC3GGRNHPU2L8U","A2APG8MSLJ6G2K","3THR0FZ95PF7SK0MYRNAOUHTWDJOLG","","null","<img src=""img/land2.png"" style=""width:200px;border:14px solid red;"">","null","","","","","","","","","",""
"","image-keyboard-response","262","136087","0.0-262.0","3X3OR7WPZ0M6TCB0IC3GGRNHPU2L8U","A2APG8MSLJ6G2K","3THR0FZ95PF7SK0MYRNAOUHTWDJOLG","","185.29999995231628","img/land2.png","75","186.09999990463257","2","0","3","2","0.8,0.2,0.2,0.2,0.8,0.2,0.2,0.2,0.8","0.2,0.8,0.2,0.2,0.2,0.8,0.8,0.2,0.2","3","",""
"","html-keyboard-response","263","136388","0.0-263.0","3X3OR7WPZ0M6TCB0IC3GGRNHPU2L8U","A2APG8MSLJ6G2K","3THR0FZ95PF7SK0MYRNAOUHTWDJOLG","","null","<img src=""img/land2.png"" style=""width:200px;border:14px solid red;"">","null","","","","","","","","","",""
"","image-keyboard-response","264","136390","0.0-264.0","3X3OR7WPZ0M6TCB0IC3GGRNHPU2L8U","A2APG8MSLJ6G2K","3THR0FZ95PF7SK0MYRNAOUHTWDJOLG","","1.5999999046325684","img/land5.png","76","2","3","0","1","2","0.8,0.2,0.2,0.2,0.8,0.2,0.2,0.2,0.8","0.2,0.8,0.2,0.2,0.2,0.8,0.8,0.2,0.2","3","",""
"","html-keyboard-response","265","136692","0.0-265.0","3X3OR7WPZ0M6TCB0IC3GGRNHPU2L8U","A2APG8MSLJ6G2K","3THR0FZ95PF7SK0MYRNAOUHTWDJOLG","","null","<img src=""img/land5.png"" style=""width:200px;border:14px solid red;"">","null","","","","","","","","","",""
"","image-keyboard-response","266","136791","0.0-266.0","3X3OR7WPZ0M6TCB0IC3GGRNHPU2L8U","A2APG8MSLJ6G2K","3THR0FZ95PF7SK0MYRNAOUHTWDJOLG","","99","img/land2.png","76","99.70000004768372","3","1","3","2","0.8,0.2,0.2,0.2,0.8,0.2,0.2,0.2,0.8","0.2,0.8,0.2,0.2,0.2,0.8,0.8,0.2,0.2","3","",""
"","html-keyboard-response","267","137093","0.0-267.0","3X3OR7WPZ0M6TCB0IC3GGRNHPU2L8U","A2APG8MSLJ6G2K","3THR0FZ95PF7SK0MYRNAOUHTWDJOLG","","null","<img src=""img/land2.png"" style=""width:200px; border:14px solid green;"">","null","","","","","","","","","",""
"","image-keyboard-response","268","137575","0.0-268.0","3X3OR7WPZ0M6TCB0IC3GGRNHPU2L8U","A2APG8MSLJ6G2K","3THR0FZ95PF7SK0MYRNAOUHTWDJOLG","","481.7999999523163","img/land5.png","75","482.5","2","1","1","2","0.8,0.2,0.2,0.2,0.8,0.2,0.2,0.2,0.8","0.2,0.8,0.2,0.2,0.2,0.8,0.8,0.2,0.2","3","",""
"","html-keyboard-response","269","137877","0.0-269.0","3X3OR7WPZ0M6TCB0IC3GGRNHPU2L8U","A2APG8MSLJ6G2K","3THR0FZ95PF7SK0MYRNAOUHTWDJOLG","","null","<img src=""img/land5.png"" style=""width:200px; border:14px solid green;"">","null","","","","","","","","","",""
"","image-keyboard-response","270","138463","0.0-270.0","3X3OR7WPZ0M6TCB0IC3GGRNHPU2L8U","A2APG8MSLJ6G2K","3THR0FZ95PF7SK0MYRNAOUHTWDJOLG","","585.5999999046326","img/land1.png","75","586.2000000476837","2","1","2","2","0.8,0.2,0.2,0.2,0.8,0.2,0.2,0.2,0.8","0.2,0.8,0.2,0.2,0.2,0.8,0.8,0.2,0.2","3","",""
"","html-keyboard-response","271","138765","0.0-271.0","3X3OR7WPZ0M6TCB0IC3GGRNHPU2L8U","A2APG8MSLJ6G2K","3THR0FZ95PF7SK0MYRNAOUHTWDJOLG","","null","<img src=""img/land1.png"" style=""width:200px; border:14px solid green;"">","null","","","","","","","","","",""
"","image-keyboard-response","272","138935","0.0-272.0","3X3OR7WPZ0M6TCB0IC3GGRNHPU2L8U","A2APG8MSLJ6G2K","3THR0FZ95PF7SK0MYRNAOUHTWDJOLG","","169.09999990463257","img/land5.png","75","169.70000004768372","2","1","1","2","0.8,0.2,0.2,0.2,0.8,0.2,0.2,0.2,0.8","0.2,0.8,0.2,0.2,0.2,0.8,0.8,0.2,0.2","3","",""
"","html-keyboard-response","273","139237","0.0-273.0","3X3OR7WPZ0M6TCB0IC3GGRNHPU2L8U","A2APG8MSLJ6G2K","3THR0FZ95PF7SK0MYRNAOUHTWDJOLG","","null","<img src=""img/land5.png"" style=""width:200px; border:14px solid green;"">","null","","","","","","","","","",""
"","image-keyboard-response","274","139528","0.0-274.0","3X3OR7WPZ0M6TCB0IC3GGRNHPU2L8U","A2APG8MSLJ6G2K","3THR0FZ95PF7SK0MYRNAOUHTWDJOLG","","289.5","img/land5.png","75","290.19999980926514","2","1","1","2","0.8,0.2,0.2,0.2,0.8,0.2,0.2,0.2,0.8","0.2,0.8,0.2,0.2,0.2,0.8,0.8,0.2,0.2","3","",""
"","html-keyboard-response","275","139829","0.0-275.0","3X3OR7WPZ0M6TCB0IC3GGRNHPU2L8U","A2APG8MSLJ6G2K","3THR0FZ95PF7SK0MYRNAOUHTWDJOLG","","null","<img src=""img/land5.png"" style=""width:200px; border:14px solid green;"">","null","","","","","","","","","",""
"","image-keyboard-response","276","140158","0.0-276.0","3X3OR7WPZ0M6TCB0IC3GGRNHPU2L8U","A2APG8MSLJ6G2K","3THR0FZ95PF7SK0MYRNAOUHTWDJOLG","","327.89999985694885","img/land5.png","75","328.7000000476837","2","1","1","2","0.8,0.2,0.2,0.2,0.8,0.2,0.2,0.2,0.8","0.2,0.8,0.2,0.2,0.2,0.8,0.8,0.2,0.2","3","",""
"","html-keyboard-response","277","140460","0.0-277.0","3X3OR7WPZ0M6TCB0IC3GGRNHPU2L8U","A2APG8MSLJ6G2K","3THR0FZ95PF7SK0MYRNAOUHTWDJOLG","","null","<img src=""img/land5.png"" style=""width:200px; border:14px solid green;"">","null","","","","","","","","","",""
"","image-keyboard-response","278","140782","0.0-278.0","3X3OR7WPZ0M6TCB0IC3GGRNHPU2L8U","A2APG8MSLJ6G2K","3THR0FZ95PF7SK0MYRNAOUHTWDJOLG","","322","img/land5.png","75","322.59999990463257","2","1","1","2","0.8,0.2,0.2,0.2,0.8,0.2,0.2,0.2,0.8","0.2,0.8,0.2,0.2,0.2,0.8,0.8,0.2,0.2","3","",""
"","html-keyboard-response","279","141083","0.0-279.0","3X3OR7WPZ0M6TCB0IC3GGRNHPU2L8U","A2APG8MSLJ6G2K","3THR0FZ95PF7SK0MYRNAOUHTWDJOLG","","null","<img src=""img/land5.png"" style=""width:200px; border:14px solid green;"">","null","","","","","","","","","",""
"","image-keyboard-response","280","142407","0.0-280.0","3X3OR7WPZ0M6TCB0IC3GGRNHPU2L8U","A2APG8MSLJ6G2K","3THR0FZ95PF7SK0MYRNAOUHTWDJOLG","","1323.1000001430511","img/land2.png","76","1323.5999999046326","3","0","3","2","0.8,0.2,0.2,0.2,0.8,0.2,0.2,0.2,0.8","0.2,0.8,0.2,0.2,0.2,0.8,0.8,0.2,0.2","3","",""
"","html-keyboard-response","281","142708","0.0-281.0","3X3OR7WPZ0M6TCB0IC3GGRNHPU2L8U","A2APG8MSLJ6G2K","3THR0FZ95PF7SK0MYRNAOUHTWDJOLG","","null","<img src=""img/land2.png"" style=""width:200px;border:14px solid red;"">","null","","","","","","","","","",""
"","image-keyboard-response","282","143480","0.0-282.0","3X3OR7WPZ0M6TCB0IC3GGRNHPU2L8U","A2APG8MSLJ6G2K","3THR0FZ95PF7SK0MYRNAOUHTWDJOLG","","770.3999998569489","img/land5.png","75","771.1999998092651","2","0","1","2","0.8,0.2,0.2,0.2,0.8,0.2,0.2,0.2,0.8","0.2,0.8,0.2,0.2,0.2,0.8,0.8,0.2,0.2","3","",""
"","html-keyboard-response","283","143781","0.0-283.0","3X3OR7WPZ0M6TCB0IC3GGRNHPU2L8U","A2APG8MSLJ6G2K","3THR0FZ95PF7SK0MYRNAOUHTWDJOLG","","null","<img src=""img/land5.png"" style=""width:200px;border:14px solid red;"">","null","","","","","","","","","",""
"","image-keyboard-response","284","144320","0.0-284.0","3X3OR7WPZ0M6TCB0IC3GGRNHPU2L8U","A2APG8MSLJ6G2K","3THR0FZ95PF7SK0MYRNAOUHTWDJOLG","","537.4000000953674","img/land5.png","75","537.9000000953674","2","1","1","2","0.8,0.2,0.2,0.2,0.8,0.2,0.2,0.2,0.8","0.2,0.8,0.2,0.2,0.2,0.8,0.8,0.2,0.2","3","",""
"","html-keyboard-response","285","144621","0.0-285.0","3X3OR7WPZ0M6TCB0IC3GGRNHPU2L8U","A2APG8MSLJ6G2K","3THR0FZ95PF7SK0MYRNAOUHTWDJOLG","","null","<img src=""img/land5.png"" style=""width:200px; border:14px solid green;"">","null","","","","","","","","","",""
"","image-keyboard-response","286","144903","0.0-286.0","3X3OR7WPZ0M6TCB0IC3GGRNHPU2L8U","A2APG8MSLJ6G2K","3THR0FZ95PF7SK0MYRNAOUHTWDJOLG","","281.2999999523163","img/land1.png","75","282","2","0","2","2","0.8,0.2,0.2,0.2,0.8,0.2,0.2,0.2,0.8","0.2,0.8,0.2,0.2,0.2,0.8,0.8,0.2,0.2","3","",""
"","html-keyboard-response","287","145205","0.0-287.0","3X3OR7WPZ0M6TCB0IC3GGRNHPU2L8U","A2APG8MSLJ6G2K","3THR0FZ95PF7SK0MYRNAOUHTWDJOLG","","null","<img src=""img/land1.png"" style=""width:200px;border:14px solid red;"">","null","","","","","","","","","",""
"","image-keyboard-response","288","145559","0.0-288.0","3X3OR7WPZ0M6TCB0IC3GGRNHPU2L8U","A2APG8MSLJ6G2K","3THR0FZ95PF7SK0MYRNAOUHTWDJOLG","","354","img/land5.png","74","354.60000014305115","1","0","1","2","0.8,0.2,0.2,0.2,0.8,0.2,0.2,0.2,0.8","0.2,0.8,0.2,0.2,0.2,0.8,0.8,0.2,0.2","3","",""
"","html-keyboard-response","289","145861","0.0-289.0","3X3OR7WPZ0M6TCB0IC3GGRNHPU2L8U","A2APG8MSLJ6G2K","3THR0FZ95PF7SK0MYRNAOUHTWDJOLG","","null","<img src=""img/land5.png"" style=""width:200px;border:14px solid red;"">","null","","","","","","","","","",""
"","image-keyboard-response","290","146543","0.0-290.0","3X3OR7WPZ0M6TCB0IC3GGRNHPU2L8U","A2APG8MSLJ6G2K","3THR0FZ95PF7SK0MYRNAOUHTWDJOLG","","681.5999999046326","img/land5.png","76","682.3999998569489","3","0","1","2","0.8,0.2,0.2,0.2,0.8,0.2,0.2,0.2,0.8","0.2,0.8,0.2,0.2,0.2,0.8,0.8,0.2,0.2","3","",""
"","html-keyboard-response","291","146845","0.0-291.0","3X3OR7WPZ0M6TCB0IC3GGRNHPU2L8U","A2APG8MSLJ6G2K","3THR0FZ95PF7SK0MYRNAOUHTWDJOLG","","null","<img src=""img/land5.png"" style=""width:200px;border:14px solid red;"">","null","","","","","","","","","",""
"","image-keyboard-response","292","147144","0.0-292.0","3X3OR7WPZ0M6TCB0IC3GGRNHPU2L8U","A2APG8MSLJ6G2K","3THR0FZ95PF7SK0MYRNAOUHTWDJOLG","","297.5","img/land5.png","74","298.09999990463257","1","0","1","2","0.8,0.2,0.2,0.2,0.8,0.2,0.2,0.2,0.8","0.2,0.8,0.2,0.2,0.2,0.8,0.8,0.2,0.2","3","",""
"","html-keyboard-response","293","147445","0.0-293.0","3X3OR7WPZ0M6TCB0IC3GGRNHPU2L8U","A2APG8MSLJ6G2K","3THR0FZ95PF7SK0MYRNAOUHTWDJOLG","","null","<img src=""img/land5.png"" style=""width:200px;border:14px solid red;"">","null","","","","","","","","","",""
"","image-keyboard-response","294","147751","0.0-294.0","3X3OR7WPZ0M6TCB0IC3GGRNHPU2L8U","A2APG8MSLJ6G2K","3THR0FZ95PF7SK0MYRNAOUHTWDJOLG","","305.7000000476837","img/land5.png","75","306.2999999523163","2","1","1","2","0.8,0.2,0.2,0.2,0.8,0.2,0.2,0.2,0.8","0.2,0.8,0.2,0.2,0.2,0.8,0.8,0.2,0.2","3","",""
"","html-keyboard-response","295","148053","0.0-295.0","3X3OR7WPZ0M6TCB0IC3GGRNHPU2L8U","A2APG8MSLJ6G2K","3THR0FZ95PF7SK0MYRNAOUHTWDJOLG","","null","<img src=""img/land5.png"" style=""width:200px; border:14px solid green;"">","null","","","","","","","","","",""
"","image-keyboard-response","296","148399","0.0-296.0","3X3OR7WPZ0M6TCB0IC3GGRNHPU2L8U","A2APG8MSLJ6G2K","3THR0FZ95PF7SK0MYRNAOUHTWDJOLG","","345","img/land1.png","75","345.59999990463257","2","0","2","2","0.8,0.2,0.2,0.2,0.8,0.2,0.2,0.2,0.8","0.2,0.8,0.2,0.2,0.2,0.8,0.8,0.2,0.2","3","",""
"","html-keyboard-response","297","148700","0.0-297.0","3X3OR7WPZ0M6TCB0IC3GGRNHPU2L8U","A2APG8MSLJ6G2K","3THR0FZ95PF7SK0MYRNAOUHTWDJOLG","","null","<img src=""img/land1.png"" style=""width:200px;border:14px solid red;"">","null","","","","","","","","","",""
"","image-keyboard-response","298","149440","0.0-298.0","3X3OR7WPZ0M6TCB0IC3GGRNHPU2L8U","A2APG8MSLJ6G2K","3THR0FZ95PF7SK0MYRNAOUHTWDJOLG","","738.2999999523163","img/land2.png","75","739.0999999046326","2","0","3","2","0.8,0.2,0.2,0.2,0.8,0.2,0.2,0.2,0.8","0.2,0.8,0.2,0.2,0.2,0.8,0.8,0.2,0.2","3","",""
"","html-keyboard-response","299","149741","0.0-299.0","3X3OR7WPZ0M6TCB0IC3GGRNHPU2L8U","A2APG8MSLJ6G2K","3THR0FZ95PF7SK0MYRNAOUHTWDJOLG","","null","<img src=""img/land2.png"" style=""width:200px;border:14px solid red;"">","null","","","","","","","","","",""
"","image-keyboard-response","300","150000","0.0-300.0","3X3OR7WPZ0M6TCB0IC3GGRNHPU2L8U","A2APG8MSLJ6G2K","3THR0FZ95PF7SK0MYRNAOUHTWDJOLG","","258.2999999523163","img/land1.png","75","258.7999999523163","2","0","2","2","0.8,0.2,0.2,0.2,0.8,0.2,0.2,0.2,0.8","0.2,0.8,0.2,0.2,0.2,0.8,0.8,0.2,0.2","3","",""
"","html-keyboard-response","301","150302","0.0-301.0","3X3OR7WPZ0M6TCB0IC3GGRNHPU2L8U","A2APG8MSLJ6G2K","3THR0FZ95PF7SK0MYRNAOUHTWDJOLG","","null","<img src=""img/land1.png"" style=""width:200px;border:14px solid red;"">","null","","","","","","","","","",""
"","image-keyboard-response","302","150663","0.0-302.0","3X3OR7WPZ0M6TCB0IC3GGRNHPU2L8U","A2APG8MSLJ6G2K","3THR0FZ95PF7SK0MYRNAOUHTWDJOLG","","360.59999990463257","img/land6.png","76","361.39999985694885","3","0","3","1","0.8,0.2,0.2,0.2,0.8,0.2,0.2,0.2,0.8","0.8,0.2,0.2,0.2,0.8,0.2,0.2,0.2,0.8","1","",""
"","html-keyboard-response","303","150965","0.0-303.0","3X3OR7WPZ0M6TCB0IC3GGRNHPU2L8U","A2APG8MSLJ6G2K","3THR0FZ95PF7SK0MYRNAOUHTWDJOLG","","null","<img src=""img/land6.png"" style=""width:200px;border:14px solid red;"">","null","","","","","","","","","",""
"","image-keyboard-response","304","151632","0.0-304.0","3X3OR7WPZ0M6TCB0IC3GGRNHPU2L8U","A2APG8MSLJ6G2K","3THR0FZ95PF7SK0MYRNAOUHTWDJOLG","","665.5999999046326","img/land3.png","76","666.2999999523163","3","0","1","1","0.8,0.2,0.2,0.2,0.8,0.2,0.2,0.2,0.8","0.8,0.2,0.2,0.2,0.8,0.2,0.2,0.2,0.8","1","",""
"","html-keyboard-response","305","151932","0.0-305.0","3X3OR7WPZ0M6TCB0IC3GGRNHPU2L8U","A2APG8MSLJ6G2K","3THR0FZ95PF7SK0MYRNAOUHTWDJOLG","","null","<img src=""img/land3.png"" style=""width:200px;border:14px solid red;"">","null","","","","","","","","","",""
"","image-keyboard-response","306","152303","0.0-306.0","3X3OR7WPZ0M6TCB0IC3GGRNHPU2L8U","A2APG8MSLJ6G2K","3THR0FZ95PF7SK0MYRNAOUHTWDJOLG","","369.39999985694885","img/land4.png","74","369.90000009536743","1","1","2","1","0.8,0.2,0.2,0.2,0.8,0.2,0.2,0.2,0.8","0.8,0.2,0.2,0.2,0.8,0.2,0.2,0.2,0.8","1","",""
"","html-keyboard-response","307","152604","0.0-307.0","3X3OR7WPZ0M6TCB0IC3GGRNHPU2L8U","A2APG8MSLJ6G2K","3THR0FZ95PF7SK0MYRNAOUHTWDJOLG","","null","<img src=""img/land4.png"" style=""width:200px; border:14px solid green;"">","null","","","","","","","","","",""
"","image-keyboard-response","308","152960","0.0-308.0","3X3OR7WPZ0M6TCB0IC3GGRNHPU2L8U","A2APG8MSLJ6G2K","3THR0FZ95PF7SK0MYRNAOUHTWDJOLG","","354.5","img/land3.png","74","355.60000014305115","1","1","1","1","0.8,0.2,0.2,0.2,0.8,0.2,0.2,0.2,0.8","0.8,0.2,0.2,0.2,0.8,0.2,0.2,0.2,0.8","1","",""
"","html-keyboard-response","309","153261","0.0-309.0","3X3OR7WPZ0M6TCB0IC3GGRNHPU2L8U","A2APG8MSLJ6G2K","3THR0FZ95PF7SK0MYRNAOUHTWDJOLG","","null","<img src=""img/land3.png"" style=""width:200px; border:14px solid green;"">","null","","","","","","","","","",""
"","image-keyboard-response","310","153671","0.0-310.0","3X3OR7WPZ0M6TCB0IC3GGRNHPU2L8U","A2APG8MSLJ6G2K","3THR0FZ95PF7SK0MYRNAOUHTWDJOLG","","409","img/land6.png","74","409.59999990463257","1","0","3","1","0.8,0.2,0.2,0.2,0.8,0.2,0.2,0.2,0.8","0.8,0.2,0.2,0.2,0.8,0.2,0.2,0.2,0.8","1","",""
"","html-keyboard-response","311","153973","0.0-311.0","3X3OR7WPZ0M6TCB0IC3GGRNHPU2L8U","A2APG8MSLJ6G2K","3THR0FZ95PF7SK0MYRNAOUHTWDJOLG","","null","<img src=""img/land6.png"" style=""width:200px;border:14px solid red;"">","null","","","","","","","","","",""
"","image-keyboard-response","312","154223","0.0-312.0","3X3OR7WPZ0M6TCB0IC3GGRNHPU2L8U","A2APG8MSLJ6G2K","3THR0FZ95PF7SK0MYRNAOUHTWDJOLG","","250.09999990463257","img/land4.png","75","250.70000004768372","2","1","2","1","0.8,0.2,0.2,0.2,0.8,0.2,0.2,0.2,0.8","0.8,0.2,0.2,0.2,0.8,0.2,0.2,0.2,0.8","1","",""
"","html-keyboard-response","313","154526","0.0-313.0","3X3OR7WPZ0M6TCB0IC3GGRNHPU2L8U","A2APG8MSLJ6G2K","3THR0FZ95PF7SK0MYRNAOUHTWDJOLG","","null","<img src=""img/land4.png"" style=""width:200px; border:14px solid green;"">","null","","","","","","","","","",""
"","image-keyboard-response","314","155096","0.0-314.0","3X3OR7WPZ0M6TCB0IC3GGRNHPU2L8U","A2APG8MSLJ6G2K","3THR0FZ95PF7SK0MYRNAOUHTWDJOLG","","569.2000000476837","img/land3.png","75","569.9000000953674","2","0","1","1","0.8,0.2,0.2,0.2,0.8,0.2,0.2,0.2,0.8","0.8,0.2,0.2,0.2,0.8,0.2,0.2,0.2,0.8","1","",""
"","html-keyboard-response","315","155397","0.0-315.0","3X3OR7WPZ0M6TCB0IC3GGRNHPU2L8U","A2APG8MSLJ6G2K","3THR0FZ95PF7SK0MYRNAOUHTWDJOLG","","null","<img src=""img/land3.png"" style=""width:200px;border:14px solid red;"">","null","","","","","","","","","",""
"","image-keyboard-response","316","156135","0.0-316.0","3X3OR7WPZ0M6TCB0IC3GGRNHPU2L8U","A2APG8MSLJ6G2K","3THR0FZ95PF7SK0MYRNAOUHTWDJOLG","","737.5","img/land4.png","75","738.1000001430511","2","1","2","1","0.8,0.2,0.2,0.2,0.8,0.2,0.2,0.2,0.8","0.8,0.2,0.2,0.2,0.8,0.2,0.2,0.2,0.8","1","",""
"","html-keyboard-response","317","156437","0.0-317.0","3X3OR7WPZ0M6TCB0IC3GGRNHPU2L8U","A2APG8MSLJ6G2K","3THR0FZ95PF7SK0MYRNAOUHTWDJOLG","","null","<img src=""img/land4.png"" style=""width:200px; border:14px solid green;"">","null","","","","","","","","","",""
"","image-keyboard-response","318","156815","0.0-318.0","3X3OR7WPZ0M6TCB0IC3GGRNHPU2L8U","A2APG8MSLJ6G2K","3THR0FZ95PF7SK0MYRNAOUHTWDJOLG","","377.10000014305115","img/land6.png","75","377.7000000476837","2","0","3","1","0.8,0.2,0.2,0.2,0.8,0.2,0.2,0.2,0.8","0.8,0.2,0.2,0.2,0.8,0.2,0.2,0.2,0.8","1","",""
"","html-keyboard-response","319","157116","0.0-319.0","3X3OR7WPZ0M6TCB0IC3GGRNHPU2L8U","A2APG8MSLJ6G2K","3THR0FZ95PF7SK0MYRNAOUHTWDJOLG","","null","<img src=""img/land6.png"" style=""width:200px;border:14px solid red;"">","null","","","","","","","","","",""
"","image-keyboard-response","320","157720","0.0-320.0","3X3OR7WPZ0M6TCB0IC3GGRNHPU2L8U","A2APG8MSLJ6G2K","3THR0FZ95PF7SK0MYRNAOUHTWDJOLG","","602.3999998569489","img/land4.png","75","603.0999999046326","2","0","2","1","0.8,0.2,0.2,0.2,0.8,0.2,0.2,0.2,0.8","0.8,0.2,0.2,0.2,0.8,0.2,0.2,0.2,0.8","1","",""
"","html-keyboard-response","321","158021","0.0-321.0","3X3OR7WPZ0M6TCB0IC3GGRNHPU2L8U","A2APG8MSLJ6G2K","3THR0FZ95PF7SK0MYRNAOUHTWDJOLG","","null","<img src=""img/land4.png"" style=""width:200px;border:14px solid red;"">","null","","","","","","","","","",""
"","image-keyboard-response","322","158567","0.0-322.0","3X3OR7WPZ0M6TCB0IC3GGRNHPU2L8U","A2APG8MSLJ6G2K","3THR0FZ95PF7SK0MYRNAOUHTWDJOLG","","545.5","img/land4.png","76","546.2000000476837","3","0","2","1","0.8,0.2,0.2,0.2,0.8,0.2,0.2,0.2,0.8","0.8,0.2,0.2,0.2,0.8,0.2,0.2,0.2,0.8","1","",""
"","html-keyboard-response","323","158868","0.0-323.0","3X3OR7WPZ0M6TCB0IC3GGRNHPU2L8U","A2APG8MSLJ6G2K","3THR0FZ95PF7SK0MYRNAOUHTWDJOLG","","null","<img src=""img/land4.png"" style=""width:200px;border:14px solid red;"">","null","","","","","","","","","",""
"","image-keyboard-response","324","159455","0.0-324.0","3X3OR7WPZ0M6TCB0IC3GGRNHPU2L8U","A2APG8MSLJ6G2K","3THR0FZ95PF7SK0MYRNAOUHTWDJOLG","","586.0999999046326","img/land3.png","74","586.7999999523163","1","1","1","1","0.8,0.2,0.2,0.2,0.8,0.2,0.2,0.2,0.8","0.8,0.2,0.2,0.2,0.8,0.2,0.2,0.2,0.8","1","",""
"","html-keyboard-response","325","159756","0.0-325.0","3X3OR7WPZ0M6TCB0IC3GGRNHPU2L8U","A2APG8MSLJ6G2K","3THR0FZ95PF7SK0MYRNAOUHTWDJOLG","","null","<img src=""img/land3.png"" style=""width:200px; border:14px solid green;"">","null","","","","","","","","","",""
"","image-keyboard-response","326","160079","0.0-326.0","3X3OR7WPZ0M6TCB0IC3GGRNHPU2L8U","A2APG8MSLJ6G2K","3THR0FZ95PF7SK0MYRNAOUHTWDJOLG","","322.2000000476837","img/land4.png","74","322.7999999523163","1","1","2","1","0.8,0.2,0.2,0.2,0.8,0.2,0.2,0.2,0.8","0.8,0.2,0.2,0.2,0.8,0.2,0.2,0.2,0.8","1","",""
"","html-keyboard-response","327","160380","0.0-327.0","3X3OR7WPZ0M6TCB0IC3GGRNHPU2L8U","A2APG8MSLJ6G2K","3THR0FZ95PF7SK0MYRNAOUHTWDJOLG","","null","<img src=""img/land4.png"" style=""width:200px; border:14px solid green;"">","null","","","","","","","","","",""
"","image-keyboard-response","328","160823","0.0-328.0","3X3OR7WPZ0M6TCB0IC3GGRNHPU2L8U","A2APG8MSLJ6G2K","3THR0FZ95PF7SK0MYRNAOUHTWDJOLG","","442.40000009536743","img/land3.png","74","442.89999985694885","1","0","1","1","0.8,0.2,0.2,0.2,0.8,0.2,0.2,0.2,0.8","0.8,0.2,0.2,0.2,0.8,0.2,0.2,0.2,0.8","1","",""
"","html-keyboard-response","329","161124","0.0-329.0","3X3OR7WPZ0M6TCB0IC3GGRNHPU2L8U","A2APG8MSLJ6G2K","3THR0FZ95PF7SK0MYRNAOUHTWDJOLG","","null","<img src=""img/land3.png"" style=""width:200px;border:14px solid red;"">","null","","","","","","","","","",""
"","image-keyboard-response","330","161471","0.0-330.0","3X3OR7WPZ0M6TCB0IC3GGRNHPU2L8U","A2APG8MSLJ6G2K","3THR0FZ95PF7SK0MYRNAOUHTWDJOLG","","346.09999990463257","img/land3.png","75","346.7000000476837","2","0","1","1","0.8,0.2,0.2,0.2,0.8,0.2,0.2,0.2,0.8","0.8,0.2,0.2,0.2,0.8,0.2,0.2,0.2,0.8","1","",""
"","html-keyboard-response","331","161772","0.0-331.0","3X3OR7WPZ0M6TCB0IC3GGRNHPU2L8U","A2APG8MSLJ6G2K","3THR0FZ95PF7SK0MYRNAOUHTWDJOLG","","null","<img src=""img/land3.png"" style=""width:200px;border:14px solid red;"">","null","","","","","","","","","",""
"","image-keyboard-response","332","162375","0.0-332.0","3X3OR7WPZ0M6TCB0IC3GGRNHPU2L8U","A2APG8MSLJ6G2K","3THR0FZ95PF7SK0MYRNAOUHTWDJOLG","","602.3999998569489","img/land4.png","76","603.2000000476837","3","0","2","1","0.8,0.2,0.2,0.2,0.8,0.2,0.2,0.2,0.8","0.8,0.2,0.2,0.2,0.8,0.2,0.2,0.2,0.8","1","",""
"","html-keyboard-response","333","162676","0.0-333.0","3X3OR7WPZ0M6TCB0IC3GGRNHPU2L8U","A2APG8MSLJ6G2K","3THR0FZ95PF7SK0MYRNAOUHTWDJOLG","","null","<img src=""img/land4.png"" style=""width:200px;border:14px solid red;"">","null","","","","","","","","","",""
"","image-keyboard-response","334","163183","0.0-334.0","3X3OR7WPZ0M6TCB0IC3GGRNHPU2L8U","A2APG8MSLJ6G2K","3THR0FZ95PF7SK0MYRNAOUHTWDJOLG","","506.5","img/land4.png","75","507.10000014305115","2","0","2","1","0.8,0.2,0.2,0.2,0.8,0.2,0.2,0.2,0.8","0.8,0.2,0.2,0.2,0.8,0.2,0.2,0.2,0.8","1","",""
"","html-keyboard-response","335","163485","0.0-335.0","3X3OR7WPZ0M6TCB0IC3GGRNHPU2L8U","A2APG8MSLJ6G2K","3THR0FZ95PF7SK0MYRNAOUHTWDJOLG","","null","<img src=""img/land4.png"" style=""width:200px;border:14px solid red;"">","null","","","","","","","","","",""
"","image-keyboard-response","336","164392","0.0-336.0","3X3OR7WPZ0M6TCB0IC3GGRNHPU2L8U","A2APG8MSLJ6G2K","3THR0FZ95PF7SK0MYRNAOUHTWDJOLG","","906.2999999523163","img/land4.png","74","906.7000000476837","1","0","2","1","0.8,0.2,0.2,0.2,0.8,0.2,0.2,0.2,0.8","0.8,0.2,0.2,0.2,0.8,0.2,0.2,0.2,0.8","1","",""
"","html-keyboard-response","337","164693","0.0-337.0","3X3OR7WPZ0M6TCB0IC3GGRNHPU2L8U","A2APG8MSLJ6G2K","3THR0FZ95PF7SK0MYRNAOUHTWDJOLG","","null","<img src=""img/land4.png"" style=""width:200px;border:14px solid red;"">","null","","","","","","","","","",""
"","image-keyboard-response","338","165352","0.0-338.0","3X3OR7WPZ0M6TCB0IC3GGRNHPU2L8U","A2APG8MSLJ6G2K","3THR0FZ95PF7SK0MYRNAOUHTWDJOLG","","657.2999999523163","img/land6.png","74","658.0999999046326","1","0","3","1","0.8,0.2,0.2,0.2,0.8,0.2,0.2,0.2,0.8","0.8,0.2,0.2,0.2,0.8,0.2,0.2,0.2,0.8","1","",""
"","html-keyboard-response","339","165653","0.0-339.0","3X3OR7WPZ0M6TCB0IC3GGRNHPU2L8U","A2APG8MSLJ6G2K","3THR0FZ95PF7SK0MYRNAOUHTWDJOLG","","null","<img src=""img/land6.png"" style=""width:200px;border:14px solid red;"">","null","","","","","","","","","",""
"","image-keyboard-response","340","166239","0.0-340.0","3X3OR7WPZ0M6TCB0IC3GGRNHPU2L8U","A2APG8MSLJ6G2K","3THR0FZ95PF7SK0MYRNAOUHTWDJOLG","","585.5999999046326","img/land4.png","75","586.2000000476837","2","1","2","1","0.8,0.2,0.2,0.2,0.8,0.2,0.2,0.2,0.8","0.8,0.2,0.2,0.2,0.8,0.2,0.2,0.2,0.8","1","",""
"","html-keyboard-response","341","166541","0.0-341.0","3X3OR7WPZ0M6TCB0IC3GGRNHPU2L8U","A2APG8MSLJ6G2K","3THR0FZ95PF7SK0MYRNAOUHTWDJOLG","","null","<img src=""img/land4.png"" style=""width:200px; border:14px solid green;"">","null","","","","","","","","","",""
"","image-keyboard-response","342","167207","0.0-342.0","3X3OR7WPZ0M6TCB0IC3GGRNHPU2L8U","A2APG8MSLJ6G2K","3THR0FZ95PF7SK0MYRNAOUHTWDJOLG","","665.7000000476837","img/land6.png","75","666.4000000953674","2","1","3","1","0.8,0.2,0.2,0.2,0.8,0.2,0.2,0.2,0.8","0.8,0.2,0.2,0.2,0.8,0.2,0.2,0.2,0.8","1","",""
"","html-keyboard-response","343","167509","0.0-343.0","3X3OR7WPZ0M6TCB0IC3GGRNHPU2L8U","A2APG8MSLJ6G2K","3THR0FZ95PF7SK0MYRNAOUHTWDJOLG","","null","<img src=""img/land6.png"" style=""width:200px; border:14px solid green;"">","null","","","","","","","","","",""
"","image-keyboard-response","344","167743","0.0-344.0","3X3OR7WPZ0M6TCB0IC3GGRNHPU2L8U","A2APG8MSLJ6G2K","3THR0FZ95PF7SK0MYRNAOUHTWDJOLG","","233.39999985694885","img/land4.png","75","234","2","1","2","1","0.8,0.2,0.2,0.2,0.8,0.2,0.2,0.2,0.8","0.8,0.2,0.2,0.2,0.8,0.2,0.2,0.2,0.8","1","",""
"","html-keyboard-response","345","168045","0.0-345.0","3X3OR7WPZ0M6TCB0IC3GGRNHPU2L8U","A2APG8MSLJ6G2K","3THR0FZ95PF7SK0MYRNAOUHTWDJOLG","","null","<img src=""img/land4.png"" style=""width:200px; border:14px solid green;"">","null","","","","","","","","","",""
"","image-keyboard-response","346","168584","0.0-346.0","3X3OR7WPZ0M6TCB0IC3GGRNHPU2L8U","A2APG8MSLJ6G2K","3THR0FZ95PF7SK0MYRNAOUHTWDJOLG","","537.6000001430511","img/land6.png","75","538.2999999523163","2","1","3","1","0.8,0.2,0.2,0.2,0.8,0.2,0.2,0.2,0.8","0.8,0.2,0.2,0.2,0.8,0.2,0.2,0.2,0.8","1","",""
"","html-keyboard-response","347","168886","0.0-347.0","3X3OR7WPZ0M6TCB0IC3GGRNHPU2L8U","A2APG8MSLJ6G2K","3THR0FZ95PF7SK0MYRNAOUHTWDJOLG","","null","<img src=""img/land6.png"" style=""width:200px; border:14px solid green;"">","null","","","","","","","","","",""
"","image-keyboard-response","348","169255","0.0-348.0","3X3OR7WPZ0M6TCB0IC3GGRNHPU2L8U","A2APG8MSLJ6G2K","3THR0FZ95PF7SK0MYRNAOUHTWDJOLG","","369.10000014305115","img/land3.png","75","369.59999990463257","2","1","1","1","0.8,0.2,0.2,0.2,0.8,0.2,0.2,0.2,0.8","0.8,0.2,0.2,0.2,0.8,0.2,0.2,0.2,0.8","1","",""
"","html-keyboard-response","349","169557","0.0-349.0","3X3OR7WPZ0M6TCB0IC3GGRNHPU2L8U","A2APG8MSLJ6G2K","3THR0FZ95PF7SK0MYRNAOUHTWDJOLG","","null","<img src=""img/land3.png"" style=""width:200px; border:14px solid green;"">","null","","","","","","","","","",""
"","image-keyboard-response","350","170208","0.0-350.0","3X3OR7WPZ0M6TCB0IC3GGRNHPU2L8U","A2APG8MSLJ6G2K","3THR0FZ95PF7SK0MYRNAOUHTWDJOLG","","649.2000000476837","img/land6.png","75","650","2","0","3","1","0.8,0.2,0.2,0.2,0.8,0.2,0.2,0.2,0.8","0.8,0.2,0.2,0.2,0.8,0.2,0.2,0.2,0.8","1","",""
"","html-keyboard-response","351","170509","0.0-351.0","3X3OR7WPZ0M6TCB0IC3GGRNHPU2L8U","A2APG8MSLJ6G2K","3THR0FZ95PF7SK0MYRNAOUHTWDJOLG","","null","<img src=""img/land6.png"" style=""width:200px;border:14px solid red;"">","null","","","","","","","","","",""
"","image-keyboard-response","352","170919","0.0-352.0","3X3OR7WPZ0M6TCB0IC3GGRNHPU2L8U","A2APG8MSLJ6G2K","3THR0FZ95PF7SK0MYRNAOUHTWDJOLG","","409.89999985694885","img/land6.png","75","410.5","2","0","3","1","0.8,0.2,0.2,0.2,0.8,0.2,0.2,0.2,0.8","0.8,0.2,0.2,0.2,0.8,0.2,0.2,0.2,0.8","1","",""
"","html-keyboard-response","353","171220","0.0-353.0","3X3OR7WPZ0M6TCB0IC3GGRNHPU2L8U","A2APG8MSLJ6G2K","3THR0FZ95PF7SK0MYRNAOUHTWDJOLG","","null","<img src=""img/land6.png"" style=""width:200px;border:14px solid red;"">","null","","","","","","","","","",""
"","image-keyboard-response","354","171552","0.0-354.0","3X3OR7WPZ0M6TCB0IC3GGRNHPU2L8U","A2APG8MSLJ6G2K","3THR0FZ95PF7SK0MYRNAOUHTWDJOLG","","330.7000000476837","img/land4.png","76","331.5","3","0","2","1","0.8,0.2,0.2,0.2,0.8,0.2,0.2,0.2,0.8","0.8,0.2,0.2,0.2,0.8,0.2,0.2,0.2,0.8","1","",""
