"success","trial_type","trial_index","time_elapsed","internal_node_id","assignmentID","mturkID","hitID","view_history","rt","stimulus","key_press","reactionTime","a","r","s","cond","reward_cond","reward_cond_actual","reward_matrix_idx","responses","question_order"
"true","fullscreen","0","14813","0.0-0.0","3WQQ9FUS6BGUG3PORZEM2ORCDW88B6","A2AZYU1CT24O0K","3RBI0I35XEP26UEZY8S8UZLEA1IY3E","","","","","","","","","","","","","",""
"","instructions","1","41784","0.0-1.0","3WQQ9FUS6BGUG3PORZEM2ORCDW88B6","A2AZYU1CT24O0K","3RBI0I35XEP26UEZY8S8UZLEA1IY3E","[{""page_index"":0,""viewing_time"":5826.399999991059},{""page_index"":1,""viewing_time"":3342.9000000059605},{""page_index"":2,""viewing_time"":4508.0999999940395},{""page_index"":3,""viewing_time"":3376.7000000029802},{""page_index"":4,""viewing_time"":5188},{""page_index"":5,""viewing_time"":1934.5999999940395},{""page_index"":6,""viewing_time"":2793.4000000059605}]","26970.19999998808","","","","","","","","","","","",""
"","image-keyboard-response","2","42858","0.0-2.0","3WQQ9FUS6BGUG3PORZEM2ORCDW88B6","A2AZYU1CT24O0K","3RBI0I35XEP26UEZY8S8UZLEA1IY3E","","1073.5","img/land5.png","74","1074","1","0","1","2","0.8,0.2,0.2,0.2,0.8,0.2,0.2,0.2,0.8","0.2,0.2,0.8,0.8,0.2,0.2,0.2,0.8,0.2","2","",""
"","html-keyboard-response","3","43160","0.0-3.0","3WQQ9FUS6BGUG3PORZEM2ORCDW88B6","A2AZYU1CT24O0K","3RBI0I35XEP26UEZY8S8UZLEA1IY3E","","null","<img src=""img/land5.png"" style=""width:200px;border:14px solid red;"">","null","","","","","","","","","",""
"","image-keyboard-response","4","43866","0.0-4.0","3WQQ9FUS6BGUG3PORZEM2ORCDW88B6","A2AZYU1CT24O0K","3RBI0I35XEP26UEZY8S8UZLEA1IY3E","","705.5","img/land5.png","75","705.7000000029802","2","0","1","2","0.8,0.2,0.2,0.2,0.8,0.2,0.2,0.2,0.8","0.2,0.2,0.8,0.8,0.2,0.2,0.2,0.8,0.2","2","",""
"","html-keyboard-response","5","44167","0.0-5.0","3WQQ9FUS6BGUG3PORZEM2ORCDW88B6","A2AZYU1CT24O0K","3RBI0I35XEP26UEZY8S8UZLEA1IY3E","","null","<img src=""img/land5.png"" style=""width:200px;border:14px solid red;"">","null","","","","","","","","","",""
"","image-keyboard-response","6","45298","0.0-6.0","3WQQ9FUS6BGUG3PORZEM2ORCDW88B6","A2AZYU1CT24O0K","3RBI0I35XEP26UEZY8S8UZLEA1IY3E","","1130.2000000029802","img/land4.png","76","1130.5","3","0","2","2","0.8,0.2,0.2,0.2,0.8,0.2,0.2,0.2,0.8","0.2,0.2,0.8,0.8,0.2,0.2,0.2,0.8,0.2","2","",""
"","html-keyboard-response","7","45603","0.0-7.0","3WQQ9FUS6BGUG3PORZEM2ORCDW88B6","A2AZYU1CT24O0K","3RBI0I35XEP26UEZY8S8UZLEA1IY3E","","null","<img src=""img/land4.png"" style=""width:200px;border:14px solid red;"">","null","","","","","","","","","",""
"","image-keyboard-response","8","46531","0.0-8.0","3WQQ9FUS6BGUG3PORZEM2ORCDW88B6","A2AZYU1CT24O0K","3RBI0I35XEP26UEZY8S8UZLEA1IY3E","","927.5","img/land5.png","76","928","3","1","1","2","0.8,0.2,0.2,0.2,0.8,0.2,0.2,0.2,0.8","0.2,0.2,0.8,0.8,0.2,0.2,0.2,0.8,0.2","2","",""
"","html-keyboard-response","9","46833","0.0-9.0","3WQQ9FUS6BGUG3PORZEM2ORCDW88B6","A2AZYU1CT24O0K","3RBI0I35XEP26UEZY8S8UZLEA1IY3E","","null","<img src=""img/land5.png"" style=""width:200px; border:14px solid green;"">","null","","","","","","","","","",""
"","image-keyboard-response","10","47650","0.0-10.0","3WQQ9FUS6BGUG3PORZEM2ORCDW88B6","A2AZYU1CT24O0K","3RBI0I35XEP26UEZY8S8UZLEA1IY3E","","817","img/land5.png","76","817.3999999910593","3","1","1","2","0.8,0.2,0.2,0.2,0.8,0.2,0.2,0.2,0.8","0.2,0.2,0.8,0.8,0.2,0.2,0.2,0.8,0.2","2","",""
"","html-keyboard-response","11","47952","0.0-11.0","3WQQ9FUS6BGUG3PORZEM2ORCDW88B6","A2AZYU1CT24O0K","3RBI0I35XEP26UEZY8S8UZLEA1IY3E","","null","<img src=""img/land5.png"" style=""width:200px; border:14px solid green;"">","null","","","","","","","","","",""
"","image-keyboard-response","12","48450","0.0-12.0","3WQQ9FUS6BGUG3PORZEM2ORCDW88B6","A2AZYU1CT24O0K","3RBI0I35XEP26UEZY8S8UZLEA1IY3E","","497.5","img/land5.png","76","497.90000000596046","3","1","1","2","0.8,0.2,0.2,0.2,0.8,0.2,0.2,0.2,0.8","0.2,0.2,0.8,0.8,0.2,0.2,0.2,0.8,0.2","2","",""
"","html-keyboard-response","13","48752","0.0-13.0","3WQQ9FUS6BGUG3PORZEM2ORCDW88B6","A2AZYU1CT24O0K","3RBI0I35XEP26UEZY8S8UZLEA1IY3E","","null","<img src=""img/land5.png"" style=""width:200px; border:14px solid green;"">","null","","","","","","","","","",""
"","image-keyboard-response","14","49242","0.0-14.0","3WQQ9FUS6BGUG3PORZEM2ORCDW88B6","A2AZYU1CT24O0K","3RBI0I35XEP26UEZY8S8UZLEA1IY3E","","490.1000000089407","img/land5.png","76","490.6000000089407","3","0","1","2","0.8,0.2,0.2,0.2,0.8,0.2,0.2,0.2,0.8","0.2,0.2,0.8,0.8,0.2,0.2,0.2,0.8,0.2","2","",""
"","html-keyboard-response","15","49543","0.0-15.0","3WQQ9FUS6BGUG3PORZEM2ORCDW88B6","A2AZYU1CT24O0K","3RBI0I35XEP26UEZY8S8UZLEA1IY3E","","null","<img src=""img/land5.png"" style=""width:200px;border:14px solid red;"">","null","","","","","","","","","",""
"","image-keyboard-response","16","50338","0.0-16.0","3WQQ9FUS6BGUG3PORZEM2ORCDW88B6","A2AZYU1CT24O0K","3RBI0I35XEP26UEZY8S8UZLEA1IY3E","","794.7000000029802","img/land5.png","76","795.0999999940395","3","1","1","2","0.8,0.2,0.2,0.2,0.8,0.2,0.2,0.2,0.8","0.2,0.2,0.8,0.8,0.2,0.2,0.2,0.8,0.2","2","",""
"","html-keyboard-response","17","50639","0.0-17.0","3WQQ9FUS6BGUG3PORZEM2ORCDW88B6","A2AZYU1CT24O0K","3RBI0I35XEP26UEZY8S8UZLEA1IY3E","","null","<img src=""img/land5.png"" style=""width:200px; border:14px solid green;"">","null","","","","","","","","","",""
"","image-keyboard-response","18","51474","0.0-18.0","3WQQ9FUS6BGUG3PORZEM2ORCDW88B6","A2AZYU1CT24O0K","3RBI0I35XEP26UEZY8S8UZLEA1IY3E","","835.2999999970198","img/land2.png","74","835.5","1","1","3","2","0.8,0.2,0.2,0.2,0.8,0.2,0.2,0.2,0.8","0.2,0.2,0.8,0.8,0.2,0.2,0.2,0.8,0.2","2","",""
"","html-keyboard-response","19","51776","0.0-19.0","3WQQ9FUS6BGUG3PORZEM2ORCDW88B6","A2AZYU1CT24O0K","3RBI0I35XEP26UEZY8S8UZLEA1IY3E","","null","<img src=""img/land2.png"" style=""width:200px; border:14px solid green;"">","null","","","","","","","","","",""
"","image-keyboard-response","20","52458","0.0-20.0","3WQQ9FUS6BGUG3PORZEM2ORCDW88B6","A2AZYU1CT24O0K","3RBI0I35XEP26UEZY8S8UZLEA1IY3E","","681.7000000029802","img/land5.png","76","682","3","1","1","2","0.8,0.2,0.2,0.2,0.8,0.2,0.2,0.2,0.8","0.2,0.2,0.8,0.8,0.2,0.2,0.2,0.8,0.2","2","",""
"","html-keyboard-response","21","52760","0.0-21.0","3WQQ9FUS6BGUG3PORZEM2ORCDW88B6","A2AZYU1CT24O0K","3RBI0I35XEP26UEZY8S8UZLEA1IY3E","","null","<img src=""img/land5.png"" style=""width:200px; border:14px solid green;"">","null","","","","","","","","","",""
"","image-keyboard-response","22","53330","0.0-22.0","3WQQ9FUS6BGUG3PORZEM2ORCDW88B6","A2AZYU1CT24O0K","3RBI0I35XEP26UEZY8S8UZLEA1IY3E","","570","img/land5.png","76","570.2999999970198","3","1","1","2","0.8,0.2,0.2,0.2,0.8,0.2,0.2,0.2,0.8","0.2,0.2,0.8,0.8,0.2,0.2,0.2,0.8,0.2","2","",""
"","html-keyboard-response","23","53631","0.0-23.0","3WQQ9FUS6BGUG3PORZEM2ORCDW88B6","A2AZYU1CT24O0K","3RBI0I35XEP26UEZY8S8UZLEA1IY3E","","null","<img src=""img/land5.png"" style=""width:200px; border:14px solid green;"">","null","","","","","","","","","",""
"","image-keyboard-response","24","54146","0.0-24.0","3WQQ9FUS6BGUG3PORZEM2ORCDW88B6","A2AZYU1CT24O0K","3RBI0I35XEP26UEZY8S8UZLEA1IY3E","","514.5999999940395","img/land2.png","74","514.8999999910593","1","1","3","2","0.8,0.2,0.2,0.2,0.8,0.2,0.2,0.2,0.8","0.2,0.2,0.8,0.8,0.2,0.2,0.2,0.8,0.2","2","",""
"","html-keyboard-response","25","54446","0.0-25.0","3WQQ9FUS6BGUG3PORZEM2ORCDW88B6","A2AZYU1CT24O0K","3RBI0I35XEP26UEZY8S8UZLEA1IY3E","","null","<img src=""img/land2.png"" style=""width:200px; border:14px solid green;"">","null","","","","","","","","","",""
"","image-keyboard-response","26","55010","0.0-26.0","3WQQ9FUS6BGUG3PORZEM2ORCDW88B6","A2AZYU1CT24O0K","3RBI0I35XEP26UEZY8S8UZLEA1IY3E","","563","img/land5.png","76","563.2999999970198","3","1","1","2","0.8,0.2,0.2,0.2,0.8,0.2,0.2,0.2,0.8","0.2,0.2,0.8,0.8,0.2,0.2,0.2,0.8,0.2","2","",""
"","html-keyboard-response","27","55311","0.0-27.0","3WQQ9FUS6BGUG3PORZEM2ORCDW88B6","A2AZYU1CT24O0K","3RBI0I35XEP26UEZY8S8UZLEA1IY3E","","null","<img src=""img/land5.png"" style=""width:200px; border:14px solid green;"">","null","","","","","","","","","",""
"","image-keyboard-response","28","55882","0.0-28.0","3WQQ9FUS6BGUG3PORZEM2ORCDW88B6","A2AZYU1CT24O0K","3RBI0I35XEP26UEZY8S8UZLEA1IY3E","","570.2000000029802","img/land5.png","76","570.5","3","1","1","2","0.8,0.2,0.2,0.2,0.8,0.2,0.2,0.2,0.8","0.2,0.2,0.8,0.8,0.2,0.2,0.2,0.8,0.2","2","",""
"","html-keyboard-response","29","56183","0.0-29.0","3WQQ9FUS6BGUG3PORZEM2ORCDW88B6","A2AZYU1CT24O0K","3RBI0I35XEP26UEZY8S8UZLEA1IY3E","","null","<img src=""img/land5.png"" style=""width:200px; border:14px solid green;"">","null","","","","","","","","","",""
"","image-keyboard-response","30","56650","0.0-30.0","3WQQ9FUS6BGUG3PORZEM2ORCDW88B6","A2AZYU1CT24O0K","3RBI0I35XEP26UEZY8S8UZLEA1IY3E","","466.40000000596046","img/land5.png","76","466.79999999701977","3","1","1","2","0.8,0.2,0.2,0.2,0.8,0.2,0.2,0.2,0.8","0.2,0.2,0.8,0.8,0.2,0.2,0.2,0.8,0.2","2","",""
"","html-keyboard-response","31","56951","0.0-31.0","3WQQ9FUS6BGUG3PORZEM2ORCDW88B6","A2AZYU1CT24O0K","3RBI0I35XEP26UEZY8S8UZLEA1IY3E","","null","<img src=""img/land5.png"" style=""width:200px; border:14px solid green;"">","null","","","","","","","","","",""
"","image-keyboard-response","32","57426","0.0-32.0","3WQQ9FUS6BGUG3PORZEM2ORCDW88B6","A2AZYU1CT24O0K","3RBI0I35XEP26UEZY8S8UZLEA1IY3E","","474.79999999701977","img/land5.png","76","475.09999999403954","3","1","1","2","0.8,0.2,0.2,0.2,0.8,0.2,0.2,0.2,0.8","0.2,0.2,0.8,0.8,0.2,0.2,0.2,0.8,0.2","2","",""
"","html-keyboard-response","33","57728","0.0-33.0","3WQQ9FUS6BGUG3PORZEM2ORCDW88B6","A2AZYU1CT24O0K","3RBI0I35XEP26UEZY8S8UZLEA1IY3E","","null","<img src=""img/land5.png"" style=""width:200px; border:14px solid green;"">","null","","","","","","","","","",""
"","image-keyboard-response","34","58306","0.0-34.0","3WQQ9FUS6BGUG3PORZEM2ORCDW88B6","A2AZYU1CT24O0K","3RBI0I35XEP26UEZY8S8UZLEA1IY3E","","577.8999999910593","img/land2.png","74","578.2000000029802","1","0","3","2","0.8,0.2,0.2,0.2,0.8,0.2,0.2,0.2,0.8","0.2,0.2,0.8,0.8,0.2,0.2,0.2,0.8,0.2","2","",""
"","html-keyboard-response","35","58607","0.0-35.0","3WQQ9FUS6BGUG3PORZEM2ORCDW88B6","A2AZYU1CT24O0K","3RBI0I35XEP26UEZY8S8UZLEA1IY3E","","null","<img src=""img/land2.png"" style=""width:200px;border:14px solid red;"">","null","","","","","","","","","",""
"","image-keyboard-response","36","59218","0.0-36.0","3WQQ9FUS6BGUG3PORZEM2ORCDW88B6","A2AZYU1CT24O0K","3RBI0I35XEP26UEZY8S8UZLEA1IY3E","","610.5999999940395","img/land5.png","76","610.9000000059605","3","1","1","2","0.8,0.2,0.2,0.2,0.8,0.2,0.2,0.2,0.8","0.2,0.2,0.8,0.8,0.2,0.2,0.2,0.8,0.2","2","",""
"","html-keyboard-response","37","59519","0.0-37.0","3WQQ9FUS6BGUG3PORZEM2ORCDW88B6","A2AZYU1CT24O0K","3RBI0I35XEP26UEZY8S8UZLEA1IY3E","","null","<img src=""img/land5.png"" style=""width:200px; border:14px solid green;"">","null","","","","","","","","","",""
"","image-keyboard-response","38","60170","0.0-38.0","3WQQ9FUS6BGUG3PORZEM2ORCDW88B6","A2AZYU1CT24O0K","3RBI0I35XEP26UEZY8S8UZLEA1IY3E","","650.4000000059605","img/land4.png","74","650.7999999970198","1","1","2","2","0.8,0.2,0.2,0.2,0.8,0.2,0.2,0.2,0.8","0.2,0.2,0.8,0.8,0.2,0.2,0.2,0.8,0.2","2","",""
"","html-keyboard-response","39","60471","0.0-39.0","3WQQ9FUS6BGUG3PORZEM2ORCDW88B6","A2AZYU1CT24O0K","3RBI0I35XEP26UEZY8S8UZLEA1IY3E","","null","<img src=""img/land4.png"" style=""width:200px; border:14px solid green;"">","null","","","","","","","","","",""
"","image-keyboard-response","40","61178","0.0-40.0","3WQQ9FUS6BGUG3PORZEM2ORCDW88B6","A2AZYU1CT24O0K","3RBI0I35XEP26UEZY8S8UZLEA1IY3E","","706","img/land2.png","74","706.4000000059605","1","0","3","2","0.8,0.2,0.2,0.2,0.8,0.2,0.2,0.2,0.8","0.2,0.2,0.8,0.8,0.2,0.2,0.2,0.8,0.2","2","",""
"","html-keyboard-response","41","61479","0.0-41.0","3WQQ9FUS6BGUG3PORZEM2ORCDW88B6","A2AZYU1CT24O0K","3RBI0I35XEP26UEZY8S8UZLEA1IY3E","","null","<img src=""img/land2.png"" style=""width:200px;border:14px solid red;"">","null","","","","","","","","","",""
"","image-keyboard-response","42","62058","0.0-42.0","3WQQ9FUS6BGUG3PORZEM2ORCDW88B6","A2AZYU1CT24O0K","3RBI0I35XEP26UEZY8S8UZLEA1IY3E","","578.6000000089407","img/land5.png","76","579.0999999940395","3","1","1","2","0.8,0.2,0.2,0.2,0.8,0.2,0.2,0.2,0.8","0.2,0.2,0.8,0.8,0.2,0.2,0.2,0.8,0.2","2","",""
"","html-keyboard-response","43","62359","0.0-43.0","3WQQ9FUS6BGUG3PORZEM2ORCDW88B6","A2AZYU1CT24O0K","3RBI0I35XEP26UEZY8S8UZLEA1IY3E","","null","<img src=""img/land5.png"" style=""width:200px; border:14px solid green;"">","null","","","","","","","","","",""
"","image-keyboard-response","44","63002","0.0-44.0","3WQQ9FUS6BGUG3PORZEM2ORCDW88B6","A2AZYU1CT24O0K","3RBI0I35XEP26UEZY8S8UZLEA1IY3E","","641.9000000059605","img/land5.png","76","642.2000000029802","3","1","1","2","0.8,0.2,0.2,0.2,0.8,0.2,0.2,0.2,0.8","0.2,0.2,0.8,0.8,0.2,0.2,0.2,0.8,0.2","2","",""
"","html-keyboard-response","45","63303","0.0-45.0","3WQQ9FUS6BGUG3PORZEM2ORCDW88B6","A2AZYU1CT24O0K","3RBI0I35XEP26UEZY8S8UZLEA1IY3E","","null","<img src=""img/land5.png"" style=""width:200px; border:14px solid green;"">","null","","","","","","","","","",""
"","image-keyboard-response","46","63810","0.0-46.0","3WQQ9FUS6BGUG3PORZEM2ORCDW88B6","A2AZYU1CT24O0K","3RBI0I35XEP26UEZY8S8UZLEA1IY3E","","506.70000000298023","img/land5.png","76","507.09999999403954","3","1","1","2","0.8,0.2,0.2,0.2,0.8,0.2,0.2,0.2,0.8","0.2,0.2,0.8,0.8,0.2,0.2,0.2,0.8,0.2","2","",""
"","html-keyboard-response","47","64112","0.0-47.0","3WQQ9FUS6BGUG3PORZEM2ORCDW88B6","A2AZYU1CT24O0K","3RBI0I35XEP26UEZY8S8UZLEA1IY3E","","null","<img src=""img/land5.png"" style=""width:200px; border:14px solid green;"">","null","","","","","","","","","",""
"","image-keyboard-response","48","64787","0.0-48.0","3WQQ9FUS6BGUG3PORZEM2ORCDW88B6","A2AZYU1CT24O0K","3RBI0I35XEP26UEZY8S8UZLEA1IY3E","","674.5","img/land4.png","75","674.7000000029802","2","0","2","2","0.8,0.2,0.2,0.2,0.8,0.2,0.2,0.2,0.8","0.2,0.2,0.8,0.8,0.2,0.2,0.2,0.8,0.2","2","",""
"","html-keyboard-response","49","65095","0.0-49.0","3WQQ9FUS6BGUG3PORZEM2ORCDW88B6","A2AZYU1CT24O0K","3RBI0I35XEP26UEZY8S8UZLEA1IY3E","","null","<img src=""img/land4.png"" style=""width:200px;border:14px solid red;"">","null","","","","","","","","","",""
"","image-keyboard-response","50","65826","0.0-50.0","3WQQ9FUS6BGUG3PORZEM2ORCDW88B6","A2AZYU1CT24O0K","3RBI0I35XEP26UEZY8S8UZLEA1IY3E","","731","img/land5.png","76","731.3999999910593","3","1","1","2","0.8,0.2,0.2,0.2,0.8,0.2,0.2,0.2,0.8","0.2,0.2,0.8,0.8,0.2,0.2,0.2,0.8,0.2","2","",""
"","html-keyboard-response","51","66127","0.0-51.0","3WQQ9FUS6BGUG3PORZEM2ORCDW88B6","A2AZYU1CT24O0K","3RBI0I35XEP26UEZY8S8UZLEA1IY3E","","null","<img src=""img/land5.png"" style=""width:200px; border:14px solid green;"">","null","","","","","","","","","",""
"","image-keyboard-response","52","66874","0.0-52.0","3WQQ9FUS6BGUG3PORZEM2ORCDW88B6","A2AZYU1CT24O0K","3RBI0I35XEP26UEZY8S8UZLEA1IY3E","","746.3999999910593","img/land2.png","76","746.7000000029802","3","0","3","2","0.8,0.2,0.2,0.2,0.8,0.2,0.2,0.2,0.8","0.2,0.2,0.8,0.8,0.2,0.2,0.2,0.8,0.2","2","",""
"","html-keyboard-response","53","67174","0.0-53.0","3WQQ9FUS6BGUG3PORZEM2ORCDW88B6","A2AZYU1CT24O0K","3RBI0I35XEP26UEZY8S8UZLEA1IY3E","","null","<img src=""img/land2.png"" style=""width:200px;border:14px solid red;"">","null","","","","","","","","","",""
"","image-keyboard-response","54","67866","0.0-54.0","3WQQ9FUS6BGUG3PORZEM2ORCDW88B6","A2AZYU1CT24O0K","3RBI0I35XEP26UEZY8S8UZLEA1IY3E","","691.4000000059605","img/land5.png","76","691.6999999880791","3","0","1","2","0.8,0.2,0.2,0.2,0.8,0.2,0.2,0.2,0.8","0.2,0.2,0.8,0.8,0.2,0.2,0.2,0.8,0.2","2","",""
"","html-keyboard-response","55","68169","0.0-55.0","3WQQ9FUS6BGUG3PORZEM2ORCDW88B6","A2AZYU1CT24O0K","3RBI0I35XEP26UEZY8S8UZLEA1IY3E","","null","<img src=""img/land5.png"" style=""width:200px;border:14px solid red;"">","null","","","","","","","","","",""
"","image-keyboard-response","56","68738","0.0-56.0","3WQQ9FUS6BGUG3PORZEM2ORCDW88B6","A2AZYU1CT24O0K","3RBI0I35XEP26UEZY8S8UZLEA1IY3E","","568.8000000119209","img/land5.png","76","569.3000000119209","3","1","1","2","0.8,0.2,0.2,0.2,0.8,0.2,0.2,0.2,0.8","0.2,0.2,0.8,0.8,0.2,0.2,0.2,0.8,0.2","2","",""
"","html-keyboard-response","57","69039","0.0-57.0","3WQQ9FUS6BGUG3PORZEM2ORCDW88B6","A2AZYU1CT24O0K","3RBI0I35XEP26UEZY8S8UZLEA1IY3E","","null","<img src=""img/land5.png"" style=""width:200px; border:14px solid green;"">","null","","","","","","","","","",""
"","image-keyboard-response","58","69546","0.0-58.0","3WQQ9FUS6BGUG3PORZEM2ORCDW88B6","A2AZYU1CT24O0K","3RBI0I35XEP26UEZY8S8UZLEA1IY3E","","506.70000000298023","img/land5.png","76","507","3","1","1","2","0.8,0.2,0.2,0.2,0.8,0.2,0.2,0.2,0.8","0.2,0.2,0.8,0.8,0.2,0.2,0.2,0.8,0.2","2","",""
"","html-keyboard-response","59","69847","0.0-59.0","3WQQ9FUS6BGUG3PORZEM2ORCDW88B6","A2AZYU1CT24O0K","3RBI0I35XEP26UEZY8S8UZLEA1IY3E","","null","<img src=""img/land5.png"" style=""width:200px; border:14px solid green;"">","null","","","","","","","","","",""
"","image-keyboard-response","60","70314","0.0-60.0","3WQQ9FUS6BGUG3PORZEM2ORCDW88B6","A2AZYU1CT24O0K","3RBI0I35XEP26UEZY8S8UZLEA1IY3E","","466.19999998807907","img/land5.png","76","466.59999999403954","3","1","1","2","0.8,0.2,0.2,0.2,0.8,0.2,0.2,0.2,0.8","0.2,0.2,0.8,0.8,0.2,0.2,0.2,0.8,0.2","2","",""
"","html-keyboard-response","61","70615","0.0-61.0","3WQQ9FUS6BGUG3PORZEM2ORCDW88B6","A2AZYU1CT24O0K","3RBI0I35XEP26UEZY8S8UZLEA1IY3E","","null","<img src=""img/land5.png"" style=""width:200px; border:14px solid green;"">","null","","","","","","","","","",""
"","image-keyboard-response","62","71066","0.0-62.0","3WQQ9FUS6BGUG3PORZEM2ORCDW88B6","A2AZYU1CT24O0K","3RBI0I35XEP26UEZY8S8UZLEA1IY3E","","450.09999999403954","img/land5.png","76","450.29999999701977","3","1","1","2","0.8,0.2,0.2,0.2,0.8,0.2,0.2,0.2,0.8","0.2,0.2,0.8,0.8,0.2,0.2,0.2,0.8,0.2","2","",""
"","html-keyboard-response","63","71366","0.0-63.0","3WQQ9FUS6BGUG3PORZEM2ORCDW88B6","A2AZYU1CT24O0K","3RBI0I35XEP26UEZY8S8UZLEA1IY3E","","null","<img src=""img/land5.png"" style=""width:200px; border:14px solid green;"">","null","","","","","","","","","",""
"","image-keyboard-response","64","71802","0.0-64.0","3WQQ9FUS6BGUG3PORZEM2ORCDW88B6","A2AZYU1CT24O0K","3RBI0I35XEP26UEZY8S8UZLEA1IY3E","","435.19999998807907","img/land5.png","76","435.6000000089407","3","1","1","2","0.8,0.2,0.2,0.2,0.8,0.2,0.2,0.2,0.8","0.2,0.2,0.8,0.8,0.2,0.2,0.2,0.8,0.2","2","",""
"","html-keyboard-response","65","72111","0.0-65.0","3WQQ9FUS6BGUG3PORZEM2ORCDW88B6","A2AZYU1CT24O0K","3RBI0I35XEP26UEZY8S8UZLEA1IY3E","","null","<img src=""img/land5.png"" style=""width:200px; border:14px solid green;"">","null","","","","","","","","","",""
"","image-keyboard-response","66","72522","0.0-66.0","3WQQ9FUS6BGUG3PORZEM2ORCDW88B6","A2AZYU1CT24O0K","3RBI0I35XEP26UEZY8S8UZLEA1IY3E","","410.29999999701977","img/land5.png","76","410.6000000089407","3","0","1","2","0.8,0.2,0.2,0.2,0.8,0.2,0.2,0.2,0.8","0.2,0.2,0.8,0.8,0.2,0.2,0.2,0.8,0.2","2","",""
"","html-keyboard-response","67","72823","0.0-67.0","3WQQ9FUS6BGUG3PORZEM2ORCDW88B6","A2AZYU1CT24O0K","3RBI0I35XEP26UEZY8S8UZLEA1IY3E","","null","<img src=""img/land5.png"" style=""width:200px;border:14px solid red;"">","null","","","","","","","","","",""
"","image-keyboard-response","68","73730","0.0-68.0","3WQQ9FUS6BGUG3PORZEM2ORCDW88B6","A2AZYU1CT24O0K","3RBI0I35XEP26UEZY8S8UZLEA1IY3E","","906.9000000059605","img/land4.png","74","907.2000000029802","1","1","2","2","0.8,0.2,0.2,0.2,0.8,0.2,0.2,0.2,0.8","0.2,0.2,0.8,0.8,0.2,0.2,0.2,0.8,0.2","2","",""
"","html-keyboard-response","69","74031","0.0-69.0","3WQQ9FUS6BGUG3PORZEM2ORCDW88B6","A2AZYU1CT24O0K","3RBI0I35XEP26UEZY8S8UZLEA1IY3E","","null","<img src=""img/land4.png"" style=""width:200px; border:14px solid green;"">","null","","","","","","","","","",""
"","image-keyboard-response","70","74666","0.0-70.0","3WQQ9FUS6BGUG3PORZEM2ORCDW88B6","A2AZYU1CT24O0K","3RBI0I35XEP26UEZY8S8UZLEA1IY3E","","634.2000000029802","img/land2.png","74","634.5999999940395","1","1","3","2","0.8,0.2,0.2,0.2,0.8,0.2,0.2,0.2,0.8","0.2,0.2,0.8,0.8,0.2,0.2,0.2,0.8,0.2","2","",""
"","html-keyboard-response","71","74967","0.0-71.0","3WQQ9FUS6BGUG3PORZEM2ORCDW88B6","A2AZYU1CT24O0K","3RBI0I35XEP26UEZY8S8UZLEA1IY3E","","null","<img src=""img/land2.png"" style=""width:200px; border:14px solid green;"">","null","","","","","","","","","",""
"","image-keyboard-response","72","75538","0.0-72.0","3WQQ9FUS6BGUG3PORZEM2ORCDW88B6","A2AZYU1CT24O0K","3RBI0I35XEP26UEZY8S8UZLEA1IY3E","","570.7000000029802","img/land2.png","74","570.8999999910593","1","0","3","2","0.8,0.2,0.2,0.2,0.8,0.2,0.2,0.2,0.8","0.2,0.2,0.8,0.8,0.2,0.2,0.2,0.8,0.2","2","",""
"","html-keyboard-response","73","75839","0.0-73.0","3WQQ9FUS6BGUG3PORZEM2ORCDW88B6","A2AZYU1CT24O0K","3RBI0I35XEP26UEZY8S8UZLEA1IY3E","","null","<img src=""img/land2.png"" style=""width:200px;border:14px solid red;"">","null","","","","","","","","","",""
"","image-keyboard-response","74","76354","0.0-74.0","3WQQ9FUS6BGUG3PORZEM2ORCDW88B6","A2AZYU1CT24O0K","3RBI0I35XEP26UEZY8S8UZLEA1IY3E","","514.4000000059605","img/land5.png","76","514.7999999970198","3","1","1","2","0.8,0.2,0.2,0.2,0.8,0.2,0.2,0.2,0.8","0.2,0.2,0.8,0.8,0.2,0.2,0.2,0.8,0.2","2","",""
"","html-keyboard-response","75","76655","0.0-75.0","3WQQ9FUS6BGUG3PORZEM2ORCDW88B6","A2AZYU1CT24O0K","3RBI0I35XEP26UEZY8S8UZLEA1IY3E","","null","<img src=""img/land5.png"" style=""width:200px; border:14px solid green;"">","null","","","","","","","","","",""
"","image-keyboard-response","76","77122","0.0-76.0","3WQQ9FUS6BGUG3PORZEM2ORCDW88B6","A2AZYU1CT24O0K","3RBI0I35XEP26UEZY8S8UZLEA1IY3E","","466.20000000298023","img/land5.png","76","466.5","3","0","1","2","0.8,0.2,0.2,0.2,0.8,0.2,0.2,0.2,0.8","0.2,0.2,0.8,0.8,0.2,0.2,0.2,0.8,0.2","2","",""
"","html-keyboard-response","77","77423","0.0-77.0","3WQQ9FUS6BGUG3PORZEM2ORCDW88B6","A2AZYU1CT24O0K","3RBI0I35XEP26UEZY8S8UZLEA1IY3E","","null","<img src=""img/land5.png"" style=""width:200px;border:14px solid red;"">","null","","","","","","","","","",""
"","image-keyboard-response","78","77882","0.0-78.0","3WQQ9FUS6BGUG3PORZEM2ORCDW88B6","A2AZYU1CT24O0K","3RBI0I35XEP26UEZY8S8UZLEA1IY3E","","459","img/land5.png","76","459.20000000298023","3","1","1","2","0.8,0.2,0.2,0.2,0.8,0.2,0.2,0.2,0.8","0.2,0.2,0.8,0.8,0.2,0.2,0.2,0.8,0.2","2","",""
"","html-keyboard-response","79","78183","0.0-79.0","3WQQ9FUS6BGUG3PORZEM2ORCDW88B6","A2AZYU1CT24O0K","3RBI0I35XEP26UEZY8S8UZLEA1IY3E","","null","<img src=""img/land5.png"" style=""width:200px; border:14px solid green;"">","null","","","","","","","","","",""
"","image-keyboard-response","80","78594","0.0-80.0","3WQQ9FUS6BGUG3PORZEM2ORCDW88B6","A2AZYU1CT24O0K","3RBI0I35XEP26UEZY8S8UZLEA1IY3E","","410.40000000596046","img/land5.png","76","410.8999999910593","3","0","1","2","0.8,0.2,0.2,0.2,0.8,0.2,0.2,0.2,0.8","0.2,0.2,0.8,0.8,0.2,0.2,0.2,0.8,0.2","2","",""
"","html-keyboard-response","81","78895","0.0-81.0","3WQQ9FUS6BGUG3PORZEM2ORCDW88B6","A2AZYU1CT24O0K","3RBI0I35XEP26UEZY8S8UZLEA1IY3E","","null","<img src=""img/land5.png"" style=""width:200px;border:14px solid red;"">","null","","","","","","","","","",""
"","image-keyboard-response","82","79578","0.0-82.0","3WQQ9FUS6BGUG3PORZEM2ORCDW88B6","A2AZYU1CT24O0K","3RBI0I35XEP26UEZY8S8UZLEA1IY3E","","682.7000000029802","img/land4.png","74","683.1000000089407","1","1","2","2","0.8,0.2,0.2,0.2,0.8,0.2,0.2,0.2,0.8","0.2,0.2,0.8,0.8,0.2,0.2,0.2,0.8,0.2","2","",""
"","html-keyboard-response","83","79879","0.0-83.0","3WQQ9FUS6BGUG3PORZEM2ORCDW88B6","A2AZYU1CT24O0K","3RBI0I35XEP26UEZY8S8UZLEA1IY3E","","null","<img src=""img/land4.png"" style=""width:200px; border:14px solid green;"">","null","","","","","","","","","",""
"","image-keyboard-response","84","80458","0.0-84.0","3WQQ9FUS6BGUG3PORZEM2ORCDW88B6","A2AZYU1CT24O0K","3RBI0I35XEP26UEZY8S8UZLEA1IY3E","","578.3999999910593","img/land2.png","74","578.7000000029802","1","0","3","2","0.8,0.2,0.2,0.2,0.8,0.2,0.2,0.2,0.8","0.2,0.2,0.8,0.8,0.2,0.2,0.2,0.8,0.2","2","",""
"","html-keyboard-response","85","80768","0.0-85.0","3WQQ9FUS6BGUG3PORZEM2ORCDW88B6","A2AZYU1CT24O0K","3RBI0I35XEP26UEZY8S8UZLEA1IY3E","","null","<img src=""img/land2.png"" style=""width:200px;border:14px solid red;"">","null","","","","","","","","","",""
"","image-keyboard-response","86","81306","0.0-86.0","3WQQ9FUS6BGUG3PORZEM2ORCDW88B6","A2AZYU1CT24O0K","3RBI0I35XEP26UEZY8S8UZLEA1IY3E","","537.2000000029802","img/land5.png","76","537.4000000059605","3","1","1","2","0.8,0.2,0.2,0.2,0.8,0.2,0.2,0.2,0.8","0.2,0.2,0.8,0.8,0.2,0.2,0.2,0.8,0.2","2","",""
"","html-keyboard-response","87","81607","0.0-87.0","3WQQ9FUS6BGUG3PORZEM2ORCDW88B6","A2AZYU1CT24O0K","3RBI0I35XEP26UEZY8S8UZLEA1IY3E","","null","<img src=""img/land5.png"" style=""width:200px; border:14px solid green;"">","null","","","","","","","","","",""
"","image-keyboard-response","88","82026","0.0-88.0","3WQQ9FUS6BGUG3PORZEM2ORCDW88B6","A2AZYU1CT24O0K","3RBI0I35XEP26UEZY8S8UZLEA1IY3E","","419.20000000298023","img/land5.png","76","419.3999999910593","3","0","1","2","0.8,0.2,0.2,0.2,0.8,0.2,0.2,0.2,0.8","0.2,0.2,0.8,0.8,0.2,0.2,0.2,0.8,0.2","2","",""
"","html-keyboard-response","89","82327","0.0-89.0","3WQQ9FUS6BGUG3PORZEM2ORCDW88B6","A2AZYU1CT24O0K","3RBI0I35XEP26UEZY8S8UZLEA1IY3E","","null","<img src=""img/land5.png"" style=""width:200px;border:14px solid red;"">","null","","","","","","","","","",""
"","image-keyboard-response","90","82754","0.0-90.0","3WQQ9FUS6BGUG3PORZEM2ORCDW88B6","A2AZYU1CT24O0K","3RBI0I35XEP26UEZY8S8UZLEA1IY3E","","426.1000000089407","img/land5.png","76","426.5","3","1","1","2","0.8,0.2,0.2,0.2,0.8,0.2,0.2,0.2,0.8","0.2,0.2,0.8,0.8,0.2,0.2,0.2,0.8,0.2","2","",""
"","html-keyboard-response","91","83055","0.0-91.0","3WQQ9FUS6BGUG3PORZEM2ORCDW88B6","A2AZYU1CT24O0K","3RBI0I35XEP26UEZY8S8UZLEA1IY3E","","null","<img src=""img/land5.png"" style=""width:200px; border:14px solid green;"">","null","","","","","","","","","",""
"","image-keyboard-response","92","83618","0.0-92.0","3WQQ9FUS6BGUG3PORZEM2ORCDW88B6","A2AZYU1CT24O0K","3RBI0I35XEP26UEZY8S8UZLEA1IY3E","","562.5999999940395","img/land4.png","74","562.9000000059605","1","1","2","2","0.8,0.2,0.2,0.2,0.8,0.2,0.2,0.2,0.8","0.2,0.2,0.8,0.8,0.2,0.2,0.2,0.8,0.2","2","",""
"","html-keyboard-response","93","83919","0.0-93.0","3WQQ9FUS6BGUG3PORZEM2ORCDW88B6","A2AZYU1CT24O0K","3RBI0I35XEP26UEZY8S8UZLEA1IY3E","","null","<img src=""img/land4.png"" style=""width:200px; border:14px solid green;"">","null","","","","","","","","","",""
"","image-keyboard-response","94","84634","0.0-94.0","3WQQ9FUS6BGUG3PORZEM2ORCDW88B6","A2AZYU1CT24O0K","3RBI0I35XEP26UEZY8S8UZLEA1IY3E","","713.8000000119209","img/land2.png","74","714.1999999880791","1","1","3","2","0.8,0.2,0.2,0.2,0.8,0.2,0.2,0.2,0.8","0.2,0.2,0.8,0.8,0.2,0.2,0.2,0.8,0.2","2","",""
"","html-keyboard-response","95","84935","0.0-95.0","3WQQ9FUS6BGUG3PORZEM2ORCDW88B6","A2AZYU1CT24O0K","3RBI0I35XEP26UEZY8S8UZLEA1IY3E","","null","<img src=""img/land2.png"" style=""width:200px; border:14px solid green;"">","null","","","","","","","","","",""
"","image-keyboard-response","96","85442","0.0-96.0","3WQQ9FUS6BGUG3PORZEM2ORCDW88B6","A2AZYU1CT24O0K","3RBI0I35XEP26UEZY8S8UZLEA1IY3E","","506.1000000089407","img/land5.png","76","506.59999999403954","3","1","1","2","0.8,0.2,0.2,0.2,0.8,0.2,0.2,0.2,0.8","0.2,0.2,0.8,0.8,0.2,0.2,0.2,0.8,0.2","2","",""
"","html-keyboard-response","97","85743","0.0-97.0","3WQQ9FUS6BGUG3PORZEM2ORCDW88B6","A2AZYU1CT24O0K","3RBI0I35XEP26UEZY8S8UZLEA1IY3E","","null","<img src=""img/land5.png"" style=""width:200px; border:14px solid green;"">","null","","","","","","","","","",""
"","image-keyboard-response","98","86378","0.0-98.0","3WQQ9FUS6BGUG3PORZEM2ORCDW88B6","A2AZYU1CT24O0K","3RBI0I35XEP26UEZY8S8UZLEA1IY3E","","634.5999999940395","img/land2.png","74","635.0999999940395","1","0","3","2","0.8,0.2,0.2,0.2,0.8,0.2,0.2,0.2,0.8","0.2,0.2,0.8,0.8,0.2,0.2,0.2,0.8,0.2","2","",""
"","html-keyboard-response","99","86679","0.0-99.0","3WQQ9FUS6BGUG3PORZEM2ORCDW88B6","A2AZYU1CT24O0K","3RBI0I35XEP26UEZY8S8UZLEA1IY3E","","null","<img src=""img/land2.png"" style=""width:200px;border:14px solid red;"">","null","","","","","","","","","",""
"","image-keyboard-response","100","87226","0.0-100.0","3WQQ9FUS6BGUG3PORZEM2ORCDW88B6","A2AZYU1CT24O0K","3RBI0I35XEP26UEZY8S8UZLEA1IY3E","","546.2000000029802","img/land5.png","76","546.7000000029802","3","1","1","2","0.8,0.2,0.2,0.2,0.8,0.2,0.2,0.2,0.8","0.2,0.2,0.8,0.8,0.2,0.2,0.2,0.8,0.2","2","",""
"","html-keyboard-response","101","87527","0.0-101.0","3WQQ9FUS6BGUG3PORZEM2ORCDW88B6","A2AZYU1CT24O0K","3RBI0I35XEP26UEZY8S8UZLEA1IY3E","","null","<img src=""img/land5.png"" style=""width:200px; border:14px solid green;"">","null","","","","","","","","","",""
"","image-keyboard-response","102","88090","0.0-102.0","3WQQ9FUS6BGUG3PORZEM2ORCDW88B6","A2AZYU1CT24O0K","3RBI0I35XEP26UEZY8S8UZLEA1IY3E","","562.2999999970198","img/land2.png","74","562.6000000089407","1","0","3","2","0.8,0.2,0.2,0.2,0.8,0.2,0.2,0.2,0.8","0.2,0.2,0.8,0.8,0.2,0.2,0.2,0.8,0.2","2","",""
"","html-keyboard-response","103","88392","0.0-103.0","3WQQ9FUS6BGUG3PORZEM2ORCDW88B6","A2AZYU1CT24O0K","3RBI0I35XEP26UEZY8S8UZLEA1IY3E","","null","<img src=""img/land2.png"" style=""width:200px;border:14px solid red;"">","null","","","","","","","","","",""
"","image-keyboard-response","104","89066","0.0-104.0","3WQQ9FUS6BGUG3PORZEM2ORCDW88B6","A2AZYU1CT24O0K","3RBI0I35XEP26UEZY8S8UZLEA1IY3E","","674.2999999970198","img/land4.png","74","674.5","1","1","2","2","0.8,0.2,0.2,0.2,0.8,0.2,0.2,0.2,0.8","0.2,0.2,0.8,0.8,0.2,0.2,0.2,0.8,0.2","2","",""
"","html-keyboard-response","105","89367","0.0-105.0","3WQQ9FUS6BGUG3PORZEM2ORCDW88B6","A2AZYU1CT24O0K","3RBI0I35XEP26UEZY8S8UZLEA1IY3E","","null","<img src=""img/land4.png"" style=""width:200px; border:14px solid green;"">","null","","","","","","","","","",""
"","image-keyboard-response","106","89834","0.0-106.0","3WQQ9FUS6BGUG3PORZEM2ORCDW88B6","A2AZYU1CT24O0K","3RBI0I35XEP26UEZY8S8UZLEA1IY3E","","466.90000000596046","img/land4.png","74","467.09999999403954","1","1","2","2","0.8,0.2,0.2,0.2,0.8,0.2,0.2,0.2,0.8","0.2,0.2,0.8,0.8,0.2,0.2,0.2,0.8,0.2","2","",""
"","html-keyboard-response","107","90136","0.0-107.0","3WQQ9FUS6BGUG3PORZEM2ORCDW88B6","A2AZYU1CT24O0K","3RBI0I35XEP26UEZY8S8UZLEA1IY3E","","null","<img src=""img/land4.png"" style=""width:200px; border:14px solid green;"">","null","","","","","","","","","",""
"","image-keyboard-response","108","90618","0.0-108.0","3WQQ9FUS6BGUG3PORZEM2ORCDW88B6","A2AZYU1CT24O0K","3RBI0I35XEP26UEZY8S8UZLEA1IY3E","","482.3999999910593","img/land2.png","76","482.59999999403954","3","0","3","2","0.8,0.2,0.2,0.2,0.8,0.2,0.2,0.2,0.8","0.2,0.2,0.8,0.8,0.2,0.2,0.2,0.8,0.2","2","",""
"","html-keyboard-response","109","90919","0.0-109.0","3WQQ9FUS6BGUG3PORZEM2ORCDW88B6","A2AZYU1CT24O0K","3RBI0I35XEP26UEZY8S8UZLEA1IY3E","","null","<img src=""img/land2.png"" style=""width:200px;border:14px solid red;"">","null","","","","","","","","","",""
"","image-keyboard-response","110","91594","0.0-110.0","3WQQ9FUS6BGUG3PORZEM2ORCDW88B6","A2AZYU1CT24O0K","3RBI0I35XEP26UEZY8S8UZLEA1IY3E","","673.9000000059605","img/land4.png","74","674.1999999880791","1","1","2","2","0.8,0.2,0.2,0.2,0.8,0.2,0.2,0.2,0.8","0.2,0.2,0.8,0.8,0.2,0.2,0.2,0.8,0.2","2","",""
"","html-keyboard-response","111","91894","0.0-111.0","3WQQ9FUS6BGUG3PORZEM2ORCDW88B6","A2AZYU1CT24O0K","3RBI0I35XEP26UEZY8S8UZLEA1IY3E","","null","<img src=""img/land4.png"" style=""width:200px; border:14px solid green;"">","null","","","","","","","","","",""
"","image-keyboard-response","112","92490","0.0-112.0","3WQQ9FUS6BGUG3PORZEM2ORCDW88B6","A2AZYU1CT24O0K","3RBI0I35XEP26UEZY8S8UZLEA1IY3E","","595.1999999880791","img/land2.png","74","595.5999999940395","1","0","3","2","0.8,0.2,0.2,0.2,0.8,0.2,0.2,0.2,0.8","0.2,0.2,0.8,0.8,0.2,0.2,0.2,0.8,0.2","2","",""
"","html-keyboard-response","113","92791","0.0-113.0","3WQQ9FUS6BGUG3PORZEM2ORCDW88B6","A2AZYU1CT24O0K","3RBI0I35XEP26UEZY8S8UZLEA1IY3E","","null","<img src=""img/land2.png"" style=""width:200px;border:14px solid red;"">","null","","","","","","","","","",""
"","image-keyboard-response","114","93226","0.0-114.0","3WQQ9FUS6BGUG3PORZEM2ORCDW88B6","A2AZYU1CT24O0K","3RBI0I35XEP26UEZY8S8UZLEA1IY3E","","434.5","img/land4.png","74","435.09999999403954","1","0","2","2","0.8,0.2,0.2,0.2,0.8,0.2,0.2,0.2,0.8","0.2,0.2,0.8,0.8,0.2,0.2,0.2,0.8,0.2","2","",""
"","html-keyboard-response","115","93527","0.0-115.0","3WQQ9FUS6BGUG3PORZEM2ORCDW88B6","A2AZYU1CT24O0K","3RBI0I35XEP26UEZY8S8UZLEA1IY3E","","null","<img src=""img/land4.png"" style=""width:200px;border:14px solid red;"">","null","","","","","","","","","",""
"","image-keyboard-response","116","93890","0.0-116.0","3WQQ9FUS6BGUG3PORZEM2ORCDW88B6","A2AZYU1CT24O0K","3RBI0I35XEP26UEZY8S8UZLEA1IY3E","","362.20000000298023","img/land4.png","74","362.59999999403954","1","1","2","2","0.8,0.2,0.2,0.2,0.8,0.2,0.2,0.2,0.8","0.2,0.2,0.8,0.8,0.2,0.2,0.2,0.8,0.2","2","",""
"","html-keyboard-response","117","94195","0.0-117.0","3WQQ9FUS6BGUG3PORZEM2ORCDW88B6","A2AZYU1CT24O0K","3RBI0I35XEP26UEZY8S8UZLEA1IY3E","","null","<img src=""img/land4.png"" style=""width:200px; border:14px solid green;"">","null","","","","","","","","","",""
"","image-keyboard-response","118","94810","0.0-118.0","3WQQ9FUS6BGUG3PORZEM2ORCDW88B6","A2AZYU1CT24O0K","3RBI0I35XEP26UEZY8S8UZLEA1IY3E","","614.2999999970198","img/land5.png","76","614.7000000029802","3","1","1","2","0.8,0.2,0.2,0.2,0.8,0.2,0.2,0.2,0.8","0.2,0.2,0.8,0.8,0.2,0.2,0.2,0.8,0.2","2","",""
"","html-keyboard-response","119","95111","0.0-119.0","3WQQ9FUS6BGUG3PORZEM2ORCDW88B6","A2AZYU1CT24O0K","3RBI0I35XEP26UEZY8S8UZLEA1IY3E","","null","<img src=""img/land5.png"" style=""width:200px; border:14px solid green;"">","null","","","","","","","","","",""
"","image-keyboard-response","120","95834","0.0-120.0","3WQQ9FUS6BGUG3PORZEM2ORCDW88B6","A2AZYU1CT24O0K","3RBI0I35XEP26UEZY8S8UZLEA1IY3E","","722.7999999970198","img/land5.png","76","723.1000000089407","3","0","1","2","0.8,0.2,0.2,0.2,0.8,0.2,0.2,0.2,0.8","0.2,0.2,0.8,0.8,0.2,0.2,0.2,0.8,0.2","2","",""
"","html-keyboard-response","121","96136","0.0-121.0","3WQQ9FUS6BGUG3PORZEM2ORCDW88B6","A2AZYU1CT24O0K","3RBI0I35XEP26UEZY8S8UZLEA1IY3E","","null","<img src=""img/land5.png"" style=""width:200px;border:14px solid red;"">","null","","","","","","","","","",""
"","image-keyboard-response","122","96978","0.0-122.0","3WQQ9FUS6BGUG3PORZEM2ORCDW88B6","A2AZYU1CT24O0K","3RBI0I35XEP26UEZY8S8UZLEA1IY3E","","840.7999999970198","img/land2.png","75","841.0999999940395","2","1","3","2","0.8,0.2,0.2,0.2,0.8,0.2,0.2,0.2,0.8","0.2,0.2,0.8,0.8,0.2,0.2,0.2,0.8,0.2","2","",""
"","html-keyboard-response","123","97279","0.0-123.0","3WQQ9FUS6BGUG3PORZEM2ORCDW88B6","A2AZYU1CT24O0K","3RBI0I35XEP26UEZY8S8UZLEA1IY3E","","null","<img src=""img/land2.png"" style=""width:200px; border:14px solid green;"">","null","","","","","","","","","",""
"","image-keyboard-response","124","98186","0.0-124.0","3WQQ9FUS6BGUG3PORZEM2ORCDW88B6","A2AZYU1CT24O0K","3RBI0I35XEP26UEZY8S8UZLEA1IY3E","","905.7999999970198","img/land5.png","76","906.1999999880791","3","1","1","2","0.8,0.2,0.2,0.2,0.8,0.2,0.2,0.2,0.8","0.2,0.2,0.8,0.8,0.2,0.2,0.2,0.8,0.2","2","",""
"","html-keyboard-response","125","98487","0.0-125.0","3WQQ9FUS6BGUG3PORZEM2ORCDW88B6","A2AZYU1CT24O0K","3RBI0I35XEP26UEZY8S8UZLEA1IY3E","","null","<img src=""img/land5.png"" style=""width:200px; border:14px solid green;"">","null","","","","","","","","","",""
"","image-keyboard-response","126","99082","0.0-126.0","3WQQ9FUS6BGUG3PORZEM2ORCDW88B6","A2AZYU1CT24O0K","3RBI0I35XEP26UEZY8S8UZLEA1IY3E","","594.9000000059605","img/land4.png","75","595.2999999970198","2","0","2","2","0.8,0.2,0.2,0.2,0.8,0.2,0.2,0.2,0.8","0.2,0.2,0.8,0.8,0.2,0.2,0.2,0.8,0.2","2","",""
"","html-keyboard-response","127","99383","0.0-127.0","3WQQ9FUS6BGUG3PORZEM2ORCDW88B6","A2AZYU1CT24O0K","3RBI0I35XEP26UEZY8S8UZLEA1IY3E","","null","<img src=""img/land4.png"" style=""width:200px;border:14px solid red;"">","null","","","","","","","","","",""
"","image-keyboard-response","128","100162","0.0-128.0","3WQQ9FUS6BGUG3PORZEM2ORCDW88B6","A2AZYU1CT24O0K","3RBI0I35XEP26UEZY8S8UZLEA1IY3E","","778.2000000029802","img/land2.png","75","778.6000000089407","2","0","3","2","0.8,0.2,0.2,0.2,0.8,0.2,0.2,0.2,0.8","0.2,0.2,0.8,0.8,0.2,0.2,0.2,0.8,0.2","2","",""
"","html-keyboard-response","129","100463","0.0-129.0","3WQQ9FUS6BGUG3PORZEM2ORCDW88B6","A2AZYU1CT24O0K","3RBI0I35XEP26UEZY8S8UZLEA1IY3E","","null","<img src=""img/land2.png"" style=""width:200px;border:14px solid red;"">","null","","","","","","","","","",""
"","image-keyboard-response","130","101274","0.0-130.0","3WQQ9FUS6BGUG3PORZEM2ORCDW88B6","A2AZYU1CT24O0K","3RBI0I35XEP26UEZY8S8UZLEA1IY3E","","810.6999999880791","img/land4.png","75","811","2","1","2","2","0.8,0.2,0.2,0.2,0.8,0.2,0.2,0.2,0.8","0.2,0.2,0.8,0.8,0.2,0.2,0.2,0.8,0.2","2","",""
"","html-keyboard-response","131","101575","0.0-131.0","3WQQ9FUS6BGUG3PORZEM2ORCDW88B6","A2AZYU1CT24O0K","3RBI0I35XEP26UEZY8S8UZLEA1IY3E","","null","<img src=""img/land4.png"" style=""width:200px; border:14px solid green;"">","null","","","","","","","","","",""
"","image-keyboard-response","132","102106","0.0-132.0","3WQQ9FUS6BGUG3PORZEM2ORCDW88B6","A2AZYU1CT24O0K","3RBI0I35XEP26UEZY8S8UZLEA1IY3E","","530.3999999910593","img/land5.png","76","530.7000000029802","3","1","1","2","0.8,0.2,0.2,0.2,0.8,0.2,0.2,0.2,0.8","0.2,0.2,0.8,0.8,0.2,0.2,0.2,0.8,0.2","2","",""
"","html-keyboard-response","133","102422","0.0-133.0","3WQQ9FUS6BGUG3PORZEM2ORCDW88B6","A2AZYU1CT24O0K","3RBI0I35XEP26UEZY8S8UZLEA1IY3E","","null","<img src=""img/land5.png"" style=""width:200px; border:14px solid green;"">","null","","","","","","","","","",""
"","image-keyboard-response","134","102946","0.0-134.0","3WQQ9FUS6BGUG3PORZEM2ORCDW88B6","A2AZYU1CT24O0K","3RBI0I35XEP26UEZY8S8UZLEA1IY3E","","523.5","img/land5.png","76","523.7999999970198","3","1","1","2","0.8,0.2,0.2,0.2,0.8,0.2,0.2,0.2,0.8","0.2,0.2,0.8,0.8,0.2,0.2,0.2,0.8,0.2","2","",""
"","html-keyboard-response","135","103248","0.0-135.0","3WQQ9FUS6BGUG3PORZEM2ORCDW88B6","A2AZYU1CT24O0K","3RBI0I35XEP26UEZY8S8UZLEA1IY3E","","null","<img src=""img/land5.png"" style=""width:200px; border:14px solid green;"">","null","","","","","","","","","",""
"","image-keyboard-response","136","104354","0.0-136.0","3WQQ9FUS6BGUG3PORZEM2ORCDW88B6","A2AZYU1CT24O0K","3RBI0I35XEP26UEZY8S8UZLEA1IY3E","","1105.7999999970198","img/land4.png","74","1106.2000000029802","1","1","2","2","0.8,0.2,0.2,0.2,0.8,0.2,0.2,0.2,0.8","0.2,0.2,0.8,0.8,0.2,0.2,0.2,0.8,0.2","2","",""
"","html-keyboard-response","137","104655","0.0-137.0","3WQQ9FUS6BGUG3PORZEM2ORCDW88B6","A2AZYU1CT24O0K","3RBI0I35XEP26UEZY8S8UZLEA1IY3E","","null","<img src=""img/land4.png"" style=""width:200px; border:14px solid green;"">","null","","","","","","","","","",""
"","image-keyboard-response","138","105250","0.0-138.0","3WQQ9FUS6BGUG3PORZEM2ORCDW88B6","A2AZYU1CT24O0K","3RBI0I35XEP26UEZY8S8UZLEA1IY3E","","594.2999999970198","img/land5.png","76","594.7000000029802","3","1","1","2","0.8,0.2,0.2,0.2,0.8,0.2,0.2,0.2,0.8","0.2,0.2,0.8,0.8,0.2,0.2,0.2,0.8,0.2","2","",""
"","html-keyboard-response","139","105551","0.0-139.0","3WQQ9FUS6BGUG3PORZEM2ORCDW88B6","A2AZYU1CT24O0K","3RBI0I35XEP26UEZY8S8UZLEA1IY3E","","null","<img src=""img/land5.png"" style=""width:200px; border:14px solid green;"">","null","","","","","","","","","",""
"","image-keyboard-response","140","105938","0.0-140.0","3WQQ9FUS6BGUG3PORZEM2ORCDW88B6","A2AZYU1CT24O0K","3RBI0I35XEP26UEZY8S8UZLEA1IY3E","","386.20000000298023","img/land5.png","76","386.5","3","1","1","2","0.8,0.2,0.2,0.2,0.8,0.2,0.2,0.2,0.8","0.2,0.2,0.8,0.8,0.2,0.2,0.2,0.8,0.2","2","",""
"","html-keyboard-response","141","106239","0.0-141.0","3WQQ9FUS6BGUG3PORZEM2ORCDW88B6","A2AZYU1CT24O0K","3RBI0I35XEP26UEZY8S8UZLEA1IY3E","","null","<img src=""img/land5.png"" style=""width:200px; border:14px solid green;"">","null","","","","","","","","","",""
"","image-keyboard-response","142","106939","0.0-142.0","3WQQ9FUS6BGUG3PORZEM2ORCDW88B6","A2AZYU1CT24O0K","3RBI0I35XEP26UEZY8S8UZLEA1IY3E","","699.5999999940395","img/land4.png","74","699.9000000059605","1","1","2","2","0.8,0.2,0.2,0.2,0.8,0.2,0.2,0.2,0.8","0.2,0.2,0.8,0.8,0.2,0.2,0.2,0.8,0.2","2","",""
"","html-keyboard-response","143","107240","0.0-143.0","3WQQ9FUS6BGUG3PORZEM2ORCDW88B6","A2AZYU1CT24O0K","3RBI0I35XEP26UEZY8S8UZLEA1IY3E","","null","<img src=""img/land4.png"" style=""width:200px; border:14px solid green;"">","null","","","","","","","","","",""
"","image-keyboard-response","144","107938","0.0-144.0","3WQQ9FUS6BGUG3PORZEM2ORCDW88B6","A2AZYU1CT24O0K","3RBI0I35XEP26UEZY8S8UZLEA1IY3E","","698","img/land5.png","76","698.3000000119209","3","1","1","2","0.8,0.2,0.2,0.2,0.8,0.2,0.2,0.2,0.8","0.2,0.2,0.8,0.8,0.2,0.2,0.2,0.8,0.2","2","",""
"","html-keyboard-response","145","108240","0.0-145.0","3WQQ9FUS6BGUG3PORZEM2ORCDW88B6","A2AZYU1CT24O0K","3RBI0I35XEP26UEZY8S8UZLEA1IY3E","","null","<img src=""img/land5.png"" style=""width:200px; border:14px solid green;"">","null","","","","","","","","","",""
"","image-keyboard-response","146","109098","0.0-146.0","3WQQ9FUS6BGUG3PORZEM2ORCDW88B6","A2AZYU1CT24O0K","3RBI0I35XEP26UEZY8S8UZLEA1IY3E","","857.6999999880791","img/land4.png","74","858.0999999940395","1","1","2","2","0.8,0.2,0.2,0.2,0.8,0.2,0.2,0.2,0.8","0.2,0.2,0.8,0.8,0.2,0.2,0.2,0.8,0.2","2","",""
"","html-keyboard-response","147","109399","0.0-147.0","3WQQ9FUS6BGUG3PORZEM2ORCDW88B6","A2AZYU1CT24O0K","3RBI0I35XEP26UEZY8S8UZLEA1IY3E","","null","<img src=""img/land4.png"" style=""width:200px; border:14px solid green;"">","null","","","","","","","","","",""
"","image-keyboard-response","148","109890","0.0-148.0","3WQQ9FUS6BGUG3PORZEM2ORCDW88B6","A2AZYU1CT24O0K","3RBI0I35XEP26UEZY8S8UZLEA1IY3E","","490.09999999403954","img/land5.png","76","490.5","3","1","1","2","0.8,0.2,0.2,0.2,0.8,0.2,0.2,0.2,0.8","0.2,0.2,0.8,0.8,0.2,0.2,0.2,0.8,0.2","2","",""
"","html-keyboard-response","149","110190","0.0-149.0","3WQQ9FUS6BGUG3PORZEM2ORCDW88B6","A2AZYU1CT24O0K","3RBI0I35XEP26UEZY8S8UZLEA1IY3E","","null","<img src=""img/land5.png"" style=""width:200px; border:14px solid green;"">","null","","","","","","","","","",""
"","image-keyboard-response","150","110682","0.0-150.0","3WQQ9FUS6BGUG3PORZEM2ORCDW88B6","A2AZYU1CT24O0K","3RBI0I35XEP26UEZY8S8UZLEA1IY3E","","491","img/land4.png","74","491.29999999701977","1","1","2","2","0.8,0.2,0.2,0.2,0.8,0.2,0.2,0.2,0.8","0.2,0.2,0.8,0.8,0.2,0.2,0.2,0.8,0.2","2","",""
"","html-keyboard-response","151","110983","0.0-151.0","3WQQ9FUS6BGUG3PORZEM2ORCDW88B6","A2AZYU1CT24O0K","3RBI0I35XEP26UEZY8S8UZLEA1IY3E","","null","<img src=""img/land4.png"" style=""width:200px; border:14px solid green;"">","null","","","","","","","","","",""
"","image-keyboard-response","152","111609","0.0-152.0","3WQQ9FUS6BGUG3PORZEM2ORCDW88B6","A2AZYU1CT24O0K","3RBI0I35XEP26UEZY8S8UZLEA1IY3E","","626.6000000089407","img/land4.png","74","626.9000000059605","1","0","2","2","0.8,0.2,0.2,0.2,0.8,0.2,0.2,0.2,0.8","0.2,0.2,0.8,0.8,0.2,0.2,0.2,0.8,0.2","2","",""
"","html-keyboard-response","153","111911","0.0-153.0","3WQQ9FUS6BGUG3PORZEM2ORCDW88B6","A2AZYU1CT24O0K","3RBI0I35XEP26UEZY8S8UZLEA1IY3E","","null","<img src=""img/land4.png"" style=""width:200px;border:14px solid red;"">","null","","","","","","","","","",""
"","image-keyboard-response","154","112682","0.0-154.0","3WQQ9FUS6BGUG3PORZEM2ORCDW88B6","A2AZYU1CT24O0K","3RBI0I35XEP26UEZY8S8UZLEA1IY3E","","770","img/land5.png","76","770.2999999970198","3","1","1","2","0.8,0.2,0.2,0.2,0.8,0.2,0.2,0.2,0.8","0.2,0.2,0.8,0.8,0.2,0.2,0.2,0.8,0.2","2","",""
"","html-keyboard-response","155","112983","0.0-155.0","3WQQ9FUS6BGUG3PORZEM2ORCDW88B6","A2AZYU1CT24O0K","3RBI0I35XEP26UEZY8S8UZLEA1IY3E","","null","<img src=""img/land5.png"" style=""width:200px; border:14px solid green;"">","null","","","","","","","","","",""
"","image-keyboard-response","156","113401","0.0-156.0","3WQQ9FUS6BGUG3PORZEM2ORCDW88B6","A2AZYU1CT24O0K","3RBI0I35XEP26UEZY8S8UZLEA1IY3E","","417.5","img/land5.png","76","417.90000000596046","3","1","1","2","0.8,0.2,0.2,0.2,0.8,0.2,0.2,0.2,0.8","0.2,0.2,0.8,0.8,0.2,0.2,0.2,0.8,0.2","2","",""
"","html-keyboard-response","157","113713","0.0-157.0","3WQQ9FUS6BGUG3PORZEM2ORCDW88B6","A2AZYU1CT24O0K","3RBI0I35XEP26UEZY8S8UZLEA1IY3E","","null","<img src=""img/land5.png"" style=""width:200px; border:14px solid green;"">","null","","","","","","","","","",""
"","image-keyboard-response","158","114601","0.0-158.0","3WQQ9FUS6BGUG3PORZEM2ORCDW88B6","A2AZYU1CT24O0K","3RBI0I35XEP26UEZY8S8UZLEA1IY3E","","888","img/land2.png","74","888.2000000029802","1","0","3","2","0.8,0.2,0.2,0.2,0.8,0.2,0.2,0.2,0.8","0.2,0.2,0.8,0.8,0.2,0.2,0.2,0.8,0.2","2","",""
"","html-keyboard-response","159","114903","0.0-159.0","3WQQ9FUS6BGUG3PORZEM2ORCDW88B6","A2AZYU1CT24O0K","3RBI0I35XEP26UEZY8S8UZLEA1IY3E","","null","<img src=""img/land2.png"" style=""width:200px;border:14px solid red;"">","null","","","","","","","","","",""
"","image-keyboard-response","160","115618","0.0-160.0","3WQQ9FUS6BGUG3PORZEM2ORCDW88B6","A2AZYU1CT24O0K","3RBI0I35XEP26UEZY8S8UZLEA1IY3E","","715.2999999970198","img/land2.png","75","715.5","2","1","3","2","0.8,0.2,0.2,0.2,0.8,0.2,0.2,0.2,0.8","0.2,0.2,0.8,0.8,0.2,0.2,0.2,0.8,0.2","2","",""
"","html-keyboard-response","161","115920","0.0-161.0","3WQQ9FUS6BGUG3PORZEM2ORCDW88B6","A2AZYU1CT24O0K","3RBI0I35XEP26UEZY8S8UZLEA1IY3E","","null","<img src=""img/land2.png"" style=""width:200px; border:14px solid green;"">","null","","","","","","","","","",""
"","image-keyboard-response","162","116537","0.0-162.0","3WQQ9FUS6BGUG3PORZEM2ORCDW88B6","A2AZYU1CT24O0K","3RBI0I35XEP26UEZY8S8UZLEA1IY3E","","617","img/land5.png","76","617.2000000029802","3","0","1","2","0.8,0.2,0.2,0.2,0.8,0.2,0.2,0.2,0.8","0.2,0.2,0.8,0.8,0.2,0.2,0.2,0.8,0.2","2","",""
"","html-keyboard-response","163","116838","0.0-163.0","3WQQ9FUS6BGUG3PORZEM2ORCDW88B6","A2AZYU1CT24O0K","3RBI0I35XEP26UEZY8S8UZLEA1IY3E","","null","<img src=""img/land5.png"" style=""width:200px;border:14px solid red;"">","null","","","","","","","","","",""
"","image-keyboard-response","164","117465","0.0-164.0","3WQQ9FUS6BGUG3PORZEM2ORCDW88B6","A2AZYU1CT24O0K","3RBI0I35XEP26UEZY8S8UZLEA1IY3E","","626.3000000119209","img/land2.png","75","626.5999999940395","2","1","3","2","0.8,0.2,0.2,0.2,0.8,0.2,0.2,0.2,0.8","0.2,0.2,0.8,0.8,0.2,0.2,0.2,0.8,0.2","2","",""
"","html-keyboard-response","165","117767","0.0-165.0","3WQQ9FUS6BGUG3PORZEM2ORCDW88B6","A2AZYU1CT24O0K","3RBI0I35XEP26UEZY8S8UZLEA1IY3E","","null","<img src=""img/land2.png"" style=""width:200px; border:14px solid green;"">","null","","","","","","","","","",""
"","image-keyboard-response","166","118610","0.0-166.0","3WQQ9FUS6BGUG3PORZEM2ORCDW88B6","A2AZYU1CT24O0K","3RBI0I35XEP26UEZY8S8UZLEA1IY3E","","842.6000000089407","img/land4.png","74","842.9000000059605","1","0","2","2","0.8,0.2,0.2,0.2,0.8,0.2,0.2,0.2,0.8","0.2,0.2,0.8,0.8,0.2,0.2,0.2,0.8,0.2","2","",""
"","html-keyboard-response","167","118911","0.0-167.0","3WQQ9FUS6BGUG3PORZEM2ORCDW88B6","A2AZYU1CT24O0K","3RBI0I35XEP26UEZY8S8UZLEA1IY3E","","null","<img src=""img/land4.png"" style=""width:200px;border:14px solid red;"">","null","","","","","","","","","",""
"","image-keyboard-response","168","119425","0.0-168.0","3WQQ9FUS6BGUG3PORZEM2ORCDW88B6","A2AZYU1CT24O0K","3RBI0I35XEP26UEZY8S8UZLEA1IY3E","","514","img/land5.png","76","514.2999999970198","3","1","1","2","0.8,0.2,0.2,0.2,0.8,0.2,0.2,0.2,0.8","0.2,0.2,0.8,0.8,0.2,0.2,0.2,0.8,0.2","2","",""
"","html-keyboard-response","169","119727","0.0-169.0","3WQQ9FUS6BGUG3PORZEM2ORCDW88B6","A2AZYU1CT24O0K","3RBI0I35XEP26UEZY8S8UZLEA1IY3E","","null","<img src=""img/land5.png"" style=""width:200px; border:14px solid green;"">","null","","","","","","","","","",""
"","image-keyboard-response","170","120313","0.0-170.0","3WQQ9FUS6BGUG3PORZEM2ORCDW88B6","A2AZYU1CT24O0K","3RBI0I35XEP26UEZY8S8UZLEA1IY3E","","586.0999999940395","img/land5.png","76","586.5999999940395","3","0","1","2","0.8,0.2,0.2,0.2,0.8,0.2,0.2,0.2,0.8","0.2,0.2,0.8,0.8,0.2,0.2,0.2,0.8,0.2","2","",""
"","html-keyboard-response","171","120614","0.0-171.0","3WQQ9FUS6BGUG3PORZEM2ORCDW88B6","A2AZYU1CT24O0K","3RBI0I35XEP26UEZY8S8UZLEA1IY3E","","null","<img src=""img/land5.png"" style=""width:200px;border:14px solid red;"">","null","","","","","","","","","",""
"","image-keyboard-response","172","121057","0.0-172.0","3WQQ9FUS6BGUG3PORZEM2ORCDW88B6","A2AZYU1CT24O0K","3RBI0I35XEP26UEZY8S8UZLEA1IY3E","","443.29999999701977","img/land5.png","76","443.5","3","1","1","2","0.8,0.2,0.2,0.2,0.8,0.2,0.2,0.2,0.8","0.2,0.2,0.8,0.8,0.2,0.2,0.2,0.8,0.2","2","",""
"","html-keyboard-response","173","121358","0.0-173.0","3WQQ9FUS6BGUG3PORZEM2ORCDW88B6","A2AZYU1CT24O0K","3RBI0I35XEP26UEZY8S8UZLEA1IY3E","","null","<img src=""img/land5.png"" style=""width:200px; border:14px solid green;"">","null","","","","","","","","","",""
"","image-keyboard-response","174","121754","0.0-174.0","3WQQ9FUS6BGUG3PORZEM2ORCDW88B6","A2AZYU1CT24O0K","3RBI0I35XEP26UEZY8S8UZLEA1IY3E","","394.80000001192093","img/land5.png","76","395.1000000089407","3","0","1","2","0.8,0.2,0.2,0.2,0.8,0.2,0.2,0.2,0.8","0.2,0.2,0.8,0.8,0.2,0.2,0.2,0.8,0.2","2","",""
"","html-keyboard-response","175","122054","0.0-175.0","3WQQ9FUS6BGUG3PORZEM2ORCDW88B6","A2AZYU1CT24O0K","3RBI0I35XEP26UEZY8S8UZLEA1IY3E","","null","<img src=""img/land5.png"" style=""width:200px;border:14px solid red;"">","null","","","","","","","","","",""
"","image-keyboard-response","176","123233","0.0-176.0","3WQQ9FUS6BGUG3PORZEM2ORCDW88B6","A2AZYU1CT24O0K","3RBI0I35XEP26UEZY8S8UZLEA1IY3E","","1178.4000000059605","img/land4.png","74","1178.7999999970198","1","1","2","2","0.8,0.2,0.2,0.2,0.8,0.2,0.2,0.2,0.8","0.2,0.2,0.8,0.8,0.2,0.2,0.2,0.8,0.2","2","",""
"","html-keyboard-response","177","123534","0.0-177.0","3WQQ9FUS6BGUG3PORZEM2ORCDW88B6","A2AZYU1CT24O0K","3RBI0I35XEP26UEZY8S8UZLEA1IY3E","","null","<img src=""img/land4.png"" style=""width:200px; border:14px solid green;"">","null","","","","","","","","","",""
"","image-keyboard-response","178","124114","0.0-178.0","3WQQ9FUS6BGUG3PORZEM2ORCDW88B6","A2AZYU1CT24O0K","3RBI0I35XEP26UEZY8S8UZLEA1IY3E","","579.5999999940395","img/land5.png","76","580","3","1","1","2","0.8,0.2,0.2,0.2,0.8,0.2,0.2,0.2,0.8","0.2,0.2,0.8,0.8,0.2,0.2,0.2,0.8,0.2","2","",""
"","html-keyboard-response","179","124415","0.0-179.0","3WQQ9FUS6BGUG3PORZEM2ORCDW88B6","A2AZYU1CT24O0K","3RBI0I35XEP26UEZY8S8UZLEA1IY3E","","null","<img src=""img/land5.png"" style=""width:200px; border:14px solid green;"">","null","","","","","","","","","",""
"","image-keyboard-response","180","124857","0.0-180.0","3WQQ9FUS6BGUG3PORZEM2ORCDW88B6","A2AZYU1CT24O0K","3RBI0I35XEP26UEZY8S8UZLEA1IY3E","","442.09999999403954","img/land5.png","76","442.40000000596046","3","1","1","2","0.8,0.2,0.2,0.2,0.8,0.2,0.2,0.2,0.8","0.2,0.2,0.8,0.8,0.2,0.2,0.2,0.8,0.2","2","",""
"","html-keyboard-response","181","125159","0.0-181.0","3WQQ9FUS6BGUG3PORZEM2ORCDW88B6","A2AZYU1CT24O0K","3RBI0I35XEP26UEZY8S8UZLEA1IY3E","","null","<img src=""img/land5.png"" style=""width:200px; border:14px solid green;"">","null","","","","","","","","","",""
"","image-keyboard-response","182","125626","0.0-182.0","3WQQ9FUS6BGUG3PORZEM2ORCDW88B6","A2AZYU1CT24O0K","3RBI0I35XEP26UEZY8S8UZLEA1IY3E","","466.8999999910593","img/land5.png","76","467.20000000298023","3","1","1","2","0.8,0.2,0.2,0.2,0.8,0.2,0.2,0.2,0.8","0.2,0.2,0.8,0.8,0.2,0.2,0.2,0.8,0.2","2","",""
"","html-keyboard-response","183","125933","0.0-183.0","3WQQ9FUS6BGUG3PORZEM2ORCDW88B6","A2AZYU1CT24O0K","3RBI0I35XEP26UEZY8S8UZLEA1IY3E","","null","<img src=""img/land5.png"" style=""width:200px; border:14px solid green;"">","null","","","","","","","","","",""
"","image-keyboard-response","184","126289","0.0-184.0","3WQQ9FUS6BGUG3PORZEM2ORCDW88B6","A2AZYU1CT24O0K","3RBI0I35XEP26UEZY8S8UZLEA1IY3E","","355.5","img/land5.png","76","355.79999999701977","3","1","1","2","0.8,0.2,0.2,0.2,0.8,0.2,0.2,0.2,0.8","0.2,0.2,0.8,0.8,0.2,0.2,0.2,0.8,0.2","2","",""
"","html-keyboard-response","185","126591","0.0-185.0","3WQQ9FUS6BGUG3PORZEM2ORCDW88B6","A2AZYU1CT24O0K","3RBI0I35XEP26UEZY8S8UZLEA1IY3E","","null","<img src=""img/land5.png"" style=""width:200px; border:14px solid green;"">","null","","","","","","","","","",""
"","image-keyboard-response","186","126930","0.0-186.0","3WQQ9FUS6BGUG3PORZEM2ORCDW88B6","A2AZYU1CT24O0K","3RBI0I35XEP26UEZY8S8UZLEA1IY3E","","338.3999999910593","img/land5.png","76","338.70000000298023","3","1","1","2","0.8,0.2,0.2,0.2,0.8,0.2,0.2,0.2,0.8","0.2,0.2,0.8,0.8,0.2,0.2,0.2,0.8,0.2","2","",""
"","html-keyboard-response","187","127231","0.0-187.0","3WQQ9FUS6BGUG3PORZEM2ORCDW88B6","A2AZYU1CT24O0K","3RBI0I35XEP26UEZY8S8UZLEA1IY3E","","null","<img src=""img/land5.png"" style=""width:200px; border:14px solid green;"">","null","","","","","","","","","",""
"","image-keyboard-response","188","127546","0.0-188.0","3WQQ9FUS6BGUG3PORZEM2ORCDW88B6","A2AZYU1CT24O0K","3RBI0I35XEP26UEZY8S8UZLEA1IY3E","","313.8999999910593","img/land5.png","76","314.30000001192093","3","1","1","2","0.8,0.2,0.2,0.2,0.8,0.2,0.2,0.2,0.8","0.2,0.2,0.8,0.8,0.2,0.2,0.2,0.8,0.2","2","",""
"","html-keyboard-response","189","127847","0.0-189.0","3WQQ9FUS6BGUG3PORZEM2ORCDW88B6","A2AZYU1CT24O0K","3RBI0I35XEP26UEZY8S8UZLEA1IY3E","","null","<img src=""img/land5.png"" style=""width:200px; border:14px solid green;"">","null","","","","","","","","","",""
"","image-keyboard-response","190","128177","0.0-190.0","3WQQ9FUS6BGUG3PORZEM2ORCDW88B6","A2AZYU1CT24O0K","3RBI0I35XEP26UEZY8S8UZLEA1IY3E","","330.3999999910593","img/land5.png","76","330.79999999701977","3","1","1","2","0.8,0.2,0.2,0.2,0.8,0.2,0.2,0.2,0.8","0.2,0.2,0.8,0.8,0.2,0.2,0.2,0.8,0.2","2","",""
"","html-keyboard-response","191","128478","0.0-191.0","3WQQ9FUS6BGUG3PORZEM2ORCDW88B6","A2AZYU1CT24O0K","3RBI0I35XEP26UEZY8S8UZLEA1IY3E","","null","<img src=""img/land5.png"" style=""width:200px; border:14px solid green;"">","null","","","","","","","","","",""
"","image-keyboard-response","192","128841","0.0-192.0","3WQQ9FUS6BGUG3PORZEM2ORCDW88B6","A2AZYU1CT24O0K","3RBI0I35XEP26UEZY8S8UZLEA1IY3E","","362.80000001192093","img/land5.png","76","363.09999999403954","3","1","1","2","0.8,0.2,0.2,0.2,0.8,0.2,0.2,0.2,0.8","0.2,0.2,0.8,0.8,0.2,0.2,0.2,0.8,0.2","2","",""
"","html-keyboard-response","193","129142","0.0-193.0","3WQQ9FUS6BGUG3PORZEM2ORCDW88B6","A2AZYU1CT24O0K","3RBI0I35XEP26UEZY8S8UZLEA1IY3E","","null","<img src=""img/land5.png"" style=""width:200px; border:14px solid green;"">","null","","","","","","","","","",""
"","image-keyboard-response","194","129777","0.0-194.0","3WQQ9FUS6BGUG3PORZEM2ORCDW88B6","A2AZYU1CT24O0K","3RBI0I35XEP26UEZY8S8UZLEA1IY3E","","635","img/land2.png","75","635.3000000119209","2","1","3","2","0.8,0.2,0.2,0.2,0.8,0.2,0.2,0.2,0.8","0.2,0.2,0.8,0.8,0.2,0.2,0.2,0.8,0.2","2","",""
"","html-keyboard-response","195","130078","0.0-195.0","3WQQ9FUS6BGUG3PORZEM2ORCDW88B6","A2AZYU1CT24O0K","3RBI0I35XEP26UEZY8S8UZLEA1IY3E","","null","<img src=""img/land2.png"" style=""width:200px; border:14px solid green;"">","null","","","","","","","","","",""
"","image-keyboard-response","196","130873","0.0-196.0","3WQQ9FUS6BGUG3PORZEM2ORCDW88B6","A2AZYU1CT24O0K","3RBI0I35XEP26UEZY8S8UZLEA1IY3E","","794.7999999970198","img/land4.png","74","795.2000000029802","1","1","2","2","0.8,0.2,0.2,0.2,0.8,0.2,0.2,0.2,0.8","0.2,0.2,0.8,0.8,0.2,0.2,0.2,0.8,0.2","2","",""
"","html-keyboard-response","197","131174","0.0-197.0","3WQQ9FUS6BGUG3PORZEM2ORCDW88B6","A2AZYU1CT24O0K","3RBI0I35XEP26UEZY8S8UZLEA1IY3E","","null","<img src=""img/land4.png"" style=""width:200px; border:14px solid green;"">","null","","","","","","","","","",""
"","image-keyboard-response","198","131641","0.0-198.0","3WQQ9FUS6BGUG3PORZEM2ORCDW88B6","A2AZYU1CT24O0K","3RBI0I35XEP26UEZY8S8UZLEA1IY3E","","466.59999999403954","img/land4.png","74","466.8999999910593","1","1","2","2","0.8,0.2,0.2,0.2,0.8,0.2,0.2,0.2,0.8","0.2,0.2,0.8,0.8,0.2,0.2,0.2,0.8,0.2","2","",""
"","html-keyboard-response","199","131943","0.0-199.0","3WQQ9FUS6BGUG3PORZEM2ORCDW88B6","A2AZYU1CT24O0K","3RBI0I35XEP26UEZY8S8UZLEA1IY3E","","null","<img src=""img/land4.png"" style=""width:200px; border:14px solid green;"">","null","","","","","","","","","",""
"","image-keyboard-response","200","132434","0.0-200.0","3WQQ9FUS6BGUG3PORZEM2ORCDW88B6","A2AZYU1CT24O0K","3RBI0I35XEP26UEZY8S8UZLEA1IY3E","","490.70000000298023","img/land5.png","76","490.90000000596046","3","1","1","2","0.8,0.2,0.2,0.2,0.8,0.2,0.2,0.2,0.8","0.2,0.2,0.8,0.8,0.2,0.2,0.2,0.8,0.2","2","",""
"","html-keyboard-response","201","132736","0.0-201.0","3WQQ9FUS6BGUG3PORZEM2ORCDW88B6","A2AZYU1CT24O0K","3RBI0I35XEP26UEZY8S8UZLEA1IY3E","","null","<img src=""img/land5.png"" style=""width:200px; border:14px solid green;"">","null","","","","","","","","","",""
"","image-keyboard-response","202","133154","0.0-202.0","3WQQ9FUS6BGUG3PORZEM2ORCDW88B6","A2AZYU1CT24O0K","3RBI0I35XEP26UEZY8S8UZLEA1IY3E","","417.8999999910593","img/land5.png","76","418.20000000298023","3","0","1","2","0.8,0.2,0.2,0.2,0.8,0.2,0.2,0.2,0.8","0.2,0.2,0.8,0.8,0.2,0.2,0.2,0.8,0.2","2","",""
"","html-keyboard-response","203","133454","0.0-203.0","3WQQ9FUS6BGUG3PORZEM2ORCDW88B6","A2AZYU1CT24O0K","3RBI0I35XEP26UEZY8S8UZLEA1IY3E","","null","<img src=""img/land5.png"" style=""width:200px;border:14px solid red;"">","null","","","","","","","","","",""
"","image-keyboard-response","204","134433","0.0-204.0","3WQQ9FUS6BGUG3PORZEM2ORCDW88B6","A2AZYU1CT24O0K","3RBI0I35XEP26UEZY8S8UZLEA1IY3E","","978.2000000029802","img/land4.png","74","978.5999999940395","1","1","2","2","0.8,0.2,0.2,0.2,0.8,0.2,0.2,0.2,0.8","0.2,0.2,0.8,0.8,0.2,0.2,0.2,0.8,0.2","2","",""
"","html-keyboard-response","205","134734","0.0-205.0","3WQQ9FUS6BGUG3PORZEM2ORCDW88B6","A2AZYU1CT24O0K","3RBI0I35XEP26UEZY8S8UZLEA1IY3E","","null","<img src=""img/land4.png"" style=""width:200px; border:14px solid green;"">","null","","","","","","","","","",""
"","image-keyboard-response","206","135146","0.0-206.0","3WQQ9FUS6BGUG3PORZEM2ORCDW88B6","A2AZYU1CT24O0K","3RBI0I35XEP26UEZY8S8UZLEA1IY3E","","411","img/land4.png","74","411.40000000596046","1","0","2","2","0.8,0.2,0.2,0.2,0.8,0.2,0.2,0.2,0.8","0.2,0.2,0.8,0.8,0.2,0.2,0.2,0.8,0.2","2","",""
"","html-keyboard-response","207","135447","0.0-207.0","3WQQ9FUS6BGUG3PORZEM2ORCDW88B6","A2AZYU1CT24O0K","3RBI0I35XEP26UEZY8S8UZLEA1IY3E","","null","<img src=""img/land4.png"" style=""width:200px;border:14px solid red;"">","null","","","","","","","","","",""
"","image-keyboard-response","208","135817","0.0-208.0","3WQQ9FUS6BGUG3PORZEM2ORCDW88B6","A2AZYU1CT24O0K","3RBI0I35XEP26UEZY8S8UZLEA1IY3E","","370.29999999701977","img/land4.png","74","370.70000000298023","1","1","2","2","0.8,0.2,0.2,0.2,0.8,0.2,0.2,0.2,0.8","0.2,0.2,0.8,0.8,0.2,0.2,0.2,0.8,0.2","2","",""
"","html-keyboard-response","209","136119","0.0-209.0","3WQQ9FUS6BGUG3PORZEM2ORCDW88B6","A2AZYU1CT24O0K","3RBI0I35XEP26UEZY8S8UZLEA1IY3E","","null","<img src=""img/land4.png"" style=""width:200px; border:14px solid green;"">","null","","","","","","","","","",""
"","image-keyboard-response","210","136681","0.0-210.0","3WQQ9FUS6BGUG3PORZEM2ORCDW88B6","A2AZYU1CT24O0K","3RBI0I35XEP26UEZY8S8UZLEA1IY3E","","562.5","img/land5.png","76","562.7999999970198","3","1","1","2","0.8,0.2,0.2,0.2,0.8,0.2,0.2,0.2,0.8","0.2,0.2,0.8,0.8,0.2,0.2,0.2,0.8,0.2","2","",""
"","html-keyboard-response","211","136983","0.0-211.0","3WQQ9FUS6BGUG3PORZEM2ORCDW88B6","A2AZYU1CT24O0K","3RBI0I35XEP26UEZY8S8UZLEA1IY3E","","null","<img src=""img/land5.png"" style=""width:200px; border:14px solid green;"">","null","","","","","","","","","",""
"","image-keyboard-response","212","137401","0.0-212.0","3WQQ9FUS6BGUG3PORZEM2ORCDW88B6","A2AZYU1CT24O0K","3RBI0I35XEP26UEZY8S8UZLEA1IY3E","","417.80000001192093","img/land5.png","76","418","3","1","1","2","0.8,0.2,0.2,0.2,0.8,0.2,0.2,0.2,0.8","0.2,0.2,0.8,0.8,0.2,0.2,0.2,0.8,0.2","2","",""
"","html-keyboard-response","213","137702","0.0-213.0","3WQQ9FUS6BGUG3PORZEM2ORCDW88B6","A2AZYU1CT24O0K","3RBI0I35XEP26UEZY8S8UZLEA1IY3E","","null","<img src=""img/land5.png"" style=""width:200px; border:14px solid green;"">","null","","","","","","","","","",""
"","image-keyboard-response","214","138569","0.0-214.0","3WQQ9FUS6BGUG3PORZEM2ORCDW88B6","A2AZYU1CT24O0K","3RBI0I35XEP26UEZY8S8UZLEA1IY3E","","866.8000000119209","img/land2.png","75","867.2000000029802","2","1","3","2","0.8,0.2,0.2,0.2,0.8,0.2,0.2,0.2,0.8","0.2,0.2,0.8,0.8,0.2,0.2,0.2,0.8,0.2","2","",""
"","html-keyboard-response","215","138870","0.0-215.0","3WQQ9FUS6BGUG3PORZEM2ORCDW88B6","A2AZYU1CT24O0K","3RBI0I35XEP26UEZY8S8UZLEA1IY3E","","null","<img src=""img/land2.png"" style=""width:200px; border:14px solid green;"">","null","","","","","","","","","",""
"","image-keyboard-response","216","139385","0.0-216.0","3WQQ9FUS6BGUG3PORZEM2ORCDW88B6","A2AZYU1CT24O0K","3RBI0I35XEP26UEZY8S8UZLEA1IY3E","","514.3000000119209","img/land5.png","76","514.5999999940395","3","1","1","2","0.8,0.2,0.2,0.2,0.8,0.2,0.2,0.2,0.8","0.2,0.2,0.8,0.8,0.2,0.2,0.2,0.8,0.2","2","",""
"","html-keyboard-response","217","139687","0.0-217.0","3WQQ9FUS6BGUG3PORZEM2ORCDW88B6","A2AZYU1CT24O0K","3RBI0I35XEP26UEZY8S8UZLEA1IY3E","","null","<img src=""img/land5.png"" style=""width:200px; border:14px solid green;"">","null","","","","","","","","","",""
"","image-keyboard-response","218","140401","0.0-218.0","3WQQ9FUS6BGUG3PORZEM2ORCDW88B6","A2AZYU1CT24O0K","3RBI0I35XEP26UEZY8S8UZLEA1IY3E","","714.2000000029802","img/land4.png","74","714.5999999940395","1","1","2","2","0.8,0.2,0.2,0.2,0.8,0.2,0.2,0.2,0.8","0.2,0.2,0.8,0.8,0.2,0.2,0.2,0.8,0.2","2","",""
"","html-keyboard-response","219","140702","0.0-219.0","3WQQ9FUS6BGUG3PORZEM2ORCDW88B6","A2AZYU1CT24O0K","3RBI0I35XEP26UEZY8S8UZLEA1IY3E","","null","<img src=""img/land4.png"" style=""width:200px; border:14px solid green;"">","null","","","","","","","","","",""
"","image-keyboard-response","220","141121","0.0-220.0","3WQQ9FUS6BGUG3PORZEM2ORCDW88B6","A2AZYU1CT24O0K","3RBI0I35XEP26UEZY8S8UZLEA1IY3E","","419.29999999701977","img/land4.png","74","419.5","1","1","2","2","0.8,0.2,0.2,0.2,0.8,0.2,0.2,0.2,0.8","0.2,0.2,0.8,0.8,0.2,0.2,0.2,0.8,0.2","2","",""
"","html-keyboard-response","221","141422","0.0-221.0","3WQQ9FUS6BGUG3PORZEM2ORCDW88B6","A2AZYU1CT24O0K","3RBI0I35XEP26UEZY8S8UZLEA1IY3E","","null","<img src=""img/land4.png"" style=""width:200px; border:14px solid green;"">","null","","","","","","","","","",""
"","image-keyboard-response","222","142153","0.0-222.0","3WQQ9FUS6BGUG3PORZEM2ORCDW88B6","A2AZYU1CT24O0K","3RBI0I35XEP26UEZY8S8UZLEA1IY3E","","730.5","img/land2.png","75","730.8999999910593","2","1","3","2","0.8,0.2,0.2,0.2,0.8,0.2,0.2,0.2,0.8","0.2,0.2,0.8,0.8,0.2,0.2,0.2,0.8,0.2","2","",""
"","html-keyboard-response","223","142455","0.0-223.0","3WQQ9FUS6BGUG3PORZEM2ORCDW88B6","A2AZYU1CT24O0K","3RBI0I35XEP26UEZY8S8UZLEA1IY3E","","null","<img src=""img/land2.png"" style=""width:200px; border:14px solid green;"">","null","","","","","","","","","",""
"","image-keyboard-response","224","142969","0.0-224.0","3WQQ9FUS6BGUG3PORZEM2ORCDW88B6","A2AZYU1CT24O0K","3RBI0I35XEP26UEZY8S8UZLEA1IY3E","","513.8999999910593","img/land5.png","76","514.4000000059605","3","1","1","2","0.8,0.2,0.2,0.2,0.8,0.2,0.2,0.2,0.8","0.2,0.2,0.8,0.8,0.2,0.2,0.2,0.8,0.2","2","",""
"","html-keyboard-response","225","143270","0.0-225.0","3WQQ9FUS6BGUG3PORZEM2ORCDW88B6","A2AZYU1CT24O0K","3RBI0I35XEP26UEZY8S8UZLEA1IY3E","","null","<img src=""img/land5.png"" style=""width:200px; border:14px solid green;"">","null","","","","","","","","","",""
"","image-keyboard-response","226","143769","0.0-226.0","3WQQ9FUS6BGUG3PORZEM2ORCDW88B6","A2AZYU1CT24O0K","3RBI0I35XEP26UEZY8S8UZLEA1IY3E","","499.09999999403954","img/land5.png","76","499.30000001192093","3","1","1","2","0.8,0.2,0.2,0.2,0.8,0.2,0.2,0.2,0.8","0.2,0.2,0.8,0.8,0.2,0.2,0.2,0.8,0.2","2","",""
"","html-keyboard-response","227","144071","0.0-227.0","3WQQ9FUS6BGUG3PORZEM2ORCDW88B6","A2AZYU1CT24O0K","3RBI0I35XEP26UEZY8S8UZLEA1IY3E","","null","<img src=""img/land5.png"" style=""width:200px; border:14px solid green;"">","null","","","","","","","","","",""
"","image-keyboard-response","228","144505","0.0-228.0","3WQQ9FUS6BGUG3PORZEM2ORCDW88B6","A2AZYU1CT24O0K","3RBI0I35XEP26UEZY8S8UZLEA1IY3E","","434.29999999701977","img/land5.png","76","434.79999999701977","3","1","1","2","0.8,0.2,0.2,0.2,0.8,0.2,0.2,0.2,0.8","0.2,0.2,0.8,0.8,0.2,0.2,0.2,0.8,0.2","2","",""
"","html-keyboard-response","229","144806","0.0-229.0","3WQQ9FUS6BGUG3PORZEM2ORCDW88B6","A2AZYU1CT24O0K","3RBI0I35XEP26UEZY8S8UZLEA1IY3E","","null","<img src=""img/land5.png"" style=""width:200px; border:14px solid green;"">","null","","","","","","","","","",""
"","image-keyboard-response","230","145433","0.0-230.0","3WQQ9FUS6BGUG3PORZEM2ORCDW88B6","A2AZYU1CT24O0K","3RBI0I35XEP26UEZY8S8UZLEA1IY3E","","626.4000000059605","img/land2.png","75","626.9000000059605","2","1","3","2","0.8,0.2,0.2,0.2,0.8,0.2,0.2,0.2,0.8","0.2,0.2,0.8,0.8,0.2,0.2,0.2,0.8,0.2","2","",""
"","html-keyboard-response","231","145735","0.0-231.0","3WQQ9FUS6BGUG3PORZEM2ORCDW88B6","A2AZYU1CT24O0K","3RBI0I35XEP26UEZY8S8UZLEA1IY3E","","null","<img src=""img/land2.png"" style=""width:200px; border:14px solid green;"">","null","","","","","","","","","",""
"","image-keyboard-response","232","146313","0.0-232.0","3WQQ9FUS6BGUG3PORZEM2ORCDW88B6","A2AZYU1CT24O0K","3RBI0I35XEP26UEZY8S8UZLEA1IY3E","","578.5","img/land2.png","75","578.9000000059605","2","0","3","2","0.8,0.2,0.2,0.2,0.8,0.2,0.2,0.2,0.8","0.2,0.2,0.8,0.8,0.2,0.2,0.2,0.8,0.2","2","",""
"","html-keyboard-response","233","146614","0.0-233.0","3WQQ9FUS6BGUG3PORZEM2ORCDW88B6","A2AZYU1CT24O0K","3RBI0I35XEP26UEZY8S8UZLEA1IY3E","","null","<img src=""img/land2.png"" style=""width:200px;border:14px solid red;"">","null","","","","","","","","","",""
"","image-keyboard-response","234","147266","0.0-234.0","3WQQ9FUS6BGUG3PORZEM2ORCDW88B6","A2AZYU1CT24O0K","3RBI0I35XEP26UEZY8S8UZLEA1IY3E","","651.2000000029802","img/land4.png","76","651.5","3","0","2","2","0.8,0.2,0.2,0.2,0.8,0.2,0.2,0.2,0.8","0.2,0.2,0.8,0.8,0.2,0.2,0.2,0.8,0.2","2","",""
"","html-keyboard-response","235","147567","0.0-235.0","3WQQ9FUS6BGUG3PORZEM2ORCDW88B6","A2AZYU1CT24O0K","3RBI0I35XEP26UEZY8S8UZLEA1IY3E","","null","<img src=""img/land4.png"" style=""width:200px;border:14px solid red;"">","null","","","","","","","","","",""
"","image-keyboard-response","236","148153","0.0-236.0","3WQQ9FUS6BGUG3PORZEM2ORCDW88B6","A2AZYU1CT24O0K","3RBI0I35XEP26UEZY8S8UZLEA1IY3E","","586.3999999910593","img/land5.png","76","586.7000000029802","3","1","1","2","0.8,0.2,0.2,0.2,0.8,0.2,0.2,0.2,0.8","0.2,0.2,0.8,0.8,0.2,0.2,0.2,0.8,0.2","2","",""
"","html-keyboard-response","237","148455","0.0-237.0","3WQQ9FUS6BGUG3PORZEM2ORCDW88B6","A2AZYU1CT24O0K","3RBI0I35XEP26UEZY8S8UZLEA1IY3E","","null","<img src=""img/land5.png"" style=""width:200px; border:14px solid green;"">","null","","","","","","","","","",""
"","image-keyboard-response","238","148889","0.0-238.0","3WQQ9FUS6BGUG3PORZEM2ORCDW88B6","A2AZYU1CT24O0K","3RBI0I35XEP26UEZY8S8UZLEA1IY3E","","434.19999998807907","img/land5.png","76","434.3999999910593","3","1","1","2","0.8,0.2,0.2,0.2,0.8,0.2,0.2,0.2,0.8","0.2,0.2,0.8,0.8,0.2,0.2,0.2,0.8,0.2","2","",""
"","html-keyboard-response","239","149190","0.0-239.0","3WQQ9FUS6BGUG3PORZEM2ORCDW88B6","A2AZYU1CT24O0K","3RBI0I35XEP26UEZY8S8UZLEA1IY3E","","null","<img src=""img/land5.png"" style=""width:200px; border:14px solid green;"">","null","","","","","","","","","",""
"","image-keyboard-response","240","149594","0.0-240.0","3WQQ9FUS6BGUG3PORZEM2ORCDW88B6","A2AZYU1CT24O0K","3RBI0I35XEP26UEZY8S8UZLEA1IY3E","","402.70000000298023","img/land5.png","76","403.09999999403954","3","1","1","2","0.8,0.2,0.2,0.2,0.8,0.2,0.2,0.2,0.8","0.2,0.2,0.8,0.8,0.2,0.2,0.2,0.8,0.2","2","",""
"","html-keyboard-response","241","149895","0.0-241.0","3WQQ9FUS6BGUG3PORZEM2ORCDW88B6","A2AZYU1CT24O0K","3RBI0I35XEP26UEZY8S8UZLEA1IY3E","","null","<img src=""img/land5.png"" style=""width:200px; border:14px solid green;"">","null","","","","","","","","","",""
"","image-keyboard-response","242","150625","0.0-242.0","3WQQ9FUS6BGUG3PORZEM2ORCDW88B6","A2AZYU1CT24O0K","3RBI0I35XEP26UEZY8S8UZLEA1IY3E","","729.5","img/land2.png","75","729.7000000029802","2","0","3","2","0.8,0.2,0.2,0.2,0.8,0.2,0.2,0.2,0.8","0.2,0.2,0.8,0.8,0.2,0.2,0.2,0.8,0.2","2","",""
"","html-keyboard-response","243","150926","0.0-243.0","3WQQ9FUS6BGUG3PORZEM2ORCDW88B6","A2AZYU1CT24O0K","3RBI0I35XEP26UEZY8S8UZLEA1IY3E","","null","<img src=""img/land2.png"" style=""width:200px;border:14px solid red;"">","null","","","","","","","","","",""
"","image-keyboard-response","244","151441","0.0-244.0","3WQQ9FUS6BGUG3PORZEM2ORCDW88B6","A2AZYU1CT24O0K","3RBI0I35XEP26UEZY8S8UZLEA1IY3E","","515.0999999940395","img/land5.png","76","515.3999999910593","3","0","1","2","0.8,0.2,0.2,0.2,0.8,0.2,0.2,0.2,0.8","0.2,0.2,0.8,0.8,0.2,0.2,0.2,0.8,0.2","2","",""
"","html-keyboard-response","245","151742","0.0-245.0","3WQQ9FUS6BGUG3PORZEM2ORCDW88B6","A2AZYU1CT24O0K","3RBI0I35XEP26UEZY8S8UZLEA1IY3E","","null","<img src=""img/land5.png"" style=""width:200px;border:14px solid red;"">","null","","","","","","","","","",""
"","image-keyboard-response","246","152209","0.0-246.0","3WQQ9FUS6BGUG3PORZEM2ORCDW88B6","A2AZYU1CT24O0K","3RBI0I35XEP26UEZY8S8UZLEA1IY3E","","466.79999999701977","img/land5.png","76","467","3","1","1","2","0.8,0.2,0.2,0.2,0.8,0.2,0.2,0.2,0.8","0.2,0.2,0.8,0.8,0.2,0.2,0.2,0.8,0.2","2","",""
"","html-keyboard-response","247","152511","0.0-247.0","3WQQ9FUS6BGUG3PORZEM2ORCDW88B6","A2AZYU1CT24O0K","3RBI0I35XEP26UEZY8S8UZLEA1IY3E","","null","<img src=""img/land5.png"" style=""width:200px; border:14px solid green;"">","null","","","","","","","","","",""
"","image-keyboard-response","248","152857","0.0-248.0","3WQQ9FUS6BGUG3PORZEM2ORCDW88B6","A2AZYU1CT24O0K","3RBI0I35XEP26UEZY8S8UZLEA1IY3E","","345.69999998807907","img/land5.png","76","346.1000000089407","3","1","1","2","0.8,0.2,0.2,0.2,0.8,0.2,0.2,0.2,0.8","0.2,0.2,0.8,0.8,0.2,0.2,0.2,0.8,0.2","2","",""
"","html-keyboard-response","249","153160","0.0-249.0","3WQQ9FUS6BGUG3PORZEM2ORCDW88B6","A2AZYU1CT24O0K","3RBI0I35XEP26UEZY8S8UZLEA1IY3E","","null","<img src=""img/land5.png"" style=""width:200px; border:14px solid green;"">","null","","","","","","","","","",""
"","image-keyboard-response","250","153513","0.0-250.0","3WQQ9FUS6BGUG3PORZEM2ORCDW88B6","A2AZYU1CT24O0K","3RBI0I35XEP26UEZY8S8UZLEA1IY3E","","353.59999999403954","img/land5.png","76","354","3","1","1","2","0.8,0.2,0.2,0.2,0.8,0.2,0.2,0.2,0.8","0.2,0.2,0.8,0.8,0.2,0.2,0.2,0.8,0.2","2","",""
"","html-keyboard-response","251","153815","0.0-251.0","3WQQ9FUS6BGUG3PORZEM2ORCDW88B6","A2AZYU1CT24O0K","3RBI0I35XEP26UEZY8S8UZLEA1IY3E","","null","<img src=""img/land5.png"" style=""width:200px; border:14px solid green;"">","null","","","","","","","","","",""
"","image-keyboard-response","252","154953","0.0-252.0","3WQQ9FUS6BGUG3PORZEM2ORCDW88B6","A2AZYU1CT24O0K","3RBI0I35XEP26UEZY8S8UZLEA1IY3E","","1138","img/land4.png","74","1138.2999999970198","1","1","2","2","0.8,0.2,0.2,0.2,0.8,0.2,0.2,0.2,0.8","0.2,0.2,0.8,0.8,0.2,0.2,0.2,0.8,0.2","2","",""
"","html-keyboard-response","253","155255","0.0-253.0","3WQQ9FUS6BGUG3PORZEM2ORCDW88B6","A2AZYU1CT24O0K","3RBI0I35XEP26UEZY8S8UZLEA1IY3E","","null","<img src=""img/land4.png"" style=""width:200px; border:14px solid green;"">","null","","","","","","","","","",""
"","image-keyboard-response","254","155890","0.0-254.0","3WQQ9FUS6BGUG3PORZEM2ORCDW88B6","A2AZYU1CT24O0K","3RBI0I35XEP26UEZY8S8UZLEA1IY3E","","634.5999999940395","img/land5.png","76","635.1000000089407","3","0","1","2","0.8,0.2,0.2,0.2,0.8,0.2,0.2,0.2,0.8","0.2,0.2,0.8,0.8,0.2,0.2,0.2,0.8,0.2","2","",""
"","html-keyboard-response","255","156191","0.0-255.0","3WQQ9FUS6BGUG3PORZEM2ORCDW88B6","A2AZYU1CT24O0K","3RBI0I35XEP26UEZY8S8UZLEA1IY3E","","null","<img src=""img/land5.png"" style=""width:200px;border:14px solid red;"">","null","","","","","","","","","",""
"","image-keyboard-response","256","156593","0.0-256.0","3WQQ9FUS6BGUG3PORZEM2ORCDW88B6","A2AZYU1CT24O0K","3RBI0I35XEP26UEZY8S8UZLEA1IY3E","","401.90000000596046","img/land5.png","76","402.29999999701977","3","0","1","2","0.8,0.2,0.2,0.2,0.8,0.2,0.2,0.2,0.8","0.2,0.2,0.8,0.8,0.2,0.2,0.2,0.8,0.2","2","",""
"","html-keyboard-response","257","156894","0.0-257.0","3WQQ9FUS6BGUG3PORZEM2ORCDW88B6","A2AZYU1CT24O0K","3RBI0I35XEP26UEZY8S8UZLEA1IY3E","","null","<img src=""img/land5.png"" style=""width:200px;border:14px solid red;"">","null","","","","","","","","","",""
"","image-keyboard-response","258","157609","0.0-258.0","3WQQ9FUS6BGUG3PORZEM2ORCDW88B6","A2AZYU1CT24O0K","3RBI0I35XEP26UEZY8S8UZLEA1IY3E","","714.3000000119209","img/land2.png","75","714.7999999970198","2","1","3","2","0.8,0.2,0.2,0.2,0.8,0.2,0.2,0.2,0.8","0.2,0.2,0.8,0.8,0.2,0.2,0.2,0.8,0.2","2","",""
"","html-keyboard-response","259","157910","0.0-259.0","3WQQ9FUS6BGUG3PORZEM2ORCDW88B6","A2AZYU1CT24O0K","3RBI0I35XEP26UEZY8S8UZLEA1IY3E","","null","<img src=""img/land2.png"" style=""width:200px; border:14px solid green;"">","null","","","","","","","","","",""
"","image-keyboard-response","260","158426","0.0-260.0","3WQQ9FUS6BGUG3PORZEM2ORCDW88B6","A2AZYU1CT24O0K","3RBI0I35XEP26UEZY8S8UZLEA1IY3E","","514.8999999910593","img/land5.png","76","515.3000000119209","3","1","1","2","0.8,0.2,0.2,0.2,0.8,0.2,0.2,0.2,0.8","0.2,0.2,0.8,0.8,0.2,0.2,0.2,0.8,0.2","2","",""
"","html-keyboard-response","261","158726","0.0-261.0","3WQQ9FUS6BGUG3PORZEM2ORCDW88B6","A2AZYU1CT24O0K","3RBI0I35XEP26UEZY8S8UZLEA1IY3E","","null","<img src=""img/land5.png"" style=""width:200px; border:14px solid green;"">","null","","","","","","","","","",""
"","image-keyboard-response","262","159146","0.0-262.0","3WQQ9FUS6BGUG3PORZEM2ORCDW88B6","A2AZYU1CT24O0K","3RBI0I35XEP26UEZY8S8UZLEA1IY3E","","418.8999999910593","img/land5.png","76","419.29999999701977","3","1","1","2","0.8,0.2,0.2,0.2,0.8,0.2,0.2,0.2,0.8","0.2,0.2,0.8,0.8,0.2,0.2,0.2,0.8,0.2","2","",""
"","html-keyboard-response","263","159447","0.0-263.0","3WQQ9FUS6BGUG3PORZEM2ORCDW88B6","A2AZYU1CT24O0K","3RBI0I35XEP26UEZY8S8UZLEA1IY3E","","null","<img src=""img/land5.png"" style=""width:200px; border:14px solid green;"">","null","","","","","","","","","",""
"","image-keyboard-response","264","159865","0.0-264.0","3WQQ9FUS6BGUG3PORZEM2ORCDW88B6","A2AZYU1CT24O0K","3RBI0I35XEP26UEZY8S8UZLEA1IY3E","","418.19999998807907","img/land5.png","76","418.3999999910593","3","1","1","2","0.8,0.2,0.2,0.2,0.8,0.2,0.2,0.2,0.8","0.2,0.2,0.8,0.8,0.2,0.2,0.2,0.8,0.2","2","",""
"","html-keyboard-response","265","160167","0.0-265.0","3WQQ9FUS6BGUG3PORZEM2ORCDW88B6","A2AZYU1CT24O0K","3RBI0I35XEP26UEZY8S8UZLEA1IY3E","","null","<img src=""img/land5.png"" style=""width:200px; border:14px solid green;"">","null","","","","","","","","","",""
"","image-keyboard-response","266","160545","0.0-266.0","3WQQ9FUS6BGUG3PORZEM2ORCDW88B6","A2AZYU1CT24O0K","3RBI0I35XEP26UEZY8S8UZLEA1IY3E","","378.09999999403954","img/land5.png","76","378.5","3","1","1","2","0.8,0.2,0.2,0.2,0.8,0.2,0.2,0.2,0.8","0.2,0.2,0.8,0.8,0.2,0.2,0.2,0.8,0.2","2","",""
"","html-keyboard-response","267","160846","0.0-267.0","3WQQ9FUS6BGUG3PORZEM2ORCDW88B6","A2AZYU1CT24O0K","3RBI0I35XEP26UEZY8S8UZLEA1IY3E","","null","<img src=""img/land5.png"" style=""width:200px; border:14px solid green;"">","null","","","","","","","","","",""
"","image-keyboard-response","268","161201","0.0-268.0","3WQQ9FUS6BGUG3PORZEM2ORCDW88B6","A2AZYU1CT24O0K","3RBI0I35XEP26UEZY8S8UZLEA1IY3E","","354.79999999701977","img/land5.png","76","355.09999999403954","3","1","1","2","0.8,0.2,0.2,0.2,0.8,0.2,0.2,0.2,0.8","0.2,0.2,0.8,0.8,0.2,0.2,0.2,0.8,0.2","2","",""
"","html-keyboard-response","269","161502","0.0-269.0","3WQQ9FUS6BGUG3PORZEM2ORCDW88B6","A2AZYU1CT24O0K","3RBI0I35XEP26UEZY8S8UZLEA1IY3E","","null","<img src=""img/land5.png"" style=""width:200px; border:14px solid green;"">","null","","","","","","","","","",""
"","image-keyboard-response","270","161865","0.0-270.0","3WQQ9FUS6BGUG3PORZEM2ORCDW88B6","A2AZYU1CT24O0K","3RBI0I35XEP26UEZY8S8UZLEA1IY3E","","362.79999999701977","img/land5.png","76","363.20000000298023","3","1","1","2","0.8,0.2,0.2,0.2,0.8,0.2,0.2,0.2,0.8","0.2,0.2,0.8,0.8,0.2,0.2,0.2,0.8,0.2","2","",""
"","html-keyboard-response","271","162167","0.0-271.0","3WQQ9FUS6BGUG3PORZEM2ORCDW88B6","A2AZYU1CT24O0K","3RBI0I35XEP26UEZY8S8UZLEA1IY3E","","null","<img src=""img/land5.png"" style=""width:200px; border:14px solid green;"">","null","","","","","","","","","",""
"","image-keyboard-response","272","162481","0.0-272.0","3WQQ9FUS6BGUG3PORZEM2ORCDW88B6","A2AZYU1CT24O0K","3RBI0I35XEP26UEZY8S8UZLEA1IY3E","","314.5","img/land5.png","76","314.8999999910593","3","1","1","2","0.8,0.2,0.2,0.2,0.8,0.2,0.2,0.2,0.8","0.2,0.2,0.8,0.8,0.2,0.2,0.2,0.8,0.2","2","",""
"","html-keyboard-response","273","162782","0.0-273.0","3WQQ9FUS6BGUG3PORZEM2ORCDW88B6","A2AZYU1CT24O0K","3RBI0I35XEP26UEZY8S8UZLEA1IY3E","","null","<img src=""img/land5.png"" style=""width:200px; border:14px solid green;"">","null","","","","","","","","","",""
"","image-keyboard-response","274","163617","0.0-274.0","3WQQ9FUS6BGUG3PORZEM2ORCDW88B6","A2AZYU1CT24O0K","3RBI0I35XEP26UEZY8S8UZLEA1IY3E","","834.5","img/land2.png","75","834.7999999970198","2","1","3","2","0.8,0.2,0.2,0.2,0.8,0.2,0.2,0.2,0.8","0.2,0.2,0.8,0.8,0.2,0.2,0.2,0.8,0.2","2","",""
"","html-keyboard-response","275","163918","0.0-275.0","3WQQ9FUS6BGUG3PORZEM2ORCDW88B6","A2AZYU1CT24O0K","3RBI0I35XEP26UEZY8S8UZLEA1IY3E","","null","<img src=""img/land2.png"" style=""width:200px; border:14px solid green;"">","null","","","","","","","","","",""
"","image-keyboard-response","276","164481","0.0-276.0","3WQQ9FUS6BGUG3PORZEM2ORCDW88B6","A2AZYU1CT24O0K","3RBI0I35XEP26UEZY8S8UZLEA1IY3E","","562.6000000089407","img/land5.png","76","562.7999999970198","3","0","1","2","0.8,0.2,0.2,0.2,0.8,0.2,0.2,0.2,0.8","0.2,0.2,0.8,0.8,0.2,0.2,0.2,0.8,0.2","2","",""
"","html-keyboard-response","277","164782","0.0-277.0","3WQQ9FUS6BGUG3PORZEM2ORCDW88B6","A2AZYU1CT24O0K","3RBI0I35XEP26UEZY8S8UZLEA1IY3E","","null","<img src=""img/land5.png"" style=""width:200px;border:14px solid red;"">","null","","","","","","","","","",""
"","image-keyboard-response","278","165137","0.0-278.0","3WQQ9FUS6BGUG3PORZEM2ORCDW88B6","A2AZYU1CT24O0K","3RBI0I35XEP26UEZY8S8UZLEA1IY3E","","354.79999999701977","img/land5.png","76","355.20000000298023","3","0","1","2","0.8,0.2,0.2,0.2,0.8,0.2,0.2,0.2,0.8","0.2,0.2,0.8,0.8,0.2,0.2,0.2,0.8,0.2","2","",""
"","html-keyboard-response","279","165438","0.0-279.0","3WQQ9FUS6BGUG3PORZEM2ORCDW88B6","A2AZYU1CT24O0K","3RBI0I35XEP26UEZY8S8UZLEA1IY3E","","null","<img src=""img/land5.png"" style=""width:200px;border:14px solid red;"">","null","","","","","","","","","",""
"","image-keyboard-response","280","165713","0.0-280.0","3WQQ9FUS6BGUG3PORZEM2ORCDW88B6","A2AZYU1CT24O0K","3RBI0I35XEP26UEZY8S8UZLEA1IY3E","","274.5","img/land5.png","76","274.79999999701977","3","1","1","2","0.8,0.2,0.2,0.2,0.8,0.2,0.2,0.2,0.8","0.2,0.2,0.8,0.8,0.2,0.2,0.2,0.8,0.2","2","",""
"","html-keyboard-response","281","166014","0.0-281.0","3WQQ9FUS6BGUG3PORZEM2ORCDW88B6","A2AZYU1CT24O0K","3RBI0I35XEP26UEZY8S8UZLEA1IY3E","","null","<img src=""img/land5.png"" style=""width:200px; border:14px solid green;"">","null","","","","","","","","","",""
"","image-keyboard-response","282","166313","0.0-282.0","3WQQ9FUS6BGUG3PORZEM2ORCDW88B6","A2AZYU1CT24O0K","3RBI0I35XEP26UEZY8S8UZLEA1IY3E","","299.1000000089407","img/land5.png","76","299.5","3","1","1","2","0.8,0.2,0.2,0.2,0.8,0.2,0.2,0.2,0.8","0.2,0.2,0.8,0.8,0.2,0.2,0.2,0.8,0.2","2","",""
"","html-keyboard-response","283","166615","0.0-283.0","3WQQ9FUS6BGUG3PORZEM2ORCDW88B6","A2AZYU1CT24O0K","3RBI0I35XEP26UEZY8S8UZLEA1IY3E","","null","<img src=""img/land5.png"" style=""width:200px; border:14px solid green;"">","null","","","","","","","","","",""
"","image-keyboard-response","284","167281","0.0-284.0","3WQQ9FUS6BGUG3PORZEM2ORCDW88B6","A2AZYU1CT24O0K","3RBI0I35XEP26UEZY8S8UZLEA1IY3E","","666.3000000119209","img/land2.png","75","666.5","2","1","3","2","0.8,0.2,0.2,0.2,0.8,0.2,0.2,0.2,0.8","0.2,0.2,0.8,0.8,0.2,0.2,0.2,0.8,0.2","2","",""
"","html-keyboard-response","285","167582","0.0-285.0","3WQQ9FUS6BGUG3PORZEM2ORCDW88B6","A2AZYU1CT24O0K","3RBI0I35XEP26UEZY8S8UZLEA1IY3E","","null","<img src=""img/land2.png"" style=""width:200px; border:14px solid green;"">","null","","","","","","","","","",""
"","image-keyboard-response","286","168026","0.0-286.0","3WQQ9FUS6BGUG3PORZEM2ORCDW88B6","A2AZYU1CT24O0K","3RBI0I35XEP26UEZY8S8UZLEA1IY3E","","442.59999999403954","img/land5.png","76","443.09999999403954","3","1","1","2","0.8,0.2,0.2,0.2,0.8,0.2,0.2,0.2,0.8","0.2,0.2,0.8,0.8,0.2,0.2,0.2,0.8,0.2","2","",""
"","html-keyboard-response","287","168326","0.0-287.0","3WQQ9FUS6BGUG3PORZEM2ORCDW88B6","A2AZYU1CT24O0K","3RBI0I35XEP26UEZY8S8UZLEA1IY3E","","null","<img src=""img/land5.png"" style=""width:200px; border:14px solid green;"">","null","","","","","","","","","",""
"","image-keyboard-response","288","168626","0.0-288.0","3WQQ9FUS6BGUG3PORZEM2ORCDW88B6","A2AZYU1CT24O0K","3RBI0I35XEP26UEZY8S8UZLEA1IY3E","","298.79999999701977","img/land5.png","76","299.1000000089407","3","1","1","2","0.8,0.2,0.2,0.2,0.8,0.2,0.2,0.2,0.8","0.2,0.2,0.8,0.8,0.2,0.2,0.2,0.8,0.2","2","",""
"","html-keyboard-response","289","168926","0.0-289.0","3WQQ9FUS6BGUG3PORZEM2ORCDW88B6","A2AZYU1CT24O0K","3RBI0I35XEP26UEZY8S8UZLEA1IY3E","","null","<img src=""img/land5.png"" style=""width:200px; border:14px solid green;"">","null","","","","","","","","","",""
"","image-keyboard-response","290","169457","0.0-290.0","3WQQ9FUS6BGUG3PORZEM2ORCDW88B6","A2AZYU1CT24O0K","3RBI0I35XEP26UEZY8S8UZLEA1IY3E","","530.4000000059605","img/land2.png","75","530.7999999970198","2","1","3","2","0.8,0.2,0.2,0.2,0.8,0.2,0.2,0.2,0.8","0.2,0.2,0.8,0.8,0.2,0.2,0.2,0.8,0.2","2","",""
"","html-keyboard-response","291","169758","0.0-291.0","3WQQ9FUS6BGUG3PORZEM2ORCDW88B6","A2AZYU1CT24O0K","3RBI0I35XEP26UEZY8S8UZLEA1IY3E","","null","<img src=""img/land2.png"" style=""width:200px; border:14px solid green;"">","null","","","","","","","","","",""
"","image-keyboard-response","292","170329","0.0-292.0","3WQQ9FUS6BGUG3PORZEM2ORCDW88B6","A2AZYU1CT24O0K","3RBI0I35XEP26UEZY8S8UZLEA1IY3E","","570.4000000059605","img/land2.png","75","570.7000000029802","2","1","3","2","0.8,0.2,0.2,0.2,0.8,0.2,0.2,0.2,0.8","0.2,0.2,0.8,0.8,0.2,0.2,0.2,0.8,0.2","2","",""
"","html-keyboard-response","293","170631","0.0-293.0","3WQQ9FUS6BGUG3PORZEM2ORCDW88B6","A2AZYU1CT24O0K","3RBI0I35XEP26UEZY8S8UZLEA1IY3E","","null","<img src=""img/land2.png"" style=""width:200px; border:14px solid green;"">","null","","","","","","","","","",""
"","image-keyboard-response","294","170977","0.0-294.0","3WQQ9FUS6BGUG3PORZEM2ORCDW88B6","A2AZYU1CT24O0K","3RBI0I35XEP26UEZY8S8UZLEA1IY3E","","345.59999999403954","img/land2.png","75","346.09999999403954","2","1","3","2","0.8,0.2,0.2,0.2,0.8,0.2,0.2,0.2,0.8","0.2,0.2,0.8,0.8,0.2,0.2,0.2,0.8,0.2","2","",""
"","html-keyboard-response","295","171278","0.0-295.0","3WQQ9FUS6BGUG3PORZEM2ORCDW88B6","A2AZYU1CT24O0K","3RBI0I35XEP26UEZY8S8UZLEA1IY3E","","null","<img src=""img/land2.png"" style=""width:200px; border:14px solid green;"">","null","","","","","","","","","",""
"","image-keyboard-response","296","171777","0.0-296.0","3WQQ9FUS6BGUG3PORZEM2ORCDW88B6","A2AZYU1CT24O0K","3RBI0I35XEP26UEZY8S8UZLEA1IY3E","","498.29999999701977","img/land5.png","76","498.79999999701977","3","1","1","2","0.8,0.2,0.2,0.2,0.8,0.2,0.2,0.2,0.8","0.2,0.2,0.8,0.8,0.2,0.2,0.2,0.8,0.2","2","",""
"","html-keyboard-response","297","172078","0.0-297.0","3WQQ9FUS6BGUG3PORZEM2ORCDW88B6","A2AZYU1CT24O0K","3RBI0I35XEP26UEZY8S8UZLEA1IY3E","","null","<img src=""img/land5.png"" style=""width:200px; border:14px solid green;"">","null","","","","","","","","","",""
"","image-keyboard-response","298","172914","0.0-298.0","3WQQ9FUS6BGUG3PORZEM2ORCDW88B6","A2AZYU1CT24O0K","3RBI0I35XEP26UEZY8S8UZLEA1IY3E","","835.5999999940395","img/land4.png","74","835.8999999910593","1","1","2","2","0.8,0.2,0.2,0.2,0.8,0.2,0.2,0.2,0.8","0.2,0.2,0.8,0.8,0.2,0.2,0.2,0.8,0.2","2","",""
"","html-keyboard-response","299","173215","0.0-299.0","3WQQ9FUS6BGUG3PORZEM2ORCDW88B6","A2AZYU1CT24O0K","3RBI0I35XEP26UEZY8S8UZLEA1IY3E","","null","<img src=""img/land4.png"" style=""width:200px; border:14px solid green;"">","null","","","","","","","","","",""
"","image-keyboard-response","300","173745","0.0-300.0","3WQQ9FUS6BGUG3PORZEM2ORCDW88B6","A2AZYU1CT24O0K","3RBI0I35XEP26UEZY8S8UZLEA1IY3E","","530","img/land5.png","76","530.2999999970198","3","0","1","2","0.8,0.2,0.2,0.2,0.8,0.2,0.2,0.2,0.8","0.2,0.2,0.8,0.8,0.2,0.2,0.2,0.8,0.2","2","",""
"","html-keyboard-response","301","174047","0.0-301.0","3WQQ9FUS6BGUG3PORZEM2ORCDW88B6","A2AZYU1CT24O0K","3RBI0I35XEP26UEZY8S8UZLEA1IY3E","","null","<img src=""img/land5.png"" style=""width:200px;border:14px solid red;"">","null","","","","","","","","","",""
"","image-keyboard-response","302","175089","0.0-302.0","3WQQ9FUS6BGUG3PORZEM2ORCDW88B6","A2AZYU1CT24O0K","3RBI0I35XEP26UEZY8S8UZLEA1IY3E","","1042.1000000089407","img/land3.png","74","1042.4000000059605","1","0","2","1","0.8,0.2,0.2,0.2,0.8,0.2,0.2,0.2,0.8","0.8,0.2,0.2,0.2,0.8,0.2,0.2,0.2,0.8","1","",""
"","html-keyboard-response","303","175390","0.0-303.0","3WQQ9FUS6BGUG3PORZEM2ORCDW88B6","A2AZYU1CT24O0K","3RBI0I35XEP26UEZY8S8UZLEA1IY3E","","null","<img src=""img/land3.png"" style=""width:200px;border:14px solid red;"">","null","","","","","","","","","",""
"","image-keyboard-response","304","176074","0.0-304.0","3WQQ9FUS6BGUG3PORZEM2ORCDW88B6","A2AZYU1CT24O0K","3RBI0I35XEP26UEZY8S8UZLEA1IY3E","","682.9000000059605","img/land3.png","76","683.3000000119209","3","1","2","1","0.8,0.2,0.2,0.2,0.8,0.2,0.2,0.2,0.8","0.8,0.2,0.2,0.2,0.8,0.2,0.2,0.2,0.8","1","",""
"","html-keyboard-response","305","176374","0.0-305.0","3WQQ9FUS6BGUG3PORZEM2ORCDW88B6","A2AZYU1CT24O0K","3RBI0I35XEP26UEZY8S8UZLEA1IY3E","","null","<img src=""img/land3.png"" style=""width:200px; border:14px solid green;"">","null","","","","","","","","","",""
"","image-keyboard-response","306","176777","0.0-306.0","3WQQ9FUS6BGUG3PORZEM2ORCDW88B6","A2AZYU1CT24O0K","3RBI0I35XEP26UEZY8S8UZLEA1IY3E","","402.59999999403954","img/land3.png","76","402.90000000596046","3","1","2","1","0.8,0.2,0.2,0.2,0.8,0.2,0.2,0.2,0.8","0.8,0.2,0.2,0.2,0.8,0.2,0.2,0.2,0.8","1","",""
"","html-keyboard-response","307","177079","0.0-307.0","3WQQ9FUS6BGUG3PORZEM2ORCDW88B6","A2AZYU1CT24O0K","3RBI0I35XEP26UEZY8S8UZLEA1IY3E","","null","<img src=""img/land3.png"" style=""width:200px; border:14px solid green;"">","null","","","","","","","","","",""
"","image-keyboard-response","308","178162","0.0-308.0","3WQQ9FUS6BGUG3PORZEM2ORCDW88B6","A2AZYU1CT24O0K","3RBI0I35XEP26UEZY8S8UZLEA1IY3E","","1082.5","img/land1.png","76","1082.9000000059605","3","1","1","1","0.8,0.2,0.2,0.2,0.8,0.2,0.2,0.2,0.8","0.8,0.2,0.2,0.2,0.8,0.2,0.2,0.2,0.8","1","",""
"","html-keyboard-response","309","178463","0.0-309.0","3WQQ9FUS6BGUG3PORZEM2ORCDW88B6","A2AZYU1CT24O0K","3RBI0I35XEP26UEZY8S8UZLEA1IY3E","","null","<img src=""img/land1.png"" style=""width:200px; border:14px solid green;"">","null","","","","","","","","","",""
"","image-keyboard-response","310","179121","0.0-310.0","3WQQ9FUS6BGUG3PORZEM2ORCDW88B6","A2AZYU1CT24O0K","3RBI0I35XEP26UEZY8S8UZLEA1IY3E","","657.8999999910593","img/land6.png","76","658.2999999970198","3","1","3","1","0.8,0.2,0.2,0.2,0.8,0.2,0.2,0.2,0.8","0.8,0.2,0.2,0.2,0.8,0.2,0.2,0.2,0.8","1","",""
"","html-keyboard-response","311","179422","0.0-311.0","3WQQ9FUS6BGUG3PORZEM2ORCDW88B6","A2AZYU1CT24O0K","3RBI0I35XEP26UEZY8S8UZLEA1IY3E","","null","<img src=""img/land6.png"" style=""width:200px; border:14px solid green;"">","null","","","","","","","","","",""
"","image-keyboard-response","312","179842","0.0-312.0","3WQQ9FUS6BGUG3PORZEM2ORCDW88B6","A2AZYU1CT24O0K","3RBI0I35XEP26UEZY8S8UZLEA1IY3E","","419.8999999910593","img/land6.png","76","420.09999999403954","3","1","3","1","0.8,0.2,0.2,0.2,0.8,0.2,0.2,0.2,0.8","0.8,0.2,0.2,0.2,0.8,0.2,0.2,0.2,0.8","1","",""
"","html-keyboard-response","313","180144","0.0-313.0","3WQQ9FUS6BGUG3PORZEM2ORCDW88B6","A2AZYU1CT24O0K","3RBI0I35XEP26UEZY8S8UZLEA1IY3E","","null","<img src=""img/land6.png"" style=""width:200px; border:14px solid green;"">","null","","","","","","","","","",""
"","image-keyboard-response","314","180473","0.0-314.0","3WQQ9FUS6BGUG3PORZEM2ORCDW88B6","A2AZYU1CT24O0K","3RBI0I35XEP26UEZY8S8UZLEA1IY3E","","328.29999999701977","img/land6.png","76","328.70000000298023","3","1","3","1","0.8,0.2,0.2,0.2,0.8,0.2,0.2,0.2,0.8","0.8,0.2,0.2,0.2,0.8,0.2,0.2,0.2,0.8","1","",""
"","html-keyboard-response","315","180774","0.0-315.0","3WQQ9FUS6BGUG3PORZEM2ORCDW88B6","A2AZYU1CT24O0K","3RBI0I35XEP26UEZY8S8UZLEA1IY3E","","null","<img src=""img/land6.png"" style=""width:200px; border:14px solid green;"">","null","","","","","","","","","",""
"","image-keyboard-response","316","181297","0.0-316.0","3WQQ9FUS6BGUG3PORZEM2ORCDW88B6","A2AZYU1CT24O0K","3RBI0I35XEP26UEZY8S8UZLEA1IY3E","","522.5","img/land1.png","76","522.7000000029802","3","0","1","1","0.8,0.2,0.2,0.2,0.8,0.2,0.2,0.2,0.8","0.8,0.2,0.2,0.2,0.8,0.2,0.2,0.2,0.8","1","",""
"","html-keyboard-response","317","181599","0.0-317.0","3WQQ9FUS6BGUG3PORZEM2ORCDW88B6","A2AZYU1CT24O0K","3RBI0I35XEP26UEZY8S8UZLEA1IY3E","","null","<img src=""img/land1.png"" style=""width:200px;border:14px solid red;"">","null","","","","","","","","","",""
"","image-keyboard-response","318","182321","0.0-318.0","3WQQ9FUS6BGUG3PORZEM2ORCDW88B6","A2AZYU1CT24O0K","3RBI0I35XEP26UEZY8S8UZLEA1IY3E","","722.5999999940395","img/land3.png","76","722.9000000059605","3","0","2","1","0.8,0.2,0.2,0.2,0.8,0.2,0.2,0.2,0.8","0.8,0.2,0.2,0.2,0.8,0.2,0.2,0.2,0.8","1","",""
"","html-keyboard-response","319","182622","0.0-319.0","3WQQ9FUS6BGUG3PORZEM2ORCDW88B6","A2AZYU1CT24O0K","3RBI0I35XEP26UEZY8S8UZLEA1IY3E","","null","<img src=""img/land3.png"" style=""width:200px;border:14px solid red;"">","null","","","","","","","","","",""
"","image-keyboard-response","320","183081","0.0-320.0","3WQQ9FUS6BGUG3PORZEM2ORCDW88B6","A2AZYU1CT24O0K","3RBI0I35XEP26UEZY8S8UZLEA1IY3E","","459","img/land3.png","75","459.29999999701977","2","1","2","1","0.8,0.2,0.2,0.2,0.8,0.2,0.2,0.2,0.8","0.8,0.2,0.2,0.2,0.8,0.2,0.2,0.2,0.8","1","",""
"","html-keyboard-response","321","183383","0.0-321.0","3WQQ9FUS6BGUG3PORZEM2ORCDW88B6","A2AZYU1CT24O0K","3RBI0I35XEP26UEZY8S8UZLEA1IY3E","","null","<img src=""img/land3.png"" style=""width:200px; border:14px solid green;"">","null","","","","","","","","","",""
"","image-keyboard-response","322","183865","0.0-322.0","3WQQ9FUS6BGUG3PORZEM2ORCDW88B6","A2AZYU1CT24O0K","3RBI0I35XEP26UEZY8S8UZLEA1IY3E","","482.40000000596046","img/land3.png","75","482.69999998807907","2","0","2","1","0.8,0.2,0.2,0.2,0.8,0.2,0.2,0.2,0.8","0.8,0.2,0.2,0.2,0.8,0.2,0.2,0.2,0.8","1","",""
"","html-keyboard-response","323","184167","0.0-323.0","3WQQ9FUS6BGUG3PORZEM2ORCDW88B6","A2AZYU1CT24O0K","3RBI0I35XEP26UEZY8S8UZLEA1IY3E","","null","<img src=""img/land3.png"" style=""width:200px;border:14px solid red;"">","null","","","","","","","","","",""
"","image-keyboard-response","324","185153","0.0-324.0","3WQQ9FUS6BGUG3PORZEM2ORCDW88B6","A2AZYU1CT24O0K","3RBI0I35XEP26UEZY8S8UZLEA1IY3E","","986.4000000059605","img/land6.png","74","986.9000000059605","1","0","3","1","0.8,0.2,0.2,0.2,0.8,0.2,0.2,0.2,0.8","0.8,0.2,0.2,0.2,0.8,0.2,0.2,0.2,0.8","1","",""
"","html-keyboard-response","325","185455","0.0-325.0","3WQQ9FUS6BGUG3PORZEM2ORCDW88B6","A2AZYU1CT24O0K","3RBI0I35XEP26UEZY8S8UZLEA1IY3E","","null","<img src=""img/land6.png"" style=""width:200px;border:14px solid red;"">","null","","","","","","","","","",""
"","image-keyboard-response","326","186313","0.0-326.0","3WQQ9FUS6BGUG3PORZEM2ORCDW88B6","A2AZYU1CT24O0K","3RBI0I35XEP26UEZY8S8UZLEA1IY3E","","857.2999999970198","img/land1.png","75","857.6000000089407","2","0","1","1","0.8,0.2,0.2,0.2,0.8,0.2,0.2,0.2,0.8","0.8,0.2,0.2,0.2,0.8,0.2,0.2,0.2,0.8","1","",""
"","html-keyboard-response","327","186614","0.0-327.0","3WQQ9FUS6BGUG3PORZEM2ORCDW88B6","A2AZYU1CT24O0K","3RBI0I35XEP26UEZY8S8UZLEA1IY3E","","null","<img src=""img/land1.png"" style=""width:200px;border:14px solid red;"">","null","","","","","","","","","",""
"","image-keyboard-response","328","187425","0.0-328.0","3WQQ9FUS6BGUG3PORZEM2ORCDW88B6","A2AZYU1CT24O0K","3RBI0I35XEP26UEZY8S8UZLEA1IY3E","","811.0999999940395","img/land6.png","76","811.5","3","1","3","1","0.8,0.2,0.2,0.2,0.8,0.2,0.2,0.2,0.8","0.8,0.2,0.2,0.2,0.8,0.2,0.2,0.2,0.8","1","",""
"","html-keyboard-response","329","187726","0.0-329.0","3WQQ9FUS6BGUG3PORZEM2ORCDW88B6","A2AZYU1CT24O0K","3RBI0I35XEP26UEZY8S8UZLEA1IY3E","","null","<img src=""img/land6.png"" style=""width:200px; border:14px solid green;"">","null","","","","","","","","","",""
"","image-keyboard-response","330","188682","0.0-330.0","3WQQ9FUS6BGUG3PORZEM2ORCDW88B6","A2AZYU1CT24O0K","3RBI0I35XEP26UEZY8S8UZLEA1IY3E","","955","img/land1.png","75","955.5","2","0","1","1","0.8,0.2,0.2,0.2,0.8,0.2,0.2,0.2,0.8","0.8,0.2,0.2,0.2,0.8,0.2,0.2,0.2,0.8","1","",""
"","html-keyboard-response","331","188983","0.0-331.0","3WQQ9FUS6BGUG3PORZEM2ORCDW88B6","A2AZYU1CT24O0K","3RBI0I35XEP26UEZY8S8UZLEA1IY3E","","null","<img src=""img/land1.png"" style=""width:200px;border:14px solid red;"">","null","","","","","","","","","",""
"","image-keyboard-response","332","189345","0.0-332.0","3WQQ9FUS6BGUG3PORZEM2ORCDW88B6","A2AZYU1CT24O0K","3RBI0I35XEP26UEZY8S8UZLEA1IY3E","","362.09999999403954","img/land1.png","75","362.40000000596046","2","0","1","1","0.8,0.2,0.2,0.2,0.8,0.2,0.2,0.2,0.8","0.8,0.2,0.2,0.2,0.8,0.2,0.2,0.2,0.8","1","",""
"","html-keyboard-response","333","189647","0.0-333.0","3WQQ9FUS6BGUG3PORZEM2ORCDW88B6","A2AZYU1CT24O0K","3RBI0I35XEP26UEZY8S8UZLEA1IY3E","","null","<img src=""img/land1.png"" style=""width:200px;border:14px solid red;"">","null","","","","","","","","","",""
"","image-keyboard-response","334","190594","0.0-334.0","3WQQ9FUS6BGUG3PORZEM2ORCDW88B6","A2AZYU1CT24O0K","3RBI0I35XEP26UEZY8S8UZLEA1IY3E","","946.4000000059605","img/land6.png","76","946.7000000029802","3","1","3","1","0.8,0.2,0.2,0.2,0.8,0.2,0.2,0.2,0.8","0.8,0.2,0.2,0.2,0.8,0.2,0.2,0.2,0.8","1","",""
"","html-keyboard-response","335","190895","0.0-335.0","3WQQ9FUS6BGUG3PORZEM2ORCDW88B6","A2AZYU1CT24O0K","3RBI0I35XEP26UEZY8S8UZLEA1IY3E","","null","<img src=""img/land6.png"" style=""width:200px; border:14px solid green;"">","null","","","","","","","","","",""
"","image-keyboard-response","336","191546","0.0-336.0","3WQQ9FUS6BGUG3PORZEM2ORCDW88B6","A2AZYU1CT24O0K","3RBI0I35XEP26UEZY8S8UZLEA1IY3E","","650.5999999940395","img/land1.png","76","651","3","0","1","1","0.8,0.2,0.2,0.2,0.8,0.2,0.2,0.2,0.8","0.8,0.2,0.2,0.2,0.8,0.2,0.2,0.2,0.8","1","",""
"","html-keyboard-response","337","191848","0.0-337.0","3WQQ9FUS6BGUG3PORZEM2ORCDW88B6","A2AZYU1CT24O0K","3RBI0I35XEP26UEZY8S8UZLEA1IY3E","","null","<img src=""img/land1.png"" style=""width:200px;border:14px solid red;"">","null","","","","","","","","","",""
"","image-keyboard-response","338","192546","0.0-338.0","3WQQ9FUS6BGUG3PORZEM2ORCDW88B6","A2AZYU1CT24O0K","3RBI0I35XEP26UEZY8S8UZLEA1IY3E","","697.8000000119209","img/land6.png","75","698.1999999880791","2","0","3","1","0.8,0.2,0.2,0.2,0.8,0.2,0.2,0.2,0.8","0.8,0.2,0.2,0.2,0.8,0.2,0.2,0.2,0.8","1","",""
"","html-keyboard-response","339","192847","0.0-339.0","3WQQ9FUS6BGUG3PORZEM2ORCDW88B6","A2AZYU1CT24O0K","3RBI0I35XEP26UEZY8S8UZLEA1IY3E","","null","<img src=""img/land6.png"" style=""width:200px;border:14px solid red;"">","null","","","","","","","","","",""
"","image-keyboard-response","340","193745","0.0-340.0","3WQQ9FUS6BGUG3PORZEM2ORCDW88B6","A2AZYU1CT24O0K","3RBI0I35XEP26UEZY8S8UZLEA1IY3E","","897.8000000119209","img/land3.png","75","898.2000000029802","2","1","2","1","0.8,0.2,0.2,0.2,0.8,0.2,0.2,0.2,0.8","0.8,0.2,0.2,0.2,0.8,0.2,0.2,0.2,0.8","1","",""
"","html-keyboard-response","341","194046","0.0-341.0","3WQQ9FUS6BGUG3PORZEM2ORCDW88B6","A2AZYU1CT24O0K","3RBI0I35XEP26UEZY8S8UZLEA1IY3E","","null","<img src=""img/land3.png"" style=""width:200px; border:14px solid green;"">","null","","","","","","","","","",""
"","image-keyboard-response","342","194450","0.0-342.0","3WQQ9FUS6BGUG3PORZEM2ORCDW88B6","A2AZYU1CT24O0K","3RBI0I35XEP26UEZY8S8UZLEA1IY3E","","403.40000000596046","img/land3.png","75","403.6000000089407","2","1","2","1","0.8,0.2,0.2,0.2,0.8,0.2,0.2,0.2,0.8","0.8,0.2,0.2,0.2,0.8,0.2,0.2,0.2,0.8","1","",""
"","html-keyboard-response","343","194751","0.0-343.0","3WQQ9FUS6BGUG3PORZEM2ORCDW88B6","A2AZYU1CT24O0K","3RBI0I35XEP26UEZY8S8UZLEA1IY3E","","null","<img src=""img/land3.png"" style=""width:200px; border:14px solid green;"">","null","","","","","","","","","",""
"","image-keyboard-response","344","195081","0.0-344.0","3WQQ9FUS6BGUG3PORZEM2ORCDW88B6","A2AZYU1CT24O0K","3RBI0I35XEP26UEZY8S8UZLEA1IY3E","","330.3999999910593","img/land3.png","75","330.59999999403954","2","1","2","1","0.8,0.2,0.2,0.2,0.8,0.2,0.2,0.2,0.8","0.8,0.2,0.2,0.2,0.8,0.2,0.2,0.2,0.8","1","",""
"","html-keyboard-response","345","195398","0.0-345.0","3WQQ9FUS6BGUG3PORZEM2ORCDW88B6","A2AZYU1CT24O0K","3RBI0I35XEP26UEZY8S8UZLEA1IY3E","","null","<img src=""img/land3.png"" style=""width:200px; border:14px solid green;"">","null","","","","","","","","","",""
"","image-keyboard-response","346","196233","0.0-346.0","3WQQ9FUS6BGUG3PORZEM2ORCDW88B6","A2AZYU1CT24O0K","3RBI0I35XEP26UEZY8S8UZLEA1IY3E","","835.2000000029802","img/land6.png","74","835.4000000059605","1","1","3","1","0.8,0.2,0.2,0.2,0.8,0.2,0.2,0.2,0.8","0.8,0.2,0.2,0.2,0.8,0.2,0.2,0.2,0.8","1","",""
"","html-keyboard-response","347","196534","0.0-347.0","3WQQ9FUS6BGUG3PORZEM2ORCDW88B6","A2AZYU1CT24O0K","3RBI0I35XEP26UEZY8S8UZLEA1IY3E","","null","<img src=""img/land6.png"" style=""width:200px; border:14px solid green;"">","null","","","","","","","","","",""
"","image-keyboard-response","348","197465","0.0-348.0","3WQQ9FUS6BGUG3PORZEM2ORCDW88B6","A2AZYU1CT24O0K","3RBI0I35XEP26UEZY8S8UZLEA1IY3E","","930.7999999970198","img/land1.png","74","931.0999999940395","1","1","1","1","0.8,0.2,0.2,0.2,0.8,0.2,0.2,0.2,0.8","0.8,0.2,0.2,0.2,0.8,0.2,0.2,0.2,0.8","1","",""
"","html-keyboard-response","349","197767","0.0-349.0","3WQQ9FUS6BGUG3PORZEM2ORCDW88B6","A2AZYU1CT24O0K","3RBI0I35XEP26UEZY8S8UZLEA1IY3E","","null","<img src=""img/land1.png"" style=""width:200px; border:14px solid green;"">","null","","","","","","","","","",""
"","image-keyboard-response","350","198234","0.0-350.0","3WQQ9FUS6BGUG3PORZEM2ORCDW88B6","A2AZYU1CT24O0K","3RBI0I35XEP26UEZY8S8UZLEA1IY3E","","466.5","img/land1.png","74","466.90000000596046","1","1","1","1","0.8,0.2,0.2,0.2,0.8,0.2,0.2,0.2,0.8","0.8,0.2,0.2,0.2,0.8,0.2,0.2,0.2,0.8","1","",""
"","html-keyboard-response","351","198535","0.0-351.0","3WQQ9FUS6BGUG3PORZEM2ORCDW88B6","A2AZYU1CT24O0K","3RBI0I35XEP26UEZY8S8UZLEA1IY3E","","null","<img src=""img/land1.png"" style=""width:200px; border:14px solid green;"">","null","","","","","","","","","",""
"","image-keyboard-response","352","198817","0.0-352.0","3WQQ9FUS6BGUG3PORZEM2ORCDW88B6","A2AZYU1CT24O0K","3RBI0I35XEP26UEZY8S8UZLEA1IY3E","","282.3999999910593","img/land1.png","74","282.69999998807907","1","1","1","1","0.8,0.2,0.2,0.2,0.8,0.2,0.2,0.2,0.8","0.8,0.2,0.2,0.2,0.8,0.2,0.2,0.2,0.8","1","",""
"","html-keyboard-response","353","199118","0.0-353.0","3WQQ9FUS6BGUG3PORZEM2ORCDW88B6","A2AZYU1CT24O0K","3RBI0I35XEP26UEZY8S8UZLEA1IY3E","","null","<img src=""img/land1.png"" style=""width:200px; border:14px solid green;"">","null","","","","","","","","","",""
