"success","trial_type","trial_index","time_elapsed","internal_node_id","assignmentID","mturkID","hitID","view_history","rt","stimulus","key_press","reactionTime","a","r","s","cond","reward_cond","reward_cond_actual","reward_matrix_idx","responses","question_order"
"true","fullscreen","0","16296","0.0-0.0","","","","","","","","","","","","","","","","",""
"","instructions","1","53911","0.0-1.0","","","","[{""page_index"":0,""viewing_time"":8241},{""page_index"":1,""viewing_time"":2418.2000002861023},{""page_index"":2,""viewing_time"":3057},{""page_index"":3,""viewing_time"":11481.199999809265},{""page_index"":4,""viewing_time"":2932.5999999046326},{""page_index"":5,""viewing_time"":2466.1000003814697},{""page_index"":6,""viewing_time"":7015.599999904633}]","37612.2000002861","","","","","","","","","","","",""
"","image-keyboard-response","2","55449","0.0-2.0","","","","","1534.0999999046326","img/land1.png","75","1536.6999998092651","2","1","1","2","1,0,0,0.25,0.5,0.25,0.25,0.25,0.5","0,1,0,0.5,0.25,0.25,0.25,0.25,0.5","3","",""
"","html-keyboard-response","3","55753","0.0-3.0","","","","","null","<img src=""img/land1.png"" style=""width:200px; border:14px solid green;"">","null","","","","","","","","","",""
"","image-keyboard-response","4","56752","0.0-4.0","","","","","998","img/land1.png","74","999","1","0","1","2","1,0,0,0.25,0.5,0.25,0.25,0.25,0.5","0,1,0,0.5,0.25,0.25,0.25,0.25,0.5","3","",""
"","html-keyboard-response","5","57054","0.0-5.0","","","","","null","<img src=""img/land1.png"" style=""width:200px;border:14px solid red;"">","null","","","","","","","","","",""
"","image-keyboard-response","6","57714","0.0-6.0","","","","","657.7000002861023","img/land3.png","75","659","2","1","3","2","1,0,0,0.25,0.5,0.25,0.25,0.25,0.5","0,1,0,0.5,0.25,0.25,0.25,0.25,0.5","3","",""
"","html-keyboard-response","7","58016","0.0-7.0","","","","","null","<img src=""img/land3.png"" style=""width:200px; border:14px solid green;"">","null","","","","","","","","","",""
"","image-keyboard-response","8","59365","0.0-8.0","","","","","1347.8000001907349","img/land1.png","75","1348.6999998092651","2","1","1","2","1,0,0,0.25,0.5,0.25,0.25,0.25,0.5","0,1,0,0.5,0.25,0.25,0.25,0.25,0.5","3","",""
"","html-keyboard-response","9","59666","0.0-9.0","","","","","null","<img src=""img/land1.png"" style=""width:200px; border:14px solid green;"">","null","","","","","","","","","",""
"","image-keyboard-response","10","60595","0.0-10.0","","","","","927.5","img/land1.png","74","928.5999999046326","1","0","1","2","1,0,0,0.25,0.5,0.25,0.25,0.25,0.5","0,1,0,0.5,0.25,0.25,0.25,0.25,0.5","3","",""
"","html-keyboard-response","11","60897","0.0-11.0","","","","","null","<img src=""img/land1.png"" style=""width:200px;border:14px solid red;"">","null","","","","","","","","","",""
"","image-keyboard-response","12","62898","0.0-12.0","","","","","","img/land1.png","","2001.5","-1","0","1","2","1,0,0,0.25,0.5,0.25,0.25,0.25,0.5","0,1,0,0.5,0.25,0.25,0.25,0.25,0.5","3","",""
"","html-keyboard-response","13","63203","0.0-13.0","","","","","null","<img src=""img/land1.png"" style=""width:200px;border:14px solid red;"">","null","","","","","","","","","",""
"","image-keyboard-response","14","63796","0.0-14.0","","","","","592.1999998092651","img/land1.png","75","593.1999998092651","2","1","1","2","1,0,0,0.25,0.5,0.25,0.25,0.25,0.5","0,1,0,0.5,0.25,0.25,0.25,0.25,0.5","3","",""
"","html-keyboard-response","15","64099","0.0-15.0","","","","","null","<img src=""img/land1.png"" style=""width:200px; border:14px solid green;"">","null","","","","","","","","","",""
"","image-keyboard-response","16","66101","0.0-16.0","","","","","","img/land3.png","","2001.5","-1","0","3","2","1,0,0,0.25,0.5,0.25,0.25,0.25,0.5","0,1,0,0.5,0.25,0.25,0.25,0.25,0.5","3","",""
"","html-keyboard-response","17","66404","0.0-17.0","","","","","null","<img src=""img/land3.png"" style=""width:200px;border:14px solid red;"">","null","","","","","","","","","",""
"","image-keyboard-response","18","68066","0.0-18.0","","","","","1659.1000003814697","img/land3.png","75","1661.8000001907349","2","0","3","2","1,0,0,0.25,0.5,0.25,0.25,0.25,0.5","0,1,0,0.5,0.25,0.25,0.25,0.25,0.5","3","",""
"","html-keyboard-response","19","68368","0.0-19.0","","","","","null","<img src=""img/land3.png"" style=""width:200px;border:14px solid red;"">","null","","","","","","","","","",""
"","image-keyboard-response","20","69014","0.0-20.0","","","","","644.2000002861023","img/land1.png","75","645.5999999046326","2","1","1","2","1,0,0,0.25,0.5,0.25,0.25,0.25,0.5","0,1,0,0.5,0.25,0.25,0.25,0.25,0.5","3","",""
"","html-keyboard-response","21","69316","0.0-21.0","","","","","null","<img src=""img/land1.png"" style=""width:200px; border:14px solid green;"">","null","","","","","","","","","",""
"","image-keyboard-response","22","71236","0.0-22.0","","","","","1918.4000000953674","img/land1.png","75","1919.4000000953674","2","1","1","2","1,0,0,0.25,0.5,0.25,0.25,0.25,0.5","0,1,0,0.5,0.25,0.25,0.25,0.25,0.5","3","",""
"","html-keyboard-response","23","71538","0.0-23.0","","","","","null","<img src=""img/land1.png"" style=""width:200px; border:14px solid green;"">","null","","","","","","","","","",""
"","image-keyboard-response","24","72317","0.0-24.0","","","","","776.7000002861023","img/land3.png","75","778.6000003814697","2","0","3","2","1,0,0,0.25,0.5,0.25,0.25,0.25,0.5","0,1,0,0.5,0.25,0.25,0.25,0.25,0.5","3","",""
"","html-keyboard-response","25","72618","0.0-25.0","","","","","null","<img src=""img/land3.png"" style=""width:200px;border:14px solid red;"">","null","","","","","","","","","",""
"","image-keyboard-response","26","73420","0.0-26.0","","","","","800.5","img/land3.png","76","801.5","3","0","3","2","1,0,0,0.25,0.5,0.25,0.25,0.25,0.5","0,1,0,0.5,0.25,0.25,0.25,0.25,0.5","3","",""
"","html-keyboard-response","27","73721","0.0-27.0","","","","","null","<img src=""img/land3.png"" style=""width:200px;border:14px solid red;"">","null","","","","","","","","","",""
"","image-keyboard-response","28","74483","0.0-28.0","","","","","761.1999998092651","img/land1.png","76","762.0999999046326","3","0","1","2","1,0,0,0.25,0.5,0.25,0.25,0.25,0.5","0,1,0,0.5,0.25,0.25,0.25,0.25,0.5","3","",""
"","html-keyboard-response","29","74784","0.0-29.0","","","","","null","<img src=""img/land1.png"" style=""width:200px;border:14px solid red;"">","null","","","","","","","","","",""
"","image-keyboard-response","30","75560","0.0-30.0","","","","","774.3000001907349","img/land2.png","74","775.1000003814697","1","1","2","2","1,0,0,0.25,0.5,0.25,0.25,0.25,0.5","0,1,0,0.5,0.25,0.25,0.25,0.25,0.5","3","",""
"","html-keyboard-response","31","75866","0.0-31.0","","","","","null","<img src=""img/land2.png"" style=""width:200px; border:14px solid green;"">","null","","","","","","","","","",""
"","image-keyboard-response","32","76731","0.0-32.0","","","","","834.6999998092651","img/land3.png","74","863.5","1","0","3","2","1,0,0,0.25,0.5,0.25,0.25,0.25,0.5","0,1,0,0.5,0.25,0.25,0.25,0.25,0.5","3","",""
"","html-keyboard-response","33","77035","0.0-33.0","","","","","null","<img src=""img/land3.png"" style=""width:200px;border:14px solid red;"">","null","","","","","","","","","",""
"","image-keyboard-response","34","78160","0.0-34.0","","","","","1124.1999998092651","img/land3.png","74","1125","1","1","3","2","1,0,0,0.25,0.5,0.25,0.25,0.25,0.5","0,1,0,0.5,0.25,0.25,0.25,0.25,0.5","3","",""
"","html-keyboard-response","35","78462","0.0-35.0","","","","","null","<img src=""img/land3.png"" style=""width:200px; border:14px solid green;"">","null","","","","","","","","","",""
"","image-keyboard-response","36","79172","0.0-36.0","","","","","708.9000000953674","img/land1.png","75","709.6999998092651","2","1","1","2","1,0,0,0.25,0.5,0.25,0.25,0.25,0.5","0,1,0,0.5,0.25,0.25,0.25,0.25,0.5","3","",""
"","html-keyboard-response","37","79473","0.0-37.0","","","","","null","<img src=""img/land1.png"" style=""width:200px; border:14px solid green;"">","null","","","","","","","","","",""
"","image-keyboard-response","38","81148","0.0-38.0","","","","","1673.0999999046326","img/land1.png","76","1674.1000003814697","3","0","1","2","1,0,0,0.25,0.5,0.25,0.25,0.25,0.5","0,1,0,0.5,0.25,0.25,0.25,0.25,0.5","3","",""
"","html-keyboard-response","39","81449","0.0-39.0","","","","","null","<img src=""img/land1.png"" style=""width:200px;border:14px solid red;"">","null","","","","","","","","","",""
"","image-keyboard-response","40","82238","0.0-40.0","","","","","787.8999996185303","img/land1.png","75","788.7999997138977","2","1","1","2","1,0,0,0.25,0.5,0.25,0.25,0.25,0.5","0,1,0,0.5,0.25,0.25,0.25,0.25,0.5","3","",""
"","html-keyboard-response","41","82540","0.0-41.0","","","","","null","<img src=""img/land1.png"" style=""width:200px; border:14px solid green;"">","null","","","","","","","","","",""
"","image-keyboard-response","42","84044","0.0-42.0","","","","","1502.3000001907349","img/land1.png","74","1503.4000000953674","1","0","1","2","1,0,0,0.25,0.5,0.25,0.25,0.25,0.5","0,1,0,0.5,0.25,0.25,0.25,0.25,0.5","3","",""
"","html-keyboard-response","43","84347","0.0-43.0","","","","","null","<img src=""img/land1.png"" style=""width:200px;border:14px solid red;"">","null","","","","","","","","","",""
"","image-keyboard-response","44","86349","0.0-44.0","","","","","","img/land2.png","","2002.7999997138977","-1","0","2","2","1,0,0,0.25,0.5,0.25,0.25,0.25,0.5","0,1,0,0.5,0.25,0.25,0.25,0.25,0.5","3","",""
"","html-keyboard-response","45","86651","0.0-45.0","","","","","null","<img src=""img/land2.png"" style=""width:200px;border:14px solid red;"">","null","","","","","","","","","",""
"","image-keyboard-response","46","86742","0.0-46.0","","","","","90","img/land1.png","75","91.09999990463257","2","1","1","2","1,0,0,0.25,0.5,0.25,0.25,0.25,0.5","0,1,0,0.5,0.25,0.25,0.25,0.25,0.5","3","",""
"","html-keyboard-response","47","87044","0.0-47.0","","","","","null","<img src=""img/land1.png"" style=""width:200px; border:14px solid green;"">","null","","","","","","","","","",""
"","image-keyboard-response","48","88953","0.0-48.0","","","","","1907.9000000953674","img/land1.png","75","1908.9000000953674","2","1","1","2","1,0,0,0.25,0.5,0.25,0.25,0.25,0.5","0,1,0,0.5,0.25,0.25,0.25,0.25,0.5","3","",""
"","html-keyboard-response","49","89254","0.0-49.0","","","","","null","<img src=""img/land1.png"" style=""width:200px; border:14px solid green;"">","null","","","","","","","","","",""
"","image-keyboard-response","50","91255","0.0-50.0","","","","","","img/land1.png","","2001.1999998092651","-1","0","1","2","1,0,0,0.25,0.5,0.25,0.25,0.25,0.5","0,1,0,0.5,0.25,0.25,0.25,0.25,0.5","3","",""
"","html-keyboard-response","51","91557","0.0-51.0","","","","","null","<img src=""img/land1.png"" style=""width:200px;border:14px solid red;"">","null","","","","","","","","","",""
"","image-keyboard-response","52","92279","0.0-52.0","","","","","720.5","img/land1.png","74","721.4000000953674","1","0","1","2","1,0,0,0.25,0.5,0.25,0.25,0.25,0.5","0,1,0,0.5,0.25,0.25,0.25,0.25,0.5","3","",""
"","html-keyboard-response","53","92582","0.0-53.0","","","","","null","<img src=""img/land1.png"" style=""width:200px;border:14px solid red;"">","null","","","","","","","","","",""
"","image-keyboard-response","54","94584","0.0-54.0","","","","","","img/land2.png","","2001.7999997138977","-1","0","2","2","1,0,0,0.25,0.5,0.25,0.25,0.25,0.5","0,1,0,0.5,0.25,0.25,0.25,0.25,0.5","3","",""
"","html-keyboard-response","55","94888","0.0-55.0","","","","","null","<img src=""img/land2.png"" style=""width:200px;border:14px solid red;"">","null","","","","","","","","","",""
"","image-keyboard-response","56","95393","0.0-56.0","","","","","503.7000002861023","img/land2.png","75","504.69999980926514","2","0","2","2","1,0,0,0.25,0.5,0.25,0.25,0.25,0.5","0,1,0,0.5,0.25,0.25,0.25,0.25,0.5","3","",""
"","html-keyboard-response","57","95695","0.0-57.0","","","","","null","<img src=""img/land2.png"" style=""width:200px;border:14px solid red;"">","null","","","","","","","","","",""
"","image-keyboard-response","58","96578","0.0-58.0","","","","","881.7999997138977","img/land2.png","76","882.8000001907349","3","1","2","2","1,0,0,0.25,0.5,0.25,0.25,0.25,0.5","0,1,0,0.5,0.25,0.25,0.25,0.25,0.5","3","",""
"","html-keyboard-response","59","96879","0.0-59.0","","","","","null","<img src=""img/land2.png"" style=""width:200px; border:14px solid green;"">","null","","","","","","","","","",""
"","image-keyboard-response","60","97976","0.0-60.0","","","","","1096.2999997138977","img/land1.png","74","1097.0999999046326","1","0","1","2","1,0,0,0.25,0.5,0.25,0.25,0.25,0.5","0,1,0,0.5,0.25,0.25,0.25,0.25,0.5","3","",""
"","html-keyboard-response","61","98278","0.0-61.0","","","","","null","<img src=""img/land1.png"" style=""width:200px;border:14px solid red;"">","null","","","","","","","","","",""
"","image-keyboard-response","62","98953","0.0-62.0","","","","","673.5999999046326","img/land1.png","75","674.5999999046326","2","1","1","2","1,0,0,0.25,0.5,0.25,0.25,0.25,0.5","0,1,0,0.5,0.25,0.25,0.25,0.25,0.5","3","",""
"","html-keyboard-response","63","99254","0.0-63.0","","","","","null","<img src=""img/land1.png"" style=""width:200px; border:14px solid green;"">","null","","","","","","","","","",""
"","image-keyboard-response","64","100331","0.0-64.0","","","","","1076.0999999046326","img/land2.png","75","1077.1999998092651","2","0","2","2","1,0,0,0.25,0.5,0.25,0.25,0.25,0.5","0,1,0,0.5,0.25,0.25,0.25,0.25,0.5","3","",""
"","html-keyboard-response","65","100634","0.0-65.0","","","","","null","<img src=""img/land2.png"" style=""width:200px;border:14px solid red;"">","null","","","","","","","","","",""
"","image-keyboard-response","66","102520","0.0-66.0","","","","","1885.3000001907349","img/land2.png","75","1886.1000003814697","2","0","2","2","1,0,0,0.25,0.5,0.25,0.25,0.25,0.5","0,1,0,0.5,0.25,0.25,0.25,0.25,0.5","3","",""
"","html-keyboard-response","67","102822","0.0-67.0","","","","","null","<img src=""img/land2.png"" style=""width:200px;border:14px solid red;"">","null","","","","","","","","","",""
"","image-keyboard-response","68","103463","0.0-68.0","","","","","640.5999999046326","img/land3.png","76","641.6999998092651","3","0","3","2","1,0,0,0.25,0.5,0.25,0.25,0.25,0.5","0,1,0,0.5,0.25,0.25,0.25,0.25,0.5","3","",""
"","html-keyboard-response","69","103765","0.0-69.0","","","","","null","<img src=""img/land3.png"" style=""width:200px;border:14px solid red;"">","null","","","","","","","","","",""
"","image-keyboard-response","70","104740","0.0-70.0","","","","","964.5","img/land2.png","74","974.4000000953674","1","1","2","2","1,0,0,0.25,0.5,0.25,0.25,0.25,0.5","0,1,0,0.5,0.25,0.25,0.25,0.25,0.5","3","",""
"","html-keyboard-response","71","105050","0.0-71.0","","","","","null","<img src=""img/land2.png"" style=""width:200px; border:14px solid green;"">","null","","","","","","","","","",""
"","image-keyboard-response","72","105954","0.0-72.0","","","","","901.3999996185303","img/land3.png","74","904.2000002861023","1","0","3","2","1,0,0,0.25,0.5,0.25,0.25,0.25,0.5","0,1,0,0.5,0.25,0.25,0.25,0.25,0.5","3","",""
"","html-keyboard-response","73","106255","0.0-73.0","","","","","null","<img src=""img/land3.png"" style=""width:200px;border:14px solid red;"">","null","","","","","","","","","",""
"","image-keyboard-response","74","106953","0.0-74.0","","","","","696.2999997138977","img/land1.png","76","697.8000001907349","3","0","1","2","1,0,0,0.25,0.5,0.25,0.25,0.25,0.5","0,1,0,0.5,0.25,0.25,0.25,0.25,0.5","3","",""
"","html-keyboard-response","75","107255","0.0-75.0","","","","","null","<img src=""img/land1.png"" style=""width:200px;border:14px solid red;"">","null","","","","","","","","","",""
"","image-keyboard-response","76","108371","0.0-76.0","","","","","1114.5","img/land1.png","75","1115.5","2","1","1","2","1,0,0,0.25,0.5,0.25,0.25,0.25,0.5","0,1,0,0.5,0.25,0.25,0.25,0.25,0.5","3","",""
"","html-keyboard-response","77","108672","0.0-77.0","","","","","null","<img src=""img/land1.png"" style=""width:200px; border:14px solid green;"">","null","","","","","","","","","",""
"","image-keyboard-response","78","110193","0.0-78.0","","","","","1519.5","img/land3.png","75","1520.5999999046326","2","0","3","2","1,0,0,0.25,0.5,0.25,0.25,0.25,0.5","0,1,0,0.5,0.25,0.25,0.25,0.25,0.5","3","",""
"","html-keyboard-response","79","110494","0.0-79.0","","","","","null","<img src=""img/land3.png"" style=""width:200px;border:14px solid red;"">","null","","","","","","","","","",""
"","image-keyboard-response","80","111456","0.0-80.0","","","","","960.6999998092651","img/land1.png","74","961.5999999046326","1","0","1","2","1,0,0,0.25,0.5,0.25,0.25,0.25,0.5","0,1,0,0.5,0.25,0.25,0.25,0.25,0.5","3","",""
"","html-keyboard-response","81","111758","0.0-81.0","","","","","null","<img src=""img/land1.png"" style=""width:200px;border:14px solid red;"">","null","","","","","","","","","",""
"","image-keyboard-response","82","112744","0.0-82.0","","","","","983.4000000953674","img/land1.png","75","984.5999999046326","2","1","1","2","1,0,0,0.25,0.5,0.25,0.25,0.25,0.5","0,1,0,0.5,0.25,0.25,0.25,0.25,0.5","3","",""
"","html-keyboard-response","83","113045","0.0-83.0","","","","","null","<img src=""img/land1.png"" style=""width:200px; border:14px solid green;"">","null","","","","","","","","","",""
"","image-keyboard-response","84","113868","0.0-84.0","","","","","821.0999999046326","img/land3.png","75","822.0999999046326","2","1","3","2","1,0,0,0.25,0.5,0.25,0.25,0.25,0.5","0,1,0,0.5,0.25,0.25,0.25,0.25,0.5","3","",""
"","html-keyboard-response","85","114170","0.0-85.0","","","","","null","<img src=""img/land3.png"" style=""width:200px; border:14px solid green;"">","null","","","","","","","","","",""
"","image-keyboard-response","86","115255","0.0-86.0","","","","","1084.7000002861023","img/land2.png","76","1085.7999997138977","3","0","2","2","1,0,0,0.25,0.5,0.25,0.25,0.25,0.5","0,1,0,0.5,0.25,0.25,0.25,0.25,0.5","3","",""
"","html-keyboard-response","87","115558","0.0-87.0","","","","","null","<img src=""img/land2.png"" style=""width:200px;border:14px solid red;"">","null","","","","","","","","","",""
"","image-keyboard-response","88","117560","0.0-88.0","","","","","","img/land1.png","","2001.3999996185303","-1","0","1","2","1,0,0,0.25,0.5,0.25,0.25,0.25,0.5","0,1,0,0.5,0.25,0.25,0.25,0.25,0.5","3","",""
"","html-keyboard-response","89","117862","0.0-89.0","","","","","null","<img src=""img/land1.png"" style=""width:200px;border:14px solid red;"">","null","","","","","","","","","",""
"","image-keyboard-response","90","119054","0.0-90.0","","","","","1190.0999999046326","img/land2.png","74","1192.1999998092651","1","0","2","2","1,0,0,0.25,0.5,0.25,0.25,0.25,0.5","0,1,0,0.5,0.25,0.25,0.25,0.25,0.5","3","",""
"","html-keyboard-response","91","119357","0.0-91.0","","","","","null","<img src=""img/land2.png"" style=""width:200px;border:14px solid red;"">","null","","","","","","","","","",""
"","image-keyboard-response","92","120169","0.0-92.0","","","","","810.6999998092651","img/land1.png","75","811.5999999046326","2","1","1","2","1,0,0,0.25,0.5,0.25,0.25,0.25,0.5","0,1,0,0.5,0.25,0.25,0.25,0.25,0.5","3","",""
"","html-keyboard-response","93","120470","0.0-93.0","","","","","null","<img src=""img/land1.png"" style=""width:200px; border:14px solid green;"">","null","","","","","","","","","",""
"","image-keyboard-response","94","121303","0.0-94.0","","","","","832.2000002861023","img/land3.png","75","833.2000002861023","2","0","3","2","1,0,0,0.25,0.5,0.25,0.25,0.25,0.5","0,1,0,0.5,0.25,0.25,0.25,0.25,0.5","3","",""
"","html-keyboard-response","95","121605","0.0-95.0","","","","","null","<img src=""img/land3.png"" style=""width:200px;border:14px solid red;"">","null","","","","","","","","","",""
"","image-keyboard-response","96","122975","0.0-96.0","","","","","1369.3000001907349","img/land1.png","75","1370.2000002861023","2","1","1","2","1,0,0,0.25,0.5,0.25,0.25,0.25,0.5","0,1,0,0.5,0.25,0.25,0.25,0.25,0.5","3","",""
"","html-keyboard-response","97","123277","0.0-97.0","","","","","null","<img src=""img/land1.png"" style=""width:200px; border:14px solid green;"">","null","","","","","","","","","",""
"","image-keyboard-response","98","124083","0.0-98.0","","","","","805","img/land1.png","76","805.9000000953674","3","0","1","2","1,0,0,0.25,0.5,0.25,0.25,0.25,0.5","0,1,0,0.5,0.25,0.25,0.25,0.25,0.5","3","",""
"","html-keyboard-response","99","124386","0.0-99.0","","","","","null","<img src=""img/land1.png"" style=""width:200px;border:14px solid red;"">","null","","","","","","","","","",""
"","image-keyboard-response","100","125462","0.0-100.0","","","","","1074.7000002861023","img/land3.png","74","1075.7000002861023","1","0","3","2","1,0,0,0.25,0.5,0.25,0.25,0.25,0.5","0,1,0,0.5,0.25,0.25,0.25,0.25,0.5","3","",""
"","html-keyboard-response","101","125764","0.0-101.0","","","","","null","<img src=""img/land3.png"" style=""width:200px;border:14px solid red;"">","null","","","","","","","","","",""
"","image-keyboard-response","102","126983","0.0-102.0","","","","","1216.2000002861023","img/land3.png","76","1218.5","3","0","3","2","1,0,0,0.25,0.5,0.25,0.25,0.25,0.5","0,1,0,0.5,0.25,0.25,0.25,0.25,0.5","3","",""
"","html-keyboard-response","103","127285","0.0-103.0","","","","","null","<img src=""img/land3.png"" style=""width:200px;border:14px solid red;"">","null","","","","","","","","","",""
"","image-keyboard-response","104","128388","0.0-104.0","","","","","1102","img/land1.png","76","1102.8999996185303","3","0","1","2","1,0,0,0.25,0.5,0.25,0.25,0.25,0.5","0,1,0,0.5,0.25,0.25,0.25,0.25,0.5","3","",""
"","html-keyboard-response","105","128691","0.0-105.0","","","","","null","<img src=""img/land1.png"" style=""width:200px;border:14px solid red;"">","null","","","","","","","","","",""
"","image-keyboard-response","106","129799","0.0-106.0","","","","","1106.3000001907349","img/land1.png","75","1107.5","2","1","1","2","1,0,0,0.25,0.5,0.25,0.25,0.25,0.5","0,1,0,0.5,0.25,0.25,0.25,0.25,0.5","3","",""
"","html-keyboard-response","107","130101","0.0-107.0","","","","","null","<img src=""img/land1.png"" style=""width:200px; border:14px solid green;"">","null","","","","","","","","","",""
"","image-keyboard-response","108","132103","0.0-108.0","","","","","","img/land3.png","","2001.4000000953674","-1","0","3","2","1,0,0,0.25,0.5,0.25,0.25,0.25,0.5","0,1,0,0.5,0.25,0.25,0.25,0.25,0.5","3","",""
"","html-keyboard-response","109","132405","0.0-109.0","","","","","null","<img src=""img/land3.png"" style=""width:200px;border:14px solid red;"">","null","","","","","","","","","",""
"","image-keyboard-response","110","132566","0.0-110.0","","","","","159.09999990463257","img/land1.png","74","160.2999997138977","1","0","1","2","1,0,0,0.25,0.5,0.25,0.25,0.25,0.5","0,1,0,0.5,0.25,0.25,0.25,0.25,0.5","3","",""
"","html-keyboard-response","111","132867","0.0-111.0","","","","","null","<img src=""img/land1.png"" style=""width:200px;border:14px solid red;"">","null","","","","","","","","","",""
"","image-keyboard-response","112","133426","0.0-112.0","","","","","558.4000000953674","img/land2.png","75","559.2000002861023","2","0","2","2","1,0,0,0.25,0.5,0.25,0.25,0.25,0.5","0,1,0,0.5,0.25,0.25,0.25,0.25,0.5","3","",""
"","html-keyboard-response","113","133728","0.0-113.0","","","","","null","<img src=""img/land2.png"" style=""width:200px;border:14px solid red;"">","null","","","","","","","","","",""
"","image-keyboard-response","114","134586","0.0-114.0","","","","","856.5999999046326","img/land1.png","76","857.5999999046326","3","0","1","2","1,0,0,0.25,0.5,0.25,0.25,0.25,0.5","0,1,0,0.5,0.25,0.25,0.25,0.25,0.5","3","",""
"","html-keyboard-response","115","134887","0.0-115.0","","","","","null","<img src=""img/land1.png"" style=""width:200px;border:14px solid red;"">","null","","","","","","","","","",""
"","image-keyboard-response","116","135958","0.0-116.0","","","","","1069.9000000953674","img/land1.png","76","1071.3000001907349","3","0","1","2","1,0,0,0.25,0.5,0.25,0.25,0.25,0.5","0,1,0,0.5,0.25,0.25,0.25,0.25,0.5","3","",""
"","html-keyboard-response","117","136260","0.0-117.0","","","","","null","<img src=""img/land1.png"" style=""width:200px;border:14px solid red;"">","null","","","","","","","","","",""
"","image-keyboard-response","118","136968","0.0-118.0","","","","","706","img/land2.png","75","707","2","1","2","2","1,0,0,0.25,0.5,0.25,0.25,0.25,0.5","0,1,0,0.5,0.25,0.25,0.25,0.25,0.5","3","",""
"","html-keyboard-response","119","137270","0.0-119.0","","","","","null","<img src=""img/land2.png"" style=""width:200px; border:14px solid green;"">","null","","","","","","","","","",""
"","image-keyboard-response","120","138509","0.0-120.0","","","","","1235.5999999046326","img/land1.png","74","1236.7999997138977","1","0","1","2","1,0,0,0.25,0.5,0.25,0.25,0.25,0.5","0,1,0,0.5,0.25,0.25,0.25,0.25,0.5","3","",""
"","html-keyboard-response","121","138811","0.0-121.0","","","","","null","<img src=""img/land1.png"" style=""width:200px;border:14px solid red;"">","null","","","","","","","","","",""
"","image-keyboard-response","122","140815","0.0-122.0","","","","","","img/land1.png","","2003.1999998092651","-1","0","1","2","1,0,0,0.25,0.5,0.25,0.25,0.25,0.5","0,1,0,0.5,0.25,0.25,0.25,0.25,0.5","3","",""
"","html-keyboard-response","123","141118","0.0-123.0","","","","","null","<img src=""img/land1.png"" style=""width:200px;border:14px solid red;"">","null","","","","","","","","","",""
"","image-keyboard-response","124","141352","0.0-124.0","","","","","232.90000009536743","img/land1.png","74","234.09999990463257","1","0","1","2","1,0,0,0.25,0.5,0.25,0.25,0.25,0.5","0,1,0,0.5,0.25,0.25,0.25,0.25,0.5","3","",""
"","html-keyboard-response","125","141654","0.0-125.0","","","","","null","<img src=""img/land1.png"" style=""width:200px;border:14px solid red;"">","null","","","","","","","","","",""
"","image-keyboard-response","126","142939","0.0-126.0","","","","","1284.1999998092651","img/land1.png","75","1285.1000003814697","2","1","1","2","1,0,0,0.25,0.5,0.25,0.25,0.25,0.5","0,1,0,0.5,0.25,0.25,0.25,0.25,0.5","3","",""
"","html-keyboard-response","127","143242","0.0-127.0","","","","","null","<img src=""img/land1.png"" style=""width:200px; border:14px solid green;"">","null","","","","","","","","","",""
"","image-keyboard-response","128","145244","0.0-128.0","","","","","","img/land2.png","","2001.5999999046326","-1","0","2","2","1,0,0,0.25,0.5,0.25,0.25,0.25,0.5","0,1,0,0.5,0.25,0.25,0.25,0.25,0.5","3","",""
"","html-keyboard-response","129","145545","0.0-129.0","","","","","null","<img src=""img/land2.png"" style=""width:200px;border:14px solid red;"">","null","","","","","","","","","",""
"","image-keyboard-response","130","146390","0.0-130.0","","","","","844.5999999046326","img/land1.png","76","845.5999999046326","3","0","1","2","1,0,0,0.25,0.5,0.25,0.25,0.25,0.5","0,1,0,0.5,0.25,0.25,0.25,0.25,0.5","3","",""
"","html-keyboard-response","131","146693","0.0-131.0","","","","","null","<img src=""img/land1.png"" style=""width:200px;border:14px solid red;"">","null","","","","","","","","","",""
"","image-keyboard-response","132","148695","0.0-132.0","","","","","","img/land1.png","","2001.9000000953674","-1","0","1","2","1,0,0,0.25,0.5,0.25,0.25,0.25,0.5","0,1,0,0.5,0.25,0.25,0.25,0.25,0.5","3","",""
"","html-keyboard-response","133","148997","0.0-133.0","","","","","null","<img src=""img/land1.png"" style=""width:200px;border:14px solid red;"">","null","","","","","","","","","",""
"","image-keyboard-response","134","149537","0.0-134.0","","","","","539.4000000953674","img/land3.png","74","540.5","1","0","3","2","1,0,0,0.25,0.5,0.25,0.25,0.25,0.5","0,1,0,0.5,0.25,0.25,0.25,0.25,0.5","3","",""
"","html-keyboard-response","135","149839","0.0-135.0","","","","","null","<img src=""img/land3.png"" style=""width:200px;border:14px solid red;"">","null","","","","","","","","","",""
"","image-keyboard-response","136","151273","0.0-136.0","","","","","1432","img/land3.png","75","1433.1999998092651","2","0","3","2","1,0,0,0.25,0.5,0.25,0.25,0.25,0.5","0,1,0,0.5,0.25,0.25,0.25,0.25,0.5","3","",""
"","html-keyboard-response","137","151575","0.0-137.0","","","","","null","<img src=""img/land3.png"" style=""width:200px;border:14px solid red;"">","null","","","","","","","","","",""
"","image-keyboard-response","138","152391","0.0-138.0","","","","","814.8999996185303","img/land1.png","74","816","1","0","1","2","1,0,0,0.25,0.5,0.25,0.25,0.25,0.5","0,1,0,0.5,0.25,0.25,0.25,0.25,0.5","3","",""
"","html-keyboard-response","139","152692","0.0-139.0","","","","","null","<img src=""img/land1.png"" style=""width:200px;border:14px solid red;"">","null","","","","","","","","","",""
"","image-keyboard-response","140","153336","0.0-140.0","","","","","642.2999997138977","img/land1.png","76","643.1999998092651","3","0","1","2","1,0,0,0.25,0.5,0.25,0.25,0.25,0.5","0,1,0,0.5,0.25,0.25,0.25,0.25,0.5","3","",""
"","html-keyboard-response","141","153641","0.0-141.0","","","","","null","<img src=""img/land1.png"" style=""width:200px;border:14px solid red;"">","null","","","","","","","","","",""
"","image-keyboard-response","142","154467","0.0-142.0","","","","","825.2999997138977","img/land1.png","76","826.3000001907349","3","0","1","2","1,0,0,0.25,0.5,0.25,0.25,0.25,0.5","0,1,0,0.5,0.25,0.25,0.25,0.25,0.5","3","",""
"","html-keyboard-response","143","154769","0.0-143.0","","","","","null","<img src=""img/land1.png"" style=""width:200px;border:14px solid red;"">","null","","","","","","","","","",""
"","image-keyboard-response","144","156382","0.0-144.0","","","","","1610.7999997138977","img/land1.png","76","1612.0999999046326","3","0","1","2","1,0,0,0.25,0.5,0.25,0.25,0.25,0.5","0,1,0,0.5,0.25,0.25,0.25,0.25,0.5","3","",""
"","html-keyboard-response","145","156685","0.0-145.0","","","","","null","<img src=""img/land1.png"" style=""width:200px;border:14px solid red;"">","null","","","","","","","","","",""
"","image-keyboard-response","146","157744","0.0-146.0","","","","","1057.8999996185303","img/land3.png","75","1058.9000000953674","2","0","3","2","1,0,0,0.25,0.5,0.25,0.25,0.25,0.5","0,1,0,0.5,0.25,0.25,0.25,0.25,0.5","3","",""
"","html-keyboard-response","147","158045","0.0-147.0","","","","","null","<img src=""img/land3.png"" style=""width:200px;border:14px solid red;"">","null","","","","","","","","","",""
"","image-keyboard-response","148","159955","0.0-148.0","","","","","1908.6000003814697","img/land2.png","74","1909.5999999046326","1","0","2","2","1,0,0,0.25,0.5,0.25,0.25,0.25,0.5","0,1,0,0.5,0.25,0.25,0.25,0.25,0.5","3","",""
"","html-keyboard-response","149","160257","0.0-149.0","","","","","null","<img src=""img/land2.png"" style=""width:200px;border:14px solid red;"">","null","","","","","","","","","",""
"","image-keyboard-response","150","160792","0.0-150.0","","","","","533.8000001907349","img/land1.png","75","534.9000000953674","2","1","1","2","1,0,0,0.25,0.5,0.25,0.25,0.25,0.5","0,1,0,0.5,0.25,0.25,0.25,0.25,0.5","3","",""
"","html-keyboard-response","151","161095","0.0-151.0","","","","","null","<img src=""img/land1.png"" style=""width:200px; border:14px solid green;"">","null","","","","","","","","","",""
"","image-keyboard-response","152","161984","0.0-152.0","","","","","887.8000001907349","img/land1.png","75","888.8000001907349","2","1","1","2","1,0,0,0.25,0.5,0.25,0.25,0.25,0.5","0,1,0,0.5,0.25,0.25,0.25,0.25,0.5","3","",""
"","html-keyboard-response","153","162286","0.0-153.0","","","","","null","<img src=""img/land1.png"" style=""width:200px; border:14px solid green;"">","null","","","","","","","","","",""
"","image-keyboard-response","154","164288","0.0-154.0","","","","","","img/land1.png","","2001.5999999046326","-1","0","1","2","1,0,0,0.25,0.5,0.25,0.25,0.25,0.5","0,1,0,0.5,0.25,0.25,0.25,0.25,0.5","3","",""
"","html-keyboard-response","155","164589","0.0-155.0","","","","","null","<img src=""img/land1.png"" style=""width:200px;border:14px solid red;"">","null","","","","","","","","","",""
"","image-keyboard-response","156","165391","0.0-156.0","","","","","798.9000000953674","img/land3.png","76","801.5","3","1","3","2","1,0,0,0.25,0.5,0.25,0.25,0.25,0.5","0,1,0,0.5,0.25,0.25,0.25,0.25,0.5","3","",""
"","html-keyboard-response","157","165694","0.0-157.0","","","","","null","<img src=""img/land3.png"" style=""width:200px; border:14px solid green;"">","null","","","","","","","","","",""
"","image-keyboard-response","158","166995","0.0-158.0","","","","","1299.3000001907349","img/land2.png","76","1300.5","3","0","2","2","1,0,0,0.25,0.5,0.25,0.25,0.25,0.5","0,1,0,0.5,0.25,0.25,0.25,0.25,0.5","3","",""
"","html-keyboard-response","159","167296","0.0-159.0","","","","","null","<img src=""img/land2.png"" style=""width:200px;border:14px solid red;"">","null","","","","","","","","","",""
"","image-keyboard-response","160","168486","0.0-160.0","","","","","1188.5","img/land2.png","75","1189.6999998092651","2","0","2","2","1,0,0,0.25,0.5,0.25,0.25,0.25,0.5","0,1,0,0.5,0.25,0.25,0.25,0.25,0.5","3","",""
"","html-keyboard-response","161","168793","0.0-161.0","","","","","null","<img src=""img/land2.png"" style=""width:200px;border:14px solid red;"">","null","","","","","","","","","",""
"","image-keyboard-response","162","170796","0.0-162.0","","","","","","img/land1.png","","2003.2999997138977","-1","0","1","2","1,0,0,0.25,0.5,0.25,0.25,0.25,0.5","0,1,0,0.5,0.25,0.25,0.25,0.25,0.5","3","",""
"","html-keyboard-response","163","171098","0.0-163.0","","","","","null","<img src=""img/land1.png"" style=""width:200px;border:14px solid red;"">","null","","","","","","","","","",""
"","image-keyboard-response","164","171882","0.0-164.0","","","","","781.6999998092651","img/land1.png","74","783.1999998092651","1","0","1","2","1,0,0,0.25,0.5,0.25,0.25,0.25,0.5","0,1,0,0.5,0.25,0.25,0.25,0.25,0.5","3","",""
"","html-keyboard-response","165","172184","0.0-165.0","","","","","null","<img src=""img/land1.png"" style=""width:200px;border:14px solid red;"">","null","","","","","","","","","",""
"","image-keyboard-response","166","173009","0.0-166.0","","","","","823.1999998092651","img/land1.png","75","824.3000001907349","2","1","1","2","1,0,0,0.25,0.5,0.25,0.25,0.25,0.5","0,1,0,0.5,0.25,0.25,0.25,0.25,0.5","3","",""
"","html-keyboard-response","167","173312","0.0-167.0","","","","","null","<img src=""img/land1.png"" style=""width:200px; border:14px solid green;"">","null","","","","","","","","","",""
"","image-keyboard-response","168","174882","0.0-168.0","","","","","1568.6000003814697","img/land2.png","75","1569.7999997138977","2","1","2","2","1,0,0,0.25,0.5,0.25,0.25,0.25,0.5","0,1,0,0.5,0.25,0.25,0.25,0.25,0.5","3","",""
"","html-keyboard-response","169","175184","0.0-169.0","","","","","null","<img src=""img/land2.png"" style=""width:200px; border:14px solid green;"">","null","","","","","","","","","",""
"","image-keyboard-response","170","175949","0.0-170.0","","","","","762.5","img/land2.png","75","763.7999997138977","2","0","2","2","1,0,0,0.25,0.5,0.25,0.25,0.25,0.5","0,1,0,0.5,0.25,0.25,0.25,0.25,0.5","3","",""
"","html-keyboard-response","171","176253","0.0-171.0","","","","","null","<img src=""img/land2.png"" style=""width:200px;border:14px solid red;"">","null","","","","","","","","","",""
"","image-keyboard-response","172","177842","0.0-172.0","","","","","1586.8000001907349","img/land2.png","76","1588.8999996185303","3","0","2","2","1,0,0,0.25,0.5,0.25,0.25,0.25,0.5","0,1,0,0.5,0.25,0.25,0.25,0.25,0.5","3","",""
"","html-keyboard-response","173","178145","0.0-173.0","","","","","null","<img src=""img/land2.png"" style=""width:200px;border:14px solid red;"">","null","","","","","","","","","",""
"","image-keyboard-response","174","180146","0.0-174.0","","","","","","img/land1.png","","2001.2000002861023","-1","0","1","2","1,0,0,0.25,0.5,0.25,0.25,0.25,0.5","0,1,0,0.5,0.25,0.25,0.25,0.25,0.5","3","",""
"","html-keyboard-response","175","180448","0.0-175.0","","","","","null","<img src=""img/land1.png"" style=""width:200px;border:14px solid red;"">","null","","","","","","","","","",""
"","image-keyboard-response","176","181096","0.0-176.0","","","","","646.7000002861023","img/land1.png","76","647.7000002861023","3","0","1","2","1,0,0,0.25,0.5,0.25,0.25,0.25,0.5","0,1,0,0.5,0.25,0.25,0.25,0.25,0.5","3","",""
"","html-keyboard-response","177","181398","0.0-177.0","","","","","null","<img src=""img/land1.png"" style=""width:200px;border:14px solid red;"">","null","","","","","","","","","",""
"","image-keyboard-response","178","183400","0.0-178.0","","","","","","img/land1.png","","2001.6999998092651","-1","0","1","2","1,0,0,0.25,0.5,0.25,0.25,0.25,0.5","0,1,0,0.5,0.25,0.25,0.25,0.25,0.5","3","",""
"","html-keyboard-response","179","183701","0.0-179.0","","","","","null","<img src=""img/land1.png"" style=""width:200px;border:14px solid red;"">","null","","","","","","","","","",""
"","image-keyboard-response","180","183909","0.0-180.0","","","","","207.2999997138977","img/land3.png","76","208.30000019073486","3","0","3","2","1,0,0,0.25,0.5,0.25,0.25,0.25,0.5","0,1,0,0.5,0.25,0.25,0.25,0.25,0.5","3","",""
"","html-keyboard-response","181","184211","0.0-181.0","","","","","null","<img src=""img/land3.png"" style=""width:200px;border:14px solid red;"">","null","","","","","","","","","",""
"","image-keyboard-response","182","186104","0.0-182.0","","","","","1892","img/land1.png","76","1893.1999998092651","3","0","1","2","1,0,0,0.25,0.5,0.25,0.25,0.25,0.5","0,1,0,0.5,0.25,0.25,0.25,0.25,0.5","3","",""
"","html-keyboard-response","183","186408","0.0-183.0","","","","","null","<img src=""img/land1.png"" style=""width:200px;border:14px solid red;"">","null","","","","","","","","","",""
"","image-keyboard-response","184","187498","0.0-184.0","","","","","1088.6999998092651","img/land1.png","74","1089.8000001907349","1","0","1","2","1,0,0,0.25,0.5,0.25,0.25,0.25,0.5","0,1,0,0.5,0.25,0.25,0.25,0.25,0.5","3","",""
"","html-keyboard-response","185","187800","0.0-185.0","","","","","null","<img src=""img/land1.png"" style=""width:200px;border:14px solid red;"">","null","","","","","","","","","",""
"","image-keyboard-response","186","189105","0.0-186.0","","","","","1304.2000002861023","img/land2.png","74","1305.3000001907349","1","0","2","2","1,0,0,0.25,0.5,0.25,0.25,0.25,0.5","0,1,0,0.5,0.25,0.25,0.25,0.25,0.5","3","",""
"","html-keyboard-response","187","189407","0.0-187.0","","","","","null","<img src=""img/land2.png"" style=""width:200px;border:14px solid red;"">","null","","","","","","","","","",""
"","image-keyboard-response","188","190421","0.0-188.0","","","","","1013.5999999046326","img/land1.png","74","1014.5999999046326","1","0","1","2","1,0,0,0.25,0.5,0.25,0.25,0.25,0.5","0,1,0,0.5,0.25,0.25,0.25,0.25,0.5","3","",""
"","html-keyboard-response","189","190723","0.0-189.0","","","","","null","<img src=""img/land1.png"" style=""width:200px;border:14px solid red;"">","null","","","","","","","","","",""
"","image-keyboard-response","190","192447","0.0-190.0","","","","","1722.2000002861023","img/land2.png","74","1723.5","1","0","2","2","1,0,0,0.25,0.5,0.25,0.25,0.25,0.5","0,1,0,0.5,0.25,0.25,0.25,0.25,0.5","3","",""
"","html-keyboard-response","191","192750","0.0-191.0","","","","","null","<img src=""img/land2.png"" style=""width:200px;border:14px solid red;"">","null","","","","","","","","","",""
"","image-keyboard-response","192","194118","0.0-192.0","","","","","1367","img/land3.png","75","1368.5","2","0","3","2","1,0,0,0.25,0.5,0.25,0.25,0.25,0.5","0,1,0,0.5,0.25,0.25,0.25,0.25,0.5","3","",""
"","html-keyboard-response","193","194422","0.0-193.0","","","","","null","<img src=""img/land3.png"" style=""width:200px;border:14px solid red;"">","null","","","","","","","","","",""
"","image-keyboard-response","194","196412","0.0-194.0","","","","","1989.3000001907349","img/land3.png","75","1990.4000000953674","2","1","3","2","1,0,0,0.25,0.5,0.25,0.25,0.25,0.5","0,1,0,0.5,0.25,0.25,0.25,0.25,0.5","3","",""
"","html-keyboard-response","195","196714","0.0-195.0","","","","","null","<img src=""img/land3.png"" style=""width:200px; border:14px solid green;"">","null","","","","","","","","","",""
"","image-keyboard-response","196","197468","0.0-196.0","","","","","752.6999998092651","img/land2.png","75","753.8999996185303","2","1","2","2","1,0,0,0.25,0.5,0.25,0.25,0.25,0.5","0,1,0,0.5,0.25,0.25,0.25,0.25,0.5","3","",""
"","html-keyboard-response","197","197771","0.0-197.0","","","","","null","<img src=""img/land2.png"" style=""width:200px; border:14px solid green;"">","null","","","","","","","","","",""
"","image-keyboard-response","198","199099","0.0-198.0","","","","","1327.2000002861023","img/land3.png","75","1328.4000000953674","2","0","3","2","1,0,0,0.25,0.5,0.25,0.25,0.25,0.5","0,1,0,0.5,0.25,0.25,0.25,0.25,0.5","3","",""
"","html-keyboard-response","199","199401","0.0-199.0","","","","","null","<img src=""img/land3.png"" style=""width:200px;border:14px solid red;"">","null","","","","","","","","","",""
"","image-keyboard-response","200","201109","0.0-200.0","","","","","1707.3999996185303","img/land1.png","75","1708.3999996185303","2","1","1","2","1,0,0,0.25,0.5,0.25,0.25,0.25,0.5","0,1,0,0.5,0.25,0.25,0.25,0.25,0.5","3","",""
"","html-keyboard-response","201","201413","0.0-201.0","","","","","null","<img src=""img/land1.png"" style=""width:200px; border:14px solid green;"">","null","","","","","","","","","",""
"","image-keyboard-response","202","202730","0.0-202.0","","","","","1315.4000000953674","img/land1.png","76","1316.5999999046326","3","0","1","2","1,0,0,0.25,0.5,0.25,0.25,0.25,0.5","0,1,0,0.5,0.25,0.25,0.25,0.25,0.5","3","",""
"","html-keyboard-response","203","203031","0.0-203.0","","","","","null","<img src=""img/land1.png"" style=""width:200px;border:14px solid red;"">","null","","","","","","","","","",""
"","image-keyboard-response","204","203730","0.0-204.0","","","","","697.4000000953674","img/land1.png","74","699","1","0","1","2","1,0,0,0.25,0.5,0.25,0.25,0.25,0.5","0,1,0,0.5,0.25,0.25,0.25,0.25,0.5","3","",""
"","html-keyboard-response","205","204032","0.0-205.0","","","","","null","<img src=""img/land1.png"" style=""width:200px;border:14px solid red;"">","null","","","","","","","","","",""
"","image-keyboard-response","206","204788","0.0-206.0","","","","","754.9000000953674","img/land2.png","75","755.6999998092651","2","1","2","2","1,0,0,0.25,0.5,0.25,0.25,0.25,0.5","0,1,0,0.5,0.25,0.25,0.25,0.25,0.5","3","",""
"","html-keyboard-response","207","205090","0.0-207.0","","","","","null","<img src=""img/land2.png"" style=""width:200px; border:14px solid green;"">","null","","","","","","","","","",""
"","image-keyboard-response","208","206037","0.0-208.0","","","","","946.7000002861023","img/land3.png","74","947.5","1","0","3","2","1,0,0,0.25,0.5,0.25,0.25,0.25,0.5","0,1,0,0.5,0.25,0.25,0.25,0.25,0.5","3","",""
"","html-keyboard-response","209","206338","0.0-209.0","","","","","null","<img src=""img/land3.png"" style=""width:200px;border:14px solid red;"">","null","","","","","","","","","",""
"","image-keyboard-response","210","206936","0.0-210.0","","","","","596.5","img/land2.png","74","597.8000001907349","1","1","2","2","1,0,0,0.25,0.5,0.25,0.25,0.25,0.5","0,1,0,0.5,0.25,0.25,0.25,0.25,0.5","3","",""
"","html-keyboard-response","211","207239","0.0-211.0","","","","","null","<img src=""img/land2.png"" style=""width:200px; border:14px solid green;"">","null","","","","","","","","","",""
"","image-keyboard-response","212","209120","0.0-212.0","","","","","1879.4000000953674","img/land1.png","74","1880.4000000953674","1","0","1","2","1,0,0,0.25,0.5,0.25,0.25,0.25,0.5","0,1,0,0.5,0.25,0.25,0.25,0.25,0.5","3","",""
"","html-keyboard-response","213","209422","0.0-213.0","","","","","null","<img src=""img/land1.png"" style=""width:200px;border:14px solid red;"">","null","","","","","","","","","",""
"","image-keyboard-response","214","210161","0.0-214.0","","","","","738.2000002861023","img/land1.png","75","739.0999999046326","2","1","1","2","1,0,0,0.25,0.5,0.25,0.25,0.25,0.5","0,1,0,0.5,0.25,0.25,0.25,0.25,0.5","3","",""
"","html-keyboard-response","215","210463","0.0-215.0","","","","","null","<img src=""img/land1.png"" style=""width:200px; border:14px solid green;"">","null","","","","","","","","","",""
"","image-keyboard-response","216","211431","0.0-216.0","","","","","967","img/land1.png","74","967.9000000953674","1","0","1","2","1,0,0,0.25,0.5,0.25,0.25,0.25,0.5","0,1,0,0.5,0.25,0.25,0.25,0.25,0.5","3","",""
"","html-keyboard-response","217","211733","0.0-217.0","","","","","null","<img src=""img/land1.png"" style=""width:200px;border:14px solid red;"">","null","","","","","","","","","",""
"","image-keyboard-response","218","212493","0.0-218.0","","","","","757.3000001907349","img/land2.png","74","760.5999999046326","1","0","2","2","1,0,0,0.25,0.5,0.25,0.25,0.25,0.5","0,1,0,0.5,0.25,0.25,0.25,0.25,0.5","3","",""
"","html-keyboard-response","219","212795","0.0-219.0","","","","","null","<img src=""img/land2.png"" style=""width:200px;border:14px solid red;"">","null","","","","","","","","","",""
"","image-keyboard-response","220","214798","0.0-220.0","","","","","","img/land3.png","","2002.9000000953674","-1","0","3","2","1,0,0,0.25,0.5,0.25,0.25,0.25,0.5","0,1,0,0.5,0.25,0.25,0.25,0.25,0.5","3","",""
"","html-keyboard-response","221","215101","0.0-221.0","","","","","null","<img src=""img/land3.png"" style=""width:200px;border:14px solid red;"">","null","","","","","","","","","",""
"","image-keyboard-response","222","216192","0.0-222.0","","","","","1087.8999996185303","img/land1.png","75","1089.7999997138977","2","1","1","2","1,0,0,0.25,0.5,0.25,0.25,0.25,0.5","0,1,0,0.5,0.25,0.25,0.25,0.25,0.5","3","",""
"","html-keyboard-response","223","216493","0.0-223.0","","","","","null","<img src=""img/land1.png"" style=""width:200px; border:14px solid green;"">","null","","","","","","","","","",""
"","image-keyboard-response","224","218076","0.0-224.0","","","","","1582.3000001907349","img/land1.png","75","1583.3000001907349","2","1","1","2","1,0,0,0.25,0.5,0.25,0.25,0.25,0.5","0,1,0,0.5,0.25,0.25,0.25,0.25,0.5","3","",""
"","html-keyboard-response","225","218378","0.0-225.0","","","","","null","<img src=""img/land1.png"" style=""width:200px; border:14px solid green;"">","null","","","","","","","","","",""
"","image-keyboard-response","226","219150","0.0-226.0","","","","","771.1000003814697","img/land2.png","74","772.0999999046326","1","0","2","2","1,0,0,0.25,0.5,0.25,0.25,0.25,0.5","0,1,0,0.5,0.25,0.25,0.25,0.25,0.5","3","",""
"","html-keyboard-response","227","219452","0.0-227.0","","","","","null","<img src=""img/land2.png"" style=""width:200px;border:14px solid red;"">","null","","","","","","","","","",""
"","image-keyboard-response","228","220281","0.0-228.0","","","","","827.5999999046326","img/land2.png","75","828.5999999046326","2","0","2","2","1,0,0,0.25,0.5,0.25,0.25,0.25,0.5","0,1,0,0.5,0.25,0.25,0.25,0.25,0.5","3","",""
"","html-keyboard-response","229","220584","0.0-229.0","","","","","null","<img src=""img/land2.png"" style=""width:200px;border:14px solid red;"">","null","","","","","","","","","",""
"","image-keyboard-response","230","221869","0.0-230.0","","","","","1282.8000001907349","img/land1.png","75","1283.8000001907349","2","1","1","2","1,0,0,0.25,0.5,0.25,0.25,0.25,0.5","0,1,0,0.5,0.25,0.25,0.25,0.25,0.5","3","",""
"","html-keyboard-response","231","222172","0.0-231.0","","","","","null","<img src=""img/land1.png"" style=""width:200px; border:14px solid green;"">","null","","","","","","","","","",""
"","image-keyboard-response","232","223781","0.0-232.0","","","","","1607.3000001907349","img/land3.png","75","1609.1000003814697","2","0","3","2","1,0,0,0.25,0.5,0.25,0.25,0.25,0.5","0,1,0,0.5,0.25,0.25,0.25,0.25,0.5","3","",""
"","html-keyboard-response","233","224086","0.0-233.0","","","","","null","<img src=""img/land3.png"" style=""width:200px;border:14px solid red;"">","null","","","","","","","","","",""
"","image-keyboard-response","234","226089","0.0-234.0","","","","","","img/land1.png","","2002.5999999046326","-1","0","1","2","1,0,0,0.25,0.5,0.25,0.25,0.25,0.5","0,1,0,0.5,0.25,0.25,0.25,0.25,0.5","3","",""
"","html-keyboard-response","235","226392","0.0-235.0","","","","","null","<img src=""img/land1.png"" style=""width:200px;border:14px solid red;"">","null","","","","","","","","","",""
"","image-keyboard-response","236","226806","0.0-236.0","","","","","412.69999980926514","img/land1.png","75","413.90000009536743","2","1","1","2","1,0,0,0.25,0.5,0.25,0.25,0.25,0.5","0,1,0,0.5,0.25,0.25,0.25,0.25,0.5","3","",""
"","html-keyboard-response","237","227107","0.0-237.0","","","","","null","<img src=""img/land1.png"" style=""width:200px; border:14px solid green;"">","null","","","","","","","","","",""
"","image-keyboard-response","238","229109","0.0-238.0","","","","","","img/land2.png","","2001.2000002861023","-1","0","2","2","1,0,0,0.25,0.5,0.25,0.25,0.25,0.5","0,1,0,0.5,0.25,0.25,0.25,0.25,0.5","3","",""
"","html-keyboard-response","239","229410","0.0-239.0","","","","","null","<img src=""img/land2.png"" style=""width:200px;border:14px solid red;"">","null","","","","","","","","","",""
"","image-keyboard-response","240","230004","0.0-240.0","","","","","592.0999999046326","img/land1.png","75","593.1999998092651","2","1","1","2","1,0,0,0.25,0.5,0.25,0.25,0.25,0.5","0,1,0,0.5,0.25,0.25,0.25,0.25,0.5","3","",""
"","html-keyboard-response","241","230306","0.0-241.0","","","","","null","<img src=""img/land1.png"" style=""width:200px; border:14px solid green;"">","null","","","","","","","","","",""
"","image-keyboard-response","242","232308","0.0-242.0","","","","","","img/land1.png","","2002","-1","0","1","2","1,0,0,0.25,0.5,0.25,0.25,0.25,0.5","0,1,0,0.5,0.25,0.25,0.25,0.25,0.5","3","",""
"","html-keyboard-response","243","232610","0.0-243.0","","","","","null","<img src=""img/land1.png"" style=""width:200px;border:14px solid red;"">","null","","","","","","","","","",""
"","image-keyboard-response","244","233232","0.0-244.0","","","","","620.5","img/land1.png","75","621.5","2","1","1","2","1,0,0,0.25,0.5,0.25,0.25,0.25,0.5","0,1,0,0.5,0.25,0.25,0.25,0.25,0.5","3","",""
"","html-keyboard-response","245","233537","0.0-245.0","","","","","null","<img src=""img/land1.png"" style=""width:200px; border:14px solid green;"">","null","","","","","","","","","",""
"","image-keyboard-response","246","235545","0.0-246.0","","","","","","img/land1.png","","2007.0999999046326","-1","0","1","2","1,0,0,0.25,0.5,0.25,0.25,0.25,0.5","0,1,0,0.5,0.25,0.25,0.25,0.25,0.5","3","",""
"","html-keyboard-response","247","235849","0.0-247.0","","","","","null","<img src=""img/land1.png"" style=""width:200px;border:14px solid red;"">","null","","","","","","","","","",""
"","image-keyboard-response","248","237422","0.0-248.0","","","","","1571","img/land1.png","75","1572.0999999046326","2","1","1","2","1,0,0,0.25,0.5,0.25,0.25,0.25,0.5","0,1,0,0.5,0.25,0.25,0.25,0.25,0.5","3","",""
"","html-keyboard-response","249","237723","0.0-249.0","","","","","null","<img src=""img/land1.png"" style=""width:200px; border:14px solid green;"">","null","","","","","","","","","",""
"","image-keyboard-response","250","239588","0.0-250.0","","","","","1863.6999998092651","img/land1.png","75","1864.7999997138977","2","1","1","2","1,0,0,0.25,0.5,0.25,0.25,0.25,0.5","0,1,0,0.5,0.25,0.25,0.25,0.25,0.5","3","",""
"","html-keyboard-response","251","239890","0.0-251.0","","","","","null","<img src=""img/land1.png"" style=""width:200px; border:14px solid green;"">","null","","","","","","","","","",""
"","image-keyboard-response","252","241412","0.0-252.0","","","","","1519.7999997138977","img/land1.png","75","1522.2999997138977","2","1","1","2","1,0,0,0.25,0.5,0.25,0.25,0.25,0.5","0,1,0,0.5,0.25,0.25,0.25,0.25,0.5","3","",""
"","html-keyboard-response","253","241715","0.0-253.0","","","","","null","<img src=""img/land1.png"" style=""width:200px; border:14px solid green;"">","null","","","","","","","","","",""
"","image-keyboard-response","254","243717","0.0-254.0","","","","","","img/land1.png","","2002.3000001907349","-1","0","1","2","1,0,0,0.25,0.5,0.25,0.25,0.25,0.5","0,1,0,0.5,0.25,0.25,0.25,0.25,0.5","3","",""
"","html-keyboard-response","255","244019","0.0-255.0","","","","","null","<img src=""img/land1.png"" style=""width:200px;border:14px solid red;"">","null","","","","","","","","","",""
"","image-keyboard-response","256","245028","0.0-256.0","","","","","1007.2000002861023","img/land1.png","74","1008.1999998092651","1","0","1","2","1,0,0,0.25,0.5,0.25,0.25,0.25,0.5","0,1,0,0.5,0.25,0.25,0.25,0.25,0.5","3","",""
"","html-keyboard-response","257","245331","0.0-257.0","","","","","null","<img src=""img/land1.png"" style=""width:200px;border:14px solid red;"">","null","","","","","","","","","",""
"","image-keyboard-response","258","245931","0.0-258.0","","","","","599.3000001907349","img/land3.png","74","600.2000002861023","1","0","3","2","1,0,0,0.25,0.5,0.25,0.25,0.25,0.5","0,1,0,0.5,0.25,0.25,0.25,0.25,0.5","3","",""
"","html-keyboard-response","259","246232","0.0-259.0","","","","","null","<img src=""img/land3.png"" style=""width:200px;border:14px solid red;"">","null","","","","","","","","","",""
"","image-keyboard-response","260","247004","0.0-260.0","","","","","770.5999999046326","img/land1.png","74","771.8000001907349","1","0","1","2","1,0,0,0.25,0.5,0.25,0.25,0.25,0.5","0,1,0,0.5,0.25,0.25,0.25,0.25,0.5","3","",""
"","html-keyboard-response","261","247313","0.0-261.0","","","","","null","<img src=""img/land1.png"" style=""width:200px;border:14px solid red;"">","null","","","","","","","","","",""
"","image-keyboard-response","262","247904","0.0-262.0","","","","","589.2999997138977","img/land1.png","74","591.1000003814697","1","0","1","2","1,0,0,0.25,0.5,0.25,0.25,0.25,0.5","0,1,0,0.5,0.25,0.25,0.25,0.25,0.5","3","",""
"","html-keyboard-response","263","248207","0.0-263.0","","","","","null","<img src=""img/land1.png"" style=""width:200px;border:14px solid red;"">","null","","","","","","","","","",""
"","image-keyboard-response","264","250210","0.0-264.0","","","","","","img/land1.png","","2001.8000001907349","-1","0","1","2","1,0,0,0.25,0.5,0.25,0.25,0.25,0.5","0,1,0,0.5,0.25,0.25,0.25,0.25,0.5","3","",""
"","html-keyboard-response","265","250511","0.0-265.0","","","","","null","<img src=""img/land1.png"" style=""width:200px;border:14px solid red;"">","null","","","","","","","","","",""
"","image-keyboard-response","266","250838","0.0-266.0","","","","","325.90000009536743","img/land1.png","75","326.7000002861023","2","1","1","2","1,0,0,0.25,0.5,0.25,0.25,0.25,0.5","0,1,0,0.5,0.25,0.25,0.25,0.25,0.5","3","",""
"","html-keyboard-response","267","251142","0.0-267.0","","","","","null","<img src=""img/land1.png"" style=""width:200px; border:14px solid green;"">","null","","","","","","","","","",""
"","image-keyboard-response","268","252965","0.0-268.0","","","","","1822.1000003814697","img/land1.png","75","1823","2","1","1","2","1,0,0,0.25,0.5,0.25,0.25,0.25,0.5","0,1,0,0.5,0.25,0.25,0.25,0.25,0.5","3","",""
"","html-keyboard-response","269","253266","0.0-269.0","","","","","null","<img src=""img/land1.png"" style=""width:200px; border:14px solid green;"">","null","","","","","","","","","",""
"","image-keyboard-response","270","254555","0.0-270.0","","","","","1283.5999999046326","img/land1.png","75","1288.6999998092651","2","1","1","2","1,0,0,0.25,0.5,0.25,0.25,0.25,0.5","0,1,0,0.5,0.25,0.25,0.25,0.25,0.5","3","",""
"","html-keyboard-response","271","254861","0.0-271.0","","","","","null","<img src=""img/land1.png"" style=""width:200px; border:14px solid green;"">","null","","","","","","","","","",""
"","image-keyboard-response","272","255476","0.0-272.0","","","","","613.6999998092651","img/land1.png","75","614.8000001907349","2","1","1","2","1,0,0,0.25,0.5,0.25,0.25,0.25,0.5","0,1,0,0.5,0.25,0.25,0.25,0.25,0.5","3","",""
"","html-keyboard-response","273","255777","0.0-273.0","","","","","null","<img src=""img/land1.png"" style=""width:200px; border:14px solid green;"">","null","","","","","","","","","",""
"","image-keyboard-response","274","257025","0.0-274.0","","","","","1246.9000000953674","img/land2.png","75","1248","2","0","2","2","1,0,0,0.25,0.5,0.25,0.25,0.25,0.5","0,1,0,0.5,0.25,0.25,0.25,0.25,0.5","3","",""
"","html-keyboard-response","275","257327","0.0-275.0","","","","","null","<img src=""img/land2.png"" style=""width:200px;border:14px solid red;"">","null","","","","","","","","","",""
"","image-keyboard-response","276","258078","0.0-276.0","","","","","749.5999999046326","img/land1.png","75","750.5","2","1","1","2","1,0,0,0.25,0.5,0.25,0.25,0.25,0.5","0,1,0,0.5,0.25,0.25,0.25,0.25,0.5","3","",""
"","html-keyboard-response","277","258379","0.0-277.0","","","","","null","<img src=""img/land1.png"" style=""width:200px; border:14px solid green;"">","null","","","","","","","","","",""
"","image-keyboard-response","278","260382","0.0-278.0","","","","","","img/land3.png","","2002.4000000953674","-1","0","3","2","1,0,0,0.25,0.5,0.25,0.25,0.25,0.5","0,1,0,0.5,0.25,0.25,0.25,0.25,0.5","3","",""
"","html-keyboard-response","279","260683","0.0-279.0","","","","","null","<img src=""img/land3.png"" style=""width:200px;border:14px solid red;"">","null","","","","","","","","","",""
"","image-keyboard-response","280","262308","0.0-280.0","","","","","1624.1000003814697","img/land3.png","75","1625","2","0","3","2","1,0,0,0.25,0.5,0.25,0.25,0.25,0.5","0,1,0,0.5,0.25,0.25,0.25,0.25,0.5","3","",""
"","html-keyboard-response","281","262610","0.0-281.0","","","","","null","<img src=""img/land3.png"" style=""width:200px;border:14px solid red;"">","null","","","","","","","","","",""
"","image-keyboard-response","282","263225","0.0-282.0","","","","","614.1999998092651","img/land1.png","75","615.2999997138977","2","1","1","2","1,0,0,0.25,0.5,0.25,0.25,0.25,0.5","0,1,0,0.5,0.25,0.25,0.25,0.25,0.5","3","",""
"","html-keyboard-response","283","263528","0.0-283.0","","","","","null","<img src=""img/land1.png"" style=""width:200px; border:14px solid green;"">","null","","","","","","","","","",""
"","image-keyboard-response","284","264371","0.0-284.0","","","","","836.9000000953674","img/land1.png","75","838.9000000953674","2","1","1","2","1,0,0,0.25,0.5,0.25,0.25,0.25,0.5","0,1,0,0.5,0.25,0.25,0.25,0.25,0.5","3","",""
"","html-keyboard-response","285","264673","0.0-285.0","","","","","null","<img src=""img/land1.png"" style=""width:200px; border:14px solid green;"">","null","","","","","","","","","",""
"","image-keyboard-response","286","265450","0.0-286.0","","","","","776.0999999046326","img/land3.png","75","776.9000000953674","2","1","3","2","1,0,0,0.25,0.5,0.25,0.25,0.25,0.5","0,1,0,0.5,0.25,0.25,0.25,0.25,0.5","3","",""
"","html-keyboard-response","287","265751","0.0-287.0","","","","","null","<img src=""img/land3.png"" style=""width:200px; border:14px solid green;"">","null","","","","","","","","","",""
"","image-keyboard-response","288","266558","0.0-288.0","","","","","805.4000000953674","img/land1.png","75","806.2000002861023","2","1","1","2","1,0,0,0.25,0.5,0.25,0.25,0.25,0.5","0,1,0,0.5,0.25,0.25,0.25,0.25,0.5","3","",""
"","html-keyboard-response","289","266860","0.0-289.0","","","","","null","<img src=""img/land1.png"" style=""width:200px; border:14px solid green;"">","null","","","","","","","","","",""
"","image-keyboard-response","290","267905","0.0-290.0","","","","","1044.6000003814697","img/land1.png","75","1045.8000001907349","2","1","1","2","1,0,0,0.25,0.5,0.25,0.25,0.25,0.5","0,1,0,0.5,0.25,0.25,0.25,0.25,0.5","3","",""
"","html-keyboard-response","291","268207","0.0-291.0","","","","","null","<img src=""img/land1.png"" style=""width:200px; border:14px solid green;"">","null","","","","","","","","","",""
"","image-keyboard-response","292","269074","0.0-292.0","","","","","866","img/land1.png","75","867.0999999046326","2","1","1","2","1,0,0,0.25,0.5,0.25,0.25,0.25,0.5","0,1,0,0.5,0.25,0.25,0.25,0.25,0.5","3","",""
"","html-keyboard-response","293","269377","0.0-293.0","","","","","null","<img src=""img/land1.png"" style=""width:200px; border:14px solid green;"">","null","","","","","","","","","",""
"","image-keyboard-response","294","270460","0.0-294.0","","","","","1081.8999996185303","img/land2.png","75","1083","2","1","2","2","1,0,0,0.25,0.5,0.25,0.25,0.25,0.5","0,1,0,0.5,0.25,0.25,0.25,0.25,0.5","3","",""
"","html-keyboard-response","295","270762","0.0-295.0","","","","","null","<img src=""img/land2.png"" style=""width:200px; border:14px solid green;"">","null","","","","","","","","","",""
"","image-keyboard-response","296","271871","0.0-296.0","","","","","1107.8000001907349","img/land1.png","75","1108.9000000953674","2","1","1","2","1,0,0,0.25,0.5,0.25,0.25,0.25,0.5","0,1,0,0.5,0.25,0.25,0.25,0.25,0.5","3","",""
"","html-keyboard-response","297","272172","0.0-297.0","","","","","null","<img src=""img/land1.png"" style=""width:200px; border:14px solid green;"">","null","","","","","","","","","",""
"","image-keyboard-response","298","273634","0.0-298.0","","","","","1461.1999998092651","img/land1.png","75","1462.4000000953674","2","1","1","2","1,0,0,0.25,0.5,0.25,0.25,0.25,0.5","0,1,0,0.5,0.25,0.25,0.25,0.25,0.5","3","",""
"","html-keyboard-response","299","273936","0.0-299.0","","","","","null","<img src=""img/land1.png"" style=""width:200px; border:14px solid green;"">","null","","","","","","","","","",""
"","image-keyboard-response","300","275245","0.0-300.0","","","","","1307.3999996185303","img/land1.png","75","1308.3999996185303","2","1","1","2","1,0,0,0.25,0.5,0.25,0.25,0.25,0.5","0,1,0,0.5,0.25,0.25,0.25,0.25,0.5","3","",""
"","html-keyboard-response","301","275546","0.0-301.0","","","","","null","<img src=""img/land1.png"" style=""width:200px; border:14px solid green;"">","null","","","","","","","","","",""
"","image-keyboard-response","302","277548","0.0-302.0","","","","","","img/land4.png","","2001.1999998092651","-1","0","1","1","1,0,0,0.25,0.5,0.25,0.25,0.25,0.5","0,1,0,0.5,0.25,0.25,0.25,0.25,0.5","3","",""
"","html-keyboard-response","303","277850","0.0-303.0","","","","","null","<img src=""img/land4.png"" style=""width:200px;border:14px solid red;"">","null","","","","","","","","","",""
"","image-keyboard-response","304","279283","0.0-304.0","","","","","1432","img/land4.png","74","1433.0999999046326","1","0","1","1","1,0,0,0.25,0.5,0.25,0.25,0.25,0.5","0,1,0,0.5,0.25,0.25,0.25,0.25,0.5","3","",""
"","html-keyboard-response","305","279585","0.0-305.0","","","","","null","<img src=""img/land4.png"" style=""width:200px;border:14px solid red;"">","null","","","","","","","","","",""
"","image-keyboard-response","306","280380","0.0-306.0","","","","","794","img/land6.png","75","794.7999997138977","2","1","3","1","1,0,0,0.25,0.5,0.25,0.25,0.25,0.5","0,1,0,0.5,0.25,0.25,0.25,0.25,0.5","3","",""
"","html-keyboard-response","307","280682","0.0-307.0","","","","","null","<img src=""img/land6.png"" style=""width:200px; border:14px solid green;"">","null","","","","","","","","","",""
"","image-keyboard-response","308","281306","0.0-308.0","","","","","623.1999998092651","img/land6.png","76","624.0999999046326","3","0","3","1","1,0,0,0.25,0.5,0.25,0.25,0.25,0.5","0,1,0,0.5,0.25,0.25,0.25,0.25,0.5","3","",""
"","html-keyboard-response","309","281608","0.0-309.0","","","","","null","<img src=""img/land6.png"" style=""width:200px;border:14px solid red;"">","null","","","","","","","","","",""
"","image-keyboard-response","310","282875","0.0-310.0","","","","","1265.3000001907349","img/land6.png","74","1266.3000001907349","1","0","3","1","1,0,0,0.25,0.5,0.25,0.25,0.25,0.5","0,1,0,0.5,0.25,0.25,0.25,0.25,0.5","3","",""
"","html-keyboard-response","311","283176","0.0-311.0","","","","","null","<img src=""img/land6.png"" style=""width:200px;border:14px solid red;"">","null","","","","","","","","","",""
"","image-keyboard-response","312","283872","0.0-312.0","","","","","692.9000000953674","img/land6.png","75","694.5999999046326","2","0","3","1","1,0,0,0.25,0.5,0.25,0.25,0.25,0.5","0,1,0,0.5,0.25,0.25,0.25,0.25,0.5","3","",""
"","html-keyboard-response","313","284174","0.0-313.0","","","","","null","<img src=""img/land6.png"" style=""width:200px;border:14px solid red;"">","null","","","","","","","","","",""
"","image-keyboard-response","314","284606","0.0-314.0","","","","","430.5","img/land6.png","75","431.59999990463257","2","0","3","1","1,0,0,0.25,0.5,0.25,0.25,0.25,0.5","0,1,0,0.5,0.25,0.25,0.25,0.25,0.5","3","",""
"","html-keyboard-response","315","284915","0.0-315.0","","","","","null","<img src=""img/land6.png"" style=""width:200px;border:14px solid red;"">","null","","","","","","","","","",""
"","image-keyboard-response","316","285329","0.0-316.0","","","","","407.3999996185303","img/land6.png","76","413.19999980926514","3","0","3","1","1,0,0,0.25,0.5,0.25,0.25,0.25,0.5","0,1,0,0.5,0.25,0.25,0.25,0.25,0.5","3","",""
"","html-keyboard-response","317","285633","0.0-317.0","","","","","null","<img src=""img/land6.png"" style=""width:200px;border:14px solid red;"">","null","","","","","","","","","",""
"","image-keyboard-response","318","286093","0.0-318.0","","","","","459.09999990463257","img/land6.png","74","460.2000002861023","1","0","3","1","1,0,0,0.25,0.5,0.25,0.25,0.25,0.5","0,1,0,0.5,0.25,0.25,0.25,0.25,0.5","3","",""
"","html-keyboard-response","319","286397","0.0-319.0","","","","","null","<img src=""img/land6.png"" style=""width:200px;border:14px solid red;"">","null","","","","","","","","","",""
"","image-keyboard-response","320","287045","0.0-320.0","","","","","646.4000000953674","img/land5.png","75","647.5","2","0","2","1","1,0,0,0.25,0.5,0.25,0.25,0.25,0.5","0,1,0,0.5,0.25,0.25,0.25,0.25,0.5","3","",""
"","html-keyboard-response","321","287348","0.0-321.0","","","","","null","<img src=""img/land5.png"" style=""width:200px;border:14px solid red;"">","null","","","","","","","","","",""
"","image-keyboard-response","322","288892","0.0-322.0","","","","","1543.3000001907349","img/land6.png","75","1544.5999999046326","2","0","3","1","1,0,0,0.25,0.5,0.25,0.25,0.25,0.5","0,1,0,0.5,0.25,0.25,0.25,0.25,0.5","3","",""
"","html-keyboard-response","323","289195","0.0-323.0","","","","","null","<img src=""img/land6.png"" style=""width:200px;border:14px solid red;"">","null","","","","","","","","","",""
"","image-keyboard-response","324","290360","0.0-324.0","","","","","1163.1999998092651","img/land5.png","74","1164.4000000953674","1","0","2","1","1,0,0,0.25,0.5,0.25,0.25,0.25,0.5","0,1,0,0.5,0.25,0.25,0.25,0.25,0.5","3","",""
"","html-keyboard-response","325","290662","0.0-325.0","","","","","null","<img src=""img/land5.png"" style=""width:200px;border:14px solid red;"">","null","","","","","","","","","",""
"","image-keyboard-response","326","292188","0.0-326.0","","","","","1524.7000002861023","img/land5.png","74","1526.2999997138977","1","0","2","1","1,0,0,0.25,0.5,0.25,0.25,0.25,0.5","0,1,0,0.5,0.25,0.25,0.25,0.25,0.5","3","",""
"","html-keyboard-response","327","292490","0.0-327.0","","","","","null","<img src=""img/land5.png"" style=""width:200px;border:14px solid red;"">","null","","","","","","","","","",""
"","image-keyboard-response","328","293748","0.0-328.0","","","","","1255.9000000953674","img/land4.png","75","1257.1999998092651","2","1","1","1","1,0,0,0.25,0.5,0.25,0.25,0.25,0.5","0,1,0,0.5,0.25,0.25,0.25,0.25,0.5","3","",""
"","html-keyboard-response","329","294049","0.0-329.0","","","","","null","<img src=""img/land4.png"" style=""width:200px; border:14px solid green;"">","null","","","","","","","","","",""
"","image-keyboard-response","330","295349","0.0-330.0","","","","","1299","img/land6.png","74","1300","1","0","3","1","1,0,0,0.25,0.5,0.25,0.25,0.25,0.5","0,1,0,0.5,0.25,0.25,0.25,0.25,0.5","3","",""
"","html-keyboard-response","331","295652","0.0-331.0","","","","","null","<img src=""img/land6.png"" style=""width:200px;border:14px solid red;"">","null","","","","","","","","","",""
"","image-keyboard-response","332","296651","0.0-332.0","","","","","998.2000002861023","img/land6.png","75","999","2","0","3","1","1,0,0,0.25,0.5,0.25,0.25,0.25,0.5","0,1,0,0.5,0.25,0.25,0.25,0.25,0.5","3","",""
"","html-keyboard-response","333","296954","0.0-333.0","","","","","null","<img src=""img/land6.png"" style=""width:200px;border:14px solid red;"">","null","","","","","","","","","",""
"","image-keyboard-response","334","298143","0.0-334.0","","","","","1187.6000003814697","img/land5.png","76","1188.5999999046326","3","0","2","1","1,0,0,0.25,0.5,0.25,0.25,0.25,0.5","0,1,0,0.5,0.25,0.25,0.25,0.25,0.5","3","",""
"","html-keyboard-response","335","298447","0.0-335.0","","","","","null","<img src=""img/land5.png"" style=""width:200px;border:14px solid red;"">","null","","","","","","","","","",""
"","image-keyboard-response","336","299534","0.0-336.0","","","","","1085.3000001907349","img/land4.png","75","1086.5999999046326","2","1","1","1","1,0,0,0.25,0.5,0.25,0.25,0.25,0.5","0,1,0,0.5,0.25,0.25,0.25,0.25,0.5","3","",""
"","html-keyboard-response","337","299836","0.0-337.0","","","","","null","<img src=""img/land4.png"" style=""width:200px; border:14px solid green;"">","null","","","","","","","","","",""
"","image-keyboard-response","338","301838","0.0-338.0","","","","","","img/land5.png","","2002","-1","0","2","1","1,0,0,0.25,0.5,0.25,0.25,0.25,0.5","0,1,0,0.5,0.25,0.25,0.25,0.25,0.5","3","",""
"","html-keyboard-response","339","302140","0.0-339.0","","","","","null","<img src=""img/land5.png"" style=""width:200px;border:14px solid red;"">","null","","","","","","","","","",""
"","image-keyboard-response","340","302735","0.0-340.0","","","","","593.2000002861023","img/land4.png","75","594.6999998092651","2","1","1","1","1,0,0,0.25,0.5,0.25,0.25,0.25,0.5","0,1,0,0.5,0.25,0.25,0.25,0.25,0.5","3","",""
"","html-keyboard-response","341","303037","0.0-341.0","","","","","null","<img src=""img/land4.png"" style=""width:200px; border:14px solid green;"">","null","","","","","","","","","",""
"","image-keyboard-response","342","305039","0.0-342.0","","","","","","img/land4.png","","2001.6999998092651","-1","0","1","1","1,0,0,0.25,0.5,0.25,0.25,0.25,0.5","0,1,0,0.5,0.25,0.25,0.25,0.25,0.5","3","",""
"","html-keyboard-response","343","305342","0.0-343.0","","","","","null","<img src=""img/land4.png"" style=""width:200px;border:14px solid red;"">","null","","","","","","","","","",""
"","image-keyboard-response","344","307278","0.0-344.0","","","","","1928.7999997138977","img/land4.png","75","1936.3000001907349","2","1","1","1","1,0,0,0.25,0.5,0.25,0.25,0.25,0.5","0,1,0,0.5,0.25,0.25,0.25,0.25,0.5","3","",""
"","html-keyboard-response","345","307585","0.0-345.0","","","","","null","<img src=""img/land4.png"" style=""width:200px; border:14px solid green;"">","null","","","","","","","","","",""
"","image-keyboard-response","346","309587","0.0-346.0","","","","","","img/land4.png","","2001.7999997138977","-1","0","1","1","1,0,0,0.25,0.5,0.25,0.25,0.25,0.5","0,1,0,0.5,0.25,0.25,0.25,0.25,0.5","3","",""
"","html-keyboard-response","347","309889","0.0-347.0","","","","","null","<img src=""img/land4.png"" style=""width:200px;border:14px solid red;"">","null","","","","","","","","","",""
"","image-keyboard-response","348","310002","0.0-348.0","","","","","103.19999980926514","img/land6.png","74","113.10000038146973","1","0","3","1","1,0,0,0.25,0.5,0.25,0.25,0.25,0.5","0,1,0,0.5,0.25,0.25,0.25,0.25,0.5","3","",""
"","html-keyboard-response","349","310305","0.0-349.0","","","","","null","<img src=""img/land6.png"" style=""width:200px;border:14px solid red;"">","null","","","","","","","","","",""
"","image-keyboard-response","350","311582","0.0-350.0","","","","","1274.5999999046326","img/land4.png","75","1276.8999996185303","2","1","1","1","1,0,0,0.25,0.5,0.25,0.25,0.25,0.5","0,1,0,0.5,0.25,0.25,0.25,0.25,0.5","3","",""
"","html-keyboard-response","351","311886","0.0-351.0","","","","","null","<img src=""img/land4.png"" style=""width:200px; border:14px solid green;"">","null","","","","","","","","","",""
"","image-keyboard-response","352","313888","0.0-352.0","","","","","","img/land5.png","","2002.0999999046326","-1","0","2","1","1,0,0,0.25,0.5,0.25,0.25,0.25,0.5","0,1,0,0.5,0.25,0.25,0.25,0.25,0.5","3","",""
"","html-keyboard-response","353","314189","0.0-353.0","","","","","null","<img src=""img/land5.png"" style=""width:200px;border:14px solid red;"">","null","","","","","","","","","",""
"","image-keyboard-response","354","314794","0.0-354.0","","","","","603.9000000953674","img/land6.png","75","604.8000001907349","2","0","3","1","1,0,0,0.25,0.5,0.25,0.25,0.25,0.5","0,1,0,0.5,0.25,0.25,0.25,0.25,0.5","3","",""
"","html-keyboard-response","355","315095","0.0-355.0","","","","","null","<img src=""img/land6.png"" style=""width:200px;border:14px solid red;"">","null","","","","","","","","","",""
"","image-keyboard-response","356","316057","0.0-356.0","","","","","959.1999998092651","img/land4.png","74","961","1","0","1","1","1,0,0,0.25,0.5,0.25,0.25,0.25,0.5","0,1,0,0.5,0.25,0.25,0.25,0.25,0.5","3","",""
"","html-keyboard-response","357","316365","0.0-357.0","","","","","null","<img src=""img/land4.png"" style=""width:200px;border:14px solid red;"">","null","","","","","","","","","",""
"","image-keyboard-response","358","318367","0.0-358.0","","","","","","img/land6.png","","2001.7000002861023","-1","0","3","1","1,0,0,0.25,0.5,0.25,0.25,0.25,0.5","0,1,0,0.5,0.25,0.25,0.25,0.25,0.5","3","",""
"","html-keyboard-response","359","318668","0.0-359.0","","","","","null","<img src=""img/land6.png"" style=""width:200px;border:14px solid red;"">","null","","","","","","","","","",""
"","image-keyboard-response","360","320669","0.0-360.0","","","","","","img/land4.png","","2001.1999998092651","-1","0","1","1","1,0,0,0.25,0.5,0.25,0.25,0.25,0.5","0,1,0,0.5,0.25,0.25,0.25,0.25,0.5","3","",""
"","html-keyboard-response","361","320971","0.0-361.0","","","","","null","<img src=""img/land4.png"" style=""width:200px;border:14px solid red;"">","null","","","","","","","","","",""
"","image-keyboard-response","362","321994","0.0-362.0","","","","","1022.1000003814697","img/land6.png","76","1022.9000000953674","3","0","3","1","1,0,0,0.25,0.5,0.25,0.25,0.25,0.5","0,1,0,0.5,0.25,0.25,0.25,0.25,0.5","3","",""
"","html-keyboard-response","363","322296","0.0-363.0","","","","","null","<img src=""img/land6.png"" style=""width:200px;border:14px solid red;"">","null","","","","","","","","","",""
"","image-keyboard-response","364","323080","0.0-364.0","","","","","783","img/land4.png","74","784.1999998092651","1","0","1","1","1,0,0,0.25,0.5,0.25,0.25,0.25,0.5","0,1,0,0.5,0.25,0.25,0.25,0.25,0.5","3","",""
"","html-keyboard-response","365","323382","0.0-365.0","","","","","null","<img src=""img/land4.png"" style=""width:200px;border:14px solid red;"">","null","","","","","","","","","",""
"","image-keyboard-response","366","324343","0.0-366.0","","","","","959.5","img/land4.png","75","960.5","2","1","1","1","1,0,0,0.25,0.5,0.25,0.25,0.25,0.5","0,1,0,0.5,0.25,0.25,0.25,0.25,0.5","3","",""
"","html-keyboard-response","367","324645","0.0-367.0","","","","","null","<img src=""img/land4.png"" style=""width:200px; border:14px solid green;"">","null","","","","","","","","","",""
"","image-keyboard-response","368","326138","0.0-368.0","","","","","1491.5999999046326","img/land4.png","75","1492.7999997138977","2","1","1","1","1,0,0,0.25,0.5,0.25,0.25,0.25,0.5","0,1,0,0.5,0.25,0.25,0.25,0.25,0.5","3","",""
"","html-keyboard-response","369","326440","0.0-369.0","","","","","null","<img src=""img/land4.png"" style=""width:200px; border:14px solid green;"">","null","","","","","","","","","",""
"","image-keyboard-response","370","328442","0.0-370.0","","","","","","img/land5.png","","2002.1999998092651","-1","0","2","1","1,0,0,0.25,0.5,0.25,0.25,0.25,0.5","0,1,0,0.5,0.25,0.25,0.25,0.25,0.5","3","",""
"","html-keyboard-response","371","328745","0.0-371.0","","","","","null","<img src=""img/land5.png"" style=""width:200px;border:14px solid red;"">","null","","","","","","","","","",""
"","image-keyboard-response","372","329928","0.0-372.0","","","","","1180.0999999046326","img/land5.png","75","1183.2000002861023","2","1","2","1","1,0,0,0.25,0.5,0.25,0.25,0.25,0.5","0,1,0,0.5,0.25,0.25,0.25,0.25,0.5","3","",""
"","html-keyboard-response","373","330230","0.0-373.0","","","","","null","<img src=""img/land5.png"" style=""width:200px; border:14px solid green;"">","null","","","","","","","","","",""
"","image-keyboard-response","374","331907","0.0-374.0","","","","","1675.8000001907349","img/land6.png","76","1676.5999999046326","3","1","3","1","1,0,0,0.25,0.5,0.25,0.25,0.25,0.5","0,1,0,0.5,0.25,0.25,0.25,0.25,0.5","3","",""
"","html-keyboard-response","375","332208","0.0-375.0","","","","","null","<img src=""img/land6.png"" style=""width:200px; border:14px solid green;"">","null","","","","","","","","","",""
"","image-keyboard-response","376","334210","0.0-376.0","","","","","","img/land6.png","","2001.4000000953674","-1","0","3","1","1,0,0,0.25,0.5,0.25,0.25,0.25,0.5","0,1,0,0.5,0.25,0.25,0.25,0.25,0.5","3","",""
"","html-keyboard-response","377","334515","0.0-377.0","","","","","null","<img src=""img/land6.png"" style=""width:200px;border:14px solid red;"">","null","","","","","","","","","",""
"","image-keyboard-response","378","335436","0.0-378.0","","","","","918.6999998092651","img/land5.png","75","920.2999997138977","2","0","2","1","1,0,0,0.25,0.5,0.25,0.25,0.25,0.5","0,1,0,0.5,0.25,0.25,0.25,0.25,0.5","3","",""
"","html-keyboard-response","379","335740","0.0-379.0","","","","","null","<img src=""img/land5.png"" style=""width:200px;border:14px solid red;"">","null","","","","","","","","","",""
"","image-keyboard-response","380","337002","0.0-380.0","","","","","1258.5999999046326","img/land6.png","74","1261.2999997138977","1","0","3","1","1,0,0,0.25,0.5,0.25,0.25,0.25,0.5","0,1,0,0.5,0.25,0.25,0.25,0.25,0.5","3","",""
"","html-keyboard-response","381","337305","0.0-381.0","","","","","null","<img src=""img/land6.png"" style=""width:200px;border:14px solid red;"">","null","","","","","","","","","",""
"","image-keyboard-response","382","339306","0.0-382.0","","","","","","img/land5.png","","2001.4000000953674","-1","0","2","1","1,0,0,0.25,0.5,0.25,0.25,0.25,0.5","0,1,0,0.5,0.25,0.25,0.25,0.25,0.5","3","",""
"","html-keyboard-response","383","339608","0.0-383.0","","","","","null","<img src=""img/land5.png"" style=""width:200px;border:14px solid red;"">","null","","","","","","","","","",""
"","image-keyboard-response","384","340019","0.0-384.0","","","","","410.2000002861023","img/land6.png","74","411.30000019073486","1","0","3","1","1,0,0,0.25,0.5,0.25,0.25,0.25,0.5","0,1,0,0.5,0.25,0.25,0.25,0.25,0.5","3","",""
"","html-keyboard-response","385","340322","0.0-385.0","","","","","null","<img src=""img/land6.png"" style=""width:200px;border:14px solid red;"">","null","","","","","","","","","",""
"","image-keyboard-response","386","342323","0.0-386.0","","","","","","img/land5.png","","2001.1999998092651","-1","0","2","1","1,0,0,0.25,0.5,0.25,0.25,0.25,0.5","0,1,0,0.5,0.25,0.25,0.25,0.25,0.5","3","",""
"","html-keyboard-response","387","342625","0.0-387.0","","","","","null","<img src=""img/land5.png"" style=""width:200px;border:14px solid red;"">","null","","","","","","","","","",""
"","image-keyboard-response","388","343995","0.0-388.0","","","","","1369.5","img/land4.png","74","1370.4000000953674","1","0","1","1","1,0,0,0.25,0.5,0.25,0.25,0.25,0.5","0,1,0,0.5,0.25,0.25,0.25,0.25,0.5","3","",""
"","html-keyboard-response","389","344297","0.0-389.0","","","","","null","<img src=""img/land4.png"" style=""width:200px;border:14px solid red;"">","null","","","","","","","","","",""
"","image-keyboard-response","390","346298","0.0-390.0","","","","","","img/land5.png","","2001.5999999046326","-1","0","2","1","1,0,0,0.25,0.5,0.25,0.25,0.25,0.5","0,1,0,0.5,0.25,0.25,0.25,0.25,0.5","3","",""
"","html-keyboard-response","391","346600","0.0-391.0","","","","","null","<img src=""img/land5.png"" style=""width:200px;border:14px solid red;"">","null","","","","","","","","","",""
"","image-keyboard-response","392","348602","0.0-392.0","","","","","","img/land4.png","","2001.7999997138977","-1","0","1","1","1,0,0,0.25,0.5,0.25,0.25,0.25,0.5","0,1,0,0.5,0.25,0.25,0.25,0.25,0.5","3","",""
"","html-keyboard-response","393","348906","0.0-393.0","","","","","null","<img src=""img/land4.png"" style=""width:200px;border:14px solid red;"">","null","","","","","","","","","",""
"","image-keyboard-response","394","348962","0.0-394.0","","","","","52.40000009536743","img/land5.png","74","54.69999980926514","1","0","2","1","1,0,0,0.25,0.5,0.25,0.25,0.25,0.5","0,1,0,0.5,0.25,0.25,0.25,0.25,0.5","3","",""
"","html-keyboard-response","395","349265","0.0-395.0","","","","","null","<img src=""img/land5.png"" style=""width:200px;border:14px solid red;"">","null","","","","","","","","","",""
"","image-keyboard-response","396","350274","0.0-396.0","","","","","1007.5999999046326","img/land5.png","74","1008.9000000953674","1","1","2","1","1,0,0,0.25,0.5,0.25,0.25,0.25,0.5","0,1,0,0.5,0.25,0.25,0.25,0.25,0.5","3","",""
"","html-keyboard-response","397","350576","0.0-397.0","","","","","null","<img src=""img/land5.png"" style=""width:200px; border:14px solid green;"">","null","","","","","","","","","",""
"","image-keyboard-response","398","352342","0.0-398.0","","","","","1764.9000000953674","img/land4.png","75","1766.0999999046326","2","1","1","1","1,0,0,0.25,0.5,0.25,0.25,0.25,0.5","0,1,0,0.5,0.25,0.25,0.25,0.25,0.5","3","",""
"","html-keyboard-response","399","352645","0.0-399.0","","","","","null","<img src=""img/land4.png"" style=""width:200px; border:14px solid green;"">","null","","","","","","","","","",""
"","image-keyboard-response","400","354647","0.0-400.0","","","","","","img/land4.png","","2002.0999999046326","-1","0","1","1","1,0,0,0.25,0.5,0.25,0.25,0.25,0.5","0,1,0,0.5,0.25,0.25,0.25,0.25,0.5","3","",""
"","html-keyboard-response","401","354949","0.0-401.0","","","","","null","<img src=""img/land4.png"" style=""width:200px;border:14px solid red;"">","null","","","","","","","","","",""
"","image-keyboard-response","402","355895","0.0-402.0","","","","","944.2999997138977","img/land5.png","75","945.9000000953674","2","0","2","1","1,0,0,0.25,0.5,0.25,0.25,0.25,0.5","0,1,0,0.5,0.25,0.25,0.25,0.25,0.5","3","",""
"","html-keyboard-response","403","356199","0.0-403.0","","","","","null","<img src=""img/land5.png"" style=""width:200px;border:14px solid red;"">","null","","","","","","","","","",""
"","image-keyboard-response","404","356975","0.0-404.0","","","","","774.5","img/land5.png","74","776.0999999046326","1","0","2","1","1,0,0,0.25,0.5,0.25,0.25,0.25,0.5","0,1,0,0.5,0.25,0.25,0.25,0.25,0.5","3","",""
"","html-keyboard-response","405","357277","0.0-405.0","","","","","null","<img src=""img/land5.png"" style=""width:200px;border:14px solid red;"">","null","","","","","","","","","",""
"","image-keyboard-response","406","358732","0.0-406.0","","","","","1453.0999999046326","img/land6.png","74","1454.0999999046326","1","0","3","1","1,0,0,0.25,0.5,0.25,0.25,0.25,0.5","0,1,0,0.5,0.25,0.25,0.25,0.25,0.5","3","",""
"","html-keyboard-response","407","359033","0.0-407.0","","","","","null","<img src=""img/land6.png"" style=""width:200px;border:14px solid red;"">","null","","","","","","","","","",""
"","image-keyboard-response","408","361035","0.0-408.0","","","","","","img/land5.png","","2001.5999999046326","-1","0","2","1","1,0,0,0.25,0.5,0.25,0.25,0.25,0.5","0,1,0,0.5,0.25,0.25,0.25,0.25,0.5","3","",""
"","html-keyboard-response","409","361337","0.0-409.0","","","","","null","<img src=""img/land5.png"" style=""width:200px;border:14px solid red;"">","null","","","","","","","","","",""
"","image-keyboard-response","410","362973","0.0-410.0","","","","","1634.4000000953674","img/land5.png","74","1635.4000000953674","1","0","2","1","1,0,0,0.25,0.5,0.25,0.25,0.25,0.5","0,1,0,0.5,0.25,0.25,0.25,0.25,0.5","3","",""
"","html-keyboard-response","411","363274","0.0-411.0","","","","","null","<img src=""img/land5.png"" style=""width:200px;border:14px solid red;"">","null","","","","","","","","","",""
"","image-keyboard-response","412","365276","0.0-412.0","","","","","","img/land4.png","","2001.6999998092651","-1","0","1","1","1,0,0,0.25,0.5,0.25,0.25,0.25,0.5","0,1,0,0.5,0.25,0.25,0.25,0.25,0.5","3","",""
"","html-keyboard-response","413","365578","0.0-413.0","","","","","null","<img src=""img/land4.png"" style=""width:200px;border:14px solid red;"">","null","","","","","","","","","",""
"","image-keyboard-response","414","367580","0.0-414.0","","","","","","img/land5.png","","2002.8000001907349","-1","0","2","1","1,0,0,0.25,0.5,0.25,0.25,0.25,0.5","0,1,0,0.5,0.25,0.25,0.25,0.25,0.5","3","",""
"","html-keyboard-response","415","367891","0.0-415.0","","","","","null","<img src=""img/land5.png"" style=""width:200px;border:14px solid red;"">","null","","","","","","","","","",""
"","image-keyboard-response","416","369894","0.0-416.0","","","","","","img/land6.png","","2002.1999998092651","-1","0","3","1","1,0,0,0.25,0.5,0.25,0.25,0.25,0.5","0,1,0,0.5,0.25,0.25,0.25,0.25,0.5","3","",""
"","html-keyboard-response","417","370196","0.0-417.0","","","","","null","<img src=""img/land6.png"" style=""width:200px;border:14px solid red;"">","null","","","","","","","","","",""
"","image-keyboard-response","418","372205","0.0-418.0","","","","","","img/land5.png","","2009.0999999046326","-1","0","2","1","1,0,0,0.25,0.5,0.25,0.25,0.25,0.5","0,1,0,0.5,0.25,0.25,0.25,0.25,0.5","3","",""
"","html-keyboard-response","419","372507","0.0-419.0","","","","","null","<img src=""img/land5.png"" style=""width:200px;border:14px solid red;"">","null","","","","","","","","","",""
"","image-keyboard-response","420","373148","0.0-420.0","","","","","639.8999996185303","img/land6.png","74","640.9000000953674","1","0","3","1","1,0,0,0.25,0.5,0.25,0.25,0.25,0.5","0,1,0,0.5,0.25,0.25,0.25,0.25,0.5","3","",""
"","html-keyboard-response","421","373450","0.0-421.0","","","","","null","<img src=""img/land6.png"" style=""width:200px;border:14px solid red;"">","null","","","","","","","","","",""
"","image-keyboard-response","422","374423","0.0-422.0","","","","","971.3000001907349","img/land4.png","75","972.5","2","1","1","1","1,0,0,0.25,0.5,0.25,0.25,0.25,0.5","0,1,0,0.5,0.25,0.25,0.25,0.25,0.5","3","",""
"","html-keyboard-response","423","374728","0.0-423.0","","","","","null","<img src=""img/land4.png"" style=""width:200px; border:14px solid green;"">","null","","","","","","","","","",""
"","image-keyboard-response","424","375653","0.0-424.0","","","","","923.8000001907349","img/land4.png","75","924.7000002861023","2","1","1","1","1,0,0,0.25,0.5,0.25,0.25,0.25,0.5","0,1,0,0.5,0.25,0.25,0.25,0.25,0.5","3","",""
"","html-keyboard-response","425","375955","0.0-425.0","","","","","null","<img src=""img/land4.png"" style=""width:200px; border:14px solid green;"">","null","","","","","","","","","",""
"","image-keyboard-response","426","376704","0.0-426.0","","","","","747.7000002861023","img/land4.png","74","748.8000001907349","1","0","1","1","1,0,0,0.25,0.5,0.25,0.25,0.25,0.5","0,1,0,0.5,0.25,0.25,0.25,0.25,0.5","3","",""
"","html-keyboard-response","427","377006","0.0-427.0","","","","","null","<img src=""img/land4.png"" style=""width:200px;border:14px solid red;"">","null","","","","","","","","","",""
"","image-keyboard-response","428","379008","0.0-428.0","","","","","","img/land6.png","","2002","-1","0","3","1","1,0,0,0.25,0.5,0.25,0.25,0.25,0.5","0,1,0,0.5,0.25,0.25,0.25,0.25,0.5","3","",""
"","html-keyboard-response","429","379312","0.0-429.0","","","","","null","<img src=""img/land6.png"" style=""width:200px;border:14px solid red;"">","null","","","","","","","","","",""
"","image-keyboard-response","430","381315","0.0-430.0","","","","","","img/land5.png","","2003","-1","0","2","1","1,0,0,0.25,0.5,0.25,0.25,0.25,0.5","0,1,0,0.5,0.25,0.25,0.25,0.25,0.5","3","",""
"","html-keyboard-response","431","381626","0.0-431.0","","","","","null","<img src=""img/land5.png"" style=""width:200px;border:14px solid red;"">","null","","","","","","","","","",""
"","image-keyboard-response","432","382819","0.0-432.0","","","","","1192.5","img/land5.png","74","1193.5999999046326","1","1","2","1","1,0,0,0.25,0.5,0.25,0.25,0.25,0.5","0,1,0,0.5,0.25,0.25,0.25,0.25,0.5","3","",""
"","html-keyboard-response","433","383122","0.0-433.0","","","","","null","<img src=""img/land5.png"" style=""width:200px; border:14px solid green;"">","null","","","","","","","","","",""
"","image-keyboard-response","434","385124","0.0-434.0","","","","","","img/land4.png","","2001.8000001907349","-1","0","1","1","1,0,0,0.25,0.5,0.25,0.25,0.25,0.5","0,1,0,0.5,0.25,0.25,0.25,0.25,0.5","3","",""
"","html-keyboard-response","435","385431","0.0-435.0","","","","","null","<img src=""img/land4.png"" style=""width:200px;border:14px solid red;"">","null","","","","","","","","","",""
"","image-keyboard-response","436","387433","0.0-436.0","","","","","","img/land4.png","","2001.9000000953674","-1","0","1","1","1,0,0,0.25,0.5,0.25,0.25,0.25,0.5","0,1,0,0.5,0.25,0.25,0.25,0.25,0.5","3","",""
"","html-keyboard-response","437","387737","0.0-437.0","","","","","null","<img src=""img/land4.png"" style=""width:200px;border:14px solid red;"">","null","","","","","","","","","",""
"","image-keyboard-response","438","389741","0.0-438.0","","","","","","img/land4.png","","2003.8000001907349","-1","0","1","1","1,0,0,0.25,0.5,0.25,0.25,0.25,0.5","0,1,0,0.5,0.25,0.25,0.25,0.25,0.5","3","",""
"","html-keyboard-response","439","390043","0.0-439.0","","","","","null","<img src=""img/land4.png"" style=""width:200px;border:14px solid red;"">","null","","","","","","","","","",""
"","image-keyboard-response","440","390681","0.0-440.0","","","","","636.4000000953674","img/land4.png","74","637.3999996185303","1","0","1","1","1,0,0,0.25,0.5,0.25,0.25,0.25,0.5","0,1,0,0.5,0.25,0.25,0.25,0.25,0.5","3","",""
"","html-keyboard-response","441","390983","0.0-441.0","","","","","null","<img src=""img/land4.png"" style=""width:200px;border:14px solid red;"">","null","","","","","","","","","",""
"","image-keyboard-response","442","392984","0.0-442.0","","","","","","img/land5.png","","2001","-1","0","2","1","1,0,0,0.25,0.5,0.25,0.25,0.25,0.5","0,1,0,0.5,0.25,0.25,0.25,0.25,0.5","3","",""
"","html-keyboard-response","443","393286","0.0-443.0","","","","","null","<img src=""img/land5.png"" style=""width:200px;border:14px solid red;"">","null","","","","","","","","","",""
"","image-keyboard-response","444","395287","0.0-444.0","","","","","","img/land6.png","","2001.3000001907349","-1","0","3","1","1,0,0,0.25,0.5,0.25,0.25,0.25,0.5","0,1,0,0.5,0.25,0.25,0.25,0.25,0.5","3","",""
"","html-keyboard-response","445","395589","0.0-445.0","","","","","null","<img src=""img/land6.png"" style=""width:200px;border:14px solid red;"">","null","","","","","","","","","",""
"","image-keyboard-response","446","396593","0.0-446.0","","","","","1002.8000001907349","img/land6.png","75","1003.7000002861023","2","0","3","1","1,0,0,0.25,0.5,0.25,0.25,0.25,0.5","0,1,0,0.5,0.25,0.25,0.25,0.25,0.5","3","",""
"","html-keyboard-response","447","396896","0.0-447.0","","","","","null","<img src=""img/land6.png"" style=""width:200px;border:14px solid red;"">","null","","","","","","","","","",""
"","image-keyboard-response","448","398898","0.0-448.0","","","","","","img/land6.png","","2001.9000000953674","-1","0","3","1","1,0,0,0.25,0.5,0.25,0.25,0.25,0.5","0,1,0,0.5,0.25,0.25,0.25,0.25,0.5","3","",""
"","html-keyboard-response","449","399199","0.0-449.0","","","","","null","<img src=""img/land6.png"" style=""width:200px;border:14px solid red;"">","null","","","","","","","","","",""
"","image-keyboard-response","450","401201","0.0-450.0","","","","","","img/land5.png","","2001.7999997138977","-1","0","2","1","1,0,0,0.25,0.5,0.25,0.25,0.25,0.5","0,1,0,0.5,0.25,0.25,0.25,0.25,0.5","3","",""
"","html-keyboard-response","451","401504","0.0-451.0","","","","","null","<img src=""img/land5.png"" style=""width:200px;border:14px solid red;"">","null","","","","","","","","","",""
"","image-keyboard-response","452","402443","0.0-452.0","","","","","938.5999999046326","img/land4.png","74","939.9000000953674","1","0","1","1","1,0,0,0.25,0.5,0.25,0.25,0.25,0.5","0,1,0,0.5,0.25,0.25,0.25,0.25,0.5","3","",""
"","html-keyboard-response","453","402746","0.0-453.0","","","","","null","<img src=""img/land4.png"" style=""width:200px;border:14px solid red;"">","null","","","","","","","","","",""
"","image-keyboard-response","454","404753","0.0-454.0","","","","","","img/land5.png","","2005.9000000953674","-1","0","2","1","1,0,0,0.25,0.5,0.25,0.25,0.25,0.5","0,1,0,0.5,0.25,0.25,0.25,0.25,0.5","3","",""
"","html-keyboard-response","455","405055","0.0-455.0","","","","","null","<img src=""img/land5.png"" style=""width:200px;border:14px solid red;"">","null","","","","","","","","","",""
"","image-keyboard-response","456","406551","0.0-456.0","","","","","1494.9000000953674","img/land5.png","74","1496","1","0","2","1","1,0,0,0.25,0.5,0.25,0.25,0.25,0.5","0,1,0,0.5,0.25,0.25,0.25,0.25,0.5","3","",""
"","html-keyboard-response","457","406853","0.0-457.0","","","","","null","<img src=""img/land5.png"" style=""width:200px;border:14px solid red;"">","null","","","","","","","","","",""
"","image-keyboard-response","458","408711","0.0-458.0","","","","","1856.5","img/land6.png","75","1857.6999998092651","2","0","3","1","1,0,0,0.25,0.5,0.25,0.25,0.25,0.5","0,1,0,0.5,0.25,0.25,0.25,0.25,0.5","3","",""
"","html-keyboard-response","459","409013","0.0-459.0","","","","","null","<img src=""img/land6.png"" style=""width:200px;border:14px solid red;"">","null","","","","","","","","","",""
"","image-keyboard-response","460","411016","0.0-460.0","","","","","","img/land6.png","","2002.2999997138977","-1","0","3","1","1,0,0,0.25,0.5,0.25,0.25,0.25,0.5","0,1,0,0.5,0.25,0.25,0.25,0.25,0.5","3","",""
"","html-keyboard-response","461","411317","0.0-461.0","","","","","null","<img src=""img/land6.png"" style=""width:200px;border:14px solid red;"">","null","","","","","","","","","",""
"","image-keyboard-response","462","412450","0.0-462.0","","","","","1131.9000000953674","img/land6.png","75","1133.3000001907349","2","0","3","1","1,0,0,0.25,0.5,0.25,0.25,0.25,0.5","0,1,0,0.5,0.25,0.25,0.25,0.25,0.5","3","",""
"","html-keyboard-response","463","412753","0.0-463.0","","","","","null","<img src=""img/land6.png"" style=""width:200px;border:14px solid red;"">","null","","","","","","","","","",""
"","image-keyboard-response","464","414029","0.0-464.0","","","","","1275.7000002861023","img/land4.png","74","1276.6999998092651","1","0","1","1","1,0,0,0.25,0.5,0.25,0.25,0.25,0.5","0,1,0,0.5,0.25,0.25,0.25,0.25,0.5","3","",""
"","html-keyboard-response","465","414331","0.0-465.0","","","","","null","<img src=""img/land4.png"" style=""width:200px;border:14px solid red;"">","null","","","","","","","","","",""
"","image-keyboard-response","466","415159","0.0-466.0","","","","","826.8000001907349","img/land6.png","76","827.9000000953674","3","1","3","1","1,0,0,0.25,0.5,0.25,0.25,0.25,0.5","0,1,0,0.5,0.25,0.25,0.25,0.25,0.5","3","",""
"","html-keyboard-response","467","415462","0.0-467.0","","","","","null","<img src=""img/land6.png"" style=""width:200px; border:14px solid green;"">","null","","","","","","","","","",""
"","image-keyboard-response","468","417464","0.0-468.0","","","","","","img/land6.png","","2002.0999999046326","-1","0","3","1","1,0,0,0.25,0.5,0.25,0.25,0.25,0.5","0,1,0,0.5,0.25,0.25,0.25,0.25,0.5","3","",""
"","html-keyboard-response","469","417766","0.0-469.0","","","","","null","<img src=""img/land6.png"" style=""width:200px;border:14px solid red;"">","null","","","","","","","","","",""
"","image-keyboard-response","470","419373","0.0-470.0","","","","","1605.6999998092651","img/land4.png","75","1606.7000002861023","2","1","1","1","1,0,0,0.25,0.5,0.25,0.25,0.25,0.5","0,1,0,0.5,0.25,0.25,0.25,0.25,0.5","3","",""
"","html-keyboard-response","471","419675","0.0-471.0","","","","","null","<img src=""img/land4.png"" style=""width:200px; border:14px solid green;"">","null","","","","","","","","","",""
"","image-keyboard-response","472","421677","0.0-472.0","","","","","","img/land5.png","","2001.8000001907349","-1","0","2","1","1,0,0,0.25,0.5,0.25,0.25,0.25,0.5","0,1,0,0.5,0.25,0.25,0.25,0.25,0.5","3","",""
"","html-keyboard-response","473","421979","0.0-473.0","","","","","null","<img src=""img/land5.png"" style=""width:200px;border:14px solid red;"">","null","","","","","","","","","",""
"","image-keyboard-response","474","423801","0.0-474.0","","","","","1821.2999997138977","img/land5.png","75","1822.4000000953674","2","0","2","1","1,0,0,0.25,0.5,0.25,0.25,0.25,0.5","0,1,0,0.5,0.25,0.25,0.25,0.25,0.5","3","",""
"","html-keyboard-response","475","424103","0.0-475.0","","","","","null","<img src=""img/land5.png"" style=""width:200px;border:14px solid red;"">","null","","","","","","","","","",""
"","image-keyboard-response","476","426105","0.0-476.0","","","","","","img/land5.png","","2001.6999998092651","-1","0","2","1","1,0,0,0.25,0.5,0.25,0.25,0.25,0.5","0,1,0,0.5,0.25,0.25,0.25,0.25,0.5","3","",""
"","html-keyboard-response","477","426407","0.0-477.0","","","","","null","<img src=""img/land5.png"" style=""width:200px;border:14px solid red;"">","null","","","","","","","","","",""
"","image-keyboard-response","478","427913","0.0-478.0","","","","","1502.4000000953674","img/land4.png","76","1506.0999999046326","3","0","1","1","1,0,0,0.25,0.5,0.25,0.25,0.25,0.5","0,1,0,0.5,0.25,0.25,0.25,0.25,0.5","3","",""
"","html-keyboard-response","479","428214","0.0-479.0","","","","","null","<img src=""img/land4.png"" style=""width:200px;border:14px solid red;"">","null","","","","","","","","","",""
"","image-keyboard-response","480","430216","0.0-480.0","","","","","","img/land5.png","","2001.4000000953674","-1","0","2","1","1,0,0,0.25,0.5,0.25,0.25,0.25,0.5","0,1,0,0.5,0.25,0.25,0.25,0.25,0.5","3","",""
"","html-keyboard-response","481","430518","0.0-481.0","","","","","null","<img src=""img/land5.png"" style=""width:200px;border:14px solid red;"">","null","","","","","","","","","",""
"","html-keyboard-response","482","435720","0.0-482.0","","","","","","","","","","","","","","","","",""
"","instructions","483","440310","0.0-483.0","","","","[{""page_index"":0,""viewing_time"":4588.099999904633}]","4588.599999904633","","","","","","","","","","","",""
"","survey-text","484","444479","0.0-484.0-0.0","","","","","4164.5","","","","","","","","","","","{""Q0"":""24""}",""
"","survey-multi-choice","485","447462","0.0-484.0-1.0","","","","","2981.4000000953674","","","","","","","","","","","{""gender"":""F""}","[0]"
"","survey-text","486","453670","0.0-485.0","","","","","6203.299999713898","","","","","","","","","","","{""Q0"":""A2B9OD2O9CJNC0""}",""
