"success","trial_type","trial_index","time_elapsed","internal_node_id","assignmentID","mturkID","hitID","view_history","rt","stimulus","key_press","reactionTime","a","r","s","cond","reward_cond","reward_cond_actual","reward_matrix_idx","responses","question_order"
"true","fullscreen","0","6010","0.0-0.0","3OSWBBLG1FJDA1OGD3HKDDW564EXDM","A2BK9RMC0NOIH8","32TMVRKDGNK89K6LLIZX5RPIVK148D","","","","","","","","","","","","","",""
"","instructions","1","31419","0.0-1.0","3OSWBBLG1FJDA1OGD3HKDDW564EXDM","A2BK9RMC0NOIH8","32TMVRKDGNK89K6LLIZX5RPIVK148D","[{""page_index"":0,""viewing_time"":4234.099999904633},{""page_index"":1,""viewing_time"":4046.5},{""page_index"":2,""viewing_time"":509.5},{""page_index"":3,""viewing_time"":5505.100000023842},{""page_index"":4,""viewing_time"":4822},{""page_index"":5,""viewing_time"":4087.899999976158},{""page_index"":6,""viewing_time"":2203}]","25408.599999904633","","","","","","","","","","","",""
"","image-keyboard-response","2","32051","0.0-2.0","3OSWBBLG1FJDA1OGD3HKDDW564EXDM","A2BK9RMC0NOIH8","32TMVRKDGNK89K6LLIZX5RPIVK148D","","630.7999999523163","img/land1.png","75","631.7999999523163","2","0","1","1","1,0.5,0.5,0.5,1,0.5,0.5,0.5,1","1,0.5,0.5,0.5,1,0.5,0.5,0.5,1","","",""
"","html-keyboard-response","3","32352","0.0-3.0","3OSWBBLG1FJDA1OGD3HKDDW564EXDM","A2BK9RMC0NOIH8","32TMVRKDGNK89K6LLIZX5RPIVK148D","","null","<img src=""img/land1.png"" style=""width:200px;border:14px solid red;"">","null","","","","","","","","","",""
"","image-keyboard-response","4","32731","0.0-4.0","3OSWBBLG1FJDA1OGD3HKDDW564EXDM","A2BK9RMC0NOIH8","32TMVRKDGNK89K6LLIZX5RPIVK148D","","377.7000000476837","img/land2.png","74","378.5","1","0","2","1","1,0.5,0.5,0.5,1,0.5,0.5,0.5,1","1,0.5,0.5,0.5,1,0.5,0.5,0.5,1","","",""
"","html-keyboard-response","5","33033","0.0-5.0","3OSWBBLG1FJDA1OGD3HKDDW564EXDM","A2BK9RMC0NOIH8","32TMVRKDGNK89K6LLIZX5RPIVK148D","","null","<img src=""img/land2.png"" style=""width:200px;border:14px solid red;"">","null","","","","","","","","","",""
"","image-keyboard-response","6","33451","0.0-6.0","3OSWBBLG1FJDA1OGD3HKDDW564EXDM","A2BK9RMC0NOIH8","32TMVRKDGNK89K6LLIZX5RPIVK148D","","415.89999997615814","img/land3.png","76","416.8000000715256","3","1","3","1","1,0.5,0.5,0.5,1,0.5,0.5,0.5,1","1,0.5,0.5,0.5,1,0.5,0.5,0.5,1","","",""
"","html-keyboard-response","7","33758","0.0-7.0","3OSWBBLG1FJDA1OGD3HKDDW564EXDM","A2BK9RMC0NOIH8","32TMVRKDGNK89K6LLIZX5RPIVK148D","","null","<img src=""img/land3.png"" style=""width:200px; border:14px solid green;"">","null","","","","","","","","","",""
"","image-keyboard-response","8","34075","0.0-8.0","3OSWBBLG1FJDA1OGD3HKDDW564EXDM","A2BK9RMC0NOIH8","32TMVRKDGNK89K6LLIZX5RPIVK148D","","316.10000002384186","img/land2.png","75","316.89999997615814","2","1","2","1","1,0.5,0.5,0.5,1,0.5,0.5,0.5,1","1,0.5,0.5,0.5,1,0.5,0.5,0.5,1","","",""
"","html-keyboard-response","9","34377","0.0-9.0","3OSWBBLG1FJDA1OGD3HKDDW564EXDM","A2BK9RMC0NOIH8","32TMVRKDGNK89K6LLIZX5RPIVK148D","","null","<img src=""img/land2.png"" style=""width:200px; border:14px solid green;"">","null","","","","","","","","","",""
"","image-keyboard-response","10","34763","0.0-10.0","3OSWBBLG1FJDA1OGD3HKDDW564EXDM","A2BK9RMC0NOIH8","32TMVRKDGNK89K6LLIZX5RPIVK148D","","384.60000002384186","img/land1.png","74","384.89999997615814","1","1","1","1","1,0.5,0.5,0.5,1,0.5,0.5,0.5,1","1,0.5,0.5,0.5,1,0.5,0.5,0.5,1","","",""
"","html-keyboard-response","11","35064","0.0-11.0","3OSWBBLG1FJDA1OGD3HKDDW564EXDM","A2BK9RMC0NOIH8","32TMVRKDGNK89K6LLIZX5RPIVK148D","","null","<img src=""img/land1.png"" style=""width:200px; border:14px solid green;"">","null","","","","","","","","","",""
"","image-keyboard-response","12","35386","0.0-12.0","3OSWBBLG1FJDA1OGD3HKDDW564EXDM","A2BK9RMC0NOIH8","32TMVRKDGNK89K6LLIZX5RPIVK148D","","321.8000000715256","img/land2.png","75","322.39999997615814","2","1","2","1","1,0.5,0.5,0.5,1,0.5,0.5,0.5,1","1,0.5,0.5,0.5,1,0.5,0.5,0.5,1","","",""
"","html-keyboard-response","13","35689","0.0-13.0","3OSWBBLG1FJDA1OGD3HKDDW564EXDM","A2BK9RMC0NOIH8","32TMVRKDGNK89K6LLIZX5RPIVK148D","","null","<img src=""img/land2.png"" style=""width:200px; border:14px solid green;"">","null","","","","","","","","","",""
"","image-keyboard-response","14","35691","0.0-14.0","3OSWBBLG1FJDA1OGD3HKDDW564EXDM","A2BK9RMC0NOIH8","32TMVRKDGNK89K6LLIZX5RPIVK148D","","1.600000023841858","img/land2.png","76","1.899999976158142","3","1","2","1","1,0.5,0.5,0.5,1,0.5,0.5,0.5,1","1,0.5,0.5,0.5,1,0.5,0.5,0.5,1","","",""
"","html-keyboard-response","15","35993","0.0-15.0","3OSWBBLG1FJDA1OGD3HKDDW564EXDM","A2BK9RMC0NOIH8","32TMVRKDGNK89K6LLIZX5RPIVK148D","","null","<img src=""img/land2.png"" style=""width:200px; border:14px solid green;"">","null","","","","","","","","","",""
"","image-keyboard-response","16","36411","0.0-16.0","3OSWBBLG1FJDA1OGD3HKDDW564EXDM","A2BK9RMC0NOIH8","32TMVRKDGNK89K6LLIZX5RPIVK148D","","417","img/land2.png","76","417.60000002384186","3","1","2","1","1,0.5,0.5,0.5,1,0.5,0.5,0.5,1","1,0.5,0.5,0.5,1,0.5,0.5,0.5,1","","",""
"","html-keyboard-response","17","36712","0.0-17.0","3OSWBBLG1FJDA1OGD3HKDDW564EXDM","A2BK9RMC0NOIH8","32TMVRKDGNK89K6LLIZX5RPIVK148D","","null","<img src=""img/land2.png"" style=""width:200px; border:14px solid green;"">","null","","","","","","","","","",""
"","image-keyboard-response","18","36771","0.0-18.0","3OSWBBLG1FJDA1OGD3HKDDW564EXDM","A2BK9RMC0NOIH8","32TMVRKDGNK89K6LLIZX5RPIVK148D","","57.89999997615814","img/land1.png","75","58.39999997615814","2","0","1","1","1,0.5,0.5,0.5,1,0.5,0.5,0.5,1","1,0.5,0.5,0.5,1,0.5,0.5,0.5,1","","",""
"","html-keyboard-response","19","37084","0.0-19.0","3OSWBBLG1FJDA1OGD3HKDDW564EXDM","A2BK9RMC0NOIH8","32TMVRKDGNK89K6LLIZX5RPIVK148D","","null","<img src=""img/land1.png"" style=""width:200px;border:14px solid red;"">","null","","","","","","","","","",""
"","image-keyboard-response","20","37203","0.0-20.0","3OSWBBLG1FJDA1OGD3HKDDW564EXDM","A2BK9RMC0NOIH8","32TMVRKDGNK89K6LLIZX5RPIVK148D","","118.29999995231628","img/land3.png","74","118.89999997615814","1","0","3","1","1,0.5,0.5,0.5,1,0.5,0.5,0.5,1","1,0.5,0.5,0.5,1,0.5,0.5,0.5,1","","",""
"","html-keyboard-response","21","37505","0.0-21.0","3OSWBBLG1FJDA1OGD3HKDDW564EXDM","A2BK9RMC0NOIH8","32TMVRKDGNK89K6LLIZX5RPIVK148D","","null","<img src=""img/land3.png"" style=""width:200px;border:14px solid red;"">","null","","","","","","","","","",""
"","image-keyboard-response","22","37675","0.0-22.0","3OSWBBLG1FJDA1OGD3HKDDW564EXDM","A2BK9RMC0NOIH8","32TMVRKDGNK89K6LLIZX5RPIVK148D","","169.39999997615814","img/land1.png","74","169.89999997615814","1","1","1","1","1,0.5,0.5,0.5,1,0.5,0.5,0.5,1","1,0.5,0.5,0.5,1,0.5,0.5,0.5,1","","",""
"","html-keyboard-response","23","37977","0.0-23.0","3OSWBBLG1FJDA1OGD3HKDDW564EXDM","A2BK9RMC0NOIH8","32TMVRKDGNK89K6LLIZX5RPIVK148D","","null","<img src=""img/land1.png"" style=""width:200px; border:14px solid green;"">","null","","","","","","","","","",""
"","image-keyboard-response","24","38035","0.0-24.0","3OSWBBLG1FJDA1OGD3HKDDW564EXDM","A2BK9RMC0NOIH8","32TMVRKDGNK89K6LLIZX5RPIVK148D","","57.299999952316284","img/land2.png","75","58.10000002384186","2","1","2","1","1,0.5,0.5,0.5,1,0.5,0.5,0.5,1","1,0.5,0.5,0.5,1,0.5,0.5,0.5,1","","",""
"","html-keyboard-response","25","38337","0.0-25.0","3OSWBBLG1FJDA1OGD3HKDDW564EXDM","A2BK9RMC0NOIH8","32TMVRKDGNK89K6LLIZX5RPIVK148D","","null","<img src=""img/land2.png"" style=""width:200px; border:14px solid green;"">","null","","","","","","","","","",""
"","image-keyboard-response","26","38402","0.0-26.0","3OSWBBLG1FJDA1OGD3HKDDW564EXDM","A2BK9RMC0NOIH8","32TMVRKDGNK89K6LLIZX5RPIVK148D","","64.80000007152557","img/land1.png","76","65.39999997615814","3","0","1","1","1,0.5,0.5,0.5,1,0.5,0.5,0.5,1","1,0.5,0.5,0.5,1,0.5,0.5,0.5,1","","",""
"","html-keyboard-response","27","38704","0.0-27.0","3OSWBBLG1FJDA1OGD3HKDDW564EXDM","A2BK9RMC0NOIH8","32TMVRKDGNK89K6LLIZX5RPIVK148D","","null","<img src=""img/land1.png"" style=""width:200px;border:14px solid red;"">","null","","","","","","","","","",""
"","image-keyboard-response","28","38787","0.0-28.0","3OSWBBLG1FJDA1OGD3HKDDW564EXDM","A2BK9RMC0NOIH8","32TMVRKDGNK89K6LLIZX5RPIVK148D","","81.69999992847443","img/land2.png","75","82.10000002384186","2","1","2","1","1,0.5,0.5,0.5,1,0.5,0.5,0.5,1","1,0.5,0.5,0.5,1,0.5,0.5,0.5,1","","",""
"","html-keyboard-response","29","39088","0.0-29.0","3OSWBBLG1FJDA1OGD3HKDDW564EXDM","A2BK9RMC0NOIH8","32TMVRKDGNK89K6LLIZX5RPIVK148D","","null","<img src=""img/land2.png"" style=""width:200px; border:14px solid green;"">","null","","","","","","","","","",""
"","image-keyboard-response","30","39114","0.0-30.0","3OSWBBLG1FJDA1OGD3HKDDW564EXDM","A2BK9RMC0NOIH8","32TMVRKDGNK89K6LLIZX5RPIVK148D","","25.5","img/land1.png","74","26","1","1","1","1","1,0.5,0.5,0.5,1,0.5,0.5,0.5,1","1,0.5,0.5,0.5,1,0.5,0.5,0.5,1","","",""
"","html-keyboard-response","31","39416","0.0-31.0","3OSWBBLG1FJDA1OGD3HKDDW564EXDM","A2BK9RMC0NOIH8","32TMVRKDGNK89K6LLIZX5RPIVK148D","","null","<img src=""img/land1.png"" style=""width:200px; border:14px solid green;"">","null","","","","","","","","","",""
"","image-keyboard-response","32","39459","0.0-32.0","3OSWBBLG1FJDA1OGD3HKDDW564EXDM","A2BK9RMC0NOIH8","32TMVRKDGNK89K6LLIZX5RPIVK148D","","42.199999928474426","img/land3.png","74","42.700000047683716","1","1","3","1","1,0.5,0.5,0.5,1,0.5,0.5,0.5,1","1,0.5,0.5,0.5,1,0.5,0.5,0.5,1","","",""
"","html-keyboard-response","33","39760","0.0-33.0","3OSWBBLG1FJDA1OGD3HKDDW564EXDM","A2BK9RMC0NOIH8","32TMVRKDGNK89K6LLIZX5RPIVK148D","","null","<img src=""img/land3.png"" style=""width:200px; border:14px solid green;"">","null","","","","","","","","","",""
"","image-keyboard-response","34","39963","0.0-34.0","3OSWBBLG1FJDA1OGD3HKDDW564EXDM","A2BK9RMC0NOIH8","32TMVRKDGNK89K6LLIZX5RPIVK148D","","202.29999995231628","img/land2.png","74","202.79999995231628","1","1","2","1","1,0.5,0.5,0.5,1,0.5,0.5,0.5,1","1,0.5,0.5,0.5,1,0.5,0.5,0.5,1","","",""
"","html-keyboard-response","35","40263","0.0-35.0","3OSWBBLG1FJDA1OGD3HKDDW564EXDM","A2BK9RMC0NOIH8","32TMVRKDGNK89K6LLIZX5RPIVK148D","","null","<img src=""img/land2.png"" style=""width:200px; border:14px solid green;"">","null","","","","","","","","","",""
"","image-keyboard-response","36","40570","0.0-36.0","3OSWBBLG1FJDA1OGD3HKDDW564EXDM","A2BK9RMC0NOIH8","32TMVRKDGNK89K6LLIZX5RPIVK148D","","306.5","img/land2.png","76","307","3","0","2","1","1,0.5,0.5,0.5,1,0.5,0.5,0.5,1","1,0.5,0.5,0.5,1,0.5,0.5,0.5,1","","",""
"","html-keyboard-response","37","40872","0.0-37.0","3OSWBBLG1FJDA1OGD3HKDDW564EXDM","A2BK9RMC0NOIH8","32TMVRKDGNK89K6LLIZX5RPIVK148D","","null","<img src=""img/land2.png"" style=""width:200px;border:14px solid red;"">","null","","","","","","","","","",""
"","image-keyboard-response","38","40883","0.0-38.0","3OSWBBLG1FJDA1OGD3HKDDW564EXDM","A2BK9RMC0NOIH8","32TMVRKDGNK89K6LLIZX5RPIVK148D","","9.899999976158142","img/land3.png","76","10.299999952316284","3","1","3","1","1,0.5,0.5,0.5,1,0.5,0.5,0.5,1","1,0.5,0.5,0.5,1,0.5,0.5,0.5,1","","",""
"","html-keyboard-response","39","41184","0.0-39.0","3OSWBBLG1FJDA1OGD3HKDDW564EXDM","A2BK9RMC0NOIH8","32TMVRKDGNK89K6LLIZX5RPIVK148D","","null","<img src=""img/land3.png"" style=""width:200px; border:14px solid green;"">","null","","","","","","","","","",""
"","image-keyboard-response","40","41235","0.0-40.0","3OSWBBLG1FJDA1OGD3HKDDW564EXDM","A2BK9RMC0NOIH8","32TMVRKDGNK89K6LLIZX5RPIVK148D","","49.5","img/land1.png","75","50","2","0","1","1","1,0.5,0.5,0.5,1,0.5,0.5,0.5,1","1,0.5,0.5,0.5,1,0.5,0.5,0.5,1","","",""
"","html-keyboard-response","41","41537","0.0-41.0","3OSWBBLG1FJDA1OGD3HKDDW564EXDM","A2BK9RMC0NOIH8","32TMVRKDGNK89K6LLIZX5RPIVK148D","","null","<img src=""img/land1.png"" style=""width:200px;border:14px solid red;"">","null","","","","","","","","","",""
"","image-keyboard-response","42","41555","0.0-42.0","3OSWBBLG1FJDA1OGD3HKDDW564EXDM","A2BK9RMC0NOIH8","32TMVRKDGNK89K6LLIZX5RPIVK148D","","17.699999928474426","img/land3.png","74","18.200000047683716","1","1","3","1","1,0.5,0.5,0.5,1,0.5,0.5,0.5,1","1,0.5,0.5,0.5,1,0.5,0.5,0.5,1","","",""
"","html-keyboard-response","43","41857","0.0-43.0","3OSWBBLG1FJDA1OGD3HKDDW564EXDM","A2BK9RMC0NOIH8","32TMVRKDGNK89K6LLIZX5RPIVK148D","","null","<img src=""img/land3.png"" style=""width:200px; border:14px solid green;"">","null","","","","","","","","","",""
"","image-keyboard-response","44","42107","0.0-44.0","3OSWBBLG1FJDA1OGD3HKDDW564EXDM","A2BK9RMC0NOIH8","32TMVRKDGNK89K6LLIZX5RPIVK148D","","249.20000004768372","img/land2.png","75","249.89999997615814","2","1","2","1","1,0.5,0.5,0.5,1,0.5,0.5,0.5,1","1,0.5,0.5,0.5,1,0.5,0.5,0.5,1","","",""
"","html-keyboard-response","45","42410","0.0-45.0","3OSWBBLG1FJDA1OGD3HKDDW564EXDM","A2BK9RMC0NOIH8","32TMVRKDGNK89K6LLIZX5RPIVK148D","","null","<img src=""img/land2.png"" style=""width:200px; border:14px solid green;"">","null","","","","","","","","","",""
"","image-keyboard-response","46","42475","0.0-46.0","3OSWBBLG1FJDA1OGD3HKDDW564EXDM","A2BK9RMC0NOIH8","32TMVRKDGNK89K6LLIZX5RPIVK148D","","63.89999997615814","img/land2.png","75","64.39999997615814","2","1","2","1","1,0.5,0.5,0.5,1,0.5,0.5,0.5,1","1,0.5,0.5,0.5,1,0.5,0.5,0.5,1","","",""
"","html-keyboard-response","47","42777","0.0-47.0","3OSWBBLG1FJDA1OGD3HKDDW564EXDM","A2BK9RMC0NOIH8","32TMVRKDGNK89K6LLIZX5RPIVK148D","","null","<img src=""img/land2.png"" style=""width:200px; border:14px solid green;"">","null","","","","","","","","","",""
"","image-keyboard-response","48","43019","0.0-48.0","3OSWBBLG1FJDA1OGD3HKDDW564EXDM","A2BK9RMC0NOIH8","32TMVRKDGNK89K6LLIZX5RPIVK148D","","241.89999997615814","img/land1.png","76","242.5","3","1","1","1","1,0.5,0.5,0.5,1,0.5,0.5,0.5,1","1,0.5,0.5,0.5,1,0.5,0.5,0.5,1","","",""
"","html-keyboard-response","49","43320","0.0-49.0","3OSWBBLG1FJDA1OGD3HKDDW564EXDM","A2BK9RMC0NOIH8","32TMVRKDGNK89K6LLIZX5RPIVK148D","","null","<img src=""img/land1.png"" style=""width:200px; border:14px solid green;"">","null","","","","","","","","","",""
"","image-keyboard-response","50","43378","0.0-50.0","3OSWBBLG1FJDA1OGD3HKDDW564EXDM","A2BK9RMC0NOIH8","32TMVRKDGNK89K6LLIZX5RPIVK148D","","58","img/land3.png","76","58.5","3","1","3","1","1,0.5,0.5,0.5,1,0.5,0.5,0.5,1","1,0.5,0.5,0.5,1,0.5,0.5,0.5,1","","",""
"","html-keyboard-response","51","43680","0.0-51.0","3OSWBBLG1FJDA1OGD3HKDDW564EXDM","A2BK9RMC0NOIH8","32TMVRKDGNK89K6LLIZX5RPIVK148D","","null","<img src=""img/land3.png"" style=""width:200px; border:14px solid green;"">","null","","","","","","","","","",""
"","image-keyboard-response","52","43811","0.0-52.0","3OSWBBLG1FJDA1OGD3HKDDW564EXDM","A2BK9RMC0NOIH8","32TMVRKDGNK89K6LLIZX5RPIVK148D","","130","img/land1.png","74","130.5","1","1","1","1","1,0.5,0.5,0.5,1,0.5,0.5,0.5,1","1,0.5,0.5,0.5,1,0.5,0.5,0.5,1","","",""
"","html-keyboard-response","53","44113","0.0-53.0","3OSWBBLG1FJDA1OGD3HKDDW564EXDM","A2BK9RMC0NOIH8","32TMVRKDGNK89K6LLIZX5RPIVK148D","","null","<img src=""img/land1.png"" style=""width:200px; border:14px solid green;"">","null","","","","","","","","","",""
"","image-keyboard-response","54","44202","0.0-54.0","3OSWBBLG1FJDA1OGD3HKDDW564EXDM","A2BK9RMC0NOIH8","32TMVRKDGNK89K6LLIZX5RPIVK148D","","89.09999990463257","img/land3.png","75","89.60000002384186","2","1","3","1","1,0.5,0.5,0.5,1,0.5,0.5,0.5,1","1,0.5,0.5,0.5,1,0.5,0.5,0.5,1","","",""
"","html-keyboard-response","55","44505","0.0-55.0","3OSWBBLG1FJDA1OGD3HKDDW564EXDM","A2BK9RMC0NOIH8","32TMVRKDGNK89K6LLIZX5RPIVK148D","","null","<img src=""img/land3.png"" style=""width:200px; border:14px solid green;"">","null","","","","","","","","","",""
"","image-keyboard-response","56","44643","0.0-56.0","3OSWBBLG1FJDA1OGD3HKDDW564EXDM","A2BK9RMC0NOIH8","32TMVRKDGNK89K6LLIZX5RPIVK148D","","137.39999997615814","img/land1.png","76","138","3","0","1","1","1,0.5,0.5,0.5,1,0.5,0.5,0.5,1","1,0.5,0.5,0.5,1,0.5,0.5,0.5,1","","",""
"","html-keyboard-response","57","44945","0.0-57.0","3OSWBBLG1FJDA1OGD3HKDDW564EXDM","A2BK9RMC0NOIH8","32TMVRKDGNK89K6LLIZX5RPIVK148D","","null","<img src=""img/land1.png"" style=""width:200px;border:14px solid red;"">","null","","","","","","","","","",""
"","image-keyboard-response","58","45003","0.0-58.0","3OSWBBLG1FJDA1OGD3HKDDW564EXDM","A2BK9RMC0NOIH8","32TMVRKDGNK89K6LLIZX5RPIVK148D","","56.60000002384186","img/land1.png","75","57.10000002384186","2","0","1","1","1,0.5,0.5,0.5,1,0.5,0.5,0.5,1","1,0.5,0.5,0.5,1,0.5,0.5,0.5,1","","",""
"","html-keyboard-response","59","45319","0.0-59.0","3OSWBBLG1FJDA1OGD3HKDDW564EXDM","A2BK9RMC0NOIH8","32TMVRKDGNK89K6LLIZX5RPIVK148D","","null","<img src=""img/land1.png"" style=""width:200px;border:14px solid red;"">","null","","","","","","","","","",""
"","image-keyboard-response","60","45474","0.0-60.0","3OSWBBLG1FJDA1OGD3HKDDW564EXDM","A2BK9RMC0NOIH8","32TMVRKDGNK89K6LLIZX5RPIVK148D","","154.89999997615814","img/land1.png","74","155.39999997615814","1","1","1","1","1,0.5,0.5,0.5,1,0.5,0.5,0.5,1","1,0.5,0.5,0.5,1,0.5,0.5,0.5,1","","",""
"","html-keyboard-response","61","45777","0.0-61.0","3OSWBBLG1FJDA1OGD3HKDDW564EXDM","A2BK9RMC0NOIH8","32TMVRKDGNK89K6LLIZX5RPIVK148D","","null","<img src=""img/land1.png"" style=""width:200px; border:14px solid green;"">","null","","","","","","","","","",""
"","image-keyboard-response","62","45939","0.0-62.0","3OSWBBLG1FJDA1OGD3HKDDW564EXDM","A2BK9RMC0NOIH8","32TMVRKDGNK89K6LLIZX5RPIVK148D","","161.29999995231628","img/land2.png","75","162.10000002384186","2","1","2","1","1,0.5,0.5,0.5,1,0.5,0.5,0.5,1","1,0.5,0.5,0.5,1,0.5,0.5,0.5,1","","",""
"","html-keyboard-response","63","46240","0.0-63.0","3OSWBBLG1FJDA1OGD3HKDDW564EXDM","A2BK9RMC0NOIH8","32TMVRKDGNK89K6LLIZX5RPIVK148D","","null","<img src=""img/land2.png"" style=""width:200px; border:14px solid green;"">","null","","","","","","","","","",""
"","image-keyboard-response","64","46434","0.0-64.0","3OSWBBLG1FJDA1OGD3HKDDW564EXDM","A2BK9RMC0NOIH8","32TMVRKDGNK89K6LLIZX5RPIVK148D","","193.79999995231628","img/land3.png","76","194.5","3","1","3","1","1,0.5,0.5,0.5,1,0.5,0.5,0.5,1","1,0.5,0.5,0.5,1,0.5,0.5,0.5,1","","",""
"","html-keyboard-response","65","46736","0.0-65.0","3OSWBBLG1FJDA1OGD3HKDDW564EXDM","A2BK9RMC0NOIH8","32TMVRKDGNK89K6LLIZX5RPIVK148D","","null","<img src=""img/land3.png"" style=""width:200px; border:14px solid green;"">","null","","","","","","","","","",""
"","image-keyboard-response","66","46882","0.0-66.0","3OSWBBLG1FJDA1OGD3HKDDW564EXDM","A2BK9RMC0NOIH8","32TMVRKDGNK89K6LLIZX5RPIVK148D","","145.59999990463257","img/land2.png","75","146.20000004768372","2","1","2","1","1,0.5,0.5,0.5,1,0.5,0.5,0.5,1","1,0.5,0.5,0.5,1,0.5,0.5,0.5,1","","",""
"","html-keyboard-response","67","47184","0.0-67.0","3OSWBBLG1FJDA1OGD3HKDDW564EXDM","A2BK9RMC0NOIH8","32TMVRKDGNK89K6LLIZX5RPIVK148D","","null","<img src=""img/land2.png"" style=""width:200px; border:14px solid green;"">","null","","","","","","","","","",""
"","image-keyboard-response","68","47466","0.0-68.0","3OSWBBLG1FJDA1OGD3HKDDW564EXDM","A2BK9RMC0NOIH8","32TMVRKDGNK89K6LLIZX5RPIVK148D","","281.6999999284744","img/land3.png","75","282.2000000476837","2","1","3","1","1,0.5,0.5,0.5,1,0.5,0.5,0.5,1","1,0.5,0.5,0.5,1,0.5,0.5,0.5,1","","",""
"","html-keyboard-response","69","47768","0.0-69.0","3OSWBBLG1FJDA1OGD3HKDDW564EXDM","A2BK9RMC0NOIH8","32TMVRKDGNK89K6LLIZX5RPIVK148D","","null","<img src=""img/land3.png"" style=""width:200px; border:14px solid green;"">","null","","","","","","","","","",""
"","image-keyboard-response","70","47850","0.0-70.0","3OSWBBLG1FJDA1OGD3HKDDW564EXDM","A2BK9RMC0NOIH8","32TMVRKDGNK89K6LLIZX5RPIVK148D","","82.19999992847443","img/land1.png","76","82.70000004768372","3","1","1","1","1,0.5,0.5,0.5,1,0.5,0.5,0.5,1","1,0.5,0.5,0.5,1,0.5,0.5,0.5,1","","",""
"","html-keyboard-response","71","48153","0.0-71.0","3OSWBBLG1FJDA1OGD3HKDDW564EXDM","A2BK9RMC0NOIH8","32TMVRKDGNK89K6LLIZX5RPIVK148D","","null","<img src=""img/land1.png"" style=""width:200px; border:14px solid green;"">","null","","","","","","","","","",""
"","image-keyboard-response","72","48194","0.0-72.0","3OSWBBLG1FJDA1OGD3HKDDW564EXDM","A2BK9RMC0NOIH8","32TMVRKDGNK89K6LLIZX5RPIVK148D","","41.199999928474426","img/land2.png","75","41.5","2","1","2","1","1,0.5,0.5,0.5,1,0.5,0.5,0.5,1","1,0.5,0.5,0.5,1,0.5,0.5,0.5,1","","",""
"","html-keyboard-response","73","48496","0.0-73.0","3OSWBBLG1FJDA1OGD3HKDDW564EXDM","A2BK9RMC0NOIH8","32TMVRKDGNK89K6LLIZX5RPIVK148D","","null","<img src=""img/land2.png"" style=""width:200px; border:14px solid green;"">","null","","","","","","","","","",""
"","image-keyboard-response","74","48650","0.0-74.0","3OSWBBLG1FJDA1OGD3HKDDW564EXDM","A2BK9RMC0NOIH8","32TMVRKDGNK89K6LLIZX5RPIVK148D","","153.80000007152557","img/land3.png","74","154.29999995231628","1","1","3","1","1,0.5,0.5,0.5,1,0.5,0.5,0.5,1","1,0.5,0.5,0.5,1,0.5,0.5,0.5,1","","",""
"","html-keyboard-response","75","48952","0.0-75.0","3OSWBBLG1FJDA1OGD3HKDDW564EXDM","A2BK9RMC0NOIH8","32TMVRKDGNK89K6LLIZX5RPIVK148D","","null","<img src=""img/land3.png"" style=""width:200px; border:14px solid green;"">","null","","","","","","","","","",""
"","image-keyboard-response","76","49059","0.0-76.0","3OSWBBLG1FJDA1OGD3HKDDW564EXDM","A2BK9RMC0NOIH8","32TMVRKDGNK89K6LLIZX5RPIVK148D","","106.79999995231628","img/land1.png","75","107.5","2","1","1","1","1,0.5,0.5,0.5,1,0.5,0.5,0.5,1","1,0.5,0.5,0.5,1,0.5,0.5,0.5,1","","",""
"","html-keyboard-response","77","49361","0.0-77.0","3OSWBBLG1FJDA1OGD3HKDDW564EXDM","A2BK9RMC0NOIH8","32TMVRKDGNK89K6LLIZX5RPIVK148D","","null","<img src=""img/land1.png"" style=""width:200px; border:14px solid green;"">","null","","","","","","","","","",""
"","image-keyboard-response","78","49618","0.0-78.0","3OSWBBLG1FJDA1OGD3HKDDW564EXDM","A2BK9RMC0NOIH8","32TMVRKDGNK89K6LLIZX5RPIVK148D","","256.6999999284744","img/land3.png","75","257.10000002384186","2","1","3","1","1,0.5,0.5,0.5,1,0.5,0.5,0.5,1","1,0.5,0.5,0.5,1,0.5,0.5,0.5,1","","",""
"","html-keyboard-response","79","49921","0.0-79.0","3OSWBBLG1FJDA1OGD3HKDDW564EXDM","A2BK9RMC0NOIH8","32TMVRKDGNK89K6LLIZX5RPIVK148D","","null","<img src=""img/land3.png"" style=""width:200px; border:14px solid green;"">","null","","","","","","","","","",""
"","image-keyboard-response","80","50282","0.0-80.0","3OSWBBLG1FJDA1OGD3HKDDW564EXDM","A2BK9RMC0NOIH8","32TMVRKDGNK89K6LLIZX5RPIVK148D","","361.1999999284744","img/land3.png","75","361.60000002384186","2","1","3","1","1,0.5,0.5,0.5,1,0.5,0.5,0.5,1","1,0.5,0.5,0.5,1,0.5,0.5,0.5,1","","",""
"","html-keyboard-response","81","50583","0.0-81.0","3OSWBBLG1FJDA1OGD3HKDDW564EXDM","A2BK9RMC0NOIH8","32TMVRKDGNK89K6LLIZX5RPIVK148D","","null","<img src=""img/land3.png"" style=""width:200px; border:14px solid green;"">","null","","","","","","","","","",""
"","image-keyboard-response","82","50916","0.0-82.0","3OSWBBLG1FJDA1OGD3HKDDW564EXDM","A2BK9RMC0NOIH8","32TMVRKDGNK89K6LLIZX5RPIVK148D","","332.3000000715256","img/land2.png","75","332.6999999284744","2","1","2","1","1,0.5,0.5,0.5,1,0.5,0.5,0.5,1","1,0.5,0.5,0.5,1,0.5,0.5,0.5,1","","",""
"","html-keyboard-response","83","51218","0.0-83.0","3OSWBBLG1FJDA1OGD3HKDDW564EXDM","A2BK9RMC0NOIH8","32TMVRKDGNK89K6LLIZX5RPIVK148D","","null","<img src=""img/land2.png"" style=""width:200px; border:14px solid green;"">","null","","","","","","","","","",""
"","image-keyboard-response","84","51530","0.0-84.0","3OSWBBLG1FJDA1OGD3HKDDW564EXDM","A2BK9RMC0NOIH8","32TMVRKDGNK89K6LLIZX5RPIVK148D","","311.5","img/land2.png","74","312","1","0","2","1","1,0.5,0.5,0.5,1,0.5,0.5,0.5,1","1,0.5,0.5,0.5,1,0.5,0.5,0.5,1","","",""
"","html-keyboard-response","85","51832","0.0-85.0","3OSWBBLG1FJDA1OGD3HKDDW564EXDM","A2BK9RMC0NOIH8","32TMVRKDGNK89K6LLIZX5RPIVK148D","","null","<img src=""img/land2.png"" style=""width:200px;border:14px solid red;"">","null","","","","","","","","","",""
"","image-keyboard-response","86","51906","0.0-86.0","3OSWBBLG1FJDA1OGD3HKDDW564EXDM","A2BK9RMC0NOIH8","32TMVRKDGNK89K6LLIZX5RPIVK148D","","74.20000004768372","img/land3.png","76","74.5","3","1","3","1","1,0.5,0.5,0.5,1,0.5,0.5,0.5,1","1,0.5,0.5,0.5,1,0.5,0.5,0.5,1","","",""
"","html-keyboard-response","87","52208","0.0-87.0","3OSWBBLG1FJDA1OGD3HKDDW564EXDM","A2BK9RMC0NOIH8","32TMVRKDGNK89K6LLIZX5RPIVK148D","","null","<img src=""img/land3.png"" style=""width:200px; border:14px solid green;"">","null","","","","","","","","","",""
"","image-keyboard-response","88","52450","0.0-88.0","3OSWBBLG1FJDA1OGD3HKDDW564EXDM","A2BK9RMC0NOIH8","32TMVRKDGNK89K6LLIZX5RPIVK148D","","241.70000004768372","img/land2.png","75","242.39999997615814","2","1","2","1","1,0.5,0.5,0.5,1,0.5,0.5,0.5,1","1,0.5,0.5,0.5,1,0.5,0.5,0.5,1","","",""
"","html-keyboard-response","89","52752","0.0-89.0","3OSWBBLG1FJDA1OGD3HKDDW564EXDM","A2BK9RMC0NOIH8","32TMVRKDGNK89K6LLIZX5RPIVK148D","","null","<img src=""img/land2.png"" style=""width:200px; border:14px solid green;"">","null","","","","","","","","","",""
"","image-keyboard-response","90","53019","0.0-90.0","3OSWBBLG1FJDA1OGD3HKDDW564EXDM","A2BK9RMC0NOIH8","32TMVRKDGNK89K6LLIZX5RPIVK148D","","265.89999997615814","img/land2.png","75","266.3000000715256","2","1","2","1","1,0.5,0.5,0.5,1,0.5,0.5,0.5,1","1,0.5,0.5,0.5,1,0.5,0.5,0.5,1","","",""
"","html-keyboard-response","91","53329","0.0-91.0","3OSWBBLG1FJDA1OGD3HKDDW564EXDM","A2BK9RMC0NOIH8","32TMVRKDGNK89K6LLIZX5RPIVK148D","","null","<img src=""img/land2.png"" style=""width:200px; border:14px solid green;"">","null","","","","","","","","","",""
"","image-keyboard-response","92","53347","0.0-92.0","3OSWBBLG1FJDA1OGD3HKDDW564EXDM","A2BK9RMC0NOIH8","32TMVRKDGNK89K6LLIZX5RPIVK148D","","17.300000071525574","img/land1.png","76","18.100000023841858","3","1","1","1","1,0.5,0.5,0.5,1,0.5,0.5,0.5,1","1,0.5,0.5,0.5,1,0.5,0.5,0.5,1","","",""
"","html-keyboard-response","93","53649","0.0-93.0","3OSWBBLG1FJDA1OGD3HKDDW564EXDM","A2BK9RMC0NOIH8","32TMVRKDGNK89K6LLIZX5RPIVK148D","","null","<img src=""img/land1.png"" style=""width:200px; border:14px solid green;"">","null","","","","","","","","","",""
"","image-keyboard-response","94","53946","0.0-94.0","3OSWBBLG1FJDA1OGD3HKDDW564EXDM","A2BK9RMC0NOIH8","32TMVRKDGNK89K6LLIZX5RPIVK148D","","296.5","img/land3.png","74","297.10000002384186","1","1","3","1","1,0.5,0.5,0.5,1,0.5,0.5,0.5,1","1,0.5,0.5,0.5,1,0.5,0.5,0.5,1","","",""
"","html-keyboard-response","95","54249","0.0-95.0","3OSWBBLG1FJDA1OGD3HKDDW564EXDM","A2BK9RMC0NOIH8","32TMVRKDGNK89K6LLIZX5RPIVK148D","","null","<img src=""img/land3.png"" style=""width:200px; border:14px solid green;"">","null","","","","","","","","","",""
"","image-keyboard-response","96","54322","0.0-96.0","3OSWBBLG1FJDA1OGD3HKDDW564EXDM","A2BK9RMC0NOIH8","32TMVRKDGNK89K6LLIZX5RPIVK148D","","72.90000009536743","img/land2.png","76","73.19999992847443","3","0","2","1","1,0.5,0.5,0.5,1,0.5,0.5,0.5,1","1,0.5,0.5,0.5,1,0.5,0.5,0.5,1","","",""
"","html-keyboard-response","97","54624","0.0-97.0","3OSWBBLG1FJDA1OGD3HKDDW564EXDM","A2BK9RMC0NOIH8","32TMVRKDGNK89K6LLIZX5RPIVK148D","","null","<img src=""img/land2.png"" style=""width:200px;border:14px solid red;"">","null","","","","","","","","","",""
"","image-keyboard-response","98","54762","0.0-98.0","3OSWBBLG1FJDA1OGD3HKDDW564EXDM","A2BK9RMC0NOIH8","32TMVRKDGNK89K6LLIZX5RPIVK148D","","136.69999992847443","img/land2.png","76","137.89999997615814","3","0","2","1","1,0.5,0.5,0.5,1,0.5,0.5,0.5,1","1,0.5,0.5,0.5,1,0.5,0.5,0.5,1","","",""
"","html-keyboard-response","99","55064","0.0-99.0","3OSWBBLG1FJDA1OGD3HKDDW564EXDM","A2BK9RMC0NOIH8","32TMVRKDGNK89K6LLIZX5RPIVK148D","","null","<img src=""img/land2.png"" style=""width:200px;border:14px solid red;"">","null","","","","","","","","","",""
"","image-keyboard-response","100","55394","0.0-100.0","3OSWBBLG1FJDA1OGD3HKDDW564EXDM","A2BK9RMC0NOIH8","32TMVRKDGNK89K6LLIZX5RPIVK148D","","330.1999999284744","img/land2.png","75","330.7000000476837","2","1","2","1","1,0.5,0.5,0.5,1,0.5,0.5,0.5,1","1,0.5,0.5,0.5,1,0.5,0.5,0.5,1","","",""
"","html-keyboard-response","101","55697","0.0-101.0","3OSWBBLG1FJDA1OGD3HKDDW564EXDM","A2BK9RMC0NOIH8","32TMVRKDGNK89K6LLIZX5RPIVK148D","","null","<img src=""img/land2.png"" style=""width:200px; border:14px solid green;"">","null","","","","","","","","","",""
"","image-keyboard-response","102","55850","0.0-102.0","3OSWBBLG1FJDA1OGD3HKDDW564EXDM","A2BK9RMC0NOIH8","32TMVRKDGNK89K6LLIZX5RPIVK148D","","153.20000004768372","img/land2.png","76","153.69999992847443","3","0","2","1","1,0.5,0.5,0.5,1,0.5,0.5,0.5,1","1,0.5,0.5,0.5,1,0.5,0.5,0.5,1","","",""
"","html-keyboard-response","103","56153","0.0-103.0","3OSWBBLG1FJDA1OGD3HKDDW564EXDM","A2BK9RMC0NOIH8","32TMVRKDGNK89K6LLIZX5RPIVK148D","","null","<img src=""img/land2.png"" style=""width:200px;border:14px solid red;"">","null","","","","","","","","","",""
"","image-keyboard-response","104","56178","0.0-104.0","3OSWBBLG1FJDA1OGD3HKDDW564EXDM","A2BK9RMC0NOIH8","32TMVRKDGNK89K6LLIZX5RPIVK148D","","25.09999990463257","img/land3.png","75","25.5","2","0","3","1","1,0.5,0.5,0.5,1,0.5,0.5,0.5,1","1,0.5,0.5,0.5,1,0.5,0.5,0.5,1","","",""
"","html-keyboard-response","105","56481","0.0-105.0","3OSWBBLG1FJDA1OGD3HKDDW564EXDM","A2BK9RMC0NOIH8","32TMVRKDGNK89K6LLIZX5RPIVK148D","","null","<img src=""img/land3.png"" style=""width:200px;border:14px solid red;"">","null","","","","","","","","","",""
"","image-keyboard-response","106","56594","0.0-106.0","3OSWBBLG1FJDA1OGD3HKDDW564EXDM","A2BK9RMC0NOIH8","32TMVRKDGNK89K6LLIZX5RPIVK148D","","113","img/land2.png","74","113.60000002384186","1","0","2","1","1,0.5,0.5,0.5,1,0.5,0.5,0.5,1","1,0.5,0.5,0.5,1,0.5,0.5,0.5,1","","",""
"","html-keyboard-response","107","56896","0.0-107.0","3OSWBBLG1FJDA1OGD3HKDDW564EXDM","A2BK9RMC0NOIH8","32TMVRKDGNK89K6LLIZX5RPIVK148D","","null","<img src=""img/land2.png"" style=""width:200px;border:14px solid red;"">","null","","","","","","","","","",""
"","image-keyboard-response","108","57122","0.0-108.0","3OSWBBLG1FJDA1OGD3HKDDW564EXDM","A2BK9RMC0NOIH8","32TMVRKDGNK89K6LLIZX5RPIVK148D","","225.80000007152557","img/land3.png","75","226.19999992847443","2","0","3","1","1,0.5,0.5,0.5,1,0.5,0.5,0.5,1","1,0.5,0.5,0.5,1,0.5,0.5,0.5,1","","",""
"","html-keyboard-response","109","57424","0.0-109.0","3OSWBBLG1FJDA1OGD3HKDDW564EXDM","A2BK9RMC0NOIH8","32TMVRKDGNK89K6LLIZX5RPIVK148D","","null","<img src=""img/land3.png"" style=""width:200px;border:14px solid red;"">","null","","","","","","","","","",""
"","image-keyboard-response","110","57659","0.0-110.0","3OSWBBLG1FJDA1OGD3HKDDW564EXDM","A2BK9RMC0NOIH8","32TMVRKDGNK89K6LLIZX5RPIVK148D","","234","img/land2.png","76","234.39999997615814","3","0","2","1","1,0.5,0.5,0.5,1,0.5,0.5,0.5,1","1,0.5,0.5,0.5,1,0.5,0.5,0.5,1","","",""
"","html-keyboard-response","111","57961","0.0-111.0","3OSWBBLG1FJDA1OGD3HKDDW564EXDM","A2BK9RMC0NOIH8","32TMVRKDGNK89K6LLIZX5RPIVK148D","","null","<img src=""img/land2.png"" style=""width:200px;border:14px solid red;"">","null","","","","","","","","","",""
"","image-keyboard-response","112","58122","0.0-112.0","3OSWBBLG1FJDA1OGD3HKDDW564EXDM","A2BK9RMC0NOIH8","32TMVRKDGNK89K6LLIZX5RPIVK148D","","160.89999997615814","img/land1.png","75","161.39999997615814","2","1","1","1","1,0.5,0.5,0.5,1,0.5,0.5,0.5,1","1,0.5,0.5,0.5,1,0.5,0.5,0.5,1","","",""
"","html-keyboard-response","113","58424","0.0-113.0","3OSWBBLG1FJDA1OGD3HKDDW564EXDM","A2BK9RMC0NOIH8","32TMVRKDGNK89K6LLIZX5RPIVK148D","","null","<img src=""img/land1.png"" style=""width:200px; border:14px solid green;"">","null","","","","","","","","","",""
"","image-keyboard-response","114","58514","0.0-114.0","3OSWBBLG1FJDA1OGD3HKDDW564EXDM","A2BK9RMC0NOIH8","32TMVRKDGNK89K6LLIZX5RPIVK148D","","89.59999990463257","img/land2.png","74","90","1","1","2","1","1,0.5,0.5,0.5,1,0.5,0.5,0.5,1","1,0.5,0.5,0.5,1,0.5,0.5,0.5,1","","",""
"","html-keyboard-response","115","58815","0.0-115.0","3OSWBBLG1FJDA1OGD3HKDDW564EXDM","A2BK9RMC0NOIH8","32TMVRKDGNK89K6LLIZX5RPIVK148D","","null","<img src=""img/land2.png"" style=""width:200px; border:14px solid green;"">","null","","","","","","","","","",""
"","image-keyboard-response","116","58954","0.0-116.0","3OSWBBLG1FJDA1OGD3HKDDW564EXDM","A2BK9RMC0NOIH8","32TMVRKDGNK89K6LLIZX5RPIVK148D","","138.30000007152557","img/land3.png","74","138.79999995231628","1","1","3","1","1,0.5,0.5,0.5,1,0.5,0.5,0.5,1","1,0.5,0.5,0.5,1,0.5,0.5,0.5,1","","",""
"","html-keyboard-response","117","59257","0.0-117.0","3OSWBBLG1FJDA1OGD3HKDDW564EXDM","A2BK9RMC0NOIH8","32TMVRKDGNK89K6LLIZX5RPIVK148D","","null","<img src=""img/land3.png"" style=""width:200px; border:14px solid green;"">","null","","","","","","","","","",""
"","image-keyboard-response","118","59418","0.0-118.0","3OSWBBLG1FJDA1OGD3HKDDW564EXDM","A2BK9RMC0NOIH8","32TMVRKDGNK89K6LLIZX5RPIVK148D","","161","img/land2.png","75","161.39999997615814","2","1","2","1","1,0.5,0.5,0.5,1,0.5,0.5,0.5,1","1,0.5,0.5,0.5,1,0.5,0.5,0.5,1","","",""
"","html-keyboard-response","119","59730","0.0-119.0","3OSWBBLG1FJDA1OGD3HKDDW564EXDM","A2BK9RMC0NOIH8","32TMVRKDGNK89K6LLIZX5RPIVK148D","","null","<img src=""img/land2.png"" style=""width:200px; border:14px solid green;"">","null","","","","","","","","","",""
"","image-keyboard-response","120","59882","0.0-120.0","3OSWBBLG1FJDA1OGD3HKDDW564EXDM","A2BK9RMC0NOIH8","32TMVRKDGNK89K6LLIZX5RPIVK148D","","151.09999990463257","img/land3.png","76","151.89999997615814","3","1","3","1","1,0.5,0.5,0.5,1,0.5,0.5,0.5,1","1,0.5,0.5,0.5,1,0.5,0.5,0.5,1","","",""
"","html-keyboard-response","121","60185","0.0-121.0","3OSWBBLG1FJDA1OGD3HKDDW564EXDM","A2BK9RMC0NOIH8","32TMVRKDGNK89K6LLIZX5RPIVK148D","","null","<img src=""img/land3.png"" style=""width:200px; border:14px solid green;"">","null","","","","","","","","","",""
"","image-keyboard-response","122","60242","0.0-122.0","3OSWBBLG1FJDA1OGD3HKDDW564EXDM","A2BK9RMC0NOIH8","32TMVRKDGNK89K6LLIZX5RPIVK148D","","57.200000047683716","img/land3.png","75","57.799999952316284","2","1","3","1","1,0.5,0.5,0.5,1,0.5,0.5,0.5,1","1,0.5,0.5,0.5,1,0.5,0.5,0.5,1","","",""
"","html-keyboard-response","123","60544","0.0-123.0","3OSWBBLG1FJDA1OGD3HKDDW564EXDM","A2BK9RMC0NOIH8","32TMVRKDGNK89K6LLIZX5RPIVK148D","","null","<img src=""img/land3.png"" style=""width:200px; border:14px solid green;"">","null","","","","","","","","","",""
"","image-keyboard-response","124","60611","0.0-124.0","3OSWBBLG1FJDA1OGD3HKDDW564EXDM","A2BK9RMC0NOIH8","32TMVRKDGNK89K6LLIZX5RPIVK148D","","66","img/land1.png","74","66.60000002384186","1","1","1","1","1,0.5,0.5,0.5,1,0.5,0.5,0.5,1","1,0.5,0.5,0.5,1,0.5,0.5,0.5,1","","",""
"","html-keyboard-response","125","60912","0.0-125.0","3OSWBBLG1FJDA1OGD3HKDDW564EXDM","A2BK9RMC0NOIH8","32TMVRKDGNK89K6LLIZX5RPIVK148D","","null","<img src=""img/land1.png"" style=""width:200px; border:14px solid green;"">","null","","","","","","","","","",""
"","image-keyboard-response","126","60978","0.0-126.0","3OSWBBLG1FJDA1OGD3HKDDW564EXDM","A2BK9RMC0NOIH8","32TMVRKDGNK89K6LLIZX5RPIVK148D","","65.30000007152557","img/land2.png","74","65.79999995231628","1","1","2","1","1,0.5,0.5,0.5,1,0.5,0.5,0.5,1","1,0.5,0.5,0.5,1,0.5,0.5,0.5,1","","",""
"","html-keyboard-response","127","61281","0.0-127.0","3OSWBBLG1FJDA1OGD3HKDDW564EXDM","A2BK9RMC0NOIH8","32TMVRKDGNK89K6LLIZX5RPIVK148D","","null","<img src=""img/land2.png"" style=""width:200px; border:14px solid green;"">","null","","","","","","","","","",""
"","image-keyboard-response","128","61386","0.0-128.0","3OSWBBLG1FJDA1OGD3HKDDW564EXDM","A2BK9RMC0NOIH8","32TMVRKDGNK89K6LLIZX5RPIVK148D","","105.10000002384186","img/land3.png","75","105.39999997615814","2","1","3","1","1,0.5,0.5,0.5,1,0.5,0.5,0.5,1","1,0.5,0.5,0.5,1,0.5,0.5,0.5,1","","",""
"","html-keyboard-response","129","61688","0.0-129.0","3OSWBBLG1FJDA1OGD3HKDDW564EXDM","A2BK9RMC0NOIH8","32TMVRKDGNK89K6LLIZX5RPIVK148D","","null","<img src=""img/land3.png"" style=""width:200px; border:14px solid green;"">","null","","","","","","","","","",""
"","image-keyboard-response","130","61723","0.0-130.0","3OSWBBLG1FJDA1OGD3HKDDW564EXDM","A2BK9RMC0NOIH8","32TMVRKDGNK89K6LLIZX5RPIVK148D","","34.699999928474426","img/land1.png","75","35.10000002384186","2","1","1","1","1,0.5,0.5,0.5,1,0.5,0.5,0.5,1","1,0.5,0.5,0.5,1,0.5,0.5,0.5,1","","",""
"","html-keyboard-response","131","62025","0.0-131.0","3OSWBBLG1FJDA1OGD3HKDDW564EXDM","A2BK9RMC0NOIH8","32TMVRKDGNK89K6LLIZX5RPIVK148D","","null","<img src=""img/land1.png"" style=""width:200px; border:14px solid green;"">","null","","","","","","","","","",""
"","image-keyboard-response","132","62114","0.0-132.0","3OSWBBLG1FJDA1OGD3HKDDW564EXDM","A2BK9RMC0NOIH8","32TMVRKDGNK89K6LLIZX5RPIVK148D","","88.5","img/land1.png","76","89","3","0","1","1","1,0.5,0.5,0.5,1,0.5,0.5,0.5,1","1,0.5,0.5,0.5,1,0.5,0.5,0.5,1","","",""
"","html-keyboard-response","133","62421","0.0-133.0","3OSWBBLG1FJDA1OGD3HKDDW564EXDM","A2BK9RMC0NOIH8","32TMVRKDGNK89K6LLIZX5RPIVK148D","","null","<img src=""img/land1.png"" style=""width:200px;border:14px solid red;"">","null","","","","","","","","","",""
"","image-keyboard-response","134","62643","0.0-134.0","3OSWBBLG1FJDA1OGD3HKDDW564EXDM","A2BK9RMC0NOIH8","32TMVRKDGNK89K6LLIZX5RPIVK148D","","221","img/land3.png","75","221.5","2","0","3","1","1,0.5,0.5,0.5,1,0.5,0.5,0.5,1","1,0.5,0.5,0.5,1,0.5,0.5,0.5,1","","",""
"","html-keyboard-response","135","62945","0.0-135.0","3OSWBBLG1FJDA1OGD3HKDDW564EXDM","A2BK9RMC0NOIH8","32TMVRKDGNK89K6LLIZX5RPIVK148D","","null","<img src=""img/land3.png"" style=""width:200px;border:14px solid red;"">","null","","","","","","","","","",""
"","image-keyboard-response","136","63003","0.0-136.0","3OSWBBLG1FJDA1OGD3HKDDW564EXDM","A2BK9RMC0NOIH8","32TMVRKDGNK89K6LLIZX5RPIVK148D","","57.199999928474426","img/land1.png","74","57.700000047683716","1","1","1","1","1,0.5,0.5,0.5,1,0.5,0.5,0.5,1","1,0.5,0.5,0.5,1,0.5,0.5,0.5,1","","",""
"","html-keyboard-response","137","63304","0.0-137.0","3OSWBBLG1FJDA1OGD3HKDDW564EXDM","A2BK9RMC0NOIH8","32TMVRKDGNK89K6LLIZX5RPIVK148D","","null","<img src=""img/land1.png"" style=""width:200px; border:14px solid green;"">","null","","","","","","","","","",""
"","image-keyboard-response","138","63434","0.0-138.0","3OSWBBLG1FJDA1OGD3HKDDW564EXDM","A2BK9RMC0NOIH8","32TMVRKDGNK89K6LLIZX5RPIVK148D","","129.59999990463257","img/land1.png","74","129.89999997615814","1","1","1","1","1,0.5,0.5,0.5,1,0.5,0.5,0.5,1","1,0.5,0.5,0.5,1,0.5,0.5,0.5,1","","",""
"","html-keyboard-response","139","63736","0.0-139.0","3OSWBBLG1FJDA1OGD3HKDDW564EXDM","A2BK9RMC0NOIH8","32TMVRKDGNK89K6LLIZX5RPIVK148D","","null","<img src=""img/land1.png"" style=""width:200px; border:14px solid green;"">","null","","","","","","","","","",""
"","image-keyboard-response","140","63747","0.0-140.0","3OSWBBLG1FJDA1OGD3HKDDW564EXDM","A2BK9RMC0NOIH8","32TMVRKDGNK89K6LLIZX5RPIVK148D","","10.299999952316284","img/land1.png","75","10.900000095367432","2","1","1","1","1,0.5,0.5,0.5,1,0.5,0.5,0.5,1","1,0.5,0.5,0.5,1,0.5,0.5,0.5,1","","",""
"","html-keyboard-response","141","64049","0.0-141.0","3OSWBBLG1FJDA1OGD3HKDDW564EXDM","A2BK9RMC0NOIH8","32TMVRKDGNK89K6LLIZX5RPIVK148D","","null","<img src=""img/land1.png"" style=""width:200px; border:14px solid green;"">","null","","","","","","","","","",""
"","image-keyboard-response","142","64178","0.0-142.0","3OSWBBLG1FJDA1OGD3HKDDW564EXDM","A2BK9RMC0NOIH8","32TMVRKDGNK89K6LLIZX5RPIVK148D","","129","img/land3.png","75","129.39999997615814","2","0","3","1","1,0.5,0.5,0.5,1,0.5,0.5,0.5,1","1,0.5,0.5,0.5,1,0.5,0.5,0.5,1","","",""
"","html-keyboard-response","143","64480","0.0-143.0","3OSWBBLG1FJDA1OGD3HKDDW564EXDM","A2BK9RMC0NOIH8","32TMVRKDGNK89K6LLIZX5RPIVK148D","","null","<img src=""img/land3.png"" style=""width:200px;border:14px solid red;"">","null","","","","","","","","","",""
"","image-keyboard-response","144","64611","0.0-144.0","3OSWBBLG1FJDA1OGD3HKDDW564EXDM","A2BK9RMC0NOIH8","32TMVRKDGNK89K6LLIZX5RPIVK148D","","130","img/land1.png","76","130.60000002384186","3","0","1","1","1,0.5,0.5,0.5,1,0.5,0.5,0.5,1","1,0.5,0.5,0.5,1,0.5,0.5,0.5,1","","",""
"","html-keyboard-response","145","64912","0.0-145.0","3OSWBBLG1FJDA1OGD3HKDDW564EXDM","A2BK9RMC0NOIH8","32TMVRKDGNK89K6LLIZX5RPIVK148D","","null","<img src=""img/land1.png"" style=""width:200px;border:14px solid red;"">","null","","","","","","","","","",""
"","image-keyboard-response","146","65026","0.0-146.0","3OSWBBLG1FJDA1OGD3HKDDW564EXDM","A2BK9RMC0NOIH8","32TMVRKDGNK89K6LLIZX5RPIVK148D","","113.69999992847443","img/land3.png","75","114.20000004768372","2","0","3","1","1,0.5,0.5,0.5,1,0.5,0.5,0.5,1","1,0.5,0.5,0.5,1,0.5,0.5,0.5,1","","",""
"","html-keyboard-response","147","65328","0.0-147.0","3OSWBBLG1FJDA1OGD3HKDDW564EXDM","A2BK9RMC0NOIH8","32TMVRKDGNK89K6LLIZX5RPIVK148D","","null","<img src=""img/land3.png"" style=""width:200px;border:14px solid red;"">","null","","","","","","","","","",""
"","image-keyboard-response","148","65394","0.0-148.0","3OSWBBLG1FJDA1OGD3HKDDW564EXDM","A2BK9RMC0NOIH8","32TMVRKDGNK89K6LLIZX5RPIVK148D","","66","img/land3.png","74","66.39999997615814","1","1","3","1","1,0.5,0.5,0.5,1,0.5,0.5,0.5,1","1,0.5,0.5,0.5,1,0.5,0.5,0.5,1","","",""
"","html-keyboard-response","149","65696","0.0-149.0","3OSWBBLG1FJDA1OGD3HKDDW564EXDM","A2BK9RMC0NOIH8","32TMVRKDGNK89K6LLIZX5RPIVK148D","","null","<img src=""img/land3.png"" style=""width:200px; border:14px solid green;"">","null","","","","","","","","","",""
"","image-keyboard-response","150","65818","0.0-150.0","3OSWBBLG1FJDA1OGD3HKDDW564EXDM","A2BK9RMC0NOIH8","32TMVRKDGNK89K6LLIZX5RPIVK148D","","121.19999992847443","img/land1.png","74","121.89999997615814","1","1","1","1","1,0.5,0.5,0.5,1,0.5,0.5,0.5,1","1,0.5,0.5,0.5,1,0.5,0.5,0.5,1","","",""
"","html-keyboard-response","151","66120","0.0-151.0","3OSWBBLG1FJDA1OGD3HKDDW564EXDM","A2BK9RMC0NOIH8","32TMVRKDGNK89K6LLIZX5RPIVK148D","","null","<img src=""img/land1.png"" style=""width:200px; border:14px solid green;"">","null","","","","","","","","","",""
"","image-keyboard-response","152","66146","0.0-152.0","3OSWBBLG1FJDA1OGD3HKDDW564EXDM","A2BK9RMC0NOIH8","32TMVRKDGNK89K6LLIZX5RPIVK148D","","25.5","img/land1.png","75","25.899999976158142","2","0","1","1","1,0.5,0.5,0.5,1,0.5,0.5,0.5,1","1,0.5,0.5,0.5,1,0.5,0.5,0.5,1","","",""
"","html-keyboard-response","153","66454","0.0-153.0","3OSWBBLG1FJDA1OGD3HKDDW564EXDM","A2BK9RMC0NOIH8","32TMVRKDGNK89K6LLIZX5RPIVK148D","","null","<img src=""img/land1.png"" style=""width:200px;border:14px solid red;"">","null","","","","","","","","","",""
"","image-keyboard-response","154","66538","0.0-154.0","3OSWBBLG1FJDA1OGD3HKDDW564EXDM","A2BK9RMC0NOIH8","32TMVRKDGNK89K6LLIZX5RPIVK148D","","83.09999990463257","img/land3.png","76","83.79999995231628","3","1","3","1","1,0.5,0.5,0.5,1,0.5,0.5,0.5,1","1,0.5,0.5,0.5,1,0.5,0.5,0.5,1","","",""
"","html-keyboard-response","155","66841","0.0-155.0","3OSWBBLG1FJDA1OGD3HKDDW564EXDM","A2BK9RMC0NOIH8","32TMVRKDGNK89K6LLIZX5RPIVK148D","","null","<img src=""img/land3.png"" style=""width:200px; border:14px solid green;"">","null","","","","","","","","","",""
"","image-keyboard-response","156","66916","0.0-156.0","3OSWBBLG1FJDA1OGD3HKDDW564EXDM","A2BK9RMC0NOIH8","32TMVRKDGNK89K6LLIZX5RPIVK148D","","75","img/land2.png","76","75.5","3","1","2","1","1,0.5,0.5,0.5,1,0.5,0.5,0.5,1","1,0.5,0.5,0.5,1,0.5,0.5,0.5,1","","",""
"","html-keyboard-response","157","67218","0.0-157.0","3OSWBBLG1FJDA1OGD3HKDDW564EXDM","A2BK9RMC0NOIH8","32TMVRKDGNK89K6LLIZX5RPIVK148D","","null","<img src=""img/land2.png"" style=""width:200px; border:14px solid green;"">","null","","","","","","","","","",""
"","image-keyboard-response","158","67242","0.0-158.0","3OSWBBLG1FJDA1OGD3HKDDW564EXDM","A2BK9RMC0NOIH8","32TMVRKDGNK89K6LLIZX5RPIVK148D","","23.800000071525574","img/land2.png","75","24.399999976158142","2","1","2","1","1,0.5,0.5,0.5,1,0.5,0.5,0.5,1","1,0.5,0.5,0.5,1,0.5,0.5,0.5,1","","",""
"","html-keyboard-response","159","67551","0.0-159.0","3OSWBBLG1FJDA1OGD3HKDDW564EXDM","A2BK9RMC0NOIH8","32TMVRKDGNK89K6LLIZX5RPIVK148D","","null","<img src=""img/land2.png"" style=""width:200px; border:14px solid green;"">","null","","","","","","","","","",""
"","image-keyboard-response","160","67642","0.0-160.0","3OSWBBLG1FJDA1OGD3HKDDW564EXDM","A2BK9RMC0NOIH8","32TMVRKDGNK89K6LLIZX5RPIVK148D","","90.60000002384186","img/land3.png","74","91.20000004768372","1","1","3","1","1,0.5,0.5,0.5,1,0.5,0.5,0.5,1","1,0.5,0.5,0.5,1,0.5,0.5,0.5,1","","",""
"","html-keyboard-response","161","67945","0.0-161.0","3OSWBBLG1FJDA1OGD3HKDDW564EXDM","A2BK9RMC0NOIH8","32TMVRKDGNK89K6LLIZX5RPIVK148D","","null","<img src=""img/land3.png"" style=""width:200px; border:14px solid green;"">","null","","","","","","","","","",""
"","image-keyboard-response","162","68018","0.0-162.0","3OSWBBLG1FJDA1OGD3HKDDW564EXDM","A2BK9RMC0NOIH8","32TMVRKDGNK89K6LLIZX5RPIVK148D","","73.10000002384186","img/land1.png","74","73.60000002384186","1","1","1","1","1,0.5,0.5,0.5,1,0.5,0.5,0.5,1","1,0.5,0.5,0.5,1,0.5,0.5,0.5,1","","",""
"","html-keyboard-response","163","68319","0.0-163.0","3OSWBBLG1FJDA1OGD3HKDDW564EXDM","A2BK9RMC0NOIH8","32TMVRKDGNK89K6LLIZX5RPIVK148D","","null","<img src=""img/land1.png"" style=""width:200px; border:14px solid green;"">","null","","","","","","","","","",""
"","image-keyboard-response","164","68402","0.0-164.0","3OSWBBLG1FJDA1OGD3HKDDW564EXDM","A2BK9RMC0NOIH8","32TMVRKDGNK89K6LLIZX5RPIVK148D","","82.69999992847443","img/land1.png","74","83.20000004768372","1","1","1","1","1,0.5,0.5,0.5,1,0.5,0.5,0.5,1","1,0.5,0.5,0.5,1,0.5,0.5,0.5,1","","",""
"","html-keyboard-response","165","68714","0.0-165.0","3OSWBBLG1FJDA1OGD3HKDDW564EXDM","A2BK9RMC0NOIH8","32TMVRKDGNK89K6LLIZX5RPIVK148D","","null","<img src=""img/land1.png"" style=""width:200px; border:14px solid green;"">","null","","","","","","","","","",""
"","image-keyboard-response","166","69018","0.0-166.0","3OSWBBLG1FJDA1OGD3HKDDW564EXDM","A2BK9RMC0NOIH8","32TMVRKDGNK89K6LLIZX5RPIVK148D","","303.5","img/land3.png","75","304.3000000715256","2","0","3","1","1,0.5,0.5,0.5,1,0.5,0.5,0.5,1","1,0.5,0.5,0.5,1,0.5,0.5,0.5,1","","",""
"","html-keyboard-response","167","69321","0.0-167.0","3OSWBBLG1FJDA1OGD3HKDDW564EXDM","A2BK9RMC0NOIH8","32TMVRKDGNK89K6LLIZX5RPIVK148D","","null","<img src=""img/land3.png"" style=""width:200px;border:14px solid red;"">","null","","","","","","","","","",""
"","image-keyboard-response","168","69386","0.0-168.0","3OSWBBLG1FJDA1OGD3HKDDW564EXDM","A2BK9RMC0NOIH8","32TMVRKDGNK89K6LLIZX5RPIVK148D","","65","img/land1.png","76","65.5","3","1","1","1","1,0.5,0.5,0.5,1,0.5,0.5,0.5,1","1,0.5,0.5,0.5,1,0.5,0.5,0.5,1","","",""
"","html-keyboard-response","169","69696","0.0-169.0","3OSWBBLG1FJDA1OGD3HKDDW564EXDM","A2BK9RMC0NOIH8","32TMVRKDGNK89K6LLIZX5RPIVK148D","","null","<img src=""img/land1.png"" style=""width:200px; border:14px solid green;"">","null","","","","","","","","","",""
"","image-keyboard-response","170","69722","0.0-170.0","3OSWBBLG1FJDA1OGD3HKDDW564EXDM","A2BK9RMC0NOIH8","32TMVRKDGNK89K6LLIZX5RPIVK148D","","25.799999952316284","img/land1.png","76","26.199999928474426","3","1","1","1","1,0.5,0.5,0.5,1,0.5,0.5,0.5,1","1,0.5,0.5,0.5,1,0.5,0.5,0.5,1","","",""
"","html-keyboard-response","171","70025","0.0-171.0","3OSWBBLG1FJDA1OGD3HKDDW564EXDM","A2BK9RMC0NOIH8","32TMVRKDGNK89K6LLIZX5RPIVK148D","","null","<img src=""img/land1.png"" style=""width:200px; border:14px solid green;"">","null","","","","","","","","","",""
"","image-keyboard-response","172","70034","0.0-172.0","3OSWBBLG1FJDA1OGD3HKDDW564EXDM","A2BK9RMC0NOIH8","32TMVRKDGNK89K6LLIZX5RPIVK148D","","8.899999976158142","img/land3.png","75","9.5","2","0","3","1","1,0.5,0.5,0.5,1,0.5,0.5,0.5,1","1,0.5,0.5,0.5,1,0.5,0.5,0.5,1","","",""
"","html-keyboard-response","173","70336","0.0-173.0","3OSWBBLG1FJDA1OGD3HKDDW564EXDM","A2BK9RMC0NOIH8","32TMVRKDGNK89K6LLIZX5RPIVK148D","","null","<img src=""img/land3.png"" style=""width:200px;border:14px solid red;"">","null","","","","","","","","","",""
"","image-keyboard-response","174","70370","0.0-174.0","3OSWBBLG1FJDA1OGD3HKDDW564EXDM","A2BK9RMC0NOIH8","32TMVRKDGNK89K6LLIZX5RPIVK148D","","33.59999990463257","img/land3.png","74","34.10000002384186","1","0","3","1","1,0.5,0.5,0.5,1,0.5,0.5,0.5,1","1,0.5,0.5,0.5,1,0.5,0.5,0.5,1","","",""
"","html-keyboard-response","175","70672","0.0-175.0","3OSWBBLG1FJDA1OGD3HKDDW564EXDM","A2BK9RMC0NOIH8","32TMVRKDGNK89K6LLIZX5RPIVK148D","","null","<img src=""img/land3.png"" style=""width:200px;border:14px solid red;"">","null","","","","","","","","","",""
"","image-keyboard-response","176","70930","0.0-176.0","3OSWBBLG1FJDA1OGD3HKDDW564EXDM","A2BK9RMC0NOIH8","32TMVRKDGNK89K6LLIZX5RPIVK148D","","258.2000000476837","img/land1.png","74","258.5","1","1","1","1","1,0.5,0.5,0.5,1,0.5,0.5,0.5,1","1,0.5,0.5,0.5,1,0.5,0.5,0.5,1","","",""
"","html-keyboard-response","177","71231","0.0-177.0","3OSWBBLG1FJDA1OGD3HKDDW564EXDM","A2BK9RMC0NOIH8","32TMVRKDGNK89K6LLIZX5RPIVK148D","","null","<img src=""img/land1.png"" style=""width:200px; border:14px solid green;"">","null","","","","","","","","","",""
"","image-keyboard-response","178","71250","0.0-178.0","3OSWBBLG1FJDA1OGD3HKDDW564EXDM","A2BK9RMC0NOIH8","32TMVRKDGNK89K6LLIZX5RPIVK148D","","18.40000009536743","img/land3.png","75","18.799999952316284","2","0","3","1","1,0.5,0.5,0.5,1,0.5,0.5,0.5,1","1,0.5,0.5,0.5,1,0.5,0.5,0.5,1","","",""
"","html-keyboard-response","179","71556","0.0-179.0","3OSWBBLG1FJDA1OGD3HKDDW564EXDM","A2BK9RMC0NOIH8","32TMVRKDGNK89K6LLIZX5RPIVK148D","","null","<img src=""img/land3.png"" style=""width:200px;border:14px solid red;"">","null","","","","","","","","","",""
"","image-keyboard-response","180","71939","0.0-180.0","3OSWBBLG1FJDA1OGD3HKDDW564EXDM","A2BK9RMC0NOIH8","32TMVRKDGNK89K6LLIZX5RPIVK148D","","380.89999997615814","img/land2.png","75","382","2","1","2","1","1,0.5,0.5,0.5,1,0.5,0.5,0.5,1","1,0.5,0.5,0.5,1,0.5,0.5,0.5,1","","",""
"","html-keyboard-response","181","72252","0.0-181.0","3OSWBBLG1FJDA1OGD3HKDDW564EXDM","A2BK9RMC0NOIH8","32TMVRKDGNK89K6LLIZX5RPIVK148D","","null","<img src=""img/land2.png"" style=""width:200px; border:14px solid green;"">","null","","","","","","","","","",""
"","html-keyboard-response","182","81846","0.0-182.0","3OSWBBLG1FJDA1OGD3HKDDW564EXDM","A2BK9RMC0NOIH8","32TMVRKDGNK89K6LLIZX5RPIVK148D","","","","","","","","","","","","","",""
"","image-keyboard-response","183","82483","0.0-183.0","3OSWBBLG1FJDA1OGD3HKDDW564EXDM","A2BK9RMC0NOIH8","32TMVRKDGNK89K6LLIZX5RPIVK148D","","635.7999999523163","img/land6.png","75","636.6000000238419","2","1","3","1","1,0.5,0.5,0.5,1,0.5,0.5,0.5,1","1,0.5,0.5,0.5,1,0.5,0.5,0.5,1","","",""
"","html-keyboard-response","184","82784","0.0-184.0","3OSWBBLG1FJDA1OGD3HKDDW564EXDM","A2BK9RMC0NOIH8","32TMVRKDGNK89K6LLIZX5RPIVK148D","","null","<img src=""img/land6.png"" style=""width:200px; border:14px solid green;"">","null","","","","","","","","","",""
"","image-keyboard-response","185","82786","0.0-185.0","3OSWBBLG1FJDA1OGD3HKDDW564EXDM","A2BK9RMC0NOIH8","32TMVRKDGNK89K6LLIZX5RPIVK148D","","1.600000023841858","img/land4.png","75","1.899999976158142","2","1","1","1","1,0.5,0.5,0.5,1,0.5,0.5,0.5,1","1,0.5,0.5,0.5,1,0.5,0.5,0.5,1","","",""
"","html-keyboard-response","186","83088","0.0-186.0","3OSWBBLG1FJDA1OGD3HKDDW564EXDM","A2BK9RMC0NOIH8","32TMVRKDGNK89K6LLIZX5RPIVK148D","","null","<img src=""img/land4.png"" style=""width:200px; border:14px solid green;"">","null","","","","","","","","","",""
"","image-keyboard-response","187","83146","0.0-187.0","3OSWBBLG1FJDA1OGD3HKDDW564EXDM","A2BK9RMC0NOIH8","32TMVRKDGNK89K6LLIZX5RPIVK148D","","57.200000047683716","img/land5.png","74","57.799999952316284","1","1","2","1","1,0.5,0.5,0.5,1,0.5,0.5,0.5,1","1,0.5,0.5,0.5,1,0.5,0.5,0.5,1","","",""
"","html-keyboard-response","188","83452","0.0-188.0","3OSWBBLG1FJDA1OGD3HKDDW564EXDM","A2BK9RMC0NOIH8","32TMVRKDGNK89K6LLIZX5RPIVK148D","","null","<img src=""img/land5.png"" style=""width:200px; border:14px solid green;"">","null","","","","","","","","","",""
"","image-keyboard-response","189","83555","0.0-189.0","3OSWBBLG1FJDA1OGD3HKDDW564EXDM","A2BK9RMC0NOIH8","32TMVRKDGNK89K6LLIZX5RPIVK148D","","101.70000004768372","img/land6.png","75","102.10000002384186","2","0","3","1","1,0.5,0.5,0.5,1,0.5,0.5,0.5,1","1,0.5,0.5,0.5,1,0.5,0.5,0.5,1","","",""
"","html-keyboard-response","190","83857","0.0-190.0","3OSWBBLG1FJDA1OGD3HKDDW564EXDM","A2BK9RMC0NOIH8","32TMVRKDGNK89K6LLIZX5RPIVK148D","","null","<img src=""img/land6.png"" style=""width:200px;border:14px solid red;"">","null","","","","","","","","","",""
"","image-keyboard-response","191","83954","0.0-191.0","3OSWBBLG1FJDA1OGD3HKDDW564EXDM","A2BK9RMC0NOIH8","32TMVRKDGNK89K6LLIZX5RPIVK148D","","96.80000007152557","img/land6.png","76","97.29999995231628","3","1","3","1","1,0.5,0.5,0.5,1,0.5,0.5,0.5,1","1,0.5,0.5,0.5,1,0.5,0.5,0.5,1","","",""
"","html-keyboard-response","192","84256","0.0-192.0","3OSWBBLG1FJDA1OGD3HKDDW564EXDM","A2BK9RMC0NOIH8","32TMVRKDGNK89K6LLIZX5RPIVK148D","","null","<img src=""img/land6.png"" style=""width:200px; border:14px solid green;"">","null","","","","","","","","","",""
"","image-keyboard-response","193","84338","0.0-193.0","3OSWBBLG1FJDA1OGD3HKDDW564EXDM","A2BK9RMC0NOIH8","32TMVRKDGNK89K6LLIZX5RPIVK148D","","81.89999997615814","img/land5.png","75","82.29999995231628","2","1","2","1","1,0.5,0.5,0.5,1,0.5,0.5,0.5,1","1,0.5,0.5,0.5,1,0.5,0.5,0.5,1","","",""
"","html-keyboard-response","194","84640","0.0-194.0","3OSWBBLG1FJDA1OGD3HKDDW564EXDM","A2BK9RMC0NOIH8","32TMVRKDGNK89K6LLIZX5RPIVK148D","","null","<img src=""img/land5.png"" style=""width:200px; border:14px solid green;"">","null","","","","","","","","","",""
"","image-keyboard-response","195","84643","0.0-195.0","3OSWBBLG1FJDA1OGD3HKDDW564EXDM","A2BK9RMC0NOIH8","32TMVRKDGNK89K6LLIZX5RPIVK148D","","1.7000000476837158","img/land4.png","75","2.399999976158142","2","1","1","1","1,0.5,0.5,0.5,1,0.5,0.5,0.5,1","1,0.5,0.5,0.5,1,0.5,0.5,0.5,1","","",""
"","html-keyboard-response","196","84945","0.0-196.0","3OSWBBLG1FJDA1OGD3HKDDW564EXDM","A2BK9RMC0NOIH8","32TMVRKDGNK89K6LLIZX5RPIVK148D","","null","<img src=""img/land4.png"" style=""width:200px; border:14px solid green;"">","null","","","","","","","","","",""
"","image-keyboard-response","197","84970","0.0-197.0","3OSWBBLG1FJDA1OGD3HKDDW564EXDM","A2BK9RMC0NOIH8","32TMVRKDGNK89K6LLIZX5RPIVK148D","","24.199999928474426","img/land4.png","74","24.899999976158142","1","1","1","1","1,0.5,0.5,0.5,1,0.5,0.5,0.5,1","1,0.5,0.5,0.5,1,0.5,0.5,0.5,1","","",""
"","html-keyboard-response","198","85271","0.0-198.0","3OSWBBLG1FJDA1OGD3HKDDW564EXDM","A2BK9RMC0NOIH8","32TMVRKDGNK89K6LLIZX5RPIVK148D","","null","<img src=""img/land4.png"" style=""width:200px; border:14px solid green;"">","null","","","","","","","","","",""
"","image-keyboard-response","199","85282","0.0-199.0","3OSWBBLG1FJDA1OGD3HKDDW564EXDM","A2BK9RMC0NOIH8","32TMVRKDGNK89K6LLIZX5RPIVK148D","","10.699999928474426","img/land5.png","74","11.200000047683716","1","1","2","1","1,0.5,0.5,0.5,1,0.5,0.5,0.5,1","1,0.5,0.5,0.5,1,0.5,0.5,0.5,1","","",""
"","html-keyboard-response","200","85585","0.0-200.0","3OSWBBLG1FJDA1OGD3HKDDW564EXDM","A2BK9RMC0NOIH8","32TMVRKDGNK89K6LLIZX5RPIVK148D","","null","<img src=""img/land5.png"" style=""width:200px; border:14px solid green;"">","null","","","","","","","","","",""
"","image-keyboard-response","201","85634","0.0-201.0","3OSWBBLG1FJDA1OGD3HKDDW564EXDM","A2BK9RMC0NOIH8","32TMVRKDGNK89K6LLIZX5RPIVK148D","","49","img/land6.png","74","49.5","1","1","3","1","1,0.5,0.5,0.5,1,0.5,0.5,0.5,1","1,0.5,0.5,0.5,1,0.5,0.5,0.5,1","","",""
"","html-keyboard-response","202","85936","0.0-202.0","3OSWBBLG1FJDA1OGD3HKDDW564EXDM","A2BK9RMC0NOIH8","32TMVRKDGNK89K6LLIZX5RPIVK148D","","null","<img src=""img/land6.png"" style=""width:200px; border:14px solid green;"">","null","","","","","","","","","",""
"","image-keyboard-response","203","85970","0.0-203.0","3OSWBBLG1FJDA1OGD3HKDDW564EXDM","A2BK9RMC0NOIH8","32TMVRKDGNK89K6LLIZX5RPIVK148D","","33.199999928474426","img/land5.png","75","33.89999997615814","2","1","2","1","1,0.5,0.5,0.5,1,0.5,0.5,0.5,1","1,0.5,0.5,0.5,1,0.5,0.5,0.5,1","","",""
"","html-keyboard-response","204","86272","0.0-204.0","3OSWBBLG1FJDA1OGD3HKDDW564EXDM","A2BK9RMC0NOIH8","32TMVRKDGNK89K6LLIZX5RPIVK148D","","null","<img src=""img/land5.png"" style=""width:200px; border:14px solid green;"">","null","","","","","","","","","",""
"","image-keyboard-response","205","86306","0.0-205.0","3OSWBBLG1FJDA1OGD3HKDDW564EXDM","A2BK9RMC0NOIH8","32TMVRKDGNK89K6LLIZX5RPIVK148D","","33.90000009536743","img/land4.png","75","34.299999952316284","2","0","1","1","1,0.5,0.5,0.5,1,0.5,0.5,0.5,1","1,0.5,0.5,0.5,1,0.5,0.5,0.5,1","","",""
"","html-keyboard-response","206","86621","0.0-206.0","3OSWBBLG1FJDA1OGD3HKDDW564EXDM","A2BK9RMC0NOIH8","32TMVRKDGNK89K6LLIZX5RPIVK148D","","null","<img src=""img/land4.png"" style=""width:200px;border:14px solid red;"">","null","","","","","","","","","",""
"","image-keyboard-response","207","86834","0.0-207.0","3OSWBBLG1FJDA1OGD3HKDDW564EXDM","A2BK9RMC0NOIH8","32TMVRKDGNK89K6LLIZX5RPIVK148D","","213","img/land4.png","76","213.39999997615814","3","0","1","1","1,0.5,0.5,0.5,1,0.5,0.5,0.5,1","1,0.5,0.5,0.5,1,0.5,0.5,0.5,1","","",""
"","html-keyboard-response","208","87136","0.0-208.0","3OSWBBLG1FJDA1OGD3HKDDW564EXDM","A2BK9RMC0NOIH8","32TMVRKDGNK89K6LLIZX5RPIVK148D","","null","<img src=""img/land4.png"" style=""width:200px;border:14px solid red;"">","null","","","","","","","","","",""
"","image-keyboard-response","209","87138","0.0-209.0","3OSWBBLG1FJDA1OGD3HKDDW564EXDM","A2BK9RMC0NOIH8","32TMVRKDGNK89K6LLIZX5RPIVK148D","","1.3000000715255737","img/land6.png","75","1.7999999523162842","2","1","3","1","1,0.5,0.5,0.5,1,0.5,0.5,0.5,1","1,0.5,0.5,0.5,1,0.5,0.5,0.5,1","","",""
"","html-keyboard-response","210","87439","0.0-210.0","3OSWBBLG1FJDA1OGD3HKDDW564EXDM","A2BK9RMC0NOIH8","32TMVRKDGNK89K6LLIZX5RPIVK148D","","null","<img src=""img/land6.png"" style=""width:200px; border:14px solid green;"">","null","","","","","","","","","",""
"","image-keyboard-response","211","87659","0.0-211.0","3OSWBBLG1FJDA1OGD3HKDDW564EXDM","A2BK9RMC0NOIH8","32TMVRKDGNK89K6LLIZX5RPIVK148D","","218.89999997615814","img/land4.png","74","219.5","1","1","1","1","1,0.5,0.5,0.5,1,0.5,0.5,0.5,1","1,0.5,0.5,0.5,1,0.5,0.5,0.5,1","","",""
"","html-keyboard-response","212","87961","0.0-212.0","3OSWBBLG1FJDA1OGD3HKDDW564EXDM","A2BK9RMC0NOIH8","32TMVRKDGNK89K6LLIZX5RPIVK148D","","null","<img src=""img/land4.png"" style=""width:200px; border:14px solid green;"">","null","","","","","","","","","",""
"","image-keyboard-response","213","87979","0.0-213.0","3OSWBBLG1FJDA1OGD3HKDDW564EXDM","A2BK9RMC0NOIH8","32TMVRKDGNK89K6LLIZX5RPIVK148D","","17.100000023841858","img/land6.png","75","17.699999928474426","2","1","3","1","1,0.5,0.5,0.5,1,0.5,0.5,0.5,1","1,0.5,0.5,0.5,1,0.5,0.5,0.5,1","","",""
"","html-keyboard-response","214","88280","0.0-214.0","3OSWBBLG1FJDA1OGD3HKDDW564EXDM","A2BK9RMC0NOIH8","32TMVRKDGNK89K6LLIZX5RPIVK148D","","null","<img src=""img/land6.png"" style=""width:200px; border:14px solid green;"">","null","","","","","","","","","",""
"","image-keyboard-response","215","88418","0.0-215.0","3OSWBBLG1FJDA1OGD3HKDDW564EXDM","A2BK9RMC0NOIH8","32TMVRKDGNK89K6LLIZX5RPIVK148D","","137.5","img/land6.png","76","137.79999995231628","3","1","3","1","1,0.5,0.5,0.5,1,0.5,0.5,0.5,1","1,0.5,0.5,0.5,1,0.5,0.5,0.5,1","","",""
"","html-keyboard-response","216","88720","0.0-216.0","3OSWBBLG1FJDA1OGD3HKDDW564EXDM","A2BK9RMC0NOIH8","32TMVRKDGNK89K6LLIZX5RPIVK148D","","null","<img src=""img/land6.png"" style=""width:200px; border:14px solid green;"">","null","","","","","","","","","",""
"","image-keyboard-response","217","88946","0.0-217.0","3OSWBBLG1FJDA1OGD3HKDDW564EXDM","A2BK9RMC0NOIH8","32TMVRKDGNK89K6LLIZX5RPIVK148D","","225.29999995231628","img/land6.png","75","226.10000002384186","2","1","3","1","1,0.5,0.5,0.5,1,0.5,0.5,0.5,1","1,0.5,0.5,0.5,1,0.5,0.5,0.5,1","","",""
"","html-keyboard-response","218","89247","0.0-218.0","3OSWBBLG1FJDA1OGD3HKDDW564EXDM","A2BK9RMC0NOIH8","32TMVRKDGNK89K6LLIZX5RPIVK148D","","null","<img src=""img/land6.png"" style=""width:200px; border:14px solid green;"">","null","","","","","","","","","",""
"","image-keyboard-response","219","89450","0.0-219.0","3OSWBBLG1FJDA1OGD3HKDDW564EXDM","A2BK9RMC0NOIH8","32TMVRKDGNK89K6LLIZX5RPIVK148D","","202.5","img/land6.png","75","202.89999997615814","2","0","3","1","1,0.5,0.5,0.5,1,0.5,0.5,0.5,1","1,0.5,0.5,0.5,1,0.5,0.5,0.5,1","","",""
"","html-keyboard-response","220","89752","0.0-220.0","3OSWBBLG1FJDA1OGD3HKDDW564EXDM","A2BK9RMC0NOIH8","32TMVRKDGNK89K6LLIZX5RPIVK148D","","null","<img src=""img/land6.png"" style=""width:200px;border:14px solid red;"">","null","","","","","","","","","",""
"","image-keyboard-response","221","90115","0.0-221.0","3OSWBBLG1FJDA1OGD3HKDDW564EXDM","A2BK9RMC0NOIH8","32TMVRKDGNK89K6LLIZX5RPIVK148D","","361.89999997615814","img/land4.png","75","362.59999990463257","2","1","1","1","1,0.5,0.5,0.5,1,0.5,0.5,0.5,1","1,0.5,0.5,0.5,1,0.5,0.5,0.5,1","","",""
"","html-keyboard-response","222","90417","0.0-222.0","3OSWBBLG1FJDA1OGD3HKDDW564EXDM","A2BK9RMC0NOIH8","32TMVRKDGNK89K6LLIZX5RPIVK148D","","null","<img src=""img/land4.png"" style=""width:200px; border:14px solid green;"">","null","","","","","","","","","",""
"","image-keyboard-response","223","90794","0.0-223.0","3OSWBBLG1FJDA1OGD3HKDDW564EXDM","A2BK9RMC0NOIH8","32TMVRKDGNK89K6LLIZX5RPIVK148D","","377.1999999284744","img/land6.png","76","377.60000002384186","3","1","3","1","1,0.5,0.5,0.5,1,0.5,0.5,0.5,1","1,0.5,0.5,0.5,1,0.5,0.5,0.5,1","","",""
"","html-keyboard-response","224","91097","0.0-224.0","3OSWBBLG1FJDA1OGD3HKDDW564EXDM","A2BK9RMC0NOIH8","32TMVRKDGNK89K6LLIZX5RPIVK148D","","null","<img src=""img/land6.png"" style=""width:200px; border:14px solid green;"">","null","","","","","","","","","",""
"","image-keyboard-response","225","91138","0.0-225.0","3OSWBBLG1FJDA1OGD3HKDDW564EXDM","A2BK9RMC0NOIH8","32TMVRKDGNK89K6LLIZX5RPIVK148D","","41","img/land5.png","75","41.60000002384186","2","1","2","1","1,0.5,0.5,0.5,1,0.5,0.5,0.5,1","1,0.5,0.5,0.5,1,0.5,0.5,0.5,1","","",""
"","html-keyboard-response","226","91441","0.0-226.0","3OSWBBLG1FJDA1OGD3HKDDW564EXDM","A2BK9RMC0NOIH8","32TMVRKDGNK89K6LLIZX5RPIVK148D","","null","<img src=""img/land5.png"" style=""width:200px; border:14px solid green;"">","null","","","","","","","","","",""
"","image-keyboard-response","227","91562","0.0-227.0","3OSWBBLG1FJDA1OGD3HKDDW564EXDM","A2BK9RMC0NOIH8","32TMVRKDGNK89K6LLIZX5RPIVK148D","","120.90000009536743","img/land6.png","75","121.5","2","1","3","1","1,0.5,0.5,0.5,1,0.5,0.5,0.5,1","1,0.5,0.5,0.5,1,0.5,0.5,0.5,1","","",""
"","html-keyboard-response","228","91864","0.0-228.0","3OSWBBLG1FJDA1OGD3HKDDW564EXDM","A2BK9RMC0NOIH8","32TMVRKDGNK89K6LLIZX5RPIVK148D","","null","<img src=""img/land6.png"" style=""width:200px; border:14px solid green;"">","null","","","","","","","","","",""
"","image-keyboard-response","229","92178","0.0-229.0","3OSWBBLG1FJDA1OGD3HKDDW564EXDM","A2BK9RMC0NOIH8","32TMVRKDGNK89K6LLIZX5RPIVK148D","","313.3000000715256","img/land6.png","75","313.7999999523163","2","0","3","1","1,0.5,0.5,0.5,1,0.5,0.5,0.5,1","1,0.5,0.5,0.5,1,0.5,0.5,0.5,1","","",""
"","html-keyboard-response","230","92479","0.0-230.0","3OSWBBLG1FJDA1OGD3HKDDW564EXDM","A2BK9RMC0NOIH8","32TMVRKDGNK89K6LLIZX5RPIVK148D","","null","<img src=""img/land6.png"" style=""width:200px;border:14px solid red;"">","null","","","","","","","","","",""
"","image-keyboard-response","231","92571","0.0-231.0","3OSWBBLG1FJDA1OGD3HKDDW564EXDM","A2BK9RMC0NOIH8","32TMVRKDGNK89K6LLIZX5RPIVK148D","","91.39999997615814","img/land6.png","76","91.70000004768372","3","1","3","1","1,0.5,0.5,0.5,1,0.5,0.5,0.5,1","1,0.5,0.5,0.5,1,0.5,0.5,0.5,1","","",""
"","html-keyboard-response","232","92872","0.0-232.0","3OSWBBLG1FJDA1OGD3HKDDW564EXDM","A2BK9RMC0NOIH8","32TMVRKDGNK89K6LLIZX5RPIVK148D","","null","<img src=""img/land6.png"" style=""width:200px; border:14px solid green;"">","null","","","","","","","","","",""
"","image-keyboard-response","233","93050","0.0-233.0","3OSWBBLG1FJDA1OGD3HKDDW564EXDM","A2BK9RMC0NOIH8","32TMVRKDGNK89K6LLIZX5RPIVK148D","","177.70000004768372","img/land5.png","75","178.29999995231628","2","1","2","1","1,0.5,0.5,0.5,1,0.5,0.5,0.5,1","1,0.5,0.5,0.5,1,0.5,0.5,0.5,1","","",""
"","html-keyboard-response","234","93352","0.0-234.0","3OSWBBLG1FJDA1OGD3HKDDW564EXDM","A2BK9RMC0NOIH8","32TMVRKDGNK89K6LLIZX5RPIVK148D","","null","<img src=""img/land5.png"" style=""width:200px; border:14px solid green;"">","null","","","","","","","","","",""
"","image-keyboard-response","235","93483","0.0-235.0","3OSWBBLG1FJDA1OGD3HKDDW564EXDM","A2BK9RMC0NOIH8","32TMVRKDGNK89K6LLIZX5RPIVK148D","","130.30000007152557","img/land6.png","74","130.79999995231628","1","1","3","1","1,0.5,0.5,0.5,1,0.5,0.5,0.5,1","1,0.5,0.5,0.5,1,0.5,0.5,0.5,1","","",""
"","html-keyboard-response","236","93785","0.0-236.0","3OSWBBLG1FJDA1OGD3HKDDW564EXDM","A2BK9RMC0NOIH8","32TMVRKDGNK89K6LLIZX5RPIVK148D","","null","<img src=""img/land6.png"" style=""width:200px; border:14px solid green;"">","null","","","","","","","","","",""
"","image-keyboard-response","237","93842","0.0-237.0","3OSWBBLG1FJDA1OGD3HKDDW564EXDM","A2BK9RMC0NOIH8","32TMVRKDGNK89K6LLIZX5RPIVK148D","","56.800000071525574","img/land6.png","74","57.5","1","1","3","1","1,0.5,0.5,0.5,1,0.5,0.5,0.5,1","1,0.5,0.5,0.5,1,0.5,0.5,0.5,1","","",""
"","html-keyboard-response","238","94144","0.0-238.0","3OSWBBLG1FJDA1OGD3HKDDW564EXDM","A2BK9RMC0NOIH8","32TMVRKDGNK89K6LLIZX5RPIVK148D","","null","<img src=""img/land6.png"" style=""width:200px; border:14px solid green;"">","null","","","","","","","","","",""
"","image-keyboard-response","239","94386","0.0-239.0","3OSWBBLG1FJDA1OGD3HKDDW564EXDM","A2BK9RMC0NOIH8","32TMVRKDGNK89K6LLIZX5RPIVK148D","","242.10000002384186","img/land4.png","75","242.69999992847443","2","0","1","1","1,0.5,0.5,0.5,1,0.5,0.5,0.5,1","1,0.5,0.5,0.5,1,0.5,0.5,0.5,1","","",""
"","html-keyboard-response","240","94687","0.0-240.0","3OSWBBLG1FJDA1OGD3HKDDW564EXDM","A2BK9RMC0NOIH8","32TMVRKDGNK89K6LLIZX5RPIVK148D","","null","<img src=""img/land4.png"" style=""width:200px;border:14px solid red;"">","null","","","","","","","","","",""
"","image-keyboard-response","241","94755","0.0-241.0","3OSWBBLG1FJDA1OGD3HKDDW564EXDM","A2BK9RMC0NOIH8","32TMVRKDGNK89K6LLIZX5RPIVK148D","","66.60000002384186","img/land5.png","76","67.19999992847443","3","1","2","1","1,0.5,0.5,0.5,1,0.5,0.5,0.5,1","1,0.5,0.5,0.5,1,0.5,0.5,0.5,1","","",""
"","html-keyboard-response","242","95056","0.0-242.0","3OSWBBLG1FJDA1OGD3HKDDW564EXDM","A2BK9RMC0NOIH8","32TMVRKDGNK89K6LLIZX5RPIVK148D","","null","<img src=""img/land5.png"" style=""width:200px; border:14px solid green;"">","null","","","","","","","","","",""
"","image-keyboard-response","243","95202","0.0-243.0","3OSWBBLG1FJDA1OGD3HKDDW564EXDM","A2BK9RMC0NOIH8","32TMVRKDGNK89K6LLIZX5RPIVK148D","","145.39999997615814","img/land6.png","75","146","2","0","3","1","1,0.5,0.5,0.5,1,0.5,0.5,0.5,1","1,0.5,0.5,0.5,1,0.5,0.5,0.5,1","","",""
"","html-keyboard-response","244","95504","0.0-244.0","3OSWBBLG1FJDA1OGD3HKDDW564EXDM","A2BK9RMC0NOIH8","32TMVRKDGNK89K6LLIZX5RPIVK148D","","null","<img src=""img/land6.png"" style=""width:200px;border:14px solid red;"">","null","","","","","","","","","",""
"","image-keyboard-response","245","95618","0.0-245.0","3OSWBBLG1FJDA1OGD3HKDDW564EXDM","A2BK9RMC0NOIH8","32TMVRKDGNK89K6LLIZX5RPIVK148D","","114.29999995231628","img/land5.png","74","114.69999992847443","1","1","2","1","1,0.5,0.5,0.5,1,0.5,0.5,0.5,1","1,0.5,0.5,0.5,1,0.5,0.5,0.5,1","","",""
"","html-keyboard-response","246","95919","0.0-246.0","3OSWBBLG1FJDA1OGD3HKDDW564EXDM","A2BK9RMC0NOIH8","32TMVRKDGNK89K6LLIZX5RPIVK148D","","null","<img src=""img/land5.png"" style=""width:200px; border:14px solid green;"">","null","","","","","","","","","",""
"","image-keyboard-response","247","95954","0.0-247.0","3OSWBBLG1FJDA1OGD3HKDDW564EXDM","A2BK9RMC0NOIH8","32TMVRKDGNK89K6LLIZX5RPIVK148D","","34.59999990463257","img/land6.png","75","34.89999997615814","2","1","3","1","1,0.5,0.5,0.5,1,0.5,0.5,0.5,1","1,0.5,0.5,0.5,1,0.5,0.5,0.5,1","","",""
"","html-keyboard-response","248","96257","0.0-248.0","3OSWBBLG1FJDA1OGD3HKDDW564EXDM","A2BK9RMC0NOIH8","32TMVRKDGNK89K6LLIZX5RPIVK148D","","null","<img src=""img/land6.png"" style=""width:200px; border:14px solid green;"">","null","","","","","","","","","",""
"","image-keyboard-response","249","96308","0.0-249.0","3OSWBBLG1FJDA1OGD3HKDDW564EXDM","A2BK9RMC0NOIH8","32TMVRKDGNK89K6LLIZX5RPIVK148D","","50.199999928474426","img/land6.png","76","51.699999928474426","3","1","3","1","1,0.5,0.5,0.5,1,0.5,0.5,0.5,1","1,0.5,0.5,0.5,1,0.5,0.5,0.5,1","","",""
"","html-keyboard-response","250","96612","0.0-250.0","3OSWBBLG1FJDA1OGD3HKDDW564EXDM","A2BK9RMC0NOIH8","32TMVRKDGNK89K6LLIZX5RPIVK148D","","null","<img src=""img/land6.png"" style=""width:200px; border:14px solid green;"">","null","","","","","","","","","",""
"","image-keyboard-response","251","96666","0.0-251.0","3OSWBBLG1FJDA1OGD3HKDDW564EXDM","A2BK9RMC0NOIH8","32TMVRKDGNK89K6LLIZX5RPIVK148D","","54","img/land6.png","75","54.60000002384186","2","1","3","1","1,0.5,0.5,0.5,1,0.5,0.5,0.5,1","1,0.5,0.5,0.5,1,0.5,0.5,0.5,1","","",""
"","html-keyboard-response","252","96969","0.0-252.0","3OSWBBLG1FJDA1OGD3HKDDW564EXDM","A2BK9RMC0NOIH8","32TMVRKDGNK89K6LLIZX5RPIVK148D","","null","<img src=""img/land6.png"" style=""width:200px; border:14px solid green;"">","null","","","","","","","","","",""
"","image-keyboard-response","253","97059","0.0-253.0","3OSWBBLG1FJDA1OGD3HKDDW564EXDM","A2BK9RMC0NOIH8","32TMVRKDGNK89K6LLIZX5RPIVK148D","","89.19999992847443","img/land6.png","75","89.89999997615814","2","0","3","1","1,0.5,0.5,0.5,1,0.5,0.5,0.5,1","1,0.5,0.5,0.5,1,0.5,0.5,0.5,1","","",""
"","html-keyboard-response","254","97360","0.0-254.0","3OSWBBLG1FJDA1OGD3HKDDW564EXDM","A2BK9RMC0NOIH8","32TMVRKDGNK89K6LLIZX5RPIVK148D","","null","<img src=""img/land6.png"" style=""width:200px;border:14px solid red;"">","null","","","","","","","","","",""
"","image-keyboard-response","255","97515","0.0-255.0","3OSWBBLG1FJDA1OGD3HKDDW564EXDM","A2BK9RMC0NOIH8","32TMVRKDGNK89K6LLIZX5RPIVK148D","","153.39999997615814","img/land6.png","75","154.09999990463257","2","1","3","1","1,0.5,0.5,0.5,1,0.5,0.5,0.5,1","1,0.5,0.5,0.5,1,0.5,0.5,0.5,1","","",""
"","html-keyboard-response","256","97815","0.0-256.0","3OSWBBLG1FJDA1OGD3HKDDW564EXDM","A2BK9RMC0NOIH8","32TMVRKDGNK89K6LLIZX5RPIVK148D","","null","<img src=""img/land6.png"" style=""width:200px; border:14px solid green;"">","null","","","","","","","","","",""
"","image-keyboard-response","257","97842","0.0-257.0","3OSWBBLG1FJDA1OGD3HKDDW564EXDM","A2BK9RMC0NOIH8","32TMVRKDGNK89K6LLIZX5RPIVK148D","","26.100000023841858","img/land6.png","76","26.59999990463257","3","1","3","1","1,0.5,0.5,0.5,1,0.5,0.5,0.5,1","1,0.5,0.5,0.5,1,0.5,0.5,0.5,1","","",""
"","html-keyboard-response","258","98144","0.0-258.0","3OSWBBLG1FJDA1OGD3HKDDW564EXDM","A2BK9RMC0NOIH8","32TMVRKDGNK89K6LLIZX5RPIVK148D","","null","<img src=""img/land6.png"" style=""width:200px; border:14px solid green;"">","null","","","","","","","","","",""
"","image-keyboard-response","259","98243","0.0-259.0","3OSWBBLG1FJDA1OGD3HKDDW564EXDM","A2BK9RMC0NOIH8","32TMVRKDGNK89K6LLIZX5RPIVK148D","","98.5","img/land6.png","75","98.90000009536743","2","1","3","1","1,0.5,0.5,0.5,1,0.5,0.5,0.5,1","1,0.5,0.5,0.5,1,0.5,0.5,0.5,1","","",""
"","html-keyboard-response","260","98545","0.0-260.0","3OSWBBLG1FJDA1OGD3HKDDW564EXDM","A2BK9RMC0NOIH8","32TMVRKDGNK89K6LLIZX5RPIVK148D","","null","<img src=""img/land6.png"" style=""width:200px; border:14px solid green;"">","null","","","","","","","","","",""
"","image-keyboard-response","261","98602","0.0-261.0","3OSWBBLG1FJDA1OGD3HKDDW564EXDM","A2BK9RMC0NOIH8","32TMVRKDGNK89K6LLIZX5RPIVK148D","","56.60000002384186","img/land5.png","75","57.10000002384186","2","1","2","1","1,0.5,0.5,0.5,1,0.5,0.5,0.5,1","1,0.5,0.5,0.5,1,0.5,0.5,0.5,1","","",""
"","html-keyboard-response","262","98904","0.0-262.0","3OSWBBLG1FJDA1OGD3HKDDW564EXDM","A2BK9RMC0NOIH8","32TMVRKDGNK89K6LLIZX5RPIVK148D","","null","<img src=""img/land5.png"" style=""width:200px; border:14px solid green;"">","null","","","","","","","","","",""
"","image-keyboard-response","263","99082","0.0-263.0","3OSWBBLG1FJDA1OGD3HKDDW564EXDM","A2BK9RMC0NOIH8","32TMVRKDGNK89K6LLIZX5RPIVK148D","","177.20000004768372","img/land6.png","74","177.69999992847443","1","0","3","1","1,0.5,0.5,0.5,1,0.5,0.5,0.5,1","1,0.5,0.5,0.5,1,0.5,0.5,0.5,1","","",""
"","html-keyboard-response","264","99384","0.0-264.0","3OSWBBLG1FJDA1OGD3HKDDW564EXDM","A2BK9RMC0NOIH8","32TMVRKDGNK89K6LLIZX5RPIVK148D","","null","<img src=""img/land6.png"" style=""width:200px;border:14px solid red;"">","null","","","","","","","","","",""
"","image-keyboard-response","265","99570","0.0-265.0","3OSWBBLG1FJDA1OGD3HKDDW564EXDM","A2BK9RMC0NOIH8","32TMVRKDGNK89K6LLIZX5RPIVK148D","","185.70000004768372","img/land6.png","76","186.29999995231628","3","1","3","1","1,0.5,0.5,0.5,1,0.5,0.5,0.5,1","1,0.5,0.5,0.5,1,0.5,0.5,0.5,1","","",""
"","html-keyboard-response","266","99871","0.0-266.0","3OSWBBLG1FJDA1OGD3HKDDW564EXDM","A2BK9RMC0NOIH8","32TMVRKDGNK89K6LLIZX5RPIVK148D","","null","<img src=""img/land6.png"" style=""width:200px; border:14px solid green;"">","null","","","","","","","","","",""
"","image-keyboard-response","267","99986","0.0-267.0","3OSWBBLG1FJDA1OGD3HKDDW564EXDM","A2BK9RMC0NOIH8","32TMVRKDGNK89K6LLIZX5RPIVK148D","","114.30000007152557","img/land6.png","75","114.89999997615814","2","0","3","1","1,0.5,0.5,0.5,1,0.5,0.5,0.5,1","1,0.5,0.5,0.5,1,0.5,0.5,0.5,1","","",""
"","html-keyboard-response","268","100287","0.0-268.0","3OSWBBLG1FJDA1OGD3HKDDW564EXDM","A2BK9RMC0NOIH8","32TMVRKDGNK89K6LLIZX5RPIVK148D","","null","<img src=""img/land6.png"" style=""width:200px;border:14px solid red;"">","null","","","","","","","","","",""
"","image-keyboard-response","269","100362","0.0-269.0","3OSWBBLG1FJDA1OGD3HKDDW564EXDM","A2BK9RMC0NOIH8","32TMVRKDGNK89K6LLIZX5RPIVK148D","","74.5","img/land6.png","74","75","1","0","3","1","1,0.5,0.5,0.5,1,0.5,0.5,0.5,1","1,0.5,0.5,0.5,1,0.5,0.5,0.5,1","","",""
"","html-keyboard-response","270","100664","0.0-270.0","3OSWBBLG1FJDA1OGD3HKDDW564EXDM","A2BK9RMC0NOIH8","32TMVRKDGNK89K6LLIZX5RPIVK148D","","null","<img src=""img/land6.png"" style=""width:200px;border:14px solid red;"">","null","","","","","","","","","",""
"","image-keyboard-response","271","100794","0.0-271.0","3OSWBBLG1FJDA1OGD3HKDDW564EXDM","A2BK9RMC0NOIH8","32TMVRKDGNK89K6LLIZX5RPIVK148D","","129.40000009536743","img/land6.png","76","129.89999997615814","3","1","3","1","1,0.5,0.5,0.5,1,0.5,0.5,0.5,1","1,0.5,0.5,0.5,1,0.5,0.5,0.5,1","","",""
"","html-keyboard-response","272","101096","0.0-272.0","3OSWBBLG1FJDA1OGD3HKDDW564EXDM","A2BK9RMC0NOIH8","32TMVRKDGNK89K6LLIZX5RPIVK148D","","null","<img src=""img/land6.png"" style=""width:200px; border:14px solid green;"">","null","","","","","","","","","",""
"","image-keyboard-response","273","101179","0.0-273.0","3OSWBBLG1FJDA1OGD3HKDDW564EXDM","A2BK9RMC0NOIH8","32TMVRKDGNK89K6LLIZX5RPIVK148D","","82.20000004768372","img/land6.png","75","82.70000004768372","2","1","3","1","1,0.5,0.5,0.5,1,0.5,0.5,0.5,1","1,0.5,0.5,0.5,1,0.5,0.5,0.5,1","","",""
"","html-keyboard-response","274","101481","0.0-274.0","3OSWBBLG1FJDA1OGD3HKDDW564EXDM","A2BK9RMC0NOIH8","32TMVRKDGNK89K6LLIZX5RPIVK148D","","null","<img src=""img/land6.png"" style=""width:200px; border:14px solid green;"">","null","","","","","","","","","",""
"","image-keyboard-response","275","101570","0.0-275.0","3OSWBBLG1FJDA1OGD3HKDDW564EXDM","A2BK9RMC0NOIH8","32TMVRKDGNK89K6LLIZX5RPIVK148D","","89.20000004768372","img/land6.png","74","89.60000002384186","1","0","3","1","1,0.5,0.5,0.5,1,0.5,0.5,0.5,1","1,0.5,0.5,0.5,1,0.5,0.5,0.5,1","","",""
"","html-keyboard-response","276","101871","0.0-276.0","3OSWBBLG1FJDA1OGD3HKDDW564EXDM","A2BK9RMC0NOIH8","32TMVRKDGNK89K6LLIZX5RPIVK148D","","null","<img src=""img/land6.png"" style=""width:200px;border:14px solid red;"">","null","","","","","","","","","",""
"","image-keyboard-response","277","101906","0.0-277.0","3OSWBBLG1FJDA1OGD3HKDDW564EXDM","A2BK9RMC0NOIH8","32TMVRKDGNK89K6LLIZX5RPIVK148D","","34.5","img/land5.png","75","34.89999997615814","2","1","2","1","1,0.5,0.5,0.5,1,0.5,0.5,0.5,1","1,0.5,0.5,0.5,1,0.5,0.5,0.5,1","","",""
"","html-keyboard-response","278","102207","0.0-278.0","3OSWBBLG1FJDA1OGD3HKDDW564EXDM","A2BK9RMC0NOIH8","32TMVRKDGNK89K6LLIZX5RPIVK148D","","null","<img src=""img/land5.png"" style=""width:200px; border:14px solid green;"">","null","","","","","","","","","",""
"","image-keyboard-response","279","102308","0.0-279.0","3OSWBBLG1FJDA1OGD3HKDDW564EXDM","A2BK9RMC0NOIH8","32TMVRKDGNK89K6LLIZX5RPIVK148D","","99.89999997615814","img/land4.png","76","101","3","1","1","1","1,0.5,0.5,0.5,1,0.5,0.5,0.5,1","1,0.5,0.5,0.5,1,0.5,0.5,0.5,1","","",""
"","html-keyboard-response","280","102612","0.0-280.0","3OSWBBLG1FJDA1OGD3HKDDW564EXDM","A2BK9RMC0NOIH8","32TMVRKDGNK89K6LLIZX5RPIVK148D","","null","<img src=""img/land4.png"" style=""width:200px; border:14px solid green;"">","null","","","","","","","","","",""
"","image-keyboard-response","281","102651","0.0-281.0","3OSWBBLG1FJDA1OGD3HKDDW564EXDM","A2BK9RMC0NOIH8","32TMVRKDGNK89K6LLIZX5RPIVK148D","","38.699999928474426","img/land6.png","75","39.200000047683716","2","1","3","1","1,0.5,0.5,0.5,1,0.5,0.5,0.5,1","1,0.5,0.5,0.5,1,0.5,0.5,0.5,1","","",""
"","html-keyboard-response","282","102953","0.0-282.0","3OSWBBLG1FJDA1OGD3HKDDW564EXDM","A2BK9RMC0NOIH8","32TMVRKDGNK89K6LLIZX5RPIVK148D","","null","<img src=""img/land6.png"" style=""width:200px; border:14px solid green;"">","null","","","","","","","","","",""
"","image-keyboard-response","283","103298","0.0-283.0","3OSWBBLG1FJDA1OGD3HKDDW564EXDM","A2BK9RMC0NOIH8","32TMVRKDGNK89K6LLIZX5RPIVK148D","","344.7000000476837","img/land4.png","75","345.2999999523163","2","1","1","1","1,0.5,0.5,0.5,1,0.5,0.5,0.5,1","1,0.5,0.5,0.5,1,0.5,0.5,0.5,1","","",""
"","html-keyboard-response","284","103600","0.0-284.0","3OSWBBLG1FJDA1OGD3HKDDW564EXDM","A2BK9RMC0NOIH8","32TMVRKDGNK89K6LLIZX5RPIVK148D","","null","<img src=""img/land4.png"" style=""width:200px; border:14px solid green;"">","null","","","","","","","","","",""
"","image-keyboard-response","285","103626","0.0-285.0","3OSWBBLG1FJDA1OGD3HKDDW564EXDM","A2BK9RMC0NOIH8","32TMVRKDGNK89K6LLIZX5RPIVK148D","","25.40000009536743","img/land6.png","76","25.799999952316284","3","1","3","1","1,0.5,0.5,0.5,1,0.5,0.5,0.5,1","1,0.5,0.5,0.5,1,0.5,0.5,0.5,1","","",""
"","html-keyboard-response","286","103928","0.0-286.0","3OSWBBLG1FJDA1OGD3HKDDW564EXDM","A2BK9RMC0NOIH8","32TMVRKDGNK89K6LLIZX5RPIVK148D","","null","<img src=""img/land6.png"" style=""width:200px; border:14px solid green;"">","null","","","","","","","","","",""
"","image-keyboard-response","287","104018","0.0-287.0","3OSWBBLG1FJDA1OGD3HKDDW564EXDM","A2BK9RMC0NOIH8","32TMVRKDGNK89K6LLIZX5RPIVK148D","","89.69999992847443","img/land4.png","76","90.10000002384186","3","0","1","1","1,0.5,0.5,0.5,1,0.5,0.5,0.5,1","1,0.5,0.5,0.5,1,0.5,0.5,0.5,1","","",""
"","html-keyboard-response","288","104320","0.0-288.0","3OSWBBLG1FJDA1OGD3HKDDW564EXDM","A2BK9RMC0NOIH8","32TMVRKDGNK89K6LLIZX5RPIVK148D","","null","<img src=""img/land4.png"" style=""width:200px;border:14px solid red;"">","null","","","","","","","","","",""
"","image-keyboard-response","289","104386","0.0-289.0","3OSWBBLG1FJDA1OGD3HKDDW564EXDM","A2BK9RMC0NOIH8","32TMVRKDGNK89K6LLIZX5RPIVK148D","","66.20000004768372","img/land4.png","75","66.69999992847443","2","1","1","1","1,0.5,0.5,0.5,1,0.5,0.5,0.5,1","1,0.5,0.5,0.5,1,0.5,0.5,0.5,1","","",""
"","html-keyboard-response","290","104687","0.0-290.0","3OSWBBLG1FJDA1OGD3HKDDW564EXDM","A2BK9RMC0NOIH8","32TMVRKDGNK89K6LLIZX5RPIVK148D","","null","<img src=""img/land4.png"" style=""width:200px; border:14px solid green;"">","null","","","","","","","","","",""
"","image-keyboard-response","291","104763","0.0-291.0","3OSWBBLG1FJDA1OGD3HKDDW564EXDM","A2BK9RMC0NOIH8","32TMVRKDGNK89K6LLIZX5RPIVK148D","","74.89999997615814","img/land6.png","76","75.60000002384186","3","1","3","1","1,0.5,0.5,0.5,1,0.5,0.5,0.5,1","1,0.5,0.5,0.5,1,0.5,0.5,0.5,1","","",""
"","html-keyboard-response","292","105065","0.0-292.0","3OSWBBLG1FJDA1OGD3HKDDW564EXDM","A2BK9RMC0NOIH8","32TMVRKDGNK89K6LLIZX5RPIVK148D","","null","<img src=""img/land6.png"" style=""width:200px; border:14px solid green;"">","null","","","","","","","","","",""
"","image-keyboard-response","293","105178","0.0-293.0","3OSWBBLG1FJDA1OGD3HKDDW564EXDM","A2BK9RMC0NOIH8","32TMVRKDGNK89K6LLIZX5RPIVK148D","","113","img/land5.png","76","113.5","3","1","2","1","1,0.5,0.5,0.5,1,0.5,0.5,0.5,1","1,0.5,0.5,0.5,1,0.5,0.5,0.5,1","","",""
"","html-keyboard-response","294","105481","0.0-294.0","3OSWBBLG1FJDA1OGD3HKDDW564EXDM","A2BK9RMC0NOIH8","32TMVRKDGNK89K6LLIZX5RPIVK148D","","null","<img src=""img/land5.png"" style=""width:200px; border:14px solid green;"">","null","","","","","","","","","",""
"","image-keyboard-response","295","105618","0.0-295.0","3OSWBBLG1FJDA1OGD3HKDDW564EXDM","A2BK9RMC0NOIH8","32TMVRKDGNK89K6LLIZX5RPIVK148D","","137.10000002384186","img/land6.png","74","137.60000002384186","1","1","3","1","1,0.5,0.5,0.5,1,0.5,0.5,0.5,1","1,0.5,0.5,0.5,1,0.5,0.5,0.5,1","","",""
"","html-keyboard-response","296","105921","0.0-296.0","3OSWBBLG1FJDA1OGD3HKDDW564EXDM","A2BK9RMC0NOIH8","32TMVRKDGNK89K6LLIZX5RPIVK148D","","null","<img src=""img/land6.png"" style=""width:200px; border:14px solid green;"">","null","","","","","","","","","",""
"","image-keyboard-response","297","105947","0.0-297.0","3OSWBBLG1FJDA1OGD3HKDDW564EXDM","A2BK9RMC0NOIH8","32TMVRKDGNK89K6LLIZX5RPIVK148D","","25.399999976158142","img/land4.png","74","25.899999976158142","1","1","1","1","1,0.5,0.5,0.5,1,0.5,0.5,0.5,1","1,0.5,0.5,0.5,1,0.5,0.5,0.5,1","","",""
"","html-keyboard-response","298","106249","0.0-298.0","3OSWBBLG1FJDA1OGD3HKDDW564EXDM","A2BK9RMC0NOIH8","32TMVRKDGNK89K6LLIZX5RPIVK148D","","null","<img src=""img/land4.png"" style=""width:200px; border:14px solid green;"">","null","","","","","","","","","",""
"","image-keyboard-response","299","106371","0.0-299.0","3OSWBBLG1FJDA1OGD3HKDDW564EXDM","A2BK9RMC0NOIH8","32TMVRKDGNK89K6LLIZX5RPIVK148D","","121.59999990463257","img/land6.png","75","122.10000002384186","2","0","3","1","1,0.5,0.5,0.5,1,0.5,0.5,0.5,1","1,0.5,0.5,0.5,1,0.5,0.5,0.5,1","","",""
"","html-keyboard-response","300","106672","0.0-300.0","3OSWBBLG1FJDA1OGD3HKDDW564EXDM","A2BK9RMC0NOIH8","32TMVRKDGNK89K6LLIZX5RPIVK148D","","null","<img src=""img/land6.png"" style=""width:200px;border:14px solid red;"">","null","","","","","","","","","",""
"","image-keyboard-response","301","106835","0.0-301.0","3OSWBBLG1FJDA1OGD3HKDDW564EXDM","A2BK9RMC0NOIH8","32TMVRKDGNK89K6LLIZX5RPIVK148D","","162","img/land4.png","75","162.39999997615814","2","1","1","1","1,0.5,0.5,0.5,1,0.5,0.5,0.5,1","1,0.5,0.5,0.5,1,0.5,0.5,0.5,1","","",""
"","html-keyboard-response","302","107137","0.0-302.0","3OSWBBLG1FJDA1OGD3HKDDW564EXDM","A2BK9RMC0NOIH8","32TMVRKDGNK89K6LLIZX5RPIVK148D","","null","<img src=""img/land4.png"" style=""width:200px; border:14px solid green;"">","null","","","","","","","","","",""
"","image-keyboard-response","303","107675","0.0-303.0","3OSWBBLG1FJDA1OGD3HKDDW564EXDM","A2BK9RMC0NOIH8","32TMVRKDGNK89K6LLIZX5RPIVK148D","","537.3999999761581","img/land4.png","75","538","2","1","1","1","1,0.5,0.5,0.5,1,0.5,0.5,0.5,1","1,0.5,0.5,0.5,1,0.5,0.5,0.5,1","","",""
"","html-keyboard-response","304","107978","0.0-304.0","3OSWBBLG1FJDA1OGD3HKDDW564EXDM","A2BK9RMC0NOIH8","32TMVRKDGNK89K6LLIZX5RPIVK148D","","null","<img src=""img/land4.png"" style=""width:200px; border:14px solid green;"">","null","","","","","","","","","",""
"","image-keyboard-response","305","108059","0.0-305.0","3OSWBBLG1FJDA1OGD3HKDDW564EXDM","A2BK9RMC0NOIH8","32TMVRKDGNK89K6LLIZX5RPIVK148D","","79.69999992847443","img/land5.png","76","80.40000009536743","3","0","2","1","1,0.5,0.5,0.5,1,0.5,0.5,0.5,1","1,0.5,0.5,0.5,1,0.5,0.5,0.5,1","","",""
"","html-keyboard-response","306","108360","0.0-306.0","3OSWBBLG1FJDA1OGD3HKDDW564EXDM","A2BK9RMC0NOIH8","32TMVRKDGNK89K6LLIZX5RPIVK148D","","null","<img src=""img/land5.png"" style=""width:200px;border:14px solid red;"">","null","","","","","","","","","",""
"","image-keyboard-response","307","108394","0.0-307.0","3OSWBBLG1FJDA1OGD3HKDDW564EXDM","A2BK9RMC0NOIH8","32TMVRKDGNK89K6LLIZX5RPIVK148D","","33.39999997615814","img/land6.png","75","34.10000002384186","2","1","3","1","1,0.5,0.5,0.5,1,0.5,0.5,0.5,1","1,0.5,0.5,0.5,1,0.5,0.5,0.5,1","","",""
"","html-keyboard-response","308","108696","0.0-308.0","3OSWBBLG1FJDA1OGD3HKDDW564EXDM","A2BK9RMC0NOIH8","32TMVRKDGNK89K6LLIZX5RPIVK148D","","null","<img src=""img/land6.png"" style=""width:200px; border:14px solid green;"">","null","","","","","","","","","",""
"","image-keyboard-response","309","108810","0.0-309.0","3OSWBBLG1FJDA1OGD3HKDDW564EXDM","A2BK9RMC0NOIH8","32TMVRKDGNK89K6LLIZX5RPIVK148D","","113.70000004768372","img/land6.png","74","114.19999992847443","1","0","3","1","1,0.5,0.5,0.5,1,0.5,0.5,0.5,1","1,0.5,0.5,0.5,1,0.5,0.5,0.5,1","","",""
"","html-keyboard-response","310","109112","0.0-310.0","3OSWBBLG1FJDA1OGD3HKDDW564EXDM","A2BK9RMC0NOIH8","32TMVRKDGNK89K6LLIZX5RPIVK148D","","null","<img src=""img/land6.png"" style=""width:200px;border:14px solid red;"">","null","","","","","","","","","",""
"","image-keyboard-response","311","109114","0.0-311.0","3OSWBBLG1FJDA1OGD3HKDDW564EXDM","A2BK9RMC0NOIH8","32TMVRKDGNK89K6LLIZX5RPIVK148D","","1.399999976158142","img/land6.png","75","2","2","1","3","1","1,0.5,0.5,0.5,1,0.5,0.5,0.5,1","1,0.5,0.5,0.5,1,0.5,0.5,0.5,1","","",""
"","html-keyboard-response","312","109422","0.0-312.0","3OSWBBLG1FJDA1OGD3HKDDW564EXDM","A2BK9RMC0NOIH8","32TMVRKDGNK89K6LLIZX5RPIVK148D","","null","<img src=""img/land6.png"" style=""width:200px; border:14px solid green;"">","null","","","","","","","","","",""
"","image-keyboard-response","313","109450","0.0-313.0","3OSWBBLG1FJDA1OGD3HKDDW564EXDM","A2BK9RMC0NOIH8","32TMVRKDGNK89K6LLIZX5RPIVK148D","","28","img/land4.png","75","28.399999976158142","2","0","1","1","1,0.5,0.5,0.5,1,0.5,0.5,0.5,1","1,0.5,0.5,0.5,1,0.5,0.5,0.5,1","","",""
"","html-keyboard-response","314","109753","0.0-314.0","3OSWBBLG1FJDA1OGD3HKDDW564EXDM","A2BK9RMC0NOIH8","32TMVRKDGNK89K6LLIZX5RPIVK148D","","null","<img src=""img/land4.png"" style=""width:200px;border:14px solid red;"">","null","","","","","","","","","",""
"","image-keyboard-response","315","109970","0.0-315.0","3OSWBBLG1FJDA1OGD3HKDDW564EXDM","A2BK9RMC0NOIH8","32TMVRKDGNK89K6LLIZX5RPIVK148D","","217.10000002384186","img/land4.png","76","217.69999992847443","3","0","1","1","1,0.5,0.5,0.5,1,0.5,0.5,0.5,1","1,0.5,0.5,0.5,1,0.5,0.5,0.5,1","","",""
"","html-keyboard-response","316","110272","0.0-316.0","3OSWBBLG1FJDA1OGD3HKDDW564EXDM","A2BK9RMC0NOIH8","32TMVRKDGNK89K6LLIZX5RPIVK148D","","null","<img src=""img/land4.png"" style=""width:200px;border:14px solid red;"">","null","","","","","","","","","",""
"","image-keyboard-response","317","110298","0.0-317.0","3OSWBBLG1FJDA1OGD3HKDDW564EXDM","A2BK9RMC0NOIH8","32TMVRKDGNK89K6LLIZX5RPIVK148D","","25.5","img/land6.png","75","25.899999976158142","2","0","3","1","1,0.5,0.5,0.5,1,0.5,0.5,0.5,1","1,0.5,0.5,0.5,1,0.5,0.5,0.5,1","","",""
"","html-keyboard-response","318","110599","0.0-318.0","3OSWBBLG1FJDA1OGD3HKDDW564EXDM","A2BK9RMC0NOIH8","32TMVRKDGNK89K6LLIZX5RPIVK148D","","null","<img src=""img/land6.png"" style=""width:200px;border:14px solid red;"">","null","","","","","","","","","",""
"","image-keyboard-response","319","110771","0.0-319.0","3OSWBBLG1FJDA1OGD3HKDDW564EXDM","A2BK9RMC0NOIH8","32TMVRKDGNK89K6LLIZX5RPIVK148D","","170.89999997615814","img/land6.png","74","171.69999992847443","1","0","3","1","1,0.5,0.5,0.5,1,0.5,0.5,0.5,1","1,0.5,0.5,0.5,1,0.5,0.5,0.5,1","","",""
"","html-keyboard-response","320","111072","0.0-320.0","3OSWBBLG1FJDA1OGD3HKDDW564EXDM","A2BK9RMC0NOIH8","32TMVRKDGNK89K6LLIZX5RPIVK148D","","null","<img src=""img/land6.png"" style=""width:200px;border:14px solid red;"">","null","","","","","","","","","",""
"","image-keyboard-response","321","111115","0.0-321.0","3OSWBBLG1FJDA1OGD3HKDDW564EXDM","A2BK9RMC0NOIH8","32TMVRKDGNK89K6LLIZX5RPIVK148D","","42.699999928474426","img/land6.png","74","43.200000047683716","1","0","3","1","1,0.5,0.5,0.5,1,0.5,0.5,0.5,1","1,0.5,0.5,0.5,1,0.5,0.5,0.5,1","","",""
"","html-keyboard-response","322","111416","0.0-322.0","3OSWBBLG1FJDA1OGD3HKDDW564EXDM","A2BK9RMC0NOIH8","32TMVRKDGNK89K6LLIZX5RPIVK148D","","null","<img src=""img/land6.png"" style=""width:200px;border:14px solid red;"">","null","","","","","","","","","",""
"","image-keyboard-response","323","111466","0.0-323.0","3OSWBBLG1FJDA1OGD3HKDDW564EXDM","A2BK9RMC0NOIH8","32TMVRKDGNK89K6LLIZX5RPIVK148D","","49.60000002384186","img/land4.png","76","50.10000002384186","3","1","1","1","1,0.5,0.5,0.5,1,0.5,0.5,0.5,1","1,0.5,0.5,0.5,1,0.5,0.5,0.5,1","","",""
"","html-keyboard-response","324","111768","0.0-324.0","3OSWBBLG1FJDA1OGD3HKDDW564EXDM","A2BK9RMC0NOIH8","32TMVRKDGNK89K6LLIZX5RPIVK148D","","null","<img src=""img/land4.png"" style=""width:200px; border:14px solid green;"">","null","","","","","","","","","",""
"","image-keyboard-response","325","111898","0.0-325.0","3OSWBBLG1FJDA1OGD3HKDDW564EXDM","A2BK9RMC0NOIH8","32TMVRKDGNK89K6LLIZX5RPIVK148D","","129.20000004768372","img/land6.png","76","130","3","1","3","1","1,0.5,0.5,0.5,1,0.5,0.5,0.5,1","1,0.5,0.5,0.5,1,0.5,0.5,0.5,1","","",""
"","html-keyboard-response","326","112201","0.0-326.0","3OSWBBLG1FJDA1OGD3HKDDW564EXDM","A2BK9RMC0NOIH8","32TMVRKDGNK89K6LLIZX5RPIVK148D","","null","<img src=""img/land6.png"" style=""width:200px; border:14px solid green;"">","null","","","","","","","","","",""
"","image-keyboard-response","327","112443","0.0-327.0","3OSWBBLG1FJDA1OGD3HKDDW564EXDM","A2BK9RMC0NOIH8","32TMVRKDGNK89K6LLIZX5RPIVK148D","","241.39999997615814","img/land6.png","74","242","1","1","3","1","1,0.5,0.5,0.5,1,0.5,0.5,0.5,1","1,0.5,0.5,0.5,1,0.5,0.5,0.5,1","","",""
"","html-keyboard-response","328","112748","0.0-328.0","3OSWBBLG1FJDA1OGD3HKDDW564EXDM","A2BK9RMC0NOIH8","32TMVRKDGNK89K6LLIZX5RPIVK148D","","null","<img src=""img/land6.png"" style=""width:200px; border:14px solid green;"">","null","","","","","","","","","",""
"","image-keyboard-response","329","112772","0.0-329.0","3OSWBBLG1FJDA1OGD3HKDDW564EXDM","A2BK9RMC0NOIH8","32TMVRKDGNK89K6LLIZX5RPIVK148D","","23.5","img/land6.png","74","24","1","0","3","1","1,0.5,0.5,0.5,1,0.5,0.5,0.5,1","1,0.5,0.5,0.5,1,0.5,0.5,0.5,1","","",""
"","html-keyboard-response","330","113074","0.0-330.0","3OSWBBLG1FJDA1OGD3HKDDW564EXDM","A2BK9RMC0NOIH8","32TMVRKDGNK89K6LLIZX5RPIVK148D","","null","<img src=""img/land6.png"" style=""width:200px;border:14px solid red;"">","null","","","","","","","","","",""
"","image-keyboard-response","331","113082","0.0-331.0","3OSWBBLG1FJDA1OGD3HKDDW564EXDM","A2BK9RMC0NOIH8","32TMVRKDGNK89K6LLIZX5RPIVK148D","","7.400000095367432","img/land6.png","75","8","2","0","3","1","1,0.5,0.5,0.5,1,0.5,0.5,0.5,1","1,0.5,0.5,0.5,1,0.5,0.5,0.5,1","","",""
"","html-keyboard-response","332","113384","0.0-332.0","3OSWBBLG1FJDA1OGD3HKDDW564EXDM","A2BK9RMC0NOIH8","32TMVRKDGNK89K6LLIZX5RPIVK148D","","null","<img src=""img/land6.png"" style=""width:200px;border:14px solid red;"">","null","","","","","","","","","",""
"","image-keyboard-response","333","113482","0.0-333.0","3OSWBBLG1FJDA1OGD3HKDDW564EXDM","A2BK9RMC0NOIH8","32TMVRKDGNK89K6LLIZX5RPIVK148D","","97.5","img/land6.png","76","98.10000002384186","3","1","3","1","1,0.5,0.5,0.5,1,0.5,0.5,0.5,1","1,0.5,0.5,0.5,1,0.5,0.5,0.5,1","","",""
"","html-keyboard-response","334","113797","0.0-334.0","3OSWBBLG1FJDA1OGD3HKDDW564EXDM","A2BK9RMC0NOIH8","32TMVRKDGNK89K6LLIZX5RPIVK148D","","null","<img src=""img/land6.png"" style=""width:200px; border:14px solid green;"">","null","","","","","","","","","",""
"","image-keyboard-response","335","113826","0.0-335.0","3OSWBBLG1FJDA1OGD3HKDDW564EXDM","A2BK9RMC0NOIH8","32TMVRKDGNK89K6LLIZX5RPIVK148D","","28.100000023841858","img/land6.png","76","29.199999928474426","3","1","3","1","1,0.5,0.5,0.5,1,0.5,0.5,0.5,1","1,0.5,0.5,0.5,1,0.5,0.5,0.5,1","","",""
"","html-keyboard-response","336","114128","0.0-336.0","3OSWBBLG1FJDA1OGD3HKDDW564EXDM","A2BK9RMC0NOIH8","32TMVRKDGNK89K6LLIZX5RPIVK148D","","null","<img src=""img/land6.png"" style=""width:200px; border:14px solid green;"">","null","","","","","","","","","",""
"","image-keyboard-response","337","114250","0.0-337.0","3OSWBBLG1FJDA1OGD3HKDDW564EXDM","A2BK9RMC0NOIH8","32TMVRKDGNK89K6LLIZX5RPIVK148D","","121.40000009536743","img/land6.png","75","122","2","0","3","1","1,0.5,0.5,0.5,1,0.5,0.5,0.5,1","1,0.5,0.5,0.5,1,0.5,0.5,0.5,1","","",""
"","html-keyboard-response","338","114552","0.0-338.0","3OSWBBLG1FJDA1OGD3HKDDW564EXDM","A2BK9RMC0NOIH8","32TMVRKDGNK89K6LLIZX5RPIVK148D","","null","<img src=""img/land6.png"" style=""width:200px;border:14px solid red;"">","null","","","","","","","","","",""
"","image-keyboard-response","339","114578","0.0-339.0","3OSWBBLG1FJDA1OGD3HKDDW564EXDM","A2BK9RMC0NOIH8","32TMVRKDGNK89K6LLIZX5RPIVK148D","","26.200000047683716","img/land6.png","74","26.5","1","1","3","1","1,0.5,0.5,0.5,1,0.5,0.5,0.5,1","1,0.5,0.5,0.5,1,0.5,0.5,0.5,1","","",""
"","html-keyboard-response","340","114880","0.0-340.0","3OSWBBLG1FJDA1OGD3HKDDW564EXDM","A2BK9RMC0NOIH8","32TMVRKDGNK89K6LLIZX5RPIVK148D","","null","<img src=""img/land6.png"" style=""width:200px; border:14px solid green;"">","null","","","","","","","","","",""
"","image-keyboard-response","341","115179","0.0-341.0","3OSWBBLG1FJDA1OGD3HKDDW564EXDM","A2BK9RMC0NOIH8","32TMVRKDGNK89K6LLIZX5RPIVK148D","","298.10000002384186","img/land5.png","75","298.60000002384186","2","1","2","1","1,0.5,0.5,0.5,1,0.5,0.5,0.5,1","1,0.5,0.5,0.5,1,0.5,0.5,0.5,1","","",""
"","html-keyboard-response","342","115480","0.0-342.0","3OSWBBLG1FJDA1OGD3HKDDW564EXDM","A2BK9RMC0NOIH8","32TMVRKDGNK89K6LLIZX5RPIVK148D","","null","<img src=""img/land5.png"" style=""width:200px; border:14px solid green;"">","null","","","","","","","","","",""
"","image-keyboard-response","343","115650","0.0-343.0","3OSWBBLG1FJDA1OGD3HKDDW564EXDM","A2BK9RMC0NOIH8","32TMVRKDGNK89K6LLIZX5RPIVK148D","","169.5","img/land6.png","76","169.89999997615814","3","1","3","1","1,0.5,0.5,0.5,1,0.5,0.5,0.5,1","1,0.5,0.5,0.5,1,0.5,0.5,0.5,1","","",""
"","html-keyboard-response","344","115952","0.0-344.0","3OSWBBLG1FJDA1OGD3HKDDW564EXDM","A2BK9RMC0NOIH8","32TMVRKDGNK89K6LLIZX5RPIVK148D","","null","<img src=""img/land6.png"" style=""width:200px; border:14px solid green;"">","null","","","","","","","","","",""
"","image-keyboard-response","345","115994","0.0-345.0","3OSWBBLG1FJDA1OGD3HKDDW564EXDM","A2BK9RMC0NOIH8","32TMVRKDGNK89K6LLIZX5RPIVK148D","","41.800000071525574","img/land6.png","75","42.39999997615814","2","0","3","1","1,0.5,0.5,0.5,1,0.5,0.5,0.5,1","1,0.5,0.5,0.5,1,0.5,0.5,0.5,1","","",""
"","html-keyboard-response","346","116296","0.0-346.0","3OSWBBLG1FJDA1OGD3HKDDW564EXDM","A2BK9RMC0NOIH8","32TMVRKDGNK89K6LLIZX5RPIVK148D","","null","<img src=""img/land6.png"" style=""width:200px;border:14px solid red;"">","null","","","","","","","","","",""
"","image-keyboard-response","347","116466","0.0-347.0","3OSWBBLG1FJDA1OGD3HKDDW564EXDM","A2BK9RMC0NOIH8","32TMVRKDGNK89K6LLIZX5RPIVK148D","","168.59999990463257","img/land4.png","75","169.69999992847443","2","0","1","1","1,0.5,0.5,0.5,1,0.5,0.5,0.5,1","1,0.5,0.5,0.5,1,0.5,0.5,0.5,1","","",""
"","html-keyboard-response","348","116769","0.0-348.0","3OSWBBLG1FJDA1OGD3HKDDW564EXDM","A2BK9RMC0NOIH8","32TMVRKDGNK89K6LLIZX5RPIVK148D","","null","<img src=""img/land4.png"" style=""width:200px;border:14px solid red;"">","null","","","","","","","","","",""
"","image-keyboard-response","349","116867","0.0-349.0","3OSWBBLG1FJDA1OGD3HKDDW564EXDM","A2BK9RMC0NOIH8","32TMVRKDGNK89K6LLIZX5RPIVK148D","","97.39999997615814","img/land5.png","74","98","1","0","2","1","1,0.5,0.5,0.5,1,0.5,0.5,0.5,1","1,0.5,0.5,0.5,1,0.5,0.5,0.5,1","","",""
"","html-keyboard-response","350","117169","0.0-350.0","3OSWBBLG1FJDA1OGD3HKDDW564EXDM","A2BK9RMC0NOIH8","32TMVRKDGNK89K6LLIZX5RPIVK148D","","null","<img src=""img/land5.png"" style=""width:200px;border:14px solid red;"">","null","","","","","","","","","",""
"","image-keyboard-response","351","117434","0.0-351.0","3OSWBBLG1FJDA1OGD3HKDDW564EXDM","A2BK9RMC0NOIH8","32TMVRKDGNK89K6LLIZX5RPIVK148D","","264.59999990463257","img/land6.png","75","265.2000000476837","2","0","3","1","1,0.5,0.5,0.5,1,0.5,0.5,0.5,1","1,0.5,0.5,0.5,1,0.5,0.5,0.5,1","","",""
"","html-keyboard-response","352","117737","0.0-352.0","3OSWBBLG1FJDA1OGD3HKDDW564EXDM","A2BK9RMC0NOIH8","32TMVRKDGNK89K6LLIZX5RPIVK148D","","null","<img src=""img/land6.png"" style=""width:200px;border:14px solid red;"">","null","","","","","","","","","",""
"","image-keyboard-response","353","117738","0.0-353.0","3OSWBBLG1FJDA1OGD3HKDDW564EXDM","A2BK9RMC0NOIH8","32TMVRKDGNK89K6LLIZX5RPIVK148D","","1","img/land6.png","76","1.7999999523162842","3","1","3","1","1,0.5,0.5,0.5,1,0.5,0.5,0.5,1","1,0.5,0.5,0.5,1,0.5,0.5,0.5,1","","",""
"","html-keyboard-response","354","118041","0.0-354.0","3OSWBBLG1FJDA1OGD3HKDDW564EXDM","A2BK9RMC0NOIH8","32TMVRKDGNK89K6LLIZX5RPIVK148D","","null","<img src=""img/land6.png"" style=""width:200px; border:14px solid green;"">","null","","","","","","","","","",""
"","image-keyboard-response","355","118043","0.0-355.0","3OSWBBLG1FJDA1OGD3HKDDW564EXDM","A2BK9RMC0NOIH8","32TMVRKDGNK89K6LLIZX5RPIVK148D","","0.7999999523162842","img/land6.png","76","1.6999999284744263","3","1","3","1","1,0.5,0.5,0.5,1,0.5,0.5,0.5,1","1,0.5,0.5,0.5,1,0.5,0.5,0.5,1","","",""
"","html-keyboard-response","356","118345","0.0-356.0","3OSWBBLG1FJDA1OGD3HKDDW564EXDM","A2BK9RMC0NOIH8","32TMVRKDGNK89K6LLIZX5RPIVK148D","","null","<img src=""img/land6.png"" style=""width:200px; border:14px solid green;"">","null","","","","","","","","","",""
"","image-keyboard-response","357","118450","0.0-357.0","3OSWBBLG1FJDA1OGD3HKDDW564EXDM","A2BK9RMC0NOIH8","32TMVRKDGNK89K6LLIZX5RPIVK148D","","105.09999990463257","img/land4.png","75","105.5","2","0","1","1","1,0.5,0.5,0.5,1,0.5,0.5,0.5,1","1,0.5,0.5,0.5,1,0.5,0.5,0.5,1","","",""
"","html-keyboard-response","358","118752","0.0-358.0","3OSWBBLG1FJDA1OGD3HKDDW564EXDM","A2BK9RMC0NOIH8","32TMVRKDGNK89K6LLIZX5RPIVK148D","","null","<img src=""img/land4.png"" style=""width:200px;border:14px solid red;"">","null","","","","","","","","","",""
"","image-keyboard-response","359","119002","0.0-359.0","3OSWBBLG1FJDA1OGD3HKDDW564EXDM","A2BK9RMC0NOIH8","32TMVRKDGNK89K6LLIZX5RPIVK148D","","249.5","img/land5.png","74","250.10000002384186","1","1","2","1","1,0.5,0.5,0.5,1,0.5,0.5,0.5,1","1,0.5,0.5,0.5,1,0.5,0.5,0.5,1","","",""
"","html-keyboard-response","360","119303","0.0-360.0","3OSWBBLG1FJDA1OGD3HKDDW564EXDM","A2BK9RMC0NOIH8","32TMVRKDGNK89K6LLIZX5RPIVK148D","","null","<img src=""img/land5.png"" style=""width:200px; border:14px solid green;"">","null","","","","","","","","","",""
"","image-keyboard-response","361","119322","0.0-361.0","3OSWBBLG1FJDA1OGD3HKDDW564EXDM","A2BK9RMC0NOIH8","32TMVRKDGNK89K6LLIZX5RPIVK148D","","18.799999952316284","img/land6.png","74","19.100000023841858","1","1","3","1","1,0.5,0.5,0.5,1,0.5,0.5,0.5,1","1,0.5,0.5,0.5,1,0.5,0.5,0.5,1","","",""
"","html-keyboard-response","362","119624","0.0-362.0","3OSWBBLG1FJDA1OGD3HKDDW564EXDM","A2BK9RMC0NOIH8","32TMVRKDGNK89K6LLIZX5RPIVK148D","","null","<img src=""img/land6.png"" style=""width:200px; border:14px solid green;"">","null","","","","","","","","","",""
"","image-keyboard-response","363","119658","0.0-363.0","3OSWBBLG1FJDA1OGD3HKDDW564EXDM","A2BK9RMC0NOIH8","32TMVRKDGNK89K6LLIZX5RPIVK148D","","34.200000047683716","img/land6.png","75","34.699999928474426","2","0","3","1","1,0.5,0.5,0.5,1,0.5,0.5,0.5,1","1,0.5,0.5,0.5,1,0.5,0.5,0.5,1","","",""
