"success","trial_type","trial_index","time_elapsed","internal_node_id","assignmentID","mturkID","hitID","view_history","rt","stimulus","key_press","reactionTime","a","r","warning","s","reward_cond","responses","question_order"
"true","fullscreen","0","2560","0.0-0.0","339ANSOTR6OOYC5V6Y36EG4GZ6RIKD","A2D28BVEFUUTMO","368IUKXGA5U7UZ9GQNUNOB4MGE4P6M","","","","","","","","","","","",""
"","instructions","1","22002","0.0-1.0","339ANSOTR6OOYC5V6Y36EG4GZ6RIKD","A2D28BVEFUUTMO","368IUKXGA5U7UZ9GQNUNOB4MGE4P6M","[{""page_index"":0,""viewing_time"":6144},{""page_index"":1,""viewing_time"":798},{""page_index"":0,""viewing_time"":6619},{""page_index"":1,""viewing_time"":1177},{""page_index"":2,""viewing_time"":948},{""page_index"":3,""viewing_time"":779},{""page_index"":4,""viewing_time"":1167},{""page_index"":5,""viewing_time"":555},{""page_index"":6,""viewing_time"":704},{""page_index"":7,""viewing_time"":540}]","19432","","","","","","","","","",""
"","image-keyboard-response","2","23020","0.0-2.0","339ANSOTR6OOYC5V6Y36EG4GZ6RIKD","A2D28BVEFUUTMO","368IUKXGA5U7UZ9GQNUNOB4MGE4P6M","","","img/land6.png","","1017","-1","0","true","3","0.8,0.8,0.2,0.2,0.8,0.8,0.8,0.2,0.8","",""
"","html-keyboard-response","3","23340","0.0-3.0","339ANSOTR6OOYC5V6Y36EG4GZ6RIKD","A2D28BVEFUUTMO","368IUKXGA5U7UZ9GQNUNOB4MGE4P6M","","null","<img src=""img/land6.png"" style=""width:200px;border:14px solid red;"">","null","","","","","","","",""
"","html-keyboard-response","4","28872","0.0-4.0-0.0","339ANSOTR6OOYC5V6Y36EG4GZ6RIKD","A2D28BVEFUUTMO","368IUKXGA5U7UZ9GQNUNOB4MGE4P6M","","","","","","","","","","","",""
"","image-keyboard-response","5","29879","0.0-5.0","339ANSOTR6OOYC5V6Y36EG4GZ6RIKD","A2D28BVEFUUTMO","368IUKXGA5U7UZ9GQNUNOB4MGE4P6M","","","img/land7.png","","1005","-1","0","true","1","0.8,0.8,0.2,0.2,0.8,0.8,0.8,0.2,0.8","",""
"","html-keyboard-response","6","30187","0.0-6.0","339ANSOTR6OOYC5V6Y36EG4GZ6RIKD","A2D28BVEFUUTMO","368IUKXGA5U7UZ9GQNUNOB4MGE4P6M","","null","<img src=""img/land7.png"" style=""width:200px;border:14px solid red;"">","null","","","","","","","",""
"","html-keyboard-response","7","33057","0.0-7.0-0.0","339ANSOTR6OOYC5V6Y36EG4GZ6RIKD","A2D28BVEFUUTMO","368IUKXGA5U7UZ9GQNUNOB4MGE4P6M","","","","","","","","","","","",""
"","image-keyboard-response","8","33506","0.0-8.0","339ANSOTR6OOYC5V6Y36EG4GZ6RIKD","A2D28BVEFUUTMO","368IUKXGA5U7UZ9GQNUNOB4MGE4P6M","","441","img/land9.png","75","447","2","0","false","2","0.8,0.8,0.2,0.2,0.8,0.8,0.8,0.2,0.8","",""
"","html-keyboard-response","9","33812","0.0-9.0","339ANSOTR6OOYC5V6Y36EG4GZ6RIKD","A2D28BVEFUUTMO","368IUKXGA5U7UZ9GQNUNOB4MGE4P6M","","null","<img src=""img/land9.png"" style=""width:200px;border:14px solid red;"">","null","","","","","","","",""
"","image-keyboard-response","10","34420","0.0-11.0","339ANSOTR6OOYC5V6Y36EG4GZ6RIKD","A2D28BVEFUUTMO","368IUKXGA5U7UZ9GQNUNOB4MGE4P6M","","599","img/land7.png","75","605","2","0","false","1","0.8,0.8,0.2,0.2,0.8,0.8,0.8,0.2,0.8","",""
"","html-keyboard-response","11","34728","0.0-12.0","339ANSOTR6OOYC5V6Y36EG4GZ6RIKD","A2D28BVEFUUTMO","368IUKXGA5U7UZ9GQNUNOB4MGE4P6M","","null","<img src=""img/land7.png"" style=""width:200px;border:14px solid red;"">","null","","","","","","","",""
"","image-keyboard-response","12","35079","0.0-14.0","339ANSOTR6OOYC5V6Y36EG4GZ6RIKD","A2D28BVEFUUTMO","368IUKXGA5U7UZ9GQNUNOB4MGE4P6M","","344","img/land9.png","75","348","2","1","false","2","0.8,0.8,0.2,0.2,0.8,0.8,0.8,0.2,0.8","",""
"","html-keyboard-response","13","35386","0.0-15.0","339ANSOTR6OOYC5V6Y36EG4GZ6RIKD","A2D28BVEFUUTMO","368IUKXGA5U7UZ9GQNUNOB4MGE4P6M","","null","<img src=""img/land9.png"" style=""width:200px; border:14px solid green;"">","null","","","","","","","",""
"","image-keyboard-response","14","35887","0.0-17.0","339ANSOTR6OOYC5V6Y36EG4GZ6RIKD","A2D28BVEFUUTMO","368IUKXGA5U7UZ9GQNUNOB4MGE4P6M","","493","img/land6.png","76","498","3","1","false","3","0.8,0.8,0.2,0.2,0.8,0.8,0.8,0.2,0.8","",""
"","html-keyboard-response","15","36195","0.0-18.0","339ANSOTR6OOYC5V6Y36EG4GZ6RIKD","A2D28BVEFUUTMO","368IUKXGA5U7UZ9GQNUNOB4MGE4P6M","","null","<img src=""img/land6.png"" style=""width:200px; border:14px solid green;"">","null","","","","","","","",""
"","image-keyboard-response","16","36624","0.0-20.0","339ANSOTR6OOYC5V6Y36EG4GZ6RIKD","A2D28BVEFUUTMO","368IUKXGA5U7UZ9GQNUNOB4MGE4P6M","","419","img/land9.png","76","425","3","1","false","2","0.8,0.8,0.2,0.2,0.8,0.8,0.8,0.2,0.8","",""
"","html-keyboard-response","17","36930","0.0-21.0","339ANSOTR6OOYC5V6Y36EG4GZ6RIKD","A2D28BVEFUUTMO","368IUKXGA5U7UZ9GQNUNOB4MGE4P6M","","null","<img src=""img/land9.png"" style=""width:200px; border:14px solid green;"">","null","","","","","","","",""
"","image-keyboard-response","18","37325","0.0-23.0","339ANSOTR6OOYC5V6Y36EG4GZ6RIKD","A2D28BVEFUUTMO","368IUKXGA5U7UZ9GQNUNOB4MGE4P6M","","386","img/land7.png","76","393","3","0","false","1","0.8,0.8,0.2,0.2,0.8,0.8,0.8,0.2,0.8","",""
"","html-keyboard-response","19","37630","0.0-24.0","339ANSOTR6OOYC5V6Y36EG4GZ6RIKD","A2D28BVEFUUTMO","368IUKXGA5U7UZ9GQNUNOB4MGE4P6M","","null","<img src=""img/land7.png"" style=""width:200px;border:14px solid red;"">","null","","","","","","","",""
"","image-keyboard-response","20","37989","0.0-26.0","339ANSOTR6OOYC5V6Y36EG4GZ6RIKD","A2D28BVEFUUTMO","368IUKXGA5U7UZ9GQNUNOB4MGE4P6M","","351","img/land9.png","75","358","2","1","false","2","0.8,0.8,0.2,0.2,0.8,0.8,0.8,0.2,0.8","",""
"","html-keyboard-response","21","38299","0.0-27.0","339ANSOTR6OOYC5V6Y36EG4GZ6RIKD","A2D28BVEFUUTMO","368IUKXGA5U7UZ9GQNUNOB4MGE4P6M","","null","<img src=""img/land9.png"" style=""width:200px; border:14px solid green;"">","null","","","","","","","",""
"","image-keyboard-response","22","38628","0.0-29.0","339ANSOTR6OOYC5V6Y36EG4GZ6RIKD","A2D28BVEFUUTMO","368IUKXGA5U7UZ9GQNUNOB4MGE4P6M","","322","img/land7.png","76","328","3","1","false","1","0.8,0.8,0.2,0.2,0.8,0.8,0.8,0.2,0.8","",""
"","html-keyboard-response","23","38938","0.0-30.0","339ANSOTR6OOYC5V6Y36EG4GZ6RIKD","A2D28BVEFUUTMO","368IUKXGA5U7UZ9GQNUNOB4MGE4P6M","","null","<img src=""img/land7.png"" style=""width:200px; border:14px solid green;"">","null","","","","","","","",""
"","image-keyboard-response","24","39272","0.0-32.0","339ANSOTR6OOYC5V6Y36EG4GZ6RIKD","A2D28BVEFUUTMO","368IUKXGA5U7UZ9GQNUNOB4MGE4P6M","","326","img/land7.png","75","332","2","1","false","1","0.8,0.8,0.2,0.2,0.8,0.8,0.8,0.2,0.8","",""
"","html-keyboard-response","25","39578","0.0-33.0","339ANSOTR6OOYC5V6Y36EG4GZ6RIKD","A2D28BVEFUUTMO","368IUKXGA5U7UZ9GQNUNOB4MGE4P6M","","null","<img src=""img/land7.png"" style=""width:200px; border:14px solid green;"">","null","","","","","","","",""
"","image-keyboard-response","26","39706","0.0-35.0","339ANSOTR6OOYC5V6Y36EG4GZ6RIKD","A2D28BVEFUUTMO","368IUKXGA5U7UZ9GQNUNOB4MGE4P6M","","120","img/land7.png","76","126","3","0","false","1","0.8,0.8,0.2,0.2,0.8,0.8,0.8,0.2,0.8","",""
"","html-keyboard-response","27","40013","0.0-36.0","339ANSOTR6OOYC5V6Y36EG4GZ6RIKD","A2D28BVEFUUTMO","368IUKXGA5U7UZ9GQNUNOB4MGE4P6M","","null","<img src=""img/land7.png"" style=""width:200px;border:14px solid red;"">","null","","","","","","","",""
"","image-keyboard-response","28","40248","0.0-38.0","339ANSOTR6OOYC5V6Y36EG4GZ6RIKD","A2D28BVEFUUTMO","368IUKXGA5U7UZ9GQNUNOB4MGE4P6M","","225","img/land7.png","75","232","2","1","false","1","0.8,0.8,0.2,0.2,0.8,0.8,0.8,0.2,0.8","",""
"","html-keyboard-response","29","40555","0.0-39.0","339ANSOTR6OOYC5V6Y36EG4GZ6RIKD","A2D28BVEFUUTMO","368IUKXGA5U7UZ9GQNUNOB4MGE4P6M","","null","<img src=""img/land7.png"" style=""width:200px; border:14px solid green;"">","null","","","","","","","",""
"","image-keyboard-response","30","40862","0.0-41.0","339ANSOTR6OOYC5V6Y36EG4GZ6RIKD","A2D28BVEFUUTMO","368IUKXGA5U7UZ9GQNUNOB4MGE4P6M","","298","img/land9.png","74","304","1","0","false","2","0.8,0.8,0.2,0.2,0.8,0.8,0.8,0.2,0.8","",""
"","html-keyboard-response","31","41167","0.0-42.0","339ANSOTR6OOYC5V6Y36EG4GZ6RIKD","A2D28BVEFUUTMO","368IUKXGA5U7UZ9GQNUNOB4MGE4P6M","","null","<img src=""img/land9.png"" style=""width:200px;border:14px solid red;"">","null","","","","","","","",""
"","image-keyboard-response","32","41443","0.0-44.0","339ANSOTR6OOYC5V6Y36EG4GZ6RIKD","A2D28BVEFUUTMO","368IUKXGA5U7UZ9GQNUNOB4MGE4P6M","","270","img/land7.png","75","275","2","0","false","1","0.8,0.8,0.2,0.2,0.8,0.8,0.8,0.2,0.8","",""
"","html-keyboard-response","33","41750","0.0-45.0","339ANSOTR6OOYC5V6Y36EG4GZ6RIKD","A2D28BVEFUUTMO","368IUKXGA5U7UZ9GQNUNOB4MGE4P6M","","null","<img src=""img/land7.png"" style=""width:200px;border:14px solid red;"">","null","","","","","","","",""
"","image-keyboard-response","34","42059","0.0-47.0","339ANSOTR6OOYC5V6Y36EG4GZ6RIKD","A2D28BVEFUUTMO","368IUKXGA5U7UZ9GQNUNOB4MGE4P6M","","304","img/land9.png","76","308","3","1","false","2","0.8,0.8,0.2,0.2,0.8,0.8,0.8,0.2,0.8","",""
"","html-keyboard-response","35","42366","0.0-48.0","339ANSOTR6OOYC5V6Y36EG4GZ6RIKD","A2D28BVEFUUTMO","368IUKXGA5U7UZ9GQNUNOB4MGE4P6M","","null","<img src=""img/land9.png"" style=""width:200px; border:14px solid green;"">","null","","","","","","","",""
"","image-keyboard-response","36","42807","0.0-50.0","339ANSOTR6OOYC5V6Y36EG4GZ6RIKD","A2D28BVEFUUTMO","368IUKXGA5U7UZ9GQNUNOB4MGE4P6M","","431","img/land9.png","76","438","3","1","false","2","0.8,0.8,0.2,0.2,0.8,0.8,0.8,0.2,0.8","",""
"","html-keyboard-response","37","43114","0.0-51.0","339ANSOTR6OOYC5V6Y36EG4GZ6RIKD","A2D28BVEFUUTMO","368IUKXGA5U7UZ9GQNUNOB4MGE4P6M","","null","<img src=""img/land9.png"" style=""width:200px; border:14px solid green;"">","null","","","","","","","",""
"","image-keyboard-response","38","43653","0.0-53.0","339ANSOTR6OOYC5V6Y36EG4GZ6RIKD","A2D28BVEFUUTMO","368IUKXGA5U7UZ9GQNUNOB4MGE4P6M","","529","img/land9.png","75","536","2","0","false","2","0.8,0.8,0.2,0.2,0.8,0.8,0.8,0.2,0.8","",""
"","html-keyboard-response","39","43961","0.0-54.0","339ANSOTR6OOYC5V6Y36EG4GZ6RIKD","A2D28BVEFUUTMO","368IUKXGA5U7UZ9GQNUNOB4MGE4P6M","","null","<img src=""img/land9.png"" style=""width:200px;border:14px solid red;"">","null","","","","","","","",""
"","image-keyboard-response","40","44038","0.0-56.0","339ANSOTR6OOYC5V6Y36EG4GZ6RIKD","A2D28BVEFUUTMO","368IUKXGA5U7UZ9GQNUNOB4MGE4P6M","","70","img/land6.png","76","76","3","0","false","3","0.8,0.8,0.2,0.2,0.8,0.8,0.8,0.2,0.8","",""
"","html-keyboard-response","41","44346","0.0-57.0","339ANSOTR6OOYC5V6Y36EG4GZ6RIKD","A2D28BVEFUUTMO","368IUKXGA5U7UZ9GQNUNOB4MGE4P6M","","null","<img src=""img/land6.png"" style=""width:200px;border:14px solid red;"">","null","","","","","","","",""
"","image-keyboard-response","42","44859","0.0-59.0","339ANSOTR6OOYC5V6Y36EG4GZ6RIKD","A2D28BVEFUUTMO","368IUKXGA5U7UZ9GQNUNOB4MGE4P6M","","503","img/land7.png","75","510","2","1","false","1","0.8,0.8,0.2,0.2,0.8,0.8,0.8,0.2,0.8","",""
"","html-keyboard-response","43","45166","0.0-60.0","339ANSOTR6OOYC5V6Y36EG4GZ6RIKD","A2D28BVEFUUTMO","368IUKXGA5U7UZ9GQNUNOB4MGE4P6M","","null","<img src=""img/land7.png"" style=""width:200px; border:14px solid green;"">","null","","","","","","","",""
"","image-keyboard-response","44","45653","0.0-62.0","339ANSOTR6OOYC5V6Y36EG4GZ6RIKD","A2D28BVEFUUTMO","368IUKXGA5U7UZ9GQNUNOB4MGE4P6M","","478","img/land6.png","75","483","2","0","false","3","0.8,0.8,0.2,0.2,0.8,0.8,0.8,0.2,0.8","",""
"","html-keyboard-response","45","45961","0.0-63.0","339ANSOTR6OOYC5V6Y36EG4GZ6RIKD","A2D28BVEFUUTMO","368IUKXGA5U7UZ9GQNUNOB4MGE4P6M","","null","<img src=""img/land6.png"" style=""width:200px;border:14px solid red;"">","null","","","","","","","",""
"","image-keyboard-response","46","46238","0.0-65.0","339ANSOTR6OOYC5V6Y36EG4GZ6RIKD","A2D28BVEFUUTMO","368IUKXGA5U7UZ9GQNUNOB4MGE4P6M","","268","img/land7.png","76","273","3","1","false","1","0.8,0.8,0.2,0.2,0.8,0.8,0.8,0.2,0.8","",""
"","html-keyboard-response","47","46545","0.0-66.0","339ANSOTR6OOYC5V6Y36EG4GZ6RIKD","A2D28BVEFUUTMO","368IUKXGA5U7UZ9GQNUNOB4MGE4P6M","","null","<img src=""img/land7.png"" style=""width:200px; border:14px solid green;"">","null","","","","","","","",""
"","image-keyboard-response","48","46790","0.0-68.0","339ANSOTR6OOYC5V6Y36EG4GZ6RIKD","A2D28BVEFUUTMO","368IUKXGA5U7UZ9GQNUNOB4MGE4P6M","","237","img/land9.png","74","243","1","0","false","2","0.8,0.8,0.2,0.2,0.8,0.8,0.8,0.2,0.8","",""
"","html-keyboard-response","49","47097","0.0-69.0","339ANSOTR6OOYC5V6Y36EG4GZ6RIKD","A2D28BVEFUUTMO","368IUKXGA5U7UZ9GQNUNOB4MGE4P6M","","null","<img src=""img/land9.png"" style=""width:200px;border:14px solid red;"">","null","","","","","","","",""
"","image-keyboard-response","50","47421","0.0-71.0","339ANSOTR6OOYC5V6Y36EG4GZ6RIKD","A2D28BVEFUUTMO","368IUKXGA5U7UZ9GQNUNOB4MGE4P6M","","313","img/land6.png","75","320","2","0","false","3","0.8,0.8,0.2,0.2,0.8,0.8,0.8,0.2,0.8","",""
"","html-keyboard-response","51","47728","0.0-72.0","339ANSOTR6OOYC5V6Y36EG4GZ6RIKD","A2D28BVEFUUTMO","368IUKXGA5U7UZ9GQNUNOB4MGE4P6M","","null","<img src=""img/land6.png"" style=""width:200px;border:14px solid red;"">","null","","","","","","","",""
"","image-keyboard-response","52","48005","0.0-74.0","339ANSOTR6OOYC5V6Y36EG4GZ6RIKD","A2D28BVEFUUTMO","368IUKXGA5U7UZ9GQNUNOB4MGE4P6M","","270","img/land6.png","75","275","2","0","false","3","0.8,0.8,0.2,0.2,0.8,0.8,0.8,0.2,0.8","",""
"","html-keyboard-response","53","48313","0.0-75.0","339ANSOTR6OOYC5V6Y36EG4GZ6RIKD","A2D28BVEFUUTMO","368IUKXGA5U7UZ9GQNUNOB4MGE4P6M","","null","<img src=""img/land6.png"" style=""width:200px;border:14px solid red;"">","null","","","","","","","",""
"","image-keyboard-response","54","48592","0.0-77.0","339ANSOTR6OOYC5V6Y36EG4GZ6RIKD","A2D28BVEFUUTMO","368IUKXGA5U7UZ9GQNUNOB4MGE4P6M","","271","img/land7.png","76","276","3","0","false","1","0.8,0.8,0.2,0.2,0.8,0.8,0.8,0.2,0.8","",""
"","html-keyboard-response","55","48899","0.0-78.0","339ANSOTR6OOYC5V6Y36EG4GZ6RIKD","A2D28BVEFUUTMO","368IUKXGA5U7UZ9GQNUNOB4MGE4P6M","","null","<img src=""img/land7.png"" style=""width:200px;border:14px solid red;"">","null","","","","","","","",""
"","image-keyboard-response","56","49202","0.0-80.0","339ANSOTR6OOYC5V6Y36EG4GZ6RIKD","A2D28BVEFUUTMO","368IUKXGA5U7UZ9GQNUNOB4MGE4P6M","","295","img/land6.png","74","301","1","1","false","3","0.8,0.8,0.2,0.2,0.8,0.8,0.8,0.2,0.8","",""
"","html-keyboard-response","57","49509","0.0-81.0","339ANSOTR6OOYC5V6Y36EG4GZ6RIKD","A2D28BVEFUUTMO","368IUKXGA5U7UZ9GQNUNOB4MGE4P6M","","null","<img src=""img/land6.png"" style=""width:200px; border:14px solid green;"">","null","","","","","","","",""
"","image-keyboard-response","58","49756","0.0-83.0","339ANSOTR6OOYC5V6Y36EG4GZ6RIKD","A2D28BVEFUUTMO","368IUKXGA5U7UZ9GQNUNOB4MGE4P6M","","237","img/land6.png","75","245","2","0","false","3","0.8,0.8,0.2,0.2,0.8,0.8,0.8,0.2,0.8","",""
"","html-keyboard-response","59","50066","0.0-84.0","339ANSOTR6OOYC5V6Y36EG4GZ6RIKD","A2D28BVEFUUTMO","368IUKXGA5U7UZ9GQNUNOB4MGE4P6M","","null","<img src=""img/land6.png"" style=""width:200px;border:14px solid red;"">","null","","","","","","","",""
"","image-keyboard-response","60","50347","0.0-86.0","339ANSOTR6OOYC5V6Y36EG4GZ6RIKD","A2D28BVEFUUTMO","368IUKXGA5U7UZ9GQNUNOB4MGE4P6M","","270","img/land6.png","75","277","2","1","false","3","0.8,0.8,0.2,0.2,0.8,0.8,0.8,0.2,0.8","",""
"","html-keyboard-response","61","50655","0.0-87.0","339ANSOTR6OOYC5V6Y36EG4GZ6RIKD","A2D28BVEFUUTMO","368IUKXGA5U7UZ9GQNUNOB4MGE4P6M","","null","<img src=""img/land6.png"" style=""width:200px; border:14px solid green;"">","null","","","","","","","",""
"","image-keyboard-response","62","50896","0.0-89.0","339ANSOTR6OOYC5V6Y36EG4GZ6RIKD","A2D28BVEFUUTMO","368IUKXGA5U7UZ9GQNUNOB4MGE4P6M","","233","img/land9.png","75","237","2","1","false","2","0.8,0.8,0.2,0.2,0.8,0.8,0.8,0.2,0.8","",""
"","html-keyboard-response","63","51204","0.0-90.0","339ANSOTR6OOYC5V6Y36EG4GZ6RIKD","A2D28BVEFUUTMO","368IUKXGA5U7UZ9GQNUNOB4MGE4P6M","","null","<img src=""img/land9.png"" style=""width:200px; border:14px solid green;"">","null","","","","","","","",""
"","image-keyboard-response","64","51555","0.0-92.0","339ANSOTR6OOYC5V6Y36EG4GZ6RIKD","A2D28BVEFUUTMO","368IUKXGA5U7UZ9GQNUNOB4MGE4P6M","","342","img/land7.png","76","348","3","0","false","1","0.8,0.8,0.2,0.2,0.8,0.8,0.8,0.2,0.8","",""
"","html-keyboard-response","65","51863","0.0-93.0","339ANSOTR6OOYC5V6Y36EG4GZ6RIKD","A2D28BVEFUUTMO","368IUKXGA5U7UZ9GQNUNOB4MGE4P6M","","null","<img src=""img/land7.png"" style=""width:200px;border:14px solid red;"">","null","","","","","","","",""
"","image-keyboard-response","66","52288","0.0-95.0","339ANSOTR6OOYC5V6Y36EG4GZ6RIKD","A2D28BVEFUUTMO","368IUKXGA5U7UZ9GQNUNOB4MGE4P6M","","416","img/land6.png","75","422","2","1","false","3","0.8,0.8,0.2,0.2,0.8,0.8,0.8,0.2,0.8","",""
"","html-keyboard-response","67","52594","0.0-96.0","339ANSOTR6OOYC5V6Y36EG4GZ6RIKD","A2D28BVEFUUTMO","368IUKXGA5U7UZ9GQNUNOB4MGE4P6M","","null","<img src=""img/land6.png"" style=""width:200px; border:14px solid green;"">","null","","","","","","","",""
"","image-keyboard-response","68","53022","0.0-98.0","339ANSOTR6OOYC5V6Y36EG4GZ6RIKD","A2D28BVEFUUTMO","368IUKXGA5U7UZ9GQNUNOB4MGE4P6M","","419","img/land9.png","75","424","2","1","false","2","0.8,0.8,0.2,0.2,0.8,0.8,0.8,0.2,0.8","",""
"","html-keyboard-response","69","53328","0.0-99.0","339ANSOTR6OOYC5V6Y36EG4GZ6RIKD","A2D28BVEFUUTMO","368IUKXGA5U7UZ9GQNUNOB4MGE4P6M","","null","<img src=""img/land9.png"" style=""width:200px; border:14px solid green;"">","null","","","","","","","",""
"","image-keyboard-response","70","53805","0.0-101.0","339ANSOTR6OOYC5V6Y36EG4GZ6RIKD","A2D28BVEFUUTMO","368IUKXGA5U7UZ9GQNUNOB4MGE4P6M","","472","img/land7.png","74","475","1","1","false","1","0.8,0.8,0.2,0.2,0.8,0.8,0.8,0.2,0.8","",""
"","html-keyboard-response","71","54113","0.0-102.0","339ANSOTR6OOYC5V6Y36EG4GZ6RIKD","A2D28BVEFUUTMO","368IUKXGA5U7UZ9GQNUNOB4MGE4P6M","","null","<img src=""img/land7.png"" style=""width:200px; border:14px solid green;"">","null","","","","","","","",""
"","image-keyboard-response","72","55119","0.0-104.0","339ANSOTR6OOYC5V6Y36EG4GZ6RIKD","A2D28BVEFUUTMO","368IUKXGA5U7UZ9GQNUNOB4MGE4P6M","","","img/land9.png","","1004","-1","0","true","2","0.8,0.8,0.2,0.2,0.8,0.8,0.8,0.2,0.8","",""
"","html-keyboard-response","73","55426","0.0-105.0","339ANSOTR6OOYC5V6Y36EG4GZ6RIKD","A2D28BVEFUUTMO","368IUKXGA5U7UZ9GQNUNOB4MGE4P6M","","null","<img src=""img/land9.png"" style=""width:200px;border:14px solid red;"">","null","","","","","","","",""
"","html-keyboard-response","74","57212","0.0-106.0-0.0","339ANSOTR6OOYC5V6Y36EG4GZ6RIKD","A2D28BVEFUUTMO","368IUKXGA5U7UZ9GQNUNOB4MGE4P6M","","","","","","","","","","","",""
"","image-keyboard-response","75","57649","0.0-107.0","339ANSOTR6OOYC5V6Y36EG4GZ6RIKD","A2D28BVEFUUTMO","368IUKXGA5U7UZ9GQNUNOB4MGE4P6M","","433","img/land6.png","75","437","2","0","false","3","0.8,0.8,0.2,0.2,0.8,0.8,0.8,0.2,0.8","",""
"","html-keyboard-response","76","57956","0.0-108.0","339ANSOTR6OOYC5V6Y36EG4GZ6RIKD","A2D28BVEFUUTMO","368IUKXGA5U7UZ9GQNUNOB4MGE4P6M","","null","<img src=""img/land6.png"" style=""width:200px;border:14px solid red;"">","null","","","","","","","",""
"","image-keyboard-response","77","58129","0.0-110.0","339ANSOTR6OOYC5V6Y36EG4GZ6RIKD","A2D28BVEFUUTMO","368IUKXGA5U7UZ9GQNUNOB4MGE4P6M","","164","img/land7.png","75","171","2","1","false","1","0.8,0.8,0.2,0.2,0.8,0.8,0.8,0.2,0.8","",""
"","html-keyboard-response","78","58436","0.0-111.0","339ANSOTR6OOYC5V6Y36EG4GZ6RIKD","A2D28BVEFUUTMO","368IUKXGA5U7UZ9GQNUNOB4MGE4P6M","","null","<img src=""img/land7.png"" style=""width:200px; border:14px solid green;"">","null","","","","","","","",""
"","image-keyboard-response","79","58608","0.0-113.0","339ANSOTR6OOYC5V6Y36EG4GZ6RIKD","A2D28BVEFUUTMO","368IUKXGA5U7UZ9GQNUNOB4MGE4P6M","","167","img/land6.png","75","170","2","0","false","3","0.8,0.8,0.2,0.2,0.8,0.8,0.8,0.2,0.8","",""
"","html-keyboard-response","80","58914","0.0-114.0","339ANSOTR6OOYC5V6Y36EG4GZ6RIKD","A2D28BVEFUUTMO","368IUKXGA5U7UZ9GQNUNOB4MGE4P6M","","null","<img src=""img/land6.png"" style=""width:200px;border:14px solid red;"">","null","","","","","","","",""
"","image-keyboard-response","81","59073","0.0-116.0","339ANSOTR6OOYC5V6Y36EG4GZ6RIKD","A2D28BVEFUUTMO","368IUKXGA5U7UZ9GQNUNOB4MGE4P6M","","151","img/land6.png","75","156","2","0","false","3","0.8,0.8,0.2,0.2,0.8,0.8,0.8,0.2,0.8","",""
"","html-keyboard-response","82","59380","0.0-117.0","339ANSOTR6OOYC5V6Y36EG4GZ6RIKD","A2D28BVEFUUTMO","368IUKXGA5U7UZ9GQNUNOB4MGE4P6M","","null","<img src=""img/land6.png"" style=""width:200px;border:14px solid red;"">","null","","","","","","","",""
"","image-keyboard-response","83","59523","0.0-119.0","339ANSOTR6OOYC5V6Y36EG4GZ6RIKD","A2D28BVEFUUTMO","368IUKXGA5U7UZ9GQNUNOB4MGE4P6M","","132","img/land6.png","75","139","2","0","false","3","0.8,0.8,0.2,0.2,0.8,0.8,0.8,0.2,0.8","",""
"","html-keyboard-response","84","59830","0.0-120.0","339ANSOTR6OOYC5V6Y36EG4GZ6RIKD","A2D28BVEFUUTMO","368IUKXGA5U7UZ9GQNUNOB4MGE4P6M","","null","<img src=""img/land6.png"" style=""width:200px;border:14px solid red;"">","null","","","","","","","",""
"","image-keyboard-response","85","59926","0.0-122.0","339ANSOTR6OOYC5V6Y36EG4GZ6RIKD","A2D28BVEFUUTMO","368IUKXGA5U7UZ9GQNUNOB4MGE4P6M","","90","img/land7.png","75","95","2","1","false","1","0.8,0.8,0.2,0.2,0.8,0.8,0.8,0.2,0.8","",""
"","html-keyboard-response","86","60232","0.0-123.0","339ANSOTR6OOYC5V6Y36EG4GZ6RIKD","A2D28BVEFUUTMO","368IUKXGA5U7UZ9GQNUNOB4MGE4P6M","","null","<img src=""img/land7.png"" style=""width:200px; border:14px solid green;"">","null","","","","","","","",""
"","image-keyboard-response","87","60376","0.0-125.0","339ANSOTR6OOYC5V6Y36EG4GZ6RIKD","A2D28BVEFUUTMO","368IUKXGA5U7UZ9GQNUNOB4MGE4P6M","","134","img/land6.png","75","140","2","0","false","3","0.8,0.8,0.2,0.2,0.8,0.8,0.8,0.2,0.8","",""
"","html-keyboard-response","88","60684","0.0-126.0","339ANSOTR6OOYC5V6Y36EG4GZ6RIKD","A2D28BVEFUUTMO","368IUKXGA5U7UZ9GQNUNOB4MGE4P6M","","null","<img src=""img/land6.png"" style=""width:200px;border:14px solid red;"">","null","","","","","","","",""
"","image-keyboard-response","89","61096","0.0-128.0","339ANSOTR6OOYC5V6Y36EG4GZ6RIKD","A2D28BVEFUUTMO","368IUKXGA5U7UZ9GQNUNOB4MGE4P6M","","407","img/land7.png","75","411","2","1","false","1","0.8,0.8,0.2,0.2,0.8,0.8,0.8,0.2,0.8","",""
"","html-keyboard-response","90","61404","0.0-129.0","339ANSOTR6OOYC5V6Y36EG4GZ6RIKD","A2D28BVEFUUTMO","368IUKXGA5U7UZ9GQNUNOB4MGE4P6M","","null","<img src=""img/land7.png"" style=""width:200px; border:14px solid green;"">","null","","","","","","","",""
"","image-keyboard-response","91","61728","0.0-131.0","339ANSOTR6OOYC5V6Y36EG4GZ6RIKD","A2D28BVEFUUTMO","368IUKXGA5U7UZ9GQNUNOB4MGE4P6M","","318","img/land9.png","75","324","2","1","false","2","0.8,0.8,0.2,0.2,0.8,0.8,0.8,0.2,0.8","",""
"","html-keyboard-response","92","62037","0.0-132.0","339ANSOTR6OOYC5V6Y36EG4GZ6RIKD","A2D28BVEFUUTMO","368IUKXGA5U7UZ9GQNUNOB4MGE4P6M","","null","<img src=""img/land9.png"" style=""width:200px; border:14px solid green;"">","null","","","","","","","",""
"","image-keyboard-response","93","62489","0.0-134.0","339ANSOTR6OOYC5V6Y36EG4GZ6RIKD","A2D28BVEFUUTMO","368IUKXGA5U7UZ9GQNUNOB4MGE4P6M","","444","img/land6.png","75","449","2","0","false","3","0.8,0.8,0.2,0.2,0.8,0.8,0.8,0.2,0.8","",""
"","html-keyboard-response","94","62798","0.0-135.0","339ANSOTR6OOYC5V6Y36EG4GZ6RIKD","A2D28BVEFUUTMO","368IUKXGA5U7UZ9GQNUNOB4MGE4P6M","","null","<img src=""img/land6.png"" style=""width:200px;border:14px solid red;"">","null","","","","","","","",""
"","image-keyboard-response","95","62907","0.0-137.0","339ANSOTR6OOYC5V6Y36EG4GZ6RIKD","A2D28BVEFUUTMO","368IUKXGA5U7UZ9GQNUNOB4MGE4P6M","","103","img/land7.png","75","106","2","1","false","1","0.8,0.8,0.2,0.2,0.8,0.8,0.8,0.2,0.8","",""
"","html-keyboard-response","96","63215","0.0-138.0","339ANSOTR6OOYC5V6Y36EG4GZ6RIKD","A2D28BVEFUUTMO","368IUKXGA5U7UZ9GQNUNOB4MGE4P6M","","null","<img src=""img/land7.png"" style=""width:200px; border:14px solid green;"">","null","","","","","","","",""
"","image-keyboard-response","97","63373","0.0-140.0","339ANSOTR6OOYC5V6Y36EG4GZ6RIKD","A2D28BVEFUUTMO","368IUKXGA5U7UZ9GQNUNOB4MGE4P6M","","148","img/land9.png","75","156","2","1","false","2","0.8,0.8,0.2,0.2,0.8,0.8,0.8,0.2,0.8","",""
"","html-keyboard-response","98","63684","0.0-141.0","339ANSOTR6OOYC5V6Y36EG4GZ6RIKD","A2D28BVEFUUTMO","368IUKXGA5U7UZ9GQNUNOB4MGE4P6M","","null","<img src=""img/land9.png"" style=""width:200px; border:14px solid green;"">","null","","","","","","","",""
"","image-keyboard-response","99","63718","0.0-143.0","339ANSOTR6OOYC5V6Y36EG4GZ6RIKD","A2D28BVEFUUTMO","368IUKXGA5U7UZ9GQNUNOB4MGE4P6M","","29","img/land7.png","75","33","2","1","false","1","0.8,0.8,0.2,0.2,0.8,0.8,0.8,0.2,0.8","",""
"","html-keyboard-response","100","64024","0.0-144.0","339ANSOTR6OOYC5V6Y36EG4GZ6RIKD","A2D28BVEFUUTMO","368IUKXGA5U7UZ9GQNUNOB4MGE4P6M","","null","<img src=""img/land7.png"" style=""width:200px; border:14px solid green;"">","null","","","","","","","",""
"","image-keyboard-response","101","64089","0.0-146.0","339ANSOTR6OOYC5V6Y36EG4GZ6RIKD","A2D28BVEFUUTMO","368IUKXGA5U7UZ9GQNUNOB4MGE4P6M","","55","img/land9.png","75","64","2","1","false","2","0.8,0.8,0.2,0.2,0.8,0.8,0.8,0.2,0.8","",""
"","html-keyboard-response","102","64395","0.0-147.0","339ANSOTR6OOYC5V6Y36EG4GZ6RIKD","A2D28BVEFUUTMO","368IUKXGA5U7UZ9GQNUNOB4MGE4P6M","","null","<img src=""img/land9.png"" style=""width:200px; border:14px solid green;"">","null","","","","","","","",""
"","image-keyboard-response","103","64479","0.0-149.0","339ANSOTR6OOYC5V6Y36EG4GZ6RIKD","A2D28BVEFUUTMO","368IUKXGA5U7UZ9GQNUNOB4MGE4P6M","","79","img/land7.png","75","83","2","1","false","1","0.8,0.8,0.2,0.2,0.8,0.8,0.8,0.2,0.8","",""
"","html-keyboard-response","104","64784","0.0-150.0","339ANSOTR6OOYC5V6Y36EG4GZ6RIKD","A2D28BVEFUUTMO","368IUKXGA5U7UZ9GQNUNOB4MGE4P6M","","null","<img src=""img/land7.png"" style=""width:200px; border:14px solid green;"">","null","","","","","","","",""
"","image-keyboard-response","105","64823","0.0-152.0","339ANSOTR6OOYC5V6Y36EG4GZ6RIKD","A2D28BVEFUUTMO","368IUKXGA5U7UZ9GQNUNOB4MGE4P6M","","34","img/land6.png","75","37","2","0","false","3","0.8,0.8,0.2,0.2,0.8,0.8,0.8,0.2,0.8","",""
"","html-keyboard-response","106","65128","0.0-153.0","339ANSOTR6OOYC5V6Y36EG4GZ6RIKD","A2D28BVEFUUTMO","368IUKXGA5U7UZ9GQNUNOB4MGE4P6M","","null","<img src=""img/land6.png"" style=""width:200px;border:14px solid red;"">","null","","","","","","","",""
"","image-keyboard-response","107","65243","0.0-155.0","339ANSOTR6OOYC5V6Y36EG4GZ6RIKD","A2D28BVEFUUTMO","368IUKXGA5U7UZ9GQNUNOB4MGE4P6M","","109","img/land6.png","75","113","2","0","false","3","0.8,0.8,0.2,0.2,0.8,0.8,0.8,0.2,0.8","",""
"","html-keyboard-response","108","65548","0.0-156.0","339ANSOTR6OOYC5V6Y36EG4GZ6RIKD","A2D28BVEFUUTMO","368IUKXGA5U7UZ9GQNUNOB4MGE4P6M","","null","<img src=""img/land6.png"" style=""width:200px;border:14px solid red;"">","null","","","","","","","",""
"","image-keyboard-response","109","65617","0.0-158.0","339ANSOTR6OOYC5V6Y36EG4GZ6RIKD","A2D28BVEFUUTMO","368IUKXGA5U7UZ9GQNUNOB4MGE4P6M","","64","img/land9.png","75","68","2","1","false","2","0.8,0.8,0.2,0.2,0.8,0.8,0.8,0.2,0.8","",""
"","html-keyboard-response","110","65927","0.0-159.0","339ANSOTR6OOYC5V6Y36EG4GZ6RIKD","A2D28BVEFUUTMO","368IUKXGA5U7UZ9GQNUNOB4MGE4P6M","","null","<img src=""img/land9.png"" style=""width:200px; border:14px solid green;"">","null","","","","","","","",""
"","image-keyboard-response","111","66022","0.0-161.0","339ANSOTR6OOYC5V6Y36EG4GZ6RIKD","A2D28BVEFUUTMO","368IUKXGA5U7UZ9GQNUNOB4MGE4P6M","","88","img/land9.png","75","92","2","1","false","2","0.8,0.8,0.2,0.2,0.8,0.8,0.8,0.2,0.8","",""
"","html-keyboard-response","112","66327","0.0-162.0","339ANSOTR6OOYC5V6Y36EG4GZ6RIKD","A2D28BVEFUUTMO","368IUKXGA5U7UZ9GQNUNOB4MGE4P6M","","null","<img src=""img/land9.png"" style=""width:200px; border:14px solid green;"">","null","","","","","","","",""
"","image-keyboard-response","113","66682","0.0-164.0","339ANSOTR6OOYC5V6Y36EG4GZ6RIKD","A2D28BVEFUUTMO","368IUKXGA5U7UZ9GQNUNOB4MGE4P6M","","348","img/land7.png","75","354","2","1","false","1","0.8,0.8,0.2,0.2,0.8,0.8,0.8,0.2,0.8","",""
"","html-keyboard-response","114","66989","0.0-165.0","339ANSOTR6OOYC5V6Y36EG4GZ6RIKD","A2D28BVEFUUTMO","368IUKXGA5U7UZ9GQNUNOB4MGE4P6M","","null","<img src=""img/land7.png"" style=""width:200px; border:14px solid green;"">","null","","","","","","","",""
"","image-keyboard-response","115","67489","0.0-167.0","339ANSOTR6OOYC5V6Y36EG4GZ6RIKD","A2D28BVEFUUTMO","368IUKXGA5U7UZ9GQNUNOB4MGE4P6M","","492","img/land9.png","74","497","1","1","false","2","0.8,0.8,0.2,0.2,0.8,0.8,0.8,0.2,0.8","",""
"","html-keyboard-response","116","67797","0.0-168.0","339ANSOTR6OOYC5V6Y36EG4GZ6RIKD","A2D28BVEFUUTMO","368IUKXGA5U7UZ9GQNUNOB4MGE4P6M","","null","<img src=""img/land9.png"" style=""width:200px; border:14px solid green;"">","null","","","","","","","",""
"","image-keyboard-response","117","67923","0.0-170.0","339ANSOTR6OOYC5V6Y36EG4GZ6RIKD","A2D28BVEFUUTMO","368IUKXGA5U7UZ9GQNUNOB4MGE4P6M","","117","img/land9.png","75","123","2","0","false","2","0.8,0.8,0.2,0.2,0.8,0.8,0.8,0.2,0.8","",""
"","html-keyboard-response","118","68230","0.0-171.0","339ANSOTR6OOYC5V6Y36EG4GZ6RIKD","A2D28BVEFUUTMO","368IUKXGA5U7UZ9GQNUNOB4MGE4P6M","","null","<img src=""img/land9.png"" style=""width:200px;border:14px solid red;"">","null","","","","","","","",""
"","image-keyboard-response","119","68359","0.0-173.0","339ANSOTR6OOYC5V6Y36EG4GZ6RIKD","A2D28BVEFUUTMO","368IUKXGA5U7UZ9GQNUNOB4MGE4P6M","","121","img/land9.png","75","125","2","1","false","2","0.8,0.8,0.2,0.2,0.8,0.8,0.8,0.2,0.8","",""
"","html-keyboard-response","120","68663","0.0-174.0","339ANSOTR6OOYC5V6Y36EG4GZ6RIKD","A2D28BVEFUUTMO","368IUKXGA5U7UZ9GQNUNOB4MGE4P6M","","null","<img src=""img/land9.png"" style=""width:200px; border:14px solid green;"">","null","","","","","","","",""
"","image-keyboard-response","121","68702","0.0-176.0","339ANSOTR6OOYC5V6Y36EG4GZ6RIKD","A2D28BVEFUUTMO","368IUKXGA5U7UZ9GQNUNOB4MGE4P6M","","33","img/land6.png","75","37","2","0","false","3","0.8,0.8,0.2,0.2,0.8,0.8,0.8,0.2,0.8","",""
"","html-keyboard-response","122","69007","0.0-177.0","339ANSOTR6OOYC5V6Y36EG4GZ6RIKD","A2D28BVEFUUTMO","368IUKXGA5U7UZ9GQNUNOB4MGE4P6M","","null","<img src=""img/land6.png"" style=""width:200px;border:14px solid red;"">","null","","","","","","","",""
"","image-keyboard-response","123","69286","0.0-179.0","339ANSOTR6OOYC5V6Y36EG4GZ6RIKD","A2D28BVEFUUTMO","368IUKXGA5U7UZ9GQNUNOB4MGE4P6M","","273","img/land6.png","75","278","2","0","false","3","0.8,0.8,0.2,0.2,0.8,0.8,0.8,0.2,0.8","",""
"","html-keyboard-response","124","69591","0.0-180.0","339ANSOTR6OOYC5V6Y36EG4GZ6RIKD","A2D28BVEFUUTMO","368IUKXGA5U7UZ9GQNUNOB4MGE4P6M","","null","<img src=""img/land6.png"" style=""width:200px;border:14px solid red;"">","null","","","","","","","",""
"","image-keyboard-response","125","69976","0.0-182.0","339ANSOTR6OOYC5V6Y36EG4GZ6RIKD","A2D28BVEFUUTMO","368IUKXGA5U7UZ9GQNUNOB4MGE4P6M","","380","img/land6.png","74","383","1","1","false","3","0.8,0.8,0.2,0.2,0.8,0.8,0.8,0.2,0.8","",""
"","html-keyboard-response","126","70290","0.0-183.0","339ANSOTR6OOYC5V6Y36EG4GZ6RIKD","A2D28BVEFUUTMO","368IUKXGA5U7UZ9GQNUNOB4MGE4P6M","","null","<img src=""img/land6.png"" style=""width:200px; border:14px solid green;"">","null","","","","","","","",""
"","image-keyboard-response","127","70439","0.0-185.0","339ANSOTR6OOYC5V6Y36EG4GZ6RIKD","A2D28BVEFUUTMO","368IUKXGA5U7UZ9GQNUNOB4MGE4P6M","","140","img/land6.png","75","147","2","1","false","3","0.8,0.8,0.2,0.2,0.8,0.8,0.8,0.2,0.8","",""
"","html-keyboard-response","128","70745","0.0-186.0","339ANSOTR6OOYC5V6Y36EG4GZ6RIKD","A2D28BVEFUUTMO","368IUKXGA5U7UZ9GQNUNOB4MGE4P6M","","null","<img src=""img/land6.png"" style=""width:200px; border:14px solid green;"">","null","","","","","","","",""
"","image-keyboard-response","129","70964","0.0-188.0","339ANSOTR6OOYC5V6Y36EG4GZ6RIKD","A2D28BVEFUUTMO","368IUKXGA5U7UZ9GQNUNOB4MGE4P6M","","214","img/land6.png","75","219","2","1","false","3","0.8,0.8,0.2,0.2,0.8,0.8,0.8,0.2,0.8","",""
"","html-keyboard-response","130","71269","0.0-189.0","339ANSOTR6OOYC5V6Y36EG4GZ6RIKD","A2D28BVEFUUTMO","368IUKXGA5U7UZ9GQNUNOB4MGE4P6M","","null","<img src=""img/land6.png"" style=""width:200px; border:14px solid green;"">","null","","","","","","","",""
"","image-keyboard-response","131","71353","0.0-191.0","339ANSOTR6OOYC5V6Y36EG4GZ6RIKD","A2D28BVEFUUTMO","368IUKXGA5U7UZ9GQNUNOB4MGE4P6M","","77","img/land9.png","75","82","2","1","false","2","0.8,0.8,0.2,0.2,0.8,0.8,0.8,0.2,0.8","",""
"","html-keyboard-response","132","71659","0.0-192.0","339ANSOTR6OOYC5V6Y36EG4GZ6RIKD","A2D28BVEFUUTMO","368IUKXGA5U7UZ9GQNUNOB4MGE4P6M","","null","<img src=""img/land9.png"" style=""width:200px; border:14px solid green;"">","null","","","","","","","",""
"","image-keyboard-response","133","71728","0.0-194.0","339ANSOTR6OOYC5V6Y36EG4GZ6RIKD","A2D28BVEFUUTMO","368IUKXGA5U7UZ9GQNUNOB4MGE4P6M","","64","img/land7.png","75","66","2","1","false","1","0.8,0.8,0.2,0.2,0.8,0.8,0.8,0.2,0.8","",""
"","html-keyboard-response","134","72036","0.0-195.0","339ANSOTR6OOYC5V6Y36EG4GZ6RIKD","A2D28BVEFUUTMO","368IUKXGA5U7UZ9GQNUNOB4MGE4P6M","","null","<img src=""img/land7.png"" style=""width:200px; border:14px solid green;"">","null","","","","","","","",""
"","image-keyboard-response","135","72162","0.0-197.0","339ANSOTR6OOYC5V6Y36EG4GZ6RIKD","A2D28BVEFUUTMO","368IUKXGA5U7UZ9GQNUNOB4MGE4P6M","","120","img/land6.png","75","123","2","0","false","3","0.8,0.8,0.2,0.2,0.8,0.8,0.8,0.2,0.8","",""
"","html-keyboard-response","136","72467","0.0-198.0","339ANSOTR6OOYC5V6Y36EG4GZ6RIKD","A2D28BVEFUUTMO","368IUKXGA5U7UZ9GQNUNOB4MGE4P6M","","null","<img src=""img/land6.png"" style=""width:200px;border:14px solid red;"">","null","","","","","","","",""
"","image-keyboard-response","137","72491","0.0-200.0","339ANSOTR6OOYC5V6Y36EG4GZ6RIKD","A2D28BVEFUUTMO","368IUKXGA5U7UZ9GQNUNOB4MGE4P6M","","19","img/land9.png","75","23","2","1","false","2","0.8,0.8,0.2,0.2,0.8,0.8,0.8,0.2,0.8","",""
"","html-keyboard-response","138","72796","0.0-201.0","339ANSOTR6OOYC5V6Y36EG4GZ6RIKD","A2D28BVEFUUTMO","368IUKXGA5U7UZ9GQNUNOB4MGE4P6M","","null","<img src=""img/land9.png"" style=""width:200px; border:14px solid green;"">","null","","","","","","","",""
"","image-keyboard-response","139","73045","0.0-203.0","339ANSOTR6OOYC5V6Y36EG4GZ6RIKD","A2D28BVEFUUTMO","368IUKXGA5U7UZ9GQNUNOB4MGE4P6M","","243","img/land9.png","75","248","2","1","false","2","0.8,0.8,0.2,0.2,0.8,0.8,0.8,0.2,0.8","",""
"","html-keyboard-response","140","73353","0.0-204.0","339ANSOTR6OOYC5V6Y36EG4GZ6RIKD","A2D28BVEFUUTMO","368IUKXGA5U7UZ9GQNUNOB4MGE4P6M","","null","<img src=""img/land9.png"" style=""width:200px; border:14px solid green;"">","null","","","","","","","",""
"","image-keyboard-response","141","73936","0.0-206.0","339ANSOTR6OOYC5V6Y36EG4GZ6RIKD","A2D28BVEFUUTMO","368IUKXGA5U7UZ9GQNUNOB4MGE4P6M","","572","img/land7.png","75","581","2","1","false","1","0.8,0.8,0.2,0.2,0.8,0.8,0.8,0.2,0.8","",""
"","html-keyboard-response","142","74246","0.0-207.0","339ANSOTR6OOYC5V6Y36EG4GZ6RIKD","A2D28BVEFUUTMO","368IUKXGA5U7UZ9GQNUNOB4MGE4P6M","","null","<img src=""img/land7.png"" style=""width:200px; border:14px solid green;"">","null","","","","","","","",""
"","image-keyboard-response","143","74409","0.0-209.0","339ANSOTR6OOYC5V6Y36EG4GZ6RIKD","A2D28BVEFUUTMO","368IUKXGA5U7UZ9GQNUNOB4MGE4P6M","","153","img/land7.png","76","160","3","0","false","1","0.8,0.8,0.2,0.2,0.8,0.8,0.8,0.2,0.8","",""
"","html-keyboard-response","144","74715","0.0-210.0","339ANSOTR6OOYC5V6Y36EG4GZ6RIKD","A2D28BVEFUUTMO","368IUKXGA5U7UZ9GQNUNOB4MGE4P6M","","null","<img src=""img/land7.png"" style=""width:200px;border:14px solid red;"">","null","","","","","","","",""
"","image-keyboard-response","145","74798","0.0-212.0","339ANSOTR6OOYC5V6Y36EG4GZ6RIKD","A2D28BVEFUUTMO","368IUKXGA5U7UZ9GQNUNOB4MGE4P6M","","77","img/land9.png","75","82","2","1","false","2","0.8,0.8,0.2,0.2,0.8,0.8,0.8,0.2,0.8","",""
"","html-keyboard-response","146","75103","0.0-213.0","339ANSOTR6OOYC5V6Y36EG4GZ6RIKD","A2D28BVEFUUTMO","368IUKXGA5U7UZ9GQNUNOB4MGE4P6M","","null","<img src=""img/land9.png"" style=""width:200px; border:14px solid green;"">","null","","","","","","","",""
"","image-keyboard-response","147","75383","0.0-215.0","339ANSOTR6OOYC5V6Y36EG4GZ6RIKD","A2D28BVEFUUTMO","368IUKXGA5U7UZ9GQNUNOB4MGE4P6M","","272","img/land9.png","75","278","2","1","false","2","0.8,0.8,0.2,0.2,0.8,0.8,0.8,0.2,0.8","",""
"","html-keyboard-response","148","75688","0.0-216.0","339ANSOTR6OOYC5V6Y36EG4GZ6RIKD","A2D28BVEFUUTMO","368IUKXGA5U7UZ9GQNUNOB4MGE4P6M","","null","<img src=""img/land9.png"" style=""width:200px; border:14px solid green;"">","null","","","","","","","",""
"","image-keyboard-response","149","75981","0.0-218.0","339ANSOTR6OOYC5V6Y36EG4GZ6RIKD","A2D28BVEFUUTMO","368IUKXGA5U7UZ9GQNUNOB4MGE4P6M","","285","img/land9.png","74","290","1","0","false","2","0.8,0.8,0.2,0.2,0.8,0.8,0.8,0.2,0.8","",""
"","html-keyboard-response","150","76287","0.0-219.0","339ANSOTR6OOYC5V6Y36EG4GZ6RIKD","A2D28BVEFUUTMO","368IUKXGA5U7UZ9GQNUNOB4MGE4P6M","","null","<img src=""img/land9.png"" style=""width:200px;border:14px solid red;"">","null","","","","","","","",""
"","image-keyboard-response","151","76444","0.0-221.0","339ANSOTR6OOYC5V6Y36EG4GZ6RIKD","A2D28BVEFUUTMO","368IUKXGA5U7UZ9GQNUNOB4MGE4P6M","","151","img/land6.png","75","154","2","0","false","3","0.8,0.8,0.2,0.2,0.8,0.8,0.8,0.2,0.8","",""
"","html-keyboard-response","152","76750","0.0-222.0","339ANSOTR6OOYC5V6Y36EG4GZ6RIKD","A2D28BVEFUUTMO","368IUKXGA5U7UZ9GQNUNOB4MGE4P6M","","null","<img src=""img/land6.png"" style=""width:200px;border:14px solid red;"">","null","","","","","","","",""
"","image-keyboard-response","153","76835","0.0-224.0","339ANSOTR6OOYC5V6Y36EG4GZ6RIKD","A2D28BVEFUUTMO","368IUKXGA5U7UZ9GQNUNOB4MGE4P6M","","80","img/land7.png","75","83","2","1","false","1","0.8,0.8,0.2,0.2,0.8,0.8,0.8,0.2,0.8","",""
"","html-keyboard-response","154","77140","0.0-225.0","339ANSOTR6OOYC5V6Y36EG4GZ6RIKD","A2D28BVEFUUTMO","368IUKXGA5U7UZ9GQNUNOB4MGE4P6M","","null","<img src=""img/land7.png"" style=""width:200px; border:14px solid green;"">","null","","","","","","","",""
"","image-keyboard-response","155","77210","0.0-227.0","339ANSOTR6OOYC5V6Y36EG4GZ6RIKD","A2D28BVEFUUTMO","368IUKXGA5U7UZ9GQNUNOB4MGE4P6M","","63","img/land7.png","75","68","2","1","false","1","0.8,0.8,0.2,0.2,0.8,0.8,0.8,0.2,0.8","",""
"","html-keyboard-response","156","77517","0.0-228.0","339ANSOTR6OOYC5V6Y36EG4GZ6RIKD","A2D28BVEFUUTMO","368IUKXGA5U7UZ9GQNUNOB4MGE4P6M","","null","<img src=""img/land7.png"" style=""width:200px; border:14px solid green;"">","null","","","","","","","",""
"","image-keyboard-response","157","77988","0.0-230.0","339ANSOTR6OOYC5V6Y36EG4GZ6RIKD","A2D28BVEFUUTMO","368IUKXGA5U7UZ9GQNUNOB4MGE4P6M","","466","img/land9.png","75","470","2","1","false","2","0.8,0.8,0.2,0.2,0.8,0.8,0.8,0.2,0.8","",""
"","html-keyboard-response","158","78295","0.0-231.0","339ANSOTR6OOYC5V6Y36EG4GZ6RIKD","A2D28BVEFUUTMO","368IUKXGA5U7UZ9GQNUNOB4MGE4P6M","","null","<img src=""img/land9.png"" style=""width:200px; border:14px solid green;"">","null","","","","","","","",""
"","image-keyboard-response","159","78495","0.0-233.0","339ANSOTR6OOYC5V6Y36EG4GZ6RIKD","A2D28BVEFUUTMO","368IUKXGA5U7UZ9GQNUNOB4MGE4P6M","","189","img/land6.png","75","198","2","0","false","3","0.8,0.8,0.2,0.2,0.8,0.8,0.8,0.2,0.8","",""
"","html-keyboard-response","160","78806","0.0-234.0","339ANSOTR6OOYC5V6Y36EG4GZ6RIKD","A2D28BVEFUUTMO","368IUKXGA5U7UZ9GQNUNOB4MGE4P6M","","null","<img src=""img/land6.png"" style=""width:200px;border:14px solid red;"">","null","","","","","","","",""
"","image-keyboard-response","161","78946","0.0-236.0","339ANSOTR6OOYC5V6Y36EG4GZ6RIKD","A2D28BVEFUUTMO","368IUKXGA5U7UZ9GQNUNOB4MGE4P6M","","132","img/land7.png","76","136","3","1","false","1","0.8,0.8,0.2,0.2,0.8,0.8,0.8,0.2,0.8","",""
"","html-keyboard-response","162","79261","0.0-237.0","339ANSOTR6OOYC5V6Y36EG4GZ6RIKD","A2D28BVEFUUTMO","368IUKXGA5U7UZ9GQNUNOB4MGE4P6M","","null","<img src=""img/land7.png"" style=""width:200px; border:14px solid green;"">","null","","","","","","","",""
"","image-keyboard-response","163","79410","0.0-239.0","339ANSOTR6OOYC5V6Y36EG4GZ6RIKD","A2D28BVEFUUTMO","368IUKXGA5U7UZ9GQNUNOB4MGE4P6M","","133","img/land9.png","75","140","2","1","false","2","0.8,0.8,0.2,0.2,0.8,0.8,0.8,0.2,0.8","",""
"","html-keyboard-response","164","79715","0.0-240.0","339ANSOTR6OOYC5V6Y36EG4GZ6RIKD","A2D28BVEFUUTMO","368IUKXGA5U7UZ9GQNUNOB4MGE4P6M","","null","<img src=""img/land9.png"" style=""width:200px; border:14px solid green;"">","null","","","","","","","",""
"","image-keyboard-response","165","79769","0.0-242.0","339ANSOTR6OOYC5V6Y36EG4GZ6RIKD","A2D28BVEFUUTMO","368IUKXGA5U7UZ9GQNUNOB4MGE4P6M","","49","img/land7.png","75","53","2","1","false","1","0.8,0.8,0.2,0.2,0.8,0.8,0.8,0.2,0.8","",""
"","html-keyboard-response","166","80074","0.0-243.0","339ANSOTR6OOYC5V6Y36EG4GZ6RIKD","A2D28BVEFUUTMO","368IUKXGA5U7UZ9GQNUNOB4MGE4P6M","","null","<img src=""img/land7.png"" style=""width:200px; border:14px solid green;"">","null","","","","","","","",""
"","image-keyboard-response","167","80174","0.0-245.0","339ANSOTR6OOYC5V6Y36EG4GZ6RIKD","A2D28BVEFUUTMO","368IUKXGA5U7UZ9GQNUNOB4MGE4P6M","","94","img/land7.png","75","98","2","1","false","1","0.8,0.8,0.2,0.2,0.8,0.8,0.8,0.2,0.8","",""
"","html-keyboard-response","168","80481","0.0-246.0","339ANSOTR6OOYC5V6Y36EG4GZ6RIKD","A2D28BVEFUUTMO","368IUKXGA5U7UZ9GQNUNOB4MGE4P6M","","null","<img src=""img/land7.png"" style=""width:200px; border:14px solid green;"">","null","","","","","","","",""
"","image-keyboard-response","169","80609","0.0-248.0","339ANSOTR6OOYC5V6Y36EG4GZ6RIKD","A2D28BVEFUUTMO","368IUKXGA5U7UZ9GQNUNOB4MGE4P6M","","121","img/land6.png","75","125","2","0","false","3","0.8,0.8,0.2,0.2,0.8,0.8,0.8,0.2,0.8","",""
"","html-keyboard-response","170","80916","0.0-249.0","339ANSOTR6OOYC5V6Y36EG4GZ6RIKD","A2D28BVEFUUTMO","368IUKXGA5U7UZ9GQNUNOB4MGE4P6M","","null","<img src=""img/land6.png"" style=""width:200px;border:14px solid red;"">","null","","","","","","","",""
"","image-keyboard-response","171","81059","0.0-251.0","339ANSOTR6OOYC5V6Y36EG4GZ6RIKD","A2D28BVEFUUTMO","368IUKXGA5U7UZ9GQNUNOB4MGE4P6M","","137","img/land6.png","75","141","2","0","false","3","0.8,0.8,0.2,0.2,0.8,0.8,0.8,0.2,0.8","",""
"","html-keyboard-response","172","81364","0.0-252.0","339ANSOTR6OOYC5V6Y36EG4GZ6RIKD","A2D28BVEFUUTMO","368IUKXGA5U7UZ9GQNUNOB4MGE4P6M","","null","<img src=""img/land6.png"" style=""width:200px;border:14px solid red;"">","null","","","","","","","",""
"","image-keyboard-response","173","81440","0.0-254.0","339ANSOTR6OOYC5V6Y36EG4GZ6RIKD","A2D28BVEFUUTMO","368IUKXGA5U7UZ9GQNUNOB4MGE4P6M","","70","img/land7.png","75","74","2","1","false","1","0.8,0.8,0.2,0.2,0.8,0.8,0.8,0.2,0.8","",""
"","html-keyboard-response","174","81749","0.0-255.0","339ANSOTR6OOYC5V6Y36EG4GZ6RIKD","A2D28BVEFUUTMO","368IUKXGA5U7UZ9GQNUNOB4MGE4P6M","","null","<img src=""img/land7.png"" style=""width:200px; border:14px solid green;"">","null","","","","","","","",""
"","image-keyboard-response","175","81889","0.0-257.0","339ANSOTR6OOYC5V6Y36EG4GZ6RIKD","A2D28BVEFUUTMO","368IUKXGA5U7UZ9GQNUNOB4MGE4P6M","","128","img/land6.png","75","137","2","0","false","3","0.8,0.8,0.2,0.2,0.8,0.8,0.8,0.2,0.8","",""
"","html-keyboard-response","176","82198","0.0-258.0","339ANSOTR6OOYC5V6Y36EG4GZ6RIKD","A2D28BVEFUUTMO","368IUKXGA5U7UZ9GQNUNOB4MGE4P6M","","null","<img src=""img/land6.png"" style=""width:200px;border:14px solid red;"">","null","","","","","","","",""
"","image-keyboard-response","177","82662","0.0-260.0","339ANSOTR6OOYC5V6Y36EG4GZ6RIKD","A2D28BVEFUUTMO","368IUKXGA5U7UZ9GQNUNOB4MGE4P6M","","458","img/land9.png","75","463","2","1","false","2","0.8,0.8,0.2,0.2,0.8,0.8,0.8,0.2,0.8","",""
"","html-keyboard-response","178","82969","0.0-261.0","339ANSOTR6OOYC5V6Y36EG4GZ6RIKD","A2D28BVEFUUTMO","368IUKXGA5U7UZ9GQNUNOB4MGE4P6M","","null","<img src=""img/land9.png"" style=""width:200px; border:14px solid green;"">","null","","","","","","","",""
"","image-keyboard-response","179","83095","0.0-263.0","339ANSOTR6OOYC5V6Y36EG4GZ6RIKD","A2D28BVEFUUTMO","368IUKXGA5U7UZ9GQNUNOB4MGE4P6M","","119","img/land7.png","75","124","2","1","false","1","0.8,0.8,0.2,0.2,0.8,0.8,0.8,0.2,0.8","",""
"","html-keyboard-response","180","83402","0.0-264.0","339ANSOTR6OOYC5V6Y36EG4GZ6RIKD","A2D28BVEFUUTMO","368IUKXGA5U7UZ9GQNUNOB4MGE4P6M","","null","<img src=""img/land7.png"" style=""width:200px; border:14px solid green;"">","null","","","","","","","",""
"","image-keyboard-response","181","83545","0.0-266.0","339ANSOTR6OOYC5V6Y36EG4GZ6RIKD","A2D28BVEFUUTMO","368IUKXGA5U7UZ9GQNUNOB4MGE4P6M","","137","img/land6.png","75","142","2","0","false","3","0.8,0.8,0.2,0.2,0.8,0.8,0.8,0.2,0.8","",""
"","html-keyboard-response","182","83853","0.0-267.0","339ANSOTR6OOYC5V6Y36EG4GZ6RIKD","A2D28BVEFUUTMO","368IUKXGA5U7UZ9GQNUNOB4MGE4P6M","","null","<img src=""img/land6.png"" style=""width:200px;border:14px solid red;"">","null","","","","","","","",""
"","image-keyboard-response","183","84009","0.0-269.0","339ANSOTR6OOYC5V6Y36EG4GZ6RIKD","A2D28BVEFUUTMO","368IUKXGA5U7UZ9GQNUNOB4MGE4P6M","","148","img/land9.png","75","153","2","1","false","2","0.8,0.8,0.2,0.2,0.8,0.8,0.8,0.2,0.8","",""
"","html-keyboard-response","184","84317","0.0-270.0","339ANSOTR6OOYC5V6Y36EG4GZ6RIKD","A2D28BVEFUUTMO","368IUKXGA5U7UZ9GQNUNOB4MGE4P6M","","null","<img src=""img/land9.png"" style=""width:200px; border:14px solid green;"">","null","","","","","","","",""
"","html-keyboard-response","185","87447","0.0-272.0","339ANSOTR6OOYC5V6Y36EG4GZ6RIKD","A2D28BVEFUUTMO","368IUKXGA5U7UZ9GQNUNOB4MGE4P6M","","","","","","","","","","","",""
"","image-keyboard-response","186","87844","0.0-273.0","339ANSOTR6OOYC5V6Y36EG4GZ6RIKD","A2D28BVEFUUTMO","368IUKXGA5U7UZ9GQNUNOB4MGE4P6M","","392","img/land1.png","76","395","3","0","false","1","0.8,0.2,0.2,0.2,0.8,0.2,0.2,0.2,0.8","",""
"","html-keyboard-response","187","88150","0.0-274.0","339ANSOTR6OOYC5V6Y36EG4GZ6RIKD","A2D28BVEFUUTMO","368IUKXGA5U7UZ9GQNUNOB4MGE4P6M","","null","<img src=""img/land1.png"" style=""width:200px;border:14px solid red;"">","null","","","","","","","",""
"","image-keyboard-response","188","88249","0.0-276.0","339ANSOTR6OOYC5V6Y36EG4GZ6RIKD","A2D28BVEFUUTMO","368IUKXGA5U7UZ9GQNUNOB4MGE4P6M","","88","img/land3.png","75","96","2","1","false","3","0.8,0.2,0.2,0.2,0.8,0.2,0.2,0.2,0.8","",""
"","html-keyboard-response","189","88555","0.0-277.0","339ANSOTR6OOYC5V6Y36EG4GZ6RIKD","A2D28BVEFUUTMO","368IUKXGA5U7UZ9GQNUNOB4MGE4P6M","","null","<img src=""img/land3.png"" style=""width:200px; border:14px solid green;"">","null","","","","","","","",""
"","image-keyboard-response","190","88594","0.0-279.0","339ANSOTR6OOYC5V6Y36EG4GZ6RIKD","A2D28BVEFUUTMO","368IUKXGA5U7UZ9GQNUNOB4MGE4P6M","","31","img/land2.png","75","37","2","1","false","2","0.8,0.2,0.2,0.2,0.8,0.2,0.2,0.2,0.8","",""
"","html-keyboard-response","191","88900","0.0-280.0","339ANSOTR6OOYC5V6Y36EG4GZ6RIKD","A2D28BVEFUUTMO","368IUKXGA5U7UZ9GQNUNOB4MGE4P6M","","null","<img src=""img/land2.png"" style=""width:200px; border:14px solid green;"">","null","","","","","","","",""
"","image-keyboard-response","192","88907","0.0-282.0","339ANSOTR6OOYC5V6Y36EG4GZ6RIKD","A2D28BVEFUUTMO","368IUKXGA5U7UZ9GQNUNOB4MGE4P6M","","3","img/land2.png","75","5","2","1","false","2","0.8,0.2,0.2,0.2,0.8,0.2,0.2,0.2,0.8","",""
"","html-keyboard-response","193","89212","0.0-283.0","339ANSOTR6OOYC5V6Y36EG4GZ6RIKD","A2D28BVEFUUTMO","368IUKXGA5U7UZ9GQNUNOB4MGE4P6M","","null","<img src=""img/land2.png"" style=""width:200px; border:14px solid green;"">","null","","","","","","","",""
"","image-keyboard-response","194","89535","0.0-285.0","339ANSOTR6OOYC5V6Y36EG4GZ6RIKD","A2D28BVEFUUTMO","368IUKXGA5U7UZ9GQNUNOB4MGE4P6M","","318","img/land1.png","75","322","2","0","false","1","0.8,0.2,0.2,0.2,0.8,0.2,0.2,0.2,0.8","",""
"","html-keyboard-response","195","89870","0.0-286.0","339ANSOTR6OOYC5V6Y36EG4GZ6RIKD","A2D28BVEFUUTMO","368IUKXGA5U7UZ9GQNUNOB4MGE4P6M","","null","<img src=""img/land1.png"" style=""width:200px;border:14px solid red;"">","null","","","","","","","",""
"","image-keyboard-response","196","90021","0.0-288.0","339ANSOTR6OOYC5V6Y36EG4GZ6RIKD","A2D28BVEFUUTMO","368IUKXGA5U7UZ9GQNUNOB4MGE4P6M","","140","img/land2.png","75","147","2","1","false","2","0.8,0.2,0.2,0.2,0.8,0.2,0.2,0.2,0.8","",""
"","html-keyboard-response","197","90328","0.0-289.0","339ANSOTR6OOYC5V6Y36EG4GZ6RIKD","A2D28BVEFUUTMO","368IUKXGA5U7UZ9GQNUNOB4MGE4P6M","","null","<img src=""img/land2.png"" style=""width:200px; border:14px solid green;"">","null","","","","","","","",""
"","image-keyboard-response","198","90615","0.0-291.0","339ANSOTR6OOYC5V6Y36EG4GZ6RIKD","A2D28BVEFUUTMO","368IUKXGA5U7UZ9GQNUNOB4MGE4P6M","","282","img/land3.png","75","286","2","0","false","3","0.8,0.2,0.2,0.2,0.8,0.2,0.2,0.2,0.8","",""
"","html-keyboard-response","199","90921","0.0-292.0","339ANSOTR6OOYC5V6Y36EG4GZ6RIKD","A2D28BVEFUUTMO","368IUKXGA5U7UZ9GQNUNOB4MGE4P6M","","null","<img src=""img/land3.png"" style=""width:200px;border:14px solid red;"">","null","","","","","","","",""
"","image-keyboard-response","200","91168","0.0-294.0","339ANSOTR6OOYC5V6Y36EG4GZ6RIKD","A2D28BVEFUUTMO","368IUKXGA5U7UZ9GQNUNOB4MGE4P6M","","240","img/land2.png","75","245","2","1","false","2","0.8,0.2,0.2,0.2,0.8,0.2,0.2,0.2,0.8","",""
"","html-keyboard-response","201","91472","0.0-295.0","339ANSOTR6OOYC5V6Y36EG4GZ6RIKD","A2D28BVEFUUTMO","368IUKXGA5U7UZ9GQNUNOB4MGE4P6M","","null","<img src=""img/land2.png"" style=""width:200px; border:14px solid green;"">","null","","","","","","","",""
"","image-keyboard-response","202","91707","0.0-297.0","339ANSOTR6OOYC5V6Y36EG4GZ6RIKD","A2D28BVEFUUTMO","368IUKXGA5U7UZ9GQNUNOB4MGE4P6M","","228","img/land2.png","75","234","2","0","false","2","0.8,0.2,0.2,0.2,0.8,0.2,0.2,0.2,0.8","",""
"","html-keyboard-response","203","92013","0.0-298.0","339ANSOTR6OOYC5V6Y36EG4GZ6RIKD","A2D28BVEFUUTMO","368IUKXGA5U7UZ9GQNUNOB4MGE4P6M","","null","<img src=""img/land2.png"" style=""width:200px;border:14px solid red;"">","null","","","","","","","",""
"","image-keyboard-response","204","92606","0.0-300.0","339ANSOTR6OOYC5V6Y36EG4GZ6RIKD","A2D28BVEFUUTMO","368IUKXGA5U7UZ9GQNUNOB4MGE4P6M","","588","img/land1.png","75","592","2","0","false","1","0.8,0.2,0.2,0.2,0.8,0.2,0.2,0.2,0.8","",""
"","html-keyboard-response","205","92913","0.0-301.0","339ANSOTR6OOYC5V6Y36EG4GZ6RIKD","A2D28BVEFUUTMO","368IUKXGA5U7UZ9GQNUNOB4MGE4P6M","","null","<img src=""img/land1.png"" style=""width:200px;border:14px solid red;"">","null","","","","","","","",""
"","image-keyboard-response","206","93106","0.0-303.0","339ANSOTR6OOYC5V6Y36EG4GZ6RIKD","A2D28BVEFUUTMO","368IUKXGA5U7UZ9GQNUNOB4MGE4P6M","","180","img/land2.png","75","191","2","0","false","2","0.8,0.2,0.2,0.2,0.8,0.2,0.2,0.2,0.8","",""
"","html-keyboard-response","207","93415","0.0-304.0","339ANSOTR6OOYC5V6Y36EG4GZ6RIKD","A2D28BVEFUUTMO","368IUKXGA5U7UZ9GQNUNOB4MGE4P6M","","null","<img src=""img/land2.png"" style=""width:200px;border:14px solid red;"">","null","","","","","","","",""
"","image-keyboard-response","208","93579","0.0-306.0","339ANSOTR6OOYC5V6Y36EG4GZ6RIKD","A2D28BVEFUUTMO","368IUKXGA5U7UZ9GQNUNOB4MGE4P6M","","155","img/land1.png","76","162","3","1","false","1","0.8,0.2,0.2,0.2,0.8,0.2,0.2,0.2,0.8","",""
"","html-keyboard-response","209","93886","0.0-307.0","339ANSOTR6OOYC5V6Y36EG4GZ6RIKD","A2D28BVEFUUTMO","368IUKXGA5U7UZ9GQNUNOB4MGE4P6M","","null","<img src=""img/land1.png"" style=""width:200px; border:14px solid green;"">","null","","","","","","","",""
"","image-keyboard-response","210","94029","0.0-309.0","339ANSOTR6OOYC5V6Y36EG4GZ6RIKD","A2D28BVEFUUTMO","368IUKXGA5U7UZ9GQNUNOB4MGE4P6M","","134","img/land3.png","76","139","3","0","false","3","0.8,0.2,0.2,0.2,0.8,0.2,0.2,0.2,0.8","",""
"","html-keyboard-response","211","94334","0.0-310.0","339ANSOTR6OOYC5V6Y36EG4GZ6RIKD","A2D28BVEFUUTMO","368IUKXGA5U7UZ9GQNUNOB4MGE4P6M","","null","<img src=""img/land3.png"" style=""width:200px;border:14px solid red;"">","null","","","","","","","",""
"","image-keyboard-response","212","94358","0.0-312.0","339ANSOTR6OOYC5V6Y36EG4GZ6RIKD","A2D28BVEFUUTMO","368IUKXGA5U7UZ9GQNUNOB4MGE4P6M","","18","img/land2.png","76","22","3","0","false","2","0.8,0.2,0.2,0.2,0.8,0.2,0.2,0.2,0.8","",""
"","html-keyboard-response","213","94664","0.0-313.0","339ANSOTR6OOYC5V6Y36EG4GZ6RIKD","A2D28BVEFUUTMO","368IUKXGA5U7UZ9GQNUNOB4MGE4P6M","","null","<img src=""img/land2.png"" style=""width:200px;border:14px solid red;"">","null","","","","","","","",""
"","image-keyboard-response","214","94908","0.0-315.0","339ANSOTR6OOYC5V6Y36EG4GZ6RIKD","A2D28BVEFUUTMO","368IUKXGA5U7UZ9GQNUNOB4MGE4P6M","","235","img/land2.png","76","243","3","0","false","2","0.8,0.2,0.2,0.2,0.8,0.2,0.2,0.2,0.8","",""
"","html-keyboard-response","215","95218","0.0-316.0","339ANSOTR6OOYC5V6Y36EG4GZ6RIKD","A2D28BVEFUUTMO","368IUKXGA5U7UZ9GQNUNOB4MGE4P6M","","null","<img src=""img/land2.png"" style=""width:200px;border:14px solid red;"">","null","","","","","","","",""
"","image-keyboard-response","216","95411","0.0-318.0","339ANSOTR6OOYC5V6Y36EG4GZ6RIKD","A2D28BVEFUUTMO","368IUKXGA5U7UZ9GQNUNOB4MGE4P6M","","184","img/land2.png","75","190","2","0","false","2","0.8,0.2,0.2,0.2,0.8,0.2,0.2,0.2,0.8","",""
"","html-keyboard-response","217","95720","0.0-319.0","339ANSOTR6OOYC5V6Y36EG4GZ6RIKD","A2D28BVEFUUTMO","368IUKXGA5U7UZ9GQNUNOB4MGE4P6M","","null","<img src=""img/land2.png"" style=""width:200px;border:14px solid red;"">","null","","","","","","","",""
"","image-keyboard-response","218","95950","0.0-321.0","339ANSOTR6OOYC5V6Y36EG4GZ6RIKD","A2D28BVEFUUTMO","368IUKXGA5U7UZ9GQNUNOB4MGE4P6M","","220","img/land3.png","75","227","2","0","false","3","0.8,0.2,0.2,0.2,0.8,0.2,0.2,0.2,0.8","",""
"","html-keyboard-response","219","96260","0.0-322.0","339ANSOTR6OOYC5V6Y36EG4GZ6RIKD","A2D28BVEFUUTMO","368IUKXGA5U7UZ9GQNUNOB4MGE4P6M","","null","<img src=""img/land3.png"" style=""width:200px;border:14px solid red;"">","null","","","","","","","",""
"","image-keyboard-response","220","96500","0.0-324.0","339ANSOTR6OOYC5V6Y36EG4GZ6RIKD","A2D28BVEFUUTMO","368IUKXGA5U7UZ9GQNUNOB4MGE4P6M","","233","img/land3.png","75","239","2","0","false","3","0.8,0.2,0.2,0.2,0.8,0.2,0.2,0.2,0.8","",""
"","html-keyboard-response","221","96806","0.0-325.0","339ANSOTR6OOYC5V6Y36EG4GZ6RIKD","A2D28BVEFUUTMO","368IUKXGA5U7UZ9GQNUNOB4MGE4P6M","","null","<img src=""img/land3.png"" style=""width:200px;border:14px solid red;"">","null","","","","","","","",""
"","image-keyboard-response","222","97046","0.0-327.0","339ANSOTR6OOYC5V6Y36EG4GZ6RIKD","A2D28BVEFUUTMO","368IUKXGA5U7UZ9GQNUNOB4MGE4P6M","","229","img/land1.png","75","237","2","1","false","1","0.8,0.2,0.2,0.2,0.8,0.2,0.2,0.2,0.8","",""
"","html-keyboard-response","223","97355","0.0-328.0","339ANSOTR6OOYC5V6Y36EG4GZ6RIKD","A2D28BVEFUUTMO","368IUKXGA5U7UZ9GQNUNOB4MGE4P6M","","null","<img src=""img/land1.png"" style=""width:200px; border:14px solid green;"">","null","","","","","","","",""
"","image-keyboard-response","224","97565","0.0-330.0","339ANSOTR6OOYC5V6Y36EG4GZ6RIKD","A2D28BVEFUUTMO","368IUKXGA5U7UZ9GQNUNOB4MGE4P6M","","203","img/land3.png","75","208","2","0","false","3","0.8,0.2,0.2,0.2,0.8,0.2,0.2,0.2,0.8","",""
"","html-keyboard-response","225","97871","0.0-331.0","339ANSOTR6OOYC5V6Y36EG4GZ6RIKD","A2D28BVEFUUTMO","368IUKXGA5U7UZ9GQNUNOB4MGE4P6M","","null","<img src=""img/land3.png"" style=""width:200px;border:14px solid red;"">","null","","","","","","","",""
"","image-keyboard-response","226","98034","0.0-333.0","339ANSOTR6OOYC5V6Y36EG4GZ6RIKD","A2D28BVEFUUTMO","368IUKXGA5U7UZ9GQNUNOB4MGE4P6M","","152","img/land3.png","75","160","2","0","false","3","0.8,0.2,0.2,0.2,0.8,0.2,0.2,0.2,0.8","",""
"","html-keyboard-response","227","98343","0.0-334.0","339ANSOTR6OOYC5V6Y36EG4GZ6RIKD","A2D28BVEFUUTMO","368IUKXGA5U7UZ9GQNUNOB4MGE4P6M","","null","<img src=""img/land3.png"" style=""width:200px;border:14px solid red;"">","null","","","","","","","",""
"","image-keyboard-response","228","98476","0.0-336.0","339ANSOTR6OOYC5V6Y36EG4GZ6RIKD","A2D28BVEFUUTMO","368IUKXGA5U7UZ9GQNUNOB4MGE4P6M","","125","img/land2.png","75","130","2","1","false","2","0.8,0.2,0.2,0.2,0.8,0.2,0.2,0.2,0.8","",""
"","html-keyboard-response","229","98782","0.0-337.0","339ANSOTR6OOYC5V6Y36EG4GZ6RIKD","A2D28BVEFUUTMO","368IUKXGA5U7UZ9GQNUNOB4MGE4P6M","","null","<img src=""img/land2.png"" style=""width:200px; border:14px solid green;"">","null","","","","","","","",""
"","image-keyboard-response","230","98918","0.0-339.0","339ANSOTR6OOYC5V6Y36EG4GZ6RIKD","A2D28BVEFUUTMO","368IUKXGA5U7UZ9GQNUNOB4MGE4P6M","","125","img/land1.png","75","131","2","0","false","1","0.8,0.2,0.2,0.2,0.8,0.2,0.2,0.2,0.8","",""
"","html-keyboard-response","231","99229","0.0-340.0","339ANSOTR6OOYC5V6Y36EG4GZ6RIKD","A2D28BVEFUUTMO","368IUKXGA5U7UZ9GQNUNOB4MGE4P6M","","null","<img src=""img/land1.png"" style=""width:200px;border:14px solid red;"">","null","","","","","","","",""
"","image-keyboard-response","232","99392","0.0-342.0","339ANSOTR6OOYC5V6Y36EG4GZ6RIKD","A2D28BVEFUUTMO","368IUKXGA5U7UZ9GQNUNOB4MGE4P6M","","153","img/land1.png","75","162","2","0","false","1","0.8,0.2,0.2,0.2,0.8,0.2,0.2,0.2,0.8","",""
"","html-keyboard-response","233","99698","0.0-343.0","339ANSOTR6OOYC5V6Y36EG4GZ6RIKD","A2D28BVEFUUTMO","368IUKXGA5U7UZ9GQNUNOB4MGE4P6M","","null","<img src=""img/land1.png"" style=""width:200px;border:14px solid red;"">","null","","","","","","","",""
"","image-keyboard-response","234","100095","0.0-345.0","339ANSOTR6OOYC5V6Y36EG4GZ6RIKD","A2D28BVEFUUTMO","368IUKXGA5U7UZ9GQNUNOB4MGE4P6M","","388","img/land2.png","75","394","2","1","false","2","0.8,0.2,0.2,0.2,0.8,0.2,0.2,0.2,0.8","",""
"","html-keyboard-response","235","100402","0.0-346.0","339ANSOTR6OOYC5V6Y36EG4GZ6RIKD","A2D28BVEFUUTMO","368IUKXGA5U7UZ9GQNUNOB4MGE4P6M","","null","<img src=""img/land2.png"" style=""width:200px; border:14px solid green;"">","null","","","","","","","",""
"","image-keyboard-response","236","100601","0.0-348.0","339ANSOTR6OOYC5V6Y36EG4GZ6RIKD","A2D28BVEFUUTMO","368IUKXGA5U7UZ9GQNUNOB4MGE4P6M","","186","img/land1.png","75","198","2","0","false","1","0.8,0.2,0.2,0.2,0.8,0.2,0.2,0.2,0.8","",""
"","html-keyboard-response","237","100911","0.0-349.0","339ANSOTR6OOYC5V6Y36EG4GZ6RIKD","A2D28BVEFUUTMO","368IUKXGA5U7UZ9GQNUNOB4MGE4P6M","","null","<img src=""img/land1.png"" style=""width:200px;border:14px solid red;"">","null","","","","","","","",""
"","image-keyboard-response","238","101068","0.0-351.0","339ANSOTR6OOYC5V6Y36EG4GZ6RIKD","A2D28BVEFUUTMO","368IUKXGA5U7UZ9GQNUNOB4MGE4P6M","","148","img/land2.png","75","155","2","1","false","2","0.8,0.2,0.2,0.2,0.8,0.2,0.2,0.2,0.8","",""
"","html-keyboard-response","239","101376","0.0-352.0","339ANSOTR6OOYC5V6Y36EG4GZ6RIKD","A2D28BVEFUUTMO","368IUKXGA5U7UZ9GQNUNOB4MGE4P6M","","null","<img src=""img/land2.png"" style=""width:200px; border:14px solid green;"">","null","","","","","","","",""
"","image-keyboard-response","240","101577","0.0-354.0","339ANSOTR6OOYC5V6Y36EG4GZ6RIKD","A2D28BVEFUUTMO","368IUKXGA5U7UZ9GQNUNOB4MGE4P6M","","193","img/land3.png","75","197","2","0","false","3","0.8,0.2,0.2,0.2,0.8,0.2,0.2,0.2,0.8","",""
"","html-keyboard-response","241","101884","0.0-355.0","339ANSOTR6OOYC5V6Y36EG4GZ6RIKD","A2D28BVEFUUTMO","368IUKXGA5U7UZ9GQNUNOB4MGE4P6M","","null","<img src=""img/land3.png"" style=""width:200px;border:14px solid red;"">","null","","","","","","","",""
"","image-keyboard-response","242","102026","0.0-357.0","339ANSOTR6OOYC5V6Y36EG4GZ6RIKD","A2D28BVEFUUTMO","368IUKXGA5U7UZ9GQNUNOB4MGE4P6M","","132","img/land1.png","75","137","2","1","false","1","0.8,0.2,0.2,0.2,0.8,0.2,0.2,0.2,0.8","",""
"","html-keyboard-response","243","102332","0.0-358.0","339ANSOTR6OOYC5V6Y36EG4GZ6RIKD","A2D28BVEFUUTMO","368IUKXGA5U7UZ9GQNUNOB4MGE4P6M","","null","<img src=""img/land1.png"" style=""width:200px; border:14px solid green;"">","null","","","","","","","",""
"","image-keyboard-response","244","102494","0.0-360.0","339ANSOTR6OOYC5V6Y36EG4GZ6RIKD","A2D28BVEFUUTMO","368IUKXGA5U7UZ9GQNUNOB4MGE4P6M","","150","img/land3.png","75","159","2","0","false","3","0.8,0.2,0.2,0.2,0.8,0.2,0.2,0.2,0.8","",""
"","html-keyboard-response","245","102800","0.0-361.0","339ANSOTR6OOYC5V6Y36EG4GZ6RIKD","A2D28BVEFUUTMO","368IUKXGA5U7UZ9GQNUNOB4MGE4P6M","","null","<img src=""img/land3.png"" style=""width:200px;border:14px solid red;"">","null","","","","","","","",""
"","image-keyboard-response","246","102985","0.0-363.0","339ANSOTR6OOYC5V6Y36EG4GZ6RIKD","A2D28BVEFUUTMO","368IUKXGA5U7UZ9GQNUNOB4MGE4P6M","","176","img/land3.png","75","182","2","0","false","3","0.8,0.2,0.2,0.2,0.8,0.2,0.2,0.2,0.8","",""
"","html-keyboard-response","247","103290","0.0-364.0","339ANSOTR6OOYC5V6Y36EG4GZ6RIKD","A2D28BVEFUUTMO","368IUKXGA5U7UZ9GQNUNOB4MGE4P6M","","null","<img src=""img/land3.png"" style=""width:200px;border:14px solid red;"">","null","","","","","","","",""
"","image-keyboard-response","248","103466","0.0-366.0","339ANSOTR6OOYC5V6Y36EG4GZ6RIKD","A2D28BVEFUUTMO","368IUKXGA5U7UZ9GQNUNOB4MGE4P6M","","169","img/land1.png","75","175","2","0","false","1","0.8,0.2,0.2,0.2,0.8,0.2,0.2,0.2,0.8","",""
"","html-keyboard-response","249","103772","0.0-367.0","339ANSOTR6OOYC5V6Y36EG4GZ6RIKD","A2D28BVEFUUTMO","368IUKXGA5U7UZ9GQNUNOB4MGE4P6M","","null","<img src=""img/land1.png"" style=""width:200px;border:14px solid red;"">","null","","","","","","","",""
"","image-keyboard-response","250","103898","0.0-369.0","339ANSOTR6OOYC5V6Y36EG4GZ6RIKD","A2D28BVEFUUTMO","368IUKXGA5U7UZ9GQNUNOB4MGE4P6M","","120","img/land3.png","75","124","2","0","false","3","0.8,0.2,0.2,0.2,0.8,0.2,0.2,0.2,0.8","",""
"","html-keyboard-response","251","104206","0.0-370.0","339ANSOTR6OOYC5V6Y36EG4GZ6RIKD","A2D28BVEFUUTMO","368IUKXGA5U7UZ9GQNUNOB4MGE4P6M","","null","<img src=""img/land3.png"" style=""width:200px;border:14px solid red;"">","null","","","","","","","",""
"","image-keyboard-response","252","104422","0.0-372.0","339ANSOTR6OOYC5V6Y36EG4GZ6RIKD","A2D28BVEFUUTMO","368IUKXGA5U7UZ9GQNUNOB4MGE4P6M","","209","img/land3.png","75","213","2","0","false","3","0.8,0.2,0.2,0.2,0.8,0.2,0.2,0.2,0.8","",""
"","html-keyboard-response","253","104727","0.0-373.0","339ANSOTR6OOYC5V6Y36EG4GZ6RIKD","A2D28BVEFUUTMO","368IUKXGA5U7UZ9GQNUNOB4MGE4P6M","","null","<img src=""img/land3.png"" style=""width:200px;border:14px solid red;"">","null","","","","","","","",""
"","image-keyboard-response","254","104890","0.0-375.0","339ANSOTR6OOYC5V6Y36EG4GZ6RIKD","A2D28BVEFUUTMO","368IUKXGA5U7UZ9GQNUNOB4MGE4P6M","","146","img/land2.png","75","160","2","0","false","2","0.8,0.2,0.2,0.2,0.8,0.2,0.2,0.2,0.8","",""
"","html-keyboard-response","255","105197","0.0-376.0","339ANSOTR6OOYC5V6Y36EG4GZ6RIKD","A2D28BVEFUUTMO","368IUKXGA5U7UZ9GQNUNOB4MGE4P6M","","null","<img src=""img/land2.png"" style=""width:200px;border:14px solid red;"">","null","","","","","","","",""
"","image-keyboard-response","256","105380","0.0-378.0","339ANSOTR6OOYC5V6Y36EG4GZ6RIKD","A2D28BVEFUUTMO","368IUKXGA5U7UZ9GQNUNOB4MGE4P6M","","178","img/land2.png","75","183","2","1","false","2","0.8,0.2,0.2,0.2,0.8,0.2,0.2,0.2,0.8","",""
"","html-keyboard-response","257","105685","0.0-379.0","339ANSOTR6OOYC5V6Y36EG4GZ6RIKD","A2D28BVEFUUTMO","368IUKXGA5U7UZ9GQNUNOB4MGE4P6M","","null","<img src=""img/land2.png"" style=""width:200px; border:14px solid green;"">","null","","","","","","","",""
"","image-keyboard-response","258","105847","0.0-381.0","339ANSOTR6OOYC5V6Y36EG4GZ6RIKD","A2D28BVEFUUTMO","368IUKXGA5U7UZ9GQNUNOB4MGE4P6M","","154","img/land2.png","75","161","2","1","false","2","0.8,0.2,0.2,0.2,0.8,0.2,0.2,0.2,0.8","",""
"","html-keyboard-response","259","106153","0.0-382.0","339ANSOTR6OOYC5V6Y36EG4GZ6RIKD","A2D28BVEFUUTMO","368IUKXGA5U7UZ9GQNUNOB4MGE4P6M","","null","<img src=""img/land2.png"" style=""width:200px; border:14px solid green;"">","null","","","","","","","",""
"","image-keyboard-response","260","106294","0.0-384.0","339ANSOTR6OOYC5V6Y36EG4GZ6RIKD","A2D28BVEFUUTMO","368IUKXGA5U7UZ9GQNUNOB4MGE4P6M","","135","img/land1.png","75","139","2","0","false","1","0.8,0.2,0.2,0.2,0.8,0.2,0.2,0.2,0.8","",""
"","html-keyboard-response","261","106600","0.0-385.0","339ANSOTR6OOYC5V6Y36EG4GZ6RIKD","A2D28BVEFUUTMO","368IUKXGA5U7UZ9GQNUNOB4MGE4P6M","","null","<img src=""img/land1.png"" style=""width:200px;border:14px solid red;"">","null","","","","","","","",""
"","image-keyboard-response","262","106773","0.0-387.0","339ANSOTR6OOYC5V6Y36EG4GZ6RIKD","A2D28BVEFUUTMO","368IUKXGA5U7UZ9GQNUNOB4MGE4P6M","","168","img/land2.png","75","172","2","1","false","2","0.8,0.2,0.2,0.2,0.8,0.2,0.2,0.2,0.8","",""
"","html-keyboard-response","263","107079","0.0-388.0","339ANSOTR6OOYC5V6Y36EG4GZ6RIKD","A2D28BVEFUUTMO","368IUKXGA5U7UZ9GQNUNOB4MGE4P6M","","null","<img src=""img/land2.png"" style=""width:200px; border:14px solid green;"">","null","","","","","","","",""
"","image-keyboard-response","264","107222","0.0-390.0","339ANSOTR6OOYC5V6Y36EG4GZ6RIKD","A2D28BVEFUUTMO","368IUKXGA5U7UZ9GQNUNOB4MGE4P6M","","133","img/land3.png","75","140","2","0","false","3","0.8,0.2,0.2,0.2,0.8,0.2,0.2,0.2,0.8","",""
"","html-keyboard-response","265","107528","0.0-391.0","339ANSOTR6OOYC5V6Y36EG4GZ6RIKD","A2D28BVEFUUTMO","368IUKXGA5U7UZ9GQNUNOB4MGE4P6M","","null","<img src=""img/land3.png"" style=""width:200px;border:14px solid red;"">","null","","","","","","","",""
"","image-keyboard-response","266","107627","0.0-393.0","339ANSOTR6OOYC5V6Y36EG4GZ6RIKD","A2D28BVEFUUTMO","368IUKXGA5U7UZ9GQNUNOB4MGE4P6M","","92","img/land2.png","75","97","2","1","false","2","0.8,0.2,0.2,0.2,0.8,0.2,0.2,0.2,0.8","",""
"","html-keyboard-response","267","107932","0.0-394.0","339ANSOTR6OOYC5V6Y36EG4GZ6RIKD","A2D28BVEFUUTMO","368IUKXGA5U7UZ9GQNUNOB4MGE4P6M","","null","<img src=""img/land2.png"" style=""width:200px; border:14px solid green;"">","null","","","","","","","",""
"","image-keyboard-response","268","108270","0.0-396.0","339ANSOTR6OOYC5V6Y36EG4GZ6RIKD","A2D28BVEFUUTMO","368IUKXGA5U7UZ9GQNUNOB4MGE4P6M","","332","img/land1.png","74","336","1","0","false","1","0.8,0.2,0.2,0.2,0.8,0.2,0.2,0.2,0.8","",""
"","html-keyboard-response","269","108575","0.0-397.0","339ANSOTR6OOYC5V6Y36EG4GZ6RIKD","A2D28BVEFUUTMO","368IUKXGA5U7UZ9GQNUNOB4MGE4P6M","","null","<img src=""img/land1.png"" style=""width:200px;border:14px solid red;"">","null","","","","","","","",""
"","image-keyboard-response","270","108872","0.0-399.0","339ANSOTR6OOYC5V6Y36EG4GZ6RIKD","A2D28BVEFUUTMO","368IUKXGA5U7UZ9GQNUNOB4MGE4P6M","","290","img/land3.png","75","295","2","1","false","3","0.8,0.2,0.2,0.2,0.8,0.2,0.2,0.2,0.8","",""
"","html-keyboard-response","271","109178","0.0-400.0","339ANSOTR6OOYC5V6Y36EG4GZ6RIKD","A2D28BVEFUUTMO","368IUKXGA5U7UZ9GQNUNOB4MGE4P6M","","null","<img src=""img/land3.png"" style=""width:200px; border:14px solid green;"">","null","","","","","","","",""
"","image-keyboard-response","272","109403","0.0-402.0","339ANSOTR6OOYC5V6Y36EG4GZ6RIKD","A2D28BVEFUUTMO","368IUKXGA5U7UZ9GQNUNOB4MGE4P6M","","211","img/land2.png","75","223","2","1","false","2","0.8,0.2,0.2,0.2,0.8,0.2,0.2,0.2,0.8","",""
"","html-keyboard-response","273","109710","0.0-403.0","339ANSOTR6OOYC5V6Y36EG4GZ6RIKD","A2D28BVEFUUTMO","368IUKXGA5U7UZ9GQNUNOB4MGE4P6M","","null","<img src=""img/land2.png"" style=""width:200px; border:14px solid green;"">","null","","","","","","","",""
"","image-keyboard-response","274","110127","0.0-405.0","339ANSOTR6OOYC5V6Y36EG4GZ6RIKD","A2D28BVEFUUTMO","368IUKXGA5U7UZ9GQNUNOB4MGE4P6M","","412","img/land1.png","74","416","1","1","false","1","0.8,0.2,0.2,0.2,0.8,0.2,0.2,0.2,0.8","",""
"","html-keyboard-response","275","110433","0.0-406.0","339ANSOTR6OOYC5V6Y36EG4GZ6RIKD","A2D28BVEFUUTMO","368IUKXGA5U7UZ9GQNUNOB4MGE4P6M","","null","<img src=""img/land1.png"" style=""width:200px; border:14px solid green;"">","null","","","","","","","",""
"","image-keyboard-response","276","110997","0.0-408.0","339ANSOTR6OOYC5V6Y36EG4GZ6RIKD","A2D28BVEFUUTMO","368IUKXGA5U7UZ9GQNUNOB4MGE4P6M","","558","img/land1.png","75","563","2","0","false","1","0.8,0.2,0.2,0.2,0.8,0.2,0.2,0.2,0.8","",""
"","html-keyboard-response","277","111303","0.0-409.0","339ANSOTR6OOYC5V6Y36EG4GZ6RIKD","A2D28BVEFUUTMO","368IUKXGA5U7UZ9GQNUNOB4MGE4P6M","","null","<img src=""img/land1.png"" style=""width:200px;border:14px solid red;"">","null","","","","","","","",""
"","image-keyboard-response","278","111387","0.0-411.0","339ANSOTR6OOYC5V6Y36EG4GZ6RIKD","A2D28BVEFUUTMO","368IUKXGA5U7UZ9GQNUNOB4MGE4P6M","","77","img/land3.png","74","82","1","0","false","3","0.8,0.2,0.2,0.2,0.8,0.2,0.2,0.2,0.8","",""
"","html-keyboard-response","279","111691","0.0-412.0","339ANSOTR6OOYC5V6Y36EG4GZ6RIKD","A2D28BVEFUUTMO","368IUKXGA5U7UZ9GQNUNOB4MGE4P6M","","null","<img src=""img/land3.png"" style=""width:200px;border:14px solid red;"">","null","","","","","","","",""
"","image-keyboard-response","280","111896","0.0-414.0","339ANSOTR6OOYC5V6Y36EG4GZ6RIKD","A2D28BVEFUUTMO","368IUKXGA5U7UZ9GQNUNOB4MGE4P6M","","197","img/land3.png","74","204","1","0","false","3","0.8,0.2,0.2,0.2,0.8,0.2,0.2,0.2,0.8","",""
"","html-keyboard-response","281","112203","0.0-415.0","339ANSOTR6OOYC5V6Y36EG4GZ6RIKD","A2D28BVEFUUTMO","368IUKXGA5U7UZ9GQNUNOB4MGE4P6M","","null","<img src=""img/land3.png"" style=""width:200px;border:14px solid red;"">","null","","","","","","","",""
"","image-keyboard-response","282","112465","0.0-417.0","339ANSOTR6OOYC5V6Y36EG4GZ6RIKD","A2D28BVEFUUTMO","368IUKXGA5U7UZ9GQNUNOB4MGE4P6M","","256","img/land3.png","75","261","2","0","false","3","0.8,0.2,0.2,0.2,0.8,0.2,0.2,0.2,0.8","",""
"","html-keyboard-response","283","112771","0.0-418.0","339ANSOTR6OOYC5V6Y36EG4GZ6RIKD","A2D28BVEFUUTMO","368IUKXGA5U7UZ9GQNUNOB4MGE4P6M","","null","<img src=""img/land3.png"" style=""width:200px;border:14px solid red;"">","null","","","","","","","",""
"","image-keyboard-response","284","113005","0.0-420.0","339ANSOTR6OOYC5V6Y36EG4GZ6RIKD","A2D28BVEFUUTMO","368IUKXGA5U7UZ9GQNUNOB4MGE4P6M","","227","img/land3.png","75","233","2","0","false","3","0.8,0.2,0.2,0.2,0.8,0.2,0.2,0.2,0.8","",""
"","html-keyboard-response","285","113317","0.0-421.0","339ANSOTR6OOYC5V6Y36EG4GZ6RIKD","A2D28BVEFUUTMO","368IUKXGA5U7UZ9GQNUNOB4MGE4P6M","","null","<img src=""img/land3.png"" style=""width:200px;border:14px solid red;"">","null","","","","","","","",""
"","image-keyboard-response","286","113722","0.0-423.0","339ANSOTR6OOYC5V6Y36EG4GZ6RIKD","A2D28BVEFUUTMO","368IUKXGA5U7UZ9GQNUNOB4MGE4P6M","","398","img/land3.png","76","403","3","1","false","3","0.8,0.2,0.2,0.2,0.8,0.2,0.2,0.2,0.8","",""
"","html-keyboard-response","287","114031","0.0-424.0","339ANSOTR6OOYC5V6Y36EG4GZ6RIKD","A2D28BVEFUUTMO","368IUKXGA5U7UZ9GQNUNOB4MGE4P6M","","null","<img src=""img/land3.png"" style=""width:200px; border:14px solid green;"">","null","","","","","","","",""
"","image-keyboard-response","288","114156","0.0-426.0","339ANSOTR6OOYC5V6Y36EG4GZ6RIKD","A2D28BVEFUUTMO","368IUKXGA5U7UZ9GQNUNOB4MGE4P6M","","119","img/land1.png","75","125","2","0","false","1","0.8,0.2,0.2,0.2,0.8,0.2,0.2,0.2,0.8","",""
"","html-keyboard-response","289","114462","0.0-427.0","339ANSOTR6OOYC5V6Y36EG4GZ6RIKD","A2D28BVEFUUTMO","368IUKXGA5U7UZ9GQNUNOB4MGE4P6M","","null","<img src=""img/land1.png"" style=""width:200px;border:14px solid red;"">","null","","","","","","","",""
"","image-keyboard-response","290","114831","0.0-429.0","339ANSOTR6OOYC5V6Y36EG4GZ6RIKD","A2D28BVEFUUTMO","368IUKXGA5U7UZ9GQNUNOB4MGE4P6M","","362","img/land2.png","76","367","3","1","false","2","0.8,0.2,0.2,0.2,0.8,0.2,0.2,0.2,0.8","",""
"","html-keyboard-response","291","115139","0.0-430.0","339ANSOTR6OOYC5V6Y36EG4GZ6RIKD","A2D28BVEFUUTMO","368IUKXGA5U7UZ9GQNUNOB4MGE4P6M","","null","<img src=""img/land2.png"" style=""width:200px; border:14px solid green;"">","null","","","","","","","",""
"","image-keyboard-response","292","115236","0.0-432.0","339ANSOTR6OOYC5V6Y36EG4GZ6RIKD","A2D28BVEFUUTMO","368IUKXGA5U7UZ9GQNUNOB4MGE4P6M","","88","img/land1.png","76","96","3","1","false","1","0.8,0.2,0.2,0.2,0.8,0.2,0.2,0.2,0.8","",""
"","html-keyboard-response","293","115541","0.0-433.0","339ANSOTR6OOYC5V6Y36EG4GZ6RIKD","A2D28BVEFUUTMO","368IUKXGA5U7UZ9GQNUNOB4MGE4P6M","","null","<img src=""img/land1.png"" style=""width:200px; border:14px solid green;"">","null","","","","","","","",""
"","image-keyboard-response","294","115623","0.0-435.0","339ANSOTR6OOYC5V6Y36EG4GZ6RIKD","A2D28BVEFUUTMO","368IUKXGA5U7UZ9GQNUNOB4MGE4P6M","","77","img/land1.png","75","81","2","0","false","1","0.8,0.2,0.2,0.2,0.8,0.2,0.2,0.2,0.8","",""
"","html-keyboard-response","295","115930","0.0-436.0","339ANSOTR6OOYC5V6Y36EG4GZ6RIKD","A2D28BVEFUUTMO","368IUKXGA5U7UZ9GQNUNOB4MGE4P6M","","null","<img src=""img/land1.png"" style=""width:200px;border:14px solid red;"">","null","","","","","","","",""
"","image-keyboard-response","296","116028","0.0-438.0","339ANSOTR6OOYC5V6Y36EG4GZ6RIKD","A2D28BVEFUUTMO","368IUKXGA5U7UZ9GQNUNOB4MGE4P6M","","91","img/land1.png","76","95","3","0","false","1","0.8,0.2,0.2,0.2,0.8,0.2,0.2,0.2,0.8","",""
"","html-keyboard-response","297","116333","0.0-439.0","339ANSOTR6OOYC5V6Y36EG4GZ6RIKD","A2D28BVEFUUTMO","368IUKXGA5U7UZ9GQNUNOB4MGE4P6M","","null","<img src=""img/land1.png"" style=""width:200px;border:14px solid red;"">","null","","","","","","","",""
"","image-keyboard-response","298","116401","0.0-441.0","339ANSOTR6OOYC5V6Y36EG4GZ6RIKD","A2D28BVEFUUTMO","368IUKXGA5U7UZ9GQNUNOB4MGE4P6M","","63","img/land1.png","75","67","2","0","false","1","0.8,0.2,0.2,0.2,0.8,0.2,0.2,0.2,0.8","",""
"","html-keyboard-response","299","116709","0.0-442.0","339ANSOTR6OOYC5V6Y36EG4GZ6RIKD","A2D28BVEFUUTMO","368IUKXGA5U7UZ9GQNUNOB4MGE4P6M","","null","<img src=""img/land1.png"" style=""width:200px;border:14px solid red;"">","null","","","","","","","",""
"","image-keyboard-response","300","116837","0.0-444.0","339ANSOTR6OOYC5V6Y36EG4GZ6RIKD","A2D28BVEFUUTMO","368IUKXGA5U7UZ9GQNUNOB4MGE4P6M","","121","img/land1.png","75","126","2","0","false","1","0.8,0.2,0.2,0.2,0.8,0.2,0.2,0.2,0.8","",""
"","html-keyboard-response","301","117142","0.0-445.0","339ANSOTR6OOYC5V6Y36EG4GZ6RIKD","A2D28BVEFUUTMO","368IUKXGA5U7UZ9GQNUNOB4MGE4P6M","","null","<img src=""img/land1.png"" style=""width:200px;border:14px solid red;"">","null","","","","","","","",""
"","image-keyboard-response","302","117482","0.0-447.0","339ANSOTR6OOYC5V6Y36EG4GZ6RIKD","A2D28BVEFUUTMO","368IUKXGA5U7UZ9GQNUNOB4MGE4P6M","","334","img/land2.png","74","337","1","0","false","2","0.8,0.2,0.2,0.2,0.8,0.2,0.2,0.2,0.8","",""
"","html-keyboard-response","303","117788","0.0-448.0","339ANSOTR6OOYC5V6Y36EG4GZ6RIKD","A2D28BVEFUUTMO","368IUKXGA5U7UZ9GQNUNOB4MGE4P6M","","null","<img src=""img/land2.png"" style=""width:200px;border:14px solid red;"">","null","","","","","","","",""
"","image-keyboard-response","304","117810","0.0-450.0","339ANSOTR6OOYC5V6Y36EG4GZ6RIKD","A2D28BVEFUUTMO","368IUKXGA5U7UZ9GQNUNOB4MGE4P6M","","17","img/land3.png","75","21","2","1","false","3","0.8,0.2,0.2,0.2,0.8,0.2,0.2,0.2,0.8","",""
"","html-keyboard-response","305","118117","0.0-451.0","339ANSOTR6OOYC5V6Y36EG4GZ6RIKD","A2D28BVEFUUTMO","368IUKXGA5U7UZ9GQNUNOB4MGE4P6M","","null","<img src=""img/land3.png"" style=""width:200px; border:14px solid green;"">","null","","","","","","","",""
"","image-keyboard-response","306","118199","0.0-453.0","339ANSOTR6OOYC5V6Y36EG4GZ6RIKD","A2D28BVEFUUTMO","368IUKXGA5U7UZ9GQNUNOB4MGE4P6M","","75","img/land2.png","75","80","2","1","false","2","0.8,0.2,0.2,0.2,0.8,0.2,0.2,0.2,0.8","",""
"","html-keyboard-response","307","118508","0.0-454.0","339ANSOTR6OOYC5V6Y36EG4GZ6RIKD","A2D28BVEFUUTMO","368IUKXGA5U7UZ9GQNUNOB4MGE4P6M","","null","<img src=""img/land2.png"" style=""width:200px; border:14px solid green;"">","null","","","","","","","",""
"","image-keyboard-response","308","119518","0.0-456.0","339ANSOTR6OOYC5V6Y36EG4GZ6RIKD","A2D28BVEFUUTMO","368IUKXGA5U7UZ9GQNUNOB4MGE4P6M","","","img/land3.png","","1007","-1","0","true","3","0.8,0.2,0.2,0.2,0.8,0.2,0.2,0.2,0.8","",""
"","html-keyboard-response","309","119825","0.0-457.0","339ANSOTR6OOYC5V6Y36EG4GZ6RIKD","A2D28BVEFUUTMO","368IUKXGA5U7UZ9GQNUNOB4MGE4P6M","","null","<img src=""img/land3.png"" style=""width:200px;border:14px solid red;"">","null","","","","","","","",""
"","html-keyboard-response","310","121616","0.0-458.0-0.0","339ANSOTR6OOYC5V6Y36EG4GZ6RIKD","A2D28BVEFUUTMO","368IUKXGA5U7UZ9GQNUNOB4MGE4P6M","","","","","","","","","","","",""
"","image-keyboard-response","311","122031","0.0-459.0","339ANSOTR6OOYC5V6Y36EG4GZ6RIKD","A2D28BVEFUUTMO","368IUKXGA5U7UZ9GQNUNOB4MGE4P6M","","406","img/land1.png","74","412","1","1","false","1","0.8,0.2,0.2,0.2,0.8,0.2,0.2,0.2,0.8","",""
"","html-keyboard-response","312","122340","0.0-460.0","339ANSOTR6OOYC5V6Y36EG4GZ6RIKD","A2D28BVEFUUTMO","368IUKXGA5U7UZ9GQNUNOB4MGE4P6M","","null","<img src=""img/land1.png"" style=""width:200px; border:14px solid green;"">","null","","","","","","","",""
"","image-keyboard-response","313","122391","0.0-462.0","339ANSOTR6OOYC5V6Y36EG4GZ6RIKD","A2D28BVEFUUTMO","368IUKXGA5U7UZ9GQNUNOB4MGE4P6M","","45","img/land1.png","75","49","2","0","false","1","0.8,0.2,0.2,0.2,0.8,0.2,0.2,0.2,0.8","",""
"","html-keyboard-response","314","122701","0.0-463.0","339ANSOTR6OOYC5V6Y36EG4GZ6RIKD","A2D28BVEFUUTMO","368IUKXGA5U7UZ9GQNUNOB4MGE4P6M","","null","<img src=""img/land1.png"" style=""width:200px;border:14px solid red;"">","null","","","","","","","",""
"","image-keyboard-response","315","122796","0.0-465.0","339ANSOTR6OOYC5V6Y36EG4GZ6RIKD","A2D28BVEFUUTMO","368IUKXGA5U7UZ9GQNUNOB4MGE4P6M","","89","img/land2.png","74","93","1","0","false","2","0.8,0.2,0.2,0.2,0.8,0.2,0.2,0.2,0.8","",""
"","html-keyboard-response","316","123102","0.0-466.0","339ANSOTR6OOYC5V6Y36EG4GZ6RIKD","A2D28BVEFUUTMO","368IUKXGA5U7UZ9GQNUNOB4MGE4P6M","","null","<img src=""img/land2.png"" style=""width:200px;border:14px solid red;"">","null","","","","","","","",""
"","image-keyboard-response","317","123350","0.0-468.0","339ANSOTR6OOYC5V6Y36EG4GZ6RIKD","A2D28BVEFUUTMO","368IUKXGA5U7UZ9GQNUNOB4MGE4P6M","","240","img/land2.png","74","243","1","1","false","2","0.8,0.2,0.2,0.2,0.8,0.2,0.2,0.2,0.8","",""
"","html-keyboard-response","318","123656","0.0-469.0","339ANSOTR6OOYC5V6Y36EG4GZ6RIKD","A2D28BVEFUUTMO","368IUKXGA5U7UZ9GQNUNOB4MGE4P6M","","null","<img src=""img/land2.png"" style=""width:200px; border:14px solid green;"">","null","","","","","","","",""
"","image-keyboard-response","319","123839","0.0-471.0","339ANSOTR6OOYC5V6Y36EG4GZ6RIKD","A2D28BVEFUUTMO","368IUKXGA5U7UZ9GQNUNOB4MGE4P6M","","171","img/land2.png","74","181","1","0","false","2","0.8,0.2,0.2,0.2,0.8,0.2,0.2,0.2,0.8","",""
"","html-keyboard-response","320","124145","0.0-472.0","339ANSOTR6OOYC5V6Y36EG4GZ6RIKD","A2D28BVEFUUTMO","368IUKXGA5U7UZ9GQNUNOB4MGE4P6M","","null","<img src=""img/land2.png"" style=""width:200px;border:14px solid red;"">","null","","","","","","","",""
"","image-keyboard-response","321","124548","0.0-474.0","339ANSOTR6OOYC5V6Y36EG4GZ6RIKD","A2D28BVEFUUTMO","368IUKXGA5U7UZ9GQNUNOB4MGE4P6M","","396","img/land3.png","74","400","1","0","false","3","0.8,0.2,0.2,0.2,0.8,0.2,0.2,0.2,0.8","",""
"","html-keyboard-response","322","124853","0.0-475.0","339ANSOTR6OOYC5V6Y36EG4GZ6RIKD","A2D28BVEFUUTMO","368IUKXGA5U7UZ9GQNUNOB4MGE4P6M","","null","<img src=""img/land3.png"" style=""width:200px;border:14px solid red;"">","null","","","","","","","",""
"","image-keyboard-response","323","125072","0.0-477.0","339ANSOTR6OOYC5V6Y36EG4GZ6RIKD","A2D28BVEFUUTMO","368IUKXGA5U7UZ9GQNUNOB4MGE4P6M","","214","img/land3.png","75","219","2","1","false","3","0.8,0.2,0.2,0.2,0.8,0.2,0.2,0.2,0.8","",""
"","html-keyboard-response","324","125378","0.0-478.0","339ANSOTR6OOYC5V6Y36EG4GZ6RIKD","A2D28BVEFUUTMO","368IUKXGA5U7UZ9GQNUNOB4MGE4P6M","","null","<img src=""img/land3.png"" style=""width:200px; border:14px solid green;"">","null","","","","","","","",""
"","image-keyboard-response","325","125554","0.0-480.0","339ANSOTR6OOYC5V6Y36EG4GZ6RIKD","A2D28BVEFUUTMO","368IUKXGA5U7UZ9GQNUNOB4MGE4P6M","","169","img/land3.png","75","174","2","0","false","3","0.8,0.2,0.2,0.2,0.8,0.2,0.2,0.2,0.8","",""
"","html-keyboard-response","326","125860","0.0-481.0","339ANSOTR6OOYC5V6Y36EG4GZ6RIKD","A2D28BVEFUUTMO","368IUKXGA5U7UZ9GQNUNOB4MGE4P6M","","null","<img src=""img/land3.png"" style=""width:200px;border:14px solid red;"">","null","","","","","","","",""
"","image-keyboard-response","327","125925","0.0-483.0","339ANSOTR6OOYC5V6Y36EG4GZ6RIKD","A2D28BVEFUUTMO","368IUKXGA5U7UZ9GQNUNOB4MGE4P6M","","60","img/land3.png","75","62","2","0","false","3","0.8,0.2,0.2,0.2,0.8,0.2,0.2,0.2,0.8","",""
"","html-keyboard-response","328","126231","0.0-484.0","339ANSOTR6OOYC5V6Y36EG4GZ6RIKD","A2D28BVEFUUTMO","368IUKXGA5U7UZ9GQNUNOB4MGE4P6M","","null","<img src=""img/land3.png"" style=""width:200px;border:14px solid red;"">","null","","","","","","","",""
"","image-keyboard-response","329","126317","0.0-486.0","339ANSOTR6OOYC5V6Y36EG4GZ6RIKD","A2D28BVEFUUTMO","368IUKXGA5U7UZ9GQNUNOB4MGE4P6M","","77","img/land1.png","75","84","2","0","false","1","0.8,0.2,0.2,0.2,0.8,0.2,0.2,0.2,0.8","",""
"","html-keyboard-response","330","126625","0.0-487.0","339ANSOTR6OOYC5V6Y36EG4GZ6RIKD","A2D28BVEFUUTMO","368IUKXGA5U7UZ9GQNUNOB4MGE4P6M","","null","<img src=""img/land1.png"" style=""width:200px;border:14px solid red;"">","null","","","","","","","",""
"","image-keyboard-response","331","126788","0.0-489.0","339ANSOTR6OOYC5V6Y36EG4GZ6RIKD","A2D28BVEFUUTMO","368IUKXGA5U7UZ9GQNUNOB4MGE4P6M","","152","img/land3.png","75","160","2","0","false","3","0.8,0.2,0.2,0.2,0.8,0.2,0.2,0.2,0.8","",""
"","html-keyboard-response","332","127094","0.0-490.0","339ANSOTR6OOYC5V6Y36EG4GZ6RIKD","A2D28BVEFUUTMO","368IUKXGA5U7UZ9GQNUNOB4MGE4P6M","","null","<img src=""img/land3.png"" style=""width:200px;border:14px solid red;"">","null","","","","","","","",""
"","image-keyboard-response","333","127184","0.0-492.0","339ANSOTR6OOYC5V6Y36EG4GZ6RIKD","A2D28BVEFUUTMO","368IUKXGA5U7UZ9GQNUNOB4MGE4P6M","","84","img/land3.png","75","89","2","0","false","3","0.8,0.2,0.2,0.2,0.8,0.2,0.2,0.2,0.8","",""
"","html-keyboard-response","334","127491","0.0-493.0","339ANSOTR6OOYC5V6Y36EG4GZ6RIKD","A2D28BVEFUUTMO","368IUKXGA5U7UZ9GQNUNOB4MGE4P6M","","null","<img src=""img/land3.png"" style=""width:200px;border:14px solid red;"">","null","","","","","","","",""
"","image-keyboard-response","335","127603","0.0-495.0","339ANSOTR6OOYC5V6Y36EG4GZ6RIKD","A2D28BVEFUUTMO","368IUKXGA5U7UZ9GQNUNOB4MGE4P6M","","105","img/land1.png","74","111","1","1","false","1","0.8,0.2,0.2,0.2,0.8,0.2,0.2,0.2,0.8","",""
"","html-keyboard-response","336","127909","0.0-496.0","339ANSOTR6OOYC5V6Y36EG4GZ6RIKD","A2D28BVEFUUTMO","368IUKXGA5U7UZ9GQNUNOB4MGE4P6M","","null","<img src=""img/land1.png"" style=""width:200px; border:14px solid green;"">","null","","","","","","","",""
"","image-keyboard-response","337","128036","0.0-498.0","339ANSOTR6OOYC5V6Y36EG4GZ6RIKD","A2D28BVEFUUTMO","368IUKXGA5U7UZ9GQNUNOB4MGE4P6M","","119","img/land1.png","75","126","2","1","false","1","0.8,0.2,0.2,0.2,0.8,0.2,0.2,0.2,0.8","",""
"","html-keyboard-response","338","128348","0.0-499.0","339ANSOTR6OOYC5V6Y36EG4GZ6RIKD","A2D28BVEFUUTMO","368IUKXGA5U7UZ9GQNUNOB4MGE4P6M","","null","<img src=""img/land1.png"" style=""width:200px; border:14px solid green;"">","null","","","","","","","",""
"","image-keyboard-response","339","128427","0.0-501.0","339ANSOTR6OOYC5V6Y36EG4GZ6RIKD","A2D28BVEFUUTMO","368IUKXGA5U7UZ9GQNUNOB4MGE4P6M","","72","img/land1.png","75","76","2","0","false","1","0.8,0.2,0.2,0.2,0.8,0.2,0.2,0.2,0.8","",""
"","html-keyboard-response","340","128733","0.0-502.0","339ANSOTR6OOYC5V6Y36EG4GZ6RIKD","A2D28BVEFUUTMO","368IUKXGA5U7UZ9GQNUNOB4MGE4P6M","","null","<img src=""img/land1.png"" style=""width:200px;border:14px solid red;"">","null","","","","","","","",""
"","image-keyboard-response","341","128816","0.0-504.0","339ANSOTR6OOYC5V6Y36EG4GZ6RIKD","A2D28BVEFUUTMO","368IUKXGA5U7UZ9GQNUNOB4MGE4P6M","","78","img/land2.png","75","81","2","1","false","2","0.8,0.2,0.2,0.2,0.8,0.2,0.2,0.2,0.8","",""
"","html-keyboard-response","342","129123","0.0-505.0","339ANSOTR6OOYC5V6Y36EG4GZ6RIKD","A2D28BVEFUUTMO","368IUKXGA5U7UZ9GQNUNOB4MGE4P6M","","null","<img src=""img/land2.png"" style=""width:200px; border:14px solid green;"">","null","","","","","","","",""
"","image-keyboard-response","343","129237","0.0-507.0","339ANSOTR6OOYC5V6Y36EG4GZ6RIKD","A2D28BVEFUUTMO","368IUKXGA5U7UZ9GQNUNOB4MGE4P6M","","107","img/land3.png","75","113","2","0","false","3","0.8,0.2,0.2,0.2,0.8,0.2,0.2,0.2,0.8","",""
"","html-keyboard-response","344","129542","0.0-508.0","339ANSOTR6OOYC5V6Y36EG4GZ6RIKD","A2D28BVEFUUTMO","368IUKXGA5U7UZ9GQNUNOB4MGE4P6M","","null","<img src=""img/land3.png"" style=""width:200px;border:14px solid red;"">","null","","","","","","","",""
"","image-keyboard-response","345","129625","0.0-510.0","339ANSOTR6OOYC5V6Y36EG4GZ6RIKD","A2D28BVEFUUTMO","368IUKXGA5U7UZ9GQNUNOB4MGE4P6M","","77","img/land2.png","75","81","2","1","false","2","0.8,0.2,0.2,0.2,0.8,0.2,0.2,0.2,0.8","",""
"","html-keyboard-response","346","129930","0.0-511.0","339ANSOTR6OOYC5V6Y36EG4GZ6RIKD","A2D28BVEFUUTMO","368IUKXGA5U7UZ9GQNUNOB4MGE4P6M","","null","<img src=""img/land2.png"" style=""width:200px; border:14px solid green;"">","null","","","","","","","",""
"","image-keyboard-response","347","130014","0.0-513.0","339ANSOTR6OOYC5V6Y36EG4GZ6RIKD","A2D28BVEFUUTMO","368IUKXGA5U7UZ9GQNUNOB4MGE4P6M","","77","img/land3.png","75","83","2","0","false","3","0.8,0.2,0.2,0.2,0.8,0.2,0.2,0.2,0.8","",""
"","html-keyboard-response","348","130319","0.0-514.0","339ANSOTR6OOYC5V6Y36EG4GZ6RIKD","A2D28BVEFUUTMO","368IUKXGA5U7UZ9GQNUNOB4MGE4P6M","","null","<img src=""img/land3.png"" style=""width:200px;border:14px solid red;"">","null","","","","","","","",""
"","image-keyboard-response","349","130388","0.0-516.0","339ANSOTR6OOYC5V6Y36EG4GZ6RIKD","A2D28BVEFUUTMO","368IUKXGA5U7UZ9GQNUNOB4MGE4P6M","","62","img/land2.png","75","67","2","1","false","2","0.8,0.2,0.2,0.2,0.8,0.2,0.2,0.2,0.8","",""
"","html-keyboard-response","350","130697","0.0-517.0","339ANSOTR6OOYC5V6Y36EG4GZ6RIKD","A2D28BVEFUUTMO","368IUKXGA5U7UZ9GQNUNOB4MGE4P6M","","null","<img src=""img/land2.png"" style=""width:200px; border:14px solid green;"">","null","","","","","","","",""
"","image-keyboard-response","351","130748","0.0-519.0","339ANSOTR6OOYC5V6Y36EG4GZ6RIKD","A2D28BVEFUUTMO","368IUKXGA5U7UZ9GQNUNOB4MGE4P6M","","46","img/land1.png","75","49","2","0","false","1","0.8,0.2,0.2,0.2,0.8,0.2,0.2,0.2,0.8","",""
"","html-keyboard-response","352","131054","0.0-520.0","339ANSOTR6OOYC5V6Y36EG4GZ6RIKD","A2D28BVEFUUTMO","368IUKXGA5U7UZ9GQNUNOB4MGE4P6M","","null","<img src=""img/land1.png"" style=""width:200px;border:14px solid red;"">","null","","","","","","","",""
"","image-keyboard-response","353","131092","0.0-522.0","339ANSOTR6OOYC5V6Y36EG4GZ6RIKD","A2D28BVEFUUTMO","368IUKXGA5U7UZ9GQNUNOB4MGE4P6M","","31","img/land3.png","75","35","2","0","false","3","0.8,0.2,0.2,0.2,0.8,0.2,0.2,0.2,0.8","",""
"","html-keyboard-response","354","131399","0.0-523.0","339ANSOTR6OOYC5V6Y36EG4GZ6RIKD","A2D28BVEFUUTMO","368IUKXGA5U7UZ9GQNUNOB4MGE4P6M","","null","<img src=""img/land3.png"" style=""width:200px;border:14px solid red;"">","null","","","","","","","",""
"","image-keyboard-response","355","131491","0.0-525.0","339ANSOTR6OOYC5V6Y36EG4GZ6RIKD","A2D28BVEFUUTMO","368IUKXGA5U7UZ9GQNUNOB4MGE4P6M","","83","img/land1.png","75","91","2","0","false","1","0.8,0.2,0.2,0.2,0.8,0.2,0.2,0.2,0.8","",""
"","html-keyboard-response","356","131801","0.0-526.0","339ANSOTR6OOYC5V6Y36EG4GZ6RIKD","A2D28BVEFUUTMO","368IUKXGA5U7UZ9GQNUNOB4MGE4P6M","","null","<img src=""img/land1.png"" style=""width:200px;border:14px solid red;"">","null","","","","","","","",""
"","image-keyboard-response","357","131829","0.0-528.0","339ANSOTR6OOYC5V6Y36EG4GZ6RIKD","A2D28BVEFUUTMO","368IUKXGA5U7UZ9GQNUNOB4MGE4P6M","","21","img/land2.png","75","26","2","1","false","2","0.8,0.2,0.2,0.2,0.8,0.2,0.2,0.2,0.8","",""
"","html-keyboard-response","358","132138","0.0-529.0","339ANSOTR6OOYC5V6Y36EG4GZ6RIKD","A2D28BVEFUUTMO","368IUKXGA5U7UZ9GQNUNOB4MGE4P6M","","null","<img src=""img/land2.png"" style=""width:200px; border:14px solid green;"">","null","","","","","","","",""
"","image-keyboard-response","359","132174","0.0-531.0","339ANSOTR6OOYC5V6Y36EG4GZ6RIKD","A2D28BVEFUUTMO","368IUKXGA5U7UZ9GQNUNOB4MGE4P6M","","30","img/land1.png","74","35","1","1","false","1","0.8,0.2,0.2,0.2,0.8,0.2,0.2,0.2,0.8","",""
"","html-keyboard-response","360","132479","0.0-532.0","339ANSOTR6OOYC5V6Y36EG4GZ6RIKD","A2D28BVEFUUTMO","368IUKXGA5U7UZ9GQNUNOB4MGE4P6M","","null","<img src=""img/land1.png"" style=""width:200px; border:14px solid green;"">","null","","","","","","","",""
"","image-keyboard-response","361","132882","0.0-534.0","339ANSOTR6OOYC5V6Y36EG4GZ6RIKD","A2D28BVEFUUTMO","368IUKXGA5U7UZ9GQNUNOB4MGE4P6M","","396","img/land2.png","75","401","2","0","false","2","0.8,0.2,0.2,0.2,0.8,0.2,0.2,0.2,0.8","",""
"","html-keyboard-response","362","133191","0.0-535.0","339ANSOTR6OOYC5V6Y36EG4GZ6RIKD","A2D28BVEFUUTMO","368IUKXGA5U7UZ9GQNUNOB4MGE4P6M","","null","<img src=""img/land2.png"" style=""width:200px;border:14px solid red;"">","null","","","","","","","",""
"","image-keyboard-response","363","133369","0.0-537.0","339ANSOTR6OOYC5V6Y36EG4GZ6RIKD","A2D28BVEFUUTMO","368IUKXGA5U7UZ9GQNUNOB4MGE4P6M","","168","img/land2.png","75","175","2","0","false","2","0.8,0.2,0.2,0.2,0.8,0.2,0.2,0.2,0.8","",""
"","html-keyboard-response","364","133675","0.0-538.0","339ANSOTR6OOYC5V6Y36EG4GZ6RIKD","A2D28BVEFUUTMO","368IUKXGA5U7UZ9GQNUNOB4MGE4P6M","","null","<img src=""img/land2.png"" style=""width:200px;border:14px solid red;"">","null","","","","","","","",""
"","image-keyboard-response","365","133833","0.0-540.0","339ANSOTR6OOYC5V6Y36EG4GZ6RIKD","A2D28BVEFUUTMO","368IUKXGA5U7UZ9GQNUNOB4MGE4P6M","","148","img/land1.png","74","154","1","0","false","1","0.8,0.2,0.2,0.2,0.8,0.2,0.2,0.2,0.8","",""
"","html-keyboard-response","366","134138","0.0-541.0","339ANSOTR6OOYC5V6Y36EG4GZ6RIKD","A2D28BVEFUUTMO","368IUKXGA5U7UZ9GQNUNOB4MGE4P6M","","null","<img src=""img/land1.png"" style=""width:200px;border:14px solid red;"">","null","","","","","","","",""
"","html-keyboard-response","367","136943","0.0-543.0","339ANSOTR6OOYC5V6Y36EG4GZ6RIKD","A2D28BVEFUUTMO","368IUKXGA5U7UZ9GQNUNOB4MGE4P6M","","","","","","","","","","","",""
"","image-keyboard-response","368","137308","0.0-544.0","339ANSOTR6OOYC5V6Y36EG4GZ6RIKD","A2D28BVEFUUTMO","368IUKXGA5U7UZ9GQNUNOB4MGE4P6M","","360","img/land8.png","75","364","2","1","false","1","0.6,0.6,0,0,0.6,0.6,0.6,0,0.6","",""
"","html-keyboard-response","369","137614","0.0-545.0","339ANSOTR6OOYC5V6Y36EG4GZ6RIKD","A2D28BVEFUUTMO","368IUKXGA5U7UZ9GQNUNOB4MGE4P6M","","null","<img src=""img/land8.png"" style=""width:200px; border:14px solid green;"">","null","","","","","","","",""
"","image-keyboard-response","370","137700","0.0-547.0","339ANSOTR6OOYC5V6Y36EG4GZ6RIKD","A2D28BVEFUUTMO","368IUKXGA5U7UZ9GQNUNOB4MGE4P6M","","77","img/land4.png","74","84","1","1","false","3","0.6,0.6,0,0,0.6,0.6,0.6,0,0.6","",""
"","html-keyboard-response","371","138008","0.0-548.0","339ANSOTR6OOYC5V6Y36EG4GZ6RIKD","A2D28BVEFUUTMO","368IUKXGA5U7UZ9GQNUNOB4MGE4P6M","","null","<img src=""img/land4.png"" style=""width:200px; border:14px solid green;"">","null","","","","","","","",""
"","image-keyboard-response","372","138042","0.0-550.0","339ANSOTR6OOYC5V6Y36EG4GZ6RIKD","A2D28BVEFUUTMO","368IUKXGA5U7UZ9GQNUNOB4MGE4P6M","","28","img/land5.png","74","32","1","0","false","2","0.6,0.6,0,0,0.6,0.6,0.6,0,0.6","",""
"","html-keyboard-response","373","138348","0.0-551.0","339ANSOTR6OOYC5V6Y36EG4GZ6RIKD","A2D28BVEFUUTMO","368IUKXGA5U7UZ9GQNUNOB4MGE4P6M","","null","<img src=""img/land5.png"" style=""width:200px;border:14px solid red;"">","null","","","","","","","",""
"","image-keyboard-response","374","138461","0.0-553.0","339ANSOTR6OOYC5V6Y36EG4GZ6RIKD","A2D28BVEFUUTMO","368IUKXGA5U7UZ9GQNUNOB4MGE4P6M","","106","img/land4.png","75","111","2","0","false","3","0.6,0.6,0,0,0.6,0.6,0.6,0,0.6","",""
"","html-keyboard-response","375","138768","0.0-554.0","339ANSOTR6OOYC5V6Y36EG4GZ6RIKD","A2D28BVEFUUTMO","368IUKXGA5U7UZ9GQNUNOB4MGE4P6M","","null","<img src=""img/land4.png"" style=""width:200px;border:14px solid red;"">","null","","","","","","","",""
"","image-keyboard-response","376","138881","0.0-556.0","339ANSOTR6OOYC5V6Y36EG4GZ6RIKD","A2D28BVEFUUTMO","368IUKXGA5U7UZ9GQNUNOB4MGE4P6M","","104","img/land5.png","74","110","1","0","false","2","0.6,0.6,0,0,0.6,0.6,0.6,0,0.6","",""
"","html-keyboard-response","377","139186","0.0-557.0","339ANSOTR6OOYC5V6Y36EG4GZ6RIKD","A2D28BVEFUUTMO","368IUKXGA5U7UZ9GQNUNOB4MGE4P6M","","null","<img src=""img/land5.png"" style=""width:200px;border:14px solid red;"">","null","","","","","","","",""
"","image-keyboard-response","378","139255","0.0-559.0","339ANSOTR6OOYC5V6Y36EG4GZ6RIKD","A2D28BVEFUUTMO","368IUKXGA5U7UZ9GQNUNOB4MGE4P6M","","63","img/land4.png","74","68","1","1","false","3","0.6,0.6,0,0,0.6,0.6,0.6,0,0.6","",""
"","html-keyboard-response","379","139562","0.0-560.0","339ANSOTR6OOYC5V6Y36EG4GZ6RIKD","A2D28BVEFUUTMO","368IUKXGA5U7UZ9GQNUNOB4MGE4P6M","","null","<img src=""img/land4.png"" style=""width:200px; border:14px solid green;"">","null","","","","","","","",""
"","image-keyboard-response","380","139630","0.0-562.0","339ANSOTR6OOYC5V6Y36EG4GZ6RIKD","A2D28BVEFUUTMO","368IUKXGA5U7UZ9GQNUNOB4MGE4P6M","","62","img/land4.png","74","65","1","1","false","3","0.6,0.6,0,0,0.6,0.6,0.6,0,0.6","",""
"","html-keyboard-response","381","139938","0.0-563.0","339ANSOTR6OOYC5V6Y36EG4GZ6RIKD","A2D28BVEFUUTMO","368IUKXGA5U7UZ9GQNUNOB4MGE4P6M","","null","<img src=""img/land4.png"" style=""width:200px; border:14px solid green;"">","null","","","","","","","",""
"","image-keyboard-response","382","140066","0.0-565.0","339ANSOTR6OOYC5V6Y36EG4GZ6RIKD","A2D28BVEFUUTMO","368IUKXGA5U7UZ9GQNUNOB4MGE4P6M","","118","img/land8.png","74","124","1","0","false","1","0.6,0.6,0,0,0.6,0.6,0.6,0,0.6","",""
"","html-keyboard-response","383","140371","0.0-566.0","339ANSOTR6OOYC5V6Y36EG4GZ6RIKD","A2D28BVEFUUTMO","368IUKXGA5U7UZ9GQNUNOB4MGE4P6M","","null","<img src=""img/land8.png"" style=""width:200px;border:14px solid red;"">","null","","","","","","","",""
"","image-keyboard-response","384","140415","0.0-568.0","339ANSOTR6OOYC5V6Y36EG4GZ6RIKD","A2D28BVEFUUTMO","368IUKXGA5U7UZ9GQNUNOB4MGE4P6M","","37","img/land8.png","74","41","1","1","false","1","0.6,0.6,0,0,0.6,0.6,0.6,0,0.6","",""
"","html-keyboard-response","385","140726","0.0-569.0","339ANSOTR6OOYC5V6Y36EG4GZ6RIKD","A2D28BVEFUUTMO","368IUKXGA5U7UZ9GQNUNOB4MGE4P6M","","null","<img src=""img/land8.png"" style=""width:200px; border:14px solid green;"">","null","","","","","","","",""
"","image-keyboard-response","386","140829","0.0-571.0","339ANSOTR6OOYC5V6Y36EG4GZ6RIKD","A2D28BVEFUUTMO","368IUKXGA5U7UZ9GQNUNOB4MGE4P6M","","96","img/land8.png","75","100","2","1","false","1","0.6,0.6,0,0,0.6,0.6,0.6,0,0.6","",""
"","html-keyboard-response","387","141135","0.0-572.0","339ANSOTR6OOYC5V6Y36EG4GZ6RIKD","A2D28BVEFUUTMO","368IUKXGA5U7UZ9GQNUNOB4MGE4P6M","","null","<img src=""img/land8.png"" style=""width:200px; border:14px solid green;"">","null","","","","","","","",""
"","image-keyboard-response","388","141277","0.0-574.0","339ANSOTR6OOYC5V6Y36EG4GZ6RIKD","A2D28BVEFUUTMO","368IUKXGA5U7UZ9GQNUNOB4MGE4P6M","","137","img/land4.png","75","141","2","0","false","3","0.6,0.6,0,0,0.6,0.6,0.6,0,0.6","",""
"","html-keyboard-response","389","141583","0.0-575.0","339ANSOTR6OOYC5V6Y36EG4GZ6RIKD","A2D28BVEFUUTMO","368IUKXGA5U7UZ9GQNUNOB4MGE4P6M","","null","<img src=""img/land4.png"" style=""width:200px;border:14px solid red;"">","null","","","","","","","",""
"","image-keyboard-response","390","141713","0.0-577.0","339ANSOTR6OOYC5V6Y36EG4GZ6RIKD","A2D28BVEFUUTMO","368IUKXGA5U7UZ9GQNUNOB4MGE4P6M","","123","img/land8.png","75","128","2","0","false","1","0.6,0.6,0,0,0.6,0.6,0.6,0,0.6","",""
"","html-keyboard-response","391","142018","0.0-578.0","339ANSOTR6OOYC5V6Y36EG4GZ6RIKD","A2D28BVEFUUTMO","368IUKXGA5U7UZ9GQNUNOB4MGE4P6M","","null","<img src=""img/land8.png"" style=""width:200px;border:14px solid red;"">","null","","","","","","","",""
"","image-keyboard-response","392","142101","0.0-580.0","339ANSOTR6OOYC5V6Y36EG4GZ6RIKD","A2D28BVEFUUTMO","368IUKXGA5U7UZ9GQNUNOB4MGE4P6M","","76","img/land5.png","74","82","1","0","false","2","0.6,0.6,0,0,0.6,0.6,0.6,0,0.6","",""
"","html-keyboard-response","393","142407","0.0-581.0","339ANSOTR6OOYC5V6Y36EG4GZ6RIKD","A2D28BVEFUUTMO","368IUKXGA5U7UZ9GQNUNOB4MGE4P6M","","null","<img src=""img/land5.png"" style=""width:200px;border:14px solid red;"">","null","","","","","","","",""
"","image-keyboard-response","394","142492","0.0-583.0","339ANSOTR6OOYC5V6Y36EG4GZ6RIKD","A2D28BVEFUUTMO","368IUKXGA5U7UZ9GQNUNOB4MGE4P6M","","76","img/land8.png","74","83","1","0","false","1","0.6,0.6,0,0,0.6,0.6,0.6,0,0.6","",""
"","html-keyboard-response","395","142799","0.0-584.0","339ANSOTR6OOYC5V6Y36EG4GZ6RIKD","A2D28BVEFUUTMO","368IUKXGA5U7UZ9GQNUNOB4MGE4P6M","","null","<img src=""img/land8.png"" style=""width:200px;border:14px solid red;"">","null","","","","","","","",""
"","image-keyboard-response","396","142821","0.0-586.0","339ANSOTR6OOYC5V6Y36EG4GZ6RIKD","A2D28BVEFUUTMO","368IUKXGA5U7UZ9GQNUNOB4MGE4P6M","","17","img/land8.png","74","21","1","0","false","1","0.6,0.6,0,0,0.6,0.6,0.6,0,0.6","",""
"","html-keyboard-response","397","143127","0.0-587.0","339ANSOTR6OOYC5V6Y36EG4GZ6RIKD","A2D28BVEFUUTMO","368IUKXGA5U7UZ9GQNUNOB4MGE4P6M","","null","<img src=""img/land8.png"" style=""width:200px;border:14px solid red;"">","null","","","","","","","",""
"","image-keyboard-response","398","143167","0.0-589.0","339ANSOTR6OOYC5V6Y36EG4GZ6RIKD","A2D28BVEFUUTMO","368IUKXGA5U7UZ9GQNUNOB4MGE4P6M","","32","img/land4.png","74","39","1","1","false","3","0.6,0.6,0,0,0.6,0.6,0.6,0,0.6","",""
"","html-keyboard-response","399","143472","0.0-590.0","339ANSOTR6OOYC5V6Y36EG4GZ6RIKD","A2D28BVEFUUTMO","368IUKXGA5U7UZ9GQNUNOB4MGE4P6M","","null","<img src=""img/land4.png"" style=""width:200px; border:14px solid green;"">","null","","","","","","","",""
"","image-keyboard-response","400","143494","0.0-592.0","339ANSOTR6OOYC5V6Y36EG4GZ6RIKD","A2D28BVEFUUTMO","368IUKXGA5U7UZ9GQNUNOB4MGE4P6M","","16","img/land5.png","74","21","1","0","false","2","0.6,0.6,0,0,0.6,0.6,0.6,0,0.6","",""
"","html-keyboard-response","401","143800","0.0-593.0","339ANSOTR6OOYC5V6Y36EG4GZ6RIKD","A2D28BVEFUUTMO","368IUKXGA5U7UZ9GQNUNOB4MGE4P6M","","null","<img src=""img/land5.png"" style=""width:200px;border:14px solid red;"">","null","","","","","","","",""
"","image-keyboard-response","402","143869","0.0-595.0","339ANSOTR6OOYC5V6Y36EG4GZ6RIKD","A2D28BVEFUUTMO","368IUKXGA5U7UZ9GQNUNOB4MGE4P6M","","61","img/land8.png","74","67","1","0","false","1","0.6,0.6,0,0,0.6,0.6,0.6,0,0.6","",""
"","html-keyboard-response","403","144176","0.0-596.0","339ANSOTR6OOYC5V6Y36EG4GZ6RIKD","A2D28BVEFUUTMO","368IUKXGA5U7UZ9GQNUNOB4MGE4P6M","","null","<img src=""img/land8.png"" style=""width:200px;border:14px solid red;"">","null","","","","","","","",""
"","image-keyboard-response","404","144273","0.0-598.0","339ANSOTR6OOYC5V6Y36EG4GZ6RIKD","A2D28BVEFUUTMO","368IUKXGA5U7UZ9GQNUNOB4MGE4P6M","","90","img/land5.png","75","94","2","1","false","2","0.6,0.6,0,0,0.6,0.6,0.6,0,0.6","",""
"","html-keyboard-response","405","144579","0.0-599.0","339ANSOTR6OOYC5V6Y36EG4GZ6RIKD","A2D28BVEFUUTMO","368IUKXGA5U7UZ9GQNUNOB4MGE4P6M","","null","<img src=""img/land5.png"" style=""width:200px; border:14px solid green;"">","null","","","","","","","",""
"","image-keyboard-response","406","144663","0.0-601.0","339ANSOTR6OOYC5V6Y36EG4GZ6RIKD","A2D28BVEFUUTMO","368IUKXGA5U7UZ9GQNUNOB4MGE4P6M","","79","img/land8.png","75","83","2","1","false","1","0.6,0.6,0,0,0.6,0.6,0.6,0,0.6","",""
