"success","trial_type","trial_index","time_elapsed","internal_node_id","assignmentID","mturkID","hitID","view_history","rt","stimulus","key_press","reactionTime","a","r","warning","s","reward_cond","responses","question_order"
"true","fullscreen","0","2324","0.0-0.0","3E7TUJ2EGD8N956IANB6XAANXNRD9T","A2DLV3WN24WTDS","3A3KKYU7P33Z3BR9PPFZ5194ZCQMWU","","","","","","","","","","","",""
"","instructions","1","35984","0.0-1.0","3E7TUJ2EGD8N956IANB6XAANXNRD9T","A2DLV3WN24WTDS","3A3KKYU7P33Z3BR9PPFZ5194ZCQMWU","[{""page_index"":0,""viewing_time"":16978.899999976158},{""page_index"":1,""viewing_time"":535.4000000357628},{""page_index"":2,""viewing_time"":344.19999998807907},{""page_index"":3,""viewing_time"":300},{""page_index"":4,""viewing_time"":10065.800000011921},{""page_index"":5,""viewing_time"":2719.5},{""page_index"":6,""viewing_time"":1422.0999999642372},{""page_index"":7,""viewing_time"":1290.4000000357628}]","33657.69999998808","","","","","","","","","",""
"","image-keyboard-response","2","36988","0.0-2.0","3E7TUJ2EGD8N956IANB6XAANXNRD9T","A2DLV3WN24WTDS","3A3KKYU7P33Z3BR9PPFZ5194ZCQMWU","","","img/land3.png","","1004.1000000238419","-1","0","true","1","1,0.5,0.5,0.5,1,0.5,0.5,0.5,1","",""
"","html-keyboard-response","3","37293","0.0-3.0","3E7TUJ2EGD8N956IANB6XAANXNRD9T","A2DLV3WN24WTDS","3A3KKYU7P33Z3BR9PPFZ5194ZCQMWU","","null","<img src=""img/land3.png"" style=""width:200px;border:14px solid red;"">","null","","","","","","","",""
"","html-keyboard-response","4","47840","0.0-4.0-0.0","3E7TUJ2EGD8N956IANB6XAANXNRD9T","A2DLV3WN24WTDS","3A3KKYU7P33Z3BR9PPFZ5194ZCQMWU","","","","","","","","","","","",""
"","image-keyboard-response","5","48261","0.0-5.0","3E7TUJ2EGD8N956IANB6XAANXNRD9T","A2DLV3WN24WTDS","3A3KKYU7P33Z3BR9PPFZ5194ZCQMWU","","420","img/land1.png","75","421.39999997615814","2","1","false","3","1,0.5,0.5,0.5,1,0.5,0.5,0.5,1","",""
"","html-keyboard-response","6","48564","0.0-6.0","3E7TUJ2EGD8N956IANB6XAANXNRD9T","A2DLV3WN24WTDS","3A3KKYU7P33Z3BR9PPFZ5194ZCQMWU","","null","<img src=""img/land1.png"" style=""width:200px; border:14px solid green;"">","null","","","","","","","",""
"","image-keyboard-response","7","48810","0.0-8.0","3E7TUJ2EGD8N956IANB6XAANXNRD9T","A2DLV3WN24WTDS","3A3KKYU7P33Z3BR9PPFZ5194ZCQMWU","","243.5","img/land3.png","75","245","2","0","false","1","1,0.5,0.5,0.5,1,0.5,0.5,0.5,1","",""
"","html-keyboard-response","8","49112","0.0-9.0","3E7TUJ2EGD8N956IANB6XAANXNRD9T","A2DLV3WN24WTDS","3A3KKYU7P33Z3BR9PPFZ5194ZCQMWU","","null","<img src=""img/land3.png"" style=""width:200px;border:14px solid red;"">","null","","","","","","","",""
"","image-keyboard-response","9","49210","0.0-11.0","3E7TUJ2EGD8N956IANB6XAANXNRD9T","A2DLV3WN24WTDS","3A3KKYU7P33Z3BR9PPFZ5194ZCQMWU","","95.80000001192093","img/land5.png","75","97.09999996423721","2","1","false","2","1,0.5,0.5,0.5,1,0.5,0.5,0.5,1","",""
"","html-keyboard-response","10","49513","0.0-12.0","3E7TUJ2EGD8N956IANB6XAANXNRD9T","A2DLV3WN24WTDS","3A3KKYU7P33Z3BR9PPFZ5194ZCQMWU","","null","<img src=""img/land5.png"" style=""width:200px; border:14px solid green;"">","null","","","","","","","",""
"","image-keyboard-response","11","49562","0.0-14.0","3E7TUJ2EGD8N956IANB6XAANXNRD9T","A2DLV3WN24WTDS","3A3KKYU7P33Z3BR9PPFZ5194ZCQMWU","","48.200000047683716","img/land3.png","76","48.89999997615814","3","0","false","1","1,0.5,0.5,0.5,1,0.5,0.5,0.5,1","",""
"","html-keyboard-response","12","49865","0.0-15.0","3E7TUJ2EGD8N956IANB6XAANXNRD9T","A2DLV3WN24WTDS","3A3KKYU7P33Z3BR9PPFZ5194ZCQMWU","","null","<img src=""img/land3.png"" style=""width:200px;border:14px solid red;"">","null","","","","","","","",""
"","image-keyboard-response","13","49926","0.0-17.0","3E7TUJ2EGD8N956IANB6XAANXNRD9T","A2DLV3WN24WTDS","3A3KKYU7P33Z3BR9PPFZ5194ZCQMWU","","59.5","img/land1.png","74","60.59999996423721","1","1","false","3","1,0.5,0.5,0.5,1,0.5,0.5,0.5,1","",""
"","html-keyboard-response","14","50228","0.0-18.0","3E7TUJ2EGD8N956IANB6XAANXNRD9T","A2DLV3WN24WTDS","3A3KKYU7P33Z3BR9PPFZ5194ZCQMWU","","null","<img src=""img/land1.png"" style=""width:200px; border:14px solid green;"">","null","","","","","","","",""
"","image-keyboard-response","15","50279","0.0-20.0","3E7TUJ2EGD8N956IANB6XAANXNRD9T","A2DLV3WN24WTDS","3A3KKYU7P33Z3BR9PPFZ5194ZCQMWU","","49.19999998807907","img/land3.png","75","50","2","0","false","1","1,0.5,0.5,0.5,1,0.5,0.5,0.5,1","",""
"","html-keyboard-response","16","50581","0.0-21.0","3E7TUJ2EGD8N956IANB6XAANXNRD9T","A2DLV3WN24WTDS","3A3KKYU7P33Z3BR9PPFZ5194ZCQMWU","","null","<img src=""img/land3.png"" style=""width:200px;border:14px solid red;"">","null","","","","","","","",""
"","image-keyboard-response","17","50691","0.0-23.0","3E7TUJ2EGD8N956IANB6XAANXNRD9T","A2DLV3WN24WTDS","3A3KKYU7P33Z3BR9PPFZ5194ZCQMWU","","108.80000001192093","img/land1.png","75","109.5","2","0","false","3","1,0.5,0.5,0.5,1,0.5,0.5,0.5,1","",""
"","html-keyboard-response","18","50992","0.0-24.0","3E7TUJ2EGD8N956IANB6XAANXNRD9T","A2DLV3WN24WTDS","3A3KKYU7P33Z3BR9PPFZ5194ZCQMWU","","null","<img src=""img/land1.png"" style=""width:200px;border:14px solid red;"">","null","","","","","","","",""
"","image-keyboard-response","19","51036","0.0-26.0","3E7TUJ2EGD8N956IANB6XAANXNRD9T","A2DLV3WN24WTDS","3A3KKYU7P33Z3BR9PPFZ5194ZCQMWU","","42.60000002384186","img/land1.png","76","43.89999997615814","3","1","false","3","1,0.5,0.5,0.5,1,0.5,0.5,0.5,1","",""
"","html-keyboard-response","20","51338","0.0-27.0","3E7TUJ2EGD8N956IANB6XAANXNRD9T","A2DLV3WN24WTDS","3A3KKYU7P33Z3BR9PPFZ5194ZCQMWU","","null","<img src=""img/land1.png"" style=""width:200px; border:14px solid green;"">","null","","","","","","","",""
"","image-keyboard-response","21","51567","0.0-29.0","3E7TUJ2EGD8N956IANB6XAANXNRD9T","A2DLV3WN24WTDS","3A3KKYU7P33Z3BR9PPFZ5194ZCQMWU","","226.5","img/land1.png","76","228.20000004768372","3","1","false","3","1,0.5,0.5,0.5,1,0.5,0.5,0.5,1","",""
"","html-keyboard-response","22","51870","0.0-30.0","3E7TUJ2EGD8N956IANB6XAANXNRD9T","A2DLV3WN24WTDS","3A3KKYU7P33Z3BR9PPFZ5194ZCQMWU","","null","<img src=""img/land1.png"" style=""width:200px; border:14px solid green;"">","null","","","","","","","",""
"","image-keyboard-response","23","51934","0.0-32.0","3E7TUJ2EGD8N956IANB6XAANXNRD9T","A2DLV3WN24WTDS","3A3KKYU7P33Z3BR9PPFZ5194ZCQMWU","","62.30000001192093","img/land3.png","74","63.700000047683716","1","1","false","1","1,0.5,0.5,0.5,1,0.5,0.5,0.5,1","",""
"","html-keyboard-response","24","52236","0.0-33.0","3E7TUJ2EGD8N956IANB6XAANXNRD9T","A2DLV3WN24WTDS","3A3KKYU7P33Z3BR9PPFZ5194ZCQMWU","","null","<img src=""img/land3.png"" style=""width:200px; border:14px solid green;"">","null","","","","","","","",""
"","image-keyboard-response","25","52278","0.0-35.0","3E7TUJ2EGD8N956IANB6XAANXNRD9T","A2DLV3WN24WTDS","3A3KKYU7P33Z3BR9PPFZ5194ZCQMWU","","41","img/land3.png","75","42.19999998807907","2","0","false","1","1,0.5,0.5,0.5,1,0.5,0.5,0.5,1","",""
"","html-keyboard-response","26","52580","0.0-36.0","3E7TUJ2EGD8N956IANB6XAANXNRD9T","A2DLV3WN24WTDS","3A3KKYU7P33Z3BR9PPFZ5194ZCQMWU","","null","<img src=""img/land3.png"" style=""width:200px;border:14px solid red;"">","null","","","","","","","",""
"","image-keyboard-response","27","52676","0.0-38.0","3E7TUJ2EGD8N956IANB6XAANXNRD9T","A2DLV3WN24WTDS","3A3KKYU7P33Z3BR9PPFZ5194ZCQMWU","","94.29999995231628","img/land3.png","74","95.39999997615814","1","1","false","1","1,0.5,0.5,0.5,1,0.5,0.5,0.5,1","",""
"","html-keyboard-response","28","52978","0.0-39.0","3E7TUJ2EGD8N956IANB6XAANXNRD9T","A2DLV3WN24WTDS","3A3KKYU7P33Z3BR9PPFZ5194ZCQMWU","","null","<img src=""img/land3.png"" style=""width:200px; border:14px solid green;"">","null","","","","","","","",""
"","image-keyboard-response","29","53319","0.0-41.0","3E7TUJ2EGD8N956IANB6XAANXNRD9T","A2DLV3WN24WTDS","3A3KKYU7P33Z3BR9PPFZ5194ZCQMWU","","338.5","img/land5.png","76","339.60000002384186","3","0","false","2","1,0.5,0.5,0.5,1,0.5,0.5,0.5,1","",""
"","html-keyboard-response","30","53622","0.0-42.0","3E7TUJ2EGD8N956IANB6XAANXNRD9T","A2DLV3WN24WTDS","3A3KKYU7P33Z3BR9PPFZ5194ZCQMWU","","null","<img src=""img/land5.png"" style=""width:200px;border:14px solid red;"">","null","","","","","","","",""
"","image-keyboard-response","31","53700","0.0-44.0","3E7TUJ2EGD8N956IANB6XAANXNRD9T","A2DLV3WN24WTDS","3A3KKYU7P33Z3BR9PPFZ5194ZCQMWU","","75.80000001192093","img/land3.png","75","76.90000003576279","2","1","false","1","1,0.5,0.5,0.5,1,0.5,0.5,0.5,1","",""
"","html-keyboard-response","32","54002","0.0-45.0","3E7TUJ2EGD8N956IANB6XAANXNRD9T","A2DLV3WN24WTDS","3A3KKYU7P33Z3BR9PPFZ5194ZCQMWU","","null","<img src=""img/land3.png"" style=""width:200px; border:14px solid green;"">","null","","","","","","","",""
"","image-keyboard-response","33","54091","0.0-47.0","3E7TUJ2EGD8N956IANB6XAANXNRD9T","A2DLV3WN24WTDS","3A3KKYU7P33Z3BR9PPFZ5194ZCQMWU","","87","img/land1.png","74","88","1","0","false","3","1,0.5,0.5,0.5,1,0.5,0.5,0.5,1","",""
"","html-keyboard-response","34","54394","0.0-48.0","3E7TUJ2EGD8N956IANB6XAANXNRD9T","A2DLV3WN24WTDS","3A3KKYU7P33Z3BR9PPFZ5194ZCQMWU","","null","<img src=""img/land1.png"" style=""width:200px;border:14px solid red;"">","null","","","","","","","",""
"","image-keyboard-response","35","54501","0.0-50.0","3E7TUJ2EGD8N956IANB6XAANXNRD9T","A2DLV3WN24WTDS","3A3KKYU7P33Z3BR9PPFZ5194ZCQMWU","","105.39999997615814","img/land1.png","75","106.90000003576279","2","1","false","3","1,0.5,0.5,0.5,1,0.5,0.5,0.5,1","",""
"","html-keyboard-response","36","54811","0.0-51.0","3E7TUJ2EGD8N956IANB6XAANXNRD9T","A2DLV3WN24WTDS","3A3KKYU7P33Z3BR9PPFZ5194ZCQMWU","","null","<img src=""img/land1.png"" style=""width:200px; border:14px solid green;"">","null","","","","","","","",""
"","image-keyboard-response","37","54900","0.0-53.0","3E7TUJ2EGD8N956IANB6XAANXNRD9T","A2DLV3WN24WTDS","3A3KKYU7P33Z3BR9PPFZ5194ZCQMWU","","87.09999996423721","img/land3.png","75","88.5","2","0","false","1","1,0.5,0.5,0.5,1,0.5,0.5,0.5,1","",""
"","html-keyboard-response","38","55203","0.0-54.0","3E7TUJ2EGD8N956IANB6XAANXNRD9T","A2DLV3WN24WTDS","3A3KKYU7P33Z3BR9PPFZ5194ZCQMWU","","null","<img src=""img/land3.png"" style=""width:200px;border:14px solid red;"">","null","","","","","","","",""
"","image-keyboard-response","39","55261","0.0-56.0","3E7TUJ2EGD8N956IANB6XAANXNRD9T","A2DLV3WN24WTDS","3A3KKYU7P33Z3BR9PPFZ5194ZCQMWU","","55.59999996423721","img/land5.png","76","56.80000001192093","3","1","false","2","1,0.5,0.5,0.5,1,0.5,0.5,0.5,1","",""
"","html-keyboard-response","40","55563","0.0-57.0","3E7TUJ2EGD8N956IANB6XAANXNRD9T","A2DLV3WN24WTDS","3A3KKYU7P33Z3BR9PPFZ5194ZCQMWU","","null","<img src=""img/land5.png"" style=""width:200px; border:14px solid green;"">","null","","","","","","","",""
"","image-keyboard-response","41","55817","0.0-59.0","3E7TUJ2EGD8N956IANB6XAANXNRD9T","A2DLV3WN24WTDS","3A3KKYU7P33Z3BR9PPFZ5194ZCQMWU","","252.79999995231628","img/land3.png","76","253.80000001192093","3","1","false","1","1,0.5,0.5,0.5,1,0.5,0.5,0.5,1","",""
"","html-keyboard-response","42","56126","0.0-60.0","3E7TUJ2EGD8N956IANB6XAANXNRD9T","A2DLV3WN24WTDS","3A3KKYU7P33Z3BR9PPFZ5194ZCQMWU","","null","<img src=""img/land3.png"" style=""width:200px; border:14px solid green;"">","null","","","","","","","",""
"","image-keyboard-response","43","56370","0.0-62.0","3E7TUJ2EGD8N956IANB6XAANXNRD9T","A2DLV3WN24WTDS","3A3KKYU7P33Z3BR9PPFZ5194ZCQMWU","","242.39999997615814","img/land3.png","74","243.4000000357628","1","1","false","1","1,0.5,0.5,0.5,1,0.5,0.5,0.5,1","",""
"","html-keyboard-response","44","56672","0.0-63.0","3E7TUJ2EGD8N956IANB6XAANXNRD9T","A2DLV3WN24WTDS","3A3KKYU7P33Z3BR9PPFZ5194ZCQMWU","","null","<img src=""img/land3.png"" style=""width:200px; border:14px solid green;"">","null","","","","","","","",""
"","image-keyboard-response","45","56943","0.0-65.0","3E7TUJ2EGD8N956IANB6XAANXNRD9T","A2DLV3WN24WTDS","3A3KKYU7P33Z3BR9PPFZ5194ZCQMWU","","269.5","img/land3.png","74","270.9000000357628","1","1","false","1","1,0.5,0.5,0.5,1,0.5,0.5,0.5,1","",""
"","html-keyboard-response","46","57246","0.0-66.0","3E7TUJ2EGD8N956IANB6XAANXNRD9T","A2DLV3WN24WTDS","3A3KKYU7P33Z3BR9PPFZ5194ZCQMWU","","null","<img src=""img/land3.png"" style=""width:200px; border:14px solid green;"">","null","","","","","","","",""
"","image-keyboard-response","47","57386","0.0-68.0","3E7TUJ2EGD8N956IANB6XAANXNRD9T","A2DLV3WN24WTDS","3A3KKYU7P33Z3BR9PPFZ5194ZCQMWU","","138.10000002384186","img/land5.png","75","139.39999997615814","2","1","false","2","1,0.5,0.5,0.5,1,0.5,0.5,0.5,1","",""
"","html-keyboard-response","48","57688","0.0-69.0","3E7TUJ2EGD8N956IANB6XAANXNRD9T","A2DLV3WN24WTDS","3A3KKYU7P33Z3BR9PPFZ5194ZCQMWU","","null","<img src=""img/land5.png"" style=""width:200px; border:14px solid green;"">","null","","","","","","","",""
"","image-keyboard-response","49","57821","0.0-71.0","3E7TUJ2EGD8N956IANB6XAANXNRD9T","A2DLV3WN24WTDS","3A3KKYU7P33Z3BR9PPFZ5194ZCQMWU","","131","img/land5.png","75","132.19999998807907","2","1","false","2","1,0.5,0.5,0.5,1,0.5,0.5,0.5,1","",""
"","html-keyboard-response","50","58124","0.0-72.0","3E7TUJ2EGD8N956IANB6XAANXNRD9T","A2DLV3WN24WTDS","3A3KKYU7P33Z3BR9PPFZ5194ZCQMWU","","null","<img src=""img/land5.png"" style=""width:200px; border:14px solid green;"">","null","","","","","","","",""
"","image-keyboard-response","51","58173","0.0-74.0","3E7TUJ2EGD8N956IANB6XAANXNRD9T","A2DLV3WN24WTDS","3A3KKYU7P33Z3BR9PPFZ5194ZCQMWU","","47.5","img/land5.png","76","48.700000047683716","3","1","false","2","1,0.5,0.5,0.5,1,0.5,0.5,0.5,1","",""
"","html-keyboard-response","52","58476","0.0-75.0","3E7TUJ2EGD8N956IANB6XAANXNRD9T","A2DLV3WN24WTDS","3A3KKYU7P33Z3BR9PPFZ5194ZCQMWU","","null","<img src=""img/land5.png"" style=""width:200px; border:14px solid green;"">","null","","","","","","","",""
"","image-keyboard-response","53","58760","0.0-77.0","3E7TUJ2EGD8N956IANB6XAANXNRD9T","A2DLV3WN24WTDS","3A3KKYU7P33Z3BR9PPFZ5194ZCQMWU","","282.80000001192093","img/land5.png","76","284.10000002384186","3","1","false","2","1,0.5,0.5,0.5,1,0.5,0.5,0.5,1","",""
"","html-keyboard-response","54","59063","0.0-78.0","3E7TUJ2EGD8N956IANB6XAANXNRD9T","A2DLV3WN24WTDS","3A3KKYU7P33Z3BR9PPFZ5194ZCQMWU","","null","<img src=""img/land5.png"" style=""width:200px; border:14px solid green;"">","null","","","","","","","",""
"","image-keyboard-response","55","59169","0.0-80.0","3E7TUJ2EGD8N956IANB6XAANXNRD9T","A2DLV3WN24WTDS","3A3KKYU7P33Z3BR9PPFZ5194ZCQMWU","","103.80000001192093","img/land1.png","75","105.09999996423721","2","1","false","3","1,0.5,0.5,0.5,1,0.5,0.5,0.5,1","",""
"","html-keyboard-response","56","59471","0.0-81.0","3E7TUJ2EGD8N956IANB6XAANXNRD9T","A2DLV3WN24WTDS","3A3KKYU7P33Z3BR9PPFZ5194ZCQMWU","","null","<img src=""img/land1.png"" style=""width:200px; border:14px solid green;"">","null","","","","","","","",""
"","image-keyboard-response","57","59542","0.0-83.0","3E7TUJ2EGD8N956IANB6XAANXNRD9T","A2DLV3WN24WTDS","3A3KKYU7P33Z3BR9PPFZ5194ZCQMWU","","69.40000003576279","img/land5.png","75","70.79999995231628","2","1","false","2","1,0.5,0.5,0.5,1,0.5,0.5,0.5,1","",""
"","html-keyboard-response","58","59845","0.0-84.0","3E7TUJ2EGD8N956IANB6XAANXNRD9T","A2DLV3WN24WTDS","3A3KKYU7P33Z3BR9PPFZ5194ZCQMWU","","null","<img src=""img/land5.png"" style=""width:200px; border:14px solid green;"">","null","","","","","","","",""
"","image-keyboard-response","59","59914","0.0-86.0","3E7TUJ2EGD8N956IANB6XAANXNRD9T","A2DLV3WN24WTDS","3A3KKYU7P33Z3BR9PPFZ5194ZCQMWU","","66.69999998807907","img/land3.png","74","67.89999997615814","1","1","false","1","1,0.5,0.5,0.5,1,0.5,0.5,0.5,1","",""
"","html-keyboard-response","60","60216","0.0-87.0","3E7TUJ2EGD8N956IANB6XAANXNRD9T","A2DLV3WN24WTDS","3A3KKYU7P33Z3BR9PPFZ5194ZCQMWU","","null","<img src=""img/land3.png"" style=""width:200px; border:14px solid green;"">","null","","","","","","","",""
"","image-keyboard-response","61","60296","0.0-89.0","3E7TUJ2EGD8N956IANB6XAANXNRD9T","A2DLV3WN24WTDS","3A3KKYU7P33Z3BR9PPFZ5194ZCQMWU","","78.39999997615814","img/land3.png","75","79.39999997615814","2","0","false","1","1,0.5,0.5,0.5,1,0.5,0.5,0.5,1","",""
"","html-keyboard-response","62","60598","0.0-90.0","3E7TUJ2EGD8N956IANB6XAANXNRD9T","A2DLV3WN24WTDS","3A3KKYU7P33Z3BR9PPFZ5194ZCQMWU","","null","<img src=""img/land3.png"" style=""width:200px;border:14px solid red;"">","null","","","","","","","",""
"","image-keyboard-response","63","60789","0.0-92.0","3E7TUJ2EGD8N956IANB6XAANXNRD9T","A2DLV3WN24WTDS","3A3KKYU7P33Z3BR9PPFZ5194ZCQMWU","","189.4000000357628","img/land3.png","74","190.39999997615814","1","1","false","1","1,0.5,0.5,0.5,1,0.5,0.5,0.5,1","",""
"","html-keyboard-response","64","61091","0.0-93.0","3E7TUJ2EGD8N956IANB6XAANXNRD9T","A2DLV3WN24WTDS","3A3KKYU7P33Z3BR9PPFZ5194ZCQMWU","","null","<img src=""img/land3.png"" style=""width:200px; border:14px solid green;"">","null","","","","","","","",""
"","image-keyboard-response","65","61103","0.0-95.0","3E7TUJ2EGD8N956IANB6XAANXNRD9T","A2DLV3WN24WTDS","3A3KKYU7P33Z3BR9PPFZ5194ZCQMWU","","9.099999964237213","img/land5.png","74","10.600000023841858","1","1","false","2","1,0.5,0.5,0.5,1,0.5,0.5,0.5,1","",""
"","html-keyboard-response","66","61405","0.0-96.0","3E7TUJ2EGD8N956IANB6XAANXNRD9T","A2DLV3WN24WTDS","3A3KKYU7P33Z3BR9PPFZ5194ZCQMWU","","null","<img src=""img/land5.png"" style=""width:200px; border:14px solid green;"">","null","","","","","","","",""
"","image-keyboard-response","67","61472","0.0-98.0","3E7TUJ2EGD8N956IANB6XAANXNRD9T","A2DLV3WN24WTDS","3A3KKYU7P33Z3BR9PPFZ5194ZCQMWU","","64.69999998807907","img/land5.png","74","66","1","1","false","2","1,0.5,0.5,0.5,1,0.5,0.5,0.5,1","",""
"","html-keyboard-response","68","61774","0.0-99.0","3E7TUJ2EGD8N956IANB6XAANXNRD9T","A2DLV3WN24WTDS","3A3KKYU7P33Z3BR9PPFZ5194ZCQMWU","","null","<img src=""img/land5.png"" style=""width:200px; border:14px solid green;"">","null","","","","","","","",""
"","image-keyboard-response","69","61840","0.0-101.0","3E7TUJ2EGD8N956IANB6XAANXNRD9T","A2DLV3WN24WTDS","3A3KKYU7P33Z3BR9PPFZ5194ZCQMWU","","63.60000002384186","img/land3.png","74","64.89999997615814","1","1","false","1","1,0.5,0.5,0.5,1,0.5,0.5,0.5,1","",""
"","html-keyboard-response","70","62141","0.0-102.0","3E7TUJ2EGD8N956IANB6XAANXNRD9T","A2DLV3WN24WTDS","3A3KKYU7P33Z3BR9PPFZ5194ZCQMWU","","null","<img src=""img/land3.png"" style=""width:200px; border:14px solid green;"">","null","","","","","","","",""
"","image-keyboard-response","71","62333","0.0-104.0","3E7TUJ2EGD8N956IANB6XAANXNRD9T","A2DLV3WN24WTDS","3A3KKYU7P33Z3BR9PPFZ5194ZCQMWU","","189.80000001192093","img/land1.png","76","191","3","1","false","3","1,0.5,0.5,0.5,1,0.5,0.5,0.5,1","",""
"","html-keyboard-response","72","62636","0.0-105.0","3E7TUJ2EGD8N956IANB6XAANXNRD9T","A2DLV3WN24WTDS","3A3KKYU7P33Z3BR9PPFZ5194ZCQMWU","","null","<img src=""img/land1.png"" style=""width:200px; border:14px solid green;"">","null","","","","","","","",""
"","image-keyboard-response","73","62660","0.0-107.0","3E7TUJ2EGD8N956IANB6XAANXNRD9T","A2DLV3WN24WTDS","3A3KKYU7P33Z3BR9PPFZ5194ZCQMWU","","21.80000001192093","img/land5.png","75","23","2","1","false","2","1,0.5,0.5,0.5,1,0.5,0.5,0.5,1","",""
"","html-keyboard-response","74","62961","0.0-108.0","3E7TUJ2EGD8N956IANB6XAANXNRD9T","A2DLV3WN24WTDS","3A3KKYU7P33Z3BR9PPFZ5194ZCQMWU","","null","<img src=""img/land5.png"" style=""width:200px; border:14px solid green;"">","null","","","","","","","",""
"","image-keyboard-response","75","63046","0.0-110.0","3E7TUJ2EGD8N956IANB6XAANXNRD9T","A2DLV3WN24WTDS","3A3KKYU7P33Z3BR9PPFZ5194ZCQMWU","","83.09999996423721","img/land3.png","74","84.19999998807907","1","1","false","1","1,0.5,0.5,0.5,1,0.5,0.5,0.5,1","",""
"","html-keyboard-response","76","63348","0.0-111.0","3E7TUJ2EGD8N956IANB6XAANXNRD9T","A2DLV3WN24WTDS","3A3KKYU7P33Z3BR9PPFZ5194ZCQMWU","","null","<img src=""img/land3.png"" style=""width:200px; border:14px solid green;"">","null","","","","","","","",""
"","image-keyboard-response","77","63399","0.0-113.0","3E7TUJ2EGD8N956IANB6XAANXNRD9T","A2DLV3WN24WTDS","3A3KKYU7P33Z3BR9PPFZ5194ZCQMWU","","48.700000047683716","img/land5.png","74","49.90000003576279","1","1","false","2","1,0.5,0.5,0.5,1,0.5,0.5,0.5,1","",""
"","html-keyboard-response","78","63702","0.0-114.0","3E7TUJ2EGD8N956IANB6XAANXNRD9T","A2DLV3WN24WTDS","3A3KKYU7P33Z3BR9PPFZ5194ZCQMWU","","null","<img src=""img/land5.png"" style=""width:200px; border:14px solid green;"">","null","","","","","","","",""
"","image-keyboard-response","79","63777","0.0-116.0","3E7TUJ2EGD8N956IANB6XAANXNRD9T","A2DLV3WN24WTDS","3A3KKYU7P33Z3BR9PPFZ5194ZCQMWU","","72.59999996423721","img/land3.png","76","73.60000002384186","3","1","false","1","1,0.5,0.5,0.5,1,0.5,0.5,0.5,1","",""
"","html-keyboard-response","80","64081","0.0-117.0","3E7TUJ2EGD8N956IANB6XAANXNRD9T","A2DLV3WN24WTDS","3A3KKYU7P33Z3BR9PPFZ5194ZCQMWU","","null","<img src=""img/land3.png"" style=""width:200px; border:14px solid green;"">","null","","","","","","","",""
"","image-keyboard-response","81","64217","0.0-119.0","3E7TUJ2EGD8N956IANB6XAANXNRD9T","A2DLV3WN24WTDS","3A3KKYU7P33Z3BR9PPFZ5194ZCQMWU","","134.89999997615814","img/land5.png","75","135.9000000357628","2","1","false","2","1,0.5,0.5,0.5,1,0.5,0.5,0.5,1","",""
"","html-keyboard-response","82","64519","0.0-120.0","3E7TUJ2EGD8N956IANB6XAANXNRD9T","A2DLV3WN24WTDS","3A3KKYU7P33Z3BR9PPFZ5194ZCQMWU","","null","<img src=""img/land5.png"" style=""width:200px; border:14px solid green;"">","null","","","","","","","",""
"","image-keyboard-response","83","64600","0.0-122.0","3E7TUJ2EGD8N956IANB6XAANXNRD9T","A2DLV3WN24WTDS","3A3KKYU7P33Z3BR9PPFZ5194ZCQMWU","","79.10000002384186","img/land1.png","75","80.30000001192093","2","0","false","3","1,0.5,0.5,0.5,1,0.5,0.5,0.5,1","",""
"","html-keyboard-response","84","64902","0.0-123.0","3E7TUJ2EGD8N956IANB6XAANXNRD9T","A2DLV3WN24WTDS","3A3KKYU7P33Z3BR9PPFZ5194ZCQMWU","","null","<img src=""img/land1.png"" style=""width:200px;border:14px solid red;"">","null","","","","","","","",""
"","image-keyboard-response","85","64933","0.0-125.0","3E7TUJ2EGD8N956IANB6XAANXNRD9T","A2DLV3WN24WTDS","3A3KKYU7P33Z3BR9PPFZ5194ZCQMWU","","28.599999964237213","img/land1.png","74","29.600000023841858","1","0","false","3","1,0.5,0.5,0.5,1,0.5,0.5,0.5,1","",""
"","html-keyboard-response","86","65236","0.0-126.0","3E7TUJ2EGD8N956IANB6XAANXNRD9T","A2DLV3WN24WTDS","3A3KKYU7P33Z3BR9PPFZ5194ZCQMWU","","null","<img src=""img/land1.png"" style=""width:200px;border:14px solid red;"">","null","","","","","","","",""
"","image-keyboard-response","87","65440","0.0-128.0","3E7TUJ2EGD8N956IANB6XAANXNRD9T","A2DLV3WN24WTDS","3A3KKYU7P33Z3BR9PPFZ5194ZCQMWU","","202.60000002384186","img/land5.png","74","204","1","0","false","2","1,0.5,0.5,0.5,1,0.5,0.5,0.5,1","",""
"","html-keyboard-response","88","65743","0.0-129.0","3E7TUJ2EGD8N956IANB6XAANXNRD9T","A2DLV3WN24WTDS","3A3KKYU7P33Z3BR9PPFZ5194ZCQMWU","","null","<img src=""img/land5.png"" style=""width:200px;border:14px solid red;"">","null","","","","","","","",""
"","image-keyboard-response","89","65967","0.0-131.0","3E7TUJ2EGD8N956IANB6XAANXNRD9T","A2DLV3WN24WTDS","3A3KKYU7P33Z3BR9PPFZ5194ZCQMWU","","222.29999995231628","img/land1.png","74","223.30000001192093","1","1","false","3","1,0.5,0.5,0.5,1,0.5,0.5,0.5,1","",""
"","html-keyboard-response","90","66269","0.0-132.0","3E7TUJ2EGD8N956IANB6XAANXNRD9T","A2DLV3WN24WTDS","3A3KKYU7P33Z3BR9PPFZ5194ZCQMWU","","null","<img src=""img/land1.png"" style=""width:200px; border:14px solid green;"">","null","","","","","","","",""
"","image-keyboard-response","91","66304","0.0-134.0","3E7TUJ2EGD8N956IANB6XAANXNRD9T","A2DLV3WN24WTDS","3A3KKYU7P33Z3BR9PPFZ5194ZCQMWU","","33.89999997615814","img/land1.png","75","35","2","0","false","3","1,0.5,0.5,0.5,1,0.5,0.5,0.5,1","",""
"","html-keyboard-response","92","66607","0.0-135.0","3E7TUJ2EGD8N956IANB6XAANXNRD9T","A2DLV3WN24WTDS","3A3KKYU7P33Z3BR9PPFZ5194ZCQMWU","","null","<img src=""img/land1.png"" style=""width:200px;border:14px solid red;"">","null","","","","","","","",""
"","image-keyboard-response","93","66683","0.0-137.0","3E7TUJ2EGD8N956IANB6XAANXNRD9T","A2DLV3WN24WTDS","3A3KKYU7P33Z3BR9PPFZ5194ZCQMWU","","73.89999997615814","img/land3.png","75","74.90000003576279","2","1","false","1","1,0.5,0.5,0.5,1,0.5,0.5,0.5,1","",""
"","html-keyboard-response","94","66985","0.0-138.0","3E7TUJ2EGD8N956IANB6XAANXNRD9T","A2DLV3WN24WTDS","3A3KKYU7P33Z3BR9PPFZ5194ZCQMWU","","null","<img src=""img/land3.png"" style=""width:200px; border:14px solid green;"">","null","","","","","","","",""
"","image-keyboard-response","95","67050","0.0-140.0","3E7TUJ2EGD8N956IANB6XAANXNRD9T","A2DLV3WN24WTDS","3A3KKYU7P33Z3BR9PPFZ5194ZCQMWU","","63.30000001192093","img/land5.png","76","64.60000002384186","3","0","false","2","1,0.5,0.5,0.5,1,0.5,0.5,0.5,1","",""
"","html-keyboard-response","96","67353","0.0-141.0","3E7TUJ2EGD8N956IANB6XAANXNRD9T","A2DLV3WN24WTDS","3A3KKYU7P33Z3BR9PPFZ5194ZCQMWU","","null","<img src=""img/land5.png"" style=""width:200px;border:14px solid red;"">","null","","","","","","","",""
"","image-keyboard-response","97","67411","0.0-143.0","3E7TUJ2EGD8N956IANB6XAANXNRD9T","A2DLV3WN24WTDS","3A3KKYU7P33Z3BR9PPFZ5194ZCQMWU","","56.5","img/land1.png","74","57.59999996423721","1","0","false","3","1,0.5,0.5,0.5,1,0.5,0.5,0.5,1","",""
"","html-keyboard-response","98","67713","0.0-144.0","3E7TUJ2EGD8N956IANB6XAANXNRD9T","A2DLV3WN24WTDS","3A3KKYU7P33Z3BR9PPFZ5194ZCQMWU","","null","<img src=""img/land1.png"" style=""width:200px;border:14px solid red;"">","null","","","","","","","",""
"","image-keyboard-response","99","67889","0.0-146.0","3E7TUJ2EGD8N956IANB6XAANXNRD9T","A2DLV3WN24WTDS","3A3KKYU7P33Z3BR9PPFZ5194ZCQMWU","","173.19999998807907","img/land3.png","74","175.39999997615814","1","1","false","1","1,0.5,0.5,0.5,1,0.5,0.5,0.5,1","",""
"","html-keyboard-response","100","68194","0.0-147.0","3E7TUJ2EGD8N956IANB6XAANXNRD9T","A2DLV3WN24WTDS","3A3KKYU7P33Z3BR9PPFZ5194ZCQMWU","","null","<img src=""img/land3.png"" style=""width:200px; border:14px solid green;"">","null","","","","","","","",""
"","image-keyboard-response","101","68626","0.0-149.0","3E7TUJ2EGD8N956IANB6XAANXNRD9T","A2DLV3WN24WTDS","3A3KKYU7P33Z3BR9PPFZ5194ZCQMWU","","430.30000001192093","img/land5.png","74","431.5","1","1","false","2","1,0.5,0.5,0.5,1,0.5,0.5,0.5,1","",""
"","html-keyboard-response","102","68929","0.0-150.0","3E7TUJ2EGD8N956IANB6XAANXNRD9T","A2DLV3WN24WTDS","3A3KKYU7P33Z3BR9PPFZ5194ZCQMWU","","null","<img src=""img/land5.png"" style=""width:200px; border:14px solid green;"">","null","","","","","","","",""
"","image-keyboard-response","103","69045","0.0-152.0","3E7TUJ2EGD8N956IANB6XAANXNRD9T","A2DLV3WN24WTDS","3A3KKYU7P33Z3BR9PPFZ5194ZCQMWU","","114.40000003576279","img/land1.png","74","115.69999998807907","1","1","false","3","1,0.5,0.5,0.5,1,0.5,0.5,0.5,1","",""
"","html-keyboard-response","104","69349","0.0-153.0","3E7TUJ2EGD8N956IANB6XAANXNRD9T","A2DLV3WN24WTDS","3A3KKYU7P33Z3BR9PPFZ5194ZCQMWU","","null","<img src=""img/land1.png"" style=""width:200px; border:14px solid green;"">","null","","","","","","","",""
"","image-keyboard-response","105","69502","0.0-155.0","3E7TUJ2EGD8N956IANB6XAANXNRD9T","A2DLV3WN24WTDS","3A3KKYU7P33Z3BR9PPFZ5194ZCQMWU","","151","img/land5.png","75","152.20000004768372","2","1","false","2","1,0.5,0.5,0.5,1,0.5,0.5,0.5,1","",""
"","html-keyboard-response","106","69804","0.0-156.0","3E7TUJ2EGD8N956IANB6XAANXNRD9T","A2DLV3WN24WTDS","3A3KKYU7P33Z3BR9PPFZ5194ZCQMWU","","null","<img src=""img/land5.png"" style=""width:200px; border:14px solid green;"">","null","","","","","","","",""
"","image-keyboard-response","107","70152","0.0-158.0","3E7TUJ2EGD8N956IANB6XAANXNRD9T","A2DLV3WN24WTDS","3A3KKYU7P33Z3BR9PPFZ5194ZCQMWU","","345.2999999523163","img/land1.png","76","346.7999999523163","3","1","false","3","1,0.5,0.5,0.5,1,0.5,0.5,0.5,1","",""
"","html-keyboard-response","108","70454","0.0-159.0","3E7TUJ2EGD8N956IANB6XAANXNRD9T","A2DLV3WN24WTDS","3A3KKYU7P33Z3BR9PPFZ5194ZCQMWU","","null","<img src=""img/land1.png"" style=""width:200px; border:14px solid green;"">","null","","","","","","","",""
"","image-keyboard-response","109","70700","0.0-161.0","3E7TUJ2EGD8N956IANB6XAANXNRD9T","A2DLV3WN24WTDS","3A3KKYU7P33Z3BR9PPFZ5194ZCQMWU","","243.89999997615814","img/land1.png","76","245.0999999642372","3","1","false","3","1,0.5,0.5,0.5,1,0.5,0.5,0.5,1","",""
"","html-keyboard-response","110","71003","0.0-162.0","3E7TUJ2EGD8N956IANB6XAANXNRD9T","A2DLV3WN24WTDS","3A3KKYU7P33Z3BR9PPFZ5194ZCQMWU","","null","<img src=""img/land1.png"" style=""width:200px; border:14px solid green;"">","null","","","","","","","",""
"","image-keyboard-response","111","71099","0.0-164.0","3E7TUJ2EGD8N956IANB6XAANXNRD9T","A2DLV3WN24WTDS","3A3KKYU7P33Z3BR9PPFZ5194ZCQMWU","","93.90000003576279","img/land1.png","76","95.30000001192093","3","1","false","3","1,0.5,0.5,0.5,1,0.5,0.5,0.5,1","",""
"","html-keyboard-response","112","71401","0.0-165.0","3E7TUJ2EGD8N956IANB6XAANXNRD9T","A2DLV3WN24WTDS","3A3KKYU7P33Z3BR9PPFZ5194ZCQMWU","","null","<img src=""img/land1.png"" style=""width:200px; border:14px solid green;"">","null","","","","","","","",""
"","image-keyboard-response","113","71494","0.0-167.0","3E7TUJ2EGD8N956IANB6XAANXNRD9T","A2DLV3WN24WTDS","3A3KKYU7P33Z3BR9PPFZ5194ZCQMWU","","90.90000003576279","img/land5.png","76","92.40000003576279","3","1","false","2","1,0.5,0.5,0.5,1,0.5,0.5,0.5,1","",""
"","html-keyboard-response","114","71796","0.0-168.0","3E7TUJ2EGD8N956IANB6XAANXNRD9T","A2DLV3WN24WTDS","3A3KKYU7P33Z3BR9PPFZ5194ZCQMWU","","null","<img src=""img/land5.png"" style=""width:200px; border:14px solid green;"">","null","","","","","","","",""
"","image-keyboard-response","115","72030","0.0-170.0","3E7TUJ2EGD8N956IANB6XAANXNRD9T","A2DLV3WN24WTDS","3A3KKYU7P33Z3BR9PPFZ5194ZCQMWU","","232.19999998807907","img/land5.png","76","233.29999995231628","3","1","false","2","1,0.5,0.5,0.5,1,0.5,0.5,0.5,1","",""
"","html-keyboard-response","116","72333","0.0-171.0","3E7TUJ2EGD8N956IANB6XAANXNRD9T","A2DLV3WN24WTDS","3A3KKYU7P33Z3BR9PPFZ5194ZCQMWU","","null","<img src=""img/land5.png"" style=""width:200px; border:14px solid green;"">","null","","","","","","","",""
"","image-keyboard-response","117","72494","0.0-173.0","3E7TUJ2EGD8N956IANB6XAANXNRD9T","A2DLV3WN24WTDS","3A3KKYU7P33Z3BR9PPFZ5194ZCQMWU","","159.10000002384186","img/land5.png","76","160.19999998807907","3","1","false","2","1,0.5,0.5,0.5,1,0.5,0.5,0.5,1","",""
"","html-keyboard-response","118","72796","0.0-174.0","3E7TUJ2EGD8N956IANB6XAANXNRD9T","A2DLV3WN24WTDS","3A3KKYU7P33Z3BR9PPFZ5194ZCQMWU","","null","<img src=""img/land5.png"" style=""width:200px; border:14px solid green;"">","null","","","","","","","",""
"","image-keyboard-response","119","72982","0.0-176.0","3E7TUJ2EGD8N956IANB6XAANXNRD9T","A2DLV3WN24WTDS","3A3KKYU7P33Z3BR9PPFZ5194ZCQMWU","","184.79999995231628","img/land1.png","76","185.89999997615814","3","1","false","3","1,0.5,0.5,0.5,1,0.5,0.5,0.5,1","",""
"","html-keyboard-response","120","73285","0.0-177.0","3E7TUJ2EGD8N956IANB6XAANXNRD9T","A2DLV3WN24WTDS","3A3KKYU7P33Z3BR9PPFZ5194ZCQMWU","","null","<img src=""img/land1.png"" style=""width:200px; border:14px solid green;"">","null","","","","","","","",""
"","image-keyboard-response","121","73461","0.0-179.0","3E7TUJ2EGD8N956IANB6XAANXNRD9T","A2DLV3WN24WTDS","3A3KKYU7P33Z3BR9PPFZ5194ZCQMWU","","174.9000000357628","img/land1.png","76","175.79999995231628","3","1","false","3","1,0.5,0.5,0.5,1,0.5,0.5,0.5,1","",""
"","html-keyboard-response","122","73763","0.0-180.0","3E7TUJ2EGD8N956IANB6XAANXNRD9T","A2DLV3WN24WTDS","3A3KKYU7P33Z3BR9PPFZ5194ZCQMWU","","null","<img src=""img/land1.png"" style=""width:200px; border:14px solid green;"">","null","","","","","","","",""
"","image-keyboard-response","123","73919","0.0-182.0","3E7TUJ2EGD8N956IANB6XAANXNRD9T","A2DLV3WN24WTDS","3A3KKYU7P33Z3BR9PPFZ5194ZCQMWU","","153.30000001192093","img/land5.png","76","155.69999998807907","3","0","false","2","1,0.5,0.5,0.5,1,0.5,0.5,0.5,1","",""
"","html-keyboard-response","124","74222","0.0-183.0","3E7TUJ2EGD8N956IANB6XAANXNRD9T","A2DLV3WN24WTDS","3A3KKYU7P33Z3BR9PPFZ5194ZCQMWU","","null","<img src=""img/land5.png"" style=""width:200px;border:14px solid red;"">","null","","","","","","","",""
"","image-keyboard-response","125","74624","0.0-185.0","3E7TUJ2EGD8N956IANB6XAANXNRD9T","A2DLV3WN24WTDS","3A3KKYU7P33Z3BR9PPFZ5194ZCQMWU","","400.39999997615814","img/land5.png","75","401.5","2","1","false","2","1,0.5,0.5,0.5,1,0.5,0.5,0.5,1","",""
"","html-keyboard-response","126","74927","0.0-186.0","3E7TUJ2EGD8N956IANB6XAANXNRD9T","A2DLV3WN24WTDS","3A3KKYU7P33Z3BR9PPFZ5194ZCQMWU","","null","<img src=""img/land5.png"" style=""width:200px; border:14px solid green;"">","null","","","","","","","",""
"","image-keyboard-response","127","75129","0.0-188.0","3E7TUJ2EGD8N956IANB6XAANXNRD9T","A2DLV3WN24WTDS","3A3KKYU7P33Z3BR9PPFZ5194ZCQMWU","","200.80000001192093","img/land3.png","75","202.0999999642372","2","1","false","1","1,0.5,0.5,0.5,1,0.5,0.5,0.5,1","",""
"","html-keyboard-response","128","75432","0.0-189.0","3E7TUJ2EGD8N956IANB6XAANXNRD9T","A2DLV3WN24WTDS","3A3KKYU7P33Z3BR9PPFZ5194ZCQMWU","","null","<img src=""img/land3.png"" style=""width:200px; border:14px solid green;"">","null","","","","","","","",""
"","image-keyboard-response","129","75627","0.0-191.0","3E7TUJ2EGD8N956IANB6XAANXNRD9T","A2DLV3WN24WTDS","3A3KKYU7P33Z3BR9PPFZ5194ZCQMWU","","193.10000002384186","img/land5.png","75","194.9000000357628","2","1","false","2","1,0.5,0.5,0.5,1,0.5,0.5,0.5,1","",""
"","html-keyboard-response","130","75930","0.0-192.0","3E7TUJ2EGD8N956IANB6XAANXNRD9T","A2DLV3WN24WTDS","3A3KKYU7P33Z3BR9PPFZ5194ZCQMWU","","null","<img src=""img/land5.png"" style=""width:200px; border:14px solid green;"">","null","","","","","","","",""
"","image-keyboard-response","131","76121","0.0-194.0","3E7TUJ2EGD8N956IANB6XAANXNRD9T","A2DLV3WN24WTDS","3A3KKYU7P33Z3BR9PPFZ5194ZCQMWU","","189","img/land3.png","75","190.10000002384186","2","1","false","1","1,0.5,0.5,0.5,1,0.5,0.5,0.5,1","",""
"","html-keyboard-response","132","76422","0.0-195.0","3E7TUJ2EGD8N956IANB6XAANXNRD9T","A2DLV3WN24WTDS","3A3KKYU7P33Z3BR9PPFZ5194ZCQMWU","","null","<img src=""img/land3.png"" style=""width:200px; border:14px solid green;"">","null","","","","","","","",""
"","image-keyboard-response","133","76628","0.0-197.0","3E7TUJ2EGD8N956IANB6XAANXNRD9T","A2DLV3WN24WTDS","3A3KKYU7P33Z3BR9PPFZ5194ZCQMWU","","204.19999998807907","img/land1.png","75","205.30000001192093","2","1","false","3","1,0.5,0.5,0.5,1,0.5,0.5,0.5,1","",""
"","html-keyboard-response","134","76930","0.0-198.0","3E7TUJ2EGD8N956IANB6XAANXNRD9T","A2DLV3WN24WTDS","3A3KKYU7P33Z3BR9PPFZ5194ZCQMWU","","null","<img src=""img/land1.png"" style=""width:200px; border:14px solid green;"">","null","","","","","","","",""
"","image-keyboard-response","135","77079","0.0-200.0","3E7TUJ2EGD8N956IANB6XAANXNRD9T","A2DLV3WN24WTDS","3A3KKYU7P33Z3BR9PPFZ5194ZCQMWU","","146","img/land3.png","75","148","2","0","false","1","1,0.5,0.5,0.5,1,0.5,0.5,0.5,1","",""
"","html-keyboard-response","136","77381","0.0-201.0","3E7TUJ2EGD8N956IANB6XAANXNRD9T","A2DLV3WN24WTDS","3A3KKYU7P33Z3BR9PPFZ5194ZCQMWU","","null","<img src=""img/land3.png"" style=""width:200px;border:14px solid red;"">","null","","","","","","","",""
"","image-keyboard-response","137","77728","0.0-203.0","3E7TUJ2EGD8N956IANB6XAANXNRD9T","A2DLV3WN24WTDS","3A3KKYU7P33Z3BR9PPFZ5194ZCQMWU","","345.10000002384186","img/land1.png","74","346.30000001192093","1","0","false","3","1,0.5,0.5,0.5,1,0.5,0.5,0.5,1","",""
"","html-keyboard-response","138","78031","0.0-204.0","3E7TUJ2EGD8N956IANB6XAANXNRD9T","A2DLV3WN24WTDS","3A3KKYU7P33Z3BR9PPFZ5194ZCQMWU","","null","<img src=""img/land1.png"" style=""width:200px;border:14px solid red;"">","null","","","","","","","",""
"","image-keyboard-response","139","78410","0.0-206.0","3E7TUJ2EGD8N956IANB6XAANXNRD9T","A2DLV3WN24WTDS","3A3KKYU7P33Z3BR9PPFZ5194ZCQMWU","","377.60000002384186","img/land5.png","74","379","1","1","false","2","1,0.5,0.5,0.5,1,0.5,0.5,0.5,1","",""
"","html-keyboard-response","140","78713","0.0-207.0","3E7TUJ2EGD8N956IANB6XAANXNRD9T","A2DLV3WN24WTDS","3A3KKYU7P33Z3BR9PPFZ5194ZCQMWU","","null","<img src=""img/land5.png"" style=""width:200px; border:14px solid green;"">","null","","","","","","","",""
"","image-keyboard-response","141","78794","0.0-209.0","3E7TUJ2EGD8N956IANB6XAANXNRD9T","A2DLV3WN24WTDS","3A3KKYU7P33Z3BR9PPFZ5194ZCQMWU","","79.69999998807907","img/land3.png","76","80.80000001192093","3","0","false","1","1,0.5,0.5,0.5,1,0.5,0.5,0.5,1","",""
"","html-keyboard-response","142","79097","0.0-210.0","3E7TUJ2EGD8N956IANB6XAANXNRD9T","A2DLV3WN24WTDS","3A3KKYU7P33Z3BR9PPFZ5194ZCQMWU","","null","<img src=""img/land3.png"" style=""width:200px;border:14px solid red;"">","null","","","","","","","",""
"","image-keyboard-response","143","79186","0.0-212.0","3E7TUJ2EGD8N956IANB6XAANXNRD9T","A2DLV3WN24WTDS","3A3KKYU7P33Z3BR9PPFZ5194ZCQMWU","","87.5","img/land3.png","76","88.60000002384186","3","0","false","1","1,0.5,0.5,0.5,1,0.5,0.5,0.5,1","",""
"","html-keyboard-response","144","79488","0.0-213.0","3E7TUJ2EGD8N956IANB6XAANXNRD9T","A2DLV3WN24WTDS","3A3KKYU7P33Z3BR9PPFZ5194ZCQMWU","","null","<img src=""img/land3.png"" style=""width:200px;border:14px solid red;"">","null","","","","","","","",""
"","image-keyboard-response","145","79558","0.0-215.0","3E7TUJ2EGD8N956IANB6XAANXNRD9T","A2DLV3WN24WTDS","3A3KKYU7P33Z3BR9PPFZ5194ZCQMWU","","67.59999996423721","img/land5.png","74","68.80000001192093","1","1","false","2","1,0.5,0.5,0.5,1,0.5,0.5,0.5,1","",""
"","html-keyboard-response","146","79859","0.0-216.0","3E7TUJ2EGD8N956IANB6XAANXNRD9T","A2DLV3WN24WTDS","3A3KKYU7P33Z3BR9PPFZ5194ZCQMWU","","null","<img src=""img/land5.png"" style=""width:200px; border:14px solid green;"">","null","","","","","","","",""
"","image-keyboard-response","147","80010","0.0-218.0","3E7TUJ2EGD8N956IANB6XAANXNRD9T","A2DLV3WN24WTDS","3A3KKYU7P33Z3BR9PPFZ5194ZCQMWU","","148.4000000357628","img/land1.png","74","149.60000002384186","1","1","false","3","1,0.5,0.5,0.5,1,0.5,0.5,0.5,1","",""
"","html-keyboard-response","148","80312","0.0-219.0","3E7TUJ2EGD8N956IANB6XAANXNRD9T","A2DLV3WN24WTDS","3A3KKYU7P33Z3BR9PPFZ5194ZCQMWU","","null","<img src=""img/land1.png"" style=""width:200px; border:14px solid green;"">","null","","","","","","","",""
"","image-keyboard-response","149","80468","0.0-221.0","3E7TUJ2EGD8N956IANB6XAANXNRD9T","A2DLV3WN24WTDS","3A3KKYU7P33Z3BR9PPFZ5194ZCQMWU","","154.5999999642372","img/land3.png","74","155.69999998807907","1","1","false","1","1,0.5,0.5,0.5,1,0.5,0.5,0.5,1","",""
"","html-keyboard-response","150","80771","0.0-222.0","3E7TUJ2EGD8N956IANB6XAANXNRD9T","A2DLV3WN24WTDS","3A3KKYU7P33Z3BR9PPFZ5194ZCQMWU","","null","<img src=""img/land3.png"" style=""width:200px; border:14px solid green;"">","null","","","","","","","",""
"","image-keyboard-response","151","80942","0.0-224.0","3E7TUJ2EGD8N956IANB6XAANXNRD9T","A2DLV3WN24WTDS","3A3KKYU7P33Z3BR9PPFZ5194ZCQMWU","","169.89999997615814","img/land3.png","74","171","1","1","false","1","1,0.5,0.5,0.5,1,0.5,0.5,0.5,1","",""
"","html-keyboard-response","152","81245","0.0-225.0","3E7TUJ2EGD8N956IANB6XAANXNRD9T","A2DLV3WN24WTDS","3A3KKYU7P33Z3BR9PPFZ5194ZCQMWU","","null","<img src=""img/land3.png"" style=""width:200px; border:14px solid green;"">","null","","","","","","","",""
"","image-keyboard-response","153","81408","0.0-227.0","3E7TUJ2EGD8N956IANB6XAANXNRD9T","A2DLV3WN24WTDS","3A3KKYU7P33Z3BR9PPFZ5194ZCQMWU","","160.19999998807907","img/land1.png","74","161.5","1","1","false","3","1,0.5,0.5,0.5,1,0.5,0.5,0.5,1","",""
"","html-keyboard-response","154","81710","0.0-228.0","3E7TUJ2EGD8N956IANB6XAANXNRD9T","A2DLV3WN24WTDS","3A3KKYU7P33Z3BR9PPFZ5194ZCQMWU","","null","<img src=""img/land1.png"" style=""width:200px; border:14px solid green;"">","null","","","","","","","",""
"","image-keyboard-response","155","81838","0.0-230.0","3E7TUJ2EGD8N956IANB6XAANXNRD9T","A2DLV3WN24WTDS","3A3KKYU7P33Z3BR9PPFZ5194ZCQMWU","","126.29999995231628","img/land1.png","74","127.5","1","1","false","3","1,0.5,0.5,0.5,1,0.5,0.5,0.5,1","",""
"","html-keyboard-response","156","82141","0.0-231.0","3E7TUJ2EGD8N956IANB6XAANXNRD9T","A2DLV3WN24WTDS","3A3KKYU7P33Z3BR9PPFZ5194ZCQMWU","","null","<img src=""img/land1.png"" style=""width:200px; border:14px solid green;"">","null","","","","","","","",""
"","image-keyboard-response","157","82279","0.0-233.0","3E7TUJ2EGD8N956IANB6XAANXNRD9T","A2DLV3WN24WTDS","3A3KKYU7P33Z3BR9PPFZ5194ZCQMWU","","136.10000002384186","img/land1.png","74","137.19999998807907","1","1","false","3","1,0.5,0.5,0.5,1,0.5,0.5,0.5,1","",""
"","html-keyboard-response","158","82580","0.0-234.0","3E7TUJ2EGD8N956IANB6XAANXNRD9T","A2DLV3WN24WTDS","3A3KKYU7P33Z3BR9PPFZ5194ZCQMWU","","null","<img src=""img/land1.png"" style=""width:200px; border:14px solid green;"">","null","","","","","","","",""
"","image-keyboard-response","159","82698","0.0-236.0","3E7TUJ2EGD8N956IANB6XAANXNRD9T","A2DLV3WN24WTDS","3A3KKYU7P33Z3BR9PPFZ5194ZCQMWU","","116","img/land3.png","74","117.40000003576279","1","1","false","1","1,0.5,0.5,0.5,1,0.5,0.5,0.5,1","",""
"","html-keyboard-response","160","83001","0.0-237.0","3E7TUJ2EGD8N956IANB6XAANXNRD9T","A2DLV3WN24WTDS","3A3KKYU7P33Z3BR9PPFZ5194ZCQMWU","","null","<img src=""img/land3.png"" style=""width:200px; border:14px solid green;"">","null","","","","","","","",""
"","image-keyboard-response","161","83219","0.0-239.0","3E7TUJ2EGD8N956IANB6XAANXNRD9T","A2DLV3WN24WTDS","3A3KKYU7P33Z3BR9PPFZ5194ZCQMWU","","216.39999997615814","img/land5.png","74","217.30000001192093","1","1","false","2","1,0.5,0.5,0.5,1,0.5,0.5,0.5,1","",""
"","html-keyboard-response","162","83521","0.0-240.0","3E7TUJ2EGD8N956IANB6XAANXNRD9T","A2DLV3WN24WTDS","3A3KKYU7P33Z3BR9PPFZ5194ZCQMWU","","null","<img src=""img/land5.png"" style=""width:200px; border:14px solid green;"">","null","","","","","","","",""
"","image-keyboard-response","163","83706","0.0-242.0","3E7TUJ2EGD8N956IANB6XAANXNRD9T","A2DLV3WN24WTDS","3A3KKYU7P33Z3BR9PPFZ5194ZCQMWU","","184.0999999642372","img/land1.png","74","185.0999999642372","1","0","false","3","1,0.5,0.5,0.5,1,0.5,0.5,0.5,1","",""
"","html-keyboard-response","164","84008","0.0-243.0","3E7TUJ2EGD8N956IANB6XAANXNRD9T","A2DLV3WN24WTDS","3A3KKYU7P33Z3BR9PPFZ5194ZCQMWU","","null","<img src=""img/land1.png"" style=""width:200px;border:14px solid red;"">","null","","","","","","","",""
"","image-keyboard-response","165","84293","0.0-245.0","3E7TUJ2EGD8N956IANB6XAANXNRD9T","A2DLV3WN24WTDS","3A3KKYU7P33Z3BR9PPFZ5194ZCQMWU","","282.5999999642372","img/land1.png","75","283.7999999523163","2","0","false","3","1,0.5,0.5,0.5,1,0.5,0.5,0.5,1","",""
"","html-keyboard-response","166","84594","0.0-246.0","3E7TUJ2EGD8N956IANB6XAANXNRD9T","A2DLV3WN24WTDS","3A3KKYU7P33Z3BR9PPFZ5194ZCQMWU","","null","<img src=""img/land1.png"" style=""width:200px;border:14px solid red;"">","null","","","","","","","",""
"","image-keyboard-response","167","84927","0.0-248.0","3E7TUJ2EGD8N956IANB6XAANXNRD9T","A2DLV3WN24WTDS","3A3KKYU7P33Z3BR9PPFZ5194ZCQMWU","","330.80000001192093","img/land5.png","76","331.9000000357628","3","1","false","2","1,0.5,0.5,0.5,1,0.5,0.5,0.5,1","",""
"","html-keyboard-response","168","85229","0.0-249.0","3E7TUJ2EGD8N956IANB6XAANXNRD9T","A2DLV3WN24WTDS","3A3KKYU7P33Z3BR9PPFZ5194ZCQMWU","","null","<img src=""img/land5.png"" style=""width:200px; border:14px solid green;"">","null","","","","","","","",""
"","image-keyboard-response","169","85428","0.0-251.0","3E7TUJ2EGD8N956IANB6XAANXNRD9T","A2DLV3WN24WTDS","3A3KKYU7P33Z3BR9PPFZ5194ZCQMWU","","198.10000002384186","img/land5.png","76","199.10000002384186","3","1","false","2","1,0.5,0.5,0.5,1,0.5,0.5,0.5,1","",""
"","html-keyboard-response","170","85731","0.0-252.0","3E7TUJ2EGD8N956IANB6XAANXNRD9T","A2DLV3WN24WTDS","3A3KKYU7P33Z3BR9PPFZ5194ZCQMWU","","null","<img src=""img/land5.png"" style=""width:200px; border:14px solid green;"">","null","","","","","","","",""
"","image-keyboard-response","171","85844","0.0-254.0","3E7TUJ2EGD8N956IANB6XAANXNRD9T","A2DLV3WN24WTDS","3A3KKYU7P33Z3BR9PPFZ5194ZCQMWU","","111.5","img/land1.png","76","112.60000002384186","3","1","false","3","1,0.5,0.5,0.5,1,0.5,0.5,0.5,1","",""
"","html-keyboard-response","172","86145","0.0-255.0","3E7TUJ2EGD8N956IANB6XAANXNRD9T","A2DLV3WN24WTDS","3A3KKYU7P33Z3BR9PPFZ5194ZCQMWU","","null","<img src=""img/land1.png"" style=""width:200px; border:14px solid green;"">","null","","","","","","","",""
"","image-keyboard-response","173","86323","0.0-257.0","3E7TUJ2EGD8N956IANB6XAANXNRD9T","A2DLV3WN24WTDS","3A3KKYU7P33Z3BR9PPFZ5194ZCQMWU","","175","img/land5.png","76","176.19999998807907","3","0","false","2","1,0.5,0.5,0.5,1,0.5,0.5,0.5,1","",""
"","html-keyboard-response","174","86624","0.0-258.0","3E7TUJ2EGD8N956IANB6XAANXNRD9T","A2DLV3WN24WTDS","3A3KKYU7P33Z3BR9PPFZ5194ZCQMWU","","null","<img src=""img/land5.png"" style=""width:200px;border:14px solid red;"">","null","","","","","","","",""
"","image-keyboard-response","175","86897","0.0-260.0","3E7TUJ2EGD8N956IANB6XAANXNRD9T","A2DLV3WN24WTDS","3A3KKYU7P33Z3BR9PPFZ5194ZCQMWU","","271.2000000476837","img/land3.png","75","272.0999999642372","2","1","false","1","1,0.5,0.5,0.5,1,0.5,0.5,0.5,1","",""
"","html-keyboard-response","176","87200","0.0-261.0","3E7TUJ2EGD8N956IANB6XAANXNRD9T","A2DLV3WN24WTDS","3A3KKYU7P33Z3BR9PPFZ5194ZCQMWU","","null","<img src=""img/land3.png"" style=""width:200px; border:14px solid green;"">","null","","","","","","","",""
"","image-keyboard-response","177","87353","0.0-263.0","3E7TUJ2EGD8N956IANB6XAANXNRD9T","A2DLV3WN24WTDS","3A3KKYU7P33Z3BR9PPFZ5194ZCQMWU","","151","img/land3.png","75","152.4000000357628","2","0","false","1","1,0.5,0.5,0.5,1,0.5,0.5,0.5,1","",""
"","html-keyboard-response","178","87655","0.0-264.0","3E7TUJ2EGD8N956IANB6XAANXNRD9T","A2DLV3WN24WTDS","3A3KKYU7P33Z3BR9PPFZ5194ZCQMWU","","null","<img src=""img/land3.png"" style=""width:200px;border:14px solid red;"">","null","","","","","","","",""
"","image-keyboard-response","179","87935","0.0-266.0","3E7TUJ2EGD8N956IANB6XAANXNRD9T","A2DLV3WN24WTDS","3A3KKYU7P33Z3BR9PPFZ5194ZCQMWU","","278.19999998807907","img/land1.png","74","279.30000001192093","1","0","false","3","1,0.5,0.5,0.5,1,0.5,0.5,0.5,1","",""
"","html-keyboard-response","180","88238","0.0-267.0","3E7TUJ2EGD8N956IANB6XAANXNRD9T","A2DLV3WN24WTDS","3A3KKYU7P33Z3BR9PPFZ5194ZCQMWU","","null","<img src=""img/land1.png"" style=""width:200px;border:14px solid red;"">","null","","","","","","","",""
"","image-keyboard-response","181","88749","0.0-269.0","3E7TUJ2EGD8N956IANB6XAANXNRD9T","A2DLV3WN24WTDS","3A3KKYU7P33Z3BR9PPFZ5194ZCQMWU","","508.60000002384186","img/land5.png","75","509.60000002384186","2","1","false","2","1,0.5,0.5,0.5,1,0.5,0.5,0.5,1","",""
"","html-keyboard-response","182","89051","0.0-270.0","3E7TUJ2EGD8N956IANB6XAANXNRD9T","A2DLV3WN24WTDS","3A3KKYU7P33Z3BR9PPFZ5194ZCQMWU","","null","<img src=""img/land5.png"" style=""width:200px; border:14px solid green;"">","null","","","","","","","",""
"","html-keyboard-response","183","91213","0.0-272.0","3E7TUJ2EGD8N956IANB6XAANXNRD9T","A2DLV3WN24WTDS","3A3KKYU7P33Z3BR9PPFZ5194ZCQMWU","","","","","","","","","","","",""
"","image-keyboard-response","184","91938","0.0-273.0","3E7TUJ2EGD8N956IANB6XAANXNRD9T","A2DLV3WN24WTDS","3A3KKYU7P33Z3BR9PPFZ5194ZCQMWU","","723.3000000119209","img/land2.png","75","724.6999999880791","2","1","false","1","1,1,0,0,1,1,1,0,1","",""
"","html-keyboard-response","185","92240","0.0-274.0","3E7TUJ2EGD8N956IANB6XAANXNRD9T","A2DLV3WN24WTDS","3A3KKYU7P33Z3BR9PPFZ5194ZCQMWU","","null","<img src=""img/land2.png"" style=""width:200px; border:14px solid green;"">","null","","","","","","","",""
"","image-keyboard-response","186","92279","0.0-276.0","3E7TUJ2EGD8N956IANB6XAANXNRD9T","A2DLV3WN24WTDS","3A3KKYU7P33Z3BR9PPFZ5194ZCQMWU","","37","img/land2.png","75","37.90000003576279","2","1","false","1","1,1,0,0,1,1,1,0,1","",""
"","html-keyboard-response","187","92580","0.0-277.0","3E7TUJ2EGD8N956IANB6XAANXNRD9T","A2DLV3WN24WTDS","3A3KKYU7P33Z3BR9PPFZ5194ZCQMWU","","null","<img src=""img/land2.png"" style=""width:200px; border:14px solid green;"">","null","","","","","","","",""
"","image-keyboard-response","188","92704","0.0-279.0","3E7TUJ2EGD8N956IANB6XAANXNRD9T","A2DLV3WN24WTDS","3A3KKYU7P33Z3BR9PPFZ5194ZCQMWU","","122.80000001192093","img/land6.png","75","123.59999996423721","2","0","false","3","1,1,0,0,1,1,1,0,1","",""
"","html-keyboard-response","189","93006","0.0-280.0","3E7TUJ2EGD8N956IANB6XAANXNRD9T","A2DLV3WN24WTDS","3A3KKYU7P33Z3BR9PPFZ5194ZCQMWU","","null","<img src=""img/land6.png"" style=""width:200px;border:14px solid red;"">","null","","","","","","","",""
"","image-keyboard-response","190","93125","0.0-282.0","3E7TUJ2EGD8N956IANB6XAANXNRD9T","A2DLV3WN24WTDS","3A3KKYU7P33Z3BR9PPFZ5194ZCQMWU","","116.59999996423721","img/land2.png","76","118","3","0","false","1","1,1,0,0,1,1,1,0,1","",""
"","html-keyboard-response","191","93428","0.0-283.0","3E7TUJ2EGD8N956IANB6XAANXNRD9T","A2DLV3WN24WTDS","3A3KKYU7P33Z3BR9PPFZ5194ZCQMWU","","null","<img src=""img/land2.png"" style=""width:200px;border:14px solid red;"">","null","","","","","","","",""
"","image-keyboard-response","192","93526","0.0-285.0","3E7TUJ2EGD8N956IANB6XAANXNRD9T","A2DLV3WN24WTDS","3A3KKYU7P33Z3BR9PPFZ5194ZCQMWU","","97","img/land4.png","76","98.10000002384186","3","1","false","2","1,1,0,0,1,1,1,0,1","",""
"","html-keyboard-response","193","93829","0.0-286.0","3E7TUJ2EGD8N956IANB6XAANXNRD9T","A2DLV3WN24WTDS","3A3KKYU7P33Z3BR9PPFZ5194ZCQMWU","","null","<img src=""img/land4.png"" style=""width:200px; border:14px solid green;"">","null","","","","","","","",""
"","image-keyboard-response","194","93967","0.0-288.0","3E7TUJ2EGD8N956IANB6XAANXNRD9T","A2DLV3WN24WTDS","3A3KKYU7P33Z3BR9PPFZ5194ZCQMWU","","136.69999998807907","img/land4.png","76","138.30000001192093","3","1","false","2","1,1,0,0,1,1,1,0,1","",""
"","html-keyboard-response","195","94285","0.0-289.0","3E7TUJ2EGD8N956IANB6XAANXNRD9T","A2DLV3WN24WTDS","3A3KKYU7P33Z3BR9PPFZ5194ZCQMWU","","null","<img src=""img/land4.png"" style=""width:200px; border:14px solid green;"">","null","","","","","","","",""
"","image-keyboard-response","196","94391","0.0-291.0","3E7TUJ2EGD8N956IANB6XAANXNRD9T","A2DLV3WN24WTDS","3A3KKYU7P33Z3BR9PPFZ5194ZCQMWU","","103.90000003576279","img/land4.png","76","105.5","3","1","false","2","1,1,0,0,1,1,1,0,1","",""
"","html-keyboard-response","197","94694","0.0-292.0","3E7TUJ2EGD8N956IANB6XAANXNRD9T","A2DLV3WN24WTDS","3A3KKYU7P33Z3BR9PPFZ5194ZCQMWU","","null","<img src=""img/land4.png"" style=""width:200px; border:14px solid green;"">","null","","","","","","","",""
"","image-keyboard-response","198","94798","0.0-294.0","3E7TUJ2EGD8N956IANB6XAANXNRD9T","A2DLV3WN24WTDS","3A3KKYU7P33Z3BR9PPFZ5194ZCQMWU","","102.90000003576279","img/land4.png","76","103.80000001192093","3","1","false","2","1,1,0,0,1,1,1,0,1","",""
"","html-keyboard-response","199","95100","0.0-295.0","3E7TUJ2EGD8N956IANB6XAANXNRD9T","A2DLV3WN24WTDS","3A3KKYU7P33Z3BR9PPFZ5194ZCQMWU","","null","<img src=""img/land4.png"" style=""width:200px; border:14px solid green;"">","null","","","","","","","",""
"","image-keyboard-response","200","95250","0.0-297.0","3E7TUJ2EGD8N956IANB6XAANXNRD9T","A2DLV3WN24WTDS","3A3KKYU7P33Z3BR9PPFZ5194ZCQMWU","","147.5","img/land6.png","76","149.10000002384186","3","1","false","3","1,1,0,0,1,1,1,0,1","",""
"","html-keyboard-response","201","95552","0.0-298.0","3E7TUJ2EGD8N956IANB6XAANXNRD9T","A2DLV3WN24WTDS","3A3KKYU7P33Z3BR9PPFZ5194ZCQMWU","","null","<img src=""img/land6.png"" style=""width:200px; border:14px solid green;"">","null","","","","","","","",""
"","image-keyboard-response","202","95702","0.0-300.0","3E7TUJ2EGD8N956IANB6XAANXNRD9T","A2DLV3WN24WTDS","3A3KKYU7P33Z3BR9PPFZ5194ZCQMWU","","148","img/land4.png","76","149.10000002384186","3","1","false","2","1,1,0,0,1,1,1,0,1","",""
"","html-keyboard-response","203","96004","0.0-301.0","3E7TUJ2EGD8N956IANB6XAANXNRD9T","A2DLV3WN24WTDS","3A3KKYU7P33Z3BR9PPFZ5194ZCQMWU","","null","<img src=""img/land4.png"" style=""width:200px; border:14px solid green;"">","null","","","","","","","",""
"","image-keyboard-response","204","96131","0.0-303.0","3E7TUJ2EGD8N956IANB6XAANXNRD9T","A2DLV3WN24WTDS","3A3KKYU7P33Z3BR9PPFZ5194ZCQMWU","","124.39999997615814","img/land6.png","76","125.5","3","1","false","3","1,1,0,0,1,1,1,0,1","",""
"","html-keyboard-response","205","96432","0.0-304.0","3E7TUJ2EGD8N956IANB6XAANXNRD9T","A2DLV3WN24WTDS","3A3KKYU7P33Z3BR9PPFZ5194ZCQMWU","","null","<img src=""img/land6.png"" style=""width:200px; border:14px solid green;"">","null","","","","","","","",""
"","image-keyboard-response","206","96556","0.0-306.0","3E7TUJ2EGD8N956IANB6XAANXNRD9T","A2DLV3WN24WTDS","3A3KKYU7P33Z3BR9PPFZ5194ZCQMWU","","121.40000003576279","img/land2.png","76","122.69999998807907","3","0","false","1","1,1,0,0,1,1,1,0,1","",""
"","html-keyboard-response","207","96858","0.0-307.0","3E7TUJ2EGD8N956IANB6XAANXNRD9T","A2DLV3WN24WTDS","3A3KKYU7P33Z3BR9PPFZ5194ZCQMWU","","null","<img src=""img/land2.png"" style=""width:200px;border:14px solid red;"">","null","","","","","","","",""
"","image-keyboard-response","208","96945","0.0-309.0","3E7TUJ2EGD8N956IANB6XAANXNRD9T","A2DLV3WN24WTDS","3A3KKYU7P33Z3BR9PPFZ5194ZCQMWU","","84.89999997615814","img/land6.png","74","86.19999998807907","1","1","false","3","1,1,0,0,1,1,1,0,1","",""
"","html-keyboard-response","209","97248","0.0-310.0","3E7TUJ2EGD8N956IANB6XAANXNRD9T","A2DLV3WN24WTDS","3A3KKYU7P33Z3BR9PPFZ5194ZCQMWU","","null","<img src=""img/land6.png"" style=""width:200px; border:14px solid green;"">","null","","","","","","","",""
"","image-keyboard-response","210","97373","0.0-312.0","3E7TUJ2EGD8N956IANB6XAANXNRD9T","A2DLV3WN24WTDS","3A3KKYU7P33Z3BR9PPFZ5194ZCQMWU","","121.80000001192093","img/land6.png","74","123.60000002384186","1","1","false","3","1,1,0,0,1,1,1,0,1","",""
"","html-keyboard-response","211","97675","0.0-313.0","3E7TUJ2EGD8N956IANB6XAANXNRD9T","A2DLV3WN24WTDS","3A3KKYU7P33Z3BR9PPFZ5194ZCQMWU","","null","<img src=""img/land6.png"" style=""width:200px; border:14px solid green;"">","null","","","","","","","",""
"","image-keyboard-response","212","97759","0.0-315.0","3E7TUJ2EGD8N956IANB6XAANXNRD9T","A2DLV3WN24WTDS","3A3KKYU7P33Z3BR9PPFZ5194ZCQMWU","","80.89999997615814","img/land4.png","74","82.30000001192093","1","0","false","2","1,1,0,0,1,1,1,0,1","",""
"","html-keyboard-response","213","98060","0.0-316.0","3E7TUJ2EGD8N956IANB6XAANXNRD9T","A2DLV3WN24WTDS","3A3KKYU7P33Z3BR9PPFZ5194ZCQMWU","","null","<img src=""img/land4.png"" style=""width:200px;border:14px solid red;"">","null","","","","","","","",""
"","image-keyboard-response","214","98241","0.0-318.0","3E7TUJ2EGD8N956IANB6XAANXNRD9T","A2DLV3WN24WTDS","3A3KKYU7P33Z3BR9PPFZ5194ZCQMWU","","178.30000001192093","img/land6.png","75","179.5","2","0","false","3","1,1,0,0,1,1,1,0,1","",""
"","html-keyboard-response","215","98543","0.0-319.0","3E7TUJ2EGD8N956IANB6XAANXNRD9T","A2DLV3WN24WTDS","3A3KKYU7P33Z3BR9PPFZ5194ZCQMWU","","null","<img src=""img/land6.png"" style=""width:200px;border:14px solid red;"">","null","","","","","","","",""
"","image-keyboard-response","216","99124","0.0-321.0","3E7TUJ2EGD8N956IANB6XAANXNRD9T","A2DLV3WN24WTDS","3A3KKYU7P33Z3BR9PPFZ5194ZCQMWU","","579","img/land2.png","76","580.1999999880791","3","0","false","1","1,1,0,0,1,1,1,0,1","",""
"","html-keyboard-response","217","99427","0.0-322.0","3E7TUJ2EGD8N956IANB6XAANXNRD9T","A2DLV3WN24WTDS","3A3KKYU7P33Z3BR9PPFZ5194ZCQMWU","","null","<img src=""img/land2.png"" style=""width:200px;border:14px solid red;"">","null","","","","","","","",""
"","image-keyboard-response","218","99546","0.0-324.0","3E7TUJ2EGD8N956IANB6XAANXNRD9T","A2DLV3WN24WTDS","3A3KKYU7P33Z3BR9PPFZ5194ZCQMWU","","117.5","img/land6.png","75","118.60000002384186","2","0","false","3","1,1,0,0,1,1,1,0,1","",""
"","html-keyboard-response","219","99849","0.0-325.0","3E7TUJ2EGD8N956IANB6XAANXNRD9T","A2DLV3WN24WTDS","3A3KKYU7P33Z3BR9PPFZ5194ZCQMWU","","null","<img src=""img/land6.png"" style=""width:200px;border:14px solid red;"">","null","","","","","","","",""
"","image-keyboard-response","220","99944","0.0-327.0","3E7TUJ2EGD8N956IANB6XAANXNRD9T","A2DLV3WN24WTDS","3A3KKYU7P33Z3BR9PPFZ5194ZCQMWU","","93.30000001192093","img/land4.png","75","94.30000001192093","2","1","false","2","1,1,0,0,1,1,1,0,1","",""
"","html-keyboard-response","221","100246","0.0-328.0","3E7TUJ2EGD8N956IANB6XAANXNRD9T","A2DLV3WN24WTDS","3A3KKYU7P33Z3BR9PPFZ5194ZCQMWU","","null","<img src=""img/land4.png"" style=""width:200px; border:14px solid green;"">","null","","","","","","","",""
"","image-keyboard-response","222","100304","0.0-330.0","3E7TUJ2EGD8N956IANB6XAANXNRD9T","A2DLV3WN24WTDS","3A3KKYU7P33Z3BR9PPFZ5194ZCQMWU","","56.299999952316284","img/land4.png","74","57.5","1","0","false","2","1,1,0,0,1,1,1,0,1","",""
"","html-keyboard-response","223","100607","0.0-331.0","3E7TUJ2EGD8N956IANB6XAANXNRD9T","A2DLV3WN24WTDS","3A3KKYU7P33Z3BR9PPFZ5194ZCQMWU","","null","<img src=""img/land4.png"" style=""width:200px;border:14px solid red;"">","null","","","","","","","",""
"","image-keyboard-response","224","100811","0.0-333.0","3E7TUJ2EGD8N956IANB6XAANXNRD9T","A2DLV3WN24WTDS","3A3KKYU7P33Z3BR9PPFZ5194ZCQMWU","","202.19999998807907","img/land2.png","74","203.30000001192093","1","1","false","1","1,1,0,0,1,1,1,0,1","",""
"","html-keyboard-response","225","101114","0.0-334.0","3E7TUJ2EGD8N956IANB6XAANXNRD9T","A2DLV3WN24WTDS","3A3KKYU7P33Z3BR9PPFZ5194ZCQMWU","","null","<img src=""img/land2.png"" style=""width:200px; border:14px solid green;"">","null","","","","","","","",""
"","image-keyboard-response","226","101219","0.0-336.0","3E7TUJ2EGD8N956IANB6XAANXNRD9T","A2DLV3WN24WTDS","3A3KKYU7P33Z3BR9PPFZ5194ZCQMWU","","104","img/land2.png","75","105.39999997615814","2","1","false","1","1,1,0,0,1,1,1,0,1","",""
"","html-keyboard-response","227","101522","0.0-337.0","3E7TUJ2EGD8N956IANB6XAANXNRD9T","A2DLV3WN24WTDS","3A3KKYU7P33Z3BR9PPFZ5194ZCQMWU","","null","<img src=""img/land2.png"" style=""width:200px; border:14px solid green;"">","null","","","","","","","",""
"","image-keyboard-response","228","101784","0.0-339.0","3E7TUJ2EGD8N956IANB6XAANXNRD9T","A2DLV3WN24WTDS","3A3KKYU7P33Z3BR9PPFZ5194ZCQMWU","","259.69999998807907","img/land2.png","74","261","1","1","false","1","1,1,0,0,1,1,1,0,1","",""
"","html-keyboard-response","229","102086","0.0-340.0","3E7TUJ2EGD8N956IANB6XAANXNRD9T","A2DLV3WN24WTDS","3A3KKYU7P33Z3BR9PPFZ5194ZCQMWU","","null","<img src=""img/land2.png"" style=""width:200px; border:14px solid green;"">","null","","","","","","","",""
"","image-keyboard-response","230","102144","0.0-342.0","3E7TUJ2EGD8N956IANB6XAANXNRD9T","A2DLV3WN24WTDS","3A3KKYU7P33Z3BR9PPFZ5194ZCQMWU","","56.39999997615814","img/land4.png","75","57.5","2","1","false","2","1,1,0,0,1,1,1,0,1","",""
"","html-keyboard-response","231","102446","0.0-343.0","3E7TUJ2EGD8N956IANB6XAANXNRD9T","A2DLV3WN24WTDS","3A3KKYU7P33Z3BR9PPFZ5194ZCQMWU","","null","<img src=""img/land4.png"" style=""width:200px; border:14px solid green;"">","null","","","","","","","",""
"","image-keyboard-response","232","102540","0.0-345.0","3E7TUJ2EGD8N956IANB6XAANXNRD9T","A2DLV3WN24WTDS","3A3KKYU7P33Z3BR9PPFZ5194ZCQMWU","","91.80000001192093","img/land2.png","76","93.09999996423721","3","0","false","1","1,1,0,0,1,1,1,0,1","",""
"","html-keyboard-response","233","102842","0.0-346.0","3E7TUJ2EGD8N956IANB6XAANXNRD9T","A2DLV3WN24WTDS","3A3KKYU7P33Z3BR9PPFZ5194ZCQMWU","","null","<img src=""img/land2.png"" style=""width:200px;border:14px solid red;"">","null","","","","","","","",""
"","image-keyboard-response","234","102991","0.0-348.0","3E7TUJ2EGD8N956IANB6XAANXNRD9T","A2DLV3WN24WTDS","3A3KKYU7P33Z3BR9PPFZ5194ZCQMWU","","147.10000002384186","img/land2.png","75","148.20000004768372","2","1","false","1","1,1,0,0,1,1,1,0,1","",""
"","html-keyboard-response","235","103294","0.0-349.0","3E7TUJ2EGD8N956IANB6XAANXNRD9T","A2DLV3WN24WTDS","3A3KKYU7P33Z3BR9PPFZ5194ZCQMWU","","null","<img src=""img/land2.png"" style=""width:200px; border:14px solid green;"">","null","","","","","","","",""
"","image-keyboard-response","236","103416","0.0-351.0","3E7TUJ2EGD8N956IANB6XAANXNRD9T","A2DLV3WN24WTDS","3A3KKYU7P33Z3BR9PPFZ5194ZCQMWU","","120.60000002384186","img/land4.png","75","121.80000001192093","2","1","false","2","1,1,0,0,1,1,1,0,1","",""
"","html-keyboard-response","237","103719","0.0-352.0","3E7TUJ2EGD8N956IANB6XAANXNRD9T","A2DLV3WN24WTDS","3A3KKYU7P33Z3BR9PPFZ5194ZCQMWU","","null","<img src=""img/land4.png"" style=""width:200px; border:14px solid green;"">","null","","","","","","","",""
"","image-keyboard-response","238","103815","0.0-354.0","3E7TUJ2EGD8N956IANB6XAANXNRD9T","A2DLV3WN24WTDS","3A3KKYU7P33Z3BR9PPFZ5194ZCQMWU","","94.60000002384186","img/land4.png","74","96.09999996423721","1","0","false","2","1,1,0,0,1,1,1,0,1","",""
"","html-keyboard-response","239","104118","0.0-355.0","3E7TUJ2EGD8N956IANB6XAANXNRD9T","A2DLV3WN24WTDS","3A3KKYU7P33Z3BR9PPFZ5194ZCQMWU","","null","<img src=""img/land4.png"" style=""width:200px;border:14px solid red;"">","null","","","","","","","",""
"","image-keyboard-response","240","104278","0.0-357.0","3E7TUJ2EGD8N956IANB6XAANXNRD9T","A2DLV3WN24WTDS","3A3KKYU7P33Z3BR9PPFZ5194ZCQMWU","","157.80000001192093","img/land2.png","75","159","2","1","false","1","1,1,0,0,1,1,1,0,1","",""
"","html-keyboard-response","241","104579","0.0-358.0","3E7TUJ2EGD8N956IANB6XAANXNRD9T","A2DLV3WN24WTDS","3A3KKYU7P33Z3BR9PPFZ5194ZCQMWU","","null","<img src=""img/land2.png"" style=""width:200px; border:14px solid green;"">","null","","","","","","","",""
"","image-keyboard-response","242","104711","0.0-360.0","3E7TUJ2EGD8N956IANB6XAANXNRD9T","A2DLV3WN24WTDS","3A3KKYU7P33Z3BR9PPFZ5194ZCQMWU","","130.39999997615814","img/land2.png","75","131.4000000357628","2","1","false","1","1,1,0,0,1,1,1,0,1","",""
"","html-keyboard-response","243","105014","0.0-361.0","3E7TUJ2EGD8N956IANB6XAANXNRD9T","A2DLV3WN24WTDS","3A3KKYU7P33Z3BR9PPFZ5194ZCQMWU","","null","<img src=""img/land2.png"" style=""width:200px; border:14px solid green;"">","null","","","","","","","",""
"","image-keyboard-response","244","105116","0.0-363.0","3E7TUJ2EGD8N956IANB6XAANXNRD9T","A2DLV3WN24WTDS","3A3KKYU7P33Z3BR9PPFZ5194ZCQMWU","","100.09999996423721","img/land2.png","75","101.39999997615814","2","1","false","1","1,1,0,0,1,1,1,0,1","",""
"","html-keyboard-response","245","105420","0.0-364.0","3E7TUJ2EGD8N956IANB6XAANXNRD9T","A2DLV3WN24WTDS","3A3KKYU7P33Z3BR9PPFZ5194ZCQMWU","","null","<img src=""img/land2.png"" style=""width:200px; border:14px solid green;"">","null","","","","","","","",""
"","image-keyboard-response","246","105544","0.0-366.0","3E7TUJ2EGD8N956IANB6XAANXNRD9T","A2DLV3WN24WTDS","3A3KKYU7P33Z3BR9PPFZ5194ZCQMWU","","123.39999997615814","img/land2.png","75","124.39999997615814","2","1","false","1","1,1,0,0,1,1,1,0,1","",""
"","html-keyboard-response","247","105848","0.0-367.0","3E7TUJ2EGD8N956IANB6XAANXNRD9T","A2DLV3WN24WTDS","3A3KKYU7P33Z3BR9PPFZ5194ZCQMWU","","null","<img src=""img/land2.png"" style=""width:200px; border:14px solid green;"">","null","","","","","","","",""
"","image-keyboard-response","248","105996","0.0-369.0","3E7TUJ2EGD8N956IANB6XAANXNRD9T","A2DLV3WN24WTDS","3A3KKYU7P33Z3BR9PPFZ5194ZCQMWU","","145.39999997615814","img/land4.png","75","146.5","2","1","false","2","1,1,0,0,1,1,1,0,1","",""
"","html-keyboard-response","249","106298","0.0-370.0","3E7TUJ2EGD8N956IANB6XAANXNRD9T","A2DLV3WN24WTDS","3A3KKYU7P33Z3BR9PPFZ5194ZCQMWU","","null","<img src=""img/land4.png"" style=""width:200px; border:14px solid green;"">","null","","","","","","","",""
"","image-keyboard-response","250","106443","0.0-372.0","3E7TUJ2EGD8N956IANB6XAANXNRD9T","A2DLV3WN24WTDS","3A3KKYU7P33Z3BR9PPFZ5194ZCQMWU","","143.0999999642372","img/land4.png","75","144.0999999642372","2","1","false","2","1,1,0,0,1,1,1,0,1","",""
"","html-keyboard-response","251","106744","0.0-373.0","3E7TUJ2EGD8N956IANB6XAANXNRD9T","A2DLV3WN24WTDS","3A3KKYU7P33Z3BR9PPFZ5194ZCQMWU","","null","<img src=""img/land4.png"" style=""width:200px; border:14px solid green;"">","null","","","","","","","",""
"","image-keyboard-response","252","106855","0.0-375.0","3E7TUJ2EGD8N956IANB6XAANXNRD9T","A2DLV3WN24WTDS","3A3KKYU7P33Z3BR9PPFZ5194ZCQMWU","","109.19999998807907","img/land4.png","75","110.39999997615814","2","1","false","2","1,1,0,0,1,1,1,0,1","",""
"","html-keyboard-response","253","107158","0.0-376.0","3E7TUJ2EGD8N956IANB6XAANXNRD9T","A2DLV3WN24WTDS","3A3KKYU7P33Z3BR9PPFZ5194ZCQMWU","","null","<img src=""img/land4.png"" style=""width:200px; border:14px solid green;"">","null","","","","","","","",""
"","image-keyboard-response","254","107237","0.0-378.0","3E7TUJ2EGD8N956IANB6XAANXNRD9T","A2DLV3WN24WTDS","3A3KKYU7P33Z3BR9PPFZ5194ZCQMWU","","77.30000001192093","img/land6.png","75","78.5","2","0","false","3","1,1,0,0,1,1,1,0,1","",""
"","html-keyboard-response","255","107540","0.0-379.0","3E7TUJ2EGD8N956IANB6XAANXNRD9T","A2DLV3WN24WTDS","3A3KKYU7P33Z3BR9PPFZ5194ZCQMWU","","null","<img src=""img/land6.png"" style=""width:200px;border:14px solid red;"">","null","","","","","","","",""
"","image-keyboard-response","256","107907","0.0-381.0","3E7TUJ2EGD8N956IANB6XAANXNRD9T","A2DLV3WN24WTDS","3A3KKYU7P33Z3BR9PPFZ5194ZCQMWU","","365.7000000476837","img/land6.png","76","366.80000001192093","3","1","false","3","1,1,0,0,1,1,1,0,1","",""
"","html-keyboard-response","257","108210","0.0-382.0","3E7TUJ2EGD8N956IANB6XAANXNRD9T","A2DLV3WN24WTDS","3A3KKYU7P33Z3BR9PPFZ5194ZCQMWU","","null","<img src=""img/land6.png"" style=""width:200px; border:14px solid green;"">","null","","","","","","","",""
"","image-keyboard-response","258","108302","0.0-384.0","3E7TUJ2EGD8N956IANB6XAANXNRD9T","A2DLV3WN24WTDS","3A3KKYU7P33Z3BR9PPFZ5194ZCQMWU","","90.60000002384186","img/land6.png","76","91.90000003576279","3","1","false","3","1,1,0,0,1,1,1,0,1","",""
"","html-keyboard-response","259","108604","0.0-385.0","3E7TUJ2EGD8N956IANB6XAANXNRD9T","A2DLV3WN24WTDS","3A3KKYU7P33Z3BR9PPFZ5194ZCQMWU","","null","<img src=""img/land6.png"" style=""width:200px; border:14px solid green;"">","null","","","","","","","",""
"","image-keyboard-response","260","108720","0.0-387.0","3E7TUJ2EGD8N956IANB6XAANXNRD9T","A2DLV3WN24WTDS","3A3KKYU7P33Z3BR9PPFZ5194ZCQMWU","","114","img/land4.png","76","115.19999998807907","3","1","false","2","1,1,0,0,1,1,1,0,1","",""
"","html-keyboard-response","261","109023","0.0-388.0","3E7TUJ2EGD8N956IANB6XAANXNRD9T","A2DLV3WN24WTDS","3A3KKYU7P33Z3BR9PPFZ5194ZCQMWU","","null","<img src=""img/land4.png"" style=""width:200px; border:14px solid green;"">","null","","","","","","","",""
"","image-keyboard-response","262","109181","0.0-390.0","3E7TUJ2EGD8N956IANB6XAANXNRD9T","A2DLV3WN24WTDS","3A3KKYU7P33Z3BR9PPFZ5194ZCQMWU","","156.10000002384186","img/land2.png","76","157.10000002384186","3","0","false","1","1,1,0,0,1,1,1,0,1","",""
"","html-keyboard-response","263","109482","0.0-391.0","3E7TUJ2EGD8N956IANB6XAANXNRD9T","A2DLV3WN24WTDS","3A3KKYU7P33Z3BR9PPFZ5194ZCQMWU","","null","<img src=""img/land2.png"" style=""width:200px;border:14px solid red;"">","null","","","","","","","",""
"","image-keyboard-response","264","109896","0.0-393.0","3E7TUJ2EGD8N956IANB6XAANXNRD9T","A2DLV3WN24WTDS","3A3KKYU7P33Z3BR9PPFZ5194ZCQMWU","","411.10000002384186","img/land6.png","74","412.5999999642372","1","1","false","3","1,1,0,0,1,1,1,0,1","",""
"","html-keyboard-response","265","110199","0.0-394.0","3E7TUJ2EGD8N956IANB6XAANXNRD9T","A2DLV3WN24WTDS","3A3KKYU7P33Z3BR9PPFZ5194ZCQMWU","","null","<img src=""img/land6.png"" style=""width:200px; border:14px solid green;"">","null","","","","","","","",""
"","image-keyboard-response","266","110258","0.0-396.0","3E7TUJ2EGD8N956IANB6XAANXNRD9T","A2DLV3WN24WTDS","3A3KKYU7P33Z3BR9PPFZ5194ZCQMWU","","57.700000047683716","img/land2.png","74","59","1","1","false","1","1,1,0,0,1,1,1,0,1","",""
"","html-keyboard-response","267","110562","0.0-397.0","3E7TUJ2EGD8N956IANB6XAANXNRD9T","A2DLV3WN24WTDS","3A3KKYU7P33Z3BR9PPFZ5194ZCQMWU","","null","<img src=""img/land2.png"" style=""width:200px; border:14px solid green;"">","null","","","","","","","",""
"","image-keyboard-response","268","110694","0.0-399.0","3E7TUJ2EGD8N956IANB6XAANXNRD9T","A2DLV3WN24WTDS","3A3KKYU7P33Z3BR9PPFZ5194ZCQMWU","","130.39999997615814","img/land4.png","74","131.5","1","0","false","2","1,1,0,0,1,1,1,0,1","",""
"","html-keyboard-response","269","110996","0.0-400.0","3E7TUJ2EGD8N956IANB6XAANXNRD9T","A2DLV3WN24WTDS","3A3KKYU7P33Z3BR9PPFZ5194ZCQMWU","","null","<img src=""img/land4.png"" style=""width:200px;border:14px solid red;"">","null","","","","","","","",""
"","image-keyboard-response","270","111250","0.0-402.0","3E7TUJ2EGD8N956IANB6XAANXNRD9T","A2DLV3WN24WTDS","3A3KKYU7P33Z3BR9PPFZ5194ZCQMWU","","251.9000000357628","img/land2.png","75","252.89999997615814","2","1","false","1","1,1,0,0,1,1,1,0,1","",""
"","html-keyboard-response","271","111552","0.0-403.0","3E7TUJ2EGD8N956IANB6XAANXNRD9T","A2DLV3WN24WTDS","3A3KKYU7P33Z3BR9PPFZ5194ZCQMWU","","null","<img src=""img/land2.png"" style=""width:200px; border:14px solid green;"">","null","","","","","","","",""
"","image-keyboard-response","272","111662","0.0-405.0","3E7TUJ2EGD8N956IANB6XAANXNRD9T","A2DLV3WN24WTDS","3A3KKYU7P33Z3BR9PPFZ5194ZCQMWU","","108.69999998807907","img/land2.png","75","109.30000001192093","2","1","false","1","1,1,0,0,1,1,1,0,1","",""
"","html-keyboard-response","273","111963","0.0-406.0","3E7TUJ2EGD8N956IANB6XAANXNRD9T","A2DLV3WN24WTDS","3A3KKYU7P33Z3BR9PPFZ5194ZCQMWU","","null","<img src=""img/land2.png"" style=""width:200px; border:14px solid green;"">","null","","","","","","","",""
"","image-keyboard-response","274","112046","0.0-408.0","3E7TUJ2EGD8N956IANB6XAANXNRD9T","A2DLV3WN24WTDS","3A3KKYU7P33Z3BR9PPFZ5194ZCQMWU","","81.69999998807907","img/land6.png","75","82.69999998807907","2","0","false","3","1,1,0,0,1,1,1,0,1","",""
"","html-keyboard-response","275","112347","0.0-409.0","3E7TUJ2EGD8N956IANB6XAANXNRD9T","A2DLV3WN24WTDS","3A3KKYU7P33Z3BR9PPFZ5194ZCQMWU","","null","<img src=""img/land6.png"" style=""width:200px;border:14px solid red;"">","null","","","","","","","",""
"","image-keyboard-response","276","113008","0.0-411.0","3E7TUJ2EGD8N956IANB6XAANXNRD9T","A2DLV3WN24WTDS","3A3KKYU7P33Z3BR9PPFZ5194ZCQMWU","","659.3999999761581","img/land6.png","75","660.3000000119209","2","0","false","3","1,1,0,0,1,1,1,0,1","",""
"","html-keyboard-response","277","113310","0.0-412.0","3E7TUJ2EGD8N956IANB6XAANXNRD9T","A2DLV3WN24WTDS","3A3KKYU7P33Z3BR9PPFZ5194ZCQMWU","","null","<img src=""img/land6.png"" style=""width:200px;border:14px solid red;"">","null","","","","","","","",""
"","image-keyboard-response","278","113569","0.0-414.0","3E7TUJ2EGD8N956IANB6XAANXNRD9T","A2DLV3WN24WTDS","3A3KKYU7P33Z3BR9PPFZ5194ZCQMWU","","257.19999998807907","img/land2.png","76","258.39999997615814","3","0","false","1","1,1,0,0,1,1,1,0,1","",""
"","html-keyboard-response","279","113870","0.0-415.0","3E7TUJ2EGD8N956IANB6XAANXNRD9T","A2DLV3WN24WTDS","3A3KKYU7P33Z3BR9PPFZ5194ZCQMWU","","null","<img src=""img/land2.png"" style=""width:200px;border:14px solid red;"">","null","","","","","","","",""
"","image-keyboard-response","280","113959","0.0-417.0","3E7TUJ2EGD8N956IANB6XAANXNRD9T","A2DLV3WN24WTDS","3A3KKYU7P33Z3BR9PPFZ5194ZCQMWU","","87.10000002384186","img/land6.png","76","88","3","1","false","3","1,1,0,0,1,1,1,0,1","",""
"","html-keyboard-response","281","114260","0.0-418.0","3E7TUJ2EGD8N956IANB6XAANXNRD9T","A2DLV3WN24WTDS","3A3KKYU7P33Z3BR9PPFZ5194ZCQMWU","","null","<img src=""img/land6.png"" style=""width:200px; border:14px solid green;"">","null","","","","","","","",""
"","image-keyboard-response","282","114470","0.0-420.0","3E7TUJ2EGD8N956IANB6XAANXNRD9T","A2DLV3WN24WTDS","3A3KKYU7P33Z3BR9PPFZ5194ZCQMWU","","208","img/land2.png","76","209.10000002384186","3","0","false","1","1,1,0,0,1,1,1,0,1","",""
"","html-keyboard-response","283","114772","0.0-421.0","3E7TUJ2EGD8N956IANB6XAANXNRD9T","A2DLV3WN24WTDS","3A3KKYU7P33Z3BR9PPFZ5194ZCQMWU","","null","<img src=""img/land2.png"" style=""width:200px;border:14px solid red;"">","null","","","","","","","",""
"","image-keyboard-response","284","115184","0.0-423.0","3E7TUJ2EGD8N956IANB6XAANXNRD9T","A2DLV3WN24WTDS","3A3KKYU7P33Z3BR9PPFZ5194ZCQMWU","","411","img/land4.png","74","412","1","0","false","2","1,1,0,0,1,1,1,0,1","",""
"","html-keyboard-response","285","115487","0.0-424.0","3E7TUJ2EGD8N956IANB6XAANXNRD9T","A2DLV3WN24WTDS","3A3KKYU7P33Z3BR9PPFZ5194ZCQMWU","","null","<img src=""img/land4.png"" style=""width:200px;border:14px solid red;"">","null","","","","","","","",""
"","image-keyboard-response","286","115496","0.0-426.0","3E7TUJ2EGD8N956IANB6XAANXNRD9T","A2DLV3WN24WTDS","3A3KKYU7P33Z3BR9PPFZ5194ZCQMWU","","7.099999964237213","img/land4.png","74","8.299999952316284","1","0","false","2","1,1,0,0,1,1,1,0,1","",""
"","html-keyboard-response","287","115798","0.0-427.0","3E7TUJ2EGD8N956IANB6XAANXNRD9T","A2DLV3WN24WTDS","3A3KKYU7P33Z3BR9PPFZ5194ZCQMWU","","null","<img src=""img/land4.png"" style=""width:200px;border:14px solid red;"">","null","","","","","","","",""
"","image-keyboard-response","288","115853","0.0-429.0","3E7TUJ2EGD8N956IANB6XAANXNRD9T","A2DLV3WN24WTDS","3A3KKYU7P33Z3BR9PPFZ5194ZCQMWU","","52.30000001192093","img/land6.png","74","53.69999998807907","1","1","false","3","1,1,0,0,1,1,1,0,1","",""
"","html-keyboard-response","289","116154","0.0-430.0","3E7TUJ2EGD8N956IANB6XAANXNRD9T","A2DLV3WN24WTDS","3A3KKYU7P33Z3BR9PPFZ5194ZCQMWU","","null","<img src=""img/land6.png"" style=""width:200px; border:14px solid green;"">","null","","","","","","","",""
"","image-keyboard-response","290","116313","0.0-432.0","3E7TUJ2EGD8N956IANB6XAANXNRD9T","A2DLV3WN24WTDS","3A3KKYU7P33Z3BR9PPFZ5194ZCQMWU","","156.60000002384186","img/land2.png","75","157.5999999642372","2","1","false","1","1,1,0,0,1,1,1,0,1","",""
"","html-keyboard-response","291","116615","0.0-433.0","3E7TUJ2EGD8N956IANB6XAANXNRD9T","A2DLV3WN24WTDS","3A3KKYU7P33Z3BR9PPFZ5194ZCQMWU","","null","<img src=""img/land2.png"" style=""width:200px; border:14px solid green;"">","null","","","","","","","",""
"","image-keyboard-response","292","116812","0.0-435.0","3E7TUJ2EGD8N956IANB6XAANXNRD9T","A2DLV3WN24WTDS","3A3KKYU7P33Z3BR9PPFZ5194ZCQMWU","","195.29999995231628","img/land4.png","75","196.5","2","1","false","2","1,1,0,0,1,1,1,0,1","",""
"","html-keyboard-response","293","117114","0.0-436.0","3E7TUJ2EGD8N956IANB6XAANXNRD9T","A2DLV3WN24WTDS","3A3KKYU7P33Z3BR9PPFZ5194ZCQMWU","","null","<img src=""img/land4.png"" style=""width:200px; border:14px solid green;"">","null","","","","","","","",""
"","image-keyboard-response","294","117253","0.0-438.0","3E7TUJ2EGD8N956IANB6XAANXNRD9T","A2DLV3WN24WTDS","3A3KKYU7P33Z3BR9PPFZ5194ZCQMWU","","136.5","img/land4.png","75","138","2","1","false","2","1,1,0,0,1,1,1,0,1","",""
"","html-keyboard-response","295","117555","0.0-439.0","3E7TUJ2EGD8N956IANB6XAANXNRD9T","A2DLV3WN24WTDS","3A3KKYU7P33Z3BR9PPFZ5194ZCQMWU","","null","<img src=""img/land4.png"" style=""width:200px; border:14px solid green;"">","null","","","","","","","",""
"","image-keyboard-response","296","117625","0.0-441.0","3E7TUJ2EGD8N956IANB6XAANXNRD9T","A2DLV3WN24WTDS","3A3KKYU7P33Z3BR9PPFZ5194ZCQMWU","","68.09999996423721","img/land4.png","75","69.09999996423721","2","1","false","2","1,1,0,0,1,1,1,0,1","",""
"","html-keyboard-response","297","117928","0.0-442.0","3E7TUJ2EGD8N956IANB6XAANXNRD9T","A2DLV3WN24WTDS","3A3KKYU7P33Z3BR9PPFZ5194ZCQMWU","","null","<img src=""img/land4.png"" style=""width:200px; border:14px solid green;"">","null","","","","","","","",""
"","image-keyboard-response","298","117965","0.0-444.0","3E7TUJ2EGD8N956IANB6XAANXNRD9T","A2DLV3WN24WTDS","3A3KKYU7P33Z3BR9PPFZ5194ZCQMWU","","35","img/land4.png","75","36.30000001192093","2","1","false","2","1,1,0,0,1,1,1,0,1","",""
"","html-keyboard-response","299","118267","0.0-445.0","3E7TUJ2EGD8N956IANB6XAANXNRD9T","A2DLV3WN24WTDS","3A3KKYU7P33Z3BR9PPFZ5194ZCQMWU","","null","<img src=""img/land4.png"" style=""width:200px; border:14px solid green;"">","null","","","","","","","",""
"","image-keyboard-response","300","118361","0.0-447.0","3E7TUJ2EGD8N956IANB6XAANXNRD9T","A2DLV3WN24WTDS","3A3KKYU7P33Z3BR9PPFZ5194ZCQMWU","","92.09999996423721","img/land2.png","75","93.10000002384186","2","1","false","1","1,1,0,0,1,1,1,0,1","",""
"","html-keyboard-response","301","118663","0.0-448.0","3E7TUJ2EGD8N956IANB6XAANXNRD9T","A2DLV3WN24WTDS","3A3KKYU7P33Z3BR9PPFZ5194ZCQMWU","","null","<img src=""img/land2.png"" style=""width:200px; border:14px solid green;"">","null","","","","","","","",""
"","image-keyboard-response","302","118756","0.0-450.0","3E7TUJ2EGD8N956IANB6XAANXNRD9T","A2DLV3WN24WTDS","3A3KKYU7P33Z3BR9PPFZ5194ZCQMWU","","91.10000002384186","img/land2.png","75","92.39999997615814","2","1","false","1","1,1,0,0,1,1,1,0,1","",""
"","html-keyboard-response","303","119059","0.0-451.0","3E7TUJ2EGD8N956IANB6XAANXNRD9T","A2DLV3WN24WTDS","3A3KKYU7P33Z3BR9PPFZ5194ZCQMWU","","null","<img src=""img/land2.png"" style=""width:200px; border:14px solid green;"">","null","","","","","","","",""
"","image-keyboard-response","304","119166","0.0-453.0","3E7TUJ2EGD8N956IANB6XAANXNRD9T","A2DLV3WN24WTDS","3A3KKYU7P33Z3BR9PPFZ5194ZCQMWU","","105.30000001192093","img/land2.png","75","106.5","2","1","false","1","1,1,0,0,1,1,1,0,1","",""
"","html-keyboard-response","305","119468","0.0-454.0","3E7TUJ2EGD8N956IANB6XAANXNRD9T","A2DLV3WN24WTDS","3A3KKYU7P33Z3BR9PPFZ5194ZCQMWU","","null","<img src=""img/land2.png"" style=""width:200px; border:14px solid green;"">","null","","","","","","","",""
"","image-keyboard-response","306","119556","0.0-456.0","3E7TUJ2EGD8N956IANB6XAANXNRD9T","A2DLV3WN24WTDS","3A3KKYU7P33Z3BR9PPFZ5194ZCQMWU","","85.39999997615814","img/land4.png","75","87.19999998807907","2","1","false","2","1,1,0,0,1,1,1,0,1","",""
"","html-keyboard-response","307","119859","0.0-457.0","3E7TUJ2EGD8N956IANB6XAANXNRD9T","A2DLV3WN24WTDS","3A3KKYU7P33Z3BR9PPFZ5194ZCQMWU","","null","<img src=""img/land4.png"" style=""width:200px; border:14px solid green;"">","null","","","","","","","",""
"","image-keyboard-response","308","119986","0.0-459.0","3E7TUJ2EGD8N956IANB6XAANXNRD9T","A2DLV3WN24WTDS","3A3KKYU7P33Z3BR9PPFZ5194ZCQMWU","","125.69999998807907","img/land6.png","75","126.90000003576279","2","0","false","3","1,1,0,0,1,1,1,0,1","",""
"","html-keyboard-response","309","120289","0.0-460.0","3E7TUJ2EGD8N956IANB6XAANXNRD9T","A2DLV3WN24WTDS","3A3KKYU7P33Z3BR9PPFZ5194ZCQMWU","","null","<img src=""img/land6.png"" style=""width:200px;border:14px solid red;"">","null","","","","","","","",""
"","image-keyboard-response","310","120461","0.0-462.0","3E7TUJ2EGD8N956IANB6XAANXNRD9T","A2DLV3WN24WTDS","3A3KKYU7P33Z3BR9PPFZ5194ZCQMWU","","169.60000002384186","img/land6.png","76","170.79999995231628","3","1","false","3","1,1,0,0,1,1,1,0,1","",""
"","html-keyboard-response","311","120763","0.0-463.0","3E7TUJ2EGD8N956IANB6XAANXNRD9T","A2DLV3WN24WTDS","3A3KKYU7P33Z3BR9PPFZ5194ZCQMWU","","null","<img src=""img/land6.png"" style=""width:200px; border:14px solid green;"">","null","","","","","","","",""
"","image-keyboard-response","312","120863","0.0-465.0","3E7TUJ2EGD8N956IANB6XAANXNRD9T","A2DLV3WN24WTDS","3A3KKYU7P33Z3BR9PPFZ5194ZCQMWU","","98.70000004768372","img/land6.png","76","99.80000001192093","3","1","false","3","1,1,0,0,1,1,1,0,1","",""
"","html-keyboard-response","313","121166","0.0-466.0","3E7TUJ2EGD8N956IANB6XAANXNRD9T","A2DLV3WN24WTDS","3A3KKYU7P33Z3BR9PPFZ5194ZCQMWU","","null","<img src=""img/land6.png"" style=""width:200px; border:14px solid green;"">","null","","","","","","","",""
"","image-keyboard-response","314","121254","0.0-468.0","3E7TUJ2EGD8N956IANB6XAANXNRD9T","A2DLV3WN24WTDS","3A3KKYU7P33Z3BR9PPFZ5194ZCQMWU","","86.59999996423721","img/land6.png","76","87.5","3","1","false","3","1,1,0,0,1,1,1,0,1","",""
"","html-keyboard-response","315","121556","0.0-469.0","3E7TUJ2EGD8N956IANB6XAANXNRD9T","A2DLV3WN24WTDS","3A3KKYU7P33Z3BR9PPFZ5194ZCQMWU","","null","<img src=""img/land6.png"" style=""width:200px; border:14px solid green;"">","null","","","","","","","",""
"","image-keyboard-response","316","121646","0.0-471.0","3E7TUJ2EGD8N956IANB6XAANXNRD9T","A2DLV3WN24WTDS","3A3KKYU7P33Z3BR9PPFZ5194ZCQMWU","","89","img/land2.png","76","90","3","0","false","1","1,1,0,0,1,1,1,0,1","",""
"","html-keyboard-response","317","121949","0.0-472.0","3E7TUJ2EGD8N956IANB6XAANXNRD9T","A2DLV3WN24WTDS","3A3KKYU7P33Z3BR9PPFZ5194ZCQMWU","","null","<img src=""img/land2.png"" style=""width:200px;border:14px solid red;"">","null","","","","","","","",""
"","image-keyboard-response","318","122277","0.0-474.0","3E7TUJ2EGD8N956IANB6XAANXNRD9T","A2DLV3WN24WTDS","3A3KKYU7P33Z3BR9PPFZ5194ZCQMWU","","325.80000001192093","img/land6.png","74","327","1","1","false","3","1,1,0,0,1,1,1,0,1","",""
"","html-keyboard-response","319","122580","0.0-475.0","3E7TUJ2EGD8N956IANB6XAANXNRD9T","A2DLV3WN24WTDS","3A3KKYU7P33Z3BR9PPFZ5194ZCQMWU","","null","<img src=""img/land6.png"" style=""width:200px; border:14px solid green;"">","null","","","","","","","",""
"","image-keyboard-response","320","122661","0.0-477.0","3E7TUJ2EGD8N956IANB6XAANXNRD9T","A2DLV3WN24WTDS","3A3KKYU7P33Z3BR9PPFZ5194ZCQMWU","","79.30000001192093","img/land2.png","74","80.60000002384186","1","1","false","1","1,1,0,0,1,1,1,0,1","",""
"","html-keyboard-response","321","122964","0.0-478.0","3E7TUJ2EGD8N956IANB6XAANXNRD9T","A2DLV3WN24WTDS","3A3KKYU7P33Z3BR9PPFZ5194ZCQMWU","","null","<img src=""img/land2.png"" style=""width:200px; border:14px solid green;"">","null","","","","","","","",""
"","image-keyboard-response","322","123021","0.0-480.0","3E7TUJ2EGD8N956IANB6XAANXNRD9T","A2DLV3WN24WTDS","3A3KKYU7P33Z3BR9PPFZ5194ZCQMWU","","53.69999998807907","img/land2.png","74","55.09999996423721","1","1","false","1","1,1,0,0,1,1,1,0,1","",""
"","html-keyboard-response","323","123323","0.0-481.0","3E7TUJ2EGD8N956IANB6XAANXNRD9T","A2DLV3WN24WTDS","3A3KKYU7P33Z3BR9PPFZ5194ZCQMWU","","null","<img src=""img/land2.png"" style=""width:200px; border:14px solid green;"">","null","","","","","","","",""
"","image-keyboard-response","324","123431","0.0-483.0","3E7TUJ2EGD8N956IANB6XAANXNRD9T","A2DLV3WN24WTDS","3A3KKYU7P33Z3BR9PPFZ5194ZCQMWU","","106.80000001192093","img/land6.png","74","107.89999997615814","1","1","false","3","1,1,0,0,1,1,1,0,1","",""
"","html-keyboard-response","325","123733","0.0-484.0","3E7TUJ2EGD8N956IANB6XAANXNRD9T","A2DLV3WN24WTDS","3A3KKYU7P33Z3BR9PPFZ5194ZCQMWU","","null","<img src=""img/land6.png"" style=""width:200px; border:14px solid green;"">","null","","","","","","","",""
"","image-keyboard-response","326","123881","0.0-486.0","3E7TUJ2EGD8N956IANB6XAANXNRD9T","A2DLV3WN24WTDS","3A3KKYU7P33Z3BR9PPFZ5194ZCQMWU","","146","img/land4.png","74","147.10000002384186","1","0","false","2","1,1,0,0,1,1,1,0,1","",""
"","html-keyboard-response","327","124183","0.0-487.0","3E7TUJ2EGD8N956IANB6XAANXNRD9T","A2DLV3WN24WTDS","3A3KKYU7P33Z3BR9PPFZ5194ZCQMWU","","null","<img src=""img/land4.png"" style=""width:200px;border:14px solid red;"">","null","","","","","","","",""
"","image-keyboard-response","328","124404","0.0-489.0","3E7TUJ2EGD8N956IANB6XAANXNRD9T","A2DLV3WN24WTDS","3A3KKYU7P33Z3BR9PPFZ5194ZCQMWU","","219","img/land4.png","75","220.4000000357628","2","1","false","2","1,1,0,0,1,1,1,0,1","",""
"","html-keyboard-response","329","124708","0.0-490.0","3E7TUJ2EGD8N956IANB6XAANXNRD9T","A2DLV3WN24WTDS","3A3KKYU7P33Z3BR9PPFZ5194ZCQMWU","","null","<img src=""img/land4.png"" style=""width:200px; border:14px solid green;"">","null","","","","","","","",""
"","image-keyboard-response","330","124749","0.0-492.0","3E7TUJ2EGD8N956IANB6XAANXNRD9T","A2DLV3WN24WTDS","3A3KKYU7P33Z3BR9PPFZ5194ZCQMWU","","38.69999998807907","img/land4.png","75","40.19999998807907","2","1","false","2","1,1,0,0,1,1,1,0,1","",""
"","html-keyboard-response","331","125051","0.0-493.0","3E7TUJ2EGD8N956IANB6XAANXNRD9T","A2DLV3WN24WTDS","3A3KKYU7P33Z3BR9PPFZ5194ZCQMWU","","null","<img src=""img/land4.png"" style=""width:200px; border:14px solid green;"">","null","","","","","","","",""
"","image-keyboard-response","332","125154","0.0-495.0","3E7TUJ2EGD8N956IANB6XAANXNRD9T","A2DLV3WN24WTDS","3A3KKYU7P33Z3BR9PPFZ5194ZCQMWU","","101.80000001192093","img/land6.png","75","102.90000003576279","2","0","false","3","1,1,0,0,1,1,1,0,1","",""
"","html-keyboard-response","333","125457","0.0-496.0","3E7TUJ2EGD8N956IANB6XAANXNRD9T","A2DLV3WN24WTDS","3A3KKYU7P33Z3BR9PPFZ5194ZCQMWU","","null","<img src=""img/land6.png"" style=""width:200px;border:14px solid red;"">","null","","","","","","","",""
"","image-keyboard-response","334","125609","0.0-498.0","3E7TUJ2EGD8N956IANB6XAANXNRD9T","A2DLV3WN24WTDS","3A3KKYU7P33Z3BR9PPFZ5194ZCQMWU","","150.30000001192093","img/land4.png","76","151.4000000357628","3","1","false","2","1,1,0,0,1,1,1,0,1","",""
"","html-keyboard-response","335","125911","0.0-499.0","3E7TUJ2EGD8N956IANB6XAANXNRD9T","A2DLV3WN24WTDS","3A3KKYU7P33Z3BR9PPFZ5194ZCQMWU","","null","<img src=""img/land4.png"" style=""width:200px; border:14px solid green;"">","null","","","","","","","",""
"","image-keyboard-response","336","126039","0.0-501.0","3E7TUJ2EGD8N956IANB6XAANXNRD9T","A2DLV3WN24WTDS","3A3KKYU7P33Z3BR9PPFZ5194ZCQMWU","","125.5","img/land6.png","76","126.70000004768372","3","1","false","3","1,1,0,0,1,1,1,0,1","",""
"","html-keyboard-response","337","126342","0.0-502.0","3E7TUJ2EGD8N956IANB6XAANXNRD9T","A2DLV3WN24WTDS","3A3KKYU7P33Z3BR9PPFZ5194ZCQMWU","","null","<img src=""img/land6.png"" style=""width:200px; border:14px solid green;"">","null","","","","","","","",""
"","image-keyboard-response","338","126492","0.0-504.0","3E7TUJ2EGD8N956IANB6XAANXNRD9T","A2DLV3WN24WTDS","3A3KKYU7P33Z3BR9PPFZ5194ZCQMWU","","148.10000002384186","img/land6.png","76","149.19999998807907","3","1","false","3","1,1,0,0,1,1,1,0,1","",""
"","html-keyboard-response","339","126795","0.0-505.0","3E7TUJ2EGD8N956IANB6XAANXNRD9T","A2DLV3WN24WTDS","3A3KKYU7P33Z3BR9PPFZ5194ZCQMWU","","null","<img src=""img/land6.png"" style=""width:200px; border:14px solid green;"">","null","","","","","","","",""
"","image-keyboard-response","340","126889","0.0-507.0","3E7TUJ2EGD8N956IANB6XAANXNRD9T","A2DLV3WN24WTDS","3A3KKYU7P33Z3BR9PPFZ5194ZCQMWU","","92.59999996423721","img/land6.png","76","93.80000001192093","3","1","false","3","1,1,0,0,1,1,1,0,1","",""
"","html-keyboard-response","341","127192","0.0-508.0","3E7TUJ2EGD8N956IANB6XAANXNRD9T","A2DLV3WN24WTDS","3A3KKYU7P33Z3BR9PPFZ5194ZCQMWU","","null","<img src=""img/land6.png"" style=""width:200px; border:14px solid green;"">","null","","","","","","","",""
"","image-keyboard-response","342","127303","0.0-510.0","3E7TUJ2EGD8N956IANB6XAANXNRD9T","A2DLV3WN24WTDS","3A3KKYU7P33Z3BR9PPFZ5194ZCQMWU","","108.40000003576279","img/land6.png","76","109.39999997615814","3","1","false","3","1,1,0,0,1,1,1,0,1","",""
"","html-keyboard-response","343","127605","0.0-511.0","3E7TUJ2EGD8N956IANB6XAANXNRD9T","A2DLV3WN24WTDS","3A3KKYU7P33Z3BR9PPFZ5194ZCQMWU","","null","<img src=""img/land6.png"" style=""width:200px; border:14px solid green;"">","null","","","","","","","",""
"","image-keyboard-response","344","127701","0.0-513.0","3E7TUJ2EGD8N956IANB6XAANXNRD9T","A2DLV3WN24WTDS","3A3KKYU7P33Z3BR9PPFZ5194ZCQMWU","","93.39999997615814","img/land6.png","76","94.60000002384186","3","1","false","3","1,1,0,0,1,1,1,0,1","",""
"","html-keyboard-response","345","128003","0.0-514.0","3E7TUJ2EGD8N956IANB6XAANXNRD9T","A2DLV3WN24WTDS","3A3KKYU7P33Z3BR9PPFZ5194ZCQMWU","","null","<img src=""img/land6.png"" style=""width:200px; border:14px solid green;"">","null","","","","","","","",""
"","image-keyboard-response","346","128105","0.0-516.0","3E7TUJ2EGD8N956IANB6XAANXNRD9T","A2DLV3WN24WTDS","3A3KKYU7P33Z3BR9PPFZ5194ZCQMWU","","99.80000001192093","img/land6.png","76","101","3","1","false","3","1,1,0,0,1,1,1,0,1","",""
"","html-keyboard-response","347","128408","0.0-517.0","3E7TUJ2EGD8N956IANB6XAANXNRD9T","A2DLV3WN24WTDS","3A3KKYU7P33Z3BR9PPFZ5194ZCQMWU","","null","<img src=""img/land6.png"" style=""width:200px; border:14px solid green;"">","null","","","","","","","",""
"","image-keyboard-response","348","128493","0.0-519.0","3E7TUJ2EGD8N956IANB6XAANXNRD9T","A2DLV3WN24WTDS","3A3KKYU7P33Z3BR9PPFZ5194ZCQMWU","","83.5","img/land2.png","76","84.60000002384186","3","0","false","1","1,1,0,0,1,1,1,0,1","",""
"","html-keyboard-response","349","128795","0.0-520.0","3E7TUJ2EGD8N956IANB6XAANXNRD9T","A2DLV3WN24WTDS","3A3KKYU7P33Z3BR9PPFZ5194ZCQMWU","","null","<img src=""img/land2.png"" style=""width:200px;border:14px solid red;"">","null","","","","","","","",""
"","image-keyboard-response","350","128903","0.0-522.0","3E7TUJ2EGD8N956IANB6XAANXNRD9T","A2DLV3WN24WTDS","3A3KKYU7P33Z3BR9PPFZ5194ZCQMWU","","106.29999995231628","img/land4.png","75","107.5","2","1","false","2","1,1,0,0,1,1,1,0,1","",""
"","html-keyboard-response","351","129205","0.0-523.0","3E7TUJ2EGD8N956IANB6XAANXNRD9T","A2DLV3WN24WTDS","3A3KKYU7P33Z3BR9PPFZ5194ZCQMWU","","null","<img src=""img/land4.png"" style=""width:200px; border:14px solid green;"">","null","","","","","","","",""
"","image-keyboard-response","352","129287","0.0-525.0","3E7TUJ2EGD8N956IANB6XAANXNRD9T","A2DLV3WN24WTDS","3A3KKYU7P33Z3BR9PPFZ5194ZCQMWU","","79.10000002384186","img/land4.png","75","80.19999998807907","2","1","false","2","1,1,0,0,1,1,1,0,1","",""
"","html-keyboard-response","353","129589","0.0-526.0","3E7TUJ2EGD8N956IANB6XAANXNRD9T","A2DLV3WN24WTDS","3A3KKYU7P33Z3BR9PPFZ5194ZCQMWU","","null","<img src=""img/land4.png"" style=""width:200px; border:14px solid green;"">","null","","","","","","","",""
"","image-keyboard-response","354","129667","0.0-528.0","3E7TUJ2EGD8N956IANB6XAANXNRD9T","A2DLV3WN24WTDS","3A3KKYU7P33Z3BR9PPFZ5194ZCQMWU","","75.90000003576279","img/land6.png","75","77.19999998807907","2","0","false","3","1,1,0,0,1,1,1,0,1","",""
"","html-keyboard-response","355","129969","0.0-529.0","3E7TUJ2EGD8N956IANB6XAANXNRD9T","A2DLV3WN24WTDS","3A3KKYU7P33Z3BR9PPFZ5194ZCQMWU","","null","<img src=""img/land6.png"" style=""width:200px;border:14px solid red;"">","null","","","","","","","",""
"","image-keyboard-response","356","130200","0.0-531.0","3E7TUJ2EGD8N956IANB6XAANXNRD9T","A2DLV3WN24WTDS","3A3KKYU7P33Z3BR9PPFZ5194ZCQMWU","","228.89999997615814","img/land6.png","74","230.10000002384186","1","1","false","3","1,1,0,0,1,1,1,0,1","",""
"","html-keyboard-response","357","130503","0.0-532.0","3E7TUJ2EGD8N956IANB6XAANXNRD9T","A2DLV3WN24WTDS","3A3KKYU7P33Z3BR9PPFZ5194ZCQMWU","","null","<img src=""img/land6.png"" style=""width:200px; border:14px solid green;"">","null","","","","","","","",""
"","image-keyboard-response","358","130544","0.0-534.0","3E7TUJ2EGD8N956IANB6XAANXNRD9T","A2DLV3WN24WTDS","3A3KKYU7P33Z3BR9PPFZ5194ZCQMWU","","39.69999998807907","img/land2.png","74","40.59999996423721","1","1","false","1","1,1,0,0,1,1,1,0,1","",""
"","html-keyboard-response","359","130847","0.0-535.0","3E7TUJ2EGD8N956IANB6XAANXNRD9T","A2DLV3WN24WTDS","3A3KKYU7P33Z3BR9PPFZ5194ZCQMWU","","null","<img src=""img/land2.png"" style=""width:200px; border:14px solid green;"">","null","","","","","","","",""
"","image-keyboard-response","360","130937","0.0-537.0","3E7TUJ2EGD8N956IANB6XAANXNRD9T","A2DLV3WN24WTDS","3A3KKYU7P33Z3BR9PPFZ5194ZCQMWU","","88.69999998807907","img/land4.png","74","89.80000001192093","1","0","false","2","1,1,0,0,1,1,1,0,1","",""
"","html-keyboard-response","361","131240","0.0-538.0","3E7TUJ2EGD8N956IANB6XAANXNRD9T","A2DLV3WN24WTDS","3A3KKYU7P33Z3BR9PPFZ5194ZCQMWU","","null","<img src=""img/land4.png"" style=""width:200px;border:14px solid red;"">","null","","","","","","","",""
"","image-keyboard-response","362","131475","0.0-540.0","3E7TUJ2EGD8N956IANB6XAANXNRD9T","A2DLV3WN24WTDS","3A3KKYU7P33Z3BR9PPFZ5194ZCQMWU","","232.80000001192093","img/land2.png","75","233.9000000357628","2","1","false","1","1,1,0,0,1,1,1,0,1","",""
"","html-keyboard-response","363","131778","0.0-541.0","3E7TUJ2EGD8N956IANB6XAANXNRD9T","A2DLV3WN24WTDS","3A3KKYU7P33Z3BR9PPFZ5194ZCQMWU","","null","<img src=""img/land2.png"" style=""width:200px; border:14px solid green;"">","null","","","","","","","",""
"","instructions","364","133734","0.0-543.0","3E7TUJ2EGD8N956IANB6XAANXNRD9T","A2DLV3WN24WTDS","3A3KKYU7P33Z3BR9PPFZ5194ZCQMWU","[{""page_index"":0,""viewing_time"":1954.1000000238419}]","1955.1000000238419","","","","","","","","","",""
"","survey-text","365","138522","0.0-544.0-0.0","3E7TUJ2EGD8N956IANB6XAANXNRD9T","A2DLV3WN24WTDS","3A3KKYU7P33Z3BR9PPFZ5194ZCQMWU","","4783.199999988079","","","","","","","","","{""Q0"":""61""}",""
"","survey-multi-choice","366","140909","0.0-544.0-1.0","3E7TUJ2EGD8N956IANB6XAANXNRD9T","A2DLV3WN24WTDS","3A3KKYU7P33Z3BR9PPFZ5194ZCQMWU","","2378.399999976158","","","","","","","","","{""gender"":""F""}","[0]"
"","survey-text","367","146513","0.0-545.0","3E7TUJ2EGD8N956IANB6XAANXNRD9T","A2DLV3WN24WTDS","3A3KKYU7P33Z3BR9PPFZ5194ZCQMWU","","5600.199999988079","","","","","","","","","{""Q0"":""A2DLV3WN24WTDS""}",""
