"success","trial_type","trial_index","time_elapsed","internal_node_id","assignmentID","mturkID","hitID","view_history","rt","stimulus","key_press","reactionTime","a","r","s","cond","reward_cond","reward_cond_actual","reward_matrix_idx","responses","question_order"
"true","fullscreen","0","15166","0.0-0.0","3TOK3KHVJU4AZJ9ELZR2U8VG93A7OV","A2EQEQNOVLJQ71","356TQKY9XFJ5S7O4NGX4839SMNB87N","","","","","","","","","","","","","",""
"","instructions","1","92202","0.0-1.0","3TOK3KHVJU4AZJ9ELZR2U8VG93A7OV","A2EQEQNOVLJQ71","356TQKY9XFJ5S7O4NGX4839SMNB87N","[{""page_index"":0,""viewing_time"":7673},{""page_index"":1,""viewing_time"":5868.4000000003725},{""page_index"":2,""viewing_time"":13960.099999999627},{""page_index"":3,""viewing_time"":15055.900000000373},{""page_index"":4,""viewing_time"":5702.9000000003725},{""page_index"":5,""viewing_time"":9527},{""page_index"":6,""viewing_time"":19237.599999999627}]","77027.09999999963","","","","","","","","","","","",""
"","image-keyboard-response","2","94213","0.0-2.0","3TOK3KHVJU4AZJ9ELZR2U8VG93A7OV","A2EQEQNOVLJQ71","356TQKY9XFJ5S7O4NGX4839SMNB87N","","","img/land3.png","","2009.699999999255","-1","0","1","1","0.8,0.2,0.2,0.2,0.8,0.2,0.2,0.2,0.8","0.8,0.2,0.2,0.2,0.8,0.2,0.2,0.2,0.8","1","",""
"","html-keyboard-response","3","94531","0.0-3.0","3TOK3KHVJU4AZJ9ELZR2U8VG93A7OV","A2EQEQNOVLJQ71","356TQKY9XFJ5S7O4NGX4839SMNB87N","","null","<img src=""img/land3.png"" style=""width:200px;border:14px solid red;"">","null","","","","","","","","","",""
"","image-keyboard-response","4","96539","0.0-4.0","3TOK3KHVJU4AZJ9ELZR2U8VG93A7OV","A2EQEQNOVLJQ71","356TQKY9XFJ5S7O4NGX4839SMNB87N","","","img/land5.png","","2007.4000000003725","-1","0","2","1","0.8,0.2,0.2,0.2,0.8,0.2,0.2,0.2,0.8","0.8,0.2,0.2,0.2,0.8,0.2,0.2,0.2,0.8","1","",""
"","html-keyboard-response","5","96850","0.0-5.0","3TOK3KHVJU4AZJ9ELZR2U8VG93A7OV","A2EQEQNOVLJQ71","356TQKY9XFJ5S7O4NGX4839SMNB87N","","null","<img src=""img/land5.png"" style=""width:200px;border:14px solid red;"">","null","","","","","","","","","",""
"","image-keyboard-response","6","97504","0.0-6.0","3TOK3KHVJU4AZJ9ELZR2U8VG93A7OV","A2EQEQNOVLJQ71","356TQKY9XFJ5S7O4NGX4839SMNB87N","","647.5","img/land6.png","76","652.2999999988824","3","1","3","1","0.8,0.2,0.2,0.2,0.8,0.2,0.2,0.2,0.8","0.8,0.2,0.2,0.2,0.8,0.2,0.2,0.2,0.8","1","",""
"","html-keyboard-response","7","97811","0.0-7.0","3TOK3KHVJU4AZJ9ELZR2U8VG93A7OV","A2EQEQNOVLJQ71","356TQKY9XFJ5S7O4NGX4839SMNB87N","","null","<img src=""img/land6.png"" style=""width:200px; border:14px solid green;"">","null","","","","","","","","","",""
"","image-keyboard-response","8","99823","0.0-8.0","3TOK3KHVJU4AZJ9ELZR2U8VG93A7OV","A2EQEQNOVLJQ71","356TQKY9XFJ5S7O4NGX4839SMNB87N","","","img/land6.png","","2010.699999999255","-1","0","3","1","0.8,0.2,0.2,0.2,0.8,0.2,0.2,0.2,0.8","0.8,0.2,0.2,0.2,0.8,0.2,0.2,0.2,0.8","1","",""
"","html-keyboard-response","9","100131","0.0-9.0","3TOK3KHVJU4AZJ9ELZR2U8VG93A7OV","A2EQEQNOVLJQ71","356TQKY9XFJ5S7O4NGX4839SMNB87N","","null","<img src=""img/land6.png"" style=""width:200px;border:14px solid red;"">","null","","","","","","","","","",""
"","image-keyboard-response","10","100230","0.0-10.0","3TOK3KHVJU4AZJ9ELZR2U8VG93A7OV","A2EQEQNOVLJQ71","356TQKY9XFJ5S7O4NGX4839SMNB87N","","90.40000000037253","img/land5.png","74","95.59999999962747","1","0","2","1","0.8,0.2,0.2,0.2,0.8,0.2,0.2,0.2,0.8","0.8,0.2,0.2,0.2,0.8,0.2,0.2,0.2,0.8","1","",""
"","html-keyboard-response","11","100537","0.0-11.0","3TOK3KHVJU4AZJ9ELZR2U8VG93A7OV","A2EQEQNOVLJQ71","356TQKY9XFJ5S7O4NGX4839SMNB87N","","null","<img src=""img/land5.png"" style=""width:200px;border:14px solid red;"">","null","","","","","","","","","",""
"","image-keyboard-response","12","101297","0.0-12.0","3TOK3KHVJU4AZJ9ELZR2U8VG93A7OV","A2EQEQNOVLJQ71","356TQKY9XFJ5S7O4NGX4839SMNB87N","","751.5999999996275","img/land6.png","75","757.0999999996275","2","0","3","1","0.8,0.2,0.2,0.2,0.8,0.2,0.2,0.2,0.8","0.8,0.2,0.2,0.2,0.8,0.2,0.2,0.2,0.8","1","",""
"","html-keyboard-response","13","101605","0.0-13.0","3TOK3KHVJU4AZJ9ELZR2U8VG93A7OV","A2EQEQNOVLJQ71","356TQKY9XFJ5S7O4NGX4839SMNB87N","","null","<img src=""img/land6.png"" style=""width:200px;border:14px solid red;"">","null","","","","","","","","","",""
"","image-keyboard-response","14","103610","0.0-14.0","3TOK3KHVJU4AZJ9ELZR2U8VG93A7OV","A2EQEQNOVLJQ71","356TQKY9XFJ5S7O4NGX4839SMNB87N","","","img/land6.png","","2004.7000000011176","-1","0","3","1","0.8,0.2,0.2,0.2,0.8,0.2,0.2,0.2,0.8","0.8,0.2,0.2,0.2,0.8,0.2,0.2,0.2,0.8","1","",""
"","html-keyboard-response","15","103916","0.0-15.0","3TOK3KHVJU4AZJ9ELZR2U8VG93A7OV","A2EQEQNOVLJQ71","356TQKY9XFJ5S7O4NGX4839SMNB87N","","null","<img src=""img/land6.png"" style=""width:200px;border:14px solid red;"">","null","","","","","","","","","",""
"","image-keyboard-response","16","105921","0.0-16.0","3TOK3KHVJU4AZJ9ELZR2U8VG93A7OV","A2EQEQNOVLJQ71","356TQKY9XFJ5S7O4NGX4839SMNB87N","","","img/land5.png","","2004.5","-1","0","2","1","0.8,0.2,0.2,0.2,0.8,0.2,0.2,0.2,0.8","0.8,0.2,0.2,0.2,0.8,0.2,0.2,0.2,0.8","1","",""
"","html-keyboard-response","17","106227","0.0-17.0","3TOK3KHVJU4AZJ9ELZR2U8VG93A7OV","A2EQEQNOVLJQ71","356TQKY9XFJ5S7O4NGX4839SMNB87N","","null","<img src=""img/land5.png"" style=""width:200px;border:14px solid red;"">","null","","","","","","","","","",""
"","image-keyboard-response","18","107899","0.0-18.0","3TOK3KHVJU4AZJ9ELZR2U8VG93A7OV","A2EQEQNOVLJQ71","356TQKY9XFJ5S7O4NGX4839SMNB87N","","1663.5","img/land6.png","75","1668.5999999996275","2","0","3","1","0.8,0.2,0.2,0.2,0.8,0.2,0.2,0.2,0.8","0.8,0.2,0.2,0.2,0.8,0.2,0.2,0.2,0.8","1","",""
"","html-keyboard-response","19","108207","0.0-19.0","3TOK3KHVJU4AZJ9ELZR2U8VG93A7OV","A2EQEQNOVLJQ71","356TQKY9XFJ5S7O4NGX4839SMNB87N","","null","<img src=""img/land6.png"" style=""width:200px;border:14px solid red;"">","null","","","","","","","","","",""
"","image-keyboard-response","20","109623","0.0-20.0","3TOK3KHVJU4AZJ9ELZR2U8VG93A7OV","A2EQEQNOVLJQ71","356TQKY9XFJ5S7O4NGX4839SMNB87N","","1410","img/land3.png","76","1416","3","0","1","1","0.8,0.2,0.2,0.2,0.8,0.2,0.2,0.2,0.8","0.8,0.2,0.2,0.2,0.8,0.2,0.2,0.2,0.8","1","",""
"","html-keyboard-response","21","109930","0.0-21.0","3TOK3KHVJU4AZJ9ELZR2U8VG93A7OV","A2EQEQNOVLJQ71","356TQKY9XFJ5S7O4NGX4839SMNB87N","","null","<img src=""img/land3.png"" style=""width:200px;border:14px solid red;"">","null","","","","","","","","","",""
"","image-keyboard-response","22","111942","0.0-22.0","3TOK3KHVJU4AZJ9ELZR2U8VG93A7OV","A2EQEQNOVLJQ71","356TQKY9XFJ5S7O4NGX4839SMNB87N","","","img/land5.png","","2009.7999999988824","-1","0","2","1","0.8,0.2,0.2,0.2,0.8,0.2,0.2,0.2,0.8","0.8,0.2,0.2,0.2,0.8,0.2,0.2,0.2,0.8","1","",""
"","html-keyboard-response","23","112250","0.0-23.0","3TOK3KHVJU4AZJ9ELZR2U8VG93A7OV","A2EQEQNOVLJQ71","356TQKY9XFJ5S7O4NGX4839SMNB87N","","null","<img src=""img/land5.png"" style=""width:200px;border:14px solid red;"">","null","","","","","","","","","",""
"","image-keyboard-response","24","112315","0.0-24.0","3TOK3KHVJU4AZJ9ELZR2U8VG93A7OV","A2EQEQNOVLJQ71","356TQKY9XFJ5S7O4NGX4839SMNB87N","","59.40000000037253","img/land6.png","75","63.5","2","0","3","1","0.8,0.2,0.2,0.2,0.8,0.2,0.2,0.2,0.8","0.8,0.2,0.2,0.2,0.8,0.2,0.2,0.2,0.8","1","",""
"","html-keyboard-response","25","112622","0.0-25.0","3TOK3KHVJU4AZJ9ELZR2U8VG93A7OV","A2EQEQNOVLJQ71","356TQKY9XFJ5S7O4NGX4839SMNB87N","","null","<img src=""img/land6.png"" style=""width:200px;border:14px solid red;"">","null","","","","","","","","","",""
"","image-keyboard-response","26","114066","0.0-26.0","3TOK3KHVJU4AZJ9ELZR2U8VG93A7OV","A2EQEQNOVLJQ71","356TQKY9XFJ5S7O4NGX4839SMNB87N","","1439.5","img/land3.png","76","1444.7000000011176","3","1","1","1","0.8,0.2,0.2,0.2,0.8,0.2,0.2,0.2,0.8","0.8,0.2,0.2,0.2,0.8,0.2,0.2,0.2,0.8","1","",""
"","html-keyboard-response","27","114375","0.0-27.0","3TOK3KHVJU4AZJ9ELZR2U8VG93A7OV","A2EQEQNOVLJQ71","356TQKY9XFJ5S7O4NGX4839SMNB87N","","null","<img src=""img/land3.png"" style=""width:200px; border:14px solid green;"">","null","","","","","","","","","",""
"","image-keyboard-response","28","115871","0.0-28.0","3TOK3KHVJU4AZJ9ELZR2U8VG93A7OV","A2EQEQNOVLJQ71","356TQKY9XFJ5S7O4NGX4839SMNB87N","","1488.800000000745","img/land5.png","74","1493.6000000014901","1","0","2","1","0.8,0.2,0.2,0.2,0.8,0.2,0.2,0.2,0.8","0.8,0.2,0.2,0.2,0.8,0.2,0.2,0.2,0.8","1","",""
"","html-keyboard-response","29","116174","0.0-29.0","3TOK3KHVJU4AZJ9ELZR2U8VG93A7OV","A2EQEQNOVLJQ71","356TQKY9XFJ5S7O4NGX4839SMNB87N","","null","<img src=""img/land5.png"" style=""width:200px;border:14px solid red;"">","null","","","","","","","","","",""
"","image-keyboard-response","30","117159","0.0-30.0","3TOK3KHVJU4AZJ9ELZR2U8VG93A7OV","A2EQEQNOVLJQ71","356TQKY9XFJ5S7O4NGX4839SMNB87N","","979.7999999988824","img/land6.png","75","983.3000000007451","2","0","3","1","0.8,0.2,0.2,0.2,0.8,0.2,0.2,0.2,0.8","0.8,0.2,0.2,0.2,0.8,0.2,0.2,0.2,0.8","1","",""
"","html-keyboard-response","31","117464","0.0-31.0","3TOK3KHVJU4AZJ9ELZR2U8VG93A7OV","A2EQEQNOVLJQ71","356TQKY9XFJ5S7O4NGX4839SMNB87N","","null","<img src=""img/land6.png"" style=""width:200px;border:14px solid red;"">","null","","","","","","","","","",""
"","image-keyboard-response","32","118620","0.0-32.0","3TOK3KHVJU4AZJ9ELZR2U8VG93A7OV","A2EQEQNOVLJQ71","356TQKY9XFJ5S7O4NGX4839SMNB87N","","1149.4000000003725","img/land5.png","75","1154.4000000003725","2","0","2","1","0.8,0.2,0.2,0.2,0.8,0.2,0.2,0.2,0.8","0.8,0.2,0.2,0.2,0.8,0.2,0.2,0.2,0.8","1","",""
"","html-keyboard-response","33","118928","0.0-33.0","3TOK3KHVJU4AZJ9ELZR2U8VG93A7OV","A2EQEQNOVLJQ71","356TQKY9XFJ5S7O4NGX4839SMNB87N","","null","<img src=""img/land5.png"" style=""width:200px;border:14px solid red;"">","null","","","","","","","","","",""
"","image-keyboard-response","34","119732","0.0-34.0","3TOK3KHVJU4AZJ9ELZR2U8VG93A7OV","A2EQEQNOVLJQ71","356TQKY9XFJ5S7O4NGX4839SMNB87N","","797.0999999996275","img/land3.png","76","803.1999999992549","3","0","1","1","0.8,0.2,0.2,0.2,0.8,0.2,0.2,0.2,0.8","0.8,0.2,0.2,0.2,0.8,0.2,0.2,0.2,0.8","1","",""
"","html-keyboard-response","35","120039","0.0-35.0","3TOK3KHVJU4AZJ9ELZR2U8VG93A7OV","A2EQEQNOVLJQ71","356TQKY9XFJ5S7O4NGX4839SMNB87N","","null","<img src=""img/land3.png"" style=""width:200px;border:14px solid red;"">","null","","","","","","","","","",""
"","image-keyboard-response","36","121557","0.0-36.0","3TOK3KHVJU4AZJ9ELZR2U8VG93A7OV","A2EQEQNOVLJQ71","356TQKY9XFJ5S7O4NGX4839SMNB87N","","1509","img/land3.png","76","1514.2999999988824","3","0","1","1","0.8,0.2,0.2,0.2,0.8,0.2,0.2,0.2,0.8","0.8,0.2,0.2,0.2,0.8,0.2,0.2,0.2,0.8","1","",""
"","html-keyboard-response","37","121863","0.0-37.0","3TOK3KHVJU4AZJ9ELZR2U8VG93A7OV","A2EQEQNOVLJQ71","356TQKY9XFJ5S7O4NGX4839SMNB87N","","null","<img src=""img/land3.png"" style=""width:200px;border:14px solid red;"">","null","","","","","","","","","",""
"","image-keyboard-response","38","123196","0.0-38.0","3TOK3KHVJU4AZJ9ELZR2U8VG93A7OV","A2EQEQNOVLJQ71","356TQKY9XFJ5S7O4NGX4839SMNB87N","","1325.800000000745","img/land6.png","76","1330.7999999988824","3","0","3","1","0.8,0.2,0.2,0.2,0.8,0.2,0.2,0.2,0.8","0.8,0.2,0.2,0.2,0.8,0.2,0.2,0.2,0.8","1","",""
"","html-keyboard-response","39","123501","0.0-39.0","3TOK3KHVJU4AZJ9ELZR2U8VG93A7OV","A2EQEQNOVLJQ71","356TQKY9XFJ5S7O4NGX4839SMNB87N","","null","<img src=""img/land6.png"" style=""width:200px;border:14px solid red;"">","null","","","","","","","","","",""
"","image-keyboard-response","40","124996","0.0-40.0","3TOK3KHVJU4AZJ9ELZR2U8VG93A7OV","A2EQEQNOVLJQ71","356TQKY9XFJ5S7O4NGX4839SMNB87N","","1485.699999999255","img/land6.png","74","1493.4000000003725","1","0","3","1","0.8,0.2,0.2,0.2,0.8,0.2,0.2,0.2,0.8","0.8,0.2,0.2,0.2,0.8,0.2,0.2,0.2,0.8","1","",""
"","html-keyboard-response","41","125303","0.0-41.0","3TOK3KHVJU4AZJ9ELZR2U8VG93A7OV","A2EQEQNOVLJQ71","356TQKY9XFJ5S7O4NGX4839SMNB87N","","null","<img src=""img/land6.png"" style=""width:200px;border:14px solid red;"">","null","","","","","","","","","",""
"","image-keyboard-response","42","127312","0.0-42.0","3TOK3KHVJU4AZJ9ELZR2U8VG93A7OV","A2EQEQNOVLJQ71","356TQKY9XFJ5S7O4NGX4839SMNB87N","","","img/land5.png","","2007","-1","0","2","1","0.8,0.2,0.2,0.2,0.8,0.2,0.2,0.2,0.8","0.8,0.2,0.2,0.2,0.8,0.2,0.2,0.2,0.8","1","",""
"","html-keyboard-response","43","127620","0.0-43.0","3TOK3KHVJU4AZJ9ELZR2U8VG93A7OV","A2EQEQNOVLJQ71","356TQKY9XFJ5S7O4NGX4839SMNB87N","","null","<img src=""img/land5.png"" style=""width:200px;border:14px solid red;"">","null","","","","","","","","","",""
"","image-keyboard-response","44","127648","0.0-44.0","3TOK3KHVJU4AZJ9ELZR2U8VG93A7OV","A2EQEQNOVLJQ71","356TQKY9XFJ5S7O4NGX4839SMNB87N","","22.09999999962747","img/land6.png","75","27.200000001117587","2","0","3","1","0.8,0.2,0.2,0.2,0.8,0.2,0.2,0.2,0.8","0.8,0.2,0.2,0.2,0.8,0.2,0.2,0.2,0.8","1","",""
"","html-keyboard-response","45","127955","0.0-45.0","3TOK3KHVJU4AZJ9ELZR2U8VG93A7OV","A2EQEQNOVLJQ71","356TQKY9XFJ5S7O4NGX4839SMNB87N","","null","<img src=""img/land6.png"" style=""width:200px;border:14px solid red;"">","null","","","","","","","","","",""
"","image-keyboard-response","46","129965","0.0-46.0","3TOK3KHVJU4AZJ9ELZR2U8VG93A7OV","A2EQEQNOVLJQ71","356TQKY9XFJ5S7O4NGX4839SMNB87N","","","img/land6.png","","2008.699999999255","-1","0","3","1","0.8,0.2,0.2,0.2,0.8,0.2,0.2,0.2,0.8","0.8,0.2,0.2,0.2,0.8,0.2,0.2,0.2,0.8","1","",""
"","html-keyboard-response","47","130270","0.0-47.0","3TOK3KHVJU4AZJ9ELZR2U8VG93A7OV","A2EQEQNOVLJQ71","356TQKY9XFJ5S7O4NGX4839SMNB87N","","null","<img src=""img/land6.png"" style=""width:200px;border:14px solid red;"">","null","","","","","","","","","",""
"","image-keyboard-response","48","131465","0.0-48.0","3TOK3KHVJU4AZJ9ELZR2U8VG93A7OV","A2EQEQNOVLJQ71","356TQKY9XFJ5S7O4NGX4839SMNB87N","","1190","img/land3.png","75","1194.0999999996275","2","0","1","1","0.8,0.2,0.2,0.2,0.8,0.2,0.2,0.2,0.8","0.8,0.2,0.2,0.2,0.8,0.2,0.2,0.2,0.8","1","",""
"","html-keyboard-response","49","131772","0.0-49.0","3TOK3KHVJU4AZJ9ELZR2U8VG93A7OV","A2EQEQNOVLJQ71","356TQKY9XFJ5S7O4NGX4839SMNB87N","","null","<img src=""img/land3.png"" style=""width:200px;border:14px solid red;"">","null","","","","","","","","","",""
"","image-keyboard-response","50","133782","0.0-50.0","3TOK3KHVJU4AZJ9ELZR2U8VG93A7OV","A2EQEQNOVLJQ71","356TQKY9XFJ5S7O4NGX4839SMNB87N","","","img/land3.png","","2007.9000000003725","-1","0","1","1","0.8,0.2,0.2,0.2,0.8,0.2,0.2,0.2,0.8","0.8,0.2,0.2,0.2,0.8,0.2,0.2,0.2,0.8","1","",""
"","html-keyboard-response","51","134091","0.0-51.0","3TOK3KHVJU4AZJ9ELZR2U8VG93A7OV","A2EQEQNOVLJQ71","356TQKY9XFJ5S7O4NGX4839SMNB87N","","null","<img src=""img/land3.png"" style=""width:200px;border:14px solid red;"">","null","","","","","","","","","",""
"","image-keyboard-response","52","134383","0.0-52.0","3TOK3KHVJU4AZJ9ELZR2U8VG93A7OV","A2EQEQNOVLJQ71","356TQKY9XFJ5S7O4NGX4839SMNB87N","","284.7000000011176","img/land6.png","76","291.5","3","1","3","1","0.8,0.2,0.2,0.2,0.8,0.2,0.2,0.2,0.8","0.8,0.2,0.2,0.2,0.8,0.2,0.2,0.2,0.8","1","",""
"","html-keyboard-response","53","134688","0.0-53.0","3TOK3KHVJU4AZJ9ELZR2U8VG93A7OV","A2EQEQNOVLJQ71","356TQKY9XFJ5S7O4NGX4839SMNB87N","","null","<img src=""img/land6.png"" style=""width:200px; border:14px solid green;"">","null","","","","","","","","","",""
"","image-keyboard-response","54","136691","0.0-54.0","3TOK3KHVJU4AZJ9ELZR2U8VG93A7OV","A2EQEQNOVLJQ71","356TQKY9XFJ5S7O4NGX4839SMNB87N","","","img/land3.png","","2003.7999999988824","-1","0","1","1","0.8,0.2,0.2,0.2,0.8,0.2,0.2,0.2,0.8","0.8,0.2,0.2,0.2,0.8,0.2,0.2,0.2,0.8","1","",""
"","html-keyboard-response","55","137000","0.0-55.0","3TOK3KHVJU4AZJ9ELZR2U8VG93A7OV","A2EQEQNOVLJQ71","356TQKY9XFJ5S7O4NGX4839SMNB87N","","null","<img src=""img/land3.png"" style=""width:200px;border:14px solid red;"">","null","","","","","","","","","",""
"","image-keyboard-response","56","138345","0.0-56.0","3TOK3KHVJU4AZJ9ELZR2U8VG93A7OV","A2EQEQNOVLJQ71","356TQKY9XFJ5S7O4NGX4839SMNB87N","","1340.7999999988824","img/land5.png","74","1343.699999999255","1","1","2","1","0.8,0.2,0.2,0.2,0.8,0.2,0.2,0.2,0.8","0.8,0.2,0.2,0.2,0.8,0.2,0.2,0.2,0.8","1","",""
"","html-keyboard-response","57","138652","0.0-57.0","3TOK3KHVJU4AZJ9ELZR2U8VG93A7OV","A2EQEQNOVLJQ71","356TQKY9XFJ5S7O4NGX4839SMNB87N","","null","<img src=""img/land5.png"" style=""width:200px; border:14px solid green;"">","null","","","","","","","","","",""
"","image-keyboard-response","58","139843","0.0-58.0","3TOK3KHVJU4AZJ9ELZR2U8VG93A7OV","A2EQEQNOVLJQ71","356TQKY9XFJ5S7O4NGX4839SMNB87N","","1180.5","img/land6.png","76","1189.2000000011176","3","1","3","1","0.8,0.2,0.2,0.2,0.8,0.2,0.2,0.2,0.8","0.8,0.2,0.2,0.2,0.8,0.2,0.2,0.2,0.8","1","",""
"","html-keyboard-response","59","140151","0.0-59.0","3TOK3KHVJU4AZJ9ELZR2U8VG93A7OV","A2EQEQNOVLJQ71","356TQKY9XFJ5S7O4NGX4839SMNB87N","","null","<img src=""img/land6.png"" style=""width:200px; border:14px solid green;"">","null","","","","","","","","","",""
"","image-keyboard-response","60","142157","0.0-60.0","3TOK3KHVJU4AZJ9ELZR2U8VG93A7OV","A2EQEQNOVLJQ71","356TQKY9XFJ5S7O4NGX4839SMNB87N","","","img/land6.png","","2004.5","-1","0","3","1","0.8,0.2,0.2,0.2,0.8,0.2,0.2,0.2,0.8","0.8,0.2,0.2,0.2,0.8,0.2,0.2,0.2,0.8","1","",""
"","html-keyboard-response","61","142464","0.0-61.0","3TOK3KHVJU4AZJ9ELZR2U8VG93A7OV","A2EQEQNOVLJQ71","356TQKY9XFJ5S7O4NGX4839SMNB87N","","null","<img src=""img/land6.png"" style=""width:200px;border:14px solid red;"">","null","","","","","","","","","",""
"","image-keyboard-response","62","143128","0.0-62.0","3TOK3KHVJU4AZJ9ELZR2U8VG93A7OV","A2EQEQNOVLJQ71","356TQKY9XFJ5S7O4NGX4839SMNB87N","","658.5999999996275","img/land5.png","75","663","2","1","2","1","0.8,0.2,0.2,0.2,0.8,0.2,0.2,0.2,0.8","0.8,0.2,0.2,0.2,0.8,0.2,0.2,0.2,0.8","1","",""
"","html-keyboard-response","63","143436","0.0-63.0","3TOK3KHVJU4AZJ9ELZR2U8VG93A7OV","A2EQEQNOVLJQ71","356TQKY9XFJ5S7O4NGX4839SMNB87N","","null","<img src=""img/land5.png"" style=""width:200px; border:14px solid green;"">","null","","","","","","","","","",""
"","image-keyboard-response","64","145329","0.0-64.0","3TOK3KHVJU4AZJ9ELZR2U8VG93A7OV","A2EQEQNOVLJQ71","356TQKY9XFJ5S7O4NGX4839SMNB87N","","1883.9000000003725","img/land6.png","74","1890.800000000745","1","0","3","1","0.8,0.2,0.2,0.2,0.8,0.2,0.2,0.2,0.8","0.8,0.2,0.2,0.2,0.8,0.2,0.2,0.2,0.8","1","",""
"","html-keyboard-response","65","145633","0.0-65.0","3TOK3KHVJU4AZJ9ELZR2U8VG93A7OV","A2EQEQNOVLJQ71","356TQKY9XFJ5S7O4NGX4839SMNB87N","","null","<img src=""img/land6.png"" style=""width:200px;border:14px solid red;"">","null","","","","","","","","","",""
"","image-keyboard-response","66","146385","0.0-66.0","3TOK3KHVJU4AZJ9ELZR2U8VG93A7OV","A2EQEQNOVLJQ71","356TQKY9XFJ5S7O4NGX4839SMNB87N","","748.5","img/land3.png","76","751.6999999992549","3","0","1","1","0.8,0.2,0.2,0.2,0.8,0.2,0.2,0.2,0.8","0.8,0.2,0.2,0.2,0.8,0.2,0.2,0.2,0.8","1","",""
"","html-keyboard-response","67","146693","0.0-67.0","3TOK3KHVJU4AZJ9ELZR2U8VG93A7OV","A2EQEQNOVLJQ71","356TQKY9XFJ5S7O4NGX4839SMNB87N","","null","<img src=""img/land3.png"" style=""width:200px;border:14px solid red;"">","null","","","","","","","","","",""
"","image-keyboard-response","68","147853","0.0-68.0","3TOK3KHVJU4AZJ9ELZR2U8VG93A7OV","A2EQEQNOVLJQ71","356TQKY9XFJ5S7O4NGX4839SMNB87N","","1150","img/land6.png","75","1162.699999999255","2","0","3","1","0.8,0.2,0.2,0.2,0.8,0.2,0.2,0.2,0.8","0.8,0.2,0.2,0.2,0.8,0.2,0.2,0.2,0.8","1","",""
"","html-keyboard-response","69","148161","0.0-69.0","3TOK3KHVJU4AZJ9ELZR2U8VG93A7OV","A2EQEQNOVLJQ71","356TQKY9XFJ5S7O4NGX4839SMNB87N","","null","<img src=""img/land6.png"" style=""width:200px;border:14px solid red;"">","null","","","","","","","","","",""
"","image-keyboard-response","70","149341","0.0-70.0","3TOK3KHVJU4AZJ9ELZR2U8VG93A7OV","A2EQEQNOVLJQ71","356TQKY9XFJ5S7O4NGX4839SMNB87N","","1174.4000000003725","img/land3.png","75","1179.800000000745","2","0","1","1","0.8,0.2,0.2,0.2,0.8,0.2,0.2,0.2,0.8","0.8,0.2,0.2,0.2,0.8,0.2,0.2,0.2,0.8","1","",""
"","html-keyboard-response","71","149651","0.0-71.0","3TOK3KHVJU4AZJ9ELZR2U8VG93A7OV","A2EQEQNOVLJQ71","356TQKY9XFJ5S7O4NGX4839SMNB87N","","null","<img src=""img/land3.png"" style=""width:200px;border:14px solid red;"">","null","","","","","","","","","",""
"","image-keyboard-response","72","151660","0.0-72.0","3TOK3KHVJU4AZJ9ELZR2U8VG93A7OV","A2EQEQNOVLJQ71","356TQKY9XFJ5S7O4NGX4839SMNB87N","","","img/land3.png","","2008.5","-1","0","1","1","0.8,0.2,0.2,0.2,0.8,0.2,0.2,0.2,0.8","0.8,0.2,0.2,0.2,0.8,0.2,0.2,0.2,0.8","1","",""
"","html-keyboard-response","73","151968","0.0-73.0","3TOK3KHVJU4AZJ9ELZR2U8VG93A7OV","A2EQEQNOVLJQ71","356TQKY9XFJ5S7O4NGX4839SMNB87N","","null","<img src=""img/land3.png"" style=""width:200px;border:14px solid red;"">","null","","","","","","","","","",""
"","image-keyboard-response","74","152956","0.0-74.0","3TOK3KHVJU4AZJ9ELZR2U8VG93A7OV","A2EQEQNOVLJQ71","356TQKY9XFJ5S7O4NGX4839SMNB87N","","981.2999999988824","img/land5.png","76","987.3000000007451","3","0","2","1","0.8,0.2,0.2,0.2,0.8,0.2,0.2,0.2,0.8","0.8,0.2,0.2,0.2,0.8,0.2,0.2,0.2,0.8","1","",""
"","html-keyboard-response","75","153260","0.0-75.0","3TOK3KHVJU4AZJ9ELZR2U8VG93A7OV","A2EQEQNOVLJQ71","356TQKY9XFJ5S7O4NGX4839SMNB87N","","null","<img src=""img/land5.png"" style=""width:200px;border:14px solid red;"">","null","","","","","","","","","",""
"","image-keyboard-response","76","155267","0.0-76.0","3TOK3KHVJU4AZJ9ELZR2U8VG93A7OV","A2EQEQNOVLJQ71","356TQKY9XFJ5S7O4NGX4839SMNB87N","","","img/land5.png","","2005.9000000003725","-1","0","2","1","0.8,0.2,0.2,0.2,0.8,0.2,0.2,0.2,0.8","0.8,0.2,0.2,0.2,0.8,0.2,0.2,0.2,0.8","1","",""
"","html-keyboard-response","77","155574","0.0-77.0","3TOK3KHVJU4AZJ9ELZR2U8VG93A7OV","A2EQEQNOVLJQ71","356TQKY9XFJ5S7O4NGX4839SMNB87N","","null","<img src=""img/land5.png"" style=""width:200px;border:14px solid red;"">","null","","","","","","","","","",""
"","image-keyboard-response","78","156036","0.0-78.0","3TOK3KHVJU4AZJ9ELZR2U8VG93A7OV","A2EQEQNOVLJQ71","356TQKY9XFJ5S7O4NGX4839SMNB87N","","455.90000000037253","img/land6.png","74","461","1","0","3","1","0.8,0.2,0.2,0.2,0.8,0.2,0.2,0.2,0.8","0.8,0.2,0.2,0.2,0.8,0.2,0.2,0.2,0.8","1","",""
"","html-keyboard-response","79","156343","0.0-79.0","3TOK3KHVJU4AZJ9ELZR2U8VG93A7OV","A2EQEQNOVLJQ71","356TQKY9XFJ5S7O4NGX4839SMNB87N","","null","<img src=""img/land6.png"" style=""width:200px;border:14px solid red;"">","null","","","","","","","","","",""
"","image-keyboard-response","80","158349","0.0-80.0","3TOK3KHVJU4AZJ9ELZR2U8VG93A7OV","A2EQEQNOVLJQ71","356TQKY9XFJ5S7O4NGX4839SMNB87N","","","img/land6.png","","2004.0999999996275","-1","0","3","1","0.8,0.2,0.2,0.2,0.8,0.2,0.2,0.2,0.8","0.8,0.2,0.2,0.2,0.8,0.2,0.2,0.2,0.8","1","",""
"","html-keyboard-response","81","158656","0.0-81.0","3TOK3KHVJU4AZJ9ELZR2U8VG93A7OV","A2EQEQNOVLJQ71","356TQKY9XFJ5S7O4NGX4839SMNB87N","","null","<img src=""img/land6.png"" style=""width:200px;border:14px solid red;"">","null","","","","","","","","","",""
"","image-keyboard-response","82","160491","0.0-82.0","3TOK3KHVJU4AZJ9ELZR2U8VG93A7OV","A2EQEQNOVLJQ71","356TQKY9XFJ5S7O4NGX4839SMNB87N","","1829.199999999255","img/land5.png","75","1834.5","2","1","2","1","0.8,0.2,0.2,0.2,0.8,0.2,0.2,0.2,0.8","0.8,0.2,0.2,0.2,0.8,0.2,0.2,0.2,0.8","1","",""
"","html-keyboard-response","83","160799","0.0-83.0","3TOK3KHVJU4AZJ9ELZR2U8VG93A7OV","A2EQEQNOVLJQ71","356TQKY9XFJ5S7O4NGX4839SMNB87N","","null","<img src=""img/land5.png"" style=""width:200px; border:14px solid green;"">","null","","","","","","","","","",""
"","image-keyboard-response","84","162807","0.0-84.0","3TOK3KHVJU4AZJ9ELZR2U8VG93A7OV","A2EQEQNOVLJQ71","356TQKY9XFJ5S7O4NGX4839SMNB87N","","","img/land6.png","","2006.2000000011176","-1","0","3","1","0.8,0.2,0.2,0.2,0.8,0.2,0.2,0.2,0.8","0.8,0.2,0.2,0.2,0.8,0.2,0.2,0.2,0.8","1","",""
"","html-keyboard-response","85","163115","0.0-85.0","3TOK3KHVJU4AZJ9ELZR2U8VG93A7OV","A2EQEQNOVLJQ71","356TQKY9XFJ5S7O4NGX4839SMNB87N","","null","<img src=""img/land6.png"" style=""width:200px;border:14px solid red;"">","null","","","","","","","","","",""
"","image-keyboard-response","86","163974","0.0-86.0","3TOK3KHVJU4AZJ9ELZR2U8VG93A7OV","A2EQEQNOVLJQ71","356TQKY9XFJ5S7O4NGX4839SMNB87N","","849.2000000011176","img/land3.png","76","855.8000000007451","3","0","1","1","0.8,0.2,0.2,0.2,0.8,0.2,0.2,0.2,0.8","0.8,0.2,0.2,0.2,0.8,0.2,0.2,0.2,0.8","1","",""
"","html-keyboard-response","87","164279","0.0-87.0","3TOK3KHVJU4AZJ9ELZR2U8VG93A7OV","A2EQEQNOVLJQ71","356TQKY9XFJ5S7O4NGX4839SMNB87N","","null","<img src=""img/land3.png"" style=""width:200px;border:14px solid red;"">","null","","","","","","","","","",""
"","image-keyboard-response","88","166284","0.0-88.0","3TOK3KHVJU4AZJ9ELZR2U8VG93A7OV","A2EQEQNOVLJQ71","356TQKY9XFJ5S7O4NGX4839SMNB87N","","","img/land3.png","","2003.5","-1","0","1","1","0.8,0.2,0.2,0.2,0.8,0.2,0.2,0.2,0.8","0.8,0.2,0.2,0.2,0.8,0.2,0.2,0.2,0.8","1","",""
"","html-keyboard-response","89","166589","0.0-89.0","3TOK3KHVJU4AZJ9ELZR2U8VG93A7OV","A2EQEQNOVLJQ71","356TQKY9XFJ5S7O4NGX4839SMNB87N","","null","<img src=""img/land3.png"" style=""width:200px;border:14px solid red;"">","null","","","","","","","","","",""
"","image-keyboard-response","90","167441","0.0-90.0","3TOK3KHVJU4AZJ9ELZR2U8VG93A7OV","A2EQEQNOVLJQ71","356TQKY9XFJ5S7O4NGX4839SMNB87N","","847","img/land5.png","75","851","2","1","2","1","0.8,0.2,0.2,0.2,0.8,0.2,0.2,0.2,0.8","0.8,0.2,0.2,0.2,0.8,0.2,0.2,0.2,0.8","1","",""
"","html-keyboard-response","91","167751","0.0-91.0","3TOK3KHVJU4AZJ9ELZR2U8VG93A7OV","A2EQEQNOVLJQ71","356TQKY9XFJ5S7O4NGX4839SMNB87N","","null","<img src=""img/land5.png"" style=""width:200px; border:14px solid green;"">","null","","","","","","","","","",""
"","image-keyboard-response","92","169758","0.0-92.0","3TOK3KHVJU4AZJ9ELZR2U8VG93A7OV","A2EQEQNOVLJQ71","356TQKY9XFJ5S7O4NGX4839SMNB87N","","","img/land5.png","","2005","-1","0","2","1","0.8,0.2,0.2,0.2,0.8,0.2,0.2,0.2,0.8","0.8,0.2,0.2,0.2,0.8,0.2,0.2,0.2,0.8","1","",""
"","html-keyboard-response","93","170063","0.0-93.0","3TOK3KHVJU4AZJ9ELZR2U8VG93A7OV","A2EQEQNOVLJQ71","356TQKY9XFJ5S7O4NGX4839SMNB87N","","null","<img src=""img/land5.png"" style=""width:200px;border:14px solid red;"">","null","","","","","","","","","",""
"","image-keyboard-response","94","170188","0.0-94.0","3TOK3KHVJU4AZJ9ELZR2U8VG93A7OV","A2EQEQNOVLJQ71","356TQKY9XFJ5S7O4NGX4839SMNB87N","","116.20000000111759","img/land5.png","76","122.30000000074506","3","0","2","1","0.8,0.2,0.2,0.2,0.8,0.2,0.2,0.2,0.8","0.8,0.2,0.2,0.2,0.8,0.2,0.2,0.2,0.8","1","",""
"","html-keyboard-response","95","170494","0.0-95.0","3TOK3KHVJU4AZJ9ELZR2U8VG93A7OV","A2EQEQNOVLJQ71","356TQKY9XFJ5S7O4NGX4839SMNB87N","","null","<img src=""img/land5.png"" style=""width:200px;border:14px solid red;"">","null","","","","","","","","","",""
"","image-keyboard-response","96","171660","0.0-96.0","3TOK3KHVJU4AZJ9ELZR2U8VG93A7OV","A2EQEQNOVLJQ71","356TQKY9XFJ5S7O4NGX4839SMNB87N","","1159.2000000011176","img/land3.png","76","1164.4000000003725","3","0","1","1","0.8,0.2,0.2,0.2,0.8,0.2,0.2,0.2,0.8","0.8,0.2,0.2,0.2,0.8,0.2,0.2,0.2,0.8","1","",""
"","html-keyboard-response","97","171964","0.0-97.0","3TOK3KHVJU4AZJ9ELZR2U8VG93A7OV","A2EQEQNOVLJQ71","356TQKY9XFJ5S7O4NGX4839SMNB87N","","null","<img src=""img/land3.png"" style=""width:200px;border:14px solid red;"">","null","","","","","","","","","",""
"","image-keyboard-response","98","172769","0.0-98.0","3TOK3KHVJU4AZJ9ELZR2U8VG93A7OV","A2EQEQNOVLJQ71","356TQKY9XFJ5S7O4NGX4839SMNB87N","","796","img/land6.png","74","802.3000000007451","1","0","3","1","0.8,0.2,0.2,0.2,0.8,0.2,0.2,0.2,0.8","0.8,0.2,0.2,0.2,0.8,0.2,0.2,0.2,0.8","1","",""
"","html-keyboard-response","99","173076","0.0-99.0","3TOK3KHVJU4AZJ9ELZR2U8VG93A7OV","A2EQEQNOVLJQ71","356TQKY9XFJ5S7O4NGX4839SMNB87N","","null","<img src=""img/land6.png"" style=""width:200px;border:14px solid red;"">","null","","","","","","","","","",""
"","image-keyboard-response","100","173986","0.0-100.0","3TOK3KHVJU4AZJ9ELZR2U8VG93A7OV","A2EQEQNOVLJQ71","356TQKY9XFJ5S7O4NGX4839SMNB87N","","903.4000000003725","img/land5.png","75","910.0999999996275","2","1","2","1","0.8,0.2,0.2,0.2,0.8,0.2,0.2,0.2,0.8","0.8,0.2,0.2,0.2,0.8,0.2,0.2,0.2,0.8","1","",""
"","html-keyboard-response","101","174292","0.0-101.0","3TOK3KHVJU4AZJ9ELZR2U8VG93A7OV","A2EQEQNOVLJQ71","356TQKY9XFJ5S7O4NGX4839SMNB87N","","null","<img src=""img/land5.png"" style=""width:200px; border:14px solid green;"">","null","","","","","","","","","",""
"","image-keyboard-response","102","176299","0.0-102.0","3TOK3KHVJU4AZJ9ELZR2U8VG93A7OV","A2EQEQNOVLJQ71","356TQKY9XFJ5S7O4NGX4839SMNB87N","","","img/land5.png","","2005.199999999255","-1","0","2","1","0.8,0.2,0.2,0.2,0.8,0.2,0.2,0.2,0.8","0.8,0.2,0.2,0.2,0.8,0.2,0.2,0.2,0.8","1","",""
"","html-keyboard-response","103","176606","0.0-103.0","3TOK3KHVJU4AZJ9ELZR2U8VG93A7OV","A2EQEQNOVLJQ71","356TQKY9XFJ5S7O4NGX4839SMNB87N","","null","<img src=""img/land5.png"" style=""width:200px;border:14px solid red;"">","null","","","","","","","","","",""
"","image-keyboard-response","104","177008","0.0-104.0","3TOK3KHVJU4AZJ9ELZR2U8VG93A7OV","A2EQEQNOVLJQ71","356TQKY9XFJ5S7O4NGX4839SMNB87N","","394.7000000011176","img/land5.png","75","401.3999999985099","2","1","2","1","0.8,0.2,0.2,0.2,0.8,0.2,0.2,0.2,0.8","0.8,0.2,0.2,0.2,0.8,0.2,0.2,0.2,0.8","1","",""
"","html-keyboard-response","105","177312","0.0-105.0","3TOK3KHVJU4AZJ9ELZR2U8VG93A7OV","A2EQEQNOVLJQ71","356TQKY9XFJ5S7O4NGX4839SMNB87N","","null","<img src=""img/land5.png"" style=""width:200px; border:14px solid green;"">","null","","","","","","","","","",""
"","image-keyboard-response","106","178448","0.0-106.0","3TOK3KHVJU4AZJ9ELZR2U8VG93A7OV","A2EQEQNOVLJQ71","356TQKY9XFJ5S7O4NGX4839SMNB87N","","1129.5","img/land6.png","76","1135.300000000745","3","0","3","1","0.8,0.2,0.2,0.2,0.8,0.2,0.2,0.2,0.8","0.8,0.2,0.2,0.2,0.8,0.2,0.2,0.2,0.8","1","",""
"","html-keyboard-response","107","178754","0.0-107.0","3TOK3KHVJU4AZJ9ELZR2U8VG93A7OV","A2EQEQNOVLJQ71","356TQKY9XFJ5S7O4NGX4839SMNB87N","","null","<img src=""img/land6.png"" style=""width:200px;border:14px solid red;"">","null","","","","","","","","","",""
"","image-keyboard-response","108","180764","0.0-108.0","3TOK3KHVJU4AZJ9ELZR2U8VG93A7OV","A2EQEQNOVLJQ71","356TQKY9XFJ5S7O4NGX4839SMNB87N","","","img/land6.png","","2007.699999999255","-1","0","3","1","0.8,0.2,0.2,0.2,0.8,0.2,0.2,0.2,0.8","0.8,0.2,0.2,0.2,0.8,0.2,0.2,0.2,0.8","1","",""
"","html-keyboard-response","109","181072","0.0-109.0","3TOK3KHVJU4AZJ9ELZR2U8VG93A7OV","A2EQEQNOVLJQ71","356TQKY9XFJ5S7O4NGX4839SMNB87N","","null","<img src=""img/land6.png"" style=""width:200px;border:14px solid red;"">","null","","","","","","","","","",""
"","image-keyboard-response","110","183078","0.0-110.0","3TOK3KHVJU4AZJ9ELZR2U8VG93A7OV","A2EQEQNOVLJQ71","356TQKY9XFJ5S7O4NGX4839SMNB87N","","","img/land6.png","","2004.5","-1","0","3","1","0.8,0.2,0.2,0.2,0.8,0.2,0.2,0.2,0.8","0.8,0.2,0.2,0.2,0.8,0.2,0.2,0.2,0.8","1","",""
"","html-keyboard-response","111","183383","0.0-111.0","3TOK3KHVJU4AZJ9ELZR2U8VG93A7OV","A2EQEQNOVLJQ71","356TQKY9XFJ5S7O4NGX4839SMNB87N","","null","<img src=""img/land6.png"" style=""width:200px;border:14px solid red;"">","null","","","","","","","","","",""
"","image-keyboard-response","112","185390","0.0-112.0","3TOK3KHVJU4AZJ9ELZR2U8VG93A7OV","A2EQEQNOVLJQ71","356TQKY9XFJ5S7O4NGX4839SMNB87N","","","img/land6.png","","2006.0999999996275","-1","0","3","1","0.8,0.2,0.2,0.2,0.8,0.2,0.2,0.2,0.8","0.8,0.2,0.2,0.2,0.8,0.2,0.2,0.2,0.8","1","",""
"","html-keyboard-response","113","185698","0.0-113.0","3TOK3KHVJU4AZJ9ELZR2U8VG93A7OV","A2EQEQNOVLJQ71","356TQKY9XFJ5S7O4NGX4839SMNB87N","","null","<img src=""img/land6.png"" style=""width:200px;border:14px solid red;"">","null","","","","","","","","","",""
"","image-keyboard-response","114","185838","0.0-114.0","3TOK3KHVJU4AZJ9ELZR2U8VG93A7OV","A2EQEQNOVLJQ71","356TQKY9XFJ5S7O4NGX4839SMNB87N","","133.09999999962747","img/land5.png","76","138.7999999988824","3","0","2","1","0.8,0.2,0.2,0.2,0.8,0.2,0.2,0.2,0.8","0.8,0.2,0.2,0.2,0.8,0.2,0.2,0.2,0.8","1","",""
"","html-keyboard-response","115","186142","0.0-115.0","3TOK3KHVJU4AZJ9ELZR2U8VG93A7OV","A2EQEQNOVLJQ71","356TQKY9XFJ5S7O4NGX4839SMNB87N","","null","<img src=""img/land5.png"" style=""width:200px;border:14px solid red;"">","null","","","","","","","","","",""
"","image-keyboard-response","116","187593","0.0-116.0","3TOK3KHVJU4AZJ9ELZR2U8VG93A7OV","A2EQEQNOVLJQ71","356TQKY9XFJ5S7O4NGX4839SMNB87N","","1445.5","img/land3.png","75","1451.1000000014901","2","0","1","1","0.8,0.2,0.2,0.2,0.8,0.2,0.2,0.2,0.8","0.8,0.2,0.2,0.2,0.8,0.2,0.2,0.2,0.8","1","",""
"","html-keyboard-response","117","187903","0.0-117.0","3TOK3KHVJU4AZJ9ELZR2U8VG93A7OV","A2EQEQNOVLJQ71","356TQKY9XFJ5S7O4NGX4839SMNB87N","","null","<img src=""img/land3.png"" style=""width:200px;border:14px solid red;"">","null","","","","","","","","","",""
"","image-keyboard-response","118","189008","0.0-118.0","3TOK3KHVJU4AZJ9ELZR2U8VG93A7OV","A2EQEQNOVLJQ71","356TQKY9XFJ5S7O4NGX4839SMNB87N","","1101.5","img/land6.png","74","1104.3999999985099","1","0","3","1","0.8,0.2,0.2,0.2,0.8,0.2,0.2,0.2,0.8","0.8,0.2,0.2,0.2,0.8,0.2,0.2,0.2,0.8","1","",""
"","html-keyboard-response","119","189316","0.0-119.0","3TOK3KHVJU4AZJ9ELZR2U8VG93A7OV","A2EQEQNOVLJQ71","356TQKY9XFJ5S7O4NGX4839SMNB87N","","null","<img src=""img/land6.png"" style=""width:200px;border:14px solid red;"">","null","","","","","","","","","",""
"","image-keyboard-response","120","190159","0.0-120.0","3TOK3KHVJU4AZJ9ELZR2U8VG93A7OV","A2EQEQNOVLJQ71","356TQKY9XFJ5S7O4NGX4839SMNB87N","","837.5","img/land5.png","76","840.9000000003725","3","0","2","1","0.8,0.2,0.2,0.2,0.8,0.2,0.2,0.2,0.8","0.8,0.2,0.2,0.2,0.8,0.2,0.2,0.2,0.8","1","",""
"","html-keyboard-response","121","190465","0.0-121.0","3TOK3KHVJU4AZJ9ELZR2U8VG93A7OV","A2EQEQNOVLJQ71","356TQKY9XFJ5S7O4NGX4839SMNB87N","","null","<img src=""img/land5.png"" style=""width:200px;border:14px solid red;"">","null","","","","","","","","","",""
"","image-keyboard-response","122","191184","0.0-122.0","3TOK3KHVJU4AZJ9ELZR2U8VG93A7OV","A2EQEQNOVLJQ71","356TQKY9XFJ5S7O4NGX4839SMNB87N","","708.3999999985099","img/land3.png","75","717.3000000007451","2","0","1","1","0.8,0.2,0.2,0.2,0.8,0.2,0.2,0.2,0.8","0.8,0.2,0.2,0.2,0.8,0.2,0.2,0.2,0.8","1","",""
"","html-keyboard-response","123","191490","0.0-123.0","3TOK3KHVJU4AZJ9ELZR2U8VG93A7OV","A2EQEQNOVLJQ71","356TQKY9XFJ5S7O4NGX4839SMNB87N","","null","<img src=""img/land3.png"" style=""width:200px;border:14px solid red;"">","null","","","","","","","","","",""
"","image-keyboard-response","124","193494","0.0-124.0","3TOK3KHVJU4AZJ9ELZR2U8VG93A7OV","A2EQEQNOVLJQ71","356TQKY9XFJ5S7O4NGX4839SMNB87N","","","img/land3.png","","2003.300000000745","-1","0","1","1","0.8,0.2,0.2,0.2,0.8,0.2,0.2,0.2,0.8","0.8,0.2,0.2,0.2,0.8,0.2,0.2,0.2,0.8","1","",""
"","html-keyboard-response","125","193800","0.0-125.0","3TOK3KHVJU4AZJ9ELZR2U8VG93A7OV","A2EQEQNOVLJQ71","356TQKY9XFJ5S7O4NGX4839SMNB87N","","null","<img src=""img/land3.png"" style=""width:200px;border:14px solid red;"">","null","","","","","","","","","",""
"","image-keyboard-response","126","193945","0.0-126.0","3TOK3KHVJU4AZJ9ELZR2U8VG93A7OV","A2EQEQNOVLJQ71","356TQKY9XFJ5S7O4NGX4839SMNB87N","","136","img/land6.png","74","143.5","1","0","3","1","0.8,0.2,0.2,0.2,0.8,0.2,0.2,0.2,0.8","0.8,0.2,0.2,0.2,0.8,0.2,0.2,0.2,0.8","1","",""
"","html-keyboard-response","127","194250","0.0-127.0","3TOK3KHVJU4AZJ9ELZR2U8VG93A7OV","A2EQEQNOVLJQ71","356TQKY9XFJ5S7O4NGX4839SMNB87N","","null","<img src=""img/land6.png"" style=""width:200px;border:14px solid red;"">","null","","","","","","","","","",""
"","image-keyboard-response","128","196259","0.0-128.0","3TOK3KHVJU4AZJ9ELZR2U8VG93A7OV","A2EQEQNOVLJQ71","356TQKY9XFJ5S7O4NGX4839SMNB87N","","","img/land5.png","","2005.5","-1","0","2","1","0.8,0.2,0.2,0.2,0.8,0.2,0.2,0.2,0.8","0.8,0.2,0.2,0.2,0.8,0.2,0.2,0.2,0.8","1","",""
"","html-keyboard-response","129","196573","0.0-129.0","3TOK3KHVJU4AZJ9ELZR2U8VG93A7OV","A2EQEQNOVLJQ71","356TQKY9XFJ5S7O4NGX4839SMNB87N","","null","<img src=""img/land5.png"" style=""width:200px;border:14px solid red;"">","null","","","","","","","","","",""
"","image-keyboard-response","130","197799","0.0-130.0","3TOK3KHVJU4AZJ9ELZR2U8VG93A7OV","A2EQEQNOVLJQ71","356TQKY9XFJ5S7O4NGX4839SMNB87N","","1218.0999999996275","img/land5.png","75","1224.7000000011176","2","1","2","1","0.8,0.2,0.2,0.2,0.8,0.2,0.2,0.2,0.8","0.8,0.2,0.2,0.2,0.8,0.2,0.2,0.2,0.8","1","",""
"","html-keyboard-response","131","198108","0.0-131.0","3TOK3KHVJU4AZJ9ELZR2U8VG93A7OV","A2EQEQNOVLJQ71","356TQKY9XFJ5S7O4NGX4839SMNB87N","","null","<img src=""img/land5.png"" style=""width:200px; border:14px solid green;"">","null","","","","","","","","","",""
"","image-keyboard-response","132","199841","0.0-132.0","3TOK3KHVJU4AZJ9ELZR2U8VG93A7OV","A2EQEQNOVLJQ71","356TQKY9XFJ5S7O4NGX4839SMNB87N","","1725.7999999988824","img/land3.png","75","1732.4000000003725","2","1","1","1","0.8,0.2,0.2,0.2,0.8,0.2,0.2,0.2,0.8","0.8,0.2,0.2,0.2,0.8,0.2,0.2,0.2,0.8","1","",""
"","html-keyboard-response","133","200150","0.0-133.0","3TOK3KHVJU4AZJ9ELZR2U8VG93A7OV","A2EQEQNOVLJQ71","356TQKY9XFJ5S7O4NGX4839SMNB87N","","null","<img src=""img/land3.png"" style=""width:200px; border:14px solid green;"">","null","","","","","","","","","",""
"","image-keyboard-response","134","202158","0.0-134.0","3TOK3KHVJU4AZJ9ELZR2U8VG93A7OV","A2EQEQNOVLJQ71","356TQKY9XFJ5S7O4NGX4839SMNB87N","","","img/land3.png","","2005.699999999255","-1","0","1","1","0.8,0.2,0.2,0.2,0.8,0.2,0.2,0.2,0.8","0.8,0.2,0.2,0.2,0.8,0.2,0.2,0.2,0.8","1","",""
"","html-keyboard-response","135","202463","0.0-135.0","3TOK3KHVJU4AZJ9ELZR2U8VG93A7OV","A2EQEQNOVLJQ71","356TQKY9XFJ5S7O4NGX4839SMNB87N","","null","<img src=""img/land3.png"" style=""width:200px;border:14px solid red;"">","null","","","","","","","","","",""
"","image-keyboard-response","136","202609","0.0-136.0","3TOK3KHVJU4AZJ9ELZR2U8VG93A7OV","A2EQEQNOVLJQ71","356TQKY9XFJ5S7O4NGX4839SMNB87N","","136.2999999988824","img/land3.png","75","144.39999999850988","2","1","1","1","0.8,0.2,0.2,0.2,0.8,0.2,0.2,0.2,0.8","0.8,0.2,0.2,0.2,0.8,0.2,0.2,0.2,0.8","1","",""
"","html-keyboard-response","137","202916","0.0-137.0","3TOK3KHVJU4AZJ9ELZR2U8VG93A7OV","A2EQEQNOVLJQ71","356TQKY9XFJ5S7O4NGX4839SMNB87N","","null","<img src=""img/land3.png"" style=""width:200px; border:14px solid green;"">","null","","","","","","","","","",""
"","image-keyboard-response","138","204923","0.0-138.0","3TOK3KHVJU4AZJ9ELZR2U8VG93A7OV","A2EQEQNOVLJQ71","356TQKY9XFJ5S7O4NGX4839SMNB87N","","","img/land3.png","","2006.199999999255","-1","0","1","1","0.8,0.2,0.2,0.2,0.8,0.2,0.2,0.2,0.8","0.8,0.2,0.2,0.2,0.8,0.2,0.2,0.2,0.8","1","",""
"","html-keyboard-response","139","205230","0.0-139.0","3TOK3KHVJU4AZJ9ELZR2U8VG93A7OV","A2EQEQNOVLJQ71","356TQKY9XFJ5S7O4NGX4839SMNB87N","","null","<img src=""img/land3.png"" style=""width:200px;border:14px solid red;"">","null","","","","","","","","","",""
"","image-keyboard-response","140","205489","0.0-140.0","3TOK3KHVJU4AZJ9ELZR2U8VG93A7OV","A2EQEQNOVLJQ71","356TQKY9XFJ5S7O4NGX4839SMNB87N","","254.7999999988824","img/land3.png","75","258.2000000011176","2","0","1","1","0.8,0.2,0.2,0.2,0.8,0.2,0.2,0.2,0.8","0.8,0.2,0.2,0.2,0.8,0.2,0.2,0.2,0.8","1","",""
"","html-keyboard-response","141","205797","0.0-141.0","3TOK3KHVJU4AZJ9ELZR2U8VG93A7OV","A2EQEQNOVLJQ71","356TQKY9XFJ5S7O4NGX4839SMNB87N","","null","<img src=""img/land3.png"" style=""width:200px;border:14px solid red;"">","null","","","","","","","","","",""
"","image-keyboard-response","142","206813","0.0-142.0","3TOK3KHVJU4AZJ9ELZR2U8VG93A7OV","A2EQEQNOVLJQ71","356TQKY9XFJ5S7O4NGX4839SMNB87N","","1008.2999999988824","img/land5.png","74","1014","1","0","2","1","0.8,0.2,0.2,0.2,0.8,0.2,0.2,0.2,0.8","0.8,0.2,0.2,0.2,0.8,0.2,0.2,0.2,0.8","1","",""
"","html-keyboard-response","143","207119","0.0-143.0","3TOK3KHVJU4AZJ9ELZR2U8VG93A7OV","A2EQEQNOVLJQ71","356TQKY9XFJ5S7O4NGX4839SMNB87N","","null","<img src=""img/land5.png"" style=""width:200px;border:14px solid red;"">","null","","","","","","","","","",""
"","image-keyboard-response","144","208194","0.0-144.0","3TOK3KHVJU4AZJ9ELZR2U8VG93A7OV","A2EQEQNOVLJQ71","356TQKY9XFJ5S7O4NGX4839SMNB87N","","1064.9000000003725","img/land3.png","75","1072.8999999985099","2","0","1","1","0.8,0.2,0.2,0.2,0.8,0.2,0.2,0.2,0.8","0.8,0.2,0.2,0.2,0.8,0.2,0.2,0.2,0.8","1","",""
"","html-keyboard-response","145","208500","0.0-145.0","3TOK3KHVJU4AZJ9ELZR2U8VG93A7OV","A2EQEQNOVLJQ71","356TQKY9XFJ5S7O4NGX4839SMNB87N","","null","<img src=""img/land3.png"" style=""width:200px;border:14px solid red;"">","null","","","","","","","","","",""
"","image-keyboard-response","146","209673","0.0-146.0","3TOK3KHVJU4AZJ9ELZR2U8VG93A7OV","A2EQEQNOVLJQ71","356TQKY9XFJ5S7O4NGX4839SMNB87N","","1165.3999999985099","img/land5.png","74","1172.300000000745","1","0","2","1","0.8,0.2,0.2,0.2,0.8,0.2,0.2,0.2,0.8","0.8,0.2,0.2,0.2,0.8,0.2,0.2,0.2,0.8","1","",""
"","html-keyboard-response","147","209983","0.0-147.0","3TOK3KHVJU4AZJ9ELZR2U8VG93A7OV","A2EQEQNOVLJQ71","356TQKY9XFJ5S7O4NGX4839SMNB87N","","null","<img src=""img/land5.png"" style=""width:200px;border:14px solid red;"">","null","","","","","","","","","",""
"","image-keyboard-response","148","211171","0.0-148.0","3TOK3KHVJU4AZJ9ELZR2U8VG93A7OV","A2EQEQNOVLJQ71","356TQKY9XFJ5S7O4NGX4839SMNB87N","","1180.800000000745","img/land3.png","75","1185.5999999996275","2","1","1","1","0.8,0.2,0.2,0.2,0.8,0.2,0.2,0.2,0.8","0.8,0.2,0.2,0.2,0.8,0.2,0.2,0.2,0.8","1","",""
"","html-keyboard-response","149","211479","0.0-149.0","3TOK3KHVJU4AZJ9ELZR2U8VG93A7OV","A2EQEQNOVLJQ71","356TQKY9XFJ5S7O4NGX4839SMNB87N","","null","<img src=""img/land3.png"" style=""width:200px; border:14px solid green;"">","null","","","","","","","","","",""
"","image-keyboard-response","150","212551","0.0-150.0","3TOK3KHVJU4AZJ9ELZR2U8VG93A7OV","A2EQEQNOVLJQ71","356TQKY9XFJ5S7O4NGX4839SMNB87N","","1067","img/land5.png","74","1071.5","1","0","2","1","0.8,0.2,0.2,0.2,0.8,0.2,0.2,0.2,0.8","0.8,0.2,0.2,0.2,0.8,0.2,0.2,0.2,0.8","1","",""
"","html-keyboard-response","151","212858","0.0-151.0","3TOK3KHVJU4AZJ9ELZR2U8VG93A7OV","A2EQEQNOVLJQ71","356TQKY9XFJ5S7O4NGX4839SMNB87N","","null","<img src=""img/land5.png"" style=""width:200px;border:14px solid red;"">","null","","","","","","","","","",""
"","image-keyboard-response","152","213939","0.0-152.0","3TOK3KHVJU4AZJ9ELZR2U8VG93A7OV","A2EQEQNOVLJQ71","356TQKY9XFJ5S7O4NGX4839SMNB87N","","1075.199999999255","img/land3.png","75","1079.9000000003725","2","0","1","1","0.8,0.2,0.2,0.2,0.8,0.2,0.2,0.2,0.8","0.8,0.2,0.2,0.2,0.8,0.2,0.2,0.2,0.8","1","",""
"","html-keyboard-response","153","214245","0.0-153.0","3TOK3KHVJU4AZJ9ELZR2U8VG93A7OV","A2EQEQNOVLJQ71","356TQKY9XFJ5S7O4NGX4839SMNB87N","","null","<img src=""img/land3.png"" style=""width:200px;border:14px solid red;"">","null","","","","","","","","","",""
"","image-keyboard-response","154","215957","0.0-154.0","3TOK3KHVJU4AZJ9ELZR2U8VG93A7OV","A2EQEQNOVLJQ71","356TQKY9XFJ5S7O4NGX4839SMNB87N","","1704.199999999255","img/land3.png","76","1709.9000000003725","3","0","1","1","0.8,0.2,0.2,0.2,0.8,0.2,0.2,0.2,0.8","0.8,0.2,0.2,0.2,0.8,0.2,0.2,0.2,0.8","1","",""
"","html-keyboard-response","155","216262","0.0-155.0","3TOK3KHVJU4AZJ9ELZR2U8VG93A7OV","A2EQEQNOVLJQ71","356TQKY9XFJ5S7O4NGX4839SMNB87N","","null","<img src=""img/land3.png"" style=""width:200px;border:14px solid red;"">","null","","","","","","","","","",""
"","image-keyboard-response","156","217048","0.0-156.0","3TOK3KHVJU4AZJ9ELZR2U8VG93A7OV","A2EQEQNOVLJQ71","356TQKY9XFJ5S7O4NGX4839SMNB87N","","775.7999999988824","img/land6.png","74","782.5","1","1","3","1","0.8,0.2,0.2,0.2,0.8,0.2,0.2,0.2,0.8","0.8,0.2,0.2,0.2,0.8,0.2,0.2,0.2,0.8","1","",""
"","html-keyboard-response","157","217358","0.0-157.0","3TOK3KHVJU4AZJ9ELZR2U8VG93A7OV","A2EQEQNOVLJQ71","356TQKY9XFJ5S7O4NGX4839SMNB87N","","null","<img src=""img/land6.png"" style=""width:200px; border:14px solid green;"">","null","","","","","","","","","",""
"","image-keyboard-response","158","218577","0.0-158.0","3TOK3KHVJU4AZJ9ELZR2U8VG93A7OV","A2EQEQNOVLJQ71","356TQKY9XFJ5S7O4NGX4839SMNB87N","","1213.4000000003725","img/land5.png","75","1217.7000000011176","2","1","2","1","0.8,0.2,0.2,0.2,0.8,0.2,0.2,0.2,0.8","0.8,0.2,0.2,0.2,0.8,0.2,0.2,0.2,0.8","1","",""
"","html-keyboard-response","159","218883","0.0-159.0","3TOK3KHVJU4AZJ9ELZR2U8VG93A7OV","A2EQEQNOVLJQ71","356TQKY9XFJ5S7O4NGX4839SMNB87N","","null","<img src=""img/land5.png"" style=""width:200px; border:14px solid green;"">","null","","","","","","","","","",""
"","image-keyboard-response","160","219808","0.0-160.0","3TOK3KHVJU4AZJ9ELZR2U8VG93A7OV","A2EQEQNOVLJQ71","356TQKY9XFJ5S7O4NGX4839SMNB87N","","918.5","img/land3.png","74","924.5999999996275","1","1","1","1","0.8,0.2,0.2,0.2,0.8,0.2,0.2,0.2,0.8","0.8,0.2,0.2,0.2,0.8,0.2,0.2,0.2,0.8","1","",""
"","html-keyboard-response","161","220114","0.0-161.0","3TOK3KHVJU4AZJ9ELZR2U8VG93A7OV","A2EQEQNOVLJQ71","356TQKY9XFJ5S7O4NGX4839SMNB87N","","null","<img src=""img/land3.png"" style=""width:200px; border:14px solid green;"">","null","","","","","","","","","",""
"","image-keyboard-response","162","221296","0.0-162.0","3TOK3KHVJU4AZJ9ELZR2U8VG93A7OV","A2EQEQNOVLJQ71","356TQKY9XFJ5S7O4NGX4839SMNB87N","","1176.4000000003725","img/land6.png","74","1180.5999999996275","1","0","3","1","0.8,0.2,0.2,0.2,0.8,0.2,0.2,0.2,0.8","0.8,0.2,0.2,0.2,0.8,0.2,0.2,0.2,0.8","1","",""
"","html-keyboard-response","163","221604","0.0-163.0","3TOK3KHVJU4AZJ9ELZR2U8VG93A7OV","A2EQEQNOVLJQ71","356TQKY9XFJ5S7O4NGX4839SMNB87N","","null","<img src=""img/land6.png"" style=""width:200px;border:14px solid red;"">","null","","","","","","","","","",""
"","image-keyboard-response","164","223231","0.0-164.0","3TOK3KHVJU4AZJ9ELZR2U8VG93A7OV","A2EQEQNOVLJQ71","356TQKY9XFJ5S7O4NGX4839SMNB87N","","1616.2999999988824","img/land5.png","76","1625.5999999996275","3","0","2","1","0.8,0.2,0.2,0.2,0.8,0.2,0.2,0.2,0.8","0.8,0.2,0.2,0.2,0.8,0.2,0.2,0.2,0.8","1","",""
"","html-keyboard-response","165","223536","0.0-165.0","3TOK3KHVJU4AZJ9ELZR2U8VG93A7OV","A2EQEQNOVLJQ71","356TQKY9XFJ5S7O4NGX4839SMNB87N","","null","<img src=""img/land5.png"" style=""width:200px;border:14px solid red;"">","null","","","","","","","","","",""
"","image-keyboard-response","166","224288","0.0-166.0","3TOK3KHVJU4AZJ9ELZR2U8VG93A7OV","A2EQEQNOVLJQ71","356TQKY9XFJ5S7O4NGX4839SMNB87N","","747.5999999996275","img/land5.png","75","752","2","1","2","1","0.8,0.2,0.2,0.2,0.8,0.2,0.2,0.2,0.8","0.8,0.2,0.2,0.2,0.8,0.2,0.2,0.2,0.8","1","",""
"","html-keyboard-response","167","224595","0.0-167.0","3TOK3KHVJU4AZJ9ELZR2U8VG93A7OV","A2EQEQNOVLJQ71","356TQKY9XFJ5S7O4NGX4839SMNB87N","","null","<img src=""img/land5.png"" style=""width:200px; border:14px solid green;"">","null","","","","","","","","","",""
"","image-keyboard-response","168","225680","0.0-168.0","3TOK3KHVJU4AZJ9ELZR2U8VG93A7OV","A2EQEQNOVLJQ71","356TQKY9XFJ5S7O4NGX4839SMNB87N","","1078.5","img/land3.png","75","1084.300000000745","2","0","1","1","0.8,0.2,0.2,0.2,0.8,0.2,0.2,0.2,0.8","0.8,0.2,0.2,0.2,0.8,0.2,0.2,0.2,0.8","1","",""
"","html-keyboard-response","169","225985","0.0-169.0","3TOK3KHVJU4AZJ9ELZR2U8VG93A7OV","A2EQEQNOVLJQ71","356TQKY9XFJ5S7O4NGX4839SMNB87N","","null","<img src=""img/land3.png"" style=""width:200px;border:14px solid red;"">","null","","","","","","","","","",""
"","image-keyboard-response","170","227171","0.0-170.0","3TOK3KHVJU4AZJ9ELZR2U8VG93A7OV","A2EQEQNOVLJQ71","356TQKY9XFJ5S7O4NGX4839SMNB87N","","1179","img/land6.png","74","1185.2999999988824","1","1","3","1","0.8,0.2,0.2,0.2,0.8,0.2,0.2,0.2,0.8","0.8,0.2,0.2,0.2,0.8,0.2,0.2,0.2,0.8","1","",""
"","html-keyboard-response","171","227475","0.0-171.0","3TOK3KHVJU4AZJ9ELZR2U8VG93A7OV","A2EQEQNOVLJQ71","356TQKY9XFJ5S7O4NGX4839SMNB87N","","null","<img src=""img/land6.png"" style=""width:200px; border:14px solid green;"">","null","","","","","","","","","",""
"","image-keyboard-response","172","228607","0.0-172.0","3TOK3KHVJU4AZJ9ELZR2U8VG93A7OV","A2EQEQNOVLJQ71","356TQKY9XFJ5S7O4NGX4839SMNB87N","","1124.4000000003725","img/land3.png","75","1128.5","2","0","1","1","0.8,0.2,0.2,0.2,0.8,0.2,0.2,0.2,0.8","0.8,0.2,0.2,0.2,0.8,0.2,0.2,0.2,0.8","1","",""
"","html-keyboard-response","173","228914","0.0-173.0","3TOK3KHVJU4AZJ9ELZR2U8VG93A7OV","A2EQEQNOVLJQ71","356TQKY9XFJ5S7O4NGX4839SMNB87N","","null","<img src=""img/land3.png"" style=""width:200px;border:14px solid red;"">","null","","","","","","","","","",""
"","image-keyboard-response","174","230921","0.0-174.0","3TOK3KHVJU4AZJ9ELZR2U8VG93A7OV","A2EQEQNOVLJQ71","356TQKY9XFJ5S7O4NGX4839SMNB87N","","","img/land3.png","","2005","-1","0","1","1","0.8,0.2,0.2,0.2,0.8,0.2,0.2,0.2,0.8","0.8,0.2,0.2,0.2,0.8,0.2,0.2,0.2,0.8","1","",""
"","html-keyboard-response","175","231230","0.0-175.0","3TOK3KHVJU4AZJ9ELZR2U8VG93A7OV","A2EQEQNOVLJQ71","356TQKY9XFJ5S7O4NGX4839SMNB87N","","null","<img src=""img/land3.png"" style=""width:200px;border:14px solid red;"">","null","","","","","","","","","",""
"","image-keyboard-response","176","231857","0.0-176.0","3TOK3KHVJU4AZJ9ELZR2U8VG93A7OV","A2EQEQNOVLJQ71","356TQKY9XFJ5S7O4NGX4839SMNB87N","","619.5999999996275","img/land6.png","76","625.0999999996275","3","1","3","1","0.8,0.2,0.2,0.2,0.8,0.2,0.2,0.2,0.8","0.8,0.2,0.2,0.2,0.8,0.2,0.2,0.2,0.8","1","",""
"","html-keyboard-response","177","232162","0.0-177.0","3TOK3KHVJU4AZJ9ELZR2U8VG93A7OV","A2EQEQNOVLJQ71","356TQKY9XFJ5S7O4NGX4839SMNB87N","","null","<img src=""img/land6.png"" style=""width:200px; border:14px solid green;"">","null","","","","","","","","","",""
"","image-keyboard-response","178","233632","0.0-178.0","3TOK3KHVJU4AZJ9ELZR2U8VG93A7OV","A2EQEQNOVLJQ71","356TQKY9XFJ5S7O4NGX4839SMNB87N","","1465.800000000745","img/land5.png","74","1469.7999999988824","1","0","2","1","0.8,0.2,0.2,0.2,0.8,0.2,0.2,0.2,0.8","0.8,0.2,0.2,0.2,0.8,0.2,0.2,0.2,0.8","1","",""
"","html-keyboard-response","179","233936","0.0-179.0","3TOK3KHVJU4AZJ9ELZR2U8VG93A7OV","A2EQEQNOVLJQ71","356TQKY9XFJ5S7O4NGX4839SMNB87N","","null","<img src=""img/land5.png"" style=""width:200px;border:14px solid red;"">","null","","","","","","","","","",""
"","image-keyboard-response","180","235942","0.0-180.0","3TOK3KHVJU4AZJ9ELZR2U8VG93A7OV","A2EQEQNOVLJQ71","356TQKY9XFJ5S7O4NGX4839SMNB87N","","","img/land5.png","","2004.300000000745","-1","0","2","1","0.8,0.2,0.2,0.2,0.8,0.2,0.2,0.2,0.8","0.8,0.2,0.2,0.2,0.8,0.2,0.2,0.2,0.8","1","",""
"","html-keyboard-response","181","236246","0.0-181.0","3TOK3KHVJU4AZJ9ELZR2U8VG93A7OV","A2EQEQNOVLJQ71","356TQKY9XFJ5S7O4NGX4839SMNB87N","","null","<img src=""img/land5.png"" style=""width:200px;border:14px solid red;"">","null","","","","","","","","","",""
"","html-keyboard-response","182","272015","0.0-182.0","3TOK3KHVJU4AZJ9ELZR2U8VG93A7OV","A2EQEQNOVLJQ71","356TQKY9XFJ5S7O4NGX4839SMNB87N","","","","","","","","","","","","","",""
"","image-keyboard-response","183","274020","0.0-183.0","3TOK3KHVJU4AZJ9ELZR2U8VG93A7OV","A2EQEQNOVLJQ71","356TQKY9XFJ5S7O4NGX4839SMNB87N","","","img/land1.png","","2005.4000000003725","-1","0","2","2","0.8,0.2,0.2,0.2,0.8,0.2,0.2,0.2,0.8","0.2,0.8,0.2,0.2,0.2,0.8,0.8,0.2,0.2","3","",""
"","html-keyboard-response","184","274330","0.0-184.0","3TOK3KHVJU4AZJ9ELZR2U8VG93A7OV","A2EQEQNOVLJQ71","356TQKY9XFJ5S7O4NGX4839SMNB87N","","null","<img src=""img/land1.png"" style=""width:200px;border:14px solid red;"">","null","","","","","","","","","",""
"","image-keyboard-response","185","274983","0.0-185.0","3TOK3KHVJU4AZJ9ELZR2U8VG93A7OV","A2EQEQNOVLJQ71","356TQKY9XFJ5S7O4NGX4839SMNB87N","","648.3000000007451","img/land4.png","74","653.4000000003725","1","0","1","2","0.8,0.2,0.2,0.2,0.8,0.2,0.2,0.2,0.8","0.2,0.8,0.2,0.2,0.2,0.8,0.8,0.2,0.2","3","",""
"","html-keyboard-response","186","275288","0.0-186.0","3TOK3KHVJU4AZJ9ELZR2U8VG93A7OV","A2EQEQNOVLJQ71","356TQKY9XFJ5S7O4NGX4839SMNB87N","","null","<img src=""img/land4.png"" style=""width:200px;border:14px solid red;"">","null","","","","","","","","","",""
"","image-keyboard-response","187","277299","0.0-187.0","3TOK3KHVJU4AZJ9ELZR2U8VG93A7OV","A2EQEQNOVLJQ71","356TQKY9XFJ5S7O4NGX4839SMNB87N","","","img/land4.png","","2009.3999999985099","-1","0","1","2","0.8,0.2,0.2,0.2,0.8,0.2,0.2,0.2,0.8","0.2,0.8,0.2,0.2,0.2,0.8,0.8,0.2,0.2","3","",""
"","html-keyboard-response","188","277608","0.0-188.0","3TOK3KHVJU4AZJ9ELZR2U8VG93A7OV","A2EQEQNOVLJQ71","356TQKY9XFJ5S7O4NGX4839SMNB87N","","null","<img src=""img/land4.png"" style=""width:200px;border:14px solid red;"">","null","","","","","","","","","",""
"","image-keyboard-response","189","278203","0.0-189.0","3TOK3KHVJU4AZJ9ELZR2U8VG93A7OV","A2EQEQNOVLJQ71","356TQKY9XFJ5S7O4NGX4839SMNB87N","","582.7000000011176","img/land2.png","76","592.0999999996275","3","0","3","2","0.8,0.2,0.2,0.2,0.8,0.2,0.2,0.2,0.8","0.2,0.8,0.2,0.2,0.2,0.8,0.8,0.2,0.2","3","",""
"","html-keyboard-response","190","278508","0.0-190.0","3TOK3KHVJU4AZJ9ELZR2U8VG93A7OV","A2EQEQNOVLJQ71","356TQKY9XFJ5S7O4NGX4839SMNB87N","","null","<img src=""img/land2.png"" style=""width:200px;border:14px solid red;"">","null","","","","","","","","","",""
"","image-keyboard-response","191","279600","0.0-191.0","3TOK3KHVJU4AZJ9ELZR2U8VG93A7OV","A2EQEQNOVLJQ71","356TQKY9XFJ5S7O4NGX4839SMNB87N","","1084.800000000745","img/land4.png","75","1090.0999999996275","2","1","1","2","0.8,0.2,0.2,0.2,0.8,0.2,0.2,0.2,0.8","0.2,0.8,0.2,0.2,0.2,0.8,0.8,0.2,0.2","3","",""
"","html-keyboard-response","192","279908","0.0-192.0","3TOK3KHVJU4AZJ9ELZR2U8VG93A7OV","A2EQEQNOVLJQ71","356TQKY9XFJ5S7O4NGX4839SMNB87N","","null","<img src=""img/land4.png"" style=""width:200px; border:14px solid green;"">","null","","","","","","","","","",""
"","image-keyboard-response","193","281426","0.0-193.0","3TOK3KHVJU4AZJ9ELZR2U8VG93A7OV","A2EQEQNOVLJQ71","356TQKY9XFJ5S7O4NGX4839SMNB87N","","1509.699999999255","img/land2.png","74","1515.699999999255","1","1","3","2","0.8,0.2,0.2,0.2,0.8,0.2,0.2,0.2,0.8","0.2,0.8,0.2,0.2,0.2,0.8,0.8,0.2,0.2","3","",""
"","html-keyboard-response","194","281736","0.0-194.0","3TOK3KHVJU4AZJ9ELZR2U8VG93A7OV","A2EQEQNOVLJQ71","356TQKY9XFJ5S7O4NGX4839SMNB87N","","null","<img src=""img/land2.png"" style=""width:200px; border:14px solid green;"">","null","","","","","","","","","",""
"","image-keyboard-response","195","282946","0.0-195.0","3TOK3KHVJU4AZJ9ELZR2U8VG93A7OV","A2EQEQNOVLJQ71","356TQKY9XFJ5S7O4NGX4839SMNB87N","","1202.800000000745","img/land1.png","76","1210.1000000014901","3","1","2","2","0.8,0.2,0.2,0.2,0.8,0.2,0.2,0.2,0.8","0.2,0.8,0.2,0.2,0.2,0.8,0.8,0.2,0.2","3","",""
"","html-keyboard-response","196","283254","0.0-196.0","3TOK3KHVJU4AZJ9ELZR2U8VG93A7OV","A2EQEQNOVLJQ71","356TQKY9XFJ5S7O4NGX4839SMNB87N","","null","<img src=""img/land1.png"" style=""width:200px; border:14px solid green;"">","null","","","","","","","","","",""
"","image-keyboard-response","197","285262","0.0-197.0","3TOK3KHVJU4AZJ9ELZR2U8VG93A7OV","A2EQEQNOVLJQ71","356TQKY9XFJ5S7O4NGX4839SMNB87N","","","img/land1.png","","2006.9000000003725","-1","0","2","2","0.8,0.2,0.2,0.2,0.8,0.2,0.2,0.2,0.8","0.2,0.8,0.2,0.2,0.2,0.8,0.8,0.2,0.2","3","",""
"","html-keyboard-response","198","285573","0.0-198.0","3TOK3KHVJU4AZJ9ELZR2U8VG93A7OV","A2EQEQNOVLJQ71","356TQKY9XFJ5S7O4NGX4839SMNB87N","","null","<img src=""img/land1.png"" style=""width:200px;border:14px solid red;"">","null","","","","","","","","","",""
"","image-keyboard-response","199","286265","0.0-199.0","3TOK3KHVJU4AZJ9ELZR2U8VG93A7OV","A2EQEQNOVLJQ71","356TQKY9XFJ5S7O4NGX4839SMNB87N","","686","img/land4.png","75","691","2","1","1","2","0.8,0.2,0.2,0.2,0.8,0.2,0.2,0.2,0.8","0.2,0.8,0.2,0.2,0.2,0.8,0.8,0.2,0.2","3","",""
"","html-keyboard-response","200","286573","0.0-200.0","3TOK3KHVJU4AZJ9ELZR2U8VG93A7OV","A2EQEQNOVLJQ71","356TQKY9XFJ5S7O4NGX4839SMNB87N","","null","<img src=""img/land4.png"" style=""width:200px; border:14px solid green;"">","null","","","","","","","","","",""
"","image-keyboard-response","201","287364","0.0-201.0","3TOK3KHVJU4AZJ9ELZR2U8VG93A7OV","A2EQEQNOVLJQ71","356TQKY9XFJ5S7O4NGX4839SMNB87N","","785","img/land2.png","74","789.1999999992549","1","1","3","2","0.8,0.2,0.2,0.2,0.8,0.2,0.2,0.2,0.8","0.2,0.8,0.2,0.2,0.2,0.8,0.8,0.2,0.2","3","",""
"","html-keyboard-response","202","287671","0.0-202.0","3TOK3KHVJU4AZJ9ELZR2U8VG93A7OV","A2EQEQNOVLJQ71","356TQKY9XFJ5S7O4NGX4839SMNB87N","","null","<img src=""img/land2.png"" style=""width:200px; border:14px solid green;"">","null","","","","","","","","","",""
"","image-keyboard-response","203","288597","0.0-203.0","3TOK3KHVJU4AZJ9ELZR2U8VG93A7OV","A2EQEQNOVLJQ71","356TQKY9XFJ5S7O4NGX4839SMNB87N","","919.5999999996275","img/land4.png","75","923.9000000003725","2","1","1","2","0.8,0.2,0.2,0.2,0.8,0.2,0.2,0.2,0.8","0.2,0.8,0.2,0.2,0.2,0.8,0.8,0.2,0.2","3","",""
"","html-keyboard-response","204","288903","0.0-204.0","3TOK3KHVJU4AZJ9ELZR2U8VG93A7OV","A2EQEQNOVLJQ71","356TQKY9XFJ5S7O4NGX4839SMNB87N","","null","<img src=""img/land4.png"" style=""width:200px; border:14px solid green;"">","null","","","","","","","","","",""
"","image-keyboard-response","205","290797","0.0-205.0","3TOK3KHVJU4AZJ9ELZR2U8VG93A7OV","A2EQEQNOVLJQ71","356TQKY9XFJ5S7O4NGX4839SMNB87N","","1879.699999999255","img/land4.png","75","1890.800000000745","2","0","1","2","0.8,0.2,0.2,0.2,0.8,0.2,0.2,0.2,0.8","0.2,0.8,0.2,0.2,0.2,0.8,0.8,0.2,0.2","3","",""
"","html-keyboard-response","206","291102","0.0-206.0","3TOK3KHVJU4AZJ9ELZR2U8VG93A7OV","A2EQEQNOVLJQ71","356TQKY9XFJ5S7O4NGX4839SMNB87N","","null","<img src=""img/land4.png"" style=""width:200px;border:14px solid red;"">","null","","","","","","","","","",""
"","image-keyboard-response","207","293109","0.0-207.0","3TOK3KHVJU4AZJ9ELZR2U8VG93A7OV","A2EQEQNOVLJQ71","356TQKY9XFJ5S7O4NGX4839SMNB87N","","","img/land4.png","","2004.7999999988824","-1","0","1","2","0.8,0.2,0.2,0.2,0.8,0.2,0.2,0.2,0.8","0.2,0.8,0.2,0.2,0.2,0.8,0.8,0.2,0.2","3","",""
"","html-keyboard-response","208","293416","0.0-208.0","3TOK3KHVJU4AZJ9ELZR2U8VG93A7OV","A2EQEQNOVLJQ71","356TQKY9XFJ5S7O4NGX4839SMNB87N","","null","<img src=""img/land4.png"" style=""width:200px;border:14px solid red;"">","null","","","","","","","","","",""
"","image-keyboard-response","209","294554","0.0-209.0","3TOK3KHVJU4AZJ9ELZR2U8VG93A7OV","A2EQEQNOVLJQ71","356TQKY9XFJ5S7O4NGX4839SMNB87N","","1133","img/land4.png","75","1137.4000000003725","2","1","1","2","0.8,0.2,0.2,0.2,0.8,0.2,0.2,0.2,0.8","0.2,0.8,0.2,0.2,0.2,0.8,0.8,0.2,0.2","3","",""
"","html-keyboard-response","210","294862","0.0-210.0","3TOK3KHVJU4AZJ9ELZR2U8VG93A7OV","A2EQEQNOVLJQ71","356TQKY9XFJ5S7O4NGX4839SMNB87N","","null","<img src=""img/land4.png"" style=""width:200px; border:14px solid green;"">","null","","","","","","","","","",""
"","image-keyboard-response","211","295577","0.0-211.0","3TOK3KHVJU4AZJ9ELZR2U8VG93A7OV","A2EQEQNOVLJQ71","356TQKY9XFJ5S7O4NGX4839SMNB87N","","709.0999999996275","img/land2.png","74","713.4000000003725","1","1","3","2","0.8,0.2,0.2,0.2,0.8,0.2,0.2,0.2,0.8","0.2,0.8,0.2,0.2,0.2,0.8,0.8,0.2,0.2","3","",""
"","html-keyboard-response","212","295882","0.0-212.0","3TOK3KHVJU4AZJ9ELZR2U8VG93A7OV","A2EQEQNOVLJQ71","356TQKY9XFJ5S7O4NGX4839SMNB87N","","null","<img src=""img/land2.png"" style=""width:200px; border:14px solid green;"">","null","","","","","","","","","",""
"","image-keyboard-response","213","296976","0.0-213.0","3TOK3KHVJU4AZJ9ELZR2U8VG93A7OV","A2EQEQNOVLJQ71","356TQKY9XFJ5S7O4NGX4839SMNB87N","","1090.5","img/land1.png","76","1093.4000000003725","3","1","2","2","0.8,0.2,0.2,0.2,0.8,0.2,0.2,0.2,0.8","0.2,0.8,0.2,0.2,0.2,0.8,0.8,0.2,0.2","3","",""
"","html-keyboard-response","214","297284","0.0-214.0","3TOK3KHVJU4AZJ9ELZR2U8VG93A7OV","A2EQEQNOVLJQ71","356TQKY9XFJ5S7O4NGX4839SMNB87N","","null","<img src=""img/land1.png"" style=""width:200px; border:14px solid green;"">","null","","","","","","","","","",""
"","image-keyboard-response","215","298230","0.0-215.0","3TOK3KHVJU4AZJ9ELZR2U8VG93A7OV","A2EQEQNOVLJQ71","356TQKY9XFJ5S7O4NGX4839SMNB87N","","939.5999999996275","img/land4.png","75","945","2","1","1","2","0.8,0.2,0.2,0.2,0.8,0.2,0.2,0.2,0.8","0.2,0.8,0.2,0.2,0.2,0.8,0.8,0.2,0.2","3","",""
"","html-keyboard-response","216","298536","0.0-216.0","3TOK3KHVJU4AZJ9ELZR2U8VG93A7OV","A2EQEQNOVLJQ71","356TQKY9XFJ5S7O4NGX4839SMNB87N","","null","<img src=""img/land4.png"" style=""width:200px; border:14px solid green;"">","null","","","","","","","","","",""
"","image-keyboard-response","217","300544","0.0-217.0","3TOK3KHVJU4AZJ9ELZR2U8VG93A7OV","A2EQEQNOVLJQ71","356TQKY9XFJ5S7O4NGX4839SMNB87N","","","img/land4.png","","2006.8999999985099","-1","0","1","2","0.8,0.2,0.2,0.2,0.8,0.2,0.2,0.2,0.8","0.2,0.8,0.2,0.2,0.2,0.8,0.8,0.2,0.2","3","",""
"","html-keyboard-response","218","300852","0.0-218.0","3TOK3KHVJU4AZJ9ELZR2U8VG93A7OV","A2EQEQNOVLJQ71","356TQKY9XFJ5S7O4NGX4839SMNB87N","","null","<img src=""img/land4.png"" style=""width:200px;border:14px solid red;"">","null","","","","","","","","","",""
"","image-keyboard-response","219","302622","0.0-219.0","3TOK3KHVJU4AZJ9ELZR2U8VG93A7OV","A2EQEQNOVLJQ71","356TQKY9XFJ5S7O4NGX4839SMNB87N","","1762.4000000003725","img/land4.png","75","1768.699999999255","2","1","1","2","0.8,0.2,0.2,0.2,0.8,0.2,0.2,0.2,0.8","0.2,0.8,0.2,0.2,0.2,0.8,0.8,0.2,0.2","3","",""
"","html-keyboard-response","220","302932","0.0-220.0","3TOK3KHVJU4AZJ9ELZR2U8VG93A7OV","A2EQEQNOVLJQ71","356TQKY9XFJ5S7O4NGX4839SMNB87N","","null","<img src=""img/land4.png"" style=""width:200px; border:14px solid green;"">","null","","","","","","","","","",""
"","image-keyboard-response","221","304442","0.0-221.0","3TOK3KHVJU4AZJ9ELZR2U8VG93A7OV","A2EQEQNOVLJQ71","356TQKY9XFJ5S7O4NGX4839SMNB87N","","1501.3999999985099","img/land4.png","75","1507.699999999255","2","1","1","2","0.8,0.2,0.2,0.2,0.8,0.2,0.2,0.2,0.8","0.2,0.8,0.2,0.2,0.2,0.8,0.8,0.2,0.2","3","",""
"","html-keyboard-response","222","304748","0.0-222.0","3TOK3KHVJU4AZJ9ELZR2U8VG93A7OV","A2EQEQNOVLJQ71","356TQKY9XFJ5S7O4NGX4839SMNB87N","","null","<img src=""img/land4.png"" style=""width:200px; border:14px solid green;"">","null","","","","","","","","","",""
"","image-keyboard-response","223","306468","0.0-223.0","3TOK3KHVJU4AZJ9ELZR2U8VG93A7OV","A2EQEQNOVLJQ71","356TQKY9XFJ5S7O4NGX4839SMNB87N","","1709.699999999255","img/land4.png","75","1718.300000000745","2","1","1","2","0.8,0.2,0.2,0.2,0.8,0.2,0.2,0.2,0.8","0.2,0.8,0.2,0.2,0.2,0.8,0.8,0.2,0.2","3","",""
"","html-keyboard-response","224","306773","0.0-224.0","3TOK3KHVJU4AZJ9ELZR2U8VG93A7OV","A2EQEQNOVLJQ71","356TQKY9XFJ5S7O4NGX4839SMNB87N","","null","<img src=""img/land4.png"" style=""width:200px; border:14px solid green;"">","null","","","","","","","","","",""
"","image-keyboard-response","225","308001","0.0-225.0","3TOK3KHVJU4AZJ9ELZR2U8VG93A7OV","A2EQEQNOVLJQ71","356TQKY9XFJ5S7O4NGX4839SMNB87N","","1221.800000000745","img/land4.png","75","1226.6000000014901","2","1","1","2","0.8,0.2,0.2,0.2,0.8,0.2,0.2,0.2,0.8","0.2,0.8,0.2,0.2,0.2,0.8,0.8,0.2,0.2","3","",""
"","html-keyboard-response","226","308306","0.0-226.0","3TOK3KHVJU4AZJ9ELZR2U8VG93A7OV","A2EQEQNOVLJQ71","356TQKY9XFJ5S7O4NGX4839SMNB87N","","null","<img src=""img/land4.png"" style=""width:200px; border:14px solid green;"">","null","","","","","","","","","",""
"","image-keyboard-response","227","309620","0.0-227.0","3TOK3KHVJU4AZJ9ELZR2U8VG93A7OV","A2EQEQNOVLJQ71","356TQKY9XFJ5S7O4NGX4839SMNB87N","","1307.4000000003725","img/land4.png","75","1312.9000000003725","2","1","1","2","0.8,0.2,0.2,0.2,0.8,0.2,0.2,0.2,0.8","0.2,0.8,0.2,0.2,0.2,0.8,0.8,0.2,0.2","3","",""
"","html-keyboard-response","228","309926","0.0-228.0","3TOK3KHVJU4AZJ9ELZR2U8VG93A7OV","A2EQEQNOVLJQ71","356TQKY9XFJ5S7O4NGX4839SMNB87N","","null","<img src=""img/land4.png"" style=""width:200px; border:14px solid green;"">","null","","","","","","","","","",""
"","image-keyboard-response","229","310785","0.0-229.0","3TOK3KHVJU4AZJ9ELZR2U8VG93A7OV","A2EQEQNOVLJQ71","356TQKY9XFJ5S7O4NGX4839SMNB87N","","847.3000000007451","img/land2.png","74","857.1000000014901","1","1","3","2","0.8,0.2,0.2,0.2,0.8,0.2,0.2,0.2,0.8","0.2,0.8,0.2,0.2,0.2,0.8,0.8,0.2,0.2","3","",""
"","html-keyboard-response","230","311090","0.0-230.0","3TOK3KHVJU4AZJ9ELZR2U8VG93A7OV","A2EQEQNOVLJQ71","356TQKY9XFJ5S7O4NGX4839SMNB87N","","null","<img src=""img/land2.png"" style=""width:200px; border:14px solid green;"">","null","","","","","","","","","",""
"","image-keyboard-response","231","311913","0.0-231.0","3TOK3KHVJU4AZJ9ELZR2U8VG93A7OV","A2EQEQNOVLJQ71","356TQKY9XFJ5S7O4NGX4839SMNB87N","","814.5","img/land1.png","76","821.8000000007451","3","1","2","2","0.8,0.2,0.2,0.2,0.8,0.2,0.2,0.2,0.8","0.2,0.8,0.2,0.2,0.2,0.8,0.8,0.2,0.2","3","",""
"","html-keyboard-response","232","312219","0.0-232.0","3TOK3KHVJU4AZJ9ELZR2U8VG93A7OV","A2EQEQNOVLJQ71","356TQKY9XFJ5S7O4NGX4839SMNB87N","","null","<img src=""img/land1.png"" style=""width:200px; border:14px solid green;"">","null","","","","","","","","","",""
"","image-keyboard-response","233","313079","0.0-233.0","3TOK3KHVJU4AZJ9ELZR2U8VG93A7OV","A2EQEQNOVLJQ71","356TQKY9XFJ5S7O4NGX4839SMNB87N","","853.7999999988824","img/land4.png","75","858.9000000003725","2","1","1","2","0.8,0.2,0.2,0.2,0.8,0.2,0.2,0.2,0.8","0.2,0.8,0.2,0.2,0.2,0.8,0.8,0.2,0.2","3","",""
"","html-keyboard-response","234","313385","0.0-234.0","3TOK3KHVJU4AZJ9ELZR2U8VG93A7OV","A2EQEQNOVLJQ71","356TQKY9XFJ5S7O4NGX4839SMNB87N","","null","<img src=""img/land4.png"" style=""width:200px; border:14px solid green;"">","null","","","","","","","","","",""
"","image-keyboard-response","235","314367","0.0-235.0","3TOK3KHVJU4AZJ9ELZR2U8VG93A7OV","A2EQEQNOVLJQ71","356TQKY9XFJ5S7O4NGX4839SMNB87N","","975.6999999992549","img/land4.png","75","980.8999999985099","2","0","1","2","0.8,0.2,0.2,0.2,0.8,0.2,0.2,0.2,0.8","0.2,0.8,0.2,0.2,0.2,0.8,0.8,0.2,0.2","3","",""
"","html-keyboard-response","236","314674","0.0-236.0","3TOK3KHVJU4AZJ9ELZR2U8VG93A7OV","A2EQEQNOVLJQ71","356TQKY9XFJ5S7O4NGX4839SMNB87N","","null","<img src=""img/land4.png"" style=""width:200px;border:14px solid red;"">","null","","","","","","","","","",""
"","image-keyboard-response","237","315470","0.0-237.0","3TOK3KHVJU4AZJ9ELZR2U8VG93A7OV","A2EQEQNOVLJQ71","356TQKY9XFJ5S7O4NGX4839SMNB87N","","788.8000000007451","img/land4.png","75","794.0999999996275","2","1","1","2","0.8,0.2,0.2,0.2,0.8,0.2,0.2,0.2,0.8","0.2,0.8,0.2,0.2,0.2,0.8,0.8,0.2,0.2","3","",""
"","html-keyboard-response","238","315776","0.0-238.0","3TOK3KHVJU4AZJ9ELZR2U8VG93A7OV","A2EQEQNOVLJQ71","356TQKY9XFJ5S7O4NGX4839SMNB87N","","null","<img src=""img/land4.png"" style=""width:200px; border:14px solid green;"">","null","","","","","","","","","",""
"","image-keyboard-response","239","316943","0.0-239.0","3TOK3KHVJU4AZJ9ELZR2U8VG93A7OV","A2EQEQNOVLJQ71","356TQKY9XFJ5S7O4NGX4839SMNB87N","","1155.5999999996275","img/land4.png","75","1165.9000000003725","2","0","1","2","0.8,0.2,0.2,0.2,0.8,0.2,0.2,0.2,0.8","0.2,0.8,0.2,0.2,0.2,0.8,0.8,0.2,0.2","3","",""
"","html-keyboard-response","240","317252","0.0-240.0","3TOK3KHVJU4AZJ9ELZR2U8VG93A7OV","A2EQEQNOVLJQ71","356TQKY9XFJ5S7O4NGX4839SMNB87N","","null","<img src=""img/land4.png"" style=""width:200px;border:14px solid red;"">","null","","","","","","","","","",""
"","image-keyboard-response","241","318063","0.0-241.0","3TOK3KHVJU4AZJ9ELZR2U8VG93A7OV","A2EQEQNOVLJQ71","356TQKY9XFJ5S7O4NGX4839SMNB87N","","806.0999999996275","img/land4.png","75","810.6999999992549","2","1","1","2","0.8,0.2,0.2,0.2,0.8,0.2,0.2,0.2,0.8","0.2,0.8,0.2,0.2,0.2,0.8,0.8,0.2,0.2","3","",""
"","html-keyboard-response","242","318370","0.0-242.0","3TOK3KHVJU4AZJ9ELZR2U8VG93A7OV","A2EQEQNOVLJQ71","356TQKY9XFJ5S7O4NGX4839SMNB87N","","null","<img src=""img/land4.png"" style=""width:200px; border:14px solid green;"">","null","","","","","","","","","",""
"","image-keyboard-response","243","319217","0.0-243.0","3TOK3KHVJU4AZJ9ELZR2U8VG93A7OV","A2EQEQNOVLJQ71","356TQKY9XFJ5S7O4NGX4839SMNB87N","","842.5","img/land4.png","75","846.6999999992549","2","1","1","2","0.8,0.2,0.2,0.2,0.8,0.2,0.2,0.2,0.8","0.2,0.8,0.2,0.2,0.2,0.8,0.8,0.2,0.2","3","",""
"","html-keyboard-response","244","319525","0.0-244.0","3TOK3KHVJU4AZJ9ELZR2U8VG93A7OV","A2EQEQNOVLJQ71","356TQKY9XFJ5S7O4NGX4839SMNB87N","","null","<img src=""img/land4.png"" style=""width:200px; border:14px solid green;"">","null","","","","","","","","","",""
"","image-keyboard-response","245","320162","0.0-245.0","3TOK3KHVJU4AZJ9ELZR2U8VG93A7OV","A2EQEQNOVLJQ71","356TQKY9XFJ5S7O4NGX4839SMNB87N","","631.8000000007451","img/land4.png","75","636.2000000011176","2","0","1","2","0.8,0.2,0.2,0.2,0.8,0.2,0.2,0.2,0.8","0.2,0.8,0.2,0.2,0.2,0.8,0.8,0.2,0.2","3","",""
"","html-keyboard-response","246","320466","0.0-246.0","3TOK3KHVJU4AZJ9ELZR2U8VG93A7OV","A2EQEQNOVLJQ71","356TQKY9XFJ5S7O4NGX4839SMNB87N","","null","<img src=""img/land4.png"" style=""width:200px;border:14px solid red;"">","null","","","","","","","","","",""
"","image-keyboard-response","247","321209","0.0-247.0","3TOK3KHVJU4AZJ9ELZR2U8VG93A7OV","A2EQEQNOVLJQ71","356TQKY9XFJ5S7O4NGX4839SMNB87N","","735","img/land4.png","75","741","2","1","1","2","0.8,0.2,0.2,0.2,0.8,0.2,0.2,0.2,0.8","0.2,0.8,0.2,0.2,0.2,0.8,0.8,0.2,0.2","3","",""
"","html-keyboard-response","248","321514","0.0-248.0","3TOK3KHVJU4AZJ9ELZR2U8VG93A7OV","A2EQEQNOVLJQ71","356TQKY9XFJ5S7O4NGX4839SMNB87N","","null","<img src=""img/land4.png"" style=""width:200px; border:14px solid green;"">","null","","","","","","","","","",""
"","image-keyboard-response","249","322163","0.0-249.0","3TOK3KHVJU4AZJ9ELZR2U8VG93A7OV","A2EQEQNOVLJQ71","356TQKY9XFJ5S7O4NGX4839SMNB87N","","639.7000000011176","img/land4.png","75","646.3000000007451","2","1","1","2","0.8,0.2,0.2,0.2,0.8,0.2,0.2,0.2,0.8","0.2,0.8,0.2,0.2,0.2,0.8,0.8,0.2,0.2","3","",""
"","html-keyboard-response","250","322469","0.0-250.0","3TOK3KHVJU4AZJ9ELZR2U8VG93A7OV","A2EQEQNOVLJQ71","356TQKY9XFJ5S7O4NGX4839SMNB87N","","null","<img src=""img/land4.png"" style=""width:200px; border:14px solid green;"">","null","","","","","","","","","",""
"","image-keyboard-response","251","323012","0.0-251.0","3TOK3KHVJU4AZJ9ELZR2U8VG93A7OV","A2EQEQNOVLJQ71","356TQKY9XFJ5S7O4NGX4839SMNB87N","","536.3000000007451","img/land4.png","75","542.0999999996275","2","1","1","2","0.8,0.2,0.2,0.2,0.8,0.2,0.2,0.2,0.8","0.2,0.8,0.2,0.2,0.2,0.8,0.8,0.2,0.2","3","",""
"","html-keyboard-response","252","323319","0.0-252.0","3TOK3KHVJU4AZJ9ELZR2U8VG93A7OV","A2EQEQNOVLJQ71","356TQKY9XFJ5S7O4NGX4839SMNB87N","","null","<img src=""img/land4.png"" style=""width:200px; border:14px solid green;"">","null","","","","","","","","","",""
"","image-keyboard-response","253","323972","0.0-253.0","3TOK3KHVJU4AZJ9ELZR2U8VG93A7OV","A2EQEQNOVLJQ71","356TQKY9XFJ5S7O4NGX4839SMNB87N","","647.2000000011176","img/land4.png","75","651.5","2","1","1","2","0.8,0.2,0.2,0.2,0.8,0.2,0.2,0.2,0.8","0.2,0.8,0.2,0.2,0.2,0.8,0.8,0.2,0.2","3","",""
"","html-keyboard-response","254","324278","0.0-254.0","3TOK3KHVJU4AZJ9ELZR2U8VG93A7OV","A2EQEQNOVLJQ71","356TQKY9XFJ5S7O4NGX4839SMNB87N","","null","<img src=""img/land4.png"" style=""width:200px; border:14px solid green;"">","null","","","","","","","","","",""
"","image-keyboard-response","255","324952","0.0-255.0","3TOK3KHVJU4AZJ9ELZR2U8VG93A7OV","A2EQEQNOVLJQ71","356TQKY9XFJ5S7O4NGX4839SMNB87N","","669.2999999988824","img/land2.png","74","673.7000000011176","1","1","3","2","0.8,0.2,0.2,0.2,0.8,0.2,0.2,0.2,0.8","0.2,0.8,0.2,0.2,0.2,0.8,0.8,0.2,0.2","3","",""
"","html-keyboard-response","256","325258","0.0-256.0","3TOK3KHVJU4AZJ9ELZR2U8VG93A7OV","A2EQEQNOVLJQ71","356TQKY9XFJ5S7O4NGX4839SMNB87N","","null","<img src=""img/land2.png"" style=""width:200px; border:14px solid green;"">","null","","","","","","","","","",""
"","image-keyboard-response","257","326123","0.0-257.0","3TOK3KHVJU4AZJ9ELZR2U8VG93A7OV","A2EQEQNOVLJQ71","356TQKY9XFJ5S7O4NGX4839SMNB87N","","856.5","img/land4.png","75","861.2000000011176","2","0","1","2","0.8,0.2,0.2,0.2,0.8,0.2,0.2,0.2,0.8","0.2,0.8,0.2,0.2,0.2,0.8,0.8,0.2,0.2","3","",""
"","html-keyboard-response","258","326431","0.0-258.0","3TOK3KHVJU4AZJ9ELZR2U8VG93A7OV","A2EQEQNOVLJQ71","356TQKY9XFJ5S7O4NGX4839SMNB87N","","null","<img src=""img/land4.png"" style=""width:200px;border:14px solid red;"">","null","","","","","","","","","",""
"","image-keyboard-response","259","327238","0.0-259.0","3TOK3KHVJU4AZJ9ELZR2U8VG93A7OV","A2EQEQNOVLJQ71","356TQKY9XFJ5S7O4NGX4839SMNB87N","","801.4000000003725","img/land2.png","74","805.9000000003725","1","1","3","2","0.8,0.2,0.2,0.2,0.8,0.2,0.2,0.2,0.8","0.2,0.8,0.2,0.2,0.2,0.8,0.8,0.2,0.2","3","",""
"","html-keyboard-response","260","327542","0.0-260.0","3TOK3KHVJU4AZJ9ELZR2U8VG93A7OV","A2EQEQNOVLJQ71","356TQKY9XFJ5S7O4NGX4839SMNB87N","","null","<img src=""img/land2.png"" style=""width:200px; border:14px solid green;"">","null","","","","","","","","","",""
"","image-keyboard-response","261","328239","0.0-261.0","3TOK3KHVJU4AZJ9ELZR2U8VG93A7OV","A2EQEQNOVLJQ71","356TQKY9XFJ5S7O4NGX4839SMNB87N","","691.4000000003725","img/land4.png","75","696.0999999996275","2","0","1","2","0.8,0.2,0.2,0.2,0.8,0.2,0.2,0.2,0.8","0.2,0.8,0.2,0.2,0.2,0.8,0.8,0.2,0.2","3","",""
"","html-keyboard-response","262","328546","0.0-262.0","3TOK3KHVJU4AZJ9ELZR2U8VG93A7OV","A2EQEQNOVLJQ71","356TQKY9XFJ5S7O4NGX4839SMNB87N","","null","<img src=""img/land4.png"" style=""width:200px;border:14px solid red;"">","null","","","","","","","","","",""
"","image-keyboard-response","263","329381","0.0-263.0","3TOK3KHVJU4AZJ9ELZR2U8VG93A7OV","A2EQEQNOVLJQ71","356TQKY9XFJ5S7O4NGX4839SMNB87N","","829","img/land1.png","76","833.5","3","0","2","2","0.8,0.2,0.2,0.2,0.8,0.2,0.2,0.2,0.8","0.2,0.8,0.2,0.2,0.2,0.8,0.8,0.2,0.2","3","",""
"","html-keyboard-response","264","329686","0.0-264.0","3TOK3KHVJU4AZJ9ELZR2U8VG93A7OV","A2EQEQNOVLJQ71","356TQKY9XFJ5S7O4NGX4839SMNB87N","","null","<img src=""img/land1.png"" style=""width:200px;border:14px solid red;"">","null","","","","","","","","","",""
"","image-keyboard-response","265","330965","0.0-265.0","3TOK3KHVJU4AZJ9ELZR2U8VG93A7OV","A2EQEQNOVLJQ71","356TQKY9XFJ5S7O4NGX4839SMNB87N","","1273.5","img/land4.png","75","1277.5","2","0","1","2","0.8,0.2,0.2,0.2,0.8,0.2,0.2,0.2,0.8","0.2,0.8,0.2,0.2,0.2,0.8,0.8,0.2,0.2","3","",""
"","html-keyboard-response","266","331271","0.0-266.0","3TOK3KHVJU4AZJ9ELZR2U8VG93A7OV","A2EQEQNOVLJQ71","356TQKY9XFJ5S7O4NGX4839SMNB87N","","null","<img src=""img/land4.png"" style=""width:200px;border:14px solid red;"">","null","","","","","","","","","",""
"","image-keyboard-response","267","332118","0.0-267.0","3TOK3KHVJU4AZJ9ELZR2U8VG93A7OV","A2EQEQNOVLJQ71","356TQKY9XFJ5S7O4NGX4839SMNB87N","","843.5","img/land1.png","76","847.1999999992549","3","1","2","2","0.8,0.2,0.2,0.2,0.8,0.2,0.2,0.2,0.8","0.2,0.8,0.2,0.2,0.2,0.8,0.8,0.2,0.2","3","",""
"","html-keyboard-response","268","332425","0.0-268.0","3TOK3KHVJU4AZJ9ELZR2U8VG93A7OV","A2EQEQNOVLJQ71","356TQKY9XFJ5S7O4NGX4839SMNB87N","","null","<img src=""img/land1.png"" style=""width:200px; border:14px solid green;"">","null","","","","","","","","","",""
"","image-keyboard-response","269","333144","0.0-269.0","3TOK3KHVJU4AZJ9ELZR2U8VG93A7OV","A2EQEQNOVLJQ71","356TQKY9XFJ5S7O4NGX4839SMNB87N","","710.1999999992549","img/land2.png","75","717.9000000003725","2","0","3","2","0.8,0.2,0.2,0.2,0.8,0.2,0.2,0.2,0.8","0.2,0.8,0.2,0.2,0.2,0.8,0.8,0.2,0.2","3","",""
"","html-keyboard-response","270","333450","0.0-270.0","3TOK3KHVJU4AZJ9ELZR2U8VG93A7OV","A2EQEQNOVLJQ71","356TQKY9XFJ5S7O4NGX4839SMNB87N","","null","<img src=""img/land2.png"" style=""width:200px;border:14px solid red;"">","null","","","","","","","","","",""
"","image-keyboard-response","271","334630","0.0-271.0","3TOK3KHVJU4AZJ9ELZR2U8VG93A7OV","A2EQEQNOVLJQ71","356TQKY9XFJ5S7O4NGX4839SMNB87N","","1173.800000000745","img/land4.png","75","1178.9000000003725","2","1","1","2","0.8,0.2,0.2,0.2,0.8,0.2,0.2,0.2,0.8","0.2,0.8,0.2,0.2,0.2,0.8,0.8,0.2,0.2","3","",""
"","html-keyboard-response","272","334935","0.0-272.0","3TOK3KHVJU4AZJ9ELZR2U8VG93A7OV","A2EQEQNOVLJQ71","356TQKY9XFJ5S7O4NGX4839SMNB87N","","null","<img src=""img/land4.png"" style=""width:200px; border:14px solid green;"">","null","","","","","","","","","",""
"","image-keyboard-response","273","335759","0.0-273.0","3TOK3KHVJU4AZJ9ELZR2U8VG93A7OV","A2EQEQNOVLJQ71","356TQKY9XFJ5S7O4NGX4839SMNB87N","","819","img/land2.png","74","823.1999999992549","1","1","3","2","0.8,0.2,0.2,0.2,0.8,0.2,0.2,0.2,0.8","0.2,0.8,0.2,0.2,0.2,0.8,0.8,0.2,0.2","3","",""
"","html-keyboard-response","274","336064","0.0-274.0","3TOK3KHVJU4AZJ9ELZR2U8VG93A7OV","A2EQEQNOVLJQ71","356TQKY9XFJ5S7O4NGX4839SMNB87N","","null","<img src=""img/land2.png"" style=""width:200px; border:14px solid green;"">","null","","","","","","","","","",""
"","image-keyboard-response","275","336787","0.0-275.0","3TOK3KHVJU4AZJ9ELZR2U8VG93A7OV","A2EQEQNOVLJQ71","356TQKY9XFJ5S7O4NGX4839SMNB87N","","717.8000000007451","img/land4.png","75","722","2","0","1","2","0.8,0.2,0.2,0.2,0.8,0.2,0.2,0.2,0.8","0.2,0.8,0.2,0.2,0.2,0.8,0.8,0.2,0.2","3","",""
"","html-keyboard-response","276","337093","0.0-276.0","3TOK3KHVJU4AZJ9ELZR2U8VG93A7OV","A2EQEQNOVLJQ71","356TQKY9XFJ5S7O4NGX4839SMNB87N","","null","<img src=""img/land4.png"" style=""width:200px;border:14px solid red;"">","null","","","","","","","","","",""
"","image-keyboard-response","277","337874","0.0-277.0","3TOK3KHVJU4AZJ9ELZR2U8VG93A7OV","A2EQEQNOVLJQ71","356TQKY9XFJ5S7O4NGX4839SMNB87N","","771","img/land2.png","74","779.7999999988824","1","0","3","2","0.8,0.2,0.2,0.2,0.8,0.2,0.2,0.2,0.8","0.2,0.8,0.2,0.2,0.2,0.8,0.8,0.2,0.2","3","",""
"","html-keyboard-response","278","338181","0.0-278.0","3TOK3KHVJU4AZJ9ELZR2U8VG93A7OV","A2EQEQNOVLJQ71","356TQKY9XFJ5S7O4NGX4839SMNB87N","","null","<img src=""img/land2.png"" style=""width:200px;border:14px solid red;"">","null","","","","","","","","","",""
"","image-keyboard-response","279","339098","0.0-279.0","3TOK3KHVJU4AZJ9ELZR2U8VG93A7OV","A2EQEQNOVLJQ71","356TQKY9XFJ5S7O4NGX4839SMNB87N","","909.1999999992549","img/land1.png","76","915.5999999996275","3","1","2","2","0.8,0.2,0.2,0.2,0.8,0.2,0.2,0.2,0.8","0.2,0.8,0.2,0.2,0.2,0.8,0.8,0.2,0.2","3","",""
"","html-keyboard-response","280","339404","0.0-280.0","3TOK3KHVJU4AZJ9ELZR2U8VG93A7OV","A2EQEQNOVLJQ71","356TQKY9XFJ5S7O4NGX4839SMNB87N","","null","<img src=""img/land1.png"" style=""width:200px; border:14px solid green;"">","null","","","","","","","","","",""
"","image-keyboard-response","281","340193","0.0-281.0","3TOK3KHVJU4AZJ9ELZR2U8VG93A7OV","A2EQEQNOVLJQ71","356TQKY9XFJ5S7O4NGX4839SMNB87N","","778.7999999988824","img/land4.png","75","787.8999999985099","2","0","1","2","0.8,0.2,0.2,0.2,0.8,0.2,0.2,0.2,0.8","0.2,0.8,0.2,0.2,0.2,0.8,0.8,0.2,0.2","3","",""
"","html-keyboard-response","282","340500","0.0-282.0","3TOK3KHVJU4AZJ9ELZR2U8VG93A7OV","A2EQEQNOVLJQ71","356TQKY9XFJ5S7O4NGX4839SMNB87N","","null","<img src=""img/land4.png"" style=""width:200px;border:14px solid red;"">","null","","","","","","","","","",""
"","image-keyboard-response","283","342505","0.0-283.0","3TOK3KHVJU4AZJ9ELZR2U8VG93A7OV","A2EQEQNOVLJQ71","356TQKY9XFJ5S7O4NGX4839SMNB87N","","","img/land4.png","","2004.0999999996275","-1","0","1","2","0.8,0.2,0.2,0.2,0.8,0.2,0.2,0.2,0.8","0.2,0.8,0.2,0.2,0.2,0.8,0.8,0.2,0.2","3","",""
"","html-keyboard-response","284","342810","0.0-284.0","3TOK3KHVJU4AZJ9ELZR2U8VG93A7OV","A2EQEQNOVLJQ71","356TQKY9XFJ5S7O4NGX4839SMNB87N","","null","<img src=""img/land4.png"" style=""width:200px;border:14px solid red;"">","null","","","","","","","","","",""
"","image-keyboard-response","285","343534","0.0-285.0","3TOK3KHVJU4AZJ9ELZR2U8VG93A7OV","A2EQEQNOVLJQ71","356TQKY9XFJ5S7O4NGX4839SMNB87N","","715","img/land4.png","75","723","2","1","1","2","0.8,0.2,0.2,0.2,0.8,0.2,0.2,0.2,0.8","0.2,0.8,0.2,0.2,0.2,0.8,0.8,0.2,0.2","3","",""
"","html-keyboard-response","286","343840","0.0-286.0","3TOK3KHVJU4AZJ9ELZR2U8VG93A7OV","A2EQEQNOVLJQ71","356TQKY9XFJ5S7O4NGX4839SMNB87N","","null","<img src=""img/land4.png"" style=""width:200px; border:14px solid green;"">","null","","","","","","","","","",""
"","image-keyboard-response","287","344550","0.0-287.0","3TOK3KHVJU4AZJ9ELZR2U8VG93A7OV","A2EQEQNOVLJQ71","356TQKY9XFJ5S7O4NGX4839SMNB87N","","701.5999999996275","img/land4.png","75","709","2","0","1","2","0.8,0.2,0.2,0.2,0.8,0.2,0.2,0.2,0.8","0.2,0.8,0.2,0.2,0.2,0.8,0.8,0.2,0.2","3","",""
"","html-keyboard-response","288","344856","0.0-288.0","3TOK3KHVJU4AZJ9ELZR2U8VG93A7OV","A2EQEQNOVLJQ71","356TQKY9XFJ5S7O4NGX4839SMNB87N","","null","<img src=""img/land4.png"" style=""width:200px;border:14px solid red;"">","null","","","","","","","","","",""
"","image-keyboard-response","289","345684","0.0-289.0","3TOK3KHVJU4AZJ9ELZR2U8VG93A7OV","A2EQEQNOVLJQ71","356TQKY9XFJ5S7O4NGX4839SMNB87N","","820.0999999996275","img/land4.png","75","826.8000000007451","2","1","1","2","0.8,0.2,0.2,0.2,0.8,0.2,0.2,0.2,0.8","0.2,0.8,0.2,0.2,0.2,0.8,0.8,0.2,0.2","3","",""
"","html-keyboard-response","290","345990","0.0-290.0","3TOK3KHVJU4AZJ9ELZR2U8VG93A7OV","A2EQEQNOVLJQ71","356TQKY9XFJ5S7O4NGX4839SMNB87N","","null","<img src=""img/land4.png"" style=""width:200px; border:14px solid green;"">","null","","","","","","","","","",""
"","image-keyboard-response","291","346660","0.0-291.0","3TOK3KHVJU4AZJ9ELZR2U8VG93A7OV","A2EQEQNOVLJQ71","356TQKY9XFJ5S7O4NGX4839SMNB87N","","658.7999999988824","img/land4.png","75","668.3000000007451","2","0","1","2","0.8,0.2,0.2,0.2,0.8,0.2,0.2,0.2,0.8","0.2,0.8,0.2,0.2,0.2,0.8,0.8,0.2,0.2","3","",""
"","html-keyboard-response","292","346966","0.0-292.0","3TOK3KHVJU4AZJ9ELZR2U8VG93A7OV","A2EQEQNOVLJQ71","356TQKY9XFJ5S7O4NGX4839SMNB87N","","null","<img src=""img/land4.png"" style=""width:200px;border:14px solid red;"">","null","","","","","","","","","",""
"","image-keyboard-response","293","347546","0.0-293.0","3TOK3KHVJU4AZJ9ELZR2U8VG93A7OV","A2EQEQNOVLJQ71","356TQKY9XFJ5S7O4NGX4839SMNB87N","","572","img/land2.png","74","577.6000000014901","1","1","3","2","0.8,0.2,0.2,0.2,0.8,0.2,0.2,0.2,0.8","0.2,0.8,0.2,0.2,0.2,0.8,0.8,0.2,0.2","3","",""
"","html-keyboard-response","294","347854","0.0-294.0","3TOK3KHVJU4AZJ9ELZR2U8VG93A7OV","A2EQEQNOVLJQ71","356TQKY9XFJ5S7O4NGX4839SMNB87N","","null","<img src=""img/land2.png"" style=""width:200px; border:14px solid green;"">","null","","","","","","","","","",""
"","image-keyboard-response","295","348488","0.0-295.0","3TOK3KHVJU4AZJ9ELZR2U8VG93A7OV","A2EQEQNOVLJQ71","356TQKY9XFJ5S7O4NGX4839SMNB87N","","629.4000000003725","img/land1.png","76","636.9000000003725","3","1","2","2","0.8,0.2,0.2,0.2,0.8,0.2,0.2,0.2,0.8","0.2,0.8,0.2,0.2,0.2,0.8,0.8,0.2,0.2","3","",""
"","html-keyboard-response","296","348797","0.0-296.0","3TOK3KHVJU4AZJ9ELZR2U8VG93A7OV","A2EQEQNOVLJQ71","356TQKY9XFJ5S7O4NGX4839SMNB87N","","null","<img src=""img/land1.png"" style=""width:200px; border:14px solid green;"">","null","","","","","","","","","",""
"","image-keyboard-response","297","349554","0.0-297.0","3TOK3KHVJU4AZJ9ELZR2U8VG93A7OV","A2EQEQNOVLJQ71","356TQKY9XFJ5S7O4NGX4839SMNB87N","","749.0999999996275","img/land4.png","75","753.8999999985099","2","1","1","2","0.8,0.2,0.2,0.2,0.8,0.2,0.2,0.2,0.8","0.2,0.8,0.2,0.2,0.2,0.8,0.8,0.2,0.2","3","",""
"","html-keyboard-response","298","349860","0.0-298.0","3TOK3KHVJU4AZJ9ELZR2U8VG93A7OV","A2EQEQNOVLJQ71","356TQKY9XFJ5S7O4NGX4839SMNB87N","","null","<img src=""img/land4.png"" style=""width:200px; border:14px solid green;"">","null","","","","","","","","","",""
"","image-keyboard-response","299","350941","0.0-299.0","3TOK3KHVJU4AZJ9ELZR2U8VG93A7OV","A2EQEQNOVLJQ71","356TQKY9XFJ5S7O4NGX4839SMNB87N","","1072.800000000745","img/land1.png","76","1079.5","3","1","2","2","0.8,0.2,0.2,0.2,0.8,0.2,0.2,0.2,0.8","0.2,0.8,0.2,0.2,0.2,0.8,0.8,0.2,0.2","3","",""
"","html-keyboard-response","300","351249","0.0-300.0","3TOK3KHVJU4AZJ9ELZR2U8VG93A7OV","A2EQEQNOVLJQ71","356TQKY9XFJ5S7O4NGX4839SMNB87N","","null","<img src=""img/land1.png"" style=""width:200px; border:14px solid green;"">","null","","","","","","","","","",""
"","image-keyboard-response","301","351943","0.0-301.0","3TOK3KHVJU4AZJ9ELZR2U8VG93A7OV","A2EQEQNOVLJQ71","356TQKY9XFJ5S7O4NGX4839SMNB87N","","686.7000000011176","img/land4.png","75","692.0999999996275","2","1","1","2","0.8,0.2,0.2,0.2,0.8,0.2,0.2,0.2,0.8","0.2,0.8,0.2,0.2,0.2,0.8,0.8,0.2,0.2","3","",""
"","html-keyboard-response","302","352249","0.0-302.0","3TOK3KHVJU4AZJ9ELZR2U8VG93A7OV","A2EQEQNOVLJQ71","356TQKY9XFJ5S7O4NGX4839SMNB87N","","null","<img src=""img/land4.png"" style=""width:200px; border:14px solid green;"">","null","","","","","","","","","",""
"","image-keyboard-response","303","353069","0.0-303.0","3TOK3KHVJU4AZJ9ELZR2U8VG93A7OV","A2EQEQNOVLJQ71","356TQKY9XFJ5S7O4NGX4839SMNB87N","","812.1999999992549","img/land2.png","74","818.8000000007451","1","1","3","2","0.8,0.2,0.2,0.2,0.8,0.2,0.2,0.2,0.8","0.2,0.8,0.2,0.2,0.2,0.8,0.8,0.2,0.2","3","",""
"","html-keyboard-response","304","353375","0.0-304.0","3TOK3KHVJU4AZJ9ELZR2U8VG93A7OV","A2EQEQNOVLJQ71","356TQKY9XFJ5S7O4NGX4839SMNB87N","","null","<img src=""img/land2.png"" style=""width:200px; border:14px solid green;"">","null","","","","","","","","","",""
"","image-keyboard-response","305","354245","0.0-305.0","3TOK3KHVJU4AZJ9ELZR2U8VG93A7OV","A2EQEQNOVLJQ71","356TQKY9XFJ5S7O4NGX4839SMNB87N","","861.5999999996275","img/land4.png","75","869.3000000007451","2","1","1","2","0.8,0.2,0.2,0.2,0.8,0.2,0.2,0.2,0.8","0.2,0.8,0.2,0.2,0.2,0.8,0.8,0.2,0.2","3","",""
"","html-keyboard-response","306","354553","0.0-306.0","3TOK3KHVJU4AZJ9ELZR2U8VG93A7OV","A2EQEQNOVLJQ71","356TQKY9XFJ5S7O4NGX4839SMNB87N","","null","<img src=""img/land4.png"" style=""width:200px; border:14px solid green;"">","null","","","","","","","","","",""
"","image-keyboard-response","307","355386","0.0-307.0","3TOK3KHVJU4AZJ9ELZR2U8VG93A7OV","A2EQEQNOVLJQ71","356TQKY9XFJ5S7O4NGX4839SMNB87N","","828.3000000007451","img/land4.png","75","832.8000000007451","2","1","1","2","0.8,0.2,0.2,0.2,0.8,0.2,0.2,0.2,0.8","0.2,0.8,0.2,0.2,0.2,0.8,0.8,0.2,0.2","3","",""
"","html-keyboard-response","308","355693","0.0-308.0","3TOK3KHVJU4AZJ9ELZR2U8VG93A7OV","A2EQEQNOVLJQ71","356TQKY9XFJ5S7O4NGX4839SMNB87N","","null","<img src=""img/land4.png"" style=""width:200px; border:14px solid green;"">","null","","","","","","","","","",""
"","image-keyboard-response","309","356283","0.0-309.0","3TOK3KHVJU4AZJ9ELZR2U8VG93A7OV","A2EQEQNOVLJQ71","356TQKY9XFJ5S7O4NGX4839SMNB87N","","584.6000000014901","img/land4.png","75","588.3000000007451","2","1","1","2","0.8,0.2,0.2,0.2,0.8,0.2,0.2,0.2,0.8","0.2,0.8,0.2,0.2,0.2,0.8,0.8,0.2,0.2","3","",""
"","html-keyboard-response","310","356591","0.0-310.0","3TOK3KHVJU4AZJ9ELZR2U8VG93A7OV","A2EQEQNOVLJQ71","356TQKY9XFJ5S7O4NGX4839SMNB87N","","null","<img src=""img/land4.png"" style=""width:200px; border:14px solid green;"">","null","","","","","","","","","",""
"","image-keyboard-response","311","357373","0.0-311.0","3TOK3KHVJU4AZJ9ELZR2U8VG93A7OV","A2EQEQNOVLJQ71","356TQKY9XFJ5S7O4NGX4839SMNB87N","","777.1000000014901","img/land4.png","75","780.6999999992549","2","1","1","2","0.8,0.2,0.2,0.2,0.8,0.2,0.2,0.2,0.8","0.2,0.8,0.2,0.2,0.2,0.8,0.8,0.2,0.2","3","",""
"","html-keyboard-response","312","357677","0.0-312.0","3TOK3KHVJU4AZJ9ELZR2U8VG93A7OV","A2EQEQNOVLJQ71","356TQKY9XFJ5S7O4NGX4839SMNB87N","","null","<img src=""img/land4.png"" style=""width:200px; border:14px solid green;"">","null","","","","","","","","","",""
"","image-keyboard-response","313","358344","0.0-313.0","3TOK3KHVJU4AZJ9ELZR2U8VG93A7OV","A2EQEQNOVLJQ71","356TQKY9XFJ5S7O4NGX4839SMNB87N","","662.0999999996275","img/land4.png","75","666","2","0","1","2","0.8,0.2,0.2,0.2,0.8,0.2,0.2,0.2,0.8","0.2,0.8,0.2,0.2,0.2,0.8,0.8,0.2,0.2","3","",""
"","html-keyboard-response","314","358648","0.0-314.0","3TOK3KHVJU4AZJ9ELZR2U8VG93A7OV","A2EQEQNOVLJQ71","356TQKY9XFJ5S7O4NGX4839SMNB87N","","null","<img src=""img/land4.png"" style=""width:200px;border:14px solid red;"">","null","","","","","","","","","",""
"","image-keyboard-response","315","359409","0.0-315.0","3TOK3KHVJU4AZJ9ELZR2U8VG93A7OV","A2EQEQNOVLJQ71","356TQKY9XFJ5S7O4NGX4839SMNB87N","","756.2999999988824","img/land4.png","75","761.2000000011176","2","1","1","2","0.8,0.2,0.2,0.2,0.8,0.2,0.2,0.2,0.8","0.2,0.8,0.2,0.2,0.2,0.8,0.8,0.2,0.2","3","",""
"","html-keyboard-response","316","359716","0.0-316.0","3TOK3KHVJU4AZJ9ELZR2U8VG93A7OV","A2EQEQNOVLJQ71","356TQKY9XFJ5S7O4NGX4839SMNB87N","","null","<img src=""img/land4.png"" style=""width:200px; border:14px solid green;"">","null","","","","","","","","","",""
"","image-keyboard-response","317","360694","0.0-317.0","3TOK3KHVJU4AZJ9ELZR2U8VG93A7OV","A2EQEQNOVLJQ71","356TQKY9XFJ5S7O4NGX4839SMNB87N","","972.3999999985099","img/land4.png","75","977.5999999996275","2","1","1","2","0.8,0.2,0.2,0.2,0.8,0.2,0.2,0.2,0.8","0.2,0.8,0.2,0.2,0.2,0.8,0.8,0.2,0.2","3","",""
"","html-keyboard-response","318","361000","0.0-318.0","3TOK3KHVJU4AZJ9ELZR2U8VG93A7OV","A2EQEQNOVLJQ71","356TQKY9XFJ5S7O4NGX4839SMNB87N","","null","<img src=""img/land4.png"" style=""width:200px; border:14px solid green;"">","null","","","","","","","","","",""
"","image-keyboard-response","319","361976","0.0-319.0","3TOK3KHVJU4AZJ9ELZR2U8VG93A7OV","A2EQEQNOVLJQ71","356TQKY9XFJ5S7O4NGX4839SMNB87N","","966.8999999985099","img/land4.png","75","975.6999999992549","2","1","1","2","0.8,0.2,0.2,0.2,0.8,0.2,0.2,0.2,0.8","0.2,0.8,0.2,0.2,0.2,0.8,0.8,0.2,0.2","3","",""
"","html-keyboard-response","320","362283","0.0-320.0","3TOK3KHVJU4AZJ9ELZR2U8VG93A7OV","A2EQEQNOVLJQ71","356TQKY9XFJ5S7O4NGX4839SMNB87N","","null","<img src=""img/land4.png"" style=""width:200px; border:14px solid green;"">","null","","","","","","","","","",""
"","image-keyboard-response","321","363124","0.0-321.0","3TOK3KHVJU4AZJ9ELZR2U8VG93A7OV","A2EQEQNOVLJQ71","356TQKY9XFJ5S7O4NGX4839SMNB87N","","830.5","img/land4.png","75","837.2999999988824","2","0","1","2","0.8,0.2,0.2,0.2,0.8,0.2,0.2,0.2,0.8","0.2,0.8,0.2,0.2,0.2,0.8,0.8,0.2,0.2","3","",""
"","html-keyboard-response","322","363432","0.0-322.0","3TOK3KHVJU4AZJ9ELZR2U8VG93A7OV","A2EQEQNOVLJQ71","356TQKY9XFJ5S7O4NGX4839SMNB87N","","null","<img src=""img/land4.png"" style=""width:200px;border:14px solid red;"">","null","","","","","","","","","",""
"","image-keyboard-response","323","364185","0.0-323.0","3TOK3KHVJU4AZJ9ELZR2U8VG93A7OV","A2EQEQNOVLJQ71","356TQKY9XFJ5S7O4NGX4839SMNB87N","","746.8999999985099","img/land2.png","74","751.5","1","1","3","2","0.8,0.2,0.2,0.2,0.8,0.2,0.2,0.2,0.8","0.2,0.8,0.2,0.2,0.2,0.8,0.8,0.2,0.2","3","",""
"","html-keyboard-response","324","364491","0.0-324.0","3TOK3KHVJU4AZJ9ELZR2U8VG93A7OV","A2EQEQNOVLJQ71","356TQKY9XFJ5S7O4NGX4839SMNB87N","","null","<img src=""img/land2.png"" style=""width:200px; border:14px solid green;"">","null","","","","","","","","","",""
"","image-keyboard-response","325","365168","0.0-325.0","3TOK3KHVJU4AZJ9ELZR2U8VG93A7OV","A2EQEQNOVLJQ71","356TQKY9XFJ5S7O4NGX4839SMNB87N","","671","img/land1.png","76","676.5999999996275","3","1","2","2","0.8,0.2,0.2,0.2,0.8,0.2,0.2,0.2,0.8","0.2,0.8,0.2,0.2,0.2,0.8,0.8,0.2,0.2","3","",""
"","html-keyboard-response","326","365474","0.0-326.0","3TOK3KHVJU4AZJ9ELZR2U8VG93A7OV","A2EQEQNOVLJQ71","356TQKY9XFJ5S7O4NGX4839SMNB87N","","null","<img src=""img/land1.png"" style=""width:200px; border:14px solid green;"">","null","","","","","","","","","",""
"","image-keyboard-response","327","366359","0.0-327.0","3TOK3KHVJU4AZJ9ELZR2U8VG93A7OV","A2EQEQNOVLJQ71","356TQKY9XFJ5S7O4NGX4839SMNB87N","","876.2000000011176","img/land2.png","74","883.4000000003725","1","0","3","2","0.8,0.2,0.2,0.2,0.8,0.2,0.2,0.2,0.8","0.2,0.8,0.2,0.2,0.2,0.8,0.8,0.2,0.2","3","",""
"","html-keyboard-response","328","366665","0.0-328.0","3TOK3KHVJU4AZJ9ELZR2U8VG93A7OV","A2EQEQNOVLJQ71","356TQKY9XFJ5S7O4NGX4839SMNB87N","","null","<img src=""img/land2.png"" style=""width:200px;border:14px solid red;"">","null","","","","","","","","","",""
"","image-keyboard-response","329","367555","0.0-329.0","3TOK3KHVJU4AZJ9ELZR2U8VG93A7OV","A2EQEQNOVLJQ71","356TQKY9XFJ5S7O4NGX4839SMNB87N","","884.3000000007451","img/land4.png","75","890.3000000007451","2","1","1","2","0.8,0.2,0.2,0.2,0.8,0.2,0.2,0.2,0.8","0.2,0.8,0.2,0.2,0.2,0.8,0.8,0.2,0.2","3","",""
"","html-keyboard-response","330","367864","0.0-330.0","3TOK3KHVJU4AZJ9ELZR2U8VG93A7OV","A2EQEQNOVLJQ71","356TQKY9XFJ5S7O4NGX4839SMNB87N","","null","<img src=""img/land4.png"" style=""width:200px; border:14px solid green;"">","null","","","","","","","","","",""
"","image-keyboard-response","331","368572","0.0-331.0","3TOK3KHVJU4AZJ9ELZR2U8VG93A7OV","A2EQEQNOVLJQ71","356TQKY9XFJ5S7O4NGX4839SMNB87N","","702.5","img/land1.png","76","706.8000000007451","3","1","2","2","0.8,0.2,0.2,0.2,0.8,0.2,0.2,0.2,0.8","0.2,0.8,0.2,0.2,0.2,0.8,0.8,0.2,0.2","3","",""
"","html-keyboard-response","332","368877","0.0-332.0","3TOK3KHVJU4AZJ9ELZR2U8VG93A7OV","A2EQEQNOVLJQ71","356TQKY9XFJ5S7O4NGX4839SMNB87N","","null","<img src=""img/land1.png"" style=""width:200px; border:14px solid green;"">","null","","","","","","","","","",""
"","image-keyboard-response","333","369774","0.0-333.0","3TOK3KHVJU4AZJ9ELZR2U8VG93A7OV","A2EQEQNOVLJQ71","356TQKY9XFJ5S7O4NGX4839SMNB87N","","890.4000000003725","img/land1.png","76","896.5999999996275","3","1","2","2","0.8,0.2,0.2,0.2,0.8,0.2,0.2,0.2,0.8","0.2,0.8,0.2,0.2,0.2,0.8,0.8,0.2,0.2","3","",""
"","html-keyboard-response","334","370080","0.0-334.0","3TOK3KHVJU4AZJ9ELZR2U8VG93A7OV","A2EQEQNOVLJQ71","356TQKY9XFJ5S7O4NGX4839SMNB87N","","null","<img src=""img/land1.png"" style=""width:200px; border:14px solid green;"">","null","","","","","","","","","",""
"","image-keyboard-response","335","371075","0.0-335.0","3TOK3KHVJU4AZJ9ELZR2U8VG93A7OV","A2EQEQNOVLJQ71","356TQKY9XFJ5S7O4NGX4839SMNB87N","","989.9000000003725","img/land1.png","76","994.3000000007451","3","1","2","2","0.8,0.2,0.2,0.2,0.8,0.2,0.2,0.2,0.8","0.2,0.8,0.2,0.2,0.2,0.8,0.8,0.2,0.2","3","",""
"","html-keyboard-response","336","371383","0.0-336.0","3TOK3KHVJU4AZJ9ELZR2U8VG93A7OV","A2EQEQNOVLJQ71","356TQKY9XFJ5S7O4NGX4839SMNB87N","","null","<img src=""img/land1.png"" style=""width:200px; border:14px solid green;"">","null","","","","","","","","","",""
"","image-keyboard-response","337","372164","0.0-337.0","3TOK3KHVJU4AZJ9ELZR2U8VG93A7OV","A2EQEQNOVLJQ71","356TQKY9XFJ5S7O4NGX4839SMNB87N","","773.6999999992549","img/land4.png","75","778.6999999992549","2","1","1","2","0.8,0.2,0.2,0.2,0.8,0.2,0.2,0.2,0.8","0.2,0.8,0.2,0.2,0.2,0.8,0.8,0.2,0.2","3","",""
"","html-keyboard-response","338","372469","0.0-338.0","3TOK3KHVJU4AZJ9ELZR2U8VG93A7OV","A2EQEQNOVLJQ71","356TQKY9XFJ5S7O4NGX4839SMNB87N","","null","<img src=""img/land4.png"" style=""width:200px; border:14px solid green;"">","null","","","","","","","","","",""
"","image-keyboard-response","339","372949","0.0-339.0","3TOK3KHVJU4AZJ9ELZR2U8VG93A7OV","A2EQEQNOVLJQ71","356TQKY9XFJ5S7O4NGX4839SMNB87N","","471.7000000011176","img/land4.png","75","479","2","1","1","2","0.8,0.2,0.2,0.2,0.8,0.2,0.2,0.2,0.8","0.2,0.8,0.2,0.2,0.2,0.8,0.8,0.2,0.2","3","",""
"","html-keyboard-response","340","373257","0.0-340.0","3TOK3KHVJU4AZJ9ELZR2U8VG93A7OV","A2EQEQNOVLJQ71","356TQKY9XFJ5S7O4NGX4839SMNB87N","","null","<img src=""img/land4.png"" style=""width:200px; border:14px solid green;"">","null","","","","","","","","","",""
"","image-keyboard-response","341","373955","0.0-341.0","3TOK3KHVJU4AZJ9ELZR2U8VG93A7OV","A2EQEQNOVLJQ71","356TQKY9XFJ5S7O4NGX4839SMNB87N","","688.5999999996275","img/land4.png","75","696.5","2","1","1","2","0.8,0.2,0.2,0.2,0.8,0.2,0.2,0.2,0.8","0.2,0.8,0.2,0.2,0.2,0.8,0.8,0.2,0.2","3","",""
"","html-keyboard-response","342","374260","0.0-342.0","3TOK3KHVJU4AZJ9ELZR2U8VG93A7OV","A2EQEQNOVLJQ71","356TQKY9XFJ5S7O4NGX4839SMNB87N","","null","<img src=""img/land4.png"" style=""width:200px; border:14px solid green;"">","null","","","","","","","","","",""
"","image-keyboard-response","343","375221","0.0-343.0","3TOK3KHVJU4AZJ9ELZR2U8VG93A7OV","A2EQEQNOVLJQ71","356TQKY9XFJ5S7O4NGX4839SMNB87N","","955.4000000003725","img/land1.png","76","959.6999999992549","3","0","2","2","0.8,0.2,0.2,0.2,0.8,0.2,0.2,0.2,0.8","0.2,0.8,0.2,0.2,0.2,0.8,0.8,0.2,0.2","3","",""
"","html-keyboard-response","344","375529","0.0-344.0","3TOK3KHVJU4AZJ9ELZR2U8VG93A7OV","A2EQEQNOVLJQ71","356TQKY9XFJ5S7O4NGX4839SMNB87N","","null","<img src=""img/land1.png"" style=""width:200px;border:14px solid red;"">","null","","","","","","","","","",""
"","image-keyboard-response","345","376336","0.0-345.0","3TOK3KHVJU4AZJ9ELZR2U8VG93A7OV","A2EQEQNOVLJQ71","356TQKY9XFJ5S7O4NGX4839SMNB87N","","799.6999999992549","img/land4.png","75","804.9000000003725","2","1","1","2","0.8,0.2,0.2,0.2,0.8,0.2,0.2,0.2,0.8","0.2,0.8,0.2,0.2,0.2,0.8,0.8,0.2,0.2","3","",""
"","html-keyboard-response","346","376642","0.0-346.0","3TOK3KHVJU4AZJ9ELZR2U8VG93A7OV","A2EQEQNOVLJQ71","356TQKY9XFJ5S7O4NGX4839SMNB87N","","null","<img src=""img/land4.png"" style=""width:200px; border:14px solid green;"">","null","","","","","","","","","",""
"","image-keyboard-response","347","377393","0.0-347.0","3TOK3KHVJU4AZJ9ELZR2U8VG93A7OV","A2EQEQNOVLJQ71","356TQKY9XFJ5S7O4NGX4839SMNB87N","","743.6999999992549","img/land2.png","74","749.4000000003725","1","0","3","2","0.8,0.2,0.2,0.2,0.8,0.2,0.2,0.2,0.8","0.2,0.8,0.2,0.2,0.2,0.8,0.8,0.2,0.2","3","",""
"","html-keyboard-response","348","377698","0.0-348.0","3TOK3KHVJU4AZJ9ELZR2U8VG93A7OV","A2EQEQNOVLJQ71","356TQKY9XFJ5S7O4NGX4839SMNB87N","","null","<img src=""img/land2.png"" style=""width:200px;border:14px solid red;"">","null","","","","","","","","","",""
"","image-keyboard-response","349","378428","0.0-349.0","3TOK3KHVJU4AZJ9ELZR2U8VG93A7OV","A2EQEQNOVLJQ71","356TQKY9XFJ5S7O4NGX4839SMNB87N","","724.7999999988824","img/land4.png","75","728.8000000007451","2","1","1","2","0.8,0.2,0.2,0.2,0.8,0.2,0.2,0.2,0.8","0.2,0.8,0.2,0.2,0.2,0.8,0.8,0.2,0.2","3","",""
"","html-keyboard-response","350","378733","0.0-350.0","3TOK3KHVJU4AZJ9ELZR2U8VG93A7OV","A2EQEQNOVLJQ71","356TQKY9XFJ5S7O4NGX4839SMNB87N","","null","<img src=""img/land4.png"" style=""width:200px; border:14px solid green;"">","null","","","","","","","","","",""
"","image-keyboard-response","351","379221","0.0-351.0","3TOK3KHVJU4AZJ9ELZR2U8VG93A7OV","A2EQEQNOVLJQ71","356TQKY9XFJ5S7O4NGX4839SMNB87N","","480.19999999925494","img/land4.png","75","485.80000000074506","2","1","1","2","0.8,0.2,0.2,0.2,0.8,0.2,0.2,0.2,0.8","0.2,0.8,0.2,0.2,0.2,0.8,0.8,0.2,0.2","3","",""
"","html-keyboard-response","352","379529","0.0-352.0","3TOK3KHVJU4AZJ9ELZR2U8VG93A7OV","A2EQEQNOVLJQ71","356TQKY9XFJ5S7O4NGX4839SMNB87N","","null","<img src=""img/land4.png"" style=""width:200px; border:14px solid green;"">","null","","","","","","","","","",""
"","image-keyboard-response","353","380171","0.0-353.0","3TOK3KHVJU4AZJ9ELZR2U8VG93A7OV","A2EQEQNOVLJQ71","356TQKY9XFJ5S7O4NGX4839SMNB87N","","636.4000000003725","img/land1.png","76","641.3000000007451","3","1","2","2","0.8,0.2,0.2,0.2,0.8,0.2,0.2,0.2,0.8","0.2,0.8,0.2,0.2,0.2,0.8,0.8,0.2,0.2","3","",""
"","html-keyboard-response","354","380477","0.0-354.0","3TOK3KHVJU4AZJ9ELZR2U8VG93A7OV","A2EQEQNOVLJQ71","356TQKY9XFJ5S7O4NGX4839SMNB87N","","null","<img src=""img/land1.png"" style=""width:200px; border:14px solid green;"">","null","","","","","","","","","",""
"","image-keyboard-response","355","381351","0.0-355.0","3TOK3KHVJU4AZJ9ELZR2U8VG93A7OV","A2EQEQNOVLJQ71","356TQKY9XFJ5S7O4NGX4839SMNB87N","","868.1999999992549","img/land4.png","75","873.5999999996275","2","1","1","2","0.8,0.2,0.2,0.2,0.8,0.2,0.2,0.2,0.8","0.2,0.8,0.2,0.2,0.2,0.8,0.8,0.2,0.2","3","",""
"","html-keyboard-response","356","381659","0.0-356.0","3TOK3KHVJU4AZJ9ELZR2U8VG93A7OV","A2EQEQNOVLJQ71","356TQKY9XFJ5S7O4NGX4839SMNB87N","","null","<img src=""img/land4.png"" style=""width:200px; border:14px solid green;"">","null","","","","","","","","","",""
