"success","trial_type","trial_index","time_elapsed","internal_node_id","assignmentID","mturkID","hitID","view_history","rt","stimulus","key_press","reactionTime","a","r","warning","s","reward_cond","responses","question_order"
"true","fullscreen","0","2755","0.0-0.0","3FE7TXL1LJ96YUPOU02BNM98AW6Q2J","A2FB5UQTR3E0NX","3XEIP58NL09JROET00YR4SOXG94ZLV","","","","","","","","","","","",""
"","instructions","1","27375","0.0-1.0","3FE7TXL1LJ96YUPOU02BNM98AW6Q2J","A2FB5UQTR3E0NX","3XEIP58NL09JROET00YR4SOXG94ZLV","[{""page_index"":0,""viewing_time"":3502.800000011921},{""page_index"":1,""viewing_time"":550.5999999642372},{""page_index"":2,""viewing_time"":552.7000000476837},{""page_index"":3,""viewing_time"":903.6999999880791},{""page_index"":4,""viewing_time"":1261.300000011921},{""page_index"":5,""viewing_time"":13145},{""page_index"":6,""viewing_time"":1246.3999999761581},{""page_index"":7,""viewing_time"":3451.699999988079}]","24615.19999998808","","","","","","","","","",""
"","image-keyboard-response","2","28401","0.0-2.0","3FE7TXL1LJ96YUPOU02BNM98AW6Q2J","A2FB5UQTR3E0NX","3XEIP58NL09JROET00YR4SOXG94ZLV","","","img/land4.png","","1025.5999999642372","-1","0","true","3","1,0.5,0.5,0.5,1,0.5,0.5,0.5,1","",""
"","html-keyboard-response","3","28710","0.0-3.0","3FE7TXL1LJ96YUPOU02BNM98AW6Q2J","A2FB5UQTR3E0NX","3XEIP58NL09JROET00YR4SOXG94ZLV","","null","<img src=""img/land4.png"" style=""width:200px;border:14px solid red;"">","null","","","","","","","",""
"","html-keyboard-response","4","34865","0.0-4.0-0.0","3FE7TXL1LJ96YUPOU02BNM98AW6Q2J","A2FB5UQTR3E0NX","3XEIP58NL09JROET00YR4SOXG94ZLV","","","","","","","","","","","",""
"","image-keyboard-response","5","35868","0.0-5.0","3FE7TXL1LJ96YUPOU02BNM98AW6Q2J","A2FB5UQTR3E0NX","3XEIP58NL09JROET00YR4SOXG94ZLV","","","img/land2.png","","1002.4000000357628","-1","0","true","1","1,0.5,0.5,0.5,1,0.5,0.5,0.5,1","",""
"","html-keyboard-response","6","36172","0.0-6.0","3FE7TXL1LJ96YUPOU02BNM98AW6Q2J","A2FB5UQTR3E0NX","3XEIP58NL09JROET00YR4SOXG94ZLV","","null","<img src=""img/land2.png"" style=""width:200px;border:14px solid red;"">","null","","","","","","","",""
"","html-keyboard-response","7","37874","0.0-7.0-0.0","3FE7TXL1LJ96YUPOU02BNM98AW6Q2J","A2FB5UQTR3E0NX","3XEIP58NL09JROET00YR4SOXG94ZLV","","","","","","","","","","","",""
"","image-keyboard-response","8","38758","0.0-8.0","3FE7TXL1LJ96YUPOU02BNM98AW6Q2J","A2FB5UQTR3E0NX","3XEIP58NL09JROET00YR4SOXG94ZLV","","881.3000000119209","img/land5.png","75","883.8000000119209","2","1","false","2","1,0.5,0.5,0.5,1,0.5,0.5,0.5,1","",""
"","html-keyboard-response","9","39061","0.0-9.0","3FE7TXL1LJ96YUPOU02BNM98AW6Q2J","A2FB5UQTR3E0NX","3XEIP58NL09JROET00YR4SOXG94ZLV","","null","<img src=""img/land5.png"" style=""width:200px; border:14px solid green;"">","null","","","","","","","",""
"","image-keyboard-response","10","39989","0.0-11.0","3FE7TXL1LJ96YUPOU02BNM98AW6Q2J","A2FB5UQTR3E0NX","3XEIP58NL09JROET00YR4SOXG94ZLV","","925.1999999880791","img/land2.png","74","927.5999999642372","1","1","false","1","1,0.5,0.5,0.5,1,0.5,0.5,0.5,1","",""
"","html-keyboard-response","11","40293","0.0-12.0","3FE7TXL1LJ96YUPOU02BNM98AW6Q2J","A2FB5UQTR3E0NX","3XEIP58NL09JROET00YR4SOXG94ZLV","","null","<img src=""img/land2.png"" style=""width:200px; border:14px solid green;"">","null","","","","","","","",""
"","image-keyboard-response","12","41006","0.0-14.0","3FE7TXL1LJ96YUPOU02BNM98AW6Q2J","A2FB5UQTR3E0NX","3XEIP58NL09JROET00YR4SOXG94ZLV","","710.1999999880791","img/land2.png","74","712.3000000119209","1","1","false","1","1,0.5,0.5,0.5,1,0.5,0.5,0.5,1","",""
"","html-keyboard-response","13","41311","0.0-15.0","3FE7TXL1LJ96YUPOU02BNM98AW6Q2J","A2FB5UQTR3E0NX","3XEIP58NL09JROET00YR4SOXG94ZLV","","null","<img src=""img/land2.png"" style=""width:200px; border:14px solid green;"">","null","","","","","","","",""
"","image-keyboard-response","14","42080","0.0-17.0","3FE7TXL1LJ96YUPOU02BNM98AW6Q2J","A2FB5UQTR3E0NX","3XEIP58NL09JROET00YR4SOXG94ZLV","","766.3999999761581","img/land5.png","76","768.6999999880791","3","0","false","2","1,0.5,0.5,0.5,1,0.5,0.5,0.5,1","",""
"","html-keyboard-response","15","42383","0.0-18.0","3FE7TXL1LJ96YUPOU02BNM98AW6Q2J","A2FB5UQTR3E0NX","3XEIP58NL09JROET00YR4SOXG94ZLV","","null","<img src=""img/land5.png"" style=""width:200px;border:14px solid red;"">","null","","","","","","","",""
"","image-keyboard-response","16","43035","0.0-20.0","3FE7TXL1LJ96YUPOU02BNM98AW6Q2J","A2FB5UQTR3E0NX","3XEIP58NL09JROET00YR4SOXG94ZLV","","649.6000000238419","img/land5.png","75","651.6999999880791","2","1","false","2","1,0.5,0.5,0.5,1,0.5,0.5,0.5,1","",""
"","html-keyboard-response","17","43338","0.0-21.0","3FE7TXL1LJ96YUPOU02BNM98AW6Q2J","A2FB5UQTR3E0NX","3XEIP58NL09JROET00YR4SOXG94ZLV","","null","<img src=""img/land5.png"" style=""width:200px; border:14px solid green;"">","null","","","","","","","",""
"","image-keyboard-response","18","43823","0.0-23.0","3FE7TXL1LJ96YUPOU02BNM98AW6Q2J","A2FB5UQTR3E0NX","3XEIP58NL09JROET00YR4SOXG94ZLV","","481.80000001192093","img/land2.png","74","484.19999998807907","1","1","false","1","1,0.5,0.5,0.5,1,0.5,0.5,0.5,1","",""
"","html-keyboard-response","19","44128","0.0-24.0","3FE7TXL1LJ96YUPOU02BNM98AW6Q2J","A2FB5UQTR3E0NX","3XEIP58NL09JROET00YR4SOXG94ZLV","","null","<img src=""img/land2.png"" style=""width:200px; border:14px solid green;"">","null","","","","","","","",""
"","image-keyboard-response","20","44557","0.0-26.0","3FE7TXL1LJ96YUPOU02BNM98AW6Q2J","A2FB5UQTR3E0NX","3XEIP58NL09JROET00YR4SOXG94ZLV","","425.5999999642372","img/land5.png","75","427.69999998807907","2","1","false","2","1,0.5,0.5,0.5,1,0.5,0.5,0.5,1","",""
"","html-keyboard-response","21","44859","0.0-27.0","3FE7TXL1LJ96YUPOU02BNM98AW6Q2J","A2FB5UQTR3E0NX","3XEIP58NL09JROET00YR4SOXG94ZLV","","null","<img src=""img/land5.png"" style=""width:200px; border:14px solid green;"">","null","","","","","","","",""
"","image-keyboard-response","22","45335","0.0-29.0","3FE7TXL1LJ96YUPOU02BNM98AW6Q2J","A2FB5UQTR3E0NX","3XEIP58NL09JROET00YR4SOXG94ZLV","","474","img/land5.png","75","476","2","1","false","2","1,0.5,0.5,0.5,1,0.5,0.5,0.5,1","",""
"","html-keyboard-response","23","45639","0.0-30.0","3FE7TXL1LJ96YUPOU02BNM98AW6Q2J","A2FB5UQTR3E0NX","3XEIP58NL09JROET00YR4SOXG94ZLV","","null","<img src=""img/land5.png"" style=""width:200px; border:14px solid green;"">","null","","","","","","","",""
"","image-keyboard-response","24","46407","0.0-32.0","3FE7TXL1LJ96YUPOU02BNM98AW6Q2J","A2FB5UQTR3E0NX","3XEIP58NL09JROET00YR4SOXG94ZLV","","764.5","img/land4.png","76","766.6999999880791","3","1","false","3","1,0.5,0.5,0.5,1,0.5,0.5,0.5,1","",""
"","html-keyboard-response","25","46710","0.0-33.0","3FE7TXL1LJ96YUPOU02BNM98AW6Q2J","A2FB5UQTR3E0NX","3XEIP58NL09JROET00YR4SOXG94ZLV","","null","<img src=""img/land4.png"" style=""width:200px; border:14px solid green;"">","null","","","","","","","",""
"","image-keyboard-response","26","47099","0.0-35.0","3FE7TXL1LJ96YUPOU02BNM98AW6Q2J","A2FB5UQTR3E0NX","3XEIP58NL09JROET00YR4SOXG94ZLV","","385.60000002384186","img/land4.png","76","388","3","1","false","3","1,0.5,0.5,0.5,1,0.5,0.5,0.5,1","",""
"","html-keyboard-response","27","47404","0.0-36.0","3FE7TXL1LJ96YUPOU02BNM98AW6Q2J","A2FB5UQTR3E0NX","3XEIP58NL09JROET00YR4SOXG94ZLV","","null","<img src=""img/land4.png"" style=""width:200px; border:14px solid green;"">","null","","","","","","","",""
"","image-keyboard-response","28","48086","0.0-38.0","3FE7TXL1LJ96YUPOU02BNM98AW6Q2J","A2FB5UQTR3E0NX","3XEIP58NL09JROET00YR4SOXG94ZLV","","679.1000000238419","img/land5.png","75","681.5","2","1","false","2","1,0.5,0.5,0.5,1,0.5,0.5,0.5,1","",""
"","html-keyboard-response","29","48391","0.0-39.0","3FE7TXL1LJ96YUPOU02BNM98AW6Q2J","A2FB5UQTR3E0NX","3XEIP58NL09JROET00YR4SOXG94ZLV","","null","<img src=""img/land5.png"" style=""width:200px; border:14px solid green;"">","null","","","","","","","",""
"","image-keyboard-response","30","49377","0.0-41.0","3FE7TXL1LJ96YUPOU02BNM98AW6Q2J","A2FB5UQTR3E0NX","3XEIP58NL09JROET00YR4SOXG94ZLV","","982.6999999880791","img/land4.png","76","985.0999999642372","3","1","false","3","1,0.5,0.5,0.5,1,0.5,0.5,0.5,1","",""
"","html-keyboard-response","31","49681","0.0-42.0","3FE7TXL1LJ96YUPOU02BNM98AW6Q2J","A2FB5UQTR3E0NX","3XEIP58NL09JROET00YR4SOXG94ZLV","","null","<img src=""img/land4.png"" style=""width:200px; border:14px solid green;"">","null","","","","","","","",""
"","image-keyboard-response","32","50092","0.0-44.0","3FE7TXL1LJ96YUPOU02BNM98AW6Q2J","A2FB5UQTR3E0NX","3XEIP58NL09JROET00YR4SOXG94ZLV","","408.39999997615814","img/land4.png","76","410.5","3","1","false","3","1,0.5,0.5,0.5,1,0.5,0.5,0.5,1","",""
"","html-keyboard-response","33","50406","0.0-45.0","3FE7TXL1LJ96YUPOU02BNM98AW6Q2J","A2FB5UQTR3E0NX","3XEIP58NL09JROET00YR4SOXG94ZLV","","null","<img src=""img/land4.png"" style=""width:200px; border:14px solid green;"">","null","","","","","","","",""
"","image-keyboard-response","34","51053","0.0-47.0","3FE7TXL1LJ96YUPOU02BNM98AW6Q2J","A2FB5UQTR3E0NX","3XEIP58NL09JROET00YR4SOXG94ZLV","","644","img/land5.png","75","646.1999999880791","2","1","false","2","1,0.5,0.5,0.5,1,0.5,0.5,0.5,1","",""
"","html-keyboard-response","35","51356","0.0-48.0","3FE7TXL1LJ96YUPOU02BNM98AW6Q2J","A2FB5UQTR3E0NX","3XEIP58NL09JROET00YR4SOXG94ZLV","","null","<img src=""img/land5.png"" style=""width:200px; border:14px solid green;"">","null","","","","","","","",""
"","image-keyboard-response","36","51962","0.0-50.0","3FE7TXL1LJ96YUPOU02BNM98AW6Q2J","A2FB5UQTR3E0NX","3XEIP58NL09JROET00YR4SOXG94ZLV","","602.9000000357628","img/land4.png","76","605.6000000238419","3","1","false","3","1,0.5,0.5,0.5,1,0.5,0.5,0.5,1","",""
"","html-keyboard-response","37","52266","0.0-51.0","3FE7TXL1LJ96YUPOU02BNM98AW6Q2J","A2FB5UQTR3E0NX","3XEIP58NL09JROET00YR4SOXG94ZLV","","null","<img src=""img/land4.png"" style=""width:200px; border:14px solid green;"">","null","","","","","","","",""
"","image-keyboard-response","38","52694","0.0-53.0","3FE7TXL1LJ96YUPOU02BNM98AW6Q2J","A2FB5UQTR3E0NX","3XEIP58NL09JROET00YR4SOXG94ZLV","","423.69999998807907","img/land2.png","74","427","1","1","false","1","1,0.5,0.5,0.5,1,0.5,0.5,0.5,1","",""
"","html-keyboard-response","39","52999","0.0-54.0","3FE7TXL1LJ96YUPOU02BNM98AW6Q2J","A2FB5UQTR3E0NX","3XEIP58NL09JROET00YR4SOXG94ZLV","","null","<img src=""img/land2.png"" style=""width:200px; border:14px solid green;"">","null","","","","","","","",""
"","image-keyboard-response","40","53665","0.0-56.0","3FE7TXL1LJ96YUPOU02BNM98AW6Q2J","A2FB5UQTR3E0NX","3XEIP58NL09JROET00YR4SOXG94ZLV","","662.6999999880791","img/land4.png","74","665","1","0","false","3","1,0.5,0.5,0.5,1,0.5,0.5,0.5,1","",""
"","html-keyboard-response","41","53969","0.0-57.0","3FE7TXL1LJ96YUPOU02BNM98AW6Q2J","A2FB5UQTR3E0NX","3XEIP58NL09JROET00YR4SOXG94ZLV","","null","<img src=""img/land4.png"" style=""width:200px;border:14px solid red;"">","null","","","","","","","",""
"","image-keyboard-response","42","54113","0.0-59.0","3FE7TXL1LJ96YUPOU02BNM98AW6Q2J","A2FB5UQTR3E0NX","3XEIP58NL09JROET00YR4SOXG94ZLV","","141.80000001192093","img/land2.png","75","143.69999998807907","2","0","false","1","1,0.5,0.5,0.5,1,0.5,0.5,0.5,1","",""
"","html-keyboard-response","43","54416","0.0-60.0","3FE7TXL1LJ96YUPOU02BNM98AW6Q2J","A2FB5UQTR3E0NX","3XEIP58NL09JROET00YR4SOXG94ZLV","","null","<img src=""img/land2.png"" style=""width:200px;border:14px solid red;"">","null","","","","","","","",""
"","image-keyboard-response","44","54736","0.0-62.0","3FE7TXL1LJ96YUPOU02BNM98AW6Q2J","A2FB5UQTR3E0NX","3XEIP58NL09JROET00YR4SOXG94ZLV","","317","img/land2.png","76","319.60000002384186","3","0","false","1","1,0.5,0.5,0.5,1,0.5,0.5,0.5,1","",""
"","html-keyboard-response","45","55042","0.0-63.0","3FE7TXL1LJ96YUPOU02BNM98AW6Q2J","A2FB5UQTR3E0NX","3XEIP58NL09JROET00YR4SOXG94ZLV","","null","<img src=""img/land2.png"" style=""width:200px;border:14px solid red;"">","null","","","","","","","",""
"","image-keyboard-response","46","55730","0.0-65.0","3FE7TXL1LJ96YUPOU02BNM98AW6Q2J","A2FB5UQTR3E0NX","3XEIP58NL09JROET00YR4SOXG94ZLV","","685.2000000476837","img/land5.png","76","687.1999999880791","3","1","false","2","1,0.5,0.5,0.5,1,0.5,0.5,0.5,1","",""
"","html-keyboard-response","47","56033","0.0-66.0","3FE7TXL1LJ96YUPOU02BNM98AW6Q2J","A2FB5UQTR3E0NX","3XEIP58NL09JROET00YR4SOXG94ZLV","","null","<img src=""img/land5.png"" style=""width:200px; border:14px solid green;"">","null","","","","","","","",""
"","image-keyboard-response","48","56848","0.0-68.0","3FE7TXL1LJ96YUPOU02BNM98AW6Q2J","A2FB5UQTR3E0NX","3XEIP58NL09JROET00YR4SOXG94ZLV","","812","img/land2.png","75","814.0999999642372","2","1","false","1","1,0.5,0.5,0.5,1,0.5,0.5,0.5,1","",""
"","html-keyboard-response","49","57152","0.0-69.0","3FE7TXL1LJ96YUPOU02BNM98AW6Q2J","A2FB5UQTR3E0NX","3XEIP58NL09JROET00YR4SOXG94ZLV","","null","<img src=""img/land2.png"" style=""width:200px; border:14px solid green;"">","null","","","","","","","",""
"","image-keyboard-response","50","57518","0.0-71.0","3FE7TXL1LJ96YUPOU02BNM98AW6Q2J","A2FB5UQTR3E0NX","3XEIP58NL09JROET00YR4SOXG94ZLV","","364","img/land2.png","75","366","2","0","false","1","1,0.5,0.5,0.5,1,0.5,0.5,0.5,1","",""
"","html-keyboard-response","51","57822","0.0-72.0","3FE7TXL1LJ96YUPOU02BNM98AW6Q2J","A2FB5UQTR3E0NX","3XEIP58NL09JROET00YR4SOXG94ZLV","","null","<img src=""img/land2.png"" style=""width:200px;border:14px solid red;"">","null","","","","","","","",""
"","image-keyboard-response","52","58581","0.0-74.0","3FE7TXL1LJ96YUPOU02BNM98AW6Q2J","A2FB5UQTR3E0NX","3XEIP58NL09JROET00YR4SOXG94ZLV","","756.8000000119209","img/land5.png","74","758.8000000119209","1","1","false","2","1,0.5,0.5,0.5,1,0.5,0.5,0.5,1","",""
"","html-keyboard-response","53","58885","0.0-75.0","3FE7TXL1LJ96YUPOU02BNM98AW6Q2J","A2FB5UQTR3E0NX","3XEIP58NL09JROET00YR4SOXG94ZLV","","null","<img src=""img/land5.png"" style=""width:200px; border:14px solid green;"">","null","","","","","","","",""
"","image-keyboard-response","54","59613","0.0-77.0","3FE7TXL1LJ96YUPOU02BNM98AW6Q2J","A2FB5UQTR3E0NX","3XEIP58NL09JROET00YR4SOXG94ZLV","","725.3000000119209","img/land4.png","76","727.2999999523163","3","1","false","3","1,0.5,0.5,0.5,1,0.5,0.5,0.5,1","",""
"","html-keyboard-response","55","59917","0.0-78.0","3FE7TXL1LJ96YUPOU02BNM98AW6Q2J","A2FB5UQTR3E0NX","3XEIP58NL09JROET00YR4SOXG94ZLV","","null","<img src=""img/land4.png"" style=""width:200px; border:14px solid green;"">","null","","","","","","","",""
"","image-keyboard-response","56","60733","0.0-80.0","3FE7TXL1LJ96YUPOU02BNM98AW6Q2J","A2FB5UQTR3E0NX","3XEIP58NL09JROET00YR4SOXG94ZLV","","813.5","img/land5.png","75","815.7999999523163","2","1","false","2","1,0.5,0.5,0.5,1,0.5,0.5,0.5,1","",""
"","html-keyboard-response","57","61036","0.0-81.0","3FE7TXL1LJ96YUPOU02BNM98AW6Q2J","A2FB5UQTR3E0NX","3XEIP58NL09JROET00YR4SOXG94ZLV","","null","<img src=""img/land5.png"" style=""width:200px; border:14px solid green;"">","null","","","","","","","",""
"","image-keyboard-response","58","61738","0.0-83.0","3FE7TXL1LJ96YUPOU02BNM98AW6Q2J","A2FB5UQTR3E0NX","3XEIP58NL09JROET00YR4SOXG94ZLV","","698.6999999880791","img/land4.png","76","700.9000000357628","3","1","false","3","1,0.5,0.5,0.5,1,0.5,0.5,0.5,1","",""
"","html-keyboard-response","59","62041","0.0-84.0","3FE7TXL1LJ96YUPOU02BNM98AW6Q2J","A2FB5UQTR3E0NX","3XEIP58NL09JROET00YR4SOXG94ZLV","","null","<img src=""img/land4.png"" style=""width:200px; border:14px solid green;"">","null","","","","","","","",""
"","image-keyboard-response","60","62731","0.0-86.0","3FE7TXL1LJ96YUPOU02BNM98AW6Q2J","A2FB5UQTR3E0NX","3XEIP58NL09JROET00YR4SOXG94ZLV","","687","img/land2.png","74","689.5999999642372","1","1","false","1","1,0.5,0.5,0.5,1,0.5,0.5,0.5,1","",""
"","html-keyboard-response","61","63037","0.0-87.0","3FE7TXL1LJ96YUPOU02BNM98AW6Q2J","A2FB5UQTR3E0NX","3XEIP58NL09JROET00YR4SOXG94ZLV","","null","<img src=""img/land2.png"" style=""width:200px; border:14px solid green;"">","null","","","","","","","",""
"","image-keyboard-response","62","63691","0.0-89.0","3FE7TXL1LJ96YUPOU02BNM98AW6Q2J","A2FB5UQTR3E0NX","3XEIP58NL09JROET00YR4SOXG94ZLV","","650","img/land4.png","75","652.6000000238419","2","1","false","3","1,0.5,0.5,0.5,1,0.5,0.5,0.5,1","",""
"","html-keyboard-response","63","63995","0.0-90.0","3FE7TXL1LJ96YUPOU02BNM98AW6Q2J","A2FB5UQTR3E0NX","3XEIP58NL09JROET00YR4SOXG94ZLV","","null","<img src=""img/land4.png"" style=""width:200px; border:14px solid green;"">","null","","","","","","","",""
"","image-keyboard-response","64","64661","0.0-92.0","3FE7TXL1LJ96YUPOU02BNM98AW6Q2J","A2FB5UQTR3E0NX","3XEIP58NL09JROET00YR4SOXG94ZLV","","663.5","img/land2.png","74","665.7000000476837","1","1","false","1","1,0.5,0.5,0.5,1,0.5,0.5,0.5,1","",""
"","html-keyboard-response","65","64966","0.0-93.0","3FE7TXL1LJ96YUPOU02BNM98AW6Q2J","A2FB5UQTR3E0NX","3XEIP58NL09JROET00YR4SOXG94ZLV","","null","<img src=""img/land2.png"" style=""width:200px; border:14px solid green;"">","null","","","","","","","",""
"","image-keyboard-response","66","65684","0.0-95.0","3FE7TXL1LJ96YUPOU02BNM98AW6Q2J","A2FB5UQTR3E0NX","3XEIP58NL09JROET00YR4SOXG94ZLV","","715.1000000238419","img/land5.png","75","717.1000000238419","2","1","false","2","1,0.5,0.5,0.5,1,0.5,0.5,0.5,1","",""
"","html-keyboard-response","67","65988","0.0-96.0","3FE7TXL1LJ96YUPOU02BNM98AW6Q2J","A2FB5UQTR3E0NX","3XEIP58NL09JROET00YR4SOXG94ZLV","","null","<img src=""img/land5.png"" style=""width:200px; border:14px solid green;"">","null","","","","","","","",""
"","image-keyboard-response","68","66615","0.0-98.0","3FE7TXL1LJ96YUPOU02BNM98AW6Q2J","A2FB5UQTR3E0NX","3XEIP58NL09JROET00YR4SOXG94ZLV","","624.7999999523163","img/land2.png","74","627.1000000238419","1","1","false","1","1,0.5,0.5,0.5,1,0.5,0.5,0.5,1","",""
"","html-keyboard-response","69","66919","0.0-99.0","3FE7TXL1LJ96YUPOU02BNM98AW6Q2J","A2FB5UQTR3E0NX","3XEIP58NL09JROET00YR4SOXG94ZLV","","null","<img src=""img/land2.png"" style=""width:200px; border:14px solid green;"">","null","","","","","","","",""
"","image-keyboard-response","70","67430","0.0-101.0","3FE7TXL1LJ96YUPOU02BNM98AW6Q2J","A2FB5UQTR3E0NX","3XEIP58NL09JROET00YR4SOXG94ZLV","","508.10000002384186","img/land5.png","75","510.5999999642372","2","1","false","2","1,0.5,0.5,0.5,1,0.5,0.5,0.5,1","",""
"","html-keyboard-response","71","67734","0.0-102.0","3FE7TXL1LJ96YUPOU02BNM98AW6Q2J","A2FB5UQTR3E0NX","3XEIP58NL09JROET00YR4SOXG94ZLV","","null","<img src=""img/land5.png"" style=""width:200px; border:14px solid green;"">","null","","","","","","","",""
"","image-keyboard-response","72","68222","0.0-104.0","3FE7TXL1LJ96YUPOU02BNM98AW6Q2J","A2FB5UQTR3E0NX","3XEIP58NL09JROET00YR4SOXG94ZLV","","485.80000001192093","img/land5.png","75","487.80000001192093","2","1","false","2","1,0.5,0.5,0.5,1,0.5,0.5,0.5,1","",""
"","html-keyboard-response","73","68526","0.0-105.0","3FE7TXL1LJ96YUPOU02BNM98AW6Q2J","A2FB5UQTR3E0NX","3XEIP58NL09JROET00YR4SOXG94ZLV","","null","<img src=""img/land5.png"" style=""width:200px; border:14px solid green;"">","null","","","","","","","",""
"","image-keyboard-response","74","68964","0.0-107.0","3FE7TXL1LJ96YUPOU02BNM98AW6Q2J","A2FB5UQTR3E0NX","3XEIP58NL09JROET00YR4SOXG94ZLV","","436.30000001192093","img/land5.png","75","438.30000001192093","2","1","false","2","1,0.5,0.5,0.5,1,0.5,0.5,0.5,1","",""
"","html-keyboard-response","75","69268","0.0-108.0","3FE7TXL1LJ96YUPOU02BNM98AW6Q2J","A2FB5UQTR3E0NX","3XEIP58NL09JROET00YR4SOXG94ZLV","","null","<img src=""img/land5.png"" style=""width:200px; border:14px solid green;"">","null","","","","","","","",""
"","image-keyboard-response","76","69871","0.0-110.0","3FE7TXL1LJ96YUPOU02BNM98AW6Q2J","A2FB5UQTR3E0NX","3XEIP58NL09JROET00YR4SOXG94ZLV","","599.8999999761581","img/land2.png","74","602.7000000476837","1","1","false","1","1,0.5,0.5,0.5,1,0.5,0.5,0.5,1","",""
"","html-keyboard-response","77","70189","0.0-111.0","3FE7TXL1LJ96YUPOU02BNM98AW6Q2J","A2FB5UQTR3E0NX","3XEIP58NL09JROET00YR4SOXG94ZLV","","null","<img src=""img/land2.png"" style=""width:200px; border:14px solid green;"">","null","","","","","","","",""
"","image-keyboard-response","78","70812","0.0-113.0","3FE7TXL1LJ96YUPOU02BNM98AW6Q2J","A2FB5UQTR3E0NX","3XEIP58NL09JROET00YR4SOXG94ZLV","","620.4000000357628","img/land4.png","76","622.6999999880791","3","1","false","3","1,0.5,0.5,0.5,1,0.5,0.5,0.5,1","",""
"","html-keyboard-response","79","71131","0.0-114.0","3FE7TXL1LJ96YUPOU02BNM98AW6Q2J","A2FB5UQTR3E0NX","3XEIP58NL09JROET00YR4SOXG94ZLV","","null","<img src=""img/land4.png"" style=""width:200px; border:14px solid green;"">","null","","","","","","","",""
"","image-keyboard-response","80","72024","0.0-116.0","3FE7TXL1LJ96YUPOU02BNM98AW6Q2J","A2FB5UQTR3E0NX","3XEIP58NL09JROET00YR4SOXG94ZLV","","888.3999999761581","img/land2.png","74","891.6999999880791","1","1","false","1","1,0.5,0.5,0.5,1,0.5,0.5,0.5,1","",""
"","html-keyboard-response","81","72327","0.0-117.0","3FE7TXL1LJ96YUPOU02BNM98AW6Q2J","A2FB5UQTR3E0NX","3XEIP58NL09JROET00YR4SOXG94ZLV","","null","<img src=""img/land2.png"" style=""width:200px; border:14px solid green;"">","null","","","","","","","",""
"","image-keyboard-response","82","73220","0.0-119.0","3FE7TXL1LJ96YUPOU02BNM98AW6Q2J","A2FB5UQTR3E0NX","3XEIP58NL09JROET00YR4SOXG94ZLV","","889.5","img/land4.png","76","892.3000000119209","3","1","false","3","1,0.5,0.5,0.5,1,0.5,0.5,0.5,1","",""
"","html-keyboard-response","83","73526","0.0-120.0","3FE7TXL1LJ96YUPOU02BNM98AW6Q2J","A2FB5UQTR3E0NX","3XEIP58NL09JROET00YR4SOXG94ZLV","","null","<img src=""img/land4.png"" style=""width:200px; border:14px solid green;"">","null","","","","","","","",""
"","image-keyboard-response","84","74179","0.0-122.0","3FE7TXL1LJ96YUPOU02BNM98AW6Q2J","A2FB5UQTR3E0NX","3XEIP58NL09JROET00YR4SOXG94ZLV","","648.6999999880791","img/land5.png","75","651.6999999880791","2","1","false","2","1,0.5,0.5,0.5,1,0.5,0.5,0.5,1","",""
"","html-keyboard-response","85","74481","0.0-123.0","3FE7TXL1LJ96YUPOU02BNM98AW6Q2J","A2FB5UQTR3E0NX","3XEIP58NL09JROET00YR4SOXG94ZLV","","null","<img src=""img/land5.png"" style=""width:200px; border:14px solid green;"">","null","","","","","","","",""
"","image-keyboard-response","86","75063","0.0-125.0","3FE7TXL1LJ96YUPOU02BNM98AW6Q2J","A2FB5UQTR3E0NX","3XEIP58NL09JROET00YR4SOXG94ZLV","","578.3000000119209","img/land2.png","74","580.5999999642372","1","1","false","1","1,0.5,0.5,0.5,1,0.5,0.5,0.5,1","",""
"","html-keyboard-response","87","75367","0.0-126.0","3FE7TXL1LJ96YUPOU02BNM98AW6Q2J","A2FB5UQTR3E0NX","3XEIP58NL09JROET00YR4SOXG94ZLV","","null","<img src=""img/land2.png"" style=""width:200px; border:14px solid green;"">","null","","","","","","","",""
"","image-keyboard-response","88","75821","0.0-128.0","3FE7TXL1LJ96YUPOU02BNM98AW6Q2J","A2FB5UQTR3E0NX","3XEIP58NL09JROET00YR4SOXG94ZLV","","451.19999998807907","img/land2.png","74","453.30000001192093","1","1","false","1","1,0.5,0.5,0.5,1,0.5,0.5,0.5,1","",""
"","html-keyboard-response","89","76126","0.0-129.0","3FE7TXL1LJ96YUPOU02BNM98AW6Q2J","A2FB5UQTR3E0NX","3XEIP58NL09JROET00YR4SOXG94ZLV","","null","<img src=""img/land2.png"" style=""width:200px; border:14px solid green;"">","null","","","","","","","",""
"","image-keyboard-response","90","76745","0.0-131.0","3FE7TXL1LJ96YUPOU02BNM98AW6Q2J","A2FB5UQTR3E0NX","3XEIP58NL09JROET00YR4SOXG94ZLV","","616.5","img/land4.png","76","618.4000000357628","3","1","false","3","1,0.5,0.5,0.5,1,0.5,0.5,0.5,1","",""
"","html-keyboard-response","91","77048","0.0-132.0","3FE7TXL1LJ96YUPOU02BNM98AW6Q2J","A2FB5UQTR3E0NX","3XEIP58NL09JROET00YR4SOXG94ZLV","","null","<img src=""img/land4.png"" style=""width:200px; border:14px solid green;"">","null","","","","","","","",""
"","image-keyboard-response","92","77502","0.0-134.0","3FE7TXL1LJ96YUPOU02BNM98AW6Q2J","A2FB5UQTR3E0NX","3XEIP58NL09JROET00YR4SOXG94ZLV","","450.5","img/land4.png","76","453","3","1","false","3","1,0.5,0.5,0.5,1,0.5,0.5,0.5,1","",""
"","html-keyboard-response","93","77806","0.0-135.0","3FE7TXL1LJ96YUPOU02BNM98AW6Q2J","A2FB5UQTR3E0NX","3XEIP58NL09JROET00YR4SOXG94ZLV","","null","<img src=""img/land4.png"" style=""width:200px; border:14px solid green;"">","null","","","","","","","",""
"","image-keyboard-response","94","78761","0.0-137.0","3FE7TXL1LJ96YUPOU02BNM98AW6Q2J","A2FB5UQTR3E0NX","3XEIP58NL09JROET00YR4SOXG94ZLV","","953","img/land2.png","74","955","1","1","false","1","1,0.5,0.5,0.5,1,0.5,0.5,0.5,1","",""
"","html-keyboard-response","95","79066","0.0-138.0","3FE7TXL1LJ96YUPOU02BNM98AW6Q2J","A2FB5UQTR3E0NX","3XEIP58NL09JROET00YR4SOXG94ZLV","","null","<img src=""img/land2.png"" style=""width:200px; border:14px solid green;"">","null","","","","","","","",""
"","image-keyboard-response","96","79532","0.0-140.0","3FE7TXL1LJ96YUPOU02BNM98AW6Q2J","A2FB5UQTR3E0NX","3XEIP58NL09JROET00YR4SOXG94ZLV","","463.89999997615814","img/land5.png","75","466.0999999642372","2","1","false","2","1,0.5,0.5,0.5,1,0.5,0.5,0.5,1","",""
"","html-keyboard-response","97","79836","0.0-141.0","3FE7TXL1LJ96YUPOU02BNM98AW6Q2J","A2FB5UQTR3E0NX","3XEIP58NL09JROET00YR4SOXG94ZLV","","null","<img src=""img/land5.png"" style=""width:200px; border:14px solid green;"">","null","","","","","","","",""
"","image-keyboard-response","98","80241","0.0-143.0","3FE7TXL1LJ96YUPOU02BNM98AW6Q2J","A2FB5UQTR3E0NX","3XEIP58NL09JROET00YR4SOXG94ZLV","","401.69999998807907","img/land5.png","75","404.10000002384186","2","1","false","2","1,0.5,0.5,0.5,1,0.5,0.5,0.5,1","",""
"","html-keyboard-response","99","80545","0.0-144.0","3FE7TXL1LJ96YUPOU02BNM98AW6Q2J","A2FB5UQTR3E0NX","3XEIP58NL09JROET00YR4SOXG94ZLV","","null","<img src=""img/land5.png"" style=""width:200px; border:14px solid green;"">","null","","","","","","","",""
"","image-keyboard-response","100","81071","0.0-146.0","3FE7TXL1LJ96YUPOU02BNM98AW6Q2J","A2FB5UQTR3E0NX","3XEIP58NL09JROET00YR4SOXG94ZLV","","523","img/land4.png","74","525.9000000357628","1","1","false","3","1,0.5,0.5,0.5,1,0.5,0.5,0.5,1","",""
"","html-keyboard-response","101","81375","0.0-147.0","3FE7TXL1LJ96YUPOU02BNM98AW6Q2J","A2FB5UQTR3E0NX","3XEIP58NL09JROET00YR4SOXG94ZLV","","null","<img src=""img/land4.png"" style=""width:200px; border:14px solid green;"">","null","","","","","","","",""
"","image-keyboard-response","102","81953","0.0-149.0","3FE7TXL1LJ96YUPOU02BNM98AW6Q2J","A2FB5UQTR3E0NX","3XEIP58NL09JROET00YR4SOXG94ZLV","","574.8999999761581","img/land5.png","75","577","2","1","false","2","1,0.5,0.5,0.5,1,0.5,0.5,0.5,1","",""
"","html-keyboard-response","103","82256","0.0-150.0","3FE7TXL1LJ96YUPOU02BNM98AW6Q2J","A2FB5UQTR3E0NX","3XEIP58NL09JROET00YR4SOXG94ZLV","","null","<img src=""img/land5.png"" style=""width:200px; border:14px solid green;"">","null","","","","","","","",""
"","image-keyboard-response","104","82993","0.0-152.0","3FE7TXL1LJ96YUPOU02BNM98AW6Q2J","A2FB5UQTR3E0NX","3XEIP58NL09JROET00YR4SOXG94ZLV","","734","img/land4.png","76","736.3000000119209","3","1","false","3","1,0.5,0.5,0.5,1,0.5,0.5,0.5,1","",""
"","html-keyboard-response","105","83297","0.0-153.0","3FE7TXL1LJ96YUPOU02BNM98AW6Q2J","A2FB5UQTR3E0NX","3XEIP58NL09JROET00YR4SOXG94ZLV","","null","<img src=""img/land4.png"" style=""width:200px; border:14px solid green;"">","null","","","","","","","",""
"","image-keyboard-response","106","83871","0.0-155.0","3FE7TXL1LJ96YUPOU02BNM98AW6Q2J","A2FB5UQTR3E0NX","3XEIP58NL09JROET00YR4SOXG94ZLV","","571.1000000238419","img/land2.png","74","573.5999999642372","1","1","false","1","1,0.5,0.5,0.5,1,0.5,0.5,0.5,1","",""
"","html-keyboard-response","107","84187","0.0-156.0","3FE7TXL1LJ96YUPOU02BNM98AW6Q2J","A2FB5UQTR3E0NX","3XEIP58NL09JROET00YR4SOXG94ZLV","","null","<img src=""img/land2.png"" style=""width:200px; border:14px solid green;"">","null","","","","","","","",""
"","image-keyboard-response","108","84855","0.0-158.0","3FE7TXL1LJ96YUPOU02BNM98AW6Q2J","A2FB5UQTR3E0NX","3XEIP58NL09JROET00YR4SOXG94ZLV","","664.7999999523163","img/land4.png","76","667.1000000238419","3","1","false","3","1,0.5,0.5,0.5,1,0.5,0.5,0.5,1","",""
"","html-keyboard-response","109","85159","0.0-159.0","3FE7TXL1LJ96YUPOU02BNM98AW6Q2J","A2FB5UQTR3E0NX","3XEIP58NL09JROET00YR4SOXG94ZLV","","null","<img src=""img/land4.png"" style=""width:200px; border:14px solid green;"">","null","","","","","","","",""
"","image-keyboard-response","110","85851","0.0-161.0","3FE7TXL1LJ96YUPOU02BNM98AW6Q2J","A2FB5UQTR3E0NX","3XEIP58NL09JROET00YR4SOXG94ZLV","","689.3999999761581","img/land2.png","74","692","1","1","false","1","1,0.5,0.5,0.5,1,0.5,0.5,0.5,1","",""
"","html-keyboard-response","111","86155","0.0-162.0","3FE7TXL1LJ96YUPOU02BNM98AW6Q2J","A2FB5UQTR3E0NX","3XEIP58NL09JROET00YR4SOXG94ZLV","","null","<img src=""img/land2.png"" style=""width:200px; border:14px solid green;"">","null","","","","","","","",""
"","image-keyboard-response","112","86634","0.0-164.0","3FE7TXL1LJ96YUPOU02BNM98AW6Q2J","A2FB5UQTR3E0NX","3XEIP58NL09JROET00YR4SOXG94ZLV","","475.60000002384186","img/land2.png","74","478.30000001192093","1","1","false","1","1,0.5,0.5,0.5,1,0.5,0.5,0.5,1","",""
"","html-keyboard-response","113","86938","0.0-165.0","3FE7TXL1LJ96YUPOU02BNM98AW6Q2J","A2FB5UQTR3E0NX","3XEIP58NL09JROET00YR4SOXG94ZLV","","null","<img src=""img/land2.png"" style=""width:200px; border:14px solid green;"">","null","","","","","","","",""
"","image-keyboard-response","114","87312","0.0-167.0","3FE7TXL1LJ96YUPOU02BNM98AW6Q2J","A2FB5UQTR3E0NX","3XEIP58NL09JROET00YR4SOXG94ZLV","","371","img/land2.png","74","374.10000002384186","1","1","false","1","1,0.5,0.5,0.5,1,0.5,0.5,0.5,1","",""
"","html-keyboard-response","115","87617","0.0-168.0","3FE7TXL1LJ96YUPOU02BNM98AW6Q2J","A2FB5UQTR3E0NX","3XEIP58NL09JROET00YR4SOXG94ZLV","","null","<img src=""img/land2.png"" style=""width:200px; border:14px solid green;"">","null","","","","","","","",""
"","image-keyboard-response","116","88315","0.0-170.0","3FE7TXL1LJ96YUPOU02BNM98AW6Q2J","A2FB5UQTR3E0NX","3XEIP58NL09JROET00YR4SOXG94ZLV","","695.0999999642372","img/land5.png","75","697.3000000119209","2","1","false","2","1,0.5,0.5,0.5,1,0.5,0.5,0.5,1","",""
"","html-keyboard-response","117","88619","0.0-171.0","3FE7TXL1LJ96YUPOU02BNM98AW6Q2J","A2FB5UQTR3E0NX","3XEIP58NL09JROET00YR4SOXG94ZLV","","null","<img src=""img/land5.png"" style=""width:200px; border:14px solid green;"">","null","","","","","","","",""
"","image-keyboard-response","118","89195","0.0-173.0","3FE7TXL1LJ96YUPOU02BNM98AW6Q2J","A2FB5UQTR3E0NX","3XEIP58NL09JROET00YR4SOXG94ZLV","","572.6000000238419","img/land4.png","76","575","3","1","false","3","1,0.5,0.5,0.5,1,0.5,0.5,0.5,1","",""
"","html-keyboard-response","119","89498","0.0-174.0","3FE7TXL1LJ96YUPOU02BNM98AW6Q2J","A2FB5UQTR3E0NX","3XEIP58NL09JROET00YR4SOXG94ZLV","","null","<img src=""img/land4.png"" style=""width:200px; border:14px solid green;"">","null","","","","","","","",""
"","image-keyboard-response","120","90128","0.0-176.0","3FE7TXL1LJ96YUPOU02BNM98AW6Q2J","A2FB5UQTR3E0NX","3XEIP58NL09JROET00YR4SOXG94ZLV","","626.6000000238419","img/land5.png","75","628.8999999761581","2","1","false","2","1,0.5,0.5,0.5,1,0.5,0.5,0.5,1","",""
"","html-keyboard-response","121","90432","0.0-177.0","3FE7TXL1LJ96YUPOU02BNM98AW6Q2J","A2FB5UQTR3E0NX","3XEIP58NL09JROET00YR4SOXG94ZLV","","null","<img src=""img/land5.png"" style=""width:200px; border:14px solid green;"">","null","","","","","","","",""
"","image-keyboard-response","122","90857","0.0-179.0","3FE7TXL1LJ96YUPOU02BNM98AW6Q2J","A2FB5UQTR3E0NX","3XEIP58NL09JROET00YR4SOXG94ZLV","","422.69999998807907","img/land4.png","74","424.7999999523163","1","1","false","3","1,0.5,0.5,0.5,1,0.5,0.5,0.5,1","",""
"","html-keyboard-response","123","91161","0.0-180.0","3FE7TXL1LJ96YUPOU02BNM98AW6Q2J","A2FB5UQTR3E0NX","3XEIP58NL09JROET00YR4SOXG94ZLV","","null","<img src=""img/land4.png"" style=""width:200px; border:14px solid green;"">","null","","","","","","","",""
"","image-keyboard-response","124","91742","0.0-182.0","3FE7TXL1LJ96YUPOU02BNM98AW6Q2J","A2FB5UQTR3E0NX","3XEIP58NL09JROET00YR4SOXG94ZLV","","578.5","img/land2.png","76","580.6000000238419","3","1","false","1","1,0.5,0.5,0.5,1,0.5,0.5,0.5,1","",""
"","html-keyboard-response","125","92046","0.0-183.0","3FE7TXL1LJ96YUPOU02BNM98AW6Q2J","A2FB5UQTR3E0NX","3XEIP58NL09JROET00YR4SOXG94ZLV","","null","<img src=""img/land2.png"" style=""width:200px; border:14px solid green;"">","null","","","","","","","",""
"","image-keyboard-response","126","92577","0.0-185.0","3FE7TXL1LJ96YUPOU02BNM98AW6Q2J","A2FB5UQTR3E0NX","3XEIP58NL09JROET00YR4SOXG94ZLV","","527.6999999880791","img/land5.png","75","529.6999999880791","2","1","false","2","1,0.5,0.5,0.5,1,0.5,0.5,0.5,1","",""
"","html-keyboard-response","127","92881","0.0-186.0","3FE7TXL1LJ96YUPOU02BNM98AW6Q2J","A2FB5UQTR3E0NX","3XEIP58NL09JROET00YR4SOXG94ZLV","","null","<img src=""img/land5.png"" style=""width:200px; border:14px solid green;"">","null","","","","","","","",""
"","image-keyboard-response","128","93336","0.0-188.0","3FE7TXL1LJ96YUPOU02BNM98AW6Q2J","A2FB5UQTR3E0NX","3XEIP58NL09JROET00YR4SOXG94ZLV","","452.19999998807907","img/land5.png","75","454.2999999523163","2","1","false","2","1,0.5,0.5,0.5,1,0.5,0.5,0.5,1","",""
"","html-keyboard-response","129","93639","0.0-189.0","3FE7TXL1LJ96YUPOU02BNM98AW6Q2J","A2FB5UQTR3E0NX","3XEIP58NL09JROET00YR4SOXG94ZLV","","null","<img src=""img/land5.png"" style=""width:200px; border:14px solid green;"">","null","","","","","","","",""
"","image-keyboard-response","130","94061","0.0-191.0","3FE7TXL1LJ96YUPOU02BNM98AW6Q2J","A2FB5UQTR3E0NX","3XEIP58NL09JROET00YR4SOXG94ZLV","","418.7999999523163","img/land5.png","75","421","2","1","false","2","1,0.5,0.5,0.5,1,0.5,0.5,0.5,1","",""
"","html-keyboard-response","131","94364","0.0-192.0","3FE7TXL1LJ96YUPOU02BNM98AW6Q2J","A2FB5UQTR3E0NX","3XEIP58NL09JROET00YR4SOXG94ZLV","","null","<img src=""img/land5.png"" style=""width:200px; border:14px solid green;"">","null","","","","","","","",""
"","image-keyboard-response","132","94850","0.0-194.0","3FE7TXL1LJ96YUPOU02BNM98AW6Q2J","A2FB5UQTR3E0NX","3XEIP58NL09JROET00YR4SOXG94ZLV","","482.80000001192093","img/land2.png","74","485.39999997615814","1","1","false","1","1,0.5,0.5,0.5,1,0.5,0.5,0.5,1","",""
"","html-keyboard-response","133","95154","0.0-195.0","3FE7TXL1LJ96YUPOU02BNM98AW6Q2J","A2FB5UQTR3E0NX","3XEIP58NL09JROET00YR4SOXG94ZLV","","null","<img src=""img/land2.png"" style=""width:200px; border:14px solid green;"">","null","","","","","","","",""
"","image-keyboard-response","134","95713","0.0-197.0","3FE7TXL1LJ96YUPOU02BNM98AW6Q2J","A2FB5UQTR3E0NX","3XEIP58NL09JROET00YR4SOXG94ZLV","","555.6999999880791","img/land5.png","75","558.1000000238419","2","1","false","2","1,0.5,0.5,0.5,1,0.5,0.5,0.5,1","",""
"","html-keyboard-response","135","96017","0.0-198.0","3FE7TXL1LJ96YUPOU02BNM98AW6Q2J","A2FB5UQTR3E0NX","3XEIP58NL09JROET00YR4SOXG94ZLV","","null","<img src=""img/land5.png"" style=""width:200px; border:14px solid green;"">","null","","","","","","","",""
"","image-keyboard-response","136","96710","0.0-200.0","3FE7TXL1LJ96YUPOU02BNM98AW6Q2J","A2FB5UQTR3E0NX","3XEIP58NL09JROET00YR4SOXG94ZLV","","690","img/land2.png","76","692.2999999523163","3","1","false","1","1,0.5,0.5,0.5,1,0.5,0.5,0.5,1","",""
"","html-keyboard-response","137","97014","0.0-201.0","3FE7TXL1LJ96YUPOU02BNM98AW6Q2J","A2FB5UQTR3E0NX","3XEIP58NL09JROET00YR4SOXG94ZLV","","null","<img src=""img/land2.png"" style=""width:200px; border:14px solid green;"">","null","","","","","","","",""
"","image-keyboard-response","138","97450","0.0-203.0","3FE7TXL1LJ96YUPOU02BNM98AW6Q2J","A2FB5UQTR3E0NX","3XEIP58NL09JROET00YR4SOXG94ZLV","","433.2999999523163","img/land4.png","74","435.4000000357628","1","0","false","3","1,0.5,0.5,0.5,1,0.5,0.5,0.5,1","",""
"","html-keyboard-response","139","97753","0.0-204.0","3FE7TXL1LJ96YUPOU02BNM98AW6Q2J","A2FB5UQTR3E0NX","3XEIP58NL09JROET00YR4SOXG94ZLV","","null","<img src=""img/land4.png"" style=""width:200px;border:14px solid red;"">","null","","","","","","","",""
"","image-keyboard-response","140","98252","0.0-206.0","3FE7TXL1LJ96YUPOU02BNM98AW6Q2J","A2FB5UQTR3E0NX","3XEIP58NL09JROET00YR4SOXG94ZLV","","496.7000000476837","img/land4.png","76","498.69999998807907","3","1","false","3","1,0.5,0.5,0.5,1,0.5,0.5,0.5,1","",""
"","html-keyboard-response","141","98555","0.0-207.0","3FE7TXL1LJ96YUPOU02BNM98AW6Q2J","A2FB5UQTR3E0NX","3XEIP58NL09JROET00YR4SOXG94ZLV","","null","<img src=""img/land4.png"" style=""width:200px; border:14px solid green;"">","null","","","","","","","",""
"","image-keyboard-response","142","99139","0.0-209.0","3FE7TXL1LJ96YUPOU02BNM98AW6Q2J","A2FB5UQTR3E0NX","3XEIP58NL09JROET00YR4SOXG94ZLV","","582.1000000238419","img/land2.png","74","583.8000000119209","1","1","false","1","1,0.5,0.5,0.5,1,0.5,0.5,0.5,1","",""
"","html-keyboard-response","143","99444","0.0-210.0","3FE7TXL1LJ96YUPOU02BNM98AW6Q2J","A2FB5UQTR3E0NX","3XEIP58NL09JROET00YR4SOXG94ZLV","","null","<img src=""img/land2.png"" style=""width:200px; border:14px solid green;"">","null","","","","","","","",""
"","image-keyboard-response","144","99872","0.0-212.0","3FE7TXL1LJ96YUPOU02BNM98AW6Q2J","A2FB5UQTR3E0NX","3XEIP58NL09JROET00YR4SOXG94ZLV","","422.5","img/land5.png","75","426.2999999523163","2","1","false","2","1,0.5,0.5,0.5,1,0.5,0.5,0.5,1","",""
"","html-keyboard-response","145","100176","0.0-213.0","3FE7TXL1LJ96YUPOU02BNM98AW6Q2J","A2FB5UQTR3E0NX","3XEIP58NL09JROET00YR4SOXG94ZLV","","null","<img src=""img/land5.png"" style=""width:200px; border:14px solid green;"">","null","","","","","","","",""
"","image-keyboard-response","146","100565","0.0-215.0","3FE7TXL1LJ96YUPOU02BNM98AW6Q2J","A2FB5UQTR3E0NX","3XEIP58NL09JROET00YR4SOXG94ZLV","","385.7999999523163","img/land5.png","75","388.2999999523163","2","1","false","2","1,0.5,0.5,0.5,1,0.5,0.5,0.5,1","",""
"","html-keyboard-response","147","100869","0.0-216.0","3FE7TXL1LJ96YUPOU02BNM98AW6Q2J","A2FB5UQTR3E0NX","3XEIP58NL09JROET00YR4SOXG94ZLV","","null","<img src=""img/land5.png"" style=""width:200px; border:14px solid green;"">","null","","","","","","","",""
"","image-keyboard-response","148","101276","0.0-218.0","3FE7TXL1LJ96YUPOU02BNM98AW6Q2J","A2FB5UQTR3E0NX","3XEIP58NL09JROET00YR4SOXG94ZLV","","403.19999998807907","img/land5.png","75","405.7999999523163","2","1","false","2","1,0.5,0.5,0.5,1,0.5,0.5,0.5,1","",""
"","html-keyboard-response","149","101581","0.0-219.0","3FE7TXL1LJ96YUPOU02BNM98AW6Q2J","A2FB5UQTR3E0NX","3XEIP58NL09JROET00YR4SOXG94ZLV","","null","<img src=""img/land5.png"" style=""width:200px; border:14px solid green;"">","null","","","","","","","",""
"","image-keyboard-response","150","102142","0.0-221.0","3FE7TXL1LJ96YUPOU02BNM98AW6Q2J","A2FB5UQTR3E0NX","3XEIP58NL09JROET00YR4SOXG94ZLV","","558.4000000357628","img/land4.png","76","560.8000000119209","3","1","false","3","1,0.5,0.5,0.5,1,0.5,0.5,0.5,1","",""
"","html-keyboard-response","151","102446","0.0-222.0","3FE7TXL1LJ96YUPOU02BNM98AW6Q2J","A2FB5UQTR3E0NX","3XEIP58NL09JROET00YR4SOXG94ZLV","","null","<img src=""img/land4.png"" style=""width:200px; border:14px solid green;"">","null","","","","","","","",""
"","image-keyboard-response","152","102858","0.0-224.0","3FE7TXL1LJ96YUPOU02BNM98AW6Q2J","A2FB5UQTR3E0NX","3XEIP58NL09JROET00YR4SOXG94ZLV","","407.4000000357628","img/land2.png","74","410.2000000476837","1","1","false","1","1,0.5,0.5,0.5,1,0.5,0.5,0.5,1","",""
"","html-keyboard-response","153","103161","0.0-225.0","3FE7TXL1LJ96YUPOU02BNM98AW6Q2J","A2FB5UQTR3E0NX","3XEIP58NL09JROET00YR4SOXG94ZLV","","null","<img src=""img/land2.png"" style=""width:200px; border:14px solid green;"">","null","","","","","","","",""
"","image-keyboard-response","154","103592","0.0-227.0","3FE7TXL1LJ96YUPOU02BNM98AW6Q2J","A2FB5UQTR3E0NX","3XEIP58NL09JROET00YR4SOXG94ZLV","","428.69999998807907","img/land5.png","75","430.0999999642372","2","1","false","2","1,0.5,0.5,0.5,1,0.5,0.5,0.5,1","",""
"","html-keyboard-response","155","103895","0.0-228.0","3FE7TXL1LJ96YUPOU02BNM98AW6Q2J","A2FB5UQTR3E0NX","3XEIP58NL09JROET00YR4SOXG94ZLV","","null","<img src=""img/land5.png"" style=""width:200px; border:14px solid green;"">","null","","","","","","","",""
"","image-keyboard-response","156","104743","0.0-230.0","3FE7TXL1LJ96YUPOU02BNM98AW6Q2J","A2FB5UQTR3E0NX","3XEIP58NL09JROET00YR4SOXG94ZLV","","845","img/land4.png","76","847.8000000119209","3","1","false","3","1,0.5,0.5,0.5,1,0.5,0.5,0.5,1","",""
"","html-keyboard-response","157","105047","0.0-231.0","3FE7TXL1LJ96YUPOU02BNM98AW6Q2J","A2FB5UQTR3E0NX","3XEIP58NL09JROET00YR4SOXG94ZLV","","null","<img src=""img/land4.png"" style=""width:200px; border:14px solid green;"">","null","","","","","","","",""
"","image-keyboard-response","158","105406","0.0-233.0","3FE7TXL1LJ96YUPOU02BNM98AW6Q2J","A2FB5UQTR3E0NX","3XEIP58NL09JROET00YR4SOXG94ZLV","","356.19999998807907","img/land4.png","76","358.30000001192093","3","1","false","3","1,0.5,0.5,0.5,1,0.5,0.5,0.5,1","",""
"","html-keyboard-response","159","105711","0.0-234.0","3FE7TXL1LJ96YUPOU02BNM98AW6Q2J","A2FB5UQTR3E0NX","3XEIP58NL09JROET00YR4SOXG94ZLV","","null","<img src=""img/land4.png"" style=""width:200px; border:14px solid green;"">","null","","","","","","","",""
"","image-keyboard-response","160","106311","0.0-236.0","3FE7TXL1LJ96YUPOU02BNM98AW6Q2J","A2FB5UQTR3E0NX","3XEIP58NL09JROET00YR4SOXG94ZLV","","596.6999999880791","img/land2.png","74","598.9000000357628","1","1","false","1","1,0.5,0.5,0.5,1,0.5,0.5,0.5,1","",""
"","html-keyboard-response","161","106614","0.0-237.0","3FE7TXL1LJ96YUPOU02BNM98AW6Q2J","A2FB5UQTR3E0NX","3XEIP58NL09JROET00YR4SOXG94ZLV","","null","<img src=""img/land2.png"" style=""width:200px; border:14px solid green;"">","null","","","","","","","",""
"","image-keyboard-response","162","107003","0.0-239.0","3FE7TXL1LJ96YUPOU02BNM98AW6Q2J","A2FB5UQTR3E0NX","3XEIP58NL09JROET00YR4SOXG94ZLV","","385.39999997615814","img/land2.png","74","388","1","1","false","1","1,0.5,0.5,0.5,1,0.5,0.5,0.5,1","",""
"","html-keyboard-response","163","107307","0.0-240.0","3FE7TXL1LJ96YUPOU02BNM98AW6Q2J","A2FB5UQTR3E0NX","3XEIP58NL09JROET00YR4SOXG94ZLV","","null","<img src=""img/land2.png"" style=""width:200px; border:14px solid green;"">","null","","","","","","","",""
"","image-keyboard-response","164","107912","0.0-242.0","3FE7TXL1LJ96YUPOU02BNM98AW6Q2J","A2FB5UQTR3E0NX","3XEIP58NL09JROET00YR4SOXG94ZLV","","602.3000000119209","img/land4.png","76","604.3000000119209","3","1","false","3","1,0.5,0.5,0.5,1,0.5,0.5,0.5,1","",""
"","html-keyboard-response","165","108216","0.0-243.0","3FE7TXL1LJ96YUPOU02BNM98AW6Q2J","A2FB5UQTR3E0NX","3XEIP58NL09JROET00YR4SOXG94ZLV","","null","<img src=""img/land4.png"" style=""width:200px; border:14px solid green;"">","null","","","","","","","",""
"","image-keyboard-response","166","108602","0.0-245.0","3FE7TXL1LJ96YUPOU02BNM98AW6Q2J","A2FB5UQTR3E0NX","3XEIP58NL09JROET00YR4SOXG94ZLV","","383.69999998807907","img/land4.png","76","385.80000001192093","3","1","false","3","1,0.5,0.5,0.5,1,0.5,0.5,0.5,1","",""
"","html-keyboard-response","167","108906","0.0-246.0","3FE7TXL1LJ96YUPOU02BNM98AW6Q2J","A2FB5UQTR3E0NX","3XEIP58NL09JROET00YR4SOXG94ZLV","","null","<img src=""img/land4.png"" style=""width:200px; border:14px solid green;"">","null","","","","","","","",""
"","image-keyboard-response","168","109481","0.0-248.0","3FE7TXL1LJ96YUPOU02BNM98AW6Q2J","A2FB5UQTR3E0NX","3XEIP58NL09JROET00YR4SOXG94ZLV","","573.5","img/land2.png","74","575.6999999880791","1","1","false","1","1,0.5,0.5,0.5,1,0.5,0.5,0.5,1","",""
"","html-keyboard-response","169","109784","0.0-249.0","3FE7TXL1LJ96YUPOU02BNM98AW6Q2J","A2FB5UQTR3E0NX","3XEIP58NL09JROET00YR4SOXG94ZLV","","null","<img src=""img/land2.png"" style=""width:200px; border:14px solid green;"">","null","","","","","","","",""
"","image-keyboard-response","170","110424","0.0-251.0","3FE7TXL1LJ96YUPOU02BNM98AW6Q2J","A2FB5UQTR3E0NX","3XEIP58NL09JROET00YR4SOXG94ZLV","","636.7999999523163","img/land4.png","76","638.8999999761581","3","1","false","3","1,0.5,0.5,0.5,1,0.5,0.5,0.5,1","",""
"","html-keyboard-response","171","110727","0.0-252.0","3FE7TXL1LJ96YUPOU02BNM98AW6Q2J","A2FB5UQTR3E0NX","3XEIP58NL09JROET00YR4SOXG94ZLV","","null","<img src=""img/land4.png"" style=""width:200px; border:14px solid green;"">","null","","","","","","","",""
"","image-keyboard-response","172","111212","0.0-254.0","3FE7TXL1LJ96YUPOU02BNM98AW6Q2J","A2FB5UQTR3E0NX","3XEIP58NL09JROET00YR4SOXG94ZLV","","481.9000000357628","img/land2.png","74","484.5","1","1","false","1","1,0.5,0.5,0.5,1,0.5,0.5,0.5,1","",""
"","html-keyboard-response","173","111516","0.0-255.0","3FE7TXL1LJ96YUPOU02BNM98AW6Q2J","A2FB5UQTR3E0NX","3XEIP58NL09JROET00YR4SOXG94ZLV","","null","<img src=""img/land2.png"" style=""width:200px; border:14px solid green;"">","null","","","","","","","",""
"","image-keyboard-response","174","112074","0.0-257.0","3FE7TXL1LJ96YUPOU02BNM98AW6Q2J","A2FB5UQTR3E0NX","3XEIP58NL09JROET00YR4SOXG94ZLV","","554.1000000238419","img/land4.png","76","556.8000000119209","3","1","false","3","1,0.5,0.5,0.5,1,0.5,0.5,0.5,1","",""
"","html-keyboard-response","175","112377","0.0-258.0","3FE7TXL1LJ96YUPOU02BNM98AW6Q2J","A2FB5UQTR3E0NX","3XEIP58NL09JROET00YR4SOXG94ZLV","","null","<img src=""img/land4.png"" style=""width:200px; border:14px solid green;"">","null","","","","","","","",""
"","image-keyboard-response","176","112848","0.0-260.0","3FE7TXL1LJ96YUPOU02BNM98AW6Q2J","A2FB5UQTR3E0NX","3XEIP58NL09JROET00YR4SOXG94ZLV","","468.60000002384186","img/land4.png","76","470.80000001192093","3","1","false","3","1,0.5,0.5,0.5,1,0.5,0.5,0.5,1","",""
"","html-keyboard-response","177","113152","0.0-261.0","3FE7TXL1LJ96YUPOU02BNM98AW6Q2J","A2FB5UQTR3E0NX","3XEIP58NL09JROET00YR4SOXG94ZLV","","null","<img src=""img/land4.png"" style=""width:200px; border:14px solid green;"">","null","","","","","","","",""
"","image-keyboard-response","178","113719","0.0-263.0","3FE7TXL1LJ96YUPOU02BNM98AW6Q2J","A2FB5UQTR3E0NX","3XEIP58NL09JROET00YR4SOXG94ZLV","","564.3000000119209","img/land5.png","75","566","2","1","false","2","1,0.5,0.5,0.5,1,0.5,0.5,0.5,1","",""
"","html-keyboard-response","179","114021","0.0-264.0","3FE7TXL1LJ96YUPOU02BNM98AW6Q2J","A2FB5UQTR3E0NX","3XEIP58NL09JROET00YR4SOXG94ZLV","","null","<img src=""img/land5.png"" style=""width:200px; border:14px solid green;"">","null","","","","","","","",""
"","image-keyboard-response","180","114612","0.0-266.0","3FE7TXL1LJ96YUPOU02BNM98AW6Q2J","A2FB5UQTR3E0NX","3XEIP58NL09JROET00YR4SOXG94ZLV","","587.3999999761581","img/land4.png","74","590.0999999642372","1","1","false","3","1,0.5,0.5,0.5,1,0.5,0.5,0.5,1","",""
"","html-keyboard-response","181","114917","0.0-267.0","3FE7TXL1LJ96YUPOU02BNM98AW6Q2J","A2FB5UQTR3E0NX","3XEIP58NL09JROET00YR4SOXG94ZLV","","null","<img src=""img/land4.png"" style=""width:200px; border:14px solid green;"">","null","","","","","","","",""
"","image-keyboard-response","182","115663","0.0-269.0","3FE7TXL1LJ96YUPOU02BNM98AW6Q2J","A2FB5UQTR3E0NX","3XEIP58NL09JROET00YR4SOXG94ZLV","","744.2999999523163","img/land5.png","75","746","2","1","false","2","1,0.5,0.5,0.5,1,0.5,0.5,0.5,1","",""
"","html-keyboard-response","183","115966","0.0-270.0","3FE7TXL1LJ96YUPOU02BNM98AW6Q2J","A2FB5UQTR3E0NX","3XEIP58NL09JROET00YR4SOXG94ZLV","","null","<img src=""img/land5.png"" style=""width:200px; border:14px solid green;"">","null","","","","","","","",""
"","html-keyboard-response","184","119239","0.0-272.0","3FE7TXL1LJ96YUPOU02BNM98AW6Q2J","A2FB5UQTR3E0NX","3XEIP58NL09JROET00YR4SOXG94ZLV","","","","","","","","","","","",""
"","image-keyboard-response","185","120242","0.0-273.0","3FE7TXL1LJ96YUPOU02BNM98AW6Q2J","A2FB5UQTR3E0NX","3XEIP58NL09JROET00YR4SOXG94ZLV","","","img/land3.png","","1002.7999999523163","-1","0","true","3","1,1,0,0,1,1,1,0,1","",""
"","html-keyboard-response","186","120546","0.0-274.0","3FE7TXL1LJ96YUPOU02BNM98AW6Q2J","A2FB5UQTR3E0NX","3XEIP58NL09JROET00YR4SOXG94ZLV","","null","<img src=""img/land3.png"" style=""width:200px;border:14px solid red;"">","null","","","","","","","",""
"","html-keyboard-response","187","123721","0.0-275.0-0.0","3FE7TXL1LJ96YUPOU02BNM98AW6Q2J","A2FB5UQTR3E0NX","3XEIP58NL09JROET00YR4SOXG94ZLV","","","","","","","","","","","",""
"","image-keyboard-response","188","124395","0.0-276.0","3FE7TXL1LJ96YUPOU02BNM98AW6Q2J","A2FB5UQTR3E0NX","3XEIP58NL09JROET00YR4SOXG94ZLV","","671.3000000119209","img/land6.png","75","673.3000000119209","2","1","false","1","1,1,0,0,1,1,1,0,1","",""
"","html-keyboard-response","189","124701","0.0-277.0","3FE7TXL1LJ96YUPOU02BNM98AW6Q2J","A2FB5UQTR3E0NX","3XEIP58NL09JROET00YR4SOXG94ZLV","","null","<img src=""img/land6.png"" style=""width:200px; border:14px solid green;"">","null","","","","","","","",""
"","image-keyboard-response","190","125094","0.0-279.0","3FE7TXL1LJ96YUPOU02BNM98AW6Q2J","A2FB5UQTR3E0NX","3XEIP58NL09JROET00YR4SOXG94ZLV","","391","img/land6.png","75","393","2","1","false","1","1,1,0,0,1,1,1,0,1","",""
"","html-keyboard-response","191","125398","0.0-280.0","3FE7TXL1LJ96YUPOU02BNM98AW6Q2J","A2FB5UQTR3E0NX","3XEIP58NL09JROET00YR4SOXG94ZLV","","null","<img src=""img/land6.png"" style=""width:200px; border:14px solid green;"">","null","","","","","","","",""
"","image-keyboard-response","192","125891","0.0-282.0","3FE7TXL1LJ96YUPOU02BNM98AW6Q2J","A2FB5UQTR3E0NX","3XEIP58NL09JROET00YR4SOXG94ZLV","","490.60000002384186","img/land3.png","74","492.80000001192093","1","1","false","3","1,1,0,0,1,1,1,0,1","",""
"","html-keyboard-response","193","126194","0.0-283.0","3FE7TXL1LJ96YUPOU02BNM98AW6Q2J","A2FB5UQTR3E0NX","3XEIP58NL09JROET00YR4SOXG94ZLV","","null","<img src=""img/land3.png"" style=""width:200px; border:14px solid green;"">","null","","","","","","","",""
"","image-keyboard-response","194","126644","0.0-285.0","3FE7TXL1LJ96YUPOU02BNM98AW6Q2J","A2FB5UQTR3E0NX","3XEIP58NL09JROET00YR4SOXG94ZLV","","446.89999997615814","img/land6.png","75","449","2","1","false","1","1,1,0,0,1,1,1,0,1","",""
"","html-keyboard-response","195","126947","0.0-286.0","3FE7TXL1LJ96YUPOU02BNM98AW6Q2J","A2FB5UQTR3E0NX","3XEIP58NL09JROET00YR4SOXG94ZLV","","null","<img src=""img/land6.png"" style=""width:200px; border:14px solid green;"">","null","","","","","","","",""
"","image-keyboard-response","196","127512","0.0-288.0","3FE7TXL1LJ96YUPOU02BNM98AW6Q2J","A2FB5UQTR3E0NX","3XEIP58NL09JROET00YR4SOXG94ZLV","","561.8999999761581","img/land3.png","74","564.3000000119209","1","1","false","3","1,1,0,0,1,1,1,0,1","",""
"","html-keyboard-response","197","127816","0.0-289.0","3FE7TXL1LJ96YUPOU02BNM98AW6Q2J","A2FB5UQTR3E0NX","3XEIP58NL09JROET00YR4SOXG94ZLV","","null","<img src=""img/land3.png"" style=""width:200px; border:14px solid green;"">","null","","","","","","","",""
"","image-keyboard-response","198","128355","0.0-291.0","3FE7TXL1LJ96YUPOU02BNM98AW6Q2J","A2FB5UQTR3E0NX","3XEIP58NL09JROET00YR4SOXG94ZLV","","535.5","img/land3.png","74","538","1","1","false","3","1,1,0,0,1,1,1,0,1","",""
"","html-keyboard-response","199","128658","0.0-292.0","3FE7TXL1LJ96YUPOU02BNM98AW6Q2J","A2FB5UQTR3E0NX","3XEIP58NL09JROET00YR4SOXG94ZLV","","null","<img src=""img/land3.png"" style=""width:200px; border:14px solid green;"">","null","","","","","","","",""
"","image-keyboard-response","200","129209","0.0-294.0","3FE7TXL1LJ96YUPOU02BNM98AW6Q2J","A2FB5UQTR3E0NX","3XEIP58NL09JROET00YR4SOXG94ZLV","","547.1000000238419","img/land6.png","75","549.3999999761581","2","1","false","1","1,1,0,0,1,1,1,0,1","",""
"","html-keyboard-response","201","129512","0.0-295.0","3FE7TXL1LJ96YUPOU02BNM98AW6Q2J","A2FB5UQTR3E0NX","3XEIP58NL09JROET00YR4SOXG94ZLV","","null","<img src=""img/land6.png"" style=""width:200px; border:14px solid green;"">","null","","","","","","","",""
"","image-keyboard-response","202","130010","0.0-297.0","3FE7TXL1LJ96YUPOU02BNM98AW6Q2J","A2FB5UQTR3E0NX","3XEIP58NL09JROET00YR4SOXG94ZLV","","494.30000001192093","img/land3.png","74","496.7000000476837","1","1","false","3","1,1,0,0,1,1,1,0,1","",""
"","html-keyboard-response","203","130313","0.0-298.0","3FE7TXL1LJ96YUPOU02BNM98AW6Q2J","A2FB5UQTR3E0NX","3XEIP58NL09JROET00YR4SOXG94ZLV","","null","<img src=""img/land3.png"" style=""width:200px; border:14px solid green;"">","null","","","","","","","",""
"","image-keyboard-response","204","131118","0.0-300.0","3FE7TXL1LJ96YUPOU02BNM98AW6Q2J","A2FB5UQTR3E0NX","3XEIP58NL09JROET00YR4SOXG94ZLV","","801.6000000238419","img/land6.png","75","804.0999999642372","2","1","false","1","1,1,0,0,1,1,1,0,1","",""
"","html-keyboard-response","205","131421","0.0-301.0","3FE7TXL1LJ96YUPOU02BNM98AW6Q2J","A2FB5UQTR3E0NX","3XEIP58NL09JROET00YR4SOXG94ZLV","","null","<img src=""img/land6.png"" style=""width:200px; border:14px solid green;"">","null","","","","","","","",""
"","image-keyboard-response","206","131862","0.0-303.0","3FE7TXL1LJ96YUPOU02BNM98AW6Q2J","A2FB5UQTR3E0NX","3XEIP58NL09JROET00YR4SOXG94ZLV","","437.80000001192093","img/land3.png","74","440.5","1","1","false","3","1,1,0,0,1,1,1,0,1","",""
"","html-keyboard-response","207","132167","0.0-304.0","3FE7TXL1LJ96YUPOU02BNM98AW6Q2J","A2FB5UQTR3E0NX","3XEIP58NL09JROET00YR4SOXG94ZLV","","null","<img src=""img/land3.png"" style=""width:200px; border:14px solid green;"">","null","","","","","","","",""
"","image-keyboard-response","208","132516","0.0-306.0","3FE7TXL1LJ96YUPOU02BNM98AW6Q2J","A2FB5UQTR3E0NX","3XEIP58NL09JROET00YR4SOXG94ZLV","","345.89999997615814","img/land3.png","74","348.2999999523163","1","1","false","3","1,1,0,0,1,1,1,0,1","",""
"","html-keyboard-response","209","132820","0.0-307.0","3FE7TXL1LJ96YUPOU02BNM98AW6Q2J","A2FB5UQTR3E0NX","3XEIP58NL09JROET00YR4SOXG94ZLV","","null","<img src=""img/land3.png"" style=""width:200px; border:14px solid green;"">","null","","","","","","","",""
"","image-keyboard-response","210","133254","0.0-309.0","3FE7TXL1LJ96YUPOU02BNM98AW6Q2J","A2FB5UQTR3E0NX","3XEIP58NL09JROET00YR4SOXG94ZLV","","430.7000000476837","img/land6.png","75","432.80000001192093","2","1","false","1","1,1,0,0,1,1,1,0,1","",""
"","html-keyboard-response","211","133557","0.0-310.0","3FE7TXL1LJ96YUPOU02BNM98AW6Q2J","A2FB5UQTR3E0NX","3XEIP58NL09JROET00YR4SOXG94ZLV","","null","<img src=""img/land6.png"" style=""width:200px; border:14px solid green;"">","null","","","","","","","",""
"","image-keyboard-response","212","133959","0.0-312.0","3FE7TXL1LJ96YUPOU02BNM98AW6Q2J","A2FB5UQTR3E0NX","3XEIP58NL09JROET00YR4SOXG94ZLV","","399.7000000476837","img/land6.png","75","401.69999998807907","2","1","false","1","1,1,0,0,1,1,1,0,1","",""
"","html-keyboard-response","213","134262","0.0-313.0","3FE7TXL1LJ96YUPOU02BNM98AW6Q2J","A2FB5UQTR3E0NX","3XEIP58NL09JROET00YR4SOXG94ZLV","","null","<img src=""img/land6.png"" style=""width:200px; border:14px solid green;"">","null","","","","","","","",""
"","image-keyboard-response","214","134670","0.0-315.0","3FE7TXL1LJ96YUPOU02BNM98AW6Q2J","A2FB5UQTR3E0NX","3XEIP58NL09JROET00YR4SOXG94ZLV","","405","img/land3.png","74","407.19999998807907","1","1","false","3","1,1,0,0,1,1,1,0,1","",""
"","html-keyboard-response","215","134973","0.0-316.0","3FE7TXL1LJ96YUPOU02BNM98AW6Q2J","A2FB5UQTR3E0NX","3XEIP58NL09JROET00YR4SOXG94ZLV","","null","<img src=""img/land3.png"" style=""width:200px; border:14px solid green;"">","null","","","","","","","",""
"","image-keyboard-response","216","135751","0.0-318.0","3FE7TXL1LJ96YUPOU02BNM98AW6Q2J","A2FB5UQTR3E0NX","3XEIP58NL09JROET00YR4SOXG94ZLV","","774.9000000357628","img/land1.png","76","777.1999999880791","3","1","false","2","1,1,0,0,1,1,1,0,1","",""
"","html-keyboard-response","217","136056","0.0-319.0","3FE7TXL1LJ96YUPOU02BNM98AW6Q2J","A2FB5UQTR3E0NX","3XEIP58NL09JROET00YR4SOXG94ZLV","","null","<img src=""img/land1.png"" style=""width:200px; border:14px solid green;"">","null","","","","","","","",""
"","image-keyboard-response","218","136419","0.0-321.0","3FE7TXL1LJ96YUPOU02BNM98AW6Q2J","A2FB5UQTR3E0NX","3XEIP58NL09JROET00YR4SOXG94ZLV","","360.2000000476837","img/land1.png","76","362.30000001192093","3","1","false","2","1,1,0,0,1,1,1,0,1","",""
"","html-keyboard-response","219","136723","0.0-322.0","3FE7TXL1LJ96YUPOU02BNM98AW6Q2J","A2FB5UQTR3E0NX","3XEIP58NL09JROET00YR4SOXG94ZLV","","null","<img src=""img/land1.png"" style=""width:200px; border:14px solid green;"">","null","","","","","","","",""
"","image-keyboard-response","220","137078","0.0-324.0","3FE7TXL1LJ96YUPOU02BNM98AW6Q2J","A2FB5UQTR3E0NX","3XEIP58NL09JROET00YR4SOXG94ZLV","","352.39999997615814","img/land1.png","76","355","3","1","false","2","1,1,0,0,1,1,1,0,1","",""
"","html-keyboard-response","221","137382","0.0-325.0","3FE7TXL1LJ96YUPOU02BNM98AW6Q2J","A2FB5UQTR3E0NX","3XEIP58NL09JROET00YR4SOXG94ZLV","","null","<img src=""img/land1.png"" style=""width:200px; border:14px solid green;"">","null","","","","","","","",""
"","image-keyboard-response","222","138195","0.0-327.0","3FE7TXL1LJ96YUPOU02BNM98AW6Q2J","A2FB5UQTR3E0NX","3XEIP58NL09JROET00YR4SOXG94ZLV","","809.7000000476837","img/land3.png","74","812.4000000357628","1","1","false","3","1,1,0,0,1,1,1,0,1","",""
"","html-keyboard-response","223","138499","0.0-328.0","3FE7TXL1LJ96YUPOU02BNM98AW6Q2J","A2FB5UQTR3E0NX","3XEIP58NL09JROET00YR4SOXG94ZLV","","null","<img src=""img/land3.png"" style=""width:200px; border:14px solid green;"">","null","","","","","","","",""
"","image-keyboard-response","224","139003","0.0-330.0","3FE7TXL1LJ96YUPOU02BNM98AW6Q2J","A2FB5UQTR3E0NX","3XEIP58NL09JROET00YR4SOXG94ZLV","","501.60000002384186","img/land1.png","75","503.5999999642372","2","1","false","2","1,1,0,0,1,1,1,0,1","",""
"","html-keyboard-response","225","139307","0.0-331.0","3FE7TXL1LJ96YUPOU02BNM98AW6Q2J","A2FB5UQTR3E0NX","3XEIP58NL09JROET00YR4SOXG94ZLV","","null","<img src=""img/land1.png"" style=""width:200px; border:14px solid green;"">","null","","","","","","","",""
"","image-keyboard-response","226","139735","0.0-333.0","3FE7TXL1LJ96YUPOU02BNM98AW6Q2J","A2FB5UQTR3E0NX","3XEIP58NL09JROET00YR4SOXG94ZLV","","424.7999999523163","img/land1.png","75","427.30000001192093","2","1","false","2","1,1,0,0,1,1,1,0,1","",""
"","html-keyboard-response","227","140039","0.0-334.0","3FE7TXL1LJ96YUPOU02BNM98AW6Q2J","A2FB5UQTR3E0NX","3XEIP58NL09JROET00YR4SOXG94ZLV","","null","<img src=""img/land1.png"" style=""width:200px; border:14px solid green;"">","null","","","","","","","",""
"","image-keyboard-response","228","140892","0.0-336.0","3FE7TXL1LJ96YUPOU02BNM98AW6Q2J","A2FB5UQTR3E0NX","3XEIP58NL09JROET00YR4SOXG94ZLV","","849.4000000357628","img/land6.png","74","852.0999999642372","1","1","false","1","1,1,0,0,1,1,1,0,1","",""
"","html-keyboard-response","229","141199","0.0-337.0","3FE7TXL1LJ96YUPOU02BNM98AW6Q2J","A2FB5UQTR3E0NX","3XEIP58NL09JROET00YR4SOXG94ZLV","","null","<img src=""img/land6.png"" style=""width:200px; border:14px solid green;"">","null","","","","","","","",""
"","image-keyboard-response","230","141684","0.0-339.0","3FE7TXL1LJ96YUPOU02BNM98AW6Q2J","A2FB5UQTR3E0NX","3XEIP58NL09JROET00YR4SOXG94ZLV","","482","img/land3.png","75","484","2","0","false","3","1,1,0,0,1,1,1,0,1","",""
"","html-keyboard-response","231","141987","0.0-340.0","3FE7TXL1LJ96YUPOU02BNM98AW6Q2J","A2FB5UQTR3E0NX","3XEIP58NL09JROET00YR4SOXG94ZLV","","null","<img src=""img/land3.png"" style=""width:200px;border:14px solid red;"">","null","","","","","","","",""
"","image-keyboard-response","232","142514","0.0-342.0","3FE7TXL1LJ96YUPOU02BNM98AW6Q2J","A2FB5UQTR3E0NX","3XEIP58NL09JROET00YR4SOXG94ZLV","","523.8999999761581","img/land6.png","74","526.0999999642372","1","1","false","1","1,1,0,0,1,1,1,0,1","",""
"","html-keyboard-response","233","142817","0.0-343.0","3FE7TXL1LJ96YUPOU02BNM98AW6Q2J","A2FB5UQTR3E0NX","3XEIP58NL09JROET00YR4SOXG94ZLV","","null","<img src=""img/land6.png"" style=""width:200px; border:14px solid green;"">","null","","","","","","","",""
"","image-keyboard-response","234","143254","0.0-345.0","3FE7TXL1LJ96YUPOU02BNM98AW6Q2J","A2FB5UQTR3E0NX","3XEIP58NL09JROET00YR4SOXG94ZLV","","434","img/land6.png","74","436.5","1","1","false","1","1,1,0,0,1,1,1,0,1","",""
"","html-keyboard-response","235","143559","0.0-346.0","3FE7TXL1LJ96YUPOU02BNM98AW6Q2J","A2FB5UQTR3E0NX","3XEIP58NL09JROET00YR4SOXG94ZLV","","null","<img src=""img/land6.png"" style=""width:200px; border:14px solid green;"">","null","","","","","","","",""
"","image-keyboard-response","236","144337","0.0-348.0","3FE7TXL1LJ96YUPOU02BNM98AW6Q2J","A2FB5UQTR3E0NX","3XEIP58NL09JROET00YR4SOXG94ZLV","","775","img/land1.png","76","777.6000000238419","3","1","false","2","1,1,0,0,1,1,1,0,1","",""
"","html-keyboard-response","237","144641","0.0-349.0","3FE7TXL1LJ96YUPOU02BNM98AW6Q2J","A2FB5UQTR3E0NX","3XEIP58NL09JROET00YR4SOXG94ZLV","","null","<img src=""img/land1.png"" style=""width:200px; border:14px solid green;"">","null","","","","","","","",""
"","image-keyboard-response","238","145524","0.0-351.0","3FE7TXL1LJ96YUPOU02BNM98AW6Q2J","A2FB5UQTR3E0NX","3XEIP58NL09JROET00YR4SOXG94ZLV","","880","img/land6.png","75","882.8999999761581","2","1","false","1","1,1,0,0,1,1,1,0,1","",""
"","html-keyboard-response","239","145828","0.0-352.0","3FE7TXL1LJ96YUPOU02BNM98AW6Q2J","A2FB5UQTR3E0NX","3XEIP58NL09JROET00YR4SOXG94ZLV","","null","<img src=""img/land6.png"" style=""width:200px; border:14px solid green;"">","null","","","","","","","",""
"","image-keyboard-response","240","146178","0.0-354.0","3FE7TXL1LJ96YUPOU02BNM98AW6Q2J","A2FB5UQTR3E0NX","3XEIP58NL09JROET00YR4SOXG94ZLV","","347","img/land6.png","75","349.5","2","1","false","1","1,1,0,0,1,1,1,0,1","",""
"","html-keyboard-response","241","146482","0.0-355.0","3FE7TXL1LJ96YUPOU02BNM98AW6Q2J","A2FB5UQTR3E0NX","3XEIP58NL09JROET00YR4SOXG94ZLV","","null","<img src=""img/land6.png"" style=""width:200px; border:14px solid green;"">","null","","","","","","","",""
"","image-keyboard-response","242","146819","0.0-357.0","3FE7TXL1LJ96YUPOU02BNM98AW6Q2J","A2FB5UQTR3E0NX","3XEIP58NL09JROET00YR4SOXG94ZLV","","332.89999997615814","img/land6.png","75","335.5","2","1","false","1","1,1,0,0,1,1,1,0,1","",""
"","html-keyboard-response","243","147124","0.0-358.0","3FE7TXL1LJ96YUPOU02BNM98AW6Q2J","A2FB5UQTR3E0NX","3XEIP58NL09JROET00YR4SOXG94ZLV","","null","<img src=""img/land6.png"" style=""width:200px; border:14px solid green;"">","null","","","","","","","",""
"","image-keyboard-response","244","147471","0.0-360.0","3FE7TXL1LJ96YUPOU02BNM98AW6Q2J","A2FB5UQTR3E0NX","3XEIP58NL09JROET00YR4SOXG94ZLV","","344.89999997615814","img/land6.png","75","347","2","1","false","1","1,1,0,0,1,1,1,0,1","",""
"","html-keyboard-response","245","147775","0.0-361.0","3FE7TXL1LJ96YUPOU02BNM98AW6Q2J","A2FB5UQTR3E0NX","3XEIP58NL09JROET00YR4SOXG94ZLV","","null","<img src=""img/land6.png"" style=""width:200px; border:14px solid green;"">","null","","","","","","","",""
"","image-keyboard-response","246","148234","0.0-363.0","3FE7TXL1LJ96YUPOU02BNM98AW6Q2J","A2FB5UQTR3E0NX","3XEIP58NL09JROET00YR4SOXG94ZLV","","456","img/land1.png","74","458.69999998807907","1","0","false","2","1,1,0,0,1,1,1,0,1","",""
"","html-keyboard-response","247","148538","0.0-364.0","3FE7TXL1LJ96YUPOU02BNM98AW6Q2J","A2FB5UQTR3E0NX","3XEIP58NL09JROET00YR4SOXG94ZLV","","null","<img src=""img/land1.png"" style=""width:200px;border:14px solid red;"">","null","","","","","","","",""
"","image-keyboard-response","248","148836","0.0-366.0","3FE7TXL1LJ96YUPOU02BNM98AW6Q2J","A2FB5UQTR3E0NX","3XEIP58NL09JROET00YR4SOXG94ZLV","","294.5999999642372","img/land1.png","76","296.9000000357628","3","1","false","2","1,1,0,0,1,1,1,0,1","",""
"","html-keyboard-response","249","149139","0.0-367.0","3FE7TXL1LJ96YUPOU02BNM98AW6Q2J","A2FB5UQTR3E0NX","3XEIP58NL09JROET00YR4SOXG94ZLV","","null","<img src=""img/land1.png"" style=""width:200px; border:14px solid green;"">","null","","","","","","","",""
"","image-keyboard-response","250","149680","0.0-369.0","3FE7TXL1LJ96YUPOU02BNM98AW6Q2J","A2FB5UQTR3E0NX","3XEIP58NL09JROET00YR4SOXG94ZLV","","538","img/land3.png","74","539.7999999523163","1","1","false","3","1,1,0,0,1,1,1,0,1","",""
"","html-keyboard-response","251","149983","0.0-370.0","3FE7TXL1LJ96YUPOU02BNM98AW6Q2J","A2FB5UQTR3E0NX","3XEIP58NL09JROET00YR4SOXG94ZLV","","null","<img src=""img/land3.png"" style=""width:200px; border:14px solid green;"">","null","","","","","","","",""
"","image-keyboard-response","252","150323","0.0-372.0","3FE7TXL1LJ96YUPOU02BNM98AW6Q2J","A2FB5UQTR3E0NX","3XEIP58NL09JROET00YR4SOXG94ZLV","","337.69999998807907","img/land3.png","74","340.10000002384186","1","1","false","3","1,1,0,0,1,1,1,0,1","",""
"","html-keyboard-response","253","150628","0.0-373.0","3FE7TXL1LJ96YUPOU02BNM98AW6Q2J","A2FB5UQTR3E0NX","3XEIP58NL09JROET00YR4SOXG94ZLV","","null","<img src=""img/land3.png"" style=""width:200px; border:14px solid green;"">","null","","","","","","","",""
"","image-keyboard-response","254","150951","0.0-375.0","3FE7TXL1LJ96YUPOU02BNM98AW6Q2J","A2FB5UQTR3E0NX","3XEIP58NL09JROET00YR4SOXG94ZLV","","320.30000001192093","img/land3.png","74","323.19999998807907","1","1","false","3","1,1,0,0,1,1,1,0,1","",""
"","html-keyboard-response","255","151265","0.0-376.0","3FE7TXL1LJ96YUPOU02BNM98AW6Q2J","A2FB5UQTR3E0NX","3XEIP58NL09JROET00YR4SOXG94ZLV","","null","<img src=""img/land3.png"" style=""width:200px; border:14px solid green;"">","null","","","","","","","",""
"","image-keyboard-response","256","151890","0.0-378.0","3FE7TXL1LJ96YUPOU02BNM98AW6Q2J","A2FB5UQTR3E0NX","3XEIP58NL09JROET00YR4SOXG94ZLV","","621.3000000119209","img/land1.png","76","623.8000000119209","3","1","false","2","1,1,0,0,1,1,1,0,1","",""
"","html-keyboard-response","257","152193","0.0-379.0","3FE7TXL1LJ96YUPOU02BNM98AW6Q2J","A2FB5UQTR3E0NX","3XEIP58NL09JROET00YR4SOXG94ZLV","","null","<img src=""img/land1.png"" style=""width:200px; border:14px solid green;"">","null","","","","","","","",""
"","image-keyboard-response","258","152522","0.0-381.0","3FE7TXL1LJ96YUPOU02BNM98AW6Q2J","A2FB5UQTR3E0NX","3XEIP58NL09JROET00YR4SOXG94ZLV","","325.5","img/land1.png","76","328","3","1","false","2","1,1,0,0,1,1,1,0,1","",""
"","html-keyboard-response","259","152826","0.0-382.0","3FE7TXL1LJ96YUPOU02BNM98AW6Q2J","A2FB5UQTR3E0NX","3XEIP58NL09JROET00YR4SOXG94ZLV","","null","<img src=""img/land1.png"" style=""width:200px; border:14px solid green;"">","null","","","","","","","",""
"","image-keyboard-response","260","153424","0.0-384.0","3FE7TXL1LJ96YUPOU02BNM98AW6Q2J","A2FB5UQTR3E0NX","3XEIP58NL09JROET00YR4SOXG94ZLV","","595.1000000238419","img/land6.png","75","597.1999999880791","2","1","false","1","1,1,0,0,1,1,1,0,1","",""
"","html-keyboard-response","261","153728","0.0-385.0","3FE7TXL1LJ96YUPOU02BNM98AW6Q2J","A2FB5UQTR3E0NX","3XEIP58NL09JROET00YR4SOXG94ZLV","","null","<img src=""img/land6.png"" style=""width:200px; border:14px solid green;"">","null","","","","","","","",""
"","image-keyboard-response","262","154329","0.0-387.0","3FE7TXL1LJ96YUPOU02BNM98AW6Q2J","A2FB5UQTR3E0NX","3XEIP58NL09JROET00YR4SOXG94ZLV","","597.5999999642372","img/land3.png","74","599.8999999761581","1","1","false","3","1,1,0,0,1,1,1,0,1","",""
"","html-keyboard-response","263","154632","0.0-388.0","3FE7TXL1LJ96YUPOU02BNM98AW6Q2J","A2FB5UQTR3E0NX","3XEIP58NL09JROET00YR4SOXG94ZLV","","null","<img src=""img/land3.png"" style=""width:200px; border:14px solid green;"">","null","","","","","","","",""
"","image-keyboard-response","264","155135","0.0-390.0","3FE7TXL1LJ96YUPOU02BNM98AW6Q2J","A2FB5UQTR3E0NX","3XEIP58NL09JROET00YR4SOXG94ZLV","","500.60000002384186","img/land6.png","75","503.19999998807907","2","1","false","1","1,1,0,0,1,1,1,0,1","",""
"","html-keyboard-response","265","155440","0.0-391.0","3FE7TXL1LJ96YUPOU02BNM98AW6Q2J","A2FB5UQTR3E0NX","3XEIP58NL09JROET00YR4SOXG94ZLV","","null","<img src=""img/land6.png"" style=""width:200px; border:14px solid green;"">","null","","","","","","","",""
"","image-keyboard-response","266","155779","0.0-393.0","3FE7TXL1LJ96YUPOU02BNM98AW6Q2J","A2FB5UQTR3E0NX","3XEIP58NL09JROET00YR4SOXG94ZLV","","335.89999997615814","img/land6.png","75","338","2","1","false","1","1,1,0,0,1,1,1,0,1","",""
"","html-keyboard-response","267","156082","0.0-394.0","3FE7TXL1LJ96YUPOU02BNM98AW6Q2J","A2FB5UQTR3E0NX","3XEIP58NL09JROET00YR4SOXG94ZLV","","null","<img src=""img/land6.png"" style=""width:200px; border:14px solid green;"">","null","","","","","","","",""
"","image-keyboard-response","268","156770","0.0-396.0","3FE7TXL1LJ96YUPOU02BNM98AW6Q2J","A2FB5UQTR3E0NX","3XEIP58NL09JROET00YR4SOXG94ZLV","","685.6000000238419","img/land3.png","74","687.8000000119209","1","1","false","3","1,1,0,0,1,1,1,0,1","",""
"","html-keyboard-response","269","157074","0.0-397.0","3FE7TXL1LJ96YUPOU02BNM98AW6Q2J","A2FB5UQTR3E0NX","3XEIP58NL09JROET00YR4SOXG94ZLV","","null","<img src=""img/land3.png"" style=""width:200px; border:14px solid green;"">","null","","","","","","","",""
"","image-keyboard-response","270","157615","0.0-399.0","3FE7TXL1LJ96YUPOU02BNM98AW6Q2J","A2FB5UQTR3E0NX","3XEIP58NL09JROET00YR4SOXG94ZLV","","537.9000000357628","img/land6.png","75","540.1999999880791","2","1","false","1","1,1,0,0,1,1,1,0,1","",""
"","html-keyboard-response","271","157925","0.0-400.0","3FE7TXL1LJ96YUPOU02BNM98AW6Q2J","A2FB5UQTR3E0NX","3XEIP58NL09JROET00YR4SOXG94ZLV","","null","<img src=""img/land6.png"" style=""width:200px; border:14px solid green;"">","null","","","","","","","",""
"","image-keyboard-response","272","158341","0.0-402.0","3FE7TXL1LJ96YUPOU02BNM98AW6Q2J","A2FB5UQTR3E0NX","3XEIP58NL09JROET00YR4SOXG94ZLV","","412.7000000476837","img/land6.png","75","415","2","1","false","1","1,1,0,0,1,1,1,0,1","",""
"","html-keyboard-response","273","158645","0.0-403.0","3FE7TXL1LJ96YUPOU02BNM98AW6Q2J","A2FB5UQTR3E0NX","3XEIP58NL09JROET00YR4SOXG94ZLV","","null","<img src=""img/land6.png"" style=""width:200px; border:14px solid green;"">","null","","","","","","","",""
"","image-keyboard-response","274","159169","0.0-405.0","3FE7TXL1LJ96YUPOU02BNM98AW6Q2J","A2FB5UQTR3E0NX","3XEIP58NL09JROET00YR4SOXG94ZLV","","521.3999999761581","img/land1.png","76","523.6000000238419","3","1","false","2","1,1,0,0,1,1,1,0,1","",""
"","html-keyboard-response","275","159483","0.0-406.0","3FE7TXL1LJ96YUPOU02BNM98AW6Q2J","A2FB5UQTR3E0NX","3XEIP58NL09JROET00YR4SOXG94ZLV","","null","<img src=""img/land1.png"" style=""width:200px; border:14px solid green;"">","null","","","","","","","",""
"","image-keyboard-response","276","160067","0.0-408.0","3FE7TXL1LJ96YUPOU02BNM98AW6Q2J","A2FB5UQTR3E0NX","3XEIP58NL09JROET00YR4SOXG94ZLV","","580.8000000119209","img/land3.png","74","583.6000000238419","1","1","false","3","1,1,0,0,1,1,1,0,1","",""
"","html-keyboard-response","277","160372","0.0-409.0","3FE7TXL1LJ96YUPOU02BNM98AW6Q2J","A2FB5UQTR3E0NX","3XEIP58NL09JROET00YR4SOXG94ZLV","","null","<img src=""img/land3.png"" style=""width:200px; border:14px solid green;"">","null","","","","","","","",""
"","image-keyboard-response","278","160944","0.0-411.0","3FE7TXL1LJ96YUPOU02BNM98AW6Q2J","A2FB5UQTR3E0NX","3XEIP58NL09JROET00YR4SOXG94ZLV","","569","img/land1.png","75","571.2999999523163","2","1","false","2","1,1,0,0,1,1,1,0,1","",""
"","html-keyboard-response","279","161248","0.0-412.0","3FE7TXL1LJ96YUPOU02BNM98AW6Q2J","A2FB5UQTR3E0NX","3XEIP58NL09JROET00YR4SOXG94ZLV","","null","<img src=""img/land1.png"" style=""width:200px; border:14px solid green;"">","null","","","","","","","",""
"","image-keyboard-response","280","161275","0.0-414.0","3FE7TXL1LJ96YUPOU02BNM98AW6Q2J","A2FB5UQTR3E0NX","3XEIP58NL09JROET00YR4SOXG94ZLV","","24","img/land1.png","76","25.69999998807907","3","1","false","2","1,1,0,0,1,1,1,0,1","",""
"","html-keyboard-response","281","161578","0.0-415.0","3FE7TXL1LJ96YUPOU02BNM98AW6Q2J","A2FB5UQTR3E0NX","3XEIP58NL09JROET00YR4SOXG94ZLV","","null","<img src=""img/land1.png"" style=""width:200px; border:14px solid green;"">","null","","","","","","","",""
"","image-keyboard-response","282","162256","0.0-417.0","3FE7TXL1LJ96YUPOU02BNM98AW6Q2J","A2FB5UQTR3E0NX","3XEIP58NL09JROET00YR4SOXG94ZLV","","676.0999999642372","img/land1.png","76","678.2999999523163","3","1","false","2","1,1,0,0,1,1,1,0,1","",""
"","html-keyboard-response","283","162560","0.0-418.0","3FE7TXL1LJ96YUPOU02BNM98AW6Q2J","A2FB5UQTR3E0NX","3XEIP58NL09JROET00YR4SOXG94ZLV","","null","<img src=""img/land1.png"" style=""width:200px; border:14px solid green;"">","null","","","","","","","",""
"","image-keyboard-response","284","162739","0.0-420.0","3FE7TXL1LJ96YUPOU02BNM98AW6Q2J","A2FB5UQTR3E0NX","3XEIP58NL09JROET00YR4SOXG94ZLV","","175.9000000357628","img/land1.png","76","178.39999997615814","3","1","false","2","1,1,0,0,1,1,1,0,1","",""
"","html-keyboard-response","285","163043","0.0-421.0","3FE7TXL1LJ96YUPOU02BNM98AW6Q2J","A2FB5UQTR3E0NX","3XEIP58NL09JROET00YR4SOXG94ZLV","","null","<img src=""img/land1.png"" style=""width:200px; border:14px solid green;"">","null","","","","","","","",""
"","image-keyboard-response","286","163197","0.0-423.0","3FE7TXL1LJ96YUPOU02BNM98AW6Q2J","A2FB5UQTR3E0NX","3XEIP58NL09JROET00YR4SOXG94ZLV","","150.89999997615814","img/land3.png","76","153","3","1","false","3","1,1,0,0,1,1,1,0,1","",""
"","html-keyboard-response","287","163501","0.0-424.0","3FE7TXL1LJ96YUPOU02BNM98AW6Q2J","A2FB5UQTR3E0NX","3XEIP58NL09JROET00YR4SOXG94ZLV","","null","<img src=""img/land3.png"" style=""width:200px; border:14px solid green;"">","null","","","","","","","",""
"","image-keyboard-response","288","163680","0.0-426.0","3FE7TXL1LJ96YUPOU02BNM98AW6Q2J","A2FB5UQTR3E0NX","3XEIP58NL09JROET00YR4SOXG94ZLV","","177","img/land6.png","74","178.5","1","1","false","1","1,1,0,0,1,1,1,0,1","",""
"","html-keyboard-response","289","163983","0.0-427.0","3FE7TXL1LJ96YUPOU02BNM98AW6Q2J","A2FB5UQTR3E0NX","3XEIP58NL09JROET00YR4SOXG94ZLV","","null","<img src=""img/land6.png"" style=""width:200px; border:14px solid green;"">","null","","","","","","","",""
"","image-keyboard-response","290","164945","0.0-429.0","3FE7TXL1LJ96YUPOU02BNM98AW6Q2J","A2FB5UQTR3E0NX","3XEIP58NL09JROET00YR4SOXG94ZLV","","959.3999999761581","img/land3.png","74","961.4000000357628","1","1","false","3","1,1,0,0,1,1,1,0,1","",""
"","html-keyboard-response","291","165248","0.0-430.0","3FE7TXL1LJ96YUPOU02BNM98AW6Q2J","A2FB5UQTR3E0NX","3XEIP58NL09JROET00YR4SOXG94ZLV","","null","<img src=""img/land3.png"" style=""width:200px; border:14px solid green;"">","null","","","","","","","",""
"","image-keyboard-response","292","165635","0.0-432.0","3FE7TXL1LJ96YUPOU02BNM98AW6Q2J","A2FB5UQTR3E0NX","3XEIP58NL09JROET00YR4SOXG94ZLV","","383.19999998807907","img/land3.png","74","385.5","1","1","false","3","1,1,0,0,1,1,1,0,1","",""
"","html-keyboard-response","293","165938","0.0-433.0","3FE7TXL1LJ96YUPOU02BNM98AW6Q2J","A2FB5UQTR3E0NX","3XEIP58NL09JROET00YR4SOXG94ZLV","","null","<img src=""img/land3.png"" style=""width:200px; border:14px solid green;"">","null","","","","","","","",""
"","image-keyboard-response","294","166356","0.0-435.0","3FE7TXL1LJ96YUPOU02BNM98AW6Q2J","A2FB5UQTR3E0NX","3XEIP58NL09JROET00YR4SOXG94ZLV","","414.7999999523163","img/land1.png","75","417.10000002384186","2","1","false","2","1,1,0,0,1,1,1,0,1","",""
"","html-keyboard-response","295","166660","0.0-436.0","3FE7TXL1LJ96YUPOU02BNM98AW6Q2J","A2FB5UQTR3E0NX","3XEIP58NL09JROET00YR4SOXG94ZLV","","null","<img src=""img/land1.png"" style=""width:200px; border:14px solid green;"">","null","","","","","","","",""
"","image-keyboard-response","296","167594","0.0-438.0","3FE7TXL1LJ96YUPOU02BNM98AW6Q2J","A2FB5UQTR3E0NX","3XEIP58NL09JROET00YR4SOXG94ZLV","","931","img/land6.png","75","933.1999999880791","2","1","false","1","1,1,0,0,1,1,1,0,1","",""
"","html-keyboard-response","297","167898","0.0-439.0","3FE7TXL1LJ96YUPOU02BNM98AW6Q2J","A2FB5UQTR3E0NX","3XEIP58NL09JROET00YR4SOXG94ZLV","","null","<img src=""img/land6.png"" style=""width:200px; border:14px solid green;"">","null","","","","","","","",""
"","image-keyboard-response","298","168514","0.0-441.0","3FE7TXL1LJ96YUPOU02BNM98AW6Q2J","A2FB5UQTR3E0NX","3XEIP58NL09JROET00YR4SOXG94ZLV","","613.3000000119209","img/land1.png","76","616.1000000238419","3","1","false","2","1,1,0,0,1,1,1,0,1","",""
"","html-keyboard-response","299","168819","0.0-442.0","3FE7TXL1LJ96YUPOU02BNM98AW6Q2J","A2FB5UQTR3E0NX","3XEIP58NL09JROET00YR4SOXG94ZLV","","null","<img src=""img/land1.png"" style=""width:200px; border:14px solid green;"">","null","","","","","","","",""
"","image-keyboard-response","300","169363","0.0-444.0","3FE7TXL1LJ96YUPOU02BNM98AW6Q2J","A2FB5UQTR3E0NX","3XEIP58NL09JROET00YR4SOXG94ZLV","","541.1000000238419","img/land3.png","74","543.7000000476837","1","1","false","3","1,1,0,0,1,1,1,0,1","",""
"","html-keyboard-response","301","169667","0.0-445.0","3FE7TXL1LJ96YUPOU02BNM98AW6Q2J","A2FB5UQTR3E0NX","3XEIP58NL09JROET00YR4SOXG94ZLV","","null","<img src=""img/land3.png"" style=""width:200px; border:14px solid green;"">","null","","","","","","","",""
"","image-keyboard-response","302","170579","0.0-447.0","3FE7TXL1LJ96YUPOU02BNM98AW6Q2J","A2FB5UQTR3E0NX","3XEIP58NL09JROET00YR4SOXG94ZLV","","908.5","img/land1.png","76","911","3","1","false","2","1,1,0,0,1,1,1,0,1","",""
"","html-keyboard-response","303","170884","0.0-448.0","3FE7TXL1LJ96YUPOU02BNM98AW6Q2J","A2FB5UQTR3E0NX","3XEIP58NL09JROET00YR4SOXG94ZLV","","null","<img src=""img/land1.png"" style=""width:200px; border:14px solid green;"">","null","","","","","","","",""
"","image-keyboard-response","304","171516","0.0-450.0","3FE7TXL1LJ96YUPOU02BNM98AW6Q2J","A2FB5UQTR3E0NX","3XEIP58NL09JROET00YR4SOXG94ZLV","","629.0999999642372","img/land6.png","75","631.7999999523163","2","1","false","1","1,1,0,0,1,1,1,0,1","",""
"","html-keyboard-response","305","171821","0.0-451.0","3FE7TXL1LJ96YUPOU02BNM98AW6Q2J","A2FB5UQTR3E0NX","3XEIP58NL09JROET00YR4SOXG94ZLV","","null","<img src=""img/land6.png"" style=""width:200px; border:14px solid green;"">","null","","","","","","","",""
"","image-keyboard-response","306","172381","0.0-453.0","3FE7TXL1LJ96YUPOU02BNM98AW6Q2J","A2FB5UQTR3E0NX","3XEIP58NL09JROET00YR4SOXG94ZLV","","557.0999999642372","img/land3.png","74","559.6000000238419","1","1","false","3","1,1,0,0,1,1,1,0,1","",""
"","html-keyboard-response","307","172685","0.0-454.0","3FE7TXL1LJ96YUPOU02BNM98AW6Q2J","A2FB5UQTR3E0NX","3XEIP58NL09JROET00YR4SOXG94ZLV","","null","<img src=""img/land3.png"" style=""width:200px; border:14px solid green;"">","null","","","","","","","",""
"","image-keyboard-response","308","173452","0.0-456.0","3FE7TXL1LJ96YUPOU02BNM98AW6Q2J","A2FB5UQTR3E0NX","3XEIP58NL09JROET00YR4SOXG94ZLV","","763.1999999880791","img/land1.png","76","766.3999999761581","3","1","false","2","1,1,0,0,1,1,1,0,1","",""
"","html-keyboard-response","309","173757","0.0-457.0","3FE7TXL1LJ96YUPOU02BNM98AW6Q2J","A2FB5UQTR3E0NX","3XEIP58NL09JROET00YR4SOXG94ZLV","","null","<img src=""img/land1.png"" style=""width:200px; border:14px solid green;"">","null","","","","","","","",""
"","image-keyboard-response","310","174385","0.0-459.0","3FE7TXL1LJ96YUPOU02BNM98AW6Q2J","A2FB5UQTR3E0NX","3XEIP58NL09JROET00YR4SOXG94ZLV","","624.8000000119209","img/land6.png","75","627.3999999761581","2","1","false","1","1,1,0,0,1,1,1,0,1","",""
"","html-keyboard-response","311","174691","0.0-460.0","3FE7TXL1LJ96YUPOU02BNM98AW6Q2J","A2FB5UQTR3E0NX","3XEIP58NL09JROET00YR4SOXG94ZLV","","null","<img src=""img/land6.png"" style=""width:200px; border:14px solid green;"">","null","","","","","","","",""
"","image-keyboard-response","312","175463","0.0-462.0","3FE7TXL1LJ96YUPOU02BNM98AW6Q2J","A2FB5UQTR3E0NX","3XEIP58NL09JROET00YR4SOXG94ZLV","","769.6999999880791","img/land1.png","74","772.4000000357628","1","0","false","2","1,1,0,0,1,1,1,0,1","",""
"","html-keyboard-response","313","175768","0.0-463.0","3FE7TXL1LJ96YUPOU02BNM98AW6Q2J","A2FB5UQTR3E0NX","3XEIP58NL09JROET00YR4SOXG94ZLV","","null","<img src=""img/land1.png"" style=""width:200px;border:14px solid red;"">","null","","","","","","","",""
"","image-keyboard-response","314","176045","0.0-465.0","3FE7TXL1LJ96YUPOU02BNM98AW6Q2J","A2FB5UQTR3E0NX","3XEIP58NL09JROET00YR4SOXG94ZLV","","274","img/land3.png","76","276.5999999642372","3","1","false","3","1,1,0,0,1,1,1,0,1","",""
"","html-keyboard-response","315","176363","0.0-466.0","3FE7TXL1LJ96YUPOU02BNM98AW6Q2J","A2FB5UQTR3E0NX","3XEIP58NL09JROET00YR4SOXG94ZLV","","null","<img src=""img/land3.png"" style=""width:200px; border:14px solid green;"">","null","","","","","","","",""
"","image-keyboard-response","316","176512","0.0-468.0","3FE7TXL1LJ96YUPOU02BNM98AW6Q2J","A2FB5UQTR3E0NX","3XEIP58NL09JROET00YR4SOXG94ZLV","","145.89999997615814","img/land1.png","74","148","1","0","false","2","1,1,0,0,1,1,1,0,1","",""
"","html-keyboard-response","317","176817","0.0-469.0","3FE7TXL1LJ96YUPOU02BNM98AW6Q2J","A2FB5UQTR3E0NX","3XEIP58NL09JROET00YR4SOXG94ZLV","","null","<img src=""img/land1.png"" style=""width:200px;border:14px solid red;"">","null","","","","","","","",""
"","image-keyboard-response","318","177300","0.0-471.0","3FE7TXL1LJ96YUPOU02BNM98AW6Q2J","A2FB5UQTR3E0NX","3XEIP58NL09JROET00YR4SOXG94ZLV","","480.5","img/land1.png","75","482.69999998807907","2","1","false","2","1,1,0,0,1,1,1,0,1","",""
"","html-keyboard-response","319","177604","0.0-472.0","3FE7TXL1LJ96YUPOU02BNM98AW6Q2J","A2FB5UQTR3E0NX","3XEIP58NL09JROET00YR4SOXG94ZLV","","null","<img src=""img/land1.png"" style=""width:200px; border:14px solid green;"">","null","","","","","","","",""
"","image-keyboard-response","320","178371","0.0-474.0","3FE7TXL1LJ96YUPOU02BNM98AW6Q2J","A2FB5UQTR3E0NX","3XEIP58NL09JROET00YR4SOXG94ZLV","","763.6999999880791","img/land3.png","74","766.3999999761581","1","1","false","3","1,1,0,0,1,1,1,0,1","",""
"","html-keyboard-response","321","178676","0.0-475.0","3FE7TXL1LJ96YUPOU02BNM98AW6Q2J","A2FB5UQTR3E0NX","3XEIP58NL09JROET00YR4SOXG94ZLV","","null","<img src=""img/land3.png"" style=""width:200px; border:14px solid green;"">","null","","","","","","","",""
"","image-keyboard-response","322","179403","0.0-477.0","3FE7TXL1LJ96YUPOU02BNM98AW6Q2J","A2FB5UQTR3E0NX","3XEIP58NL09JROET00YR4SOXG94ZLV","","724.4000000357628","img/land1.png","76","726.8999999761581","3","1","false","2","1,1,0,0,1,1,1,0,1","",""
"","html-keyboard-response","323","179707","0.0-478.0","3FE7TXL1LJ96YUPOU02BNM98AW6Q2J","A2FB5UQTR3E0NX","3XEIP58NL09JROET00YR4SOXG94ZLV","","null","<img src=""img/land1.png"" style=""width:200px; border:14px solid green;"">","null","","","","","","","",""
"","image-keyboard-response","324","180194","0.0-480.0","3FE7TXL1LJ96YUPOU02BNM98AW6Q2J","A2FB5UQTR3E0NX","3XEIP58NL09JROET00YR4SOXG94ZLV","","484.89999997615814","img/land3.png","74","487","1","1","false","3","1,1,0,0,1,1,1,0,1","",""
"","html-keyboard-response","325","180497","0.0-481.0","3FE7TXL1LJ96YUPOU02BNM98AW6Q2J","A2FB5UQTR3E0NX","3XEIP58NL09JROET00YR4SOXG94ZLV","","null","<img src=""img/land3.png"" style=""width:200px; border:14px solid green;"">","null","","","","","","","",""
"","image-keyboard-response","326","180936","0.0-483.0","3FE7TXL1LJ96YUPOU02BNM98AW6Q2J","A2FB5UQTR3E0NX","3XEIP58NL09JROET00YR4SOXG94ZLV","","435.30000001192093","img/land3.png","74","438.19999998807907","1","1","false","3","1,1,0,0,1,1,1,0,1","",""
"","html-keyboard-response","327","181240","0.0-484.0","3FE7TXL1LJ96YUPOU02BNM98AW6Q2J","A2FB5UQTR3E0NX","3XEIP58NL09JROET00YR4SOXG94ZLV","","null","<img src=""img/land3.png"" style=""width:200px; border:14px solid green;"">","null","","","","","","","",""
"","image-keyboard-response","328","181996","0.0-486.0","3FE7TXL1LJ96YUPOU02BNM98AW6Q2J","A2FB5UQTR3E0NX","3XEIP58NL09JROET00YR4SOXG94ZLV","","752.5","img/land1.png","76","754.6000000238419","3","1","false","2","1,1,0,0,1,1,1,0,1","",""
"","html-keyboard-response","329","182300","0.0-487.0","3FE7TXL1LJ96YUPOU02BNM98AW6Q2J","A2FB5UQTR3E0NX","3XEIP58NL09JROET00YR4SOXG94ZLV","","null","<img src=""img/land1.png"" style=""width:200px; border:14px solid green;"">","null","","","","","","","",""
"","image-keyboard-response","330","182851","0.0-489.0","3FE7TXL1LJ96YUPOU02BNM98AW6Q2J","A2FB5UQTR3E0NX","3XEIP58NL09JROET00YR4SOXG94ZLV","","547.1000000238419","img/land3.png","74","550.0999999642372","1","1","false","3","1,1,0,0,1,1,1,0,1","",""
"","html-keyboard-response","331","183155","0.0-490.0","3FE7TXL1LJ96YUPOU02BNM98AW6Q2J","A2FB5UQTR3E0NX","3XEIP58NL09JROET00YR4SOXG94ZLV","","null","<img src=""img/land3.png"" style=""width:200px; border:14px solid green;"">","null","","","","","","","",""
"","image-keyboard-response","332","183531","0.0-492.0","3FE7TXL1LJ96YUPOU02BNM98AW6Q2J","A2FB5UQTR3E0NX","3XEIP58NL09JROET00YR4SOXG94ZLV","","373.5999999642372","img/land3.png","74","376","1","1","false","3","1,1,0,0,1,1,1,0,1","",""
"","html-keyboard-response","333","183835","0.0-493.0","3FE7TXL1LJ96YUPOU02BNM98AW6Q2J","A2FB5UQTR3E0NX","3XEIP58NL09JROET00YR4SOXG94ZLV","","null","<img src=""img/land3.png"" style=""width:200px; border:14px solid green;"">","null","","","","","","","",""
"","image-keyboard-response","334","184210","0.0-495.0","3FE7TXL1LJ96YUPOU02BNM98AW6Q2J","A2FB5UQTR3E0NX","3XEIP58NL09JROET00YR4SOXG94ZLV","","371.80000001192093","img/land3.png","74","374.0999999642372","1","1","false","3","1,1,0,0,1,1,1,0,1","",""
"","html-keyboard-response","335","184514","0.0-496.0","3FE7TXL1LJ96YUPOU02BNM98AW6Q2J","A2FB5UQTR3E0NX","3XEIP58NL09JROET00YR4SOXG94ZLV","","null","<img src=""img/land3.png"" style=""width:200px; border:14px solid green;"">","null","","","","","","","",""
"","image-keyboard-response","336","184859","0.0-498.0","3FE7TXL1LJ96YUPOU02BNM98AW6Q2J","A2FB5UQTR3E0NX","3XEIP58NL09JROET00YR4SOXG94ZLV","","341.9000000357628","img/land3.png","74","344.10000002384186","1","1","false","3","1,1,0,0,1,1,1,0,1","",""
"","html-keyboard-response","337","185163","0.0-499.0","3FE7TXL1LJ96YUPOU02BNM98AW6Q2J","A2FB5UQTR3E0NX","3XEIP58NL09JROET00YR4SOXG94ZLV","","null","<img src=""img/land3.png"" style=""width:200px; border:14px solid green;"">","null","","","","","","","",""
"","image-keyboard-response","338","185714","0.0-501.0","3FE7TXL1LJ96YUPOU02BNM98AW6Q2J","A2FB5UQTR3E0NX","3XEIP58NL09JROET00YR4SOXG94ZLV","","547.6999999880791","img/land6.png","75","550.5","2","1","false","1","1,1,0,0,1,1,1,0,1","",""
"","html-keyboard-response","339","186018","0.0-502.0","3FE7TXL1LJ96YUPOU02BNM98AW6Q2J","A2FB5UQTR3E0NX","3XEIP58NL09JROET00YR4SOXG94ZLV","","null","<img src=""img/land6.png"" style=""width:200px; border:14px solid green;"">","null","","","","","","","",""
"","image-keyboard-response","340","186385","0.0-504.0","3FE7TXL1LJ96YUPOU02BNM98AW6Q2J","A2FB5UQTR3E0NX","3XEIP58NL09JROET00YR4SOXG94ZLV","","364.69999998807907","img/land6.png","75","366.9000000357628","2","1","false","1","1,1,0,0,1,1,1,0,1","",""
"","html-keyboard-response","341","186689","0.0-505.0","3FE7TXL1LJ96YUPOU02BNM98AW6Q2J","A2FB5UQTR3E0NX","3XEIP58NL09JROET00YR4SOXG94ZLV","","null","<img src=""img/land6.png"" style=""width:200px; border:14px solid green;"">","null","","","","","","","",""
"","image-keyboard-response","342","187588","0.0-507.0","3FE7TXL1LJ96YUPOU02BNM98AW6Q2J","A2FB5UQTR3E0NX","3XEIP58NL09JROET00YR4SOXG94ZLV","","896.3000000119209","img/land1.png","76","898.4000000357628","3","1","false","2","1,1,0,0,1,1,1,0,1","",""
"","html-keyboard-response","343","187892","0.0-508.0","3FE7TXL1LJ96YUPOU02BNM98AW6Q2J","A2FB5UQTR3E0NX","3XEIP58NL09JROET00YR4SOXG94ZLV","","null","<img src=""img/land1.png"" style=""width:200px; border:14px solid green;"">","null","","","","","","","",""
"","image-keyboard-response","344","188224","0.0-510.0","3FE7TXL1LJ96YUPOU02BNM98AW6Q2J","A2FB5UQTR3E0NX","3XEIP58NL09JROET00YR4SOXG94ZLV","","328","img/land1.png","76","331.0999999642372","3","1","false","2","1,1,0,0,1,1,1,0,1","",""
"","html-keyboard-response","345","188528","0.0-511.0","3FE7TXL1LJ96YUPOU02BNM98AW6Q2J","A2FB5UQTR3E0NX","3XEIP58NL09JROET00YR4SOXG94ZLV","","null","<img src=""img/land1.png"" style=""width:200px; border:14px solid green;"">","null","","","","","","","",""
"","image-keyboard-response","346","189442","0.0-513.0","3FE7TXL1LJ96YUPOU02BNM98AW6Q2J","A2FB5UQTR3E0NX","3XEIP58NL09JROET00YR4SOXG94ZLV","","910.3000000119209","img/land6.png","74","912.8999999761581","1","1","false","1","1,1,0,0,1,1,1,0,1","",""
"","html-keyboard-response","347","189745","0.0-514.0","3FE7TXL1LJ96YUPOU02BNM98AW6Q2J","A2FB5UQTR3E0NX","3XEIP58NL09JROET00YR4SOXG94ZLV","","null","<img src=""img/land6.png"" style=""width:200px; border:14px solid green;"">","null","","","","","","","",""
"","image-keyboard-response","348","190136","0.0-516.0","3FE7TXL1LJ96YUPOU02BNM98AW6Q2J","A2FB5UQTR3E0NX","3XEIP58NL09JROET00YR4SOXG94ZLV","","387.7000000476837","img/land6.png","74","390.5","1","1","false","1","1,1,0,0,1,1,1,0,1","",""
"","html-keyboard-response","349","190441","0.0-517.0","3FE7TXL1LJ96YUPOU02BNM98AW6Q2J","A2FB5UQTR3E0NX","3XEIP58NL09JROET00YR4SOXG94ZLV","","null","<img src=""img/land6.png"" style=""width:200px; border:14px solid green;"">","null","","","","","","","",""
"","image-keyboard-response","350","190787","0.0-519.0","3FE7TXL1LJ96YUPOU02BNM98AW6Q2J","A2FB5UQTR3E0NX","3XEIP58NL09JROET00YR4SOXG94ZLV","","343.5999999642372","img/land6.png","74","345.7999999523163","1","1","false","1","1,1,0,0,1,1,1,0,1","",""
"","html-keyboard-response","351","191091","0.0-520.0","3FE7TXL1LJ96YUPOU02BNM98AW6Q2J","A2FB5UQTR3E0NX","3XEIP58NL09JROET00YR4SOXG94ZLV","","null","<img src=""img/land6.png"" style=""width:200px; border:14px solid green;"">","null","","","","","","","",""
"","image-keyboard-response","352","191460","0.0-522.0","3FE7TXL1LJ96YUPOU02BNM98AW6Q2J","A2FB5UQTR3E0NX","3XEIP58NL09JROET00YR4SOXG94ZLV","","364.80000001192093","img/land6.png","74","368.69999998807907","1","1","false","1","1,1,0,0,1,1,1,0,1","",""
"","html-keyboard-response","353","191764","0.0-523.0","3FE7TXL1LJ96YUPOU02BNM98AW6Q2J","A2FB5UQTR3E0NX","3XEIP58NL09JROET00YR4SOXG94ZLV","","null","<img src=""img/land6.png"" style=""width:200px; border:14px solid green;"">","null","","","","","","","",""
"","image-keyboard-response","354","192387","0.0-525.0","3FE7TXL1LJ96YUPOU02BNM98AW6Q2J","A2FB5UQTR3E0NX","3XEIP58NL09JROET00YR4SOXG94ZLV","","619.3000000119209","img/land1.png","76","621.8000000119209","3","1","false","2","1,1,0,0,1,1,1,0,1","",""
"","html-keyboard-response","355","192691","0.0-526.0","3FE7TXL1LJ96YUPOU02BNM98AW6Q2J","A2FB5UQTR3E0NX","3XEIP58NL09JROET00YR4SOXG94ZLV","","null","<img src=""img/land1.png"" style=""width:200px; border:14px solid green;"">","null","","","","","","","",""
"","image-keyboard-response","356","193101","0.0-528.0","3FE7TXL1LJ96YUPOU02BNM98AW6Q2J","A2FB5UQTR3E0NX","3XEIP58NL09JROET00YR4SOXG94ZLV","","406.60000002384186","img/land1.png","76","409.19999998807907","3","1","false","2","1,1,0,0,1,1,1,0,1","",""
"","html-keyboard-response","357","193405","0.0-529.0","3FE7TXL1LJ96YUPOU02BNM98AW6Q2J","A2FB5UQTR3E0NX","3XEIP58NL09JROET00YR4SOXG94ZLV","","null","<img src=""img/land1.png"" style=""width:200px; border:14px solid green;"">","null","","","","","","","",""
"","image-keyboard-response","358","194118","0.0-531.0","3FE7TXL1LJ96YUPOU02BNM98AW6Q2J","A2FB5UQTR3E0NX","3XEIP58NL09JROET00YR4SOXG94ZLV","","709.5","img/land6.png","74","712.1999999880791","1","1","false","1","1,1,0,0,1,1,1,0,1","",""
"","html-keyboard-response","359","194423","0.0-532.0","3FE7TXL1LJ96YUPOU02BNM98AW6Q2J","A2FB5UQTR3E0NX","3XEIP58NL09JROET00YR4SOXG94ZLV","","null","<img src=""img/land6.png"" style=""width:200px; border:14px solid green;"">","null","","","","","","","",""
"","image-keyboard-response","360","195075","0.0-534.0","3FE7TXL1LJ96YUPOU02BNM98AW6Q2J","A2FB5UQTR3E0NX","3XEIP58NL09JROET00YR4SOXG94ZLV","","647","img/land1.png","76","650.4000000357628","3","1","false","2","1,1,0,0,1,1,1,0,1","",""
"","html-keyboard-response","361","195380","0.0-535.0","3FE7TXL1LJ96YUPOU02BNM98AW6Q2J","A2FB5UQTR3E0NX","3XEIP58NL09JROET00YR4SOXG94ZLV","","null","<img src=""img/land1.png"" style=""width:200px; border:14px solid green;"">","null","","","","","","","",""
"","image-keyboard-response","362","195814","0.0-537.0","3FE7TXL1LJ96YUPOU02BNM98AW6Q2J","A2FB5UQTR3E0NX","3XEIP58NL09JROET00YR4SOXG94ZLV","","431.60000002384186","img/land1.png","76","433.30000001192093","3","1","false","2","1,1,0,0,1,1,1,0,1","",""
"","html-keyboard-response","363","196117","0.0-538.0","3FE7TXL1LJ96YUPOU02BNM98AW6Q2J","A2FB5UQTR3E0NX","3XEIP58NL09JROET00YR4SOXG94ZLV","","null","<img src=""img/land1.png"" style=""width:200px; border:14px solid green;"">","null","","","","","","","",""
"","image-keyboard-response","364","196559","0.0-540.0","3FE7TXL1LJ96YUPOU02BNM98AW6Q2J","A2FB5UQTR3E0NX","3XEIP58NL09JROET00YR4SOXG94ZLV","","439.30000001192093","img/land3.png","75","442.30000001192093","2","0","false","3","1,1,0,0,1,1,1,0,1","",""
"","html-keyboard-response","365","196864","0.0-541.0","3FE7TXL1LJ96YUPOU02BNM98AW6Q2J","A2FB5UQTR3E0NX","3XEIP58NL09JROET00YR4SOXG94ZLV","","null","<img src=""img/land3.png"" style=""width:200px;border:14px solid red;"">","null","","","","","","","",""
"","instructions","366","201470","0.0-543.0","3FE7TXL1LJ96YUPOU02BNM98AW6Q2J","A2FB5UQTR3E0NX","3XEIP58NL09JROET00YR4SOXG94ZLV","[{""page_index"":0,""viewing_time"":4602.699999988079}]","4603","","","","","","","","","",""
"","survey-text","367","205881","0.0-544.0-0.0","3FE7TXL1LJ96YUPOU02BNM98AW6Q2J","A2FB5UQTR3E0NX","3XEIP58NL09JROET00YR4SOXG94ZLV","","4406.100000023842","","","","","","","","","{""Q0"":""39""}",""
"","survey-multi-choice","368","208559","0.0-544.0-1.0","3FE7TXL1LJ96YUPOU02BNM98AW6Q2J","A2FB5UQTR3E0NX","3XEIP58NL09JROET00YR4SOXG94ZLV","","2672.600000023842","","","","","","","","","{""gender"":""F""}","[0]"
"","survey-text","369","236378","0.0-545.0","3FE7TXL1LJ96YUPOU02BNM98AW6Q2J","A2FB5UQTR3E0NX","3XEIP58NL09JROET00YR4SOXG94ZLV","","27815.30000001192","","","","","","","","","{""Q0"":""A2FB5UQTR3E0NX""}",""
