"success","trial_type","trial_index","time_elapsed","internal_node_id","assignmentID","mturkID","hitID","view_history","rt","stimulus","key_press","reactionTime","a","r","s","cond","reward_cond","reward_cond_actual","reward_matrix_idx","responses","question_order"
"true","fullscreen","0","2623","0.0-0.0","3K772S5NP9XLGH214UAIG9QWIMVHEX","A2FYFCD16Z3PCC","3VAOOVPI3ZEZMZXPLZ7IWDDZ15LLLX","","","","","","","","","","","","","",""
"","instructions","1","27779","0.0-1.0","3K772S5NP9XLGH214UAIG9QWIMVHEX","A2FYFCD16Z3PCC","3VAOOVPI3ZEZMZXPLZ7IWDDZ15LLLX","[{""page_index"":0,""viewing_time"":1573},{""page_index"":1,""viewing_time"":1533},{""page_index"":2,""viewing_time"":1926},{""page_index"":3,""viewing_time"":12095},{""page_index"":4,""viewing_time"":1669},{""page_index"":5,""viewing_time"":4657},{""page_index"":6,""viewing_time"":1702}]","25156","","","","","","","","","","","",""
"","image-keyboard-response","2","28532","0.0-2.0","3K772S5NP9XLGH214UAIG9QWIMVHEX","A2FYFCD16Z3PCC","3VAOOVPI3ZEZMZXPLZ7IWDDZ15LLLX","","752","img/land1.png","74","753","1","1","1","2","1,0.7,0.7,0.7,1,0.7,0.7,0.7,1","1,0.7,0.7,0.7,1,0.7,0.7,0.7,1","","",""
"","html-keyboard-response","3","28844","0.0-3.0","3K772S5NP9XLGH214UAIG9QWIMVHEX","A2FYFCD16Z3PCC","3VAOOVPI3ZEZMZXPLZ7IWDDZ15LLLX","","null","<img src=""img/land1.png"" style=""width:200px; border:14px solid green;"">","null","","","","","","","","","",""
"","image-keyboard-response","4","29796","0.0-4.0","3K772S5NP9XLGH214UAIG9QWIMVHEX","A2FYFCD16Z3PCC","3VAOOVPI3ZEZMZXPLZ7IWDDZ15LLLX","","951","img/land2.png","74","951","1","1","2","2","1,0.7,0.7,0.7,1,0.7,0.7,0.7,1","1,0.7,0.7,0.7,1,0.7,0.7,0.7,1","","",""
"","html-keyboard-response","5","30098","0.0-5.0","3K772S5NP9XLGH214UAIG9QWIMVHEX","A2FYFCD16Z3PCC","3VAOOVPI3ZEZMZXPLZ7IWDDZ15LLLX","","null","<img src=""img/land2.png"" style=""width:200px; border:14px solid green;"">","null","","","","","","","","","",""
"","image-keyboard-response","6","30724","0.0-6.0","3K772S5NP9XLGH214UAIG9QWIMVHEX","A2FYFCD16Z3PCC","3VAOOVPI3ZEZMZXPLZ7IWDDZ15LLLX","","625","img/land2.png","74","626","1","1","2","2","1,0.7,0.7,0.7,1,0.7,0.7,0.7,1","1,0.7,0.7,0.7,1,0.7,0.7,0.7,1","","",""
"","html-keyboard-response","7","31025","0.0-7.0","3K772S5NP9XLGH214UAIG9QWIMVHEX","A2FYFCD16Z3PCC","3VAOOVPI3ZEZMZXPLZ7IWDDZ15LLLX","","null","<img src=""img/land2.png"" style=""width:200px; border:14px solid green;"">","null","","","","","","","","","",""
"","image-keyboard-response","8","31692","0.0-8.0","3K772S5NP9XLGH214UAIG9QWIMVHEX","A2FYFCD16Z3PCC","3VAOOVPI3ZEZMZXPLZ7IWDDZ15LLLX","","667","img/land3.png","74","667","1","1","3","2","1,0.7,0.7,0.7,1,0.7,0.7,0.7,1","1,0.7,0.7,0.7,1,0.7,0.7,0.7,1","","",""
"","html-keyboard-response","9","31993","0.0-9.0","3K772S5NP9XLGH214UAIG9QWIMVHEX","A2FYFCD16Z3PCC","3VAOOVPI3ZEZMZXPLZ7IWDDZ15LLLX","","null","<img src=""img/land3.png"" style=""width:200px; border:14px solid green;"">","null","","","","","","","","","",""
"","image-keyboard-response","10","32748","0.0-10.0","3K772S5NP9XLGH214UAIG9QWIMVHEX","A2FYFCD16Z3PCC","3VAOOVPI3ZEZMZXPLZ7IWDDZ15LLLX","","754","img/land1.png","74","756","1","1","1","2","1,0.7,0.7,0.7,1,0.7,0.7,0.7,1","1,0.7,0.7,0.7,1,0.7,0.7,0.7,1","","",""
"","html-keyboard-response","11","33049","0.0-11.0","3K772S5NP9XLGH214UAIG9QWIMVHEX","A2FYFCD16Z3PCC","3VAOOVPI3ZEZMZXPLZ7IWDDZ15LLLX","","null","<img src=""img/land1.png"" style=""width:200px; border:14px solid green;"">","null","","","","","","","","","",""
"","image-keyboard-response","12","33308","0.0-12.0","3K772S5NP9XLGH214UAIG9QWIMVHEX","A2FYFCD16Z3PCC","3VAOOVPI3ZEZMZXPLZ7IWDDZ15LLLX","","258","img/land1.png","74","258","1","1","1","2","1,0.7,0.7,0.7,1,0.7,0.7,0.7,1","1,0.7,0.7,0.7,1,0.7,0.7,0.7,1","","",""
"","html-keyboard-response","13","33609","0.0-13.0","3K772S5NP9XLGH214UAIG9QWIMVHEX","A2FYFCD16Z3PCC","3VAOOVPI3ZEZMZXPLZ7IWDDZ15LLLX","","null","<img src=""img/land1.png"" style=""width:200px; border:14px solid green;"">","null","","","","","","","","","",""
"","image-keyboard-response","14","33835","0.0-14.0","3K772S5NP9XLGH214UAIG9QWIMVHEX","A2FYFCD16Z3PCC","3VAOOVPI3ZEZMZXPLZ7IWDDZ15LLLX","","227","img/land3.png","74","227","1","1","3","2","1,0.7,0.7,0.7,1,0.7,0.7,0.7,1","1,0.7,0.7,0.7,1,0.7,0.7,0.7,1","","",""
"","html-keyboard-response","15","34136","0.0-15.0","3K772S5NP9XLGH214UAIG9QWIMVHEX","A2FYFCD16Z3PCC","3VAOOVPI3ZEZMZXPLZ7IWDDZ15LLLX","","null","<img src=""img/land3.png"" style=""width:200px; border:14px solid green;"">","null","","","","","","","","","",""
"","image-keyboard-response","16","34356","0.0-16.0","3K772S5NP9XLGH214UAIG9QWIMVHEX","A2FYFCD16Z3PCC","3VAOOVPI3ZEZMZXPLZ7IWDDZ15LLLX","","218","img/land3.png","74","219","1","0","3","2","1,0.7,0.7,0.7,1,0.7,0.7,0.7,1","1,0.7,0.7,0.7,1,0.7,0.7,0.7,1","","",""
"","html-keyboard-response","17","34657","0.0-17.0","3K772S5NP9XLGH214UAIG9QWIMVHEX","A2FYFCD16Z3PCC","3VAOOVPI3ZEZMZXPLZ7IWDDZ15LLLX","","null","<img src=""img/land3.png"" style=""width:200px;border:14px solid red;"">","null","","","","","","","","","",""
"","image-keyboard-response","18","34980","0.0-18.0","3K772S5NP9XLGH214UAIG9QWIMVHEX","A2FYFCD16Z3PCC","3VAOOVPI3ZEZMZXPLZ7IWDDZ15LLLX","","322","img/land3.png","74","323","1","0","3","2","1,0.7,0.7,0.7,1,0.7,0.7,0.7,1","1,0.7,0.7,0.7,1,0.7,0.7,0.7,1","","",""
"","html-keyboard-response","19","35282","0.0-19.0","3K772S5NP9XLGH214UAIG9QWIMVHEX","A2FYFCD16Z3PCC","3VAOOVPI3ZEZMZXPLZ7IWDDZ15LLLX","","null","<img src=""img/land3.png"" style=""width:200px;border:14px solid red;"">","null","","","","","","","","","",""
"","image-keyboard-response","20","35564","0.0-20.0","3K772S5NP9XLGH214UAIG9QWIMVHEX","A2FYFCD16Z3PCC","3VAOOVPI3ZEZMZXPLZ7IWDDZ15LLLX","","281","img/land3.png","74","282","1","1","3","2","1,0.7,0.7,0.7,1,0.7,0.7,0.7,1","1,0.7,0.7,0.7,1,0.7,0.7,0.7,1","","",""
"","html-keyboard-response","21","35865","0.0-21.0","3K772S5NP9XLGH214UAIG9QWIMVHEX","A2FYFCD16Z3PCC","3VAOOVPI3ZEZMZXPLZ7IWDDZ15LLLX","","null","<img src=""img/land3.png"" style=""width:200px; border:14px solid green;"">","null","","","","","","","","","",""
"","image-keyboard-response","22","36108","0.0-22.0","3K772S5NP9XLGH214UAIG9QWIMVHEX","A2FYFCD16Z3PCC","3VAOOVPI3ZEZMZXPLZ7IWDDZ15LLLX","","243","img/land1.png","74","243","1","1","1","2","1,0.7,0.7,0.7,1,0.7,0.7,0.7,1","1,0.7,0.7,0.7,1,0.7,0.7,0.7,1","","",""
"","html-keyboard-response","23","36414","0.0-23.0","3K772S5NP9XLGH214UAIG9QWIMVHEX","A2FYFCD16Z3PCC","3VAOOVPI3ZEZMZXPLZ7IWDDZ15LLLX","","null","<img src=""img/land1.png"" style=""width:200px; border:14px solid green;"">","null","","","","","","","","","",""
"","image-keyboard-response","24","36611","0.0-24.0","3K772S5NP9XLGH214UAIG9QWIMVHEX","A2FYFCD16Z3PCC","3VAOOVPI3ZEZMZXPLZ7IWDDZ15LLLX","","197","img/land2.png","74","197","1","1","2","2","1,0.7,0.7,0.7,1,0.7,0.7,0.7,1","1,0.7,0.7,0.7,1,0.7,0.7,0.7,1","","",""
"","html-keyboard-response","25","36913","0.0-25.0","3K772S5NP9XLGH214UAIG9QWIMVHEX","A2FYFCD16Z3PCC","3VAOOVPI3ZEZMZXPLZ7IWDDZ15LLLX","","null","<img src=""img/land2.png"" style=""width:200px; border:14px solid green;"">","null","","","","","","","","","",""
"","image-keyboard-response","26","37100","0.0-26.0","3K772S5NP9XLGH214UAIG9QWIMVHEX","A2FYFCD16Z3PCC","3VAOOVPI3ZEZMZXPLZ7IWDDZ15LLLX","","185","img/land3.png","74","186","1","1","3","2","1,0.7,0.7,0.7,1,0.7,0.7,0.7,1","1,0.7,0.7,0.7,1,0.7,0.7,0.7,1","","",""
"","html-keyboard-response","27","37400","0.0-27.0","3K772S5NP9XLGH214UAIG9QWIMVHEX","A2FYFCD16Z3PCC","3VAOOVPI3ZEZMZXPLZ7IWDDZ15LLLX","","null","<img src=""img/land3.png"" style=""width:200px; border:14px solid green;"">","null","","","","","","","","","",""
"","image-keyboard-response","28","37588","0.0-28.0","3K772S5NP9XLGH214UAIG9QWIMVHEX","A2FYFCD16Z3PCC","3VAOOVPI3ZEZMZXPLZ7IWDDZ15LLLX","","187","img/land2.png","74","187","1","1","2","2","1,0.7,0.7,0.7,1,0.7,0.7,0.7,1","1,0.7,0.7,0.7,1,0.7,0.7,0.7,1","","",""
"","html-keyboard-response","29","37889","0.0-29.0","3K772S5NP9XLGH214UAIG9QWIMVHEX","A2FYFCD16Z3PCC","3VAOOVPI3ZEZMZXPLZ7IWDDZ15LLLX","","null","<img src=""img/land2.png"" style=""width:200px; border:14px solid green;"">","null","","","","","","","","","",""
"","image-keyboard-response","30","38020","0.0-30.0","3K772S5NP9XLGH214UAIG9QWIMVHEX","A2FYFCD16Z3PCC","3VAOOVPI3ZEZMZXPLZ7IWDDZ15LLLX","","131","img/land3.png","74","131","1","1","3","2","1,0.7,0.7,0.7,1,0.7,0.7,0.7,1","1,0.7,0.7,0.7,1,0.7,0.7,0.7,1","","",""
"","html-keyboard-response","31","38322","0.0-31.0","3K772S5NP9XLGH214UAIG9QWIMVHEX","A2FYFCD16Z3PCC","3VAOOVPI3ZEZMZXPLZ7IWDDZ15LLLX","","null","<img src=""img/land3.png"" style=""width:200px; border:14px solid green;"">","null","","","","","","","","","",""
"","image-keyboard-response","32","38595","0.0-32.0","3K772S5NP9XLGH214UAIG9QWIMVHEX","A2FYFCD16Z3PCC","3VAOOVPI3ZEZMZXPLZ7IWDDZ15LLLX","","274","img/land1.png","74","274","1","1","1","2","1,0.7,0.7,0.7,1,0.7,0.7,0.7,1","1,0.7,0.7,0.7,1,0.7,0.7,0.7,1","","",""
"","html-keyboard-response","33","38897","0.0-33.0","3K772S5NP9XLGH214UAIG9QWIMVHEX","A2FYFCD16Z3PCC","3VAOOVPI3ZEZMZXPLZ7IWDDZ15LLLX","","null","<img src=""img/land1.png"" style=""width:200px; border:14px solid green;"">","null","","","","","","","","","",""
"","image-keyboard-response","34","39036","0.0-34.0","3K772S5NP9XLGH214UAIG9QWIMVHEX","A2FYFCD16Z3PCC","3VAOOVPI3ZEZMZXPLZ7IWDDZ15LLLX","","138","img/land3.png","74","139","1","1","3","2","1,0.7,0.7,0.7,1,0.7,0.7,0.7,1","1,0.7,0.7,0.7,1,0.7,0.7,0.7,1","","",""
"","html-keyboard-response","35","39337","0.0-35.0","3K772S5NP9XLGH214UAIG9QWIMVHEX","A2FYFCD16Z3PCC","3VAOOVPI3ZEZMZXPLZ7IWDDZ15LLLX","","null","<img src=""img/land3.png"" style=""width:200px; border:14px solid green;"">","null","","","","","","","","","",""
"","image-keyboard-response","36","39395","0.0-36.0","3K772S5NP9XLGH214UAIG9QWIMVHEX","A2FYFCD16Z3PCC","3VAOOVPI3ZEZMZXPLZ7IWDDZ15LLLX","","58","img/land3.png","74","59","1","1","3","2","1,0.7,0.7,0.7,1,0.7,0.7,0.7,1","1,0.7,0.7,0.7,1,0.7,0.7,0.7,1","","",""
"","html-keyboard-response","37","39697","0.0-37.0","3K772S5NP9XLGH214UAIG9QWIMVHEX","A2FYFCD16Z3PCC","3VAOOVPI3ZEZMZXPLZ7IWDDZ15LLLX","","null","<img src=""img/land3.png"" style=""width:200px; border:14px solid green;"">","null","","","","","","","","","",""
"","image-keyboard-response","38","39739","0.0-38.0","3K772S5NP9XLGH214UAIG9QWIMVHEX","A2FYFCD16Z3PCC","3VAOOVPI3ZEZMZXPLZ7IWDDZ15LLLX","","42","img/land3.png","74","43","1","0","3","2","1,0.7,0.7,0.7,1,0.7,0.7,0.7,1","1,0.7,0.7,0.7,1,0.7,0.7,0.7,1","","",""
"","html-keyboard-response","39","40040","0.0-39.0","3K772S5NP9XLGH214UAIG9QWIMVHEX","A2FYFCD16Z3PCC","3VAOOVPI3ZEZMZXPLZ7IWDDZ15LLLX","","null","<img src=""img/land3.png"" style=""width:200px;border:14px solid red;"">","null","","","","","","","","","",""
"","image-keyboard-response","40","40172","0.0-40.0","3K772S5NP9XLGH214UAIG9QWIMVHEX","A2FYFCD16Z3PCC","3VAOOVPI3ZEZMZXPLZ7IWDDZ15LLLX","","130","img/land3.png","74","133","1","1","3","2","1,0.7,0.7,0.7,1,0.7,0.7,0.7,1","1,0.7,0.7,0.7,1,0.7,0.7,0.7,1","","",""
"","html-keyboard-response","41","40473","0.0-41.0","3K772S5NP9XLGH214UAIG9QWIMVHEX","A2FYFCD16Z3PCC","3VAOOVPI3ZEZMZXPLZ7IWDDZ15LLLX","","null","<img src=""img/land3.png"" style=""width:200px; border:14px solid green;"">","null","","","","","","","","","",""
"","image-keyboard-response","42","40507","0.0-42.0","3K772S5NP9XLGH214UAIG9QWIMVHEX","A2FYFCD16Z3PCC","3VAOOVPI3ZEZMZXPLZ7IWDDZ15LLLX","","34","img/land3.png","74","35","1","1","3","2","1,0.7,0.7,0.7,1,0.7,0.7,0.7,1","1,0.7,0.7,0.7,1,0.7,0.7,0.7,1","","",""
"","html-keyboard-response","43","40808","0.0-43.0","3K772S5NP9XLGH214UAIG9QWIMVHEX","A2FYFCD16Z3PCC","3VAOOVPI3ZEZMZXPLZ7IWDDZ15LLLX","","null","<img src=""img/land3.png"" style=""width:200px; border:14px solid green;"">","null","","","","","","","","","",""
"","image-keyboard-response","44","40948","0.0-44.0","3K772S5NP9XLGH214UAIG9QWIMVHEX","A2FYFCD16Z3PCC","3VAOOVPI3ZEZMZXPLZ7IWDDZ15LLLX","","139","img/land2.png","74","139","1","1","2","2","1,0.7,0.7,0.7,1,0.7,0.7,0.7,1","1,0.7,0.7,0.7,1,0.7,0.7,0.7,1","","",""
"","html-keyboard-response","45","41249","0.0-45.0","3K772S5NP9XLGH214UAIG9QWIMVHEX","A2FYFCD16Z3PCC","3VAOOVPI3ZEZMZXPLZ7IWDDZ15LLLX","","null","<img src=""img/land2.png"" style=""width:200px; border:14px solid green;"">","null","","","","","","","","","",""
"","image-keyboard-response","46","41371","0.0-46.0","3K772S5NP9XLGH214UAIG9QWIMVHEX","A2FYFCD16Z3PCC","3VAOOVPI3ZEZMZXPLZ7IWDDZ15LLLX","","123","img/land1.png","74","123","1","1","1","2","1,0.7,0.7,0.7,1,0.7,0.7,0.7,1","1,0.7,0.7,0.7,1,0.7,0.7,0.7,1","","",""
"","html-keyboard-response","47","41672","0.0-47.0","3K772S5NP9XLGH214UAIG9QWIMVHEX","A2FYFCD16Z3PCC","3VAOOVPI3ZEZMZXPLZ7IWDDZ15LLLX","","null","<img src=""img/land1.png"" style=""width:200px; border:14px solid green;"">","null","","","","","","","","","",""
"","image-keyboard-response","48","41740","0.0-48.0","3K772S5NP9XLGH214UAIG9QWIMVHEX","A2FYFCD16Z3PCC","3VAOOVPI3ZEZMZXPLZ7IWDDZ15LLLX","","67","img/land1.png","74","67","1","1","1","2","1,0.7,0.7,0.7,1,0.7,0.7,0.7,1","1,0.7,0.7,0.7,1,0.7,0.7,0.7,1","","",""
"","html-keyboard-response","49","42041","0.0-49.0","3K772S5NP9XLGH214UAIG9QWIMVHEX","A2FYFCD16Z3PCC","3VAOOVPI3ZEZMZXPLZ7IWDDZ15LLLX","","null","<img src=""img/land1.png"" style=""width:200px; border:14px solid green;"">","null","","","","","","","","","",""
"","image-keyboard-response","50","42108","0.0-50.0","3K772S5NP9XLGH214UAIG9QWIMVHEX","A2FYFCD16Z3PCC","3VAOOVPI3ZEZMZXPLZ7IWDDZ15LLLX","","65","img/land3.png","74","65","1","1","3","2","1,0.7,0.7,0.7,1,0.7,0.7,0.7,1","1,0.7,0.7,0.7,1,0.7,0.7,0.7,1","","",""
"","html-keyboard-response","51","42409","0.0-51.0","3K772S5NP9XLGH214UAIG9QWIMVHEX","A2FYFCD16Z3PCC","3VAOOVPI3ZEZMZXPLZ7IWDDZ15LLLX","","null","<img src=""img/land3.png"" style=""width:200px; border:14px solid green;"">","null","","","","","","","","","",""
"","image-keyboard-response","52","42507","0.0-52.0","3K772S5NP9XLGH214UAIG9QWIMVHEX","A2FYFCD16Z3PCC","3VAOOVPI3ZEZMZXPLZ7IWDDZ15LLLX","","98","img/land2.png","74","98","1","0","2","2","1,0.7,0.7,0.7,1,0.7,0.7,0.7,1","1,0.7,0.7,0.7,1,0.7,0.7,0.7,1","","",""
"","html-keyboard-response","53","42809","0.0-53.0","3K772S5NP9XLGH214UAIG9QWIMVHEX","A2FYFCD16Z3PCC","3VAOOVPI3ZEZMZXPLZ7IWDDZ15LLLX","","null","<img src=""img/land2.png"" style=""width:200px;border:14px solid red;"">","null","","","","","","","","","",""
"","image-keyboard-response","54","42916","0.0-54.0","3K772S5NP9XLGH214UAIG9QWIMVHEX","A2FYFCD16Z3PCC","3VAOOVPI3ZEZMZXPLZ7IWDDZ15LLLX","","106","img/land3.png","74","107","1","1","3","2","1,0.7,0.7,0.7,1,0.7,0.7,0.7,1","1,0.7,0.7,0.7,1,0.7,0.7,0.7,1","","",""
"","html-keyboard-response","55","43217","0.0-55.0","3K772S5NP9XLGH214UAIG9QWIMVHEX","A2FYFCD16Z3PCC","3VAOOVPI3ZEZMZXPLZ7IWDDZ15LLLX","","null","<img src=""img/land3.png"" style=""width:200px; border:14px solid green;"">","null","","","","","","","","","",""
"","image-keyboard-response","56","43300","0.0-56.0","3K772S5NP9XLGH214UAIG9QWIMVHEX","A2FYFCD16Z3PCC","3VAOOVPI3ZEZMZXPLZ7IWDDZ15LLLX","","82","img/land2.png","74","82","1","0","2","2","1,0.7,0.7,0.7,1,0.7,0.7,0.7,1","1,0.7,0.7,0.7,1,0.7,0.7,0.7,1","","",""
"","html-keyboard-response","57","43600","0.0-57.0","3K772S5NP9XLGH214UAIG9QWIMVHEX","A2FYFCD16Z3PCC","3VAOOVPI3ZEZMZXPLZ7IWDDZ15LLLX","","null","<img src=""img/land2.png"" style=""width:200px;border:14px solid red;"">","null","","","","","","","","","",""
"","image-keyboard-response","58","43675","0.0-58.0","3K772S5NP9XLGH214UAIG9QWIMVHEX","A2FYFCD16Z3PCC","3VAOOVPI3ZEZMZXPLZ7IWDDZ15LLLX","","75","img/land3.png","74","75","1","0","3","2","1,0.7,0.7,0.7,1,0.7,0.7,0.7,1","1,0.7,0.7,0.7,1,0.7,0.7,0.7,1","","",""
"","html-keyboard-response","59","43977","0.0-59.0","3K772S5NP9XLGH214UAIG9QWIMVHEX","A2FYFCD16Z3PCC","3VAOOVPI3ZEZMZXPLZ7IWDDZ15LLLX","","null","<img src=""img/land3.png"" style=""width:200px;border:14px solid red;"">","null","","","","","","","","","",""
"","image-keyboard-response","60","44051","0.0-60.0","3K772S5NP9XLGH214UAIG9QWIMVHEX","A2FYFCD16Z3PCC","3VAOOVPI3ZEZMZXPLZ7IWDDZ15LLLX","","75","img/land2.png","74","75","1","1","2","2","1,0.7,0.7,0.7,1,0.7,0.7,0.7,1","1,0.7,0.7,0.7,1,0.7,0.7,0.7,1","","",""
"","html-keyboard-response","61","44353","0.0-61.0","3K772S5NP9XLGH214UAIG9QWIMVHEX","A2FYFCD16Z3PCC","3VAOOVPI3ZEZMZXPLZ7IWDDZ15LLLX","","null","<img src=""img/land2.png"" style=""width:200px; border:14px solid green;"">","null","","","","","","","","","",""
"","image-keyboard-response","62","44484","0.0-62.0","3K772S5NP9XLGH214UAIG9QWIMVHEX","A2FYFCD16Z3PCC","3VAOOVPI3ZEZMZXPLZ7IWDDZ15LLLX","","131","img/land3.png","74","131","1","0","3","2","1,0.7,0.7,0.7,1,0.7,0.7,0.7,1","1,0.7,0.7,0.7,1,0.7,0.7,0.7,1","","",""
"","html-keyboard-response","63","44785","0.0-63.0","3K772S5NP9XLGH214UAIG9QWIMVHEX","A2FYFCD16Z3PCC","3VAOOVPI3ZEZMZXPLZ7IWDDZ15LLLX","","null","<img src=""img/land3.png"" style=""width:200px;border:14px solid red;"">","null","","","","","","","","","",""
"","image-keyboard-response","64","44931","0.0-64.0","3K772S5NP9XLGH214UAIG9QWIMVHEX","A2FYFCD16Z3PCC","3VAOOVPI3ZEZMZXPLZ7IWDDZ15LLLX","","147","img/land1.png","74","147","1","1","1","2","1,0.7,0.7,0.7,1,0.7,0.7,0.7,1","1,0.7,0.7,0.7,1,0.7,0.7,0.7,1","","",""
"","html-keyboard-response","65","45233","0.0-65.0","3K772S5NP9XLGH214UAIG9QWIMVHEX","A2FYFCD16Z3PCC","3VAOOVPI3ZEZMZXPLZ7IWDDZ15LLLX","","null","<img src=""img/land1.png"" style=""width:200px; border:14px solid green;"">","null","","","","","","","","","",""
"","image-keyboard-response","66","45363","0.0-66.0","3K772S5NP9XLGH214UAIG9QWIMVHEX","A2FYFCD16Z3PCC","3VAOOVPI3ZEZMZXPLZ7IWDDZ15LLLX","","130","img/land3.png","74","132","1","1","3","2","1,0.7,0.7,0.7,1,0.7,0.7,0.7,1","1,0.7,0.7,0.7,1,0.7,0.7,0.7,1","","",""
"","html-keyboard-response","67","45665","0.0-67.0","3K772S5NP9XLGH214UAIG9QWIMVHEX","A2FYFCD16Z3PCC","3VAOOVPI3ZEZMZXPLZ7IWDDZ15LLLX","","null","<img src=""img/land3.png"" style=""width:200px; border:14px solid green;"">","null","","","","","","","","","",""
"","image-keyboard-response","68","45812","0.0-68.0","3K772S5NP9XLGH214UAIG9QWIMVHEX","A2FYFCD16Z3PCC","3VAOOVPI3ZEZMZXPLZ7IWDDZ15LLLX","","147","img/land3.png","74","147","1","1","3","2","1,0.7,0.7,0.7,1,0.7,0.7,0.7,1","1,0.7,0.7,0.7,1,0.7,0.7,0.7,1","","",""
"","html-keyboard-response","69","46113","0.0-69.0","3K772S5NP9XLGH214UAIG9QWIMVHEX","A2FYFCD16Z3PCC","3VAOOVPI3ZEZMZXPLZ7IWDDZ15LLLX","","null","<img src=""img/land3.png"" style=""width:200px; border:14px solid green;"">","null","","","","","","","","","",""
"","image-keyboard-response","70","46251","0.0-70.0","3K772S5NP9XLGH214UAIG9QWIMVHEX","A2FYFCD16Z3PCC","3VAOOVPI3ZEZMZXPLZ7IWDDZ15LLLX","","137","img/land3.png","74","137","1","1","3","2","1,0.7,0.7,0.7,1,0.7,0.7,0.7,1","1,0.7,0.7,0.7,1,0.7,0.7,0.7,1","","",""
"","html-keyboard-response","71","46554","0.0-71.0","3K772S5NP9XLGH214UAIG9QWIMVHEX","A2FYFCD16Z3PCC","3VAOOVPI3ZEZMZXPLZ7IWDDZ15LLLX","","null","<img src=""img/land3.png"" style=""width:200px; border:14px solid green;"">","null","","","","","","","","","",""
"","image-keyboard-response","72","46644","0.0-72.0","3K772S5NP9XLGH214UAIG9QWIMVHEX","A2FYFCD16Z3PCC","3VAOOVPI3ZEZMZXPLZ7IWDDZ15LLLX","","90","img/land2.png","74","90","1","0","2","2","1,0.7,0.7,0.7,1,0.7,0.7,0.7,1","1,0.7,0.7,0.7,1,0.7,0.7,0.7,1","","",""
"","html-keyboard-response","73","46945","0.0-73.0","3K772S5NP9XLGH214UAIG9QWIMVHEX","A2FYFCD16Z3PCC","3VAOOVPI3ZEZMZXPLZ7IWDDZ15LLLX","","null","<img src=""img/land2.png"" style=""width:200px;border:14px solid red;"">","null","","","","","","","","","",""
"","image-keyboard-response","74","47044","0.0-74.0","3K772S5NP9XLGH214UAIG9QWIMVHEX","A2FYFCD16Z3PCC","3VAOOVPI3ZEZMZXPLZ7IWDDZ15LLLX","","99","img/land2.png","74","99","1","1","2","2","1,0.7,0.7,0.7,1,0.7,0.7,0.7,1","1,0.7,0.7,0.7,1,0.7,0.7,0.7,1","","",""
"","html-keyboard-response","75","47345","0.0-75.0","3K772S5NP9XLGH214UAIG9QWIMVHEX","A2FYFCD16Z3PCC","3VAOOVPI3ZEZMZXPLZ7IWDDZ15LLLX","","null","<img src=""img/land2.png"" style=""width:200px; border:14px solid green;"">","null","","","","","","","","","",""
"","image-keyboard-response","76","47515","0.0-76.0","3K772S5NP9XLGH214UAIG9QWIMVHEX","A2FYFCD16Z3PCC","3VAOOVPI3ZEZMZXPLZ7IWDDZ15LLLX","","170","img/land1.png","74","170","1","1","1","2","1,0.7,0.7,0.7,1,0.7,0.7,0.7,1","1,0.7,0.7,0.7,1,0.7,0.7,0.7,1","","",""
"","html-keyboard-response","77","47818","0.0-77.0","3K772S5NP9XLGH214UAIG9QWIMVHEX","A2FYFCD16Z3PCC","3VAOOVPI3ZEZMZXPLZ7IWDDZ15LLLX","","null","<img src=""img/land1.png"" style=""width:200px; border:14px solid green;"">","null","","","","","","","","","",""
"","image-keyboard-response","78","47940","0.0-78.0","3K772S5NP9XLGH214UAIG9QWIMVHEX","A2FYFCD16Z3PCC","3VAOOVPI3ZEZMZXPLZ7IWDDZ15LLLX","","121","img/land3.png","74","122","1","1","3","2","1,0.7,0.7,0.7,1,0.7,0.7,0.7,1","1,0.7,0.7,0.7,1,0.7,0.7,0.7,1","","",""
"","html-keyboard-response","79","48242","0.0-79.0","3K772S5NP9XLGH214UAIG9QWIMVHEX","A2FYFCD16Z3PCC","3VAOOVPI3ZEZMZXPLZ7IWDDZ15LLLX","","null","<img src=""img/land3.png"" style=""width:200px; border:14px solid green;"">","null","","","","","","","","","",""
"","image-keyboard-response","80","48340","0.0-80.0","3K772S5NP9XLGH214UAIG9QWIMVHEX","A2FYFCD16Z3PCC","3VAOOVPI3ZEZMZXPLZ7IWDDZ15LLLX","","97","img/land1.png","74","97","1","1","1","2","1,0.7,0.7,0.7,1,0.7,0.7,0.7,1","1,0.7,0.7,0.7,1,0.7,0.7,0.7,1","","",""
"","html-keyboard-response","81","48641","0.0-81.0","3K772S5NP9XLGH214UAIG9QWIMVHEX","A2FYFCD16Z3PCC","3VAOOVPI3ZEZMZXPLZ7IWDDZ15LLLX","","null","<img src=""img/land1.png"" style=""width:200px; border:14px solid green;"">","null","","","","","","","","","",""
"","image-keyboard-response","82","48748","0.0-82.0","3K772S5NP9XLGH214UAIG9QWIMVHEX","A2FYFCD16Z3PCC","3VAOOVPI3ZEZMZXPLZ7IWDDZ15LLLX","","106","img/land3.png","74","108","1","1","3","2","1,0.7,0.7,0.7,1,0.7,0.7,0.7,1","1,0.7,0.7,0.7,1,0.7,0.7,0.7,1","","",""
"","html-keyboard-response","83","49049","0.0-83.0","3K772S5NP9XLGH214UAIG9QWIMVHEX","A2FYFCD16Z3PCC","3VAOOVPI3ZEZMZXPLZ7IWDDZ15LLLX","","null","<img src=""img/land3.png"" style=""width:200px; border:14px solid green;"">","null","","","","","","","","","",""
"","image-keyboard-response","84","49156","0.0-84.0","3K772S5NP9XLGH214UAIG9QWIMVHEX","A2FYFCD16Z3PCC","3VAOOVPI3ZEZMZXPLZ7IWDDZ15LLLX","","106","img/land1.png","74","107","1","1","1","2","1,0.7,0.7,0.7,1,0.7,0.7,0.7,1","1,0.7,0.7,0.7,1,0.7,0.7,0.7,1","","",""
"","html-keyboard-response","85","49458","0.0-85.0","3K772S5NP9XLGH214UAIG9QWIMVHEX","A2FYFCD16Z3PCC","3VAOOVPI3ZEZMZXPLZ7IWDDZ15LLLX","","null","<img src=""img/land1.png"" style=""width:200px; border:14px solid green;"">","null","","","","","","","","","",""
"","image-keyboard-response","86","49539","0.0-86.0","3K772S5NP9XLGH214UAIG9QWIMVHEX","A2FYFCD16Z3PCC","3VAOOVPI3ZEZMZXPLZ7IWDDZ15LLLX","","80","img/land3.png","74","82","1","0","3","2","1,0.7,0.7,0.7,1,0.7,0.7,0.7,1","1,0.7,0.7,0.7,1,0.7,0.7,0.7,1","","",""
"","html-keyboard-response","87","49841","0.0-87.0","3K772S5NP9XLGH214UAIG9QWIMVHEX","A2FYFCD16Z3PCC","3VAOOVPI3ZEZMZXPLZ7IWDDZ15LLLX","","null","<img src=""img/land3.png"" style=""width:200px;border:14px solid red;"">","null","","","","","","","","","",""
"","image-keyboard-response","88","49940","0.0-88.0","3K772S5NP9XLGH214UAIG9QWIMVHEX","A2FYFCD16Z3PCC","3VAOOVPI3ZEZMZXPLZ7IWDDZ15LLLX","","98","img/land3.png","74","98","1","1","3","2","1,0.7,0.7,0.7,1,0.7,0.7,0.7,1","1,0.7,0.7,0.7,1,0.7,0.7,0.7,1","","",""
"","html-keyboard-response","89","50240","0.0-89.0","3K772S5NP9XLGH214UAIG9QWIMVHEX","A2FYFCD16Z3PCC","3VAOOVPI3ZEZMZXPLZ7IWDDZ15LLLX","","null","<img src=""img/land3.png"" style=""width:200px; border:14px solid green;"">","null","","","","","","","","","",""
"","image-keyboard-response","90","50340","0.0-90.0","3K772S5NP9XLGH214UAIG9QWIMVHEX","A2FYFCD16Z3PCC","3VAOOVPI3ZEZMZXPLZ7IWDDZ15LLLX","","99","img/land3.png","74","99","1","1","3","2","1,0.7,0.7,0.7,1,0.7,0.7,0.7,1","1,0.7,0.7,0.7,1,0.7,0.7,0.7,1","","",""
"","html-keyboard-response","91","50641","0.0-91.0","3K772S5NP9XLGH214UAIG9QWIMVHEX","A2FYFCD16Z3PCC","3VAOOVPI3ZEZMZXPLZ7IWDDZ15LLLX","","null","<img src=""img/land3.png"" style=""width:200px; border:14px solid green;"">","null","","","","","","","","","",""
"","image-keyboard-response","92","50724","0.0-92.0","3K772S5NP9XLGH214UAIG9QWIMVHEX","A2FYFCD16Z3PCC","3VAOOVPI3ZEZMZXPLZ7IWDDZ15LLLX","","82","img/land3.png","74","83","1","0","3","2","1,0.7,0.7,0.7,1,0.7,0.7,0.7,1","1,0.7,0.7,0.7,1,0.7,0.7,0.7,1","","",""
"","html-keyboard-response","93","51024","0.0-93.0","3K772S5NP9XLGH214UAIG9QWIMVHEX","A2FYFCD16Z3PCC","3VAOOVPI3ZEZMZXPLZ7IWDDZ15LLLX","","null","<img src=""img/land3.png"" style=""width:200px;border:14px solid red;"">","null","","","","","","","","","",""
"","image-keyboard-response","94","51116","0.0-94.0","3K772S5NP9XLGH214UAIG9QWIMVHEX","A2FYFCD16Z3PCC","3VAOOVPI3ZEZMZXPLZ7IWDDZ15LLLX","","91","img/land3.png","74","91","1","0","3","2","1,0.7,0.7,0.7,1,0.7,0.7,0.7,1","1,0.7,0.7,0.7,1,0.7,0.7,0.7,1","","",""
"","html-keyboard-response","95","51416","0.0-95.0","3K772S5NP9XLGH214UAIG9QWIMVHEX","A2FYFCD16Z3PCC","3VAOOVPI3ZEZMZXPLZ7IWDDZ15LLLX","","null","<img src=""img/land3.png"" style=""width:200px;border:14px solid red;"">","null","","","","","","","","","",""
"","image-keyboard-response","96","51508","0.0-96.0","3K772S5NP9XLGH214UAIG9QWIMVHEX","A2FYFCD16Z3PCC","3VAOOVPI3ZEZMZXPLZ7IWDDZ15LLLX","","90","img/land3.png","74","91","1","1","3","2","1,0.7,0.7,0.7,1,0.7,0.7,0.7,1","1,0.7,0.7,0.7,1,0.7,0.7,0.7,1","","",""
"","html-keyboard-response","97","51813","0.0-97.0","3K772S5NP9XLGH214UAIG9QWIMVHEX","A2FYFCD16Z3PCC","3VAOOVPI3ZEZMZXPLZ7IWDDZ15LLLX","","null","<img src=""img/land3.png"" style=""width:200px; border:14px solid green;"">","null","","","","","","","","","",""
"","image-keyboard-response","98","51891","0.0-98.0","3K772S5NP9XLGH214UAIG9QWIMVHEX","A2FYFCD16Z3PCC","3VAOOVPI3ZEZMZXPLZ7IWDDZ15LLLX","","78","img/land3.png","74","78","1","0","3","2","1,0.7,0.7,0.7,1,0.7,0.7,0.7,1","1,0.7,0.7,0.7,1,0.7,0.7,0.7,1","","",""
"","html-keyboard-response","99","52192","0.0-99.0","3K772S5NP9XLGH214UAIG9QWIMVHEX","A2FYFCD16Z3PCC","3VAOOVPI3ZEZMZXPLZ7IWDDZ15LLLX","","null","<img src=""img/land3.png"" style=""width:200px;border:14px solid red;"">","null","","","","","","","","","",""
"","image-keyboard-response","100","52276","0.0-100.0","3K772S5NP9XLGH214UAIG9QWIMVHEX","A2FYFCD16Z3PCC","3VAOOVPI3ZEZMZXPLZ7IWDDZ15LLLX","","82","img/land3.png","74","83","1","1","3","2","1,0.7,0.7,0.7,1,0.7,0.7,0.7,1","1,0.7,0.7,0.7,1,0.7,0.7,0.7,1","","",""
"","html-keyboard-response","101","52576","0.0-101.0","3K772S5NP9XLGH214UAIG9QWIMVHEX","A2FYFCD16Z3PCC","3VAOOVPI3ZEZMZXPLZ7IWDDZ15LLLX","","null","<img src=""img/land3.png"" style=""width:200px; border:14px solid green;"">","null","","","","","","","","","",""
"","image-keyboard-response","102","52660","0.0-102.0","3K772S5NP9XLGH214UAIG9QWIMVHEX","A2FYFCD16Z3PCC","3VAOOVPI3ZEZMZXPLZ7IWDDZ15LLLX","","82","img/land3.png","74","84","1","0","3","2","1,0.7,0.7,0.7,1,0.7,0.7,0.7,1","1,0.7,0.7,0.7,1,0.7,0.7,0.7,1","","",""
"","html-keyboard-response","103","52961","0.0-103.0","3K772S5NP9XLGH214UAIG9QWIMVHEX","A2FYFCD16Z3PCC","3VAOOVPI3ZEZMZXPLZ7IWDDZ15LLLX","","null","<img src=""img/land3.png"" style=""width:200px;border:14px solid red;"">","null","","","","","","","","","",""
"","image-keyboard-response","104","53052","0.0-104.0","3K772S5NP9XLGH214UAIG9QWIMVHEX","A2FYFCD16Z3PCC","3VAOOVPI3ZEZMZXPLZ7IWDDZ15LLLX","","90","img/land1.png","74","91","1","1","1","2","1,0.7,0.7,0.7,1,0.7,0.7,0.7,1","1,0.7,0.7,0.7,1,0.7,0.7,0.7,1","","",""
"","html-keyboard-response","105","53353","0.0-105.0","3K772S5NP9XLGH214UAIG9QWIMVHEX","A2FYFCD16Z3PCC","3VAOOVPI3ZEZMZXPLZ7IWDDZ15LLLX","","null","<img src=""img/land1.png"" style=""width:200px; border:14px solid green;"">","null","","","","","","","","","",""
"","image-keyboard-response","106","53636","0.0-106.0","3K772S5NP9XLGH214UAIG9QWIMVHEX","A2FYFCD16Z3PCC","3VAOOVPI3ZEZMZXPLZ7IWDDZ15LLLX","","281","img/land3.png","74","282","1","1","3","2","1,0.7,0.7,0.7,1,0.7,0.7,0.7,1","1,0.7,0.7,0.7,1,0.7,0.7,0.7,1","","",""
"","html-keyboard-response","107","53937","0.0-107.0","3K772S5NP9XLGH214UAIG9QWIMVHEX","A2FYFCD16Z3PCC","3VAOOVPI3ZEZMZXPLZ7IWDDZ15LLLX","","null","<img src=""img/land3.png"" style=""width:200px; border:14px solid green;"">","null","","","","","","","","","",""
"","image-keyboard-response","108","54060","0.0-108.0","3K772S5NP9XLGH214UAIG9QWIMVHEX","A2FYFCD16Z3PCC","3VAOOVPI3ZEZMZXPLZ7IWDDZ15LLLX","","122","img/land1.png","74","122","1","1","1","2","1,0.7,0.7,0.7,1,0.7,0.7,0.7,1","1,0.7,0.7,0.7,1,0.7,0.7,0.7,1","","",""
"","html-keyboard-response","109","54361","0.0-109.0","3K772S5NP9XLGH214UAIG9QWIMVHEX","A2FYFCD16Z3PCC","3VAOOVPI3ZEZMZXPLZ7IWDDZ15LLLX","","null","<img src=""img/land1.png"" style=""width:200px; border:14px solid green;"">","null","","","","","","","","","",""
"","image-keyboard-response","110","54468","0.0-110.0","3K772S5NP9XLGH214UAIG9QWIMVHEX","A2FYFCD16Z3PCC","3VAOOVPI3ZEZMZXPLZ7IWDDZ15LLLX","","106","img/land3.png","74","107","1","0","3","2","1,0.7,0.7,0.7,1,0.7,0.7,0.7,1","1,0.7,0.7,0.7,1,0.7,0.7,0.7,1","","",""
"","html-keyboard-response","111","54769","0.0-111.0","3K772S5NP9XLGH214UAIG9QWIMVHEX","A2FYFCD16Z3PCC","3VAOOVPI3ZEZMZXPLZ7IWDDZ15LLLX","","null","<img src=""img/land3.png"" style=""width:200px;border:14px solid red;"">","null","","","","","","","","","",""
"","image-keyboard-response","112","54844","0.0-112.0","3K772S5NP9XLGH214UAIG9QWIMVHEX","A2FYFCD16Z3PCC","3VAOOVPI3ZEZMZXPLZ7IWDDZ15LLLX","","73","img/land1.png","74","73","1","1","1","2","1,0.7,0.7,0.7,1,0.7,0.7,0.7,1","1,0.7,0.7,0.7,1,0.7,0.7,0.7,1","","",""
"","html-keyboard-response","113","55145","0.0-113.0","3K772S5NP9XLGH214UAIG9QWIMVHEX","A2FYFCD16Z3PCC","3VAOOVPI3ZEZMZXPLZ7IWDDZ15LLLX","","null","<img src=""img/land1.png"" style=""width:200px; border:14px solid green;"">","null","","","","","","","","","",""
"","image-keyboard-response","114","55260","0.0-114.0","3K772S5NP9XLGH214UAIG9QWIMVHEX","A2FYFCD16Z3PCC","3VAOOVPI3ZEZMZXPLZ7IWDDZ15LLLX","","113","img/land3.png","74","114","1","1","3","2","1,0.7,0.7,0.7,1,0.7,0.7,0.7,1","1,0.7,0.7,0.7,1,0.7,0.7,0.7,1","","",""
"","html-keyboard-response","115","55562","0.0-115.0","3K772S5NP9XLGH214UAIG9QWIMVHEX","A2FYFCD16Z3PCC","3VAOOVPI3ZEZMZXPLZ7IWDDZ15LLLX","","null","<img src=""img/land3.png"" style=""width:200px; border:14px solid green;"">","null","","","","","","","","","",""
"","image-keyboard-response","116","56156","0.0-116.0","3K772S5NP9XLGH214UAIG9QWIMVHEX","A2FYFCD16Z3PCC","3VAOOVPI3ZEZMZXPLZ7IWDDZ15LLLX","","594","img/land3.png","75","594","2","0","3","2","1,0.7,0.7,0.7,1,0.7,0.7,0.7,1","1,0.7,0.7,0.7,1,0.7,0.7,0.7,1","","",""
"","html-keyboard-response","117","56456","0.0-117.0","3K772S5NP9XLGH214UAIG9QWIMVHEX","A2FYFCD16Z3PCC","3VAOOVPI3ZEZMZXPLZ7IWDDZ15LLLX","","null","<img src=""img/land3.png"" style=""width:200px;border:14px solid red;"">","null","","","","","","","","","",""
"","image-keyboard-response","118","57132","0.0-118.0","3K772S5NP9XLGH214UAIG9QWIMVHEX","A2FYFCD16Z3PCC","3VAOOVPI3ZEZMZXPLZ7IWDDZ15LLLX","","675","img/land2.png","74","675","1","1","2","2","1,0.7,0.7,0.7,1,0.7,0.7,0.7,1","1,0.7,0.7,0.7,1,0.7,0.7,0.7,1","","",""
"","html-keyboard-response","119","57433","0.0-119.0","3K772S5NP9XLGH214UAIG9QWIMVHEX","A2FYFCD16Z3PCC","3VAOOVPI3ZEZMZXPLZ7IWDDZ15LLLX","","null","<img src=""img/land2.png"" style=""width:200px; border:14px solid green;"">","null","","","","","","","","","",""
"","image-keyboard-response","120","57756","0.0-120.0","3K772S5NP9XLGH214UAIG9QWIMVHEX","A2FYFCD16Z3PCC","3VAOOVPI3ZEZMZXPLZ7IWDDZ15LLLX","","322","img/land3.png","74","322","1","1","3","2","1,0.7,0.7,0.7,1,0.7,0.7,0.7,1","1,0.7,0.7,0.7,1,0.7,0.7,0.7,1","","",""
"","html-keyboard-response","121","58058","0.0-121.0","3K772S5NP9XLGH214UAIG9QWIMVHEX","A2FYFCD16Z3PCC","3VAOOVPI3ZEZMZXPLZ7IWDDZ15LLLX","","null","<img src=""img/land3.png"" style=""width:200px; border:14px solid green;"">","null","","","","","","","","","",""
"","image-keyboard-response","122","58540","0.0-122.0","3K772S5NP9XLGH214UAIG9QWIMVHEX","A2FYFCD16Z3PCC","3VAOOVPI3ZEZMZXPLZ7IWDDZ15LLLX","","481","img/land3.png","75","482","2","1","3","2","1,0.7,0.7,0.7,1,0.7,0.7,0.7,1","1,0.7,0.7,0.7,1,0.7,0.7,0.7,1","","",""
"","html-keyboard-response","123","58841","0.0-123.0","3K772S5NP9XLGH214UAIG9QWIMVHEX","A2FYFCD16Z3PCC","3VAOOVPI3ZEZMZXPLZ7IWDDZ15LLLX","","null","<img src=""img/land3.png"" style=""width:200px; border:14px solid green;"">","null","","","","","","","","","",""
"","image-keyboard-response","124","59195","0.0-124.0","3K772S5NP9XLGH214UAIG9QWIMVHEX","A2FYFCD16Z3PCC","3VAOOVPI3ZEZMZXPLZ7IWDDZ15LLLX","","356","img/land3.png","75","356","2","1","3","2","1,0.7,0.7,0.7,1,0.7,0.7,0.7,1","1,0.7,0.7,0.7,1,0.7,0.7,0.7,1","","",""
"","html-keyboard-response","125","59496","0.0-125.0","3K772S5NP9XLGH214UAIG9QWIMVHEX","A2FYFCD16Z3PCC","3VAOOVPI3ZEZMZXPLZ7IWDDZ15LLLX","","null","<img src=""img/land3.png"" style=""width:200px; border:14px solid green;"">","null","","","","","","","","","",""
"","image-keyboard-response","126","59739","0.0-126.0","3K772S5NP9XLGH214UAIG9QWIMVHEX","A2FYFCD16Z3PCC","3VAOOVPI3ZEZMZXPLZ7IWDDZ15LLLX","","242","img/land3.png","76","242","3","1","3","2","1,0.7,0.7,0.7,1,0.7,0.7,0.7,1","1,0.7,0.7,0.7,1,0.7,0.7,0.7,1","","",""
"","html-keyboard-response","127","60040","0.0-127.0","3K772S5NP9XLGH214UAIG9QWIMVHEX","A2FYFCD16Z3PCC","3VAOOVPI3ZEZMZXPLZ7IWDDZ15LLLX","","null","<img src=""img/land3.png"" style=""width:200px; border:14px solid green;"">","null","","","","","","","","","",""
"","image-keyboard-response","128","60307","0.0-128.0","3K772S5NP9XLGH214UAIG9QWIMVHEX","A2FYFCD16Z3PCC","3VAOOVPI3ZEZMZXPLZ7IWDDZ15LLLX","","266","img/land3.png","76","267","3","1","3","2","1,0.7,0.7,0.7,1,0.7,0.7,0.7,1","1,0.7,0.7,0.7,1,0.7,0.7,0.7,1","","",""
"","html-keyboard-response","129","60609","0.0-129.0","3K772S5NP9XLGH214UAIG9QWIMVHEX","A2FYFCD16Z3PCC","3VAOOVPI3ZEZMZXPLZ7IWDDZ15LLLX","","null","<img src=""img/land3.png"" style=""width:200px; border:14px solid green;"">","null","","","","","","","","","",""
"","image-keyboard-response","130","60851","0.0-130.0","3K772S5NP9XLGH214UAIG9QWIMVHEX","A2FYFCD16Z3PCC","3VAOOVPI3ZEZMZXPLZ7IWDDZ15LLLX","","242","img/land3.png","76","242","3","1","3","2","1,0.7,0.7,0.7,1,0.7,0.7,0.7,1","1,0.7,0.7,0.7,1,0.7,0.7,0.7,1","","",""
"","html-keyboard-response","131","61152","0.0-131.0","3K772S5NP9XLGH214UAIG9QWIMVHEX","A2FYFCD16Z3PCC","3VAOOVPI3ZEZMZXPLZ7IWDDZ15LLLX","","null","<img src=""img/land3.png"" style=""width:200px; border:14px solid green;"">","null","","","","","","","","","",""
"","image-keyboard-response","132","61283","0.0-132.0","3K772S5NP9XLGH214UAIG9QWIMVHEX","A2FYFCD16Z3PCC","3VAOOVPI3ZEZMZXPLZ7IWDDZ15LLLX","","131","img/land3.png","76","131","3","1","3","2","1,0.7,0.7,0.7,1,0.7,0.7,0.7,1","1,0.7,0.7,0.7,1,0.7,0.7,0.7,1","","",""
"","html-keyboard-response","133","61584","0.0-133.0","3K772S5NP9XLGH214UAIG9QWIMVHEX","A2FYFCD16Z3PCC","3VAOOVPI3ZEZMZXPLZ7IWDDZ15LLLX","","null","<img src=""img/land3.png"" style=""width:200px; border:14px solid green;"">","null","","","","","","","","","",""
"","image-keyboard-response","134","61707","0.0-134.0","3K772S5NP9XLGH214UAIG9QWIMVHEX","A2FYFCD16Z3PCC","3VAOOVPI3ZEZMZXPLZ7IWDDZ15LLLX","","122","img/land1.png","76","123","3","1","1","2","1,0.7,0.7,0.7,1,0.7,0.7,0.7,1","1,0.7,0.7,0.7,1,0.7,0.7,0.7,1","","",""
"","html-keyboard-response","135","62009","0.0-135.0","3K772S5NP9XLGH214UAIG9QWIMVHEX","A2FYFCD16Z3PCC","3VAOOVPI3ZEZMZXPLZ7IWDDZ15LLLX","","null","<img src=""img/land1.png"" style=""width:200px; border:14px solid green;"">","null","","","","","","","","","",""
"","image-keyboard-response","136","62227","0.0-136.0","3K772S5NP9XLGH214UAIG9QWIMVHEX","A2FYFCD16Z3PCC","3VAOOVPI3ZEZMZXPLZ7IWDDZ15LLLX","","217","img/land3.png","76","218","3","1","3","2","1,0.7,0.7,0.7,1,0.7,0.7,0.7,1","1,0.7,0.7,0.7,1,0.7,0.7,0.7,1","","",""
"","html-keyboard-response","137","62528","0.0-137.0","3K772S5NP9XLGH214UAIG9QWIMVHEX","A2FYFCD16Z3PCC","3VAOOVPI3ZEZMZXPLZ7IWDDZ15LLLX","","null","<img src=""img/land3.png"" style=""width:200px; border:14px solid green;"">","null","","","","","","","","","",""
"","image-keyboard-response","138","62723","0.0-138.0","3K772S5NP9XLGH214UAIG9QWIMVHEX","A2FYFCD16Z3PCC","3VAOOVPI3ZEZMZXPLZ7IWDDZ15LLLX","","194","img/land3.png","76","194","3","1","3","2","1,0.7,0.7,0.7,1,0.7,0.7,0.7,1","1,0.7,0.7,0.7,1,0.7,0.7,0.7,1","","",""
"","html-keyboard-response","139","63024","0.0-139.0","3K772S5NP9XLGH214UAIG9QWIMVHEX","A2FYFCD16Z3PCC","3VAOOVPI3ZEZMZXPLZ7IWDDZ15LLLX","","null","<img src=""img/land3.png"" style=""width:200px; border:14px solid green;"">","null","","","","","","","","","",""
"","image-keyboard-response","140","63259","0.0-140.0","3K772S5NP9XLGH214UAIG9QWIMVHEX","A2FYFCD16Z3PCC","3VAOOVPI3ZEZMZXPLZ7IWDDZ15LLLX","","235","img/land2.png","76","235","3","1","2","2","1,0.7,0.7,0.7,1,0.7,0.7,0.7,1","1,0.7,0.7,0.7,1,0.7,0.7,0.7,1","","",""
"","html-keyboard-response","141","63560","0.0-141.0","3K772S5NP9XLGH214UAIG9QWIMVHEX","A2FYFCD16Z3PCC","3VAOOVPI3ZEZMZXPLZ7IWDDZ15LLLX","","null","<img src=""img/land2.png"" style=""width:200px; border:14px solid green;"">","null","","","","","","","","","",""
"","image-keyboard-response","142","63723","0.0-142.0","3K772S5NP9XLGH214UAIG9QWIMVHEX","A2FYFCD16Z3PCC","3VAOOVPI3ZEZMZXPLZ7IWDDZ15LLLX","","163","img/land3.png","76","163","3","1","3","2","1,0.7,0.7,0.7,1,0.7,0.7,0.7,1","1,0.7,0.7,0.7,1,0.7,0.7,0.7,1","","",""
"","html-keyboard-response","143","64025","0.0-143.0","3K772S5NP9XLGH214UAIG9QWIMVHEX","A2FYFCD16Z3PCC","3VAOOVPI3ZEZMZXPLZ7IWDDZ15LLLX","","null","<img src=""img/land3.png"" style=""width:200px; border:14px solid green;"">","null","","","","","","","","","",""
"","image-keyboard-response","144","64195","0.0-144.0","3K772S5NP9XLGH214UAIG9QWIMVHEX","A2FYFCD16Z3PCC","3VAOOVPI3ZEZMZXPLZ7IWDDZ15LLLX","","169","img/land3.png","76","170","3","1","3","2","1,0.7,0.7,0.7,1,0.7,0.7,0.7,1","1,0.7,0.7,0.7,1,0.7,0.7,0.7,1","","",""
"","html-keyboard-response","145","64497","0.0-145.0","3K772S5NP9XLGH214UAIG9QWIMVHEX","A2FYFCD16Z3PCC","3VAOOVPI3ZEZMZXPLZ7IWDDZ15LLLX","","null","<img src=""img/land3.png"" style=""width:200px; border:14px solid green;"">","null","","","","","","","","","",""
"","image-keyboard-response","146","64715","0.0-146.0","3K772S5NP9XLGH214UAIG9QWIMVHEX","A2FYFCD16Z3PCC","3VAOOVPI3ZEZMZXPLZ7IWDDZ15LLLX","","217","img/land3.png","76","218","3","1","3","2","1,0.7,0.7,0.7,1,0.7,0.7,0.7,1","1,0.7,0.7,0.7,1,0.7,0.7,0.7,1","","",""
"","html-keyboard-response","147","65017","0.0-147.0","3K772S5NP9XLGH214UAIG9QWIMVHEX","A2FYFCD16Z3PCC","3VAOOVPI3ZEZMZXPLZ7IWDDZ15LLLX","","null","<img src=""img/land3.png"" style=""width:200px; border:14px solid green;"">","null","","","","","","","","","",""
"","image-keyboard-response","148","65187","0.0-148.0","3K772S5NP9XLGH214UAIG9QWIMVHEX","A2FYFCD16Z3PCC","3VAOOVPI3ZEZMZXPLZ7IWDDZ15LLLX","","169","img/land3.png","76","170","3","1","3","2","1,0.7,0.7,0.7,1,0.7,0.7,0.7,1","1,0.7,0.7,0.7,1,0.7,0.7,0.7,1","","",""
"","html-keyboard-response","149","65488","0.0-149.0","3K772S5NP9XLGH214UAIG9QWIMVHEX","A2FYFCD16Z3PCC","3VAOOVPI3ZEZMZXPLZ7IWDDZ15LLLX","","null","<img src=""img/land3.png"" style=""width:200px; border:14px solid green;"">","null","","","","","","","","","",""
"","image-keyboard-response","150","65691","0.0-150.0","3K772S5NP9XLGH214UAIG9QWIMVHEX","A2FYFCD16Z3PCC","3VAOOVPI3ZEZMZXPLZ7IWDDZ15LLLX","","203","img/land3.png","76","203","3","1","3","2","1,0.7,0.7,0.7,1,0.7,0.7,0.7,1","1,0.7,0.7,0.7,1,0.7,0.7,0.7,1","","",""
"","html-keyboard-response","151","65993","0.0-151.0","3K772S5NP9XLGH214UAIG9QWIMVHEX","A2FYFCD16Z3PCC","3VAOOVPI3ZEZMZXPLZ7IWDDZ15LLLX","","null","<img src=""img/land3.png"" style=""width:200px; border:14px solid green;"">","null","","","","","","","","","",""
"","image-keyboard-response","152","66059","0.0-152.0","3K772S5NP9XLGH214UAIG9QWIMVHEX","A2FYFCD16Z3PCC","3VAOOVPI3ZEZMZXPLZ7IWDDZ15LLLX","","66","img/land3.png","76","67","3","1","3","2","1,0.7,0.7,0.7,1,0.7,0.7,0.7,1","1,0.7,0.7,0.7,1,0.7,0.7,0.7,1","","",""
"","html-keyboard-response","153","66360","0.0-153.0","3K772S5NP9XLGH214UAIG9QWIMVHEX","A2FYFCD16Z3PCC","3VAOOVPI3ZEZMZXPLZ7IWDDZ15LLLX","","null","<img src=""img/land3.png"" style=""width:200px; border:14px solid green;"">","null","","","","","","","","","",""
"","image-keyboard-response","154","66499","0.0-154.0","3K772S5NP9XLGH214UAIG9QWIMVHEX","A2FYFCD16Z3PCC","3VAOOVPI3ZEZMZXPLZ7IWDDZ15LLLX","","138","img/land3.png","76","139","3","1","3","2","1,0.7,0.7,0.7,1,0.7,0.7,0.7,1","1,0.7,0.7,0.7,1,0.7,0.7,0.7,1","","",""
"","html-keyboard-response","155","66800","0.0-155.0","3K772S5NP9XLGH214UAIG9QWIMVHEX","A2FYFCD16Z3PCC","3VAOOVPI3ZEZMZXPLZ7IWDDZ15LLLX","","null","<img src=""img/land3.png"" style=""width:200px; border:14px solid green;"">","null","","","","","","","","","",""
"","image-keyboard-response","156","66875","0.0-156.0","3K772S5NP9XLGH214UAIG9QWIMVHEX","A2FYFCD16Z3PCC","3VAOOVPI3ZEZMZXPLZ7IWDDZ15LLLX","","75","img/land1.png","76","75","3","1","1","2","1,0.7,0.7,0.7,1,0.7,0.7,0.7,1","1,0.7,0.7,0.7,1,0.7,0.7,0.7,1","","",""
"","html-keyboard-response","157","67177","0.0-157.0","3K772S5NP9XLGH214UAIG9QWIMVHEX","A2FYFCD16Z3PCC","3VAOOVPI3ZEZMZXPLZ7IWDDZ15LLLX","","null","<img src=""img/land1.png"" style=""width:200px; border:14px solid green;"">","null","","","","","","","","","",""
"","image-keyboard-response","158","67259","0.0-158.0","3K772S5NP9XLGH214UAIG9QWIMVHEX","A2FYFCD16Z3PCC","3VAOOVPI3ZEZMZXPLZ7IWDDZ15LLLX","","81","img/land2.png","76","81","3","1","2","2","1,0.7,0.7,0.7,1,0.7,0.7,0.7,1","1,0.7,0.7,0.7,1,0.7,0.7,0.7,1","","",""
"","html-keyboard-response","159","67560","0.0-159.0","3K772S5NP9XLGH214UAIG9QWIMVHEX","A2FYFCD16Z3PCC","3VAOOVPI3ZEZMZXPLZ7IWDDZ15LLLX","","null","<img src=""img/land2.png"" style=""width:200px; border:14px solid green;"">","null","","","","","","","","","",""
"","image-keyboard-response","160","67643","0.0-160.0","3K772S5NP9XLGH214UAIG9QWIMVHEX","A2FYFCD16Z3PCC","3VAOOVPI3ZEZMZXPLZ7IWDDZ15LLLX","","83","img/land3.png","76","83","3","1","3","2","1,0.7,0.7,0.7,1,0.7,0.7,0.7,1","1,0.7,0.7,0.7,1,0.7,0.7,0.7,1","","",""
"","html-keyboard-response","161","67944","0.0-161.0","3K772S5NP9XLGH214UAIG9QWIMVHEX","A2FYFCD16Z3PCC","3VAOOVPI3ZEZMZXPLZ7IWDDZ15LLLX","","null","<img src=""img/land3.png"" style=""width:200px; border:14px solid green;"">","null","","","","","","","","","",""
"","image-keyboard-response","162","68027","0.0-162.0","3K772S5NP9XLGH214UAIG9QWIMVHEX","A2FYFCD16Z3PCC","3VAOOVPI3ZEZMZXPLZ7IWDDZ15LLLX","","84","img/land3.png","76","84","3","1","3","2","1,0.7,0.7,0.7,1,0.7,0.7,0.7,1","1,0.7,0.7,0.7,1,0.7,0.7,0.7,1","","",""
"","html-keyboard-response","163","68328","0.0-163.0","3K772S5NP9XLGH214UAIG9QWIMVHEX","A2FYFCD16Z3PCC","3VAOOVPI3ZEZMZXPLZ7IWDDZ15LLLX","","null","<img src=""img/land3.png"" style=""width:200px; border:14px solid green;"">","null","","","","","","","","","",""
"","image-keyboard-response","164","68403","0.0-164.0","3K772S5NP9XLGH214UAIG9QWIMVHEX","A2FYFCD16Z3PCC","3VAOOVPI3ZEZMZXPLZ7IWDDZ15LLLX","","74","img/land3.png","76","76","3","1","3","2","1,0.7,0.7,0.7,1,0.7,0.7,0.7,1","1,0.7,0.7,0.7,1,0.7,0.7,0.7,1","","",""
"","html-keyboard-response","165","68704","0.0-165.0","3K772S5NP9XLGH214UAIG9QWIMVHEX","A2FYFCD16Z3PCC","3VAOOVPI3ZEZMZXPLZ7IWDDZ15LLLX","","null","<img src=""img/land3.png"" style=""width:200px; border:14px solid green;"">","null","","","","","","","","","",""
"","image-keyboard-response","166","68787","0.0-166.0","3K772S5NP9XLGH214UAIG9QWIMVHEX","A2FYFCD16Z3PCC","3VAOOVPI3ZEZMZXPLZ7IWDDZ15LLLX","","82","img/land3.png","76","82","3","1","3","2","1,0.7,0.7,0.7,1,0.7,0.7,0.7,1","1,0.7,0.7,0.7,1,0.7,0.7,0.7,1","","",""
"","html-keyboard-response","167","69089","0.0-167.0","3K772S5NP9XLGH214UAIG9QWIMVHEX","A2FYFCD16Z3PCC","3VAOOVPI3ZEZMZXPLZ7IWDDZ15LLLX","","null","<img src=""img/land3.png"" style=""width:200px; border:14px solid green;"">","null","","","","","","","","","",""
"","image-keyboard-response","168","69187","0.0-168.0","3K772S5NP9XLGH214UAIG9QWIMVHEX","A2FYFCD16Z3PCC","3VAOOVPI3ZEZMZXPLZ7IWDDZ15LLLX","","98","img/land3.png","76","98","3","1","3","2","1,0.7,0.7,0.7,1,0.7,0.7,0.7,1","1,0.7,0.7,0.7,1,0.7,0.7,0.7,1","","",""
"","html-keyboard-response","169","69488","0.0-169.0","3K772S5NP9XLGH214UAIG9QWIMVHEX","A2FYFCD16Z3PCC","3VAOOVPI3ZEZMZXPLZ7IWDDZ15LLLX","","null","<img src=""img/land3.png"" style=""width:200px; border:14px solid green;"">","null","","","","","","","","","",""
"","image-keyboard-response","170","69555","0.0-170.0","3K772S5NP9XLGH214UAIG9QWIMVHEX","A2FYFCD16Z3PCC","3VAOOVPI3ZEZMZXPLZ7IWDDZ15LLLX","","66","img/land3.png","76","67","3","1","3","2","1,0.7,0.7,0.7,1,0.7,0.7,0.7,1","1,0.7,0.7,0.7,1,0.7,0.7,0.7,1","","",""
"","html-keyboard-response","171","69856","0.0-171.0","3K772S5NP9XLGH214UAIG9QWIMVHEX","A2FYFCD16Z3PCC","3VAOOVPI3ZEZMZXPLZ7IWDDZ15LLLX","","null","<img src=""img/land3.png"" style=""width:200px; border:14px solid green;"">","null","","","","","","","","","",""
"","image-keyboard-response","172","69923","0.0-172.0","3K772S5NP9XLGH214UAIG9QWIMVHEX","A2FYFCD16Z3PCC","3VAOOVPI3ZEZMZXPLZ7IWDDZ15LLLX","","66","img/land3.png","76","67","3","1","3","2","1,0.7,0.7,0.7,1,0.7,0.7,0.7,1","1,0.7,0.7,0.7,1,0.7,0.7,0.7,1","","",""
"","html-keyboard-response","173","70233","0.0-173.0","3K772S5NP9XLGH214UAIG9QWIMVHEX","A2FYFCD16Z3PCC","3VAOOVPI3ZEZMZXPLZ7IWDDZ15LLLX","","null","<img src=""img/land3.png"" style=""width:200px; border:14px solid green;"">","null","","","","","","","","","",""
"","image-keyboard-response","174","70299","0.0-174.0","3K772S5NP9XLGH214UAIG9QWIMVHEX","A2FYFCD16Z3PCC","3VAOOVPI3ZEZMZXPLZ7IWDDZ15LLLX","","65","img/land3.png","76","65","3","1","3","2","1,0.7,0.7,0.7,1,0.7,0.7,0.7,1","1,0.7,0.7,0.7,1,0.7,0.7,0.7,1","","",""
"","html-keyboard-response","175","70600","0.0-175.0","3K772S5NP9XLGH214UAIG9QWIMVHEX","A2FYFCD16Z3PCC","3VAOOVPI3ZEZMZXPLZ7IWDDZ15LLLX","","null","<img src=""img/land3.png"" style=""width:200px; border:14px solid green;"">","null","","","","","","","","","",""
"","image-keyboard-response","176","70683","0.0-176.0","3K772S5NP9XLGH214UAIG9QWIMVHEX","A2FYFCD16Z3PCC","3VAOOVPI3ZEZMZXPLZ7IWDDZ15LLLX","","83","img/land3.png","76","83","3","1","3","2","1,0.7,0.7,0.7,1,0.7,0.7,0.7,1","1,0.7,0.7,0.7,1,0.7,0.7,0.7,1","","",""
"","html-keyboard-response","177","70984","0.0-177.0","3K772S5NP9XLGH214UAIG9QWIMVHEX","A2FYFCD16Z3PCC","3VAOOVPI3ZEZMZXPLZ7IWDDZ15LLLX","","null","<img src=""img/land3.png"" style=""width:200px; border:14px solid green;"">","null","","","","","","","","","",""
"","image-keyboard-response","178","71059","0.0-178.0","3K772S5NP9XLGH214UAIG9QWIMVHEX","A2FYFCD16Z3PCC","3VAOOVPI3ZEZMZXPLZ7IWDDZ15LLLX","","74","img/land3.png","76","75","3","1","3","2","1,0.7,0.7,0.7,1,0.7,0.7,0.7,1","1,0.7,0.7,0.7,1,0.7,0.7,0.7,1","","",""
"","html-keyboard-response","179","71361","0.0-179.0","3K772S5NP9XLGH214UAIG9QWIMVHEX","A2FYFCD16Z3PCC","3VAOOVPI3ZEZMZXPLZ7IWDDZ15LLLX","","null","<img src=""img/land3.png"" style=""width:200px; border:14px solid green;"">","null","","","","","","","","","",""
"","image-keyboard-response","180","71387","0.0-180.0","3K772S5NP9XLGH214UAIG9QWIMVHEX","A2FYFCD16Z3PCC","3VAOOVPI3ZEZMZXPLZ7IWDDZ15LLLX","","27","img/land3.png","76","27","3","1","3","2","1,0.7,0.7,0.7,1,0.7,0.7,0.7,1","1,0.7,0.7,0.7,1,0.7,0.7,0.7,1","","",""
"","html-keyboard-response","181","71688","0.0-181.0","3K772S5NP9XLGH214UAIG9QWIMVHEX","A2FYFCD16Z3PCC","3VAOOVPI3ZEZMZXPLZ7IWDDZ15LLLX","","null","<img src=""img/land3.png"" style=""width:200px; border:14px solid green;"">","null","","","","","","","","","",""
"","image-keyboard-response","182","71771","0.0-182.0","3K772S5NP9XLGH214UAIG9QWIMVHEX","A2FYFCD16Z3PCC","3VAOOVPI3ZEZMZXPLZ7IWDDZ15LLLX","","82","img/land1.png","76","83","3","1","1","2","1,0.7,0.7,0.7,1,0.7,0.7,0.7,1","1,0.7,0.7,0.7,1,0.7,0.7,0.7,1","","",""
"","html-keyboard-response","183","72072","0.0-183.0","3K772S5NP9XLGH214UAIG9QWIMVHEX","A2FYFCD16Z3PCC","3VAOOVPI3ZEZMZXPLZ7IWDDZ15LLLX","","null","<img src=""img/land1.png"" style=""width:200px; border:14px solid green;"">","null","","","","","","","","","",""
"","image-keyboard-response","184","72123","0.0-184.0","3K772S5NP9XLGH214UAIG9QWIMVHEX","A2FYFCD16Z3PCC","3VAOOVPI3ZEZMZXPLZ7IWDDZ15LLLX","","50","img/land1.png","76","51","3","1","1","2","1,0.7,0.7,0.7,1,0.7,0.7,0.7,1","1,0.7,0.7,0.7,1,0.7,0.7,0.7,1","","",""
"","html-keyboard-response","185","72424","0.0-185.0","3K772S5NP9XLGH214UAIG9QWIMVHEX","A2FYFCD16Z3PCC","3VAOOVPI3ZEZMZXPLZ7IWDDZ15LLLX","","null","<img src=""img/land1.png"" style=""width:200px; border:14px solid green;"">","null","","","","","","","","","",""
"","image-keyboard-response","186","72507","0.0-186.0","3K772S5NP9XLGH214UAIG9QWIMVHEX","A2FYFCD16Z3PCC","3VAOOVPI3ZEZMZXPLZ7IWDDZ15LLLX","","83","img/land3.png","76","83","3","1","3","2","1,0.7,0.7,0.7,1,0.7,0.7,0.7,1","1,0.7,0.7,0.7,1,0.7,0.7,0.7,1","","",""
"","html-keyboard-response","187","72808","0.0-187.0","3K772S5NP9XLGH214UAIG9QWIMVHEX","A2FYFCD16Z3PCC","3VAOOVPI3ZEZMZXPLZ7IWDDZ15LLLX","","null","<img src=""img/land3.png"" style=""width:200px; border:14px solid green;"">","null","","","","","","","","","",""
"","image-keyboard-response","188","72883","0.0-188.0","3K772S5NP9XLGH214UAIG9QWIMVHEX","A2FYFCD16Z3PCC","3VAOOVPI3ZEZMZXPLZ7IWDDZ15LLLX","","75","img/land1.png","76","75","3","0","1","2","1,0.7,0.7,0.7,1,0.7,0.7,0.7,1","1,0.7,0.7,0.7,1,0.7,0.7,0.7,1","","",""
"","html-keyboard-response","189","73184","0.0-189.0","3K772S5NP9XLGH214UAIG9QWIMVHEX","A2FYFCD16Z3PCC","3VAOOVPI3ZEZMZXPLZ7IWDDZ15LLLX","","null","<img src=""img/land1.png"" style=""width:200px;border:14px solid red;"">","null","","","","","","","","","",""
"","image-keyboard-response","190","73251","0.0-190.0","3K772S5NP9XLGH214UAIG9QWIMVHEX","A2FYFCD16Z3PCC","3VAOOVPI3ZEZMZXPLZ7IWDDZ15LLLX","","66","img/land2.png","76","66","3","1","2","2","1,0.7,0.7,0.7,1,0.7,0.7,0.7,1","1,0.7,0.7,0.7,1,0.7,0.7,0.7,1","","",""
"","html-keyboard-response","191","73552","0.0-191.0","3K772S5NP9XLGH214UAIG9QWIMVHEX","A2FYFCD16Z3PCC","3VAOOVPI3ZEZMZXPLZ7IWDDZ15LLLX","","null","<img src=""img/land2.png"" style=""width:200px; border:14px solid green;"">","null","","","","","","","","","",""
"","image-keyboard-response","192","73691","0.0-192.0","3K772S5NP9XLGH214UAIG9QWIMVHEX","A2FYFCD16Z3PCC","3VAOOVPI3ZEZMZXPLZ7IWDDZ15LLLX","","138","img/land2.png","76","139","3","0","2","2","1,0.7,0.7,0.7,1,0.7,0.7,0.7,1","1,0.7,0.7,0.7,1,0.7,0.7,0.7,1","","",""
"","html-keyboard-response","193","73992","0.0-193.0","3K772S5NP9XLGH214UAIG9QWIMVHEX","A2FYFCD16Z3PCC","3VAOOVPI3ZEZMZXPLZ7IWDDZ15LLLX","","null","<img src=""img/land2.png"" style=""width:200px;border:14px solid red;"">","null","","","","","","","","","",""
"","image-keyboard-response","194","74083","0.0-194.0","3K772S5NP9XLGH214UAIG9QWIMVHEX","A2FYFCD16Z3PCC","3VAOOVPI3ZEZMZXPLZ7IWDDZ15LLLX","","90","img/land3.png","76","91","3","1","3","2","1,0.7,0.7,0.7,1,0.7,0.7,0.7,1","1,0.7,0.7,0.7,1,0.7,0.7,0.7,1","","",""
"","html-keyboard-response","195","74385","0.0-195.0","3K772S5NP9XLGH214UAIG9QWIMVHEX","A2FYFCD16Z3PCC","3VAOOVPI3ZEZMZXPLZ7IWDDZ15LLLX","","null","<img src=""img/land3.png"" style=""width:200px; border:14px solid green;"">","null","","","","","","","","","",""
"","image-keyboard-response","196","74443","0.0-196.0","3K772S5NP9XLGH214UAIG9QWIMVHEX","A2FYFCD16Z3PCC","3VAOOVPI3ZEZMZXPLZ7IWDDZ15LLLX","","58","img/land2.png","76","58","3","1","2","2","1,0.7,0.7,0.7,1,0.7,0.7,0.7,1","1,0.7,0.7,0.7,1,0.7,0.7,0.7,1","","",""
"","html-keyboard-response","197","74744","0.0-197.0","3K772S5NP9XLGH214UAIG9QWIMVHEX","A2FYFCD16Z3PCC","3VAOOVPI3ZEZMZXPLZ7IWDDZ15LLLX","","null","<img src=""img/land2.png"" style=""width:200px; border:14px solid green;"">","null","","","","","","","","","",""
"","image-keyboard-response","198","74883","0.0-198.0","3K772S5NP9XLGH214UAIG9QWIMVHEX","A2FYFCD16Z3PCC","3VAOOVPI3ZEZMZXPLZ7IWDDZ15LLLX","","138","img/land2.png","76","139","3","0","2","2","1,0.7,0.7,0.7,1,0.7,0.7,0.7,1","1,0.7,0.7,0.7,1,0.7,0.7,0.7,1","","",""
"","html-keyboard-response","199","75184","0.0-199.0","3K772S5NP9XLGH214UAIG9QWIMVHEX","A2FYFCD16Z3PCC","3VAOOVPI3ZEZMZXPLZ7IWDDZ15LLLX","","null","<img src=""img/land2.png"" style=""width:200px;border:14px solid red;"">","null","","","","","","","","","",""
"","image-keyboard-response","200","75971","0.0-200.0","3K772S5NP9XLGH214UAIG9QWIMVHEX","A2FYFCD16Z3PCC","3VAOOVPI3ZEZMZXPLZ7IWDDZ15LLLX","","787","img/land3.png","76","787","3","1","3","2","1,0.7,0.7,0.7,1,0.7,0.7,0.7,1","1,0.7,0.7,0.7,1,0.7,0.7,0.7,1","","",""
"","html-keyboard-response","201","76272","0.0-201.0","3K772S5NP9XLGH214UAIG9QWIMVHEX","A2FYFCD16Z3PCC","3VAOOVPI3ZEZMZXPLZ7IWDDZ15LLLX","","null","<img src=""img/land3.png"" style=""width:200px; border:14px solid green;"">","null","","","","","","","","","",""
"","image-keyboard-response","202","76891","0.0-202.0","3K772S5NP9XLGH214UAIG9QWIMVHEX","A2FYFCD16Z3PCC","3VAOOVPI3ZEZMZXPLZ7IWDDZ15LLLX","","618","img/land2.png","74","618","1","0","2","2","1,0.7,0.7,0.7,1,0.7,0.7,0.7,1","1,0.7,0.7,0.7,1,0.7,0.7,0.7,1","","",""
"","html-keyboard-response","203","77193","0.0-203.0","3K772S5NP9XLGH214UAIG9QWIMVHEX","A2FYFCD16Z3PCC","3VAOOVPI3ZEZMZXPLZ7IWDDZ15LLLX","","null","<img src=""img/land2.png"" style=""width:200px;border:14px solid red;"">","null","","","","","","","","","",""
"","image-keyboard-response","204","77507","0.0-204.0","3K772S5NP9XLGH214UAIG9QWIMVHEX","A2FYFCD16Z3PCC","3VAOOVPI3ZEZMZXPLZ7IWDDZ15LLLX","","314","img/land3.png","74","314","1","0","3","2","1,0.7,0.7,0.7,1,0.7,0.7,0.7,1","1,0.7,0.7,0.7,1,0.7,0.7,0.7,1","","",""
"","html-keyboard-response","205","77808","0.0-205.0","3K772S5NP9XLGH214UAIG9QWIMVHEX","A2FYFCD16Z3PCC","3VAOOVPI3ZEZMZXPLZ7IWDDZ15LLLX","","null","<img src=""img/land3.png"" style=""width:200px;border:14px solid red;"">","null","","","","","","","","","",""
"","image-keyboard-response","206","78859","0.0-206.0","3K772S5NP9XLGH214UAIG9QWIMVHEX","A2FYFCD16Z3PCC","3VAOOVPI3ZEZMZXPLZ7IWDDZ15LLLX","","1051","img/land1.png","74","1051","1","1","1","2","1,0.7,0.7,0.7,1,0.7,0.7,0.7,1","1,0.7,0.7,0.7,1,0.7,0.7,0.7,1","","",""
"","html-keyboard-response","207","79160","0.0-207.0","3K772S5NP9XLGH214UAIG9QWIMVHEX","A2FYFCD16Z3PCC","3VAOOVPI3ZEZMZXPLZ7IWDDZ15LLLX","","null","<img src=""img/land1.png"" style=""width:200px; border:14px solid green;"">","null","","","","","","","","","",""
"","image-keyboard-response","208","79643","0.0-208.0","3K772S5NP9XLGH214UAIG9QWIMVHEX","A2FYFCD16Z3PCC","3VAOOVPI3ZEZMZXPLZ7IWDDZ15LLLX","","482","img/land3.png","76","482","3","1","3","2","1,0.7,0.7,0.7,1,0.7,0.7,0.7,1","1,0.7,0.7,0.7,1,0.7,0.7,0.7,1","","",""
"","html-keyboard-response","209","79944","0.0-209.0","3K772S5NP9XLGH214UAIG9QWIMVHEX","A2FYFCD16Z3PCC","3VAOOVPI3ZEZMZXPLZ7IWDDZ15LLLX","","null","<img src=""img/land3.png"" style=""width:200px; border:14px solid green;"">","null","","","","","","","","","",""
"","image-keyboard-response","210","80859","0.0-210.0","3K772S5NP9XLGH214UAIG9QWIMVHEX","A2FYFCD16Z3PCC","3VAOOVPI3ZEZMZXPLZ7IWDDZ15LLLX","","915","img/land2.png","74","916","1","1","2","2","1,0.7,0.7,0.7,1,0.7,0.7,0.7,1","1,0.7,0.7,0.7,1,0.7,0.7,0.7,1","","",""
"","html-keyboard-response","211","81160","0.0-211.0","3K772S5NP9XLGH214UAIG9QWIMVHEX","A2FYFCD16Z3PCC","3VAOOVPI3ZEZMZXPLZ7IWDDZ15LLLX","","null","<img src=""img/land2.png"" style=""width:200px; border:14px solid green;"">","null","","","","","","","","","",""
"","image-keyboard-response","212","81491","0.0-212.0","3K772S5NP9XLGH214UAIG9QWIMVHEX","A2FYFCD16Z3PCC","3VAOOVPI3ZEZMZXPLZ7IWDDZ15LLLX","","330","img/land2.png","74","331","1","1","2","2","1,0.7,0.7,0.7,1,0.7,0.7,0.7,1","1,0.7,0.7,0.7,1,0.7,0.7,0.7,1","","",""
"","html-keyboard-response","213","81792","0.0-213.0","3K772S5NP9XLGH214UAIG9QWIMVHEX","A2FYFCD16Z3PCC","3VAOOVPI3ZEZMZXPLZ7IWDDZ15LLLX","","null","<img src=""img/land2.png"" style=""width:200px; border:14px solid green;"">","null","","","","","","","","","",""
"","image-keyboard-response","214","82083","0.0-214.0","3K772S5NP9XLGH214UAIG9QWIMVHEX","A2FYFCD16Z3PCC","3VAOOVPI3ZEZMZXPLZ7IWDDZ15LLLX","","291","img/land2.png","74","291","1","1","2","2","1,0.7,0.7,0.7,1,0.7,0.7,0.7,1","1,0.7,0.7,0.7,1,0.7,0.7,0.7,1","","",""
"","html-keyboard-response","215","82384","0.0-215.0","3K772S5NP9XLGH214UAIG9QWIMVHEX","A2FYFCD16Z3PCC","3VAOOVPI3ZEZMZXPLZ7IWDDZ15LLLX","","null","<img src=""img/land2.png"" style=""width:200px; border:14px solid green;"">","null","","","","","","","","","",""
"","image-keyboard-response","216","82875","0.0-216.0","3K772S5NP9XLGH214UAIG9QWIMVHEX","A2FYFCD16Z3PCC","3VAOOVPI3ZEZMZXPLZ7IWDDZ15LLLX","","491","img/land1.png","74","492","1","1","1","2","1,0.7,0.7,0.7,1,0.7,0.7,0.7,1","1,0.7,0.7,0.7,1,0.7,0.7,0.7,1","","",""
"","html-keyboard-response","217","83176","0.0-217.0","3K772S5NP9XLGH214UAIG9QWIMVHEX","A2FYFCD16Z3PCC","3VAOOVPI3ZEZMZXPLZ7IWDDZ15LLLX","","null","<img src=""img/land1.png"" style=""width:200px; border:14px solid green;"">","null","","","","","","","","","",""
"","image-keyboard-response","218","83459","0.0-218.0","3K772S5NP9XLGH214UAIG9QWIMVHEX","A2FYFCD16Z3PCC","3VAOOVPI3ZEZMZXPLZ7IWDDZ15LLLX","","282","img/land1.png","74","282","1","1","1","2","1,0.7,0.7,0.7,1,0.7,0.7,0.7,1","1,0.7,0.7,0.7,1,0.7,0.7,0.7,1","","",""
"","html-keyboard-response","219","83761","0.0-219.0","3K772S5NP9XLGH214UAIG9QWIMVHEX","A2FYFCD16Z3PCC","3VAOOVPI3ZEZMZXPLZ7IWDDZ15LLLX","","null","<img src=""img/land1.png"" style=""width:200px; border:14px solid green;"">","null","","","","","","","","","",""
"","image-keyboard-response","220","84051","0.0-220.0","3K772S5NP9XLGH214UAIG9QWIMVHEX","A2FYFCD16Z3PCC","3VAOOVPI3ZEZMZXPLZ7IWDDZ15LLLX","","289","img/land3.png","74","290","1","1","3","2","1,0.7,0.7,0.7,1,0.7,0.7,0.7,1","1,0.7,0.7,0.7,1,0.7,0.7,0.7,1","","",""
"","html-keyboard-response","221","84352","0.0-221.0","3K772S5NP9XLGH214UAIG9QWIMVHEX","A2FYFCD16Z3PCC","3VAOOVPI3ZEZMZXPLZ7IWDDZ15LLLX","","null","<img src=""img/land3.png"" style=""width:200px; border:14px solid green;"">","null","","","","","","","","","",""
"","image-keyboard-response","222","84547","0.0-222.0","3K772S5NP9XLGH214UAIG9QWIMVHEX","A2FYFCD16Z3PCC","3VAOOVPI3ZEZMZXPLZ7IWDDZ15LLLX","","194","img/land3.png","76","194","3","1","3","2","1,0.7,0.7,0.7,1,0.7,0.7,0.7,1","1,0.7,0.7,0.7,1,0.7,0.7,0.7,1","","",""
"","html-keyboard-response","223","84848","0.0-223.0","3K772S5NP9XLGH214UAIG9QWIMVHEX","A2FYFCD16Z3PCC","3VAOOVPI3ZEZMZXPLZ7IWDDZ15LLLX","","null","<img src=""img/land3.png"" style=""width:200px; border:14px solid green;"">","null","","","","","","","","","",""
"","image-keyboard-response","224","85123","0.0-224.0","3K772S5NP9XLGH214UAIG9QWIMVHEX","A2FYFCD16Z3PCC","3VAOOVPI3ZEZMZXPLZ7IWDDZ15LLLX","","275","img/land3.png","76","275","3","1","3","2","1,0.7,0.7,0.7,1,0.7,0.7,0.7,1","1,0.7,0.7,0.7,1,0.7,0.7,0.7,1","","",""
"","html-keyboard-response","225","85425","0.0-225.0","3K772S5NP9XLGH214UAIG9QWIMVHEX","A2FYFCD16Z3PCC","3VAOOVPI3ZEZMZXPLZ7IWDDZ15LLLX","","null","<img src=""img/land3.png"" style=""width:200px; border:14px solid green;"">","null","","","","","","","","","",""
"","image-keyboard-response","226","85803","0.0-226.0","3K772S5NP9XLGH214UAIG9QWIMVHEX","A2FYFCD16Z3PCC","3VAOOVPI3ZEZMZXPLZ7IWDDZ15LLLX","","377","img/land2.png","74","377","1","1","2","2","1,0.7,0.7,0.7,1,0.7,0.7,0.7,1","1,0.7,0.7,0.7,1,0.7,0.7,0.7,1","","",""
"","html-keyboard-response","227","86104","0.0-227.0","3K772S5NP9XLGH214UAIG9QWIMVHEX","A2FYFCD16Z3PCC","3VAOOVPI3ZEZMZXPLZ7IWDDZ15LLLX","","null","<img src=""img/land2.png"" style=""width:200px; border:14px solid green;"">","null","","","","","","","","","",""
"","image-keyboard-response","228","86395","0.0-228.0","3K772S5NP9XLGH214UAIG9QWIMVHEX","A2FYFCD16Z3PCC","3VAOOVPI3ZEZMZXPLZ7IWDDZ15LLLX","","290","img/land1.png","74","290","1","1","1","2","1,0.7,0.7,0.7,1,0.7,0.7,0.7,1","1,0.7,0.7,0.7,1,0.7,0.7,0.7,1","","",""
"","html-keyboard-response","229","86696","0.0-229.0","3K772S5NP9XLGH214UAIG9QWIMVHEX","A2FYFCD16Z3PCC","3VAOOVPI3ZEZMZXPLZ7IWDDZ15LLLX","","null","<img src=""img/land1.png"" style=""width:200px; border:14px solid green;"">","null","","","","","","","","","",""
"","image-keyboard-response","230","87067","0.0-230.0","3K772S5NP9XLGH214UAIG9QWIMVHEX","A2FYFCD16Z3PCC","3VAOOVPI3ZEZMZXPLZ7IWDDZ15LLLX","","370","img/land3.png","76","372","3","1","3","2","1,0.7,0.7,0.7,1,0.7,0.7,0.7,1","1,0.7,0.7,0.7,1,0.7,0.7,0.7,1","","",""
"","html-keyboard-response","231","87368","0.0-231.0","3K772S5NP9XLGH214UAIG9QWIMVHEX","A2FYFCD16Z3PCC","3VAOOVPI3ZEZMZXPLZ7IWDDZ15LLLX","","null","<img src=""img/land3.png"" style=""width:200px; border:14px solid green;"">","null","","","","","","","","","",""
"","image-keyboard-response","232","87723","0.0-232.0","3K772S5NP9XLGH214UAIG9QWIMVHEX","A2FYFCD16Z3PCC","3VAOOVPI3ZEZMZXPLZ7IWDDZ15LLLX","","354","img/land1.png","74","354","1","1","1","2","1,0.7,0.7,0.7,1,0.7,0.7,0.7,1","1,0.7,0.7,0.7,1,0.7,0.7,0.7,1","","",""
"","html-keyboard-response","233","88025","0.0-233.0","3K772S5NP9XLGH214UAIG9QWIMVHEX","A2FYFCD16Z3PCC","3VAOOVPI3ZEZMZXPLZ7IWDDZ15LLLX","","null","<img src=""img/land1.png"" style=""width:200px; border:14px solid green;"">","null","","","","","","","","","",""
"","image-keyboard-response","234","88483","0.0-234.0","3K772S5NP9XLGH214UAIG9QWIMVHEX","A2FYFCD16Z3PCC","3VAOOVPI3ZEZMZXPLZ7IWDDZ15LLLX","","457","img/land3.png","76","457","3","1","3","2","1,0.7,0.7,0.7,1,0.7,0.7,0.7,1","1,0.7,0.7,0.7,1,0.7,0.7,0.7,1","","",""
"","html-keyboard-response","235","88785","0.0-235.0","3K772S5NP9XLGH214UAIG9QWIMVHEX","A2FYFCD16Z3PCC","3VAOOVPI3ZEZMZXPLZ7IWDDZ15LLLX","","null","<img src=""img/land3.png"" style=""width:200px; border:14px solid green;"">","null","","","","","","","","","",""
"","image-keyboard-response","236","89091","0.0-236.0","3K772S5NP9XLGH214UAIG9QWIMVHEX","A2FYFCD16Z3PCC","3VAOOVPI3ZEZMZXPLZ7IWDDZ15LLLX","","305","img/land3.png","76","305","3","1","3","2","1,0.7,0.7,0.7,1,0.7,0.7,0.7,1","1,0.7,0.7,0.7,1,0.7,0.7,0.7,1","","",""
"","html-keyboard-response","237","89392","0.0-237.0","3K772S5NP9XLGH214UAIG9QWIMVHEX","A2FYFCD16Z3PCC","3VAOOVPI3ZEZMZXPLZ7IWDDZ15LLLX","","null","<img src=""img/land3.png"" style=""width:200px; border:14px solid green;"">","null","","","","","","","","","",""
"","image-keyboard-response","238","89691","0.0-238.0","3K772S5NP9XLGH214UAIG9QWIMVHEX","A2FYFCD16Z3PCC","3VAOOVPI3ZEZMZXPLZ7IWDDZ15LLLX","","298","img/land3.png","76","298","3","1","3","2","1,0.7,0.7,0.7,1,0.7,0.7,0.7,1","1,0.7,0.7,0.7,1,0.7,0.7,0.7,1","","",""
"","html-keyboard-response","239","89992","0.0-239.0","3K772S5NP9XLGH214UAIG9QWIMVHEX","A2FYFCD16Z3PCC","3VAOOVPI3ZEZMZXPLZ7IWDDZ15LLLX","","null","<img src=""img/land3.png"" style=""width:200px; border:14px solid green;"">","null","","","","","","","","","",""
"","image-keyboard-response","240","90339","0.0-240.0","3K772S5NP9XLGH214UAIG9QWIMVHEX","A2FYFCD16Z3PCC","3VAOOVPI3ZEZMZXPLZ7IWDDZ15LLLX","","346","img/land2.png","74","347","1","1","2","2","1,0.7,0.7,0.7,1,0.7,0.7,0.7,1","1,0.7,0.7,0.7,1,0.7,0.7,0.7,1","","",""
"","html-keyboard-response","241","90640","0.0-241.0","3K772S5NP9XLGH214UAIG9QWIMVHEX","A2FYFCD16Z3PCC","3VAOOVPI3ZEZMZXPLZ7IWDDZ15LLLX","","null","<img src=""img/land2.png"" style=""width:200px; border:14px solid green;"">","null","","","","","","","","","",""
"","image-keyboard-response","242","90955","0.0-242.0","3K772S5NP9XLGH214UAIG9QWIMVHEX","A2FYFCD16Z3PCC","3VAOOVPI3ZEZMZXPLZ7IWDDZ15LLLX","","315","img/land2.png","74","315","1","1","2","2","1,0.7,0.7,0.7,1,0.7,0.7,0.7,1","1,0.7,0.7,0.7,1,0.7,0.7,0.7,1","","",""
"","html-keyboard-response","243","91256","0.0-243.0","3K772S5NP9XLGH214UAIG9QWIMVHEX","A2FYFCD16Z3PCC","3VAOOVPI3ZEZMZXPLZ7IWDDZ15LLLX","","null","<img src=""img/land2.png"" style=""width:200px; border:14px solid green;"">","null","","","","","","","","","",""
"","image-keyboard-response","244","91707","0.0-244.0","3K772S5NP9XLGH214UAIG9QWIMVHEX","A2FYFCD16Z3PCC","3VAOOVPI3ZEZMZXPLZ7IWDDZ15LLLX","","450","img/land1.png","74","450","1","1","1","2","1,0.7,0.7,0.7,1,0.7,0.7,0.7,1","1,0.7,0.7,0.7,1,0.7,0.7,0.7,1","","",""
"","html-keyboard-response","245","92008","0.0-245.0","3K772S5NP9XLGH214UAIG9QWIMVHEX","A2FYFCD16Z3PCC","3VAOOVPI3ZEZMZXPLZ7IWDDZ15LLLX","","null","<img src=""img/land1.png"" style=""width:200px; border:14px solid green;"">","null","","","","","","","","","",""
"","image-keyboard-response","246","92451","0.0-246.0","3K772S5NP9XLGH214UAIG9QWIMVHEX","A2FYFCD16Z3PCC","3VAOOVPI3ZEZMZXPLZ7IWDDZ15LLLX","","443","img/land2.png","74","443","1","1","2","2","1,0.7,0.7,0.7,1,0.7,0.7,0.7,1","1,0.7,0.7,0.7,1,0.7,0.7,0.7,1","","",""
"","html-keyboard-response","247","92753","0.0-247.0","3K772S5NP9XLGH214UAIG9QWIMVHEX","A2FYFCD16Z3PCC","3VAOOVPI3ZEZMZXPLZ7IWDDZ15LLLX","","null","<img src=""img/land2.png"" style=""width:200px; border:14px solid green;"">","null","","","","","","","","","",""
"","image-keyboard-response","248","93099","0.0-248.0","3K772S5NP9XLGH214UAIG9QWIMVHEX","A2FYFCD16Z3PCC","3VAOOVPI3ZEZMZXPLZ7IWDDZ15LLLX","","346","img/land1.png","74","347","1","1","1","2","1,0.7,0.7,0.7,1,0.7,0.7,0.7,1","1,0.7,0.7,0.7,1,0.7,0.7,0.7,1","","",""
"","html-keyboard-response","249","93400","0.0-249.0","3K772S5NP9XLGH214UAIG9QWIMVHEX","A2FYFCD16Z3PCC","3VAOOVPI3ZEZMZXPLZ7IWDDZ15LLLX","","null","<img src=""img/land1.png"" style=""width:200px; border:14px solid green;"">","null","","","","","","","","","",""
"","image-keyboard-response","250","93795","0.0-250.0","3K772S5NP9XLGH214UAIG9QWIMVHEX","A2FYFCD16Z3PCC","3VAOOVPI3ZEZMZXPLZ7IWDDZ15LLLX","","394","img/land3.png","76","395","3","1","3","2","1,0.7,0.7,0.7,1,0.7,0.7,0.7,1","1,0.7,0.7,0.7,1,0.7,0.7,0.7,1","","",""
"","html-keyboard-response","251","94096","0.0-251.0","3K772S5NP9XLGH214UAIG9QWIMVHEX","A2FYFCD16Z3PCC","3VAOOVPI3ZEZMZXPLZ7IWDDZ15LLLX","","null","<img src=""img/land3.png"" style=""width:200px; border:14px solid green;"">","null","","","","","","","","","",""
"","image-keyboard-response","252","94571","0.0-252.0","3K772S5NP9XLGH214UAIG9QWIMVHEX","A2FYFCD16Z3PCC","3VAOOVPI3ZEZMZXPLZ7IWDDZ15LLLX","","475","img/land1.png","74","476","1","1","1","2","1,0.7,0.7,0.7,1,0.7,0.7,0.7,1","1,0.7,0.7,0.7,1,0.7,0.7,0.7,1","","",""
"","html-keyboard-response","253","94872","0.0-253.0","3K772S5NP9XLGH214UAIG9QWIMVHEX","A2FYFCD16Z3PCC","3VAOOVPI3ZEZMZXPLZ7IWDDZ15LLLX","","null","<img src=""img/land1.png"" style=""width:200px; border:14px solid green;"">","null","","","","","","","","","",""
"","image-keyboard-response","254","95363","0.0-254.0","3K772S5NP9XLGH214UAIG9QWIMVHEX","A2FYFCD16Z3PCC","3VAOOVPI3ZEZMZXPLZ7IWDDZ15LLLX","","490","img/land3.png","76","491","3","1","3","2","1,0.7,0.7,0.7,1,0.7,0.7,0.7,1","1,0.7,0.7,0.7,1,0.7,0.7,0.7,1","","",""
"","html-keyboard-response","255","95665","0.0-255.0","3K772S5NP9XLGH214UAIG9QWIMVHEX","A2FYFCD16Z3PCC","3VAOOVPI3ZEZMZXPLZ7IWDDZ15LLLX","","null","<img src=""img/land3.png"" style=""width:200px; border:14px solid green;"">","null","","","","","","","","","",""
"","image-keyboard-response","256","96067","0.0-256.0","3K772S5NP9XLGH214UAIG9QWIMVHEX","A2FYFCD16Z3PCC","3VAOOVPI3ZEZMZXPLZ7IWDDZ15LLLX","","401","img/land2.png","74","403","1","1","2","2","1,0.7,0.7,0.7,1,0.7,0.7,0.7,1","1,0.7,0.7,0.7,1,0.7,0.7,0.7,1","","",""
"","html-keyboard-response","257","96369","0.0-257.0","3K772S5NP9XLGH214UAIG9QWIMVHEX","A2FYFCD16Z3PCC","3VAOOVPI3ZEZMZXPLZ7IWDDZ15LLLX","","null","<img src=""img/land2.png"" style=""width:200px; border:14px solid green;"">","null","","","","","","","","","",""
"","image-keyboard-response","258","96699","0.0-258.0","3K772S5NP9XLGH214UAIG9QWIMVHEX","A2FYFCD16Z3PCC","3VAOOVPI3ZEZMZXPLZ7IWDDZ15LLLX","","330","img/land2.png","74","330","1","1","2","2","1,0.7,0.7,0.7,1,0.7,0.7,0.7,1","1,0.7,0.7,0.7,1,0.7,0.7,0.7,1","","",""
"","html-keyboard-response","259","97000","0.0-259.0","3K772S5NP9XLGH214UAIG9QWIMVHEX","A2FYFCD16Z3PCC","3VAOOVPI3ZEZMZXPLZ7IWDDZ15LLLX","","null","<img src=""img/land2.png"" style=""width:200px; border:14px solid green;"">","null","","","","","","","","","",""
"","image-keyboard-response","260","97419","0.0-260.0","3K772S5NP9XLGH214UAIG9QWIMVHEX","A2FYFCD16Z3PCC","3VAOOVPI3ZEZMZXPLZ7IWDDZ15LLLX","","419","img/land3.png","76","419","3","1","3","2","1,0.7,0.7,0.7,1,0.7,0.7,0.7,1","1,0.7,0.7,0.7,1,0.7,0.7,0.7,1","","",""
"","html-keyboard-response","261","97721","0.0-261.0","3K772S5NP9XLGH214UAIG9QWIMVHEX","A2FYFCD16Z3PCC","3VAOOVPI3ZEZMZXPLZ7IWDDZ15LLLX","","null","<img src=""img/land3.png"" style=""width:200px; border:14px solid green;"">","null","","","","","","","","","",""
"","image-keyboard-response","262","97979","0.0-262.0","3K772S5NP9XLGH214UAIG9QWIMVHEX","A2FYFCD16Z3PCC","3VAOOVPI3ZEZMZXPLZ7IWDDZ15LLLX","","258","img/land3.png","76","259","3","1","3","2","1,0.7,0.7,0.7,1,0.7,0.7,0.7,1","1,0.7,0.7,0.7,1,0.7,0.7,0.7,1","","",""
"","html-keyboard-response","263","98280","0.0-263.0","3K772S5NP9XLGH214UAIG9QWIMVHEX","A2FYFCD16Z3PCC","3VAOOVPI3ZEZMZXPLZ7IWDDZ15LLLX","","null","<img src=""img/land3.png"" style=""width:200px; border:14px solid green;"">","null","","","","","","","","","",""
"","image-keyboard-response","264","98571","0.0-264.0","3K772S5NP9XLGH214UAIG9QWIMVHEX","A2FYFCD16Z3PCC","3VAOOVPI3ZEZMZXPLZ7IWDDZ15LLLX","","290","img/land3.png","76","291","3","1","3","2","1,0.7,0.7,0.7,1,0.7,0.7,0.7,1","1,0.7,0.7,0.7,1,0.7,0.7,0.7,1","","",""
"","html-keyboard-response","265","98872","0.0-265.0","3K772S5NP9XLGH214UAIG9QWIMVHEX","A2FYFCD16Z3PCC","3VAOOVPI3ZEZMZXPLZ7IWDDZ15LLLX","","null","<img src=""img/land3.png"" style=""width:200px; border:14px solid green;"">","null","","","","","","","","","",""
"","image-keyboard-response","266","99163","0.0-266.0","3K772S5NP9XLGH214UAIG9QWIMVHEX","A2FYFCD16Z3PCC","3VAOOVPI3ZEZMZXPLZ7IWDDZ15LLLX","","290","img/land3.png","76","290","3","1","3","2","1,0.7,0.7,0.7,1,0.7,0.7,0.7,1","1,0.7,0.7,0.7,1,0.7,0.7,0.7,1","","",""
"","html-keyboard-response","267","99465","0.0-267.0","3K772S5NP9XLGH214UAIG9QWIMVHEX","A2FYFCD16Z3PCC","3VAOOVPI3ZEZMZXPLZ7IWDDZ15LLLX","","null","<img src=""img/land3.png"" style=""width:200px; border:14px solid green;"">","null","","","","","","","","","",""
"","image-keyboard-response","268","99843","0.0-268.0","3K772S5NP9XLGH214UAIG9QWIMVHEX","A2FYFCD16Z3PCC","3VAOOVPI3ZEZMZXPLZ7IWDDZ15LLLX","","378","img/land1.png","74","378","1","1","1","2","1,0.7,0.7,0.7,1,0.7,0.7,0.7,1","1,0.7,0.7,0.7,1,0.7,0.7,0.7,1","","",""
"","html-keyboard-response","269","100144","0.0-269.0","3K772S5NP9XLGH214UAIG9QWIMVHEX","A2FYFCD16Z3PCC","3VAOOVPI3ZEZMZXPLZ7IWDDZ15LLLX","","null","<img src=""img/land1.png"" style=""width:200px; border:14px solid green;"">","null","","","","","","","","","",""
"","image-keyboard-response","270","100523","0.0-270.0","3K772S5NP9XLGH214UAIG9QWIMVHEX","A2FYFCD16Z3PCC","3VAOOVPI3ZEZMZXPLZ7IWDDZ15LLLX","","379","img/land2.png","74","380","1","1","2","2","1,0.7,0.7,0.7,1,0.7,0.7,0.7,1","1,0.7,0.7,0.7,1,0.7,0.7,0.7,1","","",""
"","html-keyboard-response","271","100824","0.0-271.0","3K772S5NP9XLGH214UAIG9QWIMVHEX","A2FYFCD16Z3PCC","3VAOOVPI3ZEZMZXPLZ7IWDDZ15LLLX","","null","<img src=""img/land2.png"" style=""width:200px; border:14px solid green;"">","null","","","","","","","","","",""
"","image-keyboard-response","272","101131","0.0-272.0","3K772S5NP9XLGH214UAIG9QWIMVHEX","A2FYFCD16Z3PCC","3VAOOVPI3ZEZMZXPLZ7IWDDZ15LLLX","","307","img/land2.png","74","308","1","1","2","2","1,0.7,0.7,0.7,1,0.7,0.7,0.7,1","1,0.7,0.7,0.7,1,0.7,0.7,0.7,1","","",""
"","html-keyboard-response","273","101433","0.0-273.0","3K772S5NP9XLGH214UAIG9QWIMVHEX","A2FYFCD16Z3PCC","3VAOOVPI3ZEZMZXPLZ7IWDDZ15LLLX","","null","<img src=""img/land2.png"" style=""width:200px; border:14px solid green;"">","null","","","","","","","","","",""
"","image-keyboard-response","274","101819","0.0-274.0","3K772S5NP9XLGH214UAIG9QWIMVHEX","A2FYFCD16Z3PCC","3VAOOVPI3ZEZMZXPLZ7IWDDZ15LLLX","","385","img/land1.png","76","386","3","1","1","2","1,0.7,0.7,0.7,1,0.7,0.7,0.7,1","1,0.7,0.7,0.7,1,0.7,0.7,0.7,1","","",""
"","html-keyboard-response","275","102120","0.0-275.0","3K772S5NP9XLGH214UAIG9QWIMVHEX","A2FYFCD16Z3PCC","3VAOOVPI3ZEZMZXPLZ7IWDDZ15LLLX","","null","<img src=""img/land1.png"" style=""width:200px; border:14px solid green;"">","null","","","","","","","","","",""
"","image-keyboard-response","276","102411","0.0-276.0","3K772S5NP9XLGH214UAIG9QWIMVHEX","A2FYFCD16Z3PCC","3VAOOVPI3ZEZMZXPLZ7IWDDZ15LLLX","","290","img/land3.png","74","290","1","0","3","2","1,0.7,0.7,0.7,1,0.7,0.7,0.7,1","1,0.7,0.7,0.7,1,0.7,0.7,0.7,1","","",""
"","html-keyboard-response","277","102712","0.0-277.0","3K772S5NP9XLGH214UAIG9QWIMVHEX","A2FYFCD16Z3PCC","3VAOOVPI3ZEZMZXPLZ7IWDDZ15LLLX","","null","<img src=""img/land3.png"" style=""width:200px;border:14px solid red;"">","null","","","","","","","","","",""
"","image-keyboard-response","278","102867","0.0-278.0","3K772S5NP9XLGH214UAIG9QWIMVHEX","A2FYFCD16Z3PCC","3VAOOVPI3ZEZMZXPLZ7IWDDZ15LLLX","","156","img/land3.png","76","156","3","1","3","2","1,0.7,0.7,0.7,1,0.7,0.7,0.7,1","1,0.7,0.7,0.7,1,0.7,0.7,0.7,1","","",""
"","html-keyboard-response","279","103169","0.0-279.0","3K772S5NP9XLGH214UAIG9QWIMVHEX","A2FYFCD16Z3PCC","3VAOOVPI3ZEZMZXPLZ7IWDDZ15LLLX","","null","<img src=""img/land3.png"" style=""width:200px; border:14px solid green;"">","null","","","","","","","","","",""
"","image-keyboard-response","280","103467","0.0-280.0","3K772S5NP9XLGH214UAIG9QWIMVHEX","A2FYFCD16Z3PCC","3VAOOVPI3ZEZMZXPLZ7IWDDZ15LLLX","","297","img/land3.png","76","298","3","1","3","2","1,0.7,0.7,0.7,1,0.7,0.7,0.7,1","1,0.7,0.7,0.7,1,0.7,0.7,0.7,1","","",""
"","html-keyboard-response","281","103768","0.0-281.0","3K772S5NP9XLGH214UAIG9QWIMVHEX","A2FYFCD16Z3PCC","3VAOOVPI3ZEZMZXPLZ7IWDDZ15LLLX","","null","<img src=""img/land3.png"" style=""width:200px; border:14px solid green;"">","null","","","","","","","","","",""
"","image-keyboard-response","282","103963","0.0-282.0","3K772S5NP9XLGH214UAIG9QWIMVHEX","A2FYFCD16Z3PCC","3VAOOVPI3ZEZMZXPLZ7IWDDZ15LLLX","","194","img/land3.png","76","194","3","1","3","2","1,0.7,0.7,0.7,1,0.7,0.7,0.7,1","1,0.7,0.7,0.7,1,0.7,0.7,0.7,1","","",""
"","html-keyboard-response","283","104264","0.0-283.0","3K772S5NP9XLGH214UAIG9QWIMVHEX","A2FYFCD16Z3PCC","3VAOOVPI3ZEZMZXPLZ7IWDDZ15LLLX","","null","<img src=""img/land3.png"" style=""width:200px; border:14px solid green;"">","null","","","","","","","","","",""
"","image-keyboard-response","284","104547","0.0-284.0","3K772S5NP9XLGH214UAIG9QWIMVHEX","A2FYFCD16Z3PCC","3VAOOVPI3ZEZMZXPLZ7IWDDZ15LLLX","","282","img/land3.png","76","282","3","1","3","2","1,0.7,0.7,0.7,1,0.7,0.7,0.7,1","1,0.7,0.7,0.7,1,0.7,0.7,0.7,1","","",""
"","html-keyboard-response","285","104848","0.0-285.0","3K772S5NP9XLGH214UAIG9QWIMVHEX","A2FYFCD16Z3PCC","3VAOOVPI3ZEZMZXPLZ7IWDDZ15LLLX","","null","<img src=""img/land3.png"" style=""width:200px; border:14px solid green;"">","null","","","","","","","","","",""
"","image-keyboard-response","286","105083","0.0-286.0","3K772S5NP9XLGH214UAIG9QWIMVHEX","A2FYFCD16Z3PCC","3VAOOVPI3ZEZMZXPLZ7IWDDZ15LLLX","","234","img/land3.png","76","235","3","1","3","2","1,0.7,0.7,0.7,1,0.7,0.7,0.7,1","1,0.7,0.7,0.7,1,0.7,0.7,0.7,1","","",""
"","html-keyboard-response","287","105385","0.0-287.0","3K772S5NP9XLGH214UAIG9QWIMVHEX","A2FYFCD16Z3PCC","3VAOOVPI3ZEZMZXPLZ7IWDDZ15LLLX","","null","<img src=""img/land3.png"" style=""width:200px; border:14px solid green;"">","null","","","","","","","","","",""
"","image-keyboard-response","288","105611","0.0-288.0","3K772S5NP9XLGH214UAIG9QWIMVHEX","A2FYFCD16Z3PCC","3VAOOVPI3ZEZMZXPLZ7IWDDZ15LLLX","","226","img/land3.png","76","226","3","1","3","2","1,0.7,0.7,0.7,1,0.7,0.7,0.7,1","1,0.7,0.7,0.7,1,0.7,0.7,0.7,1","","",""
"","html-keyboard-response","289","105912","0.0-289.0","3K772S5NP9XLGH214UAIG9QWIMVHEX","A2FYFCD16Z3PCC","3VAOOVPI3ZEZMZXPLZ7IWDDZ15LLLX","","null","<img src=""img/land3.png"" style=""width:200px; border:14px solid green;"">","null","","","","","","","","","",""
"","image-keyboard-response","290","106171","0.0-290.0","3K772S5NP9XLGH214UAIG9QWIMVHEX","A2FYFCD16Z3PCC","3VAOOVPI3ZEZMZXPLZ7IWDDZ15LLLX","","258","img/land3.png","76","259","3","1","3","2","1,0.7,0.7,0.7,1,0.7,0.7,0.7,1","1,0.7,0.7,0.7,1,0.7,0.7,0.7,1","","",""
"","html-keyboard-response","291","106473","0.0-291.0","3K772S5NP9XLGH214UAIG9QWIMVHEX","A2FYFCD16Z3PCC","3VAOOVPI3ZEZMZXPLZ7IWDDZ15LLLX","","null","<img src=""img/land3.png"" style=""width:200px; border:14px solid green;"">","null","","","","","","","","","",""
"","image-keyboard-response","292","106699","0.0-292.0","3K772S5NP9XLGH214UAIG9QWIMVHEX","A2FYFCD16Z3PCC","3VAOOVPI3ZEZMZXPLZ7IWDDZ15LLLX","","225","img/land3.png","76","225","3","1","3","2","1,0.7,0.7,0.7,1,0.7,0.7,0.7,1","1,0.7,0.7,0.7,1,0.7,0.7,0.7,1","","",""
"","html-keyboard-response","293","107000","0.0-293.0","3K772S5NP9XLGH214UAIG9QWIMVHEX","A2FYFCD16Z3PCC","3VAOOVPI3ZEZMZXPLZ7IWDDZ15LLLX","","null","<img src=""img/land3.png"" style=""width:200px; border:14px solid green;"">","null","","","","","","","","","",""
"","image-keyboard-response","294","107219","0.0-294.0","3K772S5NP9XLGH214UAIG9QWIMVHEX","A2FYFCD16Z3PCC","3VAOOVPI3ZEZMZXPLZ7IWDDZ15LLLX","","218","img/land1.png","76","219","3","0","1","2","1,0.7,0.7,0.7,1,0.7,0.7,0.7,1","1,0.7,0.7,0.7,1,0.7,0.7,0.7,1","","",""
"","html-keyboard-response","295","107521","0.0-295.0","3K772S5NP9XLGH214UAIG9QWIMVHEX","A2FYFCD16Z3PCC","3VAOOVPI3ZEZMZXPLZ7IWDDZ15LLLX","","null","<img src=""img/land1.png"" style=""width:200px;border:14px solid red;"">","null","","","","","","","","","",""
"","image-keyboard-response","296","108283","0.0-296.0","3K772S5NP9XLGH214UAIG9QWIMVHEX","A2FYFCD16Z3PCC","3VAOOVPI3ZEZMZXPLZ7IWDDZ15LLLX","","761","img/land3.png","76","761","3","1","3","2","1,0.7,0.7,0.7,1,0.7,0.7,0.7,1","1,0.7,0.7,0.7,1,0.7,0.7,0.7,1","","",""
"","html-keyboard-response","297","108584","0.0-297.0","3K772S5NP9XLGH214UAIG9QWIMVHEX","A2FYFCD16Z3PCC","3VAOOVPI3ZEZMZXPLZ7IWDDZ15LLLX","","null","<img src=""img/land3.png"" style=""width:200px; border:14px solid green;"">","null","","","","","","","","","",""
"","image-keyboard-response","298","108963","0.0-298.0","3K772S5NP9XLGH214UAIG9QWIMVHEX","A2FYFCD16Z3PCC","3VAOOVPI3ZEZMZXPLZ7IWDDZ15LLLX","","379","img/land2.png","74","379","1","1","2","2","1,0.7,0.7,0.7,1,0.7,0.7,0.7,1","1,0.7,0.7,0.7,1,0.7,0.7,0.7,1","","",""
"","html-keyboard-response","299","109264","0.0-299.0","3K772S5NP9XLGH214UAIG9QWIMVHEX","A2FYFCD16Z3PCC","3VAOOVPI3ZEZMZXPLZ7IWDDZ15LLLX","","null","<img src=""img/land2.png"" style=""width:200px; border:14px solid green;"">","null","","","","","","","","","",""
"","image-keyboard-response","300","109771","0.0-300.0","3K772S5NP9XLGH214UAIG9QWIMVHEX","A2FYFCD16Z3PCC","3VAOOVPI3ZEZMZXPLZ7IWDDZ15LLLX","","505","img/land3.png","76","506","3","1","3","2","1,0.7,0.7,0.7,1,0.7,0.7,0.7,1","1,0.7,0.7,0.7,1,0.7,0.7,0.7,1","","",""
"","html-keyboard-response","301","110073","0.0-301.0","3K772S5NP9XLGH214UAIG9QWIMVHEX","A2FYFCD16Z3PCC","3VAOOVPI3ZEZMZXPLZ7IWDDZ15LLLX","","null","<img src=""img/land3.png"" style=""width:200px; border:14px solid green;"">","null","","","","","","","","","",""
"","html-keyboard-response","302","112416","0.0-302.0","3K772S5NP9XLGH214UAIG9QWIMVHEX","A2FYFCD16Z3PCC","3VAOOVPI3ZEZMZXPLZ7IWDDZ15LLLX","","","","","","","","","","","","","",""
"","image-keyboard-response","303","113459","0.0-303.0","3K772S5NP9XLGH214UAIG9QWIMVHEX","A2FYFCD16Z3PCC","3VAOOVPI3ZEZMZXPLZ7IWDDZ15LLLX","","1042","img/land4.png","74","1043","1","1","1","2","1,0.7,0.7,0.7,1,0.7,0.7,0.7,1","1,0.7,0.7,0.7,1,0.7,0.7,0.7,1","","",""
"","html-keyboard-response","304","113761","0.0-304.0","3K772S5NP9XLGH214UAIG9QWIMVHEX","A2FYFCD16Z3PCC","3VAOOVPI3ZEZMZXPLZ7IWDDZ15LLLX","","null","<img src=""img/land4.png"" style=""width:200px; border:14px solid green;"">","null","","","","","","","","","",""
"","image-keyboard-response","305","114147","0.0-305.0","3K772S5NP9XLGH214UAIG9QWIMVHEX","A2FYFCD16Z3PCC","3VAOOVPI3ZEZMZXPLZ7IWDDZ15LLLX","","386","img/land4.png","74","387","1","1","1","2","1,0.7,0.7,0.7,1,0.7,0.7,0.7,1","1,0.7,0.7,0.7,1,0.7,0.7,0.7,1","","",""
"","html-keyboard-response","306","114449","0.0-306.0","3K772S5NP9XLGH214UAIG9QWIMVHEX","A2FYFCD16Z3PCC","3VAOOVPI3ZEZMZXPLZ7IWDDZ15LLLX","","null","<img src=""img/land4.png"" style=""width:200px; border:14px solid green;"">","null","","","","","","","","","",""
"","image-keyboard-response","307","114939","0.0-307.0","3K772S5NP9XLGH214UAIG9QWIMVHEX","A2FYFCD16Z3PCC","3VAOOVPI3ZEZMZXPLZ7IWDDZ15LLLX","","490","img/land5.png","74","490","1","0","2","2","1,0.7,0.7,0.7,1,0.7,0.7,0.7,1","1,0.7,0.7,0.7,1,0.7,0.7,0.7,1","","",""
"","html-keyboard-response","308","115240","0.0-308.0","3K772S5NP9XLGH214UAIG9QWIMVHEX","A2FYFCD16Z3PCC","3VAOOVPI3ZEZMZXPLZ7IWDDZ15LLLX","","null","<img src=""img/land5.png"" style=""width:200px;border:14px solid red;"">","null","","","","","","","","","",""
"","image-keyboard-response","309","115603","0.0-309.0","3K772S5NP9XLGH214UAIG9QWIMVHEX","A2FYFCD16Z3PCC","3VAOOVPI3ZEZMZXPLZ7IWDDZ15LLLX","","362","img/land5.png","74","364","1","1","2","2","1,0.7,0.7,0.7,1,0.7,0.7,0.7,1","1,0.7,0.7,0.7,1,0.7,0.7,0.7,1","","",""
"","html-keyboard-response","310","115905","0.0-310.0","3K772S5NP9XLGH214UAIG9QWIMVHEX","A2FYFCD16Z3PCC","3VAOOVPI3ZEZMZXPLZ7IWDDZ15LLLX","","null","<img src=""img/land5.png"" style=""width:200px; border:14px solid green;"">","null","","","","","","","","","",""
"","image-keyboard-response","311","116451","0.0-311.0","3K772S5NP9XLGH214UAIG9QWIMVHEX","A2FYFCD16Z3PCC","3VAOOVPI3ZEZMZXPLZ7IWDDZ15LLLX","","545","img/land6.png","74","547","1","0","3","2","1,0.7,0.7,0.7,1,0.7,0.7,0.7,1","1,0.7,0.7,0.7,1,0.7,0.7,0.7,1","","",""
"","html-keyboard-response","312","116752","0.0-312.0","3K772S5NP9XLGH214UAIG9QWIMVHEX","A2FYFCD16Z3PCC","3VAOOVPI3ZEZMZXPLZ7IWDDZ15LLLX","","null","<img src=""img/land6.png"" style=""width:200px;border:14px solid red;"">","null","","","","","","","","","",""
"","image-keyboard-response","313","117371","0.0-313.0","3K772S5NP9XLGH214UAIG9QWIMVHEX","A2FYFCD16Z3PCC","3VAOOVPI3ZEZMZXPLZ7IWDDZ15LLLX","","617","img/land4.png","74","618","1","1","1","2","1,0.7,0.7,0.7,1,0.7,0.7,0.7,1","1,0.7,0.7,0.7,1,0.7,0.7,0.7,1","","",""
"","html-keyboard-response","314","117673","0.0-314.0","3K772S5NP9XLGH214UAIG9QWIMVHEX","A2FYFCD16Z3PCC","3VAOOVPI3ZEZMZXPLZ7IWDDZ15LLLX","","null","<img src=""img/land4.png"" style=""width:200px; border:14px solid green;"">","null","","","","","","","","","",""
"","image-keyboard-response","315","117987","0.0-315.0","3K772S5NP9XLGH214UAIG9QWIMVHEX","A2FYFCD16Z3PCC","3VAOOVPI3ZEZMZXPLZ7IWDDZ15LLLX","","313","img/land4.png","74","313","1","1","1","2","1,0.7,0.7,0.7,1,0.7,0.7,0.7,1","1,0.7,0.7,0.7,1,0.7,0.7,0.7,1","","",""
"","html-keyboard-response","316","118288","0.0-316.0","3K772S5NP9XLGH214UAIG9QWIMVHEX","A2FYFCD16Z3PCC","3VAOOVPI3ZEZMZXPLZ7IWDDZ15LLLX","","null","<img src=""img/land4.png"" style=""width:200px; border:14px solid green;"">","null","","","","","","","","","",""
"","image-keyboard-response","317","118667","0.0-317.0","3K772S5NP9XLGH214UAIG9QWIMVHEX","A2FYFCD16Z3PCC","3VAOOVPI3ZEZMZXPLZ7IWDDZ15LLLX","","379","img/land6.png","74","380","1","1","3","2","1,0.7,0.7,0.7,1,0.7,0.7,0.7,1","1,0.7,0.7,0.7,1,0.7,0.7,0.7,1","","",""
"","html-keyboard-response","318","118969","0.0-318.0","3K772S5NP9XLGH214UAIG9QWIMVHEX","A2FYFCD16Z3PCC","3VAOOVPI3ZEZMZXPLZ7IWDDZ15LLLX","","null","<img src=""img/land6.png"" style=""width:200px; border:14px solid green;"">","null","","","","","","","","","",""
"","image-keyboard-response","319","119396","0.0-319.0","3K772S5NP9XLGH214UAIG9QWIMVHEX","A2FYFCD16Z3PCC","3VAOOVPI3ZEZMZXPLZ7IWDDZ15LLLX","","426","img/land4.png","74","426","1","1","1","2","1,0.7,0.7,0.7,1,0.7,0.7,0.7,1","1,0.7,0.7,0.7,1,0.7,0.7,0.7,1","","",""
"","html-keyboard-response","320","119697","0.0-320.0","3K772S5NP9XLGH214UAIG9QWIMVHEX","A2FYFCD16Z3PCC","3VAOOVPI3ZEZMZXPLZ7IWDDZ15LLLX","","null","<img src=""img/land4.png"" style=""width:200px; border:14px solid green;"">","null","","","","","","","","","",""
"","image-keyboard-response","321","119996","0.0-321.0","3K772S5NP9XLGH214UAIG9QWIMVHEX","A2FYFCD16Z3PCC","3VAOOVPI3ZEZMZXPLZ7IWDDZ15LLLX","","298","img/land4.png","74","298","1","1","1","2","1,0.7,0.7,0.7,1,0.7,0.7,0.7,1","1,0.7,0.7,0.7,1,0.7,0.7,0.7,1","","",""
"","html-keyboard-response","322","120298","0.0-322.0","3K772S5NP9XLGH214UAIG9QWIMVHEX","A2FYFCD16Z3PCC","3VAOOVPI3ZEZMZXPLZ7IWDDZ15LLLX","","null","<img src=""img/land4.png"" style=""width:200px; border:14px solid green;"">","null","","","","","","","","","",""
"","image-keyboard-response","323","120540","0.0-323.0","3K772S5NP9XLGH214UAIG9QWIMVHEX","A2FYFCD16Z3PCC","3VAOOVPI3ZEZMZXPLZ7IWDDZ15LLLX","","241","img/land4.png","74","243","1","1","1","2","1,0.7,0.7,0.7,1,0.7,0.7,0.7,1","1,0.7,0.7,0.7,1,0.7,0.7,0.7,1","","",""
"","html-keyboard-response","324","120842","0.0-324.0","3K772S5NP9XLGH214UAIG9QWIMVHEX","A2FYFCD16Z3PCC","3VAOOVPI3ZEZMZXPLZ7IWDDZ15LLLX","","null","<img src=""img/land4.png"" style=""width:200px; border:14px solid green;"">","null","","","","","","","","","",""
"","image-keyboard-response","325","121012","0.0-325.0","3K772S5NP9XLGH214UAIG9QWIMVHEX","A2FYFCD16Z3PCC","3VAOOVPI3ZEZMZXPLZ7IWDDZ15LLLX","","169","img/land6.png","74","170","1","1","3","2","1,0.7,0.7,0.7,1,0.7,0.7,0.7,1","1,0.7,0.7,0.7,1,0.7,0.7,0.7,1","","",""
"","html-keyboard-response","326","121313","0.0-326.0","3K772S5NP9XLGH214UAIG9QWIMVHEX","A2FYFCD16Z3PCC","3VAOOVPI3ZEZMZXPLZ7IWDDZ15LLLX","","null","<img src=""img/land6.png"" style=""width:200px; border:14px solid green;"">","null","","","","","","","","","",""
"","image-keyboard-response","327","121892","0.0-327.0","3K772S5NP9XLGH214UAIG9QWIMVHEX","A2FYFCD16Z3PCC","3VAOOVPI3ZEZMZXPLZ7IWDDZ15LLLX","","578","img/land5.png","74","578","1","1","2","2","1,0.7,0.7,0.7,1,0.7,0.7,0.7,1","1,0.7,0.7,0.7,1,0.7,0.7,0.7,1","","",""
"","html-keyboard-response","328","122194","0.0-328.0","3K772S5NP9XLGH214UAIG9QWIMVHEX","A2FYFCD16Z3PCC","3VAOOVPI3ZEZMZXPLZ7IWDDZ15LLLX","","null","<img src=""img/land5.png"" style=""width:200px; border:14px solid green;"">","null","","","","","","","","","",""
"","image-keyboard-response","329","122460","0.0-329.0","3K772S5NP9XLGH214UAIG9QWIMVHEX","A2FYFCD16Z3PCC","3VAOOVPI3ZEZMZXPLZ7IWDDZ15LLLX","","265","img/land4.png","74","265","1","1","1","2","1,0.7,0.7,0.7,1,0.7,0.7,0.7,1","1,0.7,0.7,0.7,1,0.7,0.7,0.7,1","","",""
"","html-keyboard-response","330","122761","0.0-330.0","3K772S5NP9XLGH214UAIG9QWIMVHEX","A2FYFCD16Z3PCC","3VAOOVPI3ZEZMZXPLZ7IWDDZ15LLLX","","null","<img src=""img/land4.png"" style=""width:200px; border:14px solid green;"">","null","","","","","","","","","",""
"","image-keyboard-response","331","122852","0.0-331.0","3K772S5NP9XLGH214UAIG9QWIMVHEX","A2FYFCD16Z3PCC","3VAOOVPI3ZEZMZXPLZ7IWDDZ15LLLX","","91","img/land6.png","74","91","1","1","3","2","1,0.7,0.7,0.7,1,0.7,0.7,0.7,1","1,0.7,0.7,0.7,1,0.7,0.7,0.7,1","","",""
"","html-keyboard-response","332","123153","0.0-332.0","3K772S5NP9XLGH214UAIG9QWIMVHEX","A2FYFCD16Z3PCC","3VAOOVPI3ZEZMZXPLZ7IWDDZ15LLLX","","null","<img src=""img/land6.png"" style=""width:200px; border:14px solid green;"">","null","","","","","","","","","",""
"","image-keyboard-response","333","123316","0.0-333.0","3K772S5NP9XLGH214UAIG9QWIMVHEX","A2FYFCD16Z3PCC","3VAOOVPI3ZEZMZXPLZ7IWDDZ15LLLX","","162","img/land5.png","74","162","1","1","2","2","1,0.7,0.7,0.7,1,0.7,0.7,0.7,1","1,0.7,0.7,0.7,1,0.7,0.7,0.7,1","","",""
"","html-keyboard-response","334","123619","0.0-334.0","3K772S5NP9XLGH214UAIG9QWIMVHEX","A2FYFCD16Z3PCC","3VAOOVPI3ZEZMZXPLZ7IWDDZ15LLLX","","null","<img src=""img/land5.png"" style=""width:200px; border:14px solid green;"">","null","","","","","","","","","",""
"","image-keyboard-response","335","123708","0.0-335.0","3K772S5NP9XLGH214UAIG9QWIMVHEX","A2FYFCD16Z3PCC","3VAOOVPI3ZEZMZXPLZ7IWDDZ15LLLX","","88","img/land5.png","74","88","1","1","2","2","1,0.7,0.7,0.7,1,0.7,0.7,0.7,1","1,0.7,0.7,0.7,1,0.7,0.7,0.7,1","","",""
"","html-keyboard-response","336","124011","0.0-336.0","3K772S5NP9XLGH214UAIG9QWIMVHEX","A2FYFCD16Z3PCC","3VAOOVPI3ZEZMZXPLZ7IWDDZ15LLLX","","null","<img src=""img/land5.png"" style=""width:200px; border:14px solid green;"">","null","","","","","","","","","",""
"","image-keyboard-response","337","124108","0.0-337.0","3K772S5NP9XLGH214UAIG9QWIMVHEX","A2FYFCD16Z3PCC","3VAOOVPI3ZEZMZXPLZ7IWDDZ15LLLX","","96","img/land5.png","74","97","1","1","2","2","1,0.7,0.7,0.7,1,0.7,0.7,0.7,1","1,0.7,0.7,0.7,1,0.7,0.7,0.7,1","","",""
"","html-keyboard-response","338","124423","0.0-338.0","3K772S5NP9XLGH214UAIG9QWIMVHEX","A2FYFCD16Z3PCC","3VAOOVPI3ZEZMZXPLZ7IWDDZ15LLLX","","null","<img src=""img/land5.png"" style=""width:200px; border:14px solid green;"">","null","","","","","","","","","",""
"","image-keyboard-response","339","124492","0.0-339.0","3K772S5NP9XLGH214UAIG9QWIMVHEX","A2FYFCD16Z3PCC","3VAOOVPI3ZEZMZXPLZ7IWDDZ15LLLX","","69","img/land5.png","74","69","1","1","2","2","1,0.7,0.7,0.7,1,0.7,0.7,0.7,1","1,0.7,0.7,0.7,1,0.7,0.7,0.7,1","","",""
"","html-keyboard-response","340","124793","0.0-340.0","3K772S5NP9XLGH214UAIG9QWIMVHEX","A2FYFCD16Z3PCC","3VAOOVPI3ZEZMZXPLZ7IWDDZ15LLLX","","null","<img src=""img/land5.png"" style=""width:200px; border:14px solid green;"">","null","","","","","","","","","",""
"","image-keyboard-response","341","124868","0.0-341.0","3K772S5NP9XLGH214UAIG9QWIMVHEX","A2FYFCD16Z3PCC","3VAOOVPI3ZEZMZXPLZ7IWDDZ15LLLX","","75","img/land6.png","74","75","1","1","3","2","1,0.7,0.7,0.7,1,0.7,0.7,0.7,1","1,0.7,0.7,0.7,1,0.7,0.7,0.7,1","","",""
"","html-keyboard-response","342","125169","0.0-342.0","3K772S5NP9XLGH214UAIG9QWIMVHEX","A2FYFCD16Z3PCC","3VAOOVPI3ZEZMZXPLZ7IWDDZ15LLLX","","null","<img src=""img/land6.png"" style=""width:200px; border:14px solid green;"">","null","","","","","","","","","",""
"","image-keyboard-response","343","125252","0.0-343.0","3K772S5NP9XLGH214UAIG9QWIMVHEX","A2FYFCD16Z3PCC","3VAOOVPI3ZEZMZXPLZ7IWDDZ15LLLX","","82","img/land4.png","74","83","1","1","1","2","1,0.7,0.7,0.7,1,0.7,0.7,0.7,1","1,0.7,0.7,0.7,1,0.7,0.7,0.7,1","","",""
"","html-keyboard-response","344","125554","0.0-344.0","3K772S5NP9XLGH214UAIG9QWIMVHEX","A2FYFCD16Z3PCC","3VAOOVPI3ZEZMZXPLZ7IWDDZ15LLLX","","null","<img src=""img/land4.png"" style=""width:200px; border:14px solid green;"">","null","","","","","","","","","",""
"","image-keyboard-response","345","125660","0.0-345.0","3K772S5NP9XLGH214UAIG9QWIMVHEX","A2FYFCD16Z3PCC","3VAOOVPI3ZEZMZXPLZ7IWDDZ15LLLX","","105","img/land5.png","74","105","1","1","2","2","1,0.7,0.7,0.7,1,0.7,0.7,0.7,1","1,0.7,0.7,0.7,1,0.7,0.7,0.7,1","","",""
"","html-keyboard-response","346","125961","0.0-346.0","3K772S5NP9XLGH214UAIG9QWIMVHEX","A2FYFCD16Z3PCC","3VAOOVPI3ZEZMZXPLZ7IWDDZ15LLLX","","null","<img src=""img/land5.png"" style=""width:200px; border:14px solid green;"">","null","","","","","","","","","",""
"","image-keyboard-response","347","125964","0.0-347.0","3K772S5NP9XLGH214UAIG9QWIMVHEX","A2FYFCD16Z3PCC","3VAOOVPI3ZEZMZXPLZ7IWDDZ15LLLX","","2","img/land4.png","74","2","1","1","1","2","1,0.7,0.7,0.7,1,0.7,0.7,0.7,1","1,0.7,0.7,0.7,1,0.7,0.7,0.7,1","","",""
"","html-keyboard-response","348","126265","0.0-348.0","3K772S5NP9XLGH214UAIG9QWIMVHEX","A2FYFCD16Z3PCC","3VAOOVPI3ZEZMZXPLZ7IWDDZ15LLLX","","null","<img src=""img/land4.png"" style=""width:200px; border:14px solid green;"">","null","","","","","","","","","",""
"","image-keyboard-response","349","126572","0.0-349.0","3K772S5NP9XLGH214UAIG9QWIMVHEX","A2FYFCD16Z3PCC","3VAOOVPI3ZEZMZXPLZ7IWDDZ15LLLX","","306","img/land6.png","74","306","1","1","3","2","1,0.7,0.7,0.7,1,0.7,0.7,0.7,1","1,0.7,0.7,0.7,1,0.7,0.7,0.7,1","","",""
"","html-keyboard-response","350","126873","0.0-350.0","3K772S5NP9XLGH214UAIG9QWIMVHEX","A2FYFCD16Z3PCC","3VAOOVPI3ZEZMZXPLZ7IWDDZ15LLLX","","null","<img src=""img/land6.png"" style=""width:200px; border:14px solid green;"">","null","","","","","","","","","",""
"","image-keyboard-response","351","127004","0.0-351.0","3K772S5NP9XLGH214UAIG9QWIMVHEX","A2FYFCD16Z3PCC","3VAOOVPI3ZEZMZXPLZ7IWDDZ15LLLX","","130","img/land6.png","74","130","1","1","3","2","1,0.7,0.7,0.7,1,0.7,0.7,0.7,1","1,0.7,0.7,0.7,1,0.7,0.7,0.7,1","","",""
"","html-keyboard-response","352","127306","0.0-352.0","3K772S5NP9XLGH214UAIG9QWIMVHEX","A2FYFCD16Z3PCC","3VAOOVPI3ZEZMZXPLZ7IWDDZ15LLLX","","null","<img src=""img/land6.png"" style=""width:200px; border:14px solid green;"">","null","","","","","","","","","",""
"","image-keyboard-response","353","127308","0.0-353.0","3K772S5NP9XLGH214UAIG9QWIMVHEX","A2FYFCD16Z3PCC","3VAOOVPI3ZEZMZXPLZ7IWDDZ15LLLX","","1","img/land6.png","74","2","1","0","3","2","1,0.7,0.7,0.7,1,0.7,0.7,0.7,1","1,0.7,0.7,0.7,1,0.7,0.7,0.7,1","","",""
"","html-keyboard-response","354","127609","0.0-354.0","3K772S5NP9XLGH214UAIG9QWIMVHEX","A2FYFCD16Z3PCC","3VAOOVPI3ZEZMZXPLZ7IWDDZ15LLLX","","null","<img src=""img/land6.png"" style=""width:200px;border:14px solid red;"">","null","","","","","","","","","",""
"","image-keyboard-response","355","127884","0.0-355.0","3K772S5NP9XLGH214UAIG9QWIMVHEX","A2FYFCD16Z3PCC","3VAOOVPI3ZEZMZXPLZ7IWDDZ15LLLX","","275","img/land4.png","74","275","1","1","1","2","1,0.7,0.7,0.7,1,0.7,0.7,0.7,1","1,0.7,0.7,0.7,1,0.7,0.7,0.7,1","","",""
"","html-keyboard-response","356","128185","0.0-356.0","3K772S5NP9XLGH214UAIG9QWIMVHEX","A2FYFCD16Z3PCC","3VAOOVPI3ZEZMZXPLZ7IWDDZ15LLLX","","null","<img src=""img/land4.png"" style=""width:200px; border:14px solid green;"">","null","","","","","","","","","",""
"","image-keyboard-response","357","128340","0.0-357.0","3K772S5NP9XLGH214UAIG9QWIMVHEX","A2FYFCD16Z3PCC","3VAOOVPI3ZEZMZXPLZ7IWDDZ15LLLX","","155","img/land6.png","74","155","1","1","3","2","1,0.7,0.7,0.7,1,0.7,0.7,0.7,1","1,0.7,0.7,0.7,1,0.7,0.7,0.7,1","","",""
"","html-keyboard-response","358","128642","0.0-358.0","3K772S5NP9XLGH214UAIG9QWIMVHEX","A2FYFCD16Z3PCC","3VAOOVPI3ZEZMZXPLZ7IWDDZ15LLLX","","null","<img src=""img/land6.png"" style=""width:200px; border:14px solid green;"">","null","","","","","","","","","",""
"","image-keyboard-response","359","128740","0.0-359.0","3K772S5NP9XLGH214UAIG9QWIMVHEX","A2FYFCD16Z3PCC","3VAOOVPI3ZEZMZXPLZ7IWDDZ15LLLX","","97","img/land5.png","74","97","1","1","2","2","1,0.7,0.7,0.7,1,0.7,0.7,0.7,1","1,0.7,0.7,0.7,1,0.7,0.7,0.7,1","","",""
"","html-keyboard-response","360","129041","0.0-360.0","3K772S5NP9XLGH214UAIG9QWIMVHEX","A2FYFCD16Z3PCC","3VAOOVPI3ZEZMZXPLZ7IWDDZ15LLLX","","null","<img src=""img/land5.png"" style=""width:200px; border:14px solid green;"">","null","","","","","","","","","",""
"","image-keyboard-response","361","129108","0.0-361.0","3K772S5NP9XLGH214UAIG9QWIMVHEX","A2FYFCD16Z3PCC","3VAOOVPI3ZEZMZXPLZ7IWDDZ15LLLX","","66","img/land5.png","74","67","1","0","2","2","1,0.7,0.7,0.7,1,0.7,0.7,0.7,1","1,0.7,0.7,0.7,1,0.7,0.7,0.7,1","","",""
"","html-keyboard-response","362","129409","0.0-362.0","3K772S5NP9XLGH214UAIG9QWIMVHEX","A2FYFCD16Z3PCC","3VAOOVPI3ZEZMZXPLZ7IWDDZ15LLLX","","null","<img src=""img/land5.png"" style=""width:200px;border:14px solid red;"">","null","","","","","","","","","",""
"","image-keyboard-response","363","129484","0.0-363.0","3K772S5NP9XLGH214UAIG9QWIMVHEX","A2FYFCD16Z3PCC","3VAOOVPI3ZEZMZXPLZ7IWDDZ15LLLX","","74","img/land6.png","74","75","1","1","3","2","1,0.7,0.7,0.7,1,0.7,0.7,0.7,1","1,0.7,0.7,0.7,1,0.7,0.7,0.7,1","","",""
"","html-keyboard-response","364","129785","0.0-364.0","3K772S5NP9XLGH214UAIG9QWIMVHEX","A2FYFCD16Z3PCC","3VAOOVPI3ZEZMZXPLZ7IWDDZ15LLLX","","null","<img src=""img/land6.png"" style=""width:200px; border:14px solid green;"">","null","","","","","","","","","",""
"","image-keyboard-response","365","129860","0.0-365.0","3K772S5NP9XLGH214UAIG9QWIMVHEX","A2FYFCD16Z3PCC","3VAOOVPI3ZEZMZXPLZ7IWDDZ15LLLX","","75","img/land6.png","74","75","1","1","3","2","1,0.7,0.7,0.7,1,0.7,0.7,0.7,1","1,0.7,0.7,0.7,1,0.7,0.7,0.7,1","","",""
"","html-keyboard-response","366","130161","0.0-366.0","3K772S5NP9XLGH214UAIG9QWIMVHEX","A2FYFCD16Z3PCC","3VAOOVPI3ZEZMZXPLZ7IWDDZ15LLLX","","null","<img src=""img/land6.png"" style=""width:200px; border:14px solid green;"">","null","","","","","","","","","",""
"","image-keyboard-response","367","130252","0.0-367.0","3K772S5NP9XLGH214UAIG9QWIMVHEX","A2FYFCD16Z3PCC","3VAOOVPI3ZEZMZXPLZ7IWDDZ15LLLX","","90","img/land5.png","74","90","1","0","2","2","1,0.7,0.7,0.7,1,0.7,0.7,0.7,1","1,0.7,0.7,0.7,1,0.7,0.7,0.7,1","","",""
"","html-keyboard-response","368","130553","0.0-368.0","3K772S5NP9XLGH214UAIG9QWIMVHEX","A2FYFCD16Z3PCC","3VAOOVPI3ZEZMZXPLZ7IWDDZ15LLLX","","null","<img src=""img/land5.png"" style=""width:200px;border:14px solid red;"">","null","","","","","","","","","",""
"","image-keyboard-response","369","130644","0.0-369.0","3K772S5NP9XLGH214UAIG9QWIMVHEX","A2FYFCD16Z3PCC","3VAOOVPI3ZEZMZXPLZ7IWDDZ15LLLX","","91","img/land4.png","74","91","1","1","1","2","1,0.7,0.7,0.7,1,0.7,0.7,0.7,1","1,0.7,0.7,0.7,1,0.7,0.7,0.7,1","","",""
"","html-keyboard-response","370","130945","0.0-370.0","3K772S5NP9XLGH214UAIG9QWIMVHEX","A2FYFCD16Z3PCC","3VAOOVPI3ZEZMZXPLZ7IWDDZ15LLLX","","null","<img src=""img/land4.png"" style=""width:200px; border:14px solid green;"">","null","","","","","","","","","",""
"","image-keyboard-response","371","131052","0.0-371.0","3K772S5NP9XLGH214UAIG9QWIMVHEX","A2FYFCD16Z3PCC","3VAOOVPI3ZEZMZXPLZ7IWDDZ15LLLX","","106","img/land6.png","74","106","1","1","3","2","1,0.7,0.7,0.7,1,0.7,0.7,0.7,1","1,0.7,0.7,0.7,1,0.7,0.7,0.7,1","","",""
"","html-keyboard-response","372","131353","0.0-372.0","3K772S5NP9XLGH214UAIG9QWIMVHEX","A2FYFCD16Z3PCC","3VAOOVPI3ZEZMZXPLZ7IWDDZ15LLLX","","null","<img src=""img/land6.png"" style=""width:200px; border:14px solid green;"">","null","","","","","","","","","",""
"","image-keyboard-response","373","131788","0.0-373.0","3K772S5NP9XLGH214UAIG9QWIMVHEX","A2FYFCD16Z3PCC","3VAOOVPI3ZEZMZXPLZ7IWDDZ15LLLX","","434","img/land5.png","75","435","2","1","2","2","1,0.7,0.7,0.7,1,0.7,0.7,0.7,1","1,0.7,0.7,0.7,1,0.7,0.7,0.7,1","","",""
"","html-keyboard-response","374","132089","0.0-374.0","3K772S5NP9XLGH214UAIG9QWIMVHEX","A2FYFCD16Z3PCC","3VAOOVPI3ZEZMZXPLZ7IWDDZ15LLLX","","null","<img src=""img/land5.png"" style=""width:200px; border:14px solid green;"">","null","","","","","","","","","",""
"","image-keyboard-response","375","132364","0.0-375.0","3K772S5NP9XLGH214UAIG9QWIMVHEX","A2FYFCD16Z3PCC","3VAOOVPI3ZEZMZXPLZ7IWDDZ15LLLX","","275","img/land5.png","75","275","2","1","2","2","1,0.7,0.7,0.7,1,0.7,0.7,0.7,1","1,0.7,0.7,0.7,1,0.7,0.7,0.7,1","","",""
"","html-keyboard-response","376","132666","0.0-376.0","3K772S5NP9XLGH214UAIG9QWIMVHEX","A2FYFCD16Z3PCC","3VAOOVPI3ZEZMZXPLZ7IWDDZ15LLLX","","null","<img src=""img/land5.png"" style=""width:200px; border:14px solid green;"">","null","","","","","","","","","",""
"","image-keyboard-response","377","132860","0.0-377.0","3K772S5NP9XLGH214UAIG9QWIMVHEX","A2FYFCD16Z3PCC","3VAOOVPI3ZEZMZXPLZ7IWDDZ15LLLX","","194","img/land6.png","75","194","2","1","3","2","1,0.7,0.7,0.7,1,0.7,0.7,0.7,1","1,0.7,0.7,0.7,1,0.7,0.7,0.7,1","","",""
"","html-keyboard-response","378","133163","0.0-378.0","3K772S5NP9XLGH214UAIG9QWIMVHEX","A2FYFCD16Z3PCC","3VAOOVPI3ZEZMZXPLZ7IWDDZ15LLLX","","null","<img src=""img/land6.png"" style=""width:200px; border:14px solid green;"">","null","","","","","","","","","",""
"","image-keyboard-response","379","133484","0.0-379.0","3K772S5NP9XLGH214UAIG9QWIMVHEX","A2FYFCD16Z3PCC","3VAOOVPI3ZEZMZXPLZ7IWDDZ15LLLX","","322","img/land6.png","74","322","1","1","3","2","1,0.7,0.7,0.7,1,0.7,0.7,0.7,1","1,0.7,0.7,0.7,1,0.7,0.7,0.7,1","","",""
"","html-keyboard-response","380","133785","0.0-380.0","3K772S5NP9XLGH214UAIG9QWIMVHEX","A2FYFCD16Z3PCC","3VAOOVPI3ZEZMZXPLZ7IWDDZ15LLLX","","null","<img src=""img/land6.png"" style=""width:200px; border:14px solid green;"">","null","","","","","","","","","",""
