"success","trial_type","trial_index","time_elapsed","internal_node_id","assignmentID","mturkID","hitID","view_history","rt","stimulus","key_press","reactionTime","a","r","warning","s","reward_cond","responses","question_order"
"true","fullscreen","0","2812","0.0-0.0","3K4J6M3CXFF4Q8QE4JQEZQO4FHKGAJ","A2H3CV7SIVYREN","3FW4EL5A3LANKRP91N782LFHPY722Q","","","","","","","","","","","",""
"","instructions","1","18897","0.0-1.0","3K4J6M3CXFF4Q8QE4JQEZQO4FHKGAJ","A2H3CV7SIVYREN","3FW4EL5A3LANKRP91N782LFHPY722Q","[{""page_index"":0,""viewing_time"":4988},{""page_index"":1,""viewing_time"":1567},{""page_index"":2,""viewing_time"":1147},{""page_index"":3,""viewing_time"":1168},{""page_index"":4,""viewing_time"":2194},{""page_index"":5,""viewing_time"":1541},{""page_index"":6,""viewing_time"":1618},{""page_index"":7,""viewing_time"":1859}]","16083","","","","","","","","","",""
"","image-keyboard-response","2","19899","0.0-2.0","3K4J6M3CXFF4Q8QE4JQEZQO4FHKGAJ","A2H3CV7SIVYREN","3FW4EL5A3LANKRP91N782LFHPY722Q","","","img/land8.png","","1001","-1","0","true","2","0.8,0.8,0.2,0.2,0.8,0.8,0.8,0.2,0.8","",""
"","html-keyboard-response","3","20205","0.0-3.0","3K4J6M3CXFF4Q8QE4JQEZQO4FHKGAJ","A2H3CV7SIVYREN","3FW4EL5A3LANKRP91N782LFHPY722Q","","null","<img src=""img/land8.png"" style=""width:200px;border:14px solid red;"">","null","","","","","","","",""
"","html-keyboard-response","4","25791","0.0-4.0-0.0","3K4J6M3CXFF4Q8QE4JQEZQO4FHKGAJ","A2H3CV7SIVYREN","3FW4EL5A3LANKRP91N782LFHPY722Q","","","","","","","","","","","",""
"","image-keyboard-response","5","26847","0.0-5.0","3K4J6M3CXFF4Q8QE4JQEZQO4FHKGAJ","A2H3CV7SIVYREN","3FW4EL5A3LANKRP91N782LFHPY722Q","","","img/land8.png","","1057","-1","0","true","2","0.8,0.8,0.2,0.2,0.8,0.8,0.8,0.2,0.8","",""
"","html-keyboard-response","6","27229","0.0-6.0","3K4J6M3CXFF4Q8QE4JQEZQO4FHKGAJ","A2H3CV7SIVYREN","3FW4EL5A3LANKRP91N782LFHPY722Q","","null","<img src=""img/land8.png"" style=""width:200px;border:14px solid red;"">","null","","","","","","","",""
"","html-keyboard-response","7","29863","0.0-7.0-0.0","3K4J6M3CXFF4Q8QE4JQEZQO4FHKGAJ","A2H3CV7SIVYREN","3FW4EL5A3LANKRP91N782LFHPY722Q","","","","","","","","","","","",""
"","image-keyboard-response","8","30114","0.0-8.0","3K4J6M3CXFF4Q8QE4JQEZQO4FHKGAJ","A2H3CV7SIVYREN","3FW4EL5A3LANKRP91N782LFHPY722Q","","249","img/land3.png","74","250","1","1","false","3","0.8,0.8,0.2,0.2,0.8,0.8,0.8,0.2,0.8","",""
"","html-keyboard-response","9","30418","0.0-9.0","3K4J6M3CXFF4Q8QE4JQEZQO4FHKGAJ","A2H3CV7SIVYREN","3FW4EL5A3LANKRP91N782LFHPY722Q","","null","<img src=""img/land3.png"" style=""width:200px; border:14px solid green;"">","null","","","","","","","",""
"","image-keyboard-response","10","30708","0.0-11.0","3K4J6M3CXFF4Q8QE4JQEZQO4FHKGAJ","A2H3CV7SIVYREN","3FW4EL5A3LANKRP91N782LFHPY722Q","","288","img/land8.png","75","289","2","1","false","2","0.8,0.8,0.2,0.2,0.8,0.8,0.8,0.2,0.8","",""
"","html-keyboard-response","11","31008","0.0-12.0","3K4J6M3CXFF4Q8QE4JQEZQO4FHKGAJ","A2H3CV7SIVYREN","3FW4EL5A3LANKRP91N782LFHPY722Q","","null","<img src=""img/land8.png"" style=""width:200px; border:14px solid green;"">","null","","","","","","","",""
"","image-keyboard-response","12","31080","0.0-14.0","3K4J6M3CXFF4Q8QE4JQEZQO4FHKGAJ","A2H3CV7SIVYREN","3FW4EL5A3LANKRP91N782LFHPY722Q","","70","img/land8.png","75","72","2","1","false","2","0.8,0.8,0.2,0.2,0.8,0.8,0.8,0.2,0.8","",""
"","html-keyboard-response","13","31382","0.0-15.0","3K4J6M3CXFF4Q8QE4JQEZQO4FHKGAJ","A2H3CV7SIVYREN","3FW4EL5A3LANKRP91N782LFHPY722Q","","null","<img src=""img/land8.png"" style=""width:200px; border:14px solid green;"">","null","","","","","","","",""
"","image-keyboard-response","14","31477","0.0-17.0","3K4J6M3CXFF4Q8QE4JQEZQO4FHKGAJ","A2H3CV7SIVYREN","3FW4EL5A3LANKRP91N782LFHPY722Q","","92","img/land3.png","75","94","2","0","false","3","0.8,0.8,0.2,0.2,0.8,0.8,0.8,0.2,0.8","",""
"","html-keyboard-response","15","31787","0.0-18.0","3K4J6M3CXFF4Q8QE4JQEZQO4FHKGAJ","A2H3CV7SIVYREN","3FW4EL5A3LANKRP91N782LFHPY722Q","","null","<img src=""img/land3.png"" style=""width:200px;border:14px solid red;"">","null","","","","","","","",""
"","image-keyboard-response","16","32078","0.0-20.0","3K4J6M3CXFF4Q8QE4JQEZQO4FHKGAJ","A2H3CV7SIVYREN","3FW4EL5A3LANKRP91N782LFHPY722Q","","289","img/land8.png","75","291","2","1","false","2","0.8,0.8,0.2,0.2,0.8,0.8,0.8,0.2,0.8","",""
"","html-keyboard-response","17","32387","0.0-21.0","3K4J6M3CXFF4Q8QE4JQEZQO4FHKGAJ","A2H3CV7SIVYREN","3FW4EL5A3LANKRP91N782LFHPY722Q","","null","<img src=""img/land8.png"" style=""width:200px; border:14px solid green;"">","null","","","","","","","",""
"","image-keyboard-response","18","32423","0.0-23.0","3K4J6M3CXFF4Q8QE4JQEZQO4FHKGAJ","A2H3CV7SIVYREN","3FW4EL5A3LANKRP91N782LFHPY722Q","","35","img/land8.png","74","36","1","0","false","2","0.8,0.8,0.2,0.2,0.8,0.8,0.8,0.2,0.8","",""
"","html-keyboard-response","19","32727","0.0-24.0","3K4J6M3CXFF4Q8QE4JQEZQO4FHKGAJ","A2H3CV7SIVYREN","3FW4EL5A3LANKRP91N782LFHPY722Q","","null","<img src=""img/land8.png"" style=""width:200px;border:14px solid red;"">","null","","","","","","","",""
"","image-keyboard-response","20","33040","0.0-26.0","3K4J6M3CXFF4Q8QE4JQEZQO4FHKGAJ","A2H3CV7SIVYREN","3FW4EL5A3LANKRP91N782LFHPY722Q","","311","img/land3.png","75","312","2","0","false","3","0.8,0.8,0.2,0.2,0.8,0.8,0.8,0.2,0.8","",""
"","html-keyboard-response","21","33341","0.0-27.0","3K4J6M3CXFF4Q8QE4JQEZQO4FHKGAJ","A2H3CV7SIVYREN","3FW4EL5A3LANKRP91N782LFHPY722Q","","null","<img src=""img/land3.png"" style=""width:200px;border:14px solid red;"">","null","","","","","","","",""
"","image-keyboard-response","22","33652","0.0-29.0","3K4J6M3CXFF4Q8QE4JQEZQO4FHKGAJ","A2H3CV7SIVYREN","3FW4EL5A3LANKRP91N782LFHPY722Q","","310","img/land3.png","74","310","1","1","false","3","0.8,0.8,0.2,0.2,0.8,0.8,0.8,0.2,0.8","",""
"","html-keyboard-response","23","33960","0.0-30.0","3K4J6M3CXFF4Q8QE4JQEZQO4FHKGAJ","A2H3CV7SIVYREN","3FW4EL5A3LANKRP91N782LFHPY722Q","","null","<img src=""img/land3.png"" style=""width:200px; border:14px solid green;"">","null","","","","","","","",""
"","image-keyboard-response","24","33983","0.0-32.0","3K4J6M3CXFF4Q8QE4JQEZQO4FHKGAJ","A2H3CV7SIVYREN","3FW4EL5A3LANKRP91N782LFHPY722Q","","21","img/land1.png","74","22","1","1","false","1","0.8,0.8,0.2,0.2,0.8,0.8,0.8,0.2,0.8","",""
"","html-keyboard-response","25","34284","0.0-33.0","3K4J6M3CXFF4Q8QE4JQEZQO4FHKGAJ","A2H3CV7SIVYREN","3FW4EL5A3LANKRP91N782LFHPY722Q","","null","<img src=""img/land1.png"" style=""width:200px; border:14px solid green;"">","null","","","","","","","",""
"","image-keyboard-response","26","34464","0.0-35.0","3K4J6M3CXFF4Q8QE4JQEZQO4FHKGAJ","A2H3CV7SIVYREN","3FW4EL5A3LANKRP91N782LFHPY722Q","","178","img/land3.png","74","179","1","1","false","3","0.8,0.8,0.2,0.2,0.8,0.8,0.8,0.2,0.8","",""
"","html-keyboard-response","27","34765","0.0-36.0","3K4J6M3CXFF4Q8QE4JQEZQO4FHKGAJ","A2H3CV7SIVYREN","3FW4EL5A3LANKRP91N782LFHPY722Q","","null","<img src=""img/land3.png"" style=""width:200px; border:14px solid green;"">","null","","","","","","","",""
"","image-keyboard-response","28","34848","0.0-38.0","3K4J6M3CXFF4Q8QE4JQEZQO4FHKGAJ","A2H3CV7SIVYREN","3FW4EL5A3LANKRP91N782LFHPY722Q","","81","img/land1.png","75","83","2","0","false","1","0.8,0.8,0.2,0.2,0.8,0.8,0.8,0.2,0.8","",""
"","html-keyboard-response","29","35150","0.0-39.0","3K4J6M3CXFF4Q8QE4JQEZQO4FHKGAJ","A2H3CV7SIVYREN","3FW4EL5A3LANKRP91N782LFHPY722Q","","null","<img src=""img/land1.png"" style=""width:200px;border:14px solid red;"">","null","","","","","","","",""
"","image-keyboard-response","30","35452","0.0-41.0","3K4J6M3CXFF4Q8QE4JQEZQO4FHKGAJ","A2H3CV7SIVYREN","3FW4EL5A3LANKRP91N782LFHPY722Q","","298","img/land8.png","75","298","2","1","false","2","0.8,0.8,0.2,0.2,0.8,0.8,0.8,0.2,0.8","",""
"","html-keyboard-response","31","35753","0.0-42.0","3K4J6M3CXFF4Q8QE4JQEZQO4FHKGAJ","A2H3CV7SIVYREN","3FW4EL5A3LANKRP91N782LFHPY722Q","","null","<img src=""img/land8.png"" style=""width:200px; border:14px solid green;"">","null","","","","","","","",""
"","image-keyboard-response","32","35795","0.0-44.0","3K4J6M3CXFF4Q8QE4JQEZQO4FHKGAJ","A2H3CV7SIVYREN","3FW4EL5A3LANKRP91N782LFHPY722Q","","38","img/land1.png","75","40","2","1","false","1","0.8,0.8,0.2,0.2,0.8,0.8,0.8,0.2,0.8","",""
"","html-keyboard-response","33","36099","0.0-45.0","3K4J6M3CXFF4Q8QE4JQEZQO4FHKGAJ","A2H3CV7SIVYREN","3FW4EL5A3LANKRP91N782LFHPY722Q","","null","<img src=""img/land1.png"" style=""width:200px; border:14px solid green;"">","null","","","","","","","",""
"","image-keyboard-response","34","36182","0.0-47.0","3K4J6M3CXFF4Q8QE4JQEZQO4FHKGAJ","A2H3CV7SIVYREN","3FW4EL5A3LANKRP91N782LFHPY722Q","","82","img/land3.png","75","83","2","0","false","3","0.8,0.8,0.2,0.2,0.8,0.8,0.8,0.2,0.8","",""
"","html-keyboard-response","35","36488","0.0-48.0","3K4J6M3CXFF4Q8QE4JQEZQO4FHKGAJ","A2H3CV7SIVYREN","3FW4EL5A3LANKRP91N782LFHPY722Q","","null","<img src=""img/land3.png"" style=""width:200px;border:14px solid red;"">","null","","","","","","","",""
"","image-keyboard-response","36","36533","0.0-50.0","3K4J6M3CXFF4Q8QE4JQEZQO4FHKGAJ","A2H3CV7SIVYREN","3FW4EL5A3LANKRP91N782LFHPY722Q","","43","img/land8.png","75","45","2","1","false","2","0.8,0.8,0.2,0.2,0.8,0.8,0.8,0.2,0.8","",""
"","html-keyboard-response","37","36907","0.0-51.0","3K4J6M3CXFF4Q8QE4JQEZQO4FHKGAJ","A2H3CV7SIVYREN","3FW4EL5A3LANKRP91N782LFHPY722Q","","null","<img src=""img/land8.png"" style=""width:200px; border:14px solid green;"">","null","","","","","","","",""
"","image-keyboard-response","38","36967","0.0-53.0","3K4J6M3CXFF4Q8QE4JQEZQO4FHKGAJ","A2H3CV7SIVYREN","3FW4EL5A3LANKRP91N782LFHPY722Q","","59","img/land1.png","76","60","3","0","false","1","0.8,0.8,0.2,0.2,0.8,0.8,0.8,0.2,0.8","",""
"","html-keyboard-response","39","37275","0.0-54.0","3K4J6M3CXFF4Q8QE4JQEZQO4FHKGAJ","A2H3CV7SIVYREN","3FW4EL5A3LANKRP91N782LFHPY722Q","","null","<img src=""img/land1.png"" style=""width:200px;border:14px solid red;"">","null","","","","","","","",""
"","image-keyboard-response","40","37432","0.0-56.0","3K4J6M3CXFF4Q8QE4JQEZQO4FHKGAJ","A2H3CV7SIVYREN","3FW4EL5A3LANKRP91N782LFHPY722Q","","155","img/land3.png","76","155","3","1","false","3","0.8,0.8,0.2,0.2,0.8,0.8,0.8,0.2,0.8","",""
"","html-keyboard-response","41","37738","0.0-57.0","3K4J6M3CXFF4Q8QE4JQEZQO4FHKGAJ","A2H3CV7SIVYREN","3FW4EL5A3LANKRP91N782LFHPY722Q","","null","<img src=""img/land3.png"" style=""width:200px; border:14px solid green;"">","null","","","","","","","",""
"","image-keyboard-response","42","37822","0.0-59.0","3K4J6M3CXFF4Q8QE4JQEZQO4FHKGAJ","A2H3CV7SIVYREN","3FW4EL5A3LANKRP91N782LFHPY722Q","","82","img/land8.png","76","84","3","0","false","2","0.8,0.8,0.2,0.2,0.8,0.8,0.8,0.2,0.8","",""
"","html-keyboard-response","43","38123","0.0-60.0","3K4J6M3CXFF4Q8QE4JQEZQO4FHKGAJ","A2H3CV7SIVYREN","3FW4EL5A3LANKRP91N782LFHPY722Q","","null","<img src=""img/land8.png"" style=""width:200px;border:14px solid red;"">","null","","","","","","","",""
"","image-keyboard-response","44","38207","0.0-62.0","3K4J6M3CXFF4Q8QE4JQEZQO4FHKGAJ","A2H3CV7SIVYREN","3FW4EL5A3LANKRP91N782LFHPY722Q","","83","img/land8.png","76","84","3","1","false","2","0.8,0.8,0.2,0.2,0.8,0.8,0.8,0.2,0.8","",""
"","html-keyboard-response","45","38509","0.0-63.0","3K4J6M3CXFF4Q8QE4JQEZQO4FHKGAJ","A2H3CV7SIVYREN","3FW4EL5A3LANKRP91N782LFHPY722Q","","null","<img src=""img/land8.png"" style=""width:200px; border:14px solid green;"">","null","","","","","","","",""
"","image-keyboard-response","46","38764","0.0-65.0","3K4J6M3CXFF4Q8QE4JQEZQO4FHKGAJ","A2H3CV7SIVYREN","3FW4EL5A3LANKRP91N782LFHPY722Q","","253","img/land8.png","74","255","1","0","false","2","0.8,0.8,0.2,0.2,0.8,0.8,0.8,0.2,0.8","",""
"","html-keyboard-response","47","39071","0.0-66.0","3K4J6M3CXFF4Q8QE4JQEZQO4FHKGAJ","A2H3CV7SIVYREN","3FW4EL5A3LANKRP91N782LFHPY722Q","","null","<img src=""img/land8.png"" style=""width:200px;border:14px solid red;"">","null","","","","","","","",""
"","image-keyboard-response","48","39272","0.0-68.0","3K4J6M3CXFF4Q8QE4JQEZQO4FHKGAJ","A2H3CV7SIVYREN","3FW4EL5A3LANKRP91N782LFHPY722Q","","199","img/land8.png","75","200","2","1","false","2","0.8,0.8,0.2,0.2,0.8,0.8,0.8,0.2,0.8","",""
"","html-keyboard-response","49","39579","0.0-69.0","3K4J6M3CXFF4Q8QE4JQEZQO4FHKGAJ","A2H3CV7SIVYREN","3FW4EL5A3LANKRP91N782LFHPY722Q","","null","<img src=""img/land8.png"" style=""width:200px; border:14px solid green;"">","null","","","","","","","",""
"","image-keyboard-response","50","39660","0.0-71.0","3K4J6M3CXFF4Q8QE4JQEZQO4FHKGAJ","A2H3CV7SIVYREN","3FW4EL5A3LANKRP91N782LFHPY722Q","","79","img/land3.png","75","81","2","0","false","3","0.8,0.8,0.2,0.2,0.8,0.8,0.8,0.2,0.8","",""
"","html-keyboard-response","51","39973","0.0-72.0","3K4J6M3CXFF4Q8QE4JQEZQO4FHKGAJ","A2H3CV7SIVYREN","3FW4EL5A3LANKRP91N782LFHPY722Q","","null","<img src=""img/land3.png"" style=""width:200px;border:14px solid red;"">","null","","","","","","","",""
"","image-keyboard-response","52","39981","0.0-74.0","3K4J6M3CXFF4Q8QE4JQEZQO4FHKGAJ","A2H3CV7SIVYREN","3FW4EL5A3LANKRP91N782LFHPY722Q","","7","img/land1.png","75","7","2","1","false","1","0.8,0.8,0.2,0.2,0.8,0.8,0.8,0.2,0.8","",""
"","html-keyboard-response","53","40291","0.0-75.0","3K4J6M3CXFF4Q8QE4JQEZQO4FHKGAJ","A2H3CV7SIVYREN","3FW4EL5A3LANKRP91N782LFHPY722Q","","null","<img src=""img/land1.png"" style=""width:200px; border:14px solid green;"">","null","","","","","","","",""
"","image-keyboard-response","54","40529","0.0-77.0","3K4J6M3CXFF4Q8QE4JQEZQO4FHKGAJ","A2H3CV7SIVYREN","3FW4EL5A3LANKRP91N782LFHPY722Q","","236","img/land8.png","74","237","1","1","false","2","0.8,0.8,0.2,0.2,0.8,0.8,0.8,0.2,0.8","",""
"","html-keyboard-response","55","40834","0.0-78.0","3K4J6M3CXFF4Q8QE4JQEZQO4FHKGAJ","A2H3CV7SIVYREN","3FW4EL5A3LANKRP91N782LFHPY722Q","","null","<img src=""img/land8.png"" style=""width:200px; border:14px solid green;"">","null","","","","","","","",""
"","image-keyboard-response","56","41162","0.0-80.0","3K4J6M3CXFF4Q8QE4JQEZQO4FHKGAJ","A2H3CV7SIVYREN","3FW4EL5A3LANKRP91N782LFHPY722Q","","327","img/land3.png","75","328","2","0","false","3","0.8,0.8,0.2,0.2,0.8,0.8,0.8,0.2,0.8","",""
"","html-keyboard-response","57","41469","0.0-81.0","3K4J6M3CXFF4Q8QE4JQEZQO4FHKGAJ","A2H3CV7SIVYREN","3FW4EL5A3LANKRP91N782LFHPY722Q","","null","<img src=""img/land3.png"" style=""width:200px;border:14px solid red;"">","null","","","","","","","",""
"","image-keyboard-response","58","41751","0.0-83.0","3K4J6M3CXFF4Q8QE4JQEZQO4FHKGAJ","A2H3CV7SIVYREN","3FW4EL5A3LANKRP91N782LFHPY722Q","","279","img/land3.png","75","279","2","0","false","3","0.8,0.8,0.2,0.2,0.8,0.8,0.8,0.2,0.8","",""
"","html-keyboard-response","59","42055","0.0-84.0","3K4J6M3CXFF4Q8QE4JQEZQO4FHKGAJ","A2H3CV7SIVYREN","3FW4EL5A3LANKRP91N782LFHPY722Q","","null","<img src=""img/land3.png"" style=""width:200px;border:14px solid red;"">","null","","","","","","","",""
"","image-keyboard-response","60","42197","0.0-86.0","3K4J6M3CXFF4Q8QE4JQEZQO4FHKGAJ","A2H3CV7SIVYREN","3FW4EL5A3LANKRP91N782LFHPY722Q","","141","img/land1.png","76","142","3","0","false","1","0.8,0.8,0.2,0.2,0.8,0.8,0.8,0.2,0.8","",""
"","html-keyboard-response","61","42501","0.0-87.0","3K4J6M3CXFF4Q8QE4JQEZQO4FHKGAJ","A2H3CV7SIVYREN","3FW4EL5A3LANKRP91N782LFHPY722Q","","null","<img src=""img/land1.png"" style=""width:200px;border:14px solid red;"">","null","","","","","","","",""
"","image-keyboard-response","62","42641","0.0-89.0","3K4J6M3CXFF4Q8QE4JQEZQO4FHKGAJ","A2H3CV7SIVYREN","3FW4EL5A3LANKRP91N782LFHPY722Q","","139","img/land3.png","76","140","3","1","false","3","0.8,0.8,0.2,0.2,0.8,0.8,0.8,0.2,0.8","",""
"","html-keyboard-response","63","42951","0.0-90.0","3K4J6M3CXFF4Q8QE4JQEZQO4FHKGAJ","A2H3CV7SIVYREN","3FW4EL5A3LANKRP91N782LFHPY722Q","","null","<img src=""img/land3.png"" style=""width:200px; border:14px solid green;"">","null","","","","","","","",""
"","image-keyboard-response","64","43045","0.0-92.0","3K4J6M3CXFF4Q8QE4JQEZQO4FHKGAJ","A2H3CV7SIVYREN","3FW4EL5A3LANKRP91N782LFHPY722Q","","92","img/land8.png","76","94","3","1","false","2","0.8,0.8,0.2,0.2,0.8,0.8,0.8,0.2,0.8","",""
"","html-keyboard-response","65","43351","0.0-93.0","3K4J6M3CXFF4Q8QE4JQEZQO4FHKGAJ","A2H3CV7SIVYREN","3FW4EL5A3LANKRP91N782LFHPY722Q","","null","<img src=""img/land8.png"" style=""width:200px; border:14px solid green;"">","null","","","","","","","",""
"","image-keyboard-response","66","43393","0.0-95.0","3K4J6M3CXFF4Q8QE4JQEZQO4FHKGAJ","A2H3CV7SIVYREN","3FW4EL5A3LANKRP91N782LFHPY722Q","","41","img/land3.png","74","42","1","1","false","3","0.8,0.8,0.2,0.2,0.8,0.8,0.8,0.2,0.8","",""
"","html-keyboard-response","67","43695","0.0-96.0","3K4J6M3CXFF4Q8QE4JQEZQO4FHKGAJ","A2H3CV7SIVYREN","3FW4EL5A3LANKRP91N782LFHPY722Q","","null","<img src=""img/land3.png"" style=""width:200px; border:14px solid green;"">","null","","","","","","","",""
"","image-keyboard-response","68","44026","0.0-98.0","3K4J6M3CXFF4Q8QE4JQEZQO4FHKGAJ","A2H3CV7SIVYREN","3FW4EL5A3LANKRP91N782LFHPY722Q","","330","img/land3.png","74","331","1","1","false","3","0.8,0.8,0.2,0.2,0.8,0.8,0.8,0.2,0.8","",""
"","html-keyboard-response","69","44328","0.0-99.0","3K4J6M3CXFF4Q8QE4JQEZQO4FHKGAJ","A2H3CV7SIVYREN","3FW4EL5A3LANKRP91N782LFHPY722Q","","null","<img src=""img/land3.png"" style=""width:200px; border:14px solid green;"">","null","","","","","","","",""
"","image-keyboard-response","70","44564","0.0-101.0","3K4J6M3CXFF4Q8QE4JQEZQO4FHKGAJ","A2H3CV7SIVYREN","3FW4EL5A3LANKRP91N782LFHPY722Q","","234","img/land3.png","74","235","1","0","false","3","0.8,0.8,0.2,0.2,0.8,0.8,0.8,0.2,0.8","",""
"","html-keyboard-response","71","44870","0.0-102.0","3K4J6M3CXFF4Q8QE4JQEZQO4FHKGAJ","A2H3CV7SIVYREN","3FW4EL5A3LANKRP91N782LFHPY722Q","","null","<img src=""img/land3.png"" style=""width:200px;border:14px solid red;"">","null","","","","","","","",""
"","image-keyboard-response","72","45115","0.0-104.0","3K4J6M3CXFF4Q8QE4JQEZQO4FHKGAJ","A2H3CV7SIVYREN","3FW4EL5A3LANKRP91N782LFHPY722Q","","243","img/land1.png","74","245","1","0","false","1","0.8,0.8,0.2,0.2,0.8,0.8,0.8,0.2,0.8","",""
"","html-keyboard-response","73","45423","0.0-105.0","3K4J6M3CXFF4Q8QE4JQEZQO4FHKGAJ","A2H3CV7SIVYREN","3FW4EL5A3LANKRP91N782LFHPY722Q","","null","<img src=""img/land1.png"" style=""width:200px;border:14px solid red;"">","null","","","","","","","",""
"","image-keyboard-response","74","45427","0.0-107.0","3K4J6M3CXFF4Q8QE4JQEZQO4FHKGAJ","A2H3CV7SIVYREN","3FW4EL5A3LANKRP91N782LFHPY722Q","","3","img/land8.png","74","3","1","0","false","2","0.8,0.8,0.2,0.2,0.8,0.8,0.8,0.2,0.8","",""
"","html-keyboard-response","75","45733","0.0-108.0","3K4J6M3CXFF4Q8QE4JQEZQO4FHKGAJ","A2H3CV7SIVYREN","3FW4EL5A3LANKRP91N782LFHPY722Q","","null","<img src=""img/land8.png"" style=""width:200px;border:14px solid red;"">","null","","","","","","","",""
"","image-keyboard-response","76","45764","0.0-110.0","3K4J6M3CXFF4Q8QE4JQEZQO4FHKGAJ","A2H3CV7SIVYREN","3FW4EL5A3LANKRP91N782LFHPY722Q","","30","img/land1.png","74","31","1","1","false","1","0.8,0.8,0.2,0.2,0.8,0.8,0.8,0.2,0.8","",""
"","html-keyboard-response","77","46066","0.0-111.0","3K4J6M3CXFF4Q8QE4JQEZQO4FHKGAJ","A2H3CV7SIVYREN","3FW4EL5A3LANKRP91N782LFHPY722Q","","null","<img src=""img/land1.png"" style=""width:200px; border:14px solid green;"">","null","","","","","","","",""
"","image-keyboard-response","78","46497","0.0-113.0","3K4J6M3CXFF4Q8QE4JQEZQO4FHKGAJ","A2H3CV7SIVYREN","3FW4EL5A3LANKRP91N782LFHPY722Q","","428","img/land3.png","74","430","1","1","false","3","0.8,0.8,0.2,0.2,0.8,0.8,0.8,0.2,0.8","",""
"","html-keyboard-response","79","46839","0.0-114.0","3K4J6M3CXFF4Q8QE4JQEZQO4FHKGAJ","A2H3CV7SIVYREN","3FW4EL5A3LANKRP91N782LFHPY722Q","","null","<img src=""img/land3.png"" style=""width:200px; border:14px solid green;"">","null","","","","","","","",""
"","image-keyboard-response","80","46861","0.0-116.0","3K4J6M3CXFF4Q8QE4JQEZQO4FHKGAJ","A2H3CV7SIVYREN","3FW4EL5A3LANKRP91N782LFHPY722Q","","21","img/land1.png","74","22","1","0","false","1","0.8,0.8,0.2,0.2,0.8,0.8,0.8,0.2,0.8","",""
"","html-keyboard-response","81","47167","0.0-117.0","3K4J6M3CXFF4Q8QE4JQEZQO4FHKGAJ","A2H3CV7SIVYREN","3FW4EL5A3LANKRP91N782LFHPY722Q","","null","<img src=""img/land1.png"" style=""width:200px;border:14px solid red;"">","null","","","","","","","",""
"","image-keyboard-response","82","47403","0.0-119.0","3K4J6M3CXFF4Q8QE4JQEZQO4FHKGAJ","A2H3CV7SIVYREN","3FW4EL5A3LANKRP91N782LFHPY722Q","","234","img/land3.png","74","236","1","1","false","3","0.8,0.8,0.2,0.2,0.8,0.8,0.8,0.2,0.8","",""
"","html-keyboard-response","83","47704","0.0-120.0","3K4J6M3CXFF4Q8QE4JQEZQO4FHKGAJ","A2H3CV7SIVYREN","3FW4EL5A3LANKRP91N782LFHPY722Q","","null","<img src=""img/land3.png"" style=""width:200px; border:14px solid green;"">","null","","","","","","","",""
"","image-keyboard-response","84","48005","0.0-122.0","3K4J6M3CXFF4Q8QE4JQEZQO4FHKGAJ","A2H3CV7SIVYREN","3FW4EL5A3LANKRP91N782LFHPY722Q","","299","img/land8.png","74","300","1","0","false","2","0.8,0.8,0.2,0.2,0.8,0.8,0.8,0.2,0.8","",""
"","html-keyboard-response","85","48307","0.0-123.0","3K4J6M3CXFF4Q8QE4JQEZQO4FHKGAJ","A2H3CV7SIVYREN","3FW4EL5A3LANKRP91N782LFHPY722Q","","null","<img src=""img/land8.png"" style=""width:200px;border:14px solid red;"">","null","","","","","","","",""
"","image-keyboard-response","86","48546","0.0-125.0","3K4J6M3CXFF4Q8QE4JQEZQO4FHKGAJ","A2H3CV7SIVYREN","3FW4EL5A3LANKRP91N782LFHPY722Q","","238","img/land8.png","74","239","1","1","false","2","0.8,0.8,0.2,0.2,0.8,0.8,0.8,0.2,0.8","",""
"","html-keyboard-response","87","48858","0.0-126.0","3K4J6M3CXFF4Q8QE4JQEZQO4FHKGAJ","A2H3CV7SIVYREN","3FW4EL5A3LANKRP91N782LFHPY722Q","","null","<img src=""img/land8.png"" style=""width:200px; border:14px solid green;"">","null","","","","","","","",""
"","image-keyboard-response","88","48860","0.0-128.0","3K4J6M3CXFF4Q8QE4JQEZQO4FHKGAJ","A2H3CV7SIVYREN","3FW4EL5A3LANKRP91N782LFHPY722Q","","0","img/land1.png","74","1","1","1","false","1","0.8,0.8,0.2,0.2,0.8,0.8,0.8,0.2,0.8","",""
"","html-keyboard-response","89","49164","0.0-129.0","3K4J6M3CXFF4Q8QE4JQEZQO4FHKGAJ","A2H3CV7SIVYREN","3FW4EL5A3LANKRP91N782LFHPY722Q","","null","<img src=""img/land1.png"" style=""width:200px; border:14px solid green;"">","null","","","","","","","",""
"","image-keyboard-response","90","49375","0.0-131.0","3K4J6M3CXFF4Q8QE4JQEZQO4FHKGAJ","A2H3CV7SIVYREN","3FW4EL5A3LANKRP91N782LFHPY722Q","","210","img/land3.png","74","211","1","0","false","3","0.8,0.8,0.2,0.2,0.8,0.8,0.8,0.2,0.8","",""
"","html-keyboard-response","91","49683","0.0-132.0","3K4J6M3CXFF4Q8QE4JQEZQO4FHKGAJ","A2H3CV7SIVYREN","3FW4EL5A3LANKRP91N782LFHPY722Q","","null","<img src=""img/land3.png"" style=""width:200px;border:14px solid red;"">","null","","","","","","","",""
"","image-keyboard-response","92","49706","0.0-134.0","3K4J6M3CXFF4Q8QE4JQEZQO4FHKGAJ","A2H3CV7SIVYREN","3FW4EL5A3LANKRP91N782LFHPY722Q","","22","img/land3.png","74","23","1","0","false","3","0.8,0.8,0.2,0.2,0.8,0.8,0.8,0.2,0.8","",""
"","html-keyboard-response","93","50010","0.0-135.0","3K4J6M3CXFF4Q8QE4JQEZQO4FHKGAJ","A2H3CV7SIVYREN","3FW4EL5A3LANKRP91N782LFHPY722Q","","null","<img src=""img/land3.png"" style=""width:200px;border:14px solid red;"">","null","","","","","","","",""
"","image-keyboard-response","94","50221","0.0-137.0","3K4J6M3CXFF4Q8QE4JQEZQO4FHKGAJ","A2H3CV7SIVYREN","3FW4EL5A3LANKRP91N782LFHPY722Q","","208","img/land8.png","74","209","1","0","false","2","0.8,0.8,0.2,0.2,0.8,0.8,0.8,0.2,0.8","",""
"","html-keyboard-response","95","50522","0.0-138.0","3K4J6M3CXFF4Q8QE4JQEZQO4FHKGAJ","A2H3CV7SIVYREN","3FW4EL5A3LANKRP91N782LFHPY722Q","","null","<img src=""img/land8.png"" style=""width:200px;border:14px solid red;"">","null","","","","","","","",""
"","image-keyboard-response","96","50562","0.0-140.0","3K4J6M3CXFF4Q8QE4JQEZQO4FHKGAJ","A2H3CV7SIVYREN","3FW4EL5A3LANKRP91N782LFHPY722Q","","38","img/land1.png","74","39","1","1","false","1","0.8,0.8,0.2,0.2,0.8,0.8,0.8,0.2,0.8","",""
"","html-keyboard-response","97","50871","0.0-141.0","3K4J6M3CXFF4Q8QE4JQEZQO4FHKGAJ","A2H3CV7SIVYREN","3FW4EL5A3LANKRP91N782LFHPY722Q","","null","<img src=""img/land1.png"" style=""width:200px; border:14px solid green;"">","null","","","","","","","",""
"","image-keyboard-response","98","51291","0.0-143.0","3K4J6M3CXFF4Q8QE4JQEZQO4FHKGAJ","A2H3CV7SIVYREN","3FW4EL5A3LANKRP91N782LFHPY722Q","","401","img/land8.png","75","419","2","1","false","2","0.8,0.8,0.2,0.2,0.8,0.8,0.8,0.2,0.8","",""
"","html-keyboard-response","99","51596","0.0-144.0","3K4J6M3CXFF4Q8QE4JQEZQO4FHKGAJ","A2H3CV7SIVYREN","3FW4EL5A3LANKRP91N782LFHPY722Q","","null","<img src=""img/land8.png"" style=""width:200px; border:14px solid green;"">","null","","","","","","","",""
"","image-keyboard-response","100","51756","0.0-146.0","3K4J6M3CXFF4Q8QE4JQEZQO4FHKGAJ","A2H3CV7SIVYREN","3FW4EL5A3LANKRP91N782LFHPY722Q","","158","img/land1.png","75","160","2","1","false","1","0.8,0.8,0.2,0.2,0.8,0.8,0.8,0.2,0.8","",""
"","html-keyboard-response","101","52058","0.0-147.0","3K4J6M3CXFF4Q8QE4JQEZQO4FHKGAJ","A2H3CV7SIVYREN","3FW4EL5A3LANKRP91N782LFHPY722Q","","null","<img src=""img/land1.png"" style=""width:200px; border:14px solid green;"">","null","","","","","","","",""
"","image-keyboard-response","102","52404","0.0-149.0","3K4J6M3CXFF4Q8QE4JQEZQO4FHKGAJ","A2H3CV7SIVYREN","3FW4EL5A3LANKRP91N782LFHPY722Q","","345","img/land8.png","75","345","2","0","false","2","0.8,0.8,0.2,0.2,0.8,0.8,0.8,0.2,0.8","",""
"","html-keyboard-response","103","52706","0.0-150.0","3K4J6M3CXFF4Q8QE4JQEZQO4FHKGAJ","A2H3CV7SIVYREN","3FW4EL5A3LANKRP91N782LFHPY722Q","","null","<img src=""img/land8.png"" style=""width:200px;border:14px solid red;"">","null","","","","","","","",""
"","image-keyboard-response","104","52785","0.0-152.0","3K4J6M3CXFF4Q8QE4JQEZQO4FHKGAJ","A2H3CV7SIVYREN","3FW4EL5A3LANKRP91N782LFHPY722Q","","78","img/land3.png","75","79","2","0","false","3","0.8,0.8,0.2,0.2,0.8,0.8,0.8,0.2,0.8","",""
"","html-keyboard-response","105","53091","0.0-153.0","3K4J6M3CXFF4Q8QE4JQEZQO4FHKGAJ","A2H3CV7SIVYREN","3FW4EL5A3LANKRP91N782LFHPY722Q","","null","<img src=""img/land3.png"" style=""width:200px;border:14px solid red;"">","null","","","","","","","",""
"","image-keyboard-response","106","53201","0.0-155.0","3K4J6M3CXFF4Q8QE4JQEZQO4FHKGAJ","A2H3CV7SIVYREN","3FW4EL5A3LANKRP91N782LFHPY722Q","","109","img/land8.png","75","110","2","1","false","2","0.8,0.8,0.2,0.2,0.8,0.8,0.8,0.2,0.8","",""
"","html-keyboard-response","107","53507","0.0-156.0","3K4J6M3CXFF4Q8QE4JQEZQO4FHKGAJ","A2H3CV7SIVYREN","3FW4EL5A3LANKRP91N782LFHPY722Q","","null","<img src=""img/land8.png"" style=""width:200px; border:14px solid green;"">","null","","","","","","","",""
"","image-keyboard-response","108","53563","0.0-158.0","3K4J6M3CXFF4Q8QE4JQEZQO4FHKGAJ","A2H3CV7SIVYREN","3FW4EL5A3LANKRP91N782LFHPY722Q","","53","img/land1.png","74","54","1","1","false","1","0.8,0.8,0.2,0.2,0.8,0.8,0.8,0.2,0.8","",""
"","html-keyboard-response","109","53864","0.0-159.0","3K4J6M3CXFF4Q8QE4JQEZQO4FHKGAJ","A2H3CV7SIVYREN","3FW4EL5A3LANKRP91N782LFHPY722Q","","null","<img src=""img/land1.png"" style=""width:200px; border:14px solid green;"">","null","","","","","","","",""
"","image-keyboard-response","110","53902","0.0-161.0","3K4J6M3CXFF4Q8QE4JQEZQO4FHKGAJ","A2H3CV7SIVYREN","3FW4EL5A3LANKRP91N782LFHPY722Q","","37","img/land8.png","74","38","1","0","false","2","0.8,0.8,0.2,0.2,0.8,0.8,0.8,0.2,0.8","",""
"","html-keyboard-response","111","54207","0.0-162.0","3K4J6M3CXFF4Q8QE4JQEZQO4FHKGAJ","A2H3CV7SIVYREN","3FW4EL5A3LANKRP91N782LFHPY722Q","","null","<img src=""img/land8.png"" style=""width:200px;border:14px solid red;"">","null","","","","","","","",""
"","image-keyboard-response","112","54294","0.0-164.0","3K4J6M3CXFF4Q8QE4JQEZQO4FHKGAJ","A2H3CV7SIVYREN","3FW4EL5A3LANKRP91N782LFHPY722Q","","87","img/land3.png","75","87","2","1","false","3","0.8,0.8,0.2,0.2,0.8,0.8,0.8,0.2,0.8","",""
"","html-keyboard-response","113","54611","0.0-165.0","3K4J6M3CXFF4Q8QE4JQEZQO4FHKGAJ","A2H3CV7SIVYREN","3FW4EL5A3LANKRP91N782LFHPY722Q","","null","<img src=""img/land3.png"" style=""width:200px; border:14px solid green;"">","null","","","","","","","",""
"","image-keyboard-response","114","54847","0.0-167.0","3K4J6M3CXFF4Q8QE4JQEZQO4FHKGAJ","A2H3CV7SIVYREN","3FW4EL5A3LANKRP91N782LFHPY722Q","","235","img/land1.png","75","236","2","1","false","1","0.8,0.8,0.2,0.2,0.8,0.8,0.8,0.2,0.8","",""
"","html-keyboard-response","115","55159","0.0-168.0","3K4J6M3CXFF4Q8QE4JQEZQO4FHKGAJ","A2H3CV7SIVYREN","3FW4EL5A3LANKRP91N782LFHPY722Q","","null","<img src=""img/land1.png"" style=""width:200px; border:14px solid green;"">","null","","","","","","","",""
"","image-keyboard-response","116","55461","0.0-170.0","3K4J6M3CXFF4Q8QE4JQEZQO4FHKGAJ","A2H3CV7SIVYREN","3FW4EL5A3LANKRP91N782LFHPY722Q","","301","img/land1.png","75","302","2","1","false","1","0.8,0.8,0.2,0.2,0.8,0.8,0.8,0.2,0.8","",""
"","html-keyboard-response","117","55825","0.0-171.0","3K4J6M3CXFF4Q8QE4JQEZQO4FHKGAJ","A2H3CV7SIVYREN","3FW4EL5A3LANKRP91N782LFHPY722Q","","null","<img src=""img/land1.png"" style=""width:200px; border:14px solid green;"">","null","","","","","","","",""
"","image-keyboard-response","118","56151","0.0-173.0","3K4J6M3CXFF4Q8QE4JQEZQO4FHKGAJ","A2H3CV7SIVYREN","3FW4EL5A3LANKRP91N782LFHPY722Q","","325","img/land1.png","75","326","2","1","false","1","0.8,0.8,0.2,0.2,0.8,0.8,0.8,0.2,0.8","",""
"","html-keyboard-response","119","56457","0.0-174.0","3K4J6M3CXFF4Q8QE4JQEZQO4FHKGAJ","A2H3CV7SIVYREN","3FW4EL5A3LANKRP91N782LFHPY722Q","","null","<img src=""img/land1.png"" style=""width:200px; border:14px solid green;"">","null","","","","","","","",""
"","image-keyboard-response","120","56833","0.0-176.0","3K4J6M3CXFF4Q8QE4JQEZQO4FHKGAJ","A2H3CV7SIVYREN","3FW4EL5A3LANKRP91N782LFHPY722Q","","374","img/land3.png","75","375","2","0","false","3","0.8,0.8,0.2,0.2,0.8,0.8,0.8,0.2,0.8","",""
"","html-keyboard-response","121","57135","0.0-177.0","3K4J6M3CXFF4Q8QE4JQEZQO4FHKGAJ","A2H3CV7SIVYREN","3FW4EL5A3LANKRP91N782LFHPY722Q","","null","<img src=""img/land3.png"" style=""width:200px;border:14px solid red;"">","null","","","","","","","",""
"","image-keyboard-response","122","57167","0.0-179.0","3K4J6M3CXFF4Q8QE4JQEZQO4FHKGAJ","A2H3CV7SIVYREN","3FW4EL5A3LANKRP91N782LFHPY722Q","","29","img/land1.png","75","31","2","1","false","1","0.8,0.8,0.2,0.2,0.8,0.8,0.8,0.2,0.8","",""
"","html-keyboard-response","123","57467","0.0-180.0","3K4J6M3CXFF4Q8QE4JQEZQO4FHKGAJ","A2H3CV7SIVYREN","3FW4EL5A3LANKRP91N782LFHPY722Q","","null","<img src=""img/land1.png"" style=""width:200px; border:14px solid green;"">","null","","","","","","","",""
"","image-keyboard-response","124","57869","0.0-182.0","3K4J6M3CXFF4Q8QE4JQEZQO4FHKGAJ","A2H3CV7SIVYREN","3FW4EL5A3LANKRP91N782LFHPY722Q","","401","img/land3.png","74","402","1","1","false","3","0.8,0.8,0.2,0.2,0.8,0.8,0.8,0.2,0.8","",""
"","html-keyboard-response","125","58174","0.0-183.0","3K4J6M3CXFF4Q8QE4JQEZQO4FHKGAJ","A2H3CV7SIVYREN","3FW4EL5A3LANKRP91N782LFHPY722Q","","null","<img src=""img/land3.png"" style=""width:200px; border:14px solid green;"">","null","","","","","","","",""
"","image-keyboard-response","126","58390","0.0-185.0","3K4J6M3CXFF4Q8QE4JQEZQO4FHKGAJ","A2H3CV7SIVYREN","3FW4EL5A3LANKRP91N782LFHPY722Q","","213","img/land1.png","75","215","2","0","false","1","0.8,0.8,0.2,0.2,0.8,0.8,0.8,0.2,0.8","",""
"","html-keyboard-response","127","58701","0.0-186.0","3K4J6M3CXFF4Q8QE4JQEZQO4FHKGAJ","A2H3CV7SIVYREN","3FW4EL5A3LANKRP91N782LFHPY722Q","","null","<img src=""img/land1.png"" style=""width:200px;border:14px solid red;"">","null","","","","","","","",""
"","image-keyboard-response","128","58715","0.0-188.0","3K4J6M3CXFF4Q8QE4JQEZQO4FHKGAJ","A2H3CV7SIVYREN","3FW4EL5A3LANKRP91N782LFHPY722Q","","13","img/land3.png","75","14","2","0","false","3","0.8,0.8,0.2,0.2,0.8,0.8,0.8,0.2,0.8","",""
"","html-keyboard-response","129","59018","0.0-189.0","3K4J6M3CXFF4Q8QE4JQEZQO4FHKGAJ","A2H3CV7SIVYREN","3FW4EL5A3LANKRP91N782LFHPY722Q","","null","<img src=""img/land3.png"" style=""width:200px;border:14px solid red;"">","null","","","","","","","",""
"","image-keyboard-response","130","59306","0.0-191.0","3K4J6M3CXFF4Q8QE4JQEZQO4FHKGAJ","A2H3CV7SIVYREN","3FW4EL5A3LANKRP91N782LFHPY722Q","","286","img/land3.png","75","287","2","0","false","3","0.8,0.8,0.2,0.2,0.8,0.8,0.8,0.2,0.8","",""
"","html-keyboard-response","131","59648","0.0-192.0","3K4J6M3CXFF4Q8QE4JQEZQO4FHKGAJ","A2H3CV7SIVYREN","3FW4EL5A3LANKRP91N782LFHPY722Q","","null","<img src=""img/land3.png"" style=""width:200px;border:14px solid red;"">","null","","","","","","","",""
"","image-keyboard-response","132","59667","0.0-194.0","3K4J6M3CXFF4Q8QE4JQEZQO4FHKGAJ","A2H3CV7SIVYREN","3FW4EL5A3LANKRP91N782LFHPY722Q","","16","img/land3.png","75","16","2","0","false","3","0.8,0.8,0.2,0.2,0.8,0.8,0.8,0.2,0.8","",""
"","html-keyboard-response","133","59980","0.0-195.0","3K4J6M3CXFF4Q8QE4JQEZQO4FHKGAJ","A2H3CV7SIVYREN","3FW4EL5A3LANKRP91N782LFHPY722Q","","null","<img src=""img/land3.png"" style=""width:200px;border:14px solid red;"">","null","","","","","","","",""
"","image-keyboard-response","134","60089","0.0-197.0","3K4J6M3CXFF4Q8QE4JQEZQO4FHKGAJ","A2H3CV7SIVYREN","3FW4EL5A3LANKRP91N782LFHPY722Q","","107","img/land1.png","75","109","2","1","false","1","0.8,0.8,0.2,0.2,0.8,0.8,0.8,0.2,0.8","",""
"","html-keyboard-response","135","60393","0.0-198.0","3K4J6M3CXFF4Q8QE4JQEZQO4FHKGAJ","A2H3CV7SIVYREN","3FW4EL5A3LANKRP91N782LFHPY722Q","","null","<img src=""img/land1.png"" style=""width:200px; border:14px solid green;"">","null","","","","","","","",""
"","image-keyboard-response","136","60869","0.0-200.0","3K4J6M3CXFF4Q8QE4JQEZQO4FHKGAJ","A2H3CV7SIVYREN","3FW4EL5A3LANKRP91N782LFHPY722Q","","474","img/land1.png","76","475","3","0","false","1","0.8,0.8,0.2,0.2,0.8,0.8,0.8,0.2,0.8","",""
"","html-keyboard-response","137","61178","0.0-201.0","3K4J6M3CXFF4Q8QE4JQEZQO4FHKGAJ","A2H3CV7SIVYREN","3FW4EL5A3LANKRP91N782LFHPY722Q","","null","<img src=""img/land1.png"" style=""width:200px;border:14px solid red;"">","null","","","","","","","",""
"","image-keyboard-response","138","61333","0.0-203.0","3K4J6M3CXFF4Q8QE4JQEZQO4FHKGAJ","A2H3CV7SIVYREN","3FW4EL5A3LANKRP91N782LFHPY722Q","","153","img/land3.png","76","154","3","0","false","3","0.8,0.8,0.2,0.2,0.8,0.8,0.8,0.2,0.8","",""
"","html-keyboard-response","139","61644","0.0-204.0","3K4J6M3CXFF4Q8QE4JQEZQO4FHKGAJ","A2H3CV7SIVYREN","3FW4EL5A3LANKRP91N782LFHPY722Q","","null","<img src=""img/land3.png"" style=""width:200px;border:14px solid red;"">","null","","","","","","","",""
"","image-keyboard-response","140","61799","0.0-206.0","3K4J6M3CXFF4Q8QE4JQEZQO4FHKGAJ","A2H3CV7SIVYREN","3FW4EL5A3LANKRP91N782LFHPY722Q","","153","img/land3.png","74","154","1","1","false","3","0.8,0.8,0.2,0.2,0.8,0.8,0.8,0.2,0.8","",""
"","html-keyboard-response","141","62104","0.0-207.0","3K4J6M3CXFF4Q8QE4JQEZQO4FHKGAJ","A2H3CV7SIVYREN","3FW4EL5A3LANKRP91N782LFHPY722Q","","null","<img src=""img/land3.png"" style=""width:200px; border:14px solid green;"">","null","","","","","","","",""
"","image-keyboard-response","142","62215","0.0-209.0","3K4J6M3CXFF4Q8QE4JQEZQO4FHKGAJ","A2H3CV7SIVYREN","3FW4EL5A3LANKRP91N782LFHPY722Q","","108","img/land1.png","75","109","2","1","false","1","0.8,0.8,0.2,0.2,0.8,0.8,0.8,0.2,0.8","",""
"","html-keyboard-response","143","62521","0.0-210.0","3K4J6M3CXFF4Q8QE4JQEZQO4FHKGAJ","A2H3CV7SIVYREN","3FW4EL5A3LANKRP91N782LFHPY722Q","","null","<img src=""img/land1.png"" style=""width:200px; border:14px solid green;"">","null","","","","","","","",""
"","image-keyboard-response","144","62666","0.0-212.0","3K4J6M3CXFF4Q8QE4JQEZQO4FHKGAJ","A2H3CV7SIVYREN","3FW4EL5A3LANKRP91N782LFHPY722Q","","143","img/land1.png","74","145","1","1","false","1","0.8,0.8,0.2,0.2,0.8,0.8,0.8,0.2,0.8","",""
"","html-keyboard-response","145","62974","0.0-213.0","3K4J6M3CXFF4Q8QE4JQEZQO4FHKGAJ","A2H3CV7SIVYREN","3FW4EL5A3LANKRP91N782LFHPY722Q","","null","<img src=""img/land1.png"" style=""width:200px; border:14px solid green;"">","null","","","","","","","",""
"","image-keyboard-response","146","63078","0.0-215.0","3K4J6M3CXFF4Q8QE4JQEZQO4FHKGAJ","A2H3CV7SIVYREN","3FW4EL5A3LANKRP91N782LFHPY722Q","","102","img/land8.png","74","104","1","0","false","2","0.8,0.8,0.2,0.2,0.8,0.8,0.8,0.2,0.8","",""
"","html-keyboard-response","147","63379","0.0-216.0","3K4J6M3CXFF4Q8QE4JQEZQO4FHKGAJ","A2H3CV7SIVYREN","3FW4EL5A3LANKRP91N782LFHPY722Q","","null","<img src=""img/land8.png"" style=""width:200px;border:14px solid red;"">","null","","","","","","","",""
"","image-keyboard-response","148","63501","0.0-218.0","3K4J6M3CXFF4Q8QE4JQEZQO4FHKGAJ","A2H3CV7SIVYREN","3FW4EL5A3LANKRP91N782LFHPY722Q","","120","img/land1.png","74","122","1","1","false","1","0.8,0.8,0.2,0.2,0.8,0.8,0.8,0.2,0.8","",""
"","html-keyboard-response","149","63809","0.0-219.0","3K4J6M3CXFF4Q8QE4JQEZQO4FHKGAJ","A2H3CV7SIVYREN","3FW4EL5A3LANKRP91N782LFHPY722Q","","null","<img src=""img/land1.png"" style=""width:200px; border:14px solid green;"">","null","","","","","","","",""
"","image-keyboard-response","150","64060","0.0-221.0","3K4J6M3CXFF4Q8QE4JQEZQO4FHKGAJ","A2H3CV7SIVYREN","3FW4EL5A3LANKRP91N782LFHPY722Q","","249","img/land1.png","74","251","1","0","false","1","0.8,0.8,0.2,0.2,0.8,0.8,0.8,0.2,0.8","",""
"","html-keyboard-response","151","64362","0.0-222.0","3K4J6M3CXFF4Q8QE4JQEZQO4FHKGAJ","A2H3CV7SIVYREN","3FW4EL5A3LANKRP91N782LFHPY722Q","","null","<img src=""img/land1.png"" style=""width:200px;border:14px solid red;"">","null","","","","","","","",""
"","image-keyboard-response","152","64449","0.0-224.0","3K4J6M3CXFF4Q8QE4JQEZQO4FHKGAJ","A2H3CV7SIVYREN","3FW4EL5A3LANKRP91N782LFHPY722Q","","86","img/land3.png","74","87","1","1","false","3","0.8,0.8,0.2,0.2,0.8,0.8,0.8,0.2,0.8","",""
"","html-keyboard-response","153","64755","0.0-225.0","3K4J6M3CXFF4Q8QE4JQEZQO4FHKGAJ","A2H3CV7SIVYREN","3FW4EL5A3LANKRP91N782LFHPY722Q","","null","<img src=""img/land3.png"" style=""width:200px; border:14px solid green;"">","null","","","","","","","",""
"","image-keyboard-response","154","64771","0.0-227.0","3K4J6M3CXFF4Q8QE4JQEZQO4FHKGAJ","A2H3CV7SIVYREN","3FW4EL5A3LANKRP91N782LFHPY722Q","","15","img/land8.png","74","15","1","0","false","2","0.8,0.8,0.2,0.2,0.8,0.8,0.8,0.2,0.8","",""
"","html-keyboard-response","155","65090","0.0-228.0","3K4J6M3CXFF4Q8QE4JQEZQO4FHKGAJ","A2H3CV7SIVYREN","3FW4EL5A3LANKRP91N782LFHPY722Q","","null","<img src=""img/land8.png"" style=""width:200px;border:14px solid red;"">","null","","","","","","","",""
"","image-keyboard-response","156","65144","0.0-230.0","3K4J6M3CXFF4Q8QE4JQEZQO4FHKGAJ","A2H3CV7SIVYREN","3FW4EL5A3LANKRP91N782LFHPY722Q","","53","img/land3.png","74","54","1","1","false","3","0.8,0.8,0.2,0.2,0.8,0.8,0.8,0.2,0.8","",""
"","html-keyboard-response","157","65448","0.0-231.0","3K4J6M3CXFF4Q8QE4JQEZQO4FHKGAJ","A2H3CV7SIVYREN","3FW4EL5A3LANKRP91N782LFHPY722Q","","null","<img src=""img/land3.png"" style=""width:200px; border:14px solid green;"">","null","","","","","","","",""
"","image-keyboard-response","158","65511","0.0-233.0","3K4J6M3CXFF4Q8QE4JQEZQO4FHKGAJ","A2H3CV7SIVYREN","3FW4EL5A3LANKRP91N782LFHPY722Q","","61","img/land1.png","74","62","1","1","false","1","0.8,0.8,0.2,0.2,0.8,0.8,0.8,0.2,0.8","",""
"","html-keyboard-response","159","65819","0.0-234.0","3K4J6M3CXFF4Q8QE4JQEZQO4FHKGAJ","A2H3CV7SIVYREN","3FW4EL5A3LANKRP91N782LFHPY722Q","","null","<img src=""img/land1.png"" style=""width:200px; border:14px solid green;"">","null","","","","","","","",""
"","image-keyboard-response","160","65835","0.0-236.0","3K4J6M3CXFF4Q8QE4JQEZQO4FHKGAJ","A2H3CV7SIVYREN","3FW4EL5A3LANKRP91N782LFHPY722Q","","14","img/land8.png","74","15","1","1","false","2","0.8,0.8,0.2,0.2,0.8,0.8,0.8,0.2,0.8","",""
"","html-keyboard-response","161","66138","0.0-237.0","3K4J6M3CXFF4Q8QE4JQEZQO4FHKGAJ","A2H3CV7SIVYREN","3FW4EL5A3LANKRP91N782LFHPY722Q","","null","<img src=""img/land8.png"" style=""width:200px; border:14px solid green;"">","null","","","","","","","",""
"","image-keyboard-response","162","66177","0.0-239.0","3K4J6M3CXFF4Q8QE4JQEZQO4FHKGAJ","A2H3CV7SIVYREN","3FW4EL5A3LANKRP91N782LFHPY722Q","","38","img/land8.png","74","38","1","0","false","2","0.8,0.8,0.2,0.2,0.8,0.8,0.8,0.2,0.8","",""
"","html-keyboard-response","163","66485","0.0-240.0","3K4J6M3CXFF4Q8QE4JQEZQO4FHKGAJ","A2H3CV7SIVYREN","3FW4EL5A3LANKRP91N782LFHPY722Q","","null","<img src=""img/land8.png"" style=""width:200px;border:14px solid red;"">","null","","","","","","","",""
"","image-keyboard-response","164","66566","0.0-242.0","3K4J6M3CXFF4Q8QE4JQEZQO4FHKGAJ","A2H3CV7SIVYREN","3FW4EL5A3LANKRP91N782LFHPY722Q","","79","img/land1.png","74","80","1","1","false","1","0.8,0.8,0.2,0.2,0.8,0.8,0.8,0.2,0.8","",""
"","html-keyboard-response","165","66869","0.0-243.0","3K4J6M3CXFF4Q8QE4JQEZQO4FHKGAJ","A2H3CV7SIVYREN","3FW4EL5A3LANKRP91N782LFHPY722Q","","null","<img src=""img/land1.png"" style=""width:200px; border:14px solid green;"">","null","","","","","","","",""
"","image-keyboard-response","166","67254","0.0-245.0","3K4J6M3CXFF4Q8QE4JQEZQO4FHKGAJ","A2H3CV7SIVYREN","3FW4EL5A3LANKRP91N782LFHPY722Q","","383","img/land1.png","74","385","1","1","false","1","0.8,0.8,0.2,0.2,0.8,0.8,0.8,0.2,0.8","",""
"","html-keyboard-response","167","67556","0.0-246.0","3K4J6M3CXFF4Q8QE4JQEZQO4FHKGAJ","A2H3CV7SIVYREN","3FW4EL5A3LANKRP91N782LFHPY722Q","","null","<img src=""img/land1.png"" style=""width:200px; border:14px solid green;"">","null","","","","","","","",""
"","image-keyboard-response","168","67595","0.0-248.0","3K4J6M3CXFF4Q8QE4JQEZQO4FHKGAJ","A2H3CV7SIVYREN","3FW4EL5A3LANKRP91N782LFHPY722Q","","36","img/land8.png","74","38","1","0","false","2","0.8,0.8,0.2,0.2,0.8,0.8,0.8,0.2,0.8","",""
"","html-keyboard-response","169","67915","0.0-249.0","3K4J6M3CXFF4Q8QE4JQEZQO4FHKGAJ","A2H3CV7SIVYREN","3FW4EL5A3LANKRP91N782LFHPY722Q","","null","<img src=""img/land8.png"" style=""width:200px;border:14px solid red;"">","null","","","","","","","",""
"","image-keyboard-response","170","68176","0.0-251.0","3K4J6M3CXFF4Q8QE4JQEZQO4FHKGAJ","A2H3CV7SIVYREN","3FW4EL5A3LANKRP91N782LFHPY722Q","","260","img/land1.png","74","261","1","1","false","1","0.8,0.8,0.2,0.2,0.8,0.8,0.8,0.2,0.8","",""
"","html-keyboard-response","171","68477","0.0-252.0","3K4J6M3CXFF4Q8QE4JQEZQO4FHKGAJ","A2H3CV7SIVYREN","3FW4EL5A3LANKRP91N782LFHPY722Q","","null","<img src=""img/land1.png"" style=""width:200px; border:14px solid green;"">","null","","","","","","","",""
"","image-keyboard-response","172","68932","0.0-254.0","3K4J6M3CXFF4Q8QE4JQEZQO4FHKGAJ","A2H3CV7SIVYREN","3FW4EL5A3LANKRP91N782LFHPY722Q","","453","img/land1.png","74","455","1","1","false","1","0.8,0.8,0.2,0.2,0.8,0.8,0.8,0.2,0.8","",""
"","html-keyboard-response","173","69243","0.0-255.0","3K4J6M3CXFF4Q8QE4JQEZQO4FHKGAJ","A2H3CV7SIVYREN","3FW4EL5A3LANKRP91N782LFHPY722Q","","null","<img src=""img/land1.png"" style=""width:200px; border:14px solid green;"">","null","","","","","","","",""
"","image-keyboard-response","174","69289","0.0-257.0","3K4J6M3CXFF4Q8QE4JQEZQO4FHKGAJ","A2H3CV7SIVYREN","3FW4EL5A3LANKRP91N782LFHPY722Q","","44","img/land8.png","74","45","1","0","false","2","0.8,0.8,0.2,0.2,0.8,0.8,0.8,0.2,0.8","",""
"","html-keyboard-response","175","69598","0.0-258.0","3K4J6M3CXFF4Q8QE4JQEZQO4FHKGAJ","A2H3CV7SIVYREN","3FW4EL5A3LANKRP91N782LFHPY722Q","","null","<img src=""img/land8.png"" style=""width:200px;border:14px solid red;"">","null","","","","","","","",""
"","image-keyboard-response","176","69831","0.0-260.0","3K4J6M3CXFF4Q8QE4JQEZQO4FHKGAJ","A2H3CV7SIVYREN","3FW4EL5A3LANKRP91N782LFHPY722Q","","228","img/land8.png","74","231","1","1","false","2","0.8,0.8,0.2,0.2,0.8,0.8,0.8,0.2,0.8","",""
"","html-keyboard-response","177","70134","0.0-261.0","3K4J6M3CXFF4Q8QE4JQEZQO4FHKGAJ","A2H3CV7SIVYREN","3FW4EL5A3LANKRP91N782LFHPY722Q","","null","<img src=""img/land8.png"" style=""width:200px; border:14px solid green;"">","null","","","","","","","",""
"","image-keyboard-response","178","70565","0.0-263.0","3K4J6M3CXFF4Q8QE4JQEZQO4FHKGAJ","A2H3CV7SIVYREN","3FW4EL5A3LANKRP91N782LFHPY722Q","","430","img/land8.png","74","431","1","0","false","2","0.8,0.8,0.2,0.2,0.8,0.8,0.8,0.2,0.8","",""
"","html-keyboard-response","179","70872","0.0-264.0","3K4J6M3CXFF4Q8QE4JQEZQO4FHKGAJ","A2H3CV7SIVYREN","3FW4EL5A3LANKRP91N782LFHPY722Q","","null","<img src=""img/land8.png"" style=""width:200px;border:14px solid red;"">","null","","","","","","","",""
"","image-keyboard-response","180","70888","0.0-266.0","3K4J6M3CXFF4Q8QE4JQEZQO4FHKGAJ","A2H3CV7SIVYREN","3FW4EL5A3LANKRP91N782LFHPY722Q","","15","img/land3.png","74","17","1","1","false","3","0.8,0.8,0.2,0.2,0.8,0.8,0.8,0.2,0.8","",""
"","html-keyboard-response","181","71197","0.0-267.0","3K4J6M3CXFF4Q8QE4JQEZQO4FHKGAJ","A2H3CV7SIVYREN","3FW4EL5A3LANKRP91N782LFHPY722Q","","null","<img src=""img/land3.png"" style=""width:200px; border:14px solid green;"">","null","","","","","","","",""
"","image-keyboard-response","182","71494","0.0-269.0","3K4J6M3CXFF4Q8QE4JQEZQO4FHKGAJ","A2H3CV7SIVYREN","3FW4EL5A3LANKRP91N782LFHPY722Q","","295","img/land1.png","74","297","1","1","false","1","0.8,0.8,0.2,0.2,0.8,0.8,0.8,0.2,0.8","",""
"","html-keyboard-response","183","71798","0.0-270.0","3K4J6M3CXFF4Q8QE4JQEZQO4FHKGAJ","A2H3CV7SIVYREN","3FW4EL5A3LANKRP91N782LFHPY722Q","","null","<img src=""img/land1.png"" style=""width:200px; border:14px solid green;"">","null","","","","","","","",""
"","html-keyboard-response","184","75098","0.0-272.0","3K4J6M3CXFF4Q8QE4JQEZQO4FHKGAJ","A2H3CV7SIVYREN","3FW4EL5A3LANKRP91N782LFHPY722Q","","","","","","","","","","","",""
"","image-keyboard-response","185","76131","0.0-273.0","3K4J6M3CXFF4Q8QE4JQEZQO4FHKGAJ","A2H3CV7SIVYREN","3FW4EL5A3LANKRP91N782LFHPY722Q","","","img/land9.png","","1033","-1","0","true","2","0.8,0.2,0.2,0.2,0.8,0.2,0.2,0.2,0.8","",""
"","html-keyboard-response","186","76436","0.0-274.0","3K4J6M3CXFF4Q8QE4JQEZQO4FHKGAJ","A2H3CV7SIVYREN","3FW4EL5A3LANKRP91N782LFHPY722Q","","null","<img src=""img/land9.png"" style=""width:200px;border:14px solid red;"">","null","","","","","","","",""
"","html-keyboard-response","187","79530","0.0-275.0-0.0","3K4J6M3CXFF4Q8QE4JQEZQO4FHKGAJ","A2H3CV7SIVYREN","3FW4EL5A3LANKRP91N782LFHPY722Q","","","","","","","","","","","",""
"","image-keyboard-response","188","79647","0.0-276.0","3K4J6M3CXFF4Q8QE4JQEZQO4FHKGAJ","A2H3CV7SIVYREN","3FW4EL5A3LANKRP91N782LFHPY722Q","","115","img/land9.png","75","117","2","1","false","2","0.8,0.2,0.2,0.2,0.8,0.2,0.2,0.2,0.8","",""
"","html-keyboard-response","189","79952","0.0-277.0","3K4J6M3CXFF4Q8QE4JQEZQO4FHKGAJ","A2H3CV7SIVYREN","3FW4EL5A3LANKRP91N782LFHPY722Q","","null","<img src=""img/land9.png"" style=""width:200px; border:14px solid green;"">","null","","","","","","","",""
"","image-keyboard-response","190","80285","0.0-279.0","3K4J6M3CXFF4Q8QE4JQEZQO4FHKGAJ","A2H3CV7SIVYREN","3FW4EL5A3LANKRP91N782LFHPY722Q","","332","img/land4.png","75","333","2","0","false","3","0.8,0.2,0.2,0.2,0.8,0.2,0.2,0.2,0.8","",""
"","html-keyboard-response","191","80587","0.0-280.0","3K4J6M3CXFF4Q8QE4JQEZQO4FHKGAJ","A2H3CV7SIVYREN","3FW4EL5A3LANKRP91N782LFHPY722Q","","null","<img src=""img/land4.png"" style=""width:200px;border:14px solid red;"">","null","","","","","","","",""
"","image-keyboard-response","192","80899","0.0-282.0","3K4J6M3CXFF4Q8QE4JQEZQO4FHKGAJ","A2H3CV7SIVYREN","3FW4EL5A3LANKRP91N782LFHPY722Q","","310","img/land7.png","75","311","2","0","false","1","0.8,0.2,0.2,0.2,0.8,0.2,0.2,0.2,0.8","",""
"","html-keyboard-response","193","81201","0.0-283.0","3K4J6M3CXFF4Q8QE4JQEZQO4FHKGAJ","A2H3CV7SIVYREN","3FW4EL5A3LANKRP91N782LFHPY722Q","","null","<img src=""img/land7.png"" style=""width:200px;border:14px solid red;"">","null","","","","","","","",""
"","image-keyboard-response","194","81435","0.0-285.0","3K4J6M3CXFF4Q8QE4JQEZQO4FHKGAJ","A2H3CV7SIVYREN","3FW4EL5A3LANKRP91N782LFHPY722Q","","233","img/land7.png","76","234","3","0","false","1","0.8,0.2,0.2,0.2,0.8,0.2,0.2,0.2,0.8","",""
"","html-keyboard-response","195","81741","0.0-286.0","3K4J6M3CXFF4Q8QE4JQEZQO4FHKGAJ","A2H3CV7SIVYREN","3FW4EL5A3LANKRP91N782LFHPY722Q","","null","<img src=""img/land7.png"" style=""width:200px;border:14px solid red;"">","null","","","","","","","",""
"","image-keyboard-response","196","81763","0.0-288.0","3K4J6M3CXFF4Q8QE4JQEZQO4FHKGAJ","A2H3CV7SIVYREN","3FW4EL5A3LANKRP91N782LFHPY722Q","","19","img/land7.png","76","21","3","0","false","1","0.8,0.2,0.2,0.2,0.8,0.2,0.2,0.2,0.8","",""
"","html-keyboard-response","197","82064","0.0-289.0","3K4J6M3CXFF4Q8QE4JQEZQO4FHKGAJ","A2H3CV7SIVYREN","3FW4EL5A3LANKRP91N782LFHPY722Q","","null","<img src=""img/land7.png"" style=""width:200px;border:14px solid red;"">","null","","","","","","","",""
"","image-keyboard-response","198","82341","0.0-291.0","3K4J6M3CXFF4Q8QE4JQEZQO4FHKGAJ","A2H3CV7SIVYREN","3FW4EL5A3LANKRP91N782LFHPY722Q","","276","img/land7.png","75","276","2","0","false","1","0.8,0.2,0.2,0.2,0.8,0.2,0.2,0.2,0.8","",""
"","html-keyboard-response","199","82652","0.0-292.0","3K4J6M3CXFF4Q8QE4JQEZQO4FHKGAJ","A2H3CV7SIVYREN","3FW4EL5A3LANKRP91N782LFHPY722Q","","null","<img src=""img/land7.png"" style=""width:200px;border:14px solid red;"">","null","","","","","","","",""
"","image-keyboard-response","200","82845","0.0-294.0","3K4J6M3CXFF4Q8QE4JQEZQO4FHKGAJ","A2H3CV7SIVYREN","3FW4EL5A3LANKRP91N782LFHPY722Q","","191","img/land7.png","75","192","2","1","false","1","0.8,0.2,0.2,0.2,0.8,0.2,0.2,0.2,0.8","",""
"","html-keyboard-response","201","83200","0.0-295.0","3K4J6M3CXFF4Q8QE4JQEZQO4FHKGAJ","A2H3CV7SIVYREN","3FW4EL5A3LANKRP91N782LFHPY722Q","","null","<img src=""img/land7.png"" style=""width:200px; border:14px solid green;"">","null","","","","","","","",""
"","image-keyboard-response","202","83469","0.0-297.0","3K4J6M3CXFF4Q8QE4JQEZQO4FHKGAJ","A2H3CV7SIVYREN","3FW4EL5A3LANKRP91N782LFHPY722Q","","268","img/land7.png","74","269","1","1","false","1","0.8,0.2,0.2,0.2,0.8,0.2,0.2,0.2,0.8","",""
"","html-keyboard-response","203","83770","0.0-298.0","3K4J6M3CXFF4Q8QE4JQEZQO4FHKGAJ","A2H3CV7SIVYREN","3FW4EL5A3LANKRP91N782LFHPY722Q","","null","<img src=""img/land7.png"" style=""width:200px; border:14px solid green;"">","null","","","","","","","",""
"","image-keyboard-response","204","83794","0.0-300.0","3K4J6M3CXFF4Q8QE4JQEZQO4FHKGAJ","A2H3CV7SIVYREN","3FW4EL5A3LANKRP91N782LFHPY722Q","","21","img/land4.png","74","22","1","1","false","3","0.8,0.2,0.2,0.2,0.8,0.2,0.2,0.2,0.8","",""
"","html-keyboard-response","205","84103","0.0-301.0","3K4J6M3CXFF4Q8QE4JQEZQO4FHKGAJ","A2H3CV7SIVYREN","3FW4EL5A3LANKRP91N782LFHPY722Q","","null","<img src=""img/land4.png"" style=""width:200px; border:14px solid green;"">","null","","","","","","","",""
"","image-keyboard-response","206","84233","0.0-303.0","3K4J6M3CXFF4Q8QE4JQEZQO4FHKGAJ","A2H3CV7SIVYREN","3FW4EL5A3LANKRP91N782LFHPY722Q","","126","img/land4.png","74","129","1","1","false","3","0.8,0.2,0.2,0.2,0.8,0.2,0.2,0.2,0.8","",""
"","html-keyboard-response","207","84534","0.0-304.0","3K4J6M3CXFF4Q8QE4JQEZQO4FHKGAJ","A2H3CV7SIVYREN","3FW4EL5A3LANKRP91N782LFHPY722Q","","null","<img src=""img/land4.png"" style=""width:200px; border:14px solid green;"">","null","","","","","","","",""
"","image-keyboard-response","208","84806","0.0-306.0","3K4J6M3CXFF4Q8QE4JQEZQO4FHKGAJ","A2H3CV7SIVYREN","3FW4EL5A3LANKRP91N782LFHPY722Q","","270","img/land7.png","74","272","1","1","false","1","0.8,0.2,0.2,0.2,0.8,0.2,0.2,0.2,0.8","",""
"","html-keyboard-response","209","85108","0.0-307.0","3K4J6M3CXFF4Q8QE4JQEZQO4FHKGAJ","A2H3CV7SIVYREN","3FW4EL5A3LANKRP91N782LFHPY722Q","","null","<img src=""img/land7.png"" style=""width:200px; border:14px solid green;"">","null","","","","","","","",""
"","image-keyboard-response","210","85148","0.0-309.0","3K4J6M3CXFF4Q8QE4JQEZQO4FHKGAJ","A2H3CV7SIVYREN","3FW4EL5A3LANKRP91N782LFHPY722Q","","39","img/land9.png","74","40","1","0","false","2","0.8,0.2,0.2,0.2,0.8,0.2,0.2,0.2,0.8","",""
"","html-keyboard-response","211","85452","0.0-310.0","3K4J6M3CXFF4Q8QE4JQEZQO4FHKGAJ","A2H3CV7SIVYREN","3FW4EL5A3LANKRP91N782LFHPY722Q","","null","<img src=""img/land9.png"" style=""width:200px;border:14px solid red;"">","null","","","","","","","",""
"","image-keyboard-response","212","85494","0.0-312.0","3K4J6M3CXFF4Q8QE4JQEZQO4FHKGAJ","A2H3CV7SIVYREN","3FW4EL5A3LANKRP91N782LFHPY722Q","","40","img/land9.png","74","40","1","0","false","2","0.8,0.2,0.2,0.2,0.8,0.2,0.2,0.2,0.8","",""
"","html-keyboard-response","213","85800","0.0-313.0","3K4J6M3CXFF4Q8QE4JQEZQO4FHKGAJ","A2H3CV7SIVYREN","3FW4EL5A3LANKRP91N782LFHPY722Q","","null","<img src=""img/land9.png"" style=""width:200px;border:14px solid red;"">","null","","","","","","","",""
"","image-keyboard-response","214","86133","0.0-315.0","3K4J6M3CXFF4Q8QE4JQEZQO4FHKGAJ","A2H3CV7SIVYREN","3FW4EL5A3LANKRP91N782LFHPY722Q","","330","img/land9.png","74","333","1","0","false","2","0.8,0.2,0.2,0.2,0.8,0.2,0.2,0.2,0.8","",""
"","html-keyboard-response","215","86439","0.0-316.0","3K4J6M3CXFF4Q8QE4JQEZQO4FHKGAJ","A2H3CV7SIVYREN","3FW4EL5A3LANKRP91N782LFHPY722Q","","null","<img src=""img/land9.png"" style=""width:200px;border:14px solid red;"">","null","","","","","","","",""
"","image-keyboard-response","216","86461","0.0-318.0","3K4J6M3CXFF4Q8QE4JQEZQO4FHKGAJ","A2H3CV7SIVYREN","3FW4EL5A3LANKRP91N782LFHPY722Q","","21","img/land4.png","74","22","1","1","false","3","0.8,0.2,0.2,0.2,0.8,0.2,0.2,0.2,0.8","",""
"","html-keyboard-response","217","86762","0.0-319.0","3K4J6M3CXFF4Q8QE4JQEZQO4FHKGAJ","A2H3CV7SIVYREN","3FW4EL5A3LANKRP91N782LFHPY722Q","","null","<img src=""img/land4.png"" style=""width:200px; border:14px solid green;"">","null","","","","","","","",""
"","image-keyboard-response","218","86797","0.0-321.0","3K4J6M3CXFF4Q8QE4JQEZQO4FHKGAJ","A2H3CV7SIVYREN","3FW4EL5A3LANKRP91N782LFHPY722Q","","33","img/land9.png","74","35","1","0","false","2","0.8,0.2,0.2,0.2,0.8,0.2,0.2,0.2,0.8","",""
"","html-keyboard-response","219","87102","0.0-322.0","3K4J6M3CXFF4Q8QE4JQEZQO4FHKGAJ","A2H3CV7SIVYREN","3FW4EL5A3LANKRP91N782LFHPY722Q","","null","<img src=""img/land9.png"" style=""width:200px;border:14px solid red;"">","null","","","","","","","",""
"","image-keyboard-response","220","87124","0.0-324.0","3K4J6M3CXFF4Q8QE4JQEZQO4FHKGAJ","A2H3CV7SIVYREN","3FW4EL5A3LANKRP91N782LFHPY722Q","","20","img/land9.png","74","21","1","0","false","2","0.8,0.2,0.2,0.2,0.8,0.2,0.2,0.2,0.8","",""
"","html-keyboard-response","221","87428","0.0-325.0","3K4J6M3CXFF4Q8QE4JQEZQO4FHKGAJ","A2H3CV7SIVYREN","3FW4EL5A3LANKRP91N782LFHPY722Q","","null","<img src=""img/land9.png"" style=""width:200px;border:14px solid red;"">","null","","","","","","","",""
"","image-keyboard-response","222","87482","0.0-327.0","3K4J6M3CXFF4Q8QE4JQEZQO4FHKGAJ","A2H3CV7SIVYREN","3FW4EL5A3LANKRP91N782LFHPY722Q","","52","img/land9.png","74","53","1","0","false","2","0.8,0.2,0.2,0.2,0.8,0.2,0.2,0.2,0.8","",""
"","html-keyboard-response","223","87794","0.0-328.0","3K4J6M3CXFF4Q8QE4JQEZQO4FHKGAJ","A2H3CV7SIVYREN","3FW4EL5A3LANKRP91N782LFHPY722Q","","null","<img src=""img/land9.png"" style=""width:200px;border:14px solid red;"">","null","","","","","","","",""
"","image-keyboard-response","224","88137","0.0-330.0","3K4J6M3CXFF4Q8QE4JQEZQO4FHKGAJ","A2H3CV7SIVYREN","3FW4EL5A3LANKRP91N782LFHPY722Q","","341","img/land7.png","74","342","1","1","false","1","0.8,0.2,0.2,0.2,0.8,0.2,0.2,0.2,0.8","",""
"","html-keyboard-response","225","88442","0.0-331.0","3K4J6M3CXFF4Q8QE4JQEZQO4FHKGAJ","A2H3CV7SIVYREN","3FW4EL5A3LANKRP91N782LFHPY722Q","","null","<img src=""img/land7.png"" style=""width:200px; border:14px solid green;"">","null","","","","","","","",""
"","image-keyboard-response","226","88803","0.0-333.0","3K4J6M3CXFF4Q8QE4JQEZQO4FHKGAJ","A2H3CV7SIVYREN","3FW4EL5A3LANKRP91N782LFHPY722Q","","360","img/land4.png","74","361","1","0","false","3","0.8,0.2,0.2,0.2,0.8,0.2,0.2,0.2,0.8","",""
"","html-keyboard-response","227","89112","0.0-334.0","3K4J6M3CXFF4Q8QE4JQEZQO4FHKGAJ","A2H3CV7SIVYREN","3FW4EL5A3LANKRP91N782LFHPY722Q","","null","<img src=""img/land4.png"" style=""width:200px;border:14px solid red;"">","null","","","","","","","",""
"","image-keyboard-response","228","89377","0.0-336.0","3K4J6M3CXFF4Q8QE4JQEZQO4FHKGAJ","A2H3CV7SIVYREN","3FW4EL5A3LANKRP91N782LFHPY722Q","","262","img/land9.png","74","264","1","1","false","2","0.8,0.2,0.2,0.2,0.8,0.2,0.2,0.2,0.8","",""
"","html-keyboard-response","229","89681","0.0-337.0","3K4J6M3CXFF4Q8QE4JQEZQO4FHKGAJ","A2H3CV7SIVYREN","3FW4EL5A3LANKRP91N782LFHPY722Q","","null","<img src=""img/land9.png"" style=""width:200px; border:14px solid green;"">","null","","","","","","","",""
"","image-keyboard-response","230","89687","0.0-339.0","3K4J6M3CXFF4Q8QE4JQEZQO4FHKGAJ","A2H3CV7SIVYREN","3FW4EL5A3LANKRP91N782LFHPY722Q","","5","img/land4.png","74","5","1","0","false","3","0.8,0.2,0.2,0.2,0.8,0.2,0.2,0.2,0.8","",""
"","html-keyboard-response","231","89990","0.0-340.0","3K4J6M3CXFF4Q8QE4JQEZQO4FHKGAJ","A2H3CV7SIVYREN","3FW4EL5A3LANKRP91N782LFHPY722Q","","null","<img src=""img/land4.png"" style=""width:200px;border:14px solid red;"">","null","","","","","","","",""
"","image-keyboard-response","232","90357","0.0-342.0","3K4J6M3CXFF4Q8QE4JQEZQO4FHKGAJ","A2H3CV7SIVYREN","3FW4EL5A3LANKRP91N782LFHPY722Q","","366","img/land4.png","74","366","1","0","false","3","0.8,0.2,0.2,0.2,0.8,0.2,0.2,0.2,0.8","",""
"","html-keyboard-response","233","90699","0.0-343.0","3K4J6M3CXFF4Q8QE4JQEZQO4FHKGAJ","A2H3CV7SIVYREN","3FW4EL5A3LANKRP91N782LFHPY722Q","","null","<img src=""img/land4.png"" style=""width:200px;border:14px solid red;"">","null","","","","","","","",""
"","image-keyboard-response","234","90768","0.0-345.0","3K4J6M3CXFF4Q8QE4JQEZQO4FHKGAJ","A2H3CV7SIVYREN","3FW4EL5A3LANKRP91N782LFHPY722Q","","64","img/land7.png","74","69","1","1","false","1","0.8,0.2,0.2,0.2,0.8,0.2,0.2,0.2,0.8","",""
"","html-keyboard-response","235","91071","0.0-346.0","3K4J6M3CXFF4Q8QE4JQEZQO4FHKGAJ","A2H3CV7SIVYREN","3FW4EL5A3LANKRP91N782LFHPY722Q","","null","<img src=""img/land7.png"" style=""width:200px; border:14px solid green;"">","null","","","","","","","",""
"","image-keyboard-response","236","91179","0.0-348.0","3K4J6M3CXFF4Q8QE4JQEZQO4FHKGAJ","A2H3CV7SIVYREN","3FW4EL5A3LANKRP91N782LFHPY722Q","","107","img/land9.png","74","108","1","0","false","2","0.8,0.2,0.2,0.2,0.8,0.2,0.2,0.2,0.8","",""
"","html-keyboard-response","237","91488","0.0-349.0","3K4J6M3CXFF4Q8QE4JQEZQO4FHKGAJ","A2H3CV7SIVYREN","3FW4EL5A3LANKRP91N782LFHPY722Q","","null","<img src=""img/land9.png"" style=""width:200px;border:14px solid red;"">","null","","","","","","","",""
"","image-keyboard-response","238","91631","0.0-351.0","3K4J6M3CXFF4Q8QE4JQEZQO4FHKGAJ","A2H3CV7SIVYREN","3FW4EL5A3LANKRP91N782LFHPY722Q","","140","img/land4.png","74","143","1","0","false","3","0.8,0.2,0.2,0.2,0.8,0.2,0.2,0.2,0.8","",""
"","html-keyboard-response","239","91939","0.0-352.0","3K4J6M3CXFF4Q8QE4JQEZQO4FHKGAJ","A2H3CV7SIVYREN","3FW4EL5A3LANKRP91N782LFHPY722Q","","null","<img src=""img/land4.png"" style=""width:200px;border:14px solid red;"">","null","","","","","","","",""
"","image-keyboard-response","240","91970","0.0-354.0","3K4J6M3CXFF4Q8QE4JQEZQO4FHKGAJ","A2H3CV7SIVYREN","3FW4EL5A3LANKRP91N782LFHPY722Q","","30","img/land7.png","74","30","1","1","false","1","0.8,0.2,0.2,0.2,0.8,0.2,0.2,0.2,0.8","",""
"","html-keyboard-response","241","92348","0.0-355.0","3K4J6M3CXFF4Q8QE4JQEZQO4FHKGAJ","A2H3CV7SIVYREN","3FW4EL5A3LANKRP91N782LFHPY722Q","","null","<img src=""img/land7.png"" style=""width:200px; border:14px solid green;"">","null","","","","","","","",""
"","image-keyboard-response","242","92370","0.0-357.0","3K4J6M3CXFF4Q8QE4JQEZQO4FHKGAJ","A2H3CV7SIVYREN","3FW4EL5A3LANKRP91N782LFHPY722Q","","21","img/land7.png","74","22","1","1","false","1","0.8,0.2,0.2,0.2,0.8,0.2,0.2,0.2,0.8","",""
"","html-keyboard-response","243","92715","0.0-358.0","3K4J6M3CXFF4Q8QE4JQEZQO4FHKGAJ","A2H3CV7SIVYREN","3FW4EL5A3LANKRP91N782LFHPY722Q","","null","<img src=""img/land7.png"" style=""width:200px; border:14px solid green;"">","null","","","","","","","",""
"","image-keyboard-response","244","92926","0.0-360.0","3K4J6M3CXFF4Q8QE4JQEZQO4FHKGAJ","A2H3CV7SIVYREN","3FW4EL5A3LANKRP91N782LFHPY722Q","","209","img/land4.png","74","211","1","0","false","3","0.8,0.2,0.2,0.2,0.8,0.2,0.2,0.2,0.8","",""
"","html-keyboard-response","245","93226","0.0-361.0","3K4J6M3CXFF4Q8QE4JQEZQO4FHKGAJ","A2H3CV7SIVYREN","3FW4EL5A3LANKRP91N782LFHPY722Q","","null","<img src=""img/land4.png"" style=""width:200px;border:14px solid red;"">","null","","","","","","","",""
"","image-keyboard-response","246","93347","0.0-363.0","3K4J6M3CXFF4Q8QE4JQEZQO4FHKGAJ","A2H3CV7SIVYREN","3FW4EL5A3LANKRP91N782LFHPY722Q","","119","img/land4.png","74","120","1","0","false","3","0.8,0.2,0.2,0.2,0.8,0.2,0.2,0.2,0.8","",""
"","html-keyboard-response","247","93650","0.0-364.0","3K4J6M3CXFF4Q8QE4JQEZQO4FHKGAJ","A2H3CV7SIVYREN","3FW4EL5A3LANKRP91N782LFHPY722Q","","null","<img src=""img/land4.png"" style=""width:200px;border:14px solid red;"">","null","","","","","","","",""
"","image-keyboard-response","248","93803","0.0-366.0","3K4J6M3CXFF4Q8QE4JQEZQO4FHKGAJ","A2H3CV7SIVYREN","3FW4EL5A3LANKRP91N782LFHPY722Q","","152","img/land7.png","74","153","1","1","false","1","0.8,0.2,0.2,0.2,0.8,0.2,0.2,0.2,0.8","",""
"","html-keyboard-response","249","94104","0.0-367.0","3K4J6M3CXFF4Q8QE4JQEZQO4FHKGAJ","A2H3CV7SIVYREN","3FW4EL5A3LANKRP91N782LFHPY722Q","","null","<img src=""img/land7.png"" style=""width:200px; border:14px solid green;"">","null","","","","","","","",""
"","image-keyboard-response","250","94134","0.0-369.0","3K4J6M3CXFF4Q8QE4JQEZQO4FHKGAJ","A2H3CV7SIVYREN","3FW4EL5A3LANKRP91N782LFHPY722Q","","28","img/land7.png","74","29","1","0","false","1","0.8,0.2,0.2,0.2,0.8,0.2,0.2,0.2,0.8","",""
"","html-keyboard-response","251","94440","0.0-370.0","3K4J6M3CXFF4Q8QE4JQEZQO4FHKGAJ","A2H3CV7SIVYREN","3FW4EL5A3LANKRP91N782LFHPY722Q","","null","<img src=""img/land7.png"" style=""width:200px;border:14px solid red;"">","null","","","","","","","",""
"","image-keyboard-response","252","94795","0.0-372.0","3K4J6M3CXFF4Q8QE4JQEZQO4FHKGAJ","A2H3CV7SIVYREN","3FW4EL5A3LANKRP91N782LFHPY722Q","","354","img/land7.png","74","355","1","1","false","1","0.8,0.2,0.2,0.2,0.8,0.2,0.2,0.2,0.8","",""
"","html-keyboard-response","253","95103","0.0-373.0","3K4J6M3CXFF4Q8QE4JQEZQO4FHKGAJ","A2H3CV7SIVYREN","3FW4EL5A3LANKRP91N782LFHPY722Q","","null","<img src=""img/land7.png"" style=""width:200px; border:14px solid green;"">","null","","","","","","","",""
"","image-keyboard-response","254","95161","0.0-375.0","3K4J6M3CXFF4Q8QE4JQEZQO4FHKGAJ","A2H3CV7SIVYREN","3FW4EL5A3LANKRP91N782LFHPY722Q","","57","img/land4.png","74","57","1","1","false","3","0.8,0.2,0.2,0.2,0.8,0.2,0.2,0.2,0.8","",""
"","html-keyboard-response","255","95469","0.0-376.0","3K4J6M3CXFF4Q8QE4JQEZQO4FHKGAJ","A2H3CV7SIVYREN","3FW4EL5A3LANKRP91N782LFHPY722Q","","null","<img src=""img/land4.png"" style=""width:200px; border:14px solid green;"">","null","","","","","","","",""
"","image-keyboard-response","256","95489","0.0-378.0","3K4J6M3CXFF4Q8QE4JQEZQO4FHKGAJ","A2H3CV7SIVYREN","3FW4EL5A3LANKRP91N782LFHPY722Q","","19","img/land7.png","74","20","1","1","false","1","0.8,0.2,0.2,0.2,0.8,0.2,0.2,0.2,0.8","",""
"","html-keyboard-response","257","95793","0.0-379.0","3K4J6M3CXFF4Q8QE4JQEZQO4FHKGAJ","A2H3CV7SIVYREN","3FW4EL5A3LANKRP91N782LFHPY722Q","","null","<img src=""img/land7.png"" style=""width:200px; border:14px solid green;"">","null","","","","","","","",""
"","image-keyboard-response","258","96067","0.0-381.0","3K4J6M3CXFF4Q8QE4JQEZQO4FHKGAJ","A2H3CV7SIVYREN","3FW4EL5A3LANKRP91N782LFHPY722Q","","271","img/land4.png","74","273","1","0","false","3","0.8,0.2,0.2,0.2,0.8,0.2,0.2,0.2,0.8","",""
"","html-keyboard-response","259","96375","0.0-382.0","3K4J6M3CXFF4Q8QE4JQEZQO4FHKGAJ","A2H3CV7SIVYREN","3FW4EL5A3LANKRP91N782LFHPY722Q","","null","<img src=""img/land4.png"" style=""width:200px;border:14px solid red;"">","null","","","","","","","",""
"","image-keyboard-response","260","96379","0.0-384.0","3K4J6M3CXFF4Q8QE4JQEZQO4FHKGAJ","A2H3CV7SIVYREN","3FW4EL5A3LANKRP91N782LFHPY722Q","","1","img/land4.png","74","3","1","0","false","3","0.8,0.2,0.2,0.2,0.8,0.2,0.2,0.2,0.8","",""
"","html-keyboard-response","261","96680","0.0-385.0","3K4J6M3CXFF4Q8QE4JQEZQO4FHKGAJ","A2H3CV7SIVYREN","3FW4EL5A3LANKRP91N782LFHPY722Q","","null","<img src=""img/land4.png"" style=""width:200px;border:14px solid red;"">","null","","","","","","","",""
"","image-keyboard-response","262","96813","0.0-387.0","3K4J6M3CXFF4Q8QE4JQEZQO4FHKGAJ","A2H3CV7SIVYREN","3FW4EL5A3LANKRP91N782LFHPY722Q","","129","img/land7.png","74","132","1","1","false","1","0.8,0.2,0.2,0.2,0.8,0.2,0.2,0.2,0.8","",""
"","html-keyboard-response","263","97120","0.0-388.0","3K4J6M3CXFF4Q8QE4JQEZQO4FHKGAJ","A2H3CV7SIVYREN","3FW4EL5A3LANKRP91N782LFHPY722Q","","null","<img src=""img/land7.png"" style=""width:200px; border:14px solid green;"">","null","","","","","","","",""
"","image-keyboard-response","264","97183","0.0-390.0","3K4J6M3CXFF4Q8QE4JQEZQO4FHKGAJ","A2H3CV7SIVYREN","3FW4EL5A3LANKRP91N782LFHPY722Q","","61","img/land4.png","74","62","1","0","false","3","0.8,0.2,0.2,0.2,0.8,0.2,0.2,0.2,0.8","",""
"","html-keyboard-response","265","97487","0.0-391.0","3K4J6M3CXFF4Q8QE4JQEZQO4FHKGAJ","A2H3CV7SIVYREN","3FW4EL5A3LANKRP91N782LFHPY722Q","","null","<img src=""img/land4.png"" style=""width:200px;border:14px solid red;"">","null","","","","","","","",""
"","image-keyboard-response","266","97511","0.0-393.0","3K4J6M3CXFF4Q8QE4JQEZQO4FHKGAJ","A2H3CV7SIVYREN","3FW4EL5A3LANKRP91N782LFHPY722Q","","23","img/land4.png","74","24","1","1","false","3","0.8,0.2,0.2,0.2,0.8,0.2,0.2,0.2,0.8","",""
"","html-keyboard-response","267","97813","0.0-394.0","3K4J6M3CXFF4Q8QE4JQEZQO4FHKGAJ","A2H3CV7SIVYREN","3FW4EL5A3LANKRP91N782LFHPY722Q","","null","<img src=""img/land4.png"" style=""width:200px; border:14px solid green;"">","null","","","","","","","",""
"","image-keyboard-response","268","98180","0.0-396.0","3K4J6M3CXFF4Q8QE4JQEZQO4FHKGAJ","A2H3CV7SIVYREN","3FW4EL5A3LANKRP91N782LFHPY722Q","","365","img/land9.png","74","366","1","0","false","2","0.8,0.2,0.2,0.2,0.8,0.2,0.2,0.2,0.8","",""
"","html-keyboard-response","269","98484","0.0-397.0","3K4J6M3CXFF4Q8QE4JQEZQO4FHKGAJ","A2H3CV7SIVYREN","3FW4EL5A3LANKRP91N782LFHPY722Q","","null","<img src=""img/land9.png"" style=""width:200px;border:14px solid red;"">","null","","","","","","","",""
"","image-keyboard-response","270","98498","0.0-399.0","3K4J6M3CXFF4Q8QE4JQEZQO4FHKGAJ","A2H3CV7SIVYREN","3FW4EL5A3LANKRP91N782LFHPY722Q","","13","img/land4.png","74","14","1","0","false","3","0.8,0.2,0.2,0.2,0.8,0.2,0.2,0.2,0.8","",""
"","html-keyboard-response","271","98805","0.0-400.0","3K4J6M3CXFF4Q8QE4JQEZQO4FHKGAJ","A2H3CV7SIVYREN","3FW4EL5A3LANKRP91N782LFHPY722Q","","null","<img src=""img/land4.png"" style=""width:200px;border:14px solid red;"">","null","","","","","","","",""
"","image-keyboard-response","272","98908","0.0-402.0","3K4J6M3CXFF4Q8QE4JQEZQO4FHKGAJ","A2H3CV7SIVYREN","3FW4EL5A3LANKRP91N782LFHPY722Q","","102","img/land7.png","74","103","1","0","false","1","0.8,0.2,0.2,0.2,0.8,0.2,0.2,0.2,0.8","",""
"","html-keyboard-response","273","99218","0.0-403.0","3K4J6M3CXFF4Q8QE4JQEZQO4FHKGAJ","A2H3CV7SIVYREN","3FW4EL5A3LANKRP91N782LFHPY722Q","","null","<img src=""img/land7.png"" style=""width:200px;border:14px solid red;"">","null","","","","","","","",""
"","image-keyboard-response","274","99523","0.0-405.0","3K4J6M3CXFF4Q8QE4JQEZQO4FHKGAJ","A2H3CV7SIVYREN","3FW4EL5A3LANKRP91N782LFHPY722Q","","303","img/land4.png","74","305","1","0","false","3","0.8,0.2,0.2,0.2,0.8,0.2,0.2,0.2,0.8","",""
"","html-keyboard-response","275","99827","0.0-406.0","3K4J6M3CXFF4Q8QE4JQEZQO4FHKGAJ","A2H3CV7SIVYREN","3FW4EL5A3LANKRP91N782LFHPY722Q","","null","<img src=""img/land4.png"" style=""width:200px;border:14px solid red;"">","null","","","","","","","",""
"","image-keyboard-response","276","99841","0.0-408.0","3K4J6M3CXFF4Q8QE4JQEZQO4FHKGAJ","A2H3CV7SIVYREN","3FW4EL5A3LANKRP91N782LFHPY722Q","","13","img/land9.png","74","14","1","0","false","2","0.8,0.2,0.2,0.2,0.8,0.2,0.2,0.2,0.8","",""
"","html-keyboard-response","277","100143","0.0-409.0","3K4J6M3CXFF4Q8QE4JQEZQO4FHKGAJ","A2H3CV7SIVYREN","3FW4EL5A3LANKRP91N782LFHPY722Q","","null","<img src=""img/land9.png"" style=""width:200px;border:14px solid red;"">","null","","","","","","","",""
"","image-keyboard-response","278","100463","0.0-411.0","3K4J6M3CXFF4Q8QE4JQEZQO4FHKGAJ","A2H3CV7SIVYREN","3FW4EL5A3LANKRP91N782LFHPY722Q","","318","img/land4.png","74","320","1","1","false","3","0.8,0.2,0.2,0.2,0.8,0.2,0.2,0.2,0.8","",""
"","html-keyboard-response","279","100766","0.0-412.0","3K4J6M3CXFF4Q8QE4JQEZQO4FHKGAJ","A2H3CV7SIVYREN","3FW4EL5A3LANKRP91N782LFHPY722Q","","null","<img src=""img/land4.png"" style=""width:200px; border:14px solid green;"">","null","","","","","","","",""
"","image-keyboard-response","280","100782","0.0-414.0","3K4J6M3CXFF4Q8QE4JQEZQO4FHKGAJ","A2H3CV7SIVYREN","3FW4EL5A3LANKRP91N782LFHPY722Q","","15","img/land7.png","74","16","1","1","false","1","0.8,0.2,0.2,0.2,0.8,0.2,0.2,0.2,0.8","",""
"","html-keyboard-response","281","101092","0.0-415.0","3K4J6M3CXFF4Q8QE4JQEZQO4FHKGAJ","A2H3CV7SIVYREN","3FW4EL5A3LANKRP91N782LFHPY722Q","","null","<img src=""img/land7.png"" style=""width:200px; border:14px solid green;"">","null","","","","","","","",""
"","image-keyboard-response","282","101146","0.0-417.0","3K4J6M3CXFF4Q8QE4JQEZQO4FHKGAJ","A2H3CV7SIVYREN","3FW4EL5A3LANKRP91N782LFHPY722Q","","52","img/land4.png","75","53","2","1","false","3","0.8,0.2,0.2,0.2,0.8,0.2,0.2,0.2,0.8","",""
"","html-keyboard-response","283","101458","0.0-418.0","3K4J6M3CXFF4Q8QE4JQEZQO4FHKGAJ","A2H3CV7SIVYREN","3FW4EL5A3LANKRP91N782LFHPY722Q","","null","<img src=""img/land4.png"" style=""width:200px; border:14px solid green;"">","null","","","","","","","",""
"","image-keyboard-response","284","101488","0.0-420.0","3K4J6M3CXFF4Q8QE4JQEZQO4FHKGAJ","A2H3CV7SIVYREN","3FW4EL5A3LANKRP91N782LFHPY722Q","","28","img/land7.png","75","30","2","1","false","1","0.8,0.2,0.2,0.2,0.8,0.2,0.2,0.2,0.8","",""
"","html-keyboard-response","285","101798","0.0-421.0","3K4J6M3CXFF4Q8QE4JQEZQO4FHKGAJ","A2H3CV7SIVYREN","3FW4EL5A3LANKRP91N782LFHPY722Q","","null","<img src=""img/land7.png"" style=""width:200px; border:14px solid green;"">","null","","","","","","","",""
"","image-keyboard-response","286","101814","0.0-423.0","3K4J6M3CXFF4Q8QE4JQEZQO4FHKGAJ","A2H3CV7SIVYREN","3FW4EL5A3LANKRP91N782LFHPY722Q","","13","img/land9.png","75","16","2","0","false","2","0.8,0.2,0.2,0.2,0.8,0.2,0.2,0.2,0.8","",""
"","html-keyboard-response","287","102114","0.0-424.0","3K4J6M3CXFF4Q8QE4JQEZQO4FHKGAJ","A2H3CV7SIVYREN","3FW4EL5A3LANKRP91N782LFHPY722Q","","null","<img src=""img/land9.png"" style=""width:200px;border:14px solid red;"">","null","","","","","","","",""
"","image-keyboard-response","288","102155","0.0-426.0","3K4J6M3CXFF4Q8QE4JQEZQO4FHKGAJ","A2H3CV7SIVYREN","3FW4EL5A3LANKRP91N782LFHPY722Q","","39","img/land7.png","75","41","2","0","false","1","0.8,0.2,0.2,0.2,0.8,0.2,0.2,0.2,0.8","",""
"","html-keyboard-response","289","102462","0.0-427.0","3K4J6M3CXFF4Q8QE4JQEZQO4FHKGAJ","A2H3CV7SIVYREN","3FW4EL5A3LANKRP91N782LFHPY722Q","","null","<img src=""img/land7.png"" style=""width:200px;border:14px solid red;"">","null","","","","","","","",""
"","image-keyboard-response","290","102799","0.0-429.0","3K4J6M3CXFF4Q8QE4JQEZQO4FHKGAJ","A2H3CV7SIVYREN","3FW4EL5A3LANKRP91N782LFHPY722Q","","336","img/land4.png","75","338","2","0","false","3","0.8,0.2,0.2,0.2,0.8,0.2,0.2,0.2,0.8","",""
"","html-keyboard-response","291","103100","0.0-430.0","3K4J6M3CXFF4Q8QE4JQEZQO4FHKGAJ","A2H3CV7SIVYREN","3FW4EL5A3LANKRP91N782LFHPY722Q","","null","<img src=""img/land4.png"" style=""width:200px;border:14px solid red;"">","null","","","","","","","",""
"","image-keyboard-response","292","103373","0.0-432.0","3K4J6M3CXFF4Q8QE4JQEZQO4FHKGAJ","A2H3CV7SIVYREN","3FW4EL5A3LANKRP91N782LFHPY722Q","","272","img/land7.png","75","272","2","0","false","1","0.8,0.2,0.2,0.2,0.8,0.2,0.2,0.2,0.8","",""
"","html-keyboard-response","293","103674","0.0-433.0","3K4J6M3CXFF4Q8QE4JQEZQO4FHKGAJ","A2H3CV7SIVYREN","3FW4EL5A3LANKRP91N782LFHPY722Q","","null","<img src=""img/land7.png"" style=""width:200px;border:14px solid red;"">","null","","","","","","","",""
"","image-keyboard-response","294","103942","0.0-435.0","3K4J6M3CXFF4Q8QE4JQEZQO4FHKGAJ","A2H3CV7SIVYREN","3FW4EL5A3LANKRP91N782LFHPY722Q","","267","img/land9.png","74","267","1","0","false","2","0.8,0.2,0.2,0.2,0.8,0.2,0.2,0.2,0.8","",""
"","html-keyboard-response","295","104251","0.0-436.0","3K4J6M3CXFF4Q8QE4JQEZQO4FHKGAJ","A2H3CV7SIVYREN","3FW4EL5A3LANKRP91N782LFHPY722Q","","null","<img src=""img/land9.png"" style=""width:200px;border:14px solid red;"">","null","","","","","","","",""
"","image-keyboard-response","296","104474","0.0-438.0","3K4J6M3CXFF4Q8QE4JQEZQO4FHKGAJ","A2H3CV7SIVYREN","3FW4EL5A3LANKRP91N782LFHPY722Q","","222","img/land4.png","74","222","1","0","false","3","0.8,0.2,0.2,0.2,0.8,0.2,0.2,0.2,0.8","",""
"","html-keyboard-response","297","104775","0.0-439.0","3K4J6M3CXFF4Q8QE4JQEZQO4FHKGAJ","A2H3CV7SIVYREN","3FW4EL5A3LANKRP91N782LFHPY722Q","","null","<img src=""img/land4.png"" style=""width:200px;border:14px solid red;"">","null","","","","","","","",""
"","image-keyboard-response","298","105145","0.0-441.0","3K4J6M3CXFF4Q8QE4JQEZQO4FHKGAJ","A2H3CV7SIVYREN","3FW4EL5A3LANKRP91N782LFHPY722Q","","368","img/land9.png","74","369","1","0","false","2","0.8,0.2,0.2,0.2,0.8,0.2,0.2,0.2,0.8","",""
"","html-keyboard-response","299","105478","0.0-442.0","3K4J6M3CXFF4Q8QE4JQEZQO4FHKGAJ","A2H3CV7SIVYREN","3FW4EL5A3LANKRP91N782LFHPY722Q","","null","<img src=""img/land9.png"" style=""width:200px;border:14px solid red;"">","null","","","","","","","",""
"","image-keyboard-response","300","105487","0.0-444.0","3K4J6M3CXFF4Q8QE4JQEZQO4FHKGAJ","A2H3CV7SIVYREN","3FW4EL5A3LANKRP91N782LFHPY722Q","","7","img/land9.png","75","9","2","0","false","2","0.8,0.2,0.2,0.2,0.8,0.2,0.2,0.2,0.8","",""
"","html-keyboard-response","301","105788","0.0-445.0","3K4J6M3CXFF4Q8QE4JQEZQO4FHKGAJ","A2H3CV7SIVYREN","3FW4EL5A3LANKRP91N782LFHPY722Q","","null","<img src=""img/land9.png"" style=""width:200px;border:14px solid red;"">","null","","","","","","","",""
"","image-keyboard-response","302","105955","0.0-447.0","3K4J6M3CXFF4Q8QE4JQEZQO4FHKGAJ","A2H3CV7SIVYREN","3FW4EL5A3LANKRP91N782LFHPY722Q","","165","img/land4.png","75","166","2","0","false","3","0.8,0.2,0.2,0.2,0.8,0.2,0.2,0.2,0.8","",""
"","html-keyboard-response","303","106258","0.0-448.0","3K4J6M3CXFF4Q8QE4JQEZQO4FHKGAJ","A2H3CV7SIVYREN","3FW4EL5A3LANKRP91N782LFHPY722Q","","null","<img src=""img/land4.png"" style=""width:200px;border:14px solid red;"">","null","","","","","","","",""
"","image-keyboard-response","304","106267","0.0-450.0","3K4J6M3CXFF4Q8QE4JQEZQO4FHKGAJ","A2H3CV7SIVYREN","3FW4EL5A3LANKRP91N782LFHPY722Q","","6","img/land7.png","76","8","3","1","false","1","0.8,0.2,0.2,0.2,0.8,0.2,0.2,0.2,0.8","",""
"","html-keyboard-response","305","106568","0.0-451.0","3K4J6M3CXFF4Q8QE4JQEZQO4FHKGAJ","A2H3CV7SIVYREN","3FW4EL5A3LANKRP91N782LFHPY722Q","","null","<img src=""img/land7.png"" style=""width:200px; border:14px solid green;"">","null","","","","","","","",""
"","image-keyboard-response","306","106933","0.0-453.0","3K4J6M3CXFF4Q8QE4JQEZQO4FHKGAJ","A2H3CV7SIVYREN","3FW4EL5A3LANKRP91N782LFHPY722Q","","364","img/land4.png","75","364","2","1","false","3","0.8,0.2,0.2,0.2,0.8,0.2,0.2,0.2,0.8","",""
"","html-keyboard-response","307","107242","0.0-454.0","3K4J6M3CXFF4Q8QE4JQEZQO4FHKGAJ","A2H3CV7SIVYREN","3FW4EL5A3LANKRP91N782LFHPY722Q","","null","<img src=""img/land4.png"" style=""width:200px; border:14px solid green;"">","null","","","","","","","",""
"","image-keyboard-response","308","107314","0.0-456.0","3K4J6M3CXFF4Q8QE4JQEZQO4FHKGAJ","A2H3CV7SIVYREN","3FW4EL5A3LANKRP91N782LFHPY722Q","","70","img/land9.png","76","71","3","0","false","2","0.8,0.2,0.2,0.2,0.8,0.2,0.2,0.2,0.8","",""
"","html-keyboard-response","309","107615","0.0-457.0","3K4J6M3CXFF4Q8QE4JQEZQO4FHKGAJ","A2H3CV7SIVYREN","3FW4EL5A3LANKRP91N782LFHPY722Q","","null","<img src=""img/land9.png"" style=""width:200px;border:14px solid red;"">","null","","","","","","","",""
"","image-keyboard-response","310","107642","0.0-459.0","3K4J6M3CXFF4Q8QE4JQEZQO4FHKGAJ","A2H3CV7SIVYREN","3FW4EL5A3LANKRP91N782LFHPY722Q","","26","img/land7.png","76","27","3","0","false","1","0.8,0.2,0.2,0.2,0.8,0.2,0.2,0.2,0.8","",""
"","html-keyboard-response","311","107951","0.0-460.0","3K4J6M3CXFF4Q8QE4JQEZQO4FHKGAJ","A2H3CV7SIVYREN","3FW4EL5A3LANKRP91N782LFHPY722Q","","null","<img src=""img/land7.png"" style=""width:200px;border:14px solid red;"">","null","","","","","","","",""
"","image-keyboard-response","312","108039","0.0-462.0","3K4J6M3CXFF4Q8QE4JQEZQO4FHKGAJ","A2H3CV7SIVYREN","3FW4EL5A3LANKRP91N782LFHPY722Q","","85","img/land9.png","76","87","3","0","false","2","0.8,0.2,0.2,0.2,0.8,0.2,0.2,0.2,0.8","",""
"","html-keyboard-response","313","108387","0.0-463.0","3K4J6M3CXFF4Q8QE4JQEZQO4FHKGAJ","A2H3CV7SIVYREN","3FW4EL5A3LANKRP91N782LFHPY722Q","","null","<img src=""img/land9.png"" style=""width:200px;border:14px solid red;"">","null","","","","","","","",""
"","image-keyboard-response","314","108444","0.0-465.0","3K4J6M3CXFF4Q8QE4JQEZQO4FHKGAJ","A2H3CV7SIVYREN","3FW4EL5A3LANKRP91N782LFHPY722Q","","56","img/land4.png","76","58","3","1","false","3","0.8,0.2,0.2,0.2,0.8,0.2,0.2,0.2,0.8","",""
"","html-keyboard-response","315","108750","0.0-466.0","3K4J6M3CXFF4Q8QE4JQEZQO4FHKGAJ","A2H3CV7SIVYREN","3FW4EL5A3LANKRP91N782LFHPY722Q","","null","<img src=""img/land4.png"" style=""width:200px; border:14px solid green;"">","null","","","","","","","",""
"","image-keyboard-response","316","108799","0.0-468.0","3K4J6M3CXFF4Q8QE4JQEZQO4FHKGAJ","A2H3CV7SIVYREN","3FW4EL5A3LANKRP91N782LFHPY722Q","","48","img/land9.png","75","48","2","1","false","2","0.8,0.2,0.2,0.2,0.8,0.2,0.2,0.2,0.8","",""
"","html-keyboard-response","317","109110","0.0-469.0","3K4J6M3CXFF4Q8QE4JQEZQO4FHKGAJ","A2H3CV7SIVYREN","3FW4EL5A3LANKRP91N782LFHPY722Q","","null","<img src=""img/land9.png"" style=""width:200px; border:14px solid green;"">","null","","","","","","","",""
"","image-keyboard-response","318","109183","0.0-471.0","3K4J6M3CXFF4Q8QE4JQEZQO4FHKGAJ","A2H3CV7SIVYREN","3FW4EL5A3LANKRP91N782LFHPY722Q","","67","img/land9.png","75","71","2","1","false","2","0.8,0.2,0.2,0.2,0.8,0.2,0.2,0.2,0.8","",""
"","html-keyboard-response","319","109501","0.0-472.0","3K4J6M3CXFF4Q8QE4JQEZQO4FHKGAJ","A2H3CV7SIVYREN","3FW4EL5A3LANKRP91N782LFHPY722Q","","null","<img src=""img/land9.png"" style=""width:200px; border:14px solid green;"">","null","","","","","","","",""
"","image-keyboard-response","320","109532","0.0-474.0","3K4J6M3CXFF4Q8QE4JQEZQO4FHKGAJ","A2H3CV7SIVYREN","3FW4EL5A3LANKRP91N782LFHPY722Q","","30","img/land7.png","75","30","2","1","false","1","0.8,0.2,0.2,0.2,0.8,0.2,0.2,0.2,0.8","",""
"","html-keyboard-response","321","109835","0.0-475.0","3K4J6M3CXFF4Q8QE4JQEZQO4FHKGAJ","A2H3CV7SIVYREN","3FW4EL5A3LANKRP91N782LFHPY722Q","","null","<img src=""img/land7.png"" style=""width:200px; border:14px solid green;"">","null","","","","","","","",""
"","image-keyboard-response","322","110117","0.0-477.0","3K4J6M3CXFF4Q8QE4JQEZQO4FHKGAJ","A2H3CV7SIVYREN","3FW4EL5A3LANKRP91N782LFHPY722Q","","281","img/land4.png","75","282","2","0","false","3","0.8,0.2,0.2,0.2,0.8,0.2,0.2,0.2,0.8","",""
"","html-keyboard-response","323","110420","0.0-478.0","3K4J6M3CXFF4Q8QE4JQEZQO4FHKGAJ","A2H3CV7SIVYREN","3FW4EL5A3LANKRP91N782LFHPY722Q","","null","<img src=""img/land4.png"" style=""width:200px;border:14px solid red;"">","null","","","","","","","",""
"","image-keyboard-response","324","110437","0.0-480.0","3K4J6M3CXFF4Q8QE4JQEZQO4FHKGAJ","A2H3CV7SIVYREN","3FW4EL5A3LANKRP91N782LFHPY722Q","","15","img/land7.png","75","16","2","1","false","1","0.8,0.2,0.2,0.2,0.8,0.2,0.2,0.2,0.8","",""
"","html-keyboard-response","325","110792","0.0-481.0","3K4J6M3CXFF4Q8QE4JQEZQO4FHKGAJ","A2H3CV7SIVYREN","3FW4EL5A3LANKRP91N782LFHPY722Q","","null","<img src=""img/land7.png"" style=""width:200px; border:14px solid green;"">","null","","","","","","","",""
"","image-keyboard-response","326","110808","0.0-483.0","3K4J6M3CXFF4Q8QE4JQEZQO4FHKGAJ","A2H3CV7SIVYREN","3FW4EL5A3LANKRP91N782LFHPY722Q","","14","img/land9.png","75","16","2","0","false","2","0.8,0.2,0.2,0.2,0.8,0.2,0.2,0.2,0.8","",""
"","html-keyboard-response","327","111112","0.0-484.0","3K4J6M3CXFF4Q8QE4JQEZQO4FHKGAJ","A2H3CV7SIVYREN","3FW4EL5A3LANKRP91N782LFHPY722Q","","null","<img src=""img/land9.png"" style=""width:200px;border:14px solid red;"">","null","","","","","","","",""
"","image-keyboard-response","328","111306","0.0-486.0","3K4J6M3CXFF4Q8QE4JQEZQO4FHKGAJ","A2H3CV7SIVYREN","3FW4EL5A3LANKRP91N782LFHPY722Q","","192","img/land9.png","75","193","2","1","false","2","0.8,0.2,0.2,0.2,0.8,0.2,0.2,0.2,0.8","",""
"","html-keyboard-response","329","111610","0.0-487.0","3K4J6M3CXFF4Q8QE4JQEZQO4FHKGAJ","A2H3CV7SIVYREN","3FW4EL5A3LANKRP91N782LFHPY722Q","","null","<img src=""img/land9.png"" style=""width:200px; border:14px solid green;"">","null","","","","","","","",""
"","image-keyboard-response","330","111867","0.0-489.0","3K4J6M3CXFF4Q8QE4JQEZQO4FHKGAJ","A2H3CV7SIVYREN","3FW4EL5A3LANKRP91N782LFHPY722Q","","253","img/land9.png","75","257","2","0","false","2","0.8,0.2,0.2,0.2,0.8,0.2,0.2,0.2,0.8","",""
"","html-keyboard-response","331","112170","0.0-490.0","3K4J6M3CXFF4Q8QE4JQEZQO4FHKGAJ","A2H3CV7SIVYREN","3FW4EL5A3LANKRP91N782LFHPY722Q","","null","<img src=""img/land9.png"" style=""width:200px;border:14px solid red;"">","null","","","","","","","",""
"","image-keyboard-response","332","112381","0.0-492.0","3K4J6M3CXFF4Q8QE4JQEZQO4FHKGAJ","A2H3CV7SIVYREN","3FW4EL5A3LANKRP91N782LFHPY722Q","","209","img/land9.png","75","211","2","1","false","2","0.8,0.2,0.2,0.2,0.8,0.2,0.2,0.2,0.8","",""
"","html-keyboard-response","333","112683","0.0-493.0","3K4J6M3CXFF4Q8QE4JQEZQO4FHKGAJ","A2H3CV7SIVYREN","3FW4EL5A3LANKRP91N782LFHPY722Q","","null","<img src=""img/land9.png"" style=""width:200px; border:14px solid green;"">","null","","","","","","","",""
"","image-keyboard-response","334","112873","0.0-495.0","3K4J6M3CXFF4Q8QE4JQEZQO4FHKGAJ","A2H3CV7SIVYREN","3FW4EL5A3LANKRP91N782LFHPY722Q","","189","img/land9.png","75","190","2","1","false","2","0.8,0.2,0.2,0.2,0.8,0.2,0.2,0.2,0.8","",""
"","html-keyboard-response","335","113174","0.0-496.0","3K4J6M3CXFF4Q8QE4JQEZQO4FHKGAJ","A2H3CV7SIVYREN","3FW4EL5A3LANKRP91N782LFHPY722Q","","null","<img src=""img/land9.png"" style=""width:200px; border:14px solid green;"">","null","","","","","","","",""
"","image-keyboard-response","336","113452","0.0-498.0","3K4J6M3CXFF4Q8QE4JQEZQO4FHKGAJ","A2H3CV7SIVYREN","3FW4EL5A3LANKRP91N782LFHPY722Q","","277","img/land9.png","75","278","2","1","false","2","0.8,0.2,0.2,0.2,0.8,0.2,0.2,0.2,0.8","",""
"","html-keyboard-response","337","113755","0.0-499.0","3K4J6M3CXFF4Q8QE4JQEZQO4FHKGAJ","A2H3CV7SIVYREN","3FW4EL5A3LANKRP91N782LFHPY722Q","","null","<img src=""img/land9.png"" style=""width:200px; border:14px solid green;"">","null","","","","","","","",""
"","image-keyboard-response","338","113988","0.0-501.0","3K4J6M3CXFF4Q8QE4JQEZQO4FHKGAJ","A2H3CV7SIVYREN","3FW4EL5A3LANKRP91N782LFHPY722Q","","232","img/land9.png","75","232","2","1","false","2","0.8,0.2,0.2,0.2,0.8,0.2,0.2,0.2,0.8","",""
"","html-keyboard-response","339","114290","0.0-502.0","3K4J6M3CXFF4Q8QE4JQEZQO4FHKGAJ","A2H3CV7SIVYREN","3FW4EL5A3LANKRP91N782LFHPY722Q","","null","<img src=""img/land9.png"" style=""width:200px; border:14px solid green;"">","null","","","","","","","",""
"","image-keyboard-response","340","114546","0.0-504.0","3K4J6M3CXFF4Q8QE4JQEZQO4FHKGAJ","A2H3CV7SIVYREN","3FW4EL5A3LANKRP91N782LFHPY722Q","","255","img/land7.png","75","256","2","0","false","1","0.8,0.2,0.2,0.2,0.8,0.2,0.2,0.2,0.8","",""
"","html-keyboard-response","341","114879","0.0-505.0","3K4J6M3CXFF4Q8QE4JQEZQO4FHKGAJ","A2H3CV7SIVYREN","3FW4EL5A3LANKRP91N782LFHPY722Q","","null","<img src=""img/land7.png"" style=""width:200px;border:14px solid red;"">","null","","","","","","","",""
"","image-keyboard-response","342","114898","0.0-507.0","3K4J6M3CXFF4Q8QE4JQEZQO4FHKGAJ","A2H3CV7SIVYREN","3FW4EL5A3LANKRP91N782LFHPY722Q","","18","img/land7.png","75","18","2","0","false","1","0.8,0.2,0.2,0.2,0.8,0.2,0.2,0.2,0.8","",""
"","html-keyboard-response","343","115199","0.0-508.0","3K4J6M3CXFF4Q8QE4JQEZQO4FHKGAJ","A2H3CV7SIVYREN","3FW4EL5A3LANKRP91N782LFHPY722Q","","null","<img src=""img/land7.png"" style=""width:200px;border:14px solid red;"">","null","","","","","","","",""
"","image-keyboard-response","344","115385","0.0-510.0","3K4J6M3CXFF4Q8QE4JQEZQO4FHKGAJ","A2H3CV7SIVYREN","3FW4EL5A3LANKRP91N782LFHPY722Q","","184","img/land4.png","75","185","2","0","false","3","0.8,0.2,0.2,0.2,0.8,0.2,0.2,0.2,0.8","",""
"","html-keyboard-response","345","115693","0.0-511.0","3K4J6M3CXFF4Q8QE4JQEZQO4FHKGAJ","A2H3CV7SIVYREN","3FW4EL5A3LANKRP91N782LFHPY722Q","","null","<img src=""img/land4.png"" style=""width:200px;border:14px solid red;"">","null","","","","","","","",""
"","image-keyboard-response","346","115965","0.0-513.0","3K4J6M3CXFF4Q8QE4JQEZQO4FHKGAJ","A2H3CV7SIVYREN","3FW4EL5A3LANKRP91N782LFHPY722Q","","271","img/land7.png","75","272","2","1","false","1","0.8,0.2,0.2,0.2,0.8,0.2,0.2,0.2,0.8","",""
"","html-keyboard-response","347","116269","0.0-514.0","3K4J6M3CXFF4Q8QE4JQEZQO4FHKGAJ","A2H3CV7SIVYREN","3FW4EL5A3LANKRP91N782LFHPY722Q","","null","<img src=""img/land7.png"" style=""width:200px; border:14px solid green;"">","null","","","","","","","",""
"","image-keyboard-response","348","116290","0.0-516.0","3K4J6M3CXFF4Q8QE4JQEZQO4FHKGAJ","A2H3CV7SIVYREN","3FW4EL5A3LANKRP91N782LFHPY722Q","","18","img/land9.png","75","20","2","1","false","2","0.8,0.2,0.2,0.2,0.8,0.2,0.2,0.2,0.8","",""
"","html-keyboard-response","349","116595","0.0-517.0","3K4J6M3CXFF4Q8QE4JQEZQO4FHKGAJ","A2H3CV7SIVYREN","3FW4EL5A3LANKRP91N782LFHPY722Q","","null","<img src=""img/land9.png"" style=""width:200px; border:14px solid green;"">","null","","","","","","","",""
"","image-keyboard-response","350","116922","0.0-519.0","3K4J6M3CXFF4Q8QE4JQEZQO4FHKGAJ","A2H3CV7SIVYREN","3FW4EL5A3LANKRP91N782LFHPY722Q","","324","img/land7.png","75","326","2","0","false","1","0.8,0.2,0.2,0.2,0.8,0.2,0.2,0.2,0.8","",""
"","html-keyboard-response","351","117228","0.0-520.0","3K4J6M3CXFF4Q8QE4JQEZQO4FHKGAJ","A2H3CV7SIVYREN","3FW4EL5A3LANKRP91N782LFHPY722Q","","null","<img src=""img/land7.png"" style=""width:200px;border:14px solid red;"">","null","","","","","","","",""
"","image-keyboard-response","352","117424","0.0-522.0","3K4J6M3CXFF4Q8QE4JQEZQO4FHKGAJ","A2H3CV7SIVYREN","3FW4EL5A3LANKRP91N782LFHPY722Q","","194","img/land7.png","75","196","2","0","false","1","0.8,0.2,0.2,0.2,0.8,0.2,0.2,0.2,0.8","",""
"","html-keyboard-response","353","117725","0.0-523.0","3K4J6M3CXFF4Q8QE4JQEZQO4FHKGAJ","A2H3CV7SIVYREN","3FW4EL5A3LANKRP91N782LFHPY722Q","","null","<img src=""img/land7.png"" style=""width:200px;border:14px solid red;"">","null","","","","","","","",""
"","image-keyboard-response","354","117964","0.0-525.0","3K4J6M3CXFF4Q8QE4JQEZQO4FHKGAJ","A2H3CV7SIVYREN","3FW4EL5A3LANKRP91N782LFHPY722Q","","238","img/land9.png","75","238","2","0","false","2","0.8,0.2,0.2,0.2,0.8,0.2,0.2,0.2,0.8","",""
"","html-keyboard-response","355","118271","0.0-526.0","3K4J6M3CXFF4Q8QE4JQEZQO4FHKGAJ","A2H3CV7SIVYREN","3FW4EL5A3LANKRP91N782LFHPY722Q","","null","<img src=""img/land9.png"" style=""width:200px;border:14px solid red;"">","null","","","","","","","",""
"","image-keyboard-response","356","118291","0.0-528.0","3K4J6M3CXFF4Q8QE4JQEZQO4FHKGAJ","A2H3CV7SIVYREN","3FW4EL5A3LANKRP91N782LFHPY722Q","","17","img/land4.png","75","19","2","0","false","3","0.8,0.2,0.2,0.2,0.8,0.2,0.2,0.2,0.8","",""
"","html-keyboard-response","357","118595","0.0-529.0","3K4J6M3CXFF4Q8QE4JQEZQO4FHKGAJ","A2H3CV7SIVYREN","3FW4EL5A3LANKRP91N782LFHPY722Q","","null","<img src=""img/land4.png"" style=""width:200px;border:14px solid red;"">","null","","","","","","","",""
"","image-keyboard-response","358","118872","0.0-531.0","3K4J6M3CXFF4Q8QE4JQEZQO4FHKGAJ","A2H3CV7SIVYREN","3FW4EL5A3LANKRP91N782LFHPY722Q","","275","img/land4.png","75","276","2","0","false","3","0.8,0.2,0.2,0.2,0.8,0.2,0.2,0.2,0.8","",""
"","html-keyboard-response","359","119176","0.0-532.0","3K4J6M3CXFF4Q8QE4JQEZQO4FHKGAJ","A2H3CV7SIVYREN","3FW4EL5A3LANKRP91N782LFHPY722Q","","null","<img src=""img/land4.png"" style=""width:200px;border:14px solid red;"">","null","","","","","","","",""
"","image-keyboard-response","360","119371","0.0-534.0","3K4J6M3CXFF4Q8QE4JQEZQO4FHKGAJ","A2H3CV7SIVYREN","3FW4EL5A3LANKRP91N782LFHPY722Q","","195","img/land4.png","75","195","2","0","false","3","0.8,0.2,0.2,0.2,0.8,0.2,0.2,0.2,0.8","",""
"","html-keyboard-response","361","119674","0.0-535.0","3K4J6M3CXFF4Q8QE4JQEZQO4FHKGAJ","A2H3CV7SIVYREN","3FW4EL5A3LANKRP91N782LFHPY722Q","","null","<img src=""img/land4.png"" style=""width:200px;border:14px solid red;"">","null","","","","","","","",""
"","image-keyboard-response","362","119736","0.0-537.0","3K4J6M3CXFF4Q8QE4JQEZQO4FHKGAJ","A2H3CV7SIVYREN","3FW4EL5A3LANKRP91N782LFHPY722Q","","60","img/land9.png","75","62","2","1","false","2","0.8,0.2,0.2,0.2,0.8,0.2,0.2,0.2,0.8","",""
"","html-keyboard-response","363","120039","0.0-538.0","3K4J6M3CXFF4Q8QE4JQEZQO4FHKGAJ","A2H3CV7SIVYREN","3FW4EL5A3LANKRP91N782LFHPY722Q","","null","<img src=""img/land9.png"" style=""width:200px; border:14px solid green;"">","null","","","","","","","",""
"","image-keyboard-response","364","120223","0.0-540.0","3K4J6M3CXFF4Q8QE4JQEZQO4FHKGAJ","A2H3CV7SIVYREN","3FW4EL5A3LANKRP91N782LFHPY722Q","","182","img/land4.png","76","184","3","1","false","3","0.8,0.2,0.2,0.2,0.8,0.2,0.2,0.2,0.8","",""
"","html-keyboard-response","365","120532","0.0-541.0","3K4J6M3CXFF4Q8QE4JQEZQO4FHKGAJ","A2H3CV7SIVYREN","3FW4EL5A3LANKRP91N782LFHPY722Q","","null","<img src=""img/land4.png"" style=""width:200px; border:14px solid green;"">","null","","","","","","","",""
"","html-keyboard-response","366","123337","0.0-543.0","3K4J6M3CXFF4Q8QE4JQEZQO4FHKGAJ","A2H3CV7SIVYREN","3FW4EL5A3LANKRP91N782LFHPY722Q","","","","","","","","","","","",""
"","image-keyboard-response","367","124342","0.0-544.0","3K4J6M3CXFF4Q8QE4JQEZQO4FHKGAJ","A2H3CV7SIVYREN","3FW4EL5A3LANKRP91N782LFHPY722Q","","","img/land2.png","","1005","-1","0","true","1","0.6,0.6,0,0,0.6,0.6,0.6,0,0.6","",""
"","html-keyboard-response","368","124708","0.0-545.0","3K4J6M3CXFF4Q8QE4JQEZQO4FHKGAJ","A2H3CV7SIVYREN","3FW4EL5A3LANKRP91N782LFHPY722Q","","null","<img src=""img/land2.png"" style=""width:200px;border:14px solid red;"">","null","","","","","","","",""
"","html-keyboard-response","369","126775","0.0-546.0-0.0","3K4J6M3CXFF4Q8QE4JQEZQO4FHKGAJ","A2H3CV7SIVYREN","3FW4EL5A3LANKRP91N782LFHPY722Q","","","","","","","","","","","",""
"","image-keyboard-response","370","127780","0.0-547.0","3K4J6M3CXFF4Q8QE4JQEZQO4FHKGAJ","A2H3CV7SIVYREN","3FW4EL5A3LANKRP91N782LFHPY722Q","","","img/land6.png","","1004","-1","0","true","3","0.6,0.6,0,0,0.6,0.6,0.6,0,0.6","",""
"","html-keyboard-response","371","128081","0.0-548.0","3K4J6M3CXFF4Q8QE4JQEZQO4FHKGAJ","A2H3CV7SIVYREN","3FW4EL5A3LANKRP91N782LFHPY722Q","","null","<img src=""img/land6.png"" style=""width:200px;border:14px solid red;"">","null","","","","","","","",""
"","html-keyboard-response","372","130855","0.0-549.0-0.0","3K4J6M3CXFF4Q8QE4JQEZQO4FHKGAJ","A2H3CV7SIVYREN","3FW4EL5A3LANKRP91N782LFHPY722Q","","","","","","","","","","","",""
"","image-keyboard-response","373","131162","0.0-550.0","3K4J6M3CXFF4Q8QE4JQEZQO4FHKGAJ","A2H3CV7SIVYREN","3FW4EL5A3LANKRP91N782LFHPY722Q","","305","img/land2.png","75","307","2","1","false","1","0.6,0.6,0,0,0.6,0.6,0.6,0,0.6","",""
"","html-keyboard-response","374","131485","0.0-551.0","3K4J6M3CXFF4Q8QE4JQEZQO4FHKGAJ","A2H3CV7SIVYREN","3FW4EL5A3LANKRP91N782LFHPY722Q","","null","<img src=""img/land2.png"" style=""width:200px; border:14px solid green;"">","null","","","","","","","",""
"","image-keyboard-response","375","131840","0.0-553.0","3K4J6M3CXFF4Q8QE4JQEZQO4FHKGAJ","A2H3CV7SIVYREN","3FW4EL5A3LANKRP91N782LFHPY722Q","","352","img/land2.png","75","353","2","1","false","1","0.6,0.6,0,0,0.6,0.6,0.6,0,0.6","",""
"","html-keyboard-response","376","132145","0.0-554.0","3K4J6M3CXFF4Q8QE4JQEZQO4FHKGAJ","A2H3CV7SIVYREN","3FW4EL5A3LANKRP91N782LFHPY722Q","","null","<img src=""img/land2.png"" style=""width:200px; border:14px solid green;"">","null","","","","","","","",""
"","image-keyboard-response","377","132225","0.0-556.0","3K4J6M3CXFF4Q8QE4JQEZQO4FHKGAJ","A2H3CV7SIVYREN","3FW4EL5A3LANKRP91N782LFHPY722Q","","78","img/land5.png","75","80","2","1","false","2","0.6,0.6,0,0,0.6,0.6,0.6,0,0.6","",""
"","html-keyboard-response","378","132549","0.0-557.0","3K4J6M3CXFF4Q8QE4JQEZQO4FHKGAJ","A2H3CV7SIVYREN","3FW4EL5A3LANKRP91N782LFHPY722Q","","null","<img src=""img/land5.png"" style=""width:200px; border:14px solid green;"">","null","","","","","","","",""
"","image-keyboard-response","379","132571","0.0-559.0","3K4J6M3CXFF4Q8QE4JQEZQO4FHKGAJ","A2H3CV7SIVYREN","3FW4EL5A3LANKRP91N782LFHPY722Q","","11","img/land2.png","75","13","2","0","false","1","0.6,0.6,0,0,0.6,0.6,0.6,0,0.6","",""
"","html-keyboard-response","380","132875","0.0-560.0","3K4J6M3CXFF4Q8QE4JQEZQO4FHKGAJ","A2H3CV7SIVYREN","3FW4EL5A3LANKRP91N782LFHPY722Q","","null","<img src=""img/land2.png"" style=""width:200px;border:14px solid red;"">","null","","","","","","","",""
"","image-keyboard-response","381","133027","0.0-562.0","3K4J6M3CXFF4Q8QE4JQEZQO4FHKGAJ","A2H3CV7SIVYREN","3FW4EL5A3LANKRP91N782LFHPY722Q","","152","img/land2.png","75","153","2","0","false","1","0.6,0.6,0,0,0.6,0.6,0.6,0,0.6","",""
"","html-keyboard-response","382","133328","0.0-563.0","3K4J6M3CXFF4Q8QE4JQEZQO4FHKGAJ","A2H3CV7SIVYREN","3FW4EL5A3LANKRP91N782LFHPY722Q","","null","<img src=""img/land2.png"" style=""width:200px;border:14px solid red;"">","null","","","","","","","",""
"","image-keyboard-response","383","133582","0.0-565.0","3K4J6M3CXFF4Q8QE4JQEZQO4FHKGAJ","A2H3CV7SIVYREN","3FW4EL5A3LANKRP91N782LFHPY722Q","","253","img/land2.png","75","253","2","1","false","1","0.6,0.6,0,0,0.6,0.6,0.6,0,0.6","",""
"","html-keyboard-response","384","133885","0.0-566.0","3K4J6M3CXFF4Q8QE4JQEZQO4FHKGAJ","A2H3CV7SIVYREN","3FW4EL5A3LANKRP91N782LFHPY722Q","","null","<img src=""img/land2.png"" style=""width:200px; border:14px solid green;"">","null","","","","","","","",""
"","image-keyboard-response","385","133929","0.0-568.0","3K4J6M3CXFF4Q8QE4JQEZQO4FHKGAJ","A2H3CV7SIVYREN","3FW4EL5A3LANKRP91N782LFHPY722Q","","42","img/land5.png","75","43","2","0","false","2","0.6,0.6,0,0,0.6,0.6,0.6,0,0.6","",""
"","html-keyboard-response","386","134231","0.0-569.0","3K4J6M3CXFF4Q8QE4JQEZQO4FHKGAJ","A2H3CV7SIVYREN","3FW4EL5A3LANKRP91N782LFHPY722Q","","null","<img src=""img/land5.png"" style=""width:200px;border:14px solid red;"">","null","","","","","","","",""
"","image-keyboard-response","387","134499","0.0-571.0","3K4J6M3CXFF4Q8QE4JQEZQO4FHKGAJ","A2H3CV7SIVYREN","3FW4EL5A3LANKRP91N782LFHPY722Q","","266","img/land5.png","75","267","2","1","false","2","0.6,0.6,0,0,0.6,0.6,0.6,0,0.6","",""
"","html-keyboard-response","388","134801","0.0-572.0","3K4J6M3CXFF4Q8QE4JQEZQO4FHKGAJ","A2H3CV7SIVYREN","3FW4EL5A3LANKRP91N782LFHPY722Q","","null","<img src=""img/land5.png"" style=""width:200px; border:14px solid green;"">","null","","","","","","","",""
"","image-keyboard-response","389","135126","0.0-574.0","3K4J6M3CXFF4Q8QE4JQEZQO4FHKGAJ","A2H3CV7SIVYREN","3FW4EL5A3LANKRP91N782LFHPY722Q","","324","img/land6.png","75","324","2","0","false","3","0.6,0.6,0,0,0.6,0.6,0.6,0,0.6","",""
"","html-keyboard-response","390","135428","0.0-575.0","3K4J6M3CXFF4Q8QE4JQEZQO4FHKGAJ","A2H3CV7SIVYREN","3FW4EL5A3LANKRP91N782LFHPY722Q","","null","<img src=""img/land6.png"" style=""width:200px;border:14px solid red;"">","null","","","","","","","",""
"","image-keyboard-response","391","135536","0.0-577.0","3K4J6M3CXFF4Q8QE4JQEZQO4FHKGAJ","A2H3CV7SIVYREN","3FW4EL5A3LANKRP91N782LFHPY722Q","","107","img/land2.png","75","108","2","0","false","1","0.6,0.6,0,0,0.6,0.6,0.6,0,0.6","",""
"","html-keyboard-response","392","135839","0.0-578.0","3K4J6M3CXFF4Q8QE4JQEZQO4FHKGAJ","A2H3CV7SIVYREN","3FW4EL5A3LANKRP91N782LFHPY722Q","","null","<img src=""img/land2.png"" style=""width:200px;border:14px solid red;"">","null","","","","","","","",""
"","image-keyboard-response","393","136088","0.0-580.0","3K4J6M3CXFF4Q8QE4JQEZQO4FHKGAJ","A2H3CV7SIVYREN","3FW4EL5A3LANKRP91N782LFHPY722Q","","248","img/land5.png","75","249","2","1","false","2","0.6,0.6,0,0,0.6,0.6,0.6,0,0.6","",""
"","html-keyboard-response","394","136389","0.0-581.0","3K4J6M3CXFF4Q8QE4JQEZQO4FHKGAJ","A2H3CV7SIVYREN","3FW4EL5A3LANKRP91N782LFHPY722Q","","null","<img src=""img/land5.png"" style=""width:200px; border:14px solid green;"">","null","","","","","","","",""
"","image-keyboard-response","395","136468","0.0-583.0","3K4J6M3CXFF4Q8QE4JQEZQO4FHKGAJ","A2H3CV7SIVYREN","3FW4EL5A3LANKRP91N782LFHPY722Q","","77","img/land2.png","75","79","2","0","false","1","0.6,0.6,0,0,0.6,0.6,0.6,0,0.6","",""
"","html-keyboard-response","396","136777","0.0-584.0","3K4J6M3CXFF4Q8QE4JQEZQO4FHKGAJ","A2H3CV7SIVYREN","3FW4EL5A3LANKRP91N782LFHPY722Q","","null","<img src=""img/land2.png"" style=""width:200px;border:14px solid red;"">","null","","","","","","","",""
"","image-keyboard-response","397","136872","0.0-586.0","3K4J6M3CXFF4Q8QE4JQEZQO4FHKGAJ","A2H3CV7SIVYREN","3FW4EL5A3LANKRP91N782LFHPY722Q","","93","img/land5.png","75","95","2","1","false","2","0.6,0.6,0,0,0.6,0.6,0.6,0,0.6","",""
"","html-keyboard-response","398","137178","0.0-587.0","3K4J6M3CXFF4Q8QE4JQEZQO4FHKGAJ","A2H3CV7SIVYREN","3FW4EL5A3LANKRP91N782LFHPY722Q","","null","<img src=""img/land5.png"" style=""width:200px; border:14px solid green;"">","null","","","","","","","",""
"","image-keyboard-response","399","137304","0.0-589.0","3K4J6M3CXFF4Q8QE4JQEZQO4FHKGAJ","A2H3CV7SIVYREN","3FW4EL5A3LANKRP91N782LFHPY722Q","","124","img/land6.png","75","126","2","0","false","3","0.6,0.6,0,0,0.6,0.6,0.6,0,0.6","",""
"","html-keyboard-response","400","137618","0.0-590.0","3K4J6M3CXFF4Q8QE4JQEZQO4FHKGAJ","A2H3CV7SIVYREN","3FW4EL5A3LANKRP91N782LFHPY722Q","","null","<img src=""img/land6.png"" style=""width:200px;border:14px solid red;"">","null","","","","","","","",""
"","image-keyboard-response","401","137655","0.0-592.0","3K4J6M3CXFF4Q8QE4JQEZQO4FHKGAJ","A2H3CV7SIVYREN","3FW4EL5A3LANKRP91N782LFHPY722Q","","34","img/land5.png","75","36","2","1","false","2","0.6,0.6,0,0,0.6,0.6,0.6,0,0.6","",""
"","html-keyboard-response","402","137958","0.0-593.0","3K4J6M3CXFF4Q8QE4JQEZQO4FHKGAJ","A2H3CV7SIVYREN","3FW4EL5A3LANKRP91N782LFHPY722Q","","null","<img src=""img/land5.png"" style=""width:200px; border:14px solid green;"">","null","","","","","","","",""
"","image-keyboard-response","403","138253","0.0-595.0","3K4J6M3CXFF4Q8QE4JQEZQO4FHKGAJ","A2H3CV7SIVYREN","3FW4EL5A3LANKRP91N782LFHPY722Q","","293","img/land5.png","75","295","2","1","false","2","0.6,0.6,0,0,0.6,0.6,0.6,0,0.6","",""
"","html-keyboard-response","404","138604","0.0-596.0","3K4J6M3CXFF4Q8QE4JQEZQO4FHKGAJ","A2H3CV7SIVYREN","3FW4EL5A3LANKRP91N782LFHPY722Q","","null","<img src=""img/land5.png"" style=""width:200px; border:14px solid green;"">","null","","","","","","","",""
"","image-keyboard-response","405","138633","0.0-598.0","3K4J6M3CXFF4Q8QE4JQEZQO4FHKGAJ","A2H3CV7SIVYREN","3FW4EL5A3LANKRP91N782LFHPY722Q","","16","img/land5.png","75","20","2","1","false","2","0.6,0.6,0,0,0.6,0.6,0.6,0,0.6","",""
"","html-keyboard-response","406","138942","0.0-599.0","3K4J6M3CXFF4Q8QE4JQEZQO4FHKGAJ","A2H3CV7SIVYREN","3FW4EL5A3LANKRP91N782LFHPY722Q","","null","<img src=""img/land5.png"" style=""width:200px; border:14px solid green;"">","null","","","","","","","",""
"","image-keyboard-response","407","139263","0.0-601.0","3K4J6M3CXFF4Q8QE4JQEZQO4FHKGAJ","A2H3CV7SIVYREN","3FW4EL5A3LANKRP91N782LFHPY722Q","","318","img/land5.png","75","320","2","1","false","2","0.6,0.6,0,0,0.6,0.6,0.6,0,0.6","",""
