"success","trial_type","trial_index","time_elapsed","internal_node_id","assignmentID","mturkID","hitID","view_history","rt","stimulus","key_press","reactionTime","a","r","s","cond","reward_cond","reward_cond_actual","reward_matrix_idx","responses","question_order"
"true","fullscreen","0","3569","0.0-0.0","3DH6GAKTYZB5D7JMAHSJNJMHWG5ZYS","A2HOUSKURBF8UA","3THR0FZ95PF7SK0MYRNAOUHTWA4OLV","","","","","","","","","","","","","",""
"","instructions","1","31876","0.0-1.0","3DH6GAKTYZB5D7JMAHSJNJMHWG5ZYS","A2HOUSKURBF8UA","3THR0FZ95PF7SK0MYRNAOUHTWA4OLV","[{""page_index"":0,""viewing_time"":2299.2999999988824},{""page_index"":1,""viewing_time"":1608.4000000003725},{""page_index"":2,""viewing_time"":1925.199999999255},{""page_index"":3,""viewing_time"":9716.700000001118},{""page_index"":4,""viewing_time"":1969.5},{""page_index"":5,""viewing_time"":3198.7999999988824},{""page_index"":6,""viewing_time"":7583.9000000003725}]","28302.89999999851","","","","","","","","","","","",""
"","image-keyboard-response","2","32369","0.0-2.0","3DH6GAKTYZB5D7JMAHSJNJMHWG5ZYS","A2HOUSKURBF8UA","3THR0FZ95PF7SK0MYRNAOUHTWA4OLV","","490.7999999988824","img/land1.png","74","492.90000000037253","1","1","1","2","1,0.7,0.7,0.7,1,0.7,0.7,0.7,1","1,0.7,0.7,0.7,1,0.7,0.7,0.7,1","","",""
"","html-keyboard-response","3","32673","0.0-3.0","3DH6GAKTYZB5D7JMAHSJNJMHWG5ZYS","A2HOUSKURBF8UA","3THR0FZ95PF7SK0MYRNAOUHTWA4OLV","","null","<img src=""img/land1.png"" style=""width:200px; border:14px solid green;"">","null","","","","","","","","","",""
"","image-keyboard-response","4","33309","0.0-4.0","3DH6GAKTYZB5D7JMAHSJNJMHWG5ZYS","A2HOUSKURBF8UA","3THR0FZ95PF7SK0MYRNAOUHTWA4OLV","","634.5999999996275","img/land1.png","74","636.2000000011176","1","1","1","2","1,0.7,0.7,0.7,1,0.7,0.7,0.7,1","1,0.7,0.7,0.7,1,0.7,0.7,0.7,1","","",""
"","html-keyboard-response","5","33617","0.0-5.0","3DH6GAKTYZB5D7JMAHSJNJMHWG5ZYS","A2HOUSKURBF8UA","3THR0FZ95PF7SK0MYRNAOUHTWA4OLV","","null","<img src=""img/land1.png"" style=""width:200px; border:14px solid green;"">","null","","","","","","","","","",""
"","image-keyboard-response","6","34197","0.0-6.0","3DH6GAKTYZB5D7JMAHSJNJMHWG5ZYS","A2HOUSKURBF8UA","3THR0FZ95PF7SK0MYRNAOUHTWA4OLV","","578.9000000003725","img/land1.png","74","580","1","1","1","2","1,0.7,0.7,0.7,1,0.7,0.7,0.7,1","1,0.7,0.7,0.7,1,0.7,0.7,0.7,1","","",""
"","html-keyboard-response","7","34506","0.0-7.0","3DH6GAKTYZB5D7JMAHSJNJMHWG5ZYS","A2HOUSKURBF8UA","3THR0FZ95PF7SK0MYRNAOUHTWA4OLV","","null","<img src=""img/land1.png"" style=""width:200px; border:14px solid green;"">","null","","","","","","","","","",""
"","image-keyboard-response","8","34983","0.0-8.0","3DH6GAKTYZB5D7JMAHSJNJMHWG5ZYS","A2HOUSKURBF8UA","3THR0FZ95PF7SK0MYRNAOUHTWA4OLV","","475.40000000037253","img/land1.png","74","477.7000000011176","1","1","1","2","1,0.7,0.7,0.7,1,0.7,0.7,0.7,1","1,0.7,0.7,0.7,1,0.7,0.7,0.7,1","","",""
"","html-keyboard-response","9","35289","0.0-9.0","3DH6GAKTYZB5D7JMAHSJNJMHWG5ZYS","A2HOUSKURBF8UA","3THR0FZ95PF7SK0MYRNAOUHTWA4OLV","","null","<img src=""img/land1.png"" style=""width:200px; border:14px solid green;"">","null","","","","","","","","","",""
"","image-keyboard-response","10","35870","0.0-10.0","3DH6GAKTYZB5D7JMAHSJNJMHWG5ZYS","A2HOUSKURBF8UA","3THR0FZ95PF7SK0MYRNAOUHTWA4OLV","","578.5999999996275","img/land2.png","75","580.5","2","1","2","2","1,0.7,0.7,0.7,1,0.7,0.7,0.7,1","1,0.7,0.7,0.7,1,0.7,0.7,0.7,1","","",""
"","html-keyboard-response","11","36177","0.0-11.0","3DH6GAKTYZB5D7JMAHSJNJMHWG5ZYS","A2HOUSKURBF8UA","3THR0FZ95PF7SK0MYRNAOUHTWA4OLV","","null","<img src=""img/land2.png"" style=""width:200px; border:14px solid green;"">","null","","","","","","","","","",""
"","image-keyboard-response","12","36960","0.0-12.0","3DH6GAKTYZB5D7JMAHSJNJMHWG5ZYS","A2HOUSKURBF8UA","3THR0FZ95PF7SK0MYRNAOUHTWA4OLV","","781.5999999996275","img/land3.png","76","782.9000000003725","3","1","3","2","1,0.7,0.7,0.7,1,0.7,0.7,0.7,1","1,0.7,0.7,0.7,1,0.7,0.7,0.7,1","","",""
"","html-keyboard-response","13","37265","0.0-13.0","3DH6GAKTYZB5D7JMAHSJNJMHWG5ZYS","A2HOUSKURBF8UA","3THR0FZ95PF7SK0MYRNAOUHTWA4OLV","","null","<img src=""img/land3.png"" style=""width:200px; border:14px solid green;"">","null","","","","","","","","","",""
"","image-keyboard-response","14","37770","0.0-14.0","3DH6GAKTYZB5D7JMAHSJNJMHWG5ZYS","A2HOUSKURBF8UA","3THR0FZ95PF7SK0MYRNAOUHTWA4OLV","","503.8999999985099","img/land3.png","76","505.40000000037253","3","1","3","2","1,0.7,0.7,0.7,1,0.7,0.7,0.7,1","1,0.7,0.7,0.7,1,0.7,0.7,0.7,1","","",""
"","html-keyboard-response","15","38073","0.0-15.0","3DH6GAKTYZB5D7JMAHSJNJMHWG5ZYS","A2HOUSKURBF8UA","3THR0FZ95PF7SK0MYRNAOUHTWA4OLV","","null","<img src=""img/land3.png"" style=""width:200px; border:14px solid green;"">","null","","","","","","","","","",""
"","image-keyboard-response","16","38642","0.0-16.0","3DH6GAKTYZB5D7JMAHSJNJMHWG5ZYS","A2HOUSKURBF8UA","3THR0FZ95PF7SK0MYRNAOUHTWA4OLV","","566.0999999996275","img/land1.png","75","568.2000000011176","2","0","1","2","1,0.7,0.7,0.7,1,0.7,0.7,0.7,1","1,0.7,0.7,0.7,1,0.7,0.7,0.7,1","","",""
"","html-keyboard-response","17","38945","0.0-17.0","3DH6GAKTYZB5D7JMAHSJNJMHWG5ZYS","A2HOUSKURBF8UA","3THR0FZ95PF7SK0MYRNAOUHTWA4OLV","","null","<img src=""img/land1.png"" style=""width:200px;border:14px solid red;"">","null","","","","","","","","","",""
"","image-keyboard-response","18","39518","0.0-18.0","3DH6GAKTYZB5D7JMAHSJNJMHWG5ZYS","A2HOUSKURBF8UA","3THR0FZ95PF7SK0MYRNAOUHTWA4OLV","","571.7000000011176","img/land1.png","74","573.5","1","1","1","2","1,0.7,0.7,0.7,1,0.7,0.7,0.7,1","1,0.7,0.7,0.7,1,0.7,0.7,0.7,1","","",""
"","html-keyboard-response","19","39825","0.0-19.0","3DH6GAKTYZB5D7JMAHSJNJMHWG5ZYS","A2HOUSKURBF8UA","3THR0FZ95PF7SK0MYRNAOUHTWA4OLV","","null","<img src=""img/land1.png"" style=""width:200px; border:14px solid green;"">","null","","","","","","","","","",""
"","image-keyboard-response","20","40507","0.0-20.0","3DH6GAKTYZB5D7JMAHSJNJMHWG5ZYS","A2HOUSKURBF8UA","3THR0FZ95PF7SK0MYRNAOUHTWA4OLV","","680.0999999996275","img/land3.png","76","681.6999999992549","3","1","3","2","1,0.7,0.7,0.7,1,0.7,0.7,0.7,1","1,0.7,0.7,0.7,1,0.7,0.7,0.7,1","","",""
"","html-keyboard-response","21","40817","0.0-21.0","3DH6GAKTYZB5D7JMAHSJNJMHWG5ZYS","A2HOUSKURBF8UA","3THR0FZ95PF7SK0MYRNAOUHTWA4OLV","","null","<img src=""img/land3.png"" style=""width:200px; border:14px solid green;"">","null","","","","","","","","","",""
"","image-keyboard-response","22","41311","0.0-22.0","3DH6GAKTYZB5D7JMAHSJNJMHWG5ZYS","A2HOUSKURBF8UA","3THR0FZ95PF7SK0MYRNAOUHTWA4OLV","","492.3999999985099","img/land2.png","74","494.2999999988824","1","0","2","2","1,0.7,0.7,0.7,1,0.7,0.7,0.7,1","1,0.7,0.7,0.7,1,0.7,0.7,0.7,1","","",""
"","html-keyboard-response","23","41617","0.0-23.0","3DH6GAKTYZB5D7JMAHSJNJMHWG5ZYS","A2HOUSKURBF8UA","3THR0FZ95PF7SK0MYRNAOUHTWA4OLV","","null","<img src=""img/land2.png"" style=""width:200px;border:14px solid red;"">","null","","","","","","","","","",""
"","image-keyboard-response","24","42226","0.0-24.0","3DH6GAKTYZB5D7JMAHSJNJMHWG5ZYS","A2HOUSKURBF8UA","3THR0FZ95PF7SK0MYRNAOUHTWA4OLV","","607.5999999996275","img/land1.png","74","608.7000000011176","1","1","1","2","1,0.7,0.7,0.7,1,0.7,0.7,0.7,1","1,0.7,0.7,0.7,1,0.7,0.7,0.7,1","","",""
"","html-keyboard-response","25","42537","0.0-25.0","3DH6GAKTYZB5D7JMAHSJNJMHWG5ZYS","A2HOUSKURBF8UA","3THR0FZ95PF7SK0MYRNAOUHTWA4OLV","","null","<img src=""img/land1.png"" style=""width:200px; border:14px solid green;"">","null","","","","","","","","","",""
"","image-keyboard-response","26","43056","0.0-26.0","3DH6GAKTYZB5D7JMAHSJNJMHWG5ZYS","A2HOUSKURBF8UA","3THR0FZ95PF7SK0MYRNAOUHTWA4OLV","","517.5999999996275","img/land1.png","74","518.7000000011176","1","1","1","2","1,0.7,0.7,0.7,1,0.7,0.7,0.7,1","1,0.7,0.7,0.7,1,0.7,0.7,0.7,1","","",""
"","html-keyboard-response","27","43360","0.0-27.0","3DH6GAKTYZB5D7JMAHSJNJMHWG5ZYS","A2HOUSKURBF8UA","3THR0FZ95PF7SK0MYRNAOUHTWA4OLV","","null","<img src=""img/land1.png"" style=""width:200px; border:14px solid green;"">","null","","","","","","","","","",""
"","image-keyboard-response","28","43904","0.0-28.0","3DH6GAKTYZB5D7JMAHSJNJMHWG5ZYS","A2HOUSKURBF8UA","3THR0FZ95PF7SK0MYRNAOUHTWA4OLV","","541.6999999992549","img/land3.png","76","543.3000000007451","3","1","3","2","1,0.7,0.7,0.7,1,0.7,0.7,0.7,1","1,0.7,0.7,0.7,1,0.7,0.7,0.7,1","","",""
"","html-keyboard-response","29","44209","0.0-29.0","3DH6GAKTYZB5D7JMAHSJNJMHWG5ZYS","A2HOUSKURBF8UA","3THR0FZ95PF7SK0MYRNAOUHTWA4OLV","","null","<img src=""img/land3.png"" style=""width:200px; border:14px solid green;"">","null","","","","","","","","","",""
"","image-keyboard-response","30","44899","0.0-30.0","3DH6GAKTYZB5D7JMAHSJNJMHWG5ZYS","A2HOUSKURBF8UA","3THR0FZ95PF7SK0MYRNAOUHTWA4OLV","","688.2000000011176","img/land1.png","74","689.4000000003725","1","1","1","2","1,0.7,0.7,0.7,1,0.7,0.7,0.7,1","1,0.7,0.7,0.7,1,0.7,0.7,0.7,1","","",""
"","html-keyboard-response","31","45209","0.0-31.0","3DH6GAKTYZB5D7JMAHSJNJMHWG5ZYS","A2HOUSKURBF8UA","3THR0FZ95PF7SK0MYRNAOUHTWA4OLV","","null","<img src=""img/land1.png"" style=""width:200px; border:14px solid green;"">","null","","","","","","","","","",""
"","image-keyboard-response","32","45666","0.0-32.0","3DH6GAKTYZB5D7JMAHSJNJMHWG5ZYS","A2HOUSKURBF8UA","3THR0FZ95PF7SK0MYRNAOUHTWA4OLV","","456.19999999925494","img/land1.png","74","457.30000000074506","1","1","1","2","1,0.7,0.7,0.7,1,0.7,0.7,0.7,1","1,0.7,0.7,0.7,1,0.7,0.7,0.7,1","","",""
"","html-keyboard-response","33","45969","0.0-33.0","3DH6GAKTYZB5D7JMAHSJNJMHWG5ZYS","A2HOUSKURBF8UA","3THR0FZ95PF7SK0MYRNAOUHTWA4OLV","","null","<img src=""img/land1.png"" style=""width:200px; border:14px solid green;"">","null","","","","","","","","","",""
"","image-keyboard-response","34","46522","0.0-34.0","3DH6GAKTYZB5D7JMAHSJNJMHWG5ZYS","A2HOUSKURBF8UA","3THR0FZ95PF7SK0MYRNAOUHTWA4OLV","","550.7999999988824","img/land2.png","75","552","2","1","2","2","1,0.7,0.7,0.7,1,0.7,0.7,0.7,1","1,0.7,0.7,0.7,1,0.7,0.7,0.7,1","","",""
"","html-keyboard-response","35","46825","0.0-35.0","3DH6GAKTYZB5D7JMAHSJNJMHWG5ZYS","A2HOUSKURBF8UA","3THR0FZ95PF7SK0MYRNAOUHTWA4OLV","","null","<img src=""img/land2.png"" style=""width:200px; border:14px solid green;"">","null","","","","","","","","","",""
"","image-keyboard-response","36","47617","0.0-36.0","3DH6GAKTYZB5D7JMAHSJNJMHWG5ZYS","A2HOUSKURBF8UA","3THR0FZ95PF7SK0MYRNAOUHTWA4OLV","","790.5","img/land1.png","74","791.9000000003725","1","1","1","2","1,0.7,0.7,0.7,1,0.7,0.7,0.7,1","1,0.7,0.7,0.7,1,0.7,0.7,0.7,1","","",""
"","html-keyboard-response","37","47921","0.0-37.0","3DH6GAKTYZB5D7JMAHSJNJMHWG5ZYS","A2HOUSKURBF8UA","3THR0FZ95PF7SK0MYRNAOUHTWA4OLV","","null","<img src=""img/land1.png"" style=""width:200px; border:14px solid green;"">","null","","","","","","","","","",""
"","image-keyboard-response","38","48375","0.0-38.0","3DH6GAKTYZB5D7JMAHSJNJMHWG5ZYS","A2HOUSKURBF8UA","3THR0FZ95PF7SK0MYRNAOUHTWA4OLV","","452.5","img/land1.png","74","453.59999999962747","1","1","1","2","1,0.7,0.7,0.7,1,0.7,0.7,0.7,1","1,0.7,0.7,0.7,1,0.7,0.7,0.7,1","","",""
"","html-keyboard-response","39","48680","0.0-39.0","3DH6GAKTYZB5D7JMAHSJNJMHWG5ZYS","A2HOUSKURBF8UA","3THR0FZ95PF7SK0MYRNAOUHTWA4OLV","","null","<img src=""img/land1.png"" style=""width:200px; border:14px solid green;"">","null","","","","","","","","","",""
"","image-keyboard-response","40","49236","0.0-40.0","3DH6GAKTYZB5D7JMAHSJNJMHWG5ZYS","A2HOUSKURBF8UA","3THR0FZ95PF7SK0MYRNAOUHTWA4OLV","","553.5","img/land2.png","75","555.3000000007451","2","1","2","2","1,0.7,0.7,0.7,1,0.7,0.7,0.7,1","1,0.7,0.7,0.7,1,0.7,0.7,0.7,1","","",""
"","html-keyboard-response","41","49545","0.0-41.0","3DH6GAKTYZB5D7JMAHSJNJMHWG5ZYS","A2HOUSKURBF8UA","3THR0FZ95PF7SK0MYRNAOUHTWA4OLV","","null","<img src=""img/land2.png"" style=""width:200px; border:14px solid green;"">","null","","","","","","","","","",""
"","image-keyboard-response","42","50137","0.0-42.0","3DH6GAKTYZB5D7JMAHSJNJMHWG5ZYS","A2HOUSKURBF8UA","3THR0FZ95PF7SK0MYRNAOUHTWA4OLV","","590.5999999996275","img/land1.png","74","591.6999999992549","1","1","1","2","1,0.7,0.7,0.7,1,0.7,0.7,0.7,1","1,0.7,0.7,0.7,1,0.7,0.7,0.7,1","","",""
"","html-keyboard-response","43","50441","0.0-43.0","3DH6GAKTYZB5D7JMAHSJNJMHWG5ZYS","A2HOUSKURBF8UA","3THR0FZ95PF7SK0MYRNAOUHTWA4OLV","","null","<img src=""img/land1.png"" style=""width:200px; border:14px solid green;"">","null","","","","","","","","","",""
"","image-keyboard-response","44","50903","0.0-44.0","3DH6GAKTYZB5D7JMAHSJNJMHWG5ZYS","A2HOUSKURBF8UA","3THR0FZ95PF7SK0MYRNAOUHTWA4OLV","","461.09999999962747","img/land2.png","75","462.30000000074506","2","1","2","2","1,0.7,0.7,0.7,1,0.7,0.7,0.7,1","1,0.7,0.7,0.7,1,0.7,0.7,0.7,1","","",""
"","html-keyboard-response","45","51209","0.0-45.0","3DH6GAKTYZB5D7JMAHSJNJMHWG5ZYS","A2HOUSKURBF8UA","3THR0FZ95PF7SK0MYRNAOUHTWA4OLV","","null","<img src=""img/land2.png"" style=""width:200px; border:14px solid green;"">","null","","","","","","","","","",""
"","image-keyboard-response","46","51664","0.0-46.0","3DH6GAKTYZB5D7JMAHSJNJMHWG5ZYS","A2HOUSKURBF8UA","3THR0FZ95PF7SK0MYRNAOUHTWA4OLV","","453.30000000074506","img/land1.png","74","455","1","1","1","2","1,0.7,0.7,0.7,1,0.7,0.7,0.7,1","1,0.7,0.7,0.7,1,0.7,0.7,0.7,1","","",""
"","html-keyboard-response","47","51969","0.0-47.0","3DH6GAKTYZB5D7JMAHSJNJMHWG5ZYS","A2HOUSKURBF8UA","3THR0FZ95PF7SK0MYRNAOUHTWA4OLV","","null","<img src=""img/land1.png"" style=""width:200px; border:14px solid green;"">","null","","","","","","","","","",""
"","image-keyboard-response","48","52531","0.0-48.0","3DH6GAKTYZB5D7JMAHSJNJMHWG5ZYS","A2HOUSKURBF8UA","3THR0FZ95PF7SK0MYRNAOUHTWA4OLV","","560.5","img/land2.png","75","561.7999999988824","2","1","2","2","1,0.7,0.7,0.7,1,0.7,0.7,0.7,1","1,0.7,0.7,0.7,1,0.7,0.7,0.7,1","","",""
"","html-keyboard-response","49","52841","0.0-49.0","3DH6GAKTYZB5D7JMAHSJNJMHWG5ZYS","A2HOUSKURBF8UA","3THR0FZ95PF7SK0MYRNAOUHTWA4OLV","","null","<img src=""img/land2.png"" style=""width:200px; border:14px solid green;"">","null","","","","","","","","","",""
"","image-keyboard-response","50","53315","0.0-50.0","3DH6GAKTYZB5D7JMAHSJNJMHWG5ZYS","A2HOUSKURBF8UA","3THR0FZ95PF7SK0MYRNAOUHTWA4OLV","","473","img/land1.png","74","474.6000000014901","1","1","1","2","1,0.7,0.7,0.7,1,0.7,0.7,0.7,1","1,0.7,0.7,0.7,1,0.7,0.7,0.7,1","","",""
"","html-keyboard-response","51","53625","0.0-51.0","3DH6GAKTYZB5D7JMAHSJNJMHWG5ZYS","A2HOUSKURBF8UA","3THR0FZ95PF7SK0MYRNAOUHTWA4OLV","","null","<img src=""img/land1.png"" style=""width:200px; border:14px solid green;"">","null","","","","","","","","","",""
"","image-keyboard-response","52","54093","0.0-52.0","3DH6GAKTYZB5D7JMAHSJNJMHWG5ZYS","A2HOUSKURBF8UA","3THR0FZ95PF7SK0MYRNAOUHTWA4OLV","","466.80000000074506","img/land2.png","75","468.2000000011176","2","1","2","2","1,0.7,0.7,0.7,1,0.7,0.7,0.7,1","1,0.7,0.7,0.7,1,0.7,0.7,0.7,1","","",""
"","html-keyboard-response","53","54402","0.0-53.0","3DH6GAKTYZB5D7JMAHSJNJMHWG5ZYS","A2HOUSKURBF8UA","3THR0FZ95PF7SK0MYRNAOUHTWA4OLV","","null","<img src=""img/land2.png"" style=""width:200px; border:14px solid green;"">","null","","","","","","","","","",""
"","image-keyboard-response","54","54923","0.0-54.0","3DH6GAKTYZB5D7JMAHSJNJMHWG5ZYS","A2HOUSKURBF8UA","3THR0FZ95PF7SK0MYRNAOUHTWA4OLV","","519.9000000003725","img/land1.png","74","521.2000000011176","1","1","1","2","1,0.7,0.7,0.7,1,0.7,0.7,0.7,1","1,0.7,0.7,0.7,1,0.7,0.7,0.7,1","","",""
"","html-keyboard-response","55","55233","0.0-55.0","3DH6GAKTYZB5D7JMAHSJNJMHWG5ZYS","A2HOUSKURBF8UA","3THR0FZ95PF7SK0MYRNAOUHTWA4OLV","","null","<img src=""img/land1.png"" style=""width:200px; border:14px solid green;"">","null","","","","","","","","","",""
"","image-keyboard-response","56","55801","0.0-56.0","3DH6GAKTYZB5D7JMAHSJNJMHWG5ZYS","A2HOUSKURBF8UA","3THR0FZ95PF7SK0MYRNAOUHTWA4OLV","","566.0999999996275","img/land3.png","76","567.5","3","1","3","2","1,0.7,0.7,0.7,1,0.7,0.7,0.7,1","1,0.7,0.7,0.7,1,0.7,0.7,0.7,1","","",""
"","html-keyboard-response","57","56105","0.0-57.0","3DH6GAKTYZB5D7JMAHSJNJMHWG5ZYS","A2HOUSKURBF8UA","3THR0FZ95PF7SK0MYRNAOUHTWA4OLV","","null","<img src=""img/land3.png"" style=""width:200px; border:14px solid green;"">","null","","","","","","","","","",""
"","image-keyboard-response","58","56591","0.0-58.0","3DH6GAKTYZB5D7JMAHSJNJMHWG5ZYS","A2HOUSKURBF8UA","3THR0FZ95PF7SK0MYRNAOUHTWA4OLV","","484.5","img/land2.png","74","485.69999999925494","1","0","2","2","1,0.7,0.7,0.7,1,0.7,0.7,0.7,1","1,0.7,0.7,0.7,1,0.7,0.7,0.7,1","","",""
"","html-keyboard-response","59","56897","0.0-59.0","3DH6GAKTYZB5D7JMAHSJNJMHWG5ZYS","A2HOUSKURBF8UA","3THR0FZ95PF7SK0MYRNAOUHTWA4OLV","","null","<img src=""img/land2.png"" style=""width:200px;border:14px solid red;"">","null","","","","","","","","","",""
"","image-keyboard-response","60","57321","0.0-60.0","3DH6GAKTYZB5D7JMAHSJNJMHWG5ZYS","A2HOUSKURBF8UA","3THR0FZ95PF7SK0MYRNAOUHTWA4OLV","","422.69999999925494","img/land2.png","75","424.19999999925494","2","1","2","2","1,0.7,0.7,0.7,1,0.7,0.7,0.7,1","1,0.7,0.7,0.7,1,0.7,0.7,0.7,1","","",""
"","html-keyboard-response","61","57625","0.0-61.0","3DH6GAKTYZB5D7JMAHSJNJMHWG5ZYS","A2HOUSKURBF8UA","3THR0FZ95PF7SK0MYRNAOUHTWA4OLV","","null","<img src=""img/land2.png"" style=""width:200px; border:14px solid green;"">","null","","","","","","","","","",""
"","image-keyboard-response","62","58086","0.0-62.0","3DH6GAKTYZB5D7JMAHSJNJMHWG5ZYS","A2HOUSKURBF8UA","3THR0FZ95PF7SK0MYRNAOUHTWA4OLV","","459.30000000074506","img/land1.png","74","460.7000000011176","1","1","1","2","1,0.7,0.7,0.7,1,0.7,0.7,0.7,1","1,0.7,0.7,0.7,1,0.7,0.7,0.7,1","","",""
"","html-keyboard-response","63","58393","0.0-63.0","3DH6GAKTYZB5D7JMAHSJNJMHWG5ZYS","A2HOUSKURBF8UA","3THR0FZ95PF7SK0MYRNAOUHTWA4OLV","","null","<img src=""img/land1.png"" style=""width:200px; border:14px solid green;"">","null","","","","","","","","","",""
"","image-keyboard-response","64","58833","0.0-64.0","3DH6GAKTYZB5D7JMAHSJNJMHWG5ZYS","A2HOUSKURBF8UA","3THR0FZ95PF7SK0MYRNAOUHTWA4OLV","","438.40000000037253","img/land2.png","75","439.69999999925494","2","1","2","2","1,0.7,0.7,0.7,1,0.7,0.7,0.7,1","1,0.7,0.7,0.7,1,0.7,0.7,0.7,1","","",""
"","html-keyboard-response","65","59144","0.0-65.0","3DH6GAKTYZB5D7JMAHSJNJMHWG5ZYS","A2HOUSKURBF8UA","3THR0FZ95PF7SK0MYRNAOUHTWA4OLV","","null","<img src=""img/land2.png"" style=""width:200px; border:14px solid green;"">","null","","","","","","","","","",""
"","image-keyboard-response","66","59641","0.0-66.0","3DH6GAKTYZB5D7JMAHSJNJMHWG5ZYS","A2HOUSKURBF8UA","3THR0FZ95PF7SK0MYRNAOUHTWA4OLV","","494.5","img/land1.png","74","495.80000000074506","1","1","1","2","1,0.7,0.7,0.7,1,0.7,0.7,0.7,1","1,0.7,0.7,0.7,1,0.7,0.7,0.7,1","","",""
"","html-keyboard-response","67","59945","0.0-67.0","3DH6GAKTYZB5D7JMAHSJNJMHWG5ZYS","A2HOUSKURBF8UA","3THR0FZ95PF7SK0MYRNAOUHTWA4OLV","","null","<img src=""img/land1.png"" style=""width:200px; border:14px solid green;"">","null","","","","","","","","","",""
"","image-keyboard-response","68","60402","0.0-68.0","3DH6GAKTYZB5D7JMAHSJNJMHWG5ZYS","A2HOUSKURBF8UA","3THR0FZ95PF7SK0MYRNAOUHTWA4OLV","","455.40000000037253","img/land1.png","74","456.7000000011176","1","1","1","2","1,0.7,0.7,0.7,1,0.7,0.7,0.7,1","1,0.7,0.7,0.7,1,0.7,0.7,0.7,1","","",""
"","html-keyboard-response","69","60705","0.0-69.0","3DH6GAKTYZB5D7JMAHSJNJMHWG5ZYS","A2HOUSKURBF8UA","3THR0FZ95PF7SK0MYRNAOUHTWA4OLV","","null","<img src=""img/land1.png"" style=""width:200px; border:14px solid green;"">","null","","","","","","","","","",""
"","image-keyboard-response","70","61197","0.0-70.0","3DH6GAKTYZB5D7JMAHSJNJMHWG5ZYS","A2HOUSKURBF8UA","3THR0FZ95PF7SK0MYRNAOUHTWA4OLV","","491","img/land1.png","74","492.40000000037253","1","1","1","2","1,0.7,0.7,0.7,1,0.7,0.7,0.7,1","1,0.7,0.7,0.7,1,0.7,0.7,0.7,1","","",""
"","html-keyboard-response","71","61505","0.0-71.0","3DH6GAKTYZB5D7JMAHSJNJMHWG5ZYS","A2HOUSKURBF8UA","3THR0FZ95PF7SK0MYRNAOUHTWA4OLV","","null","<img src=""img/land1.png"" style=""width:200px; border:14px solid green;"">","null","","","","","","","","","",""
"","image-keyboard-response","72","61970","0.0-72.0","3DH6GAKTYZB5D7JMAHSJNJMHWG5ZYS","A2HOUSKURBF8UA","3THR0FZ95PF7SK0MYRNAOUHTWA4OLV","","463.19999999925494","img/land1.png","74","465","1","1","1","2","1,0.7,0.7,0.7,1,0.7,0.7,0.7,1","1,0.7,0.7,0.7,1,0.7,0.7,0.7,1","","",""
"","html-keyboard-response","73","62273","0.0-73.0","3DH6GAKTYZB5D7JMAHSJNJMHWG5ZYS","A2HOUSKURBF8UA","3THR0FZ95PF7SK0MYRNAOUHTWA4OLV","","null","<img src=""img/land1.png"" style=""width:200px; border:14px solid green;"">","null","","","","","","","","","",""
"","image-keyboard-response","74","62729","0.0-74.0","3DH6GAKTYZB5D7JMAHSJNJMHWG5ZYS","A2HOUSKURBF8UA","3THR0FZ95PF7SK0MYRNAOUHTWA4OLV","","455","img/land3.png","75","456.09999999962747","2","1","3","2","1,0.7,0.7,0.7,1,0.7,0.7,0.7,1","1,0.7,0.7,0.7,1,0.7,0.7,0.7,1","","",""
"","html-keyboard-response","75","63033","0.0-75.0","3DH6GAKTYZB5D7JMAHSJNJMHWG5ZYS","A2HOUSKURBF8UA","3THR0FZ95PF7SK0MYRNAOUHTWA4OLV","","null","<img src=""img/land3.png"" style=""width:200px; border:14px solid green;"">","null","","","","","","","","","",""
"","image-keyboard-response","76","63669","0.0-76.0","3DH6GAKTYZB5D7JMAHSJNJMHWG5ZYS","A2HOUSKURBF8UA","3THR0FZ95PF7SK0MYRNAOUHTWA4OLV","","634.8999999985099","img/land3.png","76","636.0999999996275","3","1","3","2","1,0.7,0.7,0.7,1,0.7,0.7,0.7,1","1,0.7,0.7,0.7,1,0.7,0.7,0.7,1","","",""
"","html-keyboard-response","77","63977","0.0-77.0","3DH6GAKTYZB5D7JMAHSJNJMHWG5ZYS","A2HOUSKURBF8UA","3THR0FZ95PF7SK0MYRNAOUHTWA4OLV","","null","<img src=""img/land3.png"" style=""width:200px; border:14px solid green;"">","null","","","","","","","","","",""
"","image-keyboard-response","78","64603","0.0-78.0","3DH6GAKTYZB5D7JMAHSJNJMHWG5ZYS","A2HOUSKURBF8UA","3THR0FZ95PF7SK0MYRNAOUHTWA4OLV","","624.2000000011176","img/land2.png","75","625.5","2","1","2","2","1,0.7,0.7,0.7,1,0.7,0.7,0.7,1","1,0.7,0.7,0.7,1,0.7,0.7,0.7,1","","",""
"","html-keyboard-response","79","64905","0.0-79.0","3DH6GAKTYZB5D7JMAHSJNJMHWG5ZYS","A2HOUSKURBF8UA","3THR0FZ95PF7SK0MYRNAOUHTWA4OLV","","null","<img src=""img/land2.png"" style=""width:200px; border:14px solid green;"">","null","","","","","","","","","",""
"","image-keyboard-response","80","65393","0.0-80.0","3DH6GAKTYZB5D7JMAHSJNJMHWG5ZYS","A2HOUSKURBF8UA","3THR0FZ95PF7SK0MYRNAOUHTWA4OLV","","486.7000000011176","img/land2.png","75","488","2","1","2","2","1,0.7,0.7,0.7,1,0.7,0.7,0.7,1","1,0.7,0.7,0.7,1,0.7,0.7,0.7,1","","",""
"","html-keyboard-response","81","65697","0.0-81.0","3DH6GAKTYZB5D7JMAHSJNJMHWG5ZYS","A2HOUSKURBF8UA","3THR0FZ95PF7SK0MYRNAOUHTWA4OLV","","null","<img src=""img/land2.png"" style=""width:200px; border:14px solid green;"">","null","","","","","","","","","",""
"","image-keyboard-response","82","66291","0.0-82.0","3DH6GAKTYZB5D7JMAHSJNJMHWG5ZYS","A2HOUSKURBF8UA","3THR0FZ95PF7SK0MYRNAOUHTWA4OLV","","592.2999999988824","img/land3.png","76","594","3","1","3","2","1,0.7,0.7,0.7,1,0.7,0.7,0.7,1","1,0.7,0.7,0.7,1,0.7,0.7,0.7,1","","",""
"","html-keyboard-response","83","66601","0.0-83.0","3DH6GAKTYZB5D7JMAHSJNJMHWG5ZYS","A2HOUSKURBF8UA","3THR0FZ95PF7SK0MYRNAOUHTWA4OLV","","null","<img src=""img/land3.png"" style=""width:200px; border:14px solid green;"">","null","","","","","","","","","",""
"","image-keyboard-response","84","67319","0.0-84.0","3DH6GAKTYZB5D7JMAHSJNJMHWG5ZYS","A2HOUSKURBF8UA","3THR0FZ95PF7SK0MYRNAOUHTWA4OLV","","716","img/land1.png","74","717.9000000003725","1","1","1","2","1,0.7,0.7,0.7,1,0.7,0.7,0.7,1","1,0.7,0.7,0.7,1,0.7,0.7,0.7,1","","",""
"","html-keyboard-response","85","67625","0.0-85.0","3DH6GAKTYZB5D7JMAHSJNJMHWG5ZYS","A2HOUSKURBF8UA","3THR0FZ95PF7SK0MYRNAOUHTWA4OLV","","null","<img src=""img/land1.png"" style=""width:200px; border:14px solid green;"">","null","","","","","","","","","",""
"","image-keyboard-response","86","68176","0.0-86.0","3DH6GAKTYZB5D7JMAHSJNJMHWG5ZYS","A2HOUSKURBF8UA","3THR0FZ95PF7SK0MYRNAOUHTWA4OLV","","549.9000000003725","img/land3.png","76","551","3","1","3","2","1,0.7,0.7,0.7,1,0.7,0.7,0.7,1","1,0.7,0.7,0.7,1,0.7,0.7,0.7,1","","",""
"","html-keyboard-response","87","68481","0.0-87.0","3DH6GAKTYZB5D7JMAHSJNJMHWG5ZYS","A2HOUSKURBF8UA","3THR0FZ95PF7SK0MYRNAOUHTWA4OLV","","null","<img src=""img/land3.png"" style=""width:200px; border:14px solid green;"">","null","","","","","","","","","",""
"","image-keyboard-response","88","68898","0.0-88.0","3DH6GAKTYZB5D7JMAHSJNJMHWG5ZYS","A2HOUSKURBF8UA","3THR0FZ95PF7SK0MYRNAOUHTWA4OLV","","416.5","img/land3.png","76","417.7000000011176","3","1","3","2","1,0.7,0.7,0.7,1,0.7,0.7,0.7,1","1,0.7,0.7,0.7,1,0.7,0.7,0.7,1","","",""
"","html-keyboard-response","89","69201","0.0-89.0","3DH6GAKTYZB5D7JMAHSJNJMHWG5ZYS","A2HOUSKURBF8UA","3THR0FZ95PF7SK0MYRNAOUHTWA4OLV","","null","<img src=""img/land3.png"" style=""width:200px; border:14px solid green;"">","null","","","","","","","","","",""
"","image-keyboard-response","90","69710","0.0-90.0","3DH6GAKTYZB5D7JMAHSJNJMHWG5ZYS","A2HOUSKURBF8UA","3THR0FZ95PF7SK0MYRNAOUHTWA4OLV","","508.09999999962747","img/land1.png","74","509.40000000037253","1","1","1","2","1,0.7,0.7,0.7,1,0.7,0.7,0.7,1","1,0.7,0.7,0.7,1,0.7,0.7,0.7,1","","",""
"","html-keyboard-response","91","70017","0.0-91.0","3DH6GAKTYZB5D7JMAHSJNJMHWG5ZYS","A2HOUSKURBF8UA","3THR0FZ95PF7SK0MYRNAOUHTWA4OLV","","null","<img src=""img/land1.png"" style=""width:200px; border:14px solid green;"">","null","","","","","","","","","",""
"","image-keyboard-response","92","70516","0.0-92.0","3DH6GAKTYZB5D7JMAHSJNJMHWG5ZYS","A2HOUSKURBF8UA","3THR0FZ95PF7SK0MYRNAOUHTWA4OLV","","497.6000000014901","img/land1.png","74","498.8999999985099","1","1","1","2","1,0.7,0.7,0.7,1,0.7,0.7,0.7,1","1,0.7,0.7,0.7,1,0.7,0.7,0.7,1","","",""
"","html-keyboard-response","93","70825","0.0-93.0","3DH6GAKTYZB5D7JMAHSJNJMHWG5ZYS","A2HOUSKURBF8UA","3THR0FZ95PF7SK0MYRNAOUHTWA4OLV","","null","<img src=""img/land1.png"" style=""width:200px; border:14px solid green;"">","null","","","","","","","","","",""
"","image-keyboard-response","94","71325","0.0-94.0","3DH6GAKTYZB5D7JMAHSJNJMHWG5ZYS","A2HOUSKURBF8UA","3THR0FZ95PF7SK0MYRNAOUHTWA4OLV","","498.40000000037253","img/land1.png","74","499.80000000074506","1","1","1","2","1,0.7,0.7,0.7,1,0.7,0.7,0.7,1","1,0.7,0.7,0.7,1,0.7,0.7,0.7,1","","",""
"","html-keyboard-response","95","71633","0.0-95.0","3DH6GAKTYZB5D7JMAHSJNJMHWG5ZYS","A2HOUSKURBF8UA","3THR0FZ95PF7SK0MYRNAOUHTWA4OLV","","null","<img src=""img/land1.png"" style=""width:200px; border:14px solid green;"">","null","","","","","","","","","",""
"","image-keyboard-response","96","72103","0.0-96.0","3DH6GAKTYZB5D7JMAHSJNJMHWG5ZYS","A2HOUSKURBF8UA","3THR0FZ95PF7SK0MYRNAOUHTWA4OLV","","468.6000000014901","img/land2.png","75","469.7999999988824","2","1","2","2","1,0.7,0.7,0.7,1,0.7,0.7,0.7,1","1,0.7,0.7,0.7,1,0.7,0.7,0.7,1","","",""
"","html-keyboard-response","97","72409","0.0-97.0","3DH6GAKTYZB5D7JMAHSJNJMHWG5ZYS","A2HOUSKURBF8UA","3THR0FZ95PF7SK0MYRNAOUHTWA4OLV","","null","<img src=""img/land2.png"" style=""width:200px; border:14px solid green;"">","null","","","","","","","","","",""
"","image-keyboard-response","98","73139","0.0-98.0","3DH6GAKTYZB5D7JMAHSJNJMHWG5ZYS","A2HOUSKURBF8UA","3THR0FZ95PF7SK0MYRNAOUHTWA4OLV","","728.4000000003725","img/land3.png","76","730.2000000011176","3","1","3","2","1,0.7,0.7,0.7,1,0.7,0.7,0.7,1","1,0.7,0.7,0.7,1,0.7,0.7,0.7,1","","",""
"","html-keyboard-response","99","73441","0.0-99.0","3DH6GAKTYZB5D7JMAHSJNJMHWG5ZYS","A2HOUSKURBF8UA","3THR0FZ95PF7SK0MYRNAOUHTWA4OLV","","null","<img src=""img/land3.png"" style=""width:200px; border:14px solid green;"">","null","","","","","","","","","",""
"","image-keyboard-response","100","73964","0.0-100.0","3DH6GAKTYZB5D7JMAHSJNJMHWG5ZYS","A2HOUSKURBF8UA","3THR0FZ95PF7SK0MYRNAOUHTWA4OLV","","521.5","img/land1.png","74","522.8000000007451","1","1","1","2","1,0.7,0.7,0.7,1,0.7,0.7,0.7,1","1,0.7,0.7,0.7,1,0.7,0.7,0.7,1","","",""
"","html-keyboard-response","101","74278","0.0-101.0","3DH6GAKTYZB5D7JMAHSJNJMHWG5ZYS","A2HOUSKURBF8UA","3THR0FZ95PF7SK0MYRNAOUHTWA4OLV","","null","<img src=""img/land1.png"" style=""width:200px; border:14px solid green;"">","null","","","","","","","","","",""
"","image-keyboard-response","102","75002","0.0-102.0","3DH6GAKTYZB5D7JMAHSJNJMHWG5ZYS","A2HOUSKURBF8UA","3THR0FZ95PF7SK0MYRNAOUHTWA4OLV","","723.1999999992549","img/land2.png","75","724.5","2","1","2","2","1,0.7,0.7,0.7,1,0.7,0.7,0.7,1","1,0.7,0.7,0.7,1,0.7,0.7,0.7,1","","",""
"","html-keyboard-response","103","75305","0.0-103.0","3DH6GAKTYZB5D7JMAHSJNJMHWG5ZYS","A2HOUSKURBF8UA","3THR0FZ95PF7SK0MYRNAOUHTWA4OLV","","null","<img src=""img/land2.png"" style=""width:200px; border:14px solid green;"">","null","","","","","","","","","",""
"","image-keyboard-response","104","75909","0.0-104.0","3DH6GAKTYZB5D7JMAHSJNJMHWG5ZYS","A2HOUSKURBF8UA","3THR0FZ95PF7SK0MYRNAOUHTWA4OLV","","601.7999999988824","img/land1.png","74","603.1999999992549","1","1","1","2","1,0.7,0.7,0.7,1,0.7,0.7,0.7,1","1,0.7,0.7,0.7,1,0.7,0.7,0.7,1","","",""
"","html-keyboard-response","105","76217","0.0-105.0","3DH6GAKTYZB5D7JMAHSJNJMHWG5ZYS","A2HOUSKURBF8UA","3THR0FZ95PF7SK0MYRNAOUHTWA4OLV","","null","<img src=""img/land1.png"" style=""width:200px; border:14px solid green;"">","null","","","","","","","","","",""
"","image-keyboard-response","106","76850","0.0-106.0","3DH6GAKTYZB5D7JMAHSJNJMHWG5ZYS","A2HOUSKURBF8UA","3THR0FZ95PF7SK0MYRNAOUHTWA4OLV","","631.3000000007451","img/land3.png","76","632.7999999988824","3","1","3","2","1,0.7,0.7,0.7,1,0.7,0.7,0.7,1","1,0.7,0.7,0.7,1,0.7,0.7,0.7,1","","",""
"","html-keyboard-response","107","77153","0.0-107.0","3DH6GAKTYZB5D7JMAHSJNJMHWG5ZYS","A2HOUSKURBF8UA","3THR0FZ95PF7SK0MYRNAOUHTWA4OLV","","null","<img src=""img/land3.png"" style=""width:200px; border:14px solid green;"">","null","","","","","","","","","",""
"","image-keyboard-response","108","77681","0.0-108.0","3DH6GAKTYZB5D7JMAHSJNJMHWG5ZYS","A2HOUSKURBF8UA","3THR0FZ95PF7SK0MYRNAOUHTWA4OLV","","526.1000000014901","img/land1.png","74","527.3999999985099","1","1","1","2","1,0.7,0.7,0.7,1,0.7,0.7,0.7,1","1,0.7,0.7,0.7,1,0.7,0.7,0.7,1","","",""
"","html-keyboard-response","109","77985","0.0-109.0","3DH6GAKTYZB5D7JMAHSJNJMHWG5ZYS","A2HOUSKURBF8UA","3THR0FZ95PF7SK0MYRNAOUHTWA4OLV","","null","<img src=""img/land1.png"" style=""width:200px; border:14px solid green;"">","null","","","","","","","","","",""
"","image-keyboard-response","110","78482","0.0-110.0","3DH6GAKTYZB5D7JMAHSJNJMHWG5ZYS","A2HOUSKURBF8UA","3THR0FZ95PF7SK0MYRNAOUHTWA4OLV","","495.3999999985099","img/land1.png","74","496.90000000037253","1","1","1","2","1,0.7,0.7,0.7,1,0.7,0.7,0.7,1","1,0.7,0.7,0.7,1,0.7,0.7,0.7,1","","",""
"","html-keyboard-response","111","78785","0.0-111.0","3DH6GAKTYZB5D7JMAHSJNJMHWG5ZYS","A2HOUSKURBF8UA","3THR0FZ95PF7SK0MYRNAOUHTWA4OLV","","null","<img src=""img/land1.png"" style=""width:200px; border:14px solid green;"">","null","","","","","","","","","",""
"","image-keyboard-response","112","79358","0.0-112.0","3DH6GAKTYZB5D7JMAHSJNJMHWG5ZYS","A2HOUSKURBF8UA","3THR0FZ95PF7SK0MYRNAOUHTWA4OLV","","571.6999999992549","img/land3.png","76","573.1000000014901","3","1","3","2","1,0.7,0.7,0.7,1,0.7,0.7,0.7,1","1,0.7,0.7,0.7,1,0.7,0.7,0.7,1","","",""
"","html-keyboard-response","113","79665","0.0-113.0","3DH6GAKTYZB5D7JMAHSJNJMHWG5ZYS","A2HOUSKURBF8UA","3THR0FZ95PF7SK0MYRNAOUHTWA4OLV","","null","<img src=""img/land3.png"" style=""width:200px; border:14px solid green;"">","null","","","","","","","","","",""
"","image-keyboard-response","114","80165","0.0-114.0","3DH6GAKTYZB5D7JMAHSJNJMHWG5ZYS","A2HOUSKURBF8UA","3THR0FZ95PF7SK0MYRNAOUHTWA4OLV","","498.7000000011176","img/land3.png","76","500.1000000014901","3","1","3","2","1,0.7,0.7,0.7,1,0.7,0.7,0.7,1","1,0.7,0.7,0.7,1,0.7,0.7,0.7,1","","",""
"","html-keyboard-response","115","80473","0.0-115.0","3DH6GAKTYZB5D7JMAHSJNJMHWG5ZYS","A2HOUSKURBF8UA","3THR0FZ95PF7SK0MYRNAOUHTWA4OLV","","null","<img src=""img/land3.png"" style=""width:200px; border:14px solid green;"">","null","","","","","","","","","",""
"","image-keyboard-response","116","81172","0.0-116.0","3DH6GAKTYZB5D7JMAHSJNJMHWG5ZYS","A2HOUSKURBF8UA","3THR0FZ95PF7SK0MYRNAOUHTWA4OLV","","697.5999999996275","img/land2.png","75","699.2000000011176","2","1","2","2","1,0.7,0.7,0.7,1,0.7,0.7,0.7,1","1,0.7,0.7,0.7,1,0.7,0.7,0.7,1","","",""
"","html-keyboard-response","117","81481","0.0-117.0","3DH6GAKTYZB5D7JMAHSJNJMHWG5ZYS","A2HOUSKURBF8UA","3THR0FZ95PF7SK0MYRNAOUHTWA4OLV","","null","<img src=""img/land2.png"" style=""width:200px; border:14px solid green;"">","null","","","","","","","","","",""
"","image-keyboard-response","118","82111","0.0-118.0","3DH6GAKTYZB5D7JMAHSJNJMHWG5ZYS","A2HOUSKURBF8UA","3THR0FZ95PF7SK0MYRNAOUHTWA4OLV","","628.0999999996275","img/land3.png","74","629.3999999985099","1","1","3","2","1,0.7,0.7,0.7,1,0.7,0.7,0.7,1","1,0.7,0.7,0.7,1,0.7,0.7,0.7,1","","",""
"","html-keyboard-response","119","82416","0.0-119.0","3DH6GAKTYZB5D7JMAHSJNJMHWG5ZYS","A2HOUSKURBF8UA","3THR0FZ95PF7SK0MYRNAOUHTWA4OLV","","null","<img src=""img/land3.png"" style=""width:200px; border:14px solid green;"">","null","","","","","","","","","",""
"","image-keyboard-response","120","82977","0.0-120.0","3DH6GAKTYZB5D7JMAHSJNJMHWG5ZYS","A2HOUSKURBF8UA","3THR0FZ95PF7SK0MYRNAOUHTWA4OLV","","559.5","img/land3.png","76","560.7000000011176","3","1","3","2","1,0.7,0.7,0.7,1,0.7,0.7,0.7,1","1,0.7,0.7,0.7,1,0.7,0.7,0.7,1","","",""
"","html-keyboard-response","121","83281","0.0-121.0","3DH6GAKTYZB5D7JMAHSJNJMHWG5ZYS","A2HOUSKURBF8UA","3THR0FZ95PF7SK0MYRNAOUHTWA4OLV","","null","<img src=""img/land3.png"" style=""width:200px; border:14px solid green;"">","null","","","","","","","","","",""
"","image-keyboard-response","122","83781","0.0-122.0","3DH6GAKTYZB5D7JMAHSJNJMHWG5ZYS","A2HOUSKURBF8UA","3THR0FZ95PF7SK0MYRNAOUHTWA4OLV","","498.40000000037253","img/land1.png","74","499.69999999925494","1","1","1","2","1,0.7,0.7,0.7,1,0.7,0.7,0.7,1","1,0.7,0.7,0.7,1,0.7,0.7,0.7,1","","",""
"","html-keyboard-response","123","84089","0.0-123.0","3DH6GAKTYZB5D7JMAHSJNJMHWG5ZYS","A2HOUSKURBF8UA","3THR0FZ95PF7SK0MYRNAOUHTWA4OLV","","null","<img src=""img/land1.png"" style=""width:200px; border:14px solid green;"">","null","","","","","","","","","",""
"","image-keyboard-response","124","84653","0.0-124.0","3DH6GAKTYZB5D7JMAHSJNJMHWG5ZYS","A2HOUSKURBF8UA","3THR0FZ95PF7SK0MYRNAOUHTWA4OLV","","562.6000000014901","img/land1.png","74","564.0999999996275","1","1","1","2","1,0.7,0.7,0.7,1,0.7,0.7,0.7,1","1,0.7,0.7,0.7,1,0.7,0.7,0.7,1","","",""
"","html-keyboard-response","125","84961","0.0-125.0","3DH6GAKTYZB5D7JMAHSJNJMHWG5ZYS","A2HOUSKURBF8UA","3THR0FZ95PF7SK0MYRNAOUHTWA4OLV","","null","<img src=""img/land1.png"" style=""width:200px; border:14px solid green;"">","null","","","","","","","","","",""
"","image-keyboard-response","126","85519","0.0-126.0","3DH6GAKTYZB5D7JMAHSJNJMHWG5ZYS","A2HOUSKURBF8UA","3THR0FZ95PF7SK0MYRNAOUHTWA4OLV","","556.5","img/land1.png","74","558.2000000011176","1","1","1","2","1,0.7,0.7,0.7,1,0.7,0.7,0.7,1","1,0.7,0.7,0.7,1,0.7,0.7,0.7,1","","",""
"","html-keyboard-response","127","85826","0.0-127.0","3DH6GAKTYZB5D7JMAHSJNJMHWG5ZYS","A2HOUSKURBF8UA","3THR0FZ95PF7SK0MYRNAOUHTWA4OLV","","null","<img src=""img/land1.png"" style=""width:200px; border:14px solid green;"">","null","","","","","","","","","",""
"","image-keyboard-response","128","86472","0.0-128.0","3DH6GAKTYZB5D7JMAHSJNJMHWG5ZYS","A2HOUSKURBF8UA","3THR0FZ95PF7SK0MYRNAOUHTWA4OLV","","644.8000000007451","img/land2.png","75","646","2","1","2","2","1,0.7,0.7,0.7,1,0.7,0.7,0.7,1","1,0.7,0.7,0.7,1,0.7,0.7,0.7,1","","",""
"","html-keyboard-response","129","86776","0.0-129.0","3DH6GAKTYZB5D7JMAHSJNJMHWG5ZYS","A2HOUSKURBF8UA","3THR0FZ95PF7SK0MYRNAOUHTWA4OLV","","null","<img src=""img/land2.png"" style=""width:200px; border:14px solid green;"">","null","","","","","","","","","",""
"","image-keyboard-response","130","87206","0.0-130.0","3DH6GAKTYZB5D7JMAHSJNJMHWG5ZYS","A2HOUSKURBF8UA","3THR0FZ95PF7SK0MYRNAOUHTWA4OLV","","428.19999999925494","img/land2.png","75","429.59999999962747","2","1","2","2","1,0.7,0.7,0.7,1,0.7,0.7,0.7,1","1,0.7,0.7,0.7,1,0.7,0.7,0.7,1","","",""
"","html-keyboard-response","131","87513","0.0-131.0","3DH6GAKTYZB5D7JMAHSJNJMHWG5ZYS","A2HOUSKURBF8UA","3THR0FZ95PF7SK0MYRNAOUHTWA4OLV","","null","<img src=""img/land2.png"" style=""width:200px; border:14px solid green;"">","null","","","","","","","","","",""
"","image-keyboard-response","132","88179","0.0-132.0","3DH6GAKTYZB5D7JMAHSJNJMHWG5ZYS","A2HOUSKURBF8UA","3THR0FZ95PF7SK0MYRNAOUHTWA4OLV","","665.1999999992549","img/land1.png","74","666.4000000003725","1","1","1","2","1,0.7,0.7,0.7,1,0.7,0.7,0.7,1","1,0.7,0.7,0.7,1,0.7,0.7,0.7,1","","",""
"","html-keyboard-response","133","88489","0.0-133.0","3DH6GAKTYZB5D7JMAHSJNJMHWG5ZYS","A2HOUSKURBF8UA","3THR0FZ95PF7SK0MYRNAOUHTWA4OLV","","null","<img src=""img/land1.png"" style=""width:200px; border:14px solid green;"">","null","","","","","","","","","",""
"","image-keyboard-response","134","89000","0.0-134.0","3DH6GAKTYZB5D7JMAHSJNJMHWG5ZYS","A2HOUSKURBF8UA","3THR0FZ95PF7SK0MYRNAOUHTWA4OLV","","509.80000000074506","img/land1.png","74","511.30000000074506","1","1","1","2","1,0.7,0.7,0.7,1,0.7,0.7,0.7,1","1,0.7,0.7,0.7,1,0.7,0.7,0.7,1","","",""
"","html-keyboard-response","135","89305","0.0-135.0","3DH6GAKTYZB5D7JMAHSJNJMHWG5ZYS","A2HOUSKURBF8UA","3THR0FZ95PF7SK0MYRNAOUHTWA4OLV","","null","<img src=""img/land1.png"" style=""width:200px; border:14px solid green;"">","null","","","","","","","","","",""
"","image-keyboard-response","136","89952","0.0-136.0","3DH6GAKTYZB5D7JMAHSJNJMHWG5ZYS","A2HOUSKURBF8UA","3THR0FZ95PF7SK0MYRNAOUHTWA4OLV","","644.8999999985099","img/land2.png","75","646","2","1","2","2","1,0.7,0.7,0.7,1,0.7,0.7,0.7,1","1,0.7,0.7,0.7,1,0.7,0.7,0.7,1","","",""
"","html-keyboard-response","137","90257","0.0-137.0","3DH6GAKTYZB5D7JMAHSJNJMHWG5ZYS","A2HOUSKURBF8UA","3THR0FZ95PF7SK0MYRNAOUHTWA4OLV","","null","<img src=""img/land2.png"" style=""width:200px; border:14px solid green;"">","null","","","","","","","","","",""
"","image-keyboard-response","138","90905","0.0-138.0","3DH6GAKTYZB5D7JMAHSJNJMHWG5ZYS","A2HOUSKURBF8UA","3THR0FZ95PF7SK0MYRNAOUHTWA4OLV","","646.6999999992549","img/land3.png","76","648","3","1","3","2","1,0.7,0.7,0.7,1,0.7,0.7,0.7,1","1,0.7,0.7,0.7,1,0.7,0.7,0.7,1","","",""
"","html-keyboard-response","139","91209","0.0-139.0","3DH6GAKTYZB5D7JMAHSJNJMHWG5ZYS","A2HOUSKURBF8UA","3THR0FZ95PF7SK0MYRNAOUHTWA4OLV","","null","<img src=""img/land3.png"" style=""width:200px; border:14px solid green;"">","null","","","","","","","","","",""
"","image-keyboard-response","140","91745","0.0-140.0","3DH6GAKTYZB5D7JMAHSJNJMHWG5ZYS","A2HOUSKURBF8UA","3THR0FZ95PF7SK0MYRNAOUHTWA4OLV","","534.7999999988824","img/land1.png","74","536.1999999992549","1","1","1","2","1,0.7,0.7,0.7,1,0.7,0.7,0.7,1","1,0.7,0.7,0.7,1,0.7,0.7,0.7,1","","",""
"","html-keyboard-response","141","92049","0.0-141.0","3DH6GAKTYZB5D7JMAHSJNJMHWG5ZYS","A2HOUSKURBF8UA","3THR0FZ95PF7SK0MYRNAOUHTWA4OLV","","null","<img src=""img/land1.png"" style=""width:200px; border:14px solid green;"">","null","","","","","","","","","",""
"","image-keyboard-response","142","92830","0.0-142.0","3DH6GAKTYZB5D7JMAHSJNJMHWG5ZYS","A2HOUSKURBF8UA","3THR0FZ95PF7SK0MYRNAOUHTWA4OLV","","779","img/land2.png","75","780.5","2","1","2","2","1,0.7,0.7,0.7,1,0.7,0.7,0.7,1","1,0.7,0.7,0.7,1,0.7,0.7,0.7,1","","",""
"","html-keyboard-response","143","93137","0.0-143.0","3DH6GAKTYZB5D7JMAHSJNJMHWG5ZYS","A2HOUSKURBF8UA","3THR0FZ95PF7SK0MYRNAOUHTWA4OLV","","null","<img src=""img/land2.png"" style=""width:200px; border:14px solid green;"">","null","","","","","","","","","",""
"","image-keyboard-response","144","93777","0.0-144.0","3DH6GAKTYZB5D7JMAHSJNJMHWG5ZYS","A2HOUSKURBF8UA","3THR0FZ95PF7SK0MYRNAOUHTWA4OLV","","638.5","img/land3.png","76","639.9000000003725","3","1","3","2","1,0.7,0.7,0.7,1,0.7,0.7,0.7,1","1,0.7,0.7,0.7,1,0.7,0.7,0.7,1","","",""
"","html-keyboard-response","145","94081","0.0-145.0","3DH6GAKTYZB5D7JMAHSJNJMHWG5ZYS","A2HOUSKURBF8UA","3THR0FZ95PF7SK0MYRNAOUHTWA4OLV","","null","<img src=""img/land3.png"" style=""width:200px; border:14px solid green;"">","null","","","","","","","","","",""
"","image-keyboard-response","146","94713","0.0-146.0","3DH6GAKTYZB5D7JMAHSJNJMHWG5ZYS","A2HOUSKURBF8UA","3THR0FZ95PF7SK0MYRNAOUHTWA4OLV","","631","img/land2.png","75","632.2000000011176","2","1","2","2","1,0.7,0.7,0.7,1,0.7,0.7,0.7,1","1,0.7,0.7,0.7,1,0.7,0.7,0.7,1","","",""
"","html-keyboard-response","147","95017","0.0-147.0","3DH6GAKTYZB5D7JMAHSJNJMHWG5ZYS","A2HOUSKURBF8UA","3THR0FZ95PF7SK0MYRNAOUHTWA4OLV","","null","<img src=""img/land2.png"" style=""width:200px; border:14px solid green;"">","null","","","","","","","","","",""
"","image-keyboard-response","148","95632","0.0-148.0","3DH6GAKTYZB5D7JMAHSJNJMHWG5ZYS","A2HOUSKURBF8UA","3THR0FZ95PF7SK0MYRNAOUHTWA4OLV","","614.3000000007451","img/land1.png","74","615.8000000007451","1","1","1","2","1,0.7,0.7,0.7,1,0.7,0.7,0.7,1","1,0.7,0.7,0.7,1,0.7,0.7,0.7,1","","",""
"","html-keyboard-response","149","95937","0.0-149.0","3DH6GAKTYZB5D7JMAHSJNJMHWG5ZYS","A2HOUSKURBF8UA","3THR0FZ95PF7SK0MYRNAOUHTWA4OLV","","null","<img src=""img/land1.png"" style=""width:200px; border:14px solid green;"">","null","","","","","","","","","",""
"","image-keyboard-response","150","96435","0.0-150.0","3DH6GAKTYZB5D7JMAHSJNJMHWG5ZYS","A2HOUSKURBF8UA","3THR0FZ95PF7SK0MYRNAOUHTWA4OLV","","495.7999999988824","img/land1.png","74","497.59999999962747","1","1","1","2","1,0.7,0.7,0.7,1,0.7,0.7,0.7,1","1,0.7,0.7,0.7,1,0.7,0.7,0.7,1","","",""
"","html-keyboard-response","151","96745","0.0-151.0","3DH6GAKTYZB5D7JMAHSJNJMHWG5ZYS","A2HOUSKURBF8UA","3THR0FZ95PF7SK0MYRNAOUHTWA4OLV","","null","<img src=""img/land1.png"" style=""width:200px; border:14px solid green;"">","null","","","","","","","","","",""
"","image-keyboard-response","152","97225","0.0-152.0","3DH6GAKTYZB5D7JMAHSJNJMHWG5ZYS","A2HOUSKURBF8UA","3THR0FZ95PF7SK0MYRNAOUHTWA4OLV","","478.90000000037253","img/land1.png","74","480.2000000011176","1","1","1","2","1,0.7,0.7,0.7,1,0.7,0.7,0.7,1","1,0.7,0.7,0.7,1,0.7,0.7,0.7,1","","",""
"","html-keyboard-response","153","97529","0.0-153.0","3DH6GAKTYZB5D7JMAHSJNJMHWG5ZYS","A2HOUSKURBF8UA","3THR0FZ95PF7SK0MYRNAOUHTWA4OLV","","null","<img src=""img/land1.png"" style=""width:200px; border:14px solid green;"">","null","","","","","","","","","",""
"","image-keyboard-response","154","98198","0.0-154.0","3DH6GAKTYZB5D7JMAHSJNJMHWG5ZYS","A2HOUSKURBF8UA","3THR0FZ95PF7SK0MYRNAOUHTWA4OLV","","667.9000000003725","img/land3.png","76","669.4000000003725","3","1","3","2","1,0.7,0.7,0.7,1,0.7,0.7,0.7,1","1,0.7,0.7,0.7,1,0.7,0.7,0.7,1","","",""
"","html-keyboard-response","155","98505","0.0-155.0","3DH6GAKTYZB5D7JMAHSJNJMHWG5ZYS","A2HOUSKURBF8UA","3THR0FZ95PF7SK0MYRNAOUHTWA4OLV","","null","<img src=""img/land3.png"" style=""width:200px; border:14px solid green;"">","null","","","","","","","","","",""
"","image-keyboard-response","156","99155","0.0-156.0","3DH6GAKTYZB5D7JMAHSJNJMHWG5ZYS","A2HOUSKURBF8UA","3THR0FZ95PF7SK0MYRNAOUHTWA4OLV","","648.4000000003725","img/land1.png","74","649.9000000003725","1","1","1","2","1,0.7,0.7,0.7,1,0.7,0.7,0.7,1","1,0.7,0.7,0.7,1,0.7,0.7,0.7,1","","",""
"","html-keyboard-response","157","99465","0.0-157.0","3DH6GAKTYZB5D7JMAHSJNJMHWG5ZYS","A2HOUSKURBF8UA","3THR0FZ95PF7SK0MYRNAOUHTWA4OLV","","null","<img src=""img/land1.png"" style=""width:200px; border:14px solid green;"">","null","","","","","","","","","",""
"","image-keyboard-response","158","100120","0.0-158.0","3DH6GAKTYZB5D7JMAHSJNJMHWG5ZYS","A2HOUSKURBF8UA","3THR0FZ95PF7SK0MYRNAOUHTWA4OLV","","653.4000000003725","img/land3.png","76","654.5999999996275","3","1","3","2","1,0.7,0.7,0.7,1,0.7,0.7,0.7,1","1,0.7,0.7,0.7,1,0.7,0.7,0.7,1","","",""
"","html-keyboard-response","159","100425","0.0-159.0","3DH6GAKTYZB5D7JMAHSJNJMHWG5ZYS","A2HOUSKURBF8UA","3THR0FZ95PF7SK0MYRNAOUHTWA4OLV","","null","<img src=""img/land3.png"" style=""width:200px; border:14px solid green;"">","null","","","","","","","","","",""
"","image-keyboard-response","160","100928","0.0-160.0","3DH6GAKTYZB5D7JMAHSJNJMHWG5ZYS","A2HOUSKURBF8UA","3THR0FZ95PF7SK0MYRNAOUHTWA4OLV","","502","img/land1.png","74","503.59999999962747","1","1","1","2","1,0.7,0.7,0.7,1,0.7,0.7,0.7,1","1,0.7,0.7,0.7,1,0.7,0.7,0.7,1","","",""
"","html-keyboard-response","161","101233","0.0-161.0","3DH6GAKTYZB5D7JMAHSJNJMHWG5ZYS","A2HOUSKURBF8UA","3THR0FZ95PF7SK0MYRNAOUHTWA4OLV","","null","<img src=""img/land1.png"" style=""width:200px; border:14px solid green;"">","null","","","","","","","","","",""
"","image-keyboard-response","162","101699","0.0-162.0","3DH6GAKTYZB5D7JMAHSJNJMHWG5ZYS","A2HOUSKURBF8UA","3THR0FZ95PF7SK0MYRNAOUHTWA4OLV","","464.59999999962747","img/land3.png","76","465.90000000037253","3","1","3","2","1,0.7,0.7,0.7,1,0.7,0.7,0.7,1","1,0.7,0.7,0.7,1,0.7,0.7,0.7,1","","",""
"","html-keyboard-response","163","102001","0.0-163.0","3DH6GAKTYZB5D7JMAHSJNJMHWG5ZYS","A2HOUSKURBF8UA","3THR0FZ95PF7SK0MYRNAOUHTWA4OLV","","null","<img src=""img/land3.png"" style=""width:200px; border:14px solid green;"">","null","","","","","","","","","",""
"","image-keyboard-response","164","102495","0.0-164.0","3DH6GAKTYZB5D7JMAHSJNJMHWG5ZYS","A2HOUSKURBF8UA","3THR0FZ95PF7SK0MYRNAOUHTWA4OLV","","492.30000000074506","img/land1.png","74","493.5","1","1","1","2","1,0.7,0.7,0.7,1,0.7,0.7,0.7,1","1,0.7,0.7,0.7,1,0.7,0.7,0.7,1","","",""
"","html-keyboard-response","165","102801","0.0-165.0","3DH6GAKTYZB5D7JMAHSJNJMHWG5ZYS","A2HOUSKURBF8UA","3THR0FZ95PF7SK0MYRNAOUHTWA4OLV","","null","<img src=""img/land1.png"" style=""width:200px; border:14px solid green;"">","null","","","","","","","","","",""
"","image-keyboard-response","166","103399","0.0-166.0","3DH6GAKTYZB5D7JMAHSJNJMHWG5ZYS","A2HOUSKURBF8UA","3THR0FZ95PF7SK0MYRNAOUHTWA4OLV","","596.4000000003725","img/land1.png","74","597.8000000007451","1","1","1","2","1,0.7,0.7,0.7,1,0.7,0.7,0.7,1","1,0.7,0.7,0.7,1,0.7,0.7,0.7,1","","",""
"","html-keyboard-response","167","103705","0.0-167.0","3DH6GAKTYZB5D7JMAHSJNJMHWG5ZYS","A2HOUSKURBF8UA","3THR0FZ95PF7SK0MYRNAOUHTWA4OLV","","null","<img src=""img/land1.png"" style=""width:200px; border:14px solid green;"">","null","","","","","","","","","",""
"","image-keyboard-response","168","104195","0.0-168.0","3DH6GAKTYZB5D7JMAHSJNJMHWG5ZYS","A2HOUSKURBF8UA","3THR0FZ95PF7SK0MYRNAOUHTWA4OLV","","488.5","img/land2.png","75","489.80000000074506","2","1","2","2","1,0.7,0.7,0.7,1,0.7,0.7,0.7,1","1,0.7,0.7,0.7,1,0.7,0.7,0.7,1","","",""
"","html-keyboard-response","169","104496","0.0-169.0","3DH6GAKTYZB5D7JMAHSJNJMHWG5ZYS","A2HOUSKURBF8UA","3THR0FZ95PF7SK0MYRNAOUHTWA4OLV","","null","<img src=""img/land2.png"" style=""width:200px; border:14px solid green;"">","null","","","","","","","","","",""
"","html-keyboard-response","170","108634","0.0-170.0","3DH6GAKTYZB5D7JMAHSJNJMHWG5ZYS","A2HOUSKURBF8UA","3THR0FZ95PF7SK0MYRNAOUHTWA4OLV","","","","","","","","","","","","","",""
"","image-keyboard-response","171","109652","0.0-171.0","3DH6GAKTYZB5D7JMAHSJNJMHWG5ZYS","A2HOUSKURBF8UA","3THR0FZ95PF7SK0MYRNAOUHTWA4OLV","","1015.7000000011176","img/land6.png","75","1017.7000000011176","2","0","3","2","1,0.7,0.7,0.7,1,0.7,0.7,0.7,1","1,0.7,0.7,0.7,1,0.7,0.7,0.7,1","","",""
"","html-keyboard-response","172","109961","0.0-172.0","3DH6GAKTYZB5D7JMAHSJNJMHWG5ZYS","A2HOUSKURBF8UA","3THR0FZ95PF7SK0MYRNAOUHTWA4OLV","","null","<img src=""img/land6.png"" style=""width:200px;border:14px solid red;"">","null","","","","","","","","","",""
"","image-keyboard-response","173","110332","0.0-173.0","3DH6GAKTYZB5D7JMAHSJNJMHWG5ZYS","A2HOUSKURBF8UA","3THR0FZ95PF7SK0MYRNAOUHTWA4OLV","","369.19999999925494","img/land6.png","74","370.5","1","1","3","2","1,0.7,0.7,0.7,1,0.7,0.7,0.7,1","1,0.7,0.7,0.7,1,0.7,0.7,0.7,1","","",""
"","html-keyboard-response","174","110641","0.0-174.0","3DH6GAKTYZB5D7JMAHSJNJMHWG5ZYS","A2HOUSKURBF8UA","3THR0FZ95PF7SK0MYRNAOUHTWA4OLV","","null","<img src=""img/land6.png"" style=""width:200px; border:14px solid green;"">","null","","","","","","","","","",""
"","image-keyboard-response","175","111121","0.0-175.0","3DH6GAKTYZB5D7JMAHSJNJMHWG5ZYS","A2HOUSKURBF8UA","3THR0FZ95PF7SK0MYRNAOUHTWA4OLV","","478.19999999925494","img/land6.png","74","480","1","1","3","2","1,0.7,0.7,0.7,1,0.7,0.7,0.7,1","1,0.7,0.7,0.7,1,0.7,0.7,0.7,1","","",""
"","html-keyboard-response","176","111425","0.0-176.0","3DH6GAKTYZB5D7JMAHSJNJMHWG5ZYS","A2HOUSKURBF8UA","3THR0FZ95PF7SK0MYRNAOUHTWA4OLV","","null","<img src=""img/land6.png"" style=""width:200px; border:14px solid green;"">","null","","","","","","","","","",""
"","image-keyboard-response","177","111931","0.0-177.0","3DH6GAKTYZB5D7JMAHSJNJMHWG5ZYS","A2HOUSKURBF8UA","3THR0FZ95PF7SK0MYRNAOUHTWA4OLV","","504","img/land6.png","74","505.69999999925494","1","1","3","2","1,0.7,0.7,0.7,1,0.7,0.7,0.7,1","1,0.7,0.7,0.7,1,0.7,0.7,0.7,1","","",""
"","html-keyboard-response","178","112233","0.0-178.0","3DH6GAKTYZB5D7JMAHSJNJMHWG5ZYS","A2HOUSKURBF8UA","3THR0FZ95PF7SK0MYRNAOUHTWA4OLV","","null","<img src=""img/land6.png"" style=""width:200px; border:14px solid green;"">","null","","","","","","","","","",""
"","image-keyboard-response","179","113153","0.0-179.0","3DH6GAKTYZB5D7JMAHSJNJMHWG5ZYS","A2HOUSKURBF8UA","3THR0FZ95PF7SK0MYRNAOUHTWA4OLV","","911.2999999988824","img/land4.png","76","919.6999999992549","3","0","1","2","1,0.7,0.7,0.7,1,0.7,0.7,0.7,1","1,0.7,0.7,0.7,1,0.7,0.7,0.7,1","","",""
"","html-keyboard-response","180","113457","0.0-180.0","3DH6GAKTYZB5D7JMAHSJNJMHWG5ZYS","A2HOUSKURBF8UA","3THR0FZ95PF7SK0MYRNAOUHTWA4OLV","","null","<img src=""img/land4.png"" style=""width:200px;border:14px solid red;"">","null","","","","","","","","","",""
"","image-keyboard-response","181","113973","0.0-181.0","3DH6GAKTYZB5D7JMAHSJNJMHWG5ZYS","A2HOUSKURBF8UA","3THR0FZ95PF7SK0MYRNAOUHTWA4OLV","","514.2000000011176","img/land4.png","75","515.7000000011176","2","1","1","2","1,0.7,0.7,0.7,1,0.7,0.7,0.7,1","1,0.7,0.7,0.7,1,0.7,0.7,0.7,1","","",""
"","html-keyboard-response","182","114281","0.0-182.0","3DH6GAKTYZB5D7JMAHSJNJMHWG5ZYS","A2HOUSKURBF8UA","3THR0FZ95PF7SK0MYRNAOUHTWA4OLV","","null","<img src=""img/land4.png"" style=""width:200px; border:14px solid green;"">","null","","","","","","","","","",""
"","image-keyboard-response","183","114686","0.0-183.0","3DH6GAKTYZB5D7JMAHSJNJMHWG5ZYS","A2HOUSKURBF8UA","3THR0FZ95PF7SK0MYRNAOUHTWA4OLV","","403.6000000014901","img/land4.png","75","405.1000000014901","2","1","1","2","1,0.7,0.7,0.7,1,0.7,0.7,0.7,1","1,0.7,0.7,0.7,1,0.7,0.7,0.7,1","","",""
"","html-keyboard-response","184","115001","0.0-184.0","3DH6GAKTYZB5D7JMAHSJNJMHWG5ZYS","A2HOUSKURBF8UA","3THR0FZ95PF7SK0MYRNAOUHTWA4OLV","","null","<img src=""img/land4.png"" style=""width:200px; border:14px solid green;"">","null","","","","","","","","","",""
"","image-keyboard-response","185","115461","0.0-185.0","3DH6GAKTYZB5D7JMAHSJNJMHWG5ZYS","A2HOUSKURBF8UA","3THR0FZ95PF7SK0MYRNAOUHTWA4OLV","","459.09999999962747","img/land4.png","75","460.5","2","1","1","2","1,0.7,0.7,0.7,1,0.7,0.7,0.7,1","1,0.7,0.7,0.7,1,0.7,0.7,0.7,1","","",""
"","html-keyboard-response","186","115769","0.0-186.0","3DH6GAKTYZB5D7JMAHSJNJMHWG5ZYS","A2HOUSKURBF8UA","3THR0FZ95PF7SK0MYRNAOUHTWA4OLV","","null","<img src=""img/land4.png"" style=""width:200px; border:14px solid green;"">","null","","","","","","","","","",""
"","image-keyboard-response","187","116978","0.0-187.0","3DH6GAKTYZB5D7JMAHSJNJMHWG5ZYS","A2HOUSKURBF8UA","3THR0FZ95PF7SK0MYRNAOUHTWA4OLV","","1206.9000000003725","img/land5.png","76","1208.4000000003725","3","1","2","2","1,0.7,0.7,0.7,1,0.7,0.7,0.7,1","1,0.7,0.7,0.7,1,0.7,0.7,0.7,1","","",""
"","html-keyboard-response","188","117281","0.0-188.0","3DH6GAKTYZB5D7JMAHSJNJMHWG5ZYS","A2HOUSKURBF8UA","3THR0FZ95PF7SK0MYRNAOUHTWA4OLV","","null","<img src=""img/land5.png"" style=""width:200px; border:14px solid green;"">","null","","","","","","","","","",""
"","image-keyboard-response","189","117692","0.0-189.0","3DH6GAKTYZB5D7JMAHSJNJMHWG5ZYS","A2HOUSKURBF8UA","3THR0FZ95PF7SK0MYRNAOUHTWA4OLV","","409.69999999925494","img/land5.png","76","410.90000000037253","3","1","2","2","1,0.7,0.7,0.7,1,0.7,0.7,0.7,1","1,0.7,0.7,0.7,1,0.7,0.7,0.7,1","","",""
"","html-keyboard-response","190","118001","0.0-190.0","3DH6GAKTYZB5D7JMAHSJNJMHWG5ZYS","A2HOUSKURBF8UA","3THR0FZ95PF7SK0MYRNAOUHTWA4OLV","","null","<img src=""img/land5.png"" style=""width:200px; border:14px solid green;"">","null","","","","","","","","","",""
"","image-keyboard-response","191","118718","0.0-191.0","3DH6GAKTYZB5D7JMAHSJNJMHWG5ZYS","A2HOUSKURBF8UA","3THR0FZ95PF7SK0MYRNAOUHTWA4OLV","","715.5","img/land4.png","75","716.7999999988824","2","1","1","2","1,0.7,0.7,0.7,1,0.7,0.7,0.7,1","1,0.7,0.7,0.7,1,0.7,0.7,0.7,1","","",""
"","html-keyboard-response","192","119025","0.0-192.0","3DH6GAKTYZB5D7JMAHSJNJMHWG5ZYS","A2HOUSKURBF8UA","3THR0FZ95PF7SK0MYRNAOUHTWA4OLV","","null","<img src=""img/land4.png"" style=""width:200px; border:14px solid green;"">","null","","","","","","","","","",""
"","image-keyboard-response","193","119482","0.0-193.0","3DH6GAKTYZB5D7JMAHSJNJMHWG5ZYS","A2HOUSKURBF8UA","3THR0FZ95PF7SK0MYRNAOUHTWA4OLV","","455.19999999925494","img/land4.png","75","456.5","2","1","1","2","1,0.7,0.7,0.7,1,0.7,0.7,0.7,1","1,0.7,0.7,0.7,1,0.7,0.7,0.7,1","","",""
"","html-keyboard-response","194","119785","0.0-194.0","3DH6GAKTYZB5D7JMAHSJNJMHWG5ZYS","A2HOUSKURBF8UA","3THR0FZ95PF7SK0MYRNAOUHTWA4OLV","","null","<img src=""img/land4.png"" style=""width:200px; border:14px solid green;"">","null","","","","","","","","","",""
"","image-keyboard-response","195","120383","0.0-195.0","3DH6GAKTYZB5D7JMAHSJNJMHWG5ZYS","A2HOUSKURBF8UA","3THR0FZ95PF7SK0MYRNAOUHTWA4OLV","","596.5999999996275","img/land6.png","74","597.8000000007451","1","1","3","2","1,0.7,0.7,0.7,1,0.7,0.7,0.7,1","1,0.7,0.7,0.7,1,0.7,0.7,0.7,1","","",""
"","html-keyboard-response","196","120689","0.0-196.0","3DH6GAKTYZB5D7JMAHSJNJMHWG5ZYS","A2HOUSKURBF8UA","3THR0FZ95PF7SK0MYRNAOUHTWA4OLV","","null","<img src=""img/land6.png"" style=""width:200px; border:14px solid green;"">","null","","","","","","","","","",""
"","image-keyboard-response","197","121173","0.0-197.0","3DH6GAKTYZB5D7JMAHSJNJMHWG5ZYS","A2HOUSKURBF8UA","3THR0FZ95PF7SK0MYRNAOUHTWA4OLV","","482.59999999962747","img/land6.png","74","483.90000000037253","1","1","3","2","1,0.7,0.7,0.7,1,0.7,0.7,0.7,1","1,0.7,0.7,0.7,1,0.7,0.7,0.7,1","","",""
"","html-keyboard-response","198","121481","0.0-198.0","3DH6GAKTYZB5D7JMAHSJNJMHWG5ZYS","A2HOUSKURBF8UA","3THR0FZ95PF7SK0MYRNAOUHTWA4OLV","","null","<img src=""img/land6.png"" style=""width:200px; border:14px solid green;"">","null","","","","","","","","","",""
"","image-keyboard-response","199","122047","0.0-199.0","3DH6GAKTYZB5D7JMAHSJNJMHWG5ZYS","A2HOUSKURBF8UA","3THR0FZ95PF7SK0MYRNAOUHTWA4OLV","","564.1999999992549","img/land5.png","76","565.4000000003725","3","1","2","2","1,0.7,0.7,0.7,1,0.7,0.7,0.7,1","1,0.7,0.7,0.7,1,0.7,0.7,0.7,1","","",""
"","html-keyboard-response","200","122353","0.0-200.0","3DH6GAKTYZB5D7JMAHSJNJMHWG5ZYS","A2HOUSKURBF8UA","3THR0FZ95PF7SK0MYRNAOUHTWA4OLV","","null","<img src=""img/land5.png"" style=""width:200px; border:14px solid green;"">","null","","","","","","","","","",""
"","image-keyboard-response","201","122861","0.0-201.0","3DH6GAKTYZB5D7JMAHSJNJMHWG5ZYS","A2HOUSKURBF8UA","3THR0FZ95PF7SK0MYRNAOUHTWA4OLV","","504.30000000074506","img/land6.png","75","505.90000000037253","2","1","3","2","1,0.7,0.7,0.7,1,0.7,0.7,0.7,1","1,0.7,0.7,0.7,1,0.7,0.7,0.7,1","","",""
"","html-keyboard-response","202","123169","0.0-202.0","3DH6GAKTYZB5D7JMAHSJNJMHWG5ZYS","A2HOUSKURBF8UA","3THR0FZ95PF7SK0MYRNAOUHTWA4OLV","","null","<img src=""img/land6.png"" style=""width:200px; border:14px solid green;"">","null","","","","","","","","","",""
"","image-keyboard-response","203","124087","0.0-203.0","3DH6GAKTYZB5D7JMAHSJNJMHWG5ZYS","A2HOUSKURBF8UA","3THR0FZ95PF7SK0MYRNAOUHTWA4OLV","","916.9000000003725","img/land5.png","76","918.5","3","0","2","2","1,0.7,0.7,0.7,1,0.7,0.7,0.7,1","1,0.7,0.7,0.7,1,0.7,0.7,0.7,1","","",""
"","html-keyboard-response","204","124393","0.0-204.0","3DH6GAKTYZB5D7JMAHSJNJMHWG5ZYS","A2HOUSKURBF8UA","3THR0FZ95PF7SK0MYRNAOUHTWA4OLV","","null","<img src=""img/land5.png"" style=""width:200px;border:14px solid red;"">","null","","","","","","","","","",""
"","image-keyboard-response","205","125312","0.0-205.0","3DH6GAKTYZB5D7JMAHSJNJMHWG5ZYS","A2HOUSKURBF8UA","3THR0FZ95PF7SK0MYRNAOUHTWA4OLV","","917.6999999992549","img/land6.png","75","918.9000000003725","2","1","3","2","1,0.7,0.7,0.7,1,0.7,0.7,0.7,1","1,0.7,0.7,0.7,1,0.7,0.7,0.7,1","","",""
"","html-keyboard-response","206","125617","0.0-206.0","3DH6GAKTYZB5D7JMAHSJNJMHWG5ZYS","A2HOUSKURBF8UA","3THR0FZ95PF7SK0MYRNAOUHTWA4OLV","","null","<img src=""img/land6.png"" style=""width:200px; border:14px solid green;"">","null","","","","","","","","","",""
"","image-keyboard-response","207","126362","0.0-207.0","3DH6GAKTYZB5D7JMAHSJNJMHWG5ZYS","A2HOUSKURBF8UA","3THR0FZ95PF7SK0MYRNAOUHTWA4OLV","","743.8000000007451","img/land6.png","75","745.1000000014901","2","1","3","2","1,0.7,0.7,0.7,1,0.7,0.7,0.7,1","1,0.7,0.7,0.7,1,0.7,0.7,0.7,1","","",""
"","html-keyboard-response","208","126665","0.0-208.0","3DH6GAKTYZB5D7JMAHSJNJMHWG5ZYS","A2HOUSKURBF8UA","3THR0FZ95PF7SK0MYRNAOUHTWA4OLV","","null","<img src=""img/land6.png"" style=""width:200px; border:14px solid green;"">","null","","","","","","","","","",""
"","image-keyboard-response","209","127596","0.0-209.0","3DH6GAKTYZB5D7JMAHSJNJMHWG5ZYS","A2HOUSKURBF8UA","3THR0FZ95PF7SK0MYRNAOUHTWA4OLV","","930.0999999996275","img/land5.png","74","931.2999999988824","1","1","2","2","1,0.7,0.7,0.7,1,0.7,0.7,0.7,1","1,0.7,0.7,0.7,1,0.7,0.7,0.7,1","","",""
"","html-keyboard-response","210","127905","0.0-210.0","3DH6GAKTYZB5D7JMAHSJNJMHWG5ZYS","A2HOUSKURBF8UA","3THR0FZ95PF7SK0MYRNAOUHTWA4OLV","","null","<img src=""img/land5.png"" style=""width:200px; border:14px solid green;"">","null","","","","","","","","","",""
"","image-keyboard-response","211","128766","0.0-211.0","3DH6GAKTYZB5D7JMAHSJNJMHWG5ZYS","A2HOUSKURBF8UA","3THR0FZ95PF7SK0MYRNAOUHTWA4OLV","","859.5","img/land6.png","75","860.7999999988824","2","1","3","2","1,0.7,0.7,0.7,1,0.7,0.7,0.7,1","1,0.7,0.7,0.7,1,0.7,0.7,0.7,1","","",""
"","html-keyboard-response","212","129073","0.0-212.0","3DH6GAKTYZB5D7JMAHSJNJMHWG5ZYS","A2HOUSKURBF8UA","3THR0FZ95PF7SK0MYRNAOUHTWA4OLV","","null","<img src=""img/land6.png"" style=""width:200px; border:14px solid green;"">","null","","","","","","","","","",""
"","image-keyboard-response","213","130872","0.0-213.0","3DH6GAKTYZB5D7JMAHSJNJMHWG5ZYS","A2HOUSKURBF8UA","3THR0FZ95PF7SK0MYRNAOUHTWA4OLV","","1797.7000000011176","img/land5.png","74","1799.1000000014901","1","0","2","2","1,0.7,0.7,0.7,1,0.7,0.7,0.7,1","1,0.7,0.7,0.7,1,0.7,0.7,0.7,1","","",""
"","html-keyboard-response","214","131177","0.0-214.0","3DH6GAKTYZB5D7JMAHSJNJMHWG5ZYS","A2HOUSKURBF8UA","3THR0FZ95PF7SK0MYRNAOUHTWA4OLV","","null","<img src=""img/land5.png"" style=""width:200px;border:14px solid red;"">","null","","","","","","","","","",""
"","image-keyboard-response","215","131510","0.0-215.0","3DH6GAKTYZB5D7JMAHSJNJMHWG5ZYS","A2HOUSKURBF8UA","3THR0FZ95PF7SK0MYRNAOUHTWA4OLV","","330.80000000074506","img/land5.png","76","332.80000000074506","3","1","2","2","1,0.7,0.7,0.7,1,0.7,0.7,0.7,1","1,0.7,0.7,0.7,1,0.7,0.7,0.7,1","","",""
"","html-keyboard-response","216","131817","0.0-216.0","3DH6GAKTYZB5D7JMAHSJNJMHWG5ZYS","A2HOUSKURBF8UA","3THR0FZ95PF7SK0MYRNAOUHTWA4OLV","","null","<img src=""img/land5.png"" style=""width:200px; border:14px solid green;"">","null","","","","","","","","","",""
"","image-keyboard-response","217","132222","0.0-217.0","3DH6GAKTYZB5D7JMAHSJNJMHWG5ZYS","A2HOUSKURBF8UA","3THR0FZ95PF7SK0MYRNAOUHTWA4OLV","","403.40000000037253","img/land5.png","76","404.69999999925494","3","1","2","2","1,0.7,0.7,0.7,1,0.7,0.7,0.7,1","1,0.7,0.7,0.7,1,0.7,0.7,0.7,1","","",""
"","html-keyboard-response","218","132529","0.0-218.0","3DH6GAKTYZB5D7JMAHSJNJMHWG5ZYS","A2HOUSKURBF8UA","3THR0FZ95PF7SK0MYRNAOUHTWA4OLV","","null","<img src=""img/land5.png"" style=""width:200px; border:14px solid green;"">","null","","","","","","","","","",""
"","image-keyboard-response","219","133403","0.0-219.0","3DH6GAKTYZB5D7JMAHSJNJMHWG5ZYS","A2HOUSKURBF8UA","3THR0FZ95PF7SK0MYRNAOUHTWA4OLV","","872.5999999996275","img/land4.png","75","874.4000000003725","2","1","1","2","1,0.7,0.7,0.7,1,0.7,0.7,0.7,1","1,0.7,0.7,0.7,1,0.7,0.7,0.7,1","","",""
"","html-keyboard-response","220","133713","0.0-220.0","3DH6GAKTYZB5D7JMAHSJNJMHWG5ZYS","A2HOUSKURBF8UA","3THR0FZ95PF7SK0MYRNAOUHTWA4OLV","","null","<img src=""img/land4.png"" style=""width:200px; border:14px solid green;"">","null","","","","","","","","","",""
"","image-keyboard-response","221","134440","0.0-221.0","3DH6GAKTYZB5D7JMAHSJNJMHWG5ZYS","A2HOUSKURBF8UA","3THR0FZ95PF7SK0MYRNAOUHTWA4OLV","","725.5","img/land6.png","74","727","1","1","3","2","1,0.7,0.7,0.7,1,0.7,0.7,0.7,1","1,0.7,0.7,0.7,1,0.7,0.7,0.7,1","","",""
"","html-keyboard-response","222","134745","0.0-222.0","3DH6GAKTYZB5D7JMAHSJNJMHWG5ZYS","A2HOUSKURBF8UA","3THR0FZ95PF7SK0MYRNAOUHTWA4OLV","","null","<img src=""img/land6.png"" style=""width:200px; border:14px solid green;"">","null","","","","","","","","","",""
"","image-keyboard-response","223","135183","0.0-223.0","3DH6GAKTYZB5D7JMAHSJNJMHWG5ZYS","A2HOUSKURBF8UA","3THR0FZ95PF7SK0MYRNAOUHTWA4OLV","","436.59999999962747","img/land6.png","74","437.90000000037253","1","1","3","2","1,0.7,0.7,0.7,1,0.7,0.7,0.7,1","1,0.7,0.7,0.7,1,0.7,0.7,0.7,1","","",""
"","html-keyboard-response","224","135489","0.0-224.0","3DH6GAKTYZB5D7JMAHSJNJMHWG5ZYS","A2HOUSKURBF8UA","3THR0FZ95PF7SK0MYRNAOUHTWA4OLV","","null","<img src=""img/land6.png"" style=""width:200px; border:14px solid green;"">","null","","","","","","","","","",""
"","image-keyboard-response","225","136261","0.0-225.0","3DH6GAKTYZB5D7JMAHSJNJMHWG5ZYS","A2HOUSKURBF8UA","3THR0FZ95PF7SK0MYRNAOUHTWA4OLV","","770.3000000007451","img/land5.png","76","771.5","3","0","2","2","1,0.7,0.7,0.7,1,0.7,0.7,0.7,1","1,0.7,0.7,0.7,1,0.7,0.7,0.7,1","","",""
"","html-keyboard-response","226","136568","0.0-226.0","3DH6GAKTYZB5D7JMAHSJNJMHWG5ZYS","A2HOUSKURBF8UA","3THR0FZ95PF7SK0MYRNAOUHTWA4OLV","","null","<img src=""img/land5.png"" style=""width:200px;border:14px solid red;"">","null","","","","","","","","","",""
"","image-keyboard-response","227","137407","0.0-227.0","3DH6GAKTYZB5D7JMAHSJNJMHWG5ZYS","A2HOUSKURBF8UA","3THR0FZ95PF7SK0MYRNAOUHTWA4OLV","","838","img/land6.png","74","839.1000000014901","1","1","3","2","1,0.7,0.7,0.7,1,0.7,0.7,0.7,1","1,0.7,0.7,0.7,1,0.7,0.7,0.7,1","","",""
"","html-keyboard-response","228","137713","0.0-228.0","3DH6GAKTYZB5D7JMAHSJNJMHWG5ZYS","A2HOUSKURBF8UA","3THR0FZ95PF7SK0MYRNAOUHTWA4OLV","","null","<img src=""img/land6.png"" style=""width:200px; border:14px solid green;"">","null","","","","","","","","","",""
"","image-keyboard-response","229","138204","0.0-229.0","3DH6GAKTYZB5D7JMAHSJNJMHWG5ZYS","A2HOUSKURBF8UA","3THR0FZ95PF7SK0MYRNAOUHTWA4OLV","","489.2999999988824","img/land5.png","74","490.5","1","1","2","2","1,0.7,0.7,0.7,1,0.7,0.7,0.7,1","1,0.7,0.7,0.7,1,0.7,0.7,0.7,1","","",""
"","html-keyboard-response","230","138513","0.0-230.0","3DH6GAKTYZB5D7JMAHSJNJMHWG5ZYS","A2HOUSKURBF8UA","3THR0FZ95PF7SK0MYRNAOUHTWA4OLV","","null","<img src=""img/land5.png"" style=""width:200px; border:14px solid green;"">","null","","","","","","","","","",""
"","image-keyboard-response","231","139182","0.0-231.0","3DH6GAKTYZB5D7JMAHSJNJMHWG5ZYS","A2HOUSKURBF8UA","3THR0FZ95PF7SK0MYRNAOUHTWA4OLV","","665.2999999988824","img/land4.png","75","666.5999999996275","2","1","1","2","1,0.7,0.7,0.7,1,0.7,0.7,0.7,1","1,0.7,0.7,0.7,1,0.7,0.7,0.7,1","","",""
"","html-keyboard-response","232","139489","0.0-232.0","3DH6GAKTYZB5D7JMAHSJNJMHWG5ZYS","A2HOUSKURBF8UA","3THR0FZ95PF7SK0MYRNAOUHTWA4OLV","","null","<img src=""img/land4.png"" style=""width:200px; border:14px solid green;"">","null","","","","","","","","","",""
"","image-keyboard-response","233","140390","0.0-233.0","3DH6GAKTYZB5D7JMAHSJNJMHWG5ZYS","A2HOUSKURBF8UA","3THR0FZ95PF7SK0MYRNAOUHTWA4OLV","","899.5999999996275","img/land5.png","74","900.7000000011176","1","1","2","2","1,0.7,0.7,0.7,1,0.7,0.7,0.7,1","1,0.7,0.7,0.7,1,0.7,0.7,0.7,1","","",""
"","html-keyboard-response","234","140696","0.0-234.0","3DH6GAKTYZB5D7JMAHSJNJMHWG5ZYS","A2HOUSKURBF8UA","3THR0FZ95PF7SK0MYRNAOUHTWA4OLV","","null","<img src=""img/land5.png"" style=""width:200px; border:14px solid green;"">","null","","","","","","","","","",""
"","image-keyboard-response","235","141303","0.0-235.0","3DH6GAKTYZB5D7JMAHSJNJMHWG5ZYS","A2HOUSKURBF8UA","3THR0FZ95PF7SK0MYRNAOUHTWA4OLV","","605.4000000003725","img/land4.png","75","606.5999999996275","2","0","1","2","1,0.7,0.7,0.7,1,0.7,0.7,0.7,1","1,0.7,0.7,0.7,1,0.7,0.7,0.7,1","","",""
"","html-keyboard-response","236","141609","0.0-236.0","3DH6GAKTYZB5D7JMAHSJNJMHWG5ZYS","A2HOUSKURBF8UA","3THR0FZ95PF7SK0MYRNAOUHTWA4OLV","","null","<img src=""img/land4.png"" style=""width:200px;border:14px solid red;"">","null","","","","","","","","","",""
"","image-keyboard-response","237","142559","0.0-237.0","3DH6GAKTYZB5D7JMAHSJNJMHWG5ZYS","A2HOUSKURBF8UA","3THR0FZ95PF7SK0MYRNAOUHTWA4OLV","","948.5","img/land6.png","74","949.5999999996275","1","1","3","2","1,0.7,0.7,0.7,1,0.7,0.7,0.7,1","1,0.7,0.7,0.7,1,0.7,0.7,0.7,1","","",""
"","html-keyboard-response","238","142865","0.0-238.0","3DH6GAKTYZB5D7JMAHSJNJMHWG5ZYS","A2HOUSKURBF8UA","3THR0FZ95PF7SK0MYRNAOUHTWA4OLV","","null","<img src=""img/land6.png"" style=""width:200px; border:14px solid green;"">","null","","","","","","","","","",""
"","image-keyboard-response","239","143602","0.0-239.0","3DH6GAKTYZB5D7JMAHSJNJMHWG5ZYS","A2HOUSKURBF8UA","3THR0FZ95PF7SK0MYRNAOUHTWA4OLV","","735.8000000007451","img/land5.png","74","737.5","1","1","2","2","1,0.7,0.7,0.7,1,0.7,0.7,0.7,1","1,0.7,0.7,0.7,1,0.7,0.7,0.7,1","","",""
"","html-keyboard-response","240","143905","0.0-240.0","3DH6GAKTYZB5D7JMAHSJNJMHWG5ZYS","A2HOUSKURBF8UA","3THR0FZ95PF7SK0MYRNAOUHTWA4OLV","","null","<img src=""img/land5.png"" style=""width:200px; border:14px solid green;"">","null","","","","","","","","","",""
"","image-keyboard-response","241","144310","0.0-241.0","3DH6GAKTYZB5D7JMAHSJNJMHWG5ZYS","A2HOUSKURBF8UA","3THR0FZ95PF7SK0MYRNAOUHTWA4OLV","","403.19999999925494","img/land5.png","74","404.30000000074506","1","0","2","2","1,0.7,0.7,0.7,1,0.7,0.7,0.7,1","1,0.7,0.7,0.7,1,0.7,0.7,0.7,1","","",""
"","html-keyboard-response","242","144617","0.0-242.0","3DH6GAKTYZB5D7JMAHSJNJMHWG5ZYS","A2HOUSKURBF8UA","3THR0FZ95PF7SK0MYRNAOUHTWA4OLV","","null","<img src=""img/land5.png"" style=""width:200px;border:14px solid red;"">","null","","","","","","","","","",""
"","image-keyboard-response","243","145224","0.0-243.0","3DH6GAKTYZB5D7JMAHSJNJMHWG5ZYS","A2HOUSKURBF8UA","3THR0FZ95PF7SK0MYRNAOUHTWA4OLV","","605.5999999996275","img/land5.png","74","606.9000000003725","1","1","2","2","1,0.7,0.7,0.7,1,0.7,0.7,0.7,1","1,0.7,0.7,0.7,1,0.7,0.7,0.7,1","","",""
"","html-keyboard-response","244","145529","0.0-244.0","3DH6GAKTYZB5D7JMAHSJNJMHWG5ZYS","A2HOUSKURBF8UA","3THR0FZ95PF7SK0MYRNAOUHTWA4OLV","","null","<img src=""img/land5.png"" style=""width:200px; border:14px solid green;"">","null","","","","","","","","","",""
"","image-keyboard-response","245","146262","0.0-245.0","3DH6GAKTYZB5D7JMAHSJNJMHWG5ZYS","A2HOUSKURBF8UA","3THR0FZ95PF7SK0MYRNAOUHTWA4OLV","","731.5","img/land4.png","75","732.5999999996275","2","1","1","2","1,0.7,0.7,0.7,1,0.7,0.7,0.7,1","1,0.7,0.7,0.7,1,0.7,0.7,0.7,1","","",""
"","html-keyboard-response","246","146569","0.0-246.0","3DH6GAKTYZB5D7JMAHSJNJMHWG5ZYS","A2HOUSKURBF8UA","3THR0FZ95PF7SK0MYRNAOUHTWA4OLV","","null","<img src=""img/land4.png"" style=""width:200px; border:14px solid green;"">","null","","","","","","","","","",""
"","image-keyboard-response","247","147020","0.0-247.0","3DH6GAKTYZB5D7JMAHSJNJMHWG5ZYS","A2HOUSKURBF8UA","3THR0FZ95PF7SK0MYRNAOUHTWA4OLV","","450","img/land4.png","75","451.30000000074506","2","1","1","2","1,0.7,0.7,0.7,1,0.7,0.7,0.7,1","1,0.7,0.7,0.7,1,0.7,0.7,0.7,1","","",""
"","html-keyboard-response","248","147329","0.0-248.0","3DH6GAKTYZB5D7JMAHSJNJMHWG5ZYS","A2HOUSKURBF8UA","3THR0FZ95PF7SK0MYRNAOUHTWA4OLV","","null","<img src=""img/land4.png"" style=""width:200px; border:14px solid green;"">","null","","","","","","","","","",""
"","image-keyboard-response","249","147781","0.0-249.0","3DH6GAKTYZB5D7JMAHSJNJMHWG5ZYS","A2HOUSKURBF8UA","3THR0FZ95PF7SK0MYRNAOUHTWA4OLV","","450.2999999988824","img/land4.png","75","451.80000000074506","2","1","1","2","1,0.7,0.7,0.7,1,0.7,0.7,0.7,1","1,0.7,0.7,0.7,1,0.7,0.7,0.7,1","","",""
"","html-keyboard-response","250","148089","0.0-250.0","3DH6GAKTYZB5D7JMAHSJNJMHWG5ZYS","A2HOUSKURBF8UA","3THR0FZ95PF7SK0MYRNAOUHTWA4OLV","","null","<img src=""img/land4.png"" style=""width:200px; border:14px solid green;"">","null","","","","","","","","","",""
"","image-keyboard-response","251","148540","0.0-251.0","3DH6GAKTYZB5D7JMAHSJNJMHWG5ZYS","A2HOUSKURBF8UA","3THR0FZ95PF7SK0MYRNAOUHTWA4OLV","","450.09999999962747","img/land4.png","75","451.40000000037253","2","0","1","2","1,0.7,0.7,0.7,1,0.7,0.7,0.7,1","1,0.7,0.7,0.7,1,0.7,0.7,0.7,1","","",""
"","html-keyboard-response","252","148849","0.0-252.0","3DH6GAKTYZB5D7JMAHSJNJMHWG5ZYS","A2HOUSKURBF8UA","3THR0FZ95PF7SK0MYRNAOUHTWA4OLV","","null","<img src=""img/land4.png"" style=""width:200px;border:14px solid red;"">","null","","","","","","","","","",""
"","image-keyboard-response","253","149278","0.0-253.0","3DH6GAKTYZB5D7JMAHSJNJMHWG5ZYS","A2HOUSKURBF8UA","3THR0FZ95PF7SK0MYRNAOUHTWA4OLV","","427.59999999962747","img/land4.png","75","429","2","1","1","2","1,0.7,0.7,0.7,1,0.7,0.7,0.7,1","1,0.7,0.7,0.7,1,0.7,0.7,0.7,1","","",""
"","html-keyboard-response","254","149586","0.0-254.0","3DH6GAKTYZB5D7JMAHSJNJMHWG5ZYS","A2HOUSKURBF8UA","3THR0FZ95PF7SK0MYRNAOUHTWA4OLV","","null","<img src=""img/land4.png"" style=""width:200px; border:14px solid green;"">","null","","","","","","","","","",""
"","image-keyboard-response","255","150283","0.0-255.0","3DH6GAKTYZB5D7JMAHSJNJMHWG5ZYS","A2HOUSKURBF8UA","3THR0FZ95PF7SK0MYRNAOUHTWA4OLV","","696.4000000003725","img/land5.png","74","697.5","1","1","2","2","1,0.7,0.7,0.7,1,0.7,0.7,0.7,1","1,0.7,0.7,0.7,1,0.7,0.7,0.7,1","","",""
"","html-keyboard-response","256","150592","0.0-256.0","3DH6GAKTYZB5D7JMAHSJNJMHWG5ZYS","A2HOUSKURBF8UA","3THR0FZ95PF7SK0MYRNAOUHTWA4OLV","","null","<img src=""img/land5.png"" style=""width:200px; border:14px solid green;"">","null","","","","","","","","","",""
"","image-keyboard-response","257","151259","0.0-257.0","3DH6GAKTYZB5D7JMAHSJNJMHWG5ZYS","A2HOUSKURBF8UA","3THR0FZ95PF7SK0MYRNAOUHTWA4OLV","","665","img/land4.png","75","666.3000000007451","2","0","1","2","1,0.7,0.7,0.7,1,0.7,0.7,0.7,1","1,0.7,0.7,0.7,1,0.7,0.7,0.7,1","","",""
"","html-keyboard-response","258","151569","0.0-258.0","3DH6GAKTYZB5D7JMAHSJNJMHWG5ZYS","A2HOUSKURBF8UA","3THR0FZ95PF7SK0MYRNAOUHTWA4OLV","","null","<img src=""img/land4.png"" style=""width:200px;border:14px solid red;"">","null","","","","","","","","","",""
"","image-keyboard-response","259","152241","0.0-259.0","3DH6GAKTYZB5D7JMAHSJNJMHWG5ZYS","A2HOUSKURBF8UA","3THR0FZ95PF7SK0MYRNAOUHTWA4OLV","","671","img/land6.png","74","672.1000000014901","1","0","3","2","1,0.7,0.7,0.7,1,0.7,0.7,0.7,1","1,0.7,0.7,0.7,1,0.7,0.7,0.7,1","","",""
"","html-keyboard-response","260","152545","0.0-260.0","3DH6GAKTYZB5D7JMAHSJNJMHWG5ZYS","A2HOUSKURBF8UA","3THR0FZ95PF7SK0MYRNAOUHTWA4OLV","","null","<img src=""img/land6.png"" style=""width:200px;border:14px solid red;"">","null","","","","","","","","","",""
"","image-keyboard-response","261","152952","0.0-261.0","3DH6GAKTYZB5D7JMAHSJNJMHWG5ZYS","A2HOUSKURBF8UA","3THR0FZ95PF7SK0MYRNAOUHTWA4OLV","","404.09999999962747","img/land6.png","74","406.30000000074506","1","1","3","2","1,0.7,0.7,0.7,1,0.7,0.7,0.7,1","1,0.7,0.7,0.7,1,0.7,0.7,0.7,1","","",""
"","html-keyboard-response","262","153257","0.0-262.0","3DH6GAKTYZB5D7JMAHSJNJMHWG5ZYS","A2HOUSKURBF8UA","3THR0FZ95PF7SK0MYRNAOUHTWA4OLV","","null","<img src=""img/land6.png"" style=""width:200px; border:14px solid green;"">","null","","","","","","","","","",""
"","image-keyboard-response","263","153717","0.0-263.0","3DH6GAKTYZB5D7JMAHSJNJMHWG5ZYS","A2HOUSKURBF8UA","3THR0FZ95PF7SK0MYRNAOUHTWA4OLV","","458.5","img/land6.png","74","459.7999999988824","1","1","3","2","1,0.7,0.7,0.7,1,0.7,0.7,0.7,1","1,0.7,0.7,0.7,1,0.7,0.7,0.7,1","","",""
"","html-keyboard-response","264","154025","0.0-264.0","3DH6GAKTYZB5D7JMAHSJNJMHWG5ZYS","A2HOUSKURBF8UA","3THR0FZ95PF7SK0MYRNAOUHTWA4OLV","","null","<img src=""img/land6.png"" style=""width:200px; border:14px solid green;"">","null","","","","","","","","","",""
"","image-keyboard-response","265","154633","0.0-265.0","3DH6GAKTYZB5D7JMAHSJNJMHWG5ZYS","A2HOUSKURBF8UA","3THR0FZ95PF7SK0MYRNAOUHTWA4OLV","","606.5","img/land4.png","75","607.6000000014901","2","1","1","2","1,0.7,0.7,0.7,1,0.7,0.7,0.7,1","1,0.7,0.7,0.7,1,0.7,0.7,0.7,1","","",""
"","html-keyboard-response","266","154937","0.0-266.0","3DH6GAKTYZB5D7JMAHSJNJMHWG5ZYS","A2HOUSKURBF8UA","3THR0FZ95PF7SK0MYRNAOUHTWA4OLV","","null","<img src=""img/land4.png"" style=""width:200px; border:14px solid green;"">","null","","","","","","","","","",""
"","image-keyboard-response","267","155336","0.0-267.0","3DH6GAKTYZB5D7JMAHSJNJMHWG5ZYS","A2HOUSKURBF8UA","3THR0FZ95PF7SK0MYRNAOUHTWA4OLV","","397.6000000014901","img/land4.png","75","398.7999999988824","2","0","1","2","1,0.7,0.7,0.7,1,0.7,0.7,0.7,1","1,0.7,0.7,0.7,1,0.7,0.7,0.7,1","","",""
"","html-keyboard-response","268","155641","0.0-268.0","3DH6GAKTYZB5D7JMAHSJNJMHWG5ZYS","A2HOUSKURBF8UA","3THR0FZ95PF7SK0MYRNAOUHTWA4OLV","","null","<img src=""img/land4.png"" style=""width:200px;border:14px solid red;"">","null","","","","","","","","","",""
"","image-keyboard-response","269","156027","0.0-269.0","3DH6GAKTYZB5D7JMAHSJNJMHWG5ZYS","A2HOUSKURBF8UA","3THR0FZ95PF7SK0MYRNAOUHTWA4OLV","","385","img/land4.png","75","386.30000000074506","2","0","1","2","1,0.7,0.7,0.7,1,0.7,0.7,0.7,1","1,0.7,0.7,0.7,1,0.7,0.7,0.7,1","","",""
"","html-keyboard-response","270","156336","0.0-270.0","3DH6GAKTYZB5D7JMAHSJNJMHWG5ZYS","A2HOUSKURBF8UA","3THR0FZ95PF7SK0MYRNAOUHTWA4OLV","","null","<img src=""img/land4.png"" style=""width:200px;border:14px solid red;"">","null","","","","","","","","","",""
"","image-keyboard-response","271","156884","0.0-271.0","3DH6GAKTYZB5D7JMAHSJNJMHWG5ZYS","A2HOUSKURBF8UA","3THR0FZ95PF7SK0MYRNAOUHTWA4OLV","","545.3000000007451","img/land4.png","75","547.0999999996275","2","1","1","2","1,0.7,0.7,0.7,1,0.7,0.7,0.7,1","1,0.7,0.7,0.7,1,0.7,0.7,0.7,1","","",""
"","html-keyboard-response","272","157193","0.0-272.0","3DH6GAKTYZB5D7JMAHSJNJMHWG5ZYS","A2HOUSKURBF8UA","3THR0FZ95PF7SK0MYRNAOUHTWA4OLV","","null","<img src=""img/land4.png"" style=""width:200px; border:14px solid green;"">","null","","","","","","","","","",""
"","image-keyboard-response","273","157656","0.0-273.0","3DH6GAKTYZB5D7JMAHSJNJMHWG5ZYS","A2HOUSKURBF8UA","3THR0FZ95PF7SK0MYRNAOUHTWA4OLV","","461.40000000037253","img/land4.png","75","462.6000000014901","2","1","1","2","1,0.7,0.7,0.7,1,0.7,0.7,0.7,1","1,0.7,0.7,0.7,1,0.7,0.7,0.7,1","","",""
"","html-keyboard-response","274","157961","0.0-274.0","3DH6GAKTYZB5D7JMAHSJNJMHWG5ZYS","A2HOUSKURBF8UA","3THR0FZ95PF7SK0MYRNAOUHTWA4OLV","","null","<img src=""img/land4.png"" style=""width:200px; border:14px solid green;"">","null","","","","","","","","","",""
"","image-keyboard-response","275","158851","0.0-275.0","3DH6GAKTYZB5D7JMAHSJNJMHWG5ZYS","A2HOUSKURBF8UA","3THR0FZ95PF7SK0MYRNAOUHTWA4OLV","","888.3000000007451","img/land5.png","74","889.5","1","0","2","2","1,0.7,0.7,0.7,1,0.7,0.7,0.7,1","1,0.7,0.7,0.7,1,0.7,0.7,0.7,1","","",""
"","html-keyboard-response","276","159153","0.0-276.0","3DH6GAKTYZB5D7JMAHSJNJMHWG5ZYS","A2HOUSKURBF8UA","3THR0FZ95PF7SK0MYRNAOUHTWA4OLV","","null","<img src=""img/land5.png"" style=""width:200px;border:14px solid red;"">","null","","","","","","","","","",""
"","image-keyboard-response","277","159564","0.0-277.0","3DH6GAKTYZB5D7JMAHSJNJMHWG5ZYS","A2HOUSKURBF8UA","3THR0FZ95PF7SK0MYRNAOUHTWA4OLV","","409.5","img/land5.png","74","410.90000000037253","1","1","2","2","1,0.7,0.7,0.7,1,0.7,0.7,0.7,1","1,0.7,0.7,0.7,1,0.7,0.7,0.7,1","","",""
"","html-keyboard-response","278","159873","0.0-278.0","3DH6GAKTYZB5D7JMAHSJNJMHWG5ZYS","A2HOUSKURBF8UA","3THR0FZ95PF7SK0MYRNAOUHTWA4OLV","","null","<img src=""img/land5.png"" style=""width:200px; border:14px solid green;"">","null","","","","","","","","","",""
"","image-keyboard-response","279","160354","0.0-279.0","3DH6GAKTYZB5D7JMAHSJNJMHWG5ZYS","A2HOUSKURBF8UA","3THR0FZ95PF7SK0MYRNAOUHTWA4OLV","","479.30000000074506","img/land5.png","74","480.59999999962747","1","1","2","2","1,0.7,0.7,0.7,1,0.7,0.7,0.7,1","1,0.7,0.7,0.7,1,0.7,0.7,0.7,1","","",""
"","html-keyboard-response","280","160657","0.0-280.0","3DH6GAKTYZB5D7JMAHSJNJMHWG5ZYS","A2HOUSKURBF8UA","3THR0FZ95PF7SK0MYRNAOUHTWA4OLV","","null","<img src=""img/land5.png"" style=""width:200px; border:14px solid green;"">","null","","","","","","","","","",""
"","image-keyboard-response","281","161100","0.0-281.0","3DH6GAKTYZB5D7JMAHSJNJMHWG5ZYS","A2HOUSKURBF8UA","3THR0FZ95PF7SK0MYRNAOUHTWA4OLV","","442","img/land5.png","74","443.59999999962747","1","1","2","2","1,0.7,0.7,0.7,1,0.7,0.7,0.7,1","1,0.7,0.7,0.7,1,0.7,0.7,0.7,1","","",""
"","html-keyboard-response","282","161409","0.0-282.0","3DH6GAKTYZB5D7JMAHSJNJMHWG5ZYS","A2HOUSKURBF8UA","3THR0FZ95PF7SK0MYRNAOUHTWA4OLV","","null","<img src=""img/land5.png"" style=""width:200px; border:14px solid green;"">","null","","","","","","","","","",""
"","image-keyboard-response","283","161803","0.0-283.0","3DH6GAKTYZB5D7JMAHSJNJMHWG5ZYS","A2HOUSKURBF8UA","3THR0FZ95PF7SK0MYRNAOUHTWA4OLV","","392.40000000037253","img/land5.png","74","394.19999999925494","1","1","2","2","1,0.7,0.7,0.7,1,0.7,0.7,0.7,1","1,0.7,0.7,0.7,1,0.7,0.7,0.7,1","","",""
"","html-keyboard-response","284","162113","0.0-284.0","3DH6GAKTYZB5D7JMAHSJNJMHWG5ZYS","A2HOUSKURBF8UA","3THR0FZ95PF7SK0MYRNAOUHTWA4OLV","","null","<img src=""img/land5.png"" style=""width:200px; border:14px solid green;"">","null","","","","","","","","","",""
"","image-keyboard-response","285","162951","0.0-285.0","3DH6GAKTYZB5D7JMAHSJNJMHWG5ZYS","A2HOUSKURBF8UA","3THR0FZ95PF7SK0MYRNAOUHTWA4OLV","","836.5999999996275","img/land6.png","74","837.9000000003725","1","0","3","2","1,0.7,0.7,0.7,1,0.7,0.7,0.7,1","1,0.7,0.7,0.7,1,0.7,0.7,0.7,1","","",""
"","html-keyboard-response","286","163257","0.0-286.0","3DH6GAKTYZB5D7JMAHSJNJMHWG5ZYS","A2HOUSKURBF8UA","3THR0FZ95PF7SK0MYRNAOUHTWA4OLV","","null","<img src=""img/land6.png"" style=""width:200px;border:14px solid red;"">","null","","","","","","","","","",""
"","image-keyboard-response","287","163648","0.0-287.0","3DH6GAKTYZB5D7JMAHSJNJMHWG5ZYS","A2HOUSKURBF8UA","3THR0FZ95PF7SK0MYRNAOUHTWA4OLV","","389.5","img/land6.png","74","391.09999999962747","1","1","3","2","1,0.7,0.7,0.7,1,0.7,0.7,0.7,1","1,0.7,0.7,0.7,1,0.7,0.7,0.7,1","","",""
"","html-keyboard-response","288","163953","0.0-288.0","3DH6GAKTYZB5D7JMAHSJNJMHWG5ZYS","A2HOUSKURBF8UA","3THR0FZ95PF7SK0MYRNAOUHTWA4OLV","","null","<img src=""img/land6.png"" style=""width:200px; border:14px solid green;"">","null","","","","","","","","","",""
"","image-keyboard-response","289","164580","0.0-289.0","3DH6GAKTYZB5D7JMAHSJNJMHWG5ZYS","A2HOUSKURBF8UA","3THR0FZ95PF7SK0MYRNAOUHTWA4OLV","","625.5999999996275","img/land4.png","75","627.1000000014901","2","1","1","2","1,0.7,0.7,0.7,1,0.7,0.7,0.7,1","1,0.7,0.7,0.7,1,0.7,0.7,0.7,1","","",""
"","html-keyboard-response","290","164889","0.0-290.0","3DH6GAKTYZB5D7JMAHSJNJMHWG5ZYS","A2HOUSKURBF8UA","3THR0FZ95PF7SK0MYRNAOUHTWA4OLV","","null","<img src=""img/land4.png"" style=""width:200px; border:14px solid green;"">","null","","","","","","","","","",""
"","image-keyboard-response","291","165546","0.0-291.0","3DH6GAKTYZB5D7JMAHSJNJMHWG5ZYS","A2HOUSKURBF8UA","3THR0FZ95PF7SK0MYRNAOUHTWA4OLV","","655.5","img/land6.png","74","657.0999999996275","1","1","3","2","1,0.7,0.7,0.7,1,0.7,0.7,0.7,1","1,0.7,0.7,0.7,1,0.7,0.7,0.7,1","","",""
"","html-keyboard-response","292","165849","0.0-292.0","3DH6GAKTYZB5D7JMAHSJNJMHWG5ZYS","A2HOUSKURBF8UA","3THR0FZ95PF7SK0MYRNAOUHTWA4OLV","","null","<img src=""img/land6.png"" style=""width:200px; border:14px solid green;"">","null","","","","","","","","","",""
"","image-keyboard-response","293","166488","0.0-293.0","3DH6GAKTYZB5D7JMAHSJNJMHWG5ZYS","A2HOUSKURBF8UA","3THR0FZ95PF7SK0MYRNAOUHTWA4OLV","","637.7000000011176","img/land4.png","75","639","2","1","1","2","1,0.7,0.7,0.7,1,0.7,0.7,0.7,1","1,0.7,0.7,0.7,1,0.7,0.7,0.7,1","","",""
"","html-keyboard-response","294","166794","0.0-294.0","3DH6GAKTYZB5D7JMAHSJNJMHWG5ZYS","A2HOUSKURBF8UA","3THR0FZ95PF7SK0MYRNAOUHTWA4OLV","","null","<img src=""img/land4.png"" style=""width:200px; border:14px solid green;"">","null","","","","","","","","","",""
"","image-keyboard-response","295","167314","0.0-295.0","3DH6GAKTYZB5D7JMAHSJNJMHWG5ZYS","A2HOUSKURBF8UA","3THR0FZ95PF7SK0MYRNAOUHTWA4OLV","","518.8000000007451","img/land6.png","74","520","1","0","3","2","1,0.7,0.7,0.7,1,0.7,0.7,0.7,1","1,0.7,0.7,0.7,1,0.7,0.7,0.7,1","","",""
"","html-keyboard-response","296","167617","0.0-296.0","3DH6GAKTYZB5D7JMAHSJNJMHWG5ZYS","A2HOUSKURBF8UA","3THR0FZ95PF7SK0MYRNAOUHTWA4OLV","","null","<img src=""img/land6.png"" style=""width:200px;border:14px solid red;"">","null","","","","","","","","","",""
"","image-keyboard-response","297","168443","0.0-297.0","3DH6GAKTYZB5D7JMAHSJNJMHWG5ZYS","A2HOUSKURBF8UA","3THR0FZ95PF7SK0MYRNAOUHTWA4OLV","","824.8000000007451","img/land5.png","74","826.4000000003725","1","0","2","2","1,0.7,0.7,0.7,1,0.7,0.7,0.7,1","1,0.7,0.7,0.7,1,0.7,0.7,0.7,1","","",""
"","html-keyboard-response","298","168753","0.0-298.0","3DH6GAKTYZB5D7JMAHSJNJMHWG5ZYS","A2HOUSKURBF8UA","3THR0FZ95PF7SK0MYRNAOUHTWA4OLV","","null","<img src=""img/land5.png"" style=""width:200px;border:14px solid red;"">","null","","","","","","","","","",""
"","image-keyboard-response","299","169225","0.0-299.0","3DH6GAKTYZB5D7JMAHSJNJMHWG5ZYS","A2HOUSKURBF8UA","3THR0FZ95PF7SK0MYRNAOUHTWA4OLV","","470.80000000074506","img/land5.png","74","472.09999999962747","1","1","2","2","1,0.7,0.7,0.7,1,0.7,0.7,0.7,1","1,0.7,0.7,0.7,1,0.7,0.7,0.7,1","","",""
"","html-keyboard-response","300","169528","0.0-300.0","3DH6GAKTYZB5D7JMAHSJNJMHWG5ZYS","A2HOUSKURBF8UA","3THR0FZ95PF7SK0MYRNAOUHTWA4OLV","","null","<img src=""img/land5.png"" style=""width:200px; border:14px solid green;"">","null","","","","","","","","","",""
"","image-keyboard-response","301","170209","0.0-301.0","3DH6GAKTYZB5D7JMAHSJNJMHWG5ZYS","A2HOUSKURBF8UA","3THR0FZ95PF7SK0MYRNAOUHTWA4OLV","","679.0999999996275","img/land4.png","75","680.3000000007451","2","1","1","2","1,0.7,0.7,0.7,1,0.7,0.7,0.7,1","1,0.7,0.7,0.7,1,0.7,0.7,0.7,1","","",""
"","html-keyboard-response","302","170513","0.0-302.0","3DH6GAKTYZB5D7JMAHSJNJMHWG5ZYS","A2HOUSKURBF8UA","3THR0FZ95PF7SK0MYRNAOUHTWA4OLV","","null","<img src=""img/land4.png"" style=""width:200px; border:14px solid green;"">","null","","","","","","","","","",""
"","image-keyboard-response","303","171330","0.0-303.0","3DH6GAKTYZB5D7JMAHSJNJMHWG5ZYS","A2HOUSKURBF8UA","3THR0FZ95PF7SK0MYRNAOUHTWA4OLV","","815.8000000007451","img/land6.png","74","817.0999999996275","1","1","3","2","1,0.7,0.7,0.7,1,0.7,0.7,0.7,1","1,0.7,0.7,0.7,1,0.7,0.7,0.7,1","","",""
"","html-keyboard-response","304","171633","0.0-304.0","3DH6GAKTYZB5D7JMAHSJNJMHWG5ZYS","A2HOUSKURBF8UA","3THR0FZ95PF7SK0MYRNAOUHTWA4OLV","","null","<img src=""img/land6.png"" style=""width:200px; border:14px solid green;"">","null","","","","","","","","","",""
"","image-keyboard-response","305","172222","0.0-305.0","3DH6GAKTYZB5D7JMAHSJNJMHWG5ZYS","A2HOUSKURBF8UA","3THR0FZ95PF7SK0MYRNAOUHTWA4OLV","","588.1000000014901","img/land4.png","75","589.5","2","1","1","2","1,0.7,0.7,0.7,1,0.7,0.7,0.7,1","1,0.7,0.7,0.7,1,0.7,0.7,0.7,1","","",""
"","html-keyboard-response","306","172529","0.0-306.0","3DH6GAKTYZB5D7JMAHSJNJMHWG5ZYS","A2HOUSKURBF8UA","3THR0FZ95PF7SK0MYRNAOUHTWA4OLV","","null","<img src=""img/land4.png"" style=""width:200px; border:14px solid green;"">","null","","","","","","","","","",""
"","image-keyboard-response","307","173110","0.0-307.0","3DH6GAKTYZB5D7JMAHSJNJMHWG5ZYS","A2HOUSKURBF8UA","3THR0FZ95PF7SK0MYRNAOUHTWA4OLV","","578.9000000003725","img/land6.png","74","580.3999999985099","1","1","3","2","1,0.7,0.7,0.7,1,0.7,0.7,0.7,1","1,0.7,0.7,0.7,1,0.7,0.7,0.7,1","","",""
"","html-keyboard-response","308","173418","0.0-308.0","3DH6GAKTYZB5D7JMAHSJNJMHWG5ZYS","A2HOUSKURBF8UA","3THR0FZ95PF7SK0MYRNAOUHTWA4OLV","","null","<img src=""img/land6.png"" style=""width:200px; border:14px solid green;"">","null","","","","","","","","","",""
"","image-keyboard-response","309","173997","0.0-309.0","3DH6GAKTYZB5D7JMAHSJNJMHWG5ZYS","A2HOUSKURBF8UA","3THR0FZ95PF7SK0MYRNAOUHTWA4OLV","","576.9000000003725","img/land4.png","75","578","2","1","1","2","1,0.7,0.7,0.7,1,0.7,0.7,0.7,1","1,0.7,0.7,0.7,1,0.7,0.7,0.7,1","","",""
"","html-keyboard-response","310","174305","0.0-310.0","3DH6GAKTYZB5D7JMAHSJNJMHWG5ZYS","A2HOUSKURBF8UA","3THR0FZ95PF7SK0MYRNAOUHTWA4OLV","","null","<img src=""img/land4.png"" style=""width:200px; border:14px solid green;"">","null","","","","","","","","","",""
"","image-keyboard-response","311","174834","0.0-311.0","3DH6GAKTYZB5D7JMAHSJNJMHWG5ZYS","A2HOUSKURBF8UA","3THR0FZ95PF7SK0MYRNAOUHTWA4OLV","","527.7000000011176","img/land6.png","74","529.0999999996275","1","0","3","2","1,0.7,0.7,0.7,1,0.7,0.7,0.7,1","1,0.7,0.7,0.7,1,0.7,0.7,0.7,1","","",""
"","html-keyboard-response","312","175137","0.0-312.0","3DH6GAKTYZB5D7JMAHSJNJMHWG5ZYS","A2HOUSKURBF8UA","3THR0FZ95PF7SK0MYRNAOUHTWA4OLV","","null","<img src=""img/land6.png"" style=""width:200px;border:14px solid red;"">","null","","","","","","","","","",""
"","image-keyboard-response","313","175966","0.0-313.0","3DH6GAKTYZB5D7JMAHSJNJMHWG5ZYS","A2HOUSKURBF8UA","3THR0FZ95PF7SK0MYRNAOUHTWA4OLV","","825.2999999988824","img/land5.png","74","829.5","1","1","2","2","1,0.7,0.7,0.7,1,0.7,0.7,0.7,1","1,0.7,0.7,0.7,1,0.7,0.7,0.7,1","","",""
"","html-keyboard-response","314","176273","0.0-314.0","3DH6GAKTYZB5D7JMAHSJNJMHWG5ZYS","A2HOUSKURBF8UA","3THR0FZ95PF7SK0MYRNAOUHTWA4OLV","","null","<img src=""img/land5.png"" style=""width:200px; border:14px solid green;"">","null","","","","","","","","","",""
"","image-keyboard-response","315","176903","0.0-315.0","3DH6GAKTYZB5D7JMAHSJNJMHWG5ZYS","A2HOUSKURBF8UA","3THR0FZ95PF7SK0MYRNAOUHTWA4OLV","","627.7000000011176","img/land4.png","75","630.0999999996275","2","0","1","2","1,0.7,0.7,0.7,1,0.7,0.7,0.7,1","1,0.7,0.7,0.7,1,0.7,0.7,0.7,1","","",""
"","html-keyboard-response","316","177209","0.0-316.0","3DH6GAKTYZB5D7JMAHSJNJMHWG5ZYS","A2HOUSKURBF8UA","3THR0FZ95PF7SK0MYRNAOUHTWA4OLV","","null","<img src=""img/land4.png"" style=""width:200px;border:14px solid red;"">","null","","","","","","","","","",""
"","image-keyboard-response","317","178022","0.0-317.0","3DH6GAKTYZB5D7JMAHSJNJMHWG5ZYS","A2HOUSKURBF8UA","3THR0FZ95PF7SK0MYRNAOUHTWA4OLV","","811.7999999988824","img/land5.png","74","813.4000000003725","1","1","2","2","1,0.7,0.7,0.7,1,0.7,0.7,0.7,1","1,0.7,0.7,0.7,1,0.7,0.7,0.7,1","","",""
"","html-keyboard-response","318","178328","0.0-318.0","3DH6GAKTYZB5D7JMAHSJNJMHWG5ZYS","A2HOUSKURBF8UA","3THR0FZ95PF7SK0MYRNAOUHTWA4OLV","","null","<img src=""img/land5.png"" style=""width:200px; border:14px solid green;"">","null","","","","","","","","","",""
"","image-keyboard-response","319","178716","0.0-319.0","3DH6GAKTYZB5D7JMAHSJNJMHWG5ZYS","A2HOUSKURBF8UA","3THR0FZ95PF7SK0MYRNAOUHTWA4OLV","","385.69999999925494","img/land5.png","74","387.5","1","1","2","2","1,0.7,0.7,0.7,1,0.7,0.7,0.7,1","1,0.7,0.7,0.7,1,0.7,0.7,0.7,1","","",""
"","html-keyboard-response","320","179025","0.0-320.0","3DH6GAKTYZB5D7JMAHSJNJMHWG5ZYS","A2HOUSKURBF8UA","3THR0FZ95PF7SK0MYRNAOUHTWA4OLV","","null","<img src=""img/land5.png"" style=""width:200px; border:14px solid green;"">","null","","","","","","","","","",""
"","image-keyboard-response","321","179441","0.0-321.0","3DH6GAKTYZB5D7JMAHSJNJMHWG5ZYS","A2HOUSKURBF8UA","3THR0FZ95PF7SK0MYRNAOUHTWA4OLV","","414.80000000074506","img/land5.png","74","416.1000000014901","1","1","2","2","1,0.7,0.7,0.7,1,0.7,0.7,0.7,1","1,0.7,0.7,0.7,1,0.7,0.7,0.7,1","","",""
"","html-keyboard-response","322","179745","0.0-322.0","3DH6GAKTYZB5D7JMAHSJNJMHWG5ZYS","A2HOUSKURBF8UA","3THR0FZ95PF7SK0MYRNAOUHTWA4OLV","","null","<img src=""img/land5.png"" style=""width:200px; border:14px solid green;"">","null","","","","","","","","","",""
"","image-keyboard-response","323","180169","0.0-323.0","3DH6GAKTYZB5D7JMAHSJNJMHWG5ZYS","A2HOUSKURBF8UA","3THR0FZ95PF7SK0MYRNAOUHTWA4OLV","","422.5","img/land5.png","74","423.80000000074506","1","0","2","2","1,0.7,0.7,0.7,1,0.7,0.7,0.7,1","1,0.7,0.7,0.7,1,0.7,0.7,0.7,1","","",""
"","html-keyboard-response","324","180472","0.0-324.0","3DH6GAKTYZB5D7JMAHSJNJMHWG5ZYS","A2HOUSKURBF8UA","3THR0FZ95PF7SK0MYRNAOUHTWA4OLV","","null","<img src=""img/land5.png"" style=""width:200px;border:14px solid red;"">","null","","","","","","","","","",""
"","image-keyboard-response","325","181303","0.0-325.0","3DH6GAKTYZB5D7JMAHSJNJMHWG5ZYS","A2HOUSKURBF8UA","3THR0FZ95PF7SK0MYRNAOUHTWA4OLV","","829.1999999992549","img/land6.png","74","830.5999999996275","1","0","3","2","1,0.7,0.7,0.7,1,0.7,0.7,0.7,1","1,0.7,0.7,0.7,1,0.7,0.7,0.7,1","","",""
"","html-keyboard-response","326","181609","0.0-326.0","3DH6GAKTYZB5D7JMAHSJNJMHWG5ZYS","A2HOUSKURBF8UA","3THR0FZ95PF7SK0MYRNAOUHTWA4OLV","","null","<img src=""img/land6.png"" style=""width:200px;border:14px solid red;"">","null","","","","","","","","","",""
"","image-keyboard-response","327","182533","0.0-327.0","3DH6GAKTYZB5D7JMAHSJNJMHWG5ZYS","A2HOUSKURBF8UA","3THR0FZ95PF7SK0MYRNAOUHTWA4OLV","","920.9000000003725","img/land4.png","75","923.5","2","0","1","2","1,0.7,0.7,0.7,1,0.7,0.7,0.7,1","1,0.7,0.7,0.7,1,0.7,0.7,0.7,1","","",""
"","html-keyboard-response","328","182841","0.0-328.0","3DH6GAKTYZB5D7JMAHSJNJMHWG5ZYS","A2HOUSKURBF8UA","3THR0FZ95PF7SK0MYRNAOUHTWA4OLV","","null","<img src=""img/land4.png"" style=""width:200px;border:14px solid red;"">","null","","","","","","","","","",""
"","image-keyboard-response","329","183592","0.0-329.0","3DH6GAKTYZB5D7JMAHSJNJMHWG5ZYS","A2HOUSKURBF8UA","3THR0FZ95PF7SK0MYRNAOUHTWA4OLV","","749.8000000007451","img/land5.png","74","750.9000000003725","1","0","2","2","1,0.7,0.7,0.7,1,0.7,0.7,0.7,1","1,0.7,0.7,0.7,1,0.7,0.7,0.7,1","","",""
"","html-keyboard-response","330","183897","0.0-330.0","3DH6GAKTYZB5D7JMAHSJNJMHWG5ZYS","A2HOUSKURBF8UA","3THR0FZ95PF7SK0MYRNAOUHTWA4OLV","","null","<img src=""img/land5.png"" style=""width:200px;border:14px solid red;"">","null","","","","","","","","","",""
"","image-keyboard-response","331","184720","0.0-331.0","3DH6GAKTYZB5D7JMAHSJNJMHWG5ZYS","A2HOUSKURBF8UA","3THR0FZ95PF7SK0MYRNAOUHTWA4OLV","","822.4000000003725","img/land6.png","74","823.9000000003725","1","1","3","2","1,0.7,0.7,0.7,1,0.7,0.7,0.7,1","1,0.7,0.7,0.7,1,0.7,0.7,0.7,1","","",""
"","html-keyboard-response","332","185025","0.0-332.0","3DH6GAKTYZB5D7JMAHSJNJMHWG5ZYS","A2HOUSKURBF8UA","3THR0FZ95PF7SK0MYRNAOUHTWA4OLV","","null","<img src=""img/land6.png"" style=""width:200px; border:14px solid green;"">","null","","","","","","","","","",""
"","image-keyboard-response","333","185545","0.0-333.0","3DH6GAKTYZB5D7JMAHSJNJMHWG5ZYS","A2HOUSKURBF8UA","3THR0FZ95PF7SK0MYRNAOUHTWA4OLV","","518.8000000007451","img/land6.png","74","519.9000000003725","1","1","3","2","1,0.7,0.7,0.7,1,0.7,0.7,0.7,1","1,0.7,0.7,0.7,1,0.7,0.7,0.7,1","","",""
"","html-keyboard-response","334","185849","0.0-334.0","3DH6GAKTYZB5D7JMAHSJNJMHWG5ZYS","A2HOUSKURBF8UA","3THR0FZ95PF7SK0MYRNAOUHTWA4OLV","","null","<img src=""img/land6.png"" style=""width:200px; border:14px solid green;"">","null","","","","","","","","","",""
"","image-keyboard-response","335","186293","0.0-335.0","3DH6GAKTYZB5D7JMAHSJNJMHWG5ZYS","A2HOUSKURBF8UA","3THR0FZ95PF7SK0MYRNAOUHTWA4OLV","","442.80000000074506","img/land4.png","75","444.2000000011176","2","1","1","2","1,0.7,0.7,0.7,1,0.7,0.7,0.7,1","1,0.7,0.7,0.7,1,0.7,0.7,0.7,1","","",""
"","html-keyboard-response","336","186601","0.0-336.0","3DH6GAKTYZB5D7JMAHSJNJMHWG5ZYS","A2HOUSKURBF8UA","3THR0FZ95PF7SK0MYRNAOUHTWA4OLV","","null","<img src=""img/land4.png"" style=""width:200px; border:14px solid green;"">","null","","","","","","","","","",""
"","image-keyboard-response","337","187081","0.0-337.0","3DH6GAKTYZB5D7JMAHSJNJMHWG5ZYS","A2HOUSKURBF8UA","3THR0FZ95PF7SK0MYRNAOUHTWA4OLV","","478.40000000037253","img/land6.png","74","479.80000000074506","1","1","3","2","1,0.7,0.7,0.7,1,0.7,0.7,0.7,1","1,0.7,0.7,0.7,1,0.7,0.7,0.7,1","","",""
"","html-keyboard-response","338","187385","0.0-338.0","3DH6GAKTYZB5D7JMAHSJNJMHWG5ZYS","A2HOUSKURBF8UA","3THR0FZ95PF7SK0MYRNAOUHTWA4OLV","","null","<img src=""img/land6.png"" style=""width:200px; border:14px solid green;"">","null","","","","","","","","","",""
"","instructions","339","193704","0.0-339.0","3DH6GAKTYZB5D7JMAHSJNJMHWG5ZYS","A2HOUSKURBF8UA","3THR0FZ95PF7SK0MYRNAOUHTWA4OLV","[{""page_index"":0,""viewing_time"":6317.9000000003725}]","6318.4000000003725","","","","","","","","","","","",""
"","survey-text","340","198649","0.0-340.0-0.0","3DH6GAKTYZB5D7JMAHSJNJMHWG5ZYS","A2HOUSKURBF8UA","3THR0FZ95PF7SK0MYRNAOUHTWA4OLV","","4936.199999999255","","","","","","","","","","","{""Q0"":""48""}",""
"","survey-multi-choice","341","201926","0.0-340.0-1.0","3DH6GAKTYZB5D7JMAHSJNJMHWG5ZYS","A2HOUSKURBF8UA","3THR0FZ95PF7SK0MYRNAOUHTWA4OLV","","3273.0999999996275","","","","","","","","","","","{""gender"":""M""}","[0]"
"","survey-text","342","209476","0.0-341.0","3DH6GAKTYZB5D7JMAHSJNJMHWG5ZYS","A2HOUSKURBF8UA","3THR0FZ95PF7SK0MYRNAOUHTWA4OLV","","7531.4000000003725","","","","","","","","","","","{""Q0"":""A2HOUSKURBF8UA""}",""
