"success","trial_type","trial_index","time_elapsed","internal_node_id","assignmentID","mturkID","hitID","view_history","rt","stimulus","key_press","reactionTime","a","r","s","cond","reward_cond","reward_cond_actual","reward_matrix_idx","responses","question_order"
"true","fullscreen","0","2924","0.0-0.0","3BEFOD78W7FPGT6J6LEIZSM1N894MB","A2IQ0QCTQ3KWLT","3I7KR83SNAZT1REYB2SRC49PCEEK9H","","","","","","","","","","","","","",""
"","instructions","1","64915","0.0-1.0","3BEFOD78W7FPGT6J6LEIZSM1N894MB","A2IQ0QCTQ3KWLT","3I7KR83SNAZT1REYB2SRC49PCEEK9H","[{""page_index"":0,""viewing_time"":39880.799999999814},{""page_index"":1,""viewing_time"":4096},{""page_index"":2,""viewing_time"":3533.2000000001863},{""page_index"":3,""viewing_time"":4117.899999999441},{""page_index"":4,""viewing_time"":3330.2000000001863},{""page_index"":5,""viewing_time"":3914.7999999998137},{""page_index"":6,""viewing_time"":3117.100000000559}]","61990.59999999963","","","","","","","","","","","",""
"","image-keyboard-response","2","66088","0.0-2.0","3BEFOD78W7FPGT6J6LEIZSM1N894MB","A2IQ0QCTQ3KWLT","3I7KR83SNAZT1REYB2SRC49PCEEK9H","","1172.0999999996275","img/land5.png","74","1173.2999999998137","1","0","2","2","0.8,0.2,0.2,0.2,0.8,0.2,0.2,0.2,0.8","0.8,0.2,0.2,0.2,0.8,0.2,0.2,0.2,0.8","1","",""
"","html-keyboard-response","3","66395","0.0-3.0","3BEFOD78W7FPGT6J6LEIZSM1N894MB","A2IQ0QCTQ3KWLT","3I7KR83SNAZT1REYB2SRC49PCEEK9H","","null","<img src=""img/land5.png"" style=""width:200px;border:14px solid red;"">","null","","","","","","","","","",""
"","image-keyboard-response","4","67016","0.0-4.0","3BEFOD78W7FPGT6J6LEIZSM1N894MB","A2IQ0QCTQ3KWLT","3I7KR83SNAZT1REYB2SRC49PCEEK9H","","620","img/land2.png","75","621","2","0","1","2","0.8,0.2,0.2,0.2,0.8,0.2,0.2,0.2,0.8","0.8,0.2,0.2,0.2,0.8,0.2,0.2,0.2,0.8","1","",""
"","html-keyboard-response","5","67317","0.0-5.0","3BEFOD78W7FPGT6J6LEIZSM1N894MB","A2IQ0QCTQ3KWLT","3I7KR83SNAZT1REYB2SRC49PCEEK9H","","null","<img src=""img/land2.png"" style=""width:200px;border:14px solid red;"">","null","","","","","","","","","",""
"","image-keyboard-response","6","68136","0.0-6.0","3BEFOD78W7FPGT6J6LEIZSM1N894MB","A2IQ0QCTQ3KWLT","3I7KR83SNAZT1REYB2SRC49PCEEK9H","","817.2999999998137","img/land2.png","76","818.1000000005588","3","0","1","2","0.8,0.2,0.2,0.2,0.8,0.2,0.2,0.2,0.8","0.8,0.2,0.2,0.2,0.8,0.2,0.2,0.2,0.8","1","",""
"","html-keyboard-response","7","68438","0.0-7.0","3BEFOD78W7FPGT6J6LEIZSM1N894MB","A2IQ0QCTQ3KWLT","3I7KR83SNAZT1REYB2SRC49PCEEK9H","","null","<img src=""img/land2.png"" style=""width:200px;border:14px solid red;"">","null","","","","","","","","","",""
"","image-keyboard-response","8","68864","0.0-8.0","3BEFOD78W7FPGT6J6LEIZSM1N894MB","A2IQ0QCTQ3KWLT","3I7KR83SNAZT1REYB2SRC49PCEEK9H","","424.59999999962747","img/land2.png","76","425.5","3","0","1","2","0.8,0.2,0.2,0.2,0.8,0.2,0.2,0.2,0.8","0.8,0.2,0.2,0.2,0.8,0.2,0.2,0.2,0.8","1","",""
"","html-keyboard-response","9","69165","0.0-9.0","3BEFOD78W7FPGT6J6LEIZSM1N894MB","A2IQ0QCTQ3KWLT","3I7KR83SNAZT1REYB2SRC49PCEEK9H","","null","<img src=""img/land2.png"" style=""width:200px;border:14px solid red;"">","null","","","","","","","","","",""
"","image-keyboard-response","10","70832","0.0-10.0","3BEFOD78W7FPGT6J6LEIZSM1N894MB","A2IQ0QCTQ3KWLT","3I7KR83SNAZT1REYB2SRC49PCEEK9H","","1665.7000000001863","img/land2.png","74","1666.5999999996275","1","1","1","2","0.8,0.2,0.2,0.2,0.8,0.2,0.2,0.2,0.8","0.8,0.2,0.2,0.2,0.8,0.2,0.2,0.2,0.8","1","",""
"","html-keyboard-response","11","71137","0.0-11.0","3BEFOD78W7FPGT6J6LEIZSM1N894MB","A2IQ0QCTQ3KWLT","3I7KR83SNAZT1REYB2SRC49PCEEK9H","","null","<img src=""img/land2.png"" style=""width:200px; border:14px solid green;"">","null","","","","","","","","","",""
"","image-keyboard-response","12","71544","0.0-12.0","3BEFOD78W7FPGT6J6LEIZSM1N894MB","A2IQ0QCTQ3KWLT","3I7KR83SNAZT1REYB2SRC49PCEEK9H","","405.70000000018626","img/land2.png","74","406.5","1","1","1","2","0.8,0.2,0.2,0.2,0.8,0.2,0.2,0.2,0.8","0.8,0.2,0.2,0.2,0.8,0.2,0.2,0.2,0.8","1","",""
"","html-keyboard-response","13","71846","0.0-13.0","3BEFOD78W7FPGT6J6LEIZSM1N894MB","A2IQ0QCTQ3KWLT","3I7KR83SNAZT1REYB2SRC49PCEEK9H","","null","<img src=""img/land2.png"" style=""width:200px; border:14px solid green;"">","null","","","","","","","","","",""
"","image-keyboard-response","14","72279","0.0-14.0","3BEFOD78W7FPGT6J6LEIZSM1N894MB","A2IQ0QCTQ3KWLT","3I7KR83SNAZT1REYB2SRC49PCEEK9H","","431.59999999962747","img/land2.png","74","432.3999999994412","1","0","1","2","0.8,0.2,0.2,0.2,0.8,0.2,0.2,0.2,0.8","0.8,0.2,0.2,0.2,0.8,0.2,0.2,0.2,0.8","1","",""
"","html-keyboard-response","15","72582","0.0-15.0","3BEFOD78W7FPGT6J6LEIZSM1N894MB","A2IQ0QCTQ3KWLT","3I7KR83SNAZT1REYB2SRC49PCEEK9H","","null","<img src=""img/land2.png"" style=""width:200px;border:14px solid red;"">","null","","","","","","","","","",""
"","image-keyboard-response","16","73000","0.0-16.0","3BEFOD78W7FPGT6J6LEIZSM1N894MB","A2IQ0QCTQ3KWLT","3I7KR83SNAZT1REYB2SRC49PCEEK9H","","416.70000000018626","img/land2.png","74","417.59999999962747","1","1","1","2","0.8,0.2,0.2,0.2,0.8,0.2,0.2,0.2,0.8","0.8,0.2,0.2,0.2,0.8,0.2,0.2,0.2,0.8","1","",""
"","html-keyboard-response","17","73302","0.0-17.0","3BEFOD78W7FPGT6J6LEIZSM1N894MB","A2IQ0QCTQ3KWLT","3I7KR83SNAZT1REYB2SRC49PCEEK9H","","null","<img src=""img/land2.png"" style=""width:200px; border:14px solid green;"">","null","","","","","","","","","",""
"","image-keyboard-response","18","73679","0.0-18.0","3BEFOD78W7FPGT6J6LEIZSM1N894MB","A2IQ0QCTQ3KWLT","3I7KR83SNAZT1REYB2SRC49PCEEK9H","","376.20000000018626","img/land2.png","74","377.1000000005588","1","1","1","2","0.8,0.2,0.2,0.2,0.8,0.2,0.2,0.2,0.8","0.8,0.2,0.2,0.2,0.8,0.2,0.2,0.2,0.8","1","",""
"","html-keyboard-response","19","73982","0.0-19.0","3BEFOD78W7FPGT6J6LEIZSM1N894MB","A2IQ0QCTQ3KWLT","3I7KR83SNAZT1REYB2SRC49PCEEK9H","","null","<img src=""img/land2.png"" style=""width:200px; border:14px solid green;"">","null","","","","","","","","","",""
"","image-keyboard-response","20","74518","0.0-20.0","3BEFOD78W7FPGT6J6LEIZSM1N894MB","A2IQ0QCTQ3KWLT","3I7KR83SNAZT1REYB2SRC49PCEEK9H","","535","img/land5.png","75","535.7999999998137","2","1","2","2","0.8,0.2,0.2,0.2,0.8,0.2,0.2,0.2,0.8","0.8,0.2,0.2,0.2,0.8,0.2,0.2,0.2,0.8","1","",""
"","html-keyboard-response","21","74823","0.0-21.0","3BEFOD78W7FPGT6J6LEIZSM1N894MB","A2IQ0QCTQ3KWLT","3I7KR83SNAZT1REYB2SRC49PCEEK9H","","null","<img src=""img/land5.png"" style=""width:200px; border:14px solid green;"">","null","","","","","","","","","",""
"","image-keyboard-response","22","75512","0.0-22.0","3BEFOD78W7FPGT6J6LEIZSM1N894MB","A2IQ0QCTQ3KWLT","3I7KR83SNAZT1REYB2SRC49PCEEK9H","","688","img/land4.png","76","688.8000000007451","3","1","3","2","0.8,0.2,0.2,0.2,0.8,0.2,0.2,0.2,0.8","0.8,0.2,0.2,0.2,0.8,0.2,0.2,0.2,0.8","1","",""
"","html-keyboard-response","23","75816","0.0-23.0","3BEFOD78W7FPGT6J6LEIZSM1N894MB","A2IQ0QCTQ3KWLT","3I7KR83SNAZT1REYB2SRC49PCEEK9H","","null","<img src=""img/land4.png"" style=""width:200px; border:14px solid green;"">","null","","","","","","","","","",""
"","image-keyboard-response","24","76407","0.0-24.0","3BEFOD78W7FPGT6J6LEIZSM1N894MB","A2IQ0QCTQ3KWLT","3I7KR83SNAZT1REYB2SRC49PCEEK9H","","590.0999999996275","img/land2.png","74","590.9000000003725","1","1","1","2","0.8,0.2,0.2,0.2,0.8,0.2,0.2,0.2,0.8","0.8,0.2,0.2,0.2,0.8,0.2,0.2,0.2,0.8","1","",""
"","html-keyboard-response","25","76709","0.0-25.0","3BEFOD78W7FPGT6J6LEIZSM1N894MB","A2IQ0QCTQ3KWLT","3I7KR83SNAZT1REYB2SRC49PCEEK9H","","null","<img src=""img/land2.png"" style=""width:200px; border:14px solid green;"">","null","","","","","","","","","",""
"","image-keyboard-response","26","77128","0.0-26.0","3BEFOD78W7FPGT6J6LEIZSM1N894MB","A2IQ0QCTQ3KWLT","3I7KR83SNAZT1REYB2SRC49PCEEK9H","","417.90000000037253","img/land2.png","74","418.5","1","1","1","2","0.8,0.2,0.2,0.2,0.8,0.2,0.2,0.2,0.8","0.8,0.2,0.2,0.2,0.8,0.2,0.2,0.2,0.8","1","",""
"","html-keyboard-response","27","77429","0.0-27.0","3BEFOD78W7FPGT6J6LEIZSM1N894MB","A2IQ0QCTQ3KWLT","3I7KR83SNAZT1REYB2SRC49PCEEK9H","","null","<img src=""img/land2.png"" style=""width:200px; border:14px solid green;"">","null","","","","","","","","","",""
"","image-keyboard-response","28","78015","0.0-28.0","3BEFOD78W7FPGT6J6LEIZSM1N894MB","A2IQ0QCTQ3KWLT","3I7KR83SNAZT1REYB2SRC49PCEEK9H","","585","img/land4.png","76","585.9000000003725","3","1","3","2","0.8,0.2,0.2,0.2,0.8,0.2,0.2,0.2,0.8","0.8,0.2,0.2,0.2,0.8,0.2,0.2,0.2,0.8","1","",""
"","html-keyboard-response","29","78321","0.0-29.0","3BEFOD78W7FPGT6J6LEIZSM1N894MB","A2IQ0QCTQ3KWLT","3I7KR83SNAZT1REYB2SRC49PCEEK9H","","null","<img src=""img/land4.png"" style=""width:200px; border:14px solid green;"">","null","","","","","","","","","",""
"","image-keyboard-response","30","78791","0.0-30.0","3BEFOD78W7FPGT6J6LEIZSM1N894MB","A2IQ0QCTQ3KWLT","3I7KR83SNAZT1REYB2SRC49PCEEK9H","","469.70000000018626","img/land2.png","76","470.30000000074506","3","1","1","2","0.8,0.2,0.2,0.2,0.8,0.2,0.2,0.2,0.8","0.8,0.2,0.2,0.2,0.8,0.2,0.2,0.2,0.8","1","",""
"","html-keyboard-response","31","79097","0.0-31.0","3BEFOD78W7FPGT6J6LEIZSM1N894MB","A2IQ0QCTQ3KWLT","3I7KR83SNAZT1REYB2SRC49PCEEK9H","","null","<img src=""img/land2.png"" style=""width:200px; border:14px solid green;"">","null","","","","","","","","","",""
"","image-keyboard-response","32","79567","0.0-32.0","3BEFOD78W7FPGT6J6LEIZSM1N894MB","A2IQ0QCTQ3KWLT","3I7KR83SNAZT1REYB2SRC49PCEEK9H","","469.3999999994412","img/land2.png","76","470.20000000018626","3","0","1","2","0.8,0.2,0.2,0.2,0.8,0.2,0.2,0.2,0.8","0.8,0.2,0.2,0.2,0.8,0.2,0.2,0.2,0.8","1","",""
"","html-keyboard-response","33","79869","0.0-33.0","3BEFOD78W7FPGT6J6LEIZSM1N894MB","A2IQ0QCTQ3KWLT","3I7KR83SNAZT1REYB2SRC49PCEEK9H","","null","<img src=""img/land2.png"" style=""width:200px;border:14px solid red;"">","null","","","","","","","","","",""
"","image-keyboard-response","34","80512","0.0-34.0","3BEFOD78W7FPGT6J6LEIZSM1N894MB","A2IQ0QCTQ3KWLT","3I7KR83SNAZT1REYB2SRC49PCEEK9H","","642.0999999996275","img/land2.png","74","642.8000000007451","1","0","1","2","0.8,0.2,0.2,0.2,0.8,0.2,0.2,0.2,0.8","0.8,0.2,0.2,0.2,0.8,0.2,0.2,0.2,0.8","1","",""
"","html-keyboard-response","35","80818","0.0-35.0","3BEFOD78W7FPGT6J6LEIZSM1N894MB","A2IQ0QCTQ3KWLT","3I7KR83SNAZT1REYB2SRC49PCEEK9H","","null","<img src=""img/land2.png"" style=""width:200px;border:14px solid red;"">","null","","","","","","","","","",""
"","image-keyboard-response","36","81735","0.0-36.0","3BEFOD78W7FPGT6J6LEIZSM1N894MB","A2IQ0QCTQ3KWLT","3I7KR83SNAZT1REYB2SRC49PCEEK9H","","916.4000000003725","img/land4.png","76","917.2999999998137","3","1","3","2","0.8,0.2,0.2,0.2,0.8,0.2,0.2,0.2,0.8","0.8,0.2,0.2,0.2,0.8,0.2,0.2,0.2,0.8","1","",""
"","html-keyboard-response","37","82040","0.0-37.0","3BEFOD78W7FPGT6J6LEIZSM1N894MB","A2IQ0QCTQ3KWLT","3I7KR83SNAZT1REYB2SRC49PCEEK9H","","null","<img src=""img/land4.png"" style=""width:200px; border:14px solid green;"">","null","","","","","","","","","",""
"","image-keyboard-response","38","82783","0.0-38.0","3BEFOD78W7FPGT6J6LEIZSM1N894MB","A2IQ0QCTQ3KWLT","3I7KR83SNAZT1REYB2SRC49PCEEK9H","","742.7999999998137","img/land2.png","74","743.5","1","1","1","2","0.8,0.2,0.2,0.2,0.8,0.2,0.2,0.2,0.8","0.8,0.2,0.2,0.2,0.8,0.2,0.2,0.2,0.8","1","",""
"","html-keyboard-response","39","83085","0.0-39.0","3BEFOD78W7FPGT6J6LEIZSM1N894MB","A2IQ0QCTQ3KWLT","3I7KR83SNAZT1REYB2SRC49PCEEK9H","","null","<img src=""img/land2.png"" style=""width:200px; border:14px solid green;"">","null","","","","","","","","","",""
"","image-keyboard-response","40","83487","0.0-40.0","3BEFOD78W7FPGT6J6LEIZSM1N894MB","A2IQ0QCTQ3KWLT","3I7KR83SNAZT1REYB2SRC49PCEEK9H","","401","img/land2.png","74","401.90000000037253","1","1","1","2","0.8,0.2,0.2,0.2,0.8,0.2,0.2,0.2,0.8","0.8,0.2,0.2,0.2,0.8,0.2,0.2,0.2,0.8","1","",""
"","html-keyboard-response","41","83792","0.0-41.0","3BEFOD78W7FPGT6J6LEIZSM1N894MB","A2IQ0QCTQ3KWLT","3I7KR83SNAZT1REYB2SRC49PCEEK9H","","null","<img src=""img/land2.png"" style=""width:200px; border:14px solid green;"">","null","","","","","","","","","",""
"","image-keyboard-response","42","84254","0.0-42.0","3BEFOD78W7FPGT6J6LEIZSM1N894MB","A2IQ0QCTQ3KWLT","3I7KR83SNAZT1REYB2SRC49PCEEK9H","","461.3999999994412","img/land5.png","75","462.20000000018626","2","1","2","2","0.8,0.2,0.2,0.2,0.8,0.2,0.2,0.2,0.8","0.8,0.2,0.2,0.2,0.8,0.2,0.2,0.2,0.8","1","",""
"","html-keyboard-response","43","84558","0.0-43.0","3BEFOD78W7FPGT6J6LEIZSM1N894MB","A2IQ0QCTQ3KWLT","3I7KR83SNAZT1REYB2SRC49PCEEK9H","","null","<img src=""img/land5.png"" style=""width:200px; border:14px solid green;"">","null","","","","","","","","","",""
"","image-keyboard-response","44","85207","0.0-44.0","3BEFOD78W7FPGT6J6LEIZSM1N894MB","A2IQ0QCTQ3KWLT","3I7KR83SNAZT1REYB2SRC49PCEEK9H","","648.3000000007451","img/land2.png","74","649.0999999996275","1","1","1","2","0.8,0.2,0.2,0.2,0.8,0.2,0.2,0.2,0.8","0.8,0.2,0.2,0.2,0.8,0.2,0.2,0.2,0.8","1","",""
"","html-keyboard-response","45","85513","0.0-45.0","3BEFOD78W7FPGT6J6LEIZSM1N894MB","A2IQ0QCTQ3KWLT","3I7KR83SNAZT1REYB2SRC49PCEEK9H","","null","<img src=""img/land2.png"" style=""width:200px; border:14px solid green;"">","null","","","","","","","","","",""
"","image-keyboard-response","46","86176","0.0-46.0","3BEFOD78W7FPGT6J6LEIZSM1N894MB","A2IQ0QCTQ3KWLT","3I7KR83SNAZT1REYB2SRC49PCEEK9H","","661.9000000003725","img/land4.png","75","662.7000000001863","2","0","3","2","0.8,0.2,0.2,0.2,0.8,0.2,0.2,0.2,0.8","0.8,0.2,0.2,0.2,0.8,0.2,0.2,0.2,0.8","1","",""
"","html-keyboard-response","47","86477","0.0-47.0","3BEFOD78W7FPGT6J6LEIZSM1N894MB","A2IQ0QCTQ3KWLT","3I7KR83SNAZT1REYB2SRC49PCEEK9H","","null","<img src=""img/land4.png"" style=""width:200px;border:14px solid red;"">","null","","","","","","","","","",""
"","image-keyboard-response","48","87023","0.0-48.0","3BEFOD78W7FPGT6J6LEIZSM1N894MB","A2IQ0QCTQ3KWLT","3I7KR83SNAZT1REYB2SRC49PCEEK9H","","544.9000000003725","img/land4.png","74","545.7000000001863","1","0","3","2","0.8,0.2,0.2,0.2,0.8,0.2,0.2,0.2,0.8","0.8,0.2,0.2,0.2,0.8,0.2,0.2,0.2,0.8","1","",""
"","html-keyboard-response","49","87325","0.0-49.0","3BEFOD78W7FPGT6J6LEIZSM1N894MB","A2IQ0QCTQ3KWLT","3I7KR83SNAZT1REYB2SRC49PCEEK9H","","null","<img src=""img/land4.png"" style=""width:200px;border:14px solid red;"">","null","","","","","","","","","",""
"","image-keyboard-response","50","87975","0.0-50.0","3BEFOD78W7FPGT6J6LEIZSM1N894MB","A2IQ0QCTQ3KWLT","3I7KR83SNAZT1REYB2SRC49PCEEK9H","","649.4000000003725","img/land2.png","74","650","1","1","1","2","0.8,0.2,0.2,0.2,0.8,0.2,0.2,0.2,0.8","0.8,0.2,0.2,0.2,0.8,0.2,0.2,0.2,0.8","1","",""
"","html-keyboard-response","51","88278","0.0-51.0","3BEFOD78W7FPGT6J6LEIZSM1N894MB","A2IQ0QCTQ3KWLT","3I7KR83SNAZT1REYB2SRC49PCEEK9H","","null","<img src=""img/land2.png"" style=""width:200px; border:14px solid green;"">","null","","","","","","","","","",""
"","image-keyboard-response","52","88671","0.0-52.0","3BEFOD78W7FPGT6J6LEIZSM1N894MB","A2IQ0QCTQ3KWLT","3I7KR83SNAZT1REYB2SRC49PCEEK9H","","392.29999999981374","img/land2.png","74","394.5","1","0","1","2","0.8,0.2,0.2,0.2,0.8,0.2,0.2,0.2,0.8","0.8,0.2,0.2,0.2,0.8,0.2,0.2,0.2,0.8","1","",""
"","html-keyboard-response","53","88975","0.0-53.0","3BEFOD78W7FPGT6J6LEIZSM1N894MB","A2IQ0QCTQ3KWLT","3I7KR83SNAZT1REYB2SRC49PCEEK9H","","null","<img src=""img/land2.png"" style=""width:200px;border:14px solid red;"">","null","","","","","","","","","",""
"","image-keyboard-response","54","89519","0.0-54.0","3BEFOD78W7FPGT6J6LEIZSM1N894MB","A2IQ0QCTQ3KWLT","3I7KR83SNAZT1REYB2SRC49PCEEK9H","","543.0999999996275","img/land2.png","74","543.7999999998137","1","1","1","2","0.8,0.2,0.2,0.2,0.8,0.2,0.2,0.2,0.8","0.8,0.2,0.2,0.2,0.8,0.2,0.2,0.2,0.8","1","",""
"","html-keyboard-response","55","89825","0.0-55.0","3BEFOD78W7FPGT6J6LEIZSM1N894MB","A2IQ0QCTQ3KWLT","3I7KR83SNAZT1REYB2SRC49PCEEK9H","","null","<img src=""img/land2.png"" style=""width:200px; border:14px solid green;"">","null","","","","","","","","","",""
"","image-keyboard-response","56","90535","0.0-56.0","3BEFOD78W7FPGT6J6LEIZSM1N894MB","A2IQ0QCTQ3KWLT","3I7KR83SNAZT1REYB2SRC49PCEEK9H","","709.2999999998137","img/land4.png","76","710","3","1","3","2","0.8,0.2,0.2,0.2,0.8,0.2,0.2,0.2,0.8","0.8,0.2,0.2,0.2,0.8,0.2,0.2,0.2,0.8","1","",""
"","html-keyboard-response","57","90840","0.0-57.0","3BEFOD78W7FPGT6J6LEIZSM1N894MB","A2IQ0QCTQ3KWLT","3I7KR83SNAZT1REYB2SRC49PCEEK9H","","null","<img src=""img/land4.png"" style=""width:200px; border:14px solid green;"">","null","","","","","","","","","",""
"","image-keyboard-response","58","91551","0.0-58.0","3BEFOD78W7FPGT6J6LEIZSM1N894MB","A2IQ0QCTQ3KWLT","3I7KR83SNAZT1REYB2SRC49PCEEK9H","","710","img/land2.png","74","710.7999999998137","1","1","1","2","0.8,0.2,0.2,0.2,0.8,0.2,0.2,0.2,0.8","0.8,0.2,0.2,0.2,0.8,0.2,0.2,0.2,0.8","1","",""
"","html-keyboard-response","59","91853","0.0-59.0","3BEFOD78W7FPGT6J6LEIZSM1N894MB","A2IQ0QCTQ3KWLT","3I7KR83SNAZT1REYB2SRC49PCEEK9H","","null","<img src=""img/land2.png"" style=""width:200px; border:14px solid green;"">","null","","","","","","","","","",""
"","image-keyboard-response","60","92342","0.0-60.0","3BEFOD78W7FPGT6J6LEIZSM1N894MB","A2IQ0QCTQ3KWLT","3I7KR83SNAZT1REYB2SRC49PCEEK9H","","487.79999999981374","img/land2.png","74","488.70000000018626","1","0","1","2","0.8,0.2,0.2,0.2,0.8,0.2,0.2,0.2,0.8","0.8,0.2,0.2,0.2,0.8,0.2,0.2,0.2,0.8","1","",""
"","html-keyboard-response","61","92644","0.0-61.0","3BEFOD78W7FPGT6J6LEIZSM1N894MB","A2IQ0QCTQ3KWLT","3I7KR83SNAZT1REYB2SRC49PCEEK9H","","null","<img src=""img/land2.png"" style=""width:200px;border:14px solid red;"">","null","","","","","","","","","",""
"","image-keyboard-response","62","93327","0.0-62.0","3BEFOD78W7FPGT6J6LEIZSM1N894MB","A2IQ0QCTQ3KWLT","3I7KR83SNAZT1REYB2SRC49PCEEK9H","","682","img/land5.png","75","682.7000000001863","2","1","2","2","0.8,0.2,0.2,0.2,0.8,0.2,0.2,0.2,0.8","0.8,0.2,0.2,0.2,0.8,0.2,0.2,0.2,0.8","1","",""
"","html-keyboard-response","63","93629","0.0-63.0","3BEFOD78W7FPGT6J6LEIZSM1N894MB","A2IQ0QCTQ3KWLT","3I7KR83SNAZT1REYB2SRC49PCEEK9H","","null","<img src=""img/land5.png"" style=""width:200px; border:14px solid green;"">","null","","","","","","","","","",""
"","image-keyboard-response","64","94567","0.0-64.0","3BEFOD78W7FPGT6J6LEIZSM1N894MB","A2IQ0QCTQ3KWLT","3I7KR83SNAZT1REYB2SRC49PCEEK9H","","937.3999999994412","img/land2.png","75","938.0999999996275","2","0","1","2","0.8,0.2,0.2,0.2,0.8,0.2,0.2,0.2,0.8","0.8,0.2,0.2,0.2,0.8,0.2,0.2,0.2,0.8","1","",""
"","html-keyboard-response","65","94868","0.0-65.0","3BEFOD78W7FPGT6J6LEIZSM1N894MB","A2IQ0QCTQ3KWLT","3I7KR83SNAZT1REYB2SRC49PCEEK9H","","null","<img src=""img/land2.png"" style=""width:200px;border:14px solid red;"">","null","","","","","","","","","",""
"","image-keyboard-response","66","95647","0.0-66.0","3BEFOD78W7FPGT6J6LEIZSM1N894MB","A2IQ0QCTQ3KWLT","3I7KR83SNAZT1REYB2SRC49PCEEK9H","","778.2000000001863","img/land2.png","74","778.8999999994412","1","1","1","2","0.8,0.2,0.2,0.2,0.8,0.2,0.2,0.2,0.8","0.8,0.2,0.2,0.2,0.8,0.2,0.2,0.2,0.8","1","",""
"","html-keyboard-response","67","95952","0.0-67.0","3BEFOD78W7FPGT6J6LEIZSM1N894MB","A2IQ0QCTQ3KWLT","3I7KR83SNAZT1REYB2SRC49PCEEK9H","","null","<img src=""img/land2.png"" style=""width:200px; border:14px solid green;"">","null","","","","","","","","","",""
"","image-keyboard-response","68","96817","0.0-68.0","3BEFOD78W7FPGT6J6LEIZSM1N894MB","A2IQ0QCTQ3KWLT","3I7KR83SNAZT1REYB2SRC49PCEEK9H","","863.5","img/land5.png","75","864.1999999992549","2","1","2","2","0.8,0.2,0.2,0.2,0.8,0.2,0.2,0.2,0.8","0.8,0.2,0.2,0.2,0.8,0.2,0.2,0.2,0.8","1","",""
"","html-keyboard-response","69","97121","0.0-69.0","3BEFOD78W7FPGT6J6LEIZSM1N894MB","A2IQ0QCTQ3KWLT","3I7KR83SNAZT1REYB2SRC49PCEEK9H","","null","<img src=""img/land5.png"" style=""width:200px; border:14px solid green;"">","null","","","","","","","","","",""
"","image-keyboard-response","70","97959","0.0-70.0","3BEFOD78W7FPGT6J6LEIZSM1N894MB","A2IQ0QCTQ3KWLT","3I7KR83SNAZT1REYB2SRC49PCEEK9H","","837.5","img/land2.png","76","838.2999999998137","3","0","1","2","0.8,0.2,0.2,0.2,0.8,0.2,0.2,0.2,0.8","0.8,0.2,0.2,0.2,0.8,0.2,0.2,0.2,0.8","1","",""
"","html-keyboard-response","71","98264","0.0-71.0","3BEFOD78W7FPGT6J6LEIZSM1N894MB","A2IQ0QCTQ3KWLT","3I7KR83SNAZT1REYB2SRC49PCEEK9H","","null","<img src=""img/land2.png"" style=""width:200px;border:14px solid red;"">","null","","","","","","","","","",""
"","image-keyboard-response","72","98823","0.0-72.0","3BEFOD78W7FPGT6J6LEIZSM1N894MB","A2IQ0QCTQ3KWLT","3I7KR83SNAZT1REYB2SRC49PCEEK9H","","557.7999999998137","img/land2.png","76","558.5999999996275","3","0","1","2","0.8,0.2,0.2,0.2,0.8,0.2,0.2,0.2,0.8","0.8,0.2,0.2,0.2,0.8,0.2,0.2,0.2,0.8","1","",""
"","html-keyboard-response","73","99125","0.0-73.0","3BEFOD78W7FPGT6J6LEIZSM1N894MB","A2IQ0QCTQ3KWLT","3I7KR83SNAZT1REYB2SRC49PCEEK9H","","null","<img src=""img/land2.png"" style=""width:200px;border:14px solid red;"">","null","","","","","","","","","",""
"","image-keyboard-response","74","99727","0.0-74.0","3BEFOD78W7FPGT6J6LEIZSM1N894MB","A2IQ0QCTQ3KWLT","3I7KR83SNAZT1REYB2SRC49PCEEK9H","","600.7999999998137","img/land2.png","74","601.5999999996275","1","1","1","2","0.8,0.2,0.2,0.2,0.8,0.2,0.2,0.2,0.8","0.8,0.2,0.2,0.2,0.8,0.2,0.2,0.2,0.8","1","",""
"","html-keyboard-response","75","100033","0.0-75.0","3BEFOD78W7FPGT6J6LEIZSM1N894MB","A2IQ0QCTQ3KWLT","3I7KR83SNAZT1REYB2SRC49PCEEK9H","","null","<img src=""img/land2.png"" style=""width:200px; border:14px solid green;"">","null","","","","","","","","","",""
"","image-keyboard-response","76","100519","0.0-76.0","3BEFOD78W7FPGT6J6LEIZSM1N894MB","A2IQ0QCTQ3KWLT","3I7KR83SNAZT1REYB2SRC49PCEEK9H","","485.70000000018626","img/land2.png","74","486.70000000018626","1","1","1","2","0.8,0.2,0.2,0.2,0.8,0.2,0.2,0.2,0.8","0.8,0.2,0.2,0.2,0.8,0.2,0.2,0.2,0.8","1","",""
"","html-keyboard-response","77","100825","0.0-77.0","3BEFOD78W7FPGT6J6LEIZSM1N894MB","A2IQ0QCTQ3KWLT","3I7KR83SNAZT1REYB2SRC49PCEEK9H","","null","<img src=""img/land2.png"" style=""width:200px; border:14px solid green;"">","null","","","","","","","","","",""
"","image-keyboard-response","78","101199","0.0-78.0","3BEFOD78W7FPGT6J6LEIZSM1N894MB","A2IQ0QCTQ3KWLT","3I7KR83SNAZT1REYB2SRC49PCEEK9H","","373.5","img/land2.png","74","374.20000000018626","1","1","1","2","0.8,0.2,0.2,0.2,0.8,0.2,0.2,0.2,0.8","0.8,0.2,0.2,0.2,0.8,0.2,0.2,0.2,0.8","1","",""
"","html-keyboard-response","79","101501","0.0-79.0","3BEFOD78W7FPGT6J6LEIZSM1N894MB","A2IQ0QCTQ3KWLT","3I7KR83SNAZT1REYB2SRC49PCEEK9H","","null","<img src=""img/land2.png"" style=""width:200px; border:14px solid green;"">","null","","","","","","","","","",""
"","image-keyboard-response","80","102095","0.0-80.0","3BEFOD78W7FPGT6J6LEIZSM1N894MB","A2IQ0QCTQ3KWLT","3I7KR83SNAZT1REYB2SRC49PCEEK9H","","592.9000000003725","img/land5.png","75","593.5","2","0","2","2","0.8,0.2,0.2,0.2,0.8,0.2,0.2,0.2,0.8","0.8,0.2,0.2,0.2,0.8,0.2,0.2,0.2,0.8","1","",""
"","html-keyboard-response","81","102400","0.0-81.0","3BEFOD78W7FPGT6J6LEIZSM1N894MB","A2IQ0QCTQ3KWLT","3I7KR83SNAZT1REYB2SRC49PCEEK9H","","null","<img src=""img/land5.png"" style=""width:200px;border:14px solid red;"">","null","","","","","","","","","",""
"","image-keyboard-response","82","102879","0.0-82.0","3BEFOD78W7FPGT6J6LEIZSM1N894MB","A2IQ0QCTQ3KWLT","3I7KR83SNAZT1REYB2SRC49PCEEK9H","","478.20000000018626","img/land5.png","75","479.09999999962747","2","1","2","2","0.8,0.2,0.2,0.2,0.8,0.2,0.2,0.2,0.8","0.8,0.2,0.2,0.2,0.8,0.2,0.2,0.2,0.8","1","",""
"","html-keyboard-response","83","103180","0.0-83.0","3BEFOD78W7FPGT6J6LEIZSM1N894MB","A2IQ0QCTQ3KWLT","3I7KR83SNAZT1REYB2SRC49PCEEK9H","","null","<img src=""img/land5.png"" style=""width:200px; border:14px solid green;"">","null","","","","","","","","","",""
"","image-keyboard-response","84","103775","0.0-84.0","3BEFOD78W7FPGT6J6LEIZSM1N894MB","A2IQ0QCTQ3KWLT","3I7KR83SNAZT1REYB2SRC49PCEEK9H","","593.7999999998137","img/land4.png","76","594.6000000005588","3","1","3","2","0.8,0.2,0.2,0.2,0.8,0.2,0.2,0.2,0.8","0.8,0.2,0.2,0.2,0.8,0.2,0.2,0.2,0.8","1","",""
"","html-keyboard-response","85","104077","0.0-85.0","3BEFOD78W7FPGT6J6LEIZSM1N894MB","A2IQ0QCTQ3KWLT","3I7KR83SNAZT1REYB2SRC49PCEEK9H","","null","<img src=""img/land4.png"" style=""width:200px; border:14px solid green;"">","null","","","","","","","","","",""
"","image-keyboard-response","86","104655","0.0-86.0","3BEFOD78W7FPGT6J6LEIZSM1N894MB","A2IQ0QCTQ3KWLT","3I7KR83SNAZT1REYB2SRC49PCEEK9H","","577.2000000001863","img/land2.png","74","577.9000000003725","1","0","1","2","0.8,0.2,0.2,0.2,0.8,0.2,0.2,0.2,0.8","0.8,0.2,0.2,0.2,0.8,0.2,0.2,0.2,0.8","1","",""
"","html-keyboard-response","87","104961","0.0-87.0","3BEFOD78W7FPGT6J6LEIZSM1N894MB","A2IQ0QCTQ3KWLT","3I7KR83SNAZT1REYB2SRC49PCEEK9H","","null","<img src=""img/land2.png"" style=""width:200px;border:14px solid red;"">","null","","","","","","","","","",""
"","image-keyboard-response","88","105255","0.0-88.0","3BEFOD78W7FPGT6J6LEIZSM1N894MB","A2IQ0QCTQ3KWLT","3I7KR83SNAZT1REYB2SRC49PCEEK9H","","292.70000000018626","img/land2.png","74","293.6000000005588","1","0","1","2","0.8,0.2,0.2,0.2,0.8,0.2,0.2,0.2,0.8","0.8,0.2,0.2,0.2,0.8,0.2,0.2,0.2,0.8","1","",""
"","html-keyboard-response","89","105560","0.0-89.0","3BEFOD78W7FPGT6J6LEIZSM1N894MB","A2IQ0QCTQ3KWLT","3I7KR83SNAZT1REYB2SRC49PCEEK9H","","null","<img src=""img/land2.png"" style=""width:200px;border:14px solid red;"">","null","","","","","","","","","",""
"","image-keyboard-response","90","105926","0.0-90.0","3BEFOD78W7FPGT6J6LEIZSM1N894MB","A2IQ0QCTQ3KWLT","3I7KR83SNAZT1REYB2SRC49PCEEK9H","","366","img/land2.png","74","366.70000000018626","1","1","1","2","0.8,0.2,0.2,0.2,0.8,0.2,0.2,0.2,0.8","0.8,0.2,0.2,0.2,0.8,0.2,0.2,0.2,0.8","1","",""
"","html-keyboard-response","91","106227","0.0-91.0","3BEFOD78W7FPGT6J6LEIZSM1N894MB","A2IQ0QCTQ3KWLT","3I7KR83SNAZT1REYB2SRC49PCEEK9H","","null","<img src=""img/land2.png"" style=""width:200px; border:14px solid green;"">","null","","","","","","","","","",""
"","image-keyboard-response","92","106863","0.0-92.0","3BEFOD78W7FPGT6J6LEIZSM1N894MB","A2IQ0QCTQ3KWLT","3I7KR83SNAZT1REYB2SRC49PCEEK9H","","634.9000000003725","img/land5.png","75","635.7000000001863","2","0","2","2","0.8,0.2,0.2,0.2,0.8,0.2,0.2,0.2,0.8","0.8,0.2,0.2,0.2,0.8,0.2,0.2,0.2,0.8","1","",""
"","html-keyboard-response","93","107168","0.0-93.0","3BEFOD78W7FPGT6J6LEIZSM1N894MB","A2IQ0QCTQ3KWLT","3I7KR83SNAZT1REYB2SRC49PCEEK9H","","null","<img src=""img/land5.png"" style=""width:200px;border:14px solid red;"">","null","","","","","","","","","",""
"","image-keyboard-response","94","108535","0.0-94.0","3BEFOD78W7FPGT6J6LEIZSM1N894MB","A2IQ0QCTQ3KWLT","3I7KR83SNAZT1REYB2SRC49PCEEK9H","","1365.8999999994412","img/land2.png","74","1366.6000000005588","1","1","1","2","0.8,0.2,0.2,0.2,0.8,0.2,0.2,0.2,0.8","0.8,0.2,0.2,0.2,0.8,0.2,0.2,0.2,0.8","1","",""
"","html-keyboard-response","95","108839","0.0-95.0","3BEFOD78W7FPGT6J6LEIZSM1N894MB","A2IQ0QCTQ3KWLT","3I7KR83SNAZT1REYB2SRC49PCEEK9H","","null","<img src=""img/land2.png"" style=""width:200px; border:14px solid green;"">","null","","","","","","","","","",""
"","image-keyboard-response","96","109455","0.0-96.0","3BEFOD78W7FPGT6J6LEIZSM1N894MB","A2IQ0QCTQ3KWLT","3I7KR83SNAZT1REYB2SRC49PCEEK9H","","614.6999999992549","img/land5.png","76","615.7000000001863","3","0","2","2","0.8,0.2,0.2,0.2,0.8,0.2,0.2,0.2,0.8","0.8,0.2,0.2,0.2,0.8,0.2,0.2,0.2,0.8","1","",""
"","html-keyboard-response","97","109757","0.0-97.0","3BEFOD78W7FPGT6J6LEIZSM1N894MB","A2IQ0QCTQ3KWLT","3I7KR83SNAZT1REYB2SRC49PCEEK9H","","null","<img src=""img/land5.png"" style=""width:200px;border:14px solid red;"">","null","","","","","","","","","",""
"","image-keyboard-response","98","110271","0.0-98.0","3BEFOD78W7FPGT6J6LEIZSM1N894MB","A2IQ0QCTQ3KWLT","3I7KR83SNAZT1REYB2SRC49PCEEK9H","","513.2000000001863","img/land2.png","74","514","1","1","1","2","0.8,0.2,0.2,0.2,0.8,0.2,0.2,0.2,0.8","0.8,0.2,0.2,0.2,0.8,0.2,0.2,0.2,0.8","1","",""
"","html-keyboard-response","99","110573","0.0-99.0","3BEFOD78W7FPGT6J6LEIZSM1N894MB","A2IQ0QCTQ3KWLT","3I7KR83SNAZT1REYB2SRC49PCEEK9H","","null","<img src=""img/land2.png"" style=""width:200px; border:14px solid green;"">","null","","","","","","","","","",""
"","image-keyboard-response","100","111047","0.0-100.0","3BEFOD78W7FPGT6J6LEIZSM1N894MB","A2IQ0QCTQ3KWLT","3I7KR83SNAZT1REYB2SRC49PCEEK9H","","473.1000000005588","img/land2.png","74","473.90000000037253","1","1","1","2","0.8,0.2,0.2,0.2,0.8,0.2,0.2,0.2,0.8","0.8,0.2,0.2,0.2,0.8,0.2,0.2,0.2,0.8","1","",""
"","html-keyboard-response","101","111353","0.0-101.0","3BEFOD78W7FPGT6J6LEIZSM1N894MB","A2IQ0QCTQ3KWLT","3I7KR83SNAZT1REYB2SRC49PCEEK9H","","null","<img src=""img/land2.png"" style=""width:200px; border:14px solid green;"">","null","","","","","","","","","",""
"","image-keyboard-response","102","111743","0.0-102.0","3BEFOD78W7FPGT6J6LEIZSM1N894MB","A2IQ0QCTQ3KWLT","3I7KR83SNAZT1REYB2SRC49PCEEK9H","","389.09999999962747","img/land2.png","74","389.90000000037253","1","1","1","2","0.8,0.2,0.2,0.2,0.8,0.2,0.2,0.2,0.8","0.8,0.2,0.2,0.2,0.8,0.2,0.2,0.2,0.8","1","",""
"","html-keyboard-response","103","112048","0.0-103.0","3BEFOD78W7FPGT6J6LEIZSM1N894MB","A2IQ0QCTQ3KWLT","3I7KR83SNAZT1REYB2SRC49PCEEK9H","","null","<img src=""img/land2.png"" style=""width:200px; border:14px solid green;"">","null","","","","","","","","","",""
"","image-keyboard-response","104","112775","0.0-104.0","3BEFOD78W7FPGT6J6LEIZSM1N894MB","A2IQ0QCTQ3KWLT","3I7KR83SNAZT1REYB2SRC49PCEEK9H","","725.2999999998137","img/land4.png","76","726.2999999998137","3","1","3","2","0.8,0.2,0.2,0.2,0.8,0.2,0.2,0.2,0.8","0.8,0.2,0.2,0.2,0.8,0.2,0.2,0.2,0.8","1","",""
"","html-keyboard-response","105","113077","0.0-105.0","3BEFOD78W7FPGT6J6LEIZSM1N894MB","A2IQ0QCTQ3KWLT","3I7KR83SNAZT1REYB2SRC49PCEEK9H","","null","<img src=""img/land4.png"" style=""width:200px; border:14px solid green;"">","null","","","","","","","","","",""
"","image-keyboard-response","106","113517","0.0-106.0","3BEFOD78W7FPGT6J6LEIZSM1N894MB","A2IQ0QCTQ3KWLT","3I7KR83SNAZT1REYB2SRC49PCEEK9H","","439.59999999962747","img/land4.png","76","440.29999999981374","3","1","3","2","0.8,0.2,0.2,0.2,0.8,0.2,0.2,0.2,0.8","0.8,0.2,0.2,0.2,0.8,0.2,0.2,0.2,0.8","1","",""
"","html-keyboard-response","107","113819","0.0-107.0","3BEFOD78W7FPGT6J6LEIZSM1N894MB","A2IQ0QCTQ3KWLT","3I7KR83SNAZT1REYB2SRC49PCEEK9H","","null","<img src=""img/land4.png"" style=""width:200px; border:14px solid green;"">","null","","","","","","","","","",""
"","image-keyboard-response","108","114625","0.0-108.0","3BEFOD78W7FPGT6J6LEIZSM1N894MB","A2IQ0QCTQ3KWLT","3I7KR83SNAZT1REYB2SRC49PCEEK9H","","804.4000000003725","img/land2.png","74","805.4000000003725","1","0","1","2","0.8,0.2,0.2,0.2,0.8,0.2,0.2,0.2,0.8","0.8,0.2,0.2,0.2,0.8,0.2,0.2,0.2,0.8","1","",""
"","html-keyboard-response","109","114928","0.0-109.0","3BEFOD78W7FPGT6J6LEIZSM1N894MB","A2IQ0QCTQ3KWLT","3I7KR83SNAZT1REYB2SRC49PCEEK9H","","null","<img src=""img/land2.png"" style=""width:200px;border:14px solid red;"">","null","","","","","","","","","",""
"","image-keyboard-response","110","115846","0.0-110.0","3BEFOD78W7FPGT6J6LEIZSM1N894MB","A2IQ0QCTQ3KWLT","3I7KR83SNAZT1REYB2SRC49PCEEK9H","","917.4000000003725","img/land4.png","76","918.2999999998137","3","1","3","2","0.8,0.2,0.2,0.2,0.8,0.2,0.2,0.2,0.8","0.8,0.2,0.2,0.2,0.8,0.2,0.2,0.2,0.8","1","",""
"","html-keyboard-response","111","116148","0.0-111.0","3BEFOD78W7FPGT6J6LEIZSM1N894MB","A2IQ0QCTQ3KWLT","3I7KR83SNAZT1REYB2SRC49PCEEK9H","","null","<img src=""img/land4.png"" style=""width:200px; border:14px solid green;"">","null","","","","","","","","","",""
"","image-keyboard-response","112","116846","0.0-112.0","3BEFOD78W7FPGT6J6LEIZSM1N894MB","A2IQ0QCTQ3KWLT","3I7KR83SNAZT1REYB2SRC49PCEEK9H","","697.3000000007451","img/land2.png","76","698.0999999996275","3","0","1","2","0.8,0.2,0.2,0.2,0.8,0.2,0.2,0.2,0.8","0.8,0.2,0.2,0.2,0.8,0.2,0.2,0.2,0.8","1","",""
"","html-keyboard-response","113","117152","0.0-113.0","3BEFOD78W7FPGT6J6LEIZSM1N894MB","A2IQ0QCTQ3KWLT","3I7KR83SNAZT1REYB2SRC49PCEEK9H","","null","<img src=""img/land2.png"" style=""width:200px;border:14px solid red;"">","null","","","","","","","","","",""
"","image-keyboard-response","114","118247","0.0-114.0","3BEFOD78W7FPGT6J6LEIZSM1N894MB","A2IQ0QCTQ3KWLT","3I7KR83SNAZT1REYB2SRC49PCEEK9H","","1093.8999999994412","img/land2.png","75","1094.7000000001863","2","0","1","2","0.8,0.2,0.2,0.2,0.8,0.2,0.2,0.2,0.8","0.8,0.2,0.2,0.2,0.8,0.2,0.2,0.2,0.8","1","",""
"","html-keyboard-response","115","118549","0.0-115.0","3BEFOD78W7FPGT6J6LEIZSM1N894MB","A2IQ0QCTQ3KWLT","3I7KR83SNAZT1REYB2SRC49PCEEK9H","","null","<img src=""img/land2.png"" style=""width:200px;border:14px solid red;"">","null","","","","","","","","","",""
"","image-keyboard-response","116","119030","0.0-116.0","3BEFOD78W7FPGT6J6LEIZSM1N894MB","A2IQ0QCTQ3KWLT","3I7KR83SNAZT1REYB2SRC49PCEEK9H","","480.5","img/land4.png","74","481.29999999981374","1","0","3","2","0.8,0.2,0.2,0.2,0.8,0.2,0.2,0.2,0.8","0.8,0.2,0.2,0.2,0.8,0.2,0.2,0.2,0.8","1","",""
"","html-keyboard-response","117","119335","0.0-117.0","3BEFOD78W7FPGT6J6LEIZSM1N894MB","A2IQ0QCTQ3KWLT","3I7KR83SNAZT1REYB2SRC49PCEEK9H","","null","<img src=""img/land4.png"" style=""width:200px;border:14px solid red;"">","null","","","","","","","","","",""
"","image-keyboard-response","118","120423","0.0-118.0","3BEFOD78W7FPGT6J6LEIZSM1N894MB","A2IQ0QCTQ3KWLT","3I7KR83SNAZT1REYB2SRC49PCEEK9H","","1087","img/land2.png","74","1087.7999999998137","1","1","1","2","0.8,0.2,0.2,0.2,0.8,0.2,0.2,0.2,0.8","0.8,0.2,0.2,0.2,0.8,0.2,0.2,0.2,0.8","1","",""
"","html-keyboard-response","119","120725","0.0-119.0","3BEFOD78W7FPGT6J6LEIZSM1N894MB","A2IQ0QCTQ3KWLT","3I7KR83SNAZT1REYB2SRC49PCEEK9H","","null","<img src=""img/land2.png"" style=""width:200px; border:14px solid green;"">","null","","","","","","","","","",""
"","image-keyboard-response","120","121511","0.0-120.0","3BEFOD78W7FPGT6J6LEIZSM1N894MB","A2IQ0QCTQ3KWLT","3I7KR83SNAZT1REYB2SRC49PCEEK9H","","784.8999999994412","img/land5.png","75","785.7000000001863","2","1","2","2","0.8,0.2,0.2,0.2,0.8,0.2,0.2,0.2,0.8","0.8,0.2,0.2,0.2,0.8,0.2,0.2,0.2,0.8","1","",""
"","html-keyboard-response","121","121813","0.0-121.0","3BEFOD78W7FPGT6J6LEIZSM1N894MB","A2IQ0QCTQ3KWLT","3I7KR83SNAZT1REYB2SRC49PCEEK9H","","null","<img src=""img/land5.png"" style=""width:200px; border:14px solid green;"">","null","","","","","","","","","",""
"","image-keyboard-response","122","122743","0.0-122.0","3BEFOD78W7FPGT6J6LEIZSM1N894MB","A2IQ0QCTQ3KWLT","3I7KR83SNAZT1REYB2SRC49PCEEK9H","","928.4000000003725","img/land2.png","74","929","1","1","1","2","0.8,0.2,0.2,0.2,0.8,0.2,0.2,0.2,0.8","0.8,0.2,0.2,0.2,0.8,0.2,0.2,0.2,0.8","1","",""
"","html-keyboard-response","123","123044","0.0-123.0","3BEFOD78W7FPGT6J6LEIZSM1N894MB","A2IQ0QCTQ3KWLT","3I7KR83SNAZT1REYB2SRC49PCEEK9H","","null","<img src=""img/land2.png"" style=""width:200px; border:14px solid green;"">","null","","","","","","","","","",""
"","image-keyboard-response","124","123413","0.0-124.0","3BEFOD78W7FPGT6J6LEIZSM1N894MB","A2IQ0QCTQ3KWLT","3I7KR83SNAZT1REYB2SRC49PCEEK9H","","368.59999999962747","img/land2.png","74","369.3999999994412","1","1","1","2","0.8,0.2,0.2,0.2,0.8,0.2,0.2,0.2,0.8","0.8,0.2,0.2,0.2,0.8,0.2,0.2,0.2,0.8","1","",""
"","html-keyboard-response","125","123718","0.0-125.0","3BEFOD78W7FPGT6J6LEIZSM1N894MB","A2IQ0QCTQ3KWLT","3I7KR83SNAZT1REYB2SRC49PCEEK9H","","null","<img src=""img/land2.png"" style=""width:200px; border:14px solid green;"">","null","","","","","","","","","",""
"","image-keyboard-response","126","124437","0.0-126.0","3BEFOD78W7FPGT6J6LEIZSM1N894MB","A2IQ0QCTQ3KWLT","3I7KR83SNAZT1REYB2SRC49PCEEK9H","","717.7000000001863","img/land4.png","76","718.4000000003725","3","1","3","2","0.8,0.2,0.2,0.2,0.8,0.2,0.2,0.2,0.8","0.8,0.2,0.2,0.2,0.8,0.2,0.2,0.2,0.8","1","",""
"","html-keyboard-response","127","124740","0.0-127.0","3BEFOD78W7FPGT6J6LEIZSM1N894MB","A2IQ0QCTQ3KWLT","3I7KR83SNAZT1REYB2SRC49PCEEK9H","","null","<img src=""img/land4.png"" style=""width:200px; border:14px solid green;"">","null","","","","","","","","","",""
"","image-keyboard-response","128","125199","0.0-128.0","3BEFOD78W7FPGT6J6LEIZSM1N894MB","A2IQ0QCTQ3KWLT","3I7KR83SNAZT1REYB2SRC49PCEEK9H","","457.40000000037253","img/land4.png","76","458.19999999925494","3","1","3","2","0.8,0.2,0.2,0.2,0.8,0.2,0.2,0.2,0.8","0.8,0.2,0.2,0.2,0.8,0.2,0.2,0.2,0.8","1","",""
"","html-keyboard-response","129","125505","0.0-129.0","3BEFOD78W7FPGT6J6LEIZSM1N894MB","A2IQ0QCTQ3KWLT","3I7KR83SNAZT1REYB2SRC49PCEEK9H","","null","<img src=""img/land4.png"" style=""width:200px; border:14px solid green;"">","null","","","","","","","","","",""
"","image-keyboard-response","130","126119","0.0-130.0","3BEFOD78W7FPGT6J6LEIZSM1N894MB","A2IQ0QCTQ3KWLT","3I7KR83SNAZT1REYB2SRC49PCEEK9H","","612.2999999998137","img/land2.png","74","613.0999999996275","1","0","1","2","0.8,0.2,0.2,0.2,0.8,0.2,0.2,0.2,0.8","0.8,0.2,0.2,0.2,0.8,0.2,0.2,0.2,0.8","1","",""
"","html-keyboard-response","131","126421","0.0-131.0","3BEFOD78W7FPGT6J6LEIZSM1N894MB","A2IQ0QCTQ3KWLT","3I7KR83SNAZT1REYB2SRC49PCEEK9H","","null","<img src=""img/land2.png"" style=""width:200px;border:14px solid red;"">","null","","","","","","","","","",""
"","image-keyboard-response","132","127046","0.0-132.0","3BEFOD78W7FPGT6J6LEIZSM1N894MB","A2IQ0QCTQ3KWLT","3I7KR83SNAZT1REYB2SRC49PCEEK9H","","624.4000000003725","img/land5.png","75","625.2999999998137","2","1","2","2","0.8,0.2,0.2,0.2,0.8,0.2,0.2,0.2,0.8","0.8,0.2,0.2,0.2,0.8,0.2,0.2,0.2,0.8","1","",""
"","html-keyboard-response","133","127347","0.0-133.0","3BEFOD78W7FPGT6J6LEIZSM1N894MB","A2IQ0QCTQ3KWLT","3I7KR83SNAZT1REYB2SRC49PCEEK9H","","null","<img src=""img/land5.png"" style=""width:200px; border:14px solid green;"">","null","","","","","","","","","",""
"","image-keyboard-response","134","127966","0.0-134.0","3BEFOD78W7FPGT6J6LEIZSM1N894MB","A2IQ0QCTQ3KWLT","3I7KR83SNAZT1REYB2SRC49PCEEK9H","","617.5","img/land2.png","74","618.3000000007451","1","1","1","2","0.8,0.2,0.2,0.2,0.8,0.2,0.2,0.2,0.8","0.8,0.2,0.2,0.2,0.8,0.2,0.2,0.2,0.8","1","",""
"","html-keyboard-response","135","128268","0.0-135.0","3BEFOD78W7FPGT6J6LEIZSM1N894MB","A2IQ0QCTQ3KWLT","3I7KR83SNAZT1REYB2SRC49PCEEK9H","","null","<img src=""img/land2.png"" style=""width:200px; border:14px solid green;"">","null","","","","","","","","","",""
"","image-keyboard-response","136","129087","0.0-136.0","3BEFOD78W7FPGT6J6LEIZSM1N894MB","A2IQ0QCTQ3KWLT","3I7KR83SNAZT1REYB2SRC49PCEEK9H","","817.5","img/land4.png","76","818.2000000001863","3","1","3","2","0.8,0.2,0.2,0.2,0.8,0.2,0.2,0.2,0.8","0.8,0.2,0.2,0.2,0.8,0.2,0.2,0.2,0.8","1","",""
"","html-keyboard-response","137","129390","0.0-137.0","3BEFOD78W7FPGT6J6LEIZSM1N894MB","A2IQ0QCTQ3KWLT","3I7KR83SNAZT1REYB2SRC49PCEEK9H","","null","<img src=""img/land4.png"" style=""width:200px; border:14px solid green;"">","null","","","","","","","","","",""
"","image-keyboard-response","138","130031","0.0-138.0","3BEFOD78W7FPGT6J6LEIZSM1N894MB","A2IQ0QCTQ3KWLT","3I7KR83SNAZT1REYB2SRC49PCEEK9H","","640.0999999996275","img/land2.png","74","640.7999999998137","1","1","1","2","0.8,0.2,0.2,0.2,0.8,0.2,0.2,0.2,0.8","0.8,0.2,0.2,0.2,0.8,0.2,0.2,0.2,0.8","1","",""
"","html-keyboard-response","139","130336","0.0-139.0","3BEFOD78W7FPGT6J6LEIZSM1N894MB","A2IQ0QCTQ3KWLT","3I7KR83SNAZT1REYB2SRC49PCEEK9H","","null","<img src=""img/land2.png"" style=""width:200px; border:14px solid green;"">","null","","","","","","","","","",""
"","image-keyboard-response","140","130703","0.0-140.0","3BEFOD78W7FPGT6J6LEIZSM1N894MB","A2IQ0QCTQ3KWLT","3I7KR83SNAZT1REYB2SRC49PCEEK9H","","365.80000000074506","img/land2.png","74","366.69999999925494","1","1","1","2","0.8,0.2,0.2,0.2,0.8,0.2,0.2,0.2,0.8","0.8,0.2,0.2,0.2,0.8,0.2,0.2,0.2,0.8","1","",""
"","html-keyboard-response","141","131004","0.0-141.0","3BEFOD78W7FPGT6J6LEIZSM1N894MB","A2IQ0QCTQ3KWLT","3I7KR83SNAZT1REYB2SRC49PCEEK9H","","null","<img src=""img/land2.png"" style=""width:200px; border:14px solid green;"">","null","","","","","","","","","",""
"","image-keyboard-response","142","131582","0.0-142.0","3BEFOD78W7FPGT6J6LEIZSM1N894MB","A2IQ0QCTQ3KWLT","3I7KR83SNAZT1REYB2SRC49PCEEK9H","","576.9000000003725","img/land5.png","75","577.7999999998137","2","0","2","2","0.8,0.2,0.2,0.2,0.8,0.2,0.2,0.2,0.8","0.8,0.2,0.2,0.2,0.8,0.2,0.2,0.2,0.8","1","",""
"","html-keyboard-response","143","131887","0.0-143.0","3BEFOD78W7FPGT6J6LEIZSM1N894MB","A2IQ0QCTQ3KWLT","3I7KR83SNAZT1REYB2SRC49PCEEK9H","","null","<img src=""img/land5.png"" style=""width:200px;border:14px solid red;"">","null","","","","","","","","","",""
"","image-keyboard-response","144","132734","0.0-144.0","3BEFOD78W7FPGT6J6LEIZSM1N894MB","A2IQ0QCTQ3KWLT","3I7KR83SNAZT1REYB2SRC49PCEEK9H","","846.0999999996275","img/land2.png","74","846.7999999998137","1","1","1","2","0.8,0.2,0.2,0.2,0.8,0.2,0.2,0.2,0.8","0.8,0.2,0.2,0.2,0.8,0.2,0.2,0.2,0.8","1","",""
"","html-keyboard-response","145","133036","0.0-145.0","3BEFOD78W7FPGT6J6LEIZSM1N894MB","A2IQ0QCTQ3KWLT","3I7KR83SNAZT1REYB2SRC49PCEEK9H","","null","<img src=""img/land2.png"" style=""width:200px; border:14px solid green;"">","null","","","","","","","","","",""
"","image-keyboard-response","146","133470","0.0-146.0","3BEFOD78W7FPGT6J6LEIZSM1N894MB","A2IQ0QCTQ3KWLT","3I7KR83SNAZT1REYB2SRC49PCEEK9H","","433.29999999981374","img/land2.png","74","434","1","1","1","2","0.8,0.2,0.2,0.2,0.8,0.2,0.2,0.2,0.8","0.8,0.2,0.2,0.2,0.8,0.2,0.2,0.2,0.8","1","",""
"","html-keyboard-response","147","133773","0.0-147.0","3BEFOD78W7FPGT6J6LEIZSM1N894MB","A2IQ0QCTQ3KWLT","3I7KR83SNAZT1REYB2SRC49PCEEK9H","","null","<img src=""img/land2.png"" style=""width:200px; border:14px solid green;"">","null","","","","","","","","","",""
"","image-keyboard-response","148","134174","0.0-148.0","3BEFOD78W7FPGT6J6LEIZSM1N894MB","A2IQ0QCTQ3KWLT","3I7KR83SNAZT1REYB2SRC49PCEEK9H","","400.8999999994412","img/land2.png","74","401.5","1","1","1","2","0.8,0.2,0.2,0.2,0.8,0.2,0.2,0.2,0.8","0.8,0.2,0.2,0.2,0.8,0.2,0.2,0.2,0.8","1","",""
"","html-keyboard-response","149","134478","0.0-149.0","3BEFOD78W7FPGT6J6LEIZSM1N894MB","A2IQ0QCTQ3KWLT","3I7KR83SNAZT1REYB2SRC49PCEEK9H","","null","<img src=""img/land2.png"" style=""width:200px; border:14px solid green;"">","null","","","","","","","","","",""
"","image-keyboard-response","150","135246","0.0-150.0","3BEFOD78W7FPGT6J6LEIZSM1N894MB","A2IQ0QCTQ3KWLT","3I7KR83SNAZT1REYB2SRC49PCEEK9H","","767.5","img/land5.png","76","768.3999999994412","3","0","2","2","0.8,0.2,0.2,0.2,0.8,0.2,0.2,0.2,0.8","0.8,0.2,0.2,0.2,0.8,0.2,0.2,0.2,0.8","1","",""
"","html-keyboard-response","151","135548","0.0-151.0","3BEFOD78W7FPGT6J6LEIZSM1N894MB","A2IQ0QCTQ3KWLT","3I7KR83SNAZT1REYB2SRC49PCEEK9H","","null","<img src=""img/land5.png"" style=""width:200px;border:14px solid red;"">","null","","","","","","","","","",""
"","image-keyboard-response","152","136118","0.0-152.0","3BEFOD78W7FPGT6J6LEIZSM1N894MB","A2IQ0QCTQ3KWLT","3I7KR83SNAZT1REYB2SRC49PCEEK9H","","569","img/land2.png","74","570","1","0","1","2","0.8,0.2,0.2,0.2,0.8,0.2,0.2,0.2,0.8","0.8,0.2,0.2,0.2,0.8,0.2,0.2,0.2,0.8","1","",""
"","html-keyboard-response","153","136420","0.0-153.0","3BEFOD78W7FPGT6J6LEIZSM1N894MB","A2IQ0QCTQ3KWLT","3I7KR83SNAZT1REYB2SRC49PCEEK9H","","null","<img src=""img/land2.png"" style=""width:200px;border:14px solid red;"">","null","","","","","","","","","",""
"","image-keyboard-response","154","137126","0.0-154.0","3BEFOD78W7FPGT6J6LEIZSM1N894MB","A2IQ0QCTQ3KWLT","3I7KR83SNAZT1REYB2SRC49PCEEK9H","","705.2999999998137","img/land5.png","75","706","2","1","2","2","0.8,0.2,0.2,0.2,0.8,0.2,0.2,0.2,0.8","0.8,0.2,0.2,0.2,0.8,0.2,0.2,0.2,0.8","1","",""
"","html-keyboard-response","155","137431","0.0-155.0","3BEFOD78W7FPGT6J6LEIZSM1N894MB","A2IQ0QCTQ3KWLT","3I7KR83SNAZT1REYB2SRC49PCEEK9H","","null","<img src=""img/land5.png"" style=""width:200px; border:14px solid green;"">","null","","","","","","","","","",""
"","image-keyboard-response","156","138246","0.0-156.0","3BEFOD78W7FPGT6J6LEIZSM1N894MB","A2IQ0QCTQ3KWLT","3I7KR83SNAZT1REYB2SRC49PCEEK9H","","814.5999999996275","img/land4.png","76","815.4000000003725","3","1","3","2","0.8,0.2,0.2,0.2,0.8,0.2,0.2,0.2,0.8","0.8,0.2,0.2,0.2,0.8,0.2,0.2,0.2,0.8","1","",""
"","html-keyboard-response","157","138549","0.0-157.0","3BEFOD78W7FPGT6J6LEIZSM1N894MB","A2IQ0QCTQ3KWLT","3I7KR83SNAZT1REYB2SRC49PCEEK9H","","null","<img src=""img/land4.png"" style=""width:200px; border:14px solid green;"">","null","","","","","","","","","",""
"","image-keyboard-response","158","138958","0.0-158.0","3BEFOD78W7FPGT6J6LEIZSM1N894MB","A2IQ0QCTQ3KWLT","3I7KR83SNAZT1REYB2SRC49PCEEK9H","","408.29999999981374","img/land4.png","76","409","3","1","3","2","0.8,0.2,0.2,0.2,0.8,0.2,0.2,0.2,0.8","0.8,0.2,0.2,0.2,0.8,0.2,0.2,0.2,0.8","1","",""
"","html-keyboard-response","159","139263","0.0-159.0","3BEFOD78W7FPGT6J6LEIZSM1N894MB","A2IQ0QCTQ3KWLT","3I7KR83SNAZT1REYB2SRC49PCEEK9H","","null","<img src=""img/land4.png"" style=""width:200px; border:14px solid green;"">","null","","","","","","","","","",""
"","image-keyboard-response","160","139902","0.0-160.0","3BEFOD78W7FPGT6J6LEIZSM1N894MB","A2IQ0QCTQ3KWLT","3I7KR83SNAZT1REYB2SRC49PCEEK9H","","638.5999999996275","img/land2.png","74","639.3999999994412","1","1","1","2","0.8,0.2,0.2,0.2,0.8,0.2,0.2,0.2,0.8","0.8,0.2,0.2,0.2,0.8,0.2,0.2,0.2,0.8","1","",""
"","html-keyboard-response","161","140204","0.0-161.0","3BEFOD78W7FPGT6J6LEIZSM1N894MB","A2IQ0QCTQ3KWLT","3I7KR83SNAZT1REYB2SRC49PCEEK9H","","null","<img src=""img/land2.png"" style=""width:200px; border:14px solid green;"">","null","","","","","","","","","",""
"","image-keyboard-response","162","140582","0.0-162.0","3BEFOD78W7FPGT6J6LEIZSM1N894MB","A2IQ0QCTQ3KWLT","3I7KR83SNAZT1REYB2SRC49PCEEK9H","","376.90000000037253","img/land2.png","74","377.6000000005588","1","1","1","2","0.8,0.2,0.2,0.2,0.8,0.2,0.2,0.2,0.8","0.8,0.2,0.2,0.2,0.8,0.2,0.2,0.2,0.8","1","",""
"","html-keyboard-response","163","140888","0.0-163.0","3BEFOD78W7FPGT6J6LEIZSM1N894MB","A2IQ0QCTQ3KWLT","3I7KR83SNAZT1REYB2SRC49PCEEK9H","","null","<img src=""img/land2.png"" style=""width:200px; border:14px solid green;"">","null","","","","","","","","","",""
"","image-keyboard-response","164","141230","0.0-164.0","3BEFOD78W7FPGT6J6LEIZSM1N894MB","A2IQ0QCTQ3KWLT","3I7KR83SNAZT1REYB2SRC49PCEEK9H","","341.70000000018626","img/land2.png","74","342.5","1","1","1","2","0.8,0.2,0.2,0.2,0.8,0.2,0.2,0.2,0.8","0.8,0.2,0.2,0.2,0.8,0.2,0.2,0.2,0.8","1","",""
"","html-keyboard-response","165","141532","0.0-165.0","3BEFOD78W7FPGT6J6LEIZSM1N894MB","A2IQ0QCTQ3KWLT","3I7KR83SNAZT1REYB2SRC49PCEEK9H","","null","<img src=""img/land2.png"" style=""width:200px; border:14px solid green;"">","null","","","","","","","","","",""
"","image-keyboard-response","166","142190","0.0-166.0","3BEFOD78W7FPGT6J6LEIZSM1N894MB","A2IQ0QCTQ3KWLT","3I7KR83SNAZT1REYB2SRC49PCEEK9H","","656.7999999998137","img/land5.png","75","657.5","2","0","2","2","0.8,0.2,0.2,0.2,0.8,0.2,0.2,0.2,0.8","0.8,0.2,0.2,0.2,0.8,0.2,0.2,0.2,0.8","1","",""
"","html-keyboard-response","167","142496","0.0-167.0","3BEFOD78W7FPGT6J6LEIZSM1N894MB","A2IQ0QCTQ3KWLT","3I7KR83SNAZT1REYB2SRC49PCEEK9H","","null","<img src=""img/land5.png"" style=""width:200px;border:14px solid red;"">","null","","","","","","","","","",""
"","image-keyboard-response","168","142830","0.0-168.0","3BEFOD78W7FPGT6J6LEIZSM1N894MB","A2IQ0QCTQ3KWLT","3I7KR83SNAZT1REYB2SRC49PCEEK9H","","333.79999999981374","img/land2.png","75","334.40000000037253","2","0","1","2","0.8,0.2,0.2,0.2,0.8,0.2,0.2,0.2,0.8","0.8,0.2,0.2,0.2,0.8,0.2,0.2,0.2,0.8","1","",""
"","html-keyboard-response","169","143136","0.0-169.0","3BEFOD78W7FPGT6J6LEIZSM1N894MB","A2IQ0QCTQ3KWLT","3I7KR83SNAZT1REYB2SRC49PCEEK9H","","null","<img src=""img/land2.png"" style=""width:200px;border:14px solid red;"">","null","","","","","","","","","",""
"","image-keyboard-response","170","144134","0.0-170.0","3BEFOD78W7FPGT6J6LEIZSM1N894MB","A2IQ0QCTQ3KWLT","3I7KR83SNAZT1REYB2SRC49PCEEK9H","","997.2999999998137","img/land5.png","75","998.2000000001863","2","1","2","2","0.8,0.2,0.2,0.2,0.8,0.2,0.2,0.2,0.8","0.8,0.2,0.2,0.2,0.8,0.2,0.2,0.2,0.8","1","",""
"","html-keyboard-response","171","144436","0.0-171.0","3BEFOD78W7FPGT6J6LEIZSM1N894MB","A2IQ0QCTQ3KWLT","3I7KR83SNAZT1REYB2SRC49PCEEK9H","","null","<img src=""img/land5.png"" style=""width:200px; border:14px solid green;"">","null","","","","","","","","","",""
"","image-keyboard-response","172","145166","0.0-172.0","3BEFOD78W7FPGT6J6LEIZSM1N894MB","A2IQ0QCTQ3KWLT","3I7KR83SNAZT1REYB2SRC49PCEEK9H","","728.7999999998137","img/land4.png","76","729.5","3","1","3","2","0.8,0.2,0.2,0.2,0.8,0.2,0.2,0.2,0.8","0.8,0.2,0.2,0.2,0.8,0.2,0.2,0.2,0.8","1","",""
"","html-keyboard-response","173","145468","0.0-173.0","3BEFOD78W7FPGT6J6LEIZSM1N894MB","A2IQ0QCTQ3KWLT","3I7KR83SNAZT1REYB2SRC49PCEEK9H","","null","<img src=""img/land4.png"" style=""width:200px; border:14px solid green;"">","null","","","","","","","","","",""
"","image-keyboard-response","174","146110","0.0-174.0","3BEFOD78W7FPGT6J6LEIZSM1N894MB","A2IQ0QCTQ3KWLT","3I7KR83SNAZT1REYB2SRC49PCEEK9H","","641.2000000001863","img/land2.png","74","642.0999999996275","1","1","1","2","0.8,0.2,0.2,0.2,0.8,0.2,0.2,0.2,0.8","0.8,0.2,0.2,0.2,0.8,0.2,0.2,0.2,0.8","1","",""
"","html-keyboard-response","175","146416","0.0-175.0","3BEFOD78W7FPGT6J6LEIZSM1N894MB","A2IQ0QCTQ3KWLT","3I7KR83SNAZT1REYB2SRC49PCEEK9H","","null","<img src=""img/land2.png"" style=""width:200px; border:14px solid green;"">","null","","","","","","","","","",""
"","image-keyboard-response","176","146838","0.0-176.0","3BEFOD78W7FPGT6J6LEIZSM1N894MB","A2IQ0QCTQ3KWLT","3I7KR83SNAZT1REYB2SRC49PCEEK9H","","421.3999999994412","img/land2.png","74","422.29999999981374","1","0","1","2","0.8,0.2,0.2,0.2,0.8,0.2,0.2,0.2,0.8","0.8,0.2,0.2,0.2,0.8,0.2,0.2,0.2,0.8","1","",""
"","html-keyboard-response","177","147140","0.0-177.0","3BEFOD78W7FPGT6J6LEIZSM1N894MB","A2IQ0QCTQ3KWLT","3I7KR83SNAZT1REYB2SRC49PCEEK9H","","null","<img src=""img/land2.png"" style=""width:200px;border:14px solid red;"">","null","","","","","","","","","",""
"","image-keyboard-response","178","147510","0.0-178.0","3BEFOD78W7FPGT6J6LEIZSM1N894MB","A2IQ0QCTQ3KWLT","3I7KR83SNAZT1REYB2SRC49PCEEK9H","","369","img/land2.png","74","369.80000000074506","1","1","1","2","0.8,0.2,0.2,0.2,0.8,0.2,0.2,0.2,0.8","0.8,0.2,0.2,0.2,0.8,0.2,0.2,0.2,0.8","1","",""
"","html-keyboard-response","179","147813","0.0-179.0","3BEFOD78W7FPGT6J6LEIZSM1N894MB","A2IQ0QCTQ3KWLT","3I7KR83SNAZT1REYB2SRC49PCEEK9H","","null","<img src=""img/land2.png"" style=""width:200px; border:14px solid green;"">","null","","","","","","","","","",""
"","image-keyboard-response","180","148517","0.0-180.0","3BEFOD78W7FPGT6J6LEIZSM1N894MB","A2IQ0QCTQ3KWLT","3I7KR83SNAZT1REYB2SRC49PCEEK9H","","703.5","img/land5.png","75","704.2999999998137","2","1","2","2","0.8,0.2,0.2,0.2,0.8,0.2,0.2,0.2,0.8","0.8,0.2,0.2,0.2,0.8,0.2,0.2,0.2,0.8","1","",""
"","html-keyboard-response","181","148821","0.0-181.0","3BEFOD78W7FPGT6J6LEIZSM1N894MB","A2IQ0QCTQ3KWLT","3I7KR83SNAZT1REYB2SRC49PCEEK9H","","null","<img src=""img/land5.png"" style=""width:200px; border:14px solid green;"">","null","","","","","","","","","",""
"","image-keyboard-response","182","149190","0.0-182.0","3BEFOD78W7FPGT6J6LEIZSM1N894MB","A2IQ0QCTQ3KWLT","3I7KR83SNAZT1REYB2SRC49PCEEK9H","","368.5","img/land5.png","75","369.19999999925494","2","1","2","2","0.8,0.2,0.2,0.2,0.8,0.2,0.2,0.2,0.8","0.8,0.2,0.2,0.2,0.8,0.2,0.2,0.2,0.8","1","",""
"","html-keyboard-response","183","149495","0.0-183.0","3BEFOD78W7FPGT6J6LEIZSM1N894MB","A2IQ0QCTQ3KWLT","3I7KR83SNAZT1REYB2SRC49PCEEK9H","","null","<img src=""img/land5.png"" style=""width:200px; border:14px solid green;"">","null","","","","","","","","","",""
"","image-keyboard-response","184","150308","0.0-184.0","3BEFOD78W7FPGT6J6LEIZSM1N894MB","A2IQ0QCTQ3KWLT","3I7KR83SNAZT1REYB2SRC49PCEEK9H","","812.6999999992549","img/land2.png","74","813.3999999994412","1","1","1","2","0.8,0.2,0.2,0.2,0.8,0.2,0.2,0.2,0.8","0.8,0.2,0.2,0.2,0.8,0.2,0.2,0.2,0.8","1","",""
"","html-keyboard-response","185","150611","0.0-185.0","3BEFOD78W7FPGT6J6LEIZSM1N894MB","A2IQ0QCTQ3KWLT","3I7KR83SNAZT1REYB2SRC49PCEEK9H","","null","<img src=""img/land2.png"" style=""width:200px; border:14px solid green;"">","null","","","","","","","","","",""
"","image-keyboard-response","186","151470","0.0-186.0","3BEFOD78W7FPGT6J6LEIZSM1N894MB","A2IQ0QCTQ3KWLT","3I7KR83SNAZT1REYB2SRC49PCEEK9H","","857.5999999996275","img/land4.png","76","858.4000000003725","3","0","3","2","0.8,0.2,0.2,0.2,0.8,0.2,0.2,0.2,0.8","0.8,0.2,0.2,0.2,0.8,0.2,0.2,0.2,0.8","1","",""
"","html-keyboard-response","187","151772","0.0-187.0","3BEFOD78W7FPGT6J6LEIZSM1N894MB","A2IQ0QCTQ3KWLT","3I7KR83SNAZT1REYB2SRC49PCEEK9H","","null","<img src=""img/land4.png"" style=""width:200px;border:14px solid red;"">","null","","","","","","","","","",""
"","image-keyboard-response","188","152086","0.0-188.0","3BEFOD78W7FPGT6J6LEIZSM1N894MB","A2IQ0QCTQ3KWLT","3I7KR83SNAZT1REYB2SRC49PCEEK9H","","312.79999999981374","img/land4.png","76","313.6000000005588","3","1","3","2","0.8,0.2,0.2,0.2,0.8,0.2,0.2,0.2,0.8","0.8,0.2,0.2,0.2,0.8,0.2,0.2,0.2,0.8","1","",""
"","html-keyboard-response","189","152392","0.0-189.0","3BEFOD78W7FPGT6J6LEIZSM1N894MB","A2IQ0QCTQ3KWLT","3I7KR83SNAZT1REYB2SRC49PCEEK9H","","null","<img src=""img/land4.png"" style=""width:200px; border:14px solid green;"">","null","","","","","","","","","",""
"","image-keyboard-response","190","153302","0.0-190.0","3BEFOD78W7FPGT6J6LEIZSM1N894MB","A2IQ0QCTQ3KWLT","3I7KR83SNAZT1REYB2SRC49PCEEK9H","","908.7000000001863","img/land2.png","74","909.6000000005588","1","0","1","2","0.8,0.2,0.2,0.2,0.8,0.2,0.2,0.2,0.8","0.8,0.2,0.2,0.2,0.8,0.2,0.2,0.2,0.8","1","",""
"","html-keyboard-response","191","153604","0.0-191.0","3BEFOD78W7FPGT6J6LEIZSM1N894MB","A2IQ0QCTQ3KWLT","3I7KR83SNAZT1REYB2SRC49PCEEK9H","","null","<img src=""img/land2.png"" style=""width:200px;border:14px solid red;"">","null","","","","","","","","","",""
"","image-keyboard-response","192","153997","0.0-192.0","3BEFOD78W7FPGT6J6LEIZSM1N894MB","A2IQ0QCTQ3KWLT","3I7KR83SNAZT1REYB2SRC49PCEEK9H","","391.70000000018626","img/land5.png","74","392.5","1","0","2","2","0.8,0.2,0.2,0.2,0.8,0.2,0.2,0.2,0.8","0.8,0.2,0.2,0.2,0.8,0.2,0.2,0.2,0.8","1","",""
"","html-keyboard-response","193","154302","0.0-193.0","3BEFOD78W7FPGT6J6LEIZSM1N894MB","A2IQ0QCTQ3KWLT","3I7KR83SNAZT1REYB2SRC49PCEEK9H","","null","<img src=""img/land5.png"" style=""width:200px;border:14px solid red;"">","null","","","","","","","","","",""
"","image-keyboard-response","194","155262","0.0-194.0","3BEFOD78W7FPGT6J6LEIZSM1N894MB","A2IQ0QCTQ3KWLT","3I7KR83SNAZT1REYB2SRC49PCEEK9H","","959.2000000001863","img/land2.png","74","959.6999999992549","1","0","1","2","0.8,0.2,0.2,0.2,0.8,0.2,0.2,0.2,0.8","0.8,0.2,0.2,0.2,0.8,0.2,0.2,0.2,0.8","1","",""
"","html-keyboard-response","195","155564","0.0-195.0","3BEFOD78W7FPGT6J6LEIZSM1N894MB","A2IQ0QCTQ3KWLT","3I7KR83SNAZT1REYB2SRC49PCEEK9H","","null","<img src=""img/land2.png"" style=""width:200px;border:14px solid red;"">","null","","","","","","","","","",""
"","image-keyboard-response","196","156398","0.0-196.0","3BEFOD78W7FPGT6J6LEIZSM1N894MB","A2IQ0QCTQ3KWLT","3I7KR83SNAZT1REYB2SRC49PCEEK9H","","833.0999999996275","img/land4.png","76","833.8999999994412","3","1","3","2","0.8,0.2,0.2,0.2,0.8,0.2,0.2,0.2,0.8","0.8,0.2,0.2,0.2,0.8,0.2,0.2,0.2,0.8","1","",""
"","html-keyboard-response","197","156700","0.0-197.0","3BEFOD78W7FPGT6J6LEIZSM1N894MB","A2IQ0QCTQ3KWLT","3I7KR83SNAZT1REYB2SRC49PCEEK9H","","null","<img src=""img/land4.png"" style=""width:200px; border:14px solid green;"">","null","","","","","","","","","",""
"","image-keyboard-response","198","157494","0.0-198.0","3BEFOD78W7FPGT6J6LEIZSM1N894MB","A2IQ0QCTQ3KWLT","3I7KR83SNAZT1REYB2SRC49PCEEK9H","","792.2999999998137","img/land5.png","75","793.1000000005588","2","1","2","2","0.8,0.2,0.2,0.2,0.8,0.2,0.2,0.2,0.8","0.8,0.2,0.2,0.2,0.8,0.2,0.2,0.2,0.8","1","",""
"","html-keyboard-response","199","157795","0.0-199.0","3BEFOD78W7FPGT6J6LEIZSM1N894MB","A2IQ0QCTQ3KWLT","3I7KR83SNAZT1REYB2SRC49PCEEK9H","","null","<img src=""img/land5.png"" style=""width:200px; border:14px solid green;"">","null","","","","","","","","","",""
"","image-keyboard-response","200","158766","0.0-200.0","3BEFOD78W7FPGT6J6LEIZSM1N894MB","A2IQ0QCTQ3KWLT","3I7KR83SNAZT1REYB2SRC49PCEEK9H","","969.5999999996275","img/land4.png","76","970.4000000003725","3","1","3","2","0.8,0.2,0.2,0.2,0.8,0.2,0.2,0.2,0.8","0.8,0.2,0.2,0.2,0.8,0.2,0.2,0.2,0.8","1","",""
"","html-keyboard-response","201","159068","0.0-201.0","3BEFOD78W7FPGT6J6LEIZSM1N894MB","A2IQ0QCTQ3KWLT","3I7KR83SNAZT1REYB2SRC49PCEEK9H","","null","<img src=""img/land4.png"" style=""width:200px; border:14px solid green;"">","null","","","","","","","","","",""
"","image-keyboard-response","202","159814","0.0-202.0","3BEFOD78W7FPGT6J6LEIZSM1N894MB","A2IQ0QCTQ3KWLT","3I7KR83SNAZT1REYB2SRC49PCEEK9H","","744.6000000005588","img/land2.png","74","745.3999999994412","1","1","1","2","0.8,0.2,0.2,0.2,0.8,0.2,0.2,0.2,0.8","0.8,0.2,0.2,0.2,0.8,0.2,0.2,0.2,0.8","1","",""
"","html-keyboard-response","203","160120","0.0-203.0","3BEFOD78W7FPGT6J6LEIZSM1N894MB","A2IQ0QCTQ3KWLT","3I7KR83SNAZT1REYB2SRC49PCEEK9H","","null","<img src=""img/land2.png"" style=""width:200px; border:14px solid green;"">","null","","","","","","","","","",""
"","image-keyboard-response","204","160582","0.0-204.0","3BEFOD78W7FPGT6J6LEIZSM1N894MB","A2IQ0QCTQ3KWLT","3I7KR83SNAZT1REYB2SRC49PCEEK9H","","461.3999999994412","img/land2.png","74","462.20000000018626","1","1","1","2","0.8,0.2,0.2,0.2,0.8,0.2,0.2,0.2,0.8","0.8,0.2,0.2,0.2,0.8,0.2,0.2,0.2,0.8","1","",""
"","html-keyboard-response","205","160884","0.0-205.0","3BEFOD78W7FPGT6J6LEIZSM1N894MB","A2IQ0QCTQ3KWLT","3I7KR83SNAZT1REYB2SRC49PCEEK9H","","null","<img src=""img/land2.png"" style=""width:200px; border:14px solid green;"">","null","","","","","","","","","",""
"","image-keyboard-response","206","161877","0.0-206.0","3BEFOD78W7FPGT6J6LEIZSM1N894MB","A2IQ0QCTQ3KWLT","3I7KR83SNAZT1REYB2SRC49PCEEK9H","","992.6000000005588","img/land5.png","76","993.4000000003725","3","0","2","2","0.8,0.2,0.2,0.2,0.8,0.2,0.2,0.2,0.8","0.8,0.2,0.2,0.2,0.8,0.2,0.2,0.2,0.8","1","",""
"","html-keyboard-response","207","162180","0.0-207.0","3BEFOD78W7FPGT6J6LEIZSM1N894MB","A2IQ0QCTQ3KWLT","3I7KR83SNAZT1REYB2SRC49PCEEK9H","","null","<img src=""img/land5.png"" style=""width:200px;border:14px solid red;"">","null","","","","","","","","","",""
"","image-keyboard-response","208","162982","0.0-208.0","3BEFOD78W7FPGT6J6LEIZSM1N894MB","A2IQ0QCTQ3KWLT","3I7KR83SNAZT1REYB2SRC49PCEEK9H","","800.5999999996275","img/land2.png","74","801.4000000003725","1","0","1","2","0.8,0.2,0.2,0.2,0.8,0.2,0.2,0.2,0.8","0.8,0.2,0.2,0.2,0.8,0.2,0.2,0.2,0.8","1","",""
"","html-keyboard-response","209","163283","0.0-209.0","3BEFOD78W7FPGT6J6LEIZSM1N894MB","A2IQ0QCTQ3KWLT","3I7KR83SNAZT1REYB2SRC49PCEEK9H","","null","<img src=""img/land2.png"" style=""width:200px;border:14px solid red;"">","null","","","","","","","","","",""
"","image-keyboard-response","210","164284","0.0-210.0","3BEFOD78W7FPGT6J6LEIZSM1N894MB","A2IQ0QCTQ3KWLT","3I7KR83SNAZT1REYB2SRC49PCEEK9H","","999.5","img/land2.png","74","1000.2999999998137","1","1","1","2","0.8,0.2,0.2,0.2,0.8,0.2,0.2,0.2,0.8","0.8,0.2,0.2,0.2,0.8,0.2,0.2,0.2,0.8","1","",""
"","html-keyboard-response","211","164589","0.0-211.0","3BEFOD78W7FPGT6J6LEIZSM1N894MB","A2IQ0QCTQ3KWLT","3I7KR83SNAZT1REYB2SRC49PCEEK9H","","null","<img src=""img/land2.png"" style=""width:200px; border:14px solid green;"">","null","","","","","","","","","",""
"","image-keyboard-response","212","164982","0.0-212.0","3BEFOD78W7FPGT6J6LEIZSM1N894MB","A2IQ0QCTQ3KWLT","3I7KR83SNAZT1REYB2SRC49PCEEK9H","","392","img/land2.png","74","392.8999999994412","1","0","1","2","0.8,0.2,0.2,0.2,0.8,0.2,0.2,0.2,0.8","0.8,0.2,0.2,0.2,0.8,0.2,0.2,0.2,0.8","1","",""
"","html-keyboard-response","213","165288","0.0-213.0","3BEFOD78W7FPGT6J6LEIZSM1N894MB","A2IQ0QCTQ3KWLT","3I7KR83SNAZT1REYB2SRC49PCEEK9H","","null","<img src=""img/land2.png"" style=""width:200px;border:14px solid red;"">","null","","","","","","","","","",""
"","image-keyboard-response","214","165996","0.0-214.0","3BEFOD78W7FPGT6J6LEIZSM1N894MB","A2IQ0QCTQ3KWLT","3I7KR83SNAZT1REYB2SRC49PCEEK9H","","707.5999999996275","img/land4.png","76","708.5","3","1","3","2","0.8,0.2,0.2,0.2,0.8,0.2,0.2,0.2,0.8","0.8,0.2,0.2,0.2,0.8,0.2,0.2,0.2,0.8","1","",""
"","html-keyboard-response","215","166302","0.0-215.0","3BEFOD78W7FPGT6J6LEIZSM1N894MB","A2IQ0QCTQ3KWLT","3I7KR83SNAZT1REYB2SRC49PCEEK9H","","null","<img src=""img/land4.png"" style=""width:200px; border:14px solid green;"">","null","","","","","","","","","",""
"","image-keyboard-response","216","167686","0.0-216.0","3BEFOD78W7FPGT6J6LEIZSM1N894MB","A2IQ0QCTQ3KWLT","3I7KR83SNAZT1REYB2SRC49PCEEK9H","","1382.7999999998137","img/land2.png","74","1383.7000000001863","1","1","1","2","0.8,0.2,0.2,0.2,0.8,0.2,0.2,0.2,0.8","0.8,0.2,0.2,0.2,0.8,0.2,0.2,0.2,0.8","1","",""
"","html-keyboard-response","217","167991","0.0-217.0","3BEFOD78W7FPGT6J6LEIZSM1N894MB","A2IQ0QCTQ3KWLT","3I7KR83SNAZT1REYB2SRC49PCEEK9H","","null","<img src=""img/land2.png"" style=""width:200px; border:14px solid green;"">","null","","","","","","","","","",""
"","image-keyboard-response","218","168726","0.0-218.0","3BEFOD78W7FPGT6J6LEIZSM1N894MB","A2IQ0QCTQ3KWLT","3I7KR83SNAZT1REYB2SRC49PCEEK9H","","733.6000000005588","img/land4.png","76","735.7000000001863","3","0","3","2","0.8,0.2,0.2,0.2,0.8,0.2,0.2,0.2,0.8","0.8,0.2,0.2,0.2,0.8,0.2,0.2,0.2,0.8","1","",""
"","html-keyboard-response","219","169029","0.0-219.0","3BEFOD78W7FPGT6J6LEIZSM1N894MB","A2IQ0QCTQ3KWLT","3I7KR83SNAZT1REYB2SRC49PCEEK9H","","null","<img src=""img/land4.png"" style=""width:200px;border:14px solid red;"">","null","","","","","","","","","",""
"","image-keyboard-response","220","169550","0.0-220.0","3BEFOD78W7FPGT6J6LEIZSM1N894MB","A2IQ0QCTQ3KWLT","3I7KR83SNAZT1REYB2SRC49PCEEK9H","","519.6000000005588","img/land4.png","76","520.2000000001863","3","1","3","2","0.8,0.2,0.2,0.2,0.8,0.2,0.2,0.2,0.8","0.8,0.2,0.2,0.2,0.8,0.2,0.2,0.2,0.8","1","",""
"","html-keyboard-response","221","169855","0.0-221.0","3BEFOD78W7FPGT6J6LEIZSM1N894MB","A2IQ0QCTQ3KWLT","3I7KR83SNAZT1REYB2SRC49PCEEK9H","","null","<img src=""img/land4.png"" style=""width:200px; border:14px solid green;"">","null","","","","","","","","","",""
"","image-keyboard-response","222","170878","0.0-222.0","3BEFOD78W7FPGT6J6LEIZSM1N894MB","A2IQ0QCTQ3KWLT","3I7KR83SNAZT1REYB2SRC49PCEEK9H","","1022.2000000001863","img/land2.png","74","1023","1","1","1","2","0.8,0.2,0.2,0.2,0.8,0.2,0.2,0.2,0.8","0.8,0.2,0.2,0.2,0.8,0.2,0.2,0.2,0.8","1","",""
"","html-keyboard-response","223","171179","0.0-223.0","3BEFOD78W7FPGT6J6LEIZSM1N894MB","A2IQ0QCTQ3KWLT","3I7KR83SNAZT1REYB2SRC49PCEEK9H","","null","<img src=""img/land2.png"" style=""width:200px; border:14px solid green;"">","null","","","","","","","","","",""
"","image-keyboard-response","224","171598","0.0-224.0","3BEFOD78W7FPGT6J6LEIZSM1N894MB","A2IQ0QCTQ3KWLT","3I7KR83SNAZT1REYB2SRC49PCEEK9H","","417.20000000018626","img/land2.png","74","418","1","1","1","2","0.8,0.2,0.2,0.2,0.8,0.2,0.2,0.2,0.8","0.8,0.2,0.2,0.2,0.8,0.2,0.2,0.2,0.8","1","",""
"","html-keyboard-response","225","171903","0.0-225.0","3BEFOD78W7FPGT6J6LEIZSM1N894MB","A2IQ0QCTQ3KWLT","3I7KR83SNAZT1REYB2SRC49PCEEK9H","","null","<img src=""img/land2.png"" style=""width:200px; border:14px solid green;"">","null","","","","","","","","","",""
"","image-keyboard-response","226","172324","0.0-226.0","3BEFOD78W7FPGT6J6LEIZSM1N894MB","A2IQ0QCTQ3KWLT","3I7KR83SNAZT1REYB2SRC49PCEEK9H","","419.69999999925494","img/land2.png","74","420.5","1","1","1","2","0.8,0.2,0.2,0.2,0.8,0.2,0.2,0.2,0.8","0.8,0.2,0.2,0.2,0.8,0.2,0.2,0.2,0.8","1","",""
"","html-keyboard-response","227","172630","0.0-227.0","3BEFOD78W7FPGT6J6LEIZSM1N894MB","A2IQ0QCTQ3KWLT","3I7KR83SNAZT1REYB2SRC49PCEEK9H","","null","<img src=""img/land2.png"" style=""width:200px; border:14px solid green;"">","null","","","","","","","","","",""
"","image-keyboard-response","228","173077","0.0-228.0","3BEFOD78W7FPGT6J6LEIZSM1N894MB","A2IQ0QCTQ3KWLT","3I7KR83SNAZT1REYB2SRC49PCEEK9H","","446.09999999962747","img/land2.png","74","447","1","1","1","2","0.8,0.2,0.2,0.2,0.8,0.2,0.2,0.2,0.8","0.8,0.2,0.2,0.2,0.8,0.2,0.2,0.2,0.8","1","",""
"","html-keyboard-response","229","173379","0.0-229.0","3BEFOD78W7FPGT6J6LEIZSM1N894MB","A2IQ0QCTQ3KWLT","3I7KR83SNAZT1REYB2SRC49PCEEK9H","","null","<img src=""img/land2.png"" style=""width:200px; border:14px solid green;"">","null","","","","","","","","","",""
"","image-keyboard-response","230","173742","0.0-230.0","3BEFOD78W7FPGT6J6LEIZSM1N894MB","A2IQ0QCTQ3KWLT","3I7KR83SNAZT1REYB2SRC49PCEEK9H","","361.29999999981374","img/land2.png","74","362","1","0","1","2","0.8,0.2,0.2,0.2,0.8,0.2,0.2,0.2,0.8","0.8,0.2,0.2,0.2,0.8,0.2,0.2,0.2,0.8","1","",""
"","html-keyboard-response","231","174043","0.0-231.0","3BEFOD78W7FPGT6J6LEIZSM1N894MB","A2IQ0QCTQ3KWLT","3I7KR83SNAZT1REYB2SRC49PCEEK9H","","null","<img src=""img/land2.png"" style=""width:200px;border:14px solid red;"">","null","","","","","","","","","",""
"","image-keyboard-response","232","174437","0.0-232.0","3BEFOD78W7FPGT6J6LEIZSM1N894MB","A2IQ0QCTQ3KWLT","3I7KR83SNAZT1REYB2SRC49PCEEK9H","","393.19999999925494","img/land2.png","74","394.1000000005588","1","1","1","2","0.8,0.2,0.2,0.2,0.8,0.2,0.2,0.2,0.8","0.8,0.2,0.2,0.2,0.8,0.2,0.2,0.2,0.8","1","",""
"","html-keyboard-response","233","174744","0.0-233.0","3BEFOD78W7FPGT6J6LEIZSM1N894MB","A2IQ0QCTQ3KWLT","3I7KR83SNAZT1REYB2SRC49PCEEK9H","","null","<img src=""img/land2.png"" style=""width:200px; border:14px solid green;"">","null","","","","","","","","","",""
"","image-keyboard-response","234","175118","0.0-234.0","3BEFOD78W7FPGT6J6LEIZSM1N894MB","A2IQ0QCTQ3KWLT","3I7KR83SNAZT1REYB2SRC49PCEEK9H","","373","img/land2.png","74","373.79999999981374","1","0","1","2","0.8,0.2,0.2,0.2,0.8,0.2,0.2,0.2,0.8","0.8,0.2,0.2,0.2,0.8,0.2,0.2,0.2,0.8","1","",""
"","html-keyboard-response","235","175422","0.0-235.0","3BEFOD78W7FPGT6J6LEIZSM1N894MB","A2IQ0QCTQ3KWLT","3I7KR83SNAZT1REYB2SRC49PCEEK9H","","null","<img src=""img/land2.png"" style=""width:200px;border:14px solid red;"">","null","","","","","","","","","",""
"","image-keyboard-response","236","175901","0.0-236.0","3BEFOD78W7FPGT6J6LEIZSM1N894MB","A2IQ0QCTQ3KWLT","3I7KR83SNAZT1REYB2SRC49PCEEK9H","","478.29999999981374","img/land2.png","74","479.30000000074506","1","1","1","2","0.8,0.2,0.2,0.2,0.8,0.2,0.2,0.2,0.8","0.8,0.2,0.2,0.2,0.8,0.2,0.2,0.2,0.8","1","",""
"","html-keyboard-response","237","176206","0.0-237.0","3BEFOD78W7FPGT6J6LEIZSM1N894MB","A2IQ0QCTQ3KWLT","3I7KR83SNAZT1REYB2SRC49PCEEK9H","","null","<img src=""img/land2.png"" style=""width:200px; border:14px solid green;"">","null","","","","","","","","","",""
"","image-keyboard-response","238","176573","0.0-238.0","3BEFOD78W7FPGT6J6LEIZSM1N894MB","A2IQ0QCTQ3KWLT","3I7KR83SNAZT1REYB2SRC49PCEEK9H","","366.09999999962747","img/land2.png","74","366.79999999981374","1","1","1","2","0.8,0.2,0.2,0.2,0.8,0.2,0.2,0.2,0.8","0.8,0.2,0.2,0.2,0.8,0.2,0.2,0.2,0.8","1","",""
"","html-keyboard-response","239","176876","0.0-239.0","3BEFOD78W7FPGT6J6LEIZSM1N894MB","A2IQ0QCTQ3KWLT","3I7KR83SNAZT1REYB2SRC49PCEEK9H","","null","<img src=""img/land2.png"" style=""width:200px; border:14px solid green;"">","null","","","","","","","","","",""
"","image-keyboard-response","240","177597","0.0-240.0","3BEFOD78W7FPGT6J6LEIZSM1N894MB","A2IQ0QCTQ3KWLT","3I7KR83SNAZT1REYB2SRC49PCEEK9H","","720.2999999998137","img/land5.png","74","721","1","1","2","2","0.8,0.2,0.2,0.2,0.8,0.2,0.2,0.2,0.8","0.8,0.2,0.2,0.2,0.8,0.2,0.2,0.2,0.8","1","",""
"","html-keyboard-response","241","177899","0.0-241.0","3BEFOD78W7FPGT6J6LEIZSM1N894MB","A2IQ0QCTQ3KWLT","3I7KR83SNAZT1REYB2SRC49PCEEK9H","","null","<img src=""img/land5.png"" style=""width:200px; border:14px solid green;"">","null","","","","","","","","","",""
"","image-keyboard-response","242","178436","0.0-242.0","3BEFOD78W7FPGT6J6LEIZSM1N894MB","A2IQ0QCTQ3KWLT","3I7KR83SNAZT1REYB2SRC49PCEEK9H","","536.5","img/land5.png","74","537.2000000001863","1","1","2","2","0.8,0.2,0.2,0.2,0.8,0.2,0.2,0.2,0.8","0.8,0.2,0.2,0.2,0.8,0.2,0.2,0.2,0.8","1","",""
"","html-keyboard-response","243","178740","0.0-243.0","3BEFOD78W7FPGT6J6LEIZSM1N894MB","A2IQ0QCTQ3KWLT","3I7KR83SNAZT1REYB2SRC49PCEEK9H","","null","<img src=""img/land5.png"" style=""width:200px; border:14px solid green;"">","null","","","","","","","","","",""
"","image-keyboard-response","244","179694","0.0-244.0","3BEFOD78W7FPGT6J6LEIZSM1N894MB","A2IQ0QCTQ3KWLT","3I7KR83SNAZT1REYB2SRC49PCEEK9H","","952.8000000007451","img/land4.png","76","953.6999999992549","3","1","3","2","0.8,0.2,0.2,0.2,0.8,0.2,0.2,0.2,0.8","0.8,0.2,0.2,0.2,0.8,0.2,0.2,0.2,0.8","1","",""
"","html-keyboard-response","245","179996","0.0-245.0","3BEFOD78W7FPGT6J6LEIZSM1N894MB","A2IQ0QCTQ3KWLT","3I7KR83SNAZT1REYB2SRC49PCEEK9H","","null","<img src=""img/land4.png"" style=""width:200px; border:14px solid green;"">","null","","","","","","","","","",""
"","image-keyboard-response","246","180757","0.0-246.0","3BEFOD78W7FPGT6J6LEIZSM1N894MB","A2IQ0QCTQ3KWLT","3I7KR83SNAZT1REYB2SRC49PCEEK9H","","760.6000000005588","img/land2.png","74","761.3000000007451","1","0","1","2","0.8,0.2,0.2,0.2,0.8,0.2,0.2,0.2,0.8","0.8,0.2,0.2,0.2,0.8,0.2,0.2,0.2,0.8","1","",""
"","html-keyboard-response","247","181059","0.0-247.0","3BEFOD78W7FPGT6J6LEIZSM1N894MB","A2IQ0QCTQ3KWLT","3I7KR83SNAZT1REYB2SRC49PCEEK9H","","null","<img src=""img/land2.png"" style=""width:200px;border:14px solid red;"">","null","","","","","","","","","",""
"","image-keyboard-response","248","181366","0.0-248.0","3BEFOD78W7FPGT6J6LEIZSM1N894MB","A2IQ0QCTQ3KWLT","3I7KR83SNAZT1REYB2SRC49PCEEK9H","","305.90000000037253","img/land4.png","74","306.70000000018626","1","0","3","2","0.8,0.2,0.2,0.2,0.8,0.2,0.2,0.2,0.8","0.8,0.2,0.2,0.2,0.8,0.2,0.2,0.2,0.8","1","",""
"","html-keyboard-response","249","181668","0.0-249.0","3BEFOD78W7FPGT6J6LEIZSM1N894MB","A2IQ0QCTQ3KWLT","3I7KR83SNAZT1REYB2SRC49PCEEK9H","","null","<img src=""img/land4.png"" style=""width:200px;border:14px solid red;"">","null","","","","","","","","","",""
"","image-keyboard-response","250","183141","0.0-250.0","3BEFOD78W7FPGT6J6LEIZSM1N894MB","A2IQ0QCTQ3KWLT","3I7KR83SNAZT1REYB2SRC49PCEEK9H","","1471.8999999994412","img/land5.png","74","1472.7000000001863","1","0","2","2","0.8,0.2,0.2,0.2,0.8,0.2,0.2,0.2,0.8","0.8,0.2,0.2,0.2,0.8,0.2,0.2,0.2,0.8","1","",""
"","html-keyboard-response","251","183443","0.0-251.0","3BEFOD78W7FPGT6J6LEIZSM1N894MB","A2IQ0QCTQ3KWLT","3I7KR83SNAZT1REYB2SRC49PCEEK9H","","null","<img src=""img/land5.png"" style=""width:200px;border:14px solid red;"">","null","","","","","","","","","",""
"","image-keyboard-response","252","184165","0.0-252.0","3BEFOD78W7FPGT6J6LEIZSM1N894MB","A2IQ0QCTQ3KWLT","3I7KR83SNAZT1REYB2SRC49PCEEK9H","","720.9000000003725","img/land5.png","75","721.7999999998137","2","1","2","2","0.8,0.2,0.2,0.2,0.8,0.2,0.2,0.2,0.8","0.8,0.2,0.2,0.2,0.8,0.2,0.2,0.2,0.8","1","",""
"","html-keyboard-response","253","184466","0.0-253.0","3BEFOD78W7FPGT6J6LEIZSM1N894MB","A2IQ0QCTQ3KWLT","3I7KR83SNAZT1REYB2SRC49PCEEK9H","","null","<img src=""img/land5.png"" style=""width:200px; border:14px solid green;"">","null","","","","","","","","","",""
"","image-keyboard-response","254","185277","0.0-254.0","3BEFOD78W7FPGT6J6LEIZSM1N894MB","A2IQ0QCTQ3KWLT","3I7KR83SNAZT1REYB2SRC49PCEEK9H","","809.5999999996275","img/land2.png","74","810.4000000003725","1","1","1","2","0.8,0.2,0.2,0.2,0.8,0.2,0.2,0.2,0.8","0.8,0.2,0.2,0.2,0.8,0.2,0.2,0.2,0.8","1","",""
"","html-keyboard-response","255","185580","0.0-255.0","3BEFOD78W7FPGT6J6LEIZSM1N894MB","A2IQ0QCTQ3KWLT","3I7KR83SNAZT1REYB2SRC49PCEEK9H","","null","<img src=""img/land2.png"" style=""width:200px; border:14px solid green;"">","null","","","","","","","","","",""
"","image-keyboard-response","256","186421","0.0-256.0","3BEFOD78W7FPGT6J6LEIZSM1N894MB","A2IQ0QCTQ3KWLT","3I7KR83SNAZT1REYB2SRC49PCEEK9H","","839.8999999994412","img/land4.png","76","840.5999999996275","3","1","3","2","0.8,0.2,0.2,0.2,0.8,0.2,0.2,0.2,0.8","0.8,0.2,0.2,0.2,0.8,0.2,0.2,0.2,0.8","1","",""
"","html-keyboard-response","257","186725","0.0-257.0","3BEFOD78W7FPGT6J6LEIZSM1N894MB","A2IQ0QCTQ3KWLT","3I7KR83SNAZT1REYB2SRC49PCEEK9H","","null","<img src=""img/land4.png"" style=""width:200px; border:14px solid green;"">","null","","","","","","","","","",""
"","image-keyboard-response","258","187901","0.0-258.0","3BEFOD78W7FPGT6J6LEIZSM1N894MB","A2IQ0QCTQ3KWLT","3I7KR83SNAZT1REYB2SRC49PCEEK9H","","1175","img/land2.png","74","1175.8999999994412","1","1","1","2","0.8,0.2,0.2,0.2,0.8,0.2,0.2,0.2,0.8","0.8,0.2,0.2,0.2,0.8,0.2,0.2,0.2,0.8","1","",""
"","html-keyboard-response","259","188203","0.0-259.0","3BEFOD78W7FPGT6J6LEIZSM1N894MB","A2IQ0QCTQ3KWLT","3I7KR83SNAZT1REYB2SRC49PCEEK9H","","null","<img src=""img/land2.png"" style=""width:200px; border:14px solid green;"">","null","","","","","","","","","",""
"","image-keyboard-response","260","189316","0.0-260.0","3BEFOD78W7FPGT6J6LEIZSM1N894MB","A2IQ0QCTQ3KWLT","3I7KR83SNAZT1REYB2SRC49PCEEK9H","","1112.2000000001863","img/land4.png","76","1112.8999999994412","3","1","3","2","0.8,0.2,0.2,0.2,0.8,0.2,0.2,0.2,0.8","0.8,0.2,0.2,0.2,0.8,0.2,0.2,0.2,0.8","1","",""
"","html-keyboard-response","261","189621","0.0-261.0","3BEFOD78W7FPGT6J6LEIZSM1N894MB","A2IQ0QCTQ3KWLT","3I7KR83SNAZT1REYB2SRC49PCEEK9H","","null","<img src=""img/land4.png"" style=""width:200px; border:14px solid green;"">","null","","","","","","","","","",""
"","image-keyboard-response","262","190277","0.0-262.0","3BEFOD78W7FPGT6J6LEIZSM1N894MB","A2IQ0QCTQ3KWLT","3I7KR83SNAZT1REYB2SRC49PCEEK9H","","655.5999999996275","img/land2.png","74","656.2999999998137","1","1","1","2","0.8,0.2,0.2,0.2,0.8,0.2,0.2,0.2,0.8","0.8,0.2,0.2,0.2,0.8,0.2,0.2,0.2,0.8","1","",""
"","html-keyboard-response","263","190578","0.0-263.0","3BEFOD78W7FPGT6J6LEIZSM1N894MB","A2IQ0QCTQ3KWLT","3I7KR83SNAZT1REYB2SRC49PCEEK9H","","null","<img src=""img/land2.png"" style=""width:200px; border:14px solid green;"">","null","","","","","","","","","",""
"","image-keyboard-response","264","191470","0.0-264.0","3BEFOD78W7FPGT6J6LEIZSM1N894MB","A2IQ0QCTQ3KWLT","3I7KR83SNAZT1REYB2SRC49PCEEK9H","","890.3999999994412","img/land4.png","76","891.2000000001863","3","1","3","2","0.8,0.2,0.2,0.2,0.8,0.2,0.2,0.2,0.8","0.8,0.2,0.2,0.2,0.8,0.2,0.2,0.2,0.8","1","",""
"","html-keyboard-response","265","191771","0.0-265.0","3BEFOD78W7FPGT6J6LEIZSM1N894MB","A2IQ0QCTQ3KWLT","3I7KR83SNAZT1REYB2SRC49PCEEK9H","","null","<img src=""img/land4.png"" style=""width:200px; border:14px solid green;"">","null","","","","","","","","","",""
"","image-keyboard-response","266","192541","0.0-266.0","3BEFOD78W7FPGT6J6LEIZSM1N894MB","A2IQ0QCTQ3KWLT","3I7KR83SNAZT1REYB2SRC49PCEEK9H","","768.7999999998137","img/land2.png","74","769.5999999996275","1","0","1","2","0.8,0.2,0.2,0.2,0.8,0.2,0.2,0.2,0.8","0.8,0.2,0.2,0.2,0.8,0.2,0.2,0.2,0.8","1","",""
"","html-keyboard-response","267","192843","0.0-267.0","3BEFOD78W7FPGT6J6LEIZSM1N894MB","A2IQ0QCTQ3KWLT","3I7KR83SNAZT1REYB2SRC49PCEEK9H","","null","<img src=""img/land2.png"" style=""width:200px;border:14px solid red;"">","null","","","","","","","","","",""
"","image-keyboard-response","268","193709","0.0-268.0","3BEFOD78W7FPGT6J6LEIZSM1N894MB","A2IQ0QCTQ3KWLT","3I7KR83SNAZT1REYB2SRC49PCEEK9H","","865.5999999996275","img/land5.png","74","866.2999999998137","1","0","2","2","0.8,0.2,0.2,0.2,0.8,0.2,0.2,0.2,0.8","0.8,0.2,0.2,0.2,0.8,0.2,0.2,0.2,0.8","1","",""
"","html-keyboard-response","269","194011","0.0-269.0","3BEFOD78W7FPGT6J6LEIZSM1N894MB","A2IQ0QCTQ3KWLT","3I7KR83SNAZT1REYB2SRC49PCEEK9H","","null","<img src=""img/land5.png"" style=""width:200px;border:14px solid red;"">","null","","","","","","","","","",""
"","image-keyboard-response","270","194669","0.0-270.0","3BEFOD78W7FPGT6J6LEIZSM1N894MB","A2IQ0QCTQ3KWLT","3I7KR83SNAZT1REYB2SRC49PCEEK9H","","657.2999999998137","img/land2.png","74","658","1","1","1","2","0.8,0.2,0.2,0.2,0.8,0.2,0.2,0.2,0.8","0.8,0.2,0.2,0.2,0.8,0.2,0.2,0.2,0.8","1","",""
"","html-keyboard-response","271","194971","0.0-271.0","3BEFOD78W7FPGT6J6LEIZSM1N894MB","A2IQ0QCTQ3KWLT","3I7KR83SNAZT1REYB2SRC49PCEEK9H","","null","<img src=""img/land2.png"" style=""width:200px; border:14px solid green;"">","null","","","","","","","","","",""
"","image-keyboard-response","272","195421","0.0-272.0","3BEFOD78W7FPGT6J6LEIZSM1N894MB","A2IQ0QCTQ3KWLT","3I7KR83SNAZT1REYB2SRC49PCEEK9H","","449.40000000037253","img/land2.png","74","450.20000000018626","1","1","1","2","0.8,0.2,0.2,0.2,0.8,0.2,0.2,0.2,0.8","0.8,0.2,0.2,0.2,0.8,0.2,0.2,0.2,0.8","1","",""
"","html-keyboard-response","273","195727","0.0-273.0","3BEFOD78W7FPGT6J6LEIZSM1N894MB","A2IQ0QCTQ3KWLT","3I7KR83SNAZT1REYB2SRC49PCEEK9H","","null","<img src=""img/land2.png"" style=""width:200px; border:14px solid green;"">","null","","","","","","","","","",""
"","image-keyboard-response","274","196101","0.0-274.0","3BEFOD78W7FPGT6J6LEIZSM1N894MB","A2IQ0QCTQ3KWLT","3I7KR83SNAZT1REYB2SRC49PCEEK9H","","373.69999999925494","img/land2.png","74","374.59999999962747","1","1","1","2","0.8,0.2,0.2,0.2,0.8,0.2,0.2,0.2,0.8","0.8,0.2,0.2,0.2,0.8,0.2,0.2,0.2,0.8","1","",""
"","html-keyboard-response","275","196406","0.0-275.0","3BEFOD78W7FPGT6J6LEIZSM1N894MB","A2IQ0QCTQ3KWLT","3I7KR83SNAZT1REYB2SRC49PCEEK9H","","null","<img src=""img/land2.png"" style=""width:200px; border:14px solid green;"">","null","","","","","","","","","",""
"","image-keyboard-response","276","197941","0.0-276.0","3BEFOD78W7FPGT6J6LEIZSM1N894MB","A2IQ0QCTQ3KWLT","3I7KR83SNAZT1REYB2SRC49PCEEK9H","","1534.2999999998137","img/land2.png","74","1535.0999999996275","1","0","1","2","0.8,0.2,0.2,0.2,0.8,0.2,0.2,0.2,0.8","0.8,0.2,0.2,0.2,0.8,0.2,0.2,0.2,0.8","1","",""
"","html-keyboard-response","277","198243","0.0-277.0","3BEFOD78W7FPGT6J6LEIZSM1N894MB","A2IQ0QCTQ3KWLT","3I7KR83SNAZT1REYB2SRC49PCEEK9H","","null","<img src=""img/land2.png"" style=""width:200px;border:14px solid red;"">","null","","","","","","","","","",""
"","image-keyboard-response","278","199045","0.0-278.0","3BEFOD78W7FPGT6J6LEIZSM1N894MB","A2IQ0QCTQ3KWLT","3I7KR83SNAZT1REYB2SRC49PCEEK9H","","800.7999999998137","img/land2.png","74","801.3999999994412","1","1","1","2","0.8,0.2,0.2,0.2,0.8,0.2,0.2,0.2,0.8","0.8,0.2,0.2,0.2,0.8,0.2,0.2,0.2,0.8","1","",""
"","html-keyboard-response","279","199351","0.0-279.0","3BEFOD78W7FPGT6J6LEIZSM1N894MB","A2IQ0QCTQ3KWLT","3I7KR83SNAZT1REYB2SRC49PCEEK9H","","null","<img src=""img/land2.png"" style=""width:200px; border:14px solid green;"">","null","","","","","","","","","",""
"","image-keyboard-response","280","199677","0.0-280.0","3BEFOD78W7FPGT6J6LEIZSM1N894MB","A2IQ0QCTQ3KWLT","3I7KR83SNAZT1REYB2SRC49PCEEK9H","","325.29999999981374","img/land2.png","74","326.1000000005588","1","0","1","2","0.8,0.2,0.2,0.2,0.8,0.2,0.2,0.2,0.8","0.8,0.2,0.2,0.2,0.8,0.2,0.2,0.2,0.8","1","",""
"","html-keyboard-response","281","199979","0.0-281.0","3BEFOD78W7FPGT6J6LEIZSM1N894MB","A2IQ0QCTQ3KWLT","3I7KR83SNAZT1REYB2SRC49PCEEK9H","","null","<img src=""img/land2.png"" style=""width:200px;border:14px solid red;"">","null","","","","","","","","","",""
"","image-keyboard-response","282","200741","0.0-282.0","3BEFOD78W7FPGT6J6LEIZSM1N894MB","A2IQ0QCTQ3KWLT","3I7KR83SNAZT1REYB2SRC49PCEEK9H","","761.0999999996275","img/land2.png","74","761.9000000003725","1","0","1","2","0.8,0.2,0.2,0.2,0.8,0.2,0.2,0.2,0.8","0.8,0.2,0.2,0.2,0.8,0.2,0.2,0.2,0.8","1","",""
"","html-keyboard-response","283","201046","0.0-283.0","3BEFOD78W7FPGT6J6LEIZSM1N894MB","A2IQ0QCTQ3KWLT","3I7KR83SNAZT1REYB2SRC49PCEEK9H","","null","<img src=""img/land2.png"" style=""width:200px;border:14px solid red;"">","null","","","","","","","","","",""
"","image-keyboard-response","284","201453","0.0-284.0","3BEFOD78W7FPGT6J6LEIZSM1N894MB","A2IQ0QCTQ3KWLT","3I7KR83SNAZT1REYB2SRC49PCEEK9H","","405.6000000005588","img/land2.png","74","407.59999999962747","1","1","1","2","0.8,0.2,0.2,0.2,0.8,0.2,0.2,0.2,0.8","0.8,0.2,0.2,0.2,0.8,0.2,0.2,0.2,0.8","1","",""
"","html-keyboard-response","285","201758","0.0-285.0","3BEFOD78W7FPGT6J6LEIZSM1N894MB","A2IQ0QCTQ3KWLT","3I7KR83SNAZT1REYB2SRC49PCEEK9H","","null","<img src=""img/land2.png"" style=""width:200px; border:14px solid green;"">","null","","","","","","","","","",""
"","image-keyboard-response","286","202382","0.0-286.0","3BEFOD78W7FPGT6J6LEIZSM1N894MB","A2IQ0QCTQ3KWLT","3I7KR83SNAZT1REYB2SRC49PCEEK9H","","622.2000000001863","img/land4.png","76","623.0999999996275","3","0","3","2","0.8,0.2,0.2,0.2,0.8,0.2,0.2,0.2,0.8","0.8,0.2,0.2,0.2,0.8,0.2,0.2,0.2,0.8","1","",""
"","html-keyboard-response","287","202687","0.0-287.0","3BEFOD78W7FPGT6J6LEIZSM1N894MB","A2IQ0QCTQ3KWLT","3I7KR83SNAZT1REYB2SRC49PCEEK9H","","null","<img src=""img/land4.png"" style=""width:200px;border:14px solid red;"">","null","","","","","","","","","",""
"","image-keyboard-response","288","203213","0.0-288.0","3BEFOD78W7FPGT6J6LEIZSM1N894MB","A2IQ0QCTQ3KWLT","3I7KR83SNAZT1REYB2SRC49PCEEK9H","","525","img/land5.png","76","525.7999999998137","3","0","2","2","0.8,0.2,0.2,0.2,0.8,0.2,0.2,0.2,0.8","0.8,0.2,0.2,0.2,0.8,0.2,0.2,0.2,0.8","1","",""
"","html-keyboard-response","289","203518","0.0-289.0","3BEFOD78W7FPGT6J6LEIZSM1N894MB","A2IQ0QCTQ3KWLT","3I7KR83SNAZT1REYB2SRC49PCEEK9H","","null","<img src=""img/land5.png"" style=""width:200px;border:14px solid red;"">","null","","","","","","","","","",""
"","image-keyboard-response","290","204005","0.0-290.0","3BEFOD78W7FPGT6J6LEIZSM1N894MB","A2IQ0QCTQ3KWLT","3I7KR83SNAZT1REYB2SRC49PCEEK9H","","486.20000000018626","img/land5.png","74","487","1","1","2","2","0.8,0.2,0.2,0.2,0.8,0.2,0.2,0.2,0.8","0.8,0.2,0.2,0.2,0.8,0.2,0.2,0.2,0.8","1","",""
"","html-keyboard-response","291","204307","0.0-291.0","3BEFOD78W7FPGT6J6LEIZSM1N894MB","A2IQ0QCTQ3KWLT","3I7KR83SNAZT1REYB2SRC49PCEEK9H","","null","<img src=""img/land5.png"" style=""width:200px; border:14px solid green;"">","null","","","","","","","","","",""
"","image-keyboard-response","292","204885","0.0-292.0","3BEFOD78W7FPGT6J6LEIZSM1N894MB","A2IQ0QCTQ3KWLT","3I7KR83SNAZT1REYB2SRC49PCEEK9H","","577.2999999998137","img/land5.png","74","578","1","1","2","2","0.8,0.2,0.2,0.2,0.8,0.2,0.2,0.2,0.8","0.8,0.2,0.2,0.2,0.8,0.2,0.2,0.2,0.8","1","",""
"","html-keyboard-response","293","205187","0.0-293.0","3BEFOD78W7FPGT6J6LEIZSM1N894MB","A2IQ0QCTQ3KWLT","3I7KR83SNAZT1REYB2SRC49PCEEK9H","","null","<img src=""img/land5.png"" style=""width:200px; border:14px solid green;"">","null","","","","","","","","","",""
"","image-keyboard-response","294","206037","0.0-294.0","3BEFOD78W7FPGT6J6LEIZSM1N894MB","A2IQ0QCTQ3KWLT","3I7KR83SNAZT1REYB2SRC49PCEEK9H","","849.5","img/land2.png","74","850.1999999992549","1","1","1","2","0.8,0.2,0.2,0.2,0.8,0.2,0.2,0.2,0.8","0.8,0.2,0.2,0.2,0.8,0.2,0.2,0.2,0.8","1","",""
"","html-keyboard-response","295","206342","0.0-295.0","3BEFOD78W7FPGT6J6LEIZSM1N894MB","A2IQ0QCTQ3KWLT","3I7KR83SNAZT1REYB2SRC49PCEEK9H","","null","<img src=""img/land2.png"" style=""width:200px; border:14px solid green;"">","null","","","","","","","","","",""
"","image-keyboard-response","296","206828","0.0-296.0","3BEFOD78W7FPGT6J6LEIZSM1N894MB","A2IQ0QCTQ3KWLT","3I7KR83SNAZT1REYB2SRC49PCEEK9H","","484.30000000074506","img/land2.png","74","485","1","1","1","2","0.8,0.2,0.2,0.2,0.8,0.2,0.2,0.2,0.8","0.8,0.2,0.2,0.2,0.8,0.2,0.2,0.2,0.8","1","",""
"","html-keyboard-response","297","207131","0.0-297.0","3BEFOD78W7FPGT6J6LEIZSM1N894MB","A2IQ0QCTQ3KWLT","3I7KR83SNAZT1REYB2SRC49PCEEK9H","","null","<img src=""img/land2.png"" style=""width:200px; border:14px solid green;"">","null","","","","","","","","","",""
"","image-keyboard-response","298","207493","0.0-298.0","3BEFOD78W7FPGT6J6LEIZSM1N894MB","A2IQ0QCTQ3KWLT","3I7KR83SNAZT1REYB2SRC49PCEEK9H","","361","img/land2.png","74","361.80000000074506","1","1","1","2","0.8,0.2,0.2,0.2,0.8,0.2,0.2,0.2,0.8","0.8,0.2,0.2,0.2,0.8,0.2,0.2,0.2,0.8","1","",""
"","html-keyboard-response","299","207794","0.0-299.0","3BEFOD78W7FPGT6J6LEIZSM1N894MB","A2IQ0QCTQ3KWLT","3I7KR83SNAZT1REYB2SRC49PCEEK9H","","null","<img src=""img/land2.png"" style=""width:200px; border:14px solid green;"">","null","","","","","","","","","",""
"","image-keyboard-response","300","208589","0.0-300.0","3BEFOD78W7FPGT6J6LEIZSM1N894MB","A2IQ0QCTQ3KWLT","3I7KR83SNAZT1REYB2SRC49PCEEK9H","","793.6000000005588","img/land5.png","74","794.5","1","1","2","2","0.8,0.2,0.2,0.2,0.8,0.2,0.2,0.2,0.8","0.8,0.2,0.2,0.2,0.8,0.2,0.2,0.2,0.8","1","",""
"","html-keyboard-response","301","208892","0.0-301.0","3BEFOD78W7FPGT6J6LEIZSM1N894MB","A2IQ0QCTQ3KWLT","3I7KR83SNAZT1REYB2SRC49PCEEK9H","","null","<img src=""img/land5.png"" style=""width:200px; border:14px solid green;"">","null","","","","","","","","","",""
"","image-keyboard-response","302","210077","0.0-302.0","3BEFOD78W7FPGT6J6LEIZSM1N894MB","A2IQ0QCTQ3KWLT","3I7KR83SNAZT1REYB2SRC49PCEEK9H","","1183.7999999998137","img/land6.png","74","1184.4000000003725","1","0","1","1","0.8,0.2,0.2,0.2,0.8,0.2,0.2,0.2,0.8","0.8,0.2,0.2,0.2,0.8,0.2,0.2,0.2,0.8","1","",""
"","html-keyboard-response","303","210379","0.0-303.0","3BEFOD78W7FPGT6J6LEIZSM1N894MB","A2IQ0QCTQ3KWLT","3I7KR83SNAZT1REYB2SRC49PCEEK9H","","null","<img src=""img/land6.png"" style=""width:200px;border:14px solid red;"">","null","","","","","","","","","",""
"","image-keyboard-response","304","211397","0.0-304.0","3BEFOD78W7FPGT6J6LEIZSM1N894MB","A2IQ0QCTQ3KWLT","3I7KR83SNAZT1REYB2SRC49PCEEK9H","","1016.7000000001863","img/land1.png","76","1017.2999999998137","3","1","2","1","0.8,0.2,0.2,0.2,0.8,0.2,0.2,0.2,0.8","0.8,0.2,0.2,0.2,0.8,0.2,0.2,0.2,0.8","1","",""
"","html-keyboard-response","305","211699","0.0-305.0","3BEFOD78W7FPGT6J6LEIZSM1N894MB","A2IQ0QCTQ3KWLT","3I7KR83SNAZT1REYB2SRC49PCEEK9H","","null","<img src=""img/land1.png"" style=""width:200px; border:14px solid green;"">","null","","","","","","","","","",""
"","image-keyboard-response","306","212549","0.0-306.0","3BEFOD78W7FPGT6J6LEIZSM1N894MB","A2IQ0QCTQ3KWLT","3I7KR83SNAZT1REYB2SRC49PCEEK9H","","849","img/land3.png","75","849.7000000001863","2","0","3","1","0.8,0.2,0.2,0.2,0.8,0.2,0.2,0.2,0.8","0.8,0.2,0.2,0.2,0.8,0.2,0.2,0.2,0.8","1","",""
"","html-keyboard-response","307","212850","0.0-307.0","3BEFOD78W7FPGT6J6LEIZSM1N894MB","A2IQ0QCTQ3KWLT","3I7KR83SNAZT1REYB2SRC49PCEEK9H","","null","<img src=""img/land3.png"" style=""width:200px;border:14px solid red;"">","null","","","","","","","","","",""
"","image-keyboard-response","308","213629","0.0-308.0","3BEFOD78W7FPGT6J6LEIZSM1N894MB","A2IQ0QCTQ3KWLT","3I7KR83SNAZT1REYB2SRC49PCEEK9H","","777.2000000001863","img/land3.png","76","778","3","1","3","1","0.8,0.2,0.2,0.2,0.8,0.2,0.2,0.2,0.8","0.8,0.2,0.2,0.2,0.8,0.2,0.2,0.2,0.8","1","",""
"","html-keyboard-response","309","213931","0.0-309.0","3BEFOD78W7FPGT6J6LEIZSM1N894MB","A2IQ0QCTQ3KWLT","3I7KR83SNAZT1REYB2SRC49PCEEK9H","","null","<img src=""img/land3.png"" style=""width:200px; border:14px solid green;"">","null","","","","","","","","","",""
"","image-keyboard-response","310","214628","0.0-310.0","3BEFOD78W7FPGT6J6LEIZSM1N894MB","A2IQ0QCTQ3KWLT","3I7KR83SNAZT1REYB2SRC49PCEEK9H","","696.2999999998137","img/land6.png","76","697.1000000005588","3","0","1","1","0.8,0.2,0.2,0.2,0.8,0.2,0.2,0.2,0.8","0.8,0.2,0.2,0.2,0.8,0.2,0.2,0.2,0.8","1","",""
"","html-keyboard-response","311","214930","0.0-311.0","3BEFOD78W7FPGT6J6LEIZSM1N894MB","A2IQ0QCTQ3KWLT","3I7KR83SNAZT1REYB2SRC49PCEEK9H","","null","<img src=""img/land6.png"" style=""width:200px;border:14px solid red;"">","null","","","","","","","","","",""
"","image-keyboard-response","312","215709","0.0-312.0","3BEFOD78W7FPGT6J6LEIZSM1N894MB","A2IQ0QCTQ3KWLT","3I7KR83SNAZT1REYB2SRC49PCEEK9H","","777.3000000007451","img/land1.png","76","778.0999999996275","3","0","2","1","0.8,0.2,0.2,0.2,0.8,0.2,0.2,0.2,0.8","0.8,0.2,0.2,0.2,0.8,0.2,0.2,0.2,0.8","1","",""
"","html-keyboard-response","313","216015","0.0-313.0","3BEFOD78W7FPGT6J6LEIZSM1N894MB","A2IQ0QCTQ3KWLT","3I7KR83SNAZT1REYB2SRC49PCEEK9H","","null","<img src=""img/land1.png"" style=""width:200px;border:14px solid red;"">","null","","","","","","","","","",""
"","image-keyboard-response","314","217173","0.0-314.0","3BEFOD78W7FPGT6J6LEIZSM1N894MB","A2IQ0QCTQ3KWLT","3I7KR83SNAZT1REYB2SRC49PCEEK9H","","1157.2000000001863","img/land6.png","76","1157.8999999994412","3","0","1","1","0.8,0.2,0.2,0.2,0.8,0.2,0.2,0.2,0.8","0.8,0.2,0.2,0.2,0.8,0.2,0.2,0.2,0.8","1","",""
"","html-keyboard-response","315","217475","0.0-315.0","3BEFOD78W7FPGT6J6LEIZSM1N894MB","A2IQ0QCTQ3KWLT","3I7KR83SNAZT1REYB2SRC49PCEEK9H","","null","<img src=""img/land6.png"" style=""width:200px;border:14px solid red;"">","null","","","","","","","","","",""
"","image-keyboard-response","316","218237","0.0-316.0","3BEFOD78W7FPGT6J6LEIZSM1N894MB","A2IQ0QCTQ3KWLT","3I7KR83SNAZT1REYB2SRC49PCEEK9H","","760.7000000001863","img/land3.png","76","761.4000000003725","3","1","3","1","0.8,0.2,0.2,0.2,0.8,0.2,0.2,0.2,0.8","0.8,0.2,0.2,0.2,0.8,0.2,0.2,0.2,0.8","1","",""
"","html-keyboard-response","317","218539","0.0-317.0","3BEFOD78W7FPGT6J6LEIZSM1N894MB","A2IQ0QCTQ3KWLT","3I7KR83SNAZT1REYB2SRC49PCEEK9H","","null","<img src=""img/land3.png"" style=""width:200px; border:14px solid green;"">","null","","","","","","","","","",""
"","image-keyboard-response","318","219258","0.0-318.0","3BEFOD78W7FPGT6J6LEIZSM1N894MB","A2IQ0QCTQ3KWLT","3I7KR83SNAZT1REYB2SRC49PCEEK9H","","718.3999999994412","img/land3.png","76","719.4000000003725","3","1","3","1","0.8,0.2,0.2,0.2,0.8,0.2,0.2,0.2,0.8","0.8,0.2,0.2,0.2,0.8,0.2,0.2,0.2,0.8","1","",""
"","html-keyboard-response","319","219562","0.0-319.0","3BEFOD78W7FPGT6J6LEIZSM1N894MB","A2IQ0QCTQ3KWLT","3I7KR83SNAZT1REYB2SRC49PCEEK9H","","null","<img src=""img/land3.png"" style=""width:200px; border:14px solid green;"">","null","","","","","","","","","",""
"","image-keyboard-response","320","220085","0.0-320.0","3BEFOD78W7FPGT6J6LEIZSM1N894MB","A2IQ0QCTQ3KWLT","3I7KR83SNAZT1REYB2SRC49PCEEK9H","","521.7999999998137","img/land6.png","75","522.6000000005588","2","0","1","1","0.8,0.2,0.2,0.2,0.8,0.2,0.2,0.2,0.8","0.8,0.2,0.2,0.2,0.8,0.2,0.2,0.2,0.8","1","",""
"","html-keyboard-response","321","220386","0.0-321.0","3BEFOD78W7FPGT6J6LEIZSM1N894MB","A2IQ0QCTQ3KWLT","3I7KR83SNAZT1REYB2SRC49PCEEK9H","","null","<img src=""img/land6.png"" style=""width:200px;border:14px solid red;"">","null","","","","","","","","","",""
"","image-keyboard-response","322","220965","0.0-322.0","3BEFOD78W7FPGT6J6LEIZSM1N894MB","A2IQ0QCTQ3KWLT","3I7KR83SNAZT1REYB2SRC49PCEEK9H","","577.7999999998137","img/land6.png","74","578.7000000001863","1","1","1","1","0.8,0.2,0.2,0.2,0.8,0.2,0.2,0.2,0.8","0.8,0.2,0.2,0.2,0.8,0.2,0.2,0.2,0.8","1","",""
"","html-keyboard-response","323","221266","0.0-323.0","3BEFOD78W7FPGT6J6LEIZSM1N894MB","A2IQ0QCTQ3KWLT","3I7KR83SNAZT1REYB2SRC49PCEEK9H","","null","<img src=""img/land6.png"" style=""width:200px; border:14px solid green;"">","null","","","","","","","","","",""
"","image-keyboard-response","324","222027","0.0-324.0","3BEFOD78W7FPGT6J6LEIZSM1N894MB","A2IQ0QCTQ3KWLT","3I7KR83SNAZT1REYB2SRC49PCEEK9H","","760","img/land3.png","76","760.8999999994412","3","1","3","1","0.8,0.2,0.2,0.2,0.8,0.2,0.2,0.2,0.8","0.8,0.2,0.2,0.2,0.8,0.2,0.2,0.2,0.8","1","",""
"","html-keyboard-response","325","222331","0.0-325.0","3BEFOD78W7FPGT6J6LEIZSM1N894MB","A2IQ0QCTQ3KWLT","3I7KR83SNAZT1REYB2SRC49PCEEK9H","","null","<img src=""img/land3.png"" style=""width:200px; border:14px solid green;"">","null","","","","","","","","","",""
"","image-keyboard-response","326","222957","0.0-326.0","3BEFOD78W7FPGT6J6LEIZSM1N894MB","A2IQ0QCTQ3KWLT","3I7KR83SNAZT1REYB2SRC49PCEEK9H","","625.0999999996275","img/land3.png","76","625.8999999994412","3","1","3","1","0.8,0.2,0.2,0.2,0.8,0.2,0.2,0.2,0.8","0.8,0.2,0.2,0.2,0.8,0.2,0.2,0.2,0.8","1","",""
"","html-keyboard-response","327","223261","0.0-327.0","3BEFOD78W7FPGT6J6LEIZSM1N894MB","A2IQ0QCTQ3KWLT","3I7KR83SNAZT1REYB2SRC49PCEEK9H","","null","<img src=""img/land3.png"" style=""width:200px; border:14px solid green;"">","null","","","","","","","","","",""
"","image-keyboard-response","328","223652","0.0-328.0","3BEFOD78W7FPGT6J6LEIZSM1N894MB","A2IQ0QCTQ3KWLT","3I7KR83SNAZT1REYB2SRC49PCEEK9H","","389.59999999962747","img/land3.png","76","390.40000000037253","3","1","3","1","0.8,0.2,0.2,0.2,0.8,0.2,0.2,0.2,0.8","0.8,0.2,0.2,0.2,0.8,0.2,0.2,0.2,0.8","1","",""
"","html-keyboard-response","329","223956","0.0-329.0","3BEFOD78W7FPGT6J6LEIZSM1N894MB","A2IQ0QCTQ3KWLT","3I7KR83SNAZT1REYB2SRC49PCEEK9H","","null","<img src=""img/land3.png"" style=""width:200px; border:14px solid green;"">","null","","","","","","","","","",""
"","image-keyboard-response","330","224396","0.0-330.0","3BEFOD78W7FPGT6J6LEIZSM1N894MB","A2IQ0QCTQ3KWLT","3I7KR83SNAZT1REYB2SRC49PCEEK9H","","439.5","img/land3.png","76","440.30000000074506","3","1","3","1","0.8,0.2,0.2,0.2,0.8,0.2,0.2,0.2,0.8","0.8,0.2,0.2,0.2,0.8,0.2,0.2,0.2,0.8","1","",""
"","html-keyboard-response","331","224699","0.0-331.0","3BEFOD78W7FPGT6J6LEIZSM1N894MB","A2IQ0QCTQ3KWLT","3I7KR83SNAZT1REYB2SRC49PCEEK9H","","null","<img src=""img/land3.png"" style=""width:200px; border:14px solid green;"">","null","","","","","","","","","",""
"","image-keyboard-response","332","225388","0.0-332.0","3BEFOD78W7FPGT6J6LEIZSM1N894MB","A2IQ0QCTQ3KWLT","3I7KR83SNAZT1REYB2SRC49PCEEK9H","","688.3999999994412","img/land6.png","75","689.0999999996275","2","0","1","1","0.8,0.2,0.2,0.2,0.8,0.2,0.2,0.2,0.8","0.8,0.2,0.2,0.2,0.8,0.2,0.2,0.2,0.8","1","",""
"","html-keyboard-response","333","225691","0.0-333.0","3BEFOD78W7FPGT6J6LEIZSM1N894MB","A2IQ0QCTQ3KWLT","3I7KR83SNAZT1REYB2SRC49PCEEK9H","","null","<img src=""img/land6.png"" style=""width:200px;border:14px solid red;"">","null","","","","","","","","","",""
"","image-keyboard-response","334","226554","0.0-334.0","3BEFOD78W7FPGT6J6LEIZSM1N894MB","A2IQ0QCTQ3KWLT","3I7KR83SNAZT1REYB2SRC49PCEEK9H","","862.2000000001863","img/land1.png","75","863","2","1","2","1","0.8,0.2,0.2,0.2,0.8,0.2,0.2,0.2,0.8","0.8,0.2,0.2,0.2,0.8,0.2,0.2,0.2,0.8","1","",""
"","html-keyboard-response","335","226858","0.0-335.0","3BEFOD78W7FPGT6J6LEIZSM1N894MB","A2IQ0QCTQ3KWLT","3I7KR83SNAZT1REYB2SRC49PCEEK9H","","null","<img src=""img/land1.png"" style=""width:200px; border:14px solid green;"">","null","","","","","","","","","",""
"","image-keyboard-response","336","227252","0.0-336.0","3BEFOD78W7FPGT6J6LEIZSM1N894MB","A2IQ0QCTQ3KWLT","3I7KR83SNAZT1REYB2SRC49PCEEK9H","","393.20000000018626","img/land1.png","75","393.90000000037253","2","1","2","1","0.8,0.2,0.2,0.2,0.8,0.2,0.2,0.2,0.8","0.8,0.2,0.2,0.2,0.8,0.2,0.2,0.2,0.8","1","",""
"","html-keyboard-response","337","227557","0.0-337.0","3BEFOD78W7FPGT6J6LEIZSM1N894MB","A2IQ0QCTQ3KWLT","3I7KR83SNAZT1REYB2SRC49PCEEK9H","","null","<img src=""img/land1.png"" style=""width:200px; border:14px solid green;"">","null","","","","","","","","","",""
"","image-keyboard-response","338","227925","0.0-338.0","3BEFOD78W7FPGT6J6LEIZSM1N894MB","A2IQ0QCTQ3KWLT","3I7KR83SNAZT1REYB2SRC49PCEEK9H","","366.29999999981374","img/land1.png","75","367","2","0","2","1","0.8,0.2,0.2,0.2,0.8,0.2,0.2,0.2,0.8","0.8,0.2,0.2,0.2,0.8,0.2,0.2,0.2,0.8","1","",""
"","html-keyboard-response","339","228230","0.0-339.0","3BEFOD78W7FPGT6J6LEIZSM1N894MB","A2IQ0QCTQ3KWLT","3I7KR83SNAZT1REYB2SRC49PCEEK9H","","null","<img src=""img/land1.png"" style=""width:200px;border:14px solid red;"">","null","","","","","","","","","",""
"","image-keyboard-response","340","228891","0.0-340.0","3BEFOD78W7FPGT6J6LEIZSM1N894MB","A2IQ0QCTQ3KWLT","3I7KR83SNAZT1REYB2SRC49PCEEK9H","","660.5999999996275","img/land3.png","76","661.2999999998137","3","1","3","1","0.8,0.2,0.2,0.2,0.8,0.2,0.2,0.2,0.8","0.8,0.2,0.2,0.2,0.8,0.2,0.2,0.2,0.8","1","",""
"","html-keyboard-response","341","229198","0.0-341.0","3BEFOD78W7FPGT6J6LEIZSM1N894MB","A2IQ0QCTQ3KWLT","3I7KR83SNAZT1REYB2SRC49PCEEK9H","","null","<img src=""img/land3.png"" style=""width:200px; border:14px solid green;"">","null","","","","","","","","","",""
"","image-keyboard-response","342","229604","0.0-342.0","3BEFOD78W7FPGT6J6LEIZSM1N894MB","A2IQ0QCTQ3KWLT","3I7KR83SNAZT1REYB2SRC49PCEEK9H","","405.29999999981374","img/land3.png","76","406.1000000005588","3","1","3","1","0.8,0.2,0.2,0.2,0.8,0.2,0.2,0.2,0.8","0.8,0.2,0.2,0.2,0.8,0.2,0.2,0.2,0.8","1","",""
"","html-keyboard-response","343","229907","0.0-343.0","3BEFOD78W7FPGT6J6LEIZSM1N894MB","A2IQ0QCTQ3KWLT","3I7KR83SNAZT1REYB2SRC49PCEEK9H","","null","<img src=""img/land3.png"" style=""width:200px; border:14px solid green;"">","null","","","","","","","","","",""
"","image-keyboard-response","344","231404","0.0-344.0","3BEFOD78W7FPGT6J6LEIZSM1N894MB","A2IQ0QCTQ3KWLT","3I7KR83SNAZT1REYB2SRC49PCEEK9H","","1496.7000000001863","img/land1.png","74","1497.6000000005588","1","0","2","1","0.8,0.2,0.2,0.2,0.8,0.2,0.2,0.2,0.8","0.8,0.2,0.2,0.2,0.8,0.2,0.2,0.2,0.8","1","",""
"","html-keyboard-response","345","231711","0.0-345.0","3BEFOD78W7FPGT6J6LEIZSM1N894MB","A2IQ0QCTQ3KWLT","3I7KR83SNAZT1REYB2SRC49PCEEK9H","","null","<img src=""img/land1.png"" style=""width:200px;border:14px solid red;"">","null","","","","","","","","","",""
"","image-keyboard-response","346","232372","0.0-346.0","3BEFOD78W7FPGT6J6LEIZSM1N894MB","A2IQ0QCTQ3KWLT","3I7KR83SNAZT1REYB2SRC49PCEEK9H","","660.7999999998137","img/land1.png","74","661.5","1","0","2","1","0.8,0.2,0.2,0.2,0.8,0.2,0.2,0.2,0.8","0.8,0.2,0.2,0.2,0.8,0.2,0.2,0.2,0.8","1","",""
"","html-keyboard-response","347","232673","0.0-347.0","3BEFOD78W7FPGT6J6LEIZSM1N894MB","A2IQ0QCTQ3KWLT","3I7KR83SNAZT1REYB2SRC49PCEEK9H","","null","<img src=""img/land1.png"" style=""width:200px;border:14px solid red;"">","null","","","","","","","","","",""
"","image-keyboard-response","348","233283","0.0-348.0","3BEFOD78W7FPGT6J6LEIZSM1N894MB","A2IQ0QCTQ3KWLT","3I7KR83SNAZT1REYB2SRC49PCEEK9H","","608.4000000003725","img/land3.png","76","609.1000000005588","3","1","3","1","0.8,0.2,0.2,0.2,0.8,0.2,0.2,0.2,0.8","0.8,0.2,0.2,0.2,0.8,0.2,0.2,0.2,0.8","1","",""
"","html-keyboard-response","349","233586","0.0-349.0","3BEFOD78W7FPGT6J6LEIZSM1N894MB","A2IQ0QCTQ3KWLT","3I7KR83SNAZT1REYB2SRC49PCEEK9H","","null","<img src=""img/land3.png"" style=""width:200px; border:14px solid green;"">","null","","","","","","","","","",""
"","image-keyboard-response","350","234331","0.0-350.0","3BEFOD78W7FPGT6J6LEIZSM1N894MB","A2IQ0QCTQ3KWLT","3I7KR83SNAZT1REYB2SRC49PCEEK9H","","743.7000000001863","img/land6.png","74","744.5","1","1","1","1","0.8,0.2,0.2,0.2,0.8,0.2,0.2,0.2,0.8","0.8,0.2,0.2,0.2,0.8,0.2,0.2,0.2,0.8","1","",""
"","html-keyboard-response","351","234633","0.0-351.0","3BEFOD78W7FPGT6J6LEIZSM1N894MB","A2IQ0QCTQ3KWLT","3I7KR83SNAZT1REYB2SRC49PCEEK9H","","null","<img src=""img/land6.png"" style=""width:200px; border:14px solid green;"">","null","","","","","","","","","",""
"","image-keyboard-response","352","235423","0.0-352.0","3BEFOD78W7FPGT6J6LEIZSM1N894MB","A2IQ0QCTQ3KWLT","3I7KR83SNAZT1REYB2SRC49PCEEK9H","","788.6999999992549","img/land1.png","75","789.7999999998137","2","1","2","1","0.8,0.2,0.2,0.2,0.8,0.2,0.2,0.2,0.8","0.8,0.2,0.2,0.2,0.8,0.2,0.2,0.2,0.8","1","",""
"","html-keyboard-response","353","235728","0.0-353.0","3BEFOD78W7FPGT6J6LEIZSM1N894MB","A2IQ0QCTQ3KWLT","3I7KR83SNAZT1REYB2SRC49PCEEK9H","","null","<img src=""img/land1.png"" style=""width:200px; border:14px solid green;"">","null","","","","","","","","","",""
