"success","trial_type","trial_index","time_elapsed","internal_node_id","assignmentID","mturkID","hitID","view_history","rt","stimulus","key_press","reactionTime","a","r","s","reward_cond","responses","question_order"
"true","fullscreen","0","2363","0.0-0.0","3NC5L260MP8NECOK3IPEI08X5JEFOA","A2J1ANUL0BYKUK","30F94FBDNR6BS3JI3VKF41RBJN4TBU","","","","","","","","","","",""
"","instructions","1","12286","0.0-1.0","3NC5L260MP8NECOK3IPEI08X5JEFOA","A2J1ANUL0BYKUK","30F94FBDNR6BS3JI3VKF41RBJN4TBU","[{""page_index"":0,""viewing_time"":3067.7000000476837},{""page_index"":1,""viewing_time"":2523.399999856949},{""page_index"":2,""viewing_time"":782.2000000476837},{""page_index"":3,""viewing_time"":1049.6000001430511},{""page_index"":4,""viewing_time"":946.8999998569489},{""page_index"":5,""viewing_time"":780.5},{""page_index"":6,""viewing_time"":772}]","9922.599999904633","","","","","","","","",""
"","image-keyboard-response","2","13964","0.0-2.0","3NC5L260MP8NECOK3IPEI08X5JEFOA","A2J1ANUL0BYKUK","30F94FBDNR6BS3JI3VKF41RBJN4TBU","","1677","img/land3.png","74","1677.5999999046326","1","1","3","1,0.5,0.5,0.5,1,0.5,0.5,0.5,1","",""
"","html-keyboard-response","3","14271","0.0-3.0","3NC5L260MP8NECOK3IPEI08X5JEFOA","A2J1ANUL0BYKUK","30F94FBDNR6BS3JI3VKF41RBJN4TBU","","null","<img src=""img/land3.png"" style=""width:200px; border:14px solid green;"">","null","","","","","","",""
"","image-keyboard-response","4","14968","0.0-4.0","3NC5L260MP8NECOK3IPEI08X5JEFOA","A2J1ANUL0BYKUK","30F94FBDNR6BS3JI3VKF41RBJN4TBU","","696.5","img/land1.png","75","697.1000001430511","2","0","1","1,0.5,0.5,0.5,1,0.5,0.5,0.5,1","",""
"","html-keyboard-response","5","15272","0.0-5.0","3NC5L260MP8NECOK3IPEI08X5JEFOA","A2J1ANUL0BYKUK","30F94FBDNR6BS3JI3VKF41RBJN4TBU","","null","<img src=""img/land1.png"" style=""width:200px;border:14px solid red;"">","null","","","","","","",""
"","image-keyboard-response","6","15918","0.0-6.0","3NC5L260MP8NECOK3IPEI08X5JEFOA","A2J1ANUL0BYKUK","30F94FBDNR6BS3JI3VKF41RBJN4TBU","","644.8999998569489","img/land1.png","76","645.5","3","0","1","1,0.5,0.5,0.5,1,0.5,0.5,0.5,1","",""
"","html-keyboard-response","7","16230","0.0-7.0","3NC5L260MP8NECOK3IPEI08X5JEFOA","A2J1ANUL0BYKUK","30F94FBDNR6BS3JI3VKF41RBJN4TBU","","null","<img src=""img/land1.png"" style=""width:200px;border:14px solid red;"">","null","","","","","","",""
"","image-keyboard-response","8","16825","0.0-8.0","3NC5L260MP8NECOK3IPEI08X5JEFOA","A2J1ANUL0BYKUK","30F94FBDNR6BS3JI3VKF41RBJN4TBU","","594","img/land2.png","74","594.3999998569489","1","1","2","1,0.5,0.5,0.5,1,0.5,0.5,0.5,1","",""
"","html-keyboard-response","9","17141","0.0-9.0","3NC5L260MP8NECOK3IPEI08X5JEFOA","A2J1ANUL0BYKUK","30F94FBDNR6BS3JI3VKF41RBJN4TBU","","null","<img src=""img/land2.png"" style=""width:200px; border:14px solid green;"">","null","","","","","","",""
"","image-keyboard-response","10","17451","0.0-10.0","3NC5L260MP8NECOK3IPEI08X5JEFOA","A2J1ANUL0BYKUK","30F94FBDNR6BS3JI3VKF41RBJN4TBU","","309.5","img/land2.png","74","310","1","0","2","1,0.5,0.5,0.5,1,0.5,0.5,0.5,1","",""
"","html-keyboard-response","11","17766","0.0-11.0","3NC5L260MP8NECOK3IPEI08X5JEFOA","A2J1ANUL0BYKUK","30F94FBDNR6BS3JI3VKF41RBJN4TBU","","null","<img src=""img/land2.png"" style=""width:200px;border:14px solid red;"">","null","","","","","","",""
"","image-keyboard-response","12","18540","0.0-12.0","3NC5L260MP8NECOK3IPEI08X5JEFOA","A2J1ANUL0BYKUK","30F94FBDNR6BS3JI3VKF41RBJN4TBU","","773.0999999046326","img/land3.png","75","773.5999999046326","2","0","3","1,0.5,0.5,0.5,1,0.5,0.5,0.5,1","",""
"","html-keyboard-response","13","18855","0.0-13.0","3NC5L260MP8NECOK3IPEI08X5JEFOA","A2J1ANUL0BYKUK","30F94FBDNR6BS3JI3VKF41RBJN4TBU","","null","<img src=""img/land3.png"" style=""width:200px;border:14px solid red;"">","null","","","","","","",""
"","image-keyboard-response","14","20143","0.0-14.0","3NC5L260MP8NECOK3IPEI08X5JEFOA","A2J1ANUL0BYKUK","30F94FBDNR6BS3JI3VKF41RBJN4TBU","","1287.2000000476837","img/land2.png","76","1287.7999999523163","3","1","2","1,0.5,0.5,0.5,1,0.5,0.5,0.5,1","",""
"","html-keyboard-response","15","20446","0.0-15.0","3NC5L260MP8NECOK3IPEI08X5JEFOA","A2J1ANUL0BYKUK","30F94FBDNR6BS3JI3VKF41RBJN4TBU","","null","<img src=""img/land2.png"" style=""width:200px; border:14px solid green;"">","null","","","","","","",""
"","image-keyboard-response","16","21001","0.0-16.0","3NC5L260MP8NECOK3IPEI08X5JEFOA","A2J1ANUL0BYKUK","30F94FBDNR6BS3JI3VKF41RBJN4TBU","","554.2999999523163","img/land1.png","74","554.7999999523163","1","1","1","1,0.5,0.5,0.5,1,0.5,0.5,0.5,1","",""
"","html-keyboard-response","17","21304","0.0-17.0","3NC5L260MP8NECOK3IPEI08X5JEFOA","A2J1ANUL0BYKUK","30F94FBDNR6BS3JI3VKF41RBJN4TBU","","null","<img src=""img/land1.png"" style=""width:200px; border:14px solid green;"">","null","","","","","","",""
"","image-keyboard-response","18","21864","0.0-18.0","3NC5L260MP8NECOK3IPEI08X5JEFOA","A2J1ANUL0BYKUK","30F94FBDNR6BS3JI3VKF41RBJN4TBU","","559.5999999046326","img/land3.png","74","559.7999999523163","1","1","3","1,0.5,0.5,0.5,1,0.5,0.5,0.5,1","",""
"","html-keyboard-response","19","22176","0.0-19.0","3NC5L260MP8NECOK3IPEI08X5JEFOA","A2J1ANUL0BYKUK","30F94FBDNR6BS3JI3VKF41RBJN4TBU","","null","<img src=""img/land3.png"" style=""width:200px; border:14px solid green;"">","null","","","","","","",""
"","image-keyboard-response","20","22396","0.0-20.0","3NC5L260MP8NECOK3IPEI08X5JEFOA","A2J1ANUL0BYKUK","30F94FBDNR6BS3JI3VKF41RBJN4TBU","","219.30000019073486","img/land2.png","74","219.70000004768372","1","0","2","1,0.5,0.5,0.5,1,0.5,0.5,0.5,1","",""
"","html-keyboard-response","21","22708","0.0-21.0","3NC5L260MP8NECOK3IPEI08X5JEFOA","A2J1ANUL0BYKUK","30F94FBDNR6BS3JI3VKF41RBJN4TBU","","null","<img src=""img/land2.png"" style=""width:200px;border:14px solid red;"">","null","","","","","","",""
"","image-keyboard-response","22","23010","0.0-22.0","3NC5L260MP8NECOK3IPEI08X5JEFOA","A2J1ANUL0BYKUK","30F94FBDNR6BS3JI3VKF41RBJN4TBU","","301.2999999523163","img/land2.png","74","301.7000000476837","1","1","2","1,0.5,0.5,0.5,1,0.5,0.5,0.5,1","",""
"","html-keyboard-response","23","23317","0.0-23.0","3NC5L260MP8NECOK3IPEI08X5JEFOA","A2J1ANUL0BYKUK","30F94FBDNR6BS3JI3VKF41RBJN4TBU","","null","<img src=""img/land2.png"" style=""width:200px; border:14px solid green;"">","null","","","","","","",""
"","image-keyboard-response","24","23471","0.0-24.0","3NC5L260MP8NECOK3IPEI08X5JEFOA","A2J1ANUL0BYKUK","30F94FBDNR6BS3JI3VKF41RBJN4TBU","","152.79999995231628","img/land2.png","74","153.29999995231628","1","1","2","1,0.5,0.5,0.5,1,0.5,0.5,0.5,1","",""
"","html-keyboard-response","25","23785","0.0-25.0","3NC5L260MP8NECOK3IPEI08X5JEFOA","A2J1ANUL0BYKUK","30F94FBDNR6BS3JI3VKF41RBJN4TBU","","null","<img src=""img/land2.png"" style=""width:200px; border:14px solid green;"">","null","","","","","","",""
"","image-keyboard-response","26","23914","0.0-26.0","3NC5L260MP8NECOK3IPEI08X5JEFOA","A2J1ANUL0BYKUK","30F94FBDNR6BS3JI3VKF41RBJN4TBU","","128.29999995231628","img/land3.png","74","128.90000009536743","1","1","3","1,0.5,0.5,0.5,1,0.5,0.5,0.5,1","",""
"","html-keyboard-response","27","24221","0.0-27.0","3NC5L260MP8NECOK3IPEI08X5JEFOA","A2J1ANUL0BYKUK","30F94FBDNR6BS3JI3VKF41RBJN4TBU","","null","<img src=""img/land3.png"" style=""width:200px; border:14px solid green;"">","null","","","","","","",""
"","image-keyboard-response","28","24366","0.0-28.0","3NC5L260MP8NECOK3IPEI08X5JEFOA","A2J1ANUL0BYKUK","30F94FBDNR6BS3JI3VKF41RBJN4TBU","","143.70000004768372","img/land2.png","74","144.19999980926514","1","0","2","1,0.5,0.5,0.5,1,0.5,0.5,0.5,1","",""
"","html-keyboard-response","29","24675","0.0-29.0","3NC5L260MP8NECOK3IPEI08X5JEFOA","A2J1ANUL0BYKUK","30F94FBDNR6BS3JI3VKF41RBJN4TBU","","null","<img src=""img/land2.png"" style=""width:200px;border:14px solid red;"">","null","","","","","","",""
"","image-keyboard-response","30","24939","0.0-30.0","3NC5L260MP8NECOK3IPEI08X5JEFOA","A2J1ANUL0BYKUK","30F94FBDNR6BS3JI3VKF41RBJN4TBU","","263.09999990463257","img/land1.png","75","263.60000014305115","2","1","1","1,0.5,0.5,0.5,1,0.5,0.5,0.5,1","",""
"","html-keyboard-response","31","25251","0.0-31.0","3NC5L260MP8NECOK3IPEI08X5JEFOA","A2J1ANUL0BYKUK","30F94FBDNR6BS3JI3VKF41RBJN4TBU","","null","<img src=""img/land1.png"" style=""width:200px; border:14px solid green;"">","null","","","","","","",""
"","image-keyboard-response","32","25501","0.0-32.0","3NC5L260MP8NECOK3IPEI08X5JEFOA","A2J1ANUL0BYKUK","30F94FBDNR6BS3JI3VKF41RBJN4TBU","","248.79999995231628","img/land1.png","75","249.20000004768372","2","1","1","1,0.5,0.5,0.5,1,0.5,0.5,0.5,1","",""
"","html-keyboard-response","33","25814","0.0-33.0","3NC5L260MP8NECOK3IPEI08X5JEFOA","A2J1ANUL0BYKUK","30F94FBDNR6BS3JI3VKF41RBJN4TBU","","null","<img src=""img/land1.png"" style=""width:200px; border:14px solid green;"">","null","","","","","","",""
"","image-keyboard-response","34","26019","0.0-34.0","3NC5L260MP8NECOK3IPEI08X5JEFOA","A2J1ANUL0BYKUK","30F94FBDNR6BS3JI3VKF41RBJN4TBU","","204.40000009536743","img/land2.png","75","204.79999995231628","2","1","2","1,0.5,0.5,0.5,1,0.5,0.5,0.5,1","",""
"","html-keyboard-response","35","26329","0.0-35.0","3NC5L260MP8NECOK3IPEI08X5JEFOA","A2J1ANUL0BYKUK","30F94FBDNR6BS3JI3VKF41RBJN4TBU","","null","<img src=""img/land2.png"" style=""width:200px; border:14px solid green;"">","null","","","","","","",""
"","image-keyboard-response","36","26538","0.0-36.0","3NC5L260MP8NECOK3IPEI08X5JEFOA","A2J1ANUL0BYKUK","30F94FBDNR6BS3JI3VKF41RBJN4TBU","","208.79999995231628","img/land3.png","75","209.30000019073486","2","1","3","1,0.5,0.5,0.5,1,0.5,0.5,0.5,1","",""
"","html-keyboard-response","37","26845","0.0-37.0","3NC5L260MP8NECOK3IPEI08X5JEFOA","A2J1ANUL0BYKUK","30F94FBDNR6BS3JI3VKF41RBJN4TBU","","null","<img src=""img/land3.png"" style=""width:200px; border:14px solid green;"">","null","","","","","","",""
"","image-keyboard-response","38","27077","0.0-38.0","3NC5L260MP8NECOK3IPEI08X5JEFOA","A2J1ANUL0BYKUK","30F94FBDNR6BS3JI3VKF41RBJN4TBU","","231.59999990463257","img/land3.png","75","232","2","1","3","1,0.5,0.5,0.5,1,0.5,0.5,0.5,1","",""
"","html-keyboard-response","39","27390","0.0-39.0","3NC5L260MP8NECOK3IPEI08X5JEFOA","A2J1ANUL0BYKUK","30F94FBDNR6BS3JI3VKF41RBJN4TBU","","null","<img src=""img/land3.png"" style=""width:200px; border:14px solid green;"">","null","","","","","","",""
"","image-keyboard-response","40","27618","0.0-40.0","3NC5L260MP8NECOK3IPEI08X5JEFOA","A2J1ANUL0BYKUK","30F94FBDNR6BS3JI3VKF41RBJN4TBU","","227.79999995231628","img/land3.png","75","228.20000004768372","2","0","3","1,0.5,0.5,0.5,1,0.5,0.5,0.5,1","",""
"","html-keyboard-response","41","27922","0.0-41.0","3NC5L260MP8NECOK3IPEI08X5JEFOA","A2J1ANUL0BYKUK","30F94FBDNR6BS3JI3VKF41RBJN4TBU","","null","<img src=""img/land3.png"" style=""width:200px;border:14px solid red;"">","null","","","","","","",""
"","image-keyboard-response","42","28141","0.0-42.0","3NC5L260MP8NECOK3IPEI08X5JEFOA","A2J1ANUL0BYKUK","30F94FBDNR6BS3JI3VKF41RBJN4TBU","","218.09999990463257","img/land2.png","76","218.59999990463257","3","1","2","1,0.5,0.5,0.5,1,0.5,0.5,0.5,1","",""
"","html-keyboard-response","43","28451","0.0-43.0","3NC5L260MP8NECOK3IPEI08X5JEFOA","A2J1ANUL0BYKUK","30F94FBDNR6BS3JI3VKF41RBJN4TBU","","null","<img src=""img/land2.png"" style=""width:200px; border:14px solid green;"">","null","","","","","","",""
"","image-keyboard-response","44","28667","0.0-44.0","3NC5L260MP8NECOK3IPEI08X5JEFOA","A2J1ANUL0BYKUK","30F94FBDNR6BS3JI3VKF41RBJN4TBU","","215.19999980926514","img/land2.png","76","215.60000014305115","3","1","2","1,0.5,0.5,0.5,1,0.5,0.5,0.5,1","",""
"","html-keyboard-response","45","28983","0.0-45.0","3NC5L260MP8NECOK3IPEI08X5JEFOA","A2J1ANUL0BYKUK","30F94FBDNR6BS3JI3VKF41RBJN4TBU","","null","<img src=""img/land2.png"" style=""width:200px; border:14px solid green;"">","null","","","","","","",""
"","image-keyboard-response","46","29199","0.0-46.0","3NC5L260MP8NECOK3IPEI08X5JEFOA","A2J1ANUL0BYKUK","30F94FBDNR6BS3JI3VKF41RBJN4TBU","","214.5","img/land1.png","76","214.89999985694885","3","1","1","1,0.5,0.5,0.5,1,0.5,0.5,0.5,1","",""
"","html-keyboard-response","47","29513","0.0-47.0","3NC5L260MP8NECOK3IPEI08X5JEFOA","A2J1ANUL0BYKUK","30F94FBDNR6BS3JI3VKF41RBJN4TBU","","null","<img src=""img/land1.png"" style=""width:200px; border:14px solid green;"">","null","","","","","","",""
"","image-keyboard-response","48","29704","0.0-48.0","3NC5L260MP8NECOK3IPEI08X5JEFOA","A2J1ANUL0BYKUK","30F94FBDNR6BS3JI3VKF41RBJN4TBU","","191.09999990463257","img/land3.png","76","191.5","3","1","3","1,0.5,0.5,0.5,1,0.5,0.5,0.5,1","",""
"","html-keyboard-response","49","30013","0.0-49.0","3NC5L260MP8NECOK3IPEI08X5JEFOA","A2J1ANUL0BYKUK","30F94FBDNR6BS3JI3VKF41RBJN4TBU","","null","<img src=""img/land3.png"" style=""width:200px; border:14px solid green;"">","null","","","","","","",""
"","image-keyboard-response","50","30242","0.0-50.0","3NC5L260MP8NECOK3IPEI08X5JEFOA","A2J1ANUL0BYKUK","30F94FBDNR6BS3JI3VKF41RBJN4TBU","","228.70000004768372","img/land1.png","76","229.10000014305115","3","0","1","1,0.5,0.5,0.5,1,0.5,0.5,0.5,1","",""
"","html-keyboard-response","51","30543","0.0-51.0","3NC5L260MP8NECOK3IPEI08X5JEFOA","A2J1ANUL0BYKUK","30F94FBDNR6BS3JI3VKF41RBJN4TBU","","null","<img src=""img/land1.png"" style=""width:200px;border:14px solid red;"">","null","","","","","","",""
"","image-keyboard-response","52","30815","0.0-52.0","3NC5L260MP8NECOK3IPEI08X5JEFOA","A2J1ANUL0BYKUK","30F94FBDNR6BS3JI3VKF41RBJN4TBU","","270.40000009536743","img/land1.png","74","271","1","1","1","1,0.5,0.5,0.5,1,0.5,0.5,0.5,1","",""
"","html-keyboard-response","53","31117","0.0-53.0","3NC5L260MP8NECOK3IPEI08X5JEFOA","A2J1ANUL0BYKUK","30F94FBDNR6BS3JI3VKF41RBJN4TBU","","null","<img src=""img/land1.png"" style=""width:200px; border:14px solid green;"">","null","","","","","","",""
"","image-keyboard-response","54","31342","0.0-54.0","3NC5L260MP8NECOK3IPEI08X5JEFOA","A2J1ANUL0BYKUK","30F94FBDNR6BS3JI3VKF41RBJN4TBU","","224.70000004768372","img/land2.png","74","225.10000014305115","1","1","2","1,0.5,0.5,0.5,1,0.5,0.5,0.5,1","",""
"","html-keyboard-response","55","31644","0.0-55.0","3NC5L260MP8NECOK3IPEI08X5JEFOA","A2J1ANUL0BYKUK","30F94FBDNR6BS3JI3VKF41RBJN4TBU","","null","<img src=""img/land2.png"" style=""width:200px; border:14px solid green;"">","null","","","","","","",""
"","image-keyboard-response","56","31856","0.0-56.0","3NC5L260MP8NECOK3IPEI08X5JEFOA","A2J1ANUL0BYKUK","30F94FBDNR6BS3JI3VKF41RBJN4TBU","","211.79999995231628","img/land2.png","74","212.20000004768372","1","0","2","1,0.5,0.5,0.5,1,0.5,0.5,0.5,1","",""
"","html-keyboard-response","57","32157","0.0-57.0","3NC5L260MP8NECOK3IPEI08X5JEFOA","A2J1ANUL0BYKUK","30F94FBDNR6BS3JI3VKF41RBJN4TBU","","null","<img src=""img/land2.png"" style=""width:200px;border:14px solid red;"">","null","","","","","","",""
"","image-keyboard-response","58","32324","0.0-58.0","3NC5L260MP8NECOK3IPEI08X5JEFOA","A2J1ANUL0BYKUK","30F94FBDNR6BS3JI3VKF41RBJN4TBU","","166.5","img/land2.png","75","167","2","1","2","1,0.5,0.5,0.5,1,0.5,0.5,0.5,1","",""
"","html-keyboard-response","59","32626","0.0-59.0","3NC5L260MP8NECOK3IPEI08X5JEFOA","A2J1ANUL0BYKUK","30F94FBDNR6BS3JI3VKF41RBJN4TBU","","null","<img src=""img/land2.png"" style=""width:200px; border:14px solid green;"">","null","","","","","","",""
"","image-keyboard-response","60","32825","0.0-60.0","3NC5L260MP8NECOK3IPEI08X5JEFOA","A2J1ANUL0BYKUK","30F94FBDNR6BS3JI3VKF41RBJN4TBU","","197.79999995231628","img/land1.png","75","198.20000004768372","2","0","1","1,0.5,0.5,0.5,1,0.5,0.5,0.5,1","",""
"","html-keyboard-response","61","33139","0.0-61.0","3NC5L260MP8NECOK3IPEI08X5JEFOA","A2J1ANUL0BYKUK","30F94FBDNR6BS3JI3VKF41RBJN4TBU","","null","<img src=""img/land1.png"" style=""width:200px;border:14px solid red;"">","null","","","","","","",""
"","image-keyboard-response","62","33654","0.0-62.0","3NC5L260MP8NECOK3IPEI08X5JEFOA","A2J1ANUL0BYKUK","30F94FBDNR6BS3JI3VKF41RBJN4TBU","","513.7999999523163","img/land3.png","74","514.2000000476837","1","0","3","1,0.5,0.5,0.5,1,0.5,0.5,0.5,1","",""
"","html-keyboard-response","63","33955","0.0-63.0","3NC5L260MP8NECOK3IPEI08X5JEFOA","A2J1ANUL0BYKUK","30F94FBDNR6BS3JI3VKF41RBJN4TBU","","null","<img src=""img/land3.png"" style=""width:200px;border:14px solid red;"">","null","","","","","","",""
"","image-keyboard-response","64","34246","0.0-64.0","3NC5L260MP8NECOK3IPEI08X5JEFOA","A2J1ANUL0BYKUK","30F94FBDNR6BS3JI3VKF41RBJN4TBU","","290.5","img/land1.png","76","291","3","1","1","1,0.5,0.5,0.5,1,0.5,0.5,0.5,1","",""
"","html-keyboard-response","65","34548","0.0-65.0","3NC5L260MP8NECOK3IPEI08X5JEFOA","A2J1ANUL0BYKUK","30F94FBDNR6BS3JI3VKF41RBJN4TBU","","null","<img src=""img/land1.png"" style=""width:200px; border:14px solid green;"">","null","","","","","","",""
"","image-keyboard-response","66","34756","0.0-66.0","3NC5L260MP8NECOK3IPEI08X5JEFOA","A2J1ANUL0BYKUK","30F94FBDNR6BS3JI3VKF41RBJN4TBU","","208","img/land3.png","76","208.30000019073486","3","1","3","1,0.5,0.5,0.5,1,0.5,0.5,0.5,1","",""
"","html-keyboard-response","67","35058","0.0-67.0","3NC5L260MP8NECOK3IPEI08X5JEFOA","A2J1ANUL0BYKUK","30F94FBDNR6BS3JI3VKF41RBJN4TBU","","null","<img src=""img/land3.png"" style=""width:200px; border:14px solid green;"">","null","","","","","","",""
"","image-keyboard-response","68","35526","0.0-68.0","3NC5L260MP8NECOK3IPEI08X5JEFOA","A2J1ANUL0BYKUK","30F94FBDNR6BS3JI3VKF41RBJN4TBU","","467.5","img/land3.png","76","467.80000019073486","3","1","3","1,0.5,0.5,0.5,1,0.5,0.5,0.5,1","",""
"","html-keyboard-response","69","35830","0.0-69.0","3NC5L260MP8NECOK3IPEI08X5JEFOA","A2J1ANUL0BYKUK","30F94FBDNR6BS3JI3VKF41RBJN4TBU","","null","<img src=""img/land3.png"" style=""width:200px; border:14px solid green;"">","null","","","","","","",""
"","image-keyboard-response","70","36230","0.0-70.0","3NC5L260MP8NECOK3IPEI08X5JEFOA","A2J1ANUL0BYKUK","30F94FBDNR6BS3JI3VKF41RBJN4TBU","","399.40000009536743","img/land3.png","76","399.90000009536743","3","1","3","1,0.5,0.5,0.5,1,0.5,0.5,0.5,1","",""
"","html-keyboard-response","71","36532","0.0-71.0","3NC5L260MP8NECOK3IPEI08X5JEFOA","A2J1ANUL0BYKUK","30F94FBDNR6BS3JI3VKF41RBJN4TBU","","null","<img src=""img/land3.png"" style=""width:200px; border:14px solid green;"">","null","","","","","","",""
"","image-keyboard-response","72","36840","0.0-72.0","3NC5L260MP8NECOK3IPEI08X5JEFOA","A2J1ANUL0BYKUK","30F94FBDNR6BS3JI3VKF41RBJN4TBU","","307.5","img/land3.png","74","308","1","1","3","1,0.5,0.5,0.5,1,0.5,0.5,0.5,1","",""
"","html-keyboard-response","73","37141","0.0-73.0","3NC5L260MP8NECOK3IPEI08X5JEFOA","A2J1ANUL0BYKUK","30F94FBDNR6BS3JI3VKF41RBJN4TBU","","null","<img src=""img/land3.png"" style=""width:200px; border:14px solid green;"">","null","","","","","","",""
"","image-keyboard-response","74","37350","0.0-74.0","3NC5L260MP8NECOK3IPEI08X5JEFOA","A2J1ANUL0BYKUK","30F94FBDNR6BS3JI3VKF41RBJN4TBU","","208.09999990463257","img/land1.png","74","208.70000004768372","1","1","1","1,0.5,0.5,0.5,1,0.5,0.5,0.5,1","",""
"","html-keyboard-response","75","37651","0.0-75.0","3NC5L260MP8NECOK3IPEI08X5JEFOA","A2J1ANUL0BYKUK","30F94FBDNR6BS3JI3VKF41RBJN4TBU","","null","<img src=""img/land1.png"" style=""width:200px; border:14px solid green;"">","null","","","","","","",""
"","image-keyboard-response","76","37940","0.0-76.0","3NC5L260MP8NECOK3IPEI08X5JEFOA","A2J1ANUL0BYKUK","30F94FBDNR6BS3JI3VKF41RBJN4TBU","","288.60000014305115","img/land1.png","74","288.89999985694885","1","1","1","1,0.5,0.5,0.5,1,0.5,0.5,0.5,1","",""
"","html-keyboard-response","77","38242","0.0-77.0","3NC5L260MP8NECOK3IPEI08X5JEFOA","A2J1ANUL0BYKUK","30F94FBDNR6BS3JI3VKF41RBJN4TBU","","null","<img src=""img/land1.png"" style=""width:200px; border:14px solid green;"">","null","","","","","","",""
"","image-keyboard-response","78","38519","0.0-78.0","3NC5L260MP8NECOK3IPEI08X5JEFOA","A2J1ANUL0BYKUK","30F94FBDNR6BS3JI3VKF41RBJN4TBU","","276.5","img/land3.png","74","277","1","0","3","1,0.5,0.5,0.5,1,0.5,0.5,0.5,1","",""
"","html-keyboard-response","79","38820","0.0-79.0","3NC5L260MP8NECOK3IPEI08X5JEFOA","A2J1ANUL0BYKUK","30F94FBDNR6BS3JI3VKF41RBJN4TBU","","null","<img src=""img/land3.png"" style=""width:200px;border:14px solid red;"">","null","","","","","","",""
"","image-keyboard-response","80","39021","0.0-80.0","3NC5L260MP8NECOK3IPEI08X5JEFOA","A2J1ANUL0BYKUK","30F94FBDNR6BS3JI3VKF41RBJN4TBU","","200","img/land1.png","75","200.29999995231628","2","1","1","1,0.5,0.5,0.5,1,0.5,0.5,0.5,1","",""
"","html-keyboard-response","81","39323","0.0-81.0","3NC5L260MP8NECOK3IPEI08X5JEFOA","A2J1ANUL0BYKUK","30F94FBDNR6BS3JI3VKF41RBJN4TBU","","null","<img src=""img/land1.png"" style=""width:200px; border:14px solid green;"">","null","","","","","","",""
"","image-keyboard-response","82","39535","0.0-82.0","3NC5L260MP8NECOK3IPEI08X5JEFOA","A2J1ANUL0BYKUK","30F94FBDNR6BS3JI3VKF41RBJN4TBU","","210.79999995231628","img/land1.png","75","211.19999980926514","2","0","1","1,0.5,0.5,0.5,1,0.5,0.5,0.5,1","",""
"","html-keyboard-response","83","39836","0.0-83.0","3NC5L260MP8NECOK3IPEI08X5JEFOA","A2J1ANUL0BYKUK","30F94FBDNR6BS3JI3VKF41RBJN4TBU","","null","<img src=""img/land1.png"" style=""width:200px;border:14px solid red;"">","null","","","","","","",""
"","image-keyboard-response","84","40039","0.0-84.0","3NC5L260MP8NECOK3IPEI08X5JEFOA","A2J1ANUL0BYKUK","30F94FBDNR6BS3JI3VKF41RBJN4TBU","","202.5","img/land1.png","76","203.10000014305115","3","0","1","1,0.5,0.5,0.5,1,0.5,0.5,0.5,1","",""
"","html-keyboard-response","85","40341","0.0-85.0","3NC5L260MP8NECOK3IPEI08X5JEFOA","A2J1ANUL0BYKUK","30F94FBDNR6BS3JI3VKF41RBJN4TBU","","null","<img src=""img/land1.png"" style=""width:200px;border:14px solid red;"">","null","","","","","","",""
"","image-keyboard-response","86","40593","0.0-86.0","3NC5L260MP8NECOK3IPEI08X5JEFOA","A2J1ANUL0BYKUK","30F94FBDNR6BS3JI3VKF41RBJN4TBU","","251.10000014305115","img/land3.png","74","251.60000014305115","1","0","3","1,0.5,0.5,0.5,1,0.5,0.5,0.5,1","",""
"","html-keyboard-response","87","40895","0.0-87.0","3NC5L260MP8NECOK3IPEI08X5JEFOA","A2J1ANUL0BYKUK","30F94FBDNR6BS3JI3VKF41RBJN4TBU","","null","<img src=""img/land3.png"" style=""width:200px;border:14px solid red;"">","null","","","","","","",""
"","image-keyboard-response","88","41137","0.0-88.0","3NC5L260MP8NECOK3IPEI08X5JEFOA","A2J1ANUL0BYKUK","30F94FBDNR6BS3JI3VKF41RBJN4TBU","","241.70000004768372","img/land1.png","74","242.09999990463257","1","1","1","1,0.5,0.5,0.5,1,0.5,0.5,0.5,1","",""
"","html-keyboard-response","89","41438","0.0-89.0","3NC5L260MP8NECOK3IPEI08X5JEFOA","A2J1ANUL0BYKUK","30F94FBDNR6BS3JI3VKF41RBJN4TBU","","null","<img src=""img/land1.png"" style=""width:200px; border:14px solid green;"">","null","","","","","","",""
"","image-keyboard-response","90","41632","0.0-90.0","3NC5L260MP8NECOK3IPEI08X5JEFOA","A2J1ANUL0BYKUK","30F94FBDNR6BS3JI3VKF41RBJN4TBU","","192.70000004768372","img/land2.png","74","193","1","1","2","1,0.5,0.5,0.5,1,0.5,0.5,0.5,1","",""
"","html-keyboard-response","91","41933","0.0-91.0","3NC5L260MP8NECOK3IPEI08X5JEFOA","A2J1ANUL0BYKUK","30F94FBDNR6BS3JI3VKF41RBJN4TBU","","null","<img src=""img/land2.png"" style=""width:200px; border:14px solid green;"">","null","","","","","","",""
"","image-keyboard-response","92","42102","0.0-92.0","3NC5L260MP8NECOK3IPEI08X5JEFOA","A2J1ANUL0BYKUK","30F94FBDNR6BS3JI3VKF41RBJN4TBU","","167.89999985694885","img/land1.png","74","168.40000009536743","1","1","1","1,0.5,0.5,0.5,1,0.5,0.5,0.5,1","",""
"","html-keyboard-response","93","42404","0.0-93.0","3NC5L260MP8NECOK3IPEI08X5JEFOA","A2J1ANUL0BYKUK","30F94FBDNR6BS3JI3VKF41RBJN4TBU","","null","<img src=""img/land1.png"" style=""width:200px; border:14px solid green;"">","null","","","","","","",""
"","image-keyboard-response","94","42561","0.0-94.0","3NC5L260MP8NECOK3IPEI08X5JEFOA","A2J1ANUL0BYKUK","30F94FBDNR6BS3JI3VKF41RBJN4TBU","","157.09999990463257","img/land3.png","74","157.5","1","1","3","1,0.5,0.5,0.5,1,0.5,0.5,0.5,1","",""
"","html-keyboard-response","95","42872","0.0-95.0","3NC5L260MP8NECOK3IPEI08X5JEFOA","A2J1ANUL0BYKUK","30F94FBDNR6BS3JI3VKF41RBJN4TBU","","null","<img src=""img/land3.png"" style=""width:200px; border:14px solid green;"">","null","","","","","","",""
"","image-keyboard-response","96","43023","0.0-96.0","3NC5L260MP8NECOK3IPEI08X5JEFOA","A2J1ANUL0BYKUK","30F94FBDNR6BS3JI3VKF41RBJN4TBU","","150.19999980926514","img/land2.png","74","150.60000014305115","1","0","2","1,0.5,0.5,0.5,1,0.5,0.5,0.5,1","",""
"","html-keyboard-response","97","43324","0.0-97.0","3NC5L260MP8NECOK3IPEI08X5JEFOA","A2J1ANUL0BYKUK","30F94FBDNR6BS3JI3VKF41RBJN4TBU","","null","<img src=""img/land2.png"" style=""width:200px;border:14px solid red;"">","null","","","","","","",""
"","image-keyboard-response","98","43482","0.0-98.0","3NC5L260MP8NECOK3IPEI08X5JEFOA","A2J1ANUL0BYKUK","30F94FBDNR6BS3JI3VKF41RBJN4TBU","","157.40000009536743","img/land2.png","74","157.90000009536743","1","1","2","1,0.5,0.5,0.5,1,0.5,0.5,0.5,1","",""
"","html-keyboard-response","99","43783","0.0-99.0","3NC5L260MP8NECOK3IPEI08X5JEFOA","A2J1ANUL0BYKUK","30F94FBDNR6BS3JI3VKF41RBJN4TBU","","null","<img src=""img/land2.png"" style=""width:200px; border:14px solid green;"">","null","","","","","","",""
"","image-keyboard-response","100","43926","0.0-100.0","3NC5L260MP8NECOK3IPEI08X5JEFOA","A2J1ANUL0BYKUK","30F94FBDNR6BS3JI3VKF41RBJN4TBU","","142.09999990463257","img/land2.png","74","142.59999990463257","1","0","2","1,0.5,0.5,0.5,1,0.5,0.5,0.5,1","",""
"","html-keyboard-response","101","44227","0.0-101.0","3NC5L260MP8NECOK3IPEI08X5JEFOA","A2J1ANUL0BYKUK","30F94FBDNR6BS3JI3VKF41RBJN4TBU","","null","<img src=""img/land2.png"" style=""width:200px;border:14px solid red;"">","null","","","","","","",""
"","image-keyboard-response","102","44352","0.0-102.0","3NC5L260MP8NECOK3IPEI08X5JEFOA","A2J1ANUL0BYKUK","30F94FBDNR6BS3JI3VKF41RBJN4TBU","","123.90000009536743","img/land3.png","74","124.20000004768372","1","1","3","1,0.5,0.5,0.5,1,0.5,0.5,0.5,1","",""
"","html-keyboard-response","103","44652","0.0-103.0","3NC5L260MP8NECOK3IPEI08X5JEFOA","A2J1ANUL0BYKUK","30F94FBDNR6BS3JI3VKF41RBJN4TBU","","null","<img src=""img/land3.png"" style=""width:200px; border:14px solid green;"">","null","","","","","","",""
"","image-keyboard-response","104","44782","0.0-104.0","3NC5L260MP8NECOK3IPEI08X5JEFOA","A2J1ANUL0BYKUK","30F94FBDNR6BS3JI3VKF41RBJN4TBU","","129","img/land2.png","74","129.20000004768372","1","0","2","1,0.5,0.5,0.5,1,0.5,0.5,0.5,1","",""
"","html-keyboard-response","105","45083","0.0-105.0","3NC5L260MP8NECOK3IPEI08X5JEFOA","A2J1ANUL0BYKUK","30F94FBDNR6BS3JI3VKF41RBJN4TBU","","null","<img src=""img/land2.png"" style=""width:200px;border:14px solid red;"">","null","","","","","","",""
"","image-keyboard-response","106","45144","0.0-106.0","3NC5L260MP8NECOK3IPEI08X5JEFOA","A2J1ANUL0BYKUK","30F94FBDNR6BS3JI3VKF41RBJN4TBU","","60.10000014305115","img/land3.png","74","60.40000009536743","1","0","3","1,0.5,0.5,0.5,1,0.5,0.5,0.5,1","",""
"","html-keyboard-response","107","45445","0.0-107.0","3NC5L260MP8NECOK3IPEI08X5JEFOA","A2J1ANUL0BYKUK","30F94FBDNR6BS3JI3VKF41RBJN4TBU","","null","<img src=""img/land3.png"" style=""width:200px;border:14px solid red;"">","null","","","","","","",""
"","image-keyboard-response","108","45636","0.0-108.0","3NC5L260MP8NECOK3IPEI08X5JEFOA","A2J1ANUL0BYKUK","30F94FBDNR6BS3JI3VKF41RBJN4TBU","","190.5","img/land1.png","74","190.90000009536743","1","1","1","1,0.5,0.5,0.5,1,0.5,0.5,0.5,1","",""
"","html-keyboard-response","109","45946","0.0-109.0","3NC5L260MP8NECOK3IPEI08X5JEFOA","A2J1ANUL0BYKUK","30F94FBDNR6BS3JI3VKF41RBJN4TBU","","null","<img src=""img/land1.png"" style=""width:200px; border:14px solid green;"">","null","","","","","","",""
"","image-keyboard-response","110","46118","0.0-110.0","3NC5L260MP8NECOK3IPEI08X5JEFOA","A2J1ANUL0BYKUK","30F94FBDNR6BS3JI3VKF41RBJN4TBU","","170.90000009536743","img/land1.png","74","171.20000004768372","1","1","1","1,0.5,0.5,0.5,1,0.5,0.5,0.5,1","",""
"","html-keyboard-response","111","46430","0.0-111.0","3NC5L260MP8NECOK3IPEI08X5JEFOA","A2J1ANUL0BYKUK","30F94FBDNR6BS3JI3VKF41RBJN4TBU","","null","<img src=""img/land1.png"" style=""width:200px; border:14px solid green;"">","null","","","","","","",""
"","image-keyboard-response","112","46651","0.0-112.0","3NC5L260MP8NECOK3IPEI08X5JEFOA","A2J1ANUL0BYKUK","30F94FBDNR6BS3JI3VKF41RBJN4TBU","","220.29999995231628","img/land2.png","74","220.59999990463257","1","0","2","1,0.5,0.5,0.5,1,0.5,0.5,0.5,1","",""
"","html-keyboard-response","113","46952","0.0-113.0","3NC5L260MP8NECOK3IPEI08X5JEFOA","A2J1ANUL0BYKUK","30F94FBDNR6BS3JI3VKF41RBJN4TBU","","null","<img src=""img/land2.png"" style=""width:200px;border:14px solid red;"">","null","","","","","","",""
"","image-keyboard-response","114","47102","0.0-114.0","3NC5L260MP8NECOK3IPEI08X5JEFOA","A2J1ANUL0BYKUK","30F94FBDNR6BS3JI3VKF41RBJN4TBU","","148.90000009536743","img/land3.png","74","149.19999980926514","1","0","3","1,0.5,0.5,0.5,1,0.5,0.5,0.5,1","",""
"","html-keyboard-response","115","47403","0.0-115.0","3NC5L260MP8NECOK3IPEI08X5JEFOA","A2J1ANUL0BYKUK","30F94FBDNR6BS3JI3VKF41RBJN4TBU","","null","<img src=""img/land3.png"" style=""width:200px;border:14px solid red;"">","null","","","","","","",""
"","image-keyboard-response","116","47513","0.0-116.0","3NC5L260MP8NECOK3IPEI08X5JEFOA","A2J1ANUL0BYKUK","30F94FBDNR6BS3JI3VKF41RBJN4TBU","","109","img/land3.png","75","109.29999995231628","2","0","3","1,0.5,0.5,0.5,1,0.5,0.5,0.5,1","",""
"","html-keyboard-response","117","47815","0.0-117.0","3NC5L260MP8NECOK3IPEI08X5JEFOA","A2J1ANUL0BYKUK","30F94FBDNR6BS3JI3VKF41RBJN4TBU","","null","<img src=""img/land3.png"" style=""width:200px;border:14px solid red;"">","null","","","","","","",""
"","image-keyboard-response","118","48391","0.0-118.0","3NC5L260MP8NECOK3IPEI08X5JEFOA","A2J1ANUL0BYKUK","30F94FBDNR6BS3JI3VKF41RBJN4TBU","","575.5999999046326","img/land2.png","74","575.8999998569489","1","1","2","1,0.5,0.5,0.5,1,0.5,0.5,0.5,1","",""
"","html-keyboard-response","119","48692","0.0-119.0","3NC5L260MP8NECOK3IPEI08X5JEFOA","A2J1ANUL0BYKUK","30F94FBDNR6BS3JI3VKF41RBJN4TBU","","null","<img src=""img/land2.png"" style=""width:200px; border:14px solid green;"">","null","","","","","","",""
"","image-keyboard-response","120","48917","0.0-120.0","3NC5L260MP8NECOK3IPEI08X5JEFOA","A2J1ANUL0BYKUK","30F94FBDNR6BS3JI3VKF41RBJN4TBU","","224.39999985694885","img/land3.png","74","224.79999995231628","1","1","3","1,0.5,0.5,0.5,1,0.5,0.5,0.5,1","",""
"","html-keyboard-response","121","49218","0.0-121.0","3NC5L260MP8NECOK3IPEI08X5JEFOA","A2J1ANUL0BYKUK","30F94FBDNR6BS3JI3VKF41RBJN4TBU","","null","<img src=""img/land3.png"" style=""width:200px; border:14px solid green;"">","null","","","","","","",""
"","image-keyboard-response","122","49719","0.0-122.0","3NC5L260MP8NECOK3IPEI08X5JEFOA","A2J1ANUL0BYKUK","30F94FBDNR6BS3JI3VKF41RBJN4TBU","","499.7999999523163","img/land1.png","74","500.30000019073486","1","1","1","1,0.5,0.5,0.5,1,0.5,0.5,0.5,1","",""
"","html-keyboard-response","123","50020","0.0-123.0","3NC5L260MP8NECOK3IPEI08X5JEFOA","A2J1ANUL0BYKUK","30F94FBDNR6BS3JI3VKF41RBJN4TBU","","null","<img src=""img/land1.png"" style=""width:200px; border:14px solid green;"">","null","","","","","","",""
"","image-keyboard-response","124","50233","0.0-124.0","3NC5L260MP8NECOK3IPEI08X5JEFOA","A2J1ANUL0BYKUK","30F94FBDNR6BS3JI3VKF41RBJN4TBU","","211.90000009536743","img/land2.png","74","212.29999995231628","1","1","2","1,0.5,0.5,0.5,1,0.5,0.5,0.5,1","",""
"","html-keyboard-response","125","50549","0.0-125.0","3NC5L260MP8NECOK3IPEI08X5JEFOA","A2J1ANUL0BYKUK","30F94FBDNR6BS3JI3VKF41RBJN4TBU","","null","<img src=""img/land2.png"" style=""width:200px; border:14px solid green;"">","null","","","","","","",""
"","image-keyboard-response","126","50758","0.0-126.0","3NC5L260MP8NECOK3IPEI08X5JEFOA","A2J1ANUL0BYKUK","30F94FBDNR6BS3JI3VKF41RBJN4TBU","","208.09999990463257","img/land1.png","74","208.40000009536743","1","1","1","1,0.5,0.5,0.5,1,0.5,0.5,0.5,1","",""
"","html-keyboard-response","127","51059","0.0-127.0","3NC5L260MP8NECOK3IPEI08X5JEFOA","A2J1ANUL0BYKUK","30F94FBDNR6BS3JI3VKF41RBJN4TBU","","null","<img src=""img/land1.png"" style=""width:200px; border:14px solid green;"">","null","","","","","","",""
"","image-keyboard-response","128","51357","0.0-128.0","3NC5L260MP8NECOK3IPEI08X5JEFOA","A2J1ANUL0BYKUK","30F94FBDNR6BS3JI3VKF41RBJN4TBU","","296.89999985694885","img/land3.png","74","297.40000009536743","1","0","3","1,0.5,0.5,0.5,1,0.5,0.5,0.5,1","",""
"","html-keyboard-response","129","51659","0.0-129.0","3NC5L260MP8NECOK3IPEI08X5JEFOA","A2J1ANUL0BYKUK","30F94FBDNR6BS3JI3VKF41RBJN4TBU","","null","<img src=""img/land3.png"" style=""width:200px;border:14px solid red;"">","null","","","","","","",""
"","image-keyboard-response","130","51930","0.0-130.0","3NC5L260MP8NECOK3IPEI08X5JEFOA","A2J1ANUL0BYKUK","30F94FBDNR6BS3JI3VKF41RBJN4TBU","","270.2999999523163","img/land1.png","74","270.80000019073486","1","1","1","1,0.5,0.5,0.5,1,0.5,0.5,0.5,1","",""
"","html-keyboard-response","131","52231","0.0-131.0","3NC5L260MP8NECOK3IPEI08X5JEFOA","A2J1ANUL0BYKUK","30F94FBDNR6BS3JI3VKF41RBJN4TBU","","null","<img src=""img/land1.png"" style=""width:200px; border:14px solid green;"">","null","","","","","","",""
"","image-keyboard-response","132","52496","0.0-132.0","3NC5L260MP8NECOK3IPEI08X5JEFOA","A2J1ANUL0BYKUK","30F94FBDNR6BS3JI3VKF41RBJN4TBU","","263.7000000476837","img/land1.png","74","264.19999980926514","1","1","1","1,0.5,0.5,0.5,1,0.5,0.5,0.5,1","",""
"","html-keyboard-response","133","52798","0.0-133.0","3NC5L260MP8NECOK3IPEI08X5JEFOA","A2J1ANUL0BYKUK","30F94FBDNR6BS3JI3VKF41RBJN4TBU","","null","<img src=""img/land1.png"" style=""width:200px; border:14px solid green;"">","null","","","","","","",""
"","image-keyboard-response","134","53155","0.0-134.0","3NC5L260MP8NECOK3IPEI08X5JEFOA","A2J1ANUL0BYKUK","30F94FBDNR6BS3JI3VKF41RBJN4TBU","","356.7000000476837","img/land2.png","74","357.10000014305115","1","0","2","1,0.5,0.5,0.5,1,0.5,0.5,0.5,1","",""
"","html-keyboard-response","135","53456","0.0-135.0","3NC5L260MP8NECOK3IPEI08X5JEFOA","A2J1ANUL0BYKUK","30F94FBDNR6BS3JI3VKF41RBJN4TBU","","null","<img src=""img/land2.png"" style=""width:200px;border:14px solid red;"">","null","","","","","","",""
"","image-keyboard-response","136","53852","0.0-136.0","3NC5L260MP8NECOK3IPEI08X5JEFOA","A2J1ANUL0BYKUK","30F94FBDNR6BS3JI3VKF41RBJN4TBU","","394.7999999523163","img/land1.png","74","395.2999999523163","1","1","1","1,0.5,0.5,0.5,1,0.5,0.5,0.5,1","",""
"","html-keyboard-response","137","54154","0.0-137.0","3NC5L260MP8NECOK3IPEI08X5JEFOA","A2J1ANUL0BYKUK","30F94FBDNR6BS3JI3VKF41RBJN4TBU","","null","<img src=""img/land1.png"" style=""width:200px; border:14px solid green;"">","null","","","","","","",""
"","image-keyboard-response","138","54458","0.0-138.0","3NC5L260MP8NECOK3IPEI08X5JEFOA","A2J1ANUL0BYKUK","30F94FBDNR6BS3JI3VKF41RBJN4TBU","","303.59999990463257","img/land1.png","74","304","1","1","1","1,0.5,0.5,0.5,1,0.5,0.5,0.5,1","",""
"","html-keyboard-response","139","54772","0.0-139.0","3NC5L260MP8NECOK3IPEI08X5JEFOA","A2J1ANUL0BYKUK","30F94FBDNR6BS3JI3VKF41RBJN4TBU","","null","<img src=""img/land1.png"" style=""width:200px; border:14px solid green;"">","null","","","","","","",""
"","image-keyboard-response","140","55230","0.0-140.0","3NC5L260MP8NECOK3IPEI08X5JEFOA","A2J1ANUL0BYKUK","30F94FBDNR6BS3JI3VKF41RBJN4TBU","","457.59999990463257","img/land3.png","75","458","2","1","3","1,0.5,0.5,0.5,1,0.5,0.5,0.5,1","",""
"","html-keyboard-response","141","55531","0.0-141.0","3NC5L260MP8NECOK3IPEI08X5JEFOA","A2J1ANUL0BYKUK","30F94FBDNR6BS3JI3VKF41RBJN4TBU","","null","<img src=""img/land3.png"" style=""width:200px; border:14px solid green;"">","null","","","","","","",""
"","image-keyboard-response","142","56336","0.0-142.0","3NC5L260MP8NECOK3IPEI08X5JEFOA","A2J1ANUL0BYKUK","30F94FBDNR6BS3JI3VKF41RBJN4TBU","","803.3999998569489","img/land1.png","75","804","2","1","1","1,0.5,0.5,0.5,1,0.5,0.5,0.5,1","",""
"","html-keyboard-response","143","56637","0.0-143.0","3NC5L260MP8NECOK3IPEI08X5JEFOA","A2J1ANUL0BYKUK","30F94FBDNR6BS3JI3VKF41RBJN4TBU","","null","<img src=""img/land1.png"" style=""width:200px; border:14px solid green;"">","null","","","","","","",""
"","image-keyboard-response","144","57119","0.0-144.0","3NC5L260MP8NECOK3IPEI08X5JEFOA","A2J1ANUL0BYKUK","30F94FBDNR6BS3JI3VKF41RBJN4TBU","","481.2999999523163","img/land2.png","75","481.59999990463257","2","1","2","1,0.5,0.5,0.5,1,0.5,0.5,0.5,1","",""
"","html-keyboard-response","145","57421","0.0-145.0","3NC5L260MP8NECOK3IPEI08X5JEFOA","A2J1ANUL0BYKUK","30F94FBDNR6BS3JI3VKF41RBJN4TBU","","null","<img src=""img/land2.png"" style=""width:200px; border:14px solid green;"">","null","","","","","","",""
"","image-keyboard-response","146","57951","0.0-146.0","3NC5L260MP8NECOK3IPEI08X5JEFOA","A2J1ANUL0BYKUK","30F94FBDNR6BS3JI3VKF41RBJN4TBU","","529.7000000476837","img/land3.png","75","530.0999999046326","2","0","3","1,0.5,0.5,0.5,1,0.5,0.5,0.5,1","",""
"","html-keyboard-response","147","58253","0.0-147.0","3NC5L260MP8NECOK3IPEI08X5JEFOA","A2J1ANUL0BYKUK","30F94FBDNR6BS3JI3VKF41RBJN4TBU","","null","<img src=""img/land3.png"" style=""width:200px;border:14px solid red;"">","null","","","","","","",""
"","image-keyboard-response","148","58713","0.0-148.0","3NC5L260MP8NECOK3IPEI08X5JEFOA","A2J1ANUL0BYKUK","30F94FBDNR6BS3JI3VKF41RBJN4TBU","","459.89999985694885","img/land3.png","74","460.30000019073486","1","1","3","1,0.5,0.5,0.5,1,0.5,0.5,0.5,1","",""
"","html-keyboard-response","149","59014","0.0-149.0","3NC5L260MP8NECOK3IPEI08X5JEFOA","A2J1ANUL0BYKUK","30F94FBDNR6BS3JI3VKF41RBJN4TBU","","null","<img src=""img/land3.png"" style=""width:200px; border:14px solid green;"">","null","","","","","","",""
"","image-keyboard-response","150","59523","0.0-150.0","3NC5L260MP8NECOK3IPEI08X5JEFOA","A2J1ANUL0BYKUK","30F94FBDNR6BS3JI3VKF41RBJN4TBU","","507.60000014305115","img/land2.png","74","508.09999990463257","1","1","2","1,0.5,0.5,0.5,1,0.5,0.5,0.5,1","",""
"","html-keyboard-response","151","59823","0.0-151.0","3NC5L260MP8NECOK3IPEI08X5JEFOA","A2J1ANUL0BYKUK","30F94FBDNR6BS3JI3VKF41RBJN4TBU","","null","<img src=""img/land2.png"" style=""width:200px; border:14px solid green;"">","null","","","","","","",""
"","image-keyboard-response","152","60326","0.0-152.0","3NC5L260MP8NECOK3IPEI08X5JEFOA","A2J1ANUL0BYKUK","30F94FBDNR6BS3JI3VKF41RBJN4TBU","","502.2999999523163","img/land3.png","75","502.80000019073486","2","0","3","1,0.5,0.5,0.5,1,0.5,0.5,0.5,1","",""
"","html-keyboard-response","153","60628","0.0-153.0","3NC5L260MP8NECOK3IPEI08X5JEFOA","A2J1ANUL0BYKUK","30F94FBDNR6BS3JI3VKF41RBJN4TBU","","null","<img src=""img/land3.png"" style=""width:200px;border:14px solid red;"">","null","","","","","","",""
"","image-keyboard-response","154","61109","0.0-154.0","3NC5L260MP8NECOK3IPEI08X5JEFOA","A2J1ANUL0BYKUK","30F94FBDNR6BS3JI3VKF41RBJN4TBU","","480.09999990463257","img/land3.png","74","480.39999985694885","1","1","3","1,0.5,0.5,0.5,1,0.5,0.5,0.5,1","",""
"","html-keyboard-response","155","61411","0.0-155.0","3NC5L260MP8NECOK3IPEI08X5JEFOA","A2J1ANUL0BYKUK","30F94FBDNR6BS3JI3VKF41RBJN4TBU","","null","<img src=""img/land3.png"" style=""width:200px; border:14px solid green;"">","null","","","","","","",""
"","image-keyboard-response","156","61762","0.0-156.0","3NC5L260MP8NECOK3IPEI08X5JEFOA","A2J1ANUL0BYKUK","30F94FBDNR6BS3JI3VKF41RBJN4TBU","","351.2999999523163","img/land2.png","74","351.7000000476837","1","0","2","1,0.5,0.5,0.5,1,0.5,0.5,0.5,1","",""
"","html-keyboard-response","157","62064","0.0-157.0","3NC5L260MP8NECOK3IPEI08X5JEFOA","A2J1ANUL0BYKUK","30F94FBDNR6BS3JI3VKF41RBJN4TBU","","null","<img src=""img/land2.png"" style=""width:200px;border:14px solid red;"">","null","","","","","","",""
"","image-keyboard-response","158","62913","0.0-158.0","3NC5L260MP8NECOK3IPEI08X5JEFOA","A2J1ANUL0BYKUK","30F94FBDNR6BS3JI3VKF41RBJN4TBU","","848.2999999523163","img/land2.png","76","848.5999999046326","3","0","2","1,0.5,0.5,0.5,1,0.5,0.5,0.5,1","",""
"","html-keyboard-response","159","63215","0.0-159.0","3NC5L260MP8NECOK3IPEI08X5JEFOA","A2J1ANUL0BYKUK","30F94FBDNR6BS3JI3VKF41RBJN4TBU","","null","<img src=""img/land2.png"" style=""width:200px;border:14px solid red;"">","null","","","","","","",""
"","image-keyboard-response","160","63638","0.0-160.0","3NC5L260MP8NECOK3IPEI08X5JEFOA","A2J1ANUL0BYKUK","30F94FBDNR6BS3JI3VKF41RBJN4TBU","","422.2999999523163","img/land2.png","75","422.69999980926514","2","1","2","1,0.5,0.5,0.5,1,0.5,0.5,0.5,1","",""
"","html-keyboard-response","161","63939","0.0-161.0","3NC5L260MP8NECOK3IPEI08X5JEFOA","A2J1ANUL0BYKUK","30F94FBDNR6BS3JI3VKF41RBJN4TBU","","null","<img src=""img/land2.png"" style=""width:200px; border:14px solid green;"">","null","","","","","","",""
"","image-keyboard-response","162","64758","0.0-162.0","3NC5L260MP8NECOK3IPEI08X5JEFOA","A2J1ANUL0BYKUK","30F94FBDNR6BS3JI3VKF41RBJN4TBU","","818.3999998569489","img/land1.png","75","818.7000000476837","2","1","1","1,0.5,0.5,0.5,1,0.5,0.5,0.5,1","",""
"","html-keyboard-response","163","65066","0.0-163.0","3NC5L260MP8NECOK3IPEI08X5JEFOA","A2J1ANUL0BYKUK","30F94FBDNR6BS3JI3VKF41RBJN4TBU","","null","<img src=""img/land1.png"" style=""width:200px; border:14px solid green;"">","null","","","","","","",""
"","image-keyboard-response","164","65351","0.0-164.0","3NC5L260MP8NECOK3IPEI08X5JEFOA","A2J1ANUL0BYKUK","30F94FBDNR6BS3JI3VKF41RBJN4TBU","","284","img/land1.png","75","284.69999980926514","2","0","1","1,0.5,0.5,0.5,1,0.5,0.5,0.5,1","",""
"","html-keyboard-response","165","65654","0.0-165.0","3NC5L260MP8NECOK3IPEI08X5JEFOA","A2J1ANUL0BYKUK","30F94FBDNR6BS3JI3VKF41RBJN4TBU","","null","<img src=""img/land1.png"" style=""width:200px;border:14px solid red;"">","null","","","","","","",""
"","image-keyboard-response","166","66070","0.0-166.0","3NC5L260MP8NECOK3IPEI08X5JEFOA","A2J1ANUL0BYKUK","30F94FBDNR6BS3JI3VKF41RBJN4TBU","","415.2999999523163","img/land3.png","74","415.7999999523163","1","1","3","1,0.5,0.5,0.5,1,0.5,0.5,0.5,1","",""
"","html-keyboard-response","167","66371","0.0-167.0","3NC5L260MP8NECOK3IPEI08X5JEFOA","A2J1ANUL0BYKUK","30F94FBDNR6BS3JI3VKF41RBJN4TBU","","null","<img src=""img/land3.png"" style=""width:200px; border:14px solid green;"">","null","","","","","","",""
"","image-keyboard-response","168","66913","0.0-168.0","3NC5L260MP8NECOK3IPEI08X5JEFOA","A2J1ANUL0BYKUK","30F94FBDNR6BS3JI3VKF41RBJN4TBU","","541.8000001907349","img/land2.png","75","542.0999999046326","2","1","2","1,0.5,0.5,0.5,1,0.5,0.5,0.5,1","",""
"","html-keyboard-response","169","67215","0.0-169.0","3NC5L260MP8NECOK3IPEI08X5JEFOA","A2J1ANUL0BYKUK","30F94FBDNR6BS3JI3VKF41RBJN4TBU","","null","<img src=""img/land2.png"" style=""width:200px; border:14px solid green;"">","null","","","","","","",""
"","html-keyboard-response","170","71039","0.0-170.0","3NC5L260MP8NECOK3IPEI08X5JEFOA","A2J1ANUL0BYKUK","30F94FBDNR6BS3JI3VKF41RBJN4TBU","","","","","","","","","","",""
"","image-keyboard-response","171","72774","0.0-171.0","3NC5L260MP8NECOK3IPEI08X5JEFOA","A2J1ANUL0BYKUK","30F94FBDNR6BS3JI3VKF41RBJN4TBU","","1734.2000000476837","img/land6.png","74","1734.9000000953674","1","1","3","1,0.5,0.5,0.5,1,0.5,0.5,0.5,1","",""
"","html-keyboard-response","172","73075","0.0-172.0","3NC5L260MP8NECOK3IPEI08X5JEFOA","A2J1ANUL0BYKUK","30F94FBDNR6BS3JI3VKF41RBJN4TBU","","null","<img src=""img/land6.png"" style=""width:200px; border:14px solid green;"">","null","","","","","","",""
"","image-keyboard-response","173","73695","0.0-173.0","3NC5L260MP8NECOK3IPEI08X5JEFOA","A2J1ANUL0BYKUK","30F94FBDNR6BS3JI3VKF41RBJN4TBU","","618.5","img/land4.png","75","619","2","1","1","1,0.5,0.5,0.5,1,0.5,0.5,0.5,1","",""
"","html-keyboard-response","174","73996","0.0-174.0","3NC5L260MP8NECOK3IPEI08X5JEFOA","A2J1ANUL0BYKUK","30F94FBDNR6BS3JI3VKF41RBJN4TBU","","null","<img src=""img/land4.png"" style=""width:200px; border:14px solid green;"">","null","","","","","","",""
"","image-keyboard-response","175","74513","0.0-175.0","3NC5L260MP8NECOK3IPEI08X5JEFOA","A2J1ANUL0BYKUK","30F94FBDNR6BS3JI3VKF41RBJN4TBU","","517.2000000476837","img/land4.png","75","517.7000000476837","2","1","1","1,0.5,0.5,0.5,1,0.5,0.5,0.5,1","",""
"","html-keyboard-response","176","74815","0.0-176.0","3NC5L260MP8NECOK3IPEI08X5JEFOA","A2J1ANUL0BYKUK","30F94FBDNR6BS3JI3VKF41RBJN4TBU","","null","<img src=""img/land4.png"" style=""width:200px; border:14px solid green;"">","null","","","","","","",""
"","image-keyboard-response","177","75177","0.0-177.0","3NC5L260MP8NECOK3IPEI08X5JEFOA","A2J1ANUL0BYKUK","30F94FBDNR6BS3JI3VKF41RBJN4TBU","","361.5","img/land4.png","75","361.89999985694885","2","0","1","1,0.5,0.5,0.5,1,0.5,0.5,0.5,1","",""
"","html-keyboard-response","178","75480","0.0-178.0","3NC5L260MP8NECOK3IPEI08X5JEFOA","A2J1ANUL0BYKUK","30F94FBDNR6BS3JI3VKF41RBJN4TBU","","null","<img src=""img/land4.png"" style=""width:200px;border:14px solid red;"">","null","","","","","","",""
"","image-keyboard-response","179","76307","0.0-179.0","3NC5L260MP8NECOK3IPEI08X5JEFOA","A2J1ANUL0BYKUK","30F94FBDNR6BS3JI3VKF41RBJN4TBU","","826.7000000476837","img/land4.png","74","827.1000001430511","1","1","1","1,0.5,0.5,0.5,1,0.5,0.5,0.5,1","",""
"","html-keyboard-response","180","76609","0.0-180.0","3NC5L260MP8NECOK3IPEI08X5JEFOA","A2J1ANUL0BYKUK","30F94FBDNR6BS3JI3VKF41RBJN4TBU","","null","<img src=""img/land4.png"" style=""width:200px; border:14px solid green;"">","null","","","","","","",""
"","image-keyboard-response","181","77168","0.0-181.0","3NC5L260MP8NECOK3IPEI08X5JEFOA","A2J1ANUL0BYKUK","30F94FBDNR6BS3JI3VKF41RBJN4TBU","","558","img/land6.png","74","558.5999999046326","1","0","3","1,0.5,0.5,0.5,1,0.5,0.5,0.5,1","",""
"","html-keyboard-response","182","77469","0.0-182.0","3NC5L260MP8NECOK3IPEI08X5JEFOA","A2J1ANUL0BYKUK","30F94FBDNR6BS3JI3VKF41RBJN4TBU","","null","<img src=""img/land6.png"" style=""width:200px;border:14px solid red;"">","null","","","","","","",""
"","image-keyboard-response","183","78057","0.0-183.0","3NC5L260MP8NECOK3IPEI08X5JEFOA","A2J1ANUL0BYKUK","30F94FBDNR6BS3JI3VKF41RBJN4TBU","","587.0999999046326","img/land6.png","74","587.7000000476837","1","0","3","1,0.5,0.5,0.5,1,0.5,0.5,0.5,1","",""
"","html-keyboard-response","184","78359","0.0-184.0","3NC5L260MP8NECOK3IPEI08X5JEFOA","A2J1ANUL0BYKUK","30F94FBDNR6BS3JI3VKF41RBJN4TBU","","null","<img src=""img/land6.png"" style=""width:200px;border:14px solid red;"">","null","","","","","","",""
"","image-keyboard-response","185","78518","0.0-185.0","3NC5L260MP8NECOK3IPEI08X5JEFOA","A2J1ANUL0BYKUK","30F94FBDNR6BS3JI3VKF41RBJN4TBU","","158.70000004768372","img/land4.png","74","159.39999985694885","1","1","1","1,0.5,0.5,0.5,1,0.5,0.5,0.5,1","",""
"","html-keyboard-response","186","78820","0.0-186.0","3NC5L260MP8NECOK3IPEI08X5JEFOA","A2J1ANUL0BYKUK","30F94FBDNR6BS3JI3VKF41RBJN4TBU","","null","<img src=""img/land4.png"" style=""width:200px; border:14px solid green;"">","null","","","","","","",""
"","image-keyboard-response","187","79106","0.0-187.0","3NC5L260MP8NECOK3IPEI08X5JEFOA","A2J1ANUL0BYKUK","30F94FBDNR6BS3JI3VKF41RBJN4TBU","","286.2000000476837","img/land4.png","74","286.7000000476837","1","1","1","1,0.5,0.5,0.5,1,0.5,0.5,0.5,1","",""
"","html-keyboard-response","188","79408","0.0-188.0","3NC5L260MP8NECOK3IPEI08X5JEFOA","A2J1ANUL0BYKUK","30F94FBDNR6BS3JI3VKF41RBJN4TBU","","null","<img src=""img/land4.png"" style=""width:200px; border:14px solid green;"">","null","","","","","","",""
"","image-keyboard-response","189","79607","0.0-189.0","3NC5L260MP8NECOK3IPEI08X5JEFOA","A2J1ANUL0BYKUK","30F94FBDNR6BS3JI3VKF41RBJN4TBU","","199.20000004768372","img/land4.png","74","199.69999980926514","1","1","1","1,0.5,0.5,0.5,1,0.5,0.5,0.5,1","",""
"","html-keyboard-response","190","79908","0.0-190.0","3NC5L260MP8NECOK3IPEI08X5JEFOA","A2J1ANUL0BYKUK","30F94FBDNR6BS3JI3VKF41RBJN4TBU","","null","<img src=""img/land4.png"" style=""width:200px; border:14px solid green;"">","null","","","","","","",""
"","image-keyboard-response","191","80218","0.0-191.0","3NC5L260MP8NECOK3IPEI08X5JEFOA","A2J1ANUL0BYKUK","30F94FBDNR6BS3JI3VKF41RBJN4TBU","","308.2999999523163","img/land4.png","74","308.7999999523163","1","1","1","1,0.5,0.5,0.5,1,0.5,0.5,0.5,1","",""
"","html-keyboard-response","192","80519","0.0-192.0","3NC5L260MP8NECOK3IPEI08X5JEFOA","A2J1ANUL0BYKUK","30F94FBDNR6BS3JI3VKF41RBJN4TBU","","null","<img src=""img/land4.png"" style=""width:200px; border:14px solid green;"">","null","","","","","","",""
"","image-keyboard-response","193","80728","0.0-193.0","3NC5L260MP8NECOK3IPEI08X5JEFOA","A2J1ANUL0BYKUK","30F94FBDNR6BS3JI3VKF41RBJN4TBU","","207.39999985694885","img/land4.png","74","208","1","1","1","1,0.5,0.5,0.5,1,0.5,0.5,0.5,1","",""
"","html-keyboard-response","194","81031","0.0-194.0","3NC5L260MP8NECOK3IPEI08X5JEFOA","A2J1ANUL0BYKUK","30F94FBDNR6BS3JI3VKF41RBJN4TBU","","null","<img src=""img/land4.png"" style=""width:200px; border:14px solid green;"">","null","","","","","","",""
"","image-keyboard-response","195","81250","0.0-195.0","3NC5L260MP8NECOK3IPEI08X5JEFOA","A2J1ANUL0BYKUK","30F94FBDNR6BS3JI3VKF41RBJN4TBU","","218.40000009536743","img/land5.png","74","218.79999995231628","1","0","2","1,0.5,0.5,0.5,1,0.5,0.5,0.5,1","",""
"","html-keyboard-response","196","81551","0.0-196.0","3NC5L260MP8NECOK3IPEI08X5JEFOA","A2J1ANUL0BYKUK","30F94FBDNR6BS3JI3VKF41RBJN4TBU","","null","<img src=""img/land5.png"" style=""width:200px;border:14px solid red;"">","null","","","","","","",""
"","image-keyboard-response","197","81964","0.0-197.0","3NC5L260MP8NECOK3IPEI08X5JEFOA","A2J1ANUL0BYKUK","30F94FBDNR6BS3JI3VKF41RBJN4TBU","","413","img/land4.png","76","413.2999999523163","3","1","1","1,0.5,0.5,0.5,1,0.5,0.5,0.5,1","",""
"","html-keyboard-response","198","82266","0.0-198.0","3NC5L260MP8NECOK3IPEI08X5JEFOA","A2J1ANUL0BYKUK","30F94FBDNR6BS3JI3VKF41RBJN4TBU","","null","<img src=""img/land4.png"" style=""width:200px; border:14px solid green;"">","null","","","","","","",""
"","image-keyboard-response","199","82603","0.0-199.0","3NC5L260MP8NECOK3IPEI08X5JEFOA","A2J1ANUL0BYKUK","30F94FBDNR6BS3JI3VKF41RBJN4TBU","","335.5","img/land4.png","76","336","3","0","1","1,0.5,0.5,0.5,1,0.5,0.5,0.5,1","",""
"","html-keyboard-response","200","82904","0.0-200.0","3NC5L260MP8NECOK3IPEI08X5JEFOA","A2J1ANUL0BYKUK","30F94FBDNR6BS3JI3VKF41RBJN4TBU","","null","<img src=""img/land4.png"" style=""width:200px;border:14px solid red;"">","null","","","","","","",""
"","image-keyboard-response","201","83200","0.0-201.0","3NC5L260MP8NECOK3IPEI08X5JEFOA","A2J1ANUL0BYKUK","30F94FBDNR6BS3JI3VKF41RBJN4TBU","","294.2999999523163","img/land4.png","75","294.7999999523163","2","0","1","1,0.5,0.5,0.5,1,0.5,0.5,0.5,1","",""
"","html-keyboard-response","202","83501","0.0-202.0","3NC5L260MP8NECOK3IPEI08X5JEFOA","A2J1ANUL0BYKUK","30F94FBDNR6BS3JI3VKF41RBJN4TBU","","null","<img src=""img/land4.png"" style=""width:200px;border:14px solid red;"">","null","","","","","","",""
"","image-keyboard-response","203","83657","0.0-203.0","3NC5L260MP8NECOK3IPEI08X5JEFOA","A2J1ANUL0BYKUK","30F94FBDNR6BS3JI3VKF41RBJN4TBU","","155.5","img/land5.png","74","155.79999995231628","1","0","2","1,0.5,0.5,0.5,1,0.5,0.5,0.5,1","",""
"","html-keyboard-response","204","83958","0.0-204.0","3NC5L260MP8NECOK3IPEI08X5JEFOA","A2J1ANUL0BYKUK","30F94FBDNR6BS3JI3VKF41RBJN4TBU","","null","<img src=""img/land5.png"" style=""width:200px;border:14px solid red;"">","null","","","","","","",""
"","image-keyboard-response","205","84360","0.0-205.0","3NC5L260MP8NECOK3IPEI08X5JEFOA","A2J1ANUL0BYKUK","30F94FBDNR6BS3JI3VKF41RBJN4TBU","","400.90000009536743","img/land4.png","74","401.2999999523163","1","1","1","1,0.5,0.5,0.5,1,0.5,0.5,0.5,1","",""
"","html-keyboard-response","206","84663","0.0-206.0","3NC5L260MP8NECOK3IPEI08X5JEFOA","A2J1ANUL0BYKUK","30F94FBDNR6BS3JI3VKF41RBJN4TBU","","null","<img src=""img/land4.png"" style=""width:200px; border:14px solid green;"">","null","","","","","","",""
"","image-keyboard-response","207","84807","0.0-207.0","3NC5L260MP8NECOK3IPEI08X5JEFOA","A2J1ANUL0BYKUK","30F94FBDNR6BS3JI3VKF41RBJN4TBU","","143.09999990463257","img/land5.png","74","143.5","1","1","2","1,0.5,0.5,0.5,1,0.5,0.5,0.5,1","",""
"","html-keyboard-response","208","85108","0.0-208.0","3NC5L260MP8NECOK3IPEI08X5JEFOA","A2J1ANUL0BYKUK","30F94FBDNR6BS3JI3VKF41RBJN4TBU","","null","<img src=""img/land5.png"" style=""width:200px; border:14px solid green;"">","null","","","","","","",""
"","image-keyboard-response","209","85229","0.0-209.0","3NC5L260MP8NECOK3IPEI08X5JEFOA","A2J1ANUL0BYKUK","30F94FBDNR6BS3JI3VKF41RBJN4TBU","","121","img/land4.png","74","121.5","1","1","1","1,0.5,0.5,0.5,1,0.5,0.5,0.5,1","",""
"","html-keyboard-response","210","85530","0.0-210.0","3NC5L260MP8NECOK3IPEI08X5JEFOA","A2J1ANUL0BYKUK","30F94FBDNR6BS3JI3VKF41RBJN4TBU","","null","<img src=""img/land4.png"" style=""width:200px; border:14px solid green;"">","null","","","","","","",""
"","image-keyboard-response","211","85674","0.0-211.0","3NC5L260MP8NECOK3IPEI08X5JEFOA","A2J1ANUL0BYKUK","30F94FBDNR6BS3JI3VKF41RBJN4TBU","","142.79999995231628","img/land4.png","74","143.5","1","1","1","1,0.5,0.5,0.5,1,0.5,0.5,0.5,1","",""
"","html-keyboard-response","212","85976","0.0-212.0","3NC5L260MP8NECOK3IPEI08X5JEFOA","A2J1ANUL0BYKUK","30F94FBDNR6BS3JI3VKF41RBJN4TBU","","null","<img src=""img/land4.png"" style=""width:200px; border:14px solid green;"">","null","","","","","","",""
"","image-keyboard-response","213","86143","0.0-213.0","3NC5L260MP8NECOK3IPEI08X5JEFOA","A2J1ANUL0BYKUK","30F94FBDNR6BS3JI3VKF41RBJN4TBU","","167.20000004768372","img/land4.png","74","167.5","1","1","1","1,0.5,0.5,0.5,1,0.5,0.5,0.5,1","",""
"","html-keyboard-response","214","86445","0.0-214.0","3NC5L260MP8NECOK3IPEI08X5JEFOA","A2J1ANUL0BYKUK","30F94FBDNR6BS3JI3VKF41RBJN4TBU","","null","<img src=""img/land4.png"" style=""width:200px; border:14px solid green;"">","null","","","","","","",""
"","image-keyboard-response","215","86630","0.0-215.0","3NC5L260MP8NECOK3IPEI08X5JEFOA","A2J1ANUL0BYKUK","30F94FBDNR6BS3JI3VKF41RBJN4TBU","","183.89999985694885","img/land4.png","74","184.30000019073486","1","1","1","1,0.5,0.5,0.5,1,0.5,0.5,0.5,1","",""
"","html-keyboard-response","216","86931","0.0-216.0","3NC5L260MP8NECOK3IPEI08X5JEFOA","A2J1ANUL0BYKUK","30F94FBDNR6BS3JI3VKF41RBJN4TBU","","null","<img src=""img/land4.png"" style=""width:200px; border:14px solid green;"">","null","","","","","","",""
"","image-keyboard-response","217","87051","0.0-217.0","3NC5L260MP8NECOK3IPEI08X5JEFOA","A2J1ANUL0BYKUK","30F94FBDNR6BS3JI3VKF41RBJN4TBU","","118.90000009536743","img/land6.png","74","119.29999995231628","1","1","3","1,0.5,0.5,0.5,1,0.5,0.5,0.5,1","",""
"","html-keyboard-response","218","87362","0.0-218.0","3NC5L260MP8NECOK3IPEI08X5JEFOA","A2J1ANUL0BYKUK","30F94FBDNR6BS3JI3VKF41RBJN4TBU","","null","<img src=""img/land6.png"" style=""width:200px; border:14px solid green;"">","null","","","","","","",""
"","image-keyboard-response","219","87516","0.0-219.0","3NC5L260MP8NECOK3IPEI08X5JEFOA","A2J1ANUL0BYKUK","30F94FBDNR6BS3JI3VKF41RBJN4TBU","","153.10000014305115","img/land4.png","74","153.60000014305115","1","1","1","1,0.5,0.5,0.5,1,0.5,0.5,0.5,1","",""
"","html-keyboard-response","220","87818","0.0-220.0","3NC5L260MP8NECOK3IPEI08X5JEFOA","A2J1ANUL0BYKUK","30F94FBDNR6BS3JI3VKF41RBJN4TBU","","null","<img src=""img/land4.png"" style=""width:200px; border:14px solid green;"">","null","","","","","","",""
"","image-keyboard-response","221","87996","0.0-221.0","3NC5L260MP8NECOK3IPEI08X5JEFOA","A2J1ANUL0BYKUK","30F94FBDNR6BS3JI3VKF41RBJN4TBU","","178.10000014305115","img/land6.png","74","178.5","1","1","3","1,0.5,0.5,0.5,1,0.5,0.5,0.5,1","",""
"","html-keyboard-response","222","88298","0.0-222.0","3NC5L260MP8NECOK3IPEI08X5JEFOA","A2J1ANUL0BYKUK","30F94FBDNR6BS3JI3VKF41RBJN4TBU","","null","<img src=""img/land6.png"" style=""width:200px; border:14px solid green;"">","null","","","","","","",""
"","image-keyboard-response","223","88382","0.0-223.0","3NC5L260MP8NECOK3IPEI08X5JEFOA","A2J1ANUL0BYKUK","30F94FBDNR6BS3JI3VKF41RBJN4TBU","","83.5","img/land6.png","74","84","1","1","3","1,0.5,0.5,0.5,1,0.5,0.5,0.5,1","",""
"","html-keyboard-response","224","88683","0.0-224.0","3NC5L260MP8NECOK3IPEI08X5JEFOA","A2J1ANUL0BYKUK","30F94FBDNR6BS3JI3VKF41RBJN4TBU","","null","<img src=""img/land6.png"" style=""width:200px; border:14px solid green;"">","null","","","","","","",""
"","image-keyboard-response","225","88842","0.0-225.0","3NC5L260MP8NECOK3IPEI08X5JEFOA","A2J1ANUL0BYKUK","30F94FBDNR6BS3JI3VKF41RBJN4TBU","","157.59999990463257","img/land4.png","74","158","1","1","1","1,0.5,0.5,0.5,1,0.5,0.5,0.5,1","",""
"","html-keyboard-response","226","89144","0.0-226.0","3NC5L260MP8NECOK3IPEI08X5JEFOA","A2J1ANUL0BYKUK","30F94FBDNR6BS3JI3VKF41RBJN4TBU","","null","<img src=""img/land4.png"" style=""width:200px; border:14px solid green;"">","null","","","","","","",""
"","image-keyboard-response","227","89336","0.0-227.0","3NC5L260MP8NECOK3IPEI08X5JEFOA","A2J1ANUL0BYKUK","30F94FBDNR6BS3JI3VKF41RBJN4TBU","","191.5","img/land6.png","74","191.89999985694885","1","0","3","1,0.5,0.5,0.5,1,0.5,0.5,0.5,1","",""
"","html-keyboard-response","228","89637","0.0-228.0","3NC5L260MP8NECOK3IPEI08X5JEFOA","A2J1ANUL0BYKUK","30F94FBDNR6BS3JI3VKF41RBJN4TBU","","null","<img src=""img/land6.png"" style=""width:200px;border:14px solid red;"">","null","","","","","","",""
"","image-keyboard-response","229","89758","0.0-229.0","3NC5L260MP8NECOK3IPEI08X5JEFOA","A2J1ANUL0BYKUK","30F94FBDNR6BS3JI3VKF41RBJN4TBU","","120.60000014305115","img/land4.png","75","120.89999985694885","2","0","1","1,0.5,0.5,0.5,1,0.5,0.5,0.5,1","",""
"","html-keyboard-response","230","90060","0.0-230.0","3NC5L260MP8NECOK3IPEI08X5JEFOA","A2J1ANUL0BYKUK","30F94FBDNR6BS3JI3VKF41RBJN4TBU","","null","<img src=""img/land4.png"" style=""width:200px;border:14px solid red;"">","null","","","","","","",""
"","image-keyboard-response","231","90463","0.0-231.0","3NC5L260MP8NECOK3IPEI08X5JEFOA","A2J1ANUL0BYKUK","30F94FBDNR6BS3JI3VKF41RBJN4TBU","","402","img/land4.png","76","402.39999985694885","3","0","1","1,0.5,0.5,0.5,1,0.5,0.5,0.5,1","",""
"","html-keyboard-response","232","90765","0.0-232.0","3NC5L260MP8NECOK3IPEI08X5JEFOA","A2J1ANUL0BYKUK","30F94FBDNR6BS3JI3VKF41RBJN4TBU","","null","<img src=""img/land4.png"" style=""width:200px;border:14px solid red;"">","null","","","","","","",""
"","image-keyboard-response","233","90846","0.0-233.0","3NC5L260MP8NECOK3IPEI08X5JEFOA","A2J1ANUL0BYKUK","30F94FBDNR6BS3JI3VKF41RBJN4TBU","","81.30000019073486","img/land5.png","74","81.69999980926514","1","0","2","1,0.5,0.5,0.5,1,0.5,0.5,0.5,1","",""
"","html-keyboard-response","234","91149","0.0-234.0","3NC5L260MP8NECOK3IPEI08X5JEFOA","A2J1ANUL0BYKUK","30F94FBDNR6BS3JI3VKF41RBJN4TBU","","null","<img src=""img/land5.png"" style=""width:200px;border:14px solid red;"">","null","","","","","","",""
"","image-keyboard-response","235","91336","0.0-235.0","3NC5L260MP8NECOK3IPEI08X5JEFOA","A2J1ANUL0BYKUK","30F94FBDNR6BS3JI3VKF41RBJN4TBU","","187.20000004768372","img/land6.png","74","187.5","1","1","3","1,0.5,0.5,0.5,1,0.5,0.5,0.5,1","",""
"","html-keyboard-response","236","91638","0.0-236.0","3NC5L260MP8NECOK3IPEI08X5JEFOA","A2J1ANUL0BYKUK","30F94FBDNR6BS3JI3VKF41RBJN4TBU","","null","<img src=""img/land6.png"" style=""width:200px; border:14px solid green;"">","null","","","","","","",""
"","image-keyboard-response","237","91815","0.0-237.0","3NC5L260MP8NECOK3IPEI08X5JEFOA","A2J1ANUL0BYKUK","30F94FBDNR6BS3JI3VKF41RBJN4TBU","","176.79999995231628","img/land4.png","74","177.39999985694885","1","1","1","1,0.5,0.5,0.5,1,0.5,0.5,0.5,1","",""
"","html-keyboard-response","238","92117","0.0-238.0","3NC5L260MP8NECOK3IPEI08X5JEFOA","A2J1ANUL0BYKUK","30F94FBDNR6BS3JI3VKF41RBJN4TBU","","null","<img src=""img/land4.png"" style=""width:200px; border:14px solid green;"">","null","","","","","","",""
"","image-keyboard-response","239","92322","0.0-239.0","3NC5L260MP8NECOK3IPEI08X5JEFOA","A2J1ANUL0BYKUK","30F94FBDNR6BS3JI3VKF41RBJN4TBU","","203.5","img/land4.png","74","204.10000014305115","1","1","1","1,0.5,0.5,0.5,1,0.5,0.5,0.5,1","",""
"","html-keyboard-response","240","92624","0.0-240.0","3NC5L260MP8NECOK3IPEI08X5JEFOA","A2J1ANUL0BYKUK","30F94FBDNR6BS3JI3VKF41RBJN4TBU","","null","<img src=""img/land4.png"" style=""width:200px; border:14px solid green;"">","null","","","","","","",""
"","image-keyboard-response","241","92776","0.0-241.0","3NC5L260MP8NECOK3IPEI08X5JEFOA","A2J1ANUL0BYKUK","30F94FBDNR6BS3JI3VKF41RBJN4TBU","","151.39999985694885","img/land4.png","74","152","1","1","1","1,0.5,0.5,0.5,1,0.5,0.5,0.5,1","",""
"","html-keyboard-response","242","93078","0.0-242.0","3NC5L260MP8NECOK3IPEI08X5JEFOA","A2J1ANUL0BYKUK","30F94FBDNR6BS3JI3VKF41RBJN4TBU","","null","<img src=""img/land4.png"" style=""width:200px; border:14px solid green;"">","null","","","","","","",""
"","image-keyboard-response","243","93276","0.0-243.0","3NC5L260MP8NECOK3IPEI08X5JEFOA","A2J1ANUL0BYKUK","30F94FBDNR6BS3JI3VKF41RBJN4TBU","","197.40000009536743","img/land6.png","74","197.79999995231628","1","0","3","1,0.5,0.5,0.5,1,0.5,0.5,0.5,1","",""
"","html-keyboard-response","244","93578","0.0-244.0","3NC5L260MP8NECOK3IPEI08X5JEFOA","A2J1ANUL0BYKUK","30F94FBDNR6BS3JI3VKF41RBJN4TBU","","null","<img src=""img/land6.png"" style=""width:200px;border:14px solid red;"">","null","","","","","","",""
"","image-keyboard-response","245","93721","0.0-245.0","3NC5L260MP8NECOK3IPEI08X5JEFOA","A2J1ANUL0BYKUK","30F94FBDNR6BS3JI3VKF41RBJN4TBU","","143","img/land4.png","74","143.40000009536743","1","1","1","1,0.5,0.5,0.5,1,0.5,0.5,0.5,1","",""
"","html-keyboard-response","246","94023","0.0-246.0","3NC5L260MP8NECOK3IPEI08X5JEFOA","A2J1ANUL0BYKUK","30F94FBDNR6BS3JI3VKF41RBJN4TBU","","null","<img src=""img/land4.png"" style=""width:200px; border:14px solid green;"">","null","","","","","","",""
"","image-keyboard-response","247","94175","0.0-247.0","3NC5L260MP8NECOK3IPEI08X5JEFOA","A2J1ANUL0BYKUK","30F94FBDNR6BS3JI3VKF41RBJN4TBU","","151.59999990463257","img/land5.png","74","152","1","1","2","1,0.5,0.5,0.5,1,0.5,0.5,0.5,1","",""
"","html-keyboard-response","248","94477","0.0-248.0","3NC5L260MP8NECOK3IPEI08X5JEFOA","A2J1ANUL0BYKUK","30F94FBDNR6BS3JI3VKF41RBJN4TBU","","null","<img src=""img/land5.png"" style=""width:200px; border:14px solid green;"">","null","","","","","","",""
"","image-keyboard-response","249","94645","0.0-249.0","3NC5L260MP8NECOK3IPEI08X5JEFOA","A2J1ANUL0BYKUK","30F94FBDNR6BS3JI3VKF41RBJN4TBU","","168.10000014305115","img/land4.png","74","168.59999990463257","1","1","1","1,0.5,0.5,0.5,1,0.5,0.5,0.5,1","",""
"","html-keyboard-response","250","94948","0.0-250.0","3NC5L260MP8NECOK3IPEI08X5JEFOA","A2J1ANUL0BYKUK","30F94FBDNR6BS3JI3VKF41RBJN4TBU","","null","<img src=""img/land4.png"" style=""width:200px; border:14px solid green;"">","null","","","","","","",""
"","image-keyboard-response","251","95088","0.0-251.0","3NC5L260MP8NECOK3IPEI08X5JEFOA","A2J1ANUL0BYKUK","30F94FBDNR6BS3JI3VKF41RBJN4TBU","","140.29999995231628","img/land4.png","74","140.59999990463257","1","1","1","1,0.5,0.5,0.5,1,0.5,0.5,0.5,1","",""
"","html-keyboard-response","252","95390","0.0-252.0","3NC5L260MP8NECOK3IPEI08X5JEFOA","A2J1ANUL0BYKUK","30F94FBDNR6BS3JI3VKF41RBJN4TBU","","null","<img src=""img/land4.png"" style=""width:200px; border:14px solid green;"">","null","","","","","","",""
"","image-keyboard-response","253","95563","0.0-253.0","3NC5L260MP8NECOK3IPEI08X5JEFOA","A2J1ANUL0BYKUK","30F94FBDNR6BS3JI3VKF41RBJN4TBU","","172.20000004768372","img/land4.png","74","172.59999990463257","1","1","1","1,0.5,0.5,0.5,1,0.5,0.5,0.5,1","",""
"","html-keyboard-response","254","95864","0.0-254.0","3NC5L260MP8NECOK3IPEI08X5JEFOA","A2J1ANUL0BYKUK","30F94FBDNR6BS3JI3VKF41RBJN4TBU","","null","<img src=""img/land4.png"" style=""width:200px; border:14px solid green;"">","null","","","","","","",""
"","image-keyboard-response","255","96009","0.0-255.0","3NC5L260MP8NECOK3IPEI08X5JEFOA","A2J1ANUL0BYKUK","30F94FBDNR6BS3JI3VKF41RBJN4TBU","","143.80000019073486","img/land6.png","74","144.29999995231628","1","0","3","1,0.5,0.5,0.5,1,0.5,0.5,0.5,1","",""
"","html-keyboard-response","256","96310","0.0-256.0","3NC5L260MP8NECOK3IPEI08X5JEFOA","A2J1ANUL0BYKUK","30F94FBDNR6BS3JI3VKF41RBJN4TBU","","null","<img src=""img/land6.png"" style=""width:200px;border:14px solid red;"">","null","","","","","","",""
"","image-keyboard-response","257","96448","0.0-257.0","3NC5L260MP8NECOK3IPEI08X5JEFOA","A2J1ANUL0BYKUK","30F94FBDNR6BS3JI3VKF41RBJN4TBU","","137.70000004768372","img/land4.png","74","138.20000004768372","1","1","1","1,0.5,0.5,0.5,1,0.5,0.5,0.5,1","",""
"","html-keyboard-response","258","96750","0.0-258.0","3NC5L260MP8NECOK3IPEI08X5JEFOA","A2J1ANUL0BYKUK","30F94FBDNR6BS3JI3VKF41RBJN4TBU","","null","<img src=""img/land4.png"" style=""width:200px; border:14px solid green;"">","null","","","","","","",""
"","image-keyboard-response","259","96931","0.0-259.0","3NC5L260MP8NECOK3IPEI08X5JEFOA","A2J1ANUL0BYKUK","30F94FBDNR6BS3JI3VKF41RBJN4TBU","","180.29999995231628","img/land5.png","74","180.79999995231628","1","0","2","1,0.5,0.5,0.5,1,0.5,0.5,0.5,1","",""
"","html-keyboard-response","260","97239","0.0-260.0","3NC5L260MP8NECOK3IPEI08X5JEFOA","A2J1ANUL0BYKUK","30F94FBDNR6BS3JI3VKF41RBJN4TBU","","null","<img src=""img/land5.png"" style=""width:200px;border:14px solid red;"">","null","","","","","","",""
"","image-keyboard-response","261","97357","0.0-261.0","3NC5L260MP8NECOK3IPEI08X5JEFOA","A2J1ANUL0BYKUK","30F94FBDNR6BS3JI3VKF41RBJN4TBU","","118.20000004768372","img/land5.png","74","118.5","1","1","2","1,0.5,0.5,0.5,1,0.5,0.5,0.5,1","",""
"","html-keyboard-response","262","97658","0.0-262.0","3NC5L260MP8NECOK3IPEI08X5JEFOA","A2J1ANUL0BYKUK","30F94FBDNR6BS3JI3VKF41RBJN4TBU","","null","<img src=""img/land5.png"" style=""width:200px; border:14px solid green;"">","null","","","","","","",""
"","image-keyboard-response","263","97789","0.0-263.0","3NC5L260MP8NECOK3IPEI08X5JEFOA","A2J1ANUL0BYKUK","30F94FBDNR6BS3JI3VKF41RBJN4TBU","","129.89999985694885","img/land4.png","74","130.20000004768372","1","1","1","1,0.5,0.5,0.5,1,0.5,0.5,0.5,1","",""
"","html-keyboard-response","264","98090","0.0-264.0","3NC5L260MP8NECOK3IPEI08X5JEFOA","A2J1ANUL0BYKUK","30F94FBDNR6BS3JI3VKF41RBJN4TBU","","null","<img src=""img/land4.png"" style=""width:200px; border:14px solid green;"">","null","","","","","","",""
"","image-keyboard-response","265","98291","0.0-265.0","3NC5L260MP8NECOK3IPEI08X5JEFOA","A2J1ANUL0BYKUK","30F94FBDNR6BS3JI3VKF41RBJN4TBU","","200.20000004768372","img/land4.png","74","200.5","1","1","1","1,0.5,0.5,0.5,1,0.5,0.5,0.5,1","",""
"","html-keyboard-response","266","98592","0.0-266.0","3NC5L260MP8NECOK3IPEI08X5JEFOA","A2J1ANUL0BYKUK","30F94FBDNR6BS3JI3VKF41RBJN4TBU","","null","<img src=""img/land4.png"" style=""width:200px; border:14px solid green;"">","null","","","","","","",""
"","image-keyboard-response","267","98736","0.0-267.0","3NC5L260MP8NECOK3IPEI08X5JEFOA","A2J1ANUL0BYKUK","30F94FBDNR6BS3JI3VKF41RBJN4TBU","","143.5","img/land4.png","74","144","1","1","1","1,0.5,0.5,0.5,1,0.5,0.5,0.5,1","",""
"","html-keyboard-response","268","99038","0.0-268.0","3NC5L260MP8NECOK3IPEI08X5JEFOA","A2J1ANUL0BYKUK","30F94FBDNR6BS3JI3VKF41RBJN4TBU","","null","<img src=""img/land4.png"" style=""width:200px; border:14px solid green;"">","null","","","","","","",""
"","image-keyboard-response","269","99163","0.0-269.0","3NC5L260MP8NECOK3IPEI08X5JEFOA","A2J1ANUL0BYKUK","30F94FBDNR6BS3JI3VKF41RBJN4TBU","","124.90000009536743","img/land5.png","74","125.39999985694885","1","0","2","1,0.5,0.5,0.5,1,0.5,0.5,0.5,1","",""
"","html-keyboard-response","270","99465","0.0-270.0","3NC5L260MP8NECOK3IPEI08X5JEFOA","A2J1ANUL0BYKUK","30F94FBDNR6BS3JI3VKF41RBJN4TBU","","null","<img src=""img/land5.png"" style=""width:200px;border:14px solid red;"">","null","","","","","","",""
"","image-keyboard-response","271","99609","0.0-271.0","3NC5L260MP8NECOK3IPEI08X5JEFOA","A2J1ANUL0BYKUK","30F94FBDNR6BS3JI3VKF41RBJN4TBU","","143.10000014305115","img/land6.png","74","143.60000014305115","1","0","3","1,0.5,0.5,0.5,1,0.5,0.5,0.5,1","",""
"","html-keyboard-response","272","99910","0.0-272.0","3NC5L260MP8NECOK3IPEI08X5JEFOA","A2J1ANUL0BYKUK","30F94FBDNR6BS3JI3VKF41RBJN4TBU","","null","<img src=""img/land6.png"" style=""width:200px;border:14px solid red;"">","null","","","","","","",""
"","image-keyboard-response","273","100004","0.0-273.0","3NC5L260MP8NECOK3IPEI08X5JEFOA","A2J1ANUL0BYKUK","30F94FBDNR6BS3JI3VKF41RBJN4TBU","","93.5","img/land6.png","74","93.89999985694885","1","1","3","1,0.5,0.5,0.5,1,0.5,0.5,0.5,1","",""
"","html-keyboard-response","274","100307","0.0-274.0","3NC5L260MP8NECOK3IPEI08X5JEFOA","A2J1ANUL0BYKUK","30F94FBDNR6BS3JI3VKF41RBJN4TBU","","null","<img src=""img/land6.png"" style=""width:200px; border:14px solid green;"">","null","","","","","","",""
"","image-keyboard-response","275","100500","0.0-275.0","3NC5L260MP8NECOK3IPEI08X5JEFOA","A2J1ANUL0BYKUK","30F94FBDNR6BS3JI3VKF41RBJN4TBU","","193.20000004768372","img/land5.png","74","193.59999990463257","1","0","2","1,0.5,0.5,0.5,1,0.5,0.5,0.5,1","",""
"","html-keyboard-response","276","100802","0.0-276.0","3NC5L260MP8NECOK3IPEI08X5JEFOA","A2J1ANUL0BYKUK","30F94FBDNR6BS3JI3VKF41RBJN4TBU","","null","<img src=""img/land5.png"" style=""width:200px;border:14px solid red;"">","null","","","","","","",""
"","image-keyboard-response","277","100969","0.0-277.0","3NC5L260MP8NECOK3IPEI08X5JEFOA","A2J1ANUL0BYKUK","30F94FBDNR6BS3JI3VKF41RBJN4TBU","","166.90000009536743","img/land4.png","74","167.29999995231628","1","1","1","1,0.5,0.5,0.5,1,0.5,0.5,0.5,1","",""
"","html-keyboard-response","278","101278","0.0-278.0","3NC5L260MP8NECOK3IPEI08X5JEFOA","A2J1ANUL0BYKUK","30F94FBDNR6BS3JI3VKF41RBJN4TBU","","null","<img src=""img/land4.png"" style=""width:200px; border:14px solid green;"">","null","","","","","","",""
"","image-keyboard-response","279","101448","0.0-279.0","3NC5L260MP8NECOK3IPEI08X5JEFOA","A2J1ANUL0BYKUK","30F94FBDNR6BS3JI3VKF41RBJN4TBU","","168.89999985694885","img/land6.png","74","169.5","1","1","3","1,0.5,0.5,0.5,1,0.5,0.5,0.5,1","",""
"","html-keyboard-response","280","101749","0.0-280.0","3NC5L260MP8NECOK3IPEI08X5JEFOA","A2J1ANUL0BYKUK","30F94FBDNR6BS3JI3VKF41RBJN4TBU","","null","<img src=""img/land6.png"" style=""width:200px; border:14px solid green;"">","null","","","","","","",""
"","image-keyboard-response","281","101918","0.0-281.0","3NC5L260MP8NECOK3IPEI08X5JEFOA","A2J1ANUL0BYKUK","30F94FBDNR6BS3JI3VKF41RBJN4TBU","","168.70000004768372","img/land6.png","74","169.19999980926514","1","1","3","1,0.5,0.5,0.5,1,0.5,0.5,0.5,1","",""
"","html-keyboard-response","282","102220","0.0-282.0","3NC5L260MP8NECOK3IPEI08X5JEFOA","A2J1ANUL0BYKUK","30F94FBDNR6BS3JI3VKF41RBJN4TBU","","null","<img src=""img/land6.png"" style=""width:200px; border:14px solid green;"">","null","","","","","","",""
"","image-keyboard-response","283","102394","0.0-283.0","3NC5L260MP8NECOK3IPEI08X5JEFOA","A2J1ANUL0BYKUK","30F94FBDNR6BS3JI3VKF41RBJN4TBU","","173.79999995231628","img/land5.png","74","174.09999990463257","1","0","2","1,0.5,0.5,0.5,1,0.5,0.5,0.5,1","",""
"","html-keyboard-response","284","102696","0.0-284.0","3NC5L260MP8NECOK3IPEI08X5JEFOA","A2J1ANUL0BYKUK","30F94FBDNR6BS3JI3VKF41RBJN4TBU","","null","<img src=""img/land5.png"" style=""width:200px;border:14px solid red;"">","null","","","","","","",""
"","image-keyboard-response","285","102808","0.0-285.0","3NC5L260MP8NECOK3IPEI08X5JEFOA","A2J1ANUL0BYKUK","30F94FBDNR6BS3JI3VKF41RBJN4TBU","","111.29999995231628","img/land4.png","74","111.79999995231628","1","1","1","1,0.5,0.5,0.5,1,0.5,0.5,0.5,1","",""
"","html-keyboard-response","286","103109","0.0-286.0","3NC5L260MP8NECOK3IPEI08X5JEFOA","A2J1ANUL0BYKUK","30F94FBDNR6BS3JI3VKF41RBJN4TBU","","null","<img src=""img/land4.png"" style=""width:200px; border:14px solid green;"">","null","","","","","","",""
"","image-keyboard-response","287","103290","0.0-287.0","3NC5L260MP8NECOK3IPEI08X5JEFOA","A2J1ANUL0BYKUK","30F94FBDNR6BS3JI3VKF41RBJN4TBU","","180.29999995231628","img/land4.png","74","180.79999995231628","1","1","1","1,0.5,0.5,0.5,1,0.5,0.5,0.5,1","",""
"","html-keyboard-response","288","103591","0.0-288.0","3NC5L260MP8NECOK3IPEI08X5JEFOA","A2J1ANUL0BYKUK","30F94FBDNR6BS3JI3VKF41RBJN4TBU","","null","<img src=""img/land4.png"" style=""width:200px; border:14px solid green;"">","null","","","","","","",""
"","image-keyboard-response","289","103753","0.0-289.0","3NC5L260MP8NECOK3IPEI08X5JEFOA","A2J1ANUL0BYKUK","30F94FBDNR6BS3JI3VKF41RBJN4TBU","","161.70000004768372","img/land5.png","74","162.29999995231628","1","1","2","1,0.5,0.5,0.5,1,0.5,0.5,0.5,1","",""
"","html-keyboard-response","290","104055","0.0-290.0","3NC5L260MP8NECOK3IPEI08X5JEFOA","A2J1ANUL0BYKUK","30F94FBDNR6BS3JI3VKF41RBJN4TBU","","null","<img src=""img/land5.png"" style=""width:200px; border:14px solid green;"">","null","","","","","","",""
"","image-keyboard-response","291","104220","0.0-291.0","3NC5L260MP8NECOK3IPEI08X5JEFOA","A2J1ANUL0BYKUK","30F94FBDNR6BS3JI3VKF41RBJN4TBU","","163.29999995231628","img/land4.png","74","163.79999995231628","1","1","1","1,0.5,0.5,0.5,1,0.5,0.5,0.5,1","",""
"","html-keyboard-response","292","104520","0.0-292.0","3NC5L260MP8NECOK3IPEI08X5JEFOA","A2J1ANUL0BYKUK","30F94FBDNR6BS3JI3VKF41RBJN4TBU","","null","<img src=""img/land4.png"" style=""width:200px; border:14px solid green;"">","null","","","","","","",""
"","image-keyboard-response","293","104777","0.0-293.0","3NC5L260MP8NECOK3IPEI08X5JEFOA","A2J1ANUL0BYKUK","30F94FBDNR6BS3JI3VKF41RBJN4TBU","","255.79999995231628","img/land5.png","74","256.2999999523163","1","1","2","1,0.5,0.5,0.5,1,0.5,0.5,0.5,1","",""
"","html-keyboard-response","294","105078","0.0-294.0","3NC5L260MP8NECOK3IPEI08X5JEFOA","A2J1ANUL0BYKUK","30F94FBDNR6BS3JI3VKF41RBJN4TBU","","null","<img src=""img/land5.png"" style=""width:200px; border:14px solid green;"">","null","","","","","","",""
"","image-keyboard-response","295","105216","0.0-295.0","3NC5L260MP8NECOK3IPEI08X5JEFOA","A2J1ANUL0BYKUK","30F94FBDNR6BS3JI3VKF41RBJN4TBU","","137.19999980926514","img/land5.png","74","137.70000004768372","1","1","2","1,0.5,0.5,0.5,1,0.5,0.5,0.5,1","",""
"","html-keyboard-response","296","105518","0.0-296.0","3NC5L260MP8NECOK3IPEI08X5JEFOA","A2J1ANUL0BYKUK","30F94FBDNR6BS3JI3VKF41RBJN4TBU","","null","<img src=""img/land5.png"" style=""width:200px; border:14px solid green;"">","null","","","","","","",""
"","image-keyboard-response","297","105820","0.0-297.0","3NC5L260MP8NECOK3IPEI08X5JEFOA","A2J1ANUL0BYKUK","30F94FBDNR6BS3JI3VKF41RBJN4TBU","","301.2999999523163","img/land6.png","74","301.7999999523163","1","1","3","1,0.5,0.5,0.5,1,0.5,0.5,0.5,1","",""
"","html-keyboard-response","298","106136","0.0-298.0","3NC5L260MP8NECOK3IPEI08X5JEFOA","A2J1ANUL0BYKUK","30F94FBDNR6BS3JI3VKF41RBJN4TBU","","null","<img src=""img/land6.png"" style=""width:200px; border:14px solid green;"">","null","","","","","","",""
"","image-keyboard-response","299","106313","0.0-299.0","3NC5L260MP8NECOK3IPEI08X5JEFOA","A2J1ANUL0BYKUK","30F94FBDNR6BS3JI3VKF41RBJN4TBU","","176.90000009536743","img/land5.png","74","177.39999985694885","1","1","2","1,0.5,0.5,0.5,1,0.5,0.5,0.5,1","",""
"","html-keyboard-response","300","106616","0.0-300.0","3NC5L260MP8NECOK3IPEI08X5JEFOA","A2J1ANUL0BYKUK","30F94FBDNR6BS3JI3VKF41RBJN4TBU","","null","<img src=""img/land5.png"" style=""width:200px; border:14px solid green;"">","null","","","","","","",""
"","image-keyboard-response","301","106799","0.0-301.0","3NC5L260MP8NECOK3IPEI08X5JEFOA","A2J1ANUL0BYKUK","30F94FBDNR6BS3JI3VKF41RBJN4TBU","","182.60000014305115","img/land4.png","74","183.10000014305115","1","1","1","1,0.5,0.5,0.5,1,0.5,0.5,0.5,1","",""
"","html-keyboard-response","302","107100","0.0-302.0","3NC5L260MP8NECOK3IPEI08X5JEFOA","A2J1ANUL0BYKUK","30F94FBDNR6BS3JI3VKF41RBJN4TBU","","null","<img src=""img/land4.png"" style=""width:200px; border:14px solid green;"">","null","","","","","","",""
"","image-keyboard-response","303","107296","0.0-303.0","3NC5L260MP8NECOK3IPEI08X5JEFOA","A2J1ANUL0BYKUK","30F94FBDNR6BS3JI3VKF41RBJN4TBU","","195.5","img/land5.png","74","195.90000009536743","1","1","2","1,0.5,0.5,0.5,1,0.5,0.5,0.5,1","",""
"","html-keyboard-response","304","107597","0.0-304.0","3NC5L260MP8NECOK3IPEI08X5JEFOA","A2J1ANUL0BYKUK","30F94FBDNR6BS3JI3VKF41RBJN4TBU","","null","<img src=""img/land5.png"" style=""width:200px; border:14px solid green;"">","null","","","","","","",""
"","image-keyboard-response","305","107776","0.0-305.0","3NC5L260MP8NECOK3IPEI08X5JEFOA","A2J1ANUL0BYKUK","30F94FBDNR6BS3JI3VKF41RBJN4TBU","","177.59999990463257","img/land4.png","74","178.09999990463257","1","1","1","1,0.5,0.5,0.5,1,0.5,0.5,0.5,1","",""
"","html-keyboard-response","306","108077","0.0-306.0","3NC5L260MP8NECOK3IPEI08X5JEFOA","A2J1ANUL0BYKUK","30F94FBDNR6BS3JI3VKF41RBJN4TBU","","null","<img src=""img/land4.png"" style=""width:200px; border:14px solid green;"">","null","","","","","","",""
"","image-keyboard-response","307","108259","0.0-307.0","3NC5L260MP8NECOK3IPEI08X5JEFOA","A2J1ANUL0BYKUK","30F94FBDNR6BS3JI3VKF41RBJN4TBU","","180.79999995231628","img/land5.png","74","181.40000009536743","1","0","2","1,0.5,0.5,0.5,1,0.5,0.5,0.5,1","",""
"","html-keyboard-response","308","108560","0.0-308.0","3NC5L260MP8NECOK3IPEI08X5JEFOA","A2J1ANUL0BYKUK","30F94FBDNR6BS3JI3VKF41RBJN4TBU","","null","<img src=""img/land5.png"" style=""width:200px;border:14px solid red;"">","null","","","","","","",""
"","image-keyboard-response","309","108689","0.0-309.0","3NC5L260MP8NECOK3IPEI08X5JEFOA","A2J1ANUL0BYKUK","30F94FBDNR6BS3JI3VKF41RBJN4TBU","","128.5","img/land5.png","74","128.79999995231628","1","0","2","1,0.5,0.5,0.5,1,0.5,0.5,0.5,1","",""
"","html-keyboard-response","310","108990","0.0-310.0","3NC5L260MP8NECOK3IPEI08X5JEFOA","A2J1ANUL0BYKUK","30F94FBDNR6BS3JI3VKF41RBJN4TBU","","null","<img src=""img/land5.png"" style=""width:200px;border:14px solid red;"">","null","","","","","","",""
"","image-keyboard-response","311","109148","0.0-311.0","3NC5L260MP8NECOK3IPEI08X5JEFOA","A2J1ANUL0BYKUK","30F94FBDNR6BS3JI3VKF41RBJN4TBU","","157.20000004768372","img/land5.png","74","157.60000014305115","1","0","2","1,0.5,0.5,0.5,1,0.5,0.5,0.5,1","",""
"","html-keyboard-response","312","109463","0.0-312.0","3NC5L260MP8NECOK3IPEI08X5JEFOA","A2J1ANUL0BYKUK","30F94FBDNR6BS3JI3VKF41RBJN4TBU","","null","<img src=""img/land5.png"" style=""width:200px;border:14px solid red;"">","null","","","","","","",""
"","image-keyboard-response","313","109702","0.0-313.0","3NC5L260MP8NECOK3IPEI08X5JEFOA","A2J1ANUL0BYKUK","30F94FBDNR6BS3JI3VKF41RBJN4TBU","","238.40000009536743","img/land6.png","74","238.90000009536743","1","0","3","1,0.5,0.5,0.5,1,0.5,0.5,0.5,1","",""
"","html-keyboard-response","314","110005","0.0-314.0","3NC5L260MP8NECOK3IPEI08X5JEFOA","A2J1ANUL0BYKUK","30F94FBDNR6BS3JI3VKF41RBJN4TBU","","null","<img src=""img/land6.png"" style=""width:200px;border:14px solid red;"">","null","","","","","","",""
"","image-keyboard-response","315","110140","0.0-315.0","3NC5L260MP8NECOK3IPEI08X5JEFOA","A2J1ANUL0BYKUK","30F94FBDNR6BS3JI3VKF41RBJN4TBU","","135.09999990463257","img/land4.png","74","135.69999980926514","1","1","1","1,0.5,0.5,0.5,1,0.5,0.5,0.5,1","",""
"","html-keyboard-response","316","110442","0.0-316.0","3NC5L260MP8NECOK3IPEI08X5JEFOA","A2J1ANUL0BYKUK","30F94FBDNR6BS3JI3VKF41RBJN4TBU","","null","<img src=""img/land4.png"" style=""width:200px; border:14px solid green;"">","null","","","","","","",""
"","image-keyboard-response","317","110642","0.0-317.0","3NC5L260MP8NECOK3IPEI08X5JEFOA","A2J1ANUL0BYKUK","30F94FBDNR6BS3JI3VKF41RBJN4TBU","","198.89999985694885","img/land6.png","74","199.39999985694885","1","1","3","1,0.5,0.5,0.5,1,0.5,0.5,0.5,1","",""
"","html-keyboard-response","318","110943","0.0-318.0","3NC5L260MP8NECOK3IPEI08X5JEFOA","A2J1ANUL0BYKUK","30F94FBDNR6BS3JI3VKF41RBJN4TBU","","null","<img src=""img/land6.png"" style=""width:200px; border:14px solid green;"">","null","","","","","","",""
"","image-keyboard-response","319","111092","0.0-319.0","3NC5L260MP8NECOK3IPEI08X5JEFOA","A2J1ANUL0BYKUK","30F94FBDNR6BS3JI3VKF41RBJN4TBU","","148.70000004768372","img/land6.png","74","149.29999995231628","1","0","3","1,0.5,0.5,0.5,1,0.5,0.5,0.5,1","",""
"","html-keyboard-response","320","111394","0.0-320.0","3NC5L260MP8NECOK3IPEI08X5JEFOA","A2J1ANUL0BYKUK","30F94FBDNR6BS3JI3VKF41RBJN4TBU","","null","<img src=""img/land6.png"" style=""width:200px;border:14px solid red;"">","null","","","","","","",""
"","image-keyboard-response","321","111593","0.0-321.0","3NC5L260MP8NECOK3IPEI08X5JEFOA","A2J1ANUL0BYKUK","30F94FBDNR6BS3JI3VKF41RBJN4TBU","","197.89999985694885","img/land5.png","74","198.39999985694885","1","1","2","1,0.5,0.5,0.5,1,0.5,0.5,0.5,1","",""
"","html-keyboard-response","322","111894","0.0-322.0","3NC5L260MP8NECOK3IPEI08X5JEFOA","A2J1ANUL0BYKUK","30F94FBDNR6BS3JI3VKF41RBJN4TBU","","null","<img src=""img/land5.png"" style=""width:200px; border:14px solid green;"">","null","","","","","","",""
"","image-keyboard-response","323","112164","0.0-323.0","3NC5L260MP8NECOK3IPEI08X5JEFOA","A2J1ANUL0BYKUK","30F94FBDNR6BS3JI3VKF41RBJN4TBU","","269.40000009536743","img/land6.png","74","269.7999999523163","1","1","3","1,0.5,0.5,0.5,1,0.5,0.5,0.5,1","",""
"","html-keyboard-response","324","112466","0.0-324.0","3NC5L260MP8NECOK3IPEI08X5JEFOA","A2J1ANUL0BYKUK","30F94FBDNR6BS3JI3VKF41RBJN4TBU","","null","<img src=""img/land6.png"" style=""width:200px; border:14px solid green;"">","null","","","","","","",""
"","image-keyboard-response","325","112624","0.0-325.0","3NC5L260MP8NECOK3IPEI08X5JEFOA","A2J1ANUL0BYKUK","30F94FBDNR6BS3JI3VKF41RBJN4TBU","","157.29999995231628","img/land4.png","74","157.69999980926514","1","1","1","1,0.5,0.5,0.5,1,0.5,0.5,0.5,1","",""
"","html-keyboard-response","326","112926","0.0-326.0","3NC5L260MP8NECOK3IPEI08X5JEFOA","A2J1ANUL0BYKUK","30F94FBDNR6BS3JI3VKF41RBJN4TBU","","null","<img src=""img/land4.png"" style=""width:200px; border:14px solid green;"">","null","","","","","","",""
"","image-keyboard-response","327","113129","0.0-327.0","3NC5L260MP8NECOK3IPEI08X5JEFOA","A2J1ANUL0BYKUK","30F94FBDNR6BS3JI3VKF41RBJN4TBU","","202.89999985694885","img/land4.png","74","203.20000004768372","1","1","1","1,0.5,0.5,0.5,1,0.5,0.5,0.5,1","",""
"","html-keyboard-response","328","113431","0.0-328.0","3NC5L260MP8NECOK3IPEI08X5JEFOA","A2J1ANUL0BYKUK","30F94FBDNR6BS3JI3VKF41RBJN4TBU","","null","<img src=""img/land4.png"" style=""width:200px; border:14px solid green;"">","null","","","","","","",""
"","image-keyboard-response","329","113664","0.0-329.0","3NC5L260MP8NECOK3IPEI08X5JEFOA","A2J1ANUL0BYKUK","30F94FBDNR6BS3JI3VKF41RBJN4TBU","","233.09999990463257","img/land6.png","74","233.69999980926514","1","0","3","1,0.5,0.5,0.5,1,0.5,0.5,0.5,1","",""
"","html-keyboard-response","330","113966","0.0-330.0","3NC5L260MP8NECOK3IPEI08X5JEFOA","A2J1ANUL0BYKUK","30F94FBDNR6BS3JI3VKF41RBJN4TBU","","null","<img src=""img/land6.png"" style=""width:200px;border:14px solid red;"">","null","","","","","","",""
"","image-keyboard-response","331","114179","0.0-331.0","3NC5L260MP8NECOK3IPEI08X5JEFOA","A2J1ANUL0BYKUK","30F94FBDNR6BS3JI3VKF41RBJN4TBU","","212.5","img/land6.png","74","213","1","0","3","1,0.5,0.5,0.5,1,0.5,0.5,0.5,1","",""
"","html-keyboard-response","332","114481","0.0-332.0","3NC5L260MP8NECOK3IPEI08X5JEFOA","A2J1ANUL0BYKUK","30F94FBDNR6BS3JI3VKF41RBJN4TBU","","null","<img src=""img/land6.png"" style=""width:200px;border:14px solid red;"">","null","","","","","","",""
"","image-keyboard-response","333","114844","0.0-333.0","3NC5L260MP8NECOK3IPEI08X5JEFOA","A2J1ANUL0BYKUK","30F94FBDNR6BS3JI3VKF41RBJN4TBU","","362.19999980926514","img/land5.png","75","362.59999990463257","2","1","2","1,0.5,0.5,0.5,1,0.5,0.5,0.5,1","",""
"","html-keyboard-response","334","115146","0.0-334.0","3NC5L260MP8NECOK3IPEI08X5JEFOA","A2J1ANUL0BYKUK","30F94FBDNR6BS3JI3VKF41RBJN4TBU","","null","<img src=""img/land5.png"" style=""width:200px; border:14px solid green;"">","null","","","","","","",""
"","image-keyboard-response","335","115219","0.0-335.0","3NC5L260MP8NECOK3IPEI08X5JEFOA","A2J1ANUL0BYKUK","30F94FBDNR6BS3JI3VKF41RBJN4TBU","","72.59999990463257","img/land5.png","74","73.20000004768372","1","1","2","1,0.5,0.5,0.5,1,0.5,0.5,0.5,1","",""
"","html-keyboard-response","336","115521","0.0-336.0","3NC5L260MP8NECOK3IPEI08X5JEFOA","A2J1ANUL0BYKUK","30F94FBDNR6BS3JI3VKF41RBJN4TBU","","null","<img src=""img/land5.png"" style=""width:200px; border:14px solid green;"">","null","","","","","","",""
"","image-keyboard-response","337","115777","0.0-337.0","3NC5L260MP8NECOK3IPEI08X5JEFOA","A2J1ANUL0BYKUK","30F94FBDNR6BS3JI3VKF41RBJN4TBU","","256.09999990463257","img/land4.png","74","256.5","1","1","1","1,0.5,0.5,0.5,1,0.5,0.5,0.5,1","",""
"","html-keyboard-response","338","116079","0.0-338.0","3NC5L260MP8NECOK3IPEI08X5JEFOA","A2J1ANUL0BYKUK","30F94FBDNR6BS3JI3VKF41RBJN4TBU","","null","<img src=""img/land4.png"" style=""width:200px; border:14px solid green;"">","null","","","","","","",""
"","instructions","339","118682","0.0-339.0","3NC5L260MP8NECOK3IPEI08X5JEFOA","A2J1ANUL0BYKUK","30F94FBDNR6BS3JI3VKF41RBJN4TBU","[{""page_index"":0,""viewing_time"":2602.2000000476837}]","2602.4000000953674","","","","","","","","",""
"","survey-text","340","121952","0.0-340.0-0.0","3NC5L260MP8NECOK3IPEI08X5JEFOA","A2J1ANUL0BYKUK","30F94FBDNR6BS3JI3VKF41RBJN4TBU","","3268.5","","","","","","","","{""Q0"":""35""}",""
"","survey-multi-choice","341","124255","0.0-340.0-1.0","3NC5L260MP8NECOK3IPEI08X5JEFOA","A2J1ANUL0BYKUK","30F94FBDNR6BS3JI3VKF41RBJN4TBU","","2302.2000000476837","","","","","","","","{""gender"":""M""}","[0]"
"","survey-text","342","131750","0.0-341.0","3NC5L260MP8NECOK3IPEI08X5JEFOA","A2J1ANUL0BYKUK","30F94FBDNR6BS3JI3VKF41RBJN4TBU","","7493.700000047684","","","","","","","","{""Q0"":""A2J1ANUL0BYKUK""}",""
