"success","trial_type","trial_index","time_elapsed","internal_node_id","assignmentID","mturkID","hitID","view_history","rt","stimulus","key_press","reactionTime","a","r","s","reward_cond","responses","question_order"
"true","fullscreen","0","2577","0.0-0.0","3KB8R4ZV1FT99IV6AXQAU18A0AGGBE","A2JDYN6QM8M5UN","3KVQ0UJWPX71V463XQYDOZYIDLRW5D","","","","","","","","","","",""
"","instructions","1","17581","0.0-1.0","3KB8R4ZV1FT99IV6AXQAU18A0AGGBE","A2JDYN6QM8M5UN","3KVQ0UJWPX71V463XQYDOZYIDLRW5D","[{""page_index"":0,""viewing_time"":4224.599999964237},{""page_index"":1,""viewing_time"":487.9000000357628},{""page_index"":2,""viewing_time"":228},{""page_index"":3,""viewing_time"":5266},{""page_index"":4,""viewing_time"":2303.199999988079},{""page_index"":5,""viewing_time"":1824.1000000238419},{""page_index"":6,""viewing_time"":666.7999999523163}]","15001.5","","","","","","","","",""
"","image-keyboard-response","2","18336","0.0-2.0","3KB8R4ZV1FT99IV6AXQAU18A0AGGBE","A2JDYN6QM8M5UN","3KVQ0UJWPX71V463XQYDOZYIDLRW5D","","753.5","img/land3.png","76","755.4000000357628","3","1","3","1,0.7,0.7,0.7,1,0.7,0.7,0.7,1","",""
"","html-keyboard-response","3","18640","0.0-3.0","3KB8R4ZV1FT99IV6AXQAU18A0AGGBE","A2JDYN6QM8M5UN","3KVQ0UJWPX71V463XQYDOZYIDLRW5D","","null","<img src=""img/land3.png"" style=""width:200px; border:14px solid green;"">","null","","","","","","",""
"","image-keyboard-response","4","18983","0.0-4.0","3KB8R4ZV1FT99IV6AXQAU18A0AGGBE","A2JDYN6QM8M5UN","3KVQ0UJWPX71V463XQYDOZYIDLRW5D","","341.39999997615814","img/land3.png","76","342.5999999642372","3","1","3","1,0.7,0.7,0.7,1,0.7,0.7,0.7,1","",""
"","html-keyboard-response","5","19286","0.0-5.0","3KB8R4ZV1FT99IV6AXQAU18A0AGGBE","A2JDYN6QM8M5UN","3KVQ0UJWPX71V463XQYDOZYIDLRW5D","","null","<img src=""img/land3.png"" style=""width:200px; border:14px solid green;"">","null","","","","","","",""
"","image-keyboard-response","6","19903","0.0-6.0","3KB8R4ZV1FT99IV6AXQAU18A0AGGBE","A2JDYN6QM8M5UN","3KVQ0UJWPX71V463XQYDOZYIDLRW5D","","614.6000000238419","img/land2.png","74","616.0999999642372","1","1","2","1,0.7,0.7,0.7,1,0.7,0.7,0.7,1","",""
"","html-keyboard-response","7","20218","0.0-7.0","3KB8R4ZV1FT99IV6AXQAU18A0AGGBE","A2JDYN6QM8M5UN","3KVQ0UJWPX71V463XQYDOZYIDLRW5D","","null","<img src=""img/land2.png"" style=""width:200px; border:14px solid green;"">","null","","","","","","",""
"","image-keyboard-response","8","20735","0.0-8.0","3KB8R4ZV1FT99IV6AXQAU18A0AGGBE","A2JDYN6QM8M5UN","3KVQ0UJWPX71V463XQYDOZYIDLRW5D","","514.8000000119209","img/land1.png","74","516.5","1","1","1","1,0.7,0.7,0.7,1,0.7,0.7,0.7,1","",""
"","html-keyboard-response","9","21053","0.0-9.0","3KB8R4ZV1FT99IV6AXQAU18A0AGGBE","A2JDYN6QM8M5UN","3KVQ0UJWPX71V463XQYDOZYIDLRW5D","","null","<img src=""img/land1.png"" style=""width:200px; border:14px solid green;"">","null","","","","","","",""
"","image-keyboard-response","10","21495","0.0-10.0","3KB8R4ZV1FT99IV6AXQAU18A0AGGBE","A2JDYN6QM8M5UN","3KVQ0UJWPX71V463XQYDOZYIDLRW5D","","439.4000000357628","img/land3.png","76","441","3","1","3","1,0.7,0.7,0.7,1,0.7,0.7,0.7,1","",""
"","html-keyboard-response","11","21807","0.0-11.0","3KB8R4ZV1FT99IV6AXQAU18A0AGGBE","A2JDYN6QM8M5UN","3KVQ0UJWPX71V463XQYDOZYIDLRW5D","","null","<img src=""img/land3.png"" style=""width:200px; border:14px solid green;"">","null","","","","","","",""
"","image-keyboard-response","12","22239","0.0-12.0","3KB8R4ZV1FT99IV6AXQAU18A0AGGBE","A2JDYN6QM8M5UN","3KVQ0UJWPX71V463XQYDOZYIDLRW5D","","430","img/land1.png","74","431.5999999642372","1","1","1","1,0.7,0.7,0.7,1,0.7,0.7,0.7,1","",""
"","html-keyboard-response","13","22547","0.0-13.0","3KB8R4ZV1FT99IV6AXQAU18A0AGGBE","A2JDYN6QM8M5UN","3KVQ0UJWPX71V463XQYDOZYIDLRW5D","","null","<img src=""img/land1.png"" style=""width:200px; border:14px solid green;"">","null","","","","","","",""
"","image-keyboard-response","14","22886","0.0-14.0","3KB8R4ZV1FT99IV6AXQAU18A0AGGBE","A2JDYN6QM8M5UN","3KVQ0UJWPX71V463XQYDOZYIDLRW5D","","338.10000002384186","img/land2.png","74","338.80000001192093","1","0","2","1,0.7,0.7,0.7,1,0.7,0.7,0.7,1","",""
"","html-keyboard-response","15","23189","0.0-15.0","3KB8R4ZV1FT99IV6AXQAU18A0AGGBE","A2JDYN6QM8M5UN","3KVQ0UJWPX71V463XQYDOZYIDLRW5D","","null","<img src=""img/land2.png"" style=""width:200px;border:14px solid red;"">","null","","","","","","",""
"","image-keyboard-response","16","23775","0.0-16.0","3KB8R4ZV1FT99IV6AXQAU18A0AGGBE","A2JDYN6QM8M5UN","3KVQ0UJWPX71V463XQYDOZYIDLRW5D","","583.8999999761581","img/land1.png","74","585.3000000119209","1","1","1","1,0.7,0.7,0.7,1,0.7,0.7,0.7,1","",""
"","html-keyboard-response","17","24084","0.0-17.0","3KB8R4ZV1FT99IV6AXQAU18A0AGGBE","A2JDYN6QM8M5UN","3KVQ0UJWPX71V463XQYDOZYIDLRW5D","","null","<img src=""img/land1.png"" style=""width:200px; border:14px solid green;"">","null","","","","","","",""
"","image-keyboard-response","18","24479","0.0-18.0","3KB8R4ZV1FT99IV6AXQAU18A0AGGBE","A2JDYN6QM8M5UN","3KVQ0UJWPX71V463XQYDOZYIDLRW5D","","392.60000002384186","img/land2.png","74","394.30000001192093","1","1","2","1,0.7,0.7,0.7,1,0.7,0.7,0.7,1","",""
"","html-keyboard-response","19","24788","0.0-19.0","3KB8R4ZV1FT99IV6AXQAU18A0AGGBE","A2JDYN6QM8M5UN","3KVQ0UJWPX71V463XQYDOZYIDLRW5D","","null","<img src=""img/land2.png"" style=""width:200px; border:14px solid green;"">","null","","","","","","",""
"","image-keyboard-response","20","25199","0.0-20.0","3KB8R4ZV1FT99IV6AXQAU18A0AGGBE","A2JDYN6QM8M5UN","3KVQ0UJWPX71V463XQYDOZYIDLRW5D","","408.69999998807907","img/land1.png","74","410.4000000357628","1","1","1","1,0.7,0.7,0.7,1,0.7,0.7,0.7,1","",""
"","html-keyboard-response","21","25513","0.0-21.0","3KB8R4ZV1FT99IV6AXQAU18A0AGGBE","A2JDYN6QM8M5UN","3KVQ0UJWPX71V463XQYDOZYIDLRW5D","","null","<img src=""img/land1.png"" style=""width:200px; border:14px solid green;"">","null","","","","","","",""
"","image-keyboard-response","22","25919","0.0-22.0","3KB8R4ZV1FT99IV6AXQAU18A0AGGBE","A2JDYN6QM8M5UN","3KVQ0UJWPX71V463XQYDOZYIDLRW5D","","403.69999998807907","img/land2.png","74","405.19999998807907","1","1","2","1,0.7,0.7,0.7,1,0.7,0.7,0.7,1","",""
"","html-keyboard-response","23","26222","0.0-23.0","3KB8R4ZV1FT99IV6AXQAU18A0AGGBE","A2JDYN6QM8M5UN","3KVQ0UJWPX71V463XQYDOZYIDLRW5D","","null","<img src=""img/land2.png"" style=""width:200px; border:14px solid green;"">","null","","","","","","",""
"","image-keyboard-response","24","26807","0.0-24.0","3KB8R4ZV1FT99IV6AXQAU18A0AGGBE","A2JDYN6QM8M5UN","3KVQ0UJWPX71V463XQYDOZYIDLRW5D","","582.8000000119209","img/land3.png","76","584.1999999880791","3","1","3","1,0.7,0.7,0.7,1,0.7,0.7,0.7,1","",""
"","html-keyboard-response","25","27111","0.0-25.0","3KB8R4ZV1FT99IV6AXQAU18A0AGGBE","A2JDYN6QM8M5UN","3KVQ0UJWPX71V463XQYDOZYIDLRW5D","","null","<img src=""img/land3.png"" style=""width:200px; border:14px solid green;"">","null","","","","","","",""
"","image-keyboard-response","26","27609","0.0-26.0","3KB8R4ZV1FT99IV6AXQAU18A0AGGBE","A2JDYN6QM8M5UN","3KVQ0UJWPX71V463XQYDOZYIDLRW5D","","496.89999997615814","img/land1.png","74","497.7999999523163","1","1","1","1,0.7,0.7,0.7,1,0.7,0.7,0.7,1","",""
"","html-keyboard-response","27","27919","0.0-27.0","3KB8R4ZV1FT99IV6AXQAU18A0AGGBE","A2JDYN6QM8M5UN","3KVQ0UJWPX71V463XQYDOZYIDLRW5D","","null","<img src=""img/land1.png"" style=""width:200px; border:14px solid green;"">","null","","","","","","",""
"","image-keyboard-response","28","28215","0.0-28.0","3KB8R4ZV1FT99IV6AXQAU18A0AGGBE","A2JDYN6QM8M5UN","3KVQ0UJWPX71V463XQYDOZYIDLRW5D","","293.4000000357628","img/land3.png","74","294.80000001192093","1","1","3","1,0.7,0.7,0.7,1,0.7,0.7,0.7,1","",""
"","html-keyboard-response","29","28530","0.0-29.0","3KB8R4ZV1FT99IV6AXQAU18A0AGGBE","A2JDYN6QM8M5UN","3KVQ0UJWPX71V463XQYDOZYIDLRW5D","","null","<img src=""img/land3.png"" style=""width:200px; border:14px solid green;"">","null","","","","","","",""
"","image-keyboard-response","30","29135","0.0-30.0","3KB8R4ZV1FT99IV6AXQAU18A0AGGBE","A2JDYN6QM8M5UN","3KVQ0UJWPX71V463XQYDOZYIDLRW5D","","602.8000000119209","img/land1.png","74","604.5","1","1","1","1,0.7,0.7,0.7,1,0.7,0.7,0.7,1","",""
"","html-keyboard-response","31","29445","0.0-31.0","3KB8R4ZV1FT99IV6AXQAU18A0AGGBE","A2JDYN6QM8M5UN","3KVQ0UJWPX71V463XQYDOZYIDLRW5D","","null","<img src=""img/land1.png"" style=""width:200px; border:14px solid green;"">","null","","","","","","",""
"","image-keyboard-response","32","29783","0.0-32.0","3KB8R4ZV1FT99IV6AXQAU18A0AGGBE","A2JDYN6QM8M5UN","3KVQ0UJWPX71V463XQYDOZYIDLRW5D","","336","img/land1.png","74","337.4000000357628","1","1","1","1,0.7,0.7,0.7,1,0.7,0.7,0.7,1","",""
"","html-keyboard-response","33","30085","0.0-33.0","3KB8R4ZV1FT99IV6AXQAU18A0AGGBE","A2JDYN6QM8M5UN","3KVQ0UJWPX71V463XQYDOZYIDLRW5D","","null","<img src=""img/land1.png"" style=""width:200px; border:14px solid green;"">","null","","","","","","",""
"","image-keyboard-response","34","30503","0.0-34.0","3KB8R4ZV1FT99IV6AXQAU18A0AGGBE","A2JDYN6QM8M5UN","3KVQ0UJWPX71V463XQYDOZYIDLRW5D","","416.30000001192093","img/land3.png","76","417.5","3","1","3","1,0.7,0.7,0.7,1,0.7,0.7,0.7,1","",""
"","html-keyboard-response","35","30806","0.0-35.0","3KB8R4ZV1FT99IV6AXQAU18A0AGGBE","A2JDYN6QM8M5UN","3KVQ0UJWPX71V463XQYDOZYIDLRW5D","","null","<img src=""img/land3.png"" style=""width:200px; border:14px solid green;"">","null","","","","","","",""
"","image-keyboard-response","36","31279","0.0-36.0","3KB8R4ZV1FT99IV6AXQAU18A0AGGBE","A2JDYN6QM8M5UN","3KVQ0UJWPX71V463XQYDOZYIDLRW5D","","471.2000000476837","img/land2.png","74","472.80000001192093","1","1","2","1,0.7,0.7,0.7,1,0.7,0.7,0.7,1","",""
"","html-keyboard-response","37","31582","0.0-37.0","3KB8R4ZV1FT99IV6AXQAU18A0AGGBE","A2JDYN6QM8M5UN","3KVQ0UJWPX71V463XQYDOZYIDLRW5D","","null","<img src=""img/land2.png"" style=""width:200px; border:14px solid green;"">","null","","","","","","",""
"","image-keyboard-response","38","31879","0.0-38.0","3KB8R4ZV1FT99IV6AXQAU18A0AGGBE","A2JDYN6QM8M5UN","3KVQ0UJWPX71V463XQYDOZYIDLRW5D","","295.30000001192093","img/land2.png","74","296.80000001192093","1","1","2","1,0.7,0.7,0.7,1,0.7,0.7,0.7,1","",""
"","html-keyboard-response","39","32181","0.0-39.0","3KB8R4ZV1FT99IV6AXQAU18A0AGGBE","A2JDYN6QM8M5UN","3KVQ0UJWPX71V463XQYDOZYIDLRW5D","","null","<img src=""img/land2.png"" style=""width:200px; border:14px solid green;"">","null","","","","","","",""
"","image-keyboard-response","40","32599","0.0-40.0","3KB8R4ZV1FT99IV6AXQAU18A0AGGBE","A2JDYN6QM8M5UN","3KVQ0UJWPX71V463XQYDOZYIDLRW5D","","415.5","img/land1.png","76","417.0999999642372","3","0","1","1,0.7,0.7,0.7,1,0.7,0.7,0.7,1","",""
"","html-keyboard-response","41","32901","0.0-41.0","3KB8R4ZV1FT99IV6AXQAU18A0AGGBE","A2JDYN6QM8M5UN","3KVQ0UJWPX71V463XQYDOZYIDLRW5D","","null","<img src=""img/land1.png"" style=""width:200px;border:14px solid red;"">","null","","","","","","",""
"","image-keyboard-response","42","33543","0.0-42.0","3KB8R4ZV1FT99IV6AXQAU18A0AGGBE","A2JDYN6QM8M5UN","3KVQ0UJWPX71V463XQYDOZYIDLRW5D","","639.5999999642372","img/land2.png","74","641.1999999880791","1","1","2","1,0.7,0.7,0.7,1,0.7,0.7,0.7,1","",""
"","html-keyboard-response","43","33846","0.0-43.0","3KB8R4ZV1FT99IV6AXQAU18A0AGGBE","A2JDYN6QM8M5UN","3KVQ0UJWPX71V463XQYDOZYIDLRW5D","","null","<img src=""img/land2.png"" style=""width:200px; border:14px solid green;"">","null","","","","","","",""
"","image-keyboard-response","44","34142","0.0-44.0","3KB8R4ZV1FT99IV6AXQAU18A0AGGBE","A2JDYN6QM8M5UN","3KVQ0UJWPX71V463XQYDOZYIDLRW5D","","294.19999998807907","img/land2.png","74","295.30000001192093","1","0","2","1,0.7,0.7,0.7,1,0.7,0.7,0.7,1","",""
"","html-keyboard-response","45","34443","0.0-45.0","3KB8R4ZV1FT99IV6AXQAU18A0AGGBE","A2JDYN6QM8M5UN","3KVQ0UJWPX71V463XQYDOZYIDLRW5D","","null","<img src=""img/land2.png"" style=""width:200px;border:14px solid red;"">","null","","","","","","",""
"","image-keyboard-response","46","35911","0.0-46.0","3KB8R4ZV1FT99IV6AXQAU18A0AGGBE","A2JDYN6QM8M5UN","3KVQ0UJWPX71V463XQYDOZYIDLRW5D","","1465.300000011921","img/land3.png","74","1466.6000000238419","1","1","3","1,0.7,0.7,0.7,1,0.7,0.7,0.7,1","",""
"","html-keyboard-response","47","36214","0.0-47.0","3KB8R4ZV1FT99IV6AXQAU18A0AGGBE","A2JDYN6QM8M5UN","3KVQ0UJWPX71V463XQYDOZYIDLRW5D","","null","<img src=""img/land3.png"" style=""width:200px; border:14px solid green;"">","null","","","","","","",""
"","image-keyboard-response","48","37142","0.0-48.0","3KB8R4ZV1FT99IV6AXQAU18A0AGGBE","A2JDYN6QM8M5UN","3KVQ0UJWPX71V463XQYDOZYIDLRW5D","","926.1999999880791","img/land2.png","76","927.8000000119209","3","1","2","1,0.7,0.7,0.7,1,0.7,0.7,0.7,1","",""
"","html-keyboard-response","49","37445","0.0-49.0","3KB8R4ZV1FT99IV6AXQAU18A0AGGBE","A2JDYN6QM8M5UN","3KVQ0UJWPX71V463XQYDOZYIDLRW5D","","null","<img src=""img/land2.png"" style=""width:200px; border:14px solid green;"">","null","","","","","","",""
"","image-keyboard-response","50","38007","0.0-50.0","3KB8R4ZV1FT99IV6AXQAU18A0AGGBE","A2JDYN6QM8M5UN","3KVQ0UJWPX71V463XQYDOZYIDLRW5D","","560.3000000119209","img/land3.png","76","561.8000000119209","3","1","3","1,0.7,0.7,0.7,1,0.7,0.7,0.7,1","",""
"","html-keyboard-response","51","38310","0.0-51.0","3KB8R4ZV1FT99IV6AXQAU18A0AGGBE","A2JDYN6QM8M5UN","3KVQ0UJWPX71V463XQYDOZYIDLRW5D","","null","<img src=""img/land3.png"" style=""width:200px; border:14px solid green;"">","null","","","","","","",""
"","image-keyboard-response","52","38742","0.0-52.0","3KB8R4ZV1FT99IV6AXQAU18A0AGGBE","A2JDYN6QM8M5UN","3KVQ0UJWPX71V463XQYDOZYIDLRW5D","","430.89999997615814","img/land2.png","76","432.5","3","1","2","1,0.7,0.7,0.7,1,0.7,0.7,0.7,1","",""
"","html-keyboard-response","53","39045","0.0-53.0","3KB8R4ZV1FT99IV6AXQAU18A0AGGBE","A2JDYN6QM8M5UN","3KVQ0UJWPX71V463XQYDOZYIDLRW5D","","null","<img src=""img/land2.png"" style=""width:200px; border:14px solid green;"">","null","","","","","","",""
"","image-keyboard-response","54","39358","0.0-54.0","3KB8R4ZV1FT99IV6AXQAU18A0AGGBE","A2JDYN6QM8M5UN","3KVQ0UJWPX71V463XQYDOZYIDLRW5D","","311.5","img/land3.png","76","312.9000000357628","3","1","3","1,0.7,0.7,0.7,1,0.7,0.7,0.7,1","",""
"","html-keyboard-response","55","39662","0.0-55.0","3KB8R4ZV1FT99IV6AXQAU18A0AGGBE","A2JDYN6QM8M5UN","3KVQ0UJWPX71V463XQYDOZYIDLRW5D","","null","<img src=""img/land3.png"" style=""width:200px; border:14px solid green;"">","null","","","","","","",""
"","image-keyboard-response","56","40071","0.0-56.0","3KB8R4ZV1FT99IV6AXQAU18A0AGGBE","A2JDYN6QM8M5UN","3KVQ0UJWPX71V463XQYDOZYIDLRW5D","","407.10000002384186","img/land1.png","74","408.5","1","1","1","1,0.7,0.7,0.7,1,0.7,0.7,0.7,1","",""
"","html-keyboard-response","57","40373","0.0-57.0","3KB8R4ZV1FT99IV6AXQAU18A0AGGBE","A2JDYN6QM8M5UN","3KVQ0UJWPX71V463XQYDOZYIDLRW5D","","null","<img src=""img/land1.png"" style=""width:200px; border:14px solid green;"">","null","","","","","","",""
"","image-keyboard-response","58","40711","0.0-58.0","3KB8R4ZV1FT99IV6AXQAU18A0AGGBE","A2JDYN6QM8M5UN","3KVQ0UJWPX71V463XQYDOZYIDLRW5D","","336.4000000357628","img/land1.png","74","337.7000000476837","1","1","1","1,0.7,0.7,0.7,1,0.7,0.7,0.7,1","",""
"","html-keyboard-response","59","41013","0.0-59.0","3KB8R4ZV1FT99IV6AXQAU18A0AGGBE","A2JDYN6QM8M5UN","3KVQ0UJWPX71V463XQYDOZYIDLRW5D","","null","<img src=""img/land1.png"" style=""width:200px; border:14px solid green;"">","null","","","","","","",""
"","image-keyboard-response","60","41527","0.0-60.0","3KB8R4ZV1FT99IV6AXQAU18A0AGGBE","A2JDYN6QM8M5UN","3KVQ0UJWPX71V463XQYDOZYIDLRW5D","","512.0999999642372","img/land2.png","76","513.5","3","1","2","1,0.7,0.7,0.7,1,0.7,0.7,0.7,1","",""
"","html-keyboard-response","61","41829","0.0-61.0","3KB8R4ZV1FT99IV6AXQAU18A0AGGBE","A2JDYN6QM8M5UN","3KVQ0UJWPX71V463XQYDOZYIDLRW5D","","null","<img src=""img/land2.png"" style=""width:200px; border:14px solid green;"">","null","","","","","","",""
"","image-keyboard-response","62","42174","0.0-62.0","3KB8R4ZV1FT99IV6AXQAU18A0AGGBE","A2JDYN6QM8M5UN","3KVQ0UJWPX71V463XQYDOZYIDLRW5D","","343.9000000357628","img/land3.png","76","345.39999997615814","3","1","3","1,0.7,0.7,0.7,1,0.7,0.7,0.7,1","",""
"","html-keyboard-response","63","42478","0.0-63.0","3KB8R4ZV1FT99IV6AXQAU18A0AGGBE","A2JDYN6QM8M5UN","3KVQ0UJWPX71V463XQYDOZYIDLRW5D","","null","<img src=""img/land3.png"" style=""width:200px; border:14px solid green;"">","null","","","","","","",""
"","image-keyboard-response","64","42951","0.0-64.0","3KB8R4ZV1FT99IV6AXQAU18A0AGGBE","A2JDYN6QM8M5UN","3KVQ0UJWPX71V463XQYDOZYIDLRW5D","","471.0999999642372","img/land1.png","74","472.69999998807907","1","1","1","1,0.7,0.7,0.7,1,0.7,0.7,0.7,1","",""
"","html-keyboard-response","65","43253","0.0-65.0","3KB8R4ZV1FT99IV6AXQAU18A0AGGBE","A2JDYN6QM8M5UN","3KVQ0UJWPX71V463XQYDOZYIDLRW5D","","null","<img src=""img/land1.png"" style=""width:200px; border:14px solid green;"">","null","","","","","","",""
"","image-keyboard-response","66","43546","0.0-66.0","3KB8R4ZV1FT99IV6AXQAU18A0AGGBE","A2JDYN6QM8M5UN","3KVQ0UJWPX71V463XQYDOZYIDLRW5D","","290.80000001192093","img/land1.png","74","291.89999997615814","1","1","1","1,0.7,0.7,0.7,1,0.7,0.7,0.7,1","",""
"","html-keyboard-response","67","43848","0.0-67.0","3KB8R4ZV1FT99IV6AXQAU18A0AGGBE","A2JDYN6QM8M5UN","3KVQ0UJWPX71V463XQYDOZYIDLRW5D","","null","<img src=""img/land1.png"" style=""width:200px; border:14px solid green;"">","null","","","","","","",""
"","image-keyboard-response","68","44320","0.0-68.0","3KB8R4ZV1FT99IV6AXQAU18A0AGGBE","A2JDYN6QM8M5UN","3KVQ0UJWPX71V463XQYDOZYIDLRW5D","","470.39999997615814","img/land3.png","76","471.80000001192093","3","1","3","1,0.7,0.7,0.7,1,0.7,0.7,0.7,1","",""
"","html-keyboard-response","69","44624","0.0-69.0","3KB8R4ZV1FT99IV6AXQAU18A0AGGBE","A2JDYN6QM8M5UN","3KVQ0UJWPX71V463XQYDOZYIDLRW5D","","null","<img src=""img/land3.png"" style=""width:200px; border:14px solid green;"">","null","","","","","","",""
"","image-keyboard-response","70","44979","0.0-70.0","3KB8R4ZV1FT99IV6AXQAU18A0AGGBE","A2JDYN6QM8M5UN","3KVQ0UJWPX71V463XQYDOZYIDLRW5D","","352.89999997615814","img/land2.png","76","354.19999998807907","3","1","2","1,0.7,0.7,0.7,1,0.7,0.7,0.7,1","",""
"","html-keyboard-response","71","45282","0.0-71.0","3KB8R4ZV1FT99IV6AXQAU18A0AGGBE","A2JDYN6QM8M5UN","3KVQ0UJWPX71V463XQYDOZYIDLRW5D","","null","<img src=""img/land2.png"" style=""width:200px; border:14px solid green;"">","null","","","","","","",""
"","image-keyboard-response","72","45896","0.0-72.0","3KB8R4ZV1FT99IV6AXQAU18A0AGGBE","A2JDYN6QM8M5UN","3KVQ0UJWPX71V463XQYDOZYIDLRW5D","","612.5","img/land3.png","76","613.6999999880791","3","1","3","1,0.7,0.7,0.7,1,0.7,0.7,0.7,1","",""
"","html-keyboard-response","73","46201","0.0-73.0","3KB8R4ZV1FT99IV6AXQAU18A0AGGBE","A2JDYN6QM8M5UN","3KVQ0UJWPX71V463XQYDOZYIDLRW5D","","null","<img src=""img/land3.png"" style=""width:200px; border:14px solid green;"">","null","","","","","","",""
"","image-keyboard-response","74","46797","0.0-74.0","3KB8R4ZV1FT99IV6AXQAU18A0AGGBE","A2JDYN6QM8M5UN","3KVQ0UJWPX71V463XQYDOZYIDLRW5D","","594.6000000238419","img/land2.png","76","595.6999999880791","3","1","2","1,0.7,0.7,0.7,1,0.7,0.7,0.7,1","",""
"","html-keyboard-response","75","47100","0.0-75.0","3KB8R4ZV1FT99IV6AXQAU18A0AGGBE","A2JDYN6QM8M5UN","3KVQ0UJWPX71V463XQYDOZYIDLRW5D","","null","<img src=""img/land2.png"" style=""width:200px; border:14px solid green;"">","null","","","","","","",""
"","image-keyboard-response","76","47519","0.0-76.0","3KB8R4ZV1FT99IV6AXQAU18A0AGGBE","A2JDYN6QM8M5UN","3KVQ0UJWPX71V463XQYDOZYIDLRW5D","","418.19999998807907","img/land3.png","76","419.19999998807907","3","1","3","1,0.7,0.7,0.7,1,0.7,0.7,0.7,1","",""
"","html-keyboard-response","77","47822","0.0-77.0","3KB8R4ZV1FT99IV6AXQAU18A0AGGBE","A2JDYN6QM8M5UN","3KVQ0UJWPX71V463XQYDOZYIDLRW5D","","null","<img src=""img/land3.png"" style=""width:200px; border:14px solid green;"">","null","","","","","","",""
"","image-keyboard-response","78","48169","0.0-78.0","3KB8R4ZV1FT99IV6AXQAU18A0AGGBE","A2JDYN6QM8M5UN","3KVQ0UJWPX71V463XQYDOZYIDLRW5D","","345.10000002384186","img/land3.png","76","346.10000002384186","3","1","3","1,0.7,0.7,0.7,1,0.7,0.7,0.7,1","",""
"","html-keyboard-response","79","48471","0.0-79.0","3KB8R4ZV1FT99IV6AXQAU18A0AGGBE","A2JDYN6QM8M5UN","3KVQ0UJWPX71V463XQYDOZYIDLRW5D","","null","<img src=""img/land3.png"" style=""width:200px; border:14px solid green;"">","null","","","","","","",""
"","image-keyboard-response","80","48790","0.0-80.0","3KB8R4ZV1FT99IV6AXQAU18A0AGGBE","A2JDYN6QM8M5UN","3KVQ0UJWPX71V463XQYDOZYIDLRW5D","","318.19999998807907","img/land3.png","76","319.30000001192093","3","1","3","1,0.7,0.7,0.7,1,0.7,0.7,0.7,1","",""
"","html-keyboard-response","81","49092","0.0-81.0","3KB8R4ZV1FT99IV6AXQAU18A0AGGBE","A2JDYN6QM8M5UN","3KVQ0UJWPX71V463XQYDOZYIDLRW5D","","null","<img src=""img/land3.png"" style=""width:200px; border:14px solid green;"">","null","","","","","","",""
"","image-keyboard-response","82","49422","0.0-82.0","3KB8R4ZV1FT99IV6AXQAU18A0AGGBE","A2JDYN6QM8M5UN","3KVQ0UJWPX71V463XQYDOZYIDLRW5D","","327.4000000357628","img/land3.png","76","329.30000001192093","3","1","3","1,0.7,0.7,0.7,1,0.7,0.7,0.7,1","",""
"","html-keyboard-response","83","49724","0.0-83.0","3KB8R4ZV1FT99IV6AXQAU18A0AGGBE","A2JDYN6QM8M5UN","3KVQ0UJWPX71V463XQYDOZYIDLRW5D","","null","<img src=""img/land3.png"" style=""width:200px; border:14px solid green;"">","null","","","","","","",""
"","image-keyboard-response","84","50062","0.0-84.0","3KB8R4ZV1FT99IV6AXQAU18A0AGGBE","A2JDYN6QM8M5UN","3KVQ0UJWPX71V463XQYDOZYIDLRW5D","","336.80000001192093","img/land3.png","76","338","3","1","3","1,0.7,0.7,0.7,1,0.7,0.7,0.7,1","",""
"","html-keyboard-response","85","50364","0.0-85.0","3KB8R4ZV1FT99IV6AXQAU18A0AGGBE","A2JDYN6QM8M5UN","3KVQ0UJWPX71V463XQYDOZYIDLRW5D","","null","<img src=""img/land3.png"" style=""width:200px; border:14px solid green;"">","null","","","","","","",""
"","image-keyboard-response","86","50863","0.0-86.0","3KB8R4ZV1FT99IV6AXQAU18A0AGGBE","A2JDYN6QM8M5UN","3KVQ0UJWPX71V463XQYDOZYIDLRW5D","","496.89999997615814","img/land1.png","74","498.19999998807907","1","1","1","1,0.7,0.7,0.7,1,0.7,0.7,0.7,1","",""
"","html-keyboard-response","87","51165","0.0-87.0","3KB8R4ZV1FT99IV6AXQAU18A0AGGBE","A2JDYN6QM8M5UN","3KVQ0UJWPX71V463XQYDOZYIDLRW5D","","null","<img src=""img/land1.png"" style=""width:200px; border:14px solid green;"">","null","","","","","","",""
"","image-keyboard-response","88","51822","0.0-88.0","3KB8R4ZV1FT99IV6AXQAU18A0AGGBE","A2JDYN6QM8M5UN","3KVQ0UJWPX71V463XQYDOZYIDLRW5D","","654.5","img/land2.png","76","655.8000000119209","3","0","2","1,0.7,0.7,0.7,1,0.7,0.7,0.7,1","",""
"","html-keyboard-response","89","52123","0.0-89.0","3KB8R4ZV1FT99IV6AXQAU18A0AGGBE","A2JDYN6QM8M5UN","3KVQ0UJWPX71V463XQYDOZYIDLRW5D","","null","<img src=""img/land2.png"" style=""width:200px;border:14px solid red;"">","null","","","","","","",""
"","image-keyboard-response","90","52798","0.0-90.0","3KB8R4ZV1FT99IV6AXQAU18A0AGGBE","A2JDYN6QM8M5UN","3KVQ0UJWPX71V463XQYDOZYIDLRW5D","","673.1000000238419","img/land3.png","76","674.7000000476837","3","1","3","1,0.7,0.7,0.7,1,0.7,0.7,0.7,1","",""
"","html-keyboard-response","91","53101","0.0-91.0","3KB8R4ZV1FT99IV6AXQAU18A0AGGBE","A2JDYN6QM8M5UN","3KVQ0UJWPX71V463XQYDOZYIDLRW5D","","null","<img src=""img/land3.png"" style=""width:200px; border:14px solid green;"">","null","","","","","","",""
"","image-keyboard-response","92","53366","0.0-92.0","3KB8R4ZV1FT99IV6AXQAU18A0AGGBE","A2JDYN6QM8M5UN","3KVQ0UJWPX71V463XQYDOZYIDLRW5D","","263.10000002384186","img/land3.png","76","264.5999999642372","3","1","3","1,0.7,0.7,0.7,1,0.7,0.7,0.7,1","",""
"","html-keyboard-response","93","53669","0.0-93.0","3KB8R4ZV1FT99IV6AXQAU18A0AGGBE","A2JDYN6QM8M5UN","3KVQ0UJWPX71V463XQYDOZYIDLRW5D","","null","<img src=""img/land3.png"" style=""width:200px; border:14px solid green;"">","null","","","","","","",""
"","image-keyboard-response","94","53942","0.0-94.0","3KB8R4ZV1FT99IV6AXQAU18A0AGGBE","A2JDYN6QM8M5UN","3KVQ0UJWPX71V463XQYDOZYIDLRW5D","","271.39999997615814","img/land3.png","76","272.80000001192093","3","1","3","1,0.7,0.7,0.7,1,0.7,0.7,0.7,1","",""
"","html-keyboard-response","95","54245","0.0-95.0","3KB8R4ZV1FT99IV6AXQAU18A0AGGBE","A2JDYN6QM8M5UN","3KVQ0UJWPX71V463XQYDOZYIDLRW5D","","null","<img src=""img/land3.png"" style=""width:200px; border:14px solid green;"">","null","","","","","","",""
"","image-keyboard-response","96","54758","0.0-96.0","3KB8R4ZV1FT99IV6AXQAU18A0AGGBE","A2JDYN6QM8M5UN","3KVQ0UJWPX71V463XQYDOZYIDLRW5D","","511.5","img/land2.png","75","513","2","1","2","1,0.7,0.7,0.7,1,0.7,0.7,0.7,1","",""
"","html-keyboard-response","97","55061","0.0-97.0","3KB8R4ZV1FT99IV6AXQAU18A0AGGBE","A2JDYN6QM8M5UN","3KVQ0UJWPX71V463XQYDOZYIDLRW5D","","null","<img src=""img/land2.png"" style=""width:200px; border:14px solid green;"">","null","","","","","","",""
"","image-keyboard-response","98","55894","0.0-98.0","3KB8R4ZV1FT99IV6AXQAU18A0AGGBE","A2JDYN6QM8M5UN","3KVQ0UJWPX71V463XQYDOZYIDLRW5D","","831.1999999880791","img/land1.png","74","832.5","1","1","1","1,0.7,0.7,0.7,1,0.7,0.7,0.7,1","",""
"","html-keyboard-response","99","56207","0.0-99.0","3KB8R4ZV1FT99IV6AXQAU18A0AGGBE","A2JDYN6QM8M5UN","3KVQ0UJWPX71V463XQYDOZYIDLRW5D","","null","<img src=""img/land1.png"" style=""width:200px; border:14px solid green;"">","null","","","","","","",""
"","image-keyboard-response","100","56694","0.0-100.0","3KB8R4ZV1FT99IV6AXQAU18A0AGGBE","A2JDYN6QM8M5UN","3KVQ0UJWPX71V463XQYDOZYIDLRW5D","","486","img/land2.png","75","487.39999997615814","2","1","2","1,0.7,0.7,0.7,1,0.7,0.7,0.7,1","",""
"","html-keyboard-response","101","56997","0.0-101.0","3KB8R4ZV1FT99IV6AXQAU18A0AGGBE","A2JDYN6QM8M5UN","3KVQ0UJWPX71V463XQYDOZYIDLRW5D","","null","<img src=""img/land2.png"" style=""width:200px; border:14px solid green;"">","null","","","","","","",""
"","image-keyboard-response","102","57342","0.0-102.0","3KB8R4ZV1FT99IV6AXQAU18A0AGGBE","A2JDYN6QM8M5UN","3KVQ0UJWPX71V463XQYDOZYIDLRW5D","","343.80000001192093","img/land3.png","76","345.19999998807907","3","1","3","1,0.7,0.7,0.7,1,0.7,0.7,0.7,1","",""
"","html-keyboard-response","103","57644","0.0-103.0","3KB8R4ZV1FT99IV6AXQAU18A0AGGBE","A2JDYN6QM8M5UN","3KVQ0UJWPX71V463XQYDOZYIDLRW5D","","null","<img src=""img/land3.png"" style=""width:200px; border:14px solid green;"">","null","","","","","","",""
"","image-keyboard-response","104","58046","0.0-104.0","3KB8R4ZV1FT99IV6AXQAU18A0AGGBE","A2JDYN6QM8M5UN","3KVQ0UJWPX71V463XQYDOZYIDLRW5D","","400.30000001192093","img/land2.png","75","401.69999998807907","2","1","2","1,0.7,0.7,0.7,1,0.7,0.7,0.7,1","",""
"","html-keyboard-response","105","58349","0.0-105.0","3KB8R4ZV1FT99IV6AXQAU18A0AGGBE","A2JDYN6QM8M5UN","3KVQ0UJWPX71V463XQYDOZYIDLRW5D","","null","<img src=""img/land2.png"" style=""width:200px; border:14px solid green;"">","null","","","","","","",""
"","image-keyboard-response","106","58701","0.0-106.0","3KB8R4ZV1FT99IV6AXQAU18A0AGGBE","A2JDYN6QM8M5UN","3KVQ0UJWPX71V463XQYDOZYIDLRW5D","","350.9000000357628","img/land2.png","75","352","2","1","2","1,0.7,0.7,0.7,1,0.7,0.7,0.7,1","",""
"","html-keyboard-response","107","59003","0.0-107.0","3KB8R4ZV1FT99IV6AXQAU18A0AGGBE","A2JDYN6QM8M5UN","3KVQ0UJWPX71V463XQYDOZYIDLRW5D","","null","<img src=""img/land2.png"" style=""width:200px; border:14px solid green;"">","null","","","","","","",""
"","image-keyboard-response","108","59311","0.0-108.0","3KB8R4ZV1FT99IV6AXQAU18A0AGGBE","A2JDYN6QM8M5UN","3KVQ0UJWPX71V463XQYDOZYIDLRW5D","","306.0999999642372","img/land2.png","75","307.60000002384186","2","1","2","1,0.7,0.7,0.7,1,0.7,0.7,0.7,1","",""
"","html-keyboard-response","109","59613","0.0-109.0","3KB8R4ZV1FT99IV6AXQAU18A0AGGBE","A2JDYN6QM8M5UN","3KVQ0UJWPX71V463XQYDOZYIDLRW5D","","null","<img src=""img/land2.png"" style=""width:200px; border:14px solid green;"">","null","","","","","","",""
"","image-keyboard-response","110","60071","0.0-110.0","3KB8R4ZV1FT99IV6AXQAU18A0AGGBE","A2JDYN6QM8M5UN","3KVQ0UJWPX71V463XQYDOZYIDLRW5D","","455.39999997615814","img/land3.png","76","456.89999997615814","3","1","3","1,0.7,0.7,0.7,1,0.7,0.7,0.7,1","",""
"","html-keyboard-response","111","60373","0.0-111.0","3KB8R4ZV1FT99IV6AXQAU18A0AGGBE","A2JDYN6QM8M5UN","3KVQ0UJWPX71V463XQYDOZYIDLRW5D","","null","<img src=""img/land3.png"" style=""width:200px; border:14px solid green;"">","null","","","","","","",""
"","image-keyboard-response","112","60934","0.0-112.0","3KB8R4ZV1FT99IV6AXQAU18A0AGGBE","A2JDYN6QM8M5UN","3KVQ0UJWPX71V463XQYDOZYIDLRW5D","","559.1999999880791","img/land1.png","74","560.5","1","1","1","1,0.7,0.7,0.7,1,0.7,0.7,0.7,1","",""
"","html-keyboard-response","113","61236","0.0-113.0","3KB8R4ZV1FT99IV6AXQAU18A0AGGBE","A2JDYN6QM8M5UN","3KVQ0UJWPX71V463XQYDOZYIDLRW5D","","null","<img src=""img/land1.png"" style=""width:200px; border:14px solid green;"">","null","","","","","","",""
"","image-keyboard-response","114","62014","0.0-114.0","3KB8R4ZV1FT99IV6AXQAU18A0AGGBE","A2JDYN6QM8M5UN","3KVQ0UJWPX71V463XQYDOZYIDLRW5D","","775.8999999761581","img/land2.png","75","777.3999999761581","2","1","2","1,0.7,0.7,0.7,1,0.7,0.7,0.7,1","",""
"","html-keyboard-response","115","62317","0.0-115.0","3KB8R4ZV1FT99IV6AXQAU18A0AGGBE","A2JDYN6QM8M5UN","3KVQ0UJWPX71V463XQYDOZYIDLRW5D","","null","<img src=""img/land2.png"" style=""width:200px; border:14px solid green;"">","null","","","","","","",""
"","image-keyboard-response","116","62886","0.0-116.0","3KB8R4ZV1FT99IV6AXQAU18A0AGGBE","A2JDYN6QM8M5UN","3KVQ0UJWPX71V463XQYDOZYIDLRW5D","","567.8999999761581","img/land3.png","76","569.3000000119209","3","1","3","1,0.7,0.7,0.7,1,0.7,0.7,0.7,1","",""
"","html-keyboard-response","117","63189","0.0-117.0","3KB8R4ZV1FT99IV6AXQAU18A0AGGBE","A2JDYN6QM8M5UN","3KVQ0UJWPX71V463XQYDOZYIDLRW5D","","null","<img src=""img/land3.png"" style=""width:200px; border:14px solid green;"">","null","","","","","","",""
"","image-keyboard-response","118","63864","0.0-118.0","3KB8R4ZV1FT99IV6AXQAU18A0AGGBE","A2JDYN6QM8M5UN","3KVQ0UJWPX71V463XQYDOZYIDLRW5D","","673.3000000119209","img/land1.png","74","674.3999999761581","1","1","1","1,0.7,0.7,0.7,1,0.7,0.7,0.7,1","",""
"","html-keyboard-response","119","64166","0.0-119.0","3KB8R4ZV1FT99IV6AXQAU18A0AGGBE","A2JDYN6QM8M5UN","3KVQ0UJWPX71V463XQYDOZYIDLRW5D","","null","<img src=""img/land1.png"" style=""width:200px; border:14px solid green;"">","null","","","","","","",""
"","image-keyboard-response","120","64494","0.0-120.0","3KB8R4ZV1FT99IV6AXQAU18A0AGGBE","A2JDYN6QM8M5UN","3KVQ0UJWPX71V463XQYDOZYIDLRW5D","","326.60000002384186","img/land2.png","75","327.89999997615814","2","1","2","1,0.7,0.7,0.7,1,0.7,0.7,0.7,1","",""
"","html-keyboard-response","121","64797","0.0-121.0","3KB8R4ZV1FT99IV6AXQAU18A0AGGBE","A2JDYN6QM8M5UN","3KVQ0UJWPX71V463XQYDOZYIDLRW5D","","null","<img src=""img/land2.png"" style=""width:200px; border:14px solid green;"">","null","","","","","","",""
"","image-keyboard-response","122","65151","0.0-122.0","3KB8R4ZV1FT99IV6AXQAU18A0AGGBE","A2JDYN6QM8M5UN","3KVQ0UJWPX71V463XQYDOZYIDLRW5D","","351.39999997615814","img/land2.png","75","352.89999997615814","2","1","2","1,0.7,0.7,0.7,1,0.7,0.7,0.7,1","",""
"","html-keyboard-response","123","65454","0.0-123.0","3KB8R4ZV1FT99IV6AXQAU18A0AGGBE","A2JDYN6QM8M5UN","3KVQ0UJWPX71V463XQYDOZYIDLRW5D","","null","<img src=""img/land2.png"" style=""width:200px; border:14px solid green;"">","null","","","","","","",""
"","image-keyboard-response","124","65877","0.0-124.0","3KB8R4ZV1FT99IV6AXQAU18A0AGGBE","A2JDYN6QM8M5UN","3KVQ0UJWPX71V463XQYDOZYIDLRW5D","","421.80000001192093","img/land1.png","74","423","1","1","1","1,0.7,0.7,0.7,1,0.7,0.7,0.7,1","",""
"","html-keyboard-response","125","66181","0.0-125.0","3KB8R4ZV1FT99IV6AXQAU18A0AGGBE","A2JDYN6QM8M5UN","3KVQ0UJWPX71V463XQYDOZYIDLRW5D","","null","<img src=""img/land1.png"" style=""width:200px; border:14px solid green;"">","null","","","","","","",""
"","image-keyboard-response","126","66766","0.0-126.0","3KB8R4ZV1FT99IV6AXQAU18A0AGGBE","A2JDYN6QM8M5UN","3KVQ0UJWPX71V463XQYDOZYIDLRW5D","","583.3000000119209","img/land3.png","76","584.7000000476837","3","1","3","1,0.7,0.7,0.7,1,0.7,0.7,0.7,1","",""
"","html-keyboard-response","127","67068","0.0-127.0","3KB8R4ZV1FT99IV6AXQAU18A0AGGBE","A2JDYN6QM8M5UN","3KVQ0UJWPX71V463XQYDOZYIDLRW5D","","null","<img src=""img/land3.png"" style=""width:200px; border:14px solid green;"">","null","","","","","","",""
"","image-keyboard-response","128","67693","0.0-128.0","3KB8R4ZV1FT99IV6AXQAU18A0AGGBE","A2JDYN6QM8M5UN","3KVQ0UJWPX71V463XQYDOZYIDLRW5D","","623.5999999642372","img/land1.png","74","624.3999999761581","1","1","1","1,0.7,0.7,0.7,1,0.7,0.7,0.7,1","",""
"","html-keyboard-response","129","67994","0.0-129.0","3KB8R4ZV1FT99IV6AXQAU18A0AGGBE","A2JDYN6QM8M5UN","3KVQ0UJWPX71V463XQYDOZYIDLRW5D","","null","<img src=""img/land1.png"" style=""width:200px; border:14px solid green;"">","null","","","","","","",""
"","image-keyboard-response","130","68406","0.0-130.0","3KB8R4ZV1FT99IV6AXQAU18A0AGGBE","A2JDYN6QM8M5UN","3KVQ0UJWPX71V463XQYDOZYIDLRW5D","","410.30000001192093","img/land1.png","74","411.69999998807907","1","1","1","1,0.7,0.7,0.7,1,0.7,0.7,0.7,1","",""
"","html-keyboard-response","131","68709","0.0-131.0","3KB8R4ZV1FT99IV6AXQAU18A0AGGBE","A2JDYN6QM8M5UN","3KVQ0UJWPX71V463XQYDOZYIDLRW5D","","null","<img src=""img/land1.png"" style=""width:200px; border:14px solid green;"">","null","","","","","","",""
"","image-keyboard-response","132","69070","0.0-132.0","3KB8R4ZV1FT99IV6AXQAU18A0AGGBE","A2JDYN6QM8M5UN","3KVQ0UJWPX71V463XQYDOZYIDLRW5D","","359.19999998807907","img/land2.png","75","360.69999998807907","2","1","2","1,0.7,0.7,0.7,1,0.7,0.7,0.7,1","",""
"","html-keyboard-response","133","69372","0.0-133.0","3KB8R4ZV1FT99IV6AXQAU18A0AGGBE","A2JDYN6QM8M5UN","3KVQ0UJWPX71V463XQYDOZYIDLRW5D","","null","<img src=""img/land2.png"" style=""width:200px; border:14px solid green;"">","null","","","","","","",""
"","image-keyboard-response","134","69710","0.0-134.0","3KB8R4ZV1FT99IV6AXQAU18A0AGGBE","A2JDYN6QM8M5UN","3KVQ0UJWPX71V463XQYDOZYIDLRW5D","","336.19999998807907","img/land2.png","75","337.60000002384186","2","1","2","1,0.7,0.7,0.7,1,0.7,0.7,0.7,1","",""
"","html-keyboard-response","135","70014","0.0-135.0","3KB8R4ZV1FT99IV6AXQAU18A0AGGBE","A2JDYN6QM8M5UN","3KVQ0UJWPX71V463XQYDOZYIDLRW5D","","null","<img src=""img/land2.png"" style=""width:200px; border:14px solid green;"">","null","","","","","","",""
"","image-keyboard-response","136","70350","0.0-136.0","3KB8R4ZV1FT99IV6AXQAU18A0AGGBE","A2JDYN6QM8M5UN","3KVQ0UJWPX71V463XQYDOZYIDLRW5D","","334.5999999642372","img/land3.png","76","335.89999997615814","3","1","3","1,0.7,0.7,0.7,1,0.7,0.7,0.7,1","",""
"","html-keyboard-response","137","70652","0.0-137.0","3KB8R4ZV1FT99IV6AXQAU18A0AGGBE","A2JDYN6QM8M5UN","3KVQ0UJWPX71V463XQYDOZYIDLRW5D","","null","<img src=""img/land3.png"" style=""width:200px; border:14px solid green;"">","null","","","","","","",""
"","image-keyboard-response","138","71126","0.0-138.0","3KB8R4ZV1FT99IV6AXQAU18A0AGGBE","A2JDYN6QM8M5UN","3KVQ0UJWPX71V463XQYDOZYIDLRW5D","","472.10000002384186","img/land1.png","74","473.5","1","1","1","1,0.7,0.7,0.7,1,0.7,0.7,0.7,1","",""
"","html-keyboard-response","139","71428","0.0-139.0","3KB8R4ZV1FT99IV6AXQAU18A0AGGBE","A2JDYN6QM8M5UN","3KVQ0UJWPX71V463XQYDOZYIDLRW5D","","null","<img src=""img/land1.png"" style=""width:200px; border:14px solid green;"">","null","","","","","","",""
"","image-keyboard-response","140","71799","0.0-140.0","3KB8R4ZV1FT99IV6AXQAU18A0AGGBE","A2JDYN6QM8M5UN","3KVQ0UJWPX71V463XQYDOZYIDLRW5D","","368.89999997615814","img/land2.png","75","370.30000001192093","2","1","2","1,0.7,0.7,0.7,1,0.7,0.7,0.7,1","",""
"","html-keyboard-response","141","72101","0.0-141.0","3KB8R4ZV1FT99IV6AXQAU18A0AGGBE","A2JDYN6QM8M5UN","3KVQ0UJWPX71V463XQYDOZYIDLRW5D","","null","<img src=""img/land2.png"" style=""width:200px; border:14px solid green;"">","null","","","","","","",""
"","image-keyboard-response","142","72758","0.0-142.0","3KB8R4ZV1FT99IV6AXQAU18A0AGGBE","A2JDYN6QM8M5UN","3KVQ0UJWPX71V463XQYDOZYIDLRW5D","","655.7999999523163","img/land1.png","74","657.1000000238419","1","1","1","1,0.7,0.7,0.7,1,0.7,0.7,0.7,1","",""
"","html-keyboard-response","143","73061","0.0-143.0","3KB8R4ZV1FT99IV6AXQAU18A0AGGBE","A2JDYN6QM8M5UN","3KVQ0UJWPX71V463XQYDOZYIDLRW5D","","null","<img src=""img/land1.png"" style=""width:200px; border:14px solid green;"">","null","","","","","","",""
"","image-keyboard-response","144","73582","0.0-144.0","3KB8R4ZV1FT99IV6AXQAU18A0AGGBE","A2JDYN6QM8M5UN","3KVQ0UJWPX71V463XQYDOZYIDLRW5D","","519.1999999880791","img/land2.png","75","520.6000000238419","2","1","2","1,0.7,0.7,0.7,1,0.7,0.7,0.7,1","",""
"","html-keyboard-response","145","73884","0.0-145.0","3KB8R4ZV1FT99IV6AXQAU18A0AGGBE","A2JDYN6QM8M5UN","3KVQ0UJWPX71V463XQYDOZYIDLRW5D","","null","<img src=""img/land2.png"" style=""width:200px; border:14px solid green;"">","null","","","","","","",""
"","image-keyboard-response","146","74461","0.0-146.0","3KB8R4ZV1FT99IV6AXQAU18A0AGGBE","A2JDYN6QM8M5UN","3KVQ0UJWPX71V463XQYDOZYIDLRW5D","","575.5","img/land3.png","74","576.6000000238419","1","0","3","1,0.7,0.7,0.7,1,0.7,0.7,0.7,1","",""
"","html-keyboard-response","147","74763","0.0-147.0","3KB8R4ZV1FT99IV6AXQAU18A0AGGBE","A2JDYN6QM8M5UN","3KVQ0UJWPX71V463XQYDOZYIDLRW5D","","null","<img src=""img/land3.png"" style=""width:200px;border:14px solid red;"">","null","","","","","","",""
"","image-keyboard-response","148","75294","0.0-148.0","3KB8R4ZV1FT99IV6AXQAU18A0AGGBE","A2JDYN6QM8M5UN","3KVQ0UJWPX71V463XQYDOZYIDLRW5D","","529","img/land2.png","74","530.3999999761581","1","1","2","1,0.7,0.7,0.7,1,0.7,0.7,0.7,1","",""
"","html-keyboard-response","149","75597","0.0-149.0","3KB8R4ZV1FT99IV6AXQAU18A0AGGBE","A2JDYN6QM8M5UN","3KVQ0UJWPX71V463XQYDOZYIDLRW5D","","null","<img src=""img/land2.png"" style=""width:200px; border:14px solid green;"">","null","","","","","","",""
"","image-keyboard-response","150","76366","0.0-150.0","3KB8R4ZV1FT99IV6AXQAU18A0AGGBE","A2JDYN6QM8M5UN","3KVQ0UJWPX71V463XQYDOZYIDLRW5D","","767.8000000119209","img/land1.png","74","769.3000000119209","1","1","1","1,0.7,0.7,0.7,1,0.7,0.7,0.7,1","",""
"","html-keyboard-response","151","76669","0.0-151.0","3KB8R4ZV1FT99IV6AXQAU18A0AGGBE","A2JDYN6QM8M5UN","3KVQ0UJWPX71V463XQYDOZYIDLRW5D","","null","<img src=""img/land1.png"" style=""width:200px; border:14px solid green;"">","null","","","","","","",""
"","image-keyboard-response","152","77030","0.0-152.0","3KB8R4ZV1FT99IV6AXQAU18A0AGGBE","A2JDYN6QM8M5UN","3KVQ0UJWPX71V463XQYDOZYIDLRW5D","","359.30000001192093","img/land1.png","74","360.5999999642372","1","1","1","1,0.7,0.7,0.7,1,0.7,0.7,0.7,1","",""
"","html-keyboard-response","153","77333","0.0-153.0","3KB8R4ZV1FT99IV6AXQAU18A0AGGBE","A2JDYN6QM8M5UN","3KVQ0UJWPX71V463XQYDOZYIDLRW5D","","null","<img src=""img/land1.png"" style=""width:200px; border:14px solid green;"">","null","","","","","","",""
"","image-keyboard-response","154","77638","0.0-154.0","3KB8R4ZV1FT99IV6AXQAU18A0AGGBE","A2JDYN6QM8M5UN","3KVQ0UJWPX71V463XQYDOZYIDLRW5D","","303.69999998807907","img/land1.png","74","305.10000002384186","1","1","1","1,0.7,0.7,0.7,1,0.7,0.7,0.7,1","",""
"","html-keyboard-response","155","77941","0.0-155.0","3KB8R4ZV1FT99IV6AXQAU18A0AGGBE","A2JDYN6QM8M5UN","3KVQ0UJWPX71V463XQYDOZYIDLRW5D","","null","<img src=""img/land1.png"" style=""width:200px; border:14px solid green;"">","null","","","","","","",""
"","image-keyboard-response","156","78374","0.0-156.0","3KB8R4ZV1FT99IV6AXQAU18A0AGGBE","A2JDYN6QM8M5UN","3KVQ0UJWPX71V463XQYDOZYIDLRW5D","","429","img/land2.png","75","430.69999998807907","2","1","2","1,0.7,0.7,0.7,1,0.7,0.7,0.7,1","",""
"","html-keyboard-response","157","78676","0.0-157.0","3KB8R4ZV1FT99IV6AXQAU18A0AGGBE","A2JDYN6QM8M5UN","3KVQ0UJWPX71V463XQYDOZYIDLRW5D","","null","<img src=""img/land2.png"" style=""width:200px; border:14px solid green;"">","null","","","","","","",""
"","image-keyboard-response","158","79142","0.0-158.0","3KB8R4ZV1FT99IV6AXQAU18A0AGGBE","A2JDYN6QM8M5UN","3KVQ0UJWPX71V463XQYDOZYIDLRW5D","","464.30000001192093","img/land3.png","76","465.69999998807907","3","1","3","1,0.7,0.7,0.7,1,0.7,0.7,0.7,1","",""
"","html-keyboard-response","159","79445","0.0-159.0","3KB8R4ZV1FT99IV6AXQAU18A0AGGBE","A2JDYN6QM8M5UN","3KVQ0UJWPX71V463XQYDOZYIDLRW5D","","null","<img src=""img/land3.png"" style=""width:200px; border:14px solid green;"">","null","","","","","","",""
"","image-keyboard-response","160","79782","0.0-160.0","3KB8R4ZV1FT99IV6AXQAU18A0AGGBE","A2JDYN6QM8M5UN","3KVQ0UJWPX71V463XQYDOZYIDLRW5D","","335.10000002384186","img/land3.png","76","336.4000000357628","3","1","3","1,0.7,0.7,0.7,1,0.7,0.7,0.7,1","",""
"","html-keyboard-response","161","80085","0.0-161.0","3KB8R4ZV1FT99IV6AXQAU18A0AGGBE","A2JDYN6QM8M5UN","3KVQ0UJWPX71V463XQYDOZYIDLRW5D","","null","<img src=""img/land3.png"" style=""width:200px; border:14px solid green;"">","null","","","","","","",""
"","image-keyboard-response","162","80669","0.0-162.0","3KB8R4ZV1FT99IV6AXQAU18A0AGGBE","A2JDYN6QM8M5UN","3KVQ0UJWPX71V463XQYDOZYIDLRW5D","","583","img/land1.png","74","584.0999999642372","1","1","1","1,0.7,0.7,0.7,1,0.7,0.7,0.7,1","",""
"","html-keyboard-response","163","80971","0.0-163.0","3KB8R4ZV1FT99IV6AXQAU18A0AGGBE","A2JDYN6QM8M5UN","3KVQ0UJWPX71V463XQYDOZYIDLRW5D","","null","<img src=""img/land1.png"" style=""width:200px; border:14px solid green;"">","null","","","","","","",""
"","image-keyboard-response","164","81302","0.0-164.0","3KB8R4ZV1FT99IV6AXQAU18A0AGGBE","A2JDYN6QM8M5UN","3KVQ0UJWPX71V463XQYDOZYIDLRW5D","","329.39999997615814","img/land1.png","74","330.80000001192093","1","1","1","1,0.7,0.7,0.7,1,0.7,0.7,0.7,1","",""
"","html-keyboard-response","165","81604","0.0-165.0","3KB8R4ZV1FT99IV6AXQAU18A0AGGBE","A2JDYN6QM8M5UN","3KVQ0UJWPX71V463XQYDOZYIDLRW5D","","null","<img src=""img/land1.png"" style=""width:200px; border:14px solid green;"">","null","","","","","","",""
"","image-keyboard-response","166","81942","0.0-166.0","3KB8R4ZV1FT99IV6AXQAU18A0AGGBE","A2JDYN6QM8M5UN","3KVQ0UJWPX71V463XQYDOZYIDLRW5D","","336.5","img/land1.png","74","338.10000002384186","1","1","1","1,0.7,0.7,0.7,1,0.7,0.7,0.7,1","",""
"","html-keyboard-response","167","82245","0.0-167.0","3KB8R4ZV1FT99IV6AXQAU18A0AGGBE","A2JDYN6QM8M5UN","3KVQ0UJWPX71V463XQYDOZYIDLRW5D","","null","<img src=""img/land1.png"" style=""width:200px; border:14px solid green;"">","null","","","","","","",""
"","image-keyboard-response","168","82582","0.0-168.0","3KB8R4ZV1FT99IV6AXQAU18A0AGGBE","A2JDYN6QM8M5UN","3KVQ0UJWPX71V463XQYDOZYIDLRW5D","","334.80000001192093","img/land1.png","74","336.2000000476837","1","1","1","1,0.7,0.7,0.7,1,0.7,0.7,0.7,1","",""
"","html-keyboard-response","169","82884","0.0-169.0","3KB8R4ZV1FT99IV6AXQAU18A0AGGBE","A2JDYN6QM8M5UN","3KVQ0UJWPX71V463XQYDOZYIDLRW5D","","null","<img src=""img/land1.png"" style=""width:200px; border:14px solid green;"">","null","","","","","","",""
"","html-keyboard-response","170","84522","0.0-170.0","3KB8R4ZV1FT99IV6AXQAU18A0AGGBE","A2JDYN6QM8M5UN","3KVQ0UJWPX71V463XQYDOZYIDLRW5D","","","","","","","","","","",""
"","image-keyboard-response","171","85423","0.0-171.0","3KB8R4ZV1FT99IV6AXQAU18A0AGGBE","A2JDYN6QM8M5UN","3KVQ0UJWPX71V463XQYDOZYIDLRW5D","","899.2999999523163","img/land4.png","76","900.4000000357628","3","1","1","1,0.7,0.7,0.7,1,0.7,0.7,0.7,1","",""
"","html-keyboard-response","172","85725","0.0-172.0","3KB8R4ZV1FT99IV6AXQAU18A0AGGBE","A2JDYN6QM8M5UN","3KVQ0UJWPX71V463XQYDOZYIDLRW5D","","null","<img src=""img/land4.png"" style=""width:200px; border:14px solid green;"">","null","","","","","","",""
"","image-keyboard-response","173","86465","0.0-173.0","3KB8R4ZV1FT99IV6AXQAU18A0AGGBE","A2JDYN6QM8M5UN","3KVQ0UJWPX71V463XQYDOZYIDLRW5D","","737.6999999880791","img/land6.png","76","739.1999999880791","3","1","3","1,0.7,0.7,0.7,1,0.7,0.7,0.7,1","",""
"","html-keyboard-response","174","86768","0.0-174.0","3KB8R4ZV1FT99IV6AXQAU18A0AGGBE","A2JDYN6QM8M5UN","3KVQ0UJWPX71V463XQYDOZYIDLRW5D","","null","<img src=""img/land6.png"" style=""width:200px; border:14px solid green;"">","null","","","","","","",""
"","image-keyboard-response","175","87494","0.0-175.0","3KB8R4ZV1FT99IV6AXQAU18A0AGGBE","A2JDYN6QM8M5UN","3KVQ0UJWPX71V463XQYDOZYIDLRW5D","","723.6000000238419","img/land5.png","76","725.5","3","1","2","1,0.7,0.7,0.7,1,0.7,0.7,0.7,1","",""
"","html-keyboard-response","176","87798","0.0-176.0","3KB8R4ZV1FT99IV6AXQAU18A0AGGBE","A2JDYN6QM8M5UN","3KVQ0UJWPX71V463XQYDOZYIDLRW5D","","null","<img src=""img/land5.png"" style=""width:200px; border:14px solid green;"">","null","","","","","","",""
"","image-keyboard-response","177","88294","0.0-177.0","3KB8R4ZV1FT99IV6AXQAU18A0AGGBE","A2JDYN6QM8M5UN","3KVQ0UJWPX71V463XQYDOZYIDLRW5D","","494.5999999642372","img/land6.png","76","496.2000000476837","3","1","3","1,0.7,0.7,0.7,1,0.7,0.7,0.7,1","",""
"","html-keyboard-response","178","88597","0.0-178.0","3KB8R4ZV1FT99IV6AXQAU18A0AGGBE","A2JDYN6QM8M5UN","3KVQ0UJWPX71V463XQYDOZYIDLRW5D","","null","<img src=""img/land6.png"" style=""width:200px; border:14px solid green;"">","null","","","","","","",""
"","image-keyboard-response","179","88991","0.0-179.0","3KB8R4ZV1FT99IV6AXQAU18A0AGGBE","A2JDYN6QM8M5UN","3KVQ0UJWPX71V463XQYDOZYIDLRW5D","","391.5","img/land4.png","76","393","3","1","1","1,0.7,0.7,0.7,1,0.7,0.7,0.7,1","",""
"","html-keyboard-response","180","89294","0.0-180.0","3KB8R4ZV1FT99IV6AXQAU18A0AGGBE","A2JDYN6QM8M5UN","3KVQ0UJWPX71V463XQYDOZYIDLRW5D","","null","<img src=""img/land4.png"" style=""width:200px; border:14px solid green;"">","null","","","","","","",""
"","image-keyboard-response","181","89566","0.0-181.0","3KB8R4ZV1FT99IV6AXQAU18A0AGGBE","A2JDYN6QM8M5UN","3KVQ0UJWPX71V463XQYDOZYIDLRW5D","","271.30000001192093","img/land4.png","76","272.5","3","1","1","1,0.7,0.7,0.7,1,0.7,0.7,0.7,1","",""
"","html-keyboard-response","182","89869","0.0-182.0","3KB8R4ZV1FT99IV6AXQAU18A0AGGBE","A2JDYN6QM8M5UN","3KVQ0UJWPX71V463XQYDOZYIDLRW5D","","null","<img src=""img/land4.png"" style=""width:200px; border:14px solid green;"">","null","","","","","","",""
"","image-keyboard-response","183","90134","0.0-183.0","3KB8R4ZV1FT99IV6AXQAU18A0AGGBE","A2JDYN6QM8M5UN","3KVQ0UJWPX71V463XQYDOZYIDLRW5D","","262.80000001192093","img/land4.png","76","264.4000000357628","3","1","1","1,0.7,0.7,0.7,1,0.7,0.7,0.7,1","",""
"","html-keyboard-response","184","90438","0.0-184.0","3KB8R4ZV1FT99IV6AXQAU18A0AGGBE","A2JDYN6QM8M5UN","3KVQ0UJWPX71V463XQYDOZYIDLRW5D","","null","<img src=""img/land4.png"" style=""width:200px; border:14px solid green;"">","null","","","","","","",""
"","image-keyboard-response","185","90694","0.0-185.0","3KB8R4ZV1FT99IV6AXQAU18A0AGGBE","A2JDYN6QM8M5UN","3KVQ0UJWPX71V463XQYDOZYIDLRW5D","","253.10000002384186","img/land5.png","76","255.5","3","1","2","1,0.7,0.7,0.7,1,0.7,0.7,0.7,1","",""
"","html-keyboard-response","186","90997","0.0-186.0","3KB8R4ZV1FT99IV6AXQAU18A0AGGBE","A2JDYN6QM8M5UN","3KVQ0UJWPX71V463XQYDOZYIDLRW5D","","null","<img src=""img/land5.png"" style=""width:200px; border:14px solid green;"">","null","","","","","","",""
"","image-keyboard-response","187","91150","0.0-187.0","3KB8R4ZV1FT99IV6AXQAU18A0AGGBE","A2JDYN6QM8M5UN","3KVQ0UJWPX71V463XQYDOZYIDLRW5D","","152.0999999642372","img/land5.png","76","153.19999998807907","3","1","2","1,0.7,0.7,0.7,1,0.7,0.7,0.7,1","",""
"","html-keyboard-response","188","91452","0.0-188.0","3KB8R4ZV1FT99IV6AXQAU18A0AGGBE","A2JDYN6QM8M5UN","3KVQ0UJWPX71V463XQYDOZYIDLRW5D","","null","<img src=""img/land5.png"" style=""width:200px; border:14px solid green;"">","null","","","","","","",""
"","image-keyboard-response","189","91582","0.0-189.0","3KB8R4ZV1FT99IV6AXQAU18A0AGGBE","A2JDYN6QM8M5UN","3KVQ0UJWPX71V463XQYDOZYIDLRW5D","","127.60000002384186","img/land4.png","76","129.10000002384186","3","1","1","1,0.7,0.7,0.7,1,0.7,0.7,0.7,1","",""
"","html-keyboard-response","190","91884","0.0-190.0","3KB8R4ZV1FT99IV6AXQAU18A0AGGBE","A2JDYN6QM8M5UN","3KVQ0UJWPX71V463XQYDOZYIDLRW5D","","null","<img src=""img/land4.png"" style=""width:200px; border:14px solid green;"">","null","","","","","","",""
"","image-keyboard-response","191","91974","0.0-191.0","3KB8R4ZV1FT99IV6AXQAU18A0AGGBE","A2JDYN6QM8M5UN","3KVQ0UJWPX71V463XQYDOZYIDLRW5D","","88","img/land6.png","76","89.59999996423721","3","1","3","1,0.7,0.7,0.7,1,0.7,0.7,0.7,1","",""
"","html-keyboard-response","192","92276","0.0-192.0","3KB8R4ZV1FT99IV6AXQAU18A0AGGBE","A2JDYN6QM8M5UN","3KVQ0UJWPX71V463XQYDOZYIDLRW5D","","null","<img src=""img/land6.png"" style=""width:200px; border:14px solid green;"">","null","","","","","","",""
"","image-keyboard-response","193","92382","0.0-193.0","3KB8R4ZV1FT99IV6AXQAU18A0AGGBE","A2JDYN6QM8M5UN","3KVQ0UJWPX71V463XQYDOZYIDLRW5D","","104.19999998807907","img/land5.png","76","105.5","3","1","2","1,0.7,0.7,0.7,1,0.7,0.7,0.7,1","",""
"","html-keyboard-response","194","92685","0.0-194.0","3KB8R4ZV1FT99IV6AXQAU18A0AGGBE","A2JDYN6QM8M5UN","3KVQ0UJWPX71V463XQYDOZYIDLRW5D","","null","<img src=""img/land5.png"" style=""width:200px; border:14px solid green;"">","null","","","","","","",""
"","image-keyboard-response","195","92782","0.0-195.0","3KB8R4ZV1FT99IV6AXQAU18A0AGGBE","A2JDYN6QM8M5UN","3KVQ0UJWPX71V463XQYDOZYIDLRW5D","","95.19999998807907","img/land5.png","76","96.5","3","1","2","1,0.7,0.7,0.7,1,0.7,0.7,0.7,1","",""
"","html-keyboard-response","196","93085","0.0-196.0","3KB8R4ZV1FT99IV6AXQAU18A0AGGBE","A2JDYN6QM8M5UN","3KVQ0UJWPX71V463XQYDOZYIDLRW5D","","null","<img src=""img/land5.png"" style=""width:200px; border:14px solid green;"">","null","","","","","","",""
"","image-keyboard-response","197","93215","0.0-197.0","3KB8R4ZV1FT99IV6AXQAU18A0AGGBE","A2JDYN6QM8M5UN","3KVQ0UJWPX71V463XQYDOZYIDLRW5D","","128.5","img/land4.png","76","130.30000001192093","3","1","1","1,0.7,0.7,0.7,1,0.7,0.7,0.7,1","",""
"","html-keyboard-response","198","93519","0.0-198.0","3KB8R4ZV1FT99IV6AXQAU18A0AGGBE","A2JDYN6QM8M5UN","3KVQ0UJWPX71V463XQYDOZYIDLRW5D","","null","<img src=""img/land4.png"" style=""width:200px; border:14px solid green;"">","null","","","","","","",""
"","image-keyboard-response","199","93598","0.0-199.0","3KB8R4ZV1FT99IV6AXQAU18A0AGGBE","A2JDYN6QM8M5UN","3KVQ0UJWPX71V463XQYDOZYIDLRW5D","","78","img/land4.png","76","79.5","3","1","1","1,0.7,0.7,0.7,1,0.7,0.7,0.7,1","",""
"","html-keyboard-response","200","93901","0.0-200.0","3KB8R4ZV1FT99IV6AXQAU18A0AGGBE","A2JDYN6QM8M5UN","3KVQ0UJWPX71V463XQYDOZYIDLRW5D","","null","<img src=""img/land4.png"" style=""width:200px; border:14px solid green;"">","null","","","","","","",""
"","image-keyboard-response","201","93982","0.0-201.0","3KB8R4ZV1FT99IV6AXQAU18A0AGGBE","A2JDYN6QM8M5UN","3KVQ0UJWPX71V463XQYDOZYIDLRW5D","","80.19999998807907","img/land5.png","76","81.19999998807907","3","1","2","1,0.7,0.7,0.7,1,0.7,0.7,0.7,1","",""
"","html-keyboard-response","202","94284","0.0-202.0","3KB8R4ZV1FT99IV6AXQAU18A0AGGBE","A2JDYN6QM8M5UN","3KVQ0UJWPX71V463XQYDOZYIDLRW5D","","null","<img src=""img/land5.png"" style=""width:200px; border:14px solid green;"">","null","","","","","","",""
"","image-keyboard-response","203","94342","0.0-203.0","3KB8R4ZV1FT99IV6AXQAU18A0AGGBE","A2JDYN6QM8M5UN","3KVQ0UJWPX71V463XQYDOZYIDLRW5D","","56.19999998807907","img/land6.png","76","57.69999998807907","3","1","3","1,0.7,0.7,0.7,1,0.7,0.7,0.7,1","",""
"","html-keyboard-response","204","94645","0.0-204.0","3KB8R4ZV1FT99IV6AXQAU18A0AGGBE","A2JDYN6QM8M5UN","3KVQ0UJWPX71V463XQYDOZYIDLRW5D","","null","<img src=""img/land6.png"" style=""width:200px; border:14px solid green;"">","null","","","","","","",""
"","image-keyboard-response","205","94734","0.0-205.0","3KB8R4ZV1FT99IV6AXQAU18A0AGGBE","A2JDYN6QM8M5UN","3KVQ0UJWPX71V463XQYDOZYIDLRW5D","","87.80000001192093","img/land5.png","76","89.19999998807907","3","1","2","1,0.7,0.7,0.7,1,0.7,0.7,0.7,1","",""
"","html-keyboard-response","206","95037","0.0-206.0","3KB8R4ZV1FT99IV6AXQAU18A0AGGBE","A2JDYN6QM8M5UN","3KVQ0UJWPX71V463XQYDOZYIDLRW5D","","null","<img src=""img/land5.png"" style=""width:200px; border:14px solid green;"">","null","","","","","","",""
"","image-keyboard-response","207","95110","0.0-207.0","3KB8R4ZV1FT99IV6AXQAU18A0AGGBE","A2JDYN6QM8M5UN","3KVQ0UJWPX71V463XQYDOZYIDLRW5D","","71.5","img/land4.png","76","73","3","1","1","1,0.7,0.7,0.7,1,0.7,0.7,0.7,1","",""
"","html-keyboard-response","208","95413","0.0-208.0","3KB8R4ZV1FT99IV6AXQAU18A0AGGBE","A2JDYN6QM8M5UN","3KVQ0UJWPX71V463XQYDOZYIDLRW5D","","null","<img src=""img/land4.png"" style=""width:200px; border:14px solid green;"">","null","","","","","","",""
"","image-keyboard-response","209","95494","0.0-209.0","3KB8R4ZV1FT99IV6AXQAU18A0AGGBE","A2JDYN6QM8M5UN","3KVQ0UJWPX71V463XQYDOZYIDLRW5D","","79.30000001192093","img/land5.png","76","80.80000001192093","3","0","2","1,0.7,0.7,0.7,1,0.7,0.7,0.7,1","",""
"","html-keyboard-response","210","95797","0.0-210.0","3KB8R4ZV1FT99IV6AXQAU18A0AGGBE","A2JDYN6QM8M5UN","3KVQ0UJWPX71V463XQYDOZYIDLRW5D","","null","<img src=""img/land5.png"" style=""width:200px;border:14px solid red;"">","null","","","","","","",""
"","image-keyboard-response","211","96374","0.0-211.0","3KB8R4ZV1FT99IV6AXQAU18A0AGGBE","A2JDYN6QM8M5UN","3KVQ0UJWPX71V463XQYDOZYIDLRW5D","","575.5999999642372","img/land6.png","76","576.8999999761581","3","1","3","1,0.7,0.7,0.7,1,0.7,0.7,0.7,1","",""
"","html-keyboard-response","212","96685","0.0-212.0","3KB8R4ZV1FT99IV6AXQAU18A0AGGBE","A2JDYN6QM8M5UN","3KVQ0UJWPX71V463XQYDOZYIDLRW5D","","null","<img src=""img/land6.png"" style=""width:200px; border:14px solid green;"">","null","","","","","","",""
"","image-keyboard-response","213","96935","0.0-213.0","3KB8R4ZV1FT99IV6AXQAU18A0AGGBE","A2JDYN6QM8M5UN","3KVQ0UJWPX71V463XQYDOZYIDLRW5D","","247.80000001192093","img/land6.png","76","249.19999998807907","3","1","3","1,0.7,0.7,0.7,1,0.7,0.7,0.7,1","",""
"","html-keyboard-response","214","97242","0.0-214.0","3KB8R4ZV1FT99IV6AXQAU18A0AGGBE","A2JDYN6QM8M5UN","3KVQ0UJWPX71V463XQYDOZYIDLRW5D","","null","<img src=""img/land6.png"" style=""width:200px; border:14px solid green;"">","null","","","","","","",""
"","image-keyboard-response","215","97566","0.0-215.0","3KB8R4ZV1FT99IV6AXQAU18A0AGGBE","A2JDYN6QM8M5UN","3KVQ0UJWPX71V463XQYDOZYIDLRW5D","","322","img/land4.png","76","323.39999997615814","3","1","1","1,0.7,0.7,0.7,1,0.7,0.7,0.7,1","",""
"","html-keyboard-response","216","97870","0.0-216.0","3KB8R4ZV1FT99IV6AXQAU18A0AGGBE","A2JDYN6QM8M5UN","3KVQ0UJWPX71V463XQYDOZYIDLRW5D","","null","<img src=""img/land4.png"" style=""width:200px; border:14px solid green;"">","null","","","","","","",""
"","image-keyboard-response","217","98070","0.0-217.0","3KB8R4ZV1FT99IV6AXQAU18A0AGGBE","A2JDYN6QM8M5UN","3KVQ0UJWPX71V463XQYDOZYIDLRW5D","","197.69999998807907","img/land4.png","76","199.30000001192093","3","1","1","1,0.7,0.7,0.7,1,0.7,0.7,0.7,1","",""
"","html-keyboard-response","218","98372","0.0-218.0","3KB8R4ZV1FT99IV6AXQAU18A0AGGBE","A2JDYN6QM8M5UN","3KVQ0UJWPX71V463XQYDOZYIDLRW5D","","null","<img src=""img/land4.png"" style=""width:200px; border:14px solid green;"">","null","","","","","","",""
"","image-keyboard-response","219","98590","0.0-219.0","3KB8R4ZV1FT99IV6AXQAU18A0AGGBE","A2JDYN6QM8M5UN","3KVQ0UJWPX71V463XQYDOZYIDLRW5D","","216","img/land4.png","76","217.70000004768372","3","1","1","1,0.7,0.7,0.7,1,0.7,0.7,0.7,1","",""
"","html-keyboard-response","220","98893","0.0-220.0","3KB8R4ZV1FT99IV6AXQAU18A0AGGBE","A2JDYN6QM8M5UN","3KVQ0UJWPX71V463XQYDOZYIDLRW5D","","null","<img src=""img/land4.png"" style=""width:200px; border:14px solid green;"">","null","","","","","","",""
"","image-keyboard-response","221","99118","0.0-221.0","3KB8R4ZV1FT99IV6AXQAU18A0AGGBE","A2JDYN6QM8M5UN","3KVQ0UJWPX71V463XQYDOZYIDLRW5D","","223.69999998807907","img/land5.png","76","225.19999998807907","3","1","2","1,0.7,0.7,0.7,1,0.7,0.7,0.7,1","",""
"","html-keyboard-response","222","99421","0.0-222.0","3KB8R4ZV1FT99IV6AXQAU18A0AGGBE","A2JDYN6QM8M5UN","3KVQ0UJWPX71V463XQYDOZYIDLRW5D","","null","<img src=""img/land5.png"" style=""width:200px; border:14px solid green;"">","null","","","","","","",""
"","image-keyboard-response","223","99646","0.0-223.0","3KB8R4ZV1FT99IV6AXQAU18A0AGGBE","A2JDYN6QM8M5UN","3KVQ0UJWPX71V463XQYDOZYIDLRW5D","","223.5","img/land4.png","76","224.79999995231628","3","1","1","1,0.7,0.7,0.7,1,0.7,0.7,0.7,1","",""
"","html-keyboard-response","224","99949","0.0-224.0","3KB8R4ZV1FT99IV6AXQAU18A0AGGBE","A2JDYN6QM8M5UN","3KVQ0UJWPX71V463XQYDOZYIDLRW5D","","null","<img src=""img/land4.png"" style=""width:200px; border:14px solid green;"">","null","","","","","","",""
"","image-keyboard-response","225","100166","0.0-225.0","3KB8R4ZV1FT99IV6AXQAU18A0AGGBE","A2JDYN6QM8M5UN","3KVQ0UJWPX71V463XQYDOZYIDLRW5D","","214.80000001192093","img/land6.png","76","216.69999998807907","3","1","3","1,0.7,0.7,0.7,1,0.7,0.7,0.7,1","",""
"","html-keyboard-response","226","100469","0.0-226.0","3KB8R4ZV1FT99IV6AXQAU18A0AGGBE","A2JDYN6QM8M5UN","3KVQ0UJWPX71V463XQYDOZYIDLRW5D","","null","<img src=""img/land6.png"" style=""width:200px; border:14px solid green;"">","null","","","","","","",""
"","image-keyboard-response","227","100711","0.0-227.0","3KB8R4ZV1FT99IV6AXQAU18A0AGGBE","A2JDYN6QM8M5UN","3KVQ0UJWPX71V463XQYDOZYIDLRW5D","","240.80000001192093","img/land4.png","76","241.89999997615814","3","0","1","1,0.7,0.7,0.7,1,0.7,0.7,0.7,1","",""
"","html-keyboard-response","228","101014","0.0-228.0","3KB8R4ZV1FT99IV6AXQAU18A0AGGBE","A2JDYN6QM8M5UN","3KVQ0UJWPX71V463XQYDOZYIDLRW5D","","null","<img src=""img/land4.png"" style=""width:200px;border:14px solid red;"">","null","","","","","","",""
"","image-keyboard-response","229","101838","0.0-229.0","3KB8R4ZV1FT99IV6AXQAU18A0AGGBE","A2JDYN6QM8M5UN","3KVQ0UJWPX71V463XQYDOZYIDLRW5D","","822.1999999880791","img/land6.png","76","823.5","3","1","3","1,0.7,0.7,0.7,1,0.7,0.7,0.7,1","",""
"","html-keyboard-response","230","102141","0.0-230.0","3KB8R4ZV1FT99IV6AXQAU18A0AGGBE","A2JDYN6QM8M5UN","3KVQ0UJWPX71V463XQYDOZYIDLRW5D","","null","<img src=""img/land6.png"" style=""width:200px; border:14px solid green;"">","null","","","","","","",""
"","image-keyboard-response","231","102550","0.0-231.0","3KB8R4ZV1FT99IV6AXQAU18A0AGGBE","A2JDYN6QM8M5UN","3KVQ0UJWPX71V463XQYDOZYIDLRW5D","","407.5","img/land5.png","76","408.89999997615814","3","0","2","1,0.7,0.7,0.7,1,0.7,0.7,0.7,1","",""
"","html-keyboard-response","232","102852","0.0-232.0","3KB8R4ZV1FT99IV6AXQAU18A0AGGBE","A2JDYN6QM8M5UN","3KVQ0UJWPX71V463XQYDOZYIDLRW5D","","null","<img src=""img/land5.png"" style=""width:200px;border:14px solid red;"">","null","","","","","","",""
"","image-keyboard-response","233","104326","0.0-233.0","3KB8R4ZV1FT99IV6AXQAU18A0AGGBE","A2JDYN6QM8M5UN","3KVQ0UJWPX71V463XQYDOZYIDLRW5D","","1471.7000000476837","img/land4.png","75","1473.199999988079","2","1","1","1,0.7,0.7,0.7,1,0.7,0.7,0.7,1","",""
"","html-keyboard-response","234","104628","0.0-234.0","3KB8R4ZV1FT99IV6AXQAU18A0AGGBE","A2JDYN6QM8M5UN","3KVQ0UJWPX71V463XQYDOZYIDLRW5D","","null","<img src=""img/land4.png"" style=""width:200px; border:14px solid green;"">","null","","","","","","",""
"","image-keyboard-response","235","105550","0.0-235.0","3KB8R4ZV1FT99IV6AXQAU18A0AGGBE","A2JDYN6QM8M5UN","3KVQ0UJWPX71V463XQYDOZYIDLRW5D","","919.9000000357628","img/land6.png","76","920.9000000357628","3","1","3","1,0.7,0.7,0.7,1,0.7,0.7,0.7,1","",""
"","html-keyboard-response","236","105852","0.0-236.0","3KB8R4ZV1FT99IV6AXQAU18A0AGGBE","A2JDYN6QM8M5UN","3KVQ0UJWPX71V463XQYDOZYIDLRW5D","","null","<img src=""img/land6.png"" style=""width:200px; border:14px solid green;"">","null","","","","","","",""
"","image-keyboard-response","237","106510","0.0-237.0","3KB8R4ZV1FT99IV6AXQAU18A0AGGBE","A2JDYN6QM8M5UN","3KVQ0UJWPX71V463XQYDOZYIDLRW5D","","656.6000000238419","img/land4.png","75","658.1000000238419","2","1","1","1,0.7,0.7,0.7,1,0.7,0.7,0.7,1","",""
"","html-keyboard-response","238","106813","0.0-238.0","3KB8R4ZV1FT99IV6AXQAU18A0AGGBE","A2JDYN6QM8M5UN","3KVQ0UJWPX71V463XQYDOZYIDLRW5D","","null","<img src=""img/land4.png"" style=""width:200px; border:14px solid green;"">","null","","","","","","",""
"","image-keyboard-response","239","107166","0.0-239.0","3KB8R4ZV1FT99IV6AXQAU18A0AGGBE","A2JDYN6QM8M5UN","3KVQ0UJWPX71V463XQYDOZYIDLRW5D","","351.80000001192093","img/land4.png","75","352.89999997615814","2","1","1","1,0.7,0.7,0.7,1,0.7,0.7,0.7,1","",""
"","html-keyboard-response","240","107469","0.0-240.0","3KB8R4ZV1FT99IV6AXQAU18A0AGGBE","A2JDYN6QM8M5UN","3KVQ0UJWPX71V463XQYDOZYIDLRW5D","","null","<img src=""img/land4.png"" style=""width:200px; border:14px solid green;"">","null","","","","","","",""
"","image-keyboard-response","241","108167","0.0-241.0","3KB8R4ZV1FT99IV6AXQAU18A0AGGBE","A2JDYN6QM8M5UN","3KVQ0UJWPX71V463XQYDOZYIDLRW5D","","696.6999999880791","img/land5.png","76","697.7999999523163","3","1","2","1,0.7,0.7,0.7,1,0.7,0.7,0.7,1","",""
"","html-keyboard-response","242","108469","0.0-242.0","3KB8R4ZV1FT99IV6AXQAU18A0AGGBE","A2JDYN6QM8M5UN","3KVQ0UJWPX71V463XQYDOZYIDLRW5D","","null","<img src=""img/land5.png"" style=""width:200px; border:14px solid green;"">","null","","","","","","",""
"","image-keyboard-response","243","108975","0.0-243.0","3KB8R4ZV1FT99IV6AXQAU18A0AGGBE","A2JDYN6QM8M5UN","3KVQ0UJWPX71V463XQYDOZYIDLRW5D","","503.4000000357628","img/land4.png","75","505.19999998807907","2","1","1","1,0.7,0.7,0.7,1,0.7,0.7,0.7,1","",""
"","html-keyboard-response","244","109277","0.0-244.0","3KB8R4ZV1FT99IV6AXQAU18A0AGGBE","A2JDYN6QM8M5UN","3KVQ0UJWPX71V463XQYDOZYIDLRW5D","","null","<img src=""img/land4.png"" style=""width:200px; border:14px solid green;"">","null","","","","","","",""
"","image-keyboard-response","245","109725","0.0-245.0","3KB8R4ZV1FT99IV6AXQAU18A0AGGBE","A2JDYN6QM8M5UN","3KVQ0UJWPX71V463XQYDOZYIDLRW5D","","447","img/land6.png","76","448.10000002384186","3","1","3","1,0.7,0.7,0.7,1,0.7,0.7,0.7,1","",""
"","html-keyboard-response","246","110027","0.0-246.0","3KB8R4ZV1FT99IV6AXQAU18A0AGGBE","A2JDYN6QM8M5UN","3KVQ0UJWPX71V463XQYDOZYIDLRW5D","","null","<img src=""img/land6.png"" style=""width:200px; border:14px solid green;"">","null","","","","","","",""
"","image-keyboard-response","247","110582","0.0-247.0","3KB8R4ZV1FT99IV6AXQAU18A0AGGBE","A2JDYN6QM8M5UN","3KVQ0UJWPX71V463XQYDOZYIDLRW5D","","553.6000000238419","img/land5.png","76","554.9000000357628","3","0","2","1,0.7,0.7,0.7,1,0.7,0.7,0.7,1","",""
"","html-keyboard-response","248","110885","0.0-248.0","3KB8R4ZV1FT99IV6AXQAU18A0AGGBE","A2JDYN6QM8M5UN","3KVQ0UJWPX71V463XQYDOZYIDLRW5D","","null","<img src=""img/land5.png"" style=""width:200px;border:14px solid red;"">","null","","","","","","",""
"","image-keyboard-response","249","111669","0.0-249.0","3KB8R4ZV1FT99IV6AXQAU18A0AGGBE","A2JDYN6QM8M5UN","3KVQ0UJWPX71V463XQYDOZYIDLRW5D","","783.1000000238419","img/land4.png","75","784.1999999880791","2","1","1","1,0.7,0.7,0.7,1,0.7,0.7,0.7,1","",""
"","html-keyboard-response","250","111971","0.0-250.0","3KB8R4ZV1FT99IV6AXQAU18A0AGGBE","A2JDYN6QM8M5UN","3KVQ0UJWPX71V463XQYDOZYIDLRW5D","","null","<img src=""img/land4.png"" style=""width:200px; border:14px solid green;"">","null","","","","","","",""
"","image-keyboard-response","251","112870","0.0-251.0","3KB8R4ZV1FT99IV6AXQAU18A0AGGBE","A2JDYN6QM8M5UN","3KVQ0UJWPX71V463XQYDOZYIDLRW5D","","897.5","img/land6.png","76","898.8999999761581","3","1","3","1,0.7,0.7,0.7,1,0.7,0.7,0.7,1","",""
"","html-keyboard-response","252","113174","0.0-252.0","3KB8R4ZV1FT99IV6AXQAU18A0AGGBE","A2JDYN6QM8M5UN","3KVQ0UJWPX71V463XQYDOZYIDLRW5D","","null","<img src=""img/land6.png"" style=""width:200px; border:14px solid green;"">","null","","","","","","",""
"","image-keyboard-response","253","113694","0.0-253.0","3KB8R4ZV1FT99IV6AXQAU18A0AGGBE","A2JDYN6QM8M5UN","3KVQ0UJWPX71V463XQYDOZYIDLRW5D","","518.8000000119209","img/land4.png","76","520.3000000119209","3","1","1","1,0.7,0.7,0.7,1,0.7,0.7,0.7,1","",""
"","html-keyboard-response","254","113997","0.0-254.0","3KB8R4ZV1FT99IV6AXQAU18A0AGGBE","A2JDYN6QM8M5UN","3KVQ0UJWPX71V463XQYDOZYIDLRW5D","","null","<img src=""img/land4.png"" style=""width:200px; border:14px solid green;"">","null","","","","","","",""
"","image-keyboard-response","255","114518","0.0-255.0","3KB8R4ZV1FT99IV6AXQAU18A0AGGBE","A2JDYN6QM8M5UN","3KVQ0UJWPX71V463XQYDOZYIDLRW5D","","518.8999999761581","img/land4.png","75","520.3000000119209","2","1","1","1,0.7,0.7,0.7,1,0.7,0.7,0.7,1","",""
"","html-keyboard-response","256","114821","0.0-256.0","3KB8R4ZV1FT99IV6AXQAU18A0AGGBE","A2JDYN6QM8M5UN","3KVQ0UJWPX71V463XQYDOZYIDLRW5D","","null","<img src=""img/land4.png"" style=""width:200px; border:14px solid green;"">","null","","","","","","",""
"","image-keyboard-response","257","115150","0.0-257.0","3KB8R4ZV1FT99IV6AXQAU18A0AGGBE","A2JDYN6QM8M5UN","3KVQ0UJWPX71V463XQYDOZYIDLRW5D","","327.30000001192093","img/land4.png","75","328.60000002384186","2","1","1","1,0.7,0.7,0.7,1,0.7,0.7,0.7,1","",""
"","html-keyboard-response","258","115452","0.0-258.0","3KB8R4ZV1FT99IV6AXQAU18A0AGGBE","A2JDYN6QM8M5UN","3KVQ0UJWPX71V463XQYDOZYIDLRW5D","","null","<img src=""img/land4.png"" style=""width:200px; border:14px solid green;"">","null","","","","","","",""
"","image-keyboard-response","259","115775","0.0-259.0","3KB8R4ZV1FT99IV6AXQAU18A0AGGBE","A2JDYN6QM8M5UN","3KVQ0UJWPX71V463XQYDOZYIDLRW5D","","320.7000000476837","img/land4.png","75","321.89999997615814","2","1","1","1,0.7,0.7,0.7,1,0.7,0.7,0.7,1","",""
"","html-keyboard-response","260","116078","0.0-260.0","3KB8R4ZV1FT99IV6AXQAU18A0AGGBE","A2JDYN6QM8M5UN","3KVQ0UJWPX71V463XQYDOZYIDLRW5D","","null","<img src=""img/land4.png"" style=""width:200px; border:14px solid green;"">","null","","","","","","",""
"","image-keyboard-response","261","116350","0.0-261.0","3KB8R4ZV1FT99IV6AXQAU18A0AGGBE","A2JDYN6QM8M5UN","3KVQ0UJWPX71V463XQYDOZYIDLRW5D","","270.69999998807907","img/land4.png","75","272.19999998807907","2","1","1","1,0.7,0.7,0.7,1,0.7,0.7,0.7,1","",""
"","html-keyboard-response","262","116652","0.0-262.0","3KB8R4ZV1FT99IV6AXQAU18A0AGGBE","A2JDYN6QM8M5UN","3KVQ0UJWPX71V463XQYDOZYIDLRW5D","","null","<img src=""img/land4.png"" style=""width:200px; border:14px solid green;"">","null","","","","","","",""
"","image-keyboard-response","263","117414","0.0-263.0","3KB8R4ZV1FT99IV6AXQAU18A0AGGBE","A2JDYN6QM8M5UN","3KVQ0UJWPX71V463XQYDOZYIDLRW5D","","760.0999999642372","img/land6.png","76","761.5","3","1","3","1,0.7,0.7,0.7,1,0.7,0.7,0.7,1","",""
"","html-keyboard-response","264","117717","0.0-264.0","3KB8R4ZV1FT99IV6AXQAU18A0AGGBE","A2JDYN6QM8M5UN","3KVQ0UJWPX71V463XQYDOZYIDLRW5D","","null","<img src=""img/land6.png"" style=""width:200px; border:14px solid green;"">","null","","","","","","",""
"","image-keyboard-response","265","118398","0.0-265.0","3KB8R4ZV1FT99IV6AXQAU18A0AGGBE","A2JDYN6QM8M5UN","3KVQ0UJWPX71V463XQYDOZYIDLRW5D","","679.1999999880791","img/land4.png","75","680.6999999880791","2","1","1","1,0.7,0.7,0.7,1,0.7,0.7,0.7,1","",""
"","html-keyboard-response","266","118701","0.0-266.0","3KB8R4ZV1FT99IV6AXQAU18A0AGGBE","A2JDYN6QM8M5UN","3KVQ0UJWPX71V463XQYDOZYIDLRW5D","","null","<img src=""img/land4.png"" style=""width:200px; border:14px solid green;"">","null","","","","","","",""
"","image-keyboard-response","267","119015","0.0-267.0","3KB8R4ZV1FT99IV6AXQAU18A0AGGBE","A2JDYN6QM8M5UN","3KVQ0UJWPX71V463XQYDOZYIDLRW5D","","311.30000001192093","img/land4.png","75","312.9000000357628","2","1","1","1,0.7,0.7,0.7,1,0.7,0.7,0.7,1","",""
"","html-keyboard-response","268","119317","0.0-268.0","3KB8R4ZV1FT99IV6AXQAU18A0AGGBE","A2JDYN6QM8M5UN","3KVQ0UJWPX71V463XQYDOZYIDLRW5D","","null","<img src=""img/land4.png"" style=""width:200px; border:14px solid green;"">","null","","","","","","",""
"","image-keyboard-response","269","119614","0.0-269.0","3KB8R4ZV1FT99IV6AXQAU18A0AGGBE","A2JDYN6QM8M5UN","3KVQ0UJWPX71V463XQYDOZYIDLRW5D","","295.60000002384186","img/land4.png","75","297","2","1","1","1,0.7,0.7,0.7,1,0.7,0.7,0.7,1","",""
"","html-keyboard-response","270","119916","0.0-270.0","3KB8R4ZV1FT99IV6AXQAU18A0AGGBE","A2JDYN6QM8M5UN","3KVQ0UJWPX71V463XQYDOZYIDLRW5D","","null","<img src=""img/land4.png"" style=""width:200px; border:14px solid green;"">","null","","","","","","",""
"","image-keyboard-response","271","120227","0.0-271.0","3KB8R4ZV1FT99IV6AXQAU18A0AGGBE","A2JDYN6QM8M5UN","3KVQ0UJWPX71V463XQYDOZYIDLRW5D","","308.80000001192093","img/land4.png","75","309.89999997615814","2","1","1","1,0.7,0.7,0.7,1,0.7,0.7,0.7,1","",""
"","html-keyboard-response","272","120528","0.0-272.0","3KB8R4ZV1FT99IV6AXQAU18A0AGGBE","A2JDYN6QM8M5UN","3KVQ0UJWPX71V463XQYDOZYIDLRW5D","","null","<img src=""img/land4.png"" style=""width:200px; border:14px solid green;"">","null","","","","","","",""
"","image-keyboard-response","273","121102","0.0-273.0","3KB8R4ZV1FT99IV6AXQAU18A0AGGBE","A2JDYN6QM8M5UN","3KVQ0UJWPX71V463XQYDOZYIDLRW5D","","572.5999999642372","img/land5.png","74","574.1000000238419","1","0","2","1,0.7,0.7,0.7,1,0.7,0.7,0.7,1","",""
"","html-keyboard-response","274","121405","0.0-274.0","3KB8R4ZV1FT99IV6AXQAU18A0AGGBE","A2JDYN6QM8M5UN","3KVQ0UJWPX71V463XQYDOZYIDLRW5D","","null","<img src=""img/land5.png"" style=""width:200px;border:14px solid red;"">","null","","","","","","",""
"","image-keyboard-response","275","122534","0.0-275.0","3KB8R4ZV1FT99IV6AXQAU18A0AGGBE","A2JDYN6QM8M5UN","3KVQ0UJWPX71V463XQYDOZYIDLRW5D","","1127.199999988079","img/land5.png","75","1128.5999999642372","2","1","2","1,0.7,0.7,0.7,1,0.7,0.7,0.7,1","",""
"","html-keyboard-response","276","122837","0.0-276.0","3KB8R4ZV1FT99IV6AXQAU18A0AGGBE","A2JDYN6QM8M5UN","3KVQ0UJWPX71V463XQYDOZYIDLRW5D","","null","<img src=""img/land5.png"" style=""width:200px; border:14px solid green;"">","null","","","","","","",""
"","image-keyboard-response","277","123846","0.0-277.0","3KB8R4ZV1FT99IV6AXQAU18A0AGGBE","A2JDYN6QM8M5UN","3KVQ0UJWPX71V463XQYDOZYIDLRW5D","","1007.1999999880791","img/land6.png","75","1008.5999999642372","2","1","3","1,0.7,0.7,0.7,1,0.7,0.7,0.7,1","",""
"","html-keyboard-response","278","124148","0.0-278.0","3KB8R4ZV1FT99IV6AXQAU18A0AGGBE","A2JDYN6QM8M5UN","3KVQ0UJWPX71V463XQYDOZYIDLRW5D","","null","<img src=""img/land6.png"" style=""width:200px; border:14px solid green;"">","null","","","","","","",""
"","image-keyboard-response","279","124422","0.0-279.0","3KB8R4ZV1FT99IV6AXQAU18A0AGGBE","A2JDYN6QM8M5UN","3KVQ0UJWPX71V463XQYDOZYIDLRW5D","","272.30000001192093","img/land6.png","75","273.69999998807907","2","1","3","1,0.7,0.7,0.7,1,0.7,0.7,0.7,1","",""
"","html-keyboard-response","280","124724","0.0-280.0","3KB8R4ZV1FT99IV6AXQAU18A0AGGBE","A2JDYN6QM8M5UN","3KVQ0UJWPX71V463XQYDOZYIDLRW5D","","null","<img src=""img/land6.png"" style=""width:200px; border:14px solid green;"">","null","","","","","","",""
"","image-keyboard-response","281","125911","0.0-281.0","3KB8R4ZV1FT99IV6AXQAU18A0AGGBE","A2JDYN6QM8M5UN","3KVQ0UJWPX71V463XQYDOZYIDLRW5D","","1184.4000000357628","img/land4.png","75","1185.699999988079","2","0","1","1,0.7,0.7,0.7,1,0.7,0.7,0.7,1","",""
"","html-keyboard-response","282","126214","0.0-282.0","3KB8R4ZV1FT99IV6AXQAU18A0AGGBE","A2JDYN6QM8M5UN","3KVQ0UJWPX71V463XQYDOZYIDLRW5D","","null","<img src=""img/land4.png"" style=""width:200px;border:14px solid red;"">","null","","","","","","",""
"","image-keyboard-response","283","126967","0.0-283.0","3KB8R4ZV1FT99IV6AXQAU18A0AGGBE","A2JDYN6QM8M5UN","3KVQ0UJWPX71V463XQYDOZYIDLRW5D","","751.5","img/land6.png","75","753.0999999642372","2","1","3","1,0.7,0.7,0.7,1,0.7,0.7,0.7,1","",""
"","html-keyboard-response","284","127269","0.0-284.0","3KB8R4ZV1FT99IV6AXQAU18A0AGGBE","A2JDYN6QM8M5UN","3KVQ0UJWPX71V463XQYDOZYIDLRW5D","","null","<img src=""img/land6.png"" style=""width:200px; border:14px solid green;"">","null","","","","","","",""
"","image-keyboard-response","285","127726","0.0-285.0","3KB8R4ZV1FT99IV6AXQAU18A0AGGBE","A2JDYN6QM8M5UN","3KVQ0UJWPX71V463XQYDOZYIDLRW5D","","454.80000001192093","img/land5.png","75","456.30000001192093","2","1","2","1,0.7,0.7,0.7,1,0.7,0.7,0.7,1","",""
"","html-keyboard-response","286","128029","0.0-286.0","3KB8R4ZV1FT99IV6AXQAU18A0AGGBE","A2JDYN6QM8M5UN","3KVQ0UJWPX71V463XQYDOZYIDLRW5D","","null","<img src=""img/land5.png"" style=""width:200px; border:14px solid green;"">","null","","","","","","",""
"","image-keyboard-response","287","128333","0.0-287.0","3KB8R4ZV1FT99IV6AXQAU18A0AGGBE","A2JDYN6QM8M5UN","3KVQ0UJWPX71V463XQYDOZYIDLRW5D","","303.7000000476837","img/land5.png","75","304.4000000357628","2","1","2","1,0.7,0.7,0.7,1,0.7,0.7,0.7,1","",""
"","html-keyboard-response","288","128635","0.0-288.0","3KB8R4ZV1FT99IV6AXQAU18A0AGGBE","A2JDYN6QM8M5UN","3KVQ0UJWPX71V463XQYDOZYIDLRW5D","","null","<img src=""img/land5.png"" style=""width:200px; border:14px solid green;"">","null","","","","","","",""
"","image-keyboard-response","289","129039","0.0-289.0","3KB8R4ZV1FT99IV6AXQAU18A0AGGBE","A2JDYN6QM8M5UN","3KVQ0UJWPX71V463XQYDOZYIDLRW5D","","402.10000002384186","img/land4.png","76","403.69999998807907","3","0","1","1,0.7,0.7,0.7,1,0.7,0.7,0.7,1","",""
"","html-keyboard-response","290","129342","0.0-290.0","3KB8R4ZV1FT99IV6AXQAU18A0AGGBE","A2JDYN6QM8M5UN","3KVQ0UJWPX71V463XQYDOZYIDLRW5D","","null","<img src=""img/land4.png"" style=""width:200px;border:14px solid red;"">","null","","","","","","",""
"","image-keyboard-response","291","130070","0.0-291.0","3KB8R4ZV1FT99IV6AXQAU18A0AGGBE","A2JDYN6QM8M5UN","3KVQ0UJWPX71V463XQYDOZYIDLRW5D","","726.5","img/land4.png","74","728","1","1","1","1,0.7,0.7,0.7,1,0.7,0.7,0.7,1","",""
"","html-keyboard-response","292","130373","0.0-292.0","3KB8R4ZV1FT99IV6AXQAU18A0AGGBE","A2JDYN6QM8M5UN","3KVQ0UJWPX71V463XQYDOZYIDLRW5D","","null","<img src=""img/land4.png"" style=""width:200px; border:14px solid green;"">","null","","","","","","",""
"","image-keyboard-response","293","131214","0.0-293.0","3KB8R4ZV1FT99IV6AXQAU18A0AGGBE","A2JDYN6QM8M5UN","3KVQ0UJWPX71V463XQYDOZYIDLRW5D","","839.1000000238419","img/land5.png","75","840.9000000357628","2","1","2","1,0.7,0.7,0.7,1,0.7,0.7,0.7,1","",""
"","html-keyboard-response","294","131517","0.0-294.0","3KB8R4ZV1FT99IV6AXQAU18A0AGGBE","A2JDYN6QM8M5UN","3KVQ0UJWPX71V463XQYDOZYIDLRW5D","","null","<img src=""img/land5.png"" style=""width:200px; border:14px solid green;"">","null","","","","","","",""
"","image-keyboard-response","295","131806","0.0-295.0","3KB8R4ZV1FT99IV6AXQAU18A0AGGBE","A2JDYN6QM8M5UN","3KVQ0UJWPX71V463XQYDOZYIDLRW5D","","287.69999998807907","img/land5.png","75","289.10000002384186","2","1","2","1,0.7,0.7,0.7,1,0.7,0.7,0.7,1","",""
"","html-keyboard-response","296","132108","0.0-296.0","3KB8R4ZV1FT99IV6AXQAU18A0AGGBE","A2JDYN6QM8M5UN","3KVQ0UJWPX71V463XQYDOZYIDLRW5D","","null","<img src=""img/land5.png"" style=""width:200px; border:14px solid green;"">","null","","","","","","",""
"","image-keyboard-response","297","132494","0.0-297.0","3KB8R4ZV1FT99IV6AXQAU18A0AGGBE","A2JDYN6QM8M5UN","3KVQ0UJWPX71V463XQYDOZYIDLRW5D","","383.89999997615814","img/land6.png","75","385.30000001192093","2","0","3","1,0.7,0.7,0.7,1,0.7,0.7,0.7,1","",""
"","html-keyboard-response","298","132798","0.0-298.0","3KB8R4ZV1FT99IV6AXQAU18A0AGGBE","A2JDYN6QM8M5UN","3KVQ0UJWPX71V463XQYDOZYIDLRW5D","","null","<img src=""img/land6.png"" style=""width:200px;border:14px solid red;"">","null","","","","","","",""
"","image-keyboard-response","299","134086","0.0-299.0","3KB8R4ZV1FT99IV6AXQAU18A0AGGBE","A2JDYN6QM8M5UN","3KVQ0UJWPX71V463XQYDOZYIDLRW5D","","1287.300000011921","img/land5.png","75","1288.4000000357628","2","1","2","1,0.7,0.7,0.7,1,0.7,0.7,0.7,1","",""
"","html-keyboard-response","300","134389","0.0-300.0","3KB8R4ZV1FT99IV6AXQAU18A0AGGBE","A2JDYN6QM8M5UN","3KVQ0UJWPX71V463XQYDOZYIDLRW5D","","null","<img src=""img/land5.png"" style=""width:200px; border:14px solid green;"">","null","","","","","","",""
"","image-keyboard-response","301","135246","0.0-301.0","3KB8R4ZV1FT99IV6AXQAU18A0AGGBE","A2JDYN6QM8M5UN","3KVQ0UJWPX71V463XQYDOZYIDLRW5D","","855.4000000357628","img/land4.png","75","856.8000000119209","2","0","1","1,0.7,0.7,0.7,1,0.7,0.7,0.7,1","",""
"","html-keyboard-response","302","135549","0.0-302.0","3KB8R4ZV1FT99IV6AXQAU18A0AGGBE","A2JDYN6QM8M5UN","3KVQ0UJWPX71V463XQYDOZYIDLRW5D","","null","<img src=""img/land4.png"" style=""width:200px;border:14px solid red;"">","null","","","","","","",""
"","image-keyboard-response","303","135981","0.0-303.0","3KB8R4ZV1FT99IV6AXQAU18A0AGGBE","A2JDYN6QM8M5UN","3KVQ0UJWPX71V463XQYDOZYIDLRW5D","","430.69999998807907","img/land4.png","74","431.9000000357628","1","1","1","1,0.7,0.7,0.7,1,0.7,0.7,0.7,1","",""
"","html-keyboard-response","304","136283","0.0-304.0","3KB8R4ZV1FT99IV6AXQAU18A0AGGBE","A2JDYN6QM8M5UN","3KVQ0UJWPX71V463XQYDOZYIDLRW5D","","null","<img src=""img/land4.png"" style=""width:200px; border:14px solid green;"">","null","","","","","","",""
"","image-keyboard-response","305","136792","0.0-305.0","3KB8R4ZV1FT99IV6AXQAU18A0AGGBE","A2JDYN6QM8M5UN","3KVQ0UJWPX71V463XQYDOZYIDLRW5D","","507.19999998807907","img/land4.png","74","509.10000002384186","1","1","1","1,0.7,0.7,0.7,1,0.7,0.7,0.7,1","",""
"","html-keyboard-response","306","137096","0.0-306.0","3KB8R4ZV1FT99IV6AXQAU18A0AGGBE","A2JDYN6QM8M5UN","3KVQ0UJWPX71V463XQYDOZYIDLRW5D","","null","<img src=""img/land4.png"" style=""width:200px; border:14px solid green;"">","null","","","","","","",""
"","image-keyboard-response","307","137390","0.0-307.0","3KB8R4ZV1FT99IV6AXQAU18A0AGGBE","A2JDYN6QM8M5UN","3KVQ0UJWPX71V463XQYDOZYIDLRW5D","","293.10000002384186","img/land4.png","74","294.4000000357628","1","1","1","1,0.7,0.7,0.7,1,0.7,0.7,0.7,1","",""
"","html-keyboard-response","308","137694","0.0-308.0","3KB8R4ZV1FT99IV6AXQAU18A0AGGBE","A2JDYN6QM8M5UN","3KVQ0UJWPX71V463XQYDOZYIDLRW5D","","null","<img src=""img/land4.png"" style=""width:200px; border:14px solid green;"">","null","","","","","","",""
"","image-keyboard-response","309","138021","0.0-309.0","3KB8R4ZV1FT99IV6AXQAU18A0AGGBE","A2JDYN6QM8M5UN","3KVQ0UJWPX71V463XQYDOZYIDLRW5D","","325.39999997615814","img/land4.png","74","326.60000002384186","1","1","1","1,0.7,0.7,0.7,1,0.7,0.7,0.7,1","",""
"","html-keyboard-response","310","138323","0.0-310.0","3KB8R4ZV1FT99IV6AXQAU18A0AGGBE","A2JDYN6QM8M5UN","3KVQ0UJWPX71V463XQYDOZYIDLRW5D","","null","<img src=""img/land4.png"" style=""width:200px; border:14px solid green;"">","null","","","","","","",""
"","image-keyboard-response","311","138543","0.0-311.0","3KB8R4ZV1FT99IV6AXQAU18A0AGGBE","A2JDYN6QM8M5UN","3KVQ0UJWPX71V463XQYDOZYIDLRW5D","","218.20000004768372","img/land6.png","74","219.80000001192093","1","1","3","1,0.7,0.7,0.7,1,0.7,0.7,0.7,1","",""
"","html-keyboard-response","312","138846","0.0-312.0","3KB8R4ZV1FT99IV6AXQAU18A0AGGBE","A2JDYN6QM8M5UN","3KVQ0UJWPX71V463XQYDOZYIDLRW5D","","null","<img src=""img/land6.png"" style=""width:200px; border:14px solid green;"">","null","","","","","","",""
"","image-keyboard-response","313","139342","0.0-313.0","3KB8R4ZV1FT99IV6AXQAU18A0AGGBE","A2JDYN6QM8M5UN","3KVQ0UJWPX71V463XQYDOZYIDLRW5D","","494.4000000357628","img/land4.png","74","495.9000000357628","1","1","1","1,0.7,0.7,0.7,1,0.7,0.7,0.7,1","",""
"","html-keyboard-response","314","139644","0.0-314.0","3KB8R4ZV1FT99IV6AXQAU18A0AGGBE","A2JDYN6QM8M5UN","3KVQ0UJWPX71V463XQYDOZYIDLRW5D","","null","<img src=""img/land4.png"" style=""width:200px; border:14px solid green;"">","null","","","","","","",""
"","image-keyboard-response","315","140095","0.0-315.0","3KB8R4ZV1FT99IV6AXQAU18A0AGGBE","A2JDYN6QM8M5UN","3KVQ0UJWPX71V463XQYDOZYIDLRW5D","","449.5","img/land6.png","74","450.60000002384186","1","1","3","1,0.7,0.7,0.7,1,0.7,0.7,0.7,1","",""
"","html-keyboard-response","316","140398","0.0-316.0","3KB8R4ZV1FT99IV6AXQAU18A0AGGBE","A2JDYN6QM8M5UN","3KVQ0UJWPX71V463XQYDOZYIDLRW5D","","null","<img src=""img/land6.png"" style=""width:200px; border:14px solid green;"">","null","","","","","","",""
"","image-keyboard-response","317","140526","0.0-317.0","3KB8R4ZV1FT99IV6AXQAU18A0AGGBE","A2JDYN6QM8M5UN","3KVQ0UJWPX71V463XQYDOZYIDLRW5D","","127.19999998807907","img/land4.png","74","128.30000001192093","1","1","1","1,0.7,0.7,0.7,1,0.7,0.7,0.7,1","",""
"","html-keyboard-response","318","140829","0.0-318.0","3KB8R4ZV1FT99IV6AXQAU18A0AGGBE","A2JDYN6QM8M5UN","3KVQ0UJWPX71V463XQYDOZYIDLRW5D","","null","<img src=""img/land4.png"" style=""width:200px; border:14px solid green;"">","null","","","","","","",""
"","image-keyboard-response","319","141030","0.0-319.0","3KB8R4ZV1FT99IV6AXQAU18A0AGGBE","A2JDYN6QM8M5UN","3KVQ0UJWPX71V463XQYDOZYIDLRW5D","","198.80000001192093","img/land6.png","74","200.5","1","0","3","1,0.7,0.7,0.7,1,0.7,0.7,0.7,1","",""
"","html-keyboard-response","320","141333","0.0-320.0","3KB8R4ZV1FT99IV6AXQAU18A0AGGBE","A2JDYN6QM8M5UN","3KVQ0UJWPX71V463XQYDOZYIDLRW5D","","null","<img src=""img/land6.png"" style=""width:200px;border:14px solid red;"">","null","","","","","","",""
"","image-keyboard-response","321","141830","0.0-321.0","3KB8R4ZV1FT99IV6AXQAU18A0AGGBE","A2JDYN6QM8M5UN","3KVQ0UJWPX71V463XQYDOZYIDLRW5D","","495.60000002384186","img/land4.png","74","497","1","1","1","1,0.7,0.7,0.7,1,0.7,0.7,0.7,1","",""
"","html-keyboard-response","322","142132","0.0-322.0","3KB8R4ZV1FT99IV6AXQAU18A0AGGBE","A2JDYN6QM8M5UN","3KVQ0UJWPX71V463XQYDOZYIDLRW5D","","null","<img src=""img/land4.png"" style=""width:200px; border:14px solid green;"">","null","","","","","","",""
"","image-keyboard-response","323","142814","0.0-323.0","3KB8R4ZV1FT99IV6AXQAU18A0AGGBE","A2JDYN6QM8M5UN","3KVQ0UJWPX71V463XQYDOZYIDLRW5D","","679.8999999761581","img/land6.png","76","681.3000000119209","3","1","3","1,0.7,0.7,0.7,1,0.7,0.7,0.7,1","",""
"","html-keyboard-response","324","143116","0.0-324.0","3KB8R4ZV1FT99IV6AXQAU18A0AGGBE","A2JDYN6QM8M5UN","3KVQ0UJWPX71V463XQYDOZYIDLRW5D","","null","<img src=""img/land6.png"" style=""width:200px; border:14px solid green;"">","null","","","","","","",""
"","image-keyboard-response","325","143886","0.0-325.0","3KB8R4ZV1FT99IV6AXQAU18A0AGGBE","A2JDYN6QM8M5UN","3KVQ0UJWPX71V463XQYDOZYIDLRW5D","","768","img/land4.png","74","769.3999999761581","1","1","1","1,0.7,0.7,0.7,1,0.7,0.7,0.7,1","",""
"","html-keyboard-response","326","144188","0.0-326.0","3KB8R4ZV1FT99IV6AXQAU18A0AGGBE","A2JDYN6QM8M5UN","3KVQ0UJWPX71V463XQYDOZYIDLRW5D","","null","<img src=""img/land4.png"" style=""width:200px; border:14px solid green;"">","null","","","","","","",""
"","image-keyboard-response","327","144510","0.0-327.0","3KB8R4ZV1FT99IV6AXQAU18A0AGGBE","A2JDYN6QM8M5UN","3KVQ0UJWPX71V463XQYDOZYIDLRW5D","","320","img/land4.png","74","321.4000000357628","1","1","1","1,0.7,0.7,0.7,1,0.7,0.7,0.7,1","",""
"","html-keyboard-response","328","144813","0.0-328.0","3KB8R4ZV1FT99IV6AXQAU18A0AGGBE","A2JDYN6QM8M5UN","3KVQ0UJWPX71V463XQYDOZYIDLRW5D","","null","<img src=""img/land4.png"" style=""width:200px; border:14px solid green;"">","null","","","","","","",""
"","image-keyboard-response","329","145334","0.0-329.0","3KB8R4ZV1FT99IV6AXQAU18A0AGGBE","A2JDYN6QM8M5UN","3KVQ0UJWPX71V463XQYDOZYIDLRW5D","","519.5","img/land6.png","76","520.8000000119209","3","1","3","1,0.7,0.7,0.7,1,0.7,0.7,0.7,1","",""
"","html-keyboard-response","330","145637","0.0-330.0","3KB8R4ZV1FT99IV6AXQAU18A0AGGBE","A2JDYN6QM8M5UN","3KVQ0UJWPX71V463XQYDOZYIDLRW5D","","null","<img src=""img/land6.png"" style=""width:200px; border:14px solid green;"">","null","","","","","","",""
"","image-keyboard-response","331","146198","0.0-331.0","3KB8R4ZV1FT99IV6AXQAU18A0AGGBE","A2JDYN6QM8M5UN","3KVQ0UJWPX71V463XQYDOZYIDLRW5D","","559.8000000119209","img/land4.png","74","561.3000000119209","1","1","1","1,0.7,0.7,0.7,1,0.7,0.7,0.7,1","",""
"","html-keyboard-response","332","146501","0.0-332.0","3KB8R4ZV1FT99IV6AXQAU18A0AGGBE","A2JDYN6QM8M5UN","3KVQ0UJWPX71V463XQYDOZYIDLRW5D","","null","<img src=""img/land4.png"" style=""width:200px; border:14px solid green;"">","null","","","","","","",""
"","image-keyboard-response","333","147079","0.0-333.0","3KB8R4ZV1FT99IV6AXQAU18A0AGGBE","A2JDYN6QM8M5UN","3KVQ0UJWPX71V463XQYDOZYIDLRW5D","","576","img/land5.png","75","577.6999999880791","2","1","2","1,0.7,0.7,0.7,1,0.7,0.7,0.7,1","",""
"","html-keyboard-response","334","147382","0.0-334.0","3KB8R4ZV1FT99IV6AXQAU18A0AGGBE","A2JDYN6QM8M5UN","3KVQ0UJWPX71V463XQYDOZYIDLRW5D","","null","<img src=""img/land5.png"" style=""width:200px; border:14px solid green;"">","null","","","","","","",""
"","image-keyboard-response","335","147734","0.0-335.0","3KB8R4ZV1FT99IV6AXQAU18A0AGGBE","A2JDYN6QM8M5UN","3KVQ0UJWPX71V463XQYDOZYIDLRW5D","","350.30000001192093","img/land5.png","75","351.69999998807907","2","1","2","1,0.7,0.7,0.7,1,0.7,0.7,0.7,1","",""
"","html-keyboard-response","336","148037","0.0-336.0","3KB8R4ZV1FT99IV6AXQAU18A0AGGBE","A2JDYN6QM8M5UN","3KVQ0UJWPX71V463XQYDOZYIDLRW5D","","null","<img src=""img/land5.png"" style=""width:200px; border:14px solid green;"">","null","","","","","","",""
"","image-keyboard-response","337","148711","0.0-337.0","3KB8R4ZV1FT99IV6AXQAU18A0AGGBE","A2JDYN6QM8M5UN","3KVQ0UJWPX71V463XQYDOZYIDLRW5D","","671.5","img/land4.png","74","673.0999999642372","1","1","1","1,0.7,0.7,0.7,1,0.7,0.7,0.7,1","",""
"","html-keyboard-response","338","149014","0.0-338.0","3KB8R4ZV1FT99IV6AXQAU18A0AGGBE","A2JDYN6QM8M5UN","3KVQ0UJWPX71V463XQYDOZYIDLRW5D","","null","<img src=""img/land4.png"" style=""width:200px; border:14px solid green;"">","null","","","","","","",""
"","instructions","339","150757","0.0-339.0","3KB8R4ZV1FT99IV6AXQAU18A0AGGBE","A2JDYN6QM8M5UN","3KVQ0UJWPX71V463XQYDOZYIDLRW5D","[{""page_index"":0,""viewing_time"":1741.1000000238419}]","1741.3999999761581","","","","","","","","",""
"","survey-text","340","152962","0.0-340.0-0.0","3KB8R4ZV1FT99IV6AXQAU18A0AGGBE","A2JDYN6QM8M5UN","3KVQ0UJWPX71V463XQYDOZYIDLRW5D","","2201.2999999523163","","","","","","","","{""Q0"":""29""}",""
"","survey-multi-choice","341","154764","0.0-340.0-1.0","3KB8R4ZV1FT99IV6AXQAU18A0AGGBE","A2JDYN6QM8M5UN","3KVQ0UJWPX71V463XQYDOZYIDLRW5D","","1800.1000000238419","","","","","","","","{""gender"":""M""}","[0]"
"","survey-text","342","159280","0.0-341.0","3KB8R4ZV1FT99IV6AXQAU18A0AGGBE","A2JDYN6QM8M5UN","3KVQ0UJWPX71V463XQYDOZYIDLRW5D","","4513.600000023842","","","","","","","","{""Q0"":""A2JDYN6QM8M5UN""}",""
