"success","trial_type","trial_index","time_elapsed","internal_node_id","assignmentID","mturkID","hitID","view_history","rt","stimulus","key_press","reactionTime","a","r","s","cond","reward_cond","reward_cond_actual","reward_matrix_idx","responses","question_order"
"true","fullscreen","0","3436","0.0-0.0","3TS1AR6UQR0GT6WLMW8C7EM2HEIF74","A2JI8LMB1EEQ4Z","335VBRURDJMQFRMOFGHOE9WKSHX9E1","","","","","","","","","","","","","",""
"","instructions","1","49855","0.0-1.0","3TS1AR6UQR0GT6WLMW8C7EM2HEIF74","A2JI8LMB1EEQ4Z","335VBRURDJMQFRMOFGHOE9WKSHX9E1","[{""page_index"":0,""viewing_time"":23353.29999923706},{""page_index"":1,""viewing_time"":607.8000001907349},{""page_index"":2,""viewing_time"":482.1000003814697},{""page_index"":3,""viewing_time"":14719.599999427795},{""page_index"":4,""viewing_time"":3717.800000190735},{""page_index"":5,""viewing_time"":1178},{""page_index"":6,""viewing_time"":2356}]","46416.099999427795","","","","","","","","","","","",""
"","image-keyboard-response","2","50618","0.0-2.0","3TS1AR6UQR0GT6WLMW8C7EM2HEIF74","A2JI8LMB1EEQ4Z","335VBRURDJMQFRMOFGHOE9WKSHX9E1","","760.1999998092651","img/land3.png","75","762.4000005722046","2","1","2","1","0.8,0.2,0.2,0.2,0.8,0.2,0.2,0.2,0.8","0.8,0.2,0.2,0.2,0.8,0.2,0.2,0.2,0.8","1","",""
"","html-keyboard-response","3","50924","0.0-3.0","3TS1AR6UQR0GT6WLMW8C7EM2HEIF74","A2JI8LMB1EEQ4Z","335VBRURDJMQFRMOFGHOE9WKSHX9E1","","null","<img src=""img/land3.png"" style=""width:200px; border:14px solid green;"">","null","","","","","","","","","",""
"","image-keyboard-response","4","51578","0.0-4.0","3TS1AR6UQR0GT6WLMW8C7EM2HEIF74","A2JI8LMB1EEQ4Z","335VBRURDJMQFRMOFGHOE9WKSHX9E1","","651.1999998092651","img/land4.png","74","652.6000003814697","1","0","1","1","0.8,0.2,0.2,0.2,0.8,0.2,0.2,0.2,0.8","0.8,0.2,0.2,0.2,0.8,0.2,0.2,0.2,0.8","1","",""
"","html-keyboard-response","5","51884","0.0-5.0","3TS1AR6UQR0GT6WLMW8C7EM2HEIF74","A2JI8LMB1EEQ4Z","335VBRURDJMQFRMOFGHOE9WKSHX9E1","","null","<img src=""img/land4.png"" style=""width:200px;border:14px solid red;"">","null","","","","","","","","","",""
"","image-keyboard-response","6","52301","0.0-6.0","3TS1AR6UQR0GT6WLMW8C7EM2HEIF74","A2JI8LMB1EEQ4Z","335VBRURDJMQFRMOFGHOE9WKSHX9E1","","414.5","img/land4.png","76","415.80000019073486","3","1","1","1","0.8,0.2,0.2,0.2,0.8,0.2,0.2,0.2,0.8","0.8,0.2,0.2,0.2,0.8,0.2,0.2,0.2,0.8","1","",""
"","html-keyboard-response","7","52604","0.0-7.0","3TS1AR6UQR0GT6WLMW8C7EM2HEIF74","A2JI8LMB1EEQ4Z","335VBRURDJMQFRMOFGHOE9WKSHX9E1","","null","<img src=""img/land4.png"" style=""width:200px; border:14px solid green;"">","null","","","","","","","","","",""
"","image-keyboard-response","8","53490","0.0-8.0","3TS1AR6UQR0GT6WLMW8C7EM2HEIF74","A2JI8LMB1EEQ4Z","335VBRURDJMQFRMOFGHOE9WKSHX9E1","","884","img/land5.png","74","885.3000001907349","1","0","3","1","0.8,0.2,0.2,0.2,0.8,0.2,0.2,0.2,0.8","0.8,0.2,0.2,0.2,0.8,0.2,0.2,0.2,0.8","1","",""
"","html-keyboard-response","9","53796","0.0-9.0","3TS1AR6UQR0GT6WLMW8C7EM2HEIF74","A2JI8LMB1EEQ4Z","335VBRURDJMQFRMOFGHOE9WKSHX9E1","","null","<img src=""img/land5.png"" style=""width:200px;border:14px solid red;"">","null","","","","","","","","","",""
"","image-keyboard-response","10","54706","0.0-10.0","3TS1AR6UQR0GT6WLMW8C7EM2HEIF74","A2JI8LMB1EEQ4Z","335VBRURDJMQFRMOFGHOE9WKSHX9E1","","907.3999996185303","img/land4.png","76","908.6000003814697","3","0","1","1","0.8,0.2,0.2,0.2,0.8,0.2,0.2,0.2,0.8","0.8,0.2,0.2,0.2,0.8,0.2,0.2,0.2,0.8","1","",""
"","html-keyboard-response","11","55012","0.0-11.0","3TS1AR6UQR0GT6WLMW8C7EM2HEIF74","A2JI8LMB1EEQ4Z","335VBRURDJMQFRMOFGHOE9WKSHX9E1","","null","<img src=""img/land4.png"" style=""width:200px;border:14px solid red;"">","null","","","","","","","","","",""
"","image-keyboard-response","12","55721","0.0-12.0","3TS1AR6UQR0GT6WLMW8C7EM2HEIF74","A2JI8LMB1EEQ4Z","335VBRURDJMQFRMOFGHOE9WKSHX9E1","","707.5","img/land3.png","75","708.6999998092651","2","0","2","1","0.8,0.2,0.2,0.2,0.8,0.2,0.2,0.2,0.8","0.8,0.2,0.2,0.2,0.8,0.2,0.2,0.2,0.8","1","",""
"","html-keyboard-response","13","56028","0.0-13.0","3TS1AR6UQR0GT6WLMW8C7EM2HEIF74","A2JI8LMB1EEQ4Z","335VBRURDJMQFRMOFGHOE9WKSHX9E1","","null","<img src=""img/land3.png"" style=""width:200px;border:14px solid red;"">","null","","","","","","","","","",""
"","image-keyboard-response","14","56596","0.0-14.0","3TS1AR6UQR0GT6WLMW8C7EM2HEIF74","A2JI8LMB1EEQ4Z","335VBRURDJMQFRMOFGHOE9WKSHX9E1","","563.1999998092651","img/land3.png","75","567","2","1","2","1","0.8,0.2,0.2,0.2,0.8,0.2,0.2,0.2,0.8","0.8,0.2,0.2,0.2,0.8,0.2,0.2,0.2,0.8","1","",""
"","html-keyboard-response","15","56900","0.0-15.0","3TS1AR6UQR0GT6WLMW8C7EM2HEIF74","A2JI8LMB1EEQ4Z","335VBRURDJMQFRMOFGHOE9WKSHX9E1","","null","<img src=""img/land3.png"" style=""width:200px; border:14px solid green;"">","null","","","","","","","","","",""
"","image-keyboard-response","16","57905","0.0-16.0","3TS1AR6UQR0GT6WLMW8C7EM2HEIF74","A2JI8LMB1EEQ4Z","335VBRURDJMQFRMOFGHOE9WKSHX9E1","","1003.0999994277954","img/land3.png","75","1004.3999996185303","2","1","2","1","0.8,0.2,0.2,0.2,0.8,0.2,0.2,0.2,0.8","0.8,0.2,0.2,0.2,0.8,0.2,0.2,0.2,0.8","1","",""
"","html-keyboard-response","17","58212","0.0-17.0","3TS1AR6UQR0GT6WLMW8C7EM2HEIF74","A2JI8LMB1EEQ4Z","335VBRURDJMQFRMOFGHOE9WKSHX9E1","","null","<img src=""img/land3.png"" style=""width:200px; border:14px solid green;"">","null","","","","","","","","","",""
"","image-keyboard-response","18","58906","0.0-18.0","3TS1AR6UQR0GT6WLMW8C7EM2HEIF74","A2JI8LMB1EEQ4Z","335VBRURDJMQFRMOFGHOE9WKSHX9E1","","691.3999996185303","img/land4.png","74","692.4000005722046","1","1","1","1","0.8,0.2,0.2,0.2,0.8,0.2,0.2,0.2,0.8","0.8,0.2,0.2,0.2,0.8,0.2,0.2,0.2,0.8","1","",""
"","html-keyboard-response","19","59213","0.0-19.0","3TS1AR6UQR0GT6WLMW8C7EM2HEIF74","A2JI8LMB1EEQ4Z","335VBRURDJMQFRMOFGHOE9WKSHX9E1","","null","<img src=""img/land4.png"" style=""width:200px; border:14px solid green;"">","null","","","","","","","","","",""
"","image-keyboard-response","20","59866","0.0-20.0","3TS1AR6UQR0GT6WLMW8C7EM2HEIF74","A2JI8LMB1EEQ4Z","335VBRURDJMQFRMOFGHOE9WKSHX9E1","","651.1999998092651","img/land3.png","75","652.4000005722046","2","1","2","1","0.8,0.2,0.2,0.2,0.8,0.2,0.2,0.2,0.8","0.8,0.2,0.2,0.2,0.8,0.2,0.2,0.2,0.8","1","",""
"","html-keyboard-response","21","60173","0.0-21.0","3TS1AR6UQR0GT6WLMW8C7EM2HEIF74","A2JI8LMB1EEQ4Z","335VBRURDJMQFRMOFGHOE9WKSHX9E1","","null","<img src=""img/land3.png"" style=""width:200px; border:14px solid green;"">","null","","","","","","","","","",""
"","image-keyboard-response","22","61018","0.0-22.0","3TS1AR6UQR0GT6WLMW8C7EM2HEIF74","A2JI8LMB1EEQ4Z","335VBRURDJMQFRMOFGHOE9WKSHX9E1","","843.2999992370605","img/land5.png","76","844.5","3","1","3","1","0.8,0.2,0.2,0.2,0.8,0.2,0.2,0.2,0.8","0.8,0.2,0.2,0.2,0.8,0.2,0.2,0.2,0.8","1","",""
"","html-keyboard-response","23","61324","0.0-23.0","3TS1AR6UQR0GT6WLMW8C7EM2HEIF74","A2JI8LMB1EEQ4Z","335VBRURDJMQFRMOFGHOE9WKSHX9E1","","null","<img src=""img/land5.png"" style=""width:200px; border:14px solid green;"">","null","","","","","","","","","",""
"","image-keyboard-response","24","62106","0.0-24.0","3TS1AR6UQR0GT6WLMW8C7EM2HEIF74","A2JI8LMB1EEQ4Z","335VBRURDJMQFRMOFGHOE9WKSHX9E1","","780.5","img/land4.png","74","781.5999994277954","1","1","1","1","0.8,0.2,0.2,0.2,0.8,0.2,0.2,0.2,0.8","0.8,0.2,0.2,0.2,0.8,0.2,0.2,0.2,0.8","1","",""
"","html-keyboard-response","25","62412","0.0-25.0","3TS1AR6UQR0GT6WLMW8C7EM2HEIF74","A2JI8LMB1EEQ4Z","335VBRURDJMQFRMOFGHOE9WKSHX9E1","","null","<img src=""img/land4.png"" style=""width:200px; border:14px solid green;"">","null","","","","","","","","","",""
"","image-keyboard-response","26","62802","0.0-26.0","3TS1AR6UQR0GT6WLMW8C7EM2HEIF74","A2JI8LMB1EEQ4Z","335VBRURDJMQFRMOFGHOE9WKSHX9E1","","387.69999980926514","img/land3.png","75","389.19999980926514","2","1","2","1","0.8,0.2,0.2,0.2,0.8,0.2,0.2,0.2,0.8","0.8,0.2,0.2,0.2,0.8,0.2,0.2,0.2,0.8","1","",""
"","html-keyboard-response","27","63108","0.0-27.0","3TS1AR6UQR0GT6WLMW8C7EM2HEIF74","A2JI8LMB1EEQ4Z","335VBRURDJMQFRMOFGHOE9WKSHX9E1","","null","<img src=""img/land3.png"" style=""width:200px; border:14px solid green;"">","null","","","","","","","","","",""
"","image-keyboard-response","28","63643","0.0-28.0","3TS1AR6UQR0GT6WLMW8C7EM2HEIF74","A2JI8LMB1EEQ4Z","335VBRURDJMQFRMOFGHOE9WKSHX9E1","","532.6000003814697","img/land5.png","76","533.8000001907349","3","1","3","1","0.8,0.2,0.2,0.2,0.8,0.2,0.2,0.2,0.8","0.8,0.2,0.2,0.2,0.8,0.2,0.2,0.2,0.8","1","",""
"","html-keyboard-response","29","63948","0.0-29.0","3TS1AR6UQR0GT6WLMW8C7EM2HEIF74","A2JI8LMB1EEQ4Z","335VBRURDJMQFRMOFGHOE9WKSHX9E1","","null","<img src=""img/land5.png"" style=""width:200px; border:14px solid green;"">","null","","","","","","","","","",""
"","image-keyboard-response","30","64490","0.0-30.0","3TS1AR6UQR0GT6WLMW8C7EM2HEIF74","A2JI8LMB1EEQ4Z","335VBRURDJMQFRMOFGHOE9WKSHX9E1","","539.8999996185303","img/land3.png","74","541.1000003814697","1","0","2","1","0.8,0.2,0.2,0.2,0.8,0.2,0.2,0.2,0.8","0.8,0.2,0.2,0.2,0.8,0.2,0.2,0.2,0.8","1","",""
"","html-keyboard-response","31","64797","0.0-31.0","3TS1AR6UQR0GT6WLMW8C7EM2HEIF74","A2JI8LMB1EEQ4Z","335VBRURDJMQFRMOFGHOE9WKSHX9E1","","null","<img src=""img/land3.png"" style=""width:200px;border:14px solid red;"">","null","","","","","","","","","",""
"","image-keyboard-response","32","65386","0.0-32.0","3TS1AR6UQR0GT6WLMW8C7EM2HEIF74","A2JI8LMB1EEQ4Z","335VBRURDJMQFRMOFGHOE9WKSHX9E1","","587.8000001907349","img/land5.png","76","588.8999996185303","3","1","3","1","0.8,0.2,0.2,0.2,0.8,0.2,0.2,0.2,0.8","0.8,0.2,0.2,0.2,0.8,0.2,0.2,0.2,0.8","1","",""
"","html-keyboard-response","33","65693","0.0-33.0","3TS1AR6UQR0GT6WLMW8C7EM2HEIF74","A2JI8LMB1EEQ4Z","335VBRURDJMQFRMOFGHOE9WKSHX9E1","","null","<img src=""img/land5.png"" style=""width:200px; border:14px solid green;"">","null","","","","","","","","","",""
"","image-keyboard-response","34","66194","0.0-34.0","3TS1AR6UQR0GT6WLMW8C7EM2HEIF74","A2JI8LMB1EEQ4Z","335VBRURDJMQFRMOFGHOE9WKSHX9E1","","499.80000019073486","img/land5.png","76","500.8999996185303","3","1","3","1","0.8,0.2,0.2,0.2,0.8,0.2,0.2,0.2,0.8","0.8,0.2,0.2,0.2,0.8,0.2,0.2,0.2,0.8","1","",""
"","html-keyboard-response","35","66501","0.0-35.0","3TS1AR6UQR0GT6WLMW8C7EM2HEIF74","A2JI8LMB1EEQ4Z","335VBRURDJMQFRMOFGHOE9WKSHX9E1","","null","<img src=""img/land5.png"" style=""width:200px; border:14px solid green;"">","null","","","","","","","","","",""
"","image-keyboard-response","36","67082","0.0-36.0","3TS1AR6UQR0GT6WLMW8C7EM2HEIF74","A2JI8LMB1EEQ4Z","335VBRURDJMQFRMOFGHOE9WKSHX9E1","","579.5","img/land3.png","74","580.8999996185303","1","0","2","1","0.8,0.2,0.2,0.2,0.8,0.2,0.2,0.2,0.8","0.8,0.2,0.2,0.2,0.8,0.2,0.2,0.2,0.8","1","",""
"","html-keyboard-response","37","67389","0.0-37.0","3TS1AR6UQR0GT6WLMW8C7EM2HEIF74","A2JI8LMB1EEQ4Z","335VBRURDJMQFRMOFGHOE9WKSHX9E1","","null","<img src=""img/land3.png"" style=""width:200px;border:14px solid red;"">","null","","","","","","","","","",""
"","image-keyboard-response","38","68138","0.0-38.0","3TS1AR6UQR0GT6WLMW8C7EM2HEIF74","A2JI8LMB1EEQ4Z","335VBRURDJMQFRMOFGHOE9WKSHX9E1","","747.5999994277954","img/land5.png","76","748.8000001907349","3","1","3","1","0.8,0.2,0.2,0.2,0.8,0.2,0.2,0.2,0.8","0.8,0.2,0.2,0.2,0.8,0.2,0.2,0.2,0.8","1","",""
"","html-keyboard-response","39","68445","0.0-39.0","3TS1AR6UQR0GT6WLMW8C7EM2HEIF74","A2JI8LMB1EEQ4Z","335VBRURDJMQFRMOFGHOE9WKSHX9E1","","null","<img src=""img/land5.png"" style=""width:200px; border:14px solid green;"">","null","","","","","","","","","",""
"","image-keyboard-response","40","69026","0.0-40.0","3TS1AR6UQR0GT6WLMW8C7EM2HEIF74","A2JI8LMB1EEQ4Z","335VBRURDJMQFRMOFGHOE9WKSHX9E1","","579.5","img/land5.png","76","580.4000005722046","3","0","3","1","0.8,0.2,0.2,0.2,0.8,0.2,0.2,0.2,0.8","0.8,0.2,0.2,0.2,0.8,0.2,0.2,0.2,0.8","1","",""
"","html-keyboard-response","41","69333","0.0-41.0","3TS1AR6UQR0GT6WLMW8C7EM2HEIF74","A2JI8LMB1EEQ4Z","335VBRURDJMQFRMOFGHOE9WKSHX9E1","","null","<img src=""img/land5.png"" style=""width:200px;border:14px solid red;"">","null","","","","","","","","","",""
"","image-keyboard-response","42","70082","0.0-42.0","3TS1AR6UQR0GT6WLMW8C7EM2HEIF74","A2JI8LMB1EEQ4Z","335VBRURDJMQFRMOFGHOE9WKSHX9E1","","747.5","img/land4.png","75","748.6999998092651","2","0","1","1","0.8,0.2,0.2,0.2,0.8,0.2,0.2,0.2,0.8","0.8,0.2,0.2,0.2,0.8,0.2,0.2,0.2,0.8","1","",""
"","html-keyboard-response","43","70389","0.0-43.0","3TS1AR6UQR0GT6WLMW8C7EM2HEIF74","A2JI8LMB1EEQ4Z","335VBRURDJMQFRMOFGHOE9WKSHX9E1","","null","<img src=""img/land4.png"" style=""width:200px;border:14px solid red;"">","null","","","","","","","","","",""
"","image-keyboard-response","44","70650","0.0-44.0","3TS1AR6UQR0GT6WLMW8C7EM2HEIF74","A2JI8LMB1EEQ4Z","335VBRURDJMQFRMOFGHOE9WKSHX9E1","","259.3999996185303","img/land5.png","75","260.5999994277954","2","0","3","1","0.8,0.2,0.2,0.2,0.8,0.2,0.2,0.2,0.8","0.8,0.2,0.2,0.2,0.8,0.2,0.2,0.2,0.8","1","",""
"","html-keyboard-response","45","70957","0.0-45.0","3TS1AR6UQR0GT6WLMW8C7EM2HEIF74","A2JI8LMB1EEQ4Z","335VBRURDJMQFRMOFGHOE9WKSHX9E1","","null","<img src=""img/land5.png"" style=""width:200px;border:14px solid red;"">","null","","","","","","","","","",""
"","image-keyboard-response","46","72042","0.0-46.0","3TS1AR6UQR0GT6WLMW8C7EM2HEIF74","A2JI8LMB1EEQ4Z","335VBRURDJMQFRMOFGHOE9WKSHX9E1","","1083.4000005722046","img/land4.png","74","1084.6000003814697","1","1","1","1","0.8,0.2,0.2,0.2,0.8,0.2,0.2,0.2,0.8","0.8,0.2,0.2,0.2,0.8,0.2,0.2,0.2,0.8","1","",""
"","html-keyboard-response","47","72349","0.0-47.0","3TS1AR6UQR0GT6WLMW8C7EM2HEIF74","A2JI8LMB1EEQ4Z","335VBRURDJMQFRMOFGHOE9WKSHX9E1","","null","<img src=""img/land4.png"" style=""width:200px; border:14px solid green;"">","null","","","","","","","","","",""
"","image-keyboard-response","48","72818","0.0-48.0","3TS1AR6UQR0GT6WLMW8C7EM2HEIF74","A2JI8LMB1EEQ4Z","335VBRURDJMQFRMOFGHOE9WKSHX9E1","","467.30000019073486","img/land4.png","74","468.30000019073486","1","1","1","1","0.8,0.2,0.2,0.2,0.8,0.2,0.2,0.2,0.8","0.8,0.2,0.2,0.2,0.8,0.2,0.2,0.2,0.8","1","",""
"","html-keyboard-response","49","73125","0.0-49.0","3TS1AR6UQR0GT6WLMW8C7EM2HEIF74","A2JI8LMB1EEQ4Z","335VBRURDJMQFRMOFGHOE9WKSHX9E1","","null","<img src=""img/land4.png"" style=""width:200px; border:14px solid green;"">","null","","","","","","","","","",""
"","image-keyboard-response","50","73723","0.0-50.0","3TS1AR6UQR0GT6WLMW8C7EM2HEIF74","A2JI8LMB1EEQ4Z","335VBRURDJMQFRMOFGHOE9WKSHX9E1","","596","img/land4.png","74","597.1000003814697","1","0","1","1","0.8,0.2,0.2,0.2,0.8,0.2,0.2,0.2,0.8","0.8,0.2,0.2,0.2,0.8,0.2,0.2,0.2,0.8","1","",""
"","html-keyboard-response","51","74029","0.0-51.0","3TS1AR6UQR0GT6WLMW8C7EM2HEIF74","A2JI8LMB1EEQ4Z","335VBRURDJMQFRMOFGHOE9WKSHX9E1","","null","<img src=""img/land4.png"" style=""width:200px;border:14px solid red;"">","null","","","","","","","","","",""
"","image-keyboard-response","52","74706","0.0-52.0","3TS1AR6UQR0GT6WLMW8C7EM2HEIF74","A2JI8LMB1EEQ4Z","335VBRURDJMQFRMOFGHOE9WKSHX9E1","","675.1000003814697","img/land4.png","74","676.4000005722046","1","1","1","1","0.8,0.2,0.2,0.2,0.8,0.2,0.2,0.2,0.8","0.8,0.2,0.2,0.2,0.8,0.2,0.2,0.2,0.8","1","",""
"","html-keyboard-response","53","75013","0.0-53.0","3TS1AR6UQR0GT6WLMW8C7EM2HEIF74","A2JI8LMB1EEQ4Z","335VBRURDJMQFRMOFGHOE9WKSHX9E1","","null","<img src=""img/land4.png"" style=""width:200px; border:14px solid green;"">","null","","","","","","","","","",""
"","image-keyboard-response","54","75434","0.0-54.0","3TS1AR6UQR0GT6WLMW8C7EM2HEIF74","A2JI8LMB1EEQ4Z","335VBRURDJMQFRMOFGHOE9WKSHX9E1","","419.1000003814697","img/land4.png","74","420.4000005722046","1","1","1","1","0.8,0.2,0.2,0.2,0.8,0.2,0.2,0.2,0.8","0.8,0.2,0.2,0.2,0.8,0.2,0.2,0.2,0.8","1","",""
"","html-keyboard-response","55","75741","0.0-55.0","3TS1AR6UQR0GT6WLMW8C7EM2HEIF74","A2JI8LMB1EEQ4Z","335VBRURDJMQFRMOFGHOE9WKSHX9E1","","null","<img src=""img/land4.png"" style=""width:200px; border:14px solid green;"">","null","","","","","","","","","",""
"","image-keyboard-response","56","76746","0.0-56.0","3TS1AR6UQR0GT6WLMW8C7EM2HEIF74","A2JI8LMB1EEQ4Z","335VBRURDJMQFRMOFGHOE9WKSHX9E1","","1003.1000003814697","img/land3.png","75","1004.1999998092651","2","1","2","1","0.8,0.2,0.2,0.2,0.8,0.2,0.2,0.2,0.8","0.8,0.2,0.2,0.2,0.8,0.2,0.2,0.2,0.8","1","",""
"","html-keyboard-response","57","77053","0.0-57.0","3TS1AR6UQR0GT6WLMW8C7EM2HEIF74","A2JI8LMB1EEQ4Z","335VBRURDJMQFRMOFGHOE9WKSHX9E1","","null","<img src=""img/land3.png"" style=""width:200px; border:14px solid green;"">","null","","","","","","","","","",""
"","image-keyboard-response","58","77442","0.0-58.0","3TS1AR6UQR0GT6WLMW8C7EM2HEIF74","A2JI8LMB1EEQ4Z","335VBRURDJMQFRMOFGHOE9WKSHX9E1","","386.8999996185303","img/land3.png","75","388.0999994277954","2","1","2","1","0.8,0.2,0.2,0.2,0.8,0.2,0.2,0.2,0.8","0.8,0.2,0.2,0.2,0.8,0.2,0.2,0.2,0.8","1","",""
"","html-keyboard-response","59","77749","0.0-59.0","3TS1AR6UQR0GT6WLMW8C7EM2HEIF74","A2JI8LMB1EEQ4Z","335VBRURDJMQFRMOFGHOE9WKSHX9E1","","null","<img src=""img/land3.png"" style=""width:200px; border:14px solid green;"">","null","","","","","","","","","",""
"","image-keyboard-response","60","78114","0.0-60.0","3TS1AR6UQR0GT6WLMW8C7EM2HEIF74","A2JI8LMB1EEQ4Z","335VBRURDJMQFRMOFGHOE9WKSHX9E1","","363","img/land3.png","75","364.19999980926514","2","1","2","1","0.8,0.2,0.2,0.2,0.8,0.2,0.2,0.2,0.8","0.8,0.2,0.2,0.2,0.8,0.2,0.2,0.2,0.8","1","",""
"","html-keyboard-response","61","78421","0.0-61.0","3TS1AR6UQR0GT6WLMW8C7EM2HEIF74","A2JI8LMB1EEQ4Z","335VBRURDJMQFRMOFGHOE9WKSHX9E1","","null","<img src=""img/land3.png"" style=""width:200px; border:14px solid green;"">","null","","","","","","","","","",""
"","image-keyboard-response","62","79162","0.0-62.0","3TS1AR6UQR0GT6WLMW8C7EM2HEIF74","A2JI8LMB1EEQ4Z","335VBRURDJMQFRMOFGHOE9WKSHX9E1","","738.8999996185303","img/land4.png","76","740","3","0","1","1","0.8,0.2,0.2,0.2,0.8,0.2,0.2,0.2,0.8","0.8,0.2,0.2,0.2,0.8,0.2,0.2,0.2,0.8","1","",""
"","html-keyboard-response","63","79469","0.0-63.0","3TS1AR6UQR0GT6WLMW8C7EM2HEIF74","A2JI8LMB1EEQ4Z","335VBRURDJMQFRMOFGHOE9WKSHX9E1","","null","<img src=""img/land4.png"" style=""width:200px;border:14px solid red;"">","null","","","","","","","","","",""
"","image-keyboard-response","64","80434","0.0-64.0","3TS1AR6UQR0GT6WLMW8C7EM2HEIF74","A2JI8LMB1EEQ4Z","335VBRURDJMQFRMOFGHOE9WKSHX9E1","","962.7999992370605","img/land5.png","76","963.8999996185303","3","1","3","1","0.8,0.2,0.2,0.2,0.8,0.2,0.2,0.2,0.8","0.8,0.2,0.2,0.2,0.8,0.2,0.2,0.2,0.8","1","",""
"","html-keyboard-response","65","80740","0.0-65.0","3TS1AR6UQR0GT6WLMW8C7EM2HEIF74","A2JI8LMB1EEQ4Z","335VBRURDJMQFRMOFGHOE9WKSHX9E1","","null","<img src=""img/land5.png"" style=""width:200px; border:14px solid green;"">","null","","","","","","","","","",""
"","image-keyboard-response","66","81361","0.0-66.0","3TS1AR6UQR0GT6WLMW8C7EM2HEIF74","A2JI8LMB1EEQ4Z","335VBRURDJMQFRMOFGHOE9WKSHX9E1","","619.5999994277954","img/land4.png","74","620.6000003814697","1","1","1","1","0.8,0.2,0.2,0.2,0.8,0.2,0.2,0.2,0.8","0.8,0.2,0.2,0.2,0.8,0.2,0.2,0.2,0.8","1","",""
"","html-keyboard-response","67","81668","0.0-67.0","3TS1AR6UQR0GT6WLMW8C7EM2HEIF74","A2JI8LMB1EEQ4Z","335VBRURDJMQFRMOFGHOE9WKSHX9E1","","null","<img src=""img/land4.png"" style=""width:200px; border:14px solid green;"">","null","","","","","","","","","",""
"","image-keyboard-response","68","82074","0.0-68.0","3TS1AR6UQR0GT6WLMW8C7EM2HEIF74","A2JI8LMB1EEQ4Z","335VBRURDJMQFRMOFGHOE9WKSHX9E1","","403.69999980926514","img/land4.png","74","404.9000005722046","1","1","1","1","0.8,0.2,0.2,0.2,0.8,0.2,0.2,0.2,0.8","0.8,0.2,0.2,0.2,0.8,0.2,0.2,0.2,0.8","1","",""
"","html-keyboard-response","69","82380","0.0-69.0","3TS1AR6UQR0GT6WLMW8C7EM2HEIF74","A2JI8LMB1EEQ4Z","335VBRURDJMQFRMOFGHOE9WKSHX9E1","","null","<img src=""img/land4.png"" style=""width:200px; border:14px solid green;"">","null","","","","","","","","","",""
"","image-keyboard-response","70","82738","0.0-70.0","3TS1AR6UQR0GT6WLMW8C7EM2HEIF74","A2JI8LMB1EEQ4Z","335VBRURDJMQFRMOFGHOE9WKSHX9E1","","355.5","img/land4.png","74","356.80000019073486","1","0","1","1","0.8,0.2,0.2,0.2,0.8,0.2,0.2,0.2,0.8","0.8,0.2,0.2,0.2,0.8,0.2,0.2,0.2,0.8","1","",""
"","html-keyboard-response","71","83044","0.0-71.0","3TS1AR6UQR0GT6WLMW8C7EM2HEIF74","A2JI8LMB1EEQ4Z","335VBRURDJMQFRMOFGHOE9WKSHX9E1","","null","<img src=""img/land4.png"" style=""width:200px;border:14px solid red;"">","null","","","","","","","","","",""
"","image-keyboard-response","72","83786","0.0-72.0","3TS1AR6UQR0GT6WLMW8C7EM2HEIF74","A2JI8LMB1EEQ4Z","335VBRURDJMQFRMOFGHOE9WKSHX9E1","","740.2999992370605","img/land3.png","75","741.5","2","1","2","1","0.8,0.2,0.2,0.2,0.8,0.2,0.2,0.2,0.8","0.8,0.2,0.2,0.2,0.8,0.2,0.2,0.2,0.8","1","",""
"","html-keyboard-response","73","84092","0.0-73.0","3TS1AR6UQR0GT6WLMW8C7EM2HEIF74","A2JI8LMB1EEQ4Z","335VBRURDJMQFRMOFGHOE9WKSHX9E1","","null","<img src=""img/land3.png"" style=""width:200px; border:14px solid green;"">","null","","","","","","","","","",""
"","image-keyboard-response","74","84674","0.0-74.0","3TS1AR6UQR0GT6WLMW8C7EM2HEIF74","A2JI8LMB1EEQ4Z","335VBRURDJMQFRMOFGHOE9WKSHX9E1","","579.6000003814697","img/land4.png","74","580.5999994277954","1","0","1","1","0.8,0.2,0.2,0.2,0.8,0.2,0.2,0.2,0.8","0.8,0.2,0.2,0.2,0.8,0.2,0.2,0.2,0.8","1","",""
"","html-keyboard-response","75","84981","0.0-75.0","3TS1AR6UQR0GT6WLMW8C7EM2HEIF74","A2JI8LMB1EEQ4Z","335VBRURDJMQFRMOFGHOE9WKSHX9E1","","null","<img src=""img/land4.png"" style=""width:200px;border:14px solid red;"">","null","","","","","","","","","",""
"","image-keyboard-response","76","85386","0.0-76.0","3TS1AR6UQR0GT6WLMW8C7EM2HEIF74","A2JI8LMB1EEQ4Z","335VBRURDJMQFRMOFGHOE9WKSHX9E1","","402.9000005722046","img/land4.png","74","404.1000003814697","1","1","1","1","0.8,0.2,0.2,0.2,0.8,0.2,0.2,0.2,0.8","0.8,0.2,0.2,0.2,0.8,0.2,0.2,0.2,0.8","1","",""
"","html-keyboard-response","77","85692","0.0-77.0","3TS1AR6UQR0GT6WLMW8C7EM2HEIF74","A2JI8LMB1EEQ4Z","335VBRURDJMQFRMOFGHOE9WKSHX9E1","","null","<img src=""img/land4.png"" style=""width:200px; border:14px solid green;"">","null","","","","","","","","","",""
"","image-keyboard-response","78","86529","0.0-78.0","3TS1AR6UQR0GT6WLMW8C7EM2HEIF74","A2JI8LMB1EEQ4Z","335VBRURDJMQFRMOFGHOE9WKSHX9E1","","835.1999998092651","img/land5.png","76","836.1999998092651","3","1","3","1","0.8,0.2,0.2,0.2,0.8,0.2,0.2,0.2,0.8","0.8,0.2,0.2,0.2,0.8,0.2,0.2,0.2,0.8","1","",""
"","html-keyboard-response","79","86836","0.0-79.0","3TS1AR6UQR0GT6WLMW8C7EM2HEIF74","A2JI8LMB1EEQ4Z","335VBRURDJMQFRMOFGHOE9WKSHX9E1","","null","<img src=""img/land5.png"" style=""width:200px; border:14px solid green;"">","null","","","","","","","","","",""
"","image-keyboard-response","80","87577","0.0-80.0","3TS1AR6UQR0GT6WLMW8C7EM2HEIF74","A2JI8LMB1EEQ4Z","335VBRURDJMQFRMOFGHOE9WKSHX9E1","","739.2000007629395","img/land4.png","74","740.1000003814697","1","0","1","1","0.8,0.2,0.2,0.2,0.8,0.2,0.2,0.2,0.8","0.8,0.2,0.2,0.2,0.8,0.2,0.2,0.2,0.8","1","",""
"","html-keyboard-response","81","87884","0.0-81.0","3TS1AR6UQR0GT6WLMW8C7EM2HEIF74","A2JI8LMB1EEQ4Z","335VBRURDJMQFRMOFGHOE9WKSHX9E1","","null","<img src=""img/land4.png"" style=""width:200px;border:14px solid red;"">","null","","","","","","","","","",""
"","image-keyboard-response","82","88633","0.0-82.0","3TS1AR6UQR0GT6WLMW8C7EM2HEIF74","A2JI8LMB1EEQ4Z","335VBRURDJMQFRMOFGHOE9WKSHX9E1","","747.1000003814697","img/land5.png","76","748.1000003814697","3","0","3","1","0.8,0.2,0.2,0.2,0.8,0.2,0.2,0.2,0.8","0.8,0.2,0.2,0.2,0.8,0.2,0.2,0.2,0.8","1","",""
"","html-keyboard-response","83","88940","0.0-83.0","3TS1AR6UQR0GT6WLMW8C7EM2HEIF74","A2JI8LMB1EEQ4Z","335VBRURDJMQFRMOFGHOE9WKSHX9E1","","null","<img src=""img/land5.png"" style=""width:200px;border:14px solid red;"">","null","","","","","","","","","",""
"","image-keyboard-response","84","89578","0.0-84.0","3TS1AR6UQR0GT6WLMW8C7EM2HEIF74","A2JI8LMB1EEQ4Z","335VBRURDJMQFRMOFGHOE9WKSHX9E1","","636","img/land3.png","75","637.1999998092651","2","1","2","1","0.8,0.2,0.2,0.2,0.8,0.2,0.2,0.2,0.8","0.8,0.2,0.2,0.2,0.8,0.2,0.2,0.2,0.8","1","",""
"","html-keyboard-response","85","89885","0.0-85.0","3TS1AR6UQR0GT6WLMW8C7EM2HEIF74","A2JI8LMB1EEQ4Z","335VBRURDJMQFRMOFGHOE9WKSHX9E1","","null","<img src=""img/land3.png"" style=""width:200px; border:14px solid green;"">","null","","","","","","","","","",""
"","image-keyboard-response","86","90259","0.0-86.0","3TS1AR6UQR0GT6WLMW8C7EM2HEIF74","A2JI8LMB1EEQ4Z","335VBRURDJMQFRMOFGHOE9WKSHX9E1","","373.1000003814697","img/land3.png","75","374.0999994277954","2","1","2","1","0.8,0.2,0.2,0.2,0.8,0.2,0.2,0.2,0.8","0.8,0.2,0.2,0.2,0.8,0.2,0.2,0.2,0.8","1","",""
"","html-keyboard-response","87","90565","0.0-87.0","3TS1AR6UQR0GT6WLMW8C7EM2HEIF74","A2JI8LMB1EEQ4Z","335VBRURDJMQFRMOFGHOE9WKSHX9E1","","null","<img src=""img/land3.png"" style=""width:200px; border:14px solid green;"">","null","","","","","","","","","",""
"","image-keyboard-response","88","91209","0.0-88.0","3TS1AR6UQR0GT6WLMW8C7EM2HEIF74","A2JI8LMB1EEQ4Z","335VBRURDJMQFRMOFGHOE9WKSHX9E1","","643.1000003814697","img/land5.png","76","644.3000001907349","3","1","3","1","0.8,0.2,0.2,0.2,0.8,0.2,0.2,0.2,0.8","0.8,0.2,0.2,0.2,0.8,0.2,0.2,0.2,0.8","1","",""
"","html-keyboard-response","89","91517","0.0-89.0","3TS1AR6UQR0GT6WLMW8C7EM2HEIF74","A2JI8LMB1EEQ4Z","335VBRURDJMQFRMOFGHOE9WKSHX9E1","","null","<img src=""img/land5.png"" style=""width:200px; border:14px solid green;"">","null","","","","","","","","","",""
"","image-keyboard-response","90","92361","0.0-90.0","3TS1AR6UQR0GT6WLMW8C7EM2HEIF74","A2JI8LMB1EEQ4Z","335VBRURDJMQFRMOFGHOE9WKSHX9E1","","843","img/land3.png","75","843.8000001907349","2","1","2","1","0.8,0.2,0.2,0.2,0.8,0.2,0.2,0.2,0.8","0.8,0.2,0.2,0.2,0.8,0.2,0.2,0.2,0.8","1","",""
"","html-keyboard-response","91","92669","0.0-91.0","3TS1AR6UQR0GT6WLMW8C7EM2HEIF74","A2JI8LMB1EEQ4Z","335VBRURDJMQFRMOFGHOE9WKSHX9E1","","null","<img src=""img/land3.png"" style=""width:200px; border:14px solid green;"">","null","","","","","","","","","",""
"","image-keyboard-response","92","93569","0.0-92.0","3TS1AR6UQR0GT6WLMW8C7EM2HEIF74","A2JI8LMB1EEQ4Z","335VBRURDJMQFRMOFGHOE9WKSHX9E1","","898.8999996185303","img/land5.png","76","899.8000001907349","3","1","3","1","0.8,0.2,0.2,0.2,0.8,0.2,0.2,0.2,0.8","0.8,0.2,0.2,0.2,0.8,0.2,0.2,0.2,0.8","1","",""
"","html-keyboard-response","93","93877","0.0-93.0","3TS1AR6UQR0GT6WLMW8C7EM2HEIF74","A2JI8LMB1EEQ4Z","335VBRURDJMQFRMOFGHOE9WKSHX9E1","","null","<img src=""img/land5.png"" style=""width:200px; border:14px solid green;"">","null","","","","","","","","","",""
"","image-keyboard-response","94","94242","0.0-94.0","3TS1AR6UQR0GT6WLMW8C7EM2HEIF74","A2JI8LMB1EEQ4Z","335VBRURDJMQFRMOFGHOE9WKSHX9E1","","363.5","img/land5.png","76","364.3999996185303","3","1","3","1","0.8,0.2,0.2,0.2,0.8,0.2,0.2,0.2,0.8","0.8,0.2,0.2,0.2,0.8,0.2,0.2,0.2,0.8","1","",""
"","html-keyboard-response","95","94549","0.0-95.0","3TS1AR6UQR0GT6WLMW8C7EM2HEIF74","A2JI8LMB1EEQ4Z","335VBRURDJMQFRMOFGHOE9WKSHX9E1","","null","<img src=""img/land5.png"" style=""width:200px; border:14px solid green;"">","null","","","","","","","","","",""
"","image-keyboard-response","96","95185","0.0-96.0","3TS1AR6UQR0GT6WLMW8C7EM2HEIF74","A2JI8LMB1EEQ4Z","335VBRURDJMQFRMOFGHOE9WKSHX9E1","","634.9000005722046","img/land3.png","75","636.1000003814697","2","0","2","1","0.8,0.2,0.2,0.2,0.8,0.2,0.2,0.2,0.8","0.8,0.2,0.2,0.2,0.8,0.2,0.2,0.2,0.8","1","",""
"","html-keyboard-response","97","95493","0.0-97.0","3TS1AR6UQR0GT6WLMW8C7EM2HEIF74","A2JI8LMB1EEQ4Z","335VBRURDJMQFRMOFGHOE9WKSHX9E1","","null","<img src=""img/land3.png"" style=""width:200px;border:14px solid red;"">","null","","","","","","","","","",""
"","image-keyboard-response","98","95945","0.0-98.0","3TS1AR6UQR0GT6WLMW8C7EM2HEIF74","A2JI8LMB1EEQ4Z","335VBRURDJMQFRMOFGHOE9WKSHX9E1","","450.80000019073486","img/land3.png","75","452","2","0","2","1","0.8,0.2,0.2,0.2,0.8,0.2,0.2,0.2,0.8","0.8,0.2,0.2,0.2,0.8,0.2,0.2,0.2,0.8","1","",""
"","html-keyboard-response","99","96253","0.0-99.0","3TS1AR6UQR0GT6WLMW8C7EM2HEIF74","A2JI8LMB1EEQ4Z","335VBRURDJMQFRMOFGHOE9WKSHX9E1","","null","<img src=""img/land3.png"" style=""width:200px;border:14px solid red;"">","null","","","","","","","","","",""
"","image-keyboard-response","100","96905","0.0-100.0","3TS1AR6UQR0GT6WLMW8C7EM2HEIF74","A2JI8LMB1EEQ4Z","335VBRURDJMQFRMOFGHOE9WKSHX9E1","","650.5","img/land4.png","74","651.6000003814697","1","1","1","1","0.8,0.2,0.2,0.2,0.8,0.2,0.2,0.2,0.8","0.8,0.2,0.2,0.2,0.8,0.2,0.2,0.2,0.8","1","",""
"","html-keyboard-response","101","97213","0.0-101.0","3TS1AR6UQR0GT6WLMW8C7EM2HEIF74","A2JI8LMB1EEQ4Z","335VBRURDJMQFRMOFGHOE9WKSHX9E1","","null","<img src=""img/land4.png"" style=""width:200px; border:14px solid green;"">","null","","","","","","","","","",""
"","image-keyboard-response","102","97529","0.0-102.0","3TS1AR6UQR0GT6WLMW8C7EM2HEIF74","A2JI8LMB1EEQ4Z","335VBRURDJMQFRMOFGHOE9WKSHX9E1","","314.5999994277954","img/land4.png","74","315.5999994277954","1","1","1","1","0.8,0.2,0.2,0.2,0.8,0.2,0.2,0.2,0.8","0.8,0.2,0.2,0.2,0.8,0.2,0.2,0.2,0.8","1","",""
"","html-keyboard-response","103","97837","0.0-103.0","3TS1AR6UQR0GT6WLMW8C7EM2HEIF74","A2JI8LMB1EEQ4Z","335VBRURDJMQFRMOFGHOE9WKSHX9E1","","null","<img src=""img/land4.png"" style=""width:200px; border:14px solid green;"">","null","","","","","","","","","",""
"","image-keyboard-response","104","98177","0.0-104.0","3TS1AR6UQR0GT6WLMW8C7EM2HEIF74","A2JI8LMB1EEQ4Z","335VBRURDJMQFRMOFGHOE9WKSHX9E1","","338.19999980926514","img/land4.png","74","339.20000076293945","1","0","1","1","0.8,0.2,0.2,0.2,0.8,0.2,0.2,0.2,0.8","0.8,0.2,0.2,0.2,0.8,0.2,0.2,0.2,0.8","1","",""
"","html-keyboard-response","105","98485","0.0-105.0","3TS1AR6UQR0GT6WLMW8C7EM2HEIF74","A2JI8LMB1EEQ4Z","335VBRURDJMQFRMOFGHOE9WKSHX9E1","","null","<img src=""img/land4.png"" style=""width:200px;border:14px solid red;"">","null","","","","","","","","","",""
"","image-keyboard-response","106","99225","0.0-106.0","3TS1AR6UQR0GT6WLMW8C7EM2HEIF74","A2JI8LMB1EEQ4Z","335VBRURDJMQFRMOFGHOE9WKSHX9E1","","738.5","img/land5.png","76","739.3000001907349","3","1","3","1","0.8,0.2,0.2,0.2,0.8,0.2,0.2,0.2,0.8","0.8,0.2,0.2,0.2,0.8,0.2,0.2,0.2,0.8","1","",""
"","html-keyboard-response","107","99533","0.0-107.0","3TS1AR6UQR0GT6WLMW8C7EM2HEIF74","A2JI8LMB1EEQ4Z","335VBRURDJMQFRMOFGHOE9WKSHX9E1","","null","<img src=""img/land5.png"" style=""width:200px; border:14px solid green;"">","null","","","","","","","","","",""
"","image-keyboard-response","108","99913","0.0-108.0","3TS1AR6UQR0GT6WLMW8C7EM2HEIF74","A2JI8LMB1EEQ4Z","335VBRURDJMQFRMOFGHOE9WKSHX9E1","","378.30000019073486","img/land5.png","76","379.30000019073486","3","1","3","1","0.8,0.2,0.2,0.2,0.8,0.2,0.2,0.2,0.8","0.8,0.2,0.2,0.2,0.8,0.2,0.2,0.2,0.8","1","",""
"","html-keyboard-response","109","100221","0.0-109.0","3TS1AR6UQR0GT6WLMW8C7EM2HEIF74","A2JI8LMB1EEQ4Z","335VBRURDJMQFRMOFGHOE9WKSHX9E1","","null","<img src=""img/land5.png"" style=""width:200px; border:14px solid green;"">","null","","","","","","","","","",""
"","image-keyboard-response","110","100593","0.0-110.0","3TS1AR6UQR0GT6WLMW8C7EM2HEIF74","A2JI8LMB1EEQ4Z","335VBRURDJMQFRMOFGHOE9WKSHX9E1","","370.19999980926514","img/land5.png","76","371.19999980926514","3","1","3","1","0.8,0.2,0.2,0.2,0.8,0.2,0.2,0.2,0.8","0.8,0.2,0.2,0.2,0.8,0.2,0.2,0.2,0.8","1","",""
"","html-keyboard-response","111","100901","0.0-111.0","3TS1AR6UQR0GT6WLMW8C7EM2HEIF74","A2JI8LMB1EEQ4Z","335VBRURDJMQFRMOFGHOE9WKSHX9E1","","null","<img src=""img/land5.png"" style=""width:200px; border:14px solid green;"">","null","","","","","","","","","",""
"","image-keyboard-response","112","101513","0.0-112.0","3TS1AR6UQR0GT6WLMW8C7EM2HEIF74","A2JI8LMB1EEQ4Z","335VBRURDJMQFRMOFGHOE9WKSHX9E1","","610.1000003814697","img/land3.png","75","611.1000003814697","2","1","2","1","0.8,0.2,0.2,0.2,0.8,0.2,0.2,0.2,0.8","0.8,0.2,0.2,0.2,0.8,0.2,0.2,0.2,0.8","1","",""
"","html-keyboard-response","113","101821","0.0-113.0","3TS1AR6UQR0GT6WLMW8C7EM2HEIF74","A2JI8LMB1EEQ4Z","335VBRURDJMQFRMOFGHOE9WKSHX9E1","","null","<img src=""img/land3.png"" style=""width:200px; border:14px solid green;"">","null","","","","","","","","","",""
"","image-keyboard-response","114","102457","0.0-114.0","3TS1AR6UQR0GT6WLMW8C7EM2HEIF74","A2JI8LMB1EEQ4Z","335VBRURDJMQFRMOFGHOE9WKSHX9E1","","634.0999994277954","img/land5.png","76","635.1999998092651","3","0","3","1","0.8,0.2,0.2,0.2,0.8,0.2,0.2,0.2,0.8","0.8,0.2,0.2,0.2,0.8,0.2,0.2,0.2,0.8","1","",""
"","html-keyboard-response","115","102765","0.0-115.0","3TS1AR6UQR0GT6WLMW8C7EM2HEIF74","A2JI8LMB1EEQ4Z","335VBRURDJMQFRMOFGHOE9WKSHX9E1","","null","<img src=""img/land5.png"" style=""width:200px;border:14px solid red;"">","null","","","","","","","","","",""
"","image-keyboard-response","116","103201","0.0-116.0","3TS1AR6UQR0GT6WLMW8C7EM2HEIF74","A2JI8LMB1EEQ4Z","335VBRURDJMQFRMOFGHOE9WKSHX9E1","","434","img/land5.png","76","435","3","1","3","1","0.8,0.2,0.2,0.2,0.8,0.2,0.2,0.2,0.8","0.8,0.2,0.2,0.2,0.8,0.2,0.2,0.2,0.8","1","",""
"","html-keyboard-response","117","103509","0.0-117.0","3TS1AR6UQR0GT6WLMW8C7EM2HEIF74","A2JI8LMB1EEQ4Z","335VBRURDJMQFRMOFGHOE9WKSHX9E1","","null","<img src=""img/land5.png"" style=""width:200px; border:14px solid green;"">","null","","","","","","","","","",""
"","image-keyboard-response","118","104178","0.0-118.0","3TS1AR6UQR0GT6WLMW8C7EM2HEIF74","A2JI8LMB1EEQ4Z","335VBRURDJMQFRMOFGHOE9WKSHX9E1","","667","img/land3.png","75","667.8000001907349","2","1","2","1","0.8,0.2,0.2,0.2,0.8,0.2,0.2,0.2,0.8","0.8,0.2,0.2,0.2,0.8,0.2,0.2,0.2,0.8","1","",""
"","html-keyboard-response","119","104484","0.0-119.0","3TS1AR6UQR0GT6WLMW8C7EM2HEIF74","A2JI8LMB1EEQ4Z","335VBRURDJMQFRMOFGHOE9WKSHX9E1","","null","<img src=""img/land3.png"" style=""width:200px; border:14px solid green;"">","null","","","","","","","","","",""
"","image-keyboard-response","120","105442","0.0-120.0","3TS1AR6UQR0GT6WLMW8C7EM2HEIF74","A2JI8LMB1EEQ4Z","335VBRURDJMQFRMOFGHOE9WKSHX9E1","","955.9000005722046","img/land5.png","76","956.8999996185303","3","1","3","1","0.8,0.2,0.2,0.2,0.8,0.2,0.2,0.2,0.8","0.8,0.2,0.2,0.2,0.8,0.2,0.2,0.2,0.8","1","",""
"","html-keyboard-response","121","105748","0.0-121.0","3TS1AR6UQR0GT6WLMW8C7EM2HEIF74","A2JI8LMB1EEQ4Z","335VBRURDJMQFRMOFGHOE9WKSHX9E1","","null","<img src=""img/land5.png"" style=""width:200px; border:14px solid green;"">","null","","","","","","","","","",""
"","image-keyboard-response","122","106105","0.0-122.0","3TS1AR6UQR0GT6WLMW8C7EM2HEIF74","A2JI8LMB1EEQ4Z","335VBRURDJMQFRMOFGHOE9WKSHX9E1","","355","img/land5.png","76","356","3","1","3","1","0.8,0.2,0.2,0.2,0.8,0.2,0.2,0.2,0.8","0.8,0.2,0.2,0.2,0.8,0.2,0.2,0.2,0.8","1","",""
"","html-keyboard-response","123","106412","0.0-123.0","3TS1AR6UQR0GT6WLMW8C7EM2HEIF74","A2JI8LMB1EEQ4Z","335VBRURDJMQFRMOFGHOE9WKSHX9E1","","null","<img src=""img/land5.png"" style=""width:200px; border:14px solid green;"">","null","","","","","","","","","",""
"","image-keyboard-response","124","106825","0.0-124.0","3TS1AR6UQR0GT6WLMW8C7EM2HEIF74","A2JI8LMB1EEQ4Z","335VBRURDJMQFRMOFGHOE9WKSHX9E1","","411","img/land5.png","76","411.8999996185303","3","1","3","1","0.8,0.2,0.2,0.2,0.8,0.2,0.2,0.2,0.8","0.8,0.2,0.2,0.2,0.8,0.2,0.2,0.2,0.8","1","",""
"","html-keyboard-response","125","107132","0.0-125.0","3TS1AR6UQR0GT6WLMW8C7EM2HEIF74","A2JI8LMB1EEQ4Z","335VBRURDJMQFRMOFGHOE9WKSHX9E1","","null","<img src=""img/land5.png"" style=""width:200px; border:14px solid green;"">","null","","","","","","","","","",""
"","image-keyboard-response","126","107521","0.0-126.0","3TS1AR6UQR0GT6WLMW8C7EM2HEIF74","A2JI8LMB1EEQ4Z","335VBRURDJMQFRMOFGHOE9WKSHX9E1","","386.8999996185303","img/land5.png","76","387.8999996185303","3","1","3","1","0.8,0.2,0.2,0.2,0.8,0.2,0.2,0.2,0.8","0.8,0.2,0.2,0.2,0.8,0.2,0.2,0.2,0.8","1","",""
"","html-keyboard-response","127","107828","0.0-127.0","3TS1AR6UQR0GT6WLMW8C7EM2HEIF74","A2JI8LMB1EEQ4Z","335VBRURDJMQFRMOFGHOE9WKSHX9E1","","null","<img src=""img/land5.png"" style=""width:200px; border:14px solid green;"">","null","","","","","","","","","",""
"","image-keyboard-response","128","108497","0.0-128.0","3TS1AR6UQR0GT6WLMW8C7EM2HEIF74","A2JI8LMB1EEQ4Z","335VBRURDJMQFRMOFGHOE9WKSHX9E1","","667","img/land3.png","75","667.7999992370605","2","0","2","1","0.8,0.2,0.2,0.2,0.8,0.2,0.2,0.2,0.8","0.8,0.2,0.2,0.2,0.8,0.2,0.2,0.2,0.8","1","",""
"","html-keyboard-response","129","108804","0.0-129.0","3TS1AR6UQR0GT6WLMW8C7EM2HEIF74","A2JI8LMB1EEQ4Z","335VBRURDJMQFRMOFGHOE9WKSHX9E1","","null","<img src=""img/land3.png"" style=""width:200px;border:14px solid red;"">","null","","","","","","","","","",""
"","image-keyboard-response","130","109482","0.0-130.0","3TS1AR6UQR0GT6WLMW8C7EM2HEIF74","A2JI8LMB1EEQ4Z","335VBRURDJMQFRMOFGHOE9WKSHX9E1","","675.3999996185303","img/land5.png","76","676.5999994277954","3","0","3","1","0.8,0.2,0.2,0.2,0.8,0.2,0.2,0.2,0.8","0.8,0.2,0.2,0.2,0.8,0.2,0.2,0.2,0.8","1","",""
"","html-keyboard-response","131","109788","0.0-131.0","3TS1AR6UQR0GT6WLMW8C7EM2HEIF74","A2JI8LMB1EEQ4Z","335VBRURDJMQFRMOFGHOE9WKSHX9E1","","null","<img src=""img/land5.png"" style=""width:200px;border:14px solid red;"">","null","","","","","","","","","",""
"","image-keyboard-response","132","110505","0.0-132.0","3TS1AR6UQR0GT6WLMW8C7EM2HEIF74","A2JI8LMB1EEQ4Z","335VBRURDJMQFRMOFGHOE9WKSHX9E1","","714.7000007629395","img/land4.png","74","715.6999998092651","1","1","1","1","0.8,0.2,0.2,0.2,0.8,0.2,0.2,0.2,0.8","0.8,0.2,0.2,0.2,0.8,0.2,0.2,0.2,0.8","1","",""
"","html-keyboard-response","133","110812","0.0-133.0","3TS1AR6UQR0GT6WLMW8C7EM2HEIF74","A2JI8LMB1EEQ4Z","335VBRURDJMQFRMOFGHOE9WKSHX9E1","","null","<img src=""img/land4.png"" style=""width:200px; border:14px solid green;"">","null","","","","","","","","","",""
"","image-keyboard-response","134","111161","0.0-134.0","3TS1AR6UQR0GT6WLMW8C7EM2HEIF74","A2JI8LMB1EEQ4Z","335VBRURDJMQFRMOFGHOE9WKSHX9E1","","346.80000019073486","img/land4.png","74","347.9000005722046","1","1","1","1","0.8,0.2,0.2,0.2,0.8,0.2,0.2,0.2,0.8","0.8,0.2,0.2,0.2,0.8,0.2,0.2,0.2,0.8","1","",""
"","html-keyboard-response","135","111468","0.0-135.0","3TS1AR6UQR0GT6WLMW8C7EM2HEIF74","A2JI8LMB1EEQ4Z","335VBRURDJMQFRMOFGHOE9WKSHX9E1","","null","<img src=""img/land4.png"" style=""width:200px; border:14px solid green;"">","null","","","","","","","","","",""
"","image-keyboard-response","136","111849","0.0-136.0","3TS1AR6UQR0GT6WLMW8C7EM2HEIF74","A2JI8LMB1EEQ4Z","335VBRURDJMQFRMOFGHOE9WKSHX9E1","","378.70000076293945","img/land4.png","74","379.5","1","1","1","1","0.8,0.2,0.2,0.2,0.8,0.2,0.2,0.2,0.8","0.8,0.2,0.2,0.2,0.8,0.2,0.2,0.2,0.8","1","",""
"","html-keyboard-response","137","112156","0.0-137.0","3TS1AR6UQR0GT6WLMW8C7EM2HEIF74","A2JI8LMB1EEQ4Z","335VBRURDJMQFRMOFGHOE9WKSHX9E1","","null","<img src=""img/land4.png"" style=""width:200px; border:14px solid green;"">","null","","","","","","","","","",""
"","image-keyboard-response","138","112713","0.0-138.0","3TS1AR6UQR0GT6WLMW8C7EM2HEIF74","A2JI8LMB1EEQ4Z","335VBRURDJMQFRMOFGHOE9WKSHX9E1","","554.7000007629395","img/land3.png","75","556","2","1","2","1","0.8,0.2,0.2,0.2,0.8,0.2,0.2,0.2,0.8","0.8,0.2,0.2,0.2,0.8,0.2,0.2,0.2,0.8","1","",""
"","html-keyboard-response","139","113021","0.0-139.0","3TS1AR6UQR0GT6WLMW8C7EM2HEIF74","A2JI8LMB1EEQ4Z","335VBRURDJMQFRMOFGHOE9WKSHX9E1","","null","<img src=""img/land3.png"" style=""width:200px; border:14px solid green;"">","null","","","","","","","","","",""
"","image-keyboard-response","140","113665","0.0-140.0","3TS1AR6UQR0GT6WLMW8C7EM2HEIF74","A2JI8LMB1EEQ4Z","335VBRURDJMQFRMOFGHOE9WKSHX9E1","","642.6000003814697","img/land5.png","76","643.5","3","1","3","1","0.8,0.2,0.2,0.2,0.8,0.2,0.2,0.2,0.8","0.8,0.2,0.2,0.2,0.8,0.2,0.2,0.2,0.8","1","",""
"","html-keyboard-response","141","113973","0.0-141.0","3TS1AR6UQR0GT6WLMW8C7EM2HEIF74","A2JI8LMB1EEQ4Z","335VBRURDJMQFRMOFGHOE9WKSHX9E1","","null","<img src=""img/land5.png"" style=""width:200px; border:14px solid green;"">","null","","","","","","","","","",""
"","image-keyboard-response","142","115225","0.0-142.0","3TS1AR6UQR0GT6WLMW8C7EM2HEIF74","A2JI8LMB1EEQ4Z","335VBRURDJMQFRMOFGHOE9WKSHX9E1","","1250.3999996185303","img/land4.png","74","1251.3000001907349","1","0","1","1","0.8,0.2,0.2,0.2,0.8,0.2,0.2,0.2,0.8","0.8,0.2,0.2,0.2,0.8,0.2,0.2,0.2,0.8","1","",""
"","html-keyboard-response","143","115533","0.0-143.0","3TS1AR6UQR0GT6WLMW8C7EM2HEIF74","A2JI8LMB1EEQ4Z","335VBRURDJMQFRMOFGHOE9WKSHX9E1","","null","<img src=""img/land4.png"" style=""width:200px;border:14px solid red;"">","null","","","","","","","","","",""
"","image-keyboard-response","144","116297","0.0-144.0","3TS1AR6UQR0GT6WLMW8C7EM2HEIF74","A2JI8LMB1EEQ4Z","335VBRURDJMQFRMOFGHOE9WKSHX9E1","","763.0999994277954","img/land3.png","75","764","2","1","2","1","0.8,0.2,0.2,0.2,0.8,0.2,0.2,0.2,0.8","0.8,0.2,0.2,0.2,0.8,0.2,0.2,0.2,0.8","1","",""
"","html-keyboard-response","145","116605","0.0-145.0","3TS1AR6UQR0GT6WLMW8C7EM2HEIF74","A2JI8LMB1EEQ4Z","335VBRURDJMQFRMOFGHOE9WKSHX9E1","","null","<img src=""img/land3.png"" style=""width:200px; border:14px solid green;"">","null","","","","","","","","","",""
"","image-keyboard-response","146","117128","0.0-146.0","3TS1AR6UQR0GT6WLMW8C7EM2HEIF74","A2JI8LMB1EEQ4Z","335VBRURDJMQFRMOFGHOE9WKSHX9E1","","522.3999996185303","img/land4.png","74","523.1999998092651","1","1","1","1","0.8,0.2,0.2,0.2,0.8,0.2,0.2,0.2,0.8","0.8,0.2,0.2,0.2,0.8,0.2,0.2,0.2,0.8","1","",""
"","html-keyboard-response","147","117437","0.0-147.0","3TS1AR6UQR0GT6WLMW8C7EM2HEIF74","A2JI8LMB1EEQ4Z","335VBRURDJMQFRMOFGHOE9WKSHX9E1","","null","<img src=""img/land4.png"" style=""width:200px; border:14px solid green;"">","null","","","","","","","","","",""
"","image-keyboard-response","148","118032","0.0-148.0","3TS1AR6UQR0GT6WLMW8C7EM2HEIF74","A2JI8LMB1EEQ4Z","335VBRURDJMQFRMOFGHOE9WKSHX9E1","","594.3000001907349","img/land5.png","76","595","3","1","3","1","0.8,0.2,0.2,0.2,0.8,0.2,0.2,0.2,0.8","0.8,0.2,0.2,0.2,0.8,0.2,0.2,0.2,0.8","1","",""
"","html-keyboard-response","149","118341","0.0-149.0","3TS1AR6UQR0GT6WLMW8C7EM2HEIF74","A2JI8LMB1EEQ4Z","335VBRURDJMQFRMOFGHOE9WKSHX9E1","","null","<img src=""img/land5.png"" style=""width:200px; border:14px solid green;"">","null","","","","","","","","","",""
"","image-keyboard-response","150","118888","0.0-150.0","3TS1AR6UQR0GT6WLMW8C7EM2HEIF74","A2JI8LMB1EEQ4Z","335VBRURDJMQFRMOFGHOE9WKSHX9E1","","546.1999998092651","img/land3.png","75","547.1000003814697","2","1","2","1","0.8,0.2,0.2,0.2,0.8,0.2,0.2,0.2,0.8","0.8,0.2,0.2,0.2,0.8,0.2,0.2,0.2,0.8","1","",""
"","html-keyboard-response","151","119198","0.0-151.0","3TS1AR6UQR0GT6WLMW8C7EM2HEIF74","A2JI8LMB1EEQ4Z","335VBRURDJMQFRMOFGHOE9WKSHX9E1","","null","<img src=""img/land3.png"" style=""width:200px; border:14px solid green;"">","null","","","","","","","","","",""
"","image-keyboard-response","152","119601","0.0-152.0","3TS1AR6UQR0GT6WLMW8C7EM2HEIF74","A2JI8LMB1EEQ4Z","335VBRURDJMQFRMOFGHOE9WKSHX9E1","","402.0999994277954","img/land3.png","75","403","2","1","2","1","0.8,0.2,0.2,0.2,0.8,0.2,0.2,0.2,0.8","0.8,0.2,0.2,0.2,0.8,0.2,0.2,0.2,0.8","1","",""
"","html-keyboard-response","153","119910","0.0-153.0","3TS1AR6UQR0GT6WLMW8C7EM2HEIF74","A2JI8LMB1EEQ4Z","335VBRURDJMQFRMOFGHOE9WKSHX9E1","","null","<img src=""img/land3.png"" style=""width:200px; border:14px solid green;"">","null","","","","","","","","","",""
"","image-keyboard-response","154","120609","0.0-154.0","3TS1AR6UQR0GT6WLMW8C7EM2HEIF74","A2JI8LMB1EEQ4Z","335VBRURDJMQFRMOFGHOE9WKSHX9E1","","698","img/land4.png","74","698.9000005722046","1","1","1","1","0.8,0.2,0.2,0.2,0.8,0.2,0.2,0.2,0.8","0.8,0.2,0.2,0.2,0.8,0.2,0.2,0.2,0.8","1","",""
"","html-keyboard-response","155","120918","0.0-155.0","3TS1AR6UQR0GT6WLMW8C7EM2HEIF74","A2JI8LMB1EEQ4Z","335VBRURDJMQFRMOFGHOE9WKSHX9E1","","null","<img src=""img/land4.png"" style=""width:200px; border:14px solid green;"">","null","","","","","","","","","",""
"","image-keyboard-response","156","121265","0.0-156.0","3TS1AR6UQR0GT6WLMW8C7EM2HEIF74","A2JI8LMB1EEQ4Z","335VBRURDJMQFRMOFGHOE9WKSHX9E1","","346.0999994277954","img/land4.png","74","346.9000005722046","1","1","1","1","0.8,0.2,0.2,0.2,0.8,0.2,0.2,0.2,0.8","0.8,0.2,0.2,0.2,0.8,0.2,0.2,0.2,0.8","1","",""
"","html-keyboard-response","157","121574","0.0-157.0","3TS1AR6UQR0GT6WLMW8C7EM2HEIF74","A2JI8LMB1EEQ4Z","335VBRURDJMQFRMOFGHOE9WKSHX9E1","","null","<img src=""img/land4.png"" style=""width:200px; border:14px solid green;"">","null","","","","","","","","","",""
"","image-keyboard-response","158","122185","0.0-158.0","3TS1AR6UQR0GT6WLMW8C7EM2HEIF74","A2JI8LMB1EEQ4Z","335VBRURDJMQFRMOFGHOE9WKSHX9E1","","610","img/land3.png","75","610.9000005722046","2","1","2","1","0.8,0.2,0.2,0.2,0.8,0.2,0.2,0.2,0.8","0.8,0.2,0.2,0.2,0.8,0.2,0.2,0.2,0.8","1","",""
"","html-keyboard-response","159","122494","0.0-159.0","3TS1AR6UQR0GT6WLMW8C7EM2HEIF74","A2JI8LMB1EEQ4Z","335VBRURDJMQFRMOFGHOE9WKSHX9E1","","null","<img src=""img/land3.png"" style=""width:200px; border:14px solid green;"">","null","","","","","","","","","",""
"","image-keyboard-response","160","122841","0.0-160.0","3TS1AR6UQR0GT6WLMW8C7EM2HEIF74","A2JI8LMB1EEQ4Z","335VBRURDJMQFRMOFGHOE9WKSHX9E1","","345.9000005722046","img/land3.png","75","346.9000005722046","2","1","2","1","0.8,0.2,0.2,0.2,0.8,0.2,0.2,0.2,0.8","0.8,0.2,0.2,0.2,0.8,0.2,0.2,0.2,0.8","1","",""
"","html-keyboard-response","161","123150","0.0-161.0","3TS1AR6UQR0GT6WLMW8C7EM2HEIF74","A2JI8LMB1EEQ4Z","335VBRURDJMQFRMOFGHOE9WKSHX9E1","","null","<img src=""img/land3.png"" style=""width:200px; border:14px solid green;"">","null","","","","","","","","","",""
"","image-keyboard-response","162","123513","0.0-162.0","3TS1AR6UQR0GT6WLMW8C7EM2HEIF74","A2JI8LMB1EEQ4Z","335VBRURDJMQFRMOFGHOE9WKSHX9E1","","361.80000019073486","img/land3.png","75","362.69999980926514","2","1","2","1","0.8,0.2,0.2,0.2,0.8,0.2,0.2,0.2,0.8","0.8,0.2,0.2,0.2,0.8,0.2,0.2,0.2,0.8","1","",""
"","html-keyboard-response","163","123822","0.0-163.0","3TS1AR6UQR0GT6WLMW8C7EM2HEIF74","A2JI8LMB1EEQ4Z","335VBRURDJMQFRMOFGHOE9WKSHX9E1","","null","<img src=""img/land3.png"" style=""width:200px; border:14px solid green;"">","null","","","","","","","","","",""
"","image-keyboard-response","164","124433","0.0-164.0","3TS1AR6UQR0GT6WLMW8C7EM2HEIF74","A2JI8LMB1EEQ4Z","335VBRURDJMQFRMOFGHOE9WKSHX9E1","","609.8000001907349","img/land5.png","76","610.8000001907349","3","0","3","1","0.8,0.2,0.2,0.2,0.8,0.2,0.2,0.2,0.8","0.8,0.2,0.2,0.2,0.8,0.2,0.2,0.2,0.8","1","",""
"","html-keyboard-response","165","124742","0.0-165.0","3TS1AR6UQR0GT6WLMW8C7EM2HEIF74","A2JI8LMB1EEQ4Z","335VBRURDJMQFRMOFGHOE9WKSHX9E1","","null","<img src=""img/land5.png"" style=""width:200px;border:14px solid red;"">","null","","","","","","","","","",""
"","image-keyboard-response","166","125145","0.0-166.0","3TS1AR6UQR0GT6WLMW8C7EM2HEIF74","A2JI8LMB1EEQ4Z","335VBRURDJMQFRMOFGHOE9WKSHX9E1","","401.9000005722046","img/land5.png","76","402.69999980926514","3","0","3","1","0.8,0.2,0.2,0.2,0.8,0.2,0.2,0.2,0.8","0.8,0.2,0.2,0.2,0.8,0.2,0.2,0.2,0.8","1","",""
"","html-keyboard-response","167","125454","0.0-167.0","3TS1AR6UQR0GT6WLMW8C7EM2HEIF74","A2JI8LMB1EEQ4Z","335VBRURDJMQFRMOFGHOE9WKSHX9E1","","null","<img src=""img/land5.png"" style=""width:200px;border:14px solid red;"">","null","","","","","","","","","",""
"","image-keyboard-response","168","126097","0.0-168.0","3TS1AR6UQR0GT6WLMW8C7EM2HEIF74","A2JI8LMB1EEQ4Z","335VBRURDJMQFRMOFGHOE9WKSHX9E1","","641.8000001907349","img/land3.png","75","642.6000003814697","2","1","2","1","0.8,0.2,0.2,0.2,0.8,0.2,0.2,0.2,0.8","0.8,0.2,0.2,0.2,0.8,0.2,0.2,0.2,0.8","1","",""
"","html-keyboard-response","169","126406","0.0-169.0","3TS1AR6UQR0GT6WLMW8C7EM2HEIF74","A2JI8LMB1EEQ4Z","335VBRURDJMQFRMOFGHOE9WKSHX9E1","","null","<img src=""img/land3.png"" style=""width:200px; border:14px solid green;"">","null","","","","","","","","","",""
"","image-keyboard-response","170","127042","0.0-170.0","3TS1AR6UQR0GT6WLMW8C7EM2HEIF74","A2JI8LMB1EEQ4Z","335VBRURDJMQFRMOFGHOE9WKSHX9E1","","634.5","img/land5.png","76","635.4000005722046","3","1","3","1","0.8,0.2,0.2,0.2,0.8,0.2,0.2,0.2,0.8","0.8,0.2,0.2,0.2,0.8,0.2,0.2,0.2,0.8","1","",""
"","html-keyboard-response","171","127350","0.0-171.0","3TS1AR6UQR0GT6WLMW8C7EM2HEIF74","A2JI8LMB1EEQ4Z","335VBRURDJMQFRMOFGHOE9WKSHX9E1","","null","<img src=""img/land5.png"" style=""width:200px; border:14px solid green;"">","null","","","","","","","","","",""
"","image-keyboard-response","172","127873","0.0-172.0","3TS1AR6UQR0GT6WLMW8C7EM2HEIF74","A2JI8LMB1EEQ4Z","335VBRURDJMQFRMOFGHOE9WKSHX9E1","","521.5999994277954","img/land3.png","75","522.6000003814697","2","0","2","1","0.8,0.2,0.2,0.2,0.8,0.2,0.2,0.2,0.8","0.8,0.2,0.2,0.2,0.8,0.2,0.2,0.2,0.8","1","",""
"","html-keyboard-response","173","128181","0.0-173.0","3TS1AR6UQR0GT6WLMW8C7EM2HEIF74","A2JI8LMB1EEQ4Z","335VBRURDJMQFRMOFGHOE9WKSHX9E1","","null","<img src=""img/land3.png"" style=""width:200px;border:14px solid red;"">","null","","","","","","","","","",""
"","image-keyboard-response","174","128769","0.0-174.0","3TS1AR6UQR0GT6WLMW8C7EM2HEIF74","A2JI8LMB1EEQ4Z","335VBRURDJMQFRMOFGHOE9WKSHX9E1","","586.5999994277954","img/land5.png","76","587.5","3","1","3","1","0.8,0.2,0.2,0.2,0.8,0.2,0.2,0.2,0.8","0.8,0.2,0.2,0.2,0.8,0.2,0.2,0.2,0.8","1","",""
"","html-keyboard-response","175","129077","0.0-175.0","3TS1AR6UQR0GT6WLMW8C7EM2HEIF74","A2JI8LMB1EEQ4Z","335VBRURDJMQFRMOFGHOE9WKSHX9E1","","null","<img src=""img/land5.png"" style=""width:200px; border:14px solid green;"">","null","","","","","","","","","",""
"","image-keyboard-response","176","129681","0.0-176.0","3TS1AR6UQR0GT6WLMW8C7EM2HEIF74","A2JI8LMB1EEQ4Z","335VBRURDJMQFRMOFGHOE9WKSHX9E1","","602.4000005722046","img/land4.png","74","603.5","1","1","1","1","0.8,0.2,0.2,0.2,0.8,0.2,0.2,0.2,0.8","0.8,0.2,0.2,0.2,0.8,0.2,0.2,0.2,0.8","1","",""
"","html-keyboard-response","177","129989","0.0-177.0","3TS1AR6UQR0GT6WLMW8C7EM2HEIF74","A2JI8LMB1EEQ4Z","335VBRURDJMQFRMOFGHOE9WKSHX9E1","","null","<img src=""img/land4.png"" style=""width:200px; border:14px solid green;"">","null","","","","","","","","","",""
"","image-keyboard-response","178","130537","0.0-178.0","3TS1AR6UQR0GT6WLMW8C7EM2HEIF74","A2JI8LMB1EEQ4Z","335VBRURDJMQFRMOFGHOE9WKSHX9E1","","546.3000001907349","img/land3.png","75","547.2999992370605","2","1","2","1","0.8,0.2,0.2,0.2,0.8,0.2,0.2,0.2,0.8","0.8,0.2,0.2,0.2,0.8,0.2,0.2,0.2,0.8","1","",""
"","html-keyboard-response","179","130845","0.0-179.0","3TS1AR6UQR0GT6WLMW8C7EM2HEIF74","A2JI8LMB1EEQ4Z","335VBRURDJMQFRMOFGHOE9WKSHX9E1","","null","<img src=""img/land3.png"" style=""width:200px; border:14px solid green;"">","null","","","","","","","","","",""
"","image-keyboard-response","180","131513","0.0-180.0","3TS1AR6UQR0GT6WLMW8C7EM2HEIF74","A2JI8LMB1EEQ4Z","335VBRURDJMQFRMOFGHOE9WKSHX9E1","","666.3000001907349","img/land4.png","74","667.3999996185303","1","1","1","1","0.8,0.2,0.2,0.2,0.8,0.2,0.2,0.2,0.8","0.8,0.2,0.2,0.2,0.8,0.2,0.2,0.2,0.8","1","",""
"","html-keyboard-response","181","131822","0.0-181.0","3TS1AR6UQR0GT6WLMW8C7EM2HEIF74","A2JI8LMB1EEQ4Z","335VBRURDJMQFRMOFGHOE9WKSHX9E1","","null","<img src=""img/land4.png"" style=""width:200px; border:14px solid green;"">","null","","","","","","","","","",""
"","html-keyboard-response","182","157187","0.0-182.0","3TS1AR6UQR0GT6WLMW8C7EM2HEIF74","A2JI8LMB1EEQ4Z","335VBRURDJMQFRMOFGHOE9WKSHX9E1","","","","","","","","","","","","","",""
"","image-keyboard-response","183","158225","0.0-183.0","3TS1AR6UQR0GT6WLMW8C7EM2HEIF74","A2JI8LMB1EEQ4Z","335VBRURDJMQFRMOFGHOE9WKSHX9E1","","1035.5","img/land1.png","74","1037","1","0","3","2","0.8,0.2,0.2,0.2,0.8,0.2,0.2,0.2,0.8","0.2,0.2,0.8,0.8,0.2,0.2,0.2,0.8,0.2","2","",""
"","html-keyboard-response","184","158533","0.0-184.0","3TS1AR6UQR0GT6WLMW8C7EM2HEIF74","A2JI8LMB1EEQ4Z","335VBRURDJMQFRMOFGHOE9WKSHX9E1","","null","<img src=""img/land1.png"" style=""width:200px;border:14px solid red;"">","null","","","","","","","","","",""
"","image-keyboard-response","185","159289","0.0-185.0","3TS1AR6UQR0GT6WLMW8C7EM2HEIF74","A2JI8LMB1EEQ4Z","335VBRURDJMQFRMOFGHOE9WKSHX9E1","","753.3999996185303","img/land2.png","74","754.8000001907349","1","0","1","2","0.8,0.2,0.2,0.2,0.8,0.2,0.2,0.2,0.8","0.2,0.2,0.8,0.8,0.2,0.2,0.2,0.8,0.2","2","",""
"","html-keyboard-response","186","159597","0.0-186.0","3TS1AR6UQR0GT6WLMW8C7EM2HEIF74","A2JI8LMB1EEQ4Z","335VBRURDJMQFRMOFGHOE9WKSHX9E1","","null","<img src=""img/land2.png"" style=""width:200px;border:14px solid red;"">","null","","","","","","","","","",""
"","image-keyboard-response","187","160256","0.0-187.0","3TS1AR6UQR0GT6WLMW8C7EM2HEIF74","A2JI8LMB1EEQ4Z","335VBRURDJMQFRMOFGHOE9WKSHX9E1","","657.3000001907349","img/land2.png","75","658.5","2","0","1","2","0.8,0.2,0.2,0.2,0.8,0.2,0.2,0.2,0.8","0.2,0.2,0.8,0.8,0.2,0.2,0.2,0.8,0.2","2","",""
"","html-keyboard-response","188","160565","0.0-188.0","3TS1AR6UQR0GT6WLMW8C7EM2HEIF74","A2JI8LMB1EEQ4Z","335VBRURDJMQFRMOFGHOE9WKSHX9E1","","null","<img src=""img/land2.png"" style=""width:200px;border:14px solid red;"">","null","","","","","","","","","",""
"","image-keyboard-response","189","161641","0.0-189.0","3TS1AR6UQR0GT6WLMW8C7EM2HEIF74","A2JI8LMB1EEQ4Z","335VBRURDJMQFRMOFGHOE9WKSHX9E1","","1073.3999996185303","img/land6.png","74","1074.6000003814697","1","0","2","2","0.8,0.2,0.2,0.2,0.8,0.2,0.2,0.2,0.8","0.2,0.2,0.8,0.8,0.2,0.2,0.2,0.8,0.2","2","",""
"","html-keyboard-response","190","161949","0.0-190.0","3TS1AR6UQR0GT6WLMW8C7EM2HEIF74","A2JI8LMB1EEQ4Z","335VBRURDJMQFRMOFGHOE9WKSHX9E1","","null","<img src=""img/land6.png"" style=""width:200px;border:14px solid red;"">","null","","","","","","","","","",""
"","image-keyboard-response","191","162600","0.0-191.0","3TS1AR6UQR0GT6WLMW8C7EM2HEIF74","A2JI8LMB1EEQ4Z","335VBRURDJMQFRMOFGHOE9WKSHX9E1","","649.2999992370605","img/land2.png","75","650.5","2","0","1","2","0.8,0.2,0.2,0.2,0.8,0.2,0.2,0.2,0.8","0.2,0.2,0.8,0.8,0.2,0.2,0.2,0.8,0.2","2","",""
"","html-keyboard-response","192","162909","0.0-192.0","3TS1AR6UQR0GT6WLMW8C7EM2HEIF74","A2JI8LMB1EEQ4Z","335VBRURDJMQFRMOFGHOE9WKSHX9E1","","null","<img src=""img/land2.png"" style=""width:200px;border:14px solid red;"">","null","","","","","","","","","",""
"","image-keyboard-response","193","163681","0.0-193.0","3TS1AR6UQR0GT6WLMW8C7EM2HEIF74","A2JI8LMB1EEQ4Z","335VBRURDJMQFRMOFGHOE9WKSHX9E1","","769.3999996185303","img/land2.png","76","770.5999994277954","3","1","1","2","0.8,0.2,0.2,0.2,0.8,0.2,0.2,0.2,0.8","0.2,0.2,0.8,0.8,0.2,0.2,0.2,0.8,0.2","2","",""
"","html-keyboard-response","194","163990","0.0-194.0","3TS1AR6UQR0GT6WLMW8C7EM2HEIF74","A2JI8LMB1EEQ4Z","335VBRURDJMQFRMOFGHOE9WKSHX9E1","","null","<img src=""img/land2.png"" style=""width:200px; border:14px solid green;"">","null","","","","","","","","","",""
"","image-keyboard-response","195","164464","0.0-195.0","3TS1AR6UQR0GT6WLMW8C7EM2HEIF74","A2JI8LMB1EEQ4Z","335VBRURDJMQFRMOFGHOE9WKSHX9E1","","473.29999923706055","img/land2.png","76","474.30000019073486","3","1","1","2","0.8,0.2,0.2,0.2,0.8,0.2,0.2,0.2,0.8","0.2,0.2,0.8,0.8,0.2,0.2,0.2,0.8,0.2","2","",""
"","html-keyboard-response","196","164774","0.0-196.0","3TS1AR6UQR0GT6WLMW8C7EM2HEIF74","A2JI8LMB1EEQ4Z","335VBRURDJMQFRMOFGHOE9WKSHX9E1","","null","<img src=""img/land2.png"" style=""width:200px; border:14px solid green;"">","null","","","","","","","","","",""
"","image-keyboard-response","197","165273","0.0-197.0","3TS1AR6UQR0GT6WLMW8C7EM2HEIF74","A2JI8LMB1EEQ4Z","335VBRURDJMQFRMOFGHOE9WKSHX9E1","","497.3999996185303","img/land2.png","76","498.5","3","1","1","2","0.8,0.2,0.2,0.2,0.8,0.2,0.2,0.2,0.8","0.2,0.2,0.8,0.8,0.2,0.2,0.2,0.8,0.2","2","",""
"","html-keyboard-response","198","165582","0.0-198.0","3TS1AR6UQR0GT6WLMW8C7EM2HEIF74","A2JI8LMB1EEQ4Z","335VBRURDJMQFRMOFGHOE9WKSHX9E1","","null","<img src=""img/land2.png"" style=""width:200px; border:14px solid green;"">","null","","","","","","","","","",""
"","image-keyboard-response","199","165968","0.0-199.0","3TS1AR6UQR0GT6WLMW8C7EM2HEIF74","A2JI8LMB1EEQ4Z","335VBRURDJMQFRMOFGHOE9WKSHX9E1","","385.19999980926514","img/land2.png","76","386.30000019073486","3","1","1","2","0.8,0.2,0.2,0.2,0.8,0.2,0.2,0.2,0.8","0.2,0.2,0.8,0.8,0.2,0.2,0.2,0.8,0.2","2","",""
"","html-keyboard-response","200","166278","0.0-200.0","3TS1AR6UQR0GT6WLMW8C7EM2HEIF74","A2JI8LMB1EEQ4Z","335VBRURDJMQFRMOFGHOE9WKSHX9E1","","null","<img src=""img/land2.png"" style=""width:200px; border:14px solid green;"">","null","","","","","","","","","",""
"","image-keyboard-response","201","166928","0.0-201.0","3TS1AR6UQR0GT6WLMW8C7EM2HEIF74","A2JI8LMB1EEQ4Z","335VBRURDJMQFRMOFGHOE9WKSHX9E1","","649","img/land6.png","75","650.1000003814697","2","0","2","2","0.8,0.2,0.2,0.2,0.8,0.2,0.2,0.2,0.8","0.2,0.2,0.8,0.8,0.2,0.2,0.2,0.8,0.2","2","",""
"","html-keyboard-response","202","167238","0.0-202.0","3TS1AR6UQR0GT6WLMW8C7EM2HEIF74","A2JI8LMB1EEQ4Z","335VBRURDJMQFRMOFGHOE9WKSHX9E1","","null","<img src=""img/land6.png"" style=""width:200px;border:14px solid red;"">","null","","","","","","","","","",""
"","image-keyboard-response","203","167961","0.0-203.0","3TS1AR6UQR0GT6WLMW8C7EM2HEIF74","A2JI8LMB1EEQ4Z","335VBRURDJMQFRMOFGHOE9WKSHX9E1","","722.5","img/land1.png","74","723.5","1","1","3","2","0.8,0.2,0.2,0.2,0.8,0.2,0.2,0.2,0.8","0.2,0.2,0.8,0.8,0.2,0.2,0.2,0.8,0.2","2","",""
"","html-keyboard-response","204","168270","0.0-204.0","3TS1AR6UQR0GT6WLMW8C7EM2HEIF74","A2JI8LMB1EEQ4Z","335VBRURDJMQFRMOFGHOE9WKSHX9E1","","null","<img src=""img/land1.png"" style=""width:200px; border:14px solid green;"">","null","","","","","","","","","",""
"","image-keyboard-response","205","169113","0.0-205.0","3TS1AR6UQR0GT6WLMW8C7EM2HEIF74","A2JI8LMB1EEQ4Z","335VBRURDJMQFRMOFGHOE9WKSHX9E1","","840.8999996185303","img/land2.png","76","842.1999998092651","3","1","1","2","0.8,0.2,0.2,0.2,0.8,0.2,0.2,0.2,0.8","0.2,0.2,0.8,0.8,0.2,0.2,0.2,0.8,0.2","2","",""
"","html-keyboard-response","206","169422","0.0-206.0","3TS1AR6UQR0GT6WLMW8C7EM2HEIF74","A2JI8LMB1EEQ4Z","335VBRURDJMQFRMOFGHOE9WKSHX9E1","","null","<img src=""img/land2.png"" style=""width:200px; border:14px solid green;"">","null","","","","","","","","","",""
"","image-keyboard-response","207","169833","0.0-207.0","3TS1AR6UQR0GT6WLMW8C7EM2HEIF74","A2JI8LMB1EEQ4Z","335VBRURDJMQFRMOFGHOE9WKSHX9E1","","409.0999994277954","img/land2.png","76","410.29999923706055","3","1","1","2","0.8,0.2,0.2,0.2,0.8,0.2,0.2,0.2,0.8","0.2,0.2,0.8,0.8,0.2,0.2,0.2,0.8,0.2","2","",""
"","html-keyboard-response","208","170142","0.0-208.0","3TS1AR6UQR0GT6WLMW8C7EM2HEIF74","A2JI8LMB1EEQ4Z","335VBRURDJMQFRMOFGHOE9WKSHX9E1","","null","<img src=""img/land2.png"" style=""width:200px; border:14px solid green;"">","null","","","","","","","","","",""
"","image-keyboard-response","209","170689","0.0-209.0","3TS1AR6UQR0GT6WLMW8C7EM2HEIF74","A2JI8LMB1EEQ4Z","335VBRURDJMQFRMOFGHOE9WKSHX9E1","","544.8999996185303","img/land6.png","74","546.0999994277954","1","1","2","2","0.8,0.2,0.2,0.2,0.8,0.2,0.2,0.2,0.8","0.2,0.2,0.8,0.8,0.2,0.2,0.2,0.8,0.2","2","",""
"","html-keyboard-response","210","170998","0.0-210.0","3TS1AR6UQR0GT6WLMW8C7EM2HEIF74","A2JI8LMB1EEQ4Z","335VBRURDJMQFRMOFGHOE9WKSHX9E1","","null","<img src=""img/land6.png"" style=""width:200px; border:14px solid green;"">","null","","","","","","","","","",""
"","image-keyboard-response","211","171712","0.0-211.0","3TS1AR6UQR0GT6WLMW8C7EM2HEIF74","A2JI8LMB1EEQ4Z","335VBRURDJMQFRMOFGHOE9WKSHX9E1","","712.8000001907349","img/land1.png","75","714.1999998092651","2","1","3","2","0.8,0.2,0.2,0.2,0.8,0.2,0.2,0.2,0.8","0.2,0.2,0.8,0.8,0.2,0.2,0.2,0.8,0.2","2","",""
"","html-keyboard-response","212","172014","0.0-212.0","3TS1AR6UQR0GT6WLMW8C7EM2HEIF74","A2JI8LMB1EEQ4Z","335VBRURDJMQFRMOFGHOE9WKSHX9E1","","null","<img src=""img/land1.png"" style=""width:200px; border:14px solid green;"">","null","","","","","","","","","",""
"","image-keyboard-response","213","172432","0.0-213.0","3TS1AR6UQR0GT6WLMW8C7EM2HEIF74","A2JI8LMB1EEQ4Z","335VBRURDJMQFRMOFGHOE9WKSHX9E1","","416.5","img/land1.png","75","417.79999923706055","2","1","3","2","0.8,0.2,0.2,0.2,0.8,0.2,0.2,0.2,0.8","0.2,0.2,0.8,0.8,0.2,0.2,0.2,0.8,0.2","2","",""
"","html-keyboard-response","214","172742","0.0-214.0","3TS1AR6UQR0GT6WLMW8C7EM2HEIF74","A2JI8LMB1EEQ4Z","335VBRURDJMQFRMOFGHOE9WKSHX9E1","","null","<img src=""img/land1.png"" style=""width:200px; border:14px solid green;"">","null","","","","","","","","","",""
"","image-keyboard-response","215","173512","0.0-215.0","3TS1AR6UQR0GT6WLMW8C7EM2HEIF74","A2JI8LMB1EEQ4Z","335VBRURDJMQFRMOFGHOE9WKSHX9E1","","768.8999996185303","img/land2.png","74","769.9000005722046","1","0","1","2","0.8,0.2,0.2,0.2,0.8,0.2,0.2,0.2,0.8","0.2,0.2,0.8,0.8,0.2,0.2,0.2,0.8,0.2","2","",""
"","html-keyboard-response","216","173822","0.0-216.0","3TS1AR6UQR0GT6WLMW8C7EM2HEIF74","A2JI8LMB1EEQ4Z","335VBRURDJMQFRMOFGHOE9WKSHX9E1","","null","<img src=""img/land2.png"" style=""width:200px;border:14px solid red;"">","null","","","","","","","","","",""
"","image-keyboard-response","217","174264","0.0-217.0","3TS1AR6UQR0GT6WLMW8C7EM2HEIF74","A2JI8LMB1EEQ4Z","335VBRURDJMQFRMOFGHOE9WKSHX9E1","","440.69999980926514","img/land2.png","76","441.80000019073486","3","1","1","2","0.8,0.2,0.2,0.2,0.8,0.2,0.2,0.2,0.8","0.2,0.2,0.8,0.8,0.2,0.2,0.2,0.8,0.2","2","",""
"","html-keyboard-response","218","174574","0.0-218.0","3TS1AR6UQR0GT6WLMW8C7EM2HEIF74","A2JI8LMB1EEQ4Z","335VBRURDJMQFRMOFGHOE9WKSHX9E1","","null","<img src=""img/land2.png"" style=""width:200px; border:14px solid green;"">","null","","","","","","","","","",""
"","image-keyboard-response","219","175512","0.0-219.0","3TS1AR6UQR0GT6WLMW8C7EM2HEIF74","A2JI8LMB1EEQ4Z","335VBRURDJMQFRMOFGHOE9WKSHX9E1","","936.6999998092651","img/land1.png","75","937.9000005722046","2","0","3","2","0.8,0.2,0.2,0.2,0.8,0.2,0.2,0.2,0.8","0.2,0.2,0.8,0.8,0.2,0.2,0.2,0.8,0.2","2","",""
"","html-keyboard-response","220","175821","0.0-220.0","3TS1AR6UQR0GT6WLMW8C7EM2HEIF74","A2JI8LMB1EEQ4Z","335VBRURDJMQFRMOFGHOE9WKSHX9E1","","null","<img src=""img/land1.png"" style=""width:200px;border:14px solid red;"">","null","","","","","","","","","",""
"","image-keyboard-response","221","176840","0.0-221.0","3TS1AR6UQR0GT6WLMW8C7EM2HEIF74","A2JI8LMB1EEQ4Z","335VBRURDJMQFRMOFGHOE9WKSHX9E1","","1017.5","img/land2.png","74","1018.6999998092651","1","1","1","2","0.8,0.2,0.2,0.2,0.8,0.2,0.2,0.2,0.8","0.2,0.2,0.8,0.8,0.2,0.2,0.2,0.8,0.2","2","",""
"","html-keyboard-response","222","177149","0.0-222.0","3TS1AR6UQR0GT6WLMW8C7EM2HEIF74","A2JI8LMB1EEQ4Z","335VBRURDJMQFRMOFGHOE9WKSHX9E1","","null","<img src=""img/land2.png"" style=""width:200px; border:14px solid green;"">","null","","","","","","","","","",""
"","image-keyboard-response","223","178417","0.0-223.0","3TS1AR6UQR0GT6WLMW8C7EM2HEIF74","A2JI8LMB1EEQ4Z","335VBRURDJMQFRMOFGHOE9WKSHX9E1","","1266.0999994277954","img/land6.png","75","1267.3999996185303","2","0","2","2","0.8,0.2,0.2,0.2,0.8,0.2,0.2,0.2,0.8","0.2,0.2,0.8,0.8,0.2,0.2,0.2,0.8,0.2","2","",""
"","html-keyboard-response","224","178725","0.0-224.0","3TS1AR6UQR0GT6WLMW8C7EM2HEIF74","A2JI8LMB1EEQ4Z","335VBRURDJMQFRMOFGHOE9WKSHX9E1","","null","<img src=""img/land6.png"" style=""width:200px;border:14px solid red;"">","null","","","","","","","","","",""
"","image-keyboard-response","225","179545","0.0-225.0","3TS1AR6UQR0GT6WLMW8C7EM2HEIF74","A2JI8LMB1EEQ4Z","335VBRURDJMQFRMOFGHOE9WKSHX9E1","","817.5","img/land2.png","74","818.5999994277954","1","0","1","2","0.8,0.2,0.2,0.2,0.8,0.2,0.2,0.2,0.8","0.2,0.2,0.8,0.8,0.2,0.2,0.2,0.8,0.2","2","",""
"","html-keyboard-response","226","179854","0.0-226.0","3TS1AR6UQR0GT6WLMW8C7EM2HEIF74","A2JI8LMB1EEQ4Z","335VBRURDJMQFRMOFGHOE9WKSHX9E1","","null","<img src=""img/land2.png"" style=""width:200px;border:14px solid red;"">","null","","","","","","","","","",""
"","image-keyboard-response","227","180953","0.0-227.0","3TS1AR6UQR0GT6WLMW8C7EM2HEIF74","A2JI8LMB1EEQ4Z","335VBRURDJMQFRMOFGHOE9WKSHX9E1","","1097.3000001907349","img/land6.png","74","1098.5","1","1","2","2","0.8,0.2,0.2,0.2,0.8,0.2,0.2,0.2,0.8","0.2,0.2,0.8,0.8,0.2,0.2,0.2,0.8,0.2","2","",""
"","html-keyboard-response","228","181262","0.0-228.0","3TS1AR6UQR0GT6WLMW8C7EM2HEIF74","A2JI8LMB1EEQ4Z","335VBRURDJMQFRMOFGHOE9WKSHX9E1","","null","<img src=""img/land6.png"" style=""width:200px; border:14px solid green;"">","null","","","","","","","","","",""
"","image-keyboard-response","229","181953","0.0-229.0","3TS1AR6UQR0GT6WLMW8C7EM2HEIF74","A2JI8LMB1EEQ4Z","335VBRURDJMQFRMOFGHOE9WKSHX9E1","","689.1999998092651","img/land6.png","74","690.5","1","1","2","2","0.8,0.2,0.2,0.2,0.8,0.2,0.2,0.2,0.8","0.2,0.2,0.8,0.8,0.2,0.2,0.2,0.8,0.2","2","",""
"","html-keyboard-response","230","182262","0.0-230.0","3TS1AR6UQR0GT6WLMW8C7EM2HEIF74","A2JI8LMB1EEQ4Z","335VBRURDJMQFRMOFGHOE9WKSHX9E1","","null","<img src=""img/land6.png"" style=""width:200px; border:14px solid green;"">","null","","","","","","","","","",""
"","image-keyboard-response","231","183153","0.0-231.0","3TS1AR6UQR0GT6WLMW8C7EM2HEIF74","A2JI8LMB1EEQ4Z","335VBRURDJMQFRMOFGHOE9WKSHX9E1","","889.2000007629395","img/land2.png","75","890.1000003814697","2","0","1","2","0.8,0.2,0.2,0.2,0.8,0.2,0.2,0.2,0.8","0.2,0.2,0.8,0.8,0.2,0.2,0.2,0.8,0.2","2","",""
"","html-keyboard-response","232","183462","0.0-232.0","3TS1AR6UQR0GT6WLMW8C7EM2HEIF74","A2JI8LMB1EEQ4Z","335VBRURDJMQFRMOFGHOE9WKSHX9E1","","null","<img src=""img/land2.png"" style=""width:200px;border:14px solid red;"">","null","","","","","","","","","",""
"","image-keyboard-response","233","183737","0.0-233.0","3TS1AR6UQR0GT6WLMW8C7EM2HEIF74","A2JI8LMB1EEQ4Z","335VBRURDJMQFRMOFGHOE9WKSHX9E1","","273.30000019073486","img/land2.png","76","274.1000003814697","3","0","1","2","0.8,0.2,0.2,0.2,0.8,0.2,0.2,0.2,0.8","0.2,0.2,0.8,0.8,0.2,0.2,0.2,0.8,0.2","2","",""
"","html-keyboard-response","234","184038","0.0-234.0","3TS1AR6UQR0GT6WLMW8C7EM2HEIF74","A2JI8LMB1EEQ4Z","335VBRURDJMQFRMOFGHOE9WKSHX9E1","","null","<img src=""img/land2.png"" style=""width:200px;border:14px solid red;"">","null","","","","","","","","","",""
"","image-keyboard-response","235","184361","0.0-235.0","3TS1AR6UQR0GT6WLMW8C7EM2HEIF74","A2JI8LMB1EEQ4Z","335VBRURDJMQFRMOFGHOE9WKSHX9E1","","321","img/land2.png","76","322.19999980926514","3","1","1","2","0.8,0.2,0.2,0.2,0.8,0.2,0.2,0.2,0.8","0.2,0.2,0.8,0.8,0.2,0.2,0.2,0.8,0.2","2","",""
"","html-keyboard-response","236","184670","0.0-236.0","3TS1AR6UQR0GT6WLMW8C7EM2HEIF74","A2JI8LMB1EEQ4Z","335VBRURDJMQFRMOFGHOE9WKSHX9E1","","null","<img src=""img/land2.png"" style=""width:200px; border:14px solid green;"">","null","","","","","","","","","",""
"","image-keyboard-response","237","185065","0.0-237.0","3TS1AR6UQR0GT6WLMW8C7EM2HEIF74","A2JI8LMB1EEQ4Z","335VBRURDJMQFRMOFGHOE9WKSHX9E1","","392.8999996185303","img/land2.png","76","394.30000019073486","3","1","1","2","0.8,0.2,0.2,0.2,0.8,0.2,0.2,0.2,0.8","0.2,0.2,0.8,0.8,0.2,0.2,0.2,0.8,0.2","2","",""
"","html-keyboard-response","238","185374","0.0-238.0","3TS1AR6UQR0GT6WLMW8C7EM2HEIF74","A2JI8LMB1EEQ4Z","335VBRURDJMQFRMOFGHOE9WKSHX9E1","","null","<img src=""img/land2.png"" style=""width:200px; border:14px solid green;"">","null","","","","","","","","","",""
"","image-keyboard-response","239","186097","0.0-239.0","3TS1AR6UQR0GT6WLMW8C7EM2HEIF74","A2JI8LMB1EEQ4Z","335VBRURDJMQFRMOFGHOE9WKSHX9E1","","721","img/land1.png","75","722.1000003814697","2","1","3","2","0.8,0.2,0.2,0.2,0.8,0.2,0.2,0.2,0.8","0.2,0.2,0.8,0.8,0.2,0.2,0.2,0.8,0.2","2","",""
"","html-keyboard-response","240","186406","0.0-240.0","3TS1AR6UQR0GT6WLMW8C7EM2HEIF74","A2JI8LMB1EEQ4Z","335VBRURDJMQFRMOFGHOE9WKSHX9E1","","null","<img src=""img/land1.png"" style=""width:200px; border:14px solid green;"">","null","","","","","","","","","",""
"","image-keyboard-response","241","187369","0.0-241.0","3TS1AR6UQR0GT6WLMW8C7EM2HEIF74","A2JI8LMB1EEQ4Z","335VBRURDJMQFRMOFGHOE9WKSHX9E1","","960.8000001907349","img/land6.png","74","962.1000003814697","1","1","2","2","0.8,0.2,0.2,0.2,0.8,0.2,0.2,0.2,0.8","0.2,0.2,0.8,0.8,0.2,0.2,0.2,0.8,0.2","2","",""
"","html-keyboard-response","242","187678","0.0-242.0","3TS1AR6UQR0GT6WLMW8C7EM2HEIF74","A2JI8LMB1EEQ4Z","335VBRURDJMQFRMOFGHOE9WKSHX9E1","","null","<img src=""img/land6.png"" style=""width:200px; border:14px solid green;"">","null","","","","","","","","","",""
"","image-keyboard-response","243","188329","0.0-243.0","3TS1AR6UQR0GT6WLMW8C7EM2HEIF74","A2JI8LMB1EEQ4Z","335VBRURDJMQFRMOFGHOE9WKSHX9E1","","648.7999992370605","img/land1.png","75","650","2","0","3","2","0.8,0.2,0.2,0.2,0.8,0.2,0.2,0.2,0.8","0.2,0.2,0.8,0.8,0.2,0.2,0.2,0.8,0.2","2","",""
"","html-keyboard-response","244","188638","0.0-244.0","3TS1AR6UQR0GT6WLMW8C7EM2HEIF74","A2JI8LMB1EEQ4Z","335VBRURDJMQFRMOFGHOE9WKSHX9E1","","null","<img src=""img/land1.png"" style=""width:200px;border:14px solid red;"">","null","","","","","","","","","",""
"","image-keyboard-response","245","189274","0.0-245.0","3TS1AR6UQR0GT6WLMW8C7EM2HEIF74","A2JI8LMB1EEQ4Z","335VBRURDJMQFRMOFGHOE9WKSHX9E1","","633.5","img/land2.png","76","634.8000001907349","3","1","1","2","0.8,0.2,0.2,0.2,0.8,0.2,0.2,0.2,0.8","0.2,0.2,0.8,0.8,0.2,0.2,0.2,0.8,0.2","2","",""
"","html-keyboard-response","246","189582","0.0-246.0","3TS1AR6UQR0GT6WLMW8C7EM2HEIF74","A2JI8LMB1EEQ4Z","335VBRURDJMQFRMOFGHOE9WKSHX9E1","","null","<img src=""img/land2.png"" style=""width:200px; border:14px solid green;"">","null","","","","","","","","","",""
"","image-keyboard-response","247","190361","0.0-247.0","3TS1AR6UQR0GT6WLMW8C7EM2HEIF74","A2JI8LMB1EEQ4Z","335VBRURDJMQFRMOFGHOE9WKSHX9E1","","776.8000001907349","img/land6.png","75","778","2","0","2","2","0.8,0.2,0.2,0.2,0.8,0.2,0.2,0.2,0.8","0.2,0.2,0.8,0.8,0.2,0.2,0.2,0.8,0.2","2","",""
"","html-keyboard-response","248","190671","0.0-248.0","3TS1AR6UQR0GT6WLMW8C7EM2HEIF74","A2JI8LMB1EEQ4Z","335VBRURDJMQFRMOFGHOE9WKSHX9E1","","null","<img src=""img/land6.png"" style=""width:200px;border:14px solid red;"">","null","","","","","","","","","",""
"","image-keyboard-response","249","191577","0.0-249.0","3TS1AR6UQR0GT6WLMW8C7EM2HEIF74","A2JI8LMB1EEQ4Z","335VBRURDJMQFRMOFGHOE9WKSHX9E1","","904.5999994277954","img/land2.png","76","905.8999996185303","3","0","1","2","0.8,0.2,0.2,0.2,0.8,0.2,0.2,0.2,0.8","0.2,0.2,0.8,0.8,0.2,0.2,0.2,0.8,0.2","2","",""
"","html-keyboard-response","250","191887","0.0-250.0","3TS1AR6UQR0GT6WLMW8C7EM2HEIF74","A2JI8LMB1EEQ4Z","335VBRURDJMQFRMOFGHOE9WKSHX9E1","","null","<img src=""img/land2.png"" style=""width:200px;border:14px solid red;"">","null","","","","","","","","","",""
"","image-keyboard-response","251","192537","0.0-251.0","3TS1AR6UQR0GT6WLMW8C7EM2HEIF74","A2JI8LMB1EEQ4Z","335VBRURDJMQFRMOFGHOE9WKSHX9E1","","648.5","img/land2.png","76","649.7999992370605","3","0","1","2","0.8,0.2,0.2,0.2,0.8,0.2,0.2,0.2,0.8","0.2,0.2,0.8,0.8,0.2,0.2,0.2,0.8,0.2","2","",""
"","html-keyboard-response","252","192847","0.0-252.0","3TS1AR6UQR0GT6WLMW8C7EM2HEIF74","A2JI8LMB1EEQ4Z","335VBRURDJMQFRMOFGHOE9WKSHX9E1","","null","<img src=""img/land2.png"" style=""width:200px;border:14px solid red;"">","null","","","","","","","","","",""
"","image-keyboard-response","253","193825","0.0-253.0","3TS1AR6UQR0GT6WLMW8C7EM2HEIF74","A2JI8LMB1EEQ4Z","335VBRURDJMQFRMOFGHOE9WKSHX9E1","","976.4000005722046","img/land1.png","75","977.6000003814697","2","1","3","2","0.8,0.2,0.2,0.2,0.8,0.2,0.2,0.2,0.8","0.2,0.2,0.8,0.8,0.2,0.2,0.2,0.8,0.2","2","",""
"","html-keyboard-response","254","194127","0.0-254.0","3TS1AR6UQR0GT6WLMW8C7EM2HEIF74","A2JI8LMB1EEQ4Z","335VBRURDJMQFRMOFGHOE9WKSHX9E1","","null","<img src=""img/land1.png"" style=""width:200px; border:14px solid green;"">","null","","","","","","","","","",""
"","image-keyboard-response","255","194897","0.0-255.0","3TS1AR6UQR0GT6WLMW8C7EM2HEIF74","A2JI8LMB1EEQ4Z","335VBRURDJMQFRMOFGHOE9WKSHX9E1","","768.3000001907349","img/land2.png","74","769.5","1","0","1","2","0.8,0.2,0.2,0.2,0.8,0.2,0.2,0.2,0.8","0.2,0.2,0.8,0.8,0.2,0.2,0.2,0.8,0.2","2","",""
"","html-keyboard-response","256","195207","0.0-256.0","3TS1AR6UQR0GT6WLMW8C7EM2HEIF74","A2JI8LMB1EEQ4Z","335VBRURDJMQFRMOFGHOE9WKSHX9E1","","null","<img src=""img/land2.png"" style=""width:200px;border:14px solid red;"">","null","","","","","","","","","",""
"","image-keyboard-response","257","195601","0.0-257.0","3TS1AR6UQR0GT6WLMW8C7EM2HEIF74","A2JI8LMB1EEQ4Z","335VBRURDJMQFRMOFGHOE9WKSHX9E1","","392.19999980926514","img/land2.png","74","393.5","1","0","1","2","0.8,0.2,0.2,0.2,0.8,0.2,0.2,0.2,0.8","0.2,0.2,0.8,0.8,0.2,0.2,0.2,0.8,0.2","2","",""
"","html-keyboard-response","258","195911","0.0-258.0","3TS1AR6UQR0GT6WLMW8C7EM2HEIF74","A2JI8LMB1EEQ4Z","335VBRURDJMQFRMOFGHOE9WKSHX9E1","","null","<img src=""img/land2.png"" style=""width:200px;border:14px solid red;"">","null","","","","","","","","","",""
"","image-keyboard-response","259","196681","0.0-259.0","3TS1AR6UQR0GT6WLMW8C7EM2HEIF74","A2JI8LMB1EEQ4Z","335VBRURDJMQFRMOFGHOE9WKSHX9E1","","768.1999998092651","img/land1.png","75","769.3000001907349","2","0","3","2","0.8,0.2,0.2,0.2,0.8,0.2,0.2,0.2,0.8","0.2,0.2,0.8,0.8,0.2,0.2,0.2,0.8,0.2","2","",""
"","html-keyboard-response","260","196991","0.0-260.0","3TS1AR6UQR0GT6WLMW8C7EM2HEIF74","A2JI8LMB1EEQ4Z","335VBRURDJMQFRMOFGHOE9WKSHX9E1","","null","<img src=""img/land1.png"" style=""width:200px;border:14px solid red;"">","null","","","","","","","","","",""
"","image-keyboard-response","261","197777","0.0-261.0","3TS1AR6UQR0GT6WLMW8C7EM2HEIF74","A2JI8LMB1EEQ4Z","335VBRURDJMQFRMOFGHOE9WKSHX9E1","","784.0999994277954","img/land2.png","74","785.4000005722046","1","0","1","2","0.8,0.2,0.2,0.2,0.8,0.2,0.2,0.2,0.8","0.2,0.2,0.8,0.8,0.2,0.2,0.2,0.8,0.2","2","",""
"","html-keyboard-response","262","198087","0.0-262.0","3TS1AR6UQR0GT6WLMW8C7EM2HEIF74","A2JI8LMB1EEQ4Z","335VBRURDJMQFRMOFGHOE9WKSHX9E1","","null","<img src=""img/land2.png"" style=""width:200px;border:14px solid red;"">","null","","","","","","","","","",""
"","image-keyboard-response","263","198545","0.0-263.0","3TS1AR6UQR0GT6WLMW8C7EM2HEIF74","A2JI8LMB1EEQ4Z","335VBRURDJMQFRMOFGHOE9WKSHX9E1","","456","img/land2.png","76","457.19999980926514","3","1","1","2","0.8,0.2,0.2,0.2,0.8,0.2,0.2,0.2,0.8","0.2,0.2,0.8,0.8,0.2,0.2,0.2,0.8,0.2","2","",""
"","html-keyboard-response","264","198855","0.0-264.0","3TS1AR6UQR0GT6WLMW8C7EM2HEIF74","A2JI8LMB1EEQ4Z","335VBRURDJMQFRMOFGHOE9WKSHX9E1","","null","<img src=""img/land2.png"" style=""width:200px; border:14px solid green;"">","null","","","","","","","","","",""
"","image-keyboard-response","265","199354","0.0-265.0","3TS1AR6UQR0GT6WLMW8C7EM2HEIF74","A2JI8LMB1EEQ4Z","335VBRURDJMQFRMOFGHOE9WKSHX9E1","","496.80000019073486","img/land2.png","76","498.1000003814697","3","0","1","2","0.8,0.2,0.2,0.2,0.8,0.2,0.2,0.2,0.8","0.2,0.2,0.8,0.8,0.2,0.2,0.2,0.8,0.2","2","",""
"","html-keyboard-response","266","199662","0.0-266.0","3TS1AR6UQR0GT6WLMW8C7EM2HEIF74","A2JI8LMB1EEQ4Z","335VBRURDJMQFRMOFGHOE9WKSHX9E1","","null","<img src=""img/land2.png"" style=""width:200px;border:14px solid red;"">","null","","","","","","","","","",""
"","image-keyboard-response","267","200049","0.0-267.0","3TS1AR6UQR0GT6WLMW8C7EM2HEIF74","A2JI8LMB1EEQ4Z","335VBRURDJMQFRMOFGHOE9WKSHX9E1","","384.9000005722046","img/land2.png","76","386.30000019073486","3","0","1","2","0.8,0.2,0.2,0.2,0.8,0.2,0.2,0.2,0.8","0.2,0.2,0.8,0.8,0.2,0.2,0.2,0.8,0.2","2","",""
"","html-keyboard-response","268","200358","0.0-268.0","3TS1AR6UQR0GT6WLMW8C7EM2HEIF74","A2JI8LMB1EEQ4Z","335VBRURDJMQFRMOFGHOE9WKSHX9E1","","null","<img src=""img/land2.png"" style=""width:200px;border:14px solid red;"">","null","","","","","","","","","",""
"","image-keyboard-response","269","201105","0.0-269.0","3TS1AR6UQR0GT6WLMW8C7EM2HEIF74","A2JI8LMB1EEQ4Z","335VBRURDJMQFRMOFGHOE9WKSHX9E1","","744.9000005722046","img/land1.png","75","746.3000001907349","2","0","3","2","0.8,0.2,0.2,0.2,0.8,0.2,0.2,0.2,0.8","0.2,0.2,0.8,0.8,0.2,0.2,0.2,0.8,0.2","2","",""
"","html-keyboard-response","270","201414","0.0-270.0","3TS1AR6UQR0GT6WLMW8C7EM2HEIF74","A2JI8LMB1EEQ4Z","335VBRURDJMQFRMOFGHOE9WKSHX9E1","","null","<img src=""img/land1.png"" style=""width:200px;border:14px solid red;"">","null","","","","","","","","","",""
"","image-keyboard-response","271","202033","0.0-271.0","3TS1AR6UQR0GT6WLMW8C7EM2HEIF74","A2JI8LMB1EEQ4Z","335VBRURDJMQFRMOFGHOE9WKSHX9E1","","616.9000005722046","img/land2.png","76","618.1999998092651","3","0","1","2","0.8,0.2,0.2,0.2,0.8,0.2,0.2,0.2,0.8","0.2,0.2,0.8,0.8,0.2,0.2,0.2,0.8,0.2","2","",""
"","html-keyboard-response","272","202342","0.0-272.0","3TS1AR6UQR0GT6WLMW8C7EM2HEIF74","A2JI8LMB1EEQ4Z","335VBRURDJMQFRMOFGHOE9WKSHX9E1","","null","<img src=""img/land2.png"" style=""width:200px;border:14px solid red;"">","null","","","","","","","","","",""
"","image-keyboard-response","273","202921","0.0-273.0","3TS1AR6UQR0GT6WLMW8C7EM2HEIF74","A2JI8LMB1EEQ4Z","335VBRURDJMQFRMOFGHOE9WKSHX9E1","","576.8000001907349","img/land2.png","76","578","3","1","1","2","0.8,0.2,0.2,0.2,0.8,0.2,0.2,0.2,0.8","0.2,0.2,0.8,0.8,0.2,0.2,0.2,0.8,0.2","2","",""
"","html-keyboard-response","274","203230","0.0-274.0","3TS1AR6UQR0GT6WLMW8C7EM2HEIF74","A2JI8LMB1EEQ4Z","335VBRURDJMQFRMOFGHOE9WKSHX9E1","","null","<img src=""img/land2.png"" style=""width:200px; border:14px solid green;"">","null","","","","","","","","","",""
"","image-keyboard-response","275","203737","0.0-275.0","3TS1AR6UQR0GT6WLMW8C7EM2HEIF74","A2JI8LMB1EEQ4Z","335VBRURDJMQFRMOFGHOE9WKSHX9E1","","504.80000019073486","img/land2.png","76","506.0999994277954","3","1","1","2","0.8,0.2,0.2,0.2,0.8,0.2,0.2,0.2,0.8","0.2,0.2,0.8,0.8,0.2,0.2,0.2,0.8,0.2","2","",""
"","html-keyboard-response","276","204046","0.0-276.0","3TS1AR6UQR0GT6WLMW8C7EM2HEIF74","A2JI8LMB1EEQ4Z","335VBRURDJMQFRMOFGHOE9WKSHX9E1","","null","<img src=""img/land2.png"" style=""width:200px; border:14px solid green;"">","null","","","","","","","","","",""
"","image-keyboard-response","277","204905","0.0-277.0","3TS1AR6UQR0GT6WLMW8C7EM2HEIF74","A2JI8LMB1EEQ4Z","335VBRURDJMQFRMOFGHOE9WKSHX9E1","","856.6000003814697","img/land6.png","74","857.8000001907349","1","1","2","2","0.8,0.2,0.2,0.2,0.8,0.2,0.2,0.2,0.8","0.2,0.2,0.8,0.8,0.2,0.2,0.2,0.8,0.2","2","",""
"","html-keyboard-response","278","205214","0.0-278.0","3TS1AR6UQR0GT6WLMW8C7EM2HEIF74","A2JI8LMB1EEQ4Z","335VBRURDJMQFRMOFGHOE9WKSHX9E1","","null","<img src=""img/land6.png"" style=""width:200px; border:14px solid green;"">","null","","","","","","","","","",""
"","image-keyboard-response","279","206025","0.0-279.0","3TS1AR6UQR0GT6WLMW8C7EM2HEIF74","A2JI8LMB1EEQ4Z","335VBRURDJMQFRMOFGHOE9WKSHX9E1","","808.6000003814697","img/land2.png","76","809.9000005722046","3","0","1","2","0.8,0.2,0.2,0.2,0.8,0.2,0.2,0.2,0.8","0.2,0.2,0.8,0.8,0.2,0.2,0.2,0.8,0.2","2","",""
"","html-keyboard-response","280","206334","0.0-280.0","3TS1AR6UQR0GT6WLMW8C7EM2HEIF74","A2JI8LMB1EEQ4Z","335VBRURDJMQFRMOFGHOE9WKSHX9E1","","null","<img src=""img/land2.png"" style=""width:200px;border:14px solid red;"">","null","","","","","","","","","",""
"","image-keyboard-response","281","206744","0.0-281.0","3TS1AR6UQR0GT6WLMW8C7EM2HEIF74","A2JI8LMB1EEQ4Z","335VBRURDJMQFRMOFGHOE9WKSHX9E1","","408.70000076293945","img/land2.png","76","409.80000019073486","3","1","1","2","0.8,0.2,0.2,0.2,0.8,0.2,0.2,0.2,0.8","0.2,0.2,0.8,0.8,0.2,0.2,0.2,0.8,0.2","2","",""
"","html-keyboard-response","282","207054","0.0-282.0","3TS1AR6UQR0GT6WLMW8C7EM2HEIF74","A2JI8LMB1EEQ4Z","335VBRURDJMQFRMOFGHOE9WKSHX9E1","","null","<img src=""img/land2.png"" style=""width:200px; border:14px solid green;"">","null","","","","","","","","","",""
"","image-keyboard-response","283","207609","0.0-283.0","3TS1AR6UQR0GT6WLMW8C7EM2HEIF74","A2JI8LMB1EEQ4Z","335VBRURDJMQFRMOFGHOE9WKSHX9E1","","552.5","img/land6.png","74","553.8000001907349","1","0","2","2","0.8,0.2,0.2,0.2,0.8,0.2,0.2,0.2,0.8","0.2,0.2,0.8,0.8,0.2,0.2,0.2,0.8,0.2","2","",""
"","html-keyboard-response","284","207918","0.0-284.0","3TS1AR6UQR0GT6WLMW8C7EM2HEIF74","A2JI8LMB1EEQ4Z","335VBRURDJMQFRMOFGHOE9WKSHX9E1","","null","<img src=""img/land6.png"" style=""width:200px;border:14px solid red;"">","null","","","","","","","","","",""
"","image-keyboard-response","285","208953","0.0-285.0","3TS1AR6UQR0GT6WLMW8C7EM2HEIF74","A2JI8LMB1EEQ4Z","335VBRURDJMQFRMOFGHOE9WKSHX9E1","","1032.5","img/land2.png","76","1033.6999998092651","3","0","1","2","0.8,0.2,0.2,0.2,0.8,0.2,0.2,0.2,0.8","0.2,0.2,0.8,0.8,0.2,0.2,0.2,0.8,0.2","2","",""
"","html-keyboard-response","286","209262","0.0-286.0","3TS1AR6UQR0GT6WLMW8C7EM2HEIF74","A2JI8LMB1EEQ4Z","335VBRURDJMQFRMOFGHOE9WKSHX9E1","","null","<img src=""img/land2.png"" style=""width:200px;border:14px solid red;"">","null","","","","","","","","","",""
"","image-keyboard-response","287","209953","0.0-287.0","3TS1AR6UQR0GT6WLMW8C7EM2HEIF74","A2JI8LMB1EEQ4Z","335VBRURDJMQFRMOFGHOE9WKSHX9E1","","689.3000001907349","img/land1.png","75","690.5","2","1","3","2","0.8,0.2,0.2,0.2,0.8,0.2,0.2,0.2,0.8","0.2,0.2,0.8,0.8,0.2,0.2,0.2,0.8,0.2","2","",""
"","html-keyboard-response","288","210262","0.0-288.0","3TS1AR6UQR0GT6WLMW8C7EM2HEIF74","A2JI8LMB1EEQ4Z","335VBRURDJMQFRMOFGHOE9WKSHX9E1","","null","<img src=""img/land1.png"" style=""width:200px; border:14px solid green;"">","null","","","","","","","","","",""
"","image-keyboard-response","289","211776","0.0-289.0","3TS1AR6UQR0GT6WLMW8C7EM2HEIF74","A2JI8LMB1EEQ4Z","335VBRURDJMQFRMOFGHOE9WKSHX9E1","","1512.2999992370605","img/land6.png","74","1513.6000003814697","1","1","2","2","0.8,0.2,0.2,0.2,0.8,0.2,0.2,0.2,0.8","0.2,0.2,0.8,0.8,0.2,0.2,0.2,0.8,0.2","2","",""
"","html-keyboard-response","290","212078","0.0-290.0","3TS1AR6UQR0GT6WLMW8C7EM2HEIF74","A2JI8LMB1EEQ4Z","335VBRURDJMQFRMOFGHOE9WKSHX9E1","","null","<img src=""img/land6.png"" style=""width:200px; border:14px solid green;"">","null","","","","","","","","","",""
"","image-keyboard-response","291","212865","0.0-291.0","3TS1AR6UQR0GT6WLMW8C7EM2HEIF74","A2JI8LMB1EEQ4Z","335VBRURDJMQFRMOFGHOE9WKSHX9E1","","784.6999998092651","img/land2.png","76","785.8000001907349","3","0","1","2","0.8,0.2,0.2,0.2,0.8,0.2,0.2,0.2,0.8","0.2,0.2,0.8,0.8,0.2,0.2,0.2,0.8,0.2","2","",""
"","html-keyboard-response","292","213174","0.0-292.0","3TS1AR6UQR0GT6WLMW8C7EM2HEIF74","A2JI8LMB1EEQ4Z","335VBRURDJMQFRMOFGHOE9WKSHX9E1","","null","<img src=""img/land2.png"" style=""width:200px;border:14px solid red;"">","null","","","","","","","","","",""
"","image-keyboard-response","293","214008","0.0-293.0","3TS1AR6UQR0GT6WLMW8C7EM2HEIF74","A2JI8LMB1EEQ4Z","335VBRURDJMQFRMOFGHOE9WKSHX9E1","","832.1999998092651","img/land6.png","74","833.3999996185303","1","1","2","2","0.8,0.2,0.2,0.2,0.8,0.2,0.2,0.2,0.8","0.2,0.2,0.8,0.8,0.2,0.2,0.2,0.8,0.2","2","",""
"","html-keyboard-response","294","214311","0.0-294.0","3TS1AR6UQR0GT6WLMW8C7EM2HEIF74","A2JI8LMB1EEQ4Z","335VBRURDJMQFRMOFGHOE9WKSHX9E1","","null","<img src=""img/land6.png"" style=""width:200px; border:14px solid green;"">","null","","","","","","","","","",""
"","image-keyboard-response","295","215080","0.0-295.0","3TS1AR6UQR0GT6WLMW8C7EM2HEIF74","A2JI8LMB1EEQ4Z","335VBRURDJMQFRMOFGHOE9WKSHX9E1","","768","img/land1.png","75","769.2999992370605","2","1","3","2","0.8,0.2,0.2,0.2,0.8,0.2,0.2,0.2,0.8","0.2,0.2,0.8,0.8,0.2,0.2,0.2,0.8,0.2","2","",""
"","html-keyboard-response","296","215383","0.0-296.0","3TS1AR6UQR0GT6WLMW8C7EM2HEIF74","A2JI8LMB1EEQ4Z","335VBRURDJMQFRMOFGHOE9WKSHX9E1","","null","<img src=""img/land1.png"" style=""width:200px; border:14px solid green;"">","null","","","","","","","","","",""
"","image-keyboard-response","297","215920","0.0-297.0","3TS1AR6UQR0GT6WLMW8C7EM2HEIF74","A2JI8LMB1EEQ4Z","335VBRURDJMQFRMOFGHOE9WKSHX9E1","","536","img/land1.png","75","537.1000003814697","2","0","3","2","0.8,0.2,0.2,0.2,0.8,0.2,0.2,0.2,0.8","0.2,0.2,0.8,0.8,0.2,0.2,0.2,0.8,0.2","2","",""
"","html-keyboard-response","298","216223","0.0-298.0","3TS1AR6UQR0GT6WLMW8C7EM2HEIF74","A2JI8LMB1EEQ4Z","335VBRURDJMQFRMOFGHOE9WKSHX9E1","","null","<img src=""img/land1.png"" style=""width:200px;border:14px solid red;"">","null","","","","","","","","","",""
"","image-keyboard-response","299","216896","0.0-299.0","3TS1AR6UQR0GT6WLMW8C7EM2HEIF74","A2JI8LMB1EEQ4Z","335VBRURDJMQFRMOFGHOE9WKSHX9E1","","671.8000001907349","img/land2.png","76","673.0999994277954","3","1","1","2","0.8,0.2,0.2,0.2,0.8,0.2,0.2,0.2,0.8","0.2,0.2,0.8,0.8,0.2,0.2,0.2,0.8,0.2","2","",""
"","html-keyboard-response","300","217199","0.0-300.0","3TS1AR6UQR0GT6WLMW8C7EM2HEIF74","A2JI8LMB1EEQ4Z","335VBRURDJMQFRMOFGHOE9WKSHX9E1","","null","<img src=""img/land2.png"" style=""width:200px; border:14px solid green;"">","null","","","","","","","","","",""
"","image-keyboard-response","301","218112","0.0-301.0","3TS1AR6UQR0GT6WLMW8C7EM2HEIF74","A2JI8LMB1EEQ4Z","335VBRURDJMQFRMOFGHOE9WKSHX9E1","","911.9000005722046","img/land6.png","74","913.1999998092651","1","1","2","2","0.8,0.2,0.2,0.2,0.8,0.2,0.2,0.2,0.8","0.2,0.2,0.8,0.8,0.2,0.2,0.2,0.8,0.2","2","",""
"","html-keyboard-response","302","218415","0.0-302.0","3TS1AR6UQR0GT6WLMW8C7EM2HEIF74","A2JI8LMB1EEQ4Z","335VBRURDJMQFRMOFGHOE9WKSHX9E1","","null","<img src=""img/land6.png"" style=""width:200px; border:14px solid green;"">","null","","","","","","","","","",""
"","image-keyboard-response","303","218944","0.0-303.0","3TS1AR6UQR0GT6WLMW8C7EM2HEIF74","A2JI8LMB1EEQ4Z","335VBRURDJMQFRMOFGHOE9WKSHX9E1","","527.8000001907349","img/land6.png","74","529","1","1","2","2","0.8,0.2,0.2,0.2,0.8,0.2,0.2,0.2,0.8","0.2,0.2,0.8,0.8,0.2,0.2,0.2,0.8,0.2","2","",""
"","html-keyboard-response","304","219247","0.0-304.0","3TS1AR6UQR0GT6WLMW8C7EM2HEIF74","A2JI8LMB1EEQ4Z","335VBRURDJMQFRMOFGHOE9WKSHX9E1","","null","<img src=""img/land6.png"" style=""width:200px; border:14px solid green;"">","null","","","","","","","","","",""
"","image-keyboard-response","305","220161","0.0-305.0","3TS1AR6UQR0GT6WLMW8C7EM2HEIF74","A2JI8LMB1EEQ4Z","335VBRURDJMQFRMOFGHOE9WKSHX9E1","","912.4000005722046","img/land2.png","76","913.6999998092651","3","1","1","2","0.8,0.2,0.2,0.2,0.8,0.2,0.2,0.2,0.8","0.2,0.2,0.8,0.8,0.2,0.2,0.2,0.8,0.2","2","",""
"","html-keyboard-response","306","220471","0.0-306.0","3TS1AR6UQR0GT6WLMW8C7EM2HEIF74","A2JI8LMB1EEQ4Z","335VBRURDJMQFRMOFGHOE9WKSHX9E1","","null","<img src=""img/land2.png"" style=""width:200px; border:14px solid green;"">","null","","","","","","","","","",""
"","image-keyboard-response","307","221160","0.0-307.0","3TS1AR6UQR0GT6WLMW8C7EM2HEIF74","A2JI8LMB1EEQ4Z","335VBRURDJMQFRMOFGHOE9WKSHX9E1","","687.6999998092651","img/land2.png","76","688.9000005722046","3","1","1","2","0.8,0.2,0.2,0.2,0.8,0.2,0.2,0.2,0.8","0.2,0.2,0.8,0.8,0.2,0.2,0.2,0.8,0.2","2","",""
"","html-keyboard-response","308","221463","0.0-308.0","3TS1AR6UQR0GT6WLMW8C7EM2HEIF74","A2JI8LMB1EEQ4Z","335VBRURDJMQFRMOFGHOE9WKSHX9E1","","null","<img src=""img/land2.png"" style=""width:200px; border:14px solid green;"">","null","","","","","","","","","",""
"","image-keyboard-response","309","222152","0.0-309.0","3TS1AR6UQR0GT6WLMW8C7EM2HEIF74","A2JI8LMB1EEQ4Z","335VBRURDJMQFRMOFGHOE9WKSHX9E1","","687.5999994277954","img/land6.png","74","688.9000005722046","1","1","2","2","0.8,0.2,0.2,0.2,0.8,0.2,0.2,0.2,0.8","0.2,0.2,0.8,0.8,0.2,0.2,0.2,0.8,0.2","2","",""
"","html-keyboard-response","310","222455","0.0-310.0","3TS1AR6UQR0GT6WLMW8C7EM2HEIF74","A2JI8LMB1EEQ4Z","335VBRURDJMQFRMOFGHOE9WKSHX9E1","","null","<img src=""img/land6.png"" style=""width:200px; border:14px solid green;"">","null","","","","","","","","","",""
"","image-keyboard-response","311","222968","0.0-311.0","3TS1AR6UQR0GT6WLMW8C7EM2HEIF74","A2JI8LMB1EEQ4Z","335VBRURDJMQFRMOFGHOE9WKSHX9E1","","511.5","img/land6.png","74","512.9000005722046","1","1","2","2","0.8,0.2,0.2,0.2,0.8,0.2,0.2,0.2,0.8","0.2,0.2,0.8,0.8,0.2,0.2,0.2,0.8,0.2","2","",""
"","html-keyboard-response","312","223271","0.0-312.0","3TS1AR6UQR0GT6WLMW8C7EM2HEIF74","A2JI8LMB1EEQ4Z","335VBRURDJMQFRMOFGHOE9WKSHX9E1","","null","<img src=""img/land6.png"" style=""width:200px; border:14px solid green;"">","null","","","","","","","","","",""
"","image-keyboard-response","313","223960","0.0-313.0","3TS1AR6UQR0GT6WLMW8C7EM2HEIF74","A2JI8LMB1EEQ4Z","335VBRURDJMQFRMOFGHOE9WKSHX9E1","","687.5","img/land1.png","75","688.8000001907349","2","1","3","2","0.8,0.2,0.2,0.2,0.8,0.2,0.2,0.2,0.8","0.2,0.2,0.8,0.8,0.2,0.2,0.2,0.8,0.2","2","",""
"","html-keyboard-response","314","224262","0.0-314.0","3TS1AR6UQR0GT6WLMW8C7EM2HEIF74","A2JI8LMB1EEQ4Z","335VBRURDJMQFRMOFGHOE9WKSHX9E1","","null","<img src=""img/land1.png"" style=""width:200px; border:14px solid green;"">","null","","","","","","","","","",""
"","image-keyboard-response","315","224704","0.0-315.0","3TS1AR6UQR0GT6WLMW8C7EM2HEIF74","A2JI8LMB1EEQ4Z","335VBRURDJMQFRMOFGHOE9WKSHX9E1","","440.5","img/land1.png","75","441.69999980926514","2","1","3","2","0.8,0.2,0.2,0.2,0.8,0.2,0.2,0.2,0.8","0.2,0.2,0.8,0.8,0.2,0.2,0.2,0.8,0.2","2","",""
"","html-keyboard-response","316","225006","0.0-316.0","3TS1AR6UQR0GT6WLMW8C7EM2HEIF74","A2JI8LMB1EEQ4Z","335VBRURDJMQFRMOFGHOE9WKSHX9E1","","null","<img src=""img/land1.png"" style=""width:200px; border:14px solid green;"">","null","","","","","","","","","",""
"","image-keyboard-response","317","226656","0.0-317.0","3TS1AR6UQR0GT6WLMW8C7EM2HEIF74","A2JI8LMB1EEQ4Z","335VBRURDJMQFRMOFGHOE9WKSHX9E1","","1648.5","img/land2.png","74","1649.5999994277954","1","1","1","2","0.8,0.2,0.2,0.2,0.8,0.2,0.2,0.2,0.8","0.2,0.2,0.8,0.8,0.2,0.2,0.2,0.8,0.2","2","",""
"","html-keyboard-response","318","226958","0.0-318.0","3TS1AR6UQR0GT6WLMW8C7EM2HEIF74","A2JI8LMB1EEQ4Z","335VBRURDJMQFRMOFGHOE9WKSHX9E1","","null","<img src=""img/land2.png"" style=""width:200px; border:14px solid green;"">","null","","","","","","","","","",""
"","image-keyboard-response","319","227280","0.0-319.0","3TS1AR6UQR0GT6WLMW8C7EM2HEIF74","A2JI8LMB1EEQ4Z","335VBRURDJMQFRMOFGHOE9WKSHX9E1","","320.30000019073486","img/land2.png","74","321.5","1","0","1","2","0.8,0.2,0.2,0.2,0.8,0.2,0.2,0.2,0.8","0.2,0.2,0.8,0.8,0.2,0.2,0.2,0.8,0.2","2","",""
"","html-keyboard-response","320","227582","0.0-320.0","3TS1AR6UQR0GT6WLMW8C7EM2HEIF74","A2JI8LMB1EEQ4Z","335VBRURDJMQFRMOFGHOE9WKSHX9E1","","null","<img src=""img/land2.png"" style=""width:200px;border:14px solid red;"">","null","","","","","","","","","",""
"","image-keyboard-response","321","228328","0.0-321.0","3TS1AR6UQR0GT6WLMW8C7EM2HEIF74","A2JI8LMB1EEQ4Z","335VBRURDJMQFRMOFGHOE9WKSHX9E1","","744.1999998092651","img/land6.png","75","745.5","2","1","2","2","0.8,0.2,0.2,0.2,0.8,0.2,0.2,0.2,0.8","0.2,0.2,0.8,0.8,0.2,0.2,0.2,0.8,0.2","2","",""
"","html-keyboard-response","322","228630","0.0-322.0","3TS1AR6UQR0GT6WLMW8C7EM2HEIF74","A2JI8LMB1EEQ4Z","335VBRURDJMQFRMOFGHOE9WKSHX9E1","","null","<img src=""img/land6.png"" style=""width:200px; border:14px solid green;"">","null","","","","","","","","","",""
"","image-keyboard-response","323","229440","0.0-323.0","3TS1AR6UQR0GT6WLMW8C7EM2HEIF74","A2JI8LMB1EEQ4Z","335VBRURDJMQFRMOFGHOE9WKSHX9E1","","808.1999998092651","img/land2.png","74","809.4000005722046","1","0","1","2","0.8,0.2,0.2,0.2,0.8,0.2,0.2,0.2,0.8","0.2,0.2,0.8,0.8,0.2,0.2,0.2,0.8,0.2","2","",""
"","html-keyboard-response","324","229742","0.0-324.0","3TS1AR6UQR0GT6WLMW8C7EM2HEIF74","A2JI8LMB1EEQ4Z","335VBRURDJMQFRMOFGHOE9WKSHX9E1","","null","<img src=""img/land2.png"" style=""width:200px;border:14px solid red;"">","null","","","","","","","","","",""
"","image-keyboard-response","325","230433","0.0-325.0","3TS1AR6UQR0GT6WLMW8C7EM2HEIF74","A2JI8LMB1EEQ4Z","335VBRURDJMQFRMOFGHOE9WKSHX9E1","","688.8000001907349","img/land1.png","75","690.1000003814697","2","0","3","2","0.8,0.2,0.2,0.2,0.8,0.2,0.2,0.2,0.8","0.2,0.2,0.8,0.8,0.2,0.2,0.2,0.8,0.2","2","",""
"","html-keyboard-response","326","230742","0.0-326.0","3TS1AR6UQR0GT6WLMW8C7EM2HEIF74","A2JI8LMB1EEQ4Z","335VBRURDJMQFRMOFGHOE9WKSHX9E1","","null","<img src=""img/land1.png"" style=""width:200px;border:14px solid red;"">","null","","","","","","","","","",""
"","image-keyboard-response","327","231696","0.0-327.0","3TS1AR6UQR0GT6WLMW8C7EM2HEIF74","A2JI8LMB1EEQ4Z","335VBRURDJMQFRMOFGHOE9WKSHX9E1","","952","img/land2.png","76","953.1999998092651","3","1","1","2","0.8,0.2,0.2,0.2,0.8,0.2,0.2,0.2,0.8","0.2,0.2,0.8,0.8,0.2,0.2,0.2,0.8,0.2","2","",""
"","html-keyboard-response","328","231998","0.0-328.0","3TS1AR6UQR0GT6WLMW8C7EM2HEIF74","A2JI8LMB1EEQ4Z","335VBRURDJMQFRMOFGHOE9WKSHX9E1","","null","<img src=""img/land2.png"" style=""width:200px; border:14px solid green;"">","null","","","","","","","","","",""
"","image-keyboard-response","329","232400","0.0-329.0","3TS1AR6UQR0GT6WLMW8C7EM2HEIF74","A2JI8LMB1EEQ4Z","335VBRURDJMQFRMOFGHOE9WKSHX9E1","","399.79999923706055","img/land2.png","76","401.20000076293945","3","1","1","2","0.8,0.2,0.2,0.2,0.8,0.2,0.2,0.2,0.8","0.2,0.2,0.8,0.8,0.2,0.2,0.2,0.8,0.2","2","",""
"","html-keyboard-response","330","232702","0.0-330.0","3TS1AR6UQR0GT6WLMW8C7EM2HEIF74","A2JI8LMB1EEQ4Z","335VBRURDJMQFRMOFGHOE9WKSHX9E1","","null","<img src=""img/land2.png"" style=""width:200px; border:14px solid green;"">","null","","","","","","","","","",""
"","image-keyboard-response","331","233640","0.0-331.0","3TS1AR6UQR0GT6WLMW8C7EM2HEIF74","A2JI8LMB1EEQ4Z","335VBRURDJMQFRMOFGHOE9WKSHX9E1","","935.7999992370605","img/land1.png","75","937.1000003814697","2","0","3","2","0.8,0.2,0.2,0.2,0.8,0.2,0.2,0.2,0.8","0.2,0.2,0.8,0.8,0.2,0.2,0.2,0.8,0.2","2","",""
"","html-keyboard-response","332","233942","0.0-332.0","3TS1AR6UQR0GT6WLMW8C7EM2HEIF74","A2JI8LMB1EEQ4Z","335VBRURDJMQFRMOFGHOE9WKSHX9E1","","null","<img src=""img/land1.png"" style=""width:200px;border:14px solid red;"">","null","","","","","","","","","",""
"","image-keyboard-response","333","234800","0.0-333.0","3TS1AR6UQR0GT6WLMW8C7EM2HEIF74","A2JI8LMB1EEQ4Z","335VBRURDJMQFRMOFGHOE9WKSHX9E1","","856.1000003814697","img/land2.png","76","857.2000007629395","3","1","1","2","0.8,0.2,0.2,0.2,0.8,0.2,0.2,0.2,0.8","0.2,0.2,0.8,0.8,0.2,0.2,0.2,0.8,0.2","2","",""
"","html-keyboard-response","334","235102","0.0-334.0","3TS1AR6UQR0GT6WLMW8C7EM2HEIF74","A2JI8LMB1EEQ4Z","335VBRURDJMQFRMOFGHOE9WKSHX9E1","","null","<img src=""img/land2.png"" style=""width:200px; border:14px solid green;"">","null","","","","","","","","","",""
"","image-keyboard-response","335","235712","0.0-335.0","3TS1AR6UQR0GT6WLMW8C7EM2HEIF74","A2JI8LMB1EEQ4Z","335VBRURDJMQFRMOFGHOE9WKSHX9E1","","607.7999992370605","img/land1.png","75","609","2","1","3","2","0.8,0.2,0.2,0.2,0.8,0.2,0.2,0.2,0.8","0.2,0.2,0.8,0.8,0.2,0.2,0.2,0.8,0.2","2","",""
"","html-keyboard-response","336","236014","0.0-336.0","3TS1AR6UQR0GT6WLMW8C7EM2HEIF74","A2JI8LMB1EEQ4Z","335VBRURDJMQFRMOFGHOE9WKSHX9E1","","null","<img src=""img/land1.png"" style=""width:200px; border:14px solid green;"">","null","","","","","","","","","",""
"","image-keyboard-response","337","236536","0.0-337.0","3TS1AR6UQR0GT6WLMW8C7EM2HEIF74","A2JI8LMB1EEQ4Z","335VBRURDJMQFRMOFGHOE9WKSHX9E1","","519.6000003814697","img/land2.png","76","520.8999996185303","3","1","1","2","0.8,0.2,0.2,0.2,0.8,0.2,0.2,0.2,0.8","0.2,0.2,0.8,0.8,0.2,0.2,0.2,0.8,0.2","2","",""
"","html-keyboard-response","338","236838","0.0-338.0","3TS1AR6UQR0GT6WLMW8C7EM2HEIF74","A2JI8LMB1EEQ4Z","335VBRURDJMQFRMOFGHOE9WKSHX9E1","","null","<img src=""img/land2.png"" style=""width:200px; border:14px solid green;"">","null","","","","","","","","","",""
"","image-keyboard-response","339","237432","0.0-339.0","3TS1AR6UQR0GT6WLMW8C7EM2HEIF74","A2JI8LMB1EEQ4Z","335VBRURDJMQFRMOFGHOE9WKSHX9E1","","591.6999998092651","img/land1.png","75","592.8999996185303","2","1","3","2","0.8,0.2,0.2,0.2,0.8,0.2,0.2,0.2,0.8","0.2,0.2,0.8,0.8,0.2,0.2,0.2,0.8,0.2","2","",""
"","html-keyboard-response","340","237734","0.0-340.0","3TS1AR6UQR0GT6WLMW8C7EM2HEIF74","A2JI8LMB1EEQ4Z","335VBRURDJMQFRMOFGHOE9WKSHX9E1","","null","<img src=""img/land1.png"" style=""width:200px; border:14px solid green;"">","null","","","","","","","","","",""
"","image-keyboard-response","341","238344","0.0-341.0","3TS1AR6UQR0GT6WLMW8C7EM2HEIF74","A2JI8LMB1EEQ4Z","335VBRURDJMQFRMOFGHOE9WKSHX9E1","","607.5999994277954","img/land6.png","74","608.8999996185303","1","1","2","2","0.8,0.2,0.2,0.2,0.8,0.2,0.2,0.2,0.8","0.2,0.2,0.8,0.8,0.2,0.2,0.2,0.8,0.2","2","",""
"","html-keyboard-response","342","238646","0.0-342.0","3TS1AR6UQR0GT6WLMW8C7EM2HEIF74","A2JI8LMB1EEQ4Z","335VBRURDJMQFRMOFGHOE9WKSHX9E1","","null","<img src=""img/land6.png"" style=""width:200px; border:14px solid green;"">","null","","","","","","","","","",""
"","image-keyboard-response","343","239296","0.0-343.0","3TS1AR6UQR0GT6WLMW8C7EM2HEIF74","A2JI8LMB1EEQ4Z","335VBRURDJMQFRMOFGHOE9WKSHX9E1","","647.5","img/land1.png","75","648.7999992370605","2","1","3","2","0.8,0.2,0.2,0.2,0.8,0.2,0.2,0.2,0.8","0.2,0.2,0.8,0.8,0.2,0.2,0.2,0.8,0.2","2","",""
"","html-keyboard-response","344","239600","0.0-344.0","3TS1AR6UQR0GT6WLMW8C7EM2HEIF74","A2JI8LMB1EEQ4Z","335VBRURDJMQFRMOFGHOE9WKSHX9E1","","null","<img src=""img/land1.png"" style=""width:200px; border:14px solid green;"">","null","","","","","","","","","",""
"","image-keyboard-response","345","240265","0.0-345.0","3TS1AR6UQR0GT6WLMW8C7EM2HEIF74","A2JI8LMB1EEQ4Z","335VBRURDJMQFRMOFGHOE9WKSHX9E1","","663.5999994277954","img/land2.png","76","664.8000001907349","3","1","1","2","0.8,0.2,0.2,0.2,0.8,0.2,0.2,0.2,0.8","0.2,0.2,0.8,0.8,0.2,0.2,0.2,0.8,0.2","2","",""
"","html-keyboard-response","346","240568","0.0-346.0","3TS1AR6UQR0GT6WLMW8C7EM2HEIF74","A2JI8LMB1EEQ4Z","335VBRURDJMQFRMOFGHOE9WKSHX9E1","","null","<img src=""img/land2.png"" style=""width:200px; border:14px solid green;"">","null","","","","","","","","","",""
"","image-keyboard-response","347","240978","0.0-347.0","3TS1AR6UQR0GT6WLMW8C7EM2HEIF74","A2JI8LMB1EEQ4Z","335VBRURDJMQFRMOFGHOE9WKSHX9E1","","408","img/land2.png","76","409.19999980926514","3","1","1","2","0.8,0.2,0.2,0.2,0.8,0.2,0.2,0.2,0.8","0.2,0.2,0.8,0.8,0.2,0.2,0.2,0.8,0.2","2","",""
"","html-keyboard-response","348","241280","0.0-348.0","3TS1AR6UQR0GT6WLMW8C7EM2HEIF74","A2JI8LMB1EEQ4Z","335VBRURDJMQFRMOFGHOE9WKSHX9E1","","null","<img src=""img/land2.png"" style=""width:200px; border:14px solid green;"">","null","","","","","","","","","",""
"","image-keyboard-response","349","241713","0.0-349.0","3TS1AR6UQR0GT6WLMW8C7EM2HEIF74","A2JI8LMB1EEQ4Z","335VBRURDJMQFRMOFGHOE9WKSHX9E1","","432.0999994277954","img/land2.png","76","433","3","0","1","2","0.8,0.2,0.2,0.2,0.8,0.2,0.2,0.2,0.8","0.2,0.2,0.8,0.8,0.2,0.2,0.2,0.8,0.2","2","",""
"","html-keyboard-response","350","242016","0.0-350.0","3TS1AR6UQR0GT6WLMW8C7EM2HEIF74","A2JI8LMB1EEQ4Z","335VBRURDJMQFRMOFGHOE9WKSHX9E1","","null","<img src=""img/land2.png"" style=""width:200px;border:14px solid red;"">","null","","","","","","","","","",""
"","image-keyboard-response","351","242537","0.0-351.0","3TS1AR6UQR0GT6WLMW8C7EM2HEIF74","A2JI8LMB1EEQ4Z","335VBRURDJMQFRMOFGHOE9WKSHX9E1","","519","img/land2.png","76","520.3000001907349","3","1","1","2","0.8,0.2,0.2,0.2,0.8,0.2,0.2,0.2,0.8","0.2,0.2,0.8,0.8,0.2,0.2,0.2,0.8,0.2","2","",""
"","html-keyboard-response","352","242840","0.0-352.0","3TS1AR6UQR0GT6WLMW8C7EM2HEIF74","A2JI8LMB1EEQ4Z","335VBRURDJMQFRMOFGHOE9WKSHX9E1","","null","<img src=""img/land2.png"" style=""width:200px; border:14px solid green;"">","null","","","","","","","","","",""
"","image-keyboard-response","353","243209","0.0-353.0","3TS1AR6UQR0GT6WLMW8C7EM2HEIF74","A2JI8LMB1EEQ4Z","335VBRURDJMQFRMOFGHOE9WKSHX9E1","","367.30000019073486","img/land2.png","76","368.3999996185303","3","1","1","2","0.8,0.2,0.2,0.2,0.8,0.2,0.2,0.2,0.8","0.2,0.2,0.8,0.8,0.2,0.2,0.2,0.8,0.2","2","",""
"","html-keyboard-response","354","243512","0.0-354.0","3TS1AR6UQR0GT6WLMW8C7EM2HEIF74","A2JI8LMB1EEQ4Z","335VBRURDJMQFRMOFGHOE9WKSHX9E1","","null","<img src=""img/land2.png"" style=""width:200px; border:14px solid green;"">","null","","","","","","","","","",""
"","image-keyboard-response","355","243897","0.0-355.0","3TS1AR6UQR0GT6WLMW8C7EM2HEIF74","A2JI8LMB1EEQ4Z","335VBRURDJMQFRMOFGHOE9WKSHX9E1","","382.80000019073486","img/land2.png","76","384.19999980926514","3","1","1","2","0.8,0.2,0.2,0.2,0.8,0.2,0.2,0.2,0.8","0.2,0.2,0.8,0.8,0.2,0.2,0.2,0.8,0.2","2","",""
