"success","trial_type","trial_index","time_elapsed","internal_node_id","assignmentID","mturkID","hitID","view_history","rt","stimulus","key_press","reactionTime","a","r","s","cond","reward_cond","reward_cond_actual","reward_matrix_idx","responses","question_order"
"true","fullscreen","0","2724","0.0-0.0","3BXQMRHWK0KOXR0YLR50CWKVMNCMUZ","A2JZTR2ZSALGH4","3ECKRY5B1QIH1N6NFX1ECCW5ZDKIZQ","","","","","","","","","","","","","",""
"","instructions","1","57852","0.0-1.0","3BXQMRHWK0KOXR0YLR50CWKVMNCMUZ","A2JZTR2ZSALGH4","3ECKRY5B1QIH1N6NFX1ECCW5ZDKIZQ","[{""page_index"":0,""viewing_time"":6824.9000000003725},{""page_index"":1,""viewing_time"":5201.9000000003725},{""page_index"":2,""viewing_time"":7289},{""page_index"":3,""viewing_time"":8702.599999999627},{""page_index"":4,""viewing_time"":3866.199999999255},{""page_index"":5,""viewing_time"":10791.700000001118},{""page_index"":6,""viewing_time"":12435.900000000373}]","55117.90000000037","","","","","","","","","","","",""
"","image-keyboard-response","2","58904","0.0-2.0","3BXQMRHWK0KOXR0YLR50CWKVMNCMUZ","A2JZTR2ZSALGH4","3ECKRY5B1QIH1N6NFX1ECCW5ZDKIZQ","","1043.3999999985099","img/land5.png","74","1051.2000000011176","1","1","1","1","0.8,0.2,0.2,0.2,0.8,0.2,0.2,0.2,0.8","0.8,0.2,0.2,0.2,0.8,0.2,0.2,0.2,0.8","1","",""
"","html-keyboard-response","3","59217","0.0-3.0","3BXQMRHWK0KOXR0YLR50CWKVMNCMUZ","A2JZTR2ZSALGH4","3ECKRY5B1QIH1N6NFX1ECCW5ZDKIZQ","","null","<img src=""img/land5.png"" style=""width:200px; border:14px solid green;"">","null","","","","","","","","","",""
"","image-keyboard-response","4","60061","0.0-4.0","3BXQMRHWK0KOXR0YLR50CWKVMNCMUZ","A2JZTR2ZSALGH4","3ECKRY5B1QIH1N6NFX1ECCW5ZDKIZQ","","833.2999999988824","img/land6.png","75","840.7000000011176","2","0","3","1","0.8,0.2,0.2,0.2,0.8,0.2,0.2,0.2,0.8","0.8,0.2,0.2,0.2,0.8,0.2,0.2,0.2,0.8","1","",""
"","html-keyboard-response","5","60371","0.0-5.0","3BXQMRHWK0KOXR0YLR50CWKVMNCMUZ","A2JZTR2ZSALGH4","3ECKRY5B1QIH1N6NFX1ECCW5ZDKIZQ","","null","<img src=""img/land6.png"" style=""width:200px;border:14px solid red;"">","null","","","","","","","","","",""
"","image-keyboard-response","6","61690","0.0-6.0","3BXQMRHWK0KOXR0YLR50CWKVMNCMUZ","A2JZTR2ZSALGH4","3ECKRY5B1QIH1N6NFX1ECCW5ZDKIZQ","","1307.5","img/land6.png","76","1316","3","1","3","1","0.8,0.2,0.2,0.2,0.8,0.2,0.2,0.2,0.8","0.8,0.2,0.2,0.2,0.8,0.2,0.2,0.2,0.8","1","",""
"","html-keyboard-response","7","61995","0.0-7.0","3BXQMRHWK0KOXR0YLR50CWKVMNCMUZ","A2JZTR2ZSALGH4","3ECKRY5B1QIH1N6NFX1ECCW5ZDKIZQ","","null","<img src=""img/land6.png"" style=""width:200px; border:14px solid green;"">","null","","","","","","","","","",""
"","image-keyboard-response","8","63185","0.0-8.0","3BXQMRHWK0KOXR0YLR50CWKVMNCMUZ","A2JZTR2ZSALGH4","3ECKRY5B1QIH1N6NFX1ECCW5ZDKIZQ","","1179.0999999996275","img/land6.png","76","1187.7000000011176","3","1","3","1","0.8,0.2,0.2,0.2,0.8,0.2,0.2,0.2,0.8","0.8,0.2,0.2,0.2,0.8,0.2,0.2,0.2,0.8","1","",""
"","html-keyboard-response","9","63492","0.0-9.0","3BXQMRHWK0KOXR0YLR50CWKVMNCMUZ","A2JZTR2ZSALGH4","3ECKRY5B1QIH1N6NFX1ECCW5ZDKIZQ","","null","<img src=""img/land6.png"" style=""width:200px; border:14px solid green;"">","null","","","","","","","","","",""
"","image-keyboard-response","10","64510","0.0-10.0","3BXQMRHWK0KOXR0YLR50CWKVMNCMUZ","A2JZTR2ZSALGH4","3ECKRY5B1QIH1N6NFX1ECCW5ZDKIZQ","","1012.1000000014901","img/land3.png","75","1016.7000000011176","2","1","2","1","0.8,0.2,0.2,0.2,0.8,0.2,0.2,0.2,0.8","0.8,0.2,0.2,0.2,0.8,0.2,0.2,0.2,0.8","1","",""
"","html-keyboard-response","11","64818","0.0-11.0","3BXQMRHWK0KOXR0YLR50CWKVMNCMUZ","A2JZTR2ZSALGH4","3ECKRY5B1QIH1N6NFX1ECCW5ZDKIZQ","","null","<img src=""img/land3.png"" style=""width:200px; border:14px solid green;"">","null","","","","","","","","","",""
"","image-keyboard-response","12","66157","0.0-12.0","3BXQMRHWK0KOXR0YLR50CWKVMNCMUZ","A2JZTR2ZSALGH4","3ECKRY5B1QIH1N6NFX1ECCW5ZDKIZQ","","1331.2999999988824","img/land3.png","75","1336.699999999255","2","0","2","1","0.8,0.2,0.2,0.2,0.8,0.2,0.2,0.2,0.8","0.8,0.2,0.2,0.2,0.8,0.2,0.2,0.2,0.8","1","",""
"","html-keyboard-response","13","66462","0.0-13.0","3BXQMRHWK0KOXR0YLR50CWKVMNCMUZ","A2JZTR2ZSALGH4","3ECKRY5B1QIH1N6NFX1ECCW5ZDKIZQ","","null","<img src=""img/land3.png"" style=""width:200px;border:14px solid red;"">","null","","","","","","","","","",""
"","image-keyboard-response","14","67750","0.0-14.0","3BXQMRHWK0KOXR0YLR50CWKVMNCMUZ","A2JZTR2ZSALGH4","3ECKRY5B1QIH1N6NFX1ECCW5ZDKIZQ","","1280.9000000003725","img/land3.png","75","1286.699999999255","2","1","2","1","0.8,0.2,0.2,0.2,0.8,0.2,0.2,0.2,0.8","0.8,0.2,0.2,0.2,0.8,0.2,0.2,0.2,0.8","1","",""
"","html-keyboard-response","15","68056","0.0-15.0","3BXQMRHWK0KOXR0YLR50CWKVMNCMUZ","A2JZTR2ZSALGH4","3ECKRY5B1QIH1N6NFX1ECCW5ZDKIZQ","","null","<img src=""img/land3.png"" style=""width:200px; border:14px solid green;"">","null","","","","","","","","","",""
"","image-keyboard-response","16","69630","0.0-16.0","3BXQMRHWK0KOXR0YLR50CWKVMNCMUZ","A2JZTR2ZSALGH4","3ECKRY5B1QIH1N6NFX1ECCW5ZDKIZQ","","1566.4000000003725","img/land5.png","74","1572.1000000014901","1","1","1","1","0.8,0.2,0.2,0.2,0.8,0.2,0.2,0.2,0.8","0.8,0.2,0.2,0.2,0.8,0.2,0.2,0.2,0.8","1","",""
"","html-keyboard-response","17","69937","0.0-17.0","3BXQMRHWK0KOXR0YLR50CWKVMNCMUZ","A2JZTR2ZSALGH4","3ECKRY5B1QIH1N6NFX1ECCW5ZDKIZQ","","null","<img src=""img/land5.png"" style=""width:200px; border:14px solid green;"">","null","","","","","","","","","",""
"","image-keyboard-response","18","71194","0.0-18.0","3BXQMRHWK0KOXR0YLR50CWKVMNCMUZ","A2JZTR2ZSALGH4","3ECKRY5B1QIH1N6NFX1ECCW5ZDKIZQ","","1250.7000000011176","img/land5.png","74","1256.3999999985099","1","1","1","1","0.8,0.2,0.2,0.2,0.8,0.2,0.2,0.2,0.8","0.8,0.2,0.2,0.2,0.8,0.2,0.2,0.2,0.8","1","",""
"","html-keyboard-response","19","71503","0.0-19.0","3BXQMRHWK0KOXR0YLR50CWKVMNCMUZ","A2JZTR2ZSALGH4","3ECKRY5B1QIH1N6NFX1ECCW5ZDKIZQ","","null","<img src=""img/land5.png"" style=""width:200px; border:14px solid green;"">","null","","","","","","","","","",""
"","image-keyboard-response","20","72982","0.0-20.0","3BXQMRHWK0KOXR0YLR50CWKVMNCMUZ","A2JZTR2ZSALGH4","3ECKRY5B1QIH1N6NFX1ECCW5ZDKIZQ","","1470.7000000011176","img/land6.png","76","1477.7999999988824","3","1","3","1","0.8,0.2,0.2,0.2,0.8,0.2,0.2,0.2,0.8","0.8,0.2,0.2,0.2,0.8,0.2,0.2,0.2,0.8","1","",""
"","html-keyboard-response","21","73288","0.0-21.0","3BXQMRHWK0KOXR0YLR50CWKVMNCMUZ","A2JZTR2ZSALGH4","3ECKRY5B1QIH1N6NFX1ECCW5ZDKIZQ","","null","<img src=""img/land6.png"" style=""width:200px; border:14px solid green;"">","null","","","","","","","","","",""
"","image-keyboard-response","22","74578","0.0-22.0","3BXQMRHWK0KOXR0YLR50CWKVMNCMUZ","A2JZTR2ZSALGH4","3ECKRY5B1QIH1N6NFX1ECCW5ZDKIZQ","","1281.300000000745","img/land6.png","76","1288.199999999255","3","1","3","1","0.8,0.2,0.2,0.2,0.8,0.2,0.2,0.2,0.8","0.8,0.2,0.2,0.2,0.8,0.2,0.2,0.2,0.8","1","",""
"","html-keyboard-response","23","74885","0.0-23.0","3BXQMRHWK0KOXR0YLR50CWKVMNCMUZ","A2JZTR2ZSALGH4","3ECKRY5B1QIH1N6NFX1ECCW5ZDKIZQ","","null","<img src=""img/land6.png"" style=""width:200px; border:14px solid green;"">","null","","","","","","","","","",""
"","image-keyboard-response","24","76201","0.0-24.0","3BXQMRHWK0KOXR0YLR50CWKVMNCMUZ","A2JZTR2ZSALGH4","3ECKRY5B1QIH1N6NFX1ECCW5ZDKIZQ","","1309.199999999255","img/land6.png","76","1314.300000000745","3","1","3","1","0.8,0.2,0.2,0.2,0.8,0.2,0.2,0.2,0.8","0.8,0.2,0.2,0.2,0.8,0.2,0.2,0.2,0.8","1","",""
"","html-keyboard-response","25","76508","0.0-25.0","3BXQMRHWK0KOXR0YLR50CWKVMNCMUZ","A2JZTR2ZSALGH4","3ECKRY5B1QIH1N6NFX1ECCW5ZDKIZQ","","null","<img src=""img/land6.png"" style=""width:200px; border:14px solid green;"">","null","","","","","","","","","",""
"","image-keyboard-response","26","77653","0.0-26.0","3BXQMRHWK0KOXR0YLR50CWKVMNCMUZ","A2JZTR2ZSALGH4","3ECKRY5B1QIH1N6NFX1ECCW5ZDKIZQ","","1137.699999999255","img/land6.png","76","1144.4000000003725","3","1","3","1","0.8,0.2,0.2,0.2,0.8,0.2,0.2,0.2,0.8","0.8,0.2,0.2,0.2,0.8,0.2,0.2,0.2,0.8","1","",""
"","html-keyboard-response","27","77961","0.0-27.0","3BXQMRHWK0KOXR0YLR50CWKVMNCMUZ","A2JZTR2ZSALGH4","3ECKRY5B1QIH1N6NFX1ECCW5ZDKIZQ","","null","<img src=""img/land6.png"" style=""width:200px; border:14px solid green;"">","null","","","","","","","","","",""
"","image-keyboard-response","28","78806","0.0-28.0","3BXQMRHWK0KOXR0YLR50CWKVMNCMUZ","A2JZTR2ZSALGH4","3ECKRY5B1QIH1N6NFX1ECCW5ZDKIZQ","","838.2000000011176","img/land3.png","75","844.5999999996275","2","1","2","1","0.8,0.2,0.2,0.2,0.8,0.2,0.2,0.2,0.8","0.8,0.2,0.2,0.2,0.8,0.2,0.2,0.2,0.8","1","",""
"","html-keyboard-response","29","79114","0.0-29.0","3BXQMRHWK0KOXR0YLR50CWKVMNCMUZ","A2JZTR2ZSALGH4","3ECKRY5B1QIH1N6NFX1ECCW5ZDKIZQ","","null","<img src=""img/land3.png"" style=""width:200px; border:14px solid green;"">","null","","","","","","","","","",""
"","image-keyboard-response","30","80139","0.0-30.0","3BXQMRHWK0KOXR0YLR50CWKVMNCMUZ","A2JZTR2ZSALGH4","3ECKRY5B1QIH1N6NFX1ECCW5ZDKIZQ","","1018.2000000011176","img/land6.png","76","1024.0999999996275","3","1","3","1","0.8,0.2,0.2,0.2,0.8,0.2,0.2,0.2,0.8","0.8,0.2,0.2,0.2,0.8,0.2,0.2,0.2,0.8","1","",""
"","html-keyboard-response","31","80447","0.0-31.0","3BXQMRHWK0KOXR0YLR50CWKVMNCMUZ","A2JZTR2ZSALGH4","3ECKRY5B1QIH1N6NFX1ECCW5ZDKIZQ","","null","<img src=""img/land6.png"" style=""width:200px; border:14px solid green;"">","null","","","","","","","","","",""
"","image-keyboard-response","32","81293","0.0-32.0","3BXQMRHWK0KOXR0YLR50CWKVMNCMUZ","A2JZTR2ZSALGH4","3ECKRY5B1QIH1N6NFX1ECCW5ZDKIZQ","","839.5999999996275","img/land3.png","75","844.9000000003725","2","0","2","1","0.8,0.2,0.2,0.2,0.8,0.2,0.2,0.2,0.8","0.8,0.2,0.2,0.2,0.8,0.2,0.2,0.2,0.8","1","",""
"","html-keyboard-response","33","81600","0.0-33.0","3BXQMRHWK0KOXR0YLR50CWKVMNCMUZ","A2JZTR2ZSALGH4","3ECKRY5B1QIH1N6NFX1ECCW5ZDKIZQ","","null","<img src=""img/land3.png"" style=""width:200px;border:14px solid red;"">","null","","","","","","","","","",""
"","image-keyboard-response","34","82550","0.0-34.0","3BXQMRHWK0KOXR0YLR50CWKVMNCMUZ","A2JZTR2ZSALGH4","3ECKRY5B1QIH1N6NFX1ECCW5ZDKIZQ","","944.0999999996275","img/land5.png","74","949.2000000011176","1","1","1","1","0.8,0.2,0.2,0.2,0.8,0.2,0.2,0.2,0.8","0.8,0.2,0.2,0.2,0.8,0.2,0.2,0.2,0.8","1","",""
"","html-keyboard-response","35","82857","0.0-35.0","3BXQMRHWK0KOXR0YLR50CWKVMNCMUZ","A2JZTR2ZSALGH4","3ECKRY5B1QIH1N6NFX1ECCW5ZDKIZQ","","null","<img src=""img/land5.png"" style=""width:200px; border:14px solid green;"">","null","","","","","","","","","",""
"","image-keyboard-response","36","84415","0.0-36.0","3BXQMRHWK0KOXR0YLR50CWKVMNCMUZ","A2JZTR2ZSALGH4","3ECKRY5B1QIH1N6NFX1ECCW5ZDKIZQ","","1551.199999999255","img/land3.png","75","1556.2000000011176","2","1","2","1","0.8,0.2,0.2,0.2,0.8,0.2,0.2,0.2,0.8","0.8,0.2,0.2,0.2,0.8,0.2,0.2,0.2,0.8","1","",""
"","html-keyboard-response","37","84722","0.0-37.0","3BXQMRHWK0KOXR0YLR50CWKVMNCMUZ","A2JZTR2ZSALGH4","3ECKRY5B1QIH1N6NFX1ECCW5ZDKIZQ","","null","<img src=""img/land3.png"" style=""width:200px; border:14px solid green;"">","null","","","","","","","","","",""
"","image-keyboard-response","38","85920","0.0-38.0","3BXQMRHWK0KOXR0YLR50CWKVMNCMUZ","A2JZTR2ZSALGH4","3ECKRY5B1QIH1N6NFX1ECCW5ZDKIZQ","","1191","img/land6.png","76","1197","3","0","3","1","0.8,0.2,0.2,0.2,0.8,0.2,0.2,0.2,0.8","0.8,0.2,0.2,0.2,0.8,0.2,0.2,0.2,0.8","1","",""
"","html-keyboard-response","39","86225","0.0-39.0","3BXQMRHWK0KOXR0YLR50CWKVMNCMUZ","A2JZTR2ZSALGH4","3ECKRY5B1QIH1N6NFX1ECCW5ZDKIZQ","","null","<img src=""img/land6.png"" style=""width:200px;border:14px solid red;"">","null","","","","","","","","","",""
"","image-keyboard-response","40","87396","0.0-40.0","3BXQMRHWK0KOXR0YLR50CWKVMNCMUZ","A2JZTR2ZSALGH4","3ECKRY5B1QIH1N6NFX1ECCW5ZDKIZQ","","1163.699999999255","img/land3.png","75","1168.699999999255","2","1","2","1","0.8,0.2,0.2,0.2,0.8,0.2,0.2,0.2,0.8","0.8,0.2,0.2,0.2,0.8,0.2,0.2,0.2,0.8","1","",""
"","html-keyboard-response","41","87702","0.0-41.0","3BXQMRHWK0KOXR0YLR50CWKVMNCMUZ","A2JZTR2ZSALGH4","3ECKRY5B1QIH1N6NFX1ECCW5ZDKIZQ","","null","<img src=""img/land3.png"" style=""width:200px; border:14px solid green;"">","null","","","","","","","","","",""
"","image-keyboard-response","42","88613","0.0-42.0","3BXQMRHWK0KOXR0YLR50CWKVMNCMUZ","A2JZTR2ZSALGH4","3ECKRY5B1QIH1N6NFX1ECCW5ZDKIZQ","","903.1999999992549","img/land5.png","74","908.5999999996275","1","1","1","1","0.8,0.2,0.2,0.2,0.8,0.2,0.2,0.2,0.8","0.8,0.2,0.2,0.2,0.8,0.2,0.2,0.2,0.8","1","",""
"","html-keyboard-response","43","88920","0.0-43.0","3BXQMRHWK0KOXR0YLR50CWKVMNCMUZ","A2JZTR2ZSALGH4","3ECKRY5B1QIH1N6NFX1ECCW5ZDKIZQ","","null","<img src=""img/land5.png"" style=""width:200px; border:14px solid green;"">","null","","","","","","","","","",""
"","image-keyboard-response","44","90339","0.0-44.0","3BXQMRHWK0KOXR0YLR50CWKVMNCMUZ","A2JZTR2ZSALGH4","3ECKRY5B1QIH1N6NFX1ECCW5ZDKIZQ","","1415.0999999996275","img/land3.png","75","1417.5","2","0","2","1","0.8,0.2,0.2,0.2,0.8,0.2,0.2,0.2,0.8","0.8,0.2,0.2,0.2,0.8,0.2,0.2,0.2,0.8","1","",""
"","html-keyboard-response","45","90642","0.0-45.0","3BXQMRHWK0KOXR0YLR50CWKVMNCMUZ","A2JZTR2ZSALGH4","3ECKRY5B1QIH1N6NFX1ECCW5ZDKIZQ","","null","<img src=""img/land3.png"" style=""width:200px;border:14px solid red;"">","null","","","","","","","","","",""
"","image-keyboard-response","46","91944","0.0-46.0","3BXQMRHWK0KOXR0YLR50CWKVMNCMUZ","A2JZTR2ZSALGH4","3ECKRY5B1QIH1N6NFX1ECCW5ZDKIZQ","","1298.800000000745","img/land6.png","75","1302","2","1","3","1","0.8,0.2,0.2,0.2,0.8,0.2,0.2,0.2,0.8","0.8,0.2,0.2,0.2,0.8,0.2,0.2,0.2,0.8","1","",""
"","html-keyboard-response","47","92252","0.0-47.0","3BXQMRHWK0KOXR0YLR50CWKVMNCMUZ","A2JZTR2ZSALGH4","3ECKRY5B1QIH1N6NFX1ECCW5ZDKIZQ","","null","<img src=""img/land6.png"" style=""width:200px; border:14px solid green;"">","null","","","","","","","","","",""
"","image-keyboard-response","48","93071","0.0-48.0","3BXQMRHWK0KOXR0YLR50CWKVMNCMUZ","A2JZTR2ZSALGH4","3ECKRY5B1QIH1N6NFX1ECCW5ZDKIZQ","","812.4000000003725","img/land6.png","75","817.7999999988824","2","1","3","1","0.8,0.2,0.2,0.2,0.8,0.2,0.2,0.2,0.8","0.8,0.2,0.2,0.2,0.8,0.2,0.2,0.2,0.8","1","",""
"","html-keyboard-response","49","93380","0.0-49.0","3BXQMRHWK0KOXR0YLR50CWKVMNCMUZ","A2JZTR2ZSALGH4","3ECKRY5B1QIH1N6NFX1ECCW5ZDKIZQ","","null","<img src=""img/land6.png"" style=""width:200px; border:14px solid green;"">","null","","","","","","","","","",""
"","image-keyboard-response","50","94181","0.0-50.0","3BXQMRHWK0KOXR0YLR50CWKVMNCMUZ","A2JZTR2ZSALGH4","3ECKRY5B1QIH1N6NFX1ECCW5ZDKIZQ","","795.1999999992549","img/land3.png","76","800.2999999988824","3","0","2","1","0.8,0.2,0.2,0.2,0.8,0.2,0.2,0.2,0.8","0.8,0.2,0.2,0.2,0.8,0.2,0.2,0.2,0.8","1","",""
"","html-keyboard-response","51","94487","0.0-51.0","3BXQMRHWK0KOXR0YLR50CWKVMNCMUZ","A2JZTR2ZSALGH4","3ECKRY5B1QIH1N6NFX1ECCW5ZDKIZQ","","null","<img src=""img/land3.png"" style=""width:200px;border:14px solid red;"">","null","","","","","","","","","",""
"","image-keyboard-response","52","95317","0.0-52.0","3BXQMRHWK0KOXR0YLR50CWKVMNCMUZ","A2JZTR2ZSALGH4","3ECKRY5B1QIH1N6NFX1ECCW5ZDKIZQ","","821.7999999988824","img/land3.png","76","828.5999999996275","3","0","2","1","0.8,0.2,0.2,0.2,0.8,0.2,0.2,0.2,0.8","0.8,0.2,0.2,0.2,0.8,0.2,0.2,0.2,0.8","1","",""
"","html-keyboard-response","53","95623","0.0-53.0","3BXQMRHWK0KOXR0YLR50CWKVMNCMUZ","A2JZTR2ZSALGH4","3ECKRY5B1QIH1N6NFX1ECCW5ZDKIZQ","","null","<img src=""img/land3.png"" style=""width:200px;border:14px solid red;"">","null","","","","","","","","","",""
"","image-keyboard-response","54","97091","0.0-54.0","3BXQMRHWK0KOXR0YLR50CWKVMNCMUZ","A2JZTR2ZSALGH4","3ECKRY5B1QIH1N6NFX1ECCW5ZDKIZQ","","1463.9000000003725","img/land6.png","75","1467.5","2","0","3","1","0.8,0.2,0.2,0.2,0.8,0.2,0.2,0.2,0.8","0.8,0.2,0.2,0.2,0.8,0.2,0.2,0.2,0.8","1","",""
"","html-keyboard-response","55","97395","0.0-55.0","3BXQMRHWK0KOXR0YLR50CWKVMNCMUZ","A2JZTR2ZSALGH4","3ECKRY5B1QIH1N6NFX1ECCW5ZDKIZQ","","null","<img src=""img/land6.png"" style=""width:200px;border:14px solid red;"">","null","","","","","","","","","",""
"","image-keyboard-response","56","98489","0.0-56.0","3BXQMRHWK0KOXR0YLR50CWKVMNCMUZ","A2JZTR2ZSALGH4","3ECKRY5B1QIH1N6NFX1ECCW5ZDKIZQ","","1086.199999999255","img/land6.png","75","1091.4000000003725","2","0","3","1","0.8,0.2,0.2,0.2,0.8,0.2,0.2,0.2,0.8","0.8,0.2,0.2,0.2,0.8,0.2,0.2,0.2,0.8","1","",""
"","html-keyboard-response","57","98795","0.0-57.0","3BXQMRHWK0KOXR0YLR50CWKVMNCMUZ","A2JZTR2ZSALGH4","3ECKRY5B1QIH1N6NFX1ECCW5ZDKIZQ","","null","<img src=""img/land6.png"" style=""width:200px;border:14px solid red;"">","null","","","","","","","","","",""
"","image-keyboard-response","58","100112","0.0-58.0","3BXQMRHWK0KOXR0YLR50CWKVMNCMUZ","A2JZTR2ZSALGH4","3ECKRY5B1QIH1N6NFX1ECCW5ZDKIZQ","","1311.5999999996275","img/land3.png","75","1316","2","1","2","1","0.8,0.2,0.2,0.2,0.8,0.2,0.2,0.2,0.8","0.8,0.2,0.2,0.2,0.8,0.2,0.2,0.2,0.8","1","",""
"","html-keyboard-response","59","100420","0.0-59.0","3BXQMRHWK0KOXR0YLR50CWKVMNCMUZ","A2JZTR2ZSALGH4","3ECKRY5B1QIH1N6NFX1ECCW5ZDKIZQ","","null","<img src=""img/land3.png"" style=""width:200px; border:14px solid green;"">","null","","","","","","","","","",""
"","image-keyboard-response","60","101257","0.0-60.0","3BXQMRHWK0KOXR0YLR50CWKVMNCMUZ","A2JZTR2ZSALGH4","3ECKRY5B1QIH1N6NFX1ECCW5ZDKIZQ","","828.4000000003725","img/land5.png","74","834.7999999988824","1","1","1","1","0.8,0.2,0.2,0.2,0.8,0.2,0.2,0.2,0.8","0.8,0.2,0.2,0.2,0.8,0.2,0.2,0.2,0.8","1","",""
"","html-keyboard-response","61","101563","0.0-61.0","3BXQMRHWK0KOXR0YLR50CWKVMNCMUZ","A2JZTR2ZSALGH4","3ECKRY5B1QIH1N6NFX1ECCW5ZDKIZQ","","null","<img src=""img/land5.png"" style=""width:200px; border:14px solid green;"">","null","","","","","","","","","",""
"","image-keyboard-response","62","102532","0.0-62.0","3BXQMRHWK0KOXR0YLR50CWKVMNCMUZ","A2JZTR2ZSALGH4","3ECKRY5B1QIH1N6NFX1ECCW5ZDKIZQ","","957","img/land3.png","75","965.9000000003725","2","1","2","1","0.8,0.2,0.2,0.2,0.8,0.2,0.2,0.2,0.8","0.8,0.2,0.2,0.2,0.8,0.2,0.2,0.2,0.8","1","",""
"","html-keyboard-response","63","102838","0.0-63.0","3BXQMRHWK0KOXR0YLR50CWKVMNCMUZ","A2JZTR2ZSALGH4","3ECKRY5B1QIH1N6NFX1ECCW5ZDKIZQ","","null","<img src=""img/land3.png"" style=""width:200px; border:14px solid green;"">","null","","","","","","","","","",""
"","image-keyboard-response","64","103859","0.0-64.0","3BXQMRHWK0KOXR0YLR50CWKVMNCMUZ","A2JZTR2ZSALGH4","3ECKRY5B1QIH1N6NFX1ECCW5ZDKIZQ","","1012.5","img/land5.png","74","1019.8999999985099","1","1","1","1","0.8,0.2,0.2,0.2,0.8,0.2,0.2,0.2,0.8","0.8,0.2,0.2,0.2,0.8,0.2,0.2,0.2,0.8","1","",""
"","html-keyboard-response","65","104166","0.0-65.0","3BXQMRHWK0KOXR0YLR50CWKVMNCMUZ","A2JZTR2ZSALGH4","3ECKRY5B1QIH1N6NFX1ECCW5ZDKIZQ","","null","<img src=""img/land5.png"" style=""width:200px; border:14px solid green;"">","null","","","","","","","","","",""
"","image-keyboard-response","66","105006","0.0-66.0","3BXQMRHWK0KOXR0YLR50CWKVMNCMUZ","A2JZTR2ZSALGH4","3ECKRY5B1QIH1N6NFX1ECCW5ZDKIZQ","","833.7000000011176","img/land5.png","74","838.6999999992549","1","1","1","1","0.8,0.2,0.2,0.2,0.8,0.2,0.2,0.2,0.8","0.8,0.2,0.2,0.2,0.8,0.2,0.2,0.2,0.8","1","",""
"","html-keyboard-response","67","105313","0.0-67.0","3BXQMRHWK0KOXR0YLR50CWKVMNCMUZ","A2JZTR2ZSALGH4","3ECKRY5B1QIH1N6NFX1ECCW5ZDKIZQ","","null","<img src=""img/land5.png"" style=""width:200px; border:14px solid green;"">","null","","","","","","","","","",""
"","image-keyboard-response","68","106369","0.0-68.0","3BXQMRHWK0KOXR0YLR50CWKVMNCMUZ","A2JZTR2ZSALGH4","3ECKRY5B1QIH1N6NFX1ECCW5ZDKIZQ","","1051.300000000745","img/land3.png","75","1056.5999999996275","2","1","2","1","0.8,0.2,0.2,0.2,0.8,0.2,0.2,0.2,0.8","0.8,0.2,0.2,0.2,0.8,0.2,0.2,0.2,0.8","1","",""
"","html-keyboard-response","69","106677","0.0-69.0","3BXQMRHWK0KOXR0YLR50CWKVMNCMUZ","A2JZTR2ZSALGH4","3ECKRY5B1QIH1N6NFX1ECCW5ZDKIZQ","","null","<img src=""img/land3.png"" style=""width:200px; border:14px solid green;"">","null","","","","","","","","","",""
"","image-keyboard-response","70","107529","0.0-70.0","3BXQMRHWK0KOXR0YLR50CWKVMNCMUZ","A2JZTR2ZSALGH4","3ECKRY5B1QIH1N6NFX1ECCW5ZDKIZQ","","845.7000000011176","img/land5.png","74","850.8000000007451","1","1","1","1","0.8,0.2,0.2,0.2,0.8,0.2,0.2,0.2,0.8","0.8,0.2,0.2,0.2,0.8,0.2,0.2,0.2,0.8","1","",""
"","html-keyboard-response","71","107838","0.0-71.0","3BXQMRHWK0KOXR0YLR50CWKVMNCMUZ","A2JZTR2ZSALGH4","3ECKRY5B1QIH1N6NFX1ECCW5ZDKIZQ","","null","<img src=""img/land5.png"" style=""width:200px; border:14px solid green;"">","null","","","","","","","","","",""
"","image-keyboard-response","72","108595","0.0-72.0","3BXQMRHWK0KOXR0YLR50CWKVMNCMUZ","A2JZTR2ZSALGH4","3ECKRY5B1QIH1N6NFX1ECCW5ZDKIZQ","","750.0999999996275","img/land5.png","74","755.8000000007451","1","1","1","1","0.8,0.2,0.2,0.2,0.8,0.2,0.2,0.2,0.8","0.8,0.2,0.2,0.2,0.8,0.2,0.2,0.2,0.8","1","",""
"","html-keyboard-response","73","108901","0.0-73.0","3BXQMRHWK0KOXR0YLR50CWKVMNCMUZ","A2JZTR2ZSALGH4","3ECKRY5B1QIH1N6NFX1ECCW5ZDKIZQ","","null","<img src=""img/land5.png"" style=""width:200px; border:14px solid green;"">","null","","","","","","","","","",""
"","image-keyboard-response","74","109591","0.0-74.0","3BXQMRHWK0KOXR0YLR50CWKVMNCMUZ","A2JZTR2ZSALGH4","3ECKRY5B1QIH1N6NFX1ECCW5ZDKIZQ","","683.0999999996275","img/land5.png","74","692.4000000003725","1","1","1","1","0.8,0.2,0.2,0.2,0.8,0.2,0.2,0.2,0.8","0.8,0.2,0.2,0.2,0.8,0.2,0.2,0.2,0.8","1","",""
"","html-keyboard-response","75","109898","0.0-75.0","3BXQMRHWK0KOXR0YLR50CWKVMNCMUZ","A2JZTR2ZSALGH4","3ECKRY5B1QIH1N6NFX1ECCW5ZDKIZQ","","null","<img src=""img/land5.png"" style=""width:200px; border:14px solid green;"">","null","","","","","","","","","",""
"","image-keyboard-response","76","110411","0.0-76.0","3BXQMRHWK0KOXR0YLR50CWKVMNCMUZ","A2JZTR2ZSALGH4","3ECKRY5B1QIH1N6NFX1ECCW5ZDKIZQ","","508.30000000074506","img/land5.png","74","511.5","1","1","1","1","0.8,0.2,0.2,0.2,0.8,0.2,0.2,0.2,0.8","0.8,0.2,0.2,0.2,0.8,0.2,0.2,0.2,0.8","1","",""
"","html-keyboard-response","77","110715","0.0-77.0","3BXQMRHWK0KOXR0YLR50CWKVMNCMUZ","A2JZTR2ZSALGH4","3ECKRY5B1QIH1N6NFX1ECCW5ZDKIZQ","","null","<img src=""img/land5.png"" style=""width:200px; border:14px solid green;"">","null","","","","","","","","","",""
"","image-keyboard-response","78","111479","0.0-78.0","3BXQMRHWK0KOXR0YLR50CWKVMNCMUZ","A2JZTR2ZSALGH4","3ECKRY5B1QIH1N6NFX1ECCW5ZDKIZQ","","757.3999999985099","img/land3.png","75","763.2000000011176","2","1","2","1","0.8,0.2,0.2,0.2,0.8,0.2,0.2,0.2,0.8","0.8,0.2,0.2,0.2,0.8,0.2,0.2,0.2,0.8","1","",""
"","html-keyboard-response","79","111787","0.0-79.0","3BXQMRHWK0KOXR0YLR50CWKVMNCMUZ","A2JZTR2ZSALGH4","3ECKRY5B1QIH1N6NFX1ECCW5ZDKIZQ","","null","<img src=""img/land3.png"" style=""width:200px; border:14px solid green;"">","null","","","","","","","","","",""
"","image-keyboard-response","80","112457","0.0-80.0","3BXQMRHWK0KOXR0YLR50CWKVMNCMUZ","A2JZTR2ZSALGH4","3ECKRY5B1QIH1N6NFX1ECCW5ZDKIZQ","","661.3999999985099","img/land6.png","76","668.6999999992549","3","1","3","1","0.8,0.2,0.2,0.2,0.8,0.2,0.2,0.2,0.8","0.8,0.2,0.2,0.2,0.8,0.2,0.2,0.2,0.8","1","",""
"","html-keyboard-response","81","112763","0.0-81.0","3BXQMRHWK0KOXR0YLR50CWKVMNCMUZ","A2JZTR2ZSALGH4","3ECKRY5B1QIH1N6NFX1ECCW5ZDKIZQ","","null","<img src=""img/land6.png"" style=""width:200px; border:14px solid green;"">","null","","","","","","","","","",""
"","image-keyboard-response","82","113775","0.0-82.0","3BXQMRHWK0KOXR0YLR50CWKVMNCMUZ","A2JZTR2ZSALGH4","3ECKRY5B1QIH1N6NFX1ECCW5ZDKIZQ","","1003","img/land3.png","75","1011","2","1","2","1","0.8,0.2,0.2,0.2,0.8,0.2,0.2,0.2,0.8","0.8,0.2,0.2,0.2,0.8,0.2,0.2,0.2,0.8","1","",""
"","html-keyboard-response","83","114081","0.0-83.0","3BXQMRHWK0KOXR0YLR50CWKVMNCMUZ","A2JZTR2ZSALGH4","3ECKRY5B1QIH1N6NFX1ECCW5ZDKIZQ","","null","<img src=""img/land3.png"" style=""width:200px; border:14px solid green;"">","null","","","","","","","","","",""
"","image-keyboard-response","84","115018","0.0-84.0","3BXQMRHWK0KOXR0YLR50CWKVMNCMUZ","A2JZTR2ZSALGH4","3ECKRY5B1QIH1N6NFX1ECCW5ZDKIZQ","","931.5999999996275","img/land6.png","76","935.6999999992549","3","1","3","1","0.8,0.2,0.2,0.2,0.8,0.2,0.2,0.2,0.8","0.8,0.2,0.2,0.2,0.8,0.2,0.2,0.2,0.8","1","",""
"","html-keyboard-response","85","115326","0.0-85.0","3BXQMRHWK0KOXR0YLR50CWKVMNCMUZ","A2JZTR2ZSALGH4","3ECKRY5B1QIH1N6NFX1ECCW5ZDKIZQ","","null","<img src=""img/land6.png"" style=""width:200px; border:14px solid green;"">","null","","","","","","","","","",""
"","image-keyboard-response","86","116125","0.0-86.0","3BXQMRHWK0KOXR0YLR50CWKVMNCMUZ","A2JZTR2ZSALGH4","3ECKRY5B1QIH1N6NFX1ECCW5ZDKIZQ","","789.5","img/land5.png","74","797.5","1","1","1","1","0.8,0.2,0.2,0.2,0.8,0.2,0.2,0.2,0.8","0.8,0.2,0.2,0.2,0.8,0.2,0.2,0.2,0.8","1","",""
"","html-keyboard-response","87","116431","0.0-87.0","3BXQMRHWK0KOXR0YLR50CWKVMNCMUZ","A2JZTR2ZSALGH4","3ECKRY5B1QIH1N6NFX1ECCW5ZDKIZQ","","null","<img src=""img/land5.png"" style=""width:200px; border:14px solid green;"">","null","","","","","","","","","",""
"","image-keyboard-response","88","117395","0.0-88.0","3BXQMRHWK0KOXR0YLR50CWKVMNCMUZ","A2JZTR2ZSALGH4","3ECKRY5B1QIH1N6NFX1ECCW5ZDKIZQ","","958.1999999992549","img/land3.png","75","962.9000000003725","2","1","2","1","0.8,0.2,0.2,0.2,0.8,0.2,0.2,0.2,0.8","0.8,0.2,0.2,0.2,0.8,0.2,0.2,0.2,0.8","1","",""
"","html-keyboard-response","89","117700","0.0-89.0","3BXQMRHWK0KOXR0YLR50CWKVMNCMUZ","A2JZTR2ZSALGH4","3ECKRY5B1QIH1N6NFX1ECCW5ZDKIZQ","","null","<img src=""img/land3.png"" style=""width:200px; border:14px solid green;"">","null","","","","","","","","","",""
"","image-keyboard-response","90","118893","0.0-90.0","3BXQMRHWK0KOXR0YLR50CWKVMNCMUZ","A2JZTR2ZSALGH4","3ECKRY5B1QIH1N6NFX1ECCW5ZDKIZQ","","1185.4000000003725","img/land6.png","76","1191.5999999996275","3","1","3","1","0.8,0.2,0.2,0.2,0.8,0.2,0.2,0.2,0.8","0.8,0.2,0.2,0.2,0.8,0.2,0.2,0.2,0.8","1","",""
"","html-keyboard-response","91","119197","0.0-91.0","3BXQMRHWK0KOXR0YLR50CWKVMNCMUZ","A2JZTR2ZSALGH4","3ECKRY5B1QIH1N6NFX1ECCW5ZDKIZQ","","null","<img src=""img/land6.png"" style=""width:200px; border:14px solid green;"">","null","","","","","","","","","",""
"","image-keyboard-response","92","119909","0.0-92.0","3BXQMRHWK0KOXR0YLR50CWKVMNCMUZ","A2JZTR2ZSALGH4","3ECKRY5B1QIH1N6NFX1ECCW5ZDKIZQ","","704.0999999996275","img/land5.png","74","709.6999999992549","1","1","1","1","0.8,0.2,0.2,0.2,0.8,0.2,0.2,0.2,0.8","0.8,0.2,0.2,0.2,0.8,0.2,0.2,0.2,0.8","1","",""
"","html-keyboard-response","93","120214","0.0-93.0","3BXQMRHWK0KOXR0YLR50CWKVMNCMUZ","A2JZTR2ZSALGH4","3ECKRY5B1QIH1N6NFX1ECCW5ZDKIZQ","","null","<img src=""img/land5.png"" style=""width:200px; border:14px solid green;"">","null","","","","","","","","","",""
"","image-keyboard-response","94","121555","0.0-94.0","3BXQMRHWK0KOXR0YLR50CWKVMNCMUZ","A2JZTR2ZSALGH4","3ECKRY5B1QIH1N6NFX1ECCW5ZDKIZQ","","1334.6000000014901","img/land6.png","76","1338.800000000745","3","1","3","1","0.8,0.2,0.2,0.2,0.8,0.2,0.2,0.2,0.8","0.8,0.2,0.2,0.2,0.8,0.2,0.2,0.2,0.8","1","",""
"","html-keyboard-response","95","121862","0.0-95.0","3BXQMRHWK0KOXR0YLR50CWKVMNCMUZ","A2JZTR2ZSALGH4","3ECKRY5B1QIH1N6NFX1ECCW5ZDKIZQ","","null","<img src=""img/land6.png"" style=""width:200px; border:14px solid green;"">","null","","","","","","","","","",""
"","image-keyboard-response","96","122576","0.0-96.0","3BXQMRHWK0KOXR0YLR50CWKVMNCMUZ","A2JZTR2ZSALGH4","3ECKRY5B1QIH1N6NFX1ECCW5ZDKIZQ","","706.4000000003725","img/land6.png","76","712.1000000014901","3","1","3","1","0.8,0.2,0.2,0.2,0.8,0.2,0.2,0.2,0.8","0.8,0.2,0.2,0.2,0.8,0.2,0.2,0.2,0.8","1","",""
"","html-keyboard-response","97","122880","0.0-97.0","3BXQMRHWK0KOXR0YLR50CWKVMNCMUZ","A2JZTR2ZSALGH4","3ECKRY5B1QIH1N6NFX1ECCW5ZDKIZQ","","null","<img src=""img/land6.png"" style=""width:200px; border:14px solid green;"">","null","","","","","","","","","",""
"","image-keyboard-response","98","123652","0.0-98.0","3BXQMRHWK0KOXR0YLR50CWKVMNCMUZ","A2JZTR2ZSALGH4","3ECKRY5B1QIH1N6NFX1ECCW5ZDKIZQ","","765","img/land3.png","75","770.5","2","1","2","1","0.8,0.2,0.2,0.2,0.8,0.2,0.2,0.2,0.8","0.8,0.2,0.2,0.2,0.8,0.2,0.2,0.2,0.8","1","",""
"","html-keyboard-response","99","123956","0.0-99.0","3BXQMRHWK0KOXR0YLR50CWKVMNCMUZ","A2JZTR2ZSALGH4","3ECKRY5B1QIH1N6NFX1ECCW5ZDKIZQ","","null","<img src=""img/land3.png"" style=""width:200px; border:14px solid green;"">","null","","","","","","","","","",""
"","image-keyboard-response","100","124892","0.0-100.0","3BXQMRHWK0KOXR0YLR50CWKVMNCMUZ","A2JZTR2ZSALGH4","3ECKRY5B1QIH1N6NFX1ECCW5ZDKIZQ","","927.1999999992549","img/land3.png","75","933.2999999988824","2","1","2","1","0.8,0.2,0.2,0.2,0.8,0.2,0.2,0.2,0.8","0.8,0.2,0.2,0.2,0.8,0.2,0.2,0.2,0.8","1","",""
"","html-keyboard-response","101","125200","0.0-101.0","3BXQMRHWK0KOXR0YLR50CWKVMNCMUZ","A2JZTR2ZSALGH4","3ECKRY5B1QIH1N6NFX1ECCW5ZDKIZQ","","null","<img src=""img/land3.png"" style=""width:200px; border:14px solid green;"">","null","","","","","","","","","",""
"","image-keyboard-response","102","126517","0.0-102.0","3BXQMRHWK0KOXR0YLR50CWKVMNCMUZ","A2JZTR2ZSALGH4","3ECKRY5B1QIH1N6NFX1ECCW5ZDKIZQ","","1308.5999999996275","img/land6.png","76","1315.5999999996275","3","1","3","1","0.8,0.2,0.2,0.2,0.8,0.2,0.2,0.2,0.8","0.8,0.2,0.2,0.2,0.8,0.2,0.2,0.2,0.8","1","",""
"","html-keyboard-response","103","126825","0.0-103.0","3BXQMRHWK0KOXR0YLR50CWKVMNCMUZ","A2JZTR2ZSALGH4","3ECKRY5B1QIH1N6NFX1ECCW5ZDKIZQ","","null","<img src=""img/land6.png"" style=""width:200px; border:14px solid green;"">","null","","","","","","","","","",""
"","image-keyboard-response","104","127580","0.0-104.0","3BXQMRHWK0KOXR0YLR50CWKVMNCMUZ","A2JZTR2ZSALGH4","3ECKRY5B1QIH1N6NFX1ECCW5ZDKIZQ","","747.5999999996275","img/land6.png","76","753.7000000011176","3","1","3","1","0.8,0.2,0.2,0.2,0.8,0.2,0.2,0.2,0.8","0.8,0.2,0.2,0.2,0.8,0.2,0.2,0.2,0.8","1","",""
"","html-keyboard-response","105","127887","0.0-105.0","3BXQMRHWK0KOXR0YLR50CWKVMNCMUZ","A2JZTR2ZSALGH4","3ECKRY5B1QIH1N6NFX1ECCW5ZDKIZQ","","null","<img src=""img/land6.png"" style=""width:200px; border:14px solid green;"">","null","","","","","","","","","",""
"","image-keyboard-response","106","128719","0.0-106.0","3BXQMRHWK0KOXR0YLR50CWKVMNCMUZ","A2JZTR2ZSALGH4","3ECKRY5B1QIH1N6NFX1ECCW5ZDKIZQ","","825.8000000007451","img/land5.png","74","830.8000000007451","1","0","1","1","0.8,0.2,0.2,0.2,0.8,0.2,0.2,0.2,0.8","0.8,0.2,0.2,0.2,0.8,0.2,0.2,0.2,0.8","1","",""
"","html-keyboard-response","107","129029","0.0-107.0","3BXQMRHWK0KOXR0YLR50CWKVMNCMUZ","A2JZTR2ZSALGH4","3ECKRY5B1QIH1N6NFX1ECCW5ZDKIZQ","","null","<img src=""img/land5.png"" style=""width:200px;border:14px solid red;"">","null","","","","","","","","","",""
"","image-keyboard-response","108","129777","0.0-108.0","3BXQMRHWK0KOXR0YLR50CWKVMNCMUZ","A2JZTR2ZSALGH4","3ECKRY5B1QIH1N6NFX1ECCW5ZDKIZQ","","740.8000000007451","img/land5.png","74","746","1","1","1","1","0.8,0.2,0.2,0.2,0.8,0.2,0.2,0.2,0.8","0.8,0.2,0.2,0.2,0.8,0.2,0.2,0.2,0.8","1","",""
"","html-keyboard-response","109","130085","0.0-109.0","3BXQMRHWK0KOXR0YLR50CWKVMNCMUZ","A2JZTR2ZSALGH4","3ECKRY5B1QIH1N6NFX1ECCW5ZDKIZQ","","null","<img src=""img/land5.png"" style=""width:200px; border:14px solid green;"">","null","","","","","","","","","",""
"","image-keyboard-response","110","131195","0.0-110.0","3BXQMRHWK0KOXR0YLR50CWKVMNCMUZ","A2JZTR2ZSALGH4","3ECKRY5B1QIH1N6NFX1ECCW5ZDKIZQ","","1102.800000000745","img/land3.png","75","1109","2","1","2","1","0.8,0.2,0.2,0.2,0.8,0.2,0.2,0.2,0.8","0.8,0.2,0.2,0.2,0.8,0.2,0.2,0.2,0.8","1","",""
"","html-keyboard-response","111","131502","0.0-111.0","3BXQMRHWK0KOXR0YLR50CWKVMNCMUZ","A2JZTR2ZSALGH4","3ECKRY5B1QIH1N6NFX1ECCW5ZDKIZQ","","null","<img src=""img/land3.png"" style=""width:200px; border:14px solid green;"">","null","","","","","","","","","",""
"","image-keyboard-response","112","132258","0.0-112.0","3BXQMRHWK0KOXR0YLR50CWKVMNCMUZ","A2JZTR2ZSALGH4","3ECKRY5B1QIH1N6NFX1ECCW5ZDKIZQ","","748.0999999996275","img/land5.png","74","755.3999999985099","1","1","1","1","0.8,0.2,0.2,0.2,0.8,0.2,0.2,0.2,0.8","0.8,0.2,0.2,0.2,0.8,0.2,0.2,0.2,0.8","1","",""
"","html-keyboard-response","113","132564","0.0-113.0","3BXQMRHWK0KOXR0YLR50CWKVMNCMUZ","A2JZTR2ZSALGH4","3ECKRY5B1QIH1N6NFX1ECCW5ZDKIZQ","","null","<img src=""img/land5.png"" style=""width:200px; border:14px solid green;"">","null","","","","","","","","","",""
"","image-keyboard-response","114","133302","0.0-114.0","3BXQMRHWK0KOXR0YLR50CWKVMNCMUZ","A2JZTR2ZSALGH4","3ECKRY5B1QIH1N6NFX1ECCW5ZDKIZQ","","731.5","img/land5.png","74","736.5","1","1","1","1","0.8,0.2,0.2,0.2,0.8,0.2,0.2,0.2,0.8","0.8,0.2,0.2,0.2,0.8,0.2,0.2,0.2,0.8","1","",""
"","html-keyboard-response","115","133611","0.0-115.0","3BXQMRHWK0KOXR0YLR50CWKVMNCMUZ","A2JZTR2ZSALGH4","3ECKRY5B1QIH1N6NFX1ECCW5ZDKIZQ","","null","<img src=""img/land5.png"" style=""width:200px; border:14px solid green;"">","null","","","","","","","","","",""
"","image-keyboard-response","116","134512","0.0-116.0","3BXQMRHWK0KOXR0YLR50CWKVMNCMUZ","A2JZTR2ZSALGH4","3ECKRY5B1QIH1N6NFX1ECCW5ZDKIZQ","","895.7000000011176","img/land6.png","76","899.3000000007451","3","1","3","1","0.8,0.2,0.2,0.2,0.8,0.2,0.2,0.2,0.8","0.8,0.2,0.2,0.2,0.8,0.2,0.2,0.2,0.8","1","",""
"","html-keyboard-response","117","134818","0.0-117.0","3BXQMRHWK0KOXR0YLR50CWKVMNCMUZ","A2JZTR2ZSALGH4","3ECKRY5B1QIH1N6NFX1ECCW5ZDKIZQ","","null","<img src=""img/land6.png"" style=""width:200px; border:14px solid green;"">","null","","","","","","","","","",""
"","image-keyboard-response","118","136240","0.0-118.0","3BXQMRHWK0KOXR0YLR50CWKVMNCMUZ","A2JZTR2ZSALGH4","3ECKRY5B1QIH1N6NFX1ECCW5ZDKIZQ","","1415.2000000011176","img/land5.png","74","1421.5","1","1","1","1","0.8,0.2,0.2,0.2,0.8,0.2,0.2,0.2,0.8","0.8,0.2,0.2,0.2,0.8,0.2,0.2,0.2,0.8","1","",""
"","html-keyboard-response","119","136546","0.0-119.0","3BXQMRHWK0KOXR0YLR50CWKVMNCMUZ","A2JZTR2ZSALGH4","3ECKRY5B1QIH1N6NFX1ECCW5ZDKIZQ","","null","<img src=""img/land5.png"" style=""width:200px; border:14px solid green;"">","null","","","","","","","","","",""
"","image-keyboard-response","120","137444","0.0-120.0","3BXQMRHWK0KOXR0YLR50CWKVMNCMUZ","A2JZTR2ZSALGH4","3ECKRY5B1QIH1N6NFX1ECCW5ZDKIZQ","","890.5","img/land3.png","75","896.0999999996275","2","1","2","1","0.8,0.2,0.2,0.2,0.8,0.2,0.2,0.2,0.8","0.8,0.2,0.2,0.2,0.8,0.2,0.2,0.2,0.8","1","",""
"","html-keyboard-response","121","137750","0.0-121.0","3BXQMRHWK0KOXR0YLR50CWKVMNCMUZ","A2JZTR2ZSALGH4","3ECKRY5B1QIH1N6NFX1ECCW5ZDKIZQ","","null","<img src=""img/land3.png"" style=""width:200px; border:14px solid green;"">","null","","","","","","","","","",""
"","image-keyboard-response","122","138486","0.0-122.0","3BXQMRHWK0KOXR0YLR50CWKVMNCMUZ","A2JZTR2ZSALGH4","3ECKRY5B1QIH1N6NFX1ECCW5ZDKIZQ","","729.2000000011176","img/land3.png","75","734.1999999992549","2","0","2","1","0.8,0.2,0.2,0.2,0.8,0.2,0.2,0.2,0.8","0.8,0.2,0.2,0.2,0.8,0.2,0.2,0.2,0.8","1","",""
"","html-keyboard-response","123","138792","0.0-123.0","3BXQMRHWK0KOXR0YLR50CWKVMNCMUZ","A2JZTR2ZSALGH4","3ECKRY5B1QIH1N6NFX1ECCW5ZDKIZQ","","null","<img src=""img/land3.png"" style=""width:200px;border:14px solid red;"">","null","","","","","","","","","",""
"","image-keyboard-response","124","139702","0.0-124.0","3BXQMRHWK0KOXR0YLR50CWKVMNCMUZ","A2JZTR2ZSALGH4","3ECKRY5B1QIH1N6NFX1ECCW5ZDKIZQ","","904.0999999996275","img/land6.png","76","908","3","0","3","1","0.8,0.2,0.2,0.2,0.8,0.2,0.2,0.2,0.8","0.8,0.2,0.2,0.2,0.8,0.2,0.2,0.2,0.8","1","",""
"","html-keyboard-response","125","140008","0.0-125.0","3BXQMRHWK0KOXR0YLR50CWKVMNCMUZ","A2JZTR2ZSALGH4","3ECKRY5B1QIH1N6NFX1ECCW5ZDKIZQ","","null","<img src=""img/land6.png"" style=""width:200px;border:14px solid red;"">","null","","","","","","","","","",""
"","image-keyboard-response","126","141061","0.0-126.0","3BXQMRHWK0KOXR0YLR50CWKVMNCMUZ","A2JZTR2ZSALGH4","3ECKRY5B1QIH1N6NFX1ECCW5ZDKIZQ","","1046.0999999996275","img/land6.png","76","1052.300000000745","3","1","3","1","0.8,0.2,0.2,0.2,0.8,0.2,0.2,0.2,0.8","0.8,0.2,0.2,0.2,0.8,0.2,0.2,0.2,0.8","1","",""
"","html-keyboard-response","127","141369","0.0-127.0","3BXQMRHWK0KOXR0YLR50CWKVMNCMUZ","A2JZTR2ZSALGH4","3ECKRY5B1QIH1N6NFX1ECCW5ZDKIZQ","","null","<img src=""img/land6.png"" style=""width:200px; border:14px solid green;"">","null","","","","","","","","","",""
"","image-keyboard-response","128","142197","0.0-128.0","3BXQMRHWK0KOXR0YLR50CWKVMNCMUZ","A2JZTR2ZSALGH4","3ECKRY5B1QIH1N6NFX1ECCW5ZDKIZQ","","818","img/land3.png","75","826.5999999996275","2","1","2","1","0.8,0.2,0.2,0.2,0.8,0.2,0.2,0.2,0.8","0.8,0.2,0.2,0.2,0.8,0.2,0.2,0.2,0.8","1","",""
"","html-keyboard-response","129","142502","0.0-129.0","3BXQMRHWK0KOXR0YLR50CWKVMNCMUZ","A2JZTR2ZSALGH4","3ECKRY5B1QIH1N6NFX1ECCW5ZDKIZQ","","null","<img src=""img/land3.png"" style=""width:200px; border:14px solid green;"">","null","","","","","","","","","",""
"","image-keyboard-response","130","143226","0.0-130.0","3BXQMRHWK0KOXR0YLR50CWKVMNCMUZ","A2JZTR2ZSALGH4","3ECKRY5B1QIH1N6NFX1ECCW5ZDKIZQ","","714.0999999996275","img/land5.png","74","722","1","1","1","1","0.8,0.2,0.2,0.2,0.8,0.2,0.2,0.2,0.8","0.8,0.2,0.2,0.2,0.8,0.2,0.2,0.2,0.8","1","",""
"","html-keyboard-response","131","143532","0.0-131.0","3BXQMRHWK0KOXR0YLR50CWKVMNCMUZ","A2JZTR2ZSALGH4","3ECKRY5B1QIH1N6NFX1ECCW5ZDKIZQ","","null","<img src=""img/land5.png"" style=""width:200px; border:14px solid green;"">","null","","","","","","","","","",""
"","image-keyboard-response","132","144825","0.0-132.0","3BXQMRHWK0KOXR0YLR50CWKVMNCMUZ","A2JZTR2ZSALGH4","3ECKRY5B1QIH1N6NFX1ECCW5ZDKIZQ","","1285.9000000003725","img/land6.png","76","1291.9000000003725","3","0","3","1","0.8,0.2,0.2,0.2,0.8,0.2,0.2,0.2,0.8","0.8,0.2,0.2,0.2,0.8,0.2,0.2,0.2,0.8","1","",""
"","html-keyboard-response","133","145129","0.0-133.0","3BXQMRHWK0KOXR0YLR50CWKVMNCMUZ","A2JZTR2ZSALGH4","3ECKRY5B1QIH1N6NFX1ECCW5ZDKIZQ","","null","<img src=""img/land6.png"" style=""width:200px;border:14px solid red;"">","null","","","","","","","","","",""
"","image-keyboard-response","134","146022","0.0-134.0","3BXQMRHWK0KOXR0YLR50CWKVMNCMUZ","A2JZTR2ZSALGH4","3ECKRY5B1QIH1N6NFX1ECCW5ZDKIZQ","","886.1000000014901","img/land6.png","76","891.3999999985099","3","1","3","1","0.8,0.2,0.2,0.2,0.8,0.2,0.2,0.2,0.8","0.8,0.2,0.2,0.2,0.8,0.2,0.2,0.2,0.8","1","",""
"","html-keyboard-response","135","146329","0.0-135.0","3BXQMRHWK0KOXR0YLR50CWKVMNCMUZ","A2JZTR2ZSALGH4","3ECKRY5B1QIH1N6NFX1ECCW5ZDKIZQ","","null","<img src=""img/land6.png"" style=""width:200px; border:14px solid green;"">","null","","","","","","","","","",""
"","image-keyboard-response","136","147198","0.0-136.0","3BXQMRHWK0KOXR0YLR50CWKVMNCMUZ","A2JZTR2ZSALGH4","3ECKRY5B1QIH1N6NFX1ECCW5ZDKIZQ","","863.1999999992549","img/land5.png","74","867.7999999988824","1","1","1","1","0.8,0.2,0.2,0.2,0.8,0.2,0.2,0.2,0.8","0.8,0.2,0.2,0.2,0.8,0.2,0.2,0.2,0.8","1","",""
"","html-keyboard-response","137","147503","0.0-137.0","3BXQMRHWK0KOXR0YLR50CWKVMNCMUZ","A2JZTR2ZSALGH4","3ECKRY5B1QIH1N6NFX1ECCW5ZDKIZQ","","null","<img src=""img/land5.png"" style=""width:200px; border:14px solid green;"">","null","","","","","","","","","",""
"","image-keyboard-response","138","149190","0.0-138.0","3BXQMRHWK0KOXR0YLR50CWKVMNCMUZ","A2JZTR2ZSALGH4","3ECKRY5B1QIH1N6NFX1ECCW5ZDKIZQ","","1679.5","img/land6.png","76","1685.800000000745","3","1","3","1","0.8,0.2,0.2,0.2,0.8,0.2,0.2,0.2,0.8","0.8,0.2,0.2,0.2,0.8,0.2,0.2,0.2,0.8","1","",""
"","html-keyboard-response","139","149495","0.0-139.0","3BXQMRHWK0KOXR0YLR50CWKVMNCMUZ","A2JZTR2ZSALGH4","3ECKRY5B1QIH1N6NFX1ECCW5ZDKIZQ","","null","<img src=""img/land6.png"" style=""width:200px; border:14px solid green;"">","null","","","","","","","","","",""
"","image-keyboard-response","140","150602","0.0-140.0","3BXQMRHWK0KOXR0YLR50CWKVMNCMUZ","A2JZTR2ZSALGH4","3ECKRY5B1QIH1N6NFX1ECCW5ZDKIZQ","","1099.5999999996275","img/land6.png","76","1105.5","3","0","3","1","0.8,0.2,0.2,0.2,0.8,0.2,0.2,0.2,0.8","0.8,0.2,0.2,0.2,0.8,0.2,0.2,0.2,0.8","1","",""
"","html-keyboard-response","141","150907","0.0-141.0","3BXQMRHWK0KOXR0YLR50CWKVMNCMUZ","A2JZTR2ZSALGH4","3ECKRY5B1QIH1N6NFX1ECCW5ZDKIZQ","","null","<img src=""img/land6.png"" style=""width:200px;border:14px solid red;"">","null","","","","","","","","","",""
"","image-keyboard-response","142","151652","0.0-142.0","3BXQMRHWK0KOXR0YLR50CWKVMNCMUZ","A2JZTR2ZSALGH4","3ECKRY5B1QIH1N6NFX1ECCW5ZDKIZQ","","736.1999999992549","img/land5.png","74","742.4000000003725","1","1","1","1","0.8,0.2,0.2,0.2,0.8,0.2,0.2,0.2,0.8","0.8,0.2,0.2,0.2,0.8,0.2,0.2,0.2,0.8","1","",""
"","html-keyboard-response","143","151955","0.0-143.0","3BXQMRHWK0KOXR0YLR50CWKVMNCMUZ","A2JZTR2ZSALGH4","3ECKRY5B1QIH1N6NFX1ECCW5ZDKIZQ","","null","<img src=""img/land5.png"" style=""width:200px; border:14px solid green;"">","null","","","","","","","","","",""
"","image-keyboard-response","144","152849","0.0-144.0","3BXQMRHWK0KOXR0YLR50CWKVMNCMUZ","A2JZTR2ZSALGH4","3ECKRY5B1QIH1N6NFX1ECCW5ZDKIZQ","","888.2999999988824","img/land5.png","74","892.4000000003725","1","1","1","1","0.8,0.2,0.2,0.2,0.8,0.2,0.2,0.2,0.8","0.8,0.2,0.2,0.2,0.8,0.2,0.2,0.2,0.8","1","",""
"","html-keyboard-response","145","153154","0.0-145.0","3BXQMRHWK0KOXR0YLR50CWKVMNCMUZ","A2JZTR2ZSALGH4","3ECKRY5B1QIH1N6NFX1ECCW5ZDKIZQ","","null","<img src=""img/land5.png"" style=""width:200px; border:14px solid green;"">","null","","","","","","","","","",""
"","image-keyboard-response","146","153796","0.0-146.0","3BXQMRHWK0KOXR0YLR50CWKVMNCMUZ","A2JZTR2ZSALGH4","3ECKRY5B1QIH1N6NFX1ECCW5ZDKIZQ","","635.7000000011176","img/land3.png","75","640.5","2","1","2","1","0.8,0.2,0.2,0.2,0.8,0.2,0.2,0.2,0.8","0.8,0.2,0.2,0.2,0.8,0.2,0.2,0.2,0.8","1","",""
"","html-keyboard-response","147","154101","0.0-147.0","3BXQMRHWK0KOXR0YLR50CWKVMNCMUZ","A2JZTR2ZSALGH4","3ECKRY5B1QIH1N6NFX1ECCW5ZDKIZQ","","null","<img src=""img/land3.png"" style=""width:200px; border:14px solid green;"">","null","","","","","","","","","",""
"","image-keyboard-response","148","155205","0.0-148.0","3BXQMRHWK0KOXR0YLR50CWKVMNCMUZ","A2JZTR2ZSALGH4","3ECKRY5B1QIH1N6NFX1ECCW5ZDKIZQ","","1097.7999999988824","img/land5.png","76","1103.2999999988824","3","0","1","1","0.8,0.2,0.2,0.2,0.8,0.2,0.2,0.2,0.8","0.8,0.2,0.2,0.2,0.8,0.2,0.2,0.2,0.8","1","",""
"","html-keyboard-response","149","155513","0.0-149.0","3BXQMRHWK0KOXR0YLR50CWKVMNCMUZ","A2JZTR2ZSALGH4","3ECKRY5B1QIH1N6NFX1ECCW5ZDKIZQ","","null","<img src=""img/land5.png"" style=""width:200px;border:14px solid red;"">","null","","","","","","","","","",""
"","image-keyboard-response","150","156190","0.0-150.0","3BXQMRHWK0KOXR0YLR50CWKVMNCMUZ","A2JZTR2ZSALGH4","3ECKRY5B1QIH1N6NFX1ECCW5ZDKIZQ","","669.5","img/land5.png","76","675.6999999992549","3","0","1","1","0.8,0.2,0.2,0.2,0.8,0.2,0.2,0.2,0.8","0.8,0.2,0.2,0.2,0.8,0.2,0.2,0.2,0.8","1","",""
"","html-keyboard-response","151","156497","0.0-151.0","3BXQMRHWK0KOXR0YLR50CWKVMNCMUZ","A2JZTR2ZSALGH4","3ECKRY5B1QIH1N6NFX1ECCW5ZDKIZQ","","null","<img src=""img/land5.png"" style=""width:200px;border:14px solid red;"">","null","","","","","","","","","",""
"","image-keyboard-response","152","157236","0.0-152.0","3BXQMRHWK0KOXR0YLR50CWKVMNCMUZ","A2JZTR2ZSALGH4","3ECKRY5B1QIH1N6NFX1ECCW5ZDKIZQ","","730.9000000003725","img/land3.png","75","738","2","1","2","1","0.8,0.2,0.2,0.2,0.8,0.2,0.2,0.2,0.8","0.8,0.2,0.2,0.2,0.8,0.2,0.2,0.2,0.8","1","",""
"","html-keyboard-response","153","157544","0.0-153.0","3BXQMRHWK0KOXR0YLR50CWKVMNCMUZ","A2JZTR2ZSALGH4","3ECKRY5B1QIH1N6NFX1ECCW5ZDKIZQ","","null","<img src=""img/land3.png"" style=""width:200px; border:14px solid green;"">","null","","","","","","","","","",""
"","image-keyboard-response","154","158375","0.0-154.0","3BXQMRHWK0KOXR0YLR50CWKVMNCMUZ","A2JZTR2ZSALGH4","3ECKRY5B1QIH1N6NFX1ECCW5ZDKIZQ","","824.2000000011176","img/land5.png","74","830","1","1","1","1","0.8,0.2,0.2,0.2,0.8,0.2,0.2,0.2,0.8","0.8,0.2,0.2,0.2,0.8,0.2,0.2,0.2,0.8","1","",""
"","html-keyboard-response","155","158680","0.0-155.0","3BXQMRHWK0KOXR0YLR50CWKVMNCMUZ","A2JZTR2ZSALGH4","3ECKRY5B1QIH1N6NFX1ECCW5ZDKIZQ","","null","<img src=""img/land5.png"" style=""width:200px; border:14px solid green;"">","null","","","","","","","","","",""
"","image-keyboard-response","156","159533","0.0-156.0","3BXQMRHWK0KOXR0YLR50CWKVMNCMUZ","A2JZTR2ZSALGH4","3ECKRY5B1QIH1N6NFX1ECCW5ZDKIZQ","","845.5","img/land6.png","76","851.0999999996275","3","0","3","1","0.8,0.2,0.2,0.2,0.8,0.2,0.2,0.2,0.8","0.8,0.2,0.2,0.2,0.8,0.2,0.2,0.2,0.8","1","",""
"","html-keyboard-response","157","159838","0.0-157.0","3BXQMRHWK0KOXR0YLR50CWKVMNCMUZ","A2JZTR2ZSALGH4","3ECKRY5B1QIH1N6NFX1ECCW5ZDKIZQ","","null","<img src=""img/land6.png"" style=""width:200px;border:14px solid red;"">","null","","","","","","","","","",""
"","image-keyboard-response","158","161271","0.0-158.0","3BXQMRHWK0KOXR0YLR50CWKVMNCMUZ","A2JZTR2ZSALGH4","3ECKRY5B1QIH1N6NFX1ECCW5ZDKIZQ","","1426.0999999996275","img/land5.png","74","1431.300000000745","1","1","1","1","0.8,0.2,0.2,0.2,0.8,0.2,0.2,0.2,0.8","0.8,0.2,0.2,0.2,0.8,0.2,0.2,0.2,0.8","1","",""
"","html-keyboard-response","159","161577","0.0-159.0","3BXQMRHWK0KOXR0YLR50CWKVMNCMUZ","A2JZTR2ZSALGH4","3ECKRY5B1QIH1N6NFX1ECCW5ZDKIZQ","","null","<img src=""img/land5.png"" style=""width:200px; border:14px solid green;"">","null","","","","","","","","","",""
"","image-keyboard-response","160","162729","0.0-160.0","3BXQMRHWK0KOXR0YLR50CWKVMNCMUZ","A2JZTR2ZSALGH4","3ECKRY5B1QIH1N6NFX1ECCW5ZDKIZQ","","1144.199999999255","img/land6.png","76","1150.6000000014901","3","1","3","1","0.8,0.2,0.2,0.2,0.8,0.2,0.2,0.2,0.8","0.8,0.2,0.2,0.2,0.8,0.2,0.2,0.2,0.8","1","",""
"","html-keyboard-response","161","163035","0.0-161.0","3BXQMRHWK0KOXR0YLR50CWKVMNCMUZ","A2JZTR2ZSALGH4","3ECKRY5B1QIH1N6NFX1ECCW5ZDKIZQ","","null","<img src=""img/land6.png"" style=""width:200px; border:14px solid green;"">","null","","","","","","","","","",""
"","image-keyboard-response","162","163728","0.0-162.0","3BXQMRHWK0KOXR0YLR50CWKVMNCMUZ","A2JZTR2ZSALGH4","3ECKRY5B1QIH1N6NFX1ECCW5ZDKIZQ","","683.9000000003725","img/land3.png","75","691.1999999992549","2","1","2","1","0.8,0.2,0.2,0.2,0.8,0.2,0.2,0.2,0.8","0.8,0.2,0.2,0.2,0.8,0.2,0.2,0.2,0.8","1","",""
"","html-keyboard-response","163","164034","0.0-163.0","3BXQMRHWK0KOXR0YLR50CWKVMNCMUZ","A2JZTR2ZSALGH4","3ECKRY5B1QIH1N6NFX1ECCW5ZDKIZQ","","null","<img src=""img/land3.png"" style=""width:200px; border:14px solid green;"">","null","","","","","","","","","",""
"","image-keyboard-response","164","165352","0.0-164.0","3BXQMRHWK0KOXR0YLR50CWKVMNCMUZ","A2JZTR2ZSALGH4","3ECKRY5B1QIH1N6NFX1ECCW5ZDKIZQ","","1313.2999999988824","img/land6.png","76","1316.5999999996275","3","1","3","1","0.8,0.2,0.2,0.2,0.8,0.2,0.2,0.2,0.8","0.8,0.2,0.2,0.2,0.8,0.2,0.2,0.2,0.8","1","",""
"","html-keyboard-response","165","165655","0.0-165.0","3BXQMRHWK0KOXR0YLR50CWKVMNCMUZ","A2JZTR2ZSALGH4","3ECKRY5B1QIH1N6NFX1ECCW5ZDKIZQ","","null","<img src=""img/land6.png"" style=""width:200px; border:14px solid green;"">","null","","","","","","","","","",""
"","image-keyboard-response","166","166518","0.0-166.0","3BXQMRHWK0KOXR0YLR50CWKVMNCMUZ","A2JZTR2ZSALGH4","3ECKRY5B1QIH1N6NFX1ECCW5ZDKIZQ","","859.6999999992549","img/land3.png","75","862.7999999988824","2","1","2","1","0.8,0.2,0.2,0.2,0.8,0.2,0.2,0.2,0.8","0.8,0.2,0.2,0.2,0.8,0.2,0.2,0.2,0.8","1","",""
"","html-keyboard-response","167","166825","0.0-167.0","3BXQMRHWK0KOXR0YLR50CWKVMNCMUZ","A2JZTR2ZSALGH4","3ECKRY5B1QIH1N6NFX1ECCW5ZDKIZQ","","null","<img src=""img/land3.png"" style=""width:200px; border:14px solid green;"">","null","","","","","","","","","",""
"","image-keyboard-response","168","167584","0.0-168.0","3BXQMRHWK0KOXR0YLR50CWKVMNCMUZ","A2JZTR2ZSALGH4","3ECKRY5B1QIH1N6NFX1ECCW5ZDKIZQ","","752.3999999985099","img/land3.png","75","758","2","0","2","1","0.8,0.2,0.2,0.2,0.8,0.2,0.2,0.2,0.8","0.8,0.2,0.2,0.2,0.8,0.2,0.2,0.2,0.8","1","",""
"","html-keyboard-response","169","167893","0.0-169.0","3BXQMRHWK0KOXR0YLR50CWKVMNCMUZ","A2JZTR2ZSALGH4","3ECKRY5B1QIH1N6NFX1ECCW5ZDKIZQ","","null","<img src=""img/land3.png"" style=""width:200px;border:14px solid red;"">","null","","","","","","","","","",""
"","image-keyboard-response","170","168807","0.0-170.0","3BXQMRHWK0KOXR0YLR50CWKVMNCMUZ","A2JZTR2ZSALGH4","3ECKRY5B1QIH1N6NFX1ECCW5ZDKIZQ","","906.5","img/land5.png","74","913.2999999988824","1","1","1","1","0.8,0.2,0.2,0.2,0.8,0.2,0.2,0.2,0.8","0.8,0.2,0.2,0.2,0.8,0.2,0.2,0.2,0.8","1","",""
"","html-keyboard-response","171","169115","0.0-171.0","3BXQMRHWK0KOXR0YLR50CWKVMNCMUZ","A2JZTR2ZSALGH4","3ECKRY5B1QIH1N6NFX1ECCW5ZDKIZQ","","null","<img src=""img/land5.png"" style=""width:200px; border:14px solid green;"">","null","","","","","","","","","",""
"","image-keyboard-response","172","169708","0.0-172.0","3BXQMRHWK0KOXR0YLR50CWKVMNCMUZ","A2JZTR2ZSALGH4","3ECKRY5B1QIH1N6NFX1ECCW5ZDKIZQ","","586.2000000011176","img/land5.png","74","592.5","1","1","1","1","0.8,0.2,0.2,0.2,0.8,0.2,0.2,0.2,0.8","0.8,0.2,0.2,0.2,0.8,0.2,0.2,0.2,0.8","1","",""
"","html-keyboard-response","173","170015","0.0-173.0","3BXQMRHWK0KOXR0YLR50CWKVMNCMUZ","A2JZTR2ZSALGH4","3ECKRY5B1QIH1N6NFX1ECCW5ZDKIZQ","","null","<img src=""img/land5.png"" style=""width:200px; border:14px solid green;"">","null","","","","","","","","","",""
"","image-keyboard-response","174","170699","0.0-174.0","3BXQMRHWK0KOXR0YLR50CWKVMNCMUZ","A2JZTR2ZSALGH4","3ECKRY5B1QIH1N6NFX1ECCW5ZDKIZQ","","676.9000000003725","img/land5.png","74","682.5","1","1","1","1","0.8,0.2,0.2,0.2,0.8,0.2,0.2,0.2,0.8","0.8,0.2,0.2,0.2,0.8,0.2,0.2,0.2,0.8","1","",""
"","html-keyboard-response","175","171004","0.0-175.0","3BXQMRHWK0KOXR0YLR50CWKVMNCMUZ","A2JZTR2ZSALGH4","3ECKRY5B1QIH1N6NFX1ECCW5ZDKIZQ","","null","<img src=""img/land5.png"" style=""width:200px; border:14px solid green;"">","null","","","","","","","","","",""
"","image-keyboard-response","176","171864","0.0-176.0","3BXQMRHWK0KOXR0YLR50CWKVMNCMUZ","A2JZTR2ZSALGH4","3ECKRY5B1QIH1N6NFX1ECCW5ZDKIZQ","","853.4000000003725","img/land3.png","75","858.9000000003725","2","1","2","1","0.8,0.2,0.2,0.2,0.8,0.2,0.2,0.2,0.8","0.8,0.2,0.2,0.2,0.8,0.2,0.2,0.2,0.8","1","",""
"","html-keyboard-response","177","172170","0.0-177.0","3BXQMRHWK0KOXR0YLR50CWKVMNCMUZ","A2JZTR2ZSALGH4","3ECKRY5B1QIH1N6NFX1ECCW5ZDKIZQ","","null","<img src=""img/land3.png"" style=""width:200px; border:14px solid green;"">","null","","","","","","","","","",""
"","image-keyboard-response","178","173047","0.0-178.0","3BXQMRHWK0KOXR0YLR50CWKVMNCMUZ","A2JZTR2ZSALGH4","3ECKRY5B1QIH1N6NFX1ECCW5ZDKIZQ","","870","img/land3.png","75","875.4000000003725","2","1","2","1","0.8,0.2,0.2,0.2,0.8,0.2,0.2,0.2,0.8","0.8,0.2,0.2,0.2,0.8,0.2,0.2,0.2,0.8","1","",""
"","html-keyboard-response","179","173352","0.0-179.0","3BXQMRHWK0KOXR0YLR50CWKVMNCMUZ","A2JZTR2ZSALGH4","3ECKRY5B1QIH1N6NFX1ECCW5ZDKIZQ","","null","<img src=""img/land3.png"" style=""width:200px; border:14px solid green;"">","null","","","","","","","","","",""
"","image-keyboard-response","180","173996","0.0-180.0","3BXQMRHWK0KOXR0YLR50CWKVMNCMUZ","A2JZTR2ZSALGH4","3ECKRY5B1QIH1N6NFX1ECCW5ZDKIZQ","","635.6999999992549","img/land3.png","75","643.2999999988824","2","1","2","1","0.8,0.2,0.2,0.2,0.8,0.2,0.2,0.2,0.8","0.8,0.2,0.2,0.2,0.8,0.2,0.2,0.2,0.8","1","",""
"","html-keyboard-response","181","174303","0.0-181.0","3BXQMRHWK0KOXR0YLR50CWKVMNCMUZ","A2JZTR2ZSALGH4","3ECKRY5B1QIH1N6NFX1ECCW5ZDKIZQ","","null","<img src=""img/land3.png"" style=""width:200px; border:14px solid green;"">","null","","","","","","","","","",""
"","html-keyboard-response","182","177436","0.0-182.0","3BXQMRHWK0KOXR0YLR50CWKVMNCMUZ","A2JZTR2ZSALGH4","3ECKRY5B1QIH1N6NFX1ECCW5ZDKIZQ","","","","","","","","","","","","","",""
"","image-keyboard-response","183","178926","0.0-183.0","3BXQMRHWK0KOXR0YLR50CWKVMNCMUZ","A2JZTR2ZSALGH4","3ECKRY5B1QIH1N6NFX1ECCW5ZDKIZQ","","1481.5","img/land2.png","74","1489.300000000745","1","0","3","2","0.8,0.2,0.2,0.2,0.8,0.2,0.2,0.2,0.8","0.8,0.2,0.2,0.2,0.8,0.2,0.2,0.2,0.8","1","",""
"","html-keyboard-response","184","179234","0.0-184.0","3BXQMRHWK0KOXR0YLR50CWKVMNCMUZ","A2JZTR2ZSALGH4","3ECKRY5B1QIH1N6NFX1ECCW5ZDKIZQ","","null","<img src=""img/land2.png"" style=""width:200px;border:14px solid red;"">","null","","","","","","","","","",""
"","image-keyboard-response","185","180308","0.0-185.0","3BXQMRHWK0KOXR0YLR50CWKVMNCMUZ","A2JZTR2ZSALGH4","3ECKRY5B1QIH1N6NFX1ECCW5ZDKIZQ","","1062.800000000745","img/land4.png","74","1073.0999999996275","1","1","1","2","0.8,0.2,0.2,0.2,0.8,0.2,0.2,0.2,0.8","0.8,0.2,0.2,0.2,0.8,0.2,0.2,0.2,0.8","1","",""
"","html-keyboard-response","186","180616","0.0-186.0","3BXQMRHWK0KOXR0YLR50CWKVMNCMUZ","A2JZTR2ZSALGH4","3ECKRY5B1QIH1N6NFX1ECCW5ZDKIZQ","","null","<img src=""img/land4.png"" style=""width:200px; border:14px solid green;"">","null","","","","","","","","","",""
"","image-keyboard-response","187","182144","0.0-187.0","3BXQMRHWK0KOXR0YLR50CWKVMNCMUZ","A2JZTR2ZSALGH4","3ECKRY5B1QIH1N6NFX1ECCW5ZDKIZQ","","1524.5999999996275","img/land2.png","75","1528.7999999988824","2","1","3","2","0.8,0.2,0.2,0.2,0.8,0.2,0.2,0.2,0.8","0.8,0.2,0.2,0.2,0.8,0.2,0.2,0.2,0.8","1","",""
"","html-keyboard-response","188","182453","0.0-188.0","3BXQMRHWK0KOXR0YLR50CWKVMNCMUZ","A2JZTR2ZSALGH4","3ECKRY5B1QIH1N6NFX1ECCW5ZDKIZQ","","null","<img src=""img/land2.png"" style=""width:200px; border:14px solid green;"">","null","","","","","","","","","",""
"","image-keyboard-response","189","183969","0.0-189.0","3BXQMRHWK0KOXR0YLR50CWKVMNCMUZ","A2JZTR2ZSALGH4","3ECKRY5B1QIH1N6NFX1ECCW5ZDKIZQ","","1508.800000000745","img/land4.png","74","1513.5999999996275","1","1","1","2","0.8,0.2,0.2,0.2,0.8,0.2,0.2,0.2,0.8","0.8,0.2,0.2,0.2,0.8,0.2,0.2,0.2,0.8","1","",""
"","html-keyboard-response","190","184276","0.0-190.0","3BXQMRHWK0KOXR0YLR50CWKVMNCMUZ","A2JZTR2ZSALGH4","3ECKRY5B1QIH1N6NFX1ECCW5ZDKIZQ","","null","<img src=""img/land4.png"" style=""width:200px; border:14px solid green;"">","null","","","","","","","","","",""
"","image-keyboard-response","191","185476","0.0-191.0","3BXQMRHWK0KOXR0YLR50CWKVMNCMUZ","A2JZTR2ZSALGH4","3ECKRY5B1QIH1N6NFX1ECCW5ZDKIZQ","","1192.9000000003725","img/land1.png","76","1198.2000000011176","3","0","2","2","0.8,0.2,0.2,0.2,0.8,0.2,0.2,0.2,0.8","0.8,0.2,0.2,0.2,0.8,0.2,0.2,0.2,0.8","1","",""
"","html-keyboard-response","192","185783","0.0-192.0","3BXQMRHWK0KOXR0YLR50CWKVMNCMUZ","A2JZTR2ZSALGH4","3ECKRY5B1QIH1N6NFX1ECCW5ZDKIZQ","","null","<img src=""img/land1.png"" style=""width:200px;border:14px solid red;"">","null","","","","","","","","","",""
"","image-keyboard-response","193","186938","0.0-193.0","3BXQMRHWK0KOXR0YLR50CWKVMNCMUZ","A2JZTR2ZSALGH4","3ECKRY5B1QIH1N6NFX1ECCW5ZDKIZQ","","1145.7000000011176","img/land4.png","74","1153.4000000003725","1","1","1","2","0.8,0.2,0.2,0.2,0.8,0.2,0.2,0.2,0.8","0.8,0.2,0.2,0.2,0.8,0.2,0.2,0.2,0.8","1","",""
"","html-keyboard-response","194","187245","0.0-194.0","3BXQMRHWK0KOXR0YLR50CWKVMNCMUZ","A2JZTR2ZSALGH4","3ECKRY5B1QIH1N6NFX1ECCW5ZDKIZQ","","null","<img src=""img/land4.png"" style=""width:200px; border:14px solid green;"">","null","","","","","","","","","",""
"","image-keyboard-response","195","188760","0.0-195.0","3BXQMRHWK0KOXR0YLR50CWKVMNCMUZ","A2JZTR2ZSALGH4","3ECKRY5B1QIH1N6NFX1ECCW5ZDKIZQ","","1508.800000000745","img/land4.png","74","1513.5","1","1","1","2","0.8,0.2,0.2,0.2,0.8,0.2,0.2,0.2,0.8","0.8,0.2,0.2,0.2,0.8,0.2,0.2,0.2,0.8","1","",""
"","html-keyboard-response","196","189065","0.0-196.0","3BXQMRHWK0KOXR0YLR50CWKVMNCMUZ","A2JZTR2ZSALGH4","3ECKRY5B1QIH1N6NFX1ECCW5ZDKIZQ","","null","<img src=""img/land4.png"" style=""width:200px; border:14px solid green;"">","null","","","","","","","","","",""
"","image-keyboard-response","197","189775","0.0-197.0","3BXQMRHWK0KOXR0YLR50CWKVMNCMUZ","A2JZTR2ZSALGH4","3ECKRY5B1QIH1N6NFX1ECCW5ZDKIZQ","","703.2000000011176","img/land4.png","74","709.1999999992549","1","1","1","2","0.8,0.2,0.2,0.2,0.8,0.2,0.2,0.2,0.8","0.8,0.2,0.2,0.2,0.8,0.2,0.2,0.2,0.8","1","",""
"","html-keyboard-response","198","190082","0.0-198.0","3BXQMRHWK0KOXR0YLR50CWKVMNCMUZ","A2JZTR2ZSALGH4","3ECKRY5B1QIH1N6NFX1ECCW5ZDKIZQ","","null","<img src=""img/land4.png"" style=""width:200px; border:14px solid green;"">","null","","","","","","","","","",""
"","image-keyboard-response","199","190660","0.0-199.0","3BXQMRHWK0KOXR0YLR50CWKVMNCMUZ","A2JZTR2ZSALGH4","3ECKRY5B1QIH1N6NFX1ECCW5ZDKIZQ","","571.8999999985099","img/land4.png","74","576.5","1","1","1","2","0.8,0.2,0.2,0.2,0.8,0.2,0.2,0.2,0.8","0.8,0.2,0.2,0.2,0.8,0.2,0.2,0.2,0.8","1","",""
"","html-keyboard-response","200","190965","0.0-200.0","3BXQMRHWK0KOXR0YLR50CWKVMNCMUZ","A2JZTR2ZSALGH4","3ECKRY5B1QIH1N6NFX1ECCW5ZDKIZQ","","null","<img src=""img/land4.png"" style=""width:200px; border:14px solid green;"">","null","","","","","","","","","",""
"","image-keyboard-response","201","192527","0.0-201.0","3BXQMRHWK0KOXR0YLR50CWKVMNCMUZ","A2JZTR2ZSALGH4","3ECKRY5B1QIH1N6NFX1ECCW5ZDKIZQ","","1556.8999999985099","img/land2.png","75","1561.0999999996275","2","1","3","2","0.8,0.2,0.2,0.2,0.8,0.2,0.2,0.2,0.8","0.8,0.2,0.2,0.2,0.8,0.2,0.2,0.2,0.8","1","",""
"","html-keyboard-response","202","192832","0.0-202.0","3BXQMRHWK0KOXR0YLR50CWKVMNCMUZ","A2JZTR2ZSALGH4","3ECKRY5B1QIH1N6NFX1ECCW5ZDKIZQ","","null","<img src=""img/land2.png"" style=""width:200px; border:14px solid green;"">","null","","","","","","","","","",""
"","image-keyboard-response","203","193825","0.0-203.0","3BXQMRHWK0KOXR0YLR50CWKVMNCMUZ","A2JZTR2ZSALGH4","3ECKRY5B1QIH1N6NFX1ECCW5ZDKIZQ","","986.5","img/land2.png","75","990.5999999996275","2","0","3","2","0.8,0.2,0.2,0.2,0.8,0.2,0.2,0.2,0.8","0.8,0.2,0.2,0.2,0.8,0.2,0.2,0.2,0.8","1","",""
"","html-keyboard-response","204","194131","0.0-204.0","3BXQMRHWK0KOXR0YLR50CWKVMNCMUZ","A2JZTR2ZSALGH4","3ECKRY5B1QIH1N6NFX1ECCW5ZDKIZQ","","null","<img src=""img/land2.png"" style=""width:200px;border:14px solid red;"">","null","","","","","","","","","",""
"","image-keyboard-response","205","195420","0.0-205.0","3BXQMRHWK0KOXR0YLR50CWKVMNCMUZ","A2JZTR2ZSALGH4","3ECKRY5B1QIH1N6NFX1ECCW5ZDKIZQ","","1280.0999999996275","img/land4.png","74","1288.800000000745","1","1","1","2","0.8,0.2,0.2,0.2,0.8,0.2,0.2,0.2,0.8","0.8,0.2,0.2,0.2,0.8,0.2,0.2,0.2,0.8","1","",""
"","html-keyboard-response","206","195728","0.0-206.0","3BXQMRHWK0KOXR0YLR50CWKVMNCMUZ","A2JZTR2ZSALGH4","3ECKRY5B1QIH1N6NFX1ECCW5ZDKIZQ","","null","<img src=""img/land4.png"" style=""width:200px; border:14px solid green;"">","null","","","","","","","","","",""
"","image-keyboard-response","207","196791","0.0-207.0","3BXQMRHWK0KOXR0YLR50CWKVMNCMUZ","A2JZTR2ZSALGH4","3ECKRY5B1QIH1N6NFX1ECCW5ZDKIZQ","","1057.800000000745","img/land1.png","74","1062","1","0","2","2","0.8,0.2,0.2,0.2,0.8,0.2,0.2,0.2,0.8","0.8,0.2,0.2,0.2,0.8,0.2,0.2,0.2,0.8","1","",""
"","html-keyboard-response","208","197098","0.0-208.0","3BXQMRHWK0KOXR0YLR50CWKVMNCMUZ","A2JZTR2ZSALGH4","3ECKRY5B1QIH1N6NFX1ECCW5ZDKIZQ","","null","<img src=""img/land1.png"" style=""width:200px;border:14px solid red;"">","null","","","","","","","","","",""
"","image-keyboard-response","209","198571","0.0-209.0","3BXQMRHWK0KOXR0YLR50CWKVMNCMUZ","A2JZTR2ZSALGH4","3ECKRY5B1QIH1N6NFX1ECCW5ZDKIZQ","","1463.9000000003725","img/land1.png","76","1468.5","3","0","2","2","0.8,0.2,0.2,0.2,0.8,0.2,0.2,0.2,0.8","0.8,0.2,0.2,0.2,0.8,0.2,0.2,0.2,0.8","1","",""
"","html-keyboard-response","210","198876","0.0-210.0","3BXQMRHWK0KOXR0YLR50CWKVMNCMUZ","A2JZTR2ZSALGH4","3ECKRY5B1QIH1N6NFX1ECCW5ZDKIZQ","","null","<img src=""img/land1.png"" style=""width:200px;border:14px solid red;"">","null","","","","","","","","","",""
"","image-keyboard-response","211","199735","0.0-211.0","3BXQMRHWK0KOXR0YLR50CWKVMNCMUZ","A2JZTR2ZSALGH4","3ECKRY5B1QIH1N6NFX1ECCW5ZDKIZQ","","852","img/land1.png","74","857.1000000014901","1","0","2","2","0.8,0.2,0.2,0.2,0.8,0.2,0.2,0.2,0.8","0.8,0.2,0.2,0.2,0.8,0.2,0.2,0.2,0.8","1","",""
"","html-keyboard-response","212","200041","0.0-212.0","3BXQMRHWK0KOXR0YLR50CWKVMNCMUZ","A2JZTR2ZSALGH4","3ECKRY5B1QIH1N6NFX1ECCW5ZDKIZQ","","null","<img src=""img/land1.png"" style=""width:200px;border:14px solid red;"">","null","","","","","","","","","",""
"","image-keyboard-response","213","200770","0.0-213.0","3BXQMRHWK0KOXR0YLR50CWKVMNCMUZ","A2JZTR2ZSALGH4","3ECKRY5B1QIH1N6NFX1ECCW5ZDKIZQ","","719.7000000011176","img/land1.png","75","727.7999999988824","2","0","2","2","0.8,0.2,0.2,0.2,0.8,0.2,0.2,0.2,0.8","0.8,0.2,0.2,0.2,0.8,0.2,0.2,0.2,0.8","1","",""
"","html-keyboard-response","214","201075","0.0-214.0","3BXQMRHWK0KOXR0YLR50CWKVMNCMUZ","A2JZTR2ZSALGH4","3ECKRY5B1QIH1N6NFX1ECCW5ZDKIZQ","","null","<img src=""img/land1.png"" style=""width:200px;border:14px solid red;"">","null","","","","","","","","","",""
"","image-keyboard-response","215","202002","0.0-215.0","3BXQMRHWK0KOXR0YLR50CWKVMNCMUZ","A2JZTR2ZSALGH4","3ECKRY5B1QIH1N6NFX1ECCW5ZDKIZQ","","921","img/land4.png","74","925","1","1","1","2","0.8,0.2,0.2,0.2,0.8,0.2,0.2,0.2,0.8","0.8,0.2,0.2,0.2,0.8,0.2,0.2,0.2,0.8","1","",""
"","html-keyboard-response","216","202308","0.0-216.0","3BXQMRHWK0KOXR0YLR50CWKVMNCMUZ","A2JZTR2ZSALGH4","3ECKRY5B1QIH1N6NFX1ECCW5ZDKIZQ","","null","<img src=""img/land4.png"" style=""width:200px; border:14px solid green;"">","null","","","","","","","","","",""
"","image-keyboard-response","217","203248","0.0-217.0","3BXQMRHWK0KOXR0YLR50CWKVMNCMUZ","A2JZTR2ZSALGH4","3ECKRY5B1QIH1N6NFX1ECCW5ZDKIZQ","","932.5999999996275","img/land2.png","74","937.8000000007451","1","0","3","2","0.8,0.2,0.2,0.2,0.8,0.2,0.2,0.2,0.8","0.8,0.2,0.2,0.2,0.8,0.2,0.2,0.2,0.8","1","",""
"","html-keyboard-response","218","203554","0.0-218.0","3BXQMRHWK0KOXR0YLR50CWKVMNCMUZ","A2JZTR2ZSALGH4","3ECKRY5B1QIH1N6NFX1ECCW5ZDKIZQ","","null","<img src=""img/land2.png"" style=""width:200px;border:14px solid red;"">","null","","","","","","","","","",""
"","image-keyboard-response","219","205561","0.0-219.0","3BXQMRHWK0KOXR0YLR50CWKVMNCMUZ","A2JZTR2ZSALGH4","3ECKRY5B1QIH1N6NFX1ECCW5ZDKIZQ","","","img/land1.png","","2005.699999999255","-1","0","2","2","0.8,0.2,0.2,0.2,0.8,0.2,0.2,0.2,0.8","0.8,0.2,0.2,0.2,0.8,0.2,0.2,0.2,0.8","1","",""
"","html-keyboard-response","220","205867","0.0-220.0","3BXQMRHWK0KOXR0YLR50CWKVMNCMUZ","A2JZTR2ZSALGH4","3ECKRY5B1QIH1N6NFX1ECCW5ZDKIZQ","","null","<img src=""img/land1.png"" style=""width:200px;border:14px solid red;"">","null","","","","","","","","","",""
"","image-keyboard-response","221","206904","0.0-221.0","3BXQMRHWK0KOXR0YLR50CWKVMNCMUZ","A2JZTR2ZSALGH4","3ECKRY5B1QIH1N6NFX1ECCW5ZDKIZQ","","1030","img/land4.png","74","1035.2000000011176","1","0","1","2","0.8,0.2,0.2,0.2,0.8,0.2,0.2,0.2,0.8","0.8,0.2,0.2,0.2,0.8,0.2,0.2,0.2,0.8","1","",""
"","html-keyboard-response","222","207210","0.0-222.0","3BXQMRHWK0KOXR0YLR50CWKVMNCMUZ","A2JZTR2ZSALGH4","3ECKRY5B1QIH1N6NFX1ECCW5ZDKIZQ","","null","<img src=""img/land4.png"" style=""width:200px;border:14px solid red;"">","null","","","","","","","","","",""
"","image-keyboard-response","223","208322","0.0-223.0","3BXQMRHWK0KOXR0YLR50CWKVMNCMUZ","A2JZTR2ZSALGH4","3ECKRY5B1QIH1N6NFX1ECCW5ZDKIZQ","","1104.4000000003725","img/land4.png","74","1110.199999999255","1","1","1","2","0.8,0.2,0.2,0.2,0.8,0.2,0.2,0.2,0.8","0.8,0.2,0.2,0.2,0.8,0.2,0.2,0.2,0.8","1","",""
"","html-keyboard-response","224","208627","0.0-224.0","3BXQMRHWK0KOXR0YLR50CWKVMNCMUZ","A2JZTR2ZSALGH4","3ECKRY5B1QIH1N6NFX1ECCW5ZDKIZQ","","null","<img src=""img/land4.png"" style=""width:200px; border:14px solid green;"">","null","","","","","","","","","",""
"","image-keyboard-response","225","209901","0.0-225.0","3BXQMRHWK0KOXR0YLR50CWKVMNCMUZ","A2JZTR2ZSALGH4","3ECKRY5B1QIH1N6NFX1ECCW5ZDKIZQ","","1267.5","img/land4.png","74","1274.4000000003725","1","1","1","2","0.8,0.2,0.2,0.2,0.8,0.2,0.2,0.2,0.8","0.8,0.2,0.2,0.2,0.8,0.2,0.2,0.2,0.8","1","",""
"","html-keyboard-response","226","210208","0.0-226.0","3BXQMRHWK0KOXR0YLR50CWKVMNCMUZ","A2JZTR2ZSALGH4","3ECKRY5B1QIH1N6NFX1ECCW5ZDKIZQ","","null","<img src=""img/land4.png"" style=""width:200px; border:14px solid green;"">","null","","","","","","","","","",""
"","image-keyboard-response","227","211159","0.0-227.0","3BXQMRHWK0KOXR0YLR50CWKVMNCMUZ","A2JZTR2ZSALGH4","3ECKRY5B1QIH1N6NFX1ECCW5ZDKIZQ","","942.4000000003725","img/land4.png","74","949.7000000011176","1","1","1","2","0.8,0.2,0.2,0.2,0.8,0.2,0.2,0.2,0.8","0.8,0.2,0.2,0.2,0.8,0.2,0.2,0.2,0.8","1","",""
"","html-keyboard-response","228","211463","0.0-228.0","3BXQMRHWK0KOXR0YLR50CWKVMNCMUZ","A2JZTR2ZSALGH4","3ECKRY5B1QIH1N6NFX1ECCW5ZDKIZQ","","null","<img src=""img/land4.png"" style=""width:200px; border:14px solid green;"">","null","","","","","","","","","",""
"","image-keyboard-response","229","212083","0.0-229.0","3BXQMRHWK0KOXR0YLR50CWKVMNCMUZ","A2JZTR2ZSALGH4","3ECKRY5B1QIH1N6NFX1ECCW5ZDKIZQ","","613.9000000003725","img/land4.png","74","619","1","1","1","2","0.8,0.2,0.2,0.2,0.8,0.2,0.2,0.2,0.8","0.8,0.2,0.2,0.2,0.8,0.2,0.2,0.2,0.8","1","",""
"","html-keyboard-response","230","212394","0.0-230.0","3BXQMRHWK0KOXR0YLR50CWKVMNCMUZ","A2JZTR2ZSALGH4","3ECKRY5B1QIH1N6NFX1ECCW5ZDKIZQ","","null","<img src=""img/land4.png"" style=""width:200px; border:14px solid green;"">","null","","","","","","","","","",""
"","image-keyboard-response","231","213055","0.0-231.0","3BXQMRHWK0KOXR0YLR50CWKVMNCMUZ","A2JZTR2ZSALGH4","3ECKRY5B1QIH1N6NFX1ECCW5ZDKIZQ","","654.3000000007451","img/land4.png","74","659.5","1","0","1","2","0.8,0.2,0.2,0.2,0.8,0.2,0.2,0.2,0.8","0.8,0.2,0.2,0.2,0.8,0.2,0.2,0.2,0.8","1","",""
"","html-keyboard-response","232","213362","0.0-232.0","3BXQMRHWK0KOXR0YLR50CWKVMNCMUZ","A2JZTR2ZSALGH4","3ECKRY5B1QIH1N6NFX1ECCW5ZDKIZQ","","null","<img src=""img/land4.png"" style=""width:200px;border:14px solid red;"">","null","","","","","","","","","",""
"","image-keyboard-response","233","214044","0.0-233.0","3BXQMRHWK0KOXR0YLR50CWKVMNCMUZ","A2JZTR2ZSALGH4","3ECKRY5B1QIH1N6NFX1ECCW5ZDKIZQ","","673.5999999996275","img/land4.png","74","680.0999999996275","1","1","1","2","0.8,0.2,0.2,0.2,0.8,0.2,0.2,0.2,0.8","0.8,0.2,0.2,0.2,0.8,0.2,0.2,0.2,0.8","1","",""
"","html-keyboard-response","234","214354","0.0-234.0","3BXQMRHWK0KOXR0YLR50CWKVMNCMUZ","A2JZTR2ZSALGH4","3ECKRY5B1QIH1N6NFX1ECCW5ZDKIZQ","","null","<img src=""img/land4.png"" style=""width:200px; border:14px solid green;"">","null","","","","","","","","","",""
"","image-keyboard-response","235","214843","0.0-235.0","3BXQMRHWK0KOXR0YLR50CWKVMNCMUZ","A2JZTR2ZSALGH4","3ECKRY5B1QIH1N6NFX1ECCW5ZDKIZQ","","482.80000000074506","img/land4.png","74","487.59999999962747","1","1","1","2","0.8,0.2,0.2,0.2,0.8,0.2,0.2,0.2,0.8","0.8,0.2,0.2,0.2,0.8,0.2,0.2,0.2,0.8","1","",""
"","html-keyboard-response","236","215148","0.0-236.0","3BXQMRHWK0KOXR0YLR50CWKVMNCMUZ","A2JZTR2ZSALGH4","3ECKRY5B1QIH1N6NFX1ECCW5ZDKIZQ","","null","<img src=""img/land4.png"" style=""width:200px; border:14px solid green;"">","null","","","","","","","","","",""
"","image-keyboard-response","237","216024","0.0-237.0","3BXQMRHWK0KOXR0YLR50CWKVMNCMUZ","A2JZTR2ZSALGH4","3ECKRY5B1QIH1N6NFX1ECCW5ZDKIZQ","","870.2999999988824","img/land2.png","75","876","2","0","3","2","0.8,0.2,0.2,0.2,0.8,0.2,0.2,0.2,0.8","0.8,0.2,0.2,0.2,0.8,0.2,0.2,0.2,0.8","1","",""
"","html-keyboard-response","238","216332","0.0-238.0","3BXQMRHWK0KOXR0YLR50CWKVMNCMUZ","A2JZTR2ZSALGH4","3ECKRY5B1QIH1N6NFX1ECCW5ZDKIZQ","","null","<img src=""img/land2.png"" style=""width:200px;border:14px solid red;"">","null","","","","","","","","","",""
"","image-keyboard-response","239","218080","0.0-239.0","3BXQMRHWK0KOXR0YLR50CWKVMNCMUZ","A2JZTR2ZSALGH4","3ECKRY5B1QIH1N6NFX1ECCW5ZDKIZQ","","1739","img/land2.png","74","1747","1","0","3","2","0.8,0.2,0.2,0.2,0.8,0.2,0.2,0.2,0.8","0.8,0.2,0.2,0.2,0.8,0.2,0.2,0.2,0.8","1","",""
"","html-keyboard-response","240","218387","0.0-240.0","3BXQMRHWK0KOXR0YLR50CWKVMNCMUZ","A2JZTR2ZSALGH4","3ECKRY5B1QIH1N6NFX1ECCW5ZDKIZQ","","null","<img src=""img/land2.png"" style=""width:200px;border:14px solid red;"">","null","","","","","","","","","",""
"","image-keyboard-response","241","219880","0.0-241.0","3BXQMRHWK0KOXR0YLR50CWKVMNCMUZ","A2JZTR2ZSALGH4","3ECKRY5B1QIH1N6NFX1ECCW5ZDKIZQ","","1485.5","img/land1.png","75","1490.9000000003725","2","1","2","2","0.8,0.2,0.2,0.2,0.8,0.2,0.2,0.2,0.8","0.8,0.2,0.2,0.2,0.8,0.2,0.2,0.2,0.8","1","",""
"","html-keyboard-response","242","220188","0.0-242.0","3BXQMRHWK0KOXR0YLR50CWKVMNCMUZ","A2JZTR2ZSALGH4","3ECKRY5B1QIH1N6NFX1ECCW5ZDKIZQ","","null","<img src=""img/land1.png"" style=""width:200px; border:14px solid green;"">","null","","","","","","","","","",""
"","image-keyboard-response","243","221626","0.0-243.0","3BXQMRHWK0KOXR0YLR50CWKVMNCMUZ","A2JZTR2ZSALGH4","3ECKRY5B1QIH1N6NFX1ECCW5ZDKIZQ","","1432","img/land4.png","74","1436.8999999985099","1","0","1","2","0.8,0.2,0.2,0.2,0.8,0.2,0.2,0.2,0.8","0.8,0.2,0.2,0.2,0.8,0.2,0.2,0.2,0.8","1","",""
"","html-keyboard-response","244","221935","0.0-244.0","3BXQMRHWK0KOXR0YLR50CWKVMNCMUZ","A2JZTR2ZSALGH4","3ECKRY5B1QIH1N6NFX1ECCW5ZDKIZQ","","null","<img src=""img/land4.png"" style=""width:200px;border:14px solid red;"">","null","","","","","","","","","",""
"","image-keyboard-response","245","223481","0.0-245.0","3BXQMRHWK0KOXR0YLR50CWKVMNCMUZ","A2JZTR2ZSALGH4","3ECKRY5B1QIH1N6NFX1ECCW5ZDKIZQ","","1539.5","img/land2.png","74","1544.699999999255","1","0","3","2","0.8,0.2,0.2,0.2,0.8,0.2,0.2,0.2,0.8","0.8,0.2,0.2,0.2,0.8,0.2,0.2,0.2,0.8","1","",""
"","html-keyboard-response","246","223784","0.0-246.0","3BXQMRHWK0KOXR0YLR50CWKVMNCMUZ","A2JZTR2ZSALGH4","3ECKRY5B1QIH1N6NFX1ECCW5ZDKIZQ","","null","<img src=""img/land2.png"" style=""width:200px;border:14px solid red;"">","null","","","","","","","","","",""
"","image-keyboard-response","247","224587","0.0-247.0","3BXQMRHWK0KOXR0YLR50CWKVMNCMUZ","A2JZTR2ZSALGH4","3ECKRY5B1QIH1N6NFX1ECCW5ZDKIZQ","","797.3000000007451","img/land2.png","74","802.3999999985099","1","1","3","2","0.8,0.2,0.2,0.2,0.8,0.2,0.2,0.2,0.8","0.8,0.2,0.2,0.2,0.8,0.2,0.2,0.2,0.8","1","",""
"","html-keyboard-response","248","224892","0.0-248.0","3BXQMRHWK0KOXR0YLR50CWKVMNCMUZ","A2JZTR2ZSALGH4","3ECKRY5B1QIH1N6NFX1ECCW5ZDKIZQ","","null","<img src=""img/land2.png"" style=""width:200px; border:14px solid green;"">","null","","","","","","","","","",""
"","image-keyboard-response","249","225961","0.0-249.0","3BXQMRHWK0KOXR0YLR50CWKVMNCMUZ","A2JZTR2ZSALGH4","3ECKRY5B1QIH1N6NFX1ECCW5ZDKIZQ","","1061.4000000003725","img/land4.png","74","1067.7999999988824","1","1","1","2","0.8,0.2,0.2,0.2,0.8,0.2,0.2,0.2,0.8","0.8,0.2,0.2,0.2,0.8,0.2,0.2,0.2,0.8","1","",""
"","html-keyboard-response","250","226269","0.0-250.0","3BXQMRHWK0KOXR0YLR50CWKVMNCMUZ","A2JZTR2ZSALGH4","3ECKRY5B1QIH1N6NFX1ECCW5ZDKIZQ","","null","<img src=""img/land4.png"" style=""width:200px; border:14px solid green;"">","null","","","","","","","","","",""
"","image-keyboard-response","251","227651","0.0-251.0","3BXQMRHWK0KOXR0YLR50CWKVMNCMUZ","A2JZTR2ZSALGH4","3ECKRY5B1QIH1N6NFX1ECCW5ZDKIZQ","","1373.5","img/land1.png","75","1380.3999999985099","2","0","2","2","0.8,0.2,0.2,0.2,0.8,0.2,0.2,0.2,0.8","0.8,0.2,0.2,0.2,0.8,0.2,0.2,0.2,0.8","1","",""
"","html-keyboard-response","252","227958","0.0-252.0","3BXQMRHWK0KOXR0YLR50CWKVMNCMUZ","A2JZTR2ZSALGH4","3ECKRY5B1QIH1N6NFX1ECCW5ZDKIZQ","","null","<img src=""img/land1.png"" style=""width:200px;border:14px solid red;"">","null","","","","","","","","","",""
"","image-keyboard-response","253","228778","0.0-253.0","3BXQMRHWK0KOXR0YLR50CWKVMNCMUZ","A2JZTR2ZSALGH4","3ECKRY5B1QIH1N6NFX1ECCW5ZDKIZQ","","812.0999999996275","img/land4.png","74","819.7000000011176","1","1","1","2","0.8,0.2,0.2,0.2,0.8,0.2,0.2,0.2,0.8","0.8,0.2,0.2,0.2,0.8,0.2,0.2,0.2,0.8","1","",""
"","html-keyboard-response","254","229084","0.0-254.0","3BXQMRHWK0KOXR0YLR50CWKVMNCMUZ","A2JZTR2ZSALGH4","3ECKRY5B1QIH1N6NFX1ECCW5ZDKIZQ","","null","<img src=""img/land4.png"" style=""width:200px; border:14px solid green;"">","null","","","","","","","","","",""
"","image-keyboard-response","255","230130","0.0-255.0","3BXQMRHWK0KOXR0YLR50CWKVMNCMUZ","A2JZTR2ZSALGH4","3ECKRY5B1QIH1N6NFX1ECCW5ZDKIZQ","","1039.9000000003725","img/land1.png","75","1044.5999999996275","2","0","2","2","0.8,0.2,0.2,0.2,0.8,0.2,0.2,0.2,0.8","0.8,0.2,0.2,0.2,0.8,0.2,0.2,0.2,0.8","1","",""
"","html-keyboard-response","256","230438","0.0-256.0","3BXQMRHWK0KOXR0YLR50CWKVMNCMUZ","A2JZTR2ZSALGH4","3ECKRY5B1QIH1N6NFX1ECCW5ZDKIZQ","","null","<img src=""img/land1.png"" style=""width:200px;border:14px solid red;"">","null","","","","","","","","","",""
"","image-keyboard-response","257","231428","0.0-257.0","3BXQMRHWK0KOXR0YLR50CWKVMNCMUZ","A2JZTR2ZSALGH4","3ECKRY5B1QIH1N6NFX1ECCW5ZDKIZQ","","984.2000000011176","img/land4.png","74","988","1","0","1","2","0.8,0.2,0.2,0.2,0.8,0.2,0.2,0.2,0.8","0.8,0.2,0.2,0.2,0.8,0.2,0.2,0.2,0.8","1","",""
"","html-keyboard-response","258","231731","0.0-258.0","3BXQMRHWK0KOXR0YLR50CWKVMNCMUZ","A2JZTR2ZSALGH4","3ECKRY5B1QIH1N6NFX1ECCW5ZDKIZQ","","null","<img src=""img/land4.png"" style=""width:200px;border:14px solid red;"">","null","","","","","","","","","",""
"","image-keyboard-response","259","232809","0.0-259.0","3BXQMRHWK0KOXR0YLR50CWKVMNCMUZ","A2JZTR2ZSALGH4","3ECKRY5B1QIH1N6NFX1ECCW5ZDKIZQ","","1070.7000000011176","img/land1.png","76","1077","3","1","2","2","0.8,0.2,0.2,0.2,0.8,0.2,0.2,0.2,0.8","0.8,0.2,0.2,0.2,0.8,0.2,0.2,0.2,0.8","1","",""
"","html-keyboard-response","260","233116","0.0-260.0","3BXQMRHWK0KOXR0YLR50CWKVMNCMUZ","A2JZTR2ZSALGH4","3ECKRY5B1QIH1N6NFX1ECCW5ZDKIZQ","","null","<img src=""img/land1.png"" style=""width:200px; border:14px solid green;"">","null","","","","","","","","","",""
"","image-keyboard-response","261","234192","0.0-261.0","3BXQMRHWK0KOXR0YLR50CWKVMNCMUZ","A2JZTR2ZSALGH4","3ECKRY5B1QIH1N6NFX1ECCW5ZDKIZQ","","1068.199999999255","img/land4.png","74","1074.7999999988824","1","1","1","2","0.8,0.2,0.2,0.2,0.8,0.2,0.2,0.2,0.8","0.8,0.2,0.2,0.2,0.8,0.2,0.2,0.2,0.8","1","",""
"","html-keyboard-response","262","234498","0.0-262.0","3BXQMRHWK0KOXR0YLR50CWKVMNCMUZ","A2JZTR2ZSALGH4","3ECKRY5B1QIH1N6NFX1ECCW5ZDKIZQ","","null","<img src=""img/land4.png"" style=""width:200px; border:14px solid green;"">","null","","","","","","","","","",""
"","image-keyboard-response","263","235402","0.0-263.0","3BXQMRHWK0KOXR0YLR50CWKVMNCMUZ","A2JZTR2ZSALGH4","3ECKRY5B1QIH1N6NFX1ECCW5ZDKIZQ","","893.1999999992549","img/land2.png","75","903.3000000007451","2","0","3","2","0.8,0.2,0.2,0.2,0.8,0.2,0.2,0.2,0.8","0.8,0.2,0.2,0.2,0.8,0.2,0.2,0.2,0.8","1","",""
"","html-keyboard-response","264","235709","0.0-264.0","3BXQMRHWK0KOXR0YLR50CWKVMNCMUZ","A2JZTR2ZSALGH4","3ECKRY5B1QIH1N6NFX1ECCW5ZDKIZQ","","null","<img src=""img/land2.png"" style=""width:200px;border:14px solid red;"">","null","","","","","","","","","",""
"","image-keyboard-response","265","236754","0.0-265.0","3BXQMRHWK0KOXR0YLR50CWKVMNCMUZ","A2JZTR2ZSALGH4","3ECKRY5B1QIH1N6NFX1ECCW5ZDKIZQ","","1037.800000000745","img/land1.png","76","1044.5","3","0","2","2","0.8,0.2,0.2,0.2,0.8,0.2,0.2,0.2,0.8","0.8,0.2,0.2,0.2,0.8,0.2,0.2,0.2,0.8","1","",""
"","html-keyboard-response","266","237062","0.0-266.0","3BXQMRHWK0KOXR0YLR50CWKVMNCMUZ","A2JZTR2ZSALGH4","3ECKRY5B1QIH1N6NFX1ECCW5ZDKIZQ","","null","<img src=""img/land1.png"" style=""width:200px;border:14px solid red;"">","null","","","","","","","","","",""
"","image-keyboard-response","267","237911","0.0-267.0","3BXQMRHWK0KOXR0YLR50CWKVMNCMUZ","A2JZTR2ZSALGH4","3ECKRY5B1QIH1N6NFX1ECCW5ZDKIZQ","","837.9000000003725","img/land4.png","74","847.7000000011176","1","0","1","2","0.8,0.2,0.2,0.2,0.8,0.2,0.2,0.2,0.8","0.8,0.2,0.2,0.2,0.8,0.2,0.2,0.2,0.8","1","",""
"","html-keyboard-response","268","238216","0.0-268.0","3BXQMRHWK0KOXR0YLR50CWKVMNCMUZ","A2JZTR2ZSALGH4","3ECKRY5B1QIH1N6NFX1ECCW5ZDKIZQ","","null","<img src=""img/land4.png"" style=""width:200px;border:14px solid red;"">","null","","","","","","","","","",""
"","image-keyboard-response","269","239203","0.0-269.0","3BXQMRHWK0KOXR0YLR50CWKVMNCMUZ","A2JZTR2ZSALGH4","3ECKRY5B1QIH1N6NFX1ECCW5ZDKIZQ","","978.6000000014901","img/land4.png","74","985.7999999988824","1","1","1","2","0.8,0.2,0.2,0.2,0.8,0.2,0.2,0.2,0.8","0.8,0.2,0.2,0.2,0.8,0.2,0.2,0.2,0.8","1","",""
"","html-keyboard-response","270","239509","0.0-270.0","3BXQMRHWK0KOXR0YLR50CWKVMNCMUZ","A2JZTR2ZSALGH4","3ECKRY5B1QIH1N6NFX1ECCW5ZDKIZQ","","null","<img src=""img/land4.png"" style=""width:200px; border:14px solid green;"">","null","","","","","","","","","",""
"","image-keyboard-response","271","240441","0.0-271.0","3BXQMRHWK0KOXR0YLR50CWKVMNCMUZ","A2JZTR2ZSALGH4","3ECKRY5B1QIH1N6NFX1ECCW5ZDKIZQ","","925.3000000007451","img/land1.png","76","930.4000000003725","3","0","2","2","0.8,0.2,0.2,0.2,0.8,0.2,0.2,0.2,0.8","0.8,0.2,0.2,0.2,0.8,0.2,0.2,0.2,0.8","1","",""
"","html-keyboard-response","272","240748","0.0-272.0","3BXQMRHWK0KOXR0YLR50CWKVMNCMUZ","A2JZTR2ZSALGH4","3ECKRY5B1QIH1N6NFX1ECCW5ZDKIZQ","","null","<img src=""img/land1.png"" style=""width:200px;border:14px solid red;"">","null","","","","","","","","","",""
"","image-keyboard-response","273","242175","0.0-273.0","3BXQMRHWK0KOXR0YLR50CWKVMNCMUZ","A2JZTR2ZSALGH4","3ECKRY5B1QIH1N6NFX1ECCW5ZDKIZQ","","1418.300000000745","img/land4.png","74","1425","1","1","1","2","0.8,0.2,0.2,0.2,0.8,0.2,0.2,0.2,0.8","0.8,0.2,0.2,0.2,0.8,0.2,0.2,0.2,0.8","1","",""
"","html-keyboard-response","274","242482","0.0-274.0","3BXQMRHWK0KOXR0YLR50CWKVMNCMUZ","A2JZTR2ZSALGH4","3ECKRY5B1QIH1N6NFX1ECCW5ZDKIZQ","","null","<img src=""img/land4.png"" style=""width:200px; border:14px solid green;"">","null","","","","","","","","","",""
"","image-keyboard-response","275","243960","0.0-275.0","3BXQMRHWK0KOXR0YLR50CWKVMNCMUZ","A2JZTR2ZSALGH4","3ECKRY5B1QIH1N6NFX1ECCW5ZDKIZQ","","1470.2999999988824","img/land2.png","74","1475","1","0","3","2","0.8,0.2,0.2,0.2,0.8,0.2,0.2,0.2,0.8","0.8,0.2,0.2,0.2,0.8,0.2,0.2,0.2,0.8","1","",""
"","html-keyboard-response","276","244265","0.0-276.0","3BXQMRHWK0KOXR0YLR50CWKVMNCMUZ","A2JZTR2ZSALGH4","3ECKRY5B1QIH1N6NFX1ECCW5ZDKIZQ","","null","<img src=""img/land2.png"" style=""width:200px;border:14px solid red;"">","null","","","","","","","","","",""
"","image-keyboard-response","277","245836","0.0-277.0","3BXQMRHWK0KOXR0YLR50CWKVMNCMUZ","A2JZTR2ZSALGH4","3ECKRY5B1QIH1N6NFX1ECCW5ZDKIZQ","","1563.5","img/land1.png","76","1570.5","3","1","2","2","0.8,0.2,0.2,0.2,0.8,0.2,0.2,0.2,0.8","0.8,0.2,0.2,0.2,0.8,0.2,0.2,0.2,0.8","1","",""
"","html-keyboard-response","278","246143","0.0-278.0","3BXQMRHWK0KOXR0YLR50CWKVMNCMUZ","A2JZTR2ZSALGH4","3ECKRY5B1QIH1N6NFX1ECCW5ZDKIZQ","","null","<img src=""img/land1.png"" style=""width:200px; border:14px solid green;"">","null","","","","","","","","","",""
"","image-keyboard-response","279","248150","0.0-279.0","3BXQMRHWK0KOXR0YLR50CWKVMNCMUZ","A2JZTR2ZSALGH4","3ECKRY5B1QIH1N6NFX1ECCW5ZDKIZQ","","","img/land2.png","","2009.0999999996275","-1","0","3","2","0.8,0.2,0.2,0.2,0.8,0.2,0.2,0.2,0.8","0.8,0.2,0.2,0.2,0.8,0.2,0.2,0.2,0.8","1","",""
"","html-keyboard-response","280","248461","0.0-280.0","3BXQMRHWK0KOXR0YLR50CWKVMNCMUZ","A2JZTR2ZSALGH4","3ECKRY5B1QIH1N6NFX1ECCW5ZDKIZQ","","null","<img src=""img/land2.png"" style=""width:200px;border:14px solid red;"">","null","","","","","","","","","",""
"","image-keyboard-response","281","249283","0.0-281.0","3BXQMRHWK0KOXR0YLR50CWKVMNCMUZ","A2JZTR2ZSALGH4","3ECKRY5B1QIH1N6NFX1ECCW5ZDKIZQ","","815.1000000014901","img/land4.png","74","820.5999999996275","1","0","1","2","0.8,0.2,0.2,0.2,0.8,0.2,0.2,0.2,0.8","0.8,0.2,0.2,0.2,0.8,0.2,0.2,0.2,0.8","1","",""
"","html-keyboard-response","282","249590","0.0-282.0","3BXQMRHWK0KOXR0YLR50CWKVMNCMUZ","A2JZTR2ZSALGH4","3ECKRY5B1QIH1N6NFX1ECCW5ZDKIZQ","","null","<img src=""img/land4.png"" style=""width:200px;border:14px solid red;"">","null","","","","","","","","","",""
"","image-keyboard-response","283","250676","0.0-283.0","3BXQMRHWK0KOXR0YLR50CWKVMNCMUZ","A2JZTR2ZSALGH4","3ECKRY5B1QIH1N6NFX1ECCW5ZDKIZQ","","1079.800000000745","img/land1.png","76","1085.2999999988824","3","0","2","2","0.8,0.2,0.2,0.2,0.8,0.2,0.2,0.2,0.8","0.8,0.2,0.2,0.2,0.8,0.2,0.2,0.2,0.8","1","",""
"","html-keyboard-response","284","250982","0.0-284.0","3BXQMRHWK0KOXR0YLR50CWKVMNCMUZ","A2JZTR2ZSALGH4","3ECKRY5B1QIH1N6NFX1ECCW5ZDKIZQ","","null","<img src=""img/land1.png"" style=""width:200px;border:14px solid red;"">","null","","","","","","","","","",""
"","image-keyboard-response","285","251777","0.0-285.0","3BXQMRHWK0KOXR0YLR50CWKVMNCMUZ","A2JZTR2ZSALGH4","3ECKRY5B1QIH1N6NFX1ECCW5ZDKIZQ","","791.0999999996275","img/land4.png","74","795.5","1","1","1","2","0.8,0.2,0.2,0.2,0.8,0.2,0.2,0.2,0.8","0.8,0.2,0.2,0.2,0.8,0.2,0.2,0.2,0.8","1","",""
"","html-keyboard-response","286","252084","0.0-286.0","3BXQMRHWK0KOXR0YLR50CWKVMNCMUZ","A2JZTR2ZSALGH4","3ECKRY5B1QIH1N6NFX1ECCW5ZDKIZQ","","null","<img src=""img/land4.png"" style=""width:200px; border:14px solid green;"">","null","","","","","","","","","",""
"","image-keyboard-response","287","253746","0.0-287.0","3BXQMRHWK0KOXR0YLR50CWKVMNCMUZ","A2JZTR2ZSALGH4","3ECKRY5B1QIH1N6NFX1ECCW5ZDKIZQ","","1656.699999999255","img/land2.png","74","1661.0999999996275","1","0","3","2","0.8,0.2,0.2,0.2,0.8,0.2,0.2,0.2,0.8","0.8,0.2,0.2,0.2,0.8,0.2,0.2,0.2,0.8","1","",""
"","html-keyboard-response","288","254052","0.0-288.0","3BXQMRHWK0KOXR0YLR50CWKVMNCMUZ","A2JZTR2ZSALGH4","3ECKRY5B1QIH1N6NFX1ECCW5ZDKIZQ","","null","<img src=""img/land2.png"" style=""width:200px;border:14px solid red;"">","null","","","","","","","","","",""
"","image-keyboard-response","289","255192","0.0-289.0","3BXQMRHWK0KOXR0YLR50CWKVMNCMUZ","A2JZTR2ZSALGH4","3ECKRY5B1QIH1N6NFX1ECCW5ZDKIZQ","","1133.4000000003725","img/land2.png","75","1140.1000000014901","2","1","3","2","0.8,0.2,0.2,0.2,0.8,0.2,0.2,0.2,0.8","0.8,0.2,0.2,0.2,0.8,0.2,0.2,0.2,0.8","1","",""
"","html-keyboard-response","290","255496","0.0-290.0","3BXQMRHWK0KOXR0YLR50CWKVMNCMUZ","A2JZTR2ZSALGH4","3ECKRY5B1QIH1N6NFX1ECCW5ZDKIZQ","","null","<img src=""img/land2.png"" style=""width:200px; border:14px solid green;"">","null","","","","","","","","","",""
"","image-keyboard-response","291","256459","0.0-291.0","3BXQMRHWK0KOXR0YLR50CWKVMNCMUZ","A2JZTR2ZSALGH4","3ECKRY5B1QIH1N6NFX1ECCW5ZDKIZQ","","952.9000000003725","img/land2.png","75","960.5","2","0","3","2","0.8,0.2,0.2,0.2,0.8,0.2,0.2,0.2,0.8","0.8,0.2,0.2,0.2,0.8,0.2,0.2,0.2,0.8","1","",""
"","html-keyboard-response","292","256766","0.0-292.0","3BXQMRHWK0KOXR0YLR50CWKVMNCMUZ","A2JZTR2ZSALGH4","3ECKRY5B1QIH1N6NFX1ECCW5ZDKIZQ","","null","<img src=""img/land2.png"" style=""width:200px;border:14px solid red;"">","null","","","","","","","","","",""
"","image-keyboard-response","293","257564","0.0-293.0","3BXQMRHWK0KOXR0YLR50CWKVMNCMUZ","A2JZTR2ZSALGH4","3ECKRY5B1QIH1N6NFX1ECCW5ZDKIZQ","","790.9000000003725","img/land4.png","74","796.5999999996275","1","1","1","2","0.8,0.2,0.2,0.2,0.8,0.2,0.2,0.2,0.8","0.8,0.2,0.2,0.2,0.8,0.2,0.2,0.2,0.8","1","",""
"","html-keyboard-response","294","257869","0.0-294.0","3BXQMRHWK0KOXR0YLR50CWKVMNCMUZ","A2JZTR2ZSALGH4","3ECKRY5B1QIH1N6NFX1ECCW5ZDKIZQ","","null","<img src=""img/land4.png"" style=""width:200px; border:14px solid green;"">","null","","","","","","","","","",""
"","image-keyboard-response","295","258841","0.0-295.0","3BXQMRHWK0KOXR0YLR50CWKVMNCMUZ","A2JZTR2ZSALGH4","3ECKRY5B1QIH1N6NFX1ECCW5ZDKIZQ","","968.3000000007451","img/land2.png","75","972.4000000003725","2","0","3","2","0.8,0.2,0.2,0.2,0.8,0.2,0.2,0.2,0.8","0.8,0.2,0.2,0.2,0.8,0.2,0.2,0.2,0.8","1","",""
"","html-keyboard-response","296","259147","0.0-296.0","3BXQMRHWK0KOXR0YLR50CWKVMNCMUZ","A2JZTR2ZSALGH4","3ECKRY5B1QIH1N6NFX1ECCW5ZDKIZQ","","null","<img src=""img/land2.png"" style=""width:200px;border:14px solid red;"">","null","","","","","","","","","",""
"","image-keyboard-response","297","260747","0.0-297.0","3BXQMRHWK0KOXR0YLR50CWKVMNCMUZ","A2JZTR2ZSALGH4","3ECKRY5B1QIH1N6NFX1ECCW5ZDKIZQ","","1594.800000000745","img/land4.png","74","1598.699999999255","1","1","1","2","0.8,0.2,0.2,0.2,0.8,0.2,0.2,0.2,0.8","0.8,0.2,0.2,0.2,0.8,0.2,0.2,0.2,0.8","1","",""
"","html-keyboard-response","298","261052","0.0-298.0","3BXQMRHWK0KOXR0YLR50CWKVMNCMUZ","A2JZTR2ZSALGH4","3ECKRY5B1QIH1N6NFX1ECCW5ZDKIZQ","","null","<img src=""img/land4.png"" style=""width:200px; border:14px solid green;"">","null","","","","","","","","","",""
"","image-keyboard-response","299","261839","0.0-299.0","3BXQMRHWK0KOXR0YLR50CWKVMNCMUZ","A2JZTR2ZSALGH4","3ECKRY5B1QIH1N6NFX1ECCW5ZDKIZQ","","779.5","img/land4.png","74","784.6999999992549","1","1","1","2","0.8,0.2,0.2,0.2,0.8,0.2,0.2,0.2,0.8","0.8,0.2,0.2,0.2,0.8,0.2,0.2,0.2,0.8","1","",""
"","html-keyboard-response","300","262145","0.0-300.0","3BXQMRHWK0KOXR0YLR50CWKVMNCMUZ","A2JZTR2ZSALGH4","3ECKRY5B1QIH1N6NFX1ECCW5ZDKIZQ","","null","<img src=""img/land4.png"" style=""width:200px; border:14px solid green;"">","null","","","","","","","","","",""
"","image-keyboard-response","301","262988","0.0-301.0","3BXQMRHWK0KOXR0YLR50CWKVMNCMUZ","A2JZTR2ZSALGH4","3ECKRY5B1QIH1N6NFX1ECCW5ZDKIZQ","","837.1999999992549","img/land4.png","74","841.6999999992549","1","1","1","2","0.8,0.2,0.2,0.2,0.8,0.2,0.2,0.2,0.8","0.8,0.2,0.2,0.2,0.8,0.2,0.2,0.2,0.8","1","",""
"","html-keyboard-response","302","263292","0.0-302.0","3BXQMRHWK0KOXR0YLR50CWKVMNCMUZ","A2JZTR2ZSALGH4","3ECKRY5B1QIH1N6NFX1ECCW5ZDKIZQ","","null","<img src=""img/land4.png"" style=""width:200px; border:14px solid green;"">","null","","","","","","","","","",""
"","image-keyboard-response","303","264183","0.0-303.0","3BXQMRHWK0KOXR0YLR50CWKVMNCMUZ","A2JZTR2ZSALGH4","3ECKRY5B1QIH1N6NFX1ECCW5ZDKIZQ","","884.5","img/land2.png","76","889.3000000007451","3","0","3","2","0.8,0.2,0.2,0.2,0.8,0.2,0.2,0.2,0.8","0.8,0.2,0.2,0.2,0.8,0.2,0.2,0.2,0.8","1","",""
"","html-keyboard-response","304","264488","0.0-304.0","3BXQMRHWK0KOXR0YLR50CWKVMNCMUZ","A2JZTR2ZSALGH4","3ECKRY5B1QIH1N6NFX1ECCW5ZDKIZQ","","null","<img src=""img/land2.png"" style=""width:200px;border:14px solid red;"">","null","","","","","","","","","",""
"","image-keyboard-response","305","265227","0.0-305.0","3BXQMRHWK0KOXR0YLR50CWKVMNCMUZ","A2JZTR2ZSALGH4","3ECKRY5B1QIH1N6NFX1ECCW5ZDKIZQ","","730.9000000003725","img/land4.png","74","736.8999999985099","1","1","1","2","0.8,0.2,0.2,0.2,0.8,0.2,0.2,0.2,0.8","0.8,0.2,0.2,0.2,0.8,0.2,0.2,0.2,0.8","1","",""
"","html-keyboard-response","306","265534","0.0-306.0","3BXQMRHWK0KOXR0YLR50CWKVMNCMUZ","A2JZTR2ZSALGH4","3ECKRY5B1QIH1N6NFX1ECCW5ZDKIZQ","","null","<img src=""img/land4.png"" style=""width:200px; border:14px solid green;"">","null","","","","","","","","","",""
"","image-keyboard-response","307","266822","0.0-307.0","3BXQMRHWK0KOXR0YLR50CWKVMNCMUZ","A2JZTR2ZSALGH4","3ECKRY5B1QIH1N6NFX1ECCW5ZDKIZQ","","1280.699999999255","img/land1.png","76","1286","3","0","2","2","0.8,0.2,0.2,0.2,0.8,0.2,0.2,0.2,0.8","0.8,0.2,0.2,0.2,0.8,0.2,0.2,0.2,0.8","1","",""
"","html-keyboard-response","308","267129","0.0-308.0","3BXQMRHWK0KOXR0YLR50CWKVMNCMUZ","A2JZTR2ZSALGH4","3ECKRY5B1QIH1N6NFX1ECCW5ZDKIZQ","","null","<img src=""img/land1.png"" style=""width:200px;border:14px solid red;"">","null","","","","","","","","","",""
"","image-keyboard-response","309","267833","0.0-309.0","3BXQMRHWK0KOXR0YLR50CWKVMNCMUZ","A2JZTR2ZSALGH4","3ECKRY5B1QIH1N6NFX1ECCW5ZDKIZQ","","697.6999999992549","img/land4.png","74","704.0999999996275","1","1","1","2","0.8,0.2,0.2,0.2,0.8,0.2,0.2,0.2,0.8","0.8,0.2,0.2,0.2,0.8,0.2,0.2,0.2,0.8","1","",""
"","html-keyboard-response","310","268139","0.0-310.0","3BXQMRHWK0KOXR0YLR50CWKVMNCMUZ","A2JZTR2ZSALGH4","3ECKRY5B1QIH1N6NFX1ECCW5ZDKIZQ","","null","<img src=""img/land4.png"" style=""width:200px; border:14px solid green;"">","null","","","","","","","","","",""
"","image-keyboard-response","311","268997","0.0-311.0","3BXQMRHWK0KOXR0YLR50CWKVMNCMUZ","A2JZTR2ZSALGH4","3ECKRY5B1QIH1N6NFX1ECCW5ZDKIZQ","","850","img/land4.png","74","855.6999999992549","1","1","1","2","0.8,0.2,0.2,0.2,0.8,0.2,0.2,0.2,0.8","0.8,0.2,0.2,0.2,0.8,0.2,0.2,0.2,0.8","1","",""
"","html-keyboard-response","312","269302","0.0-312.0","3BXQMRHWK0KOXR0YLR50CWKVMNCMUZ","A2JZTR2ZSALGH4","3ECKRY5B1QIH1N6NFX1ECCW5ZDKIZQ","","null","<img src=""img/land4.png"" style=""width:200px; border:14px solid green;"">","null","","","","","","","","","",""
"","image-keyboard-response","313","269908","0.0-313.0","3BXQMRHWK0KOXR0YLR50CWKVMNCMUZ","A2JZTR2ZSALGH4","3ECKRY5B1QIH1N6NFX1ECCW5ZDKIZQ","","599.3000000007451","img/land4.png","74","604.8000000007451","1","1","1","2","0.8,0.2,0.2,0.2,0.8,0.2,0.2,0.2,0.8","0.8,0.2,0.2,0.2,0.8,0.2,0.2,0.2,0.8","1","",""
"","html-keyboard-response","314","270216","0.0-314.0","3BXQMRHWK0KOXR0YLR50CWKVMNCMUZ","A2JZTR2ZSALGH4","3ECKRY5B1QIH1N6NFX1ECCW5ZDKIZQ","","null","<img src=""img/land4.png"" style=""width:200px; border:14px solid green;"">","null","","","","","","","","","",""
"","image-keyboard-response","315","270863","0.0-315.0","3BXQMRHWK0KOXR0YLR50CWKVMNCMUZ","A2JZTR2ZSALGH4","3ECKRY5B1QIH1N6NFX1ECCW5ZDKIZQ","","638.3000000007451","img/land4.png","74","644.1999999992549","1","1","1","2","0.8,0.2,0.2,0.2,0.8,0.2,0.2,0.2,0.8","0.8,0.2,0.2,0.2,0.8,0.2,0.2,0.2,0.8","1","",""
"","html-keyboard-response","316","271167","0.0-316.0","3BXQMRHWK0KOXR0YLR50CWKVMNCMUZ","A2JZTR2ZSALGH4","3ECKRY5B1QIH1N6NFX1ECCW5ZDKIZQ","","null","<img src=""img/land4.png"" style=""width:200px; border:14px solid green;"">","null","","","","","","","","","",""
"","image-keyboard-response","317","271762","0.0-317.0","3BXQMRHWK0KOXR0YLR50CWKVMNCMUZ","A2JZTR2ZSALGH4","3ECKRY5B1QIH1N6NFX1ECCW5ZDKIZQ","","588.8999999985099","img/land4.png","74","593.3000000007451","1","1","1","2","0.8,0.2,0.2,0.2,0.8,0.2,0.2,0.2,0.8","0.8,0.2,0.2,0.2,0.8,0.2,0.2,0.2,0.8","1","",""
"","html-keyboard-response","318","272067","0.0-318.0","3BXQMRHWK0KOXR0YLR50CWKVMNCMUZ","A2JZTR2ZSALGH4","3ECKRY5B1QIH1N6NFX1ECCW5ZDKIZQ","","null","<img src=""img/land4.png"" style=""width:200px; border:14px solid green;"">","null","","","","","","","","","",""
"","image-keyboard-response","319","272725","0.0-319.0","3BXQMRHWK0KOXR0YLR50CWKVMNCMUZ","A2JZTR2ZSALGH4","3ECKRY5B1QIH1N6NFX1ECCW5ZDKIZQ","","651.1999999992549","img/land4.png","74","656.7999999988824","1","0","1","2","0.8,0.2,0.2,0.2,0.8,0.2,0.2,0.2,0.8","0.8,0.2,0.2,0.2,0.8,0.2,0.2,0.2,0.8","1","",""
"","html-keyboard-response","320","273030","0.0-320.0","3BXQMRHWK0KOXR0YLR50CWKVMNCMUZ","A2JZTR2ZSALGH4","3ECKRY5B1QIH1N6NFX1ECCW5ZDKIZQ","","null","<img src=""img/land4.png"" style=""width:200px;border:14px solid red;"">","null","","","","","","","","","",""
"","image-keyboard-response","321","274145","0.0-321.0","3BXQMRHWK0KOXR0YLR50CWKVMNCMUZ","A2JZTR2ZSALGH4","3ECKRY5B1QIH1N6NFX1ECCW5ZDKIZQ","","1111","img/land2.png","74","1115.0999999996275","1","0","3","2","0.8,0.2,0.2,0.2,0.8,0.2,0.2,0.2,0.8","0.8,0.2,0.2,0.2,0.8,0.2,0.2,0.2,0.8","1","",""
"","html-keyboard-response","322","274451","0.0-322.0","3BXQMRHWK0KOXR0YLR50CWKVMNCMUZ","A2JZTR2ZSALGH4","3ECKRY5B1QIH1N6NFX1ECCW5ZDKIZQ","","null","<img src=""img/land2.png"" style=""width:200px;border:14px solid red;"">","null","","","","","","","","","",""
"","image-keyboard-response","323","275335","0.0-323.0","3BXQMRHWK0KOXR0YLR50CWKVMNCMUZ","A2JZTR2ZSALGH4","3ECKRY5B1QIH1N6NFX1ECCW5ZDKIZQ","","876.9000000003725","img/land4.png","74","883","1","1","1","2","0.8,0.2,0.2,0.2,0.8,0.2,0.2,0.2,0.8","0.8,0.2,0.2,0.2,0.8,0.2,0.2,0.2,0.8","1","",""
"","html-keyboard-response","324","275643","0.0-324.0","3BXQMRHWK0KOXR0YLR50CWKVMNCMUZ","A2JZTR2ZSALGH4","3ECKRY5B1QIH1N6NFX1ECCW5ZDKIZQ","","null","<img src=""img/land4.png"" style=""width:200px; border:14px solid green;"">","null","","","","","","","","","",""
"","image-keyboard-response","325","276443","0.0-325.0","3BXQMRHWK0KOXR0YLR50CWKVMNCMUZ","A2JZTR2ZSALGH4","3ECKRY5B1QIH1N6NFX1ECCW5ZDKIZQ","","791.1999999992549","img/land4.png","74","798.1999999992549","1","1","1","2","0.8,0.2,0.2,0.2,0.8,0.2,0.2,0.2,0.8","0.8,0.2,0.2,0.2,0.8,0.2,0.2,0.2,0.8","1","",""
"","html-keyboard-response","326","276749","0.0-326.0","3BXQMRHWK0KOXR0YLR50CWKVMNCMUZ","A2JZTR2ZSALGH4","3ECKRY5B1QIH1N6NFX1ECCW5ZDKIZQ","","null","<img src=""img/land4.png"" style=""width:200px; border:14px solid green;"">","null","","","","","","","","","",""
"","image-keyboard-response","327","278028","0.0-327.0","3BXQMRHWK0KOXR0YLR50CWKVMNCMUZ","A2JZTR2ZSALGH4","3ECKRY5B1QIH1N6NFX1ECCW5ZDKIZQ","","1271.5999999996275","img/land1.png","74","1279.2999999988824","1","0","2","2","0.8,0.2,0.2,0.2,0.8,0.2,0.2,0.2,0.8","0.8,0.2,0.2,0.2,0.8,0.2,0.2,0.2,0.8","1","",""
"","html-keyboard-response","328","278334","0.0-328.0","3BXQMRHWK0KOXR0YLR50CWKVMNCMUZ","A2JZTR2ZSALGH4","3ECKRY5B1QIH1N6NFX1ECCW5ZDKIZQ","","null","<img src=""img/land1.png"" style=""width:200px;border:14px solid red;"">","null","","","","","","","","","",""
"","image-keyboard-response","329","279130","0.0-329.0","3BXQMRHWK0KOXR0YLR50CWKVMNCMUZ","A2JZTR2ZSALGH4","3ECKRY5B1QIH1N6NFX1ECCW5ZDKIZQ","","787.5","img/land2.png","74","794.3000000007451","1","0","3","2","0.8,0.2,0.2,0.2,0.8,0.2,0.2,0.2,0.8","0.8,0.2,0.2,0.2,0.8,0.2,0.2,0.2,0.8","1","",""
"","html-keyboard-response","330","279436","0.0-330.0","3BXQMRHWK0KOXR0YLR50CWKVMNCMUZ","A2JZTR2ZSALGH4","3ECKRY5B1QIH1N6NFX1ECCW5ZDKIZQ","","null","<img src=""img/land2.png"" style=""width:200px;border:14px solid red;"">","null","","","","","","","","","",""
"","image-keyboard-response","331","280881","0.0-331.0","3BXQMRHWK0KOXR0YLR50CWKVMNCMUZ","A2JZTR2ZSALGH4","3ECKRY5B1QIH1N6NFX1ECCW5ZDKIZQ","","1439","img/land1.png","75","1443.9000000003725","2","1","2","2","0.8,0.2,0.2,0.2,0.8,0.2,0.2,0.2,0.8","0.8,0.2,0.2,0.2,0.8,0.2,0.2,0.2,0.8","1","",""
"","html-keyboard-response","332","281188","0.0-332.0","3BXQMRHWK0KOXR0YLR50CWKVMNCMUZ","A2JZTR2ZSALGH4","3ECKRY5B1QIH1N6NFX1ECCW5ZDKIZQ","","null","<img src=""img/land1.png"" style=""width:200px; border:14px solid green;"">","null","","","","","","","","","",""
"","image-keyboard-response","333","282343","0.0-333.0","3BXQMRHWK0KOXR0YLR50CWKVMNCMUZ","A2JZTR2ZSALGH4","3ECKRY5B1QIH1N6NFX1ECCW5ZDKIZQ","","1147","img/land1.png","75","1152.5999999996275","2","1","2","2","0.8,0.2,0.2,0.2,0.8,0.2,0.2,0.2,0.8","0.8,0.2,0.2,0.2,0.8,0.2,0.2,0.2,0.8","1","",""
"","html-keyboard-response","334","282650","0.0-334.0","3BXQMRHWK0KOXR0YLR50CWKVMNCMUZ","A2JZTR2ZSALGH4","3ECKRY5B1QIH1N6NFX1ECCW5ZDKIZQ","","null","<img src=""img/land1.png"" style=""width:200px; border:14px solid green;"">","null","","","","","","","","","",""
"","image-keyboard-response","335","283487","0.0-335.0","3BXQMRHWK0KOXR0YLR50CWKVMNCMUZ","A2JZTR2ZSALGH4","3ECKRY5B1QIH1N6NFX1ECCW5ZDKIZQ","","828.7000000011176","img/land4.png","74","835.5","1","0","1","2","0.8,0.2,0.2,0.2,0.8,0.2,0.2,0.2,0.8","0.8,0.2,0.2,0.2,0.8,0.2,0.2,0.2,0.8","1","",""
"","html-keyboard-response","336","283794","0.0-336.0","3BXQMRHWK0KOXR0YLR50CWKVMNCMUZ","A2JZTR2ZSALGH4","3ECKRY5B1QIH1N6NFX1ECCW5ZDKIZQ","","null","<img src=""img/land4.png"" style=""width:200px;border:14px solid red;"">","null","","","","","","","","","",""
"","image-keyboard-response","337","284835","0.0-337.0","3BXQMRHWK0KOXR0YLR50CWKVMNCMUZ","A2JZTR2ZSALGH4","3ECKRY5B1QIH1N6NFX1ECCW5ZDKIZQ","","1030.7000000011176","img/land2.png","76","1039.5999999996275","3","1","3","2","0.8,0.2,0.2,0.2,0.8,0.2,0.2,0.2,0.8","0.8,0.2,0.2,0.2,0.8,0.2,0.2,0.2,0.8","1","",""
"","html-keyboard-response","338","285140","0.0-338.0","3BXQMRHWK0KOXR0YLR50CWKVMNCMUZ","A2JZTR2ZSALGH4","3ECKRY5B1QIH1N6NFX1ECCW5ZDKIZQ","","null","<img src=""img/land2.png"" style=""width:200px; border:14px solid green;"">","null","","","","","","","","","",""
"","image-keyboard-response","339","286665","0.0-339.0","3BXQMRHWK0KOXR0YLR50CWKVMNCMUZ","A2JZTR2ZSALGH4","3ECKRY5B1QIH1N6NFX1ECCW5ZDKIZQ","","1517.2999999988824","img/land4.png","74","1523.300000000745","1","1","1","2","0.8,0.2,0.2,0.2,0.8,0.2,0.2,0.2,0.8","0.8,0.2,0.2,0.2,0.8,0.2,0.2,0.2,0.8","1","",""
"","html-keyboard-response","340","286973","0.0-340.0","3BXQMRHWK0KOXR0YLR50CWKVMNCMUZ","A2JZTR2ZSALGH4","3ECKRY5B1QIH1N6NFX1ECCW5ZDKIZQ","","null","<img src=""img/land4.png"" style=""width:200px; border:14px solid green;"">","null","","","","","","","","","",""
"","image-keyboard-response","341","288050","0.0-341.0","3BXQMRHWK0KOXR0YLR50CWKVMNCMUZ","A2JZTR2ZSALGH4","3ECKRY5B1QIH1N6NFX1ECCW5ZDKIZQ","","1069.6000000014901","img/land1.png","76","1076","3","1","2","2","0.8,0.2,0.2,0.2,0.8,0.2,0.2,0.2,0.8","0.8,0.2,0.2,0.2,0.8,0.2,0.2,0.2,0.8","1","",""
"","html-keyboard-response","342","288359","0.0-342.0","3BXQMRHWK0KOXR0YLR50CWKVMNCMUZ","A2JZTR2ZSALGH4","3ECKRY5B1QIH1N6NFX1ECCW5ZDKIZQ","","null","<img src=""img/land1.png"" style=""width:200px; border:14px solid green;"">","null","","","","","","","","","",""
"","image-keyboard-response","343","289307","0.0-343.0","3BXQMRHWK0KOXR0YLR50CWKVMNCMUZ","A2JZTR2ZSALGH4","3ECKRY5B1QIH1N6NFX1ECCW5ZDKIZQ","","939.3000000007451","img/land4.png","74","945.5","1","1","1","2","0.8,0.2,0.2,0.2,0.8,0.2,0.2,0.2,0.8","0.8,0.2,0.2,0.2,0.8,0.2,0.2,0.2,0.8","1","",""
"","html-keyboard-response","344","289612","0.0-344.0","3BXQMRHWK0KOXR0YLR50CWKVMNCMUZ","A2JZTR2ZSALGH4","3ECKRY5B1QIH1N6NFX1ECCW5ZDKIZQ","","null","<img src=""img/land4.png"" style=""width:200px; border:14px solid green;"">","null","","","","","","","","","",""
"","image-keyboard-response","345","290217","0.0-345.0","3BXQMRHWK0KOXR0YLR50CWKVMNCMUZ","A2JZTR2ZSALGH4","3ECKRY5B1QIH1N6NFX1ECCW5ZDKIZQ","","597.5","img/land4.png","74","605","1","1","1","2","0.8,0.2,0.2,0.2,0.8,0.2,0.2,0.2,0.8","0.8,0.2,0.2,0.2,0.8,0.2,0.2,0.2,0.8","1","",""
"","html-keyboard-response","346","290525","0.0-346.0","3BXQMRHWK0KOXR0YLR50CWKVMNCMUZ","A2JZTR2ZSALGH4","3ECKRY5B1QIH1N6NFX1ECCW5ZDKIZQ","","null","<img src=""img/land4.png"" style=""width:200px; border:14px solid green;"">","null","","","","","","","","","",""
"","image-keyboard-response","347","291614","0.0-347.0","3BXQMRHWK0KOXR0YLR50CWKVMNCMUZ","A2JZTR2ZSALGH4","3ECKRY5B1QIH1N6NFX1ECCW5ZDKIZQ","","1081.7999999988824","img/land4.png","74","1086.5999999996275","1","1","1","2","0.8,0.2,0.2,0.2,0.8,0.2,0.2,0.2,0.8","0.8,0.2,0.2,0.2,0.8,0.2,0.2,0.2,0.8","1","",""
"","html-keyboard-response","348","291922","0.0-348.0","3BXQMRHWK0KOXR0YLR50CWKVMNCMUZ","A2JZTR2ZSALGH4","3ECKRY5B1QIH1N6NFX1ECCW5ZDKIZQ","","null","<img src=""img/land4.png"" style=""width:200px; border:14px solid green;"">","null","","","","","","","","","",""
"","image-keyboard-response","349","292464","0.0-349.0","3BXQMRHWK0KOXR0YLR50CWKVMNCMUZ","A2JZTR2ZSALGH4","3ECKRY5B1QIH1N6NFX1ECCW5ZDKIZQ","","535.5999999996275","img/land4.png","74","541.8000000007451","1","0","1","2","0.8,0.2,0.2,0.2,0.8,0.2,0.2,0.2,0.8","0.8,0.2,0.2,0.2,0.8,0.2,0.2,0.2,0.8","1","",""
"","html-keyboard-response","350","292772","0.0-350.0","3BXQMRHWK0KOXR0YLR50CWKVMNCMUZ","A2JZTR2ZSALGH4","3ECKRY5B1QIH1N6NFX1ECCW5ZDKIZQ","","null","<img src=""img/land4.png"" style=""width:200px;border:14px solid red;"">","null","","","","","","","","","",""
"","image-keyboard-response","351","293884","0.0-351.0","3BXQMRHWK0KOXR0YLR50CWKVMNCMUZ","A2JZTR2ZSALGH4","3ECKRY5B1QIH1N6NFX1ECCW5ZDKIZQ","","1104.5999999996275","img/land4.png","74","1110.6000000014901","1","1","1","2","0.8,0.2,0.2,0.2,0.8,0.2,0.2,0.2,0.8","0.8,0.2,0.2,0.2,0.8,0.2,0.2,0.2,0.8","1","",""
"","html-keyboard-response","352","294190","0.0-352.0","3BXQMRHWK0KOXR0YLR50CWKVMNCMUZ","A2JZTR2ZSALGH4","3ECKRY5B1QIH1N6NFX1ECCW5ZDKIZQ","","null","<img src=""img/land4.png"" style=""width:200px; border:14px solid green;"">","null","","","","","","","","","",""
"","image-keyboard-response","353","294619","0.0-353.0","3BXQMRHWK0KOXR0YLR50CWKVMNCMUZ","A2JZTR2ZSALGH4","3ECKRY5B1QIH1N6NFX1ECCW5ZDKIZQ","","424.09999999962747","img/land4.png","74","427.2000000011176","1","1","1","2","0.8,0.2,0.2,0.2,0.8,0.2,0.2,0.2,0.8","0.8,0.2,0.2,0.2,0.8,0.2,0.2,0.2,0.8","1","",""
"","html-keyboard-response","354","294925","0.0-354.0","3BXQMRHWK0KOXR0YLR50CWKVMNCMUZ","A2JZTR2ZSALGH4","3ECKRY5B1QIH1N6NFX1ECCW5ZDKIZQ","","null","<img src=""img/land4.png"" style=""width:200px; border:14px solid green;"">","null","","","","","","","","","",""
