"success","trial_type","trial_index","time_elapsed","internal_node_id","assignmentID","mturkID","hitID","view_history","rt","stimulus","key_press","reactionTime","a","r","s","cond","reward_cond","reward_cond_actual","reward_matrix_idx","responses","question_order"
"true","fullscreen","0","9207","0.0-0.0","3WSELTNVR4O8VDCKOJPLY93T8DFTAZ","A2K0L9M1ZZO5C9","3B623HUYJ4CRB58WBJVF3U5O917S8D","","","","","","","","","","","","","",""
"","instructions","1","66770","0.0-1.0","3WSELTNVR4O8VDCKOJPLY93T8DFTAZ","A2K0L9M1ZZO5C9","3B623HUYJ4CRB58WBJVF3U5O917S8D","[{""page_index"":0,""viewing_time"":7555.800000000745},{""page_index"":1,""viewing_time"":7198.199999999255},{""page_index"":2,""viewing_time"":25439.800000000745},{""page_index"":3,""viewing_time"":5280.0999999996275},{""page_index"":4,""viewing_time"":2455.0999999996275},{""page_index"":5,""viewing_time"":6436.5999999996275},{""page_index"":6,""viewing_time"":3191}]","57559.09999999963","","","","","","","","","","","",""
"","image-keyboard-response","2","67511","0.0-2.0","3WSELTNVR4O8VDCKOJPLY93T8DFTAZ","A2K0L9M1ZZO5C9","3B623HUYJ4CRB58WBJVF3U5O917S8D","","738.5","img/land5.png","74","740.2999999988824","1","1","1","1","1,0.5,0.5,0.5,1,0.5,0.5,0.5,1","1,0.5,0.5,0.5,1,0.5,0.5,0.5,1","1","",""
"","html-keyboard-response","3","67817","0.0-3.0","3WSELTNVR4O8VDCKOJPLY93T8DFTAZ","A2K0L9M1ZZO5C9","3B623HUYJ4CRB58WBJVF3U5O917S8D","","null","<img src=""img/land5.png"" style=""width:200px; border:14px solid green;"">","null","","","","","","","","","",""
"","image-keyboard-response","4","68438","0.0-4.0","3WSELTNVR4O8VDCKOJPLY93T8DFTAZ","A2K0L9M1ZZO5C9","3B623HUYJ4CRB58WBJVF3U5O917S8D","","618.8000000007451","img/land5.png","74","620.7999999988824","1","1","1","1","1,0.5,0.5,0.5,1,0.5,0.5,0.5,1","1,0.5,0.5,0.5,1,0.5,0.5,0.5,1","1","",""
"","html-keyboard-response","5","68745","0.0-5.0","3WSELTNVR4O8VDCKOJPLY93T8DFTAZ","A2K0L9M1ZZO5C9","3B623HUYJ4CRB58WBJVF3U5O917S8D","","null","<img src=""img/land5.png"" style=""width:200px; border:14px solid green;"">","null","","","","","","","","","",""
"","image-keyboard-response","6","69571","0.0-6.0","3WSELTNVR4O8VDCKOJPLY93T8DFTAZ","A2K0L9M1ZZO5C9","3B623HUYJ4CRB58WBJVF3U5O917S8D","","823.7999999988824","img/land6.png","75","825.6999999992549","2","1","2","1","1,0.5,0.5,0.5,1,0.5,0.5,0.5,1","1,0.5,0.5,0.5,1,0.5,0.5,0.5,1","1","",""
"","html-keyboard-response","7","69876","0.0-7.0","3WSELTNVR4O8VDCKOJPLY93T8DFTAZ","A2K0L9M1ZZO5C9","3B623HUYJ4CRB58WBJVF3U5O917S8D","","null","<img src=""img/land6.png"" style=""width:200px; border:14px solid green;"">","null","","","","","","","","","",""
"","image-keyboard-response","8","70743","0.0-8.0","3WSELTNVR4O8VDCKOJPLY93T8DFTAZ","A2K0L9M1ZZO5C9","3B623HUYJ4CRB58WBJVF3U5O917S8D","","865.0999999996275","img/land2.png","76","866.5999999996275","3","1","3","1","1,0.5,0.5,0.5,1,0.5,0.5,0.5,1","1,0.5,0.5,0.5,1,0.5,0.5,0.5,1","1","",""
"","html-keyboard-response","9","71051","0.0-9.0","3WSELTNVR4O8VDCKOJPLY93T8DFTAZ","A2K0L9M1ZZO5C9","3B623HUYJ4CRB58WBJVF3U5O917S8D","","null","<img src=""img/land2.png"" style=""width:200px; border:14px solid green;"">","null","","","","","","","","","",""
"","image-keyboard-response","10","71894","0.0-10.0","3WSELTNVR4O8VDCKOJPLY93T8DFTAZ","A2K0L9M1ZZO5C9","3B623HUYJ4CRB58WBJVF3U5O917S8D","","841.5","img/land6.png","75","842.9000000003725","2","1","2","1","1,0.5,0.5,0.5,1,0.5,0.5,0.5,1","1,0.5,0.5,0.5,1,0.5,0.5,0.5,1","1","",""
"","html-keyboard-response","11","72200","0.0-11.0","3WSELTNVR4O8VDCKOJPLY93T8DFTAZ","A2K0L9M1ZZO5C9","3B623HUYJ4CRB58WBJVF3U5O917S8D","","null","<img src=""img/land6.png"" style=""width:200px; border:14px solid green;"">","null","","","","","","","","","",""
"","image-keyboard-response","12","72938","0.0-12.0","3WSELTNVR4O8VDCKOJPLY93T8DFTAZ","A2K0L9M1ZZO5C9","3B623HUYJ4CRB58WBJVF3U5O917S8D","","736.5","img/land6.png","75","737.9000000003725","2","1","2","1","1,0.5,0.5,0.5,1,0.5,0.5,0.5,1","1,0.5,0.5,0.5,1,0.5,0.5,0.5,1","1","",""
"","html-keyboard-response","13","73255","0.0-13.0","3WSELTNVR4O8VDCKOJPLY93T8DFTAZ","A2K0L9M1ZZO5C9","3B623HUYJ4CRB58WBJVF3U5O917S8D","","null","<img src=""img/land6.png"" style=""width:200px; border:14px solid green;"">","null","","","","","","","","","",""
"","image-keyboard-response","14","73948","0.0-14.0","3WSELTNVR4O8VDCKOJPLY93T8DFTAZ","A2K0L9M1ZZO5C9","3B623HUYJ4CRB58WBJVF3U5O917S8D","","690.5999999996275","img/land2.png","76","692.3000000007451","3","1","3","1","1,0.5,0.5,0.5,1,0.5,0.5,0.5,1","1,0.5,0.5,0.5,1,0.5,0.5,0.5,1","1","",""
"","html-keyboard-response","15","74261","0.0-15.0","3WSELTNVR4O8VDCKOJPLY93T8DFTAZ","A2K0L9M1ZZO5C9","3B623HUYJ4CRB58WBJVF3U5O917S8D","","null","<img src=""img/land2.png"" style=""width:200px; border:14px solid green;"">","null","","","","","","","","","",""
"","image-keyboard-response","16","75011","0.0-16.0","3WSELTNVR4O8VDCKOJPLY93T8DFTAZ","A2K0L9M1ZZO5C9","3B623HUYJ4CRB58WBJVF3U5O917S8D","","748.8999999985099","img/land6.png","75","749.8000000007451","2","1","2","1","1,0.5,0.5,0.5,1,0.5,0.5,0.5,1","1,0.5,0.5,0.5,1,0.5,0.5,0.5,1","1","",""
"","html-keyboard-response","17","75315","0.0-17.0","3WSELTNVR4O8VDCKOJPLY93T8DFTAZ","A2K0L9M1ZZO5C9","3B623HUYJ4CRB58WBJVF3U5O917S8D","","null","<img src=""img/land6.png"" style=""width:200px; border:14px solid green;"">","null","","","","","","","","","",""
"","image-keyboard-response","18","75829","0.0-18.0","3WSELTNVR4O8VDCKOJPLY93T8DFTAZ","A2K0L9M1ZZO5C9","3B623HUYJ4CRB58WBJVF3U5O917S8D","","513.5","img/land6.png","75","514.4000000003725","2","1","2","1","1,0.5,0.5,0.5,1,0.5,0.5,0.5,1","1,0.5,0.5,0.5,1,0.5,0.5,0.5,1","1","",""
"","html-keyboard-response","19","76140","0.0-19.0","3WSELTNVR4O8VDCKOJPLY93T8DFTAZ","A2K0L9M1ZZO5C9","3B623HUYJ4CRB58WBJVF3U5O917S8D","","null","<img src=""img/land6.png"" style=""width:200px; border:14px solid green;"">","null","","","","","","","","","",""
"","image-keyboard-response","20","76736","0.0-20.0","3WSELTNVR4O8VDCKOJPLY93T8DFTAZ","A2K0L9M1ZZO5C9","3B623HUYJ4CRB58WBJVF3U5O917S8D","","594.4000000003725","img/land6.png","75","596","2","1","2","1","1,0.5,0.5,0.5,1,0.5,0.5,0.5,1","1,0.5,0.5,0.5,1,0.5,0.5,0.5,1","1","",""
"","html-keyboard-response","21","77045","0.0-21.0","3WSELTNVR4O8VDCKOJPLY93T8DFTAZ","A2K0L9M1ZZO5C9","3B623HUYJ4CRB58WBJVF3U5O917S8D","","null","<img src=""img/land6.png"" style=""width:200px; border:14px solid green;"">","null","","","","","","","","","",""
"","image-keyboard-response","22","77503","0.0-22.0","3WSELTNVR4O8VDCKOJPLY93T8DFTAZ","A2K0L9M1ZZO5C9","3B623HUYJ4CRB58WBJVF3U5O917S8D","","457.09999999962747","img/land6.png","75","458.30000000074506","2","1","2","1","1,0.5,0.5,0.5,1,0.5,0.5,0.5,1","1,0.5,0.5,0.5,1,0.5,0.5,0.5,1","1","",""
"","html-keyboard-response","23","77821","0.0-23.0","3WSELTNVR4O8VDCKOJPLY93T8DFTAZ","A2K0L9M1ZZO5C9","3B623HUYJ4CRB58WBJVF3U5O917S8D","","null","<img src=""img/land6.png"" style=""width:200px; border:14px solid green;"">","null","","","","","","","","","",""
"","image-keyboard-response","24","78445","0.0-24.0","3WSELTNVR4O8VDCKOJPLY93T8DFTAZ","A2K0L9M1ZZO5C9","3B623HUYJ4CRB58WBJVF3U5O917S8D","","621.3999999985099","img/land5.png","74","623.5","1","1","1","1","1,0.5,0.5,0.5,1,0.5,0.5,0.5,1","1,0.5,0.5,0.5,1,0.5,0.5,0.5,1","1","",""
"","html-keyboard-response","25","78753","0.0-25.0","3WSELTNVR4O8VDCKOJPLY93T8DFTAZ","A2K0L9M1ZZO5C9","3B623HUYJ4CRB58WBJVF3U5O917S8D","","null","<img src=""img/land5.png"" style=""width:200px; border:14px solid green;"">","null","","","","","","","","","",""
"","image-keyboard-response","26","79497","0.0-26.0","3WSELTNVR4O8VDCKOJPLY93T8DFTAZ","A2K0L9M1ZZO5C9","3B623HUYJ4CRB58WBJVF3U5O917S8D","","743","img/land2.png","76","744.1999999992549","3","1","3","1","1,0.5,0.5,0.5,1,0.5,0.5,0.5,1","1,0.5,0.5,0.5,1,0.5,0.5,0.5,1","1","",""
"","html-keyboard-response","27","79808","0.0-27.0","3WSELTNVR4O8VDCKOJPLY93T8DFTAZ","A2K0L9M1ZZO5C9","3B623HUYJ4CRB58WBJVF3U5O917S8D","","null","<img src=""img/land2.png"" style=""width:200px; border:14px solid green;"">","null","","","","","","","","","",""
"","image-keyboard-response","28","80486","0.0-28.0","3WSELTNVR4O8VDCKOJPLY93T8DFTAZ","A2K0L9M1ZZO5C9","3B623HUYJ4CRB58WBJVF3U5O917S8D","","676.5","img/land6.png","75","677.7999999988824","2","1","2","1","1,0.5,0.5,0.5,1,0.5,0.5,0.5,1","1,0.5,0.5,0.5,1,0.5,0.5,0.5,1","1","",""
"","html-keyboard-response","29","80790","0.0-29.0","3WSELTNVR4O8VDCKOJPLY93T8DFTAZ","A2K0L9M1ZZO5C9","3B623HUYJ4CRB58WBJVF3U5O917S8D","","null","<img src=""img/land6.png"" style=""width:200px; border:14px solid green;"">","null","","","","","","","","","",""
"","image-keyboard-response","30","81499","0.0-30.0","3WSELTNVR4O8VDCKOJPLY93T8DFTAZ","A2K0L9M1ZZO5C9","3B623HUYJ4CRB58WBJVF3U5O917S8D","","706.5999999996275","img/land2.png","76","708.1999999992549","3","1","3","1","1,0.5,0.5,0.5,1,0.5,0.5,0.5,1","1,0.5,0.5,0.5,1,0.5,0.5,0.5,1","1","",""
"","html-keyboard-response","31","81806","0.0-31.0","3WSELTNVR4O8VDCKOJPLY93T8DFTAZ","A2K0L9M1ZZO5C9","3B623HUYJ4CRB58WBJVF3U5O917S8D","","null","<img src=""img/land2.png"" style=""width:200px; border:14px solid green;"">","null","","","","","","","","","",""
"","image-keyboard-response","32","82334","0.0-32.0","3WSELTNVR4O8VDCKOJPLY93T8DFTAZ","A2K0L9M1ZZO5C9","3B623HUYJ4CRB58WBJVF3U5O917S8D","","526.4000000003725","img/land5.png","74","527.8000000007451","1","1","1","1","1,0.5,0.5,0.5,1,0.5,0.5,0.5,1","1,0.5,0.5,0.5,1,0.5,0.5,0.5,1","1","",""
"","html-keyboard-response","33","82637","0.0-33.0","3WSELTNVR4O8VDCKOJPLY93T8DFTAZ","A2K0L9M1ZZO5C9","3B623HUYJ4CRB58WBJVF3U5O917S8D","","null","<img src=""img/land5.png"" style=""width:200px; border:14px solid green;"">","null","","","","","","","","","",""
"","image-keyboard-response","34","83047","0.0-34.0","3WSELTNVR4O8VDCKOJPLY93T8DFTAZ","A2K0L9M1ZZO5C9","3B623HUYJ4CRB58WBJVF3U5O917S8D","","408.80000000074506","img/land5.png","74","409.69999999925494","1","1","1","1","1,0.5,0.5,0.5,1,0.5,0.5,0.5,1","1,0.5,0.5,0.5,1,0.5,0.5,0.5,1","1","",""
"","html-keyboard-response","35","83355","0.0-35.0","3WSELTNVR4O8VDCKOJPLY93T8DFTAZ","A2K0L9M1ZZO5C9","3B623HUYJ4CRB58WBJVF3U5O917S8D","","null","<img src=""img/land5.png"" style=""width:200px; border:14px solid green;"">","null","","","","","","","","","",""
"","image-keyboard-response","36","84031","0.0-36.0","3WSELTNVR4O8VDCKOJPLY93T8DFTAZ","A2K0L9M1ZZO5C9","3B623HUYJ4CRB58WBJVF3U5O917S8D","","674.5","img/land2.png","76","675.5","3","1","3","1","1,0.5,0.5,0.5,1,0.5,0.5,0.5,1","1,0.5,0.5,0.5,1,0.5,0.5,0.5,1","1","",""
"","html-keyboard-response","37","84348","0.0-37.0","3WSELTNVR4O8VDCKOJPLY93T8DFTAZ","A2K0L9M1ZZO5C9","3B623HUYJ4CRB58WBJVF3U5O917S8D","","null","<img src=""img/land2.png"" style=""width:200px; border:14px solid green;"">","null","","","","","","","","","",""
"","image-keyboard-response","38","85083","0.0-38.0","3WSELTNVR4O8VDCKOJPLY93T8DFTAZ","A2K0L9M1ZZO5C9","3B623HUYJ4CRB58WBJVF3U5O917S8D","","733.8000000007451","img/land5.png","74","735.2000000011176","1","1","1","1","1,0.5,0.5,0.5,1,0.5,0.5,0.5,1","1,0.5,0.5,0.5,1,0.5,0.5,0.5,1","1","",""
"","html-keyboard-response","39","85392","0.0-39.0","3WSELTNVR4O8VDCKOJPLY93T8DFTAZ","A2K0L9M1ZZO5C9","3B623HUYJ4CRB58WBJVF3U5O917S8D","","null","<img src=""img/land5.png"" style=""width:200px; border:14px solid green;"">","null","","","","","","","","","",""
"","image-keyboard-response","40","86164","0.0-40.0","3WSELTNVR4O8VDCKOJPLY93T8DFTAZ","A2K0L9M1ZZO5C9","3B623HUYJ4CRB58WBJVF3U5O917S8D","","770.9000000003725","img/land6.png","75","771.8000000007451","2","1","2","1","1,0.5,0.5,0.5,1,0.5,0.5,0.5,1","1,0.5,0.5,0.5,1,0.5,0.5,0.5,1","1","",""
"","html-keyboard-response","41","86477","0.0-41.0","3WSELTNVR4O8VDCKOJPLY93T8DFTAZ","A2K0L9M1ZZO5C9","3B623HUYJ4CRB58WBJVF3U5O917S8D","","null","<img src=""img/land6.png"" style=""width:200px; border:14px solid green;"">","null","","","","","","","","","",""
"","image-keyboard-response","42","87191","0.0-42.0","3WSELTNVR4O8VDCKOJPLY93T8DFTAZ","A2K0L9M1ZZO5C9","3B623HUYJ4CRB58WBJVF3U5O917S8D","","711.6000000014901","img/land2.png","74","713.2000000011176","1","0","3","1","1,0.5,0.5,0.5,1,0.5,0.5,0.5,1","1,0.5,0.5,0.5,1,0.5,0.5,0.5,1","1","",""
"","html-keyboard-response","43","87507","0.0-43.0","3WSELTNVR4O8VDCKOJPLY93T8DFTAZ","A2K0L9M1ZZO5C9","3B623HUYJ4CRB58WBJVF3U5O917S8D","","null","<img src=""img/land2.png"" style=""width:200px;border:14px solid red;"">","null","","","","","","","","","",""
"","image-keyboard-response","44","88412","0.0-44.0","3WSELTNVR4O8VDCKOJPLY93T8DFTAZ","A2K0L9M1ZZO5C9","3B623HUYJ4CRB58WBJVF3U5O917S8D","","903.0999999996275","img/land6.png","75","904.5","2","1","2","1","1,0.5,0.5,0.5,1,0.5,0.5,0.5,1","1,0.5,0.5,0.5,1,0.5,0.5,0.5,1","1","",""
"","html-keyboard-response","45","88727","0.0-45.0","3WSELTNVR4O8VDCKOJPLY93T8DFTAZ","A2K0L9M1ZZO5C9","3B623HUYJ4CRB58WBJVF3U5O917S8D","","null","<img src=""img/land6.png"" style=""width:200px; border:14px solid green;"">","null","","","","","","","","","",""
"","image-keyboard-response","46","89278","0.0-46.0","3WSELTNVR4O8VDCKOJPLY93T8DFTAZ","A2K0L9M1ZZO5C9","3B623HUYJ4CRB58WBJVF3U5O917S8D","","549.2000000011176","img/land6.png","75","550.3000000007451","2","1","2","1","1,0.5,0.5,0.5,1,0.5,0.5,0.5,1","1,0.5,0.5,0.5,1,0.5,0.5,0.5,1","1","",""
"","html-keyboard-response","47","89580","0.0-47.0","3WSELTNVR4O8VDCKOJPLY93T8DFTAZ","A2K0L9M1ZZO5C9","3B623HUYJ4CRB58WBJVF3U5O917S8D","","null","<img src=""img/land6.png"" style=""width:200px; border:14px solid green;"">","null","","","","","","","","","",""
"","image-keyboard-response","48","90329","0.0-48.0","3WSELTNVR4O8VDCKOJPLY93T8DFTAZ","A2K0L9M1ZZO5C9","3B623HUYJ4CRB58WBJVF3U5O917S8D","","747.5","img/land2.png","76","748.4000000003725","3","1","3","1","1,0.5,0.5,0.5,1,0.5,0.5,0.5,1","1,0.5,0.5,0.5,1,0.5,0.5,0.5,1","1","",""
"","html-keyboard-response","49","90636","0.0-49.0","3WSELTNVR4O8VDCKOJPLY93T8DFTAZ","A2K0L9M1ZZO5C9","3B623HUYJ4CRB58WBJVF3U5O917S8D","","null","<img src=""img/land2.png"" style=""width:200px; border:14px solid green;"">","null","","","","","","","","","",""
"","image-keyboard-response","50","91037","0.0-50.0","3WSELTNVR4O8VDCKOJPLY93T8DFTAZ","A2K0L9M1ZZO5C9","3B623HUYJ4CRB58WBJVF3U5O917S8D","","399.90000000037253","img/land2.png","76","400.90000000037253","3","1","3","1","1,0.5,0.5,0.5,1,0.5,0.5,0.5,1","1,0.5,0.5,0.5,1,0.5,0.5,0.5,1","1","",""
"","html-keyboard-response","51","91346","0.0-51.0","3WSELTNVR4O8VDCKOJPLY93T8DFTAZ","A2K0L9M1ZZO5C9","3B623HUYJ4CRB58WBJVF3U5O917S8D","","null","<img src=""img/land2.png"" style=""width:200px; border:14px solid green;"">","null","","","","","","","","","",""
"","image-keyboard-response","52","92139","0.0-52.0","3WSELTNVR4O8VDCKOJPLY93T8DFTAZ","A2K0L9M1ZZO5C9","3B623HUYJ4CRB58WBJVF3U5O917S8D","","791","img/land6.png","75","792.2999999988824","2","1","2","1","1,0.5,0.5,0.5,1,0.5,0.5,0.5,1","1,0.5,0.5,0.5,1,0.5,0.5,0.5,1","1","",""
"","html-keyboard-response","53","92442","0.0-53.0","3WSELTNVR4O8VDCKOJPLY93T8DFTAZ","A2K0L9M1ZZO5C9","3B623HUYJ4CRB58WBJVF3U5O917S8D","","null","<img src=""img/land6.png"" style=""width:200px; border:14px solid green;"">","null","","","","","","","","","",""
"","image-keyboard-response","54","92880","0.0-54.0","3WSELTNVR4O8VDCKOJPLY93T8DFTAZ","A2K0L9M1ZZO5C9","3B623HUYJ4CRB58WBJVF3U5O917S8D","","437.09999999962747","img/land5.png","74","438.09999999962747","1","1","1","1","1,0.5,0.5,0.5,1,0.5,0.5,0.5,1","1,0.5,0.5,0.5,1,0.5,0.5,0.5,1","1","",""
"","html-keyboard-response","55","93196","0.0-55.0","3WSELTNVR4O8VDCKOJPLY93T8DFTAZ","A2K0L9M1ZZO5C9","3B623HUYJ4CRB58WBJVF3U5O917S8D","","null","<img src=""img/land5.png"" style=""width:200px; border:14px solid green;"">","null","","","","","","","","","",""
"","image-keyboard-response","56","93622","0.0-56.0","3WSELTNVR4O8VDCKOJPLY93T8DFTAZ","A2K0L9M1ZZO5C9","3B623HUYJ4CRB58WBJVF3U5O917S8D","","423.2999999988824","img/land5.png","74","424.80000000074506","1","1","1","1","1,0.5,0.5,0.5,1,0.5,0.5,0.5,1","1,0.5,0.5,0.5,1,0.5,0.5,0.5,1","1","",""
"","html-keyboard-response","57","93929","0.0-57.0","3WSELTNVR4O8VDCKOJPLY93T8DFTAZ","A2K0L9M1ZZO5C9","3B623HUYJ4CRB58WBJVF3U5O917S8D","","null","<img src=""img/land5.png"" style=""width:200px; border:14px solid green;"">","null","","","","","","","","","",""
"","image-keyboard-response","58","94728","0.0-58.0","3WSELTNVR4O8VDCKOJPLY93T8DFTAZ","A2K0L9M1ZZO5C9","3B623HUYJ4CRB58WBJVF3U5O917S8D","","798","img/land2.png","75","798.9000000003725","2","0","3","1","1,0.5,0.5,0.5,1,0.5,0.5,0.5,1","1,0.5,0.5,0.5,1,0.5,0.5,0.5,1","1","",""
"","html-keyboard-response","59","95038","0.0-59.0","3WSELTNVR4O8VDCKOJPLY93T8DFTAZ","A2K0L9M1ZZO5C9","3B623HUYJ4CRB58WBJVF3U5O917S8D","","null","<img src=""img/land2.png"" style=""width:200px;border:14px solid red;"">","null","","","","","","","","","",""
"","image-keyboard-response","60","96977","0.0-60.0","3WSELTNVR4O8VDCKOJPLY93T8DFTAZ","A2K0L9M1ZZO5C9","3B623HUYJ4CRB58WBJVF3U5O917S8D","","1938","img/land5.png","74","1938.9000000003725","1","1","1","1","1,0.5,0.5,0.5,1,0.5,0.5,0.5,1","1,0.5,0.5,0.5,1,0.5,0.5,0.5,1","1","",""
"","html-keyboard-response","61","97295","0.0-61.0","3WSELTNVR4O8VDCKOJPLY93T8DFTAZ","A2K0L9M1ZZO5C9","3B623HUYJ4CRB58WBJVF3U5O917S8D","","null","<img src=""img/land5.png"" style=""width:200px; border:14px solid green;"">","null","","","","","","","","","",""
"","image-keyboard-response","62","97782","0.0-62.0","3WSELTNVR4O8VDCKOJPLY93T8DFTAZ","A2K0L9M1ZZO5C9","3B623HUYJ4CRB58WBJVF3U5O917S8D","","485.80000000074506","img/land6.png","75","487","2","1","2","1","1,0.5,0.5,0.5,1,0.5,0.5,0.5,1","1,0.5,0.5,0.5,1,0.5,0.5,0.5,1","1","",""
"","html-keyboard-response","63","98092","0.0-63.0","3WSELTNVR4O8VDCKOJPLY93T8DFTAZ","A2K0L9M1ZZO5C9","3B623HUYJ4CRB58WBJVF3U5O917S8D","","null","<img src=""img/land6.png"" style=""width:200px; border:14px solid green;"">","null","","","","","","","","","",""
"","image-keyboard-response","64","98772","0.0-64.0","3WSELTNVR4O8VDCKOJPLY93T8DFTAZ","A2K0L9M1ZZO5C9","3B623HUYJ4CRB58WBJVF3U5O917S8D","","679.2999999988824","img/land5.png","75","680.5","2","0","1","1","1,0.5,0.5,0.5,1,0.5,0.5,0.5,1","1,0.5,0.5,0.5,1,0.5,0.5,0.5,1","1","",""
"","html-keyboard-response","65","99080","0.0-65.0","3WSELTNVR4O8VDCKOJPLY93T8DFTAZ","A2K0L9M1ZZO5C9","3B623HUYJ4CRB58WBJVF3U5O917S8D","","null","<img src=""img/land5.png"" style=""width:200px;border:14px solid red;"">","null","","","","","","","","","",""
"","image-keyboard-response","66","99892","0.0-66.0","3WSELTNVR4O8VDCKOJPLY93T8DFTAZ","A2K0L9M1ZZO5C9","3B623HUYJ4CRB58WBJVF3U5O917S8D","","810.2999999988824","img/land6.png","75","811.9000000003725","2","1","2","1","1,0.5,0.5,0.5,1,0.5,0.5,0.5,1","1,0.5,0.5,0.5,1,0.5,0.5,0.5,1","1","",""
"","html-keyboard-response","67","100204","0.0-67.0","3WSELTNVR4O8VDCKOJPLY93T8DFTAZ","A2K0L9M1ZZO5C9","3B623HUYJ4CRB58WBJVF3U5O917S8D","","null","<img src=""img/land6.png"" style=""width:200px; border:14px solid green;"">","null","","","","","","","","","",""
"","image-keyboard-response","68","100923","0.0-68.0","3WSELTNVR4O8VDCKOJPLY93T8DFTAZ","A2K0L9M1ZZO5C9","3B623HUYJ4CRB58WBJVF3U5O917S8D","","717.7999999988824","img/land6.png","75","719","2","1","2","1","1,0.5,0.5,0.5,1,0.5,0.5,0.5,1","1,0.5,0.5,0.5,1,0.5,0.5,0.5,1","1","",""
"","html-keyboard-response","69","101227","0.0-69.0","3WSELTNVR4O8VDCKOJPLY93T8DFTAZ","A2K0L9M1ZZO5C9","3B623HUYJ4CRB58WBJVF3U5O917S8D","","null","<img src=""img/land6.png"" style=""width:200px; border:14px solid green;"">","null","","","","","","","","","",""
"","image-keyboard-response","70","101861","0.0-70.0","3WSELTNVR4O8VDCKOJPLY93T8DFTAZ","A2K0L9M1ZZO5C9","3B623HUYJ4CRB58WBJVF3U5O917S8D","","632.5999999996275","img/land5.png","74","633.6999999992549","1","1","1","1","1,0.5,0.5,0.5,1,0.5,0.5,0.5,1","1,0.5,0.5,0.5,1,0.5,0.5,0.5,1","1","",""
"","html-keyboard-response","71","102175","0.0-71.0","3WSELTNVR4O8VDCKOJPLY93T8DFTAZ","A2K0L9M1ZZO5C9","3B623HUYJ4CRB58WBJVF3U5O917S8D","","null","<img src=""img/land5.png"" style=""width:200px; border:14px solid green;"">","null","","","","","","","","","",""
"","image-keyboard-response","72","102706","0.0-72.0","3WSELTNVR4O8VDCKOJPLY93T8DFTAZ","A2K0L9M1ZZO5C9","3B623HUYJ4CRB58WBJVF3U5O917S8D","","528.1999999992549","img/land5.png","74","529.7000000011176","1","1","1","1","1,0.5,0.5,0.5,1,0.5,0.5,0.5,1","1,0.5,0.5,0.5,1,0.5,0.5,0.5,1","1","",""
"","html-keyboard-response","73","103008","0.0-73.0","3WSELTNVR4O8VDCKOJPLY93T8DFTAZ","A2K0L9M1ZZO5C9","3B623HUYJ4CRB58WBJVF3U5O917S8D","","null","<img src=""img/land5.png"" style=""width:200px; border:14px solid green;"">","null","","","","","","","","","",""
"","image-keyboard-response","74","103744","0.0-74.0","3WSELTNVR4O8VDCKOJPLY93T8DFTAZ","A2K0L9M1ZZO5C9","3B623HUYJ4CRB58WBJVF3U5O917S8D","","735.0999999996275","img/land2.png","76","736.0999999996275","3","1","3","1","1,0.5,0.5,0.5,1,0.5,0.5,0.5,1","1,0.5,0.5,0.5,1,0.5,0.5,0.5,1","1","",""
"","html-keyboard-response","75","104055","0.0-75.0","3WSELTNVR4O8VDCKOJPLY93T8DFTAZ","A2K0L9M1ZZO5C9","3B623HUYJ4CRB58WBJVF3U5O917S8D","","null","<img src=""img/land2.png"" style=""width:200px; border:14px solid green;"">","null","","","","","","","","","",""
"","image-keyboard-response","76","104539","0.0-76.0","3WSELTNVR4O8VDCKOJPLY93T8DFTAZ","A2K0L9M1ZZO5C9","3B623HUYJ4CRB58WBJVF3U5O917S8D","","482.7999999988824","img/land2.png","76","484.19999999925494","3","1","3","1","1,0.5,0.5,0.5,1,0.5,0.5,0.5,1","1,0.5,0.5,0.5,1,0.5,0.5,0.5,1","1","",""
"","html-keyboard-response","77","104849","0.0-77.0","3WSELTNVR4O8VDCKOJPLY93T8DFTAZ","A2K0L9M1ZZO5C9","3B623HUYJ4CRB58WBJVF3U5O917S8D","","null","<img src=""img/land2.png"" style=""width:200px; border:14px solid green;"">","null","","","","","","","","","",""
"","image-keyboard-response","78","105332","0.0-78.0","3WSELTNVR4O8VDCKOJPLY93T8DFTAZ","A2K0L9M1ZZO5C9","3B623HUYJ4CRB58WBJVF3U5O917S8D","","481.09999999962747","img/land2.png","76","482","3","1","3","1","1,0.5,0.5,0.5,1,0.5,0.5,0.5,1","1,0.5,0.5,0.5,1,0.5,0.5,0.5,1","1","",""
"","html-keyboard-response","79","105640","0.0-79.0","3WSELTNVR4O8VDCKOJPLY93T8DFTAZ","A2K0L9M1ZZO5C9","3B623HUYJ4CRB58WBJVF3U5O917S8D","","null","<img src=""img/land2.png"" style=""width:200px; border:14px solid green;"">","null","","","","","","","","","",""
"","image-keyboard-response","80","106125","0.0-80.0","3WSELTNVR4O8VDCKOJPLY93T8DFTAZ","A2K0L9M1ZZO5C9","3B623HUYJ4CRB58WBJVF3U5O917S8D","","483.19999999925494","img/land2.png","76","484.80000000074506","3","1","3","1","1,0.5,0.5,0.5,1,0.5,0.5,0.5,1","1,0.5,0.5,0.5,1,0.5,0.5,0.5,1","1","",""
"","html-keyboard-response","81","106436","0.0-81.0","3WSELTNVR4O8VDCKOJPLY93T8DFTAZ","A2K0L9M1ZZO5C9","3B623HUYJ4CRB58WBJVF3U5O917S8D","","null","<img src=""img/land2.png"" style=""width:200px; border:14px solid green;"">","null","","","","","","","","","",""
"","image-keyboard-response","82","106917","0.0-82.0","3WSELTNVR4O8VDCKOJPLY93T8DFTAZ","A2K0L9M1ZZO5C9","3B623HUYJ4CRB58WBJVF3U5O917S8D","","478.19999999925494","img/land2.png","76","480.09999999962747","3","1","3","1","1,0.5,0.5,0.5,1,0.5,0.5,0.5,1","1,0.5,0.5,0.5,1,0.5,0.5,0.5,1","1","",""
"","html-keyboard-response","83","107227","0.0-83.0","3WSELTNVR4O8VDCKOJPLY93T8DFTAZ","A2K0L9M1ZZO5C9","3B623HUYJ4CRB58WBJVF3U5O917S8D","","null","<img src=""img/land2.png"" style=""width:200px; border:14px solid green;"">","null","","","","","","","","","",""
"","image-keyboard-response","84","107887","0.0-84.0","3WSELTNVR4O8VDCKOJPLY93T8DFTAZ","A2K0L9M1ZZO5C9","3B623HUYJ4CRB58WBJVF3U5O917S8D","","659.4000000003725","img/land6.png","75","660.1000000014901","2","1","2","1","1,0.5,0.5,0.5,1,0.5,0.5,0.5,1","1,0.5,0.5,0.5,1,0.5,0.5,0.5,1","1","",""
"","html-keyboard-response","85","108197","0.0-85.0","3WSELTNVR4O8VDCKOJPLY93T8DFTAZ","A2K0L9M1ZZO5C9","3B623HUYJ4CRB58WBJVF3U5O917S8D","","null","<img src=""img/land6.png"" style=""width:200px; border:14px solid green;"">","null","","","","","","","","","",""
"","image-keyboard-response","86","108814","0.0-86.0","3WSELTNVR4O8VDCKOJPLY93T8DFTAZ","A2K0L9M1ZZO5C9","3B623HUYJ4CRB58WBJVF3U5O917S8D","","613.6000000014901","img/land5.png","74","615.7000000011176","1","1","1","1","1,0.5,0.5,0.5,1,0.5,0.5,0.5,1","1,0.5,0.5,0.5,1,0.5,0.5,0.5,1","1","",""
"","html-keyboard-response","87","109127","0.0-87.0","3WSELTNVR4O8VDCKOJPLY93T8DFTAZ","A2K0L9M1ZZO5C9","3B623HUYJ4CRB58WBJVF3U5O917S8D","","null","<img src=""img/land5.png"" style=""width:200px; border:14px solid green;"">","null","","","","","","","","","",""
"","image-keyboard-response","88","109555","0.0-88.0","3WSELTNVR4O8VDCKOJPLY93T8DFTAZ","A2K0L9M1ZZO5C9","3B623HUYJ4CRB58WBJVF3U5O917S8D","","426.1000000014901","img/land5.png","74","427.59999999962747","1","1","1","1","1,0.5,0.5,0.5,1,0.5,0.5,0.5,1","1,0.5,0.5,0.5,1,0.5,0.5,0.5,1","1","",""
"","html-keyboard-response","89","109861","0.0-89.0","3WSELTNVR4O8VDCKOJPLY93T8DFTAZ","A2K0L9M1ZZO5C9","3B623HUYJ4CRB58WBJVF3U5O917S8D","","null","<img src=""img/land5.png"" style=""width:200px; border:14px solid green;"">","null","","","","","","","","","",""
"","image-keyboard-response","90","110432","0.0-90.0","3WSELTNVR4O8VDCKOJPLY93T8DFTAZ","A2K0L9M1ZZO5C9","3B623HUYJ4CRB58WBJVF3U5O917S8D","","568.9000000003725","img/land6.png","75","570.6999999992549","2","1","2","1","1,0.5,0.5,0.5,1,0.5,0.5,0.5,1","1,0.5,0.5,0.5,1,0.5,0.5,0.5,1","1","",""
"","html-keyboard-response","91","110734","0.0-91.0","3WSELTNVR4O8VDCKOJPLY93T8DFTAZ","A2K0L9M1ZZO5C9","3B623HUYJ4CRB58WBJVF3U5O917S8D","","null","<img src=""img/land6.png"" style=""width:200px; border:14px solid green;"">","null","","","","","","","","","",""
"","image-keyboard-response","92","111234","0.0-92.0","3WSELTNVR4O8VDCKOJPLY93T8DFTAZ","A2K0L9M1ZZO5C9","3B623HUYJ4CRB58WBJVF3U5O917S8D","","498.30000000074506","img/land6.png","75","499.80000000074506","2","1","2","1","1,0.5,0.5,0.5,1,0.5,0.5,0.5,1","1,0.5,0.5,0.5,1,0.5,0.5,0.5,1","1","",""
"","html-keyboard-response","93","111543","0.0-93.0","3WSELTNVR4O8VDCKOJPLY93T8DFTAZ","A2K0L9M1ZZO5C9","3B623HUYJ4CRB58WBJVF3U5O917S8D","","null","<img src=""img/land6.png"" style=""width:200px; border:14px solid green;"">","null","","","","","","","","","",""
"","image-keyboard-response","94","112083","0.0-94.0","3WSELTNVR4O8VDCKOJPLY93T8DFTAZ","A2K0L9M1ZZO5C9","3B623HUYJ4CRB58WBJVF3U5O917S8D","","538.5","img/land2.png","76","540.1999999992549","3","1","3","1","1,0.5,0.5,0.5,1,0.5,0.5,0.5,1","1,0.5,0.5,0.5,1,0.5,0.5,0.5,1","1","",""
"","html-keyboard-response","95","112391","0.0-95.0","3WSELTNVR4O8VDCKOJPLY93T8DFTAZ","A2K0L9M1ZZO5C9","3B623HUYJ4CRB58WBJVF3U5O917S8D","","null","<img src=""img/land2.png"" style=""width:200px; border:14px solid green;"">","null","","","","","","","","","",""
"","image-keyboard-response","96","113098","0.0-96.0","3WSELTNVR4O8VDCKOJPLY93T8DFTAZ","A2K0L9M1ZZO5C9","3B623HUYJ4CRB58WBJVF3U5O917S8D","","704.7999999988824","img/land6.png","75","706.8000000007451","2","1","2","1","1,0.5,0.5,0.5,1,0.5,0.5,0.5,1","1,0.5,0.5,0.5,1,0.5,0.5,0.5,1","1","",""
"","html-keyboard-response","97","113405","0.0-97.0","3WSELTNVR4O8VDCKOJPLY93T8DFTAZ","A2K0L9M1ZZO5C9","3B623HUYJ4CRB58WBJVF3U5O917S8D","","null","<img src=""img/land6.png"" style=""width:200px; border:14px solid green;"">","null","","","","","","","","","",""
"","image-keyboard-response","98","113933","0.0-98.0","3WSELTNVR4O8VDCKOJPLY93T8DFTAZ","A2K0L9M1ZZO5C9","3B623HUYJ4CRB58WBJVF3U5O917S8D","","526.8000000007451","img/land6.png","75","528.0999999996275","2","1","2","1","1,0.5,0.5,0.5,1,0.5,0.5,0.5,1","1,0.5,0.5,0.5,1,0.5,0.5,0.5,1","1","",""
"","html-keyboard-response","99","114249","0.0-99.0","3WSELTNVR4O8VDCKOJPLY93T8DFTAZ","A2K0L9M1ZZO5C9","3B623HUYJ4CRB58WBJVF3U5O917S8D","","null","<img src=""img/land6.png"" style=""width:200px; border:14px solid green;"">","null","","","","","","","","","",""
"","image-keyboard-response","100","114929","0.0-100.0","3WSELTNVR4O8VDCKOJPLY93T8DFTAZ","A2K0L9M1ZZO5C9","3B623HUYJ4CRB58WBJVF3U5O917S8D","","677.9000000003725","img/land2.png","74","679.4000000003725","1","0","3","1","1,0.5,0.5,0.5,1,0.5,0.5,0.5,1","1,0.5,0.5,0.5,1,0.5,0.5,0.5,1","1","",""
"","html-keyboard-response","101","115240","0.0-101.0","3WSELTNVR4O8VDCKOJPLY93T8DFTAZ","A2K0L9M1ZZO5C9","3B623HUYJ4CRB58WBJVF3U5O917S8D","","null","<img src=""img/land2.png"" style=""width:200px;border:14px solid red;"">","null","","","","","","","","","",""
"","image-keyboard-response","102","115754","0.0-102.0","3WSELTNVR4O8VDCKOJPLY93T8DFTAZ","A2K0L9M1ZZO5C9","3B623HUYJ4CRB58WBJVF3U5O917S8D","","512.3000000007451","img/land2.png","76","513.5999999996275","3","1","3","1","1,0.5,0.5,0.5,1,0.5,0.5,0.5,1","1,0.5,0.5,0.5,1,0.5,0.5,0.5,1","1","",""
"","html-keyboard-response","103","116061","0.0-103.0","3WSELTNVR4O8VDCKOJPLY93T8DFTAZ","A2K0L9M1ZZO5C9","3B623HUYJ4CRB58WBJVF3U5O917S8D","","null","<img src=""img/land2.png"" style=""width:200px; border:14px solid green;"">","null","","","","","","","","","",""
"","image-keyboard-response","104","116700","0.0-104.0","3WSELTNVR4O8VDCKOJPLY93T8DFTAZ","A2K0L9M1ZZO5C9","3B623HUYJ4CRB58WBJVF3U5O917S8D","","637.1999999992549","img/land5.png","74","638.6999999992549","1","1","1","1","1,0.5,0.5,0.5,1,0.5,0.5,0.5,1","1,0.5,0.5,0.5,1,0.5,0.5,0.5,1","1","",""
"","html-keyboard-response","105","117017","0.0-105.0","3WSELTNVR4O8VDCKOJPLY93T8DFTAZ","A2K0L9M1ZZO5C9","3B623HUYJ4CRB58WBJVF3U5O917S8D","","null","<img src=""img/land5.png"" style=""width:200px; border:14px solid green;"">","null","","","","","","","","","",""
"","image-keyboard-response","106","117790","0.0-106.0","3WSELTNVR4O8VDCKOJPLY93T8DFTAZ","A2K0L9M1ZZO5C9","3B623HUYJ4CRB58WBJVF3U5O917S8D","","771.0999999996275","img/land5.png","74","772.9000000003725","1","1","1","1","1,0.5,0.5,0.5,1,0.5,0.5,0.5,1","1,0.5,0.5,0.5,1,0.5,0.5,0.5,1","1","",""
"","html-keyboard-response","107","118100","0.0-107.0","3WSELTNVR4O8VDCKOJPLY93T8DFTAZ","A2K0L9M1ZZO5C9","3B623HUYJ4CRB58WBJVF3U5O917S8D","","null","<img src=""img/land5.png"" style=""width:200px; border:14px solid green;"">","null","","","","","","","","","",""
"","image-keyboard-response","108","118783","0.0-108.0","3WSELTNVR4O8VDCKOJPLY93T8DFTAZ","A2K0L9M1ZZO5C9","3B623HUYJ4CRB58WBJVF3U5O917S8D","","680.8999999985099","img/land6.png","75","682.1999999992549","2","1","2","1","1,0.5,0.5,0.5,1,0.5,0.5,0.5,1","1,0.5,0.5,0.5,1,0.5,0.5,0.5,1","1","",""
"","html-keyboard-response","109","119087","0.0-109.0","3WSELTNVR4O8VDCKOJPLY93T8DFTAZ","A2K0L9M1ZZO5C9","3B623HUYJ4CRB58WBJVF3U5O917S8D","","null","<img src=""img/land6.png"" style=""width:200px; border:14px solid green;"">","null","","","","","","","","","",""
"","image-keyboard-response","110","119801","0.0-110.0","3WSELTNVR4O8VDCKOJPLY93T8DFTAZ","A2K0L9M1ZZO5C9","3B623HUYJ4CRB58WBJVF3U5O917S8D","","712.1999999992549","img/land5.png","74","713.5","1","1","1","1","1,0.5,0.5,0.5,1,0.5,0.5,0.5,1","1,0.5,0.5,0.5,1,0.5,0.5,0.5,1","1","",""
"","html-keyboard-response","111","120109","0.0-111.0","3WSELTNVR4O8VDCKOJPLY93T8DFTAZ","A2K0L9M1ZZO5C9","3B623HUYJ4CRB58WBJVF3U5O917S8D","","null","<img src=""img/land5.png"" style=""width:200px; border:14px solid green;"">","null","","","","","","","","","",""
"","image-keyboard-response","112","121077","0.0-112.0","3WSELTNVR4O8VDCKOJPLY93T8DFTAZ","A2K0L9M1ZZO5C9","3B623HUYJ4CRB58WBJVF3U5O917S8D","","965.9000000003725","img/land2.png","76","967.2999999988824","3","1","3","1","1,0.5,0.5,0.5,1,0.5,0.5,0.5,1","1,0.5,0.5,0.5,1,0.5,0.5,0.5,1","1","",""
"","html-keyboard-response","113","121386","0.0-113.0","3WSELTNVR4O8VDCKOJPLY93T8DFTAZ","A2K0L9M1ZZO5C9","3B623HUYJ4CRB58WBJVF3U5O917S8D","","null","<img src=""img/land2.png"" style=""width:200px; border:14px solid green;"">","null","","","","","","","","","",""
"","image-keyboard-response","114","122590","0.0-114.0","3WSELTNVR4O8VDCKOJPLY93T8DFTAZ","A2K0L9M1ZZO5C9","3B623HUYJ4CRB58WBJVF3U5O917S8D","","1200.8999999985099","img/land2.png","76","1202.2999999988824","3","1","3","1","1,0.5,0.5,0.5,1,0.5,0.5,0.5,1","1,0.5,0.5,0.5,1,0.5,0.5,0.5,1","1","",""
"","html-keyboard-response","115","122898","0.0-115.0","3WSELTNVR4O8VDCKOJPLY93T8DFTAZ","A2K0L9M1ZZO5C9","3B623HUYJ4CRB58WBJVF3U5O917S8D","","null","<img src=""img/land2.png"" style=""width:200px; border:14px solid green;"">","null","","","","","","","","","",""
"","image-keyboard-response","116","123921","0.0-116.0","3WSELTNVR4O8VDCKOJPLY93T8DFTAZ","A2K0L9M1ZZO5C9","3B623HUYJ4CRB58WBJVF3U5O917S8D","","1021.5","img/land6.png","75","1022.5999999996275","2","1","2","1","1,0.5,0.5,0.5,1,0.5,0.5,0.5,1","1,0.5,0.5,0.5,1,0.5,0.5,0.5,1","1","",""
"","html-keyboard-response","117","124226","0.0-117.0","3WSELTNVR4O8VDCKOJPLY93T8DFTAZ","A2K0L9M1ZZO5C9","3B623HUYJ4CRB58WBJVF3U5O917S8D","","null","<img src=""img/land6.png"" style=""width:200px; border:14px solid green;"">","null","","","","","","","","","",""
"","image-keyboard-response","118","124875","0.0-118.0","3WSELTNVR4O8VDCKOJPLY93T8DFTAZ","A2K0L9M1ZZO5C9","3B623HUYJ4CRB58WBJVF3U5O917S8D","","647.7000000011176","img/land5.png","74","649","1","1","1","1","1,0.5,0.5,0.5,1,0.5,0.5,0.5,1","1,0.5,0.5,0.5,1,0.5,0.5,0.5,1","1","",""
"","html-keyboard-response","119","125186","0.0-119.0","3WSELTNVR4O8VDCKOJPLY93T8DFTAZ","A2K0L9M1ZZO5C9","3B623HUYJ4CRB58WBJVF3U5O917S8D","","null","<img src=""img/land5.png"" style=""width:200px; border:14px solid green;"">","null","","","","","","","","","",""
"","image-keyboard-response","120","125766","0.0-120.0","3WSELTNVR4O8VDCKOJPLY93T8DFTAZ","A2K0L9M1ZZO5C9","3B623HUYJ4CRB58WBJVF3U5O917S8D","","578.5999999996275","img/land5.png","74","579.9000000003725","1","1","1","1","1,0.5,0.5,0.5,1,0.5,0.5,0.5,1","1,0.5,0.5,0.5,1,0.5,0.5,0.5,1","1","",""
"","html-keyboard-response","121","126077","0.0-121.0","3WSELTNVR4O8VDCKOJPLY93T8DFTAZ","A2K0L9M1ZZO5C9","3B623HUYJ4CRB58WBJVF3U5O917S8D","","null","<img src=""img/land5.png"" style=""width:200px; border:14px solid green;"">","null","","","","","","","","","",""
"","image-keyboard-response","122","126561","0.0-122.0","3WSELTNVR4O8VDCKOJPLY93T8DFTAZ","A2K0L9M1ZZO5C9","3B623HUYJ4CRB58WBJVF3U5O917S8D","","482.19999999925494","img/land5.png","74","483.40000000037253","1","1","1","1","1,0.5,0.5,0.5,1,0.5,0.5,0.5,1","1,0.5,0.5,0.5,1,0.5,0.5,0.5,1","1","",""
"","html-keyboard-response","123","126867","0.0-123.0","3WSELTNVR4O8VDCKOJPLY93T8DFTAZ","A2K0L9M1ZZO5C9","3B623HUYJ4CRB58WBJVF3U5O917S8D","","null","<img src=""img/land5.png"" style=""width:200px; border:14px solid green;"">","null","","","","","","","","","",""
"","image-keyboard-response","124","127784","0.0-124.0","3WSELTNVR4O8VDCKOJPLY93T8DFTAZ","A2K0L9M1ZZO5C9","3B623HUYJ4CRB58WBJVF3U5O917S8D","","915.4000000003725","img/land6.png","75","916.9000000003725","2","1","2","1","1,0.5,0.5,0.5,1,0.5,0.5,0.5,1","1,0.5,0.5,0.5,1,0.5,0.5,0.5,1","1","",""
"","html-keyboard-response","125","128086","0.0-125.0","3WSELTNVR4O8VDCKOJPLY93T8DFTAZ","A2K0L9M1ZZO5C9","3B623HUYJ4CRB58WBJVF3U5O917S8D","","null","<img src=""img/land6.png"" style=""width:200px; border:14px solid green;"">","null","","","","","","","","","",""
"","image-keyboard-response","126","129470","0.0-126.0","3WSELTNVR4O8VDCKOJPLY93T8DFTAZ","A2K0L9M1ZZO5C9","3B623HUYJ4CRB58WBJVF3U5O917S8D","","1382.699999999255","img/land5.png","74","1383.7999999988824","1","1","1","1","1,0.5,0.5,0.5,1,0.5,0.5,0.5,1","1,0.5,0.5,0.5,1,0.5,0.5,0.5,1","1","",""
"","html-keyboard-response","127","129781","0.0-127.0","3WSELTNVR4O8VDCKOJPLY93T8DFTAZ","A2K0L9M1ZZO5C9","3B623HUYJ4CRB58WBJVF3U5O917S8D","","null","<img src=""img/land5.png"" style=""width:200px; border:14px solid green;"">","null","","","","","","","","","",""
"","image-keyboard-response","128","130235","0.0-128.0","3WSELTNVR4O8VDCKOJPLY93T8DFTAZ","A2K0L9M1ZZO5C9","3B623HUYJ4CRB58WBJVF3U5O917S8D","","452.5","img/land5.png","74","454.19999999925494","1","1","1","1","1,0.5,0.5,0.5,1,0.5,0.5,0.5,1","1,0.5,0.5,0.5,1,0.5,0.5,0.5,1","1","",""
"","html-keyboard-response","129","130546","0.0-129.0","3WSELTNVR4O8VDCKOJPLY93T8DFTAZ","A2K0L9M1ZZO5C9","3B623HUYJ4CRB58WBJVF3U5O917S8D","","null","<img src=""img/land5.png"" style=""width:200px; border:14px solid green;"">","null","","","","","","","","","",""
"","image-keyboard-response","130","131181","0.0-130.0","3WSELTNVR4O8VDCKOJPLY93T8DFTAZ","A2K0L9M1ZZO5C9","3B623HUYJ4CRB58WBJVF3U5O917S8D","","633.9000000003725","img/land6.png","75","635","2","1","2","1","1,0.5,0.5,0.5,1,0.5,0.5,0.5,1","1,0.5,0.5,0.5,1,0.5,0.5,0.5,1","1","",""
"","html-keyboard-response","131","131501","0.0-131.0","3WSELTNVR4O8VDCKOJPLY93T8DFTAZ","A2K0L9M1ZZO5C9","3B623HUYJ4CRB58WBJVF3U5O917S8D","","null","<img src=""img/land6.png"" style=""width:200px; border:14px solid green;"">","null","","","","","","","","","",""
"","image-keyboard-response","132","132140","0.0-132.0","3WSELTNVR4O8VDCKOJPLY93T8DFTAZ","A2K0L9M1ZZO5C9","3B623HUYJ4CRB58WBJVF3U5O917S8D","","637.7000000011176","img/land2.png","76","638.8000000007451","3","1","3","1","1,0.5,0.5,0.5,1,0.5,0.5,0.5,1","1,0.5,0.5,0.5,1,0.5,0.5,0.5,1","1","",""
"","html-keyboard-response","133","132452","0.0-133.0","3WSELTNVR4O8VDCKOJPLY93T8DFTAZ","A2K0L9M1ZZO5C9","3B623HUYJ4CRB58WBJVF3U5O917S8D","","null","<img src=""img/land2.png"" style=""width:200px; border:14px solid green;"">","null","","","","","","","","","",""
"","image-keyboard-response","134","133898","0.0-134.0","3WSELTNVR4O8VDCKOJPLY93T8DFTAZ","A2K0L9M1ZZO5C9","3B623HUYJ4CRB58WBJVF3U5O917S8D","","1444.2000000011176","img/land6.png","75","1445.5999999996275","2","1","2","1","1,0.5,0.5,0.5,1,0.5,0.5,0.5,1","1,0.5,0.5,0.5,1,0.5,0.5,0.5,1","1","",""
"","html-keyboard-response","135","134209","0.0-135.0","3WSELTNVR4O8VDCKOJPLY93T8DFTAZ","A2K0L9M1ZZO5C9","3B623HUYJ4CRB58WBJVF3U5O917S8D","","null","<img src=""img/land6.png"" style=""width:200px; border:14px solid green;"">","null","","","","","","","","","",""
"","image-keyboard-response","136","135011","0.0-136.0","3WSELTNVR4O8VDCKOJPLY93T8DFTAZ","A2K0L9M1ZZO5C9","3B623HUYJ4CRB58WBJVF3U5O917S8D","","800.1999999992549","img/land2.png","76","801.5999999996275","3","1","3","1","1,0.5,0.5,0.5,1,0.5,0.5,0.5,1","1,0.5,0.5,0.5,1,0.5,0.5,0.5,1","1","",""
"","html-keyboard-response","137","135326","0.0-137.0","3WSELTNVR4O8VDCKOJPLY93T8DFTAZ","A2K0L9M1ZZO5C9","3B623HUYJ4CRB58WBJVF3U5O917S8D","","null","<img src=""img/land2.png"" style=""width:200px; border:14px solid green;"">","null","","","","","","","","","",""
"","image-keyboard-response","138","136740","0.0-138.0","3WSELTNVR4O8VDCKOJPLY93T8DFTAZ","A2K0L9M1ZZO5C9","3B623HUYJ4CRB58WBJVF3U5O917S8D","","1413.4000000003725","img/land5.png","74","1414.199999999255","1","1","1","1","1,0.5,0.5,0.5,1,0.5,0.5,0.5,1","1,0.5,0.5,0.5,1,0.5,0.5,0.5,1","1","",""
"","html-keyboard-response","139","137048","0.0-139.0","3WSELTNVR4O8VDCKOJPLY93T8DFTAZ","A2K0L9M1ZZO5C9","3B623HUYJ4CRB58WBJVF3U5O917S8D","","null","<img src=""img/land5.png"" style=""width:200px; border:14px solid green;"">","null","","","","","","","","","",""
"","image-keyboard-response","140","138352","0.0-140.0","3WSELTNVR4O8VDCKOJPLY93T8DFTAZ","A2K0L9M1ZZO5C9","3B623HUYJ4CRB58WBJVF3U5O917S8D","","1303","img/land5.png","74","1304.300000000745","1","1","1","1","1,0.5,0.5,0.5,1,0.5,0.5,0.5,1","1,0.5,0.5,0.5,1,0.5,0.5,0.5,1","1","",""
"","html-keyboard-response","141","138658","0.0-141.0","3WSELTNVR4O8VDCKOJPLY93T8DFTAZ","A2K0L9M1ZZO5C9","3B623HUYJ4CRB58WBJVF3U5O917S8D","","null","<img src=""img/land5.png"" style=""width:200px; border:14px solid green;"">","null","","","","","","","","","",""
"","image-keyboard-response","142","139283","0.0-142.0","3WSELTNVR4O8VDCKOJPLY93T8DFTAZ","A2K0L9M1ZZO5C9","3B623HUYJ4CRB58WBJVF3U5O917S8D","","624.2999999988824","img/land2.png","76","625","3","1","3","1","1,0.5,0.5,0.5,1,0.5,0.5,0.5,1","1,0.5,0.5,0.5,1,0.5,0.5,0.5,1","1","",""
"","html-keyboard-response","143","139586","0.0-143.0","3WSELTNVR4O8VDCKOJPLY93T8DFTAZ","A2K0L9M1ZZO5C9","3B623HUYJ4CRB58WBJVF3U5O917S8D","","null","<img src=""img/land2.png"" style=""width:200px; border:14px solid green;"">","null","","","","","","","","","",""
"","image-keyboard-response","144","140437","0.0-144.0","3WSELTNVR4O8VDCKOJPLY93T8DFTAZ","A2K0L9M1ZZO5C9","3B623HUYJ4CRB58WBJVF3U5O917S8D","","849.6000000014901","img/land5.png","74","851.0999999996275","1","1","1","1","1,0.5,0.5,0.5,1,0.5,0.5,0.5,1","1,0.5,0.5,0.5,1,0.5,0.5,0.5,1","1","",""
"","html-keyboard-response","145","140748","0.0-145.0","3WSELTNVR4O8VDCKOJPLY93T8DFTAZ","A2K0L9M1ZZO5C9","3B623HUYJ4CRB58WBJVF3U5O917S8D","","null","<img src=""img/land5.png"" style=""width:200px; border:14px solid green;"">","null","","","","","","","","","",""
"","image-keyboard-response","146","141553","0.0-146.0","3WSELTNVR4O8VDCKOJPLY93T8DFTAZ","A2K0L9M1ZZO5C9","3B623HUYJ4CRB58WBJVF3U5O917S8D","","802.8000000007451","img/land5.png","74","804.3000000007451","1","1","1","1","1,0.5,0.5,0.5,1,0.5,0.5,0.5,1","1,0.5,0.5,0.5,1,0.5,0.5,0.5,1","1","",""
"","html-keyboard-response","147","141860","0.0-147.0","3WSELTNVR4O8VDCKOJPLY93T8DFTAZ","A2K0L9M1ZZO5C9","3B623HUYJ4CRB58WBJVF3U5O917S8D","","null","<img src=""img/land5.png"" style=""width:200px; border:14px solid green;"">","null","","","","","","","","","",""
"","image-keyboard-response","148","142545","0.0-148.0","3WSELTNVR4O8VDCKOJPLY93T8DFTAZ","A2K0L9M1ZZO5C9","3B623HUYJ4CRB58WBJVF3U5O917S8D","","683.8000000007451","img/land2.png","76","685.0999999996275","3","1","3","1","1,0.5,0.5,0.5,1,0.5,0.5,0.5,1","1,0.5,0.5,0.5,1,0.5,0.5,0.5,1","1","",""
"","html-keyboard-response","149","142850","0.0-149.0","3WSELTNVR4O8VDCKOJPLY93T8DFTAZ","A2K0L9M1ZZO5C9","3B623HUYJ4CRB58WBJVF3U5O917S8D","","null","<img src=""img/land2.png"" style=""width:200px; border:14px solid green;"">","null","","","","","","","","","",""
"","image-keyboard-response","150","144057","0.0-150.0","3WSELTNVR4O8VDCKOJPLY93T8DFTAZ","A2K0L9M1ZZO5C9","3B623HUYJ4CRB58WBJVF3U5O917S8D","","1204.800000000745","img/land5.png","74","1206.5999999996275","1","1","1","1","1,0.5,0.5,0.5,1,0.5,0.5,0.5,1","1,0.5,0.5,0.5,1,0.5,0.5,0.5,1","1","",""
"","html-keyboard-response","151","144363","0.0-151.0","3WSELTNVR4O8VDCKOJPLY93T8DFTAZ","A2K0L9M1ZZO5C9","3B623HUYJ4CRB58WBJVF3U5O917S8D","","null","<img src=""img/land5.png"" style=""width:200px; border:14px solid green;"">","null","","","","","","","","","",""
"","image-keyboard-response","152","145131","0.0-152.0","3WSELTNVR4O8VDCKOJPLY93T8DFTAZ","A2K0L9M1ZZO5C9","3B623HUYJ4CRB58WBJVF3U5O917S8D","","766.3000000007451","img/land2.png","76","767.9000000003725","3","1","3","1","1,0.5,0.5,0.5,1,0.5,0.5,0.5,1","1,0.5,0.5,0.5,1,0.5,0.5,0.5,1","1","",""
"","html-keyboard-response","153","145436","0.0-153.0","3WSELTNVR4O8VDCKOJPLY93T8DFTAZ","A2K0L9M1ZZO5C9","3B623HUYJ4CRB58WBJVF3U5O917S8D","","null","<img src=""img/land2.png"" style=""width:200px; border:14px solid green;"">","null","","","","","","","","","",""
"","image-keyboard-response","154","146127","0.0-154.0","3WSELTNVR4O8VDCKOJPLY93T8DFTAZ","A2K0L9M1ZZO5C9","3B623HUYJ4CRB58WBJVF3U5O917S8D","","689","img/land6.png","75","690.3999999985099","2","1","2","1","1,0.5,0.5,0.5,1,0.5,0.5,0.5,1","1,0.5,0.5,0.5,1,0.5,0.5,0.5,1","1","",""
"","html-keyboard-response","155","146432","0.0-155.0","3WSELTNVR4O8VDCKOJPLY93T8DFTAZ","A2K0L9M1ZZO5C9","3B623HUYJ4CRB58WBJVF3U5O917S8D","","null","<img src=""img/land6.png"" style=""width:200px; border:14px solid green;"">","null","","","","","","","","","",""
"","image-keyboard-response","156","147160","0.0-156.0","3WSELTNVR4O8VDCKOJPLY93T8DFTAZ","A2K0L9M1ZZO5C9","3B623HUYJ4CRB58WBJVF3U5O917S8D","","725.9000000003725","img/land6.png","75","727.5","2","1","2","1","1,0.5,0.5,0.5,1,0.5,0.5,0.5,1","1,0.5,0.5,0.5,1,0.5,0.5,0.5,1","1","",""
"","html-keyboard-response","157","147463","0.0-157.0","3WSELTNVR4O8VDCKOJPLY93T8DFTAZ","A2K0L9M1ZZO5C9","3B623HUYJ4CRB58WBJVF3U5O917S8D","","null","<img src=""img/land6.png"" style=""width:200px; border:14px solid green;"">","null","","","","","","","","","",""
"","image-keyboard-response","158","148887","0.0-158.0","3WSELTNVR4O8VDCKOJPLY93T8DFTAZ","A2K0L9M1ZZO5C9","3B623HUYJ4CRB58WBJVF3U5O917S8D","","1422.5999999996275","img/land2.png","76","1423.9000000003725","3","1","3","1","1,0.5,0.5,0.5,1,0.5,0.5,0.5,1","1,0.5,0.5,0.5,1,0.5,0.5,0.5,1","1","",""
"","html-keyboard-response","159","149198","0.0-159.0","3WSELTNVR4O8VDCKOJPLY93T8DFTAZ","A2K0L9M1ZZO5C9","3B623HUYJ4CRB58WBJVF3U5O917S8D","","null","<img src=""img/land2.png"" style=""width:200px; border:14px solid green;"">","null","","","","","","","","","",""
"","image-keyboard-response","160","150176","0.0-160.0","3WSELTNVR4O8VDCKOJPLY93T8DFTAZ","A2K0L9M1ZZO5C9","3B623HUYJ4CRB58WBJVF3U5O917S8D","","975.8999999985099","img/land6.png","75","977.4000000003725","2","1","2","1","1,0.5,0.5,0.5,1,0.5,0.5,0.5,1","1,0.5,0.5,0.5,1,0.5,0.5,0.5,1","1","",""
"","html-keyboard-response","161","150479","0.0-161.0","3WSELTNVR4O8VDCKOJPLY93T8DFTAZ","A2K0L9M1ZZO5C9","3B623HUYJ4CRB58WBJVF3U5O917S8D","","null","<img src=""img/land6.png"" style=""width:200px; border:14px solid green;"">","null","","","","","","","","","",""
"","image-keyboard-response","162","151294","0.0-162.0","3WSELTNVR4O8VDCKOJPLY93T8DFTAZ","A2K0L9M1ZZO5C9","3B623HUYJ4CRB58WBJVF3U5O917S8D","","812.3000000007451","img/land2.png","76","813.9000000003725","3","1","3","1","1,0.5,0.5,0.5,1,0.5,0.5,0.5,1","1,0.5,0.5,0.5,1,0.5,0.5,0.5,1","1","",""
"","html-keyboard-response","163","151600","0.0-163.0","3WSELTNVR4O8VDCKOJPLY93T8DFTAZ","A2K0L9M1ZZO5C9","3B623HUYJ4CRB58WBJVF3U5O917S8D","","null","<img src=""img/land2.png"" style=""width:200px; border:14px solid green;"">","null","","","","","","","","","",""
"","image-keyboard-response","164","152233","0.0-164.0","3WSELTNVR4O8VDCKOJPLY93T8DFTAZ","A2K0L9M1ZZO5C9","3B623HUYJ4CRB58WBJVF3U5O917S8D","","631.5","img/land2.png","76","632.6000000014901","3","1","3","1","1,0.5,0.5,0.5,1,0.5,0.5,0.5,1","1,0.5,0.5,0.5,1,0.5,0.5,0.5,1","1","",""
"","html-keyboard-response","165","152536","0.0-165.0","3WSELTNVR4O8VDCKOJPLY93T8DFTAZ","A2K0L9M1ZZO5C9","3B623HUYJ4CRB58WBJVF3U5O917S8D","","null","<img src=""img/land2.png"" style=""width:200px; border:14px solid green;"">","null","","","","","","","","","",""
"","image-keyboard-response","166","153247","0.0-166.0","3WSELTNVR4O8VDCKOJPLY93T8DFTAZ","A2K0L9M1ZZO5C9","3B623HUYJ4CRB58WBJVF3U5O917S8D","","710.0999999996275","img/land6.png","75","711.3000000007451","2","1","2","1","1,0.5,0.5,0.5,1,0.5,0.5,0.5,1","1,0.5,0.5,0.5,1,0.5,0.5,0.5,1","1","",""
"","html-keyboard-response","167","153556","0.0-167.0","3WSELTNVR4O8VDCKOJPLY93T8DFTAZ","A2K0L9M1ZZO5C9","3B623HUYJ4CRB58WBJVF3U5O917S8D","","null","<img src=""img/land6.png"" style=""width:200px; border:14px solid green;"">","null","","","","","","","","","",""
"","image-keyboard-response","168","154153","0.0-168.0","3WSELTNVR4O8VDCKOJPLY93T8DFTAZ","A2K0L9M1ZZO5C9","3B623HUYJ4CRB58WBJVF3U5O917S8D","","595.6999999992549","img/land5.png","74","596.8000000007451","1","1","1","1","1,0.5,0.5,0.5,1,0.5,0.5,0.5,1","1,0.5,0.5,0.5,1,0.5,0.5,0.5,1","1","",""
"","html-keyboard-response","169","154460","0.0-169.0","3WSELTNVR4O8VDCKOJPLY93T8DFTAZ","A2K0L9M1ZZO5C9","3B623HUYJ4CRB58WBJVF3U5O917S8D","","null","<img src=""img/land5.png"" style=""width:200px; border:14px solid green;"">","null","","","","","","","","","",""
"","image-keyboard-response","170","154910","0.0-170.0","3WSELTNVR4O8VDCKOJPLY93T8DFTAZ","A2K0L9M1ZZO5C9","3B623HUYJ4CRB58WBJVF3U5O917S8D","","448.59999999962747","img/land5.png","74","450.09999999962747","1","1","1","1","1,0.5,0.5,0.5,1,0.5,0.5,0.5,1","1,0.5,0.5,0.5,1,0.5,0.5,0.5,1","1","",""
"","html-keyboard-response","171","155218","0.0-171.0","3WSELTNVR4O8VDCKOJPLY93T8DFTAZ","A2K0L9M1ZZO5C9","3B623HUYJ4CRB58WBJVF3U5O917S8D","","null","<img src=""img/land5.png"" style=""width:200px; border:14px solid green;"">","null","","","","","","","","","",""
"","image-keyboard-response","172","155950","0.0-172.0","3WSELTNVR4O8VDCKOJPLY93T8DFTAZ","A2K0L9M1ZZO5C9","3B623HUYJ4CRB58WBJVF3U5O917S8D","","730","img/land2.png","76","731.6999999992549","3","1","3","1","1,0.5,0.5,0.5,1,0.5,0.5,0.5,1","1,0.5,0.5,0.5,1,0.5,0.5,0.5,1","1","",""
"","html-keyboard-response","173","156259","0.0-173.0","3WSELTNVR4O8VDCKOJPLY93T8DFTAZ","A2K0L9M1ZZO5C9","3B623HUYJ4CRB58WBJVF3U5O917S8D","","null","<img src=""img/land2.png"" style=""width:200px; border:14px solid green;"">","null","","","","","","","","","",""
"","image-keyboard-response","174","156740","0.0-174.0","3WSELTNVR4O8VDCKOJPLY93T8DFTAZ","A2K0L9M1ZZO5C9","3B623HUYJ4CRB58WBJVF3U5O917S8D","","480.09999999962747","img/land2.png","76","481.19999999925494","3","1","3","1","1,0.5,0.5,0.5,1,0.5,0.5,0.5,1","1,0.5,0.5,0.5,1,0.5,0.5,0.5,1","1","",""
"","html-keyboard-response","175","157047","0.0-175.0","3WSELTNVR4O8VDCKOJPLY93T8DFTAZ","A2K0L9M1ZZO5C9","3B623HUYJ4CRB58WBJVF3U5O917S8D","","null","<img src=""img/land2.png"" style=""width:200px; border:14px solid green;"">","null","","","","","","","","","",""
"","image-keyboard-response","176","157855","0.0-176.0","3WSELTNVR4O8VDCKOJPLY93T8DFTAZ","A2K0L9M1ZZO5C9","3B623HUYJ4CRB58WBJVF3U5O917S8D","","806","img/land5.png","74","807.5","1","1","1","1","1,0.5,0.5,0.5,1,0.5,0.5,0.5,1","1,0.5,0.5,0.5,1,0.5,0.5,0.5,1","1","",""
"","html-keyboard-response","177","158160","0.0-177.0","3WSELTNVR4O8VDCKOJPLY93T8DFTAZ","A2K0L9M1ZZO5C9","3B623HUYJ4CRB58WBJVF3U5O917S8D","","null","<img src=""img/land5.png"" style=""width:200px; border:14px solid green;"">","null","","","","","","","","","",""
"","image-keyboard-response","178","159242","0.0-178.0","3WSELTNVR4O8VDCKOJPLY93T8DFTAZ","A2K0L9M1ZZO5C9","3B623HUYJ4CRB58WBJVF3U5O917S8D","","1081.1000000014901","img/land6.png","75","1081.8999999985099","2","1","2","1","1,0.5,0.5,0.5,1,0.5,0.5,0.5,1","1,0.5,0.5,0.5,1,0.5,0.5,0.5,1","1","",""
"","html-keyboard-response","179","159558","0.0-179.0","3WSELTNVR4O8VDCKOJPLY93T8DFTAZ","A2K0L9M1ZZO5C9","3B623HUYJ4CRB58WBJVF3U5O917S8D","","null","<img src=""img/land6.png"" style=""width:200px; border:14px solid green;"">","null","","","","","","","","","",""
"","image-keyboard-response","180","160697","0.0-180.0","3WSELTNVR4O8VDCKOJPLY93T8DFTAZ","A2K0L9M1ZZO5C9","3B623HUYJ4CRB58WBJVF3U5O917S8D","","1137.5","img/land2.png","76","1138.9000000003725","3","1","3","1","1,0.5,0.5,0.5,1,0.5,0.5,0.5,1","1,0.5,0.5,0.5,1,0.5,0.5,0.5,1","1","",""
"","html-keyboard-response","181","161006","0.0-181.0","3WSELTNVR4O8VDCKOJPLY93T8DFTAZ","A2K0L9M1ZZO5C9","3B623HUYJ4CRB58WBJVF3U5O917S8D","","null","<img src=""img/land2.png"" style=""width:200px; border:14px solid green;"">","null","","","","","","","","","",""
"","html-keyboard-response","182","169980","0.0-182.0","3WSELTNVR4O8VDCKOJPLY93T8DFTAZ","A2K0L9M1ZZO5C9","3B623HUYJ4CRB58WBJVF3U5O917S8D","","","","","","","","","","","","","",""
"","image-keyboard-response","183","171164","0.0-183.0","3WSELTNVR4O8VDCKOJPLY93T8DFTAZ","A2K0L9M1ZZO5C9","3B623HUYJ4CRB58WBJVF3U5O917S8D","","1182.7999999988824","img/land3.png","74","1184.4000000003725","1","0","1","2","1,0.5,0.5,0.5,1,0.5,0.5,0.5,1","0.5,1,0.5,0.5,0.5,1,1,0.5,0.5","3","",""
"","html-keyboard-response","184","171472","0.0-184.0","3WSELTNVR4O8VDCKOJPLY93T8DFTAZ","A2K0L9M1ZZO5C9","3B623HUYJ4CRB58WBJVF3U5O917S8D","","null","<img src=""img/land3.png"" style=""width:200px;border:14px solid red;"">","null","","","","","","","","","",""
"","image-keyboard-response","185","172830","0.0-185.0","3WSELTNVR4O8VDCKOJPLY93T8DFTAZ","A2K0L9M1ZZO5C9","3B623HUYJ4CRB58WBJVF3U5O917S8D","","1356.2999999988824","img/land3.png","75","1357.7999999988824","2","1","1","2","1,0.5,0.5,0.5,1,0.5,0.5,0.5,1","0.5,1,0.5,0.5,0.5,1,1,0.5,0.5","3","",""
"","html-keyboard-response","186","173132","0.0-186.0","3WSELTNVR4O8VDCKOJPLY93T8DFTAZ","A2K0L9M1ZZO5C9","3B623HUYJ4CRB58WBJVF3U5O917S8D","","null","<img src=""img/land3.png"" style=""width:200px; border:14px solid green;"">","null","","","","","","","","","",""
"","image-keyboard-response","187","173992","0.0-187.0","3WSELTNVR4O8VDCKOJPLY93T8DFTAZ","A2K0L9M1ZZO5C9","3B623HUYJ4CRB58WBJVF3U5O917S8D","","859.5","img/land3.png","75","860.5","2","1","1","2","1,0.5,0.5,0.5,1,0.5,0.5,0.5,1","0.5,1,0.5,0.5,0.5,1,1,0.5,0.5","3","",""
"","html-keyboard-response","188","174297","0.0-188.0","3WSELTNVR4O8VDCKOJPLY93T8DFTAZ","A2K0L9M1ZZO5C9","3B623HUYJ4CRB58WBJVF3U5O917S8D","","null","<img src=""img/land3.png"" style=""width:200px; border:14px solid green;"">","null","","","","","","","","","",""
"","image-keyboard-response","189","175052","0.0-189.0","3WSELTNVR4O8VDCKOJPLY93T8DFTAZ","A2K0L9M1ZZO5C9","3B623HUYJ4CRB58WBJVF3U5O917S8D","","753.9000000003725","img/land3.png","75","755.4000000003725","2","1","1","2","1,0.5,0.5,0.5,1,0.5,0.5,0.5,1","0.5,1,0.5,0.5,0.5,1,1,0.5,0.5","3","",""
"","html-keyboard-response","190","175361","0.0-190.0","3WSELTNVR4O8VDCKOJPLY93T8DFTAZ","A2K0L9M1ZZO5C9","3B623HUYJ4CRB58WBJVF3U5O917S8D","","null","<img src=""img/land3.png"" style=""width:200px; border:14px solid green;"">","null","","","","","","","","","",""
"","image-keyboard-response","191","176011","0.0-191.0","3WSELTNVR4O8VDCKOJPLY93T8DFTAZ","A2K0L9M1ZZO5C9","3B623HUYJ4CRB58WBJVF3U5O917S8D","","648.1999999992549","img/land3.png","75","649.6999999992549","2","1","1","2","1,0.5,0.5,0.5,1,0.5,0.5,0.5,1","0.5,1,0.5,0.5,0.5,1,1,0.5,0.5","3","",""
"","html-keyboard-response","192","176318","0.0-192.0","3WSELTNVR4O8VDCKOJPLY93T8DFTAZ","A2K0L9M1ZZO5C9","3B623HUYJ4CRB58WBJVF3U5O917S8D","","null","<img src=""img/land3.png"" style=""width:200px; border:14px solid green;"">","null","","","","","","","","","",""
"","image-keyboard-response","193","176956","0.0-193.0","3WSELTNVR4O8VDCKOJPLY93T8DFTAZ","A2K0L9M1ZZO5C9","3B623HUYJ4CRB58WBJVF3U5O917S8D","","637.8000000007451","img/land3.png","75","638.5999999996275","2","1","1","2","1,0.5,0.5,0.5,1,0.5,0.5,0.5,1","0.5,1,0.5,0.5,0.5,1,1,0.5,0.5","3","",""
"","html-keyboard-response","194","177264","0.0-194.0","3WSELTNVR4O8VDCKOJPLY93T8DFTAZ","A2K0L9M1ZZO5C9","3B623HUYJ4CRB58WBJVF3U5O917S8D","","null","<img src=""img/land3.png"" style=""width:200px; border:14px solid green;"">","null","","","","","","","","","",""
"","image-keyboard-response","195","177689","0.0-195.0","3WSELTNVR4O8VDCKOJPLY93T8DFTAZ","A2K0L9M1ZZO5C9","3B623HUYJ4CRB58WBJVF3U5O917S8D","","422.40000000037253","img/land3.png","75","424.30000000074506","2","1","1","2","1,0.5,0.5,0.5,1,0.5,0.5,0.5,1","0.5,1,0.5,0.5,0.5,1,1,0.5,0.5","3","",""
"","html-keyboard-response","196","177995","0.0-196.0","3WSELTNVR4O8VDCKOJPLY93T8DFTAZ","A2K0L9M1ZZO5C9","3B623HUYJ4CRB58WBJVF3U5O917S8D","","null","<img src=""img/land3.png"" style=""width:200px; border:14px solid green;"">","null","","","","","","","","","",""
"","image-keyboard-response","197","178445","0.0-197.0","3WSELTNVR4O8VDCKOJPLY93T8DFTAZ","A2K0L9M1ZZO5C9","3B623HUYJ4CRB58WBJVF3U5O917S8D","","447.90000000037253","img/land3.png","75","449.40000000037253","2","1","1","2","1,0.5,0.5,0.5,1,0.5,0.5,0.5,1","0.5,1,0.5,0.5,0.5,1,1,0.5,0.5","3","",""
"","html-keyboard-response","198","178763","0.0-198.0","3WSELTNVR4O8VDCKOJPLY93T8DFTAZ","A2K0L9M1ZZO5C9","3B623HUYJ4CRB58WBJVF3U5O917S8D","","null","<img src=""img/land3.png"" style=""width:200px; border:14px solid green;"">","null","","","","","","","","","",""
"","image-keyboard-response","199","179143","0.0-199.0","3WSELTNVR4O8VDCKOJPLY93T8DFTAZ","A2K0L9M1ZZO5C9","3B623HUYJ4CRB58WBJVF3U5O917S8D","","379.59999999962747","img/land3.png","75","380.80000000074506","2","1","1","2","1,0.5,0.5,0.5,1,0.5,0.5,0.5,1","0.5,1,0.5,0.5,0.5,1,1,0.5,0.5","3","",""
"","html-keyboard-response","200","179453","0.0-200.0","3WSELTNVR4O8VDCKOJPLY93T8DFTAZ","A2K0L9M1ZZO5C9","3B623HUYJ4CRB58WBJVF3U5O917S8D","","null","<img src=""img/land3.png"" style=""width:200px; border:14px solid green;"">","null","","","","","","","","","",""
"","image-keyboard-response","201","179836","0.0-201.0","3WSELTNVR4O8VDCKOJPLY93T8DFTAZ","A2K0L9M1ZZO5C9","3B623HUYJ4CRB58WBJVF3U5O917S8D","","382","img/land3.png","75","383.30000000074506","2","1","1","2","1,0.5,0.5,0.5,1,0.5,0.5,0.5,1","0.5,1,0.5,0.5,0.5,1,1,0.5,0.5","3","",""
"","html-keyboard-response","202","180139","0.0-202.0","3WSELTNVR4O8VDCKOJPLY93T8DFTAZ","A2K0L9M1ZZO5C9","3B623HUYJ4CRB58WBJVF3U5O917S8D","","null","<img src=""img/land3.png"" style=""width:200px; border:14px solid green;"">","null","","","","","","","","","",""
"","image-keyboard-response","203","180501","0.0-203.0","3WSELTNVR4O8VDCKOJPLY93T8DFTAZ","A2K0L9M1ZZO5C9","3B623HUYJ4CRB58WBJVF3U5O917S8D","","360.80000000074506","img/land3.png","75","362.09999999962747","2","1","1","2","1,0.5,0.5,0.5,1,0.5,0.5,0.5,1","0.5,1,0.5,0.5,0.5,1,1,0.5,0.5","3","",""
"","html-keyboard-response","204","180807","0.0-204.0","3WSELTNVR4O8VDCKOJPLY93T8DFTAZ","A2K0L9M1ZZO5C9","3B623HUYJ4CRB58WBJVF3U5O917S8D","","null","<img src=""img/land3.png"" style=""width:200px; border:14px solid green;"">","null","","","","","","","","","",""
"","image-keyboard-response","205","181938","0.0-205.0","3WSELTNVR4O8VDCKOJPLY93T8DFTAZ","A2K0L9M1ZZO5C9","3B623HUYJ4CRB58WBJVF3U5O917S8D","","1129","img/land1.png","74","1130.199999999255","1","1","3","2","1,0.5,0.5,0.5,1,0.5,0.5,0.5,1","0.5,1,0.5,0.5,0.5,1,1,0.5,0.5","3","",""
"","html-keyboard-response","206","182247","0.0-206.0","3WSELTNVR4O8VDCKOJPLY93T8DFTAZ","A2K0L9M1ZZO5C9","3B623HUYJ4CRB58WBJVF3U5O917S8D","","null","<img src=""img/land1.png"" style=""width:200px; border:14px solid green;"">","null","","","","","","","","","",""
"","image-keyboard-response","207","183093","0.0-207.0","3WSELTNVR4O8VDCKOJPLY93T8DFTAZ","A2K0L9M1ZZO5C9","3B623HUYJ4CRB58WBJVF3U5O917S8D","","847.1999999992549","img/land4.png","76","848.6999999992549","3","1","2","2","1,0.5,0.5,0.5,1,0.5,0.5,0.5,1","0.5,1,0.5,0.5,0.5,1,1,0.5,0.5","3","",""
"","html-keyboard-response","208","183397","0.0-208.0","3WSELTNVR4O8VDCKOJPLY93T8DFTAZ","A2K0L9M1ZZO5C9","3B623HUYJ4CRB58WBJVF3U5O917S8D","","null","<img src=""img/land4.png"" style=""width:200px; border:14px solid green;"">","null","","","","","","","","","",""
"","image-keyboard-response","209","184205","0.0-209.0","3WSELTNVR4O8VDCKOJPLY93T8DFTAZ","A2K0L9M1ZZO5C9","3B623HUYJ4CRB58WBJVF3U5O917S8D","","806.8999999985099","img/land4.png","76","808.5","3","1","2","2","1,0.5,0.5,0.5,1,0.5,0.5,0.5,1","0.5,1,0.5,0.5,0.5,1,1,0.5,0.5","3","",""
"","html-keyboard-response","210","184517","0.0-210.0","3WSELTNVR4O8VDCKOJPLY93T8DFTAZ","A2K0L9M1ZZO5C9","3B623HUYJ4CRB58WBJVF3U5O917S8D","","null","<img src=""img/land4.png"" style=""width:200px; border:14px solid green;"">","null","","","","","","","","","",""
"","image-keyboard-response","211","185274","0.0-211.0","3WSELTNVR4O8VDCKOJPLY93T8DFTAZ","A2K0L9M1ZZO5C9","3B623HUYJ4CRB58WBJVF3U5O917S8D","","755.0999999996275","img/land3.png","75","756.7999999988824","2","1","1","2","1,0.5,0.5,0.5,1,0.5,0.5,0.5,1","0.5,1,0.5,0.5,0.5,1,1,0.5,0.5","3","",""
"","html-keyboard-response","212","185580","0.0-212.0","3WSELTNVR4O8VDCKOJPLY93T8DFTAZ","A2K0L9M1ZZO5C9","3B623HUYJ4CRB58WBJVF3U5O917S8D","","null","<img src=""img/land3.png"" style=""width:200px; border:14px solid green;"">","null","","","","","","","","","",""
"","image-keyboard-response","213","187018","0.0-213.0","3WSELTNVR4O8VDCKOJPLY93T8DFTAZ","A2K0L9M1ZZO5C9","3B623HUYJ4CRB58WBJVF3U5O917S8D","","1436.2999999988824","img/land4.png","74","1437.800000000745","1","0","2","2","1,0.5,0.5,0.5,1,0.5,0.5,0.5,1","0.5,1,0.5,0.5,0.5,1,1,0.5,0.5","3","",""
"","html-keyboard-response","214","187327","0.0-214.0","3WSELTNVR4O8VDCKOJPLY93T8DFTAZ","A2K0L9M1ZZO5C9","3B623HUYJ4CRB58WBJVF3U5O917S8D","","null","<img src=""img/land4.png"" style=""width:200px;border:14px solid red;"">","null","","","","","","","","","",""
"","image-keyboard-response","215","188078","0.0-215.0","3WSELTNVR4O8VDCKOJPLY93T8DFTAZ","A2K0L9M1ZZO5C9","3B623HUYJ4CRB58WBJVF3U5O917S8D","","748.0999999996275","img/land3.png","75","749.5","2","1","1","2","1,0.5,0.5,0.5,1,0.5,0.5,0.5,1","0.5,1,0.5,0.5,0.5,1,1,0.5,0.5","3","",""
"","html-keyboard-response","216","188381","0.0-216.0","3WSELTNVR4O8VDCKOJPLY93T8DFTAZ","A2K0L9M1ZZO5C9","3B623HUYJ4CRB58WBJVF3U5O917S8D","","null","<img src=""img/land3.png"" style=""width:200px; border:14px solid green;"">","null","","","","","","","","","",""
"","image-keyboard-response","217","189392","0.0-217.0","3WSELTNVR4O8VDCKOJPLY93T8DFTAZ","A2K0L9M1ZZO5C9","3B623HUYJ4CRB58WBJVF3U5O917S8D","","1010.3000000007451","img/land1.png","74","1011.5999999996275","1","1","3","2","1,0.5,0.5,0.5,1,0.5,0.5,0.5,1","0.5,1,0.5,0.5,0.5,1,1,0.5,0.5","3","",""
"","html-keyboard-response","218","189697","0.0-218.0","3WSELTNVR4O8VDCKOJPLY93T8DFTAZ","A2K0L9M1ZZO5C9","3B623HUYJ4CRB58WBJVF3U5O917S8D","","null","<img src=""img/land1.png"" style=""width:200px; border:14px solid green;"">","null","","","","","","","","","",""
"","image-keyboard-response","219","190669","0.0-219.0","3WSELTNVR4O8VDCKOJPLY93T8DFTAZ","A2K0L9M1ZZO5C9","3B623HUYJ4CRB58WBJVF3U5O917S8D","","969.7000000011176","img/land3.png","75","971.5","2","1","1","2","1,0.5,0.5,0.5,1,0.5,0.5,0.5,1","0.5,1,0.5,0.5,0.5,1,1,0.5,0.5","3","",""
"","html-keyboard-response","220","190979","0.0-220.0","3WSELTNVR4O8VDCKOJPLY93T8DFTAZ","A2K0L9M1ZZO5C9","3B623HUYJ4CRB58WBJVF3U5O917S8D","","null","<img src=""img/land3.png"" style=""width:200px; border:14px solid green;"">","null","","","","","","","","","",""
"","image-keyboard-response","221","191648","0.0-221.0","3WSELTNVR4O8VDCKOJPLY93T8DFTAZ","A2K0L9M1ZZO5C9","3B623HUYJ4CRB58WBJVF3U5O917S8D","","668.1000000014901","img/land4.png","76","668.6999999992549","3","1","2","2","1,0.5,0.5,0.5,1,0.5,0.5,0.5,1","0.5,1,0.5,0.5,0.5,1,1,0.5,0.5","3","",""
"","html-keyboard-response","222","191957","0.0-222.0","3WSELTNVR4O8VDCKOJPLY93T8DFTAZ","A2K0L9M1ZZO5C9","3B623HUYJ4CRB58WBJVF3U5O917S8D","","null","<img src=""img/land4.png"" style=""width:200px; border:14px solid green;"">","null","","","","","","","","","",""
"","image-keyboard-response","223","192558","0.0-223.0","3WSELTNVR4O8VDCKOJPLY93T8DFTAZ","A2K0L9M1ZZO5C9","3B623HUYJ4CRB58WBJVF3U5O917S8D","","600.1000000014901","img/land3.png","75","601.2000000011176","2","1","1","2","1,0.5,0.5,0.5,1,0.5,0.5,0.5,1","0.5,1,0.5,0.5,0.5,1,1,0.5,0.5","3","",""
"","html-keyboard-response","224","192868","0.0-224.0","3WSELTNVR4O8VDCKOJPLY93T8DFTAZ","A2K0L9M1ZZO5C9","3B623HUYJ4CRB58WBJVF3U5O917S8D","","null","<img src=""img/land3.png"" style=""width:200px; border:14px solid green;"">","null","","","","","","","","","",""
"","image-keyboard-response","225","193383","0.0-225.0","3WSELTNVR4O8VDCKOJPLY93T8DFTAZ","A2K0L9M1ZZO5C9","3B623HUYJ4CRB58WBJVF3U5O917S8D","","513.7999999988824","img/land3.png","76","515.1000000014901","3","0","1","2","1,0.5,0.5,0.5,1,0.5,0.5,0.5,1","0.5,1,0.5,0.5,0.5,1,1,0.5,0.5","3","",""
"","html-keyboard-response","226","193691","0.0-226.0","3WSELTNVR4O8VDCKOJPLY93T8DFTAZ","A2K0L9M1ZZO5C9","3B623HUYJ4CRB58WBJVF3U5O917S8D","","null","<img src=""img/land3.png"" style=""width:200px;border:14px solid red;"">","null","","","","","","","","","",""
"","image-keyboard-response","227","194334","0.0-227.0","3WSELTNVR4O8VDCKOJPLY93T8DFTAZ","A2K0L9M1ZZO5C9","3B623HUYJ4CRB58WBJVF3U5O917S8D","","642.5999999996275","img/land3.png","75","643.5","2","1","1","2","1,0.5,0.5,0.5,1,0.5,0.5,0.5,1","0.5,1,0.5,0.5,0.5,1,1,0.5,0.5","3","",""
"","html-keyboard-response","228","194638","0.0-228.0","3WSELTNVR4O8VDCKOJPLY93T8DFTAZ","A2K0L9M1ZZO5C9","3B623HUYJ4CRB58WBJVF3U5O917S8D","","null","<img src=""img/land3.png"" style=""width:200px; border:14px solid green;"">","null","","","","","","","","","",""
"","image-keyboard-response","229","195729","0.0-229.0","3WSELTNVR4O8VDCKOJPLY93T8DFTAZ","A2K0L9M1ZZO5C9","3B623HUYJ4CRB58WBJVF3U5O917S8D","","1090.0999999996275","img/land1.png","74","1091.4000000003725","1","1","3","2","1,0.5,0.5,0.5,1,0.5,0.5,0.5,1","0.5,1,0.5,0.5,0.5,1,1,0.5,0.5","3","",""
"","html-keyboard-response","230","196039","0.0-230.0","3WSELTNVR4O8VDCKOJPLY93T8DFTAZ","A2K0L9M1ZZO5C9","3B623HUYJ4CRB58WBJVF3U5O917S8D","","null","<img src=""img/land1.png"" style=""width:200px; border:14px solid green;"">","null","","","","","","","","","",""
"","image-keyboard-response","231","196728","0.0-231.0","3WSELTNVR4O8VDCKOJPLY93T8DFTAZ","A2K0L9M1ZZO5C9","3B623HUYJ4CRB58WBJVF3U5O917S8D","","687.2999999988824","img/land4.png","76","688.7999999988824","3","1","2","2","1,0.5,0.5,0.5,1,0.5,0.5,0.5,1","0.5,1,0.5,0.5,0.5,1,1,0.5,0.5","3","",""
"","html-keyboard-response","232","197035","0.0-232.0","3WSELTNVR4O8VDCKOJPLY93T8DFTAZ","A2K0L9M1ZZO5C9","3B623HUYJ4CRB58WBJVF3U5O917S8D","","null","<img src=""img/land4.png"" style=""width:200px; border:14px solid green;"">","null","","","","","","","","","",""
"","image-keyboard-response","233","197705","0.0-233.0","3WSELTNVR4O8VDCKOJPLY93T8DFTAZ","A2K0L9M1ZZO5C9","3B623HUYJ4CRB58WBJVF3U5O917S8D","","668.5","img/land3.png","75","669.8000000007451","2","1","1","2","1,0.5,0.5,0.5,1,0.5,0.5,0.5,1","0.5,1,0.5,0.5,0.5,1,1,0.5,0.5","3","",""
"","html-keyboard-response","234","198023","0.0-234.0","3WSELTNVR4O8VDCKOJPLY93T8DFTAZ","A2K0L9M1ZZO5C9","3B623HUYJ4CRB58WBJVF3U5O917S8D","","null","<img src=""img/land3.png"" style=""width:200px; border:14px solid green;"">","null","","","","","","","","","",""
"","image-keyboard-response","235","198558","0.0-235.0","3WSELTNVR4O8VDCKOJPLY93T8DFTAZ","A2K0L9M1ZZO5C9","3B623HUYJ4CRB58WBJVF3U5O917S8D","","533.4000000003725","img/land3.png","75","534.4000000003725","2","1","1","2","1,0.5,0.5,0.5,1,0.5,0.5,0.5,1","0.5,1,0.5,0.5,0.5,1,1,0.5,0.5","3","",""
"","html-keyboard-response","236","198864","0.0-236.0","3WSELTNVR4O8VDCKOJPLY93T8DFTAZ","A2K0L9M1ZZO5C9","3B623HUYJ4CRB58WBJVF3U5O917S8D","","null","<img src=""img/land3.png"" style=""width:200px; border:14px solid green;"">","null","","","","","","","","","",""
"","image-keyboard-response","237","199326","0.0-237.0","3WSELTNVR4O8VDCKOJPLY93T8DFTAZ","A2K0L9M1ZZO5C9","3B623HUYJ4CRB58WBJVF3U5O917S8D","","460.5","img/land3.png","75","461.90000000037253","2","1","1","2","1,0.5,0.5,0.5,1,0.5,0.5,0.5,1","0.5,1,0.5,0.5,0.5,1,1,0.5,0.5","3","",""
"","html-keyboard-response","238","199636","0.0-238.0","3WSELTNVR4O8VDCKOJPLY93T8DFTAZ","A2K0L9M1ZZO5C9","3B623HUYJ4CRB58WBJVF3U5O917S8D","","null","<img src=""img/land3.png"" style=""width:200px; border:14px solid green;"">","null","","","","","","","","","",""
"","image-keyboard-response","239","200018","0.0-239.0","3WSELTNVR4O8VDCKOJPLY93T8DFTAZ","A2K0L9M1ZZO5C9","3B623HUYJ4CRB58WBJVF3U5O917S8D","","380.2999999988824","img/land3.png","75","382.2000000011176","2","1","1","2","1,0.5,0.5,0.5,1,0.5,0.5,0.5,1","0.5,1,0.5,0.5,0.5,1,1,0.5,0.5","3","",""
"","html-keyboard-response","240","200323","0.0-240.0","3WSELTNVR4O8VDCKOJPLY93T8DFTAZ","A2K0L9M1ZZO5C9","3B623HUYJ4CRB58WBJVF3U5O917S8D","","null","<img src=""img/land3.png"" style=""width:200px; border:14px solid green;"">","null","","","","","","","","","",""
"","image-keyboard-response","241","200709","0.0-241.0","3WSELTNVR4O8VDCKOJPLY93T8DFTAZ","A2K0L9M1ZZO5C9","3B623HUYJ4CRB58WBJVF3U5O917S8D","","384.80000000074506","img/land3.png","75","385.7999999988824","2","1","1","2","1,0.5,0.5,0.5,1,0.5,0.5,0.5,1","0.5,1,0.5,0.5,0.5,1,1,0.5,0.5","3","",""
"","html-keyboard-response","242","201024","0.0-242.0","3WSELTNVR4O8VDCKOJPLY93T8DFTAZ","A2K0L9M1ZZO5C9","3B623HUYJ4CRB58WBJVF3U5O917S8D","","null","<img src=""img/land3.png"" style=""width:200px; border:14px solid green;"">","null","","","","","","","","","",""
"","image-keyboard-response","243","201626","0.0-243.0","3WSELTNVR4O8VDCKOJPLY93T8DFTAZ","A2K0L9M1ZZO5C9","3B623HUYJ4CRB58WBJVF3U5O917S8D","","600.1999999992549","img/land3.png","75","601.4000000003725","2","1","1","2","1,0.5,0.5,0.5,1,0.5,0.5,0.5,1","0.5,1,0.5,0.5,0.5,1,1,0.5,0.5","3","",""
"","html-keyboard-response","244","201944","0.0-244.0","3WSELTNVR4O8VDCKOJPLY93T8DFTAZ","A2K0L9M1ZZO5C9","3B623HUYJ4CRB58WBJVF3U5O917S8D","","null","<img src=""img/land3.png"" style=""width:200px; border:14px solid green;"">","null","","","","","","","","","",""
"","image-keyboard-response","245","202458","0.0-245.0","3WSELTNVR4O8VDCKOJPLY93T8DFTAZ","A2K0L9M1ZZO5C9","3B623HUYJ4CRB58WBJVF3U5O917S8D","","513.1999999992549","img/land3.png","75","514.2999999988824","2","1","1","2","1,0.5,0.5,0.5,1,0.5,0.5,0.5,1","0.5,1,0.5,0.5,0.5,1,1,0.5,0.5","3","",""
"","html-keyboard-response","246","202765","0.0-246.0","3WSELTNVR4O8VDCKOJPLY93T8DFTAZ","A2K0L9M1ZZO5C9","3B623HUYJ4CRB58WBJVF3U5O917S8D","","null","<img src=""img/land3.png"" style=""width:200px; border:14px solid green;"">","null","","","","","","","","","",""
"","image-keyboard-response","247","204114","0.0-247.0","3WSELTNVR4O8VDCKOJPLY93T8DFTAZ","A2K0L9M1ZZO5C9","3B623HUYJ4CRB58WBJVF3U5O917S8D","","1347.7000000011176","img/land4.png","76","1349","3","1","2","2","1,0.5,0.5,0.5,1,0.5,0.5,0.5,1","0.5,1,0.5,0.5,0.5,1,1,0.5,0.5","3","",""
"","html-keyboard-response","248","204422","0.0-248.0","3WSELTNVR4O8VDCKOJPLY93T8DFTAZ","A2K0L9M1ZZO5C9","3B623HUYJ4CRB58WBJVF3U5O917S8D","","null","<img src=""img/land4.png"" style=""width:200px; border:14px solid green;"">","null","","","","","","","","","",""
"","image-keyboard-response","249","205150","0.0-249.0","3WSELTNVR4O8VDCKOJPLY93T8DFTAZ","A2K0L9M1ZZO5C9","3B623HUYJ4CRB58WBJVF3U5O917S8D","","725.7000000011176","img/land3.png","75","727.5","2","1","1","2","1,0.5,0.5,0.5,1,0.5,0.5,0.5,1","0.5,1,0.5,0.5,0.5,1,1,0.5,0.5","3","",""
"","html-keyboard-response","250","205455","0.0-250.0","3WSELTNVR4O8VDCKOJPLY93T8DFTAZ","A2K0L9M1ZZO5C9","3B623HUYJ4CRB58WBJVF3U5O917S8D","","null","<img src=""img/land3.png"" style=""width:200px; border:14px solid green;"">","null","","","","","","","","","",""
"","image-keyboard-response","251","205852","0.0-251.0","3WSELTNVR4O8VDCKOJPLY93T8DFTAZ","A2K0L9M1ZZO5C9","3B623HUYJ4CRB58WBJVF3U5O917S8D","","395.40000000037253","img/land3.png","75","396.5","2","1","1","2","1,0.5,0.5,0.5,1,0.5,0.5,0.5,1","0.5,1,0.5,0.5,0.5,1,1,0.5,0.5","3","",""
"","html-keyboard-response","252","206157","0.0-252.0","3WSELTNVR4O8VDCKOJPLY93T8DFTAZ","A2K0L9M1ZZO5C9","3B623HUYJ4CRB58WBJVF3U5O917S8D","","null","<img src=""img/land3.png"" style=""width:200px; border:14px solid green;"">","null","","","","","","","","","",""
"","image-keyboard-response","253","206507","0.0-253.0","3WSELTNVR4O8VDCKOJPLY93T8DFTAZ","A2K0L9M1ZZO5C9","3B623HUYJ4CRB58WBJVF3U5O917S8D","","349.30000000074506","img/land3.png","75","350.5","2","1","1","2","1,0.5,0.5,0.5,1,0.5,0.5,0.5,1","0.5,1,0.5,0.5,0.5,1,1,0.5,0.5","3","",""
"","html-keyboard-response","254","206822","0.0-254.0","3WSELTNVR4O8VDCKOJPLY93T8DFTAZ","A2K0L9M1ZZO5C9","3B623HUYJ4CRB58WBJVF3U5O917S8D","","null","<img src=""img/land3.png"" style=""width:200px; border:14px solid green;"">","null","","","","","","","","","",""
"","image-keyboard-response","255","207145","0.0-255.0","3WSELTNVR4O8VDCKOJPLY93T8DFTAZ","A2K0L9M1ZZO5C9","3B623HUYJ4CRB58WBJVF3U5O917S8D","","321.90000000037253","img/land3.png","75","323.09999999962747","2","1","1","2","1,0.5,0.5,0.5,1,0.5,0.5,0.5,1","0.5,1,0.5,0.5,0.5,1,1,0.5,0.5","3","",""
"","html-keyboard-response","256","207448","0.0-256.0","3WSELTNVR4O8VDCKOJPLY93T8DFTAZ","A2K0L9M1ZZO5C9","3B623HUYJ4CRB58WBJVF3U5O917S8D","","null","<img src=""img/land3.png"" style=""width:200px; border:14px solid green;"">","null","","","","","","","","","",""
"","image-keyboard-response","257","208100","0.0-257.0","3WSELTNVR4O8VDCKOJPLY93T8DFTAZ","A2K0L9M1ZZO5C9","3B623HUYJ4CRB58WBJVF3U5O917S8D","","650.4000000003725","img/land3.png","75","652.0999999996275","2","1","1","2","1,0.5,0.5,0.5,1,0.5,0.5,0.5,1","0.5,1,0.5,0.5,0.5,1,1,0.5,0.5","3","",""
"","html-keyboard-response","258","208406","0.0-258.0","3WSELTNVR4O8VDCKOJPLY93T8DFTAZ","A2K0L9M1ZZO5C9","3B623HUYJ4CRB58WBJVF3U5O917S8D","","null","<img src=""img/land3.png"" style=""width:200px; border:14px solid green;"">","null","","","","","","","","","",""
"","image-keyboard-response","259","208787","0.0-259.0","3WSELTNVR4O8VDCKOJPLY93T8DFTAZ","A2K0L9M1ZZO5C9","3B623HUYJ4CRB58WBJVF3U5O917S8D","","379.2000000011176","img/land3.png","75","380.59999999962747","2","1","1","2","1,0.5,0.5,0.5,1,0.5,0.5,0.5,1","0.5,1,0.5,0.5,0.5,1,1,0.5,0.5","3","",""
"","html-keyboard-response","260","209093","0.0-260.0","3WSELTNVR4O8VDCKOJPLY93T8DFTAZ","A2K0L9M1ZZO5C9","3B623HUYJ4CRB58WBJVF3U5O917S8D","","null","<img src=""img/land3.png"" style=""width:200px; border:14px solid green;"">","null","","","","","","","","","",""
"","image-keyboard-response","261","209626","0.0-261.0","3WSELTNVR4O8VDCKOJPLY93T8DFTAZ","A2K0L9M1ZZO5C9","3B623HUYJ4CRB58WBJVF3U5O917S8D","","531.5","img/land3.png","75","533.4000000003725","2","1","1","2","1,0.5,0.5,0.5,1,0.5,0.5,0.5,1","0.5,1,0.5,0.5,0.5,1,1,0.5,0.5","3","",""
"","html-keyboard-response","262","209930","0.0-262.0","3WSELTNVR4O8VDCKOJPLY93T8DFTAZ","A2K0L9M1ZZO5C9","3B623HUYJ4CRB58WBJVF3U5O917S8D","","null","<img src=""img/land3.png"" style=""width:200px; border:14px solid green;"">","null","","","","","","","","","",""
"","image-keyboard-response","263","210607","0.0-263.0","3WSELTNVR4O8VDCKOJPLY93T8DFTAZ","A2K0L9M1ZZO5C9","3B623HUYJ4CRB58WBJVF3U5O917S8D","","676.0999999996275","img/land3.png","75","677.5","2","1","1","2","1,0.5,0.5,0.5,1,0.5,0.5,0.5,1","0.5,1,0.5,0.5,0.5,1,1,0.5,0.5","3","",""
"","html-keyboard-response","264","210913","0.0-264.0","3WSELTNVR4O8VDCKOJPLY93T8DFTAZ","A2K0L9M1ZZO5C9","3B623HUYJ4CRB58WBJVF3U5O917S8D","","null","<img src=""img/land3.png"" style=""width:200px; border:14px solid green;"">","null","","","","","","","","","",""
"","image-keyboard-response","265","211304","0.0-265.0","3WSELTNVR4O8VDCKOJPLY93T8DFTAZ","A2K0L9M1ZZO5C9","3B623HUYJ4CRB58WBJVF3U5O917S8D","","389.19999999925494","img/land3.png","75","390.09999999962747","2","1","1","2","1,0.5,0.5,0.5,1,0.5,0.5,0.5,1","0.5,1,0.5,0.5,0.5,1,1,0.5,0.5","3","",""
"","html-keyboard-response","266","211615","0.0-266.0","3WSELTNVR4O8VDCKOJPLY93T8DFTAZ","A2K0L9M1ZZO5C9","3B623HUYJ4CRB58WBJVF3U5O917S8D","","null","<img src=""img/land3.png"" style=""width:200px; border:14px solid green;"">","null","","","","","","","","","",""
"","image-keyboard-response","267","212335","0.0-267.0","3WSELTNVR4O8VDCKOJPLY93T8DFTAZ","A2K0L9M1ZZO5C9","3B623HUYJ4CRB58WBJVF3U5O917S8D","","718.8000000007451","img/land1.png","74","720.2999999988824","1","1","3","2","1,0.5,0.5,0.5,1,0.5,0.5,0.5,1","0.5,1,0.5,0.5,0.5,1,1,0.5,0.5","3","",""
"","html-keyboard-response","268","212643","0.0-268.0","3WSELTNVR4O8VDCKOJPLY93T8DFTAZ","A2K0L9M1ZZO5C9","3B623HUYJ4CRB58WBJVF3U5O917S8D","","null","<img src=""img/land1.png"" style=""width:200px; border:14px solid green;"">","null","","","","","","","","","",""
"","image-keyboard-response","269","213713","0.0-269.0","3WSELTNVR4O8VDCKOJPLY93T8DFTAZ","A2K0L9M1ZZO5C9","3B623HUYJ4CRB58WBJVF3U5O917S8D","","1068.4000000003725","img/land3.png","75","1069.4000000003725","2","1","1","2","1,0.5,0.5,0.5,1,0.5,0.5,0.5,1","0.5,1,0.5,0.5,0.5,1,1,0.5,0.5","3","",""
"","html-keyboard-response","270","214022","0.0-270.0","3WSELTNVR4O8VDCKOJPLY93T8DFTAZ","A2K0L9M1ZZO5C9","3B623HUYJ4CRB58WBJVF3U5O917S8D","","null","<img src=""img/land3.png"" style=""width:200px; border:14px solid green;"">","null","","","","","","","","","",""
"","image-keyboard-response","271","214766","0.0-271.0","3WSELTNVR4O8VDCKOJPLY93T8DFTAZ","A2K0L9M1ZZO5C9","3B623HUYJ4CRB58WBJVF3U5O917S8D","","741.0999999996275","img/land3.png","75","742.7000000011176","2","1","1","2","1,0.5,0.5,0.5,1,0.5,0.5,0.5,1","0.5,1,0.5,0.5,0.5,1,1,0.5,0.5","3","",""
"","html-keyboard-response","272","215067","0.0-272.0","3WSELTNVR4O8VDCKOJPLY93T8DFTAZ","A2K0L9M1ZZO5C9","3B623HUYJ4CRB58WBJVF3U5O917S8D","","null","<img src=""img/land3.png"" style=""width:200px; border:14px solid green;"">","null","","","","","","","","","",""
"","image-keyboard-response","273","215469","0.0-273.0","3WSELTNVR4O8VDCKOJPLY93T8DFTAZ","A2K0L9M1ZZO5C9","3B623HUYJ4CRB58WBJVF3U5O917S8D","","400.69999999925494","img/land3.png","75","402.09999999962747","2","1","1","2","1,0.5,0.5,0.5,1,0.5,0.5,0.5,1","0.5,1,0.5,0.5,0.5,1,1,0.5,0.5","3","",""
"","html-keyboard-response","274","215786","0.0-274.0","3WSELTNVR4O8VDCKOJPLY93T8DFTAZ","A2K0L9M1ZZO5C9","3B623HUYJ4CRB58WBJVF3U5O917S8D","","null","<img src=""img/land3.png"" style=""width:200px; border:14px solid green;"">","null","","","","","","","","","",""
"","image-keyboard-response","275","216543","0.0-275.0","3WSELTNVR4O8VDCKOJPLY93T8DFTAZ","A2K0L9M1ZZO5C9","3B623HUYJ4CRB58WBJVF3U5O917S8D","","754.8000000007451","img/land1.png","74","755.9000000003725","1","1","3","2","1,0.5,0.5,0.5,1,0.5,0.5,0.5,1","0.5,1,0.5,0.5,0.5,1,1,0.5,0.5","3","",""
"","html-keyboard-response","276","216845","0.0-276.0","3WSELTNVR4O8VDCKOJPLY93T8DFTAZ","A2K0L9M1ZZO5C9","3B623HUYJ4CRB58WBJVF3U5O917S8D","","null","<img src=""img/land1.png"" style=""width:200px; border:14px solid green;"">","null","","","","","","","","","",""
"","image-keyboard-response","277","217656","0.0-277.0","3WSELTNVR4O8VDCKOJPLY93T8DFTAZ","A2K0L9M1ZZO5C9","3B623HUYJ4CRB58WBJVF3U5O917S8D","","809.7000000011176","img/land3.png","75","810.7999999988824","2","1","1","2","1,0.5,0.5,0.5,1,0.5,0.5,0.5,1","0.5,1,0.5,0.5,0.5,1,1,0.5,0.5","3","",""
"","html-keyboard-response","278","217963","0.0-278.0","3WSELTNVR4O8VDCKOJPLY93T8DFTAZ","A2K0L9M1ZZO5C9","3B623HUYJ4CRB58WBJVF3U5O917S8D","","null","<img src=""img/land3.png"" style=""width:200px; border:14px solid green;"">","null","","","","","","","","","",""
"","image-keyboard-response","279","218435","0.0-279.0","3WSELTNVR4O8VDCKOJPLY93T8DFTAZ","A2K0L9M1ZZO5C9","3B623HUYJ4CRB58WBJVF3U5O917S8D","","470.7999999988824","img/land3.png","75","472.59999999962747","2","1","1","2","1,0.5,0.5,0.5,1,0.5,0.5,0.5,1","0.5,1,0.5,0.5,0.5,1,1,0.5,0.5","3","",""
"","html-keyboard-response","280","218743","0.0-280.0","3WSELTNVR4O8VDCKOJPLY93T8DFTAZ","A2K0L9M1ZZO5C9","3B623HUYJ4CRB58WBJVF3U5O917S8D","","null","<img src=""img/land3.png"" style=""width:200px; border:14px solid green;"">","null","","","","","","","","","",""
"","image-keyboard-response","281","219297","0.0-281.0","3WSELTNVR4O8VDCKOJPLY93T8DFTAZ","A2K0L9M1ZZO5C9","3B623HUYJ4CRB58WBJVF3U5O917S8D","","552.6999999992549","img/land3.png","75","554.1000000014901","2","1","1","2","1,0.5,0.5,0.5,1,0.5,0.5,0.5,1","0.5,1,0.5,0.5,0.5,1,1,0.5,0.5","3","",""
"","html-keyboard-response","282","219606","0.0-282.0","3WSELTNVR4O8VDCKOJPLY93T8DFTAZ","A2K0L9M1ZZO5C9","3B623HUYJ4CRB58WBJVF3U5O917S8D","","null","<img src=""img/land3.png"" style=""width:200px; border:14px solid green;"">","null","","","","","","","","","",""
"","image-keyboard-response","283","220336","0.0-283.0","3WSELTNVR4O8VDCKOJPLY93T8DFTAZ","A2K0L9M1ZZO5C9","3B623HUYJ4CRB58WBJVF3U5O917S8D","","728","img/land4.png","76","729.4000000003725","3","1","2","2","1,0.5,0.5,0.5,1,0.5,0.5,0.5,1","0.5,1,0.5,0.5,0.5,1,1,0.5,0.5","3","",""
"","html-keyboard-response","284","220647","0.0-284.0","3WSELTNVR4O8VDCKOJPLY93T8DFTAZ","A2K0L9M1ZZO5C9","3B623HUYJ4CRB58WBJVF3U5O917S8D","","null","<img src=""img/land4.png"" style=""width:200px; border:14px solid green;"">","null","","","","","","","","","",""
"","image-keyboard-response","285","221269","0.0-285.0","3WSELTNVR4O8VDCKOJPLY93T8DFTAZ","A2K0L9M1ZZO5C9","3B623HUYJ4CRB58WBJVF3U5O917S8D","","620.6000000014901","img/land3.png","75","622.3000000007451","2","1","1","2","1,0.5,0.5,0.5,1,0.5,0.5,0.5,1","0.5,1,0.5,0.5,0.5,1,1,0.5,0.5","3","",""
"","html-keyboard-response","286","221577","0.0-286.0","3WSELTNVR4O8VDCKOJPLY93T8DFTAZ","A2K0L9M1ZZO5C9","3B623HUYJ4CRB58WBJVF3U5O917S8D","","null","<img src=""img/land3.png"" style=""width:200px; border:14px solid green;"">","null","","","","","","","","","",""
"","image-keyboard-response","287","222186","0.0-287.0","3WSELTNVR4O8VDCKOJPLY93T8DFTAZ","A2K0L9M1ZZO5C9","3B623HUYJ4CRB58WBJVF3U5O917S8D","","608","img/land4.png","76","609","3","1","2","2","1,0.5,0.5,0.5,1,0.5,0.5,0.5,1","0.5,1,0.5,0.5,0.5,1,1,0.5,0.5","3","",""
"","html-keyboard-response","288","222488","0.0-288.0","3WSELTNVR4O8VDCKOJPLY93T8DFTAZ","A2K0L9M1ZZO5C9","3B623HUYJ4CRB58WBJVF3U5O917S8D","","null","<img src=""img/land4.png"" style=""width:200px; border:14px solid green;"">","null","","","","","","","","","",""
"","image-keyboard-response","289","223227","0.0-289.0","3WSELTNVR4O8VDCKOJPLY93T8DFTAZ","A2K0L9M1ZZO5C9","3B623HUYJ4CRB58WBJVF3U5O917S8D","","737.3999999985099","img/land1.png","74","738.8000000007451","1","1","3","2","1,0.5,0.5,0.5,1,0.5,0.5,0.5,1","0.5,1,0.5,0.5,0.5,1,1,0.5,0.5","3","",""
"","html-keyboard-response","290","223536","0.0-290.0","3WSELTNVR4O8VDCKOJPLY93T8DFTAZ","A2K0L9M1ZZO5C9","3B623HUYJ4CRB58WBJVF3U5O917S8D","","null","<img src=""img/land1.png"" style=""width:200px; border:14px solid green;"">","null","","","","","","","","","",""
"","image-keyboard-response","291","224074","0.0-291.0","3WSELTNVR4O8VDCKOJPLY93T8DFTAZ","A2K0L9M1ZZO5C9","3B623HUYJ4CRB58WBJVF3U5O917S8D","","535.5","img/land3.png","75","537.3000000007451","2","1","1","2","1,0.5,0.5,0.5,1,0.5,0.5,0.5,1","0.5,1,0.5,0.5,0.5,1,1,0.5,0.5","3","",""
"","html-keyboard-response","292","224393","0.0-292.0","3WSELTNVR4O8VDCKOJPLY93T8DFTAZ","A2K0L9M1ZZO5C9","3B623HUYJ4CRB58WBJVF3U5O917S8D","","null","<img src=""img/land3.png"" style=""width:200px; border:14px solid green;"">","null","","","","","","","","","",""
"","image-keyboard-response","293","225193","0.0-293.0","3WSELTNVR4O8VDCKOJPLY93T8DFTAZ","A2K0L9M1ZZO5C9","3B623HUYJ4CRB58WBJVF3U5O917S8D","","799.1000000014901","img/land3.png","75","800.2000000011176","2","1","1","2","1,0.5,0.5,0.5,1,0.5,0.5,0.5,1","0.5,1,0.5,0.5,0.5,1,1,0.5,0.5","3","",""
"","html-keyboard-response","294","225509","0.0-294.0","3WSELTNVR4O8VDCKOJPLY93T8DFTAZ","A2K0L9M1ZZO5C9","3B623HUYJ4CRB58WBJVF3U5O917S8D","","null","<img src=""img/land3.png"" style=""width:200px; border:14px solid green;"">","null","","","","","","","","","",""
"","image-keyboard-response","295","225955","0.0-295.0","3WSELTNVR4O8VDCKOJPLY93T8DFTAZ","A2K0L9M1ZZO5C9","3B623HUYJ4CRB58WBJVF3U5O917S8D","","443.59999999962747","img/land3.png","75","445.2000000011176","2","1","1","2","1,0.5,0.5,0.5,1,0.5,0.5,0.5,1","0.5,1,0.5,0.5,0.5,1,1,0.5,0.5","3","",""
"","html-keyboard-response","296","226262","0.0-296.0","3WSELTNVR4O8VDCKOJPLY93T8DFTAZ","A2K0L9M1ZZO5C9","3B623HUYJ4CRB58WBJVF3U5O917S8D","","null","<img src=""img/land3.png"" style=""width:200px; border:14px solid green;"">","null","","","","","","","","","",""
"","image-keyboard-response","297","226975","0.0-297.0","3WSELTNVR4O8VDCKOJPLY93T8DFTAZ","A2K0L9M1ZZO5C9","3B623HUYJ4CRB58WBJVF3U5O917S8D","","712.0999999996275","img/land1.png","74","712.8999999985099","1","1","3","2","1,0.5,0.5,0.5,1,0.5,0.5,0.5,1","0.5,1,0.5,0.5,0.5,1,1,0.5,0.5","3","",""
"","html-keyboard-response","298","227286","0.0-298.0","3WSELTNVR4O8VDCKOJPLY93T8DFTAZ","A2K0L9M1ZZO5C9","3B623HUYJ4CRB58WBJVF3U5O917S8D","","null","<img src=""img/land1.png"" style=""width:200px; border:14px solid green;"">","null","","","","","","","","","",""
"","image-keyboard-response","299","228150","0.0-299.0","3WSELTNVR4O8VDCKOJPLY93T8DFTAZ","A2K0L9M1ZZO5C9","3B623HUYJ4CRB58WBJVF3U5O917S8D","","862.6999999992549","img/land4.png","76","863.6999999992549","3","1","2","2","1,0.5,0.5,0.5,1,0.5,0.5,0.5,1","0.5,1,0.5,0.5,0.5,1,1,0.5,0.5","3","",""
"","html-keyboard-response","300","228459","0.0-300.0","3WSELTNVR4O8VDCKOJPLY93T8DFTAZ","A2K0L9M1ZZO5C9","3B623HUYJ4CRB58WBJVF3U5O917S8D","","null","<img src=""img/land4.png"" style=""width:200px; border:14px solid green;"">","null","","","","","","","","","",""
"","image-keyboard-response","301","229407","0.0-301.0","3WSELTNVR4O8VDCKOJPLY93T8DFTAZ","A2K0L9M1ZZO5C9","3B623HUYJ4CRB58WBJVF3U5O917S8D","","947.1999999992549","img/land4.png","76","948.5","3","1","2","2","1,0.5,0.5,0.5,1,0.5,0.5,0.5,1","0.5,1,0.5,0.5,0.5,1,1,0.5,0.5","3","",""
"","html-keyboard-response","302","229712","0.0-302.0","3WSELTNVR4O8VDCKOJPLY93T8DFTAZ","A2K0L9M1ZZO5C9","3B623HUYJ4CRB58WBJVF3U5O917S8D","","null","<img src=""img/land4.png"" style=""width:200px; border:14px solid green;"">","null","","","","","","","","","",""
"","image-keyboard-response","303","230221","0.0-303.0","3WSELTNVR4O8VDCKOJPLY93T8DFTAZ","A2K0L9M1ZZO5C9","3B623HUYJ4CRB58WBJVF3U5O917S8D","","507.30000000074506","img/land4.png","76","508.69999999925494","3","1","2","2","1,0.5,0.5,0.5,1,0.5,0.5,0.5,1","0.5,1,0.5,0.5,0.5,1,1,0.5,0.5","3","",""
"","html-keyboard-response","304","230524","0.0-304.0","3WSELTNVR4O8VDCKOJPLY93T8DFTAZ","A2K0L9M1ZZO5C9","3B623HUYJ4CRB58WBJVF3U5O917S8D","","null","<img src=""img/land4.png"" style=""width:200px; border:14px solid green;"">","null","","","","","","","","","",""
"","image-keyboard-response","305","231275","0.0-305.0","3WSELTNVR4O8VDCKOJPLY93T8DFTAZ","A2K0L9M1ZZO5C9","3B623HUYJ4CRB58WBJVF3U5O917S8D","","750.7000000011176","img/land3.png","75","751.5999999996275","2","1","1","2","1,0.5,0.5,0.5,1,0.5,0.5,0.5,1","0.5,1,0.5,0.5,0.5,1,1,0.5,0.5","3","",""
"","html-keyboard-response","306","231592","0.0-306.0","3WSELTNVR4O8VDCKOJPLY93T8DFTAZ","A2K0L9M1ZZO5C9","3B623HUYJ4CRB58WBJVF3U5O917S8D","","null","<img src=""img/land3.png"" style=""width:200px; border:14px solid green;"">","null","","","","","","","","","",""
"","image-keyboard-response","307","232279","0.0-307.0","3WSELTNVR4O8VDCKOJPLY93T8DFTAZ","A2K0L9M1ZZO5C9","3B623HUYJ4CRB58WBJVF3U5O917S8D","","685.5999999996275","img/land1.png","74","686.8999999985099","1","1","3","2","1,0.5,0.5,0.5,1,0.5,0.5,0.5,1","0.5,1,0.5,0.5,0.5,1,1,0.5,0.5","3","",""
"","html-keyboard-response","308","232584","0.0-308.0","3WSELTNVR4O8VDCKOJPLY93T8DFTAZ","A2K0L9M1ZZO5C9","3B623HUYJ4CRB58WBJVF3U5O917S8D","","null","<img src=""img/land1.png"" style=""width:200px; border:14px solid green;"">","null","","","","","","","","","",""
"","image-keyboard-response","309","233877","0.0-309.0","3WSELTNVR4O8VDCKOJPLY93T8DFTAZ","A2K0L9M1ZZO5C9","3B623HUYJ4CRB58WBJVF3U5O917S8D","","1291.699999999255","img/land3.png","75","1293.1000000014901","2","1","1","2","1,0.5,0.5,0.5,1,0.5,0.5,0.5,1","0.5,1,0.5,0.5,0.5,1,1,0.5,0.5","3","",""
"","html-keyboard-response","310","234192","0.0-310.0","3WSELTNVR4O8VDCKOJPLY93T8DFTAZ","A2K0L9M1ZZO5C9","3B623HUYJ4CRB58WBJVF3U5O917S8D","","null","<img src=""img/land3.png"" style=""width:200px; border:14px solid green;"">","null","","","","","","","","","",""
"","image-keyboard-response","311","234624","0.0-311.0","3WSELTNVR4O8VDCKOJPLY93T8DFTAZ","A2K0L9M1ZZO5C9","3B623HUYJ4CRB58WBJVF3U5O917S8D","","428.2000000011176","img/land3.png","75","429.6000000014901","2","1","1","2","1,0.5,0.5,0.5,1,0.5,0.5,0.5,1","0.5,1,0.5,0.5,0.5,1,1,0.5,0.5","3","",""
"","html-keyboard-response","312","234933","0.0-312.0","3WSELTNVR4O8VDCKOJPLY93T8DFTAZ","A2K0L9M1ZZO5C9","3B623HUYJ4CRB58WBJVF3U5O917S8D","","null","<img src=""img/land3.png"" style=""width:200px; border:14px solid green;"">","null","","","","","","","","","",""
"","image-keyboard-response","313","235942","0.0-313.0","3WSELTNVR4O8VDCKOJPLY93T8DFTAZ","A2K0L9M1ZZO5C9","3B623HUYJ4CRB58WBJVF3U5O917S8D","","1008","img/land1.png","74","1009.2999999988824","1","1","3","2","1,0.5,0.5,0.5,1,0.5,0.5,0.5,1","0.5,1,0.5,0.5,0.5,1,1,0.5,0.5","3","",""
"","html-keyboard-response","314","236247","0.0-314.0","3WSELTNVR4O8VDCKOJPLY93T8DFTAZ","A2K0L9M1ZZO5C9","3B623HUYJ4CRB58WBJVF3U5O917S8D","","null","<img src=""img/land1.png"" style=""width:200px; border:14px solid green;"">","null","","","","","","","","","",""
"","image-keyboard-response","315","237124","0.0-315.0","3WSELTNVR4O8VDCKOJPLY93T8DFTAZ","A2K0L9M1ZZO5C9","3B623HUYJ4CRB58WBJVF3U5O917S8D","","875.7000000011176","img/land1.png","74","877.1000000014901","1","1","3","2","1,0.5,0.5,0.5,1,0.5,0.5,0.5,1","0.5,1,0.5,0.5,0.5,1,1,0.5,0.5","3","",""
"","html-keyboard-response","316","237434","0.0-316.0","3WSELTNVR4O8VDCKOJPLY93T8DFTAZ","A2K0L9M1ZZO5C9","3B623HUYJ4CRB58WBJVF3U5O917S8D","","null","<img src=""img/land1.png"" style=""width:200px; border:14px solid green;"">","null","","","","","","","","","",""
"","image-keyboard-response","317","237901","0.0-317.0","3WSELTNVR4O8VDCKOJPLY93T8DFTAZ","A2K0L9M1ZZO5C9","3B623HUYJ4CRB58WBJVF3U5O917S8D","","465.90000000037253","img/land1.png","74","467","1","1","3","2","1,0.5,0.5,0.5,1,0.5,0.5,0.5,1","0.5,1,0.5,0.5,0.5,1,1,0.5,0.5","3","",""
"","html-keyboard-response","318","238205","0.0-318.0","3WSELTNVR4O8VDCKOJPLY93T8DFTAZ","A2K0L9M1ZZO5C9","3B623HUYJ4CRB58WBJVF3U5O917S8D","","null","<img src=""img/land1.png"" style=""width:200px; border:14px solid green;"">","null","","","","","","","","","",""
"","image-keyboard-response","319","238838","0.0-319.0","3WSELTNVR4O8VDCKOJPLY93T8DFTAZ","A2K0L9M1ZZO5C9","3B623HUYJ4CRB58WBJVF3U5O917S8D","","631","img/land4.png","76","632.9000000003725","3","1","2","2","1,0.5,0.5,0.5,1,0.5,0.5,0.5,1","0.5,1,0.5,0.5,0.5,1,1,0.5,0.5","3","",""
"","html-keyboard-response","320","239146","0.0-320.0","3WSELTNVR4O8VDCKOJPLY93T8DFTAZ","A2K0L9M1ZZO5C9","3B623HUYJ4CRB58WBJVF3U5O917S8D","","null","<img src=""img/land4.png"" style=""width:200px; border:14px solid green;"">","null","","","","","","","","","",""
"","image-keyboard-response","321","239561","0.0-321.0","3WSELTNVR4O8VDCKOJPLY93T8DFTAZ","A2K0L9M1ZZO5C9","3B623HUYJ4CRB58WBJVF3U5O917S8D","","412.69999999925494","img/land4.png","76","414.8999999985099","3","1","2","2","1,0.5,0.5,0.5,1,0.5,0.5,0.5,1","0.5,1,0.5,0.5,0.5,1,1,0.5,0.5","3","",""
"","html-keyboard-response","322","239869","0.0-322.0","3WSELTNVR4O8VDCKOJPLY93T8DFTAZ","A2K0L9M1ZZO5C9","3B623HUYJ4CRB58WBJVF3U5O917S8D","","null","<img src=""img/land4.png"" style=""width:200px; border:14px solid green;"">","null","","","","","","","","","",""
"","image-keyboard-response","323","240360","0.0-323.0","3WSELTNVR4O8VDCKOJPLY93T8DFTAZ","A2K0L9M1ZZO5C9","3B623HUYJ4CRB58WBJVF3U5O917S8D","","489.2000000011176","img/land4.png","76","490.09999999962747","3","1","2","2","1,0.5,0.5,0.5,1,0.5,0.5,0.5,1","0.5,1,0.5,0.5,0.5,1,1,0.5,0.5","3","",""
"","html-keyboard-response","324","240674","0.0-324.0","3WSELTNVR4O8VDCKOJPLY93T8DFTAZ","A2K0L9M1ZZO5C9","3B623HUYJ4CRB58WBJVF3U5O917S8D","","null","<img src=""img/land4.png"" style=""width:200px; border:14px solid green;"">","null","","","","","","","","","",""
"","image-keyboard-response","325","241097","0.0-325.0","3WSELTNVR4O8VDCKOJPLY93T8DFTAZ","A2K0L9M1ZZO5C9","3B623HUYJ4CRB58WBJVF3U5O917S8D","","422.59999999962747","img/land4.png","76","423.80000000074506","3","1","2","2","1,0.5,0.5,0.5,1,0.5,0.5,0.5,1","0.5,1,0.5,0.5,0.5,1,1,0.5,0.5","3","",""
"","html-keyboard-response","326","241413","0.0-326.0","3WSELTNVR4O8VDCKOJPLY93T8DFTAZ","A2K0L9M1ZZO5C9","3B623HUYJ4CRB58WBJVF3U5O917S8D","","null","<img src=""img/land4.png"" style=""width:200px; border:14px solid green;"">","null","","","","","","","","","",""
"","image-keyboard-response","327","242890","0.0-327.0","3WSELTNVR4O8VDCKOJPLY93T8DFTAZ","A2K0L9M1ZZO5C9","3B623HUYJ4CRB58WBJVF3U5O917S8D","","1475.300000000745","img/land3.png","75","1476.699999999255","2","1","1","2","1,0.5,0.5,0.5,1,0.5,0.5,0.5,1","0.5,1,0.5,0.5,0.5,1,1,0.5,0.5","3","",""
"","html-keyboard-response","328","243205","0.0-328.0","3WSELTNVR4O8VDCKOJPLY93T8DFTAZ","A2K0L9M1ZZO5C9","3B623HUYJ4CRB58WBJVF3U5O917S8D","","null","<img src=""img/land3.png"" style=""width:200px; border:14px solid green;"">","null","","","","","","","","","",""
"","image-keyboard-response","329","243721","0.0-329.0","3WSELTNVR4O8VDCKOJPLY93T8DFTAZ","A2K0L9M1ZZO5C9","3B623HUYJ4CRB58WBJVF3U5O917S8D","","512.0999999996275","img/land3.png","75","515.0999999996275","2","1","1","2","1,0.5,0.5,0.5,1,0.5,0.5,0.5,1","0.5,1,0.5,0.5,0.5,1,1,0.5,0.5","3","",""
"","html-keyboard-response","330","244036","0.0-330.0","3WSELTNVR4O8VDCKOJPLY93T8DFTAZ","A2K0L9M1ZZO5C9","3B623HUYJ4CRB58WBJVF3U5O917S8D","","null","<img src=""img/land3.png"" style=""width:200px; border:14px solid green;"">","null","","","","","","","","","",""
"","image-keyboard-response","331","245379","0.0-331.0","3WSELTNVR4O8VDCKOJPLY93T8DFTAZ","A2K0L9M1ZZO5C9","3B623HUYJ4CRB58WBJVF3U5O917S8D","","1341.699999999255","img/land4.png","76","1342.6000000014901","3","1","2","2","1,0.5,0.5,0.5,1,0.5,0.5,0.5,1","0.5,1,0.5,0.5,0.5,1,1,0.5,0.5","3","",""
"","html-keyboard-response","332","245697","0.0-332.0","3WSELTNVR4O8VDCKOJPLY93T8DFTAZ","A2K0L9M1ZZO5C9","3B623HUYJ4CRB58WBJVF3U5O917S8D","","null","<img src=""img/land4.png"" style=""width:200px; border:14px solid green;"">","null","","","","","","","","","",""
"","image-keyboard-response","333","246311","0.0-333.0","3WSELTNVR4O8VDCKOJPLY93T8DFTAZ","A2K0L9M1ZZO5C9","3B623HUYJ4CRB58WBJVF3U5O917S8D","","612.9000000003725","img/land1.png","74","614","1","1","3","2","1,0.5,0.5,0.5,1,0.5,0.5,0.5,1","0.5,1,0.5,0.5,0.5,1,1,0.5,0.5","3","",""
"","html-keyboard-response","334","246617","0.0-334.0","3WSELTNVR4O8VDCKOJPLY93T8DFTAZ","A2K0L9M1ZZO5C9","3B623HUYJ4CRB58WBJVF3U5O917S8D","","null","<img src=""img/land1.png"" style=""width:200px; border:14px solid green;"">","null","","","","","","","","","",""
"","image-keyboard-response","335","247647","0.0-335.0","3WSELTNVR4O8VDCKOJPLY93T8DFTAZ","A2K0L9M1ZZO5C9","3B623HUYJ4CRB58WBJVF3U5O917S8D","","1029.5999999996275","img/land4.png","76","1030.5","3","1","2","2","1,0.5,0.5,0.5,1,0.5,0.5,0.5,1","0.5,1,0.5,0.5,0.5,1,1,0.5,0.5","3","",""
"","html-keyboard-response","336","247953","0.0-336.0","3WSELTNVR4O8VDCKOJPLY93T8DFTAZ","A2K0L9M1ZZO5C9","3B623HUYJ4CRB58WBJVF3U5O917S8D","","null","<img src=""img/land4.png"" style=""width:200px; border:14px solid green;"">","null","","","","","","","","","",""
"","image-keyboard-response","337","248792","0.0-337.0","3WSELTNVR4O8VDCKOJPLY93T8DFTAZ","A2K0L9M1ZZO5C9","3B623HUYJ4CRB58WBJVF3U5O917S8D","","838.2999999988824","img/land3.png","75","839.5","2","1","1","2","1,0.5,0.5,0.5,1,0.5,0.5,0.5,1","0.5,1,0.5,0.5,0.5,1,1,0.5,0.5","3","",""
"","html-keyboard-response","338","249098","0.0-338.0","3WSELTNVR4O8VDCKOJPLY93T8DFTAZ","A2K0L9M1ZZO5C9","3B623HUYJ4CRB58WBJVF3U5O917S8D","","null","<img src=""img/land3.png"" style=""width:200px; border:14px solid green;"">","null","","","","","","","","","",""
"","image-keyboard-response","339","250725","0.0-339.0","3WSELTNVR4O8VDCKOJPLY93T8DFTAZ","A2K0L9M1ZZO5C9","3B623HUYJ4CRB58WBJVF3U5O917S8D","","1625.800000000745","img/land3.png","75","1626.800000000745","2","1","1","2","1,0.5,0.5,0.5,1,0.5,0.5,0.5,1","0.5,1,0.5,0.5,0.5,1,1,0.5,0.5","3","",""
"","html-keyboard-response","340","251032","0.0-340.0","3WSELTNVR4O8VDCKOJPLY93T8DFTAZ","A2K0L9M1ZZO5C9","3B623HUYJ4CRB58WBJVF3U5O917S8D","","null","<img src=""img/land3.png"" style=""width:200px; border:14px solid green;"">","null","","","","","","","","","",""
"","image-keyboard-response","341","251641","0.0-341.0","3WSELTNVR4O8VDCKOJPLY93T8DFTAZ","A2K0L9M1ZZO5C9","3B623HUYJ4CRB58WBJVF3U5O917S8D","","607.9000000003725","img/land1.png","74","609.5","1","1","3","2","1,0.5,0.5,0.5,1,0.5,0.5,0.5,1","0.5,1,0.5,0.5,0.5,1,1,0.5,0.5","3","",""
"","html-keyboard-response","342","251946","0.0-342.0","3WSELTNVR4O8VDCKOJPLY93T8DFTAZ","A2K0L9M1ZZO5C9","3B623HUYJ4CRB58WBJVF3U5O917S8D","","null","<img src=""img/land1.png"" style=""width:200px; border:14px solid green;"">","null","","","","","","","","","",""
"","image-keyboard-response","343","252571","0.0-343.0","3WSELTNVR4O8VDCKOJPLY93T8DFTAZ","A2K0L9M1ZZO5C9","3B623HUYJ4CRB58WBJVF3U5O917S8D","","623.3999999985099","img/land3.png","75","624.5","2","1","1","2","1,0.5,0.5,0.5,1,0.5,0.5,0.5,1","0.5,1,0.5,0.5,0.5,1,1,0.5,0.5","3","",""
"","html-keyboard-response","344","252880","0.0-344.0","3WSELTNVR4O8VDCKOJPLY93T8DFTAZ","A2K0L9M1ZZO5C9","3B623HUYJ4CRB58WBJVF3U5O917S8D","","null","<img src=""img/land3.png"" style=""width:200px; border:14px solid green;"">","null","","","","","","","","","",""
"","image-keyboard-response","345","253454","0.0-345.0","3WSELTNVR4O8VDCKOJPLY93T8DFTAZ","A2K0L9M1ZZO5C9","3B623HUYJ4CRB58WBJVF3U5O917S8D","","573.1000000014901","img/land3.png","75","574.1000000014901","2","1","1","2","1,0.5,0.5,0.5,1,0.5,0.5,0.5,1","0.5,1,0.5,0.5,0.5,1,1,0.5,0.5","3","",""
"","html-keyboard-response","346","253762","0.0-346.0","3WSELTNVR4O8VDCKOJPLY93T8DFTAZ","A2K0L9M1ZZO5C9","3B623HUYJ4CRB58WBJVF3U5O917S8D","","null","<img src=""img/land3.png"" style=""width:200px; border:14px solid green;"">","null","","","","","","","","","",""
"","image-keyboard-response","347","254244","0.0-347.0","3WSELTNVR4O8VDCKOJPLY93T8DFTAZ","A2K0L9M1ZZO5C9","3B623HUYJ4CRB58WBJVF3U5O917S8D","","480.69999999925494","img/land1.png","74","481.7999999988824","1","1","3","2","1,0.5,0.5,0.5,1,0.5,0.5,0.5,1","0.5,1,0.5,0.5,0.5,1,1,0.5,0.5","3","",""
"","html-keyboard-response","348","254547","0.0-348.0","3WSELTNVR4O8VDCKOJPLY93T8DFTAZ","A2K0L9M1ZZO5C9","3B623HUYJ4CRB58WBJVF3U5O917S8D","","null","<img src=""img/land1.png"" style=""width:200px; border:14px solid green;"">","null","","","","","","","","","",""
"","image-keyboard-response","349","255258","0.0-349.0","3WSELTNVR4O8VDCKOJPLY93T8DFTAZ","A2K0L9M1ZZO5C9","3B623HUYJ4CRB58WBJVF3U5O917S8D","","710.3999999985099","img/land3.png","75","711.4000000003725","2","1","1","2","1,0.5,0.5,0.5,1,0.5,0.5,0.5,1","0.5,1,0.5,0.5,0.5,1,1,0.5,0.5","3","",""
"","html-keyboard-response","350","255564","0.0-350.0","3WSELTNVR4O8VDCKOJPLY93T8DFTAZ","A2K0L9M1ZZO5C9","3B623HUYJ4CRB58WBJVF3U5O917S8D","","null","<img src=""img/land3.png"" style=""width:200px; border:14px solid green;"">","null","","","","","","","","","",""
"","image-keyboard-response","351","256008","0.0-351.0","3WSELTNVR4O8VDCKOJPLY93T8DFTAZ","A2K0L9M1ZZO5C9","3B623HUYJ4CRB58WBJVF3U5O917S8D","","443.30000000074506","img/land1.png","76","444.5","3","0","3","2","1,0.5,0.5,0.5,1,0.5,0.5,0.5,1","0.5,1,0.5,0.5,0.5,1,1,0.5,0.5","3","",""
"","html-keyboard-response","352","256312","0.0-352.0","3WSELTNVR4O8VDCKOJPLY93T8DFTAZ","A2K0L9M1ZZO5C9","3B623HUYJ4CRB58WBJVF3U5O917S8D","","null","<img src=""img/land1.png"" style=""width:200px;border:14px solid red;"">","null","","","","","","","","","",""
"","image-keyboard-response","353","256450","0.0-353.0","3WSELTNVR4O8VDCKOJPLY93T8DFTAZ","A2K0L9M1ZZO5C9","3B623HUYJ4CRB58WBJVF3U5O917S8D","","135.69999999925494","img/land3.png","75","137.69999999925494","2","1","1","2","1,0.5,0.5,0.5,1,0.5,0.5,0.5,1","0.5,1,0.5,0.5,0.5,1,1,0.5,0.5","3","",""
"","html-keyboard-response","354","256754","0.0-354.0","3WSELTNVR4O8VDCKOJPLY93T8DFTAZ","A2K0L9M1ZZO5C9","3B623HUYJ4CRB58WBJVF3U5O917S8D","","null","<img src=""img/land3.png"" style=""width:200px; border:14px solid green;"">","null","","","","","","","","","",""
"","image-keyboard-response","355","257372","0.0-355.0","3WSELTNVR4O8VDCKOJPLY93T8DFTAZ","A2K0L9M1ZZO5C9","3B623HUYJ4CRB58WBJVF3U5O917S8D","","616.4000000003725","img/land3.png","75","617.9000000003725","2","1","1","2","1,0.5,0.5,0.5,1,0.5,0.5,0.5,1","0.5,1,0.5,0.5,0.5,1,1,0.5,0.5","3","",""
"","html-keyboard-response","356","257682","0.0-356.0","3WSELTNVR4O8VDCKOJPLY93T8DFTAZ","A2K0L9M1ZZO5C9","3B623HUYJ4CRB58WBJVF3U5O917S8D","","null","<img src=""img/land3.png"" style=""width:200px; border:14px solid green;"">","null","","","","","","","","","",""
"","image-keyboard-response","357","258341","0.0-357.0","3WSELTNVR4O8VDCKOJPLY93T8DFTAZ","A2K0L9M1ZZO5C9","3B623HUYJ4CRB58WBJVF3U5O917S8D","","658.2000000011176","img/land1.png","74","659.1999999992549","1","1","3","2","1,0.5,0.5,0.5,1,0.5,0.5,0.5,1","0.5,1,0.5,0.5,0.5,1,1,0.5,0.5","3","",""
"","html-keyboard-response","358","258650","0.0-358.0","3WSELTNVR4O8VDCKOJPLY93T8DFTAZ","A2K0L9M1ZZO5C9","3B623HUYJ4CRB58WBJVF3U5O917S8D","","null","<img src=""img/land1.png"" style=""width:200px; border:14px solid green;"">","null","","","","","","","","","",""
"","image-keyboard-response","359","259348","0.0-359.0","3WSELTNVR4O8VDCKOJPLY93T8DFTAZ","A2K0L9M1ZZO5C9","3B623HUYJ4CRB58WBJVF3U5O917S8D","","696.6999999992549","img/land3.png","75","697.8000000007451","2","1","1","2","1,0.5,0.5,0.5,1,0.5,0.5,0.5,1","0.5,1,0.5,0.5,0.5,1,1,0.5,0.5","3","",""
"","html-keyboard-response","360","259657","0.0-360.0","3WSELTNVR4O8VDCKOJPLY93T8DFTAZ","A2K0L9M1ZZO5C9","3B623HUYJ4CRB58WBJVF3U5O917S8D","","null","<img src=""img/land3.png"" style=""width:200px; border:14px solid green;"">","null","","","","","","","","","",""
"","image-keyboard-response","361","260363","0.0-361.0","3WSELTNVR4O8VDCKOJPLY93T8DFTAZ","A2K0L9M1ZZO5C9","3B623HUYJ4CRB58WBJVF3U5O917S8D","","703.5","img/land1.png","74","705.7999999988824","1","1","3","2","1,0.5,0.5,0.5,1,0.5,0.5,0.5,1","0.5,1,0.5,0.5,0.5,1,1,0.5,0.5","3","",""
