"success","trial_type","trial_index","time_elapsed","internal_node_id","assignmentID","mturkID","hitID","view_history","rt","stimulus","key_press","reactionTime","a","r","s","reward_cond","responses","question_order"
"true","fullscreen","0","2175","0.0-0.0","3AQF3RZ5594XP6IG3M3K10M6KJOF6P","A2KLJKDG90K1PP","30F94FBDNR6BS3JI3VKF41RBJN4TBU","","","","","","","","","","",""
"","instructions","1","17952","0.0-1.0","3AQF3RZ5594XP6IG3M3K10M6KJOF6P","A2KLJKDG90K1PP","30F94FBDNR6BS3JI3VKF41RBJN4TBU","[{""page_index"":0,""viewing_time"":1382.1000000238419},{""page_index"":1,""viewing_time"":566.6999999880791},{""page_index"":2,""viewing_time"":724.4000000357628},{""page_index"":3,""viewing_time"":3473.2999999523163},{""page_index"":4,""viewing_time"":3035.800000011921},{""page_index"":5,""viewing_time"":4133.699999988079},{""page_index"":6,""viewing_time"":2458.7000000476837}]","15775.900000035763","","","","","","","","",""
"","image-keyboard-response","2","19859","0.0-2.0","3AQF3RZ5594XP6IG3M3K10M6KJOF6P","A2KLJKDG90K1PP","30F94FBDNR6BS3JI3VKF41RBJN4TBU","","1905.0999999642372","img/land2.png","74","1906.199999988079","1","0","2","1,0.5,0.5,0.5,1,0.5,0.5,0.5,1","",""
"","html-keyboard-response","3","20165","0.0-3.0","3AQF3RZ5594XP6IG3M3K10M6KJOF6P","A2KLJKDG90K1PP","30F94FBDNR6BS3JI3VKF41RBJN4TBU","","null","<img src=""img/land2.png"" style=""width:200px;border:14px solid red;"">","null","","","","","","",""
"","image-keyboard-response","4","20843","0.0-4.0","3AQF3RZ5594XP6IG3M3K10M6KJOF6P","A2KLJKDG90K1PP","30F94FBDNR6BS3JI3VKF41RBJN4TBU","","677","img/land2.png","76","677.6000000238419","3","0","2","1,0.5,0.5,0.5,1,0.5,0.5,0.5,1","",""
"","html-keyboard-response","5","21157","0.0-5.0","3AQF3RZ5594XP6IG3M3K10M6KJOF6P","A2KLJKDG90K1PP","30F94FBDNR6BS3JI3VKF41RBJN4TBU","","null","<img src=""img/land2.png"" style=""width:200px;border:14px solid red;"">","null","","","","","","",""
"","image-keyboard-response","6","21394","0.0-6.0","3AQF3RZ5594XP6IG3M3K10M6KJOF6P","A2KLJKDG90K1PP","30F94FBDNR6BS3JI3VKF41RBJN4TBU","","235.5999999642372","img/land1.png","75","236.19999998807907","2","0","1","1,0.5,0.5,0.5,1,0.5,0.5,0.5,1","",""
"","html-keyboard-response","7","21701","0.0-7.0","3AQF3RZ5594XP6IG3M3K10M6KJOF6P","A2KLJKDG90K1PP","30F94FBDNR6BS3JI3VKF41RBJN4TBU","","null","<img src=""img/land1.png"" style=""width:200px;border:14px solid red;"">","null","","","","","","",""
"","image-keyboard-response","8","22516","0.0-8.0","3AQF3RZ5594XP6IG3M3K10M6KJOF6P","A2KLJKDG90K1PP","30F94FBDNR6BS3JI3VKF41RBJN4TBU","","814.5999999642372","img/land1.png","76","815.1999999880791","3","0","1","1,0.5,0.5,0.5,1,0.5,0.5,0.5,1","",""
"","html-keyboard-response","9","22821","0.0-9.0","3AQF3RZ5594XP6IG3M3K10M6KJOF6P","A2KLJKDG90K1PP","30F94FBDNR6BS3JI3VKF41RBJN4TBU","","null","<img src=""img/land1.png"" style=""width:200px;border:14px solid red;"">","null","","","","","","",""
"","image-keyboard-response","10","23043","0.0-10.0","3AQF3RZ5594XP6IG3M3K10M6KJOF6P","A2KLJKDG90K1PP","30F94FBDNR6BS3JI3VKF41RBJN4TBU","","221.9000000357628","img/land3.png","74","222.5","1","0","3","1,0.5,0.5,0.5,1,0.5,0.5,0.5,1","",""
"","html-keyboard-response","11","23349","0.0-11.0","3AQF3RZ5594XP6IG3M3K10M6KJOF6P","A2KLJKDG90K1PP","30F94FBDNR6BS3JI3VKF41RBJN4TBU","","null","<img src=""img/land3.png"" style=""width:200px;border:14px solid red;"">","null","","","","","","",""
"","image-keyboard-response","12","24524","0.0-12.0","3AQF3RZ5594XP6IG3M3K10M6KJOF6P","A2KLJKDG90K1PP","30F94FBDNR6BS3JI3VKF41RBJN4TBU","","1174.0999999642372","img/land1.png","74","1174.699999988079","1","1","1","1,0.5,0.5,0.5,1,0.5,0.5,0.5,1","",""
"","html-keyboard-response","13","24828","0.0-13.0","3AQF3RZ5594XP6IG3M3K10M6KJOF6P","A2KLJKDG90K1PP","30F94FBDNR6BS3JI3VKF41RBJN4TBU","","null","<img src=""img/land1.png"" style=""width:200px; border:14px solid green;"">","null","","","","","","",""
"","image-keyboard-response","14","25709","0.0-14.0","3AQF3RZ5594XP6IG3M3K10M6KJOF6P","A2KLJKDG90K1PP","30F94FBDNR6BS3JI3VKF41RBJN4TBU","","880.5","img/land2.png","75","881.1000000238419","2","1","2","1,0.5,0.5,0.5,1,0.5,0.5,0.5,1","",""
"","html-keyboard-response","15","26014","0.0-15.0","3AQF3RZ5594XP6IG3M3K10M6KJOF6P","A2KLJKDG90K1PP","30F94FBDNR6BS3JI3VKF41RBJN4TBU","","null","<img src=""img/land2.png"" style=""width:200px; border:14px solid green;"">","null","","","","","","",""
"","image-keyboard-response","16","26811","0.0-16.0","3AQF3RZ5594XP6IG3M3K10M6KJOF6P","A2KLJKDG90K1PP","30F94FBDNR6BS3JI3VKF41RBJN4TBU","","796.6000000238419","img/land1.png","76","797.3999999761581","3","0","1","1,0.5,0.5,0.5,1,0.5,0.5,0.5,1","",""
"","html-keyboard-response","17","27113","0.0-17.0","3AQF3RZ5594XP6IG3M3K10M6KJOF6P","A2KLJKDG90K1PP","30F94FBDNR6BS3JI3VKF41RBJN4TBU","","null","<img src=""img/land1.png"" style=""width:200px;border:14px solid red;"">","null","","","","","","",""
"","image-keyboard-response","18","28408","0.0-18.0","3AQF3RZ5594XP6IG3M3K10M6KJOF6P","A2KLJKDG90K1PP","30F94FBDNR6BS3JI3VKF41RBJN4TBU","","1294.699999988079","img/land2.png","74","1295.5","1","1","2","1,0.5,0.5,0.5,1,0.5,0.5,0.5,1","",""
"","html-keyboard-response","19","28719","0.0-19.0","3AQF3RZ5594XP6IG3M3K10M6KJOF6P","A2KLJKDG90K1PP","30F94FBDNR6BS3JI3VKF41RBJN4TBU","","null","<img src=""img/land2.png"" style=""width:200px; border:14px solid green;"">","null","","","","","","",""
"","image-keyboard-response","20","29161","0.0-20.0","3AQF3RZ5594XP6IG3M3K10M6KJOF6P","A2KLJKDG90K1PP","30F94FBDNR6BS3JI3VKF41RBJN4TBU","","441.89999997615814","img/land2.png","74","442.60000002384186","1","0","2","1,0.5,0.5,0.5,1,0.5,0.5,0.5,1","",""
"","html-keyboard-response","21","29464","0.0-21.0","3AQF3RZ5594XP6IG3M3K10M6KJOF6P","A2KLJKDG90K1PP","30F94FBDNR6BS3JI3VKF41RBJN4TBU","","null","<img src=""img/land2.png"" style=""width:200px;border:14px solid red;"">","null","","","","","","",""
"","image-keyboard-response","22","30424","0.0-22.0","3AQF3RZ5594XP6IG3M3K10M6KJOF6P","A2KLJKDG90K1PP","30F94FBDNR6BS3JI3VKF41RBJN4TBU","","959","img/land1.png","75","959.7000000476837","2","0","1","1,0.5,0.5,0.5,1,0.5,0.5,0.5,1","",""
"","html-keyboard-response","23","30725","0.0-23.0","3AQF3RZ5594XP6IG3M3K10M6KJOF6P","A2KLJKDG90K1PP","30F94FBDNR6BS3JI3VKF41RBJN4TBU","","null","<img src=""img/land1.png"" style=""width:200px;border:14px solid red;"">","null","","","","","","",""
"","image-keyboard-response","24","31572","0.0-24.0","3AQF3RZ5594XP6IG3M3K10M6KJOF6P","A2KLJKDG90K1PP","30F94FBDNR6BS3JI3VKF41RBJN4TBU","","846.4000000357628","img/land3.png","75","846.9000000357628","2","0","3","1,0.5,0.5,0.5,1,0.5,0.5,0.5,1","",""
"","html-keyboard-response","25","31873","0.0-25.0","3AQF3RZ5594XP6IG3M3K10M6KJOF6P","A2KLJKDG90K1PP","30F94FBDNR6BS3JI3VKF41RBJN4TBU","","null","<img src=""img/land3.png"" style=""width:200px;border:14px solid red;"">","null","","","","","","",""
"","image-keyboard-response","26","32376","0.0-26.0","3AQF3RZ5594XP6IG3M3K10M6KJOF6P","A2KLJKDG90K1PP","30F94FBDNR6BS3JI3VKF41RBJN4TBU","","501.69999998807907","img/land3.png","76","502.5","3","1","3","1,0.5,0.5,0.5,1,0.5,0.5,0.5,1","",""
"","html-keyboard-response","27","32677","0.0-27.0","3AQF3RZ5594XP6IG3M3K10M6KJOF6P","A2KLJKDG90K1PP","30F94FBDNR6BS3JI3VKF41RBJN4TBU","","null","<img src=""img/land3.png"" style=""width:200px; border:14px solid green;"">","null","","","","","","",""
"","image-keyboard-response","28","33161","0.0-28.0","3AQF3RZ5594XP6IG3M3K10M6KJOF6P","A2KLJKDG90K1PP","30F94FBDNR6BS3JI3VKF41RBJN4TBU","","483.10000002384186","img/land3.png","76","483.69999998807907","3","1","3","1,0.5,0.5,0.5,1,0.5,0.5,0.5,1","",""
"","html-keyboard-response","29","33463","0.0-29.0","3AQF3RZ5594XP6IG3M3K10M6KJOF6P","A2KLJKDG90K1PP","30F94FBDNR6BS3JI3VKF41RBJN4TBU","","null","<img src=""img/land3.png"" style=""width:200px; border:14px solid green;"">","null","","","","","","",""
"","image-keyboard-response","30","34236","0.0-30.0","3AQF3RZ5594XP6IG3M3K10M6KJOF6P","A2KLJKDG90K1PP","30F94FBDNR6BS3JI3VKF41RBJN4TBU","","771.8999999761581","img/land1.png","75","772.5","2","0","1","1,0.5,0.5,0.5,1,0.5,0.5,0.5,1","",""
"","html-keyboard-response","31","34537","0.0-31.0","3AQF3RZ5594XP6IG3M3K10M6KJOF6P","A2KLJKDG90K1PP","30F94FBDNR6BS3JI3VKF41RBJN4TBU","","null","<img src=""img/land1.png"" style=""width:200px;border:14px solid red;"">","null","","","","","","",""
"","image-keyboard-response","32","35511","0.0-32.0","3AQF3RZ5594XP6IG3M3K10M6KJOF6P","A2KLJKDG90K1PP","30F94FBDNR6BS3JI3VKF41RBJN4TBU","","972.9000000357628","img/land2.png","75","973.3999999761581","2","1","2","1,0.5,0.5,0.5,1,0.5,0.5,0.5,1","",""
"","html-keyboard-response","33","35812","0.0-33.0","3AQF3RZ5594XP6IG3M3K10M6KJOF6P","A2KLJKDG90K1PP","30F94FBDNR6BS3JI3VKF41RBJN4TBU","","null","<img src=""img/land2.png"" style=""width:200px; border:14px solid green;"">","null","","","","","","",""
"","image-keyboard-response","34","36703","0.0-34.0","3AQF3RZ5594XP6IG3M3K10M6KJOF6P","A2KLJKDG90K1PP","30F94FBDNR6BS3JI3VKF41RBJN4TBU","","890.1999999880791","img/land1.png","74","890.8000000119209","1","1","1","1,0.5,0.5,0.5,1,0.5,0.5,0.5,1","",""
"","html-keyboard-response","35","37005","0.0-35.0","3AQF3RZ5594XP6IG3M3K10M6KJOF6P","A2KLJKDG90K1PP","30F94FBDNR6BS3JI3VKF41RBJN4TBU","","null","<img src=""img/land1.png"" style=""width:200px; border:14px solid green;"">","null","","","","","","",""
"","image-keyboard-response","36","37732","0.0-36.0","3AQF3RZ5594XP6IG3M3K10M6KJOF6P","A2KLJKDG90K1PP","30F94FBDNR6BS3JI3VKF41RBJN4TBU","","726.4000000357628","img/land3.png","76","726.8999999761581","3","1","3","1,0.5,0.5,0.5,1,0.5,0.5,0.5,1","",""
"","html-keyboard-response","37","38041","0.0-37.0","3AQF3RZ5594XP6IG3M3K10M6KJOF6P","A2KLJKDG90K1PP","30F94FBDNR6BS3JI3VKF41RBJN4TBU","","null","<img src=""img/land3.png"" style=""width:200px; border:14px solid green;"">","null","","","","","","",""
"","image-keyboard-response","38","38833","0.0-38.0","3AQF3RZ5594XP6IG3M3K10M6KJOF6P","A2KLJKDG90K1PP","30F94FBDNR6BS3JI3VKF41RBJN4TBU","","791.4000000357628","img/land1.png","74","791.8999999761581","1","1","1","1,0.5,0.5,0.5,1,0.5,0.5,0.5,1","",""
"","html-keyboard-response","39","39134","0.0-39.0","3AQF3RZ5594XP6IG3M3K10M6KJOF6P","A2KLJKDG90K1PP","30F94FBDNR6BS3JI3VKF41RBJN4TBU","","null","<img src=""img/land1.png"" style=""width:200px; border:14px solid green;"">","null","","","","","","",""
"","image-keyboard-response","40","39883","0.0-40.0","3AQF3RZ5594XP6IG3M3K10M6KJOF6P","A2KLJKDG90K1PP","30F94FBDNR6BS3JI3VKF41RBJN4TBU","","747.8000000119209","img/land2.png","75","748.3999999761581","2","1","2","1,0.5,0.5,0.5,1,0.5,0.5,0.5,1","",""
"","html-keyboard-response","41","40184","0.0-41.0","3AQF3RZ5594XP6IG3M3K10M6KJOF6P","A2KLJKDG90K1PP","30F94FBDNR6BS3JI3VKF41RBJN4TBU","","null","<img src=""img/land2.png"" style=""width:200px; border:14px solid green;"">","null","","","","","","",""
"","image-keyboard-response","42","41497","0.0-42.0","3AQF3RZ5594XP6IG3M3K10M6KJOF6P","A2KLJKDG90K1PP","30F94FBDNR6BS3JI3VKF41RBJN4TBU","","1311.5999999642372","img/land3.png","76","1312.3999999761581","3","1","3","1,0.5,0.5,0.5,1,0.5,0.5,0.5,1","",""
"","html-keyboard-response","43","41800","0.0-43.0","3AQF3RZ5594XP6IG3M3K10M6KJOF6P","A2KLJKDG90K1PP","30F94FBDNR6BS3JI3VKF41RBJN4TBU","","null","<img src=""img/land3.png"" style=""width:200px; border:14px solid green;"">","null","","","","","","",""
"","image-keyboard-response","44","42177","0.0-44.0","3AQF3RZ5594XP6IG3M3K10M6KJOF6P","A2KLJKDG90K1PP","30F94FBDNR6BS3JI3VKF41RBJN4TBU","","375.69999998807907","img/land3.png","76","376.30000001192093","3","1","3","1,0.5,0.5,0.5,1,0.5,0.5,0.5,1","",""
"","html-keyboard-response","45","42478","0.0-45.0","3AQF3RZ5594XP6IG3M3K10M6KJOF6P","A2KLJKDG90K1PP","30F94FBDNR6BS3JI3VKF41RBJN4TBU","","null","<img src=""img/land3.png"" style=""width:200px; border:14px solid green;"">","null","","","","","","",""
"","image-keyboard-response","46","43248","0.0-46.0","3AQF3RZ5594XP6IG3M3K10M6KJOF6P","A2KLJKDG90K1PP","30F94FBDNR6BS3JI3VKF41RBJN4TBU","","768.8999999761581","img/land1.png","74","769.5","1","1","1","1,0.5,0.5,0.5,1,0.5,0.5,0.5,1","",""
"","html-keyboard-response","47","43549","0.0-47.0","3AQF3RZ5594XP6IG3M3K10M6KJOF6P","A2KLJKDG90K1PP","30F94FBDNR6BS3JI3VKF41RBJN4TBU","","null","<img src=""img/land1.png"" style=""width:200px; border:14px solid green;"">","null","","","","","","",""
"","image-keyboard-response","48","45078","0.0-48.0","3AQF3RZ5594XP6IG3M3K10M6KJOF6P","A2KLJKDG90K1PP","30F94FBDNR6BS3JI3VKF41RBJN4TBU","","1527.5","img/land3.png","76","1528.199999988079","3","1","3","1,0.5,0.5,0.5,1,0.5,0.5,0.5,1","",""
"","html-keyboard-response","49","45380","0.0-49.0","3AQF3RZ5594XP6IG3M3K10M6KJOF6P","A2KLJKDG90K1PP","30F94FBDNR6BS3JI3VKF41RBJN4TBU","","null","<img src=""img/land3.png"" style=""width:200px; border:14px solid green;"">","null","","","","","","",""
"","image-keyboard-response","50","46065","0.0-50.0","3AQF3RZ5594XP6IG3M3K10M6KJOF6P","A2KLJKDG90K1PP","30F94FBDNR6BS3JI3VKF41RBJN4TBU","","684","img/land1.png","74","684.8000000119209","1","1","1","1,0.5,0.5,0.5,1,0.5,0.5,0.5,1","",""
"","html-keyboard-response","51","46367","0.0-51.0","3AQF3RZ5594XP6IG3M3K10M6KJOF6P","A2KLJKDG90K1PP","30F94FBDNR6BS3JI3VKF41RBJN4TBU","","null","<img src=""img/land1.png"" style=""width:200px; border:14px solid green;"">","null","","","","","","",""
"","image-keyboard-response","52","46949","0.0-52.0","3AQF3RZ5594XP6IG3M3K10M6KJOF6P","A2KLJKDG90K1PP","30F94FBDNR6BS3JI3VKF41RBJN4TBU","","580.8000000119209","img/land3.png","76","581.6000000238419","3","1","3","1,0.5,0.5,0.5,1,0.5,0.5,0.5,1","",""
"","html-keyboard-response","53","47251","0.0-53.0","3AQF3RZ5594XP6IG3M3K10M6KJOF6P","A2KLJKDG90K1PP","30F94FBDNR6BS3JI3VKF41RBJN4TBU","","null","<img src=""img/land3.png"" style=""width:200px; border:14px solid green;"">","null","","","","","","",""
"","image-keyboard-response","54","47875","0.0-54.0","3AQF3RZ5594XP6IG3M3K10M6KJOF6P","A2KLJKDG90K1PP","30F94FBDNR6BS3JI3VKF41RBJN4TBU","","622.9000000357628","img/land2.png","75","623.6999999880791","2","1","2","1,0.5,0.5,0.5,1,0.5,0.5,0.5,1","",""
"","html-keyboard-response","55","48177","0.0-55.0","3AQF3RZ5594XP6IG3M3K10M6KJOF6P","A2KLJKDG90K1PP","30F94FBDNR6BS3JI3VKF41RBJN4TBU","","null","<img src=""img/land2.png"" style=""width:200px; border:14px solid green;"">","null","","","","","","",""
"","image-keyboard-response","56","48547","0.0-56.0","3AQF3RZ5594XP6IG3M3K10M6KJOF6P","A2KLJKDG90K1PP","30F94FBDNR6BS3JI3VKF41RBJN4TBU","","368.9000000357628","img/land2.png","75","369.5","2","1","2","1,0.5,0.5,0.5,1,0.5,0.5,0.5,1","",""
"","html-keyboard-response","57","48859","0.0-57.0","3AQF3RZ5594XP6IG3M3K10M6KJOF6P","A2KLJKDG90K1PP","30F94FBDNR6BS3JI3VKF41RBJN4TBU","","null","<img src=""img/land2.png"" style=""width:200px; border:14px solid green;"">","null","","","","","","",""
"","image-keyboard-response","58","49499","0.0-58.0","3AQF3RZ5594XP6IG3M3K10M6KJOF6P","A2KLJKDG90K1PP","30F94FBDNR6BS3JI3VKF41RBJN4TBU","","637.8999999761581","img/land1.png","74","638.6000000238419","1","1","1","1,0.5,0.5,0.5,1,0.5,0.5,0.5,1","",""
"","html-keyboard-response","59","49801","0.0-59.0","3AQF3RZ5594XP6IG3M3K10M6KJOF6P","A2KLJKDG90K1PP","30F94FBDNR6BS3JI3VKF41RBJN4TBU","","null","<img src=""img/land1.png"" style=""width:200px; border:14px solid green;"">","null","","","","","","",""
"","image-keyboard-response","60","50165","0.0-60.0","3AQF3RZ5594XP6IG3M3K10M6KJOF6P","A2KLJKDG90K1PP","30F94FBDNR6BS3JI3VKF41RBJN4TBU","","362.80000001192093","img/land1.png","74","363.19999998807907","1","1","1","1,0.5,0.5,0.5,1,0.5,0.5,0.5,1","",""
"","html-keyboard-response","61","50468","0.0-61.0","3AQF3RZ5594XP6IG3M3K10M6KJOF6P","A2KLJKDG90K1PP","30F94FBDNR6BS3JI3VKF41RBJN4TBU","","null","<img src=""img/land1.png"" style=""width:200px; border:14px solid green;"">","null","","","","","","",""
"","image-keyboard-response","62","50808","0.0-62.0","3AQF3RZ5594XP6IG3M3K10M6KJOF6P","A2KLJKDG90K1PP","30F94FBDNR6BS3JI3VKF41RBJN4TBU","","339.60000002384186","img/land1.png","74","340.5","1","1","1","1,0.5,0.5,0.5,1,0.5,0.5,0.5,1","",""
"","html-keyboard-response","63","51110","0.0-63.0","3AQF3RZ5594XP6IG3M3K10M6KJOF6P","A2KLJKDG90K1PP","30F94FBDNR6BS3JI3VKF41RBJN4TBU","","null","<img src=""img/land1.png"" style=""width:200px; border:14px solid green;"">","null","","","","","","",""
"","image-keyboard-response","64","51719","0.0-64.0","3AQF3RZ5594XP6IG3M3K10M6KJOF6P","A2KLJKDG90K1PP","30F94FBDNR6BS3JI3VKF41RBJN4TBU","","607.9000000357628","img/land3.png","76","609.1999999880791","3","1","3","1,0.5,0.5,0.5,1,0.5,0.5,0.5,1","",""
"","html-keyboard-response","65","52033","0.0-65.0","3AQF3RZ5594XP6IG3M3K10M6KJOF6P","A2KLJKDG90K1PP","30F94FBDNR6BS3JI3VKF41RBJN4TBU","","null","<img src=""img/land3.png"" style=""width:200px; border:14px solid green;"">","null","","","","","","",""
"","image-keyboard-response","66","52738","0.0-66.0","3AQF3RZ5594XP6IG3M3K10M6KJOF6P","A2KLJKDG90K1PP","30F94FBDNR6BS3JI3VKF41RBJN4TBU","","704.1999999880791","img/land1.png","74","704.6000000238419","1","1","1","1,0.5,0.5,0.5,1,0.5,0.5,0.5,1","",""
"","html-keyboard-response","67","53040","0.0-67.0","3AQF3RZ5594XP6IG3M3K10M6KJOF6P","A2KLJKDG90K1PP","30F94FBDNR6BS3JI3VKF41RBJN4TBU","","null","<img src=""img/land1.png"" style=""width:200px; border:14px solid green;"">","null","","","","","","",""
"","image-keyboard-response","68","53575","0.0-68.0","3AQF3RZ5594XP6IG3M3K10M6KJOF6P","A2KLJKDG90K1PP","30F94FBDNR6BS3JI3VKF41RBJN4TBU","","534.6999999880791","img/land2.png","75","535.5","2","1","2","1,0.5,0.5,0.5,1,0.5,0.5,0.5,1","",""
"","html-keyboard-response","69","53877","0.0-69.0","3AQF3RZ5594XP6IG3M3K10M6KJOF6P","A2KLJKDG90K1PP","30F94FBDNR6BS3JI3VKF41RBJN4TBU","","null","<img src=""img/land2.png"" style=""width:200px; border:14px solid green;"">","null","","","","","","",""
"","image-keyboard-response","70","54249","0.0-70.0","3AQF3RZ5594XP6IG3M3K10M6KJOF6P","A2KLJKDG90K1PP","30F94FBDNR6BS3JI3VKF41RBJN4TBU","","371.5","img/land2.png","75","372","2","1","2","1,0.5,0.5,0.5,1,0.5,0.5,0.5,1","",""
"","html-keyboard-response","71","54551","0.0-71.0","3AQF3RZ5594XP6IG3M3K10M6KJOF6P","A2KLJKDG90K1PP","30F94FBDNR6BS3JI3VKF41RBJN4TBU","","null","<img src=""img/land2.png"" style=""width:200px; border:14px solid green;"">","null","","","","","","",""
"","image-keyboard-response","72","55178","0.0-72.0","3AQF3RZ5594XP6IG3M3K10M6KJOF6P","A2KLJKDG90K1PP","30F94FBDNR6BS3JI3VKF41RBJN4TBU","","626.1000000238419","img/land1.png","74","626.8999999761581","1","1","1","1,0.5,0.5,0.5,1,0.5,0.5,0.5,1","",""
"","html-keyboard-response","73","55479","0.0-73.0","3AQF3RZ5594XP6IG3M3K10M6KJOF6P","A2KLJKDG90K1PP","30F94FBDNR6BS3JI3VKF41RBJN4TBU","","null","<img src=""img/land1.png"" style=""width:200px; border:14px solid green;"">","null","","","","","","",""
"","image-keyboard-response","74","56053","0.0-74.0","3AQF3RZ5594XP6IG3M3K10M6KJOF6P","A2KLJKDG90K1PP","30F94FBDNR6BS3JI3VKF41RBJN4TBU","","572.3999999761581","img/land3.png","76","573.1999999880791","3","1","3","1,0.5,0.5,0.5,1,0.5,0.5,0.5,1","",""
"","html-keyboard-response","75","56354","0.0-75.0","3AQF3RZ5594XP6IG3M3K10M6KJOF6P","A2KLJKDG90K1PP","30F94FBDNR6BS3JI3VKF41RBJN4TBU","","null","<img src=""img/land3.png"" style=""width:200px; border:14px solid green;"">","null","","","","","","",""
"","image-keyboard-response","76","57116","0.0-76.0","3AQF3RZ5594XP6IG3M3K10M6KJOF6P","A2KLJKDG90K1PP","30F94FBDNR6BS3JI3VKF41RBJN4TBU","","760.9000000357628","img/land1.png","74","761.5999999642372","1","1","1","1,0.5,0.5,0.5,1,0.5,0.5,0.5,1","",""
"","html-keyboard-response","77","57423","0.0-77.0","3AQF3RZ5594XP6IG3M3K10M6KJOF6P","A2KLJKDG90K1PP","30F94FBDNR6BS3JI3VKF41RBJN4TBU","","null","<img src=""img/land1.png"" style=""width:200px; border:14px solid green;"">","null","","","","","","",""
"","image-keyboard-response","78","57988","0.0-78.0","3AQF3RZ5594XP6IG3M3K10M6KJOF6P","A2KLJKDG90K1PP","30F94FBDNR6BS3JI3VKF41RBJN4TBU","","563.5","img/land3.png","75","565.0999999642372","2","0","3","1,0.5,0.5,0.5,1,0.5,0.5,0.5,1","",""
"","html-keyboard-response","79","58289","0.0-79.0","3AQF3RZ5594XP6IG3M3K10M6KJOF6P","A2KLJKDG90K1PP","30F94FBDNR6BS3JI3VKF41RBJN4TBU","","null","<img src=""img/land3.png"" style=""width:200px;border:14px solid red;"">","null","","","","","","",""
"","image-keyboard-response","80","58985","0.0-80.0","3AQF3RZ5594XP6IG3M3K10M6KJOF6P","A2KLJKDG90K1PP","30F94FBDNR6BS3JI3VKF41RBJN4TBU","","695.8999999761581","img/land2.png","75","696.4000000357628","2","1","2","1,0.5,0.5,0.5,1,0.5,0.5,0.5,1","",""
"","html-keyboard-response","81","59288","0.0-81.0","3AQF3RZ5594XP6IG3M3K10M6KJOF6P","A2KLJKDG90K1PP","30F94FBDNR6BS3JI3VKF41RBJN4TBU","","null","<img src=""img/land2.png"" style=""width:200px; border:14px solid green;"">","null","","","","","","",""
"","image-keyboard-response","82","59931","0.0-82.0","3AQF3RZ5594XP6IG3M3K10M6KJOF6P","A2KLJKDG90K1PP","30F94FBDNR6BS3JI3VKF41RBJN4TBU","","642","img/land3.png","76","642.5","3","1","3","1,0.5,0.5,0.5,1,0.5,0.5,0.5,1","",""
"","html-keyboard-response","83","60232","0.0-83.0","3AQF3RZ5594XP6IG3M3K10M6KJOF6P","A2KLJKDG90K1PP","30F94FBDNR6BS3JI3VKF41RBJN4TBU","","null","<img src=""img/land3.png"" style=""width:200px; border:14px solid green;"">","null","","","","","","",""
"","image-keyboard-response","84","60568","0.0-84.0","3AQF3RZ5594XP6IG3M3K10M6KJOF6P","A2KLJKDG90K1PP","30F94FBDNR6BS3JI3VKF41RBJN4TBU","","335.19999998807907","img/land3.png","76","335.89999997615814","3","1","3","1,0.5,0.5,0.5,1,0.5,0.5,0.5,1","",""
"","html-keyboard-response","85","60870","0.0-85.0","3AQF3RZ5594XP6IG3M3K10M6KJOF6P","A2KLJKDG90K1PP","30F94FBDNR6BS3JI3VKF41RBJN4TBU","","null","<img src=""img/land3.png"" style=""width:200px; border:14px solid green;"">","null","","","","","","",""
"","image-keyboard-response","86","61207","0.0-86.0","3AQF3RZ5594XP6IG3M3K10M6KJOF6P","A2KLJKDG90K1PP","30F94FBDNR6BS3JI3VKF41RBJN4TBU","","336.80000001192093","img/land3.png","76","337.30000001192093","3","1","3","1,0.5,0.5,0.5,1,0.5,0.5,0.5,1","",""
"","html-keyboard-response","87","61509","0.0-87.0","3AQF3RZ5594XP6IG3M3K10M6KJOF6P","A2KLJKDG90K1PP","30F94FBDNR6BS3JI3VKF41RBJN4TBU","","null","<img src=""img/land3.png"" style=""width:200px; border:14px solid green;"">","null","","","","","","",""
"","image-keyboard-response","88","62139","0.0-88.0","3AQF3RZ5594XP6IG3M3K10M6KJOF6P","A2KLJKDG90K1PP","30F94FBDNR6BS3JI3VKF41RBJN4TBU","","629.2999999523163","img/land1.png","74","629.8000000119209","1","1","1","1,0.5,0.5,0.5,1,0.5,0.5,0.5,1","",""
"","html-keyboard-response","89","62440","0.0-89.0","3AQF3RZ5594XP6IG3M3K10M6KJOF6P","A2KLJKDG90K1PP","30F94FBDNR6BS3JI3VKF41RBJN4TBU","","null","<img src=""img/land1.png"" style=""width:200px; border:14px solid green;"">","null","","","","","","",""
"","image-keyboard-response","90","63155","0.0-90.0","3AQF3RZ5594XP6IG3M3K10M6KJOF6P","A2KLJKDG90K1PP","30F94FBDNR6BS3JI3VKF41RBJN4TBU","","713.5","img/land3.png","76","714.3000000119209","3","1","3","1,0.5,0.5,0.5,1,0.5,0.5,0.5,1","",""
"","html-keyboard-response","91","63457","0.0-91.0","3AQF3RZ5594XP6IG3M3K10M6KJOF6P","A2KLJKDG90K1PP","30F94FBDNR6BS3JI3VKF41RBJN4TBU","","null","<img src=""img/land3.png"" style=""width:200px; border:14px solid green;"">","null","","","","","","",""
"","image-keyboard-response","92","63819","0.0-92.0","3AQF3RZ5594XP6IG3M3K10M6KJOF6P","A2KLJKDG90K1PP","30F94FBDNR6BS3JI3VKF41RBJN4TBU","","360.7000000476837","img/land3.png","76","361.0999999642372","3","1","3","1,0.5,0.5,0.5,1,0.5,0.5,0.5,1","",""
"","html-keyboard-response","93","64121","0.0-93.0","3AQF3RZ5594XP6IG3M3K10M6KJOF6P","A2KLJKDG90K1PP","30F94FBDNR6BS3JI3VKF41RBJN4TBU","","null","<img src=""img/land3.png"" style=""width:200px; border:14px solid green;"">","null","","","","","","",""
"","image-keyboard-response","94","65203","0.0-94.0","3AQF3RZ5594XP6IG3M3K10M6KJOF6P","A2KLJKDG90K1PP","30F94FBDNR6BS3JI3VKF41RBJN4TBU","","1081.5","img/land1.png","74","1082.2000000476837","1","1","1","1,0.5,0.5,0.5,1,0.5,0.5,0.5,1","",""
"","html-keyboard-response","95","65505","0.0-95.0","3AQF3RZ5594XP6IG3M3K10M6KJOF6P","A2KLJKDG90K1PP","30F94FBDNR6BS3JI3VKF41RBJN4TBU","","null","<img src=""img/land1.png"" style=""width:200px; border:14px solid green;"">","null","","","","","","",""
"","image-keyboard-response","96","65809","0.0-96.0","3AQF3RZ5594XP6IG3M3K10M6KJOF6P","A2KLJKDG90K1PP","30F94FBDNR6BS3JI3VKF41RBJN4TBU","","303.5999999642372","img/land1.png","74","304.19999998807907","1","1","1","1,0.5,0.5,0.5,1,0.5,0.5,0.5,1","",""
"","html-keyboard-response","97","66112","0.0-97.0","3AQF3RZ5594XP6IG3M3K10M6KJOF6P","A2KLJKDG90K1PP","30F94FBDNR6BS3JI3VKF41RBJN4TBU","","null","<img src=""img/land1.png"" style=""width:200px; border:14px solid green;"">","null","","","","","","",""
"","image-keyboard-response","98","66570","0.0-98.0","3AQF3RZ5594XP6IG3M3K10M6KJOF6P","A2KLJKDG90K1PP","30F94FBDNR6BS3JI3VKF41RBJN4TBU","","457.60000002384186","img/land2.png","75","458","2","1","2","1,0.5,0.5,0.5,1,0.5,0.5,0.5,1","",""
"","html-keyboard-response","99","66872","0.0-99.0","3AQF3RZ5594XP6IG3M3K10M6KJOF6P","A2KLJKDG90K1PP","30F94FBDNR6BS3JI3VKF41RBJN4TBU","","null","<img src=""img/land2.png"" style=""width:200px; border:14px solid green;"">","null","","","","","","",""
"","image-keyboard-response","100","67484","0.0-100.0","3AQF3RZ5594XP6IG3M3K10M6KJOF6P","A2KLJKDG90K1PP","30F94FBDNR6BS3JI3VKF41RBJN4TBU","","611","img/land1.png","74","612","1","1","1","1,0.5,0.5,0.5,1,0.5,0.5,0.5,1","",""
"","html-keyboard-response","101","67787","0.0-101.0","3AQF3RZ5594XP6IG3M3K10M6KJOF6P","A2KLJKDG90K1PP","30F94FBDNR6BS3JI3VKF41RBJN4TBU","","null","<img src=""img/land1.png"" style=""width:200px; border:14px solid green;"">","null","","","","","","",""
"","image-keyboard-response","102","68135","0.0-102.0","3AQF3RZ5594XP6IG3M3K10M6KJOF6P","A2KLJKDG90K1PP","30F94FBDNR6BS3JI3VKF41RBJN4TBU","","347.0999999642372","img/land1.png","74","347.80000001192093","1","1","1","1,0.5,0.5,0.5,1,0.5,0.5,0.5,1","",""
"","html-keyboard-response","103","68437","0.0-103.0","3AQF3RZ5594XP6IG3M3K10M6KJOF6P","A2KLJKDG90K1PP","30F94FBDNR6BS3JI3VKF41RBJN4TBU","","null","<img src=""img/land1.png"" style=""width:200px; border:14px solid green;"">","null","","","","","","",""
"","image-keyboard-response","104","69049","0.0-104.0","3AQF3RZ5594XP6IG3M3K10M6KJOF6P","A2KLJKDG90K1PP","30F94FBDNR6BS3JI3VKF41RBJN4TBU","","611.5","img/land3.png","76","612","3","1","3","1,0.5,0.5,0.5,1,0.5,0.5,0.5,1","",""
"","html-keyboard-response","105","69350","0.0-105.0","3AQF3RZ5594XP6IG3M3K10M6KJOF6P","A2KLJKDG90K1PP","30F94FBDNR6BS3JI3VKF41RBJN4TBU","","null","<img src=""img/land3.png"" style=""width:200px; border:14px solid green;"">","null","","","","","","",""
"","image-keyboard-response","106","70036","0.0-106.0","3AQF3RZ5594XP6IG3M3K10M6KJOF6P","A2KLJKDG90K1PP","30F94FBDNR6BS3JI3VKF41RBJN4TBU","","684.7999999523163","img/land2.png","75","685.5","2","1","2","1,0.5,0.5,0.5,1,0.5,0.5,0.5,1","",""
"","html-keyboard-response","107","70338","0.0-107.0","3AQF3RZ5594XP6IG3M3K10M6KJOF6P","A2KLJKDG90K1PP","30F94FBDNR6BS3JI3VKF41RBJN4TBU","","null","<img src=""img/land2.png"" style=""width:200px; border:14px solid green;"">","null","","","","","","",""
"","image-keyboard-response","108","71031","0.0-108.0","3AQF3RZ5594XP6IG3M3K10M6KJOF6P","A2KLJKDG90K1PP","30F94FBDNR6BS3JI3VKF41RBJN4TBU","","691.6999999880791","img/land1.png","74","692.3000000119209","1","1","1","1,0.5,0.5,0.5,1,0.5,0.5,0.5,1","",""
"","html-keyboard-response","109","71332","0.0-109.0","3AQF3RZ5594XP6IG3M3K10M6KJOF6P","A2KLJKDG90K1PP","30F94FBDNR6BS3JI3VKF41RBJN4TBU","","null","<img src=""img/land1.png"" style=""width:200px; border:14px solid green;"">","null","","","","","","",""
"","image-keyboard-response","110","71991","0.0-110.0","3AQF3RZ5594XP6IG3M3K10M6KJOF6P","A2KLJKDG90K1PP","30F94FBDNR6BS3JI3VKF41RBJN4TBU","","657.8999999761581","img/land3.png","76","658.5","3","1","3","1,0.5,0.5,0.5,1,0.5,0.5,0.5,1","",""
"","html-keyboard-response","111","72292","0.0-111.0","3AQF3RZ5594XP6IG3M3K10M6KJOF6P","A2KLJKDG90K1PP","30F94FBDNR6BS3JI3VKF41RBJN4TBU","","null","<img src=""img/land3.png"" style=""width:200px; border:14px solid green;"">","null","","","","","","",""
"","image-keyboard-response","112","72841","0.0-112.0","3AQF3RZ5594XP6IG3M3K10M6KJOF6P","A2KLJKDG90K1PP","30F94FBDNR6BS3JI3VKF41RBJN4TBU","","547.6999999880791","img/land2.png","74","548.3999999761581","1","0","2","1,0.5,0.5,0.5,1,0.5,0.5,0.5,1","",""
"","html-keyboard-response","113","73143","0.0-113.0","3AQF3RZ5594XP6IG3M3K10M6KJOF6P","A2KLJKDG90K1PP","30F94FBDNR6BS3JI3VKF41RBJN4TBU","","null","<img src=""img/land2.png"" style=""width:200px;border:14px solid red;"">","null","","","","","","",""
"","image-keyboard-response","114","73955","0.0-114.0","3AQF3RZ5594XP6IG3M3K10M6KJOF6P","A2KLJKDG90K1PP","30F94FBDNR6BS3JI3VKF41RBJN4TBU","","811.5","img/land1.png","74","812.3000000119209","1","1","1","1,0.5,0.5,0.5,1,0.5,0.5,0.5,1","",""
"","html-keyboard-response","115","74258","0.0-115.0","3AQF3RZ5594XP6IG3M3K10M6KJOF6P","A2KLJKDG90K1PP","30F94FBDNR6BS3JI3VKF41RBJN4TBU","","null","<img src=""img/land1.png"" style=""width:200px; border:14px solid green;"">","null","","","","","","",""
"","image-keyboard-response","116","74610","0.0-116.0","3AQF3RZ5594XP6IG3M3K10M6KJOF6P","A2KLJKDG90K1PP","30F94FBDNR6BS3JI3VKF41RBJN4TBU","","351.30000001192093","img/land1.png","74","351.9000000357628","1","1","1","1,0.5,0.5,0.5,1,0.5,0.5,0.5,1","",""
"","html-keyboard-response","117","74912","0.0-117.0","3AQF3RZ5594XP6IG3M3K10M6KJOF6P","A2KLJKDG90K1PP","30F94FBDNR6BS3JI3VKF41RBJN4TBU","","null","<img src=""img/land1.png"" style=""width:200px; border:14px solid green;"">","null","","","","","","",""
"","image-keyboard-response","118","75497","0.0-118.0","3AQF3RZ5594XP6IG3M3K10M6KJOF6P","A2KLJKDG90K1PP","30F94FBDNR6BS3JI3VKF41RBJN4TBU","","584.3000000119209","img/land3.png","76","585","3","1","3","1,0.5,0.5,0.5,1,0.5,0.5,0.5,1","",""
"","html-keyboard-response","119","75799","0.0-119.0","3AQF3RZ5594XP6IG3M3K10M6KJOF6P","A2KLJKDG90K1PP","30F94FBDNR6BS3JI3VKF41RBJN4TBU","","null","<img src=""img/land3.png"" style=""width:200px; border:14px solid green;"">","null","","","","","","",""
"","image-keyboard-response","120","76353","0.0-120.0","3AQF3RZ5594XP6IG3M3K10M6KJOF6P","A2KLJKDG90K1PP","30F94FBDNR6BS3JI3VKF41RBJN4TBU","","553.1999999880791","img/land2.png","75","554","2","1","2","1,0.5,0.5,0.5,1,0.5,0.5,0.5,1","",""
"","html-keyboard-response","121","76655","0.0-121.0","3AQF3RZ5594XP6IG3M3K10M6KJOF6P","A2KLJKDG90K1PP","30F94FBDNR6BS3JI3VKF41RBJN4TBU","","null","<img src=""img/land2.png"" style=""width:200px; border:14px solid green;"">","null","","","","","","",""
"","image-keyboard-response","122","77000","0.0-122.0","3AQF3RZ5594XP6IG3M3K10M6KJOF6P","A2KLJKDG90K1PP","30F94FBDNR6BS3JI3VKF41RBJN4TBU","","344.4000000357628","img/land2.png","75","345","2","1","2","1,0.5,0.5,0.5,1,0.5,0.5,0.5,1","",""
"","html-keyboard-response","123","77302","0.0-123.0","3AQF3RZ5594XP6IG3M3K10M6KJOF6P","A2KLJKDG90K1PP","30F94FBDNR6BS3JI3VKF41RBJN4TBU","","null","<img src=""img/land2.png"" style=""width:200px; border:14px solid green;"">","null","","","","","","",""
"","image-keyboard-response","124","77904","0.0-124.0","3AQF3RZ5594XP6IG3M3K10M6KJOF6P","A2KLJKDG90K1PP","30F94FBDNR6BS3JI3VKF41RBJN4TBU","","601.6999999880791","img/land3.png","76","602.1000000238419","3","1","3","1,0.5,0.5,0.5,1,0.5,0.5,0.5,1","",""
"","html-keyboard-response","125","78224","0.0-125.0","3AQF3RZ5594XP6IG3M3K10M6KJOF6P","A2KLJKDG90K1PP","30F94FBDNR6BS3JI3VKF41RBJN4TBU","","null","<img src=""img/land3.png"" style=""width:200px; border:14px solid green;"">","null","","","","","","",""
"","image-keyboard-response","126","78554","0.0-126.0","3AQF3RZ5594XP6IG3M3K10M6KJOF6P","A2KLJKDG90K1PP","30F94FBDNR6BS3JI3VKF41RBJN4TBU","","329.19999998807907","img/land3.png","76","329.5999999642372","3","1","3","1,0.5,0.5,0.5,1,0.5,0.5,0.5,1","",""
"","html-keyboard-response","127","78855","0.0-127.0","3AQF3RZ5594XP6IG3M3K10M6KJOF6P","A2KLJKDG90K1PP","30F94FBDNR6BS3JI3VKF41RBJN4TBU","","null","<img src=""img/land3.png"" style=""width:200px; border:14px solid green;"">","null","","","","","","",""
"","image-keyboard-response","128","79540","0.0-128.0","3AQF3RZ5594XP6IG3M3K10M6KJOF6P","A2KLJKDG90K1PP","30F94FBDNR6BS3JI3VKF41RBJN4TBU","","684.4000000357628","img/land1.png","74","684.8999999761581","1","1","1","1,0.5,0.5,0.5,1,0.5,0.5,0.5,1","",""
"","html-keyboard-response","129","79843","0.0-129.0","3AQF3RZ5594XP6IG3M3K10M6KJOF6P","A2KLJKDG90K1PP","30F94FBDNR6BS3JI3VKF41RBJN4TBU","","null","<img src=""img/land1.png"" style=""width:200px; border:14px solid green;"">","null","","","","","","",""
"","image-keyboard-response","130","80126","0.0-130.0","3AQF3RZ5594XP6IG3M3K10M6KJOF6P","A2KLJKDG90K1PP","30F94FBDNR6BS3JI3VKF41RBJN4TBU","","282.9000000357628","img/land2.png","74","283.5","1","1","2","1,0.5,0.5,0.5,1,0.5,0.5,0.5,1","",""
"","html-keyboard-response","131","80428","0.0-131.0","3AQF3RZ5594XP6IG3M3K10M6KJOF6P","A2KLJKDG90K1PP","30F94FBDNR6BS3JI3VKF41RBJN4TBU","","null","<img src=""img/land2.png"" style=""width:200px; border:14px solid green;"">","null","","","","","","",""
"","image-keyboard-response","132","81116","0.0-132.0","3AQF3RZ5594XP6IG3M3K10M6KJOF6P","A2KLJKDG90K1PP","30F94FBDNR6BS3JI3VKF41RBJN4TBU","","687.6999999880791","img/land2.png","75","688.3000000119209","2","1","2","1,0.5,0.5,0.5,1,0.5,0.5,0.5,1","",""
"","html-keyboard-response","133","81418","0.0-133.0","3AQF3RZ5594XP6IG3M3K10M6KJOF6P","A2KLJKDG90K1PP","30F94FBDNR6BS3JI3VKF41RBJN4TBU","","null","<img src=""img/land2.png"" style=""width:200px; border:14px solid green;"">","null","","","","","","",""
"","image-keyboard-response","134","82007","0.0-134.0","3AQF3RZ5594XP6IG3M3K10M6KJOF6P","A2KLJKDG90K1PP","30F94FBDNR6BS3JI3VKF41RBJN4TBU","","587.8000000119209","img/land3.png","76","588.6000000238419","3","1","3","1,0.5,0.5,0.5,1,0.5,0.5,0.5,1","",""
"","html-keyboard-response","135","82310","0.0-135.0","3AQF3RZ5594XP6IG3M3K10M6KJOF6P","A2KLJKDG90K1PP","30F94FBDNR6BS3JI3VKF41RBJN4TBU","","null","<img src=""img/land3.png"" style=""width:200px; border:14px solid green;"">","null","","","","","","",""
"","image-keyboard-response","136","82677","0.0-136.0","3AQF3RZ5594XP6IG3M3K10M6KJOF6P","A2KLJKDG90K1PP","30F94FBDNR6BS3JI3VKF41RBJN4TBU","","366.9000000357628","img/land3.png","76","367.60000002384186","3","1","3","1,0.5,0.5,0.5,1,0.5,0.5,0.5,1","",""
"","html-keyboard-response","137","82979","0.0-137.0","3AQF3RZ5594XP6IG3M3K10M6KJOF6P","A2KLJKDG90K1PP","30F94FBDNR6BS3JI3VKF41RBJN4TBU","","null","<img src=""img/land3.png"" style=""width:200px; border:14px solid green;"">","null","","","","","","",""
"","image-keyboard-response","138","84555","0.0-138.0","3AQF3RZ5594XP6IG3M3K10M6KJOF6P","A2KLJKDG90K1PP","30F94FBDNR6BS3JI3VKF41RBJN4TBU","","1575.300000011921","img/land1.png","74","1576.2000000476837","1","1","1","1,0.5,0.5,0.5,1,0.5,0.5,0.5,1","",""
"","html-keyboard-response","139","84862","0.0-139.0","3AQF3RZ5594XP6IG3M3K10M6KJOF6P","A2KLJKDG90K1PP","30F94FBDNR6BS3JI3VKF41RBJN4TBU","","null","<img src=""img/land1.png"" style=""width:200px; border:14px solid green;"">","null","","","","","","",""
"","image-keyboard-response","140","85510","0.0-140.0","3AQF3RZ5594XP6IG3M3K10M6KJOF6P","A2KLJKDG90K1PP","30F94FBDNR6BS3JI3VKF41RBJN4TBU","","647.6999999880791","img/land3.png","75","648.1999999880791","2","0","3","1,0.5,0.5,0.5,1,0.5,0.5,0.5,1","",""
"","html-keyboard-response","141","85812","0.0-141.0","3AQF3RZ5594XP6IG3M3K10M6KJOF6P","A2KLJKDG90K1PP","30F94FBDNR6BS3JI3VKF41RBJN4TBU","","null","<img src=""img/land3.png"" style=""width:200px;border:14px solid red;"">","null","","","","","","",""
"","image-keyboard-response","142","86601","0.0-142.0","3AQF3RZ5594XP6IG3M3K10M6KJOF6P","A2KLJKDG90K1PP","30F94FBDNR6BS3JI3VKF41RBJN4TBU","","788.8000000119209","img/land2.png","75","789.4000000357628","2","1","2","1,0.5,0.5,0.5,1,0.5,0.5,0.5,1","",""
"","html-keyboard-response","143","86904","0.0-143.0","3AQF3RZ5594XP6IG3M3K10M6KJOF6P","A2KLJKDG90K1PP","30F94FBDNR6BS3JI3VKF41RBJN4TBU","","null","<img src=""img/land2.png"" style=""width:200px; border:14px solid green;"">","null","","","","","","",""
"","image-keyboard-response","144","87275","0.0-144.0","3AQF3RZ5594XP6IG3M3K10M6KJOF6P","A2KLJKDG90K1PP","30F94FBDNR6BS3JI3VKF41RBJN4TBU","","370.60000002384186","img/land2.png","75","371.4000000357628","2","1","2","1,0.5,0.5,0.5,1,0.5,0.5,0.5,1","",""
"","html-keyboard-response","145","87578","0.0-145.0","3AQF3RZ5594XP6IG3M3K10M6KJOF6P","A2KLJKDG90K1PP","30F94FBDNR6BS3JI3VKF41RBJN4TBU","","null","<img src=""img/land2.png"" style=""width:200px; border:14px solid green;"">","null","","","","","","",""
"","image-keyboard-response","146","88213","0.0-146.0","3AQF3RZ5594XP6IG3M3K10M6KJOF6P","A2KLJKDG90K1PP","30F94FBDNR6BS3JI3VKF41RBJN4TBU","","633.1999999880791","img/land1.png","74","634.3999999761581","1","1","1","1,0.5,0.5,0.5,1,0.5,0.5,0.5,1","",""
"","html-keyboard-response","147","88515","0.0-147.0","3AQF3RZ5594XP6IG3M3K10M6KJOF6P","A2KLJKDG90K1PP","30F94FBDNR6BS3JI3VKF41RBJN4TBU","","null","<img src=""img/land1.png"" style=""width:200px; border:14px solid green;"">","null","","","","","","",""
"","image-keyboard-response","148","89168","0.0-148.0","3AQF3RZ5594XP6IG3M3K10M6KJOF6P","A2KLJKDG90K1PP","30F94FBDNR6BS3JI3VKF41RBJN4TBU","","652.3000000119209","img/land2.png","74","653","1","1","2","1,0.5,0.5,0.5,1,0.5,0.5,0.5,1","",""
"","html-keyboard-response","149","89470","0.0-149.0","3AQF3RZ5594XP6IG3M3K10M6KJOF6P","A2KLJKDG90K1PP","30F94FBDNR6BS3JI3VKF41RBJN4TBU","","null","<img src=""img/land2.png"" style=""width:200px; border:14px solid green;"">","null","","","","","","",""
"","image-keyboard-response","150","90110","0.0-150.0","3AQF3RZ5594XP6IG3M3K10M6KJOF6P","A2KLJKDG90K1PP","30F94FBDNR6BS3JI3VKF41RBJN4TBU","","638.5999999642372","img/land1.png","74","639.1999999880791","1","1","1","1,0.5,0.5,0.5,1,0.5,0.5,0.5,1","",""
"","html-keyboard-response","151","90412","0.0-151.0","3AQF3RZ5594XP6IG3M3K10M6KJOF6P","A2KLJKDG90K1PP","30F94FBDNR6BS3JI3VKF41RBJN4TBU","","null","<img src=""img/land1.png"" style=""width:200px; border:14px solid green;"">","null","","","","","","",""
"","image-keyboard-response","152","91133","0.0-152.0","3AQF3RZ5594XP6IG3M3K10M6KJOF6P","A2KLJKDG90K1PP","30F94FBDNR6BS3JI3VKF41RBJN4TBU","","720.1000000238419","img/land2.png","75","720.5999999642372","2","1","2","1,0.5,0.5,0.5,1,0.5,0.5,0.5,1","",""
"","html-keyboard-response","153","91435","0.0-153.0","3AQF3RZ5594XP6IG3M3K10M6KJOF6P","A2KLJKDG90K1PP","30F94FBDNR6BS3JI3VKF41RBJN4TBU","","null","<img src=""img/land2.png"" style=""width:200px; border:14px solid green;"">","null","","","","","","",""
"","image-keyboard-response","154","91950","0.0-154.0","3AQF3RZ5594XP6IG3M3K10M6KJOF6P","A2KLJKDG90K1PP","30F94FBDNR6BS3JI3VKF41RBJN4TBU","","514.6999999880791","img/land3.png","76","515.3999999761581","3","1","3","1,0.5,0.5,0.5,1,0.5,0.5,0.5,1","",""
"","html-keyboard-response","155","92252","0.0-155.0","3AQF3RZ5594XP6IG3M3K10M6KJOF6P","A2KLJKDG90K1PP","30F94FBDNR6BS3JI3VKF41RBJN4TBU","","null","<img src=""img/land3.png"" style=""width:200px; border:14px solid green;"">","null","","","","","","",""
"","image-keyboard-response","156","92863","0.0-156.0","3AQF3RZ5594XP6IG3M3K10M6KJOF6P","A2KLJKDG90K1PP","30F94FBDNR6BS3JI3VKF41RBJN4TBU","","609.6999999880791","img/land2.png","75","610.3000000119209","2","1","2","1,0.5,0.5,0.5,1,0.5,0.5,0.5,1","",""
"","html-keyboard-response","157","93164","0.0-157.0","3AQF3RZ5594XP6IG3M3K10M6KJOF6P","A2KLJKDG90K1PP","30F94FBDNR6BS3JI3VKF41RBJN4TBU","","null","<img src=""img/land2.png"" style=""width:200px; border:14px solid green;"">","null","","","","","","",""
"","image-keyboard-response","158","94091","0.0-158.0","3AQF3RZ5594XP6IG3M3K10M6KJOF6P","A2KLJKDG90K1PP","30F94FBDNR6BS3JI3VKF41RBJN4TBU","","925.8000000119209","img/land3.png","76","926.1999999880791","3","1","3","1,0.5,0.5,0.5,1,0.5,0.5,0.5,1","",""
"","html-keyboard-response","159","94392","0.0-159.0","3AQF3RZ5594XP6IG3M3K10M6KJOF6P","A2KLJKDG90K1PP","30F94FBDNR6BS3JI3VKF41RBJN4TBU","","null","<img src=""img/land3.png"" style=""width:200px; border:14px solid green;"">","null","","","","","","",""
"","image-keyboard-response","160","95037","0.0-160.0","3AQF3RZ5594XP6IG3M3K10M6KJOF6P","A2KLJKDG90K1PP","30F94FBDNR6BS3JI3VKF41RBJN4TBU","","643.9000000357628","img/land2.png","75","644.5","2","1","2","1,0.5,0.5,0.5,1,0.5,0.5,0.5,1","",""
"","html-keyboard-response","161","95340","0.0-161.0","3AQF3RZ5594XP6IG3M3K10M6KJOF6P","A2KLJKDG90K1PP","30F94FBDNR6BS3JI3VKF41RBJN4TBU","","null","<img src=""img/land2.png"" style=""width:200px; border:14px solid green;"">","null","","","","","","",""
"","image-keyboard-response","162","95708","0.0-162.0","3AQF3RZ5594XP6IG3M3K10M6KJOF6P","A2KLJKDG90K1PP","30F94FBDNR6BS3JI3VKF41RBJN4TBU","","367.80000001192093","img/land2.png","75","368.5","2","1","2","1,0.5,0.5,0.5,1,0.5,0.5,0.5,1","",""
"","html-keyboard-response","163","96010","0.0-163.0","3AQF3RZ5594XP6IG3M3K10M6KJOF6P","A2KLJKDG90K1PP","30F94FBDNR6BS3JI3VKF41RBJN4TBU","","null","<img src=""img/land2.png"" style=""width:200px; border:14px solid green;"">","null","","","","","","",""
"","image-keyboard-response","164","96787","0.0-164.0","3AQF3RZ5594XP6IG3M3K10M6KJOF6P","A2KLJKDG90K1PP","30F94FBDNR6BS3JI3VKF41RBJN4TBU","","776.6999999880791","img/land3.png","76","777.0999999642372","3","1","3","1,0.5,0.5,0.5,1,0.5,0.5,0.5,1","",""
"","html-keyboard-response","165","97090","0.0-165.0","3AQF3RZ5594XP6IG3M3K10M6KJOF6P","A2KLJKDG90K1PP","30F94FBDNR6BS3JI3VKF41RBJN4TBU","","null","<img src=""img/land3.png"" style=""width:200px; border:14px solid green;"">","null","","","","","","",""
"","image-keyboard-response","166","98036","0.0-166.0","3AQF3RZ5594XP6IG3M3K10M6KJOF6P","A2KLJKDG90K1PP","30F94FBDNR6BS3JI3VKF41RBJN4TBU","","946.2999999523163","img/land2.png","75","946.8000000119209","2","1","2","1,0.5,0.5,0.5,1,0.5,0.5,0.5,1","",""
"","html-keyboard-response","167","98338","0.0-167.0","3AQF3RZ5594XP6IG3M3K10M6KJOF6P","A2KLJKDG90K1PP","30F94FBDNR6BS3JI3VKF41RBJN4TBU","","null","<img src=""img/land2.png"" style=""width:200px; border:14px solid green;"">","null","","","","","","",""
"","image-keyboard-response","168","98691","0.0-168.0","3AQF3RZ5594XP6IG3M3K10M6KJOF6P","A2KLJKDG90K1PP","30F94FBDNR6BS3JI3VKF41RBJN4TBU","","351.9000000357628","img/land2.png","75","352.5","2","1","2","1,0.5,0.5,0.5,1,0.5,0.5,0.5,1","",""
"","html-keyboard-response","169","98992","0.0-169.0","3AQF3RZ5594XP6IG3M3K10M6KJOF6P","A2KLJKDG90K1PP","30F94FBDNR6BS3JI3VKF41RBJN4TBU","","null","<img src=""img/land2.png"" style=""width:200px; border:14px solid green;"">","null","","","","","","",""
"","html-keyboard-response","170","101247","0.0-170.0","3AQF3RZ5594XP6IG3M3K10M6KJOF6P","A2KLJKDG90K1PP","30F94FBDNR6BS3JI3VKF41RBJN4TBU","","","","","","","","","","",""
"","image-keyboard-response","171","103609","0.0-171.0","3AQF3RZ5594XP6IG3M3K10M6KJOF6P","A2KLJKDG90K1PP","30F94FBDNR6BS3JI3VKF41RBJN4TBU","","2360.900000035763","img/land5.png","74","2361.899999976158","1","0","2","1,0.5,0.5,0.5,1,0.5,0.5,0.5,1","",""
"","html-keyboard-response","172","103911","0.0-172.0","3AQF3RZ5594XP6IG3M3K10M6KJOF6P","A2KLJKDG90K1PP","30F94FBDNR6BS3JI3VKF41RBJN4TBU","","null","<img src=""img/land5.png"" style=""width:200px;border:14px solid red;"">","null","","","","","","",""
"","image-keyboard-response","173","104928","0.0-173.0","3AQF3RZ5594XP6IG3M3K10M6KJOF6P","A2KLJKDG90K1PP","30F94FBDNR6BS3JI3VKF41RBJN4TBU","","1015.5999999642372","img/land4.png","74","1016.1999999880791","1","1","1","1,0.5,0.5,0.5,1,0.5,0.5,0.5,1","",""
"","html-keyboard-response","174","105230","0.0-174.0","3AQF3RZ5594XP6IG3M3K10M6KJOF6P","A2KLJKDG90K1PP","30F94FBDNR6BS3JI3VKF41RBJN4TBU","","null","<img src=""img/land4.png"" style=""width:200px; border:14px solid green;"">","null","","","","","","",""
"","image-keyboard-response","175","106136","0.0-175.0","3AQF3RZ5594XP6IG3M3K10M6KJOF6P","A2KLJKDG90K1PP","30F94FBDNR6BS3JI3VKF41RBJN4TBU","","904.7999999523163","img/land5.png","76","905.5","3","1","2","1,0.5,0.5,0.5,1,0.5,0.5,0.5,1","",""
"","html-keyboard-response","176","106437","0.0-176.0","3AQF3RZ5594XP6IG3M3K10M6KJOF6P","A2KLJKDG90K1PP","30F94FBDNR6BS3JI3VKF41RBJN4TBU","","null","<img src=""img/land5.png"" style=""width:200px; border:14px solid green;"">","null","","","","","","",""
"","image-keyboard-response","177","107044","0.0-177.0","3AQF3RZ5594XP6IG3M3K10M6KJOF6P","A2KLJKDG90K1PP","30F94FBDNR6BS3JI3VKF41RBJN4TBU","","605.5","img/land6.png","75","606","2","1","3","1,0.5,0.5,0.5,1,0.5,0.5,0.5,1","",""
"","html-keyboard-response","178","107345","0.0-178.0","3AQF3RZ5594XP6IG3M3K10M6KJOF6P","A2KLJKDG90K1PP","30F94FBDNR6BS3JI3VKF41RBJN4TBU","","null","<img src=""img/land6.png"" style=""width:200px; border:14px solid green;"">","null","","","","","","",""
"","image-keyboard-response","179","108298","0.0-179.0","3AQF3RZ5594XP6IG3M3K10M6KJOF6P","A2KLJKDG90K1PP","30F94FBDNR6BS3JI3VKF41RBJN4TBU","","951.6999999880791","img/land4.png","74","952.3000000119209","1","1","1","1,0.5,0.5,0.5,1,0.5,0.5,0.5,1","",""
"","html-keyboard-response","180","108599","0.0-180.0","3AQF3RZ5594XP6IG3M3K10M6KJOF6P","A2KLJKDG90K1PP","30F94FBDNR6BS3JI3VKF41RBJN4TBU","","null","<img src=""img/land4.png"" style=""width:200px; border:14px solid green;"">","null","","","","","","",""
"","image-keyboard-response","181","108995","0.0-181.0","3AQF3RZ5594XP6IG3M3K10M6KJOF6P","A2KLJKDG90K1PP","30F94FBDNR6BS3JI3VKF41RBJN4TBU","","395.19999998807907","img/land4.png","74","395.89999997615814","1","1","1","1,0.5,0.5,0.5,1,0.5,0.5,0.5,1","",""
"","html-keyboard-response","182","109297","0.0-182.0","3AQF3RZ5594XP6IG3M3K10M6KJOF6P","A2KLJKDG90K1PP","30F94FBDNR6BS3JI3VKF41RBJN4TBU","","null","<img src=""img/land4.png"" style=""width:200px; border:14px solid green;"">","null","","","","","","",""
"","image-keyboard-response","183","110117","0.0-183.0","3AQF3RZ5594XP6IG3M3K10M6KJOF6P","A2KLJKDG90K1PP","30F94FBDNR6BS3JI3VKF41RBJN4TBU","","819.2999999523163","img/land5.png","76","819.8000000119209","3","1","2","1,0.5,0.5,0.5,1,0.5,0.5,0.5,1","",""
"","html-keyboard-response","184","110420","0.0-184.0","3AQF3RZ5594XP6IG3M3K10M6KJOF6P","A2KLJKDG90K1PP","30F94FBDNR6BS3JI3VKF41RBJN4TBU","","null","<img src=""img/land5.png"" style=""width:200px; border:14px solid green;"">","null","","","","","","",""
"","image-keyboard-response","185","111055","0.0-185.0","3AQF3RZ5594XP6IG3M3K10M6KJOF6P","A2KLJKDG90K1PP","30F94FBDNR6BS3JI3VKF41RBJN4TBU","","634.9000000357628","img/land6.png","75","635.6000000238419","2","0","3","1,0.5,0.5,0.5,1,0.5,0.5,0.5,1","",""
"","html-keyboard-response","186","111357","0.0-186.0","3AQF3RZ5594XP6IG3M3K10M6KJOF6P","A2KLJKDG90K1PP","30F94FBDNR6BS3JI3VKF41RBJN4TBU","","null","<img src=""img/land6.png"" style=""width:200px;border:14px solid red;"">","null","","","","","","",""
"","image-keyboard-response","187","112410","0.0-187.0","3AQF3RZ5594XP6IG3M3K10M6KJOF6P","A2KLJKDG90K1PP","30F94FBDNR6BS3JI3VKF41RBJN4TBU","","1052.5","img/land5.png","76","1053.1000000238419","3","1","2","1,0.5,0.5,0.5,1,0.5,0.5,0.5,1","",""
"","html-keyboard-response","188","112712","0.0-188.0","3AQF3RZ5594XP6IG3M3K10M6KJOF6P","A2KLJKDG90K1PP","30F94FBDNR6BS3JI3VKF41RBJN4TBU","","null","<img src=""img/land5.png"" style=""width:200px; border:14px solid green;"">","null","","","","","","",""
"","image-keyboard-response","189","113302","0.0-189.0","3AQF3RZ5594XP6IG3M3K10M6KJOF6P","A2KLJKDG90K1PP","30F94FBDNR6BS3JI3VKF41RBJN4TBU","","589.5","img/land4.png","75","590.5","2","1","1","1,0.5,0.5,0.5,1,0.5,0.5,0.5,1","",""
"","html-keyboard-response","190","113604","0.0-190.0","3AQF3RZ5594XP6IG3M3K10M6KJOF6P","A2KLJKDG90K1PP","30F94FBDNR6BS3JI3VKF41RBJN4TBU","","null","<img src=""img/land4.png"" style=""width:200px; border:14px solid green;"">","null","","","","","","",""
"","image-keyboard-response","191","114123","0.0-191.0","3AQF3RZ5594XP6IG3M3K10M6KJOF6P","A2KLJKDG90K1PP","30F94FBDNR6BS3JI3VKF41RBJN4TBU","","518.1999999880791","img/land4.png","75","519","2","1","1","1,0.5,0.5,0.5,1,0.5,0.5,0.5,1","",""
"","html-keyboard-response","192","114426","0.0-192.0","3AQF3RZ5594XP6IG3M3K10M6KJOF6P","A2KLJKDG90K1PP","30F94FBDNR6BS3JI3VKF41RBJN4TBU","","null","<img src=""img/land4.png"" style=""width:200px; border:14px solid green;"">","null","","","","","","",""
"","image-keyboard-response","193","114821","0.0-193.0","3AQF3RZ5594XP6IG3M3K10M6KJOF6P","A2KLJKDG90K1PP","30F94FBDNR6BS3JI3VKF41RBJN4TBU","","394.4000000357628","img/land4.png","75","395","2","1","1","1,0.5,0.5,0.5,1,0.5,0.5,0.5,1","",""
"","html-keyboard-response","194","115123","0.0-194.0","3AQF3RZ5594XP6IG3M3K10M6KJOF6P","A2KLJKDG90K1PP","30F94FBDNR6BS3JI3VKF41RBJN4TBU","","null","<img src=""img/land4.png"" style=""width:200px; border:14px solid green;"">","null","","","","","","",""
"","image-keyboard-response","195","115442","0.0-195.0","3AQF3RZ5594XP6IG3M3K10M6KJOF6P","A2KLJKDG90K1PP","30F94FBDNR6BS3JI3VKF41RBJN4TBU","","317.5","img/land4.png","75","318.0999999642372","2","1","1","1,0.5,0.5,0.5,1,0.5,0.5,0.5,1","",""
"","html-keyboard-response","196","115744","0.0-196.0","3AQF3RZ5594XP6IG3M3K10M6KJOF6P","A2KLJKDG90K1PP","30F94FBDNR6BS3JI3VKF41RBJN4TBU","","null","<img src=""img/land4.png"" style=""width:200px; border:14px solid green;"">","null","","","","","","",""
"","image-keyboard-response","197","116536","0.0-197.0","3AQF3RZ5594XP6IG3M3K10M6KJOF6P","A2KLJKDG90K1PP","30F94FBDNR6BS3JI3VKF41RBJN4TBU","","792","img/land5.png","76","792.8000000119209","3","1","2","1,0.5,0.5,0.5,1,0.5,0.5,0.5,1","",""
"","html-keyboard-response","198","116839","0.0-198.0","3AQF3RZ5594XP6IG3M3K10M6KJOF6P","A2KLJKDG90K1PP","30F94FBDNR6BS3JI3VKF41RBJN4TBU","","null","<img src=""img/land5.png"" style=""width:200px; border:14px solid green;"">","null","","","","","","",""
"","image-keyboard-response","199","117453","0.0-199.0","3AQF3RZ5594XP6IG3M3K10M6KJOF6P","A2KLJKDG90K1PP","30F94FBDNR6BS3JI3VKF41RBJN4TBU","","614.0999999642372","img/land4.png","75","614.8000000119209","2","0","1","1,0.5,0.5,0.5,1,0.5,0.5,0.5,1","",""
"","html-keyboard-response","200","117755","0.0-200.0","3AQF3RZ5594XP6IG3M3K10M6KJOF6P","A2KLJKDG90K1PP","30F94FBDNR6BS3JI3VKF41RBJN4TBU","","null","<img src=""img/land4.png"" style=""width:200px;border:14px solid red;"">","null","","","","","","",""
"","image-keyboard-response","201","118437","0.0-201.0","3AQF3RZ5594XP6IG3M3K10M6KJOF6P","A2KLJKDG90K1PP","30F94FBDNR6BS3JI3VKF41RBJN4TBU","","681.4000000357628","img/land4.png","74","682.3000000119209","1","1","1","1,0.5,0.5,0.5,1,0.5,0.5,0.5,1","",""
"","html-keyboard-response","202","118739","0.0-202.0","3AQF3RZ5594XP6IG3M3K10M6KJOF6P","A2KLJKDG90K1PP","30F94FBDNR6BS3JI3VKF41RBJN4TBU","","null","<img src=""img/land4.png"" style=""width:200px; border:14px solid green;"">","null","","","","","","",""
"","image-keyboard-response","203","119079","0.0-203.0","3AQF3RZ5594XP6IG3M3K10M6KJOF6P","A2KLJKDG90K1PP","30F94FBDNR6BS3JI3VKF41RBJN4TBU","","340","img/land4.png","74","340.60000002384186","1","1","1","1,0.5,0.5,0.5,1,0.5,0.5,0.5,1","",""
"","html-keyboard-response","204","119382","0.0-204.0","3AQF3RZ5594XP6IG3M3K10M6KJOF6P","A2KLJKDG90K1PP","30F94FBDNR6BS3JI3VKF41RBJN4TBU","","null","<img src=""img/land4.png"" style=""width:200px; border:14px solid green;"">","null","","","","","","",""
"","image-keyboard-response","205","119705","0.0-205.0","3AQF3RZ5594XP6IG3M3K10M6KJOF6P","A2KLJKDG90K1PP","30F94FBDNR6BS3JI3VKF41RBJN4TBU","","322.5999999642372","img/land4.png","74","323.5","1","1","1","1,0.5,0.5,0.5,1,0.5,0.5,0.5,1","",""
"","html-keyboard-response","206","120008","0.0-206.0","3AQF3RZ5594XP6IG3M3K10M6KJOF6P","A2KLJKDG90K1PP","30F94FBDNR6BS3JI3VKF41RBJN4TBU","","null","<img src=""img/land4.png"" style=""width:200px; border:14px solid green;"">","null","","","","","","",""
"","image-keyboard-response","207","120315","0.0-207.0","3AQF3RZ5594XP6IG3M3K10M6KJOF6P","A2KLJKDG90K1PP","30F94FBDNR6BS3JI3VKF41RBJN4TBU","","307","img/land4.png","74","307.5","1","1","1","1,0.5,0.5,0.5,1,0.5,0.5,0.5,1","",""
"","html-keyboard-response","208","120617","0.0-208.0","3AQF3RZ5594XP6IG3M3K10M6KJOF6P","A2KLJKDG90K1PP","30F94FBDNR6BS3JI3VKF41RBJN4TBU","","null","<img src=""img/land4.png"" style=""width:200px; border:14px solid green;"">","null","","","","","","",""
"","image-keyboard-response","209","121264","0.0-209.0","3AQF3RZ5594XP6IG3M3K10M6KJOF6P","A2KLJKDG90K1PP","30F94FBDNR6BS3JI3VKF41RBJN4TBU","","646.5","img/land5.png","76","647.1000000238419","3","0","2","1,0.5,0.5,0.5,1,0.5,0.5,0.5,1","",""
"","html-keyboard-response","210","121566","0.0-210.0","3AQF3RZ5594XP6IG3M3K10M6KJOF6P","A2KLJKDG90K1PP","30F94FBDNR6BS3JI3VKF41RBJN4TBU","","null","<img src=""img/land5.png"" style=""width:200px;border:14px solid red;"">","null","","","","","","",""
"","image-keyboard-response","211","122355","0.0-211.0","3AQF3RZ5594XP6IG3M3K10M6KJOF6P","A2KLJKDG90K1PP","30F94FBDNR6BS3JI3VKF41RBJN4TBU","","788.5","img/land6.png","75","789.0999999642372","2","0","3","1,0.5,0.5,0.5,1,0.5,0.5,0.5,1","",""
"","html-keyboard-response","212","122657","0.0-212.0","3AQF3RZ5594XP6IG3M3K10M6KJOF6P","A2KLJKDG90K1PP","30F94FBDNR6BS3JI3VKF41RBJN4TBU","","null","<img src=""img/land6.png"" style=""width:200px;border:14px solid red;"">","null","","","","","","",""
"","image-keyboard-response","213","123619","0.0-213.0","3AQF3RZ5594XP6IG3M3K10M6KJOF6P","A2KLJKDG90K1PP","30F94FBDNR6BS3JI3VKF41RBJN4TBU","","961","img/land4.png","74","961.6999999880791","1","1","1","1,0.5,0.5,0.5,1,0.5,0.5,0.5,1","",""
"","html-keyboard-response","214","123921","0.0-214.0","3AQF3RZ5594XP6IG3M3K10M6KJOF6P","A2KLJKDG90K1PP","30F94FBDNR6BS3JI3VKF41RBJN4TBU","","null","<img src=""img/land4.png"" style=""width:200px; border:14px solid green;"">","null","","","","","","",""
"","image-keyboard-response","215","124164","0.0-215.0","3AQF3RZ5594XP6IG3M3K10M6KJOF6P","A2KLJKDG90K1PP","30F94FBDNR6BS3JI3VKF41RBJN4TBU","","243.19999998807907","img/land6.png","74","243.69999998807907","1","1","3","1,0.5,0.5,0.5,1,0.5,0.5,0.5,1","",""
"","html-keyboard-response","216","124466","0.0-216.0","3AQF3RZ5594XP6IG3M3K10M6KJOF6P","A2KLJKDG90K1PP","30F94FBDNR6BS3JI3VKF41RBJN4TBU","","null","<img src=""img/land6.png"" style=""width:200px; border:14px solid green;"">","null","","","","","","",""
"","image-keyboard-response","217","125538","0.0-217.0","3AQF3RZ5594XP6IG3M3K10M6KJOF6P","A2KLJKDG90K1PP","30F94FBDNR6BS3JI3VKF41RBJN4TBU","","1071.3999999761581","img/land4.png","75","1072","2","0","1","1,0.5,0.5,0.5,1,0.5,0.5,0.5,1","",""
"","html-keyboard-response","218","125845","0.0-218.0","3AQF3RZ5594XP6IG3M3K10M6KJOF6P","A2KLJKDG90K1PP","30F94FBDNR6BS3JI3VKF41RBJN4TBU","","null","<img src=""img/land4.png"" style=""width:200px;border:14px solid red;"">","null","","","","","","",""
"","image-keyboard-response","219","126184","0.0-219.0","3AQF3RZ5594XP6IG3M3K10M6KJOF6P","A2KLJKDG90K1PP","30F94FBDNR6BS3JI3VKF41RBJN4TBU","","338.39999997615814","img/land4.png","74","338.89999997615814","1","1","1","1,0.5,0.5,0.5,1,0.5,0.5,0.5,1","",""
"","html-keyboard-response","220","126486","0.0-220.0","3AQF3RZ5594XP6IG3M3K10M6KJOF6P","A2KLJKDG90K1PP","30F94FBDNR6BS3JI3VKF41RBJN4TBU","","null","<img src=""img/land4.png"" style=""width:200px; border:14px solid green;"">","null","","","","","","",""
"","image-keyboard-response","221","127355","0.0-221.0","3AQF3RZ5594XP6IG3M3K10M6KJOF6P","A2KLJKDG90K1PP","30F94FBDNR6BS3JI3VKF41RBJN4TBU","","868.6000000238419","img/land6.png","76","869.3000000119209","3","1","3","1,0.5,0.5,0.5,1,0.5,0.5,0.5,1","",""
"","html-keyboard-response","222","127658","0.0-222.0","3AQF3RZ5594XP6IG3M3K10M6KJOF6P","A2KLJKDG90K1PP","30F94FBDNR6BS3JI3VKF41RBJN4TBU","","null","<img src=""img/land6.png"" style=""width:200px; border:14px solid green;"">","null","","","","","","",""
"","image-keyboard-response","223","128019","0.0-223.0","3AQF3RZ5594XP6IG3M3K10M6KJOF6P","A2KLJKDG90K1PP","30F94FBDNR6BS3JI3VKF41RBJN4TBU","","360.5","img/land6.png","76","361.0999999642372","3","1","3","1,0.5,0.5,0.5,1,0.5,0.5,0.5,1","",""
"","html-keyboard-response","224","128321","0.0-224.0","3AQF3RZ5594XP6IG3M3K10M6KJOF6P","A2KLJKDG90K1PP","30F94FBDNR6BS3JI3VKF41RBJN4TBU","","null","<img src=""img/land6.png"" style=""width:200px; border:14px solid green;"">","null","","","","","","",""
"","image-keyboard-response","225","129208","0.0-225.0","3AQF3RZ5594XP6IG3M3K10M6KJOF6P","A2KLJKDG90K1PP","30F94FBDNR6BS3JI3VKF41RBJN4TBU","","886.5","img/land4.png","74","887","1","1","1","1,0.5,0.5,0.5,1,0.5,0.5,0.5,1","",""
"","html-keyboard-response","226","129510","0.0-226.0","3AQF3RZ5594XP6IG3M3K10M6KJOF6P","A2KLJKDG90K1PP","30F94FBDNR6BS3JI3VKF41RBJN4TBU","","null","<img src=""img/land4.png"" style=""width:200px; border:14px solid green;"">","null","","","","","","",""
"","image-keyboard-response","227","129868","0.0-227.0","3AQF3RZ5594XP6IG3M3K10M6KJOF6P","A2KLJKDG90K1PP","30F94FBDNR6BS3JI3VKF41RBJN4TBU","","357.39999997615814","img/land4.png","74","358.10000002384186","1","1","1","1,0.5,0.5,0.5,1,0.5,0.5,0.5,1","",""
"","html-keyboard-response","228","130171","0.0-228.0","3AQF3RZ5594XP6IG3M3K10M6KJOF6P","A2KLJKDG90K1PP","30F94FBDNR6BS3JI3VKF41RBJN4TBU","","null","<img src=""img/land4.png"" style=""width:200px; border:14px solid green;"">","null","","","","","","",""
"","image-keyboard-response","229","130758","0.0-229.0","3AQF3RZ5594XP6IG3M3K10M6KJOF6P","A2KLJKDG90K1PP","30F94FBDNR6BS3JI3VKF41RBJN4TBU","","586.1000000238419","img/land6.png","76","586.6000000238419","3","1","3","1,0.5,0.5,0.5,1,0.5,0.5,0.5,1","",""
"","html-keyboard-response","230","131060","0.0-230.0","3AQF3RZ5594XP6IG3M3K10M6KJOF6P","A2KLJKDG90K1PP","30F94FBDNR6BS3JI3VKF41RBJN4TBU","","null","<img src=""img/land6.png"" style=""width:200px; border:14px solid green;"">","null","","","","","","",""
"","image-keyboard-response","231","131295","0.0-231.0","3AQF3RZ5594XP6IG3M3K10M6KJOF6P","A2KLJKDG90K1PP","30F94FBDNR6BS3JI3VKF41RBJN4TBU","","234.60000002384186","img/land4.png","76","235.4000000357628","3","0","1","1,0.5,0.5,0.5,1,0.5,0.5,0.5,1","",""
"","html-keyboard-response","232","131597","0.0-232.0","3AQF3RZ5594XP6IG3M3K10M6KJOF6P","A2KLJKDG90K1PP","30F94FBDNR6BS3JI3VKF41RBJN4TBU","","null","<img src=""img/land4.png"" style=""width:200px;border:14px solid red;"">","null","","","","","","",""
"","image-keyboard-response","233","132279","0.0-233.0","3AQF3RZ5594XP6IG3M3K10M6KJOF6P","A2KLJKDG90K1PP","30F94FBDNR6BS3JI3VKF41RBJN4TBU","","681.0999999642372","img/land5.png","75","681.6999999880791","2","1","2","1,0.5,0.5,0.5,1,0.5,0.5,0.5,1","",""
"","html-keyboard-response","234","132581","0.0-234.0","3AQF3RZ5594XP6IG3M3K10M6KJOF6P","A2KLJKDG90K1PP","30F94FBDNR6BS3JI3VKF41RBJN4TBU","","null","<img src=""img/land5.png"" style=""width:200px; border:14px solid green;"">","null","","","","","","",""
"","image-keyboard-response","235","133345","0.0-235.0","3AQF3RZ5594XP6IG3M3K10M6KJOF6P","A2KLJKDG90K1PP","30F94FBDNR6BS3JI3VKF41RBJN4TBU","","763.5","img/land6.png","76","764.0999999642372","3","1","3","1,0.5,0.5,0.5,1,0.5,0.5,0.5,1","",""
"","html-keyboard-response","236","133646","0.0-236.0","3AQF3RZ5594XP6IG3M3K10M6KJOF6P","A2KLJKDG90K1PP","30F94FBDNR6BS3JI3VKF41RBJN4TBU","","null","<img src=""img/land6.png"" style=""width:200px; border:14px solid green;"">","null","","","","","","",""
"","image-keyboard-response","237","134459","0.0-237.0","3AQF3RZ5594XP6IG3M3K10M6KJOF6P","A2KLJKDG90K1PP","30F94FBDNR6BS3JI3VKF41RBJN4TBU","","812.3000000119209","img/land4.png","74","813","1","1","1","1,0.5,0.5,0.5,1,0.5,0.5,0.5,1","",""
"","html-keyboard-response","238","134761","0.0-238.0","3AQF3RZ5594XP6IG3M3K10M6KJOF6P","A2KLJKDG90K1PP","30F94FBDNR6BS3JI3VKF41RBJN4TBU","","null","<img src=""img/land4.png"" style=""width:200px; border:14px solid green;"">","null","","","","","","",""
"","image-keyboard-response","239","135346","0.0-239.0","3AQF3RZ5594XP6IG3M3K10M6KJOF6P","A2KLJKDG90K1PP","30F94FBDNR6BS3JI3VKF41RBJN4TBU","","584.1000000238419","img/land5.png","76","584.6999999880791","3","0","2","1,0.5,0.5,0.5,1,0.5,0.5,0.5,1","",""
"","html-keyboard-response","240","135648","0.0-240.0","3AQF3RZ5594XP6IG3M3K10M6KJOF6P","A2KLJKDG90K1PP","30F94FBDNR6BS3JI3VKF41RBJN4TBU","","null","<img src=""img/land5.png"" style=""width:200px;border:14px solid red;"">","null","","","","","","",""
"","image-keyboard-response","241","136566","0.0-241.0","3AQF3RZ5594XP6IG3M3K10M6KJOF6P","A2KLJKDG90K1PP","30F94FBDNR6BS3JI3VKF41RBJN4TBU","","916.6999999880791","img/land6.png","76","917.5","3","1","3","1,0.5,0.5,0.5,1,0.5,0.5,0.5,1","",""
"","html-keyboard-response","242","136867","0.0-242.0","3AQF3RZ5594XP6IG3M3K10M6KJOF6P","A2KLJKDG90K1PP","30F94FBDNR6BS3JI3VKF41RBJN4TBU","","null","<img src=""img/land6.png"" style=""width:200px; border:14px solid green;"">","null","","","","","","",""
"","image-keyboard-response","243","137454","0.0-243.0","3AQF3RZ5594XP6IG3M3K10M6KJOF6P","A2KLJKDG90K1PP","30F94FBDNR6BS3JI3VKF41RBJN4TBU","","585.6000000238419","img/land5.png","75","586.5","2","1","2","1,0.5,0.5,0.5,1,0.5,0.5,0.5,1","",""
"","html-keyboard-response","244","137757","0.0-244.0","3AQF3RZ5594XP6IG3M3K10M6KJOF6P","A2KLJKDG90K1PP","30F94FBDNR6BS3JI3VKF41RBJN4TBU","","null","<img src=""img/land5.png"" style=""width:200px; border:14px solid green;"">","null","","","","","","",""
"","image-keyboard-response","245","138408","0.0-245.0","3AQF3RZ5594XP6IG3M3K10M6KJOF6P","A2KLJKDG90K1PP","30F94FBDNR6BS3JI3VKF41RBJN4TBU","","650.6000000238419","img/land4.png","74","651.3000000119209","1","1","1","1,0.5,0.5,0.5,1,0.5,0.5,0.5,1","",""
"","html-keyboard-response","246","138710","0.0-246.0","3AQF3RZ5594XP6IG3M3K10M6KJOF6P","A2KLJKDG90K1PP","30F94FBDNR6BS3JI3VKF41RBJN4TBU","","null","<img src=""img/land4.png"" style=""width:200px; border:14px solid green;"">","null","","","","","","",""
"","image-keyboard-response","247","139051","0.0-247.0","3AQF3RZ5594XP6IG3M3K10M6KJOF6P","A2KLJKDG90K1PP","30F94FBDNR6BS3JI3VKF41RBJN4TBU","","340.0999999642372","img/land4.png","74","340.7000000476837","1","1","1","1,0.5,0.5,0.5,1,0.5,0.5,0.5,1","",""
"","html-keyboard-response","248","139359","0.0-248.0","3AQF3RZ5594XP6IG3M3K10M6KJOF6P","A2KLJKDG90K1PP","30F94FBDNR6BS3JI3VKF41RBJN4TBU","","null","<img src=""img/land4.png"" style=""width:200px; border:14px solid green;"">","null","","","","","","",""
"","image-keyboard-response","249","139703","0.0-249.0","3AQF3RZ5594XP6IG3M3K10M6KJOF6P","A2KLJKDG90K1PP","30F94FBDNR6BS3JI3VKF41RBJN4TBU","","343.0999999642372","img/land4.png","74","343.80000001192093","1","1","1","1,0.5,0.5,0.5,1,0.5,0.5,0.5,1","",""
"","html-keyboard-response","250","140004","0.0-250.0","3AQF3RZ5594XP6IG3M3K10M6KJOF6P","A2KLJKDG90K1PP","30F94FBDNR6BS3JI3VKF41RBJN4TBU","","null","<img src=""img/land4.png"" style=""width:200px; border:14px solid green;"">","null","","","","","","",""
"","image-keyboard-response","251","140671","0.0-251.0","3AQF3RZ5594XP6IG3M3K10M6KJOF6P","A2KLJKDG90K1PP","30F94FBDNR6BS3JI3VKF41RBJN4TBU","","666.2999999523163","img/land5.png","76","667.1000000238419","3","0","2","1,0.5,0.5,0.5,1,0.5,0.5,0.5,1","",""
"","html-keyboard-response","252","140973","0.0-252.0","3AQF3RZ5594XP6IG3M3K10M6KJOF6P","A2KLJKDG90K1PP","30F94FBDNR6BS3JI3VKF41RBJN4TBU","","null","<img src=""img/land5.png"" style=""width:200px;border:14px solid red;"">","null","","","","","","",""
"","image-keyboard-response","253","141879","0.0-253.0","3AQF3RZ5594XP6IG3M3K10M6KJOF6P","A2KLJKDG90K1PP","30F94FBDNR6BS3JI3VKF41RBJN4TBU","","904.8999999761581","img/land4.png","74","905.5","1","1","1","1,0.5,0.5,0.5,1,0.5,0.5,0.5,1","",""
"","html-keyboard-response","254","142181","0.0-254.0","3AQF3RZ5594XP6IG3M3K10M6KJOF6P","A2KLJKDG90K1PP","30F94FBDNR6BS3JI3VKF41RBJN4TBU","","null","<img src=""img/land4.png"" style=""width:200px; border:14px solid green;"">","null","","","","","","",""
"","image-keyboard-response","255","142912","0.0-255.0","3AQF3RZ5594XP6IG3M3K10M6KJOF6P","A2KLJKDG90K1PP","30F94FBDNR6BS3JI3VKF41RBJN4TBU","","730","img/land5.png","75","730.5","2","1","2","1,0.5,0.5,0.5,1,0.5,0.5,0.5,1","",""
"","html-keyboard-response","256","143214","0.0-256.0","3AQF3RZ5594XP6IG3M3K10M6KJOF6P","A2KLJKDG90K1PP","30F94FBDNR6BS3JI3VKF41RBJN4TBU","","null","<img src=""img/land5.png"" style=""width:200px; border:14px solid green;"">","null","","","","","","",""
"","image-keyboard-response","257","143978","0.0-257.0","3AQF3RZ5594XP6IG3M3K10M6KJOF6P","A2KLJKDG90K1PP","30F94FBDNR6BS3JI3VKF41RBJN4TBU","","762.6000000238419","img/land4.png","74","763.4000000357628","1","1","1","1,0.5,0.5,0.5,1,0.5,0.5,0.5,1","",""
"","html-keyboard-response","258","144280","0.0-258.0","3AQF3RZ5594XP6IG3M3K10M6KJOF6P","A2KLJKDG90K1PP","30F94FBDNR6BS3JI3VKF41RBJN4TBU","","null","<img src=""img/land4.png"" style=""width:200px; border:14px solid green;"">","null","","","","","","",""
"","image-keyboard-response","259","144812","0.0-259.0","3AQF3RZ5594XP6IG3M3K10M6KJOF6P","A2KLJKDG90K1PP","30F94FBDNR6BS3JI3VKF41RBJN4TBU","","530.8999999761581","img/land5.png","75","531.6999999880791","2","1","2","1,0.5,0.5,0.5,1,0.5,0.5,0.5,1","",""
"","html-keyboard-response","260","145115","0.0-260.0","3AQF3RZ5594XP6IG3M3K10M6KJOF6P","A2KLJKDG90K1PP","30F94FBDNR6BS3JI3VKF41RBJN4TBU","","null","<img src=""img/land5.png"" style=""width:200px; border:14px solid green;"">","null","","","","","","",""
"","image-keyboard-response","261","145537","0.0-261.0","3AQF3RZ5594XP6IG3M3K10M6KJOF6P","A2KLJKDG90K1PP","30F94FBDNR6BS3JI3VKF41RBJN4TBU","","421.80000001192093","img/land5.png","75","422.30000001192093","2","1","2","1,0.5,0.5,0.5,1,0.5,0.5,0.5,1","",""
"","html-keyboard-response","262","145840","0.0-262.0","3AQF3RZ5594XP6IG3M3K10M6KJOF6P","A2KLJKDG90K1PP","30F94FBDNR6BS3JI3VKF41RBJN4TBU","","null","<img src=""img/land5.png"" style=""width:200px; border:14px solid green;"">","null","","","","","","",""
"","image-keyboard-response","263","146432","0.0-263.0","3AQF3RZ5594XP6IG3M3K10M6KJOF6P","A2KLJKDG90K1PP","30F94FBDNR6BS3JI3VKF41RBJN4TBU","","591.3000000119209","img/land6.png","76","591.9000000357628","3","1","3","1,0.5,0.5,0.5,1,0.5,0.5,0.5,1","",""
"","html-keyboard-response","264","146734","0.0-264.0","3AQF3RZ5594XP6IG3M3K10M6KJOF6P","A2KLJKDG90K1PP","30F94FBDNR6BS3JI3VKF41RBJN4TBU","","null","<img src=""img/land6.png"" style=""width:200px; border:14px solid green;"">","null","","","","","","",""
"","image-keyboard-response","265","147351","0.0-265.0","3AQF3RZ5594XP6IG3M3K10M6KJOF6P","A2KLJKDG90K1PP","30F94FBDNR6BS3JI3VKF41RBJN4TBU","","616.5999999642372","img/land4.png","74","617.1999999880791","1","1","1","1,0.5,0.5,0.5,1,0.5,0.5,0.5,1","",""
"","html-keyboard-response","266","147653","0.0-266.0","3AQF3RZ5594XP6IG3M3K10M6KJOF6P","A2KLJKDG90K1PP","30F94FBDNR6BS3JI3VKF41RBJN4TBU","","null","<img src=""img/land4.png"" style=""width:200px; border:14px solid green;"">","null","","","","","","",""
"","image-keyboard-response","267","147988","0.0-267.0","3AQF3RZ5594XP6IG3M3K10M6KJOF6P","A2KLJKDG90K1PP","30F94FBDNR6BS3JI3VKF41RBJN4TBU","","335.0999999642372","img/land4.png","74","335.5999999642372","1","1","1","1,0.5,0.5,0.5,1,0.5,0.5,0.5,1","",""
"","html-keyboard-response","268","148290","0.0-268.0","3AQF3RZ5594XP6IG3M3K10M6KJOF6P","A2KLJKDG90K1PP","30F94FBDNR6BS3JI3VKF41RBJN4TBU","","null","<img src=""img/land4.png"" style=""width:200px; border:14px solid green;"">","null","","","","","","",""
"","image-keyboard-response","269","148575","0.0-269.0","3AQF3RZ5594XP6IG3M3K10M6KJOF6P","A2KLJKDG90K1PP","30F94FBDNR6BS3JI3VKF41RBJN4TBU","","284.19999998807907","img/land4.png","74","284.80000001192093","1","1","1","1,0.5,0.5,0.5,1,0.5,0.5,0.5,1","",""
"","html-keyboard-response","270","148877","0.0-270.0","3AQF3RZ5594XP6IG3M3K10M6KJOF6P","A2KLJKDG90K1PP","30F94FBDNR6BS3JI3VKF41RBJN4TBU","","null","<img src=""img/land4.png"" style=""width:200px; border:14px solid green;"">","null","","","","","","",""
"","image-keyboard-response","271","149199","0.0-271.0","3AQF3RZ5594XP6IG3M3K10M6KJOF6P","A2KLJKDG90K1PP","30F94FBDNR6BS3JI3VKF41RBJN4TBU","","321.10000002384186","img/land4.png","74","321.69999998807907","1","1","1","1,0.5,0.5,0.5,1,0.5,0.5,0.5,1","",""
"","html-keyboard-response","272","149502","0.0-272.0","3AQF3RZ5594XP6IG3M3K10M6KJOF6P","A2KLJKDG90K1PP","30F94FBDNR6BS3JI3VKF41RBJN4TBU","","null","<img src=""img/land4.png"" style=""width:200px; border:14px solid green;"">","null","","","","","","",""
"","image-keyboard-response","273","149814","0.0-273.0","3AQF3RZ5594XP6IG3M3K10M6KJOF6P","A2KLJKDG90K1PP","30F94FBDNR6BS3JI3VKF41RBJN4TBU","","311.30000001192093","img/land4.png","74","312.19999998807907","1","1","1","1,0.5,0.5,0.5,1,0.5,0.5,0.5,1","",""
"","html-keyboard-response","274","150116","0.0-274.0","3AQF3RZ5594XP6IG3M3K10M6KJOF6P","A2KLJKDG90K1PP","30F94FBDNR6BS3JI3VKF41RBJN4TBU","","null","<img src=""img/land4.png"" style=""width:200px; border:14px solid green;"">","null","","","","","","",""
"","image-keyboard-response","275","150446","0.0-275.0","3AQF3RZ5594XP6IG3M3K10M6KJOF6P","A2KLJKDG90K1PP","30F94FBDNR6BS3JI3VKF41RBJN4TBU","","329.7000000476837","img/land4.png","74","330.39999997615814","1","1","1","1,0.5,0.5,0.5,1,0.5,0.5,0.5,1","",""
"","html-keyboard-response","276","150748","0.0-276.0","3AQF3RZ5594XP6IG3M3K10M6KJOF6P","A2KLJKDG90K1PP","30F94FBDNR6BS3JI3VKF41RBJN4TBU","","null","<img src=""img/land4.png"" style=""width:200px; border:14px solid green;"">","null","","","","","","",""
"","image-keyboard-response","277","151059","0.0-277.0","3AQF3RZ5594XP6IG3M3K10M6KJOF6P","A2KLJKDG90K1PP","30F94FBDNR6BS3JI3VKF41RBJN4TBU","","310.19999998807907","img/land4.png","74","310.9000000357628","1","1","1","1,0.5,0.5,0.5,1,0.5,0.5,0.5,1","",""
"","html-keyboard-response","278","151361","0.0-278.0","3AQF3RZ5594XP6IG3M3K10M6KJOF6P","A2KLJKDG90K1PP","30F94FBDNR6BS3JI3VKF41RBJN4TBU","","null","<img src=""img/land4.png"" style=""width:200px; border:14px solid green;"">","null","","","","","","",""
"","image-keyboard-response","279","151684","0.0-279.0","3AQF3RZ5594XP6IG3M3K10M6KJOF6P","A2KLJKDG90K1PP","30F94FBDNR6BS3JI3VKF41RBJN4TBU","","322.5","img/land4.png","74","323.10000002384186","1","1","1","1,0.5,0.5,0.5,1,0.5,0.5,0.5,1","",""
"","html-keyboard-response","280","151987","0.0-280.0","3AQF3RZ5594XP6IG3M3K10M6KJOF6P","A2KLJKDG90K1PP","30F94FBDNR6BS3JI3VKF41RBJN4TBU","","null","<img src=""img/land4.png"" style=""width:200px; border:14px solid green;"">","null","","","","","","",""
"","image-keyboard-response","281","152308","0.0-281.0","3AQF3RZ5594XP6IG3M3K10M6KJOF6P","A2KLJKDG90K1PP","30F94FBDNR6BS3JI3VKF41RBJN4TBU","","320.5","img/land4.png","74","321","1","1","1","1,0.5,0.5,0.5,1,0.5,0.5,0.5,1","",""
"","html-keyboard-response","282","152610","0.0-282.0","3AQF3RZ5594XP6IG3M3K10M6KJOF6P","A2KLJKDG90K1PP","30F94FBDNR6BS3JI3VKF41RBJN4TBU","","null","<img src=""img/land4.png"" style=""width:200px; border:14px solid green;"">","null","","","","","","",""
"","image-keyboard-response","283","153554","0.0-283.0","3AQF3RZ5594XP6IG3M3K10M6KJOF6P","A2KLJKDG90K1PP","30F94FBDNR6BS3JI3VKF41RBJN4TBU","","943.3000000119209","img/land5.png","75","944.1000000238419","2","1","2","1,0.5,0.5,0.5,1,0.5,0.5,0.5,1","",""
"","html-keyboard-response","284","153856","0.0-284.0","3AQF3RZ5594XP6IG3M3K10M6KJOF6P","A2KLJKDG90K1PP","30F94FBDNR6BS3JI3VKF41RBJN4TBU","","null","<img src=""img/land5.png"" style=""width:200px; border:14px solid green;"">","null","","","","","","",""
"","image-keyboard-response","285","154172","0.0-285.0","3AQF3RZ5594XP6IG3M3K10M6KJOF6P","A2KLJKDG90K1PP","30F94FBDNR6BS3JI3VKF41RBJN4TBU","","316","img/land5.png","75","316.60000002384186","2","1","2","1,0.5,0.5,0.5,1,0.5,0.5,0.5,1","",""
"","html-keyboard-response","286","154474","0.0-286.0","3AQF3RZ5594XP6IG3M3K10M6KJOF6P","A2KLJKDG90K1PP","30F94FBDNR6BS3JI3VKF41RBJN4TBU","","null","<img src=""img/land5.png"" style=""width:200px; border:14px solid green;"">","null","","","","","","",""
"","image-keyboard-response","287","155082","0.0-287.0","3AQF3RZ5594XP6IG3M3K10M6KJOF6P","A2KLJKDG90K1PP","30F94FBDNR6BS3JI3VKF41RBJN4TBU","","607.5999999642372","img/land4.png","74","608.1999999880791","1","1","1","1,0.5,0.5,0.5,1,0.5,0.5,0.5,1","",""
"","html-keyboard-response","288","155384","0.0-288.0","3AQF3RZ5594XP6IG3M3K10M6KJOF6P","A2KLJKDG90K1PP","30F94FBDNR6BS3JI3VKF41RBJN4TBU","","null","<img src=""img/land4.png"" style=""width:200px; border:14px solid green;"">","null","","","","","","",""
"","image-keyboard-response","289","155652","0.0-289.0","3AQF3RZ5594XP6IG3M3K10M6KJOF6P","A2KLJKDG90K1PP","30F94FBDNR6BS3JI3VKF41RBJN4TBU","","267.30000001192093","img/land4.png","74","268.0999999642372","1","1","1","1,0.5,0.5,0.5,1,0.5,0.5,0.5,1","",""
"","html-keyboard-response","290","155954","0.0-290.0","3AQF3RZ5594XP6IG3M3K10M6KJOF6P","A2KLJKDG90K1PP","30F94FBDNR6BS3JI3VKF41RBJN4TBU","","null","<img src=""img/land4.png"" style=""width:200px; border:14px solid green;"">","null","","","","","","",""
"","image-keyboard-response","291","156196","0.0-291.0","3AQF3RZ5594XP6IG3M3K10M6KJOF6P","A2KLJKDG90K1PP","30F94FBDNR6BS3JI3VKF41RBJN4TBU","","241.80000001192093","img/land6.png","74","242.4000000357628","1","1","3","1,0.5,0.5,0.5,1,0.5,0.5,0.5,1","",""
"","html-keyboard-response","292","156498","0.0-292.0","3AQF3RZ5594XP6IG3M3K10M6KJOF6P","A2KLJKDG90K1PP","30F94FBDNR6BS3JI3VKF41RBJN4TBU","","null","<img src=""img/land6.png"" style=""width:200px; border:14px solid green;"">","null","","","","","","",""
"","image-keyboard-response","293","158416","0.0-293.0","3AQF3RZ5594XP6IG3M3K10M6KJOF6P","A2KLJKDG90K1PP","30F94FBDNR6BS3JI3VKF41RBJN4TBU","","1917.5999999642372","img/land5.png","75","1918.199999988079","2","1","2","1,0.5,0.5,0.5,1,0.5,0.5,0.5,1","",""
"","html-keyboard-response","294","158718","0.0-294.0","3AQF3RZ5594XP6IG3M3K10M6KJOF6P","A2KLJKDG90K1PP","30F94FBDNR6BS3JI3VKF41RBJN4TBU","","null","<img src=""img/land5.png"" style=""width:200px; border:14px solid green;"">","null","","","","","","",""
"","image-keyboard-response","295","159281","0.0-295.0","3AQF3RZ5594XP6IG3M3K10M6KJOF6P","A2KLJKDG90K1PP","30F94FBDNR6BS3JI3VKF41RBJN4TBU","","561.7999999523163","img/land6.png","76","562.5","3","1","3","1,0.5,0.5,0.5,1,0.5,0.5,0.5,1","",""
"","html-keyboard-response","296","159583","0.0-296.0","3AQF3RZ5594XP6IG3M3K10M6KJOF6P","A2KLJKDG90K1PP","30F94FBDNR6BS3JI3VKF41RBJN4TBU","","null","<img src=""img/land6.png"" style=""width:200px; border:14px solid green;"">","null","","","","","","",""
"","image-keyboard-response","297","160313","0.0-297.0","3AQF3RZ5594XP6IG3M3K10M6KJOF6P","A2KLJKDG90K1PP","30F94FBDNR6BS3JI3VKF41RBJN4TBU","","730","img/land4.png","74","730.6000000238419","1","1","1","1,0.5,0.5,0.5,1,0.5,0.5,0.5,1","",""
"","html-keyboard-response","298","160615","0.0-298.0","3AQF3RZ5594XP6IG3M3K10M6KJOF6P","A2KLJKDG90K1PP","30F94FBDNR6BS3JI3VKF41RBJN4TBU","","null","<img src=""img/land4.png"" style=""width:200px; border:14px solid green;"">","null","","","","","","",""
"","image-keyboard-response","299","161183","0.0-299.0","3AQF3RZ5594XP6IG3M3K10M6KJOF6P","A2KLJKDG90K1PP","30F94FBDNR6BS3JI3VKF41RBJN4TBU","","567","img/land6.png","76","568","3","1","3","1,0.5,0.5,0.5,1,0.5,0.5,0.5,1","",""
"","html-keyboard-response","300","161485","0.0-300.0","3AQF3RZ5594XP6IG3M3K10M6KJOF6P","A2KLJKDG90K1PP","30F94FBDNR6BS3JI3VKF41RBJN4TBU","","null","<img src=""img/land6.png"" style=""width:200px; border:14px solid green;"">","null","","","","","","",""
"","image-keyboard-response","301","162252","0.0-301.0","3AQF3RZ5594XP6IG3M3K10M6KJOF6P","A2KLJKDG90K1PP","30F94FBDNR6BS3JI3VKF41RBJN4TBU","","766.3999999761581","img/land4.png","74","767.2000000476837","1","1","1","1,0.5,0.5,0.5,1,0.5,0.5,0.5,1","",""
"","html-keyboard-response","302","162554","0.0-302.0","3AQF3RZ5594XP6IG3M3K10M6KJOF6P","A2KLJKDG90K1PP","30F94FBDNR6BS3JI3VKF41RBJN4TBU","","null","<img src=""img/land4.png"" style=""width:200px; border:14px solid green;"">","null","","","","","","",""
"","image-keyboard-response","303","163247","0.0-303.0","3AQF3RZ5594XP6IG3M3K10M6KJOF6P","A2KLJKDG90K1PP","30F94FBDNR6BS3JI3VKF41RBJN4TBU","","691.6000000238419","img/land5.png","75","692.5999999642372","2","1","2","1,0.5,0.5,0.5,1,0.5,0.5,0.5,1","",""
"","html-keyboard-response","304","163550","0.0-304.0","3AQF3RZ5594XP6IG3M3K10M6KJOF6P","A2KLJKDG90K1PP","30F94FBDNR6BS3JI3VKF41RBJN4TBU","","null","<img src=""img/land5.png"" style=""width:200px; border:14px solid green;"">","null","","","","","","",""
"","image-keyboard-response","305","164269","0.0-305.0","3AQF3RZ5594XP6IG3M3K10M6KJOF6P","A2KLJKDG90K1PP","30F94FBDNR6BS3JI3VKF41RBJN4TBU","","718.6999999880791","img/land6.png","76","719.3999999761581","3","1","3","1,0.5,0.5,0.5,1,0.5,0.5,0.5,1","",""
"","html-keyboard-response","306","164571","0.0-306.0","3AQF3RZ5594XP6IG3M3K10M6KJOF6P","A2KLJKDG90K1PP","30F94FBDNR6BS3JI3VKF41RBJN4TBU","","null","<img src=""img/land6.png"" style=""width:200px; border:14px solid green;"">","null","","","","","","",""
"","image-keyboard-response","307","165329","0.0-307.0","3AQF3RZ5594XP6IG3M3K10M6KJOF6P","A2KLJKDG90K1PP","30F94FBDNR6BS3JI3VKF41RBJN4TBU","","756.5","img/land5.png","75","757.1000000238419","2","1","2","1,0.5,0.5,0.5,1,0.5,0.5,0.5,1","",""
"","html-keyboard-response","308","165631","0.0-308.0","3AQF3RZ5594XP6IG3M3K10M6KJOF6P","A2KLJKDG90K1PP","30F94FBDNR6BS3JI3VKF41RBJN4TBU","","null","<img src=""img/land5.png"" style=""width:200px; border:14px solid green;"">","null","","","","","","",""
"","image-keyboard-response","309","165988","0.0-309.0","3AQF3RZ5594XP6IG3M3K10M6KJOF6P","A2KLJKDG90K1PP","30F94FBDNR6BS3JI3VKF41RBJN4TBU","","355.80000001192093","img/land5.png","75","357.5","2","1","2","1,0.5,0.5,0.5,1,0.5,0.5,0.5,1","",""
"","html-keyboard-response","310","166290","0.0-310.0","3AQF3RZ5594XP6IG3M3K10M6KJOF6P","A2KLJKDG90K1PP","30F94FBDNR6BS3JI3VKF41RBJN4TBU","","null","<img src=""img/land5.png"" style=""width:200px; border:14px solid green;"">","null","","","","","","",""
"","image-keyboard-response","311","167033","0.0-311.0","3AQF3RZ5594XP6IG3M3K10M6KJOF6P","A2KLJKDG90K1PP","30F94FBDNR6BS3JI3VKF41RBJN4TBU","","742.2999999523163","img/land4.png","74","742.8000000119209","1","1","1","1,0.5,0.5,0.5,1,0.5,0.5,0.5,1","",""
"","html-keyboard-response","312","167335","0.0-312.0","3AQF3RZ5594XP6IG3M3K10M6KJOF6P","A2KLJKDG90K1PP","30F94FBDNR6BS3JI3VKF41RBJN4TBU","","null","<img src=""img/land4.png"" style=""width:200px; border:14px solid green;"">","null","","","","","","",""
"","image-keyboard-response","313","167636","0.0-313.0","3AQF3RZ5594XP6IG3M3K10M6KJOF6P","A2KLJKDG90K1PP","30F94FBDNR6BS3JI3VKF41RBJN4TBU","","300.19999998807907","img/land4.png","74","300.9000000357628","1","1","1","1,0.5,0.5,0.5,1,0.5,0.5,0.5,1","",""
"","html-keyboard-response","314","167939","0.0-314.0","3AQF3RZ5594XP6IG3M3K10M6KJOF6P","A2KLJKDG90K1PP","30F94FBDNR6BS3JI3VKF41RBJN4TBU","","null","<img src=""img/land4.png"" style=""width:200px; border:14px solid green;"">","null","","","","","","",""
"","image-keyboard-response","315","168629","0.0-315.0","3AQF3RZ5594XP6IG3M3K10M6KJOF6P","A2KLJKDG90K1PP","30F94FBDNR6BS3JI3VKF41RBJN4TBU","","688.5999999642372","img/land6.png","76","689.3999999761581","3","1","3","1,0.5,0.5,0.5,1,0.5,0.5,0.5,1","",""
"","html-keyboard-response","316","168930","0.0-316.0","3AQF3RZ5594XP6IG3M3K10M6KJOF6P","A2KLJKDG90K1PP","30F94FBDNR6BS3JI3VKF41RBJN4TBU","","null","<img src=""img/land6.png"" style=""width:200px; border:14px solid green;"">","null","","","","","","",""
"","image-keyboard-response","317","169311","0.0-317.0","3AQF3RZ5594XP6IG3M3K10M6KJOF6P","A2KLJKDG90K1PP","30F94FBDNR6BS3JI3VKF41RBJN4TBU","","380.0999999642372","img/land6.png","76","380.60000002384186","3","1","3","1,0.5,0.5,0.5,1,0.5,0.5,0.5,1","",""
"","html-keyboard-response","318","169613","0.0-318.0","3AQF3RZ5594XP6IG3M3K10M6KJOF6P","A2KLJKDG90K1PP","30F94FBDNR6BS3JI3VKF41RBJN4TBU","","null","<img src=""img/land6.png"" style=""width:200px; border:14px solid green;"">","null","","","","","","",""
"","image-keyboard-response","319","169885","0.0-319.0","3AQF3RZ5594XP6IG3M3K10M6KJOF6P","A2KLJKDG90K1PP","30F94FBDNR6BS3JI3VKF41RBJN4TBU","","270.69999998807907","img/land6.png","76","271.30000001192093","3","1","3","1,0.5,0.5,0.5,1,0.5,0.5,0.5,1","",""
"","html-keyboard-response","320","170186","0.0-320.0","3AQF3RZ5594XP6IG3M3K10M6KJOF6P","A2KLJKDG90K1PP","30F94FBDNR6BS3JI3VKF41RBJN4TBU","","null","<img src=""img/land6.png"" style=""width:200px; border:14px solid green;"">","null","","","","","","",""
"","image-keyboard-response","321","170897","0.0-321.0","3AQF3RZ5594XP6IG3M3K10M6KJOF6P","A2KLJKDG90K1PP","30F94FBDNR6BS3JI3VKF41RBJN4TBU","","711","img/land4.png","74","711.5","1","1","1","1,0.5,0.5,0.5,1,0.5,0.5,0.5,1","",""
"","html-keyboard-response","322","171199","0.0-322.0","3AQF3RZ5594XP6IG3M3K10M6KJOF6P","A2KLJKDG90K1PP","30F94FBDNR6BS3JI3VKF41RBJN4TBU","","null","<img src=""img/land4.png"" style=""width:200px; border:14px solid green;"">","null","","","","","","",""
"","image-keyboard-response","323","171866","0.0-323.0","3AQF3RZ5594XP6IG3M3K10M6KJOF6P","A2KLJKDG90K1PP","30F94FBDNR6BS3JI3VKF41RBJN4TBU","","666.2000000476837","img/land6.png","76","666.6999999880791","3","1","3","1,0.5,0.5,0.5,1,0.5,0.5,0.5,1","",""
"","html-keyboard-response","324","172168","0.0-324.0","3AQF3RZ5594XP6IG3M3K10M6KJOF6P","A2KLJKDG90K1PP","30F94FBDNR6BS3JI3VKF41RBJN4TBU","","null","<img src=""img/land6.png"" style=""width:200px; border:14px solid green;"">","null","","","","","","",""
"","image-keyboard-response","325","173605","0.0-325.0","3AQF3RZ5594XP6IG3M3K10M6KJOF6P","A2KLJKDG90K1PP","30F94FBDNR6BS3JI3VKF41RBJN4TBU","","1436.8999999761581","img/land5.png","75","1437.5","2","1","2","1,0.5,0.5,0.5,1,0.5,0.5,0.5,1","",""
"","html-keyboard-response","326","173907","0.0-326.0","3AQF3RZ5594XP6IG3M3K10M6KJOF6P","A2KLJKDG90K1PP","30F94FBDNR6BS3JI3VKF41RBJN4TBU","","null","<img src=""img/land5.png"" style=""width:200px; border:14px solid green;"">","null","","","","","","",""
"","image-keyboard-response","327","174498","0.0-327.0","3AQF3RZ5594XP6IG3M3K10M6KJOF6P","A2KLJKDG90K1PP","30F94FBDNR6BS3JI3VKF41RBJN4TBU","","590.9000000357628","img/land6.png","76","591.5","3","1","3","1,0.5,0.5,0.5,1,0.5,0.5,0.5,1","",""
"","html-keyboard-response","328","174800","0.0-328.0","3AQF3RZ5594XP6IG3M3K10M6KJOF6P","A2KLJKDG90K1PP","30F94FBDNR6BS3JI3VKF41RBJN4TBU","","null","<img src=""img/land6.png"" style=""width:200px; border:14px solid green;"">","null","","","","","","",""
"","image-keyboard-response","329","175125","0.0-329.0","3AQF3RZ5594XP6IG3M3K10M6KJOF6P","A2KLJKDG90K1PP","30F94FBDNR6BS3JI3VKF41RBJN4TBU","","323","img/land6.png","76","324.10000002384186","3","1","3","1,0.5,0.5,0.5,1,0.5,0.5,0.5,1","",""
"","html-keyboard-response","330","175427","0.0-330.0","3AQF3RZ5594XP6IG3M3K10M6KJOF6P","A2KLJKDG90K1PP","30F94FBDNR6BS3JI3VKF41RBJN4TBU","","null","<img src=""img/land6.png"" style=""width:200px; border:14px solid green;"">","null","","","","","","",""
"","image-keyboard-response","331","176047","0.0-331.0","3AQF3RZ5594XP6IG3M3K10M6KJOF6P","A2KLJKDG90K1PP","30F94FBDNR6BS3JI3VKF41RBJN4TBU","","618.5999999642372","img/land4.png","74","619.3000000119209","1","1","1","1,0.5,0.5,0.5,1,0.5,0.5,0.5,1","",""
"","html-keyboard-response","332","176349","0.0-332.0","3AQF3RZ5594XP6IG3M3K10M6KJOF6P","A2KLJKDG90K1PP","30F94FBDNR6BS3JI3VKF41RBJN4TBU","","null","<img src=""img/land4.png"" style=""width:200px; border:14px solid green;"">","null","","","","","","",""
"","image-keyboard-response","333","176967","0.0-333.0","3AQF3RZ5594XP6IG3M3K10M6KJOF6P","A2KLJKDG90K1PP","30F94FBDNR6BS3JI3VKF41RBJN4TBU","","617.3999999761581","img/land6.png","76","618.1999999880791","3","1","3","1,0.5,0.5,0.5,1,0.5,0.5,0.5,1","",""
"","html-keyboard-response","334","177282","0.0-334.0","3AQF3RZ5594XP6IG3M3K10M6KJOF6P","A2KLJKDG90K1PP","30F94FBDNR6BS3JI3VKF41RBJN4TBU","","null","<img src=""img/land6.png"" style=""width:200px; border:14px solid green;"">","null","","","","","","",""
"","image-keyboard-response","335","177941","0.0-335.0","3AQF3RZ5594XP6IG3M3K10M6KJOF6P","A2KLJKDG90K1PP","30F94FBDNR6BS3JI3VKF41RBJN4TBU","","658.5","img/land5.png","75","659.1999999880791","2","1","2","1,0.5,0.5,0.5,1,0.5,0.5,0.5,1","",""
"","html-keyboard-response","336","178244","0.0-336.0","3AQF3RZ5594XP6IG3M3K10M6KJOF6P","A2KLJKDG90K1PP","30F94FBDNR6BS3JI3VKF41RBJN4TBU","","null","<img src=""img/land5.png"" style=""width:200px; border:14px solid green;"">","null","","","","","","",""
"","image-keyboard-response","337","178900","0.0-337.0","3AQF3RZ5594XP6IG3M3K10M6KJOF6P","A2KLJKDG90K1PP","30F94FBDNR6BS3JI3VKF41RBJN4TBU","","655.3000000119209","img/land4.png","74","656","1","1","1","1,0.5,0.5,0.5,1,0.5,0.5,0.5,1","",""
"","html-keyboard-response","338","179202","0.0-338.0","3AQF3RZ5594XP6IG3M3K10M6KJOF6P","A2KLJKDG90K1PP","30F94FBDNR6BS3JI3VKF41RBJN4TBU","","null","<img src=""img/land4.png"" style=""width:200px; border:14px solid green;"">","null","","","","","","",""
"","instructions","339","181417","0.0-339.0","3AQF3RZ5594XP6IG3M3K10M6KJOF6P","A2KLJKDG90K1PP","30F94FBDNR6BS3JI3VKF41RBJN4TBU","[{""page_index"":0,""viewing_time"":2214.199999988079}]","2214.5","","","","","","","","",""
"","survey-text","340","186629","0.0-340.0-0.0","3AQF3RZ5594XP6IG3M3K10M6KJOF6P","A2KLJKDG90K1PP","30F94FBDNR6BS3JI3VKF41RBJN4TBU","","5210.099999964237","","","","","","","","{""Q0"":""57""}",""
"","survey-multi-choice","341","189013","0.0-340.0-1.0","3AQF3RZ5594XP6IG3M3K10M6KJOF6P","A2KLJKDG90K1PP","30F94FBDNR6BS3JI3VKF41RBJN4TBU","","2383.400000035763","","","","","","","","{""gender"":""M""}","[0]"
"","survey-text","342","194613","0.0-341.0","3AQF3RZ5594XP6IG3M3K10M6KJOF6P","A2KLJKDG90K1PP","30F94FBDNR6BS3JI3VKF41RBJN4TBU","","5597.299999952316","","","","","","","","{""Q0"":""A2KLJKDG90K1PP""}",""
