"success","trial_type","trial_index","time_elapsed","internal_node_id","assignmentID","mturkID","hitID","view_history","rt","stimulus","key_press","reactionTime","a","r","warning","s","reward_cond","responses","question_order"
"true","fullscreen","0","4002","0.0-0.0","3N4BPTXIO9ET730V0FSKXJSRUHYUKE","A2KW87ZD2ELYNG","3H6W48L9F4B5OEOMH57RM53Z4H1WP0","","","","","","","","","","","",""
"","instructions","1","48528","0.0-1.0","3N4BPTXIO9ET730V0FSKXJSRUHYUKE","A2KW87ZD2ELYNG","3H6W48L9F4B5OEOMH57RM53Z4H1WP0","[{""page_index"":0,""viewing_time"":14188.900000095367},{""page_index"":1,""viewing_time"":4780.299999952316},{""page_index"":2,""viewing_time"":4298.5},{""page_index"":3,""viewing_time"":6413.799999952316},{""page_index"":4,""viewing_time"":4769.400000095367},{""page_index"":5,""viewing_time"":2670.2000000476837},{""page_index"":6,""viewing_time"":5911.899999856949},{""page_index"":7,""viewing_time"":1491}]","44524.5","","","","","","","","","",""
"","image-keyboard-response","2","49530","0.0-2.0","3N4BPTXIO9ET730V0FSKXJSRUHYUKE","A2KW87ZD2ELYNG","3H6W48L9F4B5OEOMH57RM53Z4H1WP0","","","img/land3.png","","1002.5","-1","0","true","2","1,1,0,0,1,1,1,0,1","",""
"","html-keyboard-response","3","49834","0.0-3.0","3N4BPTXIO9ET730V0FSKXJSRUHYUKE","A2KW87ZD2ELYNG","3H6W48L9F4B5OEOMH57RM53Z4H1WP0","","null","<img src=""img/land3.png"" style=""width:200px;border:14px solid red;"">","null","","","","","","","",""
"","html-keyboard-response","4","54882","0.0-4.0-0.0","3N4BPTXIO9ET730V0FSKXJSRUHYUKE","A2KW87ZD2ELYNG","3H6W48L9F4B5OEOMH57RM53Z4H1WP0","","","","","","","","","","","",""
"","image-keyboard-response","5","55481","0.0-5.0","3N4BPTXIO9ET730V0FSKXJSRUHYUKE","A2KW87ZD2ELYNG","3H6W48L9F4B5OEOMH57RM53Z4H1WP0","","597.5","img/land4.png","75","598.3999998569489","2","1","false","1","1,1,0,0,1,1,1,0,1","",""
"","html-keyboard-response","6","55786","0.0-6.0","3N4BPTXIO9ET730V0FSKXJSRUHYUKE","A2KW87ZD2ELYNG","3H6W48L9F4B5OEOMH57RM53Z4H1WP0","","null","<img src=""img/land4.png"" style=""width:200px; border:14px solid green;"">","null","","","","","","","",""
"","image-keyboard-response","7","56587","0.0-8.0","3N4BPTXIO9ET730V0FSKXJSRUHYUKE","A2KW87ZD2ELYNG","3H6W48L9F4B5OEOMH57RM53Z4H1WP0","","800.5","img/land2.png","74","801","1","1","false","3","1,1,0,0,1,1,1,0,1","",""
"","html-keyboard-response","8","56890","0.0-9.0","3N4BPTXIO9ET730V0FSKXJSRUHYUKE","A2KW87ZD2ELYNG","3H6W48L9F4B5OEOMH57RM53Z4H1WP0","","null","<img src=""img/land2.png"" style=""width:200px; border:14px solid green;"">","null","","","","","","","",""
"","image-keyboard-response","9","57610","0.0-11.0","3N4BPTXIO9ET730V0FSKXJSRUHYUKE","A2KW87ZD2ELYNG","3H6W48L9F4B5OEOMH57RM53Z4H1WP0","","719.2999999523163","img/land3.png","76","720.0999999046326","3","1","false","2","1,1,0,0,1,1,1,0,1","",""
"","html-keyboard-response","10","57914","0.0-12.0","3N4BPTXIO9ET730V0FSKXJSRUHYUKE","A2KW87ZD2ELYNG","3H6W48L9F4B5OEOMH57RM53Z4H1WP0","","null","<img src=""img/land3.png"" style=""width:200px; border:14px solid green;"">","null","","","","","","","",""
"","image-keyboard-response","11","58645","0.0-14.0","3N4BPTXIO9ET730V0FSKXJSRUHYUKE","A2KW87ZD2ELYNG","3H6W48L9F4B5OEOMH57RM53Z4H1WP0","","730.2999999523163","img/land2.png","75","731","2","0","false","3","1,1,0,0,1,1,1,0,1","",""
"","html-keyboard-response","12","58946","0.0-15.0","3N4BPTXIO9ET730V0FSKXJSRUHYUKE","A2KW87ZD2ELYNG","3H6W48L9F4B5OEOMH57RM53Z4H1WP0","","null","<img src=""img/land2.png"" style=""width:200px;border:14px solid red;"">","null","","","","","","","",""
"","image-keyboard-response","13","59694","0.0-17.0","3N4BPTXIO9ET730V0FSKXJSRUHYUKE","A2KW87ZD2ELYNG","3H6W48L9F4B5OEOMH57RM53Z4H1WP0","","747.2999999523163","img/land4.png","74","747.8999998569489","1","1","false","1","1,1,0,0,1,1,1,0,1","",""
"","html-keyboard-response","14","60002","0.0-18.0","3N4BPTXIO9ET730V0FSKXJSRUHYUKE","A2KW87ZD2ELYNG","3H6W48L9F4B5OEOMH57RM53Z4H1WP0","","null","<img src=""img/land4.png"" style=""width:200px; border:14px solid green;"">","null","","","","","","","",""
"","image-keyboard-response","15","60834","0.0-20.0","3N4BPTXIO9ET730V0FSKXJSRUHYUKE","A2KW87ZD2ELYNG","3H6W48L9F4B5OEOMH57RM53Z4H1WP0","","831.4000000953674","img/land3.png","75","832","2","1","false","2","1,1,0,0,1,1,1,0,1","",""
"","html-keyboard-response","16","61138","0.0-21.0","3N4BPTXIO9ET730V0FSKXJSRUHYUKE","A2KW87ZD2ELYNG","3H6W48L9F4B5OEOMH57RM53Z4H1WP0","","null","<img src=""img/land3.png"" style=""width:200px; border:14px solid green;"">","null","","","","","","","",""
"","image-keyboard-response","17","61832","0.0-23.0","3N4BPTXIO9ET730V0FSKXJSRUHYUKE","A2KW87ZD2ELYNG","3H6W48L9F4B5OEOMH57RM53Z4H1WP0","","693.1999998092651","img/land4.png","74","693.9000000953674","1","1","false","1","1,1,0,0,1,1,1,0,1","",""
"","html-keyboard-response","18","62138","0.0-24.0","3N4BPTXIO9ET730V0FSKXJSRUHYUKE","A2KW87ZD2ELYNG","3H6W48L9F4B5OEOMH57RM53Z4H1WP0","","null","<img src=""img/land4.png"" style=""width:200px; border:14px solid green;"">","null","","","","","","","",""
"","image-keyboard-response","19","62739","0.0-26.0","3N4BPTXIO9ET730V0FSKXJSRUHYUKE","A2KW87ZD2ELYNG","3H6W48L9F4B5OEOMH57RM53Z4H1WP0","","599.5999999046326","img/land3.png","75","600.4000000953674","2","1","false","2","1,1,0,0,1,1,1,0,1","",""
"","html-keyboard-response","20","63042","0.0-27.0","3N4BPTXIO9ET730V0FSKXJSRUHYUKE","A2KW87ZD2ELYNG","3H6W48L9F4B5OEOMH57RM53Z4H1WP0","","null","<img src=""img/land3.png"" style=""width:200px; border:14px solid green;"">","null","","","","","","","",""
"","image-keyboard-response","21","63686","0.0-29.0","3N4BPTXIO9ET730V0FSKXJSRUHYUKE","A2KW87ZD2ELYNG","3H6W48L9F4B5OEOMH57RM53Z4H1WP0","","642.7999999523163","img/land4.png","74","643.4000000953674","1","1","false","1","1,1,0,0,1,1,1,0,1","",""
"","html-keyboard-response","22","63994","0.0-30.0","3N4BPTXIO9ET730V0FSKXJSRUHYUKE","A2KW87ZD2ELYNG","3H6W48L9F4B5OEOMH57RM53Z4H1WP0","","null","<img src=""img/land4.png"" style=""width:200px; border:14px solid green;"">","null","","","","","","","",""
"","image-keyboard-response","23","64471","0.0-32.0","3N4BPTXIO9ET730V0FSKXJSRUHYUKE","A2KW87ZD2ELYNG","3H6W48L9F4B5OEOMH57RM53Z4H1WP0","","475.90000009536743","img/land4.png","74","476.69999980926514","1","1","false","1","1,1,0,0,1,1,1,0,1","",""
"","html-keyboard-response","24","64778","0.0-33.0","3N4BPTXIO9ET730V0FSKXJSRUHYUKE","A2KW87ZD2ELYNG","3H6W48L9F4B5OEOMH57RM53Z4H1WP0","","null","<img src=""img/land4.png"" style=""width:200px; border:14px solid green;"">","null","","","","","","","",""
"","image-keyboard-response","25","65336","0.0-35.0","3N4BPTXIO9ET730V0FSKXJSRUHYUKE","A2KW87ZD2ELYNG","3H6W48L9F4B5OEOMH57RM53Z4H1WP0","","557.7000000476837","img/land3.png","75","558.1999998092651","2","1","false","2","1,1,0,0,1,1,1,0,1","",""
"","html-keyboard-response","26","65642","0.0-36.0","3N4BPTXIO9ET730V0FSKXJSRUHYUKE","A2KW87ZD2ELYNG","3H6W48L9F4B5OEOMH57RM53Z4H1WP0","","null","<img src=""img/land3.png"" style=""width:200px; border:14px solid green;"">","null","","","","","","","",""
"","image-keyboard-response","27","66195","0.0-38.0","3N4BPTXIO9ET730V0FSKXJSRUHYUKE","A2KW87ZD2ELYNG","3H6W48L9F4B5OEOMH57RM53Z4H1WP0","","552.7999999523163","img/land4.png","74","553.2999999523163","1","1","false","1","1,1,0,0,1,1,1,0,1","",""
"","html-keyboard-response","28","66498","0.0-39.0","3N4BPTXIO9ET730V0FSKXJSRUHYUKE","A2KW87ZD2ELYNG","3H6W48L9F4B5OEOMH57RM53Z4H1WP0","","null","<img src=""img/land4.png"" style=""width:200px; border:14px solid green;"">","null","","","","","","","",""
"","image-keyboard-response","29","66831","0.0-41.0","3N4BPTXIO9ET730V0FSKXJSRUHYUKE","A2KW87ZD2ELYNG","3H6W48L9F4B5OEOMH57RM53Z4H1WP0","","332.2999999523163","img/land3.png","75","332.7999999523163","2","1","false","2","1,1,0,0,1,1,1,0,1","",""
"","html-keyboard-response","30","67138","0.0-42.0","3N4BPTXIO9ET730V0FSKXJSRUHYUKE","A2KW87ZD2ELYNG","3H6W48L9F4B5OEOMH57RM53Z4H1WP0","","null","<img src=""img/land3.png"" style=""width:200px; border:14px solid green;"">","null","","","","","","","",""
"","image-keyboard-response","31","67592","0.0-44.0","3N4BPTXIO9ET730V0FSKXJSRUHYUKE","A2KW87ZD2ELYNG","3H6W48L9F4B5OEOMH57RM53Z4H1WP0","","453.60000014305115","img/land3.png","75","454.2999999523163","2","1","false","2","1,1,0,0,1,1,1,0,1","",""
"","html-keyboard-response","32","67898","0.0-45.0","3N4BPTXIO9ET730V0FSKXJSRUHYUKE","A2KW87ZD2ELYNG","3H6W48L9F4B5OEOMH57RM53Z4H1WP0","","null","<img src=""img/land3.png"" style=""width:200px; border:14px solid green;"">","null","","","","","","","",""
"","image-keyboard-response","33","68288","0.0-47.0","3N4BPTXIO9ET730V0FSKXJSRUHYUKE","A2KW87ZD2ELYNG","3H6W48L9F4B5OEOMH57RM53Z4H1WP0","","389.5","img/land3.png","75","390","2","1","false","2","1,1,0,0,1,1,1,0,1","",""
"","html-keyboard-response","34","68594","0.0-48.0","3N4BPTXIO9ET730V0FSKXJSRUHYUKE","A2KW87ZD2ELYNG","3H6W48L9F4B5OEOMH57RM53Z4H1WP0","","null","<img src=""img/land3.png"" style=""width:200px; border:14px solid green;"">","null","","","","","","","",""
"","image-keyboard-response","35","68975","0.0-50.0","3N4BPTXIO9ET730V0FSKXJSRUHYUKE","A2KW87ZD2ELYNG","3H6W48L9F4B5OEOMH57RM53Z4H1WP0","","379.90000009536743","img/land3.png","75","380.59999990463257","2","1","false","2","1,1,0,0,1,1,1,0,1","",""
"","html-keyboard-response","36","69282","0.0-51.0","3N4BPTXIO9ET730V0FSKXJSRUHYUKE","A2KW87ZD2ELYNG","3H6W48L9F4B5OEOMH57RM53Z4H1WP0","","null","<img src=""img/land3.png"" style=""width:200px; border:14px solid green;"">","null","","","","","","","",""
"","image-keyboard-response","37","69915","0.0-53.0","3N4BPTXIO9ET730V0FSKXJSRUHYUKE","A2KW87ZD2ELYNG","3H6W48L9F4B5OEOMH57RM53Z4H1WP0","","632.1000001430511","img/land2.png","76","632.7999999523163","3","1","false","3","1,1,0,0,1,1,1,0,1","",""
"","html-keyboard-response","38","70218","0.0-54.0","3N4BPTXIO9ET730V0FSKXJSRUHYUKE","A2KW87ZD2ELYNG","3H6W48L9F4B5OEOMH57RM53Z4H1WP0","","null","<img src=""img/land2.png"" style=""width:200px; border:14px solid green;"">","null","","","","","","","",""
"","image-keyboard-response","39","71226","0.0-56.0","3N4BPTXIO9ET730V0FSKXJSRUHYUKE","A2KW87ZD2ELYNG","3H6W48L9F4B5OEOMH57RM53Z4H1WP0","","","img/land3.png","","1008.0999999046326","-1","0","true","2","1,1,0,0,1,1,1,0,1","",""
"","html-keyboard-response","40","71530","0.0-57.0","3N4BPTXIO9ET730V0FSKXJSRUHYUKE","A2KW87ZD2ELYNG","3H6W48L9F4B5OEOMH57RM53Z4H1WP0","","null","<img src=""img/land3.png"" style=""width:200px;border:14px solid red;"">","null","","","","","","","",""
"","html-keyboard-response","41","76250","0.0-58.0-0.0","3N4BPTXIO9ET730V0FSKXJSRUHYUKE","A2KW87ZD2ELYNG","3H6W48L9F4B5OEOMH57RM53Z4H1WP0","","","","","","","","","","","",""
"","image-keyboard-response","42","77258","0.0-59.0","3N4BPTXIO9ET730V0FSKXJSRUHYUKE","A2KW87ZD2ELYNG","3H6W48L9F4B5OEOMH57RM53Z4H1WP0","","","img/land2.png","","1008.4000000953674","-1","0","true","3","1,1,0,0,1,1,1,0,1","",""
"","html-keyboard-response","43","77562","0.0-60.0","3N4BPTXIO9ET730V0FSKXJSRUHYUKE","A2KW87ZD2ELYNG","3H6W48L9F4B5OEOMH57RM53Z4H1WP0","","null","<img src=""img/land2.png"" style=""width:200px;border:14px solid red;"">","null","","","","","","","",""
"","html-keyboard-response","44","79159","0.0-61.0-0.0","3N4BPTXIO9ET730V0FSKXJSRUHYUKE","A2KW87ZD2ELYNG","3H6W48L9F4B5OEOMH57RM53Z4H1WP0","","","","","","","","","","","",""
"","image-keyboard-response","45","80010","0.0-62.0","3N4BPTXIO9ET730V0FSKXJSRUHYUKE","A2KW87ZD2ELYNG","3H6W48L9F4B5OEOMH57RM53Z4H1WP0","","850.1999998092651","img/land2.png","75","850.9000000953674","2","0","false","3","1,1,0,0,1,1,1,0,1","",""
"","html-keyboard-response","46","80314","0.0-63.0","3N4BPTXIO9ET730V0FSKXJSRUHYUKE","A2KW87ZD2ELYNG","3H6W48L9F4B5OEOMH57RM53Z4H1WP0","","null","<img src=""img/land2.png"" style=""width:200px;border:14px solid red;"">","null","","","","","","","",""
"","image-keyboard-response","47","81292","0.0-65.0","3N4BPTXIO9ET730V0FSKXJSRUHYUKE","A2KW87ZD2ELYNG","3H6W48L9F4B5OEOMH57RM53Z4H1WP0","","977.3999998569489","img/land4.png","74","978.0999999046326","1","1","false","1","1,1,0,0,1,1,1,0,1","",""
"","html-keyboard-response","48","81594","0.0-66.0","3N4BPTXIO9ET730V0FSKXJSRUHYUKE","A2KW87ZD2ELYNG","3H6W48L9F4B5OEOMH57RM53Z4H1WP0","","null","<img src=""img/land4.png"" style=""width:200px; border:14px solid green;"">","null","","","","","","","",""
"","image-keyboard-response","49","81985","0.0-68.0","3N4BPTXIO9ET730V0FSKXJSRUHYUKE","A2KW87ZD2ELYNG","3H6W48L9F4B5OEOMH57RM53Z4H1WP0","","390.09999990463257","img/land4.png","74","390.7000000476837","1","1","false","1","1,1,0,0,1,1,1,0,1","",""
"","html-keyboard-response","50","82290","0.0-69.0","3N4BPTXIO9ET730V0FSKXJSRUHYUKE","A2KW87ZD2ELYNG","3H6W48L9F4B5OEOMH57RM53Z4H1WP0","","null","<img src=""img/land4.png"" style=""width:200px; border:14px solid green;"">","null","","","","","","","",""
"","image-keyboard-response","51","83143","0.0-71.0","3N4BPTXIO9ET730V0FSKXJSRUHYUKE","A2KW87ZD2ELYNG","3H6W48L9F4B5OEOMH57RM53Z4H1WP0","","851.9000000953674","img/land2.png","76","852.4000000953674","3","1","false","3","1,1,0,0,1,1,1,0,1","",""
"","html-keyboard-response","52","83450","0.0-72.0","3N4BPTXIO9ET730V0FSKXJSRUHYUKE","A2KW87ZD2ELYNG","3H6W48L9F4B5OEOMH57RM53Z4H1WP0","","null","<img src=""img/land2.png"" style=""width:200px; border:14px solid green;"">","null","","","","","","","",""
"","image-keyboard-response","53","84120","0.0-74.0","3N4BPTXIO9ET730V0FSKXJSRUHYUKE","A2KW87ZD2ELYNG","3H6W48L9F4B5OEOMH57RM53Z4H1WP0","","669.4000000953674","img/land3.png","75","670.0999999046326","2","1","false","2","1,1,0,0,1,1,1,0,1","",""
"","html-keyboard-response","54","84426","0.0-75.0","3N4BPTXIO9ET730V0FSKXJSRUHYUKE","A2KW87ZD2ELYNG","3H6W48L9F4B5OEOMH57RM53Z4H1WP0","","null","<img src=""img/land3.png"" style=""width:200px; border:14px solid green;"">","null","","","","","","","",""
"","image-keyboard-response","55","85179","0.0-77.0","3N4BPTXIO9ET730V0FSKXJSRUHYUKE","A2KW87ZD2ELYNG","3H6W48L9F4B5OEOMH57RM53Z4H1WP0","","751.8999998569489","img/land2.png","76","752.5","3","1","false","3","1,1,0,0,1,1,1,0,1","",""
"","html-keyboard-response","56","85482","0.0-78.0","3N4BPTXIO9ET730V0FSKXJSRUHYUKE","A2KW87ZD2ELYNG","3H6W48L9F4B5OEOMH57RM53Z4H1WP0","","null","<img src=""img/land2.png"" style=""width:200px; border:14px solid green;"">","null","","","","","","","",""
"","image-keyboard-response","57","86340","0.0-80.0","3N4BPTXIO9ET730V0FSKXJSRUHYUKE","A2KW87ZD2ELYNG","3H6W48L9F4B5OEOMH57RM53Z4H1WP0","","857.0999999046326","img/land4.png","74","857.9000000953674","1","1","false","1","1,1,0,0,1,1,1,0,1","",""
"","html-keyboard-response","58","86642","0.0-81.0","3N4BPTXIO9ET730V0FSKXJSRUHYUKE","A2KW87ZD2ELYNG","3H6W48L9F4B5OEOMH57RM53Z4H1WP0","","null","<img src=""img/land4.png"" style=""width:200px; border:14px solid green;"">","null","","","","","","","",""
"","image-keyboard-response","59","87470","0.0-83.0","3N4BPTXIO9ET730V0FSKXJSRUHYUKE","A2KW87ZD2ELYNG","3H6W48L9F4B5OEOMH57RM53Z4H1WP0","","826.8000001907349","img/land2.png","76","827.7000000476837","3","1","false","3","1,1,0,0,1,1,1,0,1","",""
"","html-keyboard-response","60","87778","0.0-84.0","3N4BPTXIO9ET730V0FSKXJSRUHYUKE","A2KW87ZD2ELYNG","3H6W48L9F4B5OEOMH57RM53Z4H1WP0","","null","<img src=""img/land2.png"" style=""width:200px; border:14px solid green;"">","null","","","","","","","",""
"","image-keyboard-response","61","88448","0.0-86.0","3N4BPTXIO9ET730V0FSKXJSRUHYUKE","A2KW87ZD2ELYNG","3H6W48L9F4B5OEOMH57RM53Z4H1WP0","","668.8999998569489","img/land4.png","74","669.5999999046326","1","1","false","1","1,1,0,0,1,1,1,0,1","",""
"","html-keyboard-response","62","88754","0.0-87.0","3N4BPTXIO9ET730V0FSKXJSRUHYUKE","A2KW87ZD2ELYNG","3H6W48L9F4B5OEOMH57RM53Z4H1WP0","","null","<img src=""img/land4.png"" style=""width:200px; border:14px solid green;"">","null","","","","","","","",""
"","image-keyboard-response","63","89246","0.0-89.0","3N4BPTXIO9ET730V0FSKXJSRUHYUKE","A2KW87ZD2ELYNG","3H6W48L9F4B5OEOMH57RM53Z4H1WP0","","491.2000000476837","img/land4.png","74","491.7999999523163","1","1","false","1","1,1,0,0,1,1,1,0,1","",""
"","html-keyboard-response","64","89554","0.0-90.0","3N4BPTXIO9ET730V0FSKXJSRUHYUKE","A2KW87ZD2ELYNG","3H6W48L9F4B5OEOMH57RM53Z4H1WP0","","null","<img src=""img/land4.png"" style=""width:200px; border:14px solid green;"">","null","","","","","","","",""
"","image-keyboard-response","65","90217","0.0-92.0","3N4BPTXIO9ET730V0FSKXJSRUHYUKE","A2KW87ZD2ELYNG","3H6W48L9F4B5OEOMH57RM53Z4H1WP0","","661.5999999046326","img/land3.png","75","662.2000000476837","2","1","false","2","1,1,0,0,1,1,1,0,1","",""
"","html-keyboard-response","66","90522","0.0-93.0","3N4BPTXIO9ET730V0FSKXJSRUHYUKE","A2KW87ZD2ELYNG","3H6W48L9F4B5OEOMH57RM53Z4H1WP0","","null","<img src=""img/land3.png"" style=""width:200px; border:14px solid green;"">","null","","","","","","","",""
"","image-keyboard-response","67","90900","0.0-95.0","3N4BPTXIO9ET730V0FSKXJSRUHYUKE","A2KW87ZD2ELYNG","3H6W48L9F4B5OEOMH57RM53Z4H1WP0","","376.69999980926514","img/land3.png","75","377.40000009536743","2","1","false","2","1,1,0,0,1,1,1,0,1","",""
"","html-keyboard-response","68","91202","0.0-96.0","3N4BPTXIO9ET730V0FSKXJSRUHYUKE","A2KW87ZD2ELYNG","3H6W48L9F4B5OEOMH57RM53Z4H1WP0","","null","<img src=""img/land3.png"" style=""width:200px; border:14px solid green;"">","null","","","","","","","",""
"","image-keyboard-response","69","91874","0.0-98.0","3N4BPTXIO9ET730V0FSKXJSRUHYUKE","A2KW87ZD2ELYNG","3H6W48L9F4B5OEOMH57RM53Z4H1WP0","","670.9000000953674","img/land2.png","76","671.2999999523163","3","1","false","3","1,1,0,0,1,1,1,0,1","",""
"","html-keyboard-response","70","92178","0.0-99.0","3N4BPTXIO9ET730V0FSKXJSRUHYUKE","A2KW87ZD2ELYNG","3H6W48L9F4B5OEOMH57RM53Z4H1WP0","","null","<img src=""img/land2.png"" style=""width:200px; border:14px solid green;"">","null","","","","","","","",""
"","image-keyboard-response","71","92834","0.0-101.0","3N4BPTXIO9ET730V0FSKXJSRUHYUKE","A2KW87ZD2ELYNG","3H6W48L9F4B5OEOMH57RM53Z4H1WP0","","655.5","img/land4.png","74","656.0999999046326","1","1","false","1","1,1,0,0,1,1,1,0,1","",""
"","html-keyboard-response","72","93138","0.0-102.0","3N4BPTXIO9ET730V0FSKXJSRUHYUKE","A2KW87ZD2ELYNG","3H6W48L9F4B5OEOMH57RM53Z4H1WP0","","null","<img src=""img/land4.png"" style=""width:200px; border:14px solid green;"">","null","","","","","","","",""
"","image-keyboard-response","73","93971","0.0-104.0","3N4BPTXIO9ET730V0FSKXJSRUHYUKE","A2KW87ZD2ELYNG","3H6W48L9F4B5OEOMH57RM53Z4H1WP0","","832.5","img/land3.png","75","833.0999999046326","2","1","false","2","1,1,0,0,1,1,1,0,1","",""
"","html-keyboard-response","74","94274","0.0-105.0","3N4BPTXIO9ET730V0FSKXJSRUHYUKE","A2KW87ZD2ELYNG","3H6W48L9F4B5OEOMH57RM53Z4H1WP0","","null","<img src=""img/land3.png"" style=""width:200px; border:14px solid green;"">","null","","","","","","","",""
"","image-keyboard-response","75","94851","0.0-107.0","3N4BPTXIO9ET730V0FSKXJSRUHYUKE","A2KW87ZD2ELYNG","3H6W48L9F4B5OEOMH57RM53Z4H1WP0","","575.9000000953674","img/land2.png","76","576.6000001430511","3","1","false","3","1,1,0,0,1,1,1,0,1","",""
"","html-keyboard-response","76","95154","0.0-108.0","3N4BPTXIO9ET730V0FSKXJSRUHYUKE","A2KW87ZD2ELYNG","3H6W48L9F4B5OEOMH57RM53Z4H1WP0","","null","<img src=""img/land2.png"" style=""width:200px; border:14px solid green;"">","null","","","","","","","",""
"","image-keyboard-response","77","95585","0.0-110.0","3N4BPTXIO9ET730V0FSKXJSRUHYUKE","A2KW87ZD2ELYNG","3H6W48L9F4B5OEOMH57RM53Z4H1WP0","","429.7999999523163","img/land2.png","76","430.40000009536743","3","1","false","3","1,1,0,0,1,1,1,0,1","",""
"","html-keyboard-response","78","95890","0.0-111.0","3N4BPTXIO9ET730V0FSKXJSRUHYUKE","A2KW87ZD2ELYNG","3H6W48L9F4B5OEOMH57RM53Z4H1WP0","","null","<img src=""img/land2.png"" style=""width:200px; border:14px solid green;"">","null","","","","","","","",""
"","image-keyboard-response","79","96288","0.0-113.0","3N4BPTXIO9ET730V0FSKXJSRUHYUKE","A2KW87ZD2ELYNG","3H6W48L9F4B5OEOMH57RM53Z4H1WP0","","396.89999985694885","img/land2.png","76","397.59999990463257","3","1","false","3","1,1,0,0,1,1,1,0,1","",""
"","html-keyboard-response","80","96594","0.0-114.0","3N4BPTXIO9ET730V0FSKXJSRUHYUKE","A2KW87ZD2ELYNG","3H6W48L9F4B5OEOMH57RM53Z4H1WP0","","null","<img src=""img/land2.png"" style=""width:200px; border:14px solid green;"">","null","","","","","","","",""
"","image-keyboard-response","81","97418","0.0-116.0","3N4BPTXIO9ET730V0FSKXJSRUHYUKE","A2KW87ZD2ELYNG","3H6W48L9F4B5OEOMH57RM53Z4H1WP0","","823","img/land4.png","74","823.6000001430511","1","1","false","1","1,1,0,0,1,1,1,0,1","",""
"","html-keyboard-response","82","97722","0.0-117.0","3N4BPTXIO9ET730V0FSKXJSRUHYUKE","A2KW87ZD2ELYNG","3H6W48L9F4B5OEOMH57RM53Z4H1WP0","","null","<img src=""img/land4.png"" style=""width:200px; border:14px solid green;"">","null","","","","","","","",""
"","image-keyboard-response","83","98654","0.0-119.0","3N4BPTXIO9ET730V0FSKXJSRUHYUKE","A2KW87ZD2ELYNG","3H6W48L9F4B5OEOMH57RM53Z4H1WP0","","931.2000000476837","img/land2.png","76","931.7000000476837","3","1","false","3","1,1,0,0,1,1,1,0,1","",""
"","html-keyboard-response","84","98962","0.0-120.0","3N4BPTXIO9ET730V0FSKXJSRUHYUKE","A2KW87ZD2ELYNG","3H6W48L9F4B5OEOMH57RM53Z4H1WP0","","null","<img src=""img/land2.png"" style=""width:200px; border:14px solid green;"">","null","","","","","","","",""
"","image-keyboard-response","85","99673","0.0-122.0","3N4BPTXIO9ET730V0FSKXJSRUHYUKE","A2KW87ZD2ELYNG","3H6W48L9F4B5OEOMH57RM53Z4H1WP0","","710","img/land4.png","74","710.5","1","1","false","1","1,1,0,0,1,1,1,0,1","",""
"","html-keyboard-response","86","99978","0.0-123.0","3N4BPTXIO9ET730V0FSKXJSRUHYUKE","A2KW87ZD2ELYNG","3H6W48L9F4B5OEOMH57RM53Z4H1WP0","","null","<img src=""img/land4.png"" style=""width:200px; border:14px solid green;"">","null","","","","","","","",""
"","image-keyboard-response","87","100527","0.0-125.0","3N4BPTXIO9ET730V0FSKXJSRUHYUKE","A2KW87ZD2ELYNG","3H6W48L9F4B5OEOMH57RM53Z4H1WP0","","548.1000001430511","img/land2.png","76","548.7999999523163","3","1","false","3","1,1,0,0,1,1,1,0,1","",""
"","html-keyboard-response","88","100834","0.0-126.0","3N4BPTXIO9ET730V0FSKXJSRUHYUKE","A2KW87ZD2ELYNG","3H6W48L9F4B5OEOMH57RM53Z4H1WP0","","null","<img src=""img/land2.png"" style=""width:200px; border:14px solid green;"">","null","","","","","","","",""
"","image-keyboard-response","89","101353","0.0-128.0","3N4BPTXIO9ET730V0FSKXJSRUHYUKE","A2KW87ZD2ELYNG","3H6W48L9F4B5OEOMH57RM53Z4H1WP0","","518.5999999046326","img/land4.png","74","519.2000000476837","1","1","false","1","1,1,0,0,1,1,1,0,1","",""
"","html-keyboard-response","90","101658","0.0-129.0","3N4BPTXIO9ET730V0FSKXJSRUHYUKE","A2KW87ZD2ELYNG","3H6W48L9F4B5OEOMH57RM53Z4H1WP0","","null","<img src=""img/land4.png"" style=""width:200px; border:14px solid green;"">","null","","","","","","","",""
"","image-keyboard-response","91","102111","0.0-131.0","3N4BPTXIO9ET730V0FSKXJSRUHYUKE","A2KW87ZD2ELYNG","3H6W48L9F4B5OEOMH57RM53Z4H1WP0","","451.7000000476837","img/land3.png","75","452.40000009536743","2","1","false","2","1,1,0,0,1,1,1,0,1","",""
"","html-keyboard-response","92","102418","0.0-132.0","3N4BPTXIO9ET730V0FSKXJSRUHYUKE","A2KW87ZD2ELYNG","3H6W48L9F4B5OEOMH57RM53Z4H1WP0","","null","<img src=""img/land3.png"" style=""width:200px; border:14px solid green;"">","null","","","","","","","",""
"","image-keyboard-response","93","102956","0.0-134.0","3N4BPTXIO9ET730V0FSKXJSRUHYUKE","A2KW87ZD2ELYNG","3H6W48L9F4B5OEOMH57RM53Z4H1WP0","","537.5999999046326","img/land4.png","76","538.2999999523163","3","0","false","1","1,1,0,0,1,1,1,0,1","",""
"","html-keyboard-response","94","103258","0.0-135.0","3N4BPTXIO9ET730V0FSKXJSRUHYUKE","A2KW87ZD2ELYNG","3H6W48L9F4B5OEOMH57RM53Z4H1WP0","","null","<img src=""img/land4.png"" style=""width:200px;border:14px solid red;"">","null","","","","","","","",""
"","image-keyboard-response","95","103941","0.0-137.0","3N4BPTXIO9ET730V0FSKXJSRUHYUKE","A2KW87ZD2ELYNG","3H6W48L9F4B5OEOMH57RM53Z4H1WP0","","681.9000000953674","img/land3.png","74","682.9000000953674","1","0","false","2","1,1,0,0,1,1,1,0,1","",""
"","html-keyboard-response","96","104250","0.0-138.0","3N4BPTXIO9ET730V0FSKXJSRUHYUKE","A2KW87ZD2ELYNG","3H6W48L9F4B5OEOMH57RM53Z4H1WP0","","null","<img src=""img/land3.png"" style=""width:200px;border:14px solid red;"">","null","","","","","","","",""
"","image-keyboard-response","97","105210","0.0-140.0","3N4BPTXIO9ET730V0FSKXJSRUHYUKE","A2KW87ZD2ELYNG","3H6W48L9F4B5OEOMH57RM53Z4H1WP0","","959.1999998092651","img/land4.png","74","959.8000001907349","1","1","false","1","1,1,0,0,1,1,1,0,1","",""
"","html-keyboard-response","98","105514","0.0-141.0","3N4BPTXIO9ET730V0FSKXJSRUHYUKE","A2KW87ZD2ELYNG","3H6W48L9F4B5OEOMH57RM53Z4H1WP0","","null","<img src=""img/land4.png"" style=""width:200px; border:14px solid green;"">","null","","","","","","","",""
"","image-keyboard-response","99","106022","0.0-143.0","3N4BPTXIO9ET730V0FSKXJSRUHYUKE","A2KW87ZD2ELYNG","3H6W48L9F4B5OEOMH57RM53Z4H1WP0","","506.90000009536743","img/land3.png","75","507.59999990463257","2","1","false","2","1,1,0,0,1,1,1,0,1","",""
"","html-keyboard-response","100","106330","0.0-144.0","3N4BPTXIO9ET730V0FSKXJSRUHYUKE","A2KW87ZD2ELYNG","3H6W48L9F4B5OEOMH57RM53Z4H1WP0","","null","<img src=""img/land3.png"" style=""width:200px; border:14px solid green;"">","null","","","","","","","",""
"","image-keyboard-response","101","107108","0.0-146.0","3N4BPTXIO9ET730V0FSKXJSRUHYUKE","A2KW87ZD2ELYNG","3H6W48L9F4B5OEOMH57RM53Z4H1WP0","","777.2000000476837","img/land4.png","74","777.8999998569489","1","1","false","1","1,1,0,0,1,1,1,0,1","",""
"","html-keyboard-response","102","107410","0.0-147.0","3N4BPTXIO9ET730V0FSKXJSRUHYUKE","A2KW87ZD2ELYNG","3H6W48L9F4B5OEOMH57RM53Z4H1WP0","","null","<img src=""img/land4.png"" style=""width:200px; border:14px solid green;"">","null","","","","","","","",""
"","image-keyboard-response","103","107930","0.0-149.0","3N4BPTXIO9ET730V0FSKXJSRUHYUKE","A2KW87ZD2ELYNG","3H6W48L9F4B5OEOMH57RM53Z4H1WP0","","518.9000000953674","img/land4.png","74","519.5","1","1","false","1","1,1,0,0,1,1,1,0,1","",""
"","html-keyboard-response","104","108234","0.0-150.0","3N4BPTXIO9ET730V0FSKXJSRUHYUKE","A2KW87ZD2ELYNG","3H6W48L9F4B5OEOMH57RM53Z4H1WP0","","null","<img src=""img/land4.png"" style=""width:200px; border:14px solid green;"">","null","","","","","","","",""
"","image-keyboard-response","105","108796","0.0-152.0","3N4BPTXIO9ET730V0FSKXJSRUHYUKE","A2KW87ZD2ELYNG","3H6W48L9F4B5OEOMH57RM53Z4H1WP0","","561","img/land3.png","75","561.6999998092651","2","1","false","2","1,1,0,0,1,1,1,0,1","",""
"","html-keyboard-response","106","109098","0.0-153.0","3N4BPTXIO9ET730V0FSKXJSRUHYUKE","A2KW87ZD2ELYNG","3H6W48L9F4B5OEOMH57RM53Z4H1WP0","","null","<img src=""img/land3.png"" style=""width:200px; border:14px solid green;"">","null","","","","","","","",""
"","image-keyboard-response","107","109672","0.0-155.0","3N4BPTXIO9ET730V0FSKXJSRUHYUKE","A2KW87ZD2ELYNG","3H6W48L9F4B5OEOMH57RM53Z4H1WP0","","572.9000000953674","img/land4.png","74","573.5","1","1","false","1","1,1,0,0,1,1,1,0,1","",""
"","html-keyboard-response","108","109978","0.0-156.0","3N4BPTXIO9ET730V0FSKXJSRUHYUKE","A2KW87ZD2ELYNG","3H6W48L9F4B5OEOMH57RM53Z4H1WP0","","null","<img src=""img/land4.png"" style=""width:200px; border:14px solid green;"">","null","","","","","","","",""
"","image-keyboard-response","109","110559","0.0-158.0","3N4BPTXIO9ET730V0FSKXJSRUHYUKE","A2KW87ZD2ELYNG","3H6W48L9F4B5OEOMH57RM53Z4H1WP0","","580.2999999523163","img/land2.png","76","580.9000000953674","3","1","false","3","1,1,0,0,1,1,1,0,1","",""
"","html-keyboard-response","110","110866","0.0-159.0","3N4BPTXIO9ET730V0FSKXJSRUHYUKE","A2KW87ZD2ELYNG","3H6W48L9F4B5OEOMH57RM53Z4H1WP0","","null","<img src=""img/land2.png"" style=""width:200px; border:14px solid green;"">","null","","","","","","","",""
"","image-keyboard-response","111","111874","0.0-161.0","3N4BPTXIO9ET730V0FSKXJSRUHYUKE","A2KW87ZD2ELYNG","3H6W48L9F4B5OEOMH57RM53Z4H1WP0","","","img/land4.png","","1008.0999999046326","-1","0","true","1","1,1,0,0,1,1,1,0,1","",""
"","html-keyboard-response","112","112178","0.0-162.0","3N4BPTXIO9ET730V0FSKXJSRUHYUKE","A2KW87ZD2ELYNG","3H6W48L9F4B5OEOMH57RM53Z4H1WP0","","null","<img src=""img/land4.png"" style=""width:200px;border:14px solid red;"">","null","","","","","","","",""
"","html-keyboard-response","113","117847","0.0-163.0-0.0","3N4BPTXIO9ET730V0FSKXJSRUHYUKE","A2KW87ZD2ELYNG","3H6W48L9F4B5OEOMH57RM53Z4H1WP0","","","","","","","","","","","",""
"","image-keyboard-response","114","118638","0.0-164.0","3N4BPTXIO9ET730V0FSKXJSRUHYUKE","A2KW87ZD2ELYNG","3H6W48L9F4B5OEOMH57RM53Z4H1WP0","","789.7000000476837","img/land2.png","75","790.2999999523163","2","0","false","3","1,1,0,0,1,1,1,0,1","",""
"","html-keyboard-response","115","118946","0.0-165.0","3N4BPTXIO9ET730V0FSKXJSRUHYUKE","A2KW87ZD2ELYNG","3H6W48L9F4B5OEOMH57RM53Z4H1WP0","","null","<img src=""img/land2.png"" style=""width:200px;border:14px solid red;"">","null","","","","","","","",""
"","image-keyboard-response","116","119385","0.0-167.0","3N4BPTXIO9ET730V0FSKXJSRUHYUKE","A2KW87ZD2ELYNG","3H6W48L9F4B5OEOMH57RM53Z4H1WP0","","438.40000009536743","img/land4.png","74","438.90000009536743","1","1","false","1","1,1,0,0,1,1,1,0,1","",""
"","html-keyboard-response","117","119690","0.0-168.0","3N4BPTXIO9ET730V0FSKXJSRUHYUKE","A2KW87ZD2ELYNG","3H6W48L9F4B5OEOMH57RM53Z4H1WP0","","null","<img src=""img/land4.png"" style=""width:200px; border:14px solid green;"">","null","","","","","","","",""
"","image-keyboard-response","118","120288","0.0-170.0","3N4BPTXIO9ET730V0FSKXJSRUHYUKE","A2KW87ZD2ELYNG","3H6W48L9F4B5OEOMH57RM53Z4H1WP0","","597.7000000476837","img/land3.png","75","598.2000000476837","2","1","false","2","1,1,0,0,1,1,1,0,1","",""
"","html-keyboard-response","119","120594","0.0-171.0","3N4BPTXIO9ET730V0FSKXJSRUHYUKE","A2KW87ZD2ELYNG","3H6W48L9F4B5OEOMH57RM53Z4H1WP0","","null","<img src=""img/land3.png"" style=""width:200px; border:14px solid green;"">","null","","","","","","","",""
"","image-keyboard-response","120","121039","0.0-173.0","3N4BPTXIO9ET730V0FSKXJSRUHYUKE","A2KW87ZD2ELYNG","3H6W48L9F4B5OEOMH57RM53Z4H1WP0","","444.5","img/land3.png","75","445.09999990463257","2","1","false","2","1,1,0,0,1,1,1,0,1","",""
"","html-keyboard-response","121","121346","0.0-174.0","3N4BPTXIO9ET730V0FSKXJSRUHYUKE","A2KW87ZD2ELYNG","3H6W48L9F4B5OEOMH57RM53Z4H1WP0","","null","<img src=""img/land3.png"" style=""width:200px; border:14px solid green;"">","null","","","","","","","",""
"","image-keyboard-response","122","122129","0.0-176.0","3N4BPTXIO9ET730V0FSKXJSRUHYUKE","A2KW87ZD2ELYNG","3H6W48L9F4B5OEOMH57RM53Z4H1WP0","","782","img/land4.png","76","782.6999998092651","3","0","false","1","1,1,0,0,1,1,1,0,1","",""
"","html-keyboard-response","123","122434","0.0-177.0","3N4BPTXIO9ET730V0FSKXJSRUHYUKE","A2KW87ZD2ELYNG","3H6W48L9F4B5OEOMH57RM53Z4H1WP0","","null","<img src=""img/land4.png"" style=""width:200px;border:14px solid red;"">","null","","","","","","","",""
"","image-keyboard-response","124","122792","0.0-179.0","3N4BPTXIO9ET730V0FSKXJSRUHYUKE","A2KW87ZD2ELYNG","3H6W48L9F4B5OEOMH57RM53Z4H1WP0","","357.40000009536743","img/land4.png","74","358","1","1","false","1","1,1,0,0,1,1,1,0,1","",""
"","html-keyboard-response","125","123098","0.0-180.0","3N4BPTXIO9ET730V0FSKXJSRUHYUKE","A2KW87ZD2ELYNG","3H6W48L9F4B5OEOMH57RM53Z4H1WP0","","null","<img src=""img/land4.png"" style=""width:200px; border:14px solid green;"">","null","","","","","","","",""
"","image-keyboard-response","126","123823","0.0-182.0","3N4BPTXIO9ET730V0FSKXJSRUHYUKE","A2KW87ZD2ELYNG","3H6W48L9F4B5OEOMH57RM53Z4H1WP0","","724.3999998569489","img/land2.png","76","724.9000000953674","3","1","false","3","1,1,0,0,1,1,1,0,1","",""
"","html-keyboard-response","127","124130","0.0-183.0","3N4BPTXIO9ET730V0FSKXJSRUHYUKE","A2KW87ZD2ELYNG","3H6W48L9F4B5OEOMH57RM53Z4H1WP0","","null","<img src=""img/land2.png"" style=""width:200px; border:14px solid green;"">","null","","","","","","","",""
"","image-keyboard-response","128","124564","0.0-185.0","3N4BPTXIO9ET730V0FSKXJSRUHYUKE","A2KW87ZD2ELYNG","3H6W48L9F4B5OEOMH57RM53Z4H1WP0","","433.10000014305115","img/land2.png","76","433.59999990463257","3","1","false","3","1,1,0,0,1,1,1,0,1","",""
"","html-keyboard-response","129","124866","0.0-186.0","3N4BPTXIO9ET730V0FSKXJSRUHYUKE","A2KW87ZD2ELYNG","3H6W48L9F4B5OEOMH57RM53Z4H1WP0","","null","<img src=""img/land2.png"" style=""width:200px; border:14px solid green;"">","null","","","","","","","",""
"","image-keyboard-response","130","125253","0.0-188.0","3N4BPTXIO9ET730V0FSKXJSRUHYUKE","A2KW87ZD2ELYNG","3H6W48L9F4B5OEOMH57RM53Z4H1WP0","","386.40000009536743","img/land2.png","76","387.09999990463257","3","1","false","3","1,1,0,0,1,1,1,0,1","",""
"","html-keyboard-response","131","125562","0.0-189.0","3N4BPTXIO9ET730V0FSKXJSRUHYUKE","A2KW87ZD2ELYNG","3H6W48L9F4B5OEOMH57RM53Z4H1WP0","","null","<img src=""img/land2.png"" style=""width:200px; border:14px solid green;"">","null","","","","","","","",""
"","image-keyboard-response","132","125950","0.0-191.0","3N4BPTXIO9ET730V0FSKXJSRUHYUKE","A2KW87ZD2ELYNG","3H6W48L9F4B5OEOMH57RM53Z4H1WP0","","387","img/land2.png","76","387.69999980926514","3","1","false","3","1,1,0,0,1,1,1,0,1","",""
"","html-keyboard-response","133","126258","0.0-192.0","3N4BPTXIO9ET730V0FSKXJSRUHYUKE","A2KW87ZD2ELYNG","3H6W48L9F4B5OEOMH57RM53Z4H1WP0","","null","<img src=""img/land2.png"" style=""width:200px; border:14px solid green;"">","null","","","","","","","",""
"","image-keyboard-response","134","126656","0.0-194.0","3N4BPTXIO9ET730V0FSKXJSRUHYUKE","A2KW87ZD2ELYNG","3H6W48L9F4B5OEOMH57RM53Z4H1WP0","","397","img/land2.png","76","397.7999999523163","3","1","false","3","1,1,0,0,1,1,1,0,1","",""
"","html-keyboard-response","135","126962","0.0-195.0","3N4BPTXIO9ET730V0FSKXJSRUHYUKE","A2KW87ZD2ELYNG","3H6W48L9F4B5OEOMH57RM53Z4H1WP0","","null","<img src=""img/land2.png"" style=""width:200px; border:14px solid green;"">","null","","","","","","","",""
"","image-keyboard-response","136","127522","0.0-197.0","3N4BPTXIO9ET730V0FSKXJSRUHYUKE","A2KW87ZD2ELYNG","3H6W48L9F4B5OEOMH57RM53Z4H1WP0","","559","img/land3.png","75","559.6000001430511","2","1","false","2","1,1,0,0,1,1,1,0,1","",""
"","html-keyboard-response","137","127826","0.0-198.0","3N4BPTXIO9ET730V0FSKXJSRUHYUKE","A2KW87ZD2ELYNG","3H6W48L9F4B5OEOMH57RM53Z4H1WP0","","null","<img src=""img/land3.png"" style=""width:200px; border:14px solid green;"">","null","","","","","","","",""
"","image-keyboard-response","138","128204","0.0-200.0","3N4BPTXIO9ET730V0FSKXJSRUHYUKE","A2KW87ZD2ELYNG","3H6W48L9F4B5OEOMH57RM53Z4H1WP0","","376.59999990463257","img/land3.png","75","377.2999999523163","2","1","false","2","1,1,0,0,1,1,1,0,1","",""
"","html-keyboard-response","139","128506","0.0-201.0","3N4BPTXIO9ET730V0FSKXJSRUHYUKE","A2KW87ZD2ELYNG","3H6W48L9F4B5OEOMH57RM53Z4H1WP0","","null","<img src=""img/land3.png"" style=""width:200px; border:14px solid green;"">","null","","","","","","","",""
"","image-keyboard-response","140","128857","0.0-203.0","3N4BPTXIO9ET730V0FSKXJSRUHYUKE","A2KW87ZD2ELYNG","3H6W48L9F4B5OEOMH57RM53Z4H1WP0","","349.90000009536743","img/land3.png","75","350.39999985694885","2","1","false","2","1,1,0,0,1,1,1,0,1","",""
"","html-keyboard-response","141","129162","0.0-204.0","3N4BPTXIO9ET730V0FSKXJSRUHYUKE","A2KW87ZD2ELYNG","3H6W48L9F4B5OEOMH57RM53Z4H1WP0","","null","<img src=""img/land3.png"" style=""width:200px; border:14px solid green;"">","null","","","","","","","",""
"","image-keyboard-response","142","129854","0.0-206.0","3N4BPTXIO9ET730V0FSKXJSRUHYUKE","A2KW87ZD2ELYNG","3H6W48L9F4B5OEOMH57RM53Z4H1WP0","","691.7000000476837","img/land2.png","76","692.2999999523163","3","1","false","3","1,1,0,0,1,1,1,0,1","",""
"","html-keyboard-response","143","130162","0.0-207.0","3N4BPTXIO9ET730V0FSKXJSRUHYUKE","A2KW87ZD2ELYNG","3H6W48L9F4B5OEOMH57RM53Z4H1WP0","","null","<img src=""img/land2.png"" style=""width:200px; border:14px solid green;"">","null","","","","","","","",""
"","image-keyboard-response","144","130761","0.0-209.0","3N4BPTXIO9ET730V0FSKXJSRUHYUKE","A2KW87ZD2ELYNG","3H6W48L9F4B5OEOMH57RM53Z4H1WP0","","598.4000000953674","img/land3.png","75","598.9000000953674","2","1","false","2","1,1,0,0,1,1,1,0,1","",""
"","html-keyboard-response","145","131066","0.0-210.0","3N4BPTXIO9ET730V0FSKXJSRUHYUKE","A2KW87ZD2ELYNG","3H6W48L9F4B5OEOMH57RM53Z4H1WP0","","null","<img src=""img/land3.png"" style=""width:200px; border:14px solid green;"">","null","","","","","","","",""
"","image-keyboard-response","146","131688","0.0-212.0","3N4BPTXIO9ET730V0FSKXJSRUHYUKE","A2KW87ZD2ELYNG","3H6W48L9F4B5OEOMH57RM53Z4H1WP0","","621.2000000476837","img/land2.png","74","621.7000000476837","1","1","false","3","1,1,0,0,1,1,1,0,1","",""
"","html-keyboard-response","147","131994","0.0-213.0","3N4BPTXIO9ET730V0FSKXJSRUHYUKE","A2KW87ZD2ELYNG","3H6W48L9F4B5OEOMH57RM53Z4H1WP0","","null","<img src=""img/land2.png"" style=""width:200px; border:14px solid green;"">","null","","","","","","","",""
"","image-keyboard-response","148","132828","0.0-215.0","3N4BPTXIO9ET730V0FSKXJSRUHYUKE","A2KW87ZD2ELYNG","3H6W48L9F4B5OEOMH57RM53Z4H1WP0","","833.5","img/land3.png","74","834.2999999523163","1","0","false","2","1,1,0,0,1,1,1,0,1","",""
"","html-keyboard-response","149","133130","0.0-216.0","3N4BPTXIO9ET730V0FSKXJSRUHYUKE","A2KW87ZD2ELYNG","3H6W48L9F4B5OEOMH57RM53Z4H1WP0","","null","<img src=""img/land3.png"" style=""width:200px;border:14px solid red;"">","null","","","","","","","",""
"","image-keyboard-response","150","133921","0.0-218.0","3N4BPTXIO9ET730V0FSKXJSRUHYUKE","A2KW87ZD2ELYNG","3H6W48L9F4B5OEOMH57RM53Z4H1WP0","","790.2000000476837","img/land2.png","76","790.6999998092651","3","1","false","3","1,1,0,0,1,1,1,0,1","",""
"","html-keyboard-response","151","134226","0.0-219.0","3N4BPTXIO9ET730V0FSKXJSRUHYUKE","A2KW87ZD2ELYNG","3H6W48L9F4B5OEOMH57RM53Z4H1WP0","","null","<img src=""img/land2.png"" style=""width:200px; border:14px solid green;"">","null","","","","","","","",""
"","image-keyboard-response","152","134936","0.0-221.0","3N4BPTXIO9ET730V0FSKXJSRUHYUKE","A2KW87ZD2ELYNG","3H6W48L9F4B5OEOMH57RM53Z4H1WP0","","709.5","img/land4.png","74","710.0999999046326","1","1","false","1","1,1,0,0,1,1,1,0,1","",""
"","html-keyboard-response","153","135242","0.0-222.0","3N4BPTXIO9ET730V0FSKXJSRUHYUKE","A2KW87ZD2ELYNG","3H6W48L9F4B5OEOMH57RM53Z4H1WP0","","null","<img src=""img/land4.png"" style=""width:200px; border:14px solid green;"">","null","","","","","","","",""
"","image-keyboard-response","154","135775","0.0-224.0","3N4BPTXIO9ET730V0FSKXJSRUHYUKE","A2KW87ZD2ELYNG","3H6W48L9F4B5OEOMH57RM53Z4H1WP0","","532.2999999523163","img/land2.png","76","533.1000001430511","3","1","false","3","1,1,0,0,1,1,1,0,1","",""
"","html-keyboard-response","155","136082","0.0-225.0","3N4BPTXIO9ET730V0FSKXJSRUHYUKE","A2KW87ZD2ELYNG","3H6W48L9F4B5OEOMH57RM53Z4H1WP0","","null","<img src=""img/land2.png"" style=""width:200px; border:14px solid green;"">","null","","","","","","","",""
"","image-keyboard-response","156","137014","0.0-227.0","3N4BPTXIO9ET730V0FSKXJSRUHYUKE","A2KW87ZD2ELYNG","3H6W48L9F4B5OEOMH57RM53Z4H1WP0","","931","img/land3.png","75","931.5999999046326","2","1","false","2","1,1,0,0,1,1,1,0,1","",""
"","html-keyboard-response","157","137322","0.0-228.0","3N4BPTXIO9ET730V0FSKXJSRUHYUKE","A2KW87ZD2ELYNG","3H6W48L9F4B5OEOMH57RM53Z4H1WP0","","null","<img src=""img/land3.png"" style=""width:200px; border:14px solid green;"">","null","","","","","","","",""
"","image-keyboard-response","158","138039","0.0-230.0","3N4BPTXIO9ET730V0FSKXJSRUHYUKE","A2KW87ZD2ELYNG","3H6W48L9F4B5OEOMH57RM53Z4H1WP0","","716.1000001430511","img/land2.png","76","716.7999999523163","3","1","false","3","1,1,0,0,1,1,1,0,1","",""
"","html-keyboard-response","159","138346","0.0-231.0","3N4BPTXIO9ET730V0FSKXJSRUHYUKE","A2KW87ZD2ELYNG","3H6W48L9F4B5OEOMH57RM53Z4H1WP0","","null","<img src=""img/land2.png"" style=""width:200px; border:14px solid green;"">","null","","","","","","","",""
"","image-keyboard-response","160","138857","0.0-233.0","3N4BPTXIO9ET730V0FSKXJSRUHYUKE","A2KW87ZD2ELYNG","3H6W48L9F4B5OEOMH57RM53Z4H1WP0","","510.5","img/land2.png","76","511.09999990463257","3","1","false","3","1,1,0,0,1,1,1,0,1","",""
"","html-keyboard-response","161","139162","0.0-234.0","3N4BPTXIO9ET730V0FSKXJSRUHYUKE","A2KW87ZD2ELYNG","3H6W48L9F4B5OEOMH57RM53Z4H1WP0","","null","<img src=""img/land2.png"" style=""width:200px; border:14px solid green;"">","null","","","","","","","",""
"","image-keyboard-response","162","139784","0.0-236.0","3N4BPTXIO9ET730V0FSKXJSRUHYUKE","A2KW87ZD2ELYNG","3H6W48L9F4B5OEOMH57RM53Z4H1WP0","","621.2000000476837","img/land4.png","74","621.7999999523163","1","1","false","1","1,1,0,0,1,1,1,0,1","",""
"","html-keyboard-response","163","140090","0.0-237.0","3N4BPTXIO9ET730V0FSKXJSRUHYUKE","A2KW87ZD2ELYNG","3H6W48L9F4B5OEOMH57RM53Z4H1WP0","","null","<img src=""img/land4.png"" style=""width:200px; border:14px solid green;"">","null","","","","","","","",""
"","image-keyboard-response","164","140460","0.0-239.0","3N4BPTXIO9ET730V0FSKXJSRUHYUKE","A2KW87ZD2ELYNG","3H6W48L9F4B5OEOMH57RM53Z4H1WP0","","369.2999999523163","img/land4.png","74","370","1","1","false","1","1,1,0,0,1,1,1,0,1","",""
"","html-keyboard-response","165","140762","0.0-240.0","3N4BPTXIO9ET730V0FSKXJSRUHYUKE","A2KW87ZD2ELYNG","3H6W48L9F4B5OEOMH57RM53Z4H1WP0","","null","<img src=""img/land4.png"" style=""width:200px; border:14px solid green;"">","null","","","","","","","",""
"","image-keyboard-response","166","141123","0.0-242.0","3N4BPTXIO9ET730V0FSKXJSRUHYUKE","A2KW87ZD2ELYNG","3H6W48L9F4B5OEOMH57RM53Z4H1WP0","","360","img/land4.png","74","360.59999990463257","1","1","false","1","1,1,0,0,1,1,1,0,1","",""
"","html-keyboard-response","167","141426","0.0-243.0","3N4BPTXIO9ET730V0FSKXJSRUHYUKE","A2KW87ZD2ELYNG","3H6W48L9F4B5OEOMH57RM53Z4H1WP0","","null","<img src=""img/land4.png"" style=""width:200px; border:14px solid green;"">","null","","","","","","","",""
"","image-keyboard-response","168","141985","0.0-245.0","3N4BPTXIO9ET730V0FSKXJSRUHYUKE","A2KW87ZD2ELYNG","3H6W48L9F4B5OEOMH57RM53Z4H1WP0","","558.5999999046326","img/land3.png","75","559.2000000476837","2","1","false","2","1,1,0,0,1,1,1,0,1","",""
"","html-keyboard-response","169","142290","0.0-246.0","3N4BPTXIO9ET730V0FSKXJSRUHYUKE","A2KW87ZD2ELYNG","3H6W48L9F4B5OEOMH57RM53Z4H1WP0","","null","<img src=""img/land3.png"" style=""width:200px; border:14px solid green;"">","null","","","","","","","",""
"","image-keyboard-response","170","142844","0.0-248.0","3N4BPTXIO9ET730V0FSKXJSRUHYUKE","A2KW87ZD2ELYNG","3H6W48L9F4B5OEOMH57RM53Z4H1WP0","","553.7000000476837","img/land2.png","76","554.2999999523163","3","1","false","3","1,1,0,0,1,1,1,0,1","",""
"","html-keyboard-response","171","143146","0.0-249.0","3N4BPTXIO9ET730V0FSKXJSRUHYUKE","A2KW87ZD2ELYNG","3H6W48L9F4B5OEOMH57RM53Z4H1WP0","","null","<img src=""img/land2.png"" style=""width:200px; border:14px solid green;"">","null","","","","","","","",""
"","image-keyboard-response","172","143577","0.0-251.0","3N4BPTXIO9ET730V0FSKXJSRUHYUKE","A2KW87ZD2ELYNG","3H6W48L9F4B5OEOMH57RM53Z4H1WP0","","430","img/land2.png","76","430.7999999523163","3","1","false","3","1,1,0,0,1,1,1,0,1","",""
"","html-keyboard-response","173","143882","0.0-252.0","3N4BPTXIO9ET730V0FSKXJSRUHYUKE","A2KW87ZD2ELYNG","3H6W48L9F4B5OEOMH57RM53Z4H1WP0","","null","<img src=""img/land2.png"" style=""width:200px; border:14px solid green;"">","null","","","","","","","",""
"","image-keyboard-response","174","144352","0.0-254.0","3N4BPTXIO9ET730V0FSKXJSRUHYUKE","A2KW87ZD2ELYNG","3H6W48L9F4B5OEOMH57RM53Z4H1WP0","","469.2000000476837","img/land3.png","75","470","2","1","false","2","1,1,0,0,1,1,1,0,1","",""
"","html-keyboard-response","175","144658","0.0-255.0","3N4BPTXIO9ET730V0FSKXJSRUHYUKE","A2KW87ZD2ELYNG","3H6W48L9F4B5OEOMH57RM53Z4H1WP0","","null","<img src=""img/land3.png"" style=""width:200px; border:14px solid green;"">","null","","","","","","","",""
"","image-keyboard-response","176","145048","0.0-257.0","3N4BPTXIO9ET730V0FSKXJSRUHYUKE","A2KW87ZD2ELYNG","3H6W48L9F4B5OEOMH57RM53Z4H1WP0","","389","img/land3.png","75","389.7000000476837","2","1","false","2","1,1,0,0,1,1,1,0,1","",""
"","html-keyboard-response","177","145354","0.0-258.0","3N4BPTXIO9ET730V0FSKXJSRUHYUKE","A2KW87ZD2ELYNG","3H6W48L9F4B5OEOMH57RM53Z4H1WP0","","null","<img src=""img/land3.png"" style=""width:200px; border:14px solid green;"">","null","","","","","","","",""
"","image-keyboard-response","178","145856","0.0-260.0","3N4BPTXIO9ET730V0FSKXJSRUHYUKE","A2KW87ZD2ELYNG","3H6W48L9F4B5OEOMH57RM53Z4H1WP0","","501.5","img/land2.png","76","502.09999990463257","3","1","false","3","1,1,0,0,1,1,1,0,1","",""
"","html-keyboard-response","179","146162","0.0-261.0","3N4BPTXIO9ET730V0FSKXJSRUHYUKE","A2KW87ZD2ELYNG","3H6W48L9F4B5OEOMH57RM53Z4H1WP0","","null","<img src=""img/land2.png"" style=""width:200px; border:14px solid green;"">","null","","","","","","","",""
"","image-keyboard-response","180","146576","0.0-263.0","3N4BPTXIO9ET730V0FSKXJSRUHYUKE","A2KW87ZD2ELYNG","3H6W48L9F4B5OEOMH57RM53Z4H1WP0","","413.60000014305115","img/land3.png","75","414.19999980926514","2","1","false","2","1,1,0,0,1,1,1,0,1","",""
"","html-keyboard-response","181","146882","0.0-264.0","3N4BPTXIO9ET730V0FSKXJSRUHYUKE","A2KW87ZD2ELYNG","3H6W48L9F4B5OEOMH57RM53Z4H1WP0","","null","<img src=""img/land3.png"" style=""width:200px; border:14px solid green;"">","null","","","","","","","",""
"","image-keyboard-response","182","147367","0.0-266.0","3N4BPTXIO9ET730V0FSKXJSRUHYUKE","A2KW87ZD2ELYNG","3H6W48L9F4B5OEOMH57RM53Z4H1WP0","","484.7000000476837","img/land4.png","74","485.2000000476837","1","1","false","1","1,1,0,0,1,1,1,0,1","",""
"","html-keyboard-response","183","147674","0.0-267.0","3N4BPTXIO9ET730V0FSKXJSRUHYUKE","A2KW87ZD2ELYNG","3H6W48L9F4B5OEOMH57RM53Z4H1WP0","","null","<img src=""img/land4.png"" style=""width:200px; border:14px solid green;"">","null","","","","","","","",""
"","image-keyboard-response","184","148078","0.0-269.0","3N4BPTXIO9ET730V0FSKXJSRUHYUKE","A2KW87ZD2ELYNG","3H6W48L9F4B5OEOMH57RM53Z4H1WP0","","402.80000019073486","img/land4.png","74","403.5","1","1","false","1","1,1,0,0,1,1,1,0,1","",""
"","html-keyboard-response","185","148386","0.0-270.0","3N4BPTXIO9ET730V0FSKXJSRUHYUKE","A2KW87ZD2ELYNG","3H6W48L9F4B5OEOMH57RM53Z4H1WP0","","null","<img src=""img/land4.png"" style=""width:200px; border:14px solid green;"">","null","","","","","","","",""
"","html-keyboard-response","186","150478","0.0-272.0","3N4BPTXIO9ET730V0FSKXJSRUHYUKE","A2KW87ZD2ELYNG","3H6W48L9F4B5OEOMH57RM53Z4H1WP0","","","","","","","","","","","",""
"","image-keyboard-response","187","151482","0.0-273.0","3N4BPTXIO9ET730V0FSKXJSRUHYUKE","A2KW87ZD2ELYNG","3H6W48L9F4B5OEOMH57RM53Z4H1WP0","","","img/land5.png","","1004.4000000953674","-1","0","true","3","1,0.5,0.5,0.5,1,0.5,0.5,0.5,1","",""
"","html-keyboard-response","188","151786","0.0-274.0","3N4BPTXIO9ET730V0FSKXJSRUHYUKE","A2KW87ZD2ELYNG","3H6W48L9F4B5OEOMH57RM53Z4H1WP0","","null","<img src=""img/land5.png"" style=""width:200px;border:14px solid red;"">","null","","","","","","","",""
"","html-keyboard-response","189","154213","0.0-275.0-0.0","3N4BPTXIO9ET730V0FSKXJSRUHYUKE","A2KW87ZD2ELYNG","3H6W48L9F4B5OEOMH57RM53Z4H1WP0","","","","","","","","","","","",""
"","image-keyboard-response","190","154451","0.0-276.0","3N4BPTXIO9ET730V0FSKXJSRUHYUKE","A2KW87ZD2ELYNG","3H6W48L9F4B5OEOMH57RM53Z4H1WP0","","237.70000004768372","img/land6.png","75","238.40000009536743","2","1","false","2","1,0.5,0.5,0.5,1,0.5,0.5,0.5,1","",""
"","html-keyboard-response","191","154754","0.0-277.0","3N4BPTXIO9ET730V0FSKXJSRUHYUKE","A2KW87ZD2ELYNG","3H6W48L9F4B5OEOMH57RM53Z4H1WP0","","null","<img src=""img/land6.png"" style=""width:200px; border:14px solid green;"">","null","","","","","","","",""
"","image-keyboard-response","192","155646","0.0-279.0","3N4BPTXIO9ET730V0FSKXJSRUHYUKE","A2KW87ZD2ELYNG","3H6W48L9F4B5OEOMH57RM53Z4H1WP0","","891.2000000476837","img/land5.png","74","891.7999999523163","1","0","false","3","1,0.5,0.5,0.5,1,0.5,0.5,0.5,1","",""
"","html-keyboard-response","193","155954","0.0-280.0","3N4BPTXIO9ET730V0FSKXJSRUHYUKE","A2KW87ZD2ELYNG","3H6W48L9F4B5OEOMH57RM53Z4H1WP0","","null","<img src=""img/land5.png"" style=""width:200px;border:14px solid red;"">","null","","","","","","","",""
"","image-keyboard-response","194","156272","0.0-282.0","3N4BPTXIO9ET730V0FSKXJSRUHYUKE","A2KW87ZD2ELYNG","3H6W48L9F4B5OEOMH57RM53Z4H1WP0","","316.90000009536743","img/land5.png","76","317.5","3","1","false","3","1,0.5,0.5,0.5,1,0.5,0.5,0.5,1","",""
"","html-keyboard-response","195","156578","0.0-283.0","3N4BPTXIO9ET730V0FSKXJSRUHYUKE","A2KW87ZD2ELYNG","3H6W48L9F4B5OEOMH57RM53Z4H1WP0","","null","<img src=""img/land5.png"" style=""width:200px; border:14px solid green;"">","null","","","","","","","",""
"","image-keyboard-response","196","157094","0.0-285.0","3N4BPTXIO9ET730V0FSKXJSRUHYUKE","A2KW87ZD2ELYNG","3H6W48L9F4B5OEOMH57RM53Z4H1WP0","","514.7999999523163","img/land5.png","76","515.5","3","1","false","3","1,0.5,0.5,0.5,1,0.5,0.5,0.5,1","",""
"","html-keyboard-response","197","157402","0.0-286.0","3N4BPTXIO9ET730V0FSKXJSRUHYUKE","A2KW87ZD2ELYNG","3H6W48L9F4B5OEOMH57RM53Z4H1WP0","","null","<img src=""img/land5.png"" style=""width:200px; border:14px solid green;"">","null","","","","","","","",""
"","image-keyboard-response","198","157851","0.0-288.0","3N4BPTXIO9ET730V0FSKXJSRUHYUKE","A2KW87ZD2ELYNG","3H6W48L9F4B5OEOMH57RM53Z4H1WP0","","448.2999999523163","img/land6.png","75","449","2","1","false","2","1,0.5,0.5,0.5,1,0.5,0.5,0.5,1","",""
"","html-keyboard-response","199","158154","0.0-289.0","3N4BPTXIO9ET730V0FSKXJSRUHYUKE","A2KW87ZD2ELYNG","3H6W48L9F4B5OEOMH57RM53Z4H1WP0","","null","<img src=""img/land6.png"" style=""width:200px; border:14px solid green;"">","null","","","","","","","",""
"","image-keyboard-response","200","158531","0.0-291.0","3N4BPTXIO9ET730V0FSKXJSRUHYUKE","A2KW87ZD2ELYNG","3H6W48L9F4B5OEOMH57RM53Z4H1WP0","","376.10000014305115","img/land6.png","75","376.59999990463257","2","1","false","2","1,0.5,0.5,0.5,1,0.5,0.5,0.5,1","",""
"","html-keyboard-response","201","158834","0.0-292.0","3N4BPTXIO9ET730V0FSKXJSRUHYUKE","A2KW87ZD2ELYNG","3H6W48L9F4B5OEOMH57RM53Z4H1WP0","","null","<img src=""img/land6.png"" style=""width:200px; border:14px solid green;"">","null","","","","","","","",""
"","image-keyboard-response","202","159515","0.0-294.0","3N4BPTXIO9ET730V0FSKXJSRUHYUKE","A2KW87ZD2ELYNG","3H6W48L9F4B5OEOMH57RM53Z4H1WP0","","680.5999999046326","img/land5.png","76","681.2999999523163","3","1","false","3","1,0.5,0.5,0.5,1,0.5,0.5,0.5,1","",""
"","html-keyboard-response","203","159818","0.0-295.0","3N4BPTXIO9ET730V0FSKXJSRUHYUKE","A2KW87ZD2ELYNG","3H6W48L9F4B5OEOMH57RM53Z4H1WP0","","null","<img src=""img/land5.png"" style=""width:200px; border:14px solid green;"">","null","","","","","","","",""
"","image-keyboard-response","204","160235","0.0-297.0","3N4BPTXIO9ET730V0FSKXJSRUHYUKE","A2KW87ZD2ELYNG","3H6W48L9F4B5OEOMH57RM53Z4H1WP0","","416.89999985694885","img/land5.png","76","417.39999985694885","3","1","false","3","1,0.5,0.5,0.5,1,0.5,0.5,0.5,1","",""
"","html-keyboard-response","205","160538","0.0-298.0","3N4BPTXIO9ET730V0FSKXJSRUHYUKE","A2KW87ZD2ELYNG","3H6W48L9F4B5OEOMH57RM53Z4H1WP0","","null","<img src=""img/land5.png"" style=""width:200px; border:14px solid green;"">","null","","","","","","","",""
"","image-keyboard-response","206","161213","0.0-300.0","3N4BPTXIO9ET730V0FSKXJSRUHYUKE","A2KW87ZD2ELYNG","3H6W48L9F4B5OEOMH57RM53Z4H1WP0","","674.7999999523163","img/land1.png","74","675.2999999523163","1","1","false","1","1,0.5,0.5,0.5,1,0.5,0.5,0.5,1","",""
"","html-keyboard-response","207","161522","0.0-301.0","3N4BPTXIO9ET730V0FSKXJSRUHYUKE","A2KW87ZD2ELYNG","3H6W48L9F4B5OEOMH57RM53Z4H1WP0","","null","<img src=""img/land1.png"" style=""width:200px; border:14px solid green;"">","null","","","","","","","",""
"","image-keyboard-response","208","162398","0.0-303.0","3N4BPTXIO9ET730V0FSKXJSRUHYUKE","A2KW87ZD2ELYNG","3H6W48L9F4B5OEOMH57RM53Z4H1WP0","","875.4000000953674","img/land1.png","74","876","1","1","false","1","1,0.5,0.5,0.5,1,0.5,0.5,0.5,1","",""
"","html-keyboard-response","209","162706","0.0-304.0","3N4BPTXIO9ET730V0FSKXJSRUHYUKE","A2KW87ZD2ELYNG","3H6W48L9F4B5OEOMH57RM53Z4H1WP0","","null","<img src=""img/land1.png"" style=""width:200px; border:14px solid green;"">","null","","","","","","","",""
"","image-keyboard-response","210","163461","0.0-306.0","3N4BPTXIO9ET730V0FSKXJSRUHYUKE","A2KW87ZD2ELYNG","3H6W48L9F4B5OEOMH57RM53Z4H1WP0","","754","img/land6.png","75","754.5","2","1","false","2","1,0.5,0.5,0.5,1,0.5,0.5,0.5,1","",""
"","html-keyboard-response","211","163762","0.0-307.0","3N4BPTXIO9ET730V0FSKXJSRUHYUKE","A2KW87ZD2ELYNG","3H6W48L9F4B5OEOMH57RM53Z4H1WP0","","null","<img src=""img/land6.png"" style=""width:200px; border:14px solid green;"">","null","","","","","","","",""
"","image-keyboard-response","212","164439","0.0-309.0","3N4BPTXIO9ET730V0FSKXJSRUHYUKE","A2KW87ZD2ELYNG","3H6W48L9F4B5OEOMH57RM53Z4H1WP0","","676.3999998569489","img/land5.png","76","676.8999998569489","3","1","false","3","1,0.5,0.5,0.5,1,0.5,0.5,0.5,1","",""
"","html-keyboard-response","213","164746","0.0-310.0","3N4BPTXIO9ET730V0FSKXJSRUHYUKE","A2KW87ZD2ELYNG","3H6W48L9F4B5OEOMH57RM53Z4H1WP0","","null","<img src=""img/land5.png"" style=""width:200px; border:14px solid green;"">","null","","","","","","","",""
"","image-keyboard-response","214","165559","0.0-312.0","3N4BPTXIO9ET730V0FSKXJSRUHYUKE","A2KW87ZD2ELYNG","3H6W48L9F4B5OEOMH57RM53Z4H1WP0","","812.6000001430511","img/land6.png","75","813.2999999523163","2","1","false","2","1,0.5,0.5,0.5,1,0.5,0.5,0.5,1","",""
"","html-keyboard-response","215","165866","0.0-313.0","3N4BPTXIO9ET730V0FSKXJSRUHYUKE","A2KW87ZD2ELYNG","3H6W48L9F4B5OEOMH57RM53Z4H1WP0","","null","<img src=""img/land6.png"" style=""width:200px; border:14px solid green;"">","null","","","","","","","",""
"","image-keyboard-response","216","166874","0.0-315.0","3N4BPTXIO9ET730V0FSKXJSRUHYUKE","A2KW87ZD2ELYNG","3H6W48L9F4B5OEOMH57RM53Z4H1WP0","","","img/land5.png","","1008","-1","0","true","3","1,0.5,0.5,0.5,1,0.5,0.5,0.5,1","",""
"","html-keyboard-response","217","167178","0.0-316.0","3N4BPTXIO9ET730V0FSKXJSRUHYUKE","A2KW87ZD2ELYNG","3H6W48L9F4B5OEOMH57RM53Z4H1WP0","","null","<img src=""img/land5.png"" style=""width:200px;border:14px solid red;"">","null","","","","","","","",""
"","html-keyboard-response","218","169419","0.0-317.0-0.0","3N4BPTXIO9ET730V0FSKXJSRUHYUKE","A2KW87ZD2ELYNG","3H6W48L9F4B5OEOMH57RM53Z4H1WP0","","","","","","","","","","","",""
"","image-keyboard-response","219","170355","0.0-318.0","3N4BPTXIO9ET730V0FSKXJSRUHYUKE","A2KW87ZD2ELYNG","3H6W48L9F4B5OEOMH57RM53Z4H1WP0","","935.5","img/land5.png","76","936.1999998092651","3","1","false","3","1,0.5,0.5,0.5,1,0.5,0.5,0.5,1","",""
"","html-keyboard-response","220","170658","0.0-319.0","3N4BPTXIO9ET730V0FSKXJSRUHYUKE","A2KW87ZD2ELYNG","3H6W48L9F4B5OEOMH57RM53Z4H1WP0","","null","<img src=""img/land5.png"" style=""width:200px; border:14px solid green;"">","null","","","","","","","",""
"","image-keyboard-response","221","171042","0.0-321.0","3N4BPTXIO9ET730V0FSKXJSRUHYUKE","A2KW87ZD2ELYNG","3H6W48L9F4B5OEOMH57RM53Z4H1WP0","","383","img/land5.png","76","383.7000000476837","3","1","false","3","1,0.5,0.5,0.5,1,0.5,0.5,0.5,1","",""
"","html-keyboard-response","222","171346","0.0-322.0","3N4BPTXIO9ET730V0FSKXJSRUHYUKE","A2KW87ZD2ELYNG","3H6W48L9F4B5OEOMH57RM53Z4H1WP0","","null","<img src=""img/land5.png"" style=""width:200px; border:14px solid green;"">","null","","","","","","","",""
"","image-keyboard-response","223","172233","0.0-324.0","3N4BPTXIO9ET730V0FSKXJSRUHYUKE","A2KW87ZD2ELYNG","3H6W48L9F4B5OEOMH57RM53Z4H1WP0","","886.1000001430511","img/land6.png","75","886.6999998092651","2","1","false","2","1,0.5,0.5,0.5,1,0.5,0.5,0.5,1","",""
"","html-keyboard-response","224","172538","0.0-325.0","3N4BPTXIO9ET730V0FSKXJSRUHYUKE","A2KW87ZD2ELYNG","3H6W48L9F4B5OEOMH57RM53Z4H1WP0","","null","<img src=""img/land6.png"" style=""width:200px; border:14px solid green;"">","null","","","","","","","",""
"","image-keyboard-response","225","172879","0.0-327.0","3N4BPTXIO9ET730V0FSKXJSRUHYUKE","A2KW87ZD2ELYNG","3H6W48L9F4B5OEOMH57RM53Z4H1WP0","","339.90000009536743","img/land6.png","75","340.5","2","1","false","2","1,0.5,0.5,0.5,1,0.5,0.5,0.5,1","",""
"","html-keyboard-response","226","173186","0.0-328.0","3N4BPTXIO9ET730V0FSKXJSRUHYUKE","A2KW87ZD2ELYNG","3H6W48L9F4B5OEOMH57RM53Z4H1WP0","","null","<img src=""img/land6.png"" style=""width:200px; border:14px solid green;"">","null","","","","","","","",""
"","image-keyboard-response","227","173812","0.0-330.0","3N4BPTXIO9ET730V0FSKXJSRUHYUKE","A2KW87ZD2ELYNG","3H6W48L9F4B5OEOMH57RM53Z4H1WP0","","625.7999999523163","img/land5.png","76","626.2999999523163","3","1","false","3","1,0.5,0.5,0.5,1,0.5,0.5,0.5,1","",""
"","html-keyboard-response","228","174114","0.0-331.0","3N4BPTXIO9ET730V0FSKXJSRUHYUKE","A2KW87ZD2ELYNG","3H6W48L9F4B5OEOMH57RM53Z4H1WP0","","null","<img src=""img/land5.png"" style=""width:200px; border:14px solid green;"">","null","","","","","","","",""
"","image-keyboard-response","229","174807","0.0-333.0","3N4BPTXIO9ET730V0FSKXJSRUHYUKE","A2KW87ZD2ELYNG","3H6W48L9F4B5OEOMH57RM53Z4H1WP0","","692.5","img/land1.png","74","693","1","1","false","1","1,0.5,0.5,0.5,1,0.5,0.5,0.5,1","",""
"","html-keyboard-response","230","175114","0.0-334.0","3N4BPTXIO9ET730V0FSKXJSRUHYUKE","A2KW87ZD2ELYNG","3H6W48L9F4B5OEOMH57RM53Z4H1WP0","","null","<img src=""img/land1.png"" style=""width:200px; border:14px solid green;"">","null","","","","","","","",""
"","image-keyboard-response","231","175687","0.0-336.0","3N4BPTXIO9ET730V0FSKXJSRUHYUKE","A2KW87ZD2ELYNG","3H6W48L9F4B5OEOMH57RM53Z4H1WP0","","571.9000000953674","img/land6.png","75","572.5","2","1","false","2","1,0.5,0.5,0.5,1,0.5,0.5,0.5,1","",""
"","html-keyboard-response","232","175994","0.0-337.0","3N4BPTXIO9ET730V0FSKXJSRUHYUKE","A2KW87ZD2ELYNG","3H6W48L9F4B5OEOMH57RM53Z4H1WP0","","null","<img src=""img/land6.png"" style=""width:200px; border:14px solid green;"">","null","","","","","","","",""
"","image-keyboard-response","233","176783","0.0-339.0","3N4BPTXIO9ET730V0FSKXJSRUHYUKE","A2KW87ZD2ELYNG","3H6W48L9F4B5OEOMH57RM53Z4H1WP0","","788.2999999523163","img/land5.png","76","788.8999998569489","3","1","false","3","1,0.5,0.5,0.5,1,0.5,0.5,0.5,1","",""
"","html-keyboard-response","234","177090","0.0-340.0","3N4BPTXIO9ET730V0FSKXJSRUHYUKE","A2KW87ZD2ELYNG","3H6W48L9F4B5OEOMH57RM53Z4H1WP0","","null","<img src=""img/land5.png"" style=""width:200px; border:14px solid green;"">","null","","","","","","","",""
"","image-keyboard-response","235","177886","0.0-342.0","3N4BPTXIO9ET730V0FSKXJSRUHYUKE","A2KW87ZD2ELYNG","3H6W48L9F4B5OEOMH57RM53Z4H1WP0","","795.5","img/land1.png","74","795.9000000953674","1","1","false","1","1,0.5,0.5,0.5,1,0.5,0.5,0.5,1","",""
"","html-keyboard-response","236","178194","0.0-343.0","3N4BPTXIO9ET730V0FSKXJSRUHYUKE","A2KW87ZD2ELYNG","3H6W48L9F4B5OEOMH57RM53Z4H1WP0","","null","<img src=""img/land1.png"" style=""width:200px; border:14px solid green;"">","null","","","","","","","",""
"","image-keyboard-response","237","178563","0.0-345.0","3N4BPTXIO9ET730V0FSKXJSRUHYUKE","A2KW87ZD2ELYNG","3H6W48L9F4B5OEOMH57RM53Z4H1WP0","","367.90000009536743","img/land1.png","74","368.40000009536743","1","1","false","1","1,0.5,0.5,0.5,1,0.5,0.5,0.5,1","",""
"","html-keyboard-response","238","178866","0.0-346.0","3N4BPTXIO9ET730V0FSKXJSRUHYUKE","A2KW87ZD2ELYNG","3H6W48L9F4B5OEOMH57RM53Z4H1WP0","","null","<img src=""img/land1.png"" style=""width:200px; border:14px solid green;"">","null","","","","","","","",""
"","image-keyboard-response","239","179452","0.0-348.0","3N4BPTXIO9ET730V0FSKXJSRUHYUKE","A2KW87ZD2ELYNG","3H6W48L9F4B5OEOMH57RM53Z4H1WP0","","585.5999999046326","img/land6.png","75","586","2","1","false","2","1,0.5,0.5,0.5,1,0.5,0.5,0.5,1","",""
"","html-keyboard-response","240","179754","0.0-349.0","3N4BPTXIO9ET730V0FSKXJSRUHYUKE","A2KW87ZD2ELYNG","3H6W48L9F4B5OEOMH57RM53Z4H1WP0","","null","<img src=""img/land6.png"" style=""width:200px; border:14px solid green;"">","null","","","","","","","",""
"","image-keyboard-response","241","180094","0.0-351.0","3N4BPTXIO9ET730V0FSKXJSRUHYUKE","A2KW87ZD2ELYNG","3H6W48L9F4B5OEOMH57RM53Z4H1WP0","","339.59999990463257","img/land6.png","75","340.09999990463257","2","1","false","2","1,0.5,0.5,0.5,1,0.5,0.5,0.5,1","",""
"","html-keyboard-response","242","180402","0.0-352.0","3N4BPTXIO9ET730V0FSKXJSRUHYUKE","A2KW87ZD2ELYNG","3H6W48L9F4B5OEOMH57RM53Z4H1WP0","","null","<img src=""img/land6.png"" style=""width:200px; border:14px solid green;"">","null","","","","","","","",""
"","image-keyboard-response","243","180662","0.0-354.0","3N4BPTXIO9ET730V0FSKXJSRUHYUKE","A2KW87ZD2ELYNG","3H6W48L9F4B5OEOMH57RM53Z4H1WP0","","259.2999999523163","img/land6.png","75","259.89999985694885","2","1","false","2","1,0.5,0.5,0.5,1,0.5,0.5,0.5,1","",""
"","html-keyboard-response","244","180970","0.0-355.0","3N4BPTXIO9ET730V0FSKXJSRUHYUKE","A2KW87ZD2ELYNG","3H6W48L9F4B5OEOMH57RM53Z4H1WP0","","null","<img src=""img/land6.png"" style=""width:200px; border:14px solid green;"">","null","","","","","","","",""
"","image-keyboard-response","245","181304","0.0-357.0","3N4BPTXIO9ET730V0FSKXJSRUHYUKE","A2KW87ZD2ELYNG","3H6W48L9F4B5OEOMH57RM53Z4H1WP0","","333.59999990463257","img/land6.png","75","334.09999990463257","2","1","false","2","1,0.5,0.5,0.5,1,0.5,0.5,0.5,1","",""
"","html-keyboard-response","246","181610","0.0-358.0","3N4BPTXIO9ET730V0FSKXJSRUHYUKE","A2KW87ZD2ELYNG","3H6W48L9F4B5OEOMH57RM53Z4H1WP0","","null","<img src=""img/land6.png"" style=""width:200px; border:14px solid green;"">","null","","","","","","","",""
"","image-keyboard-response","247","181804","0.0-360.0","3N4BPTXIO9ET730V0FSKXJSRUHYUKE","A2KW87ZD2ELYNG","3H6W48L9F4B5OEOMH57RM53Z4H1WP0","","193.40000009536743","img/land6.png","75","194","2","1","false","2","1,0.5,0.5,0.5,1,0.5,0.5,0.5,1","",""
"","html-keyboard-response","248","182106","0.0-361.0","3N4BPTXIO9ET730V0FSKXJSRUHYUKE","A2KW87ZD2ELYNG","3H6W48L9F4B5OEOMH57RM53Z4H1WP0","","null","<img src=""img/land6.png"" style=""width:200px; border:14px solid green;"">","null","","","","","","","",""
"","image-keyboard-response","249","182888","0.0-363.0","3N4BPTXIO9ET730V0FSKXJSRUHYUKE","A2KW87ZD2ELYNG","3H6W48L9F4B5OEOMH57RM53Z4H1WP0","","781","img/land1.png","74","781.5","1","1","false","1","1,0.5,0.5,0.5,1,0.5,0.5,0.5,1","",""
"","html-keyboard-response","250","183194","0.0-364.0","3N4BPTXIO9ET730V0FSKXJSRUHYUKE","A2KW87ZD2ELYNG","3H6W48L9F4B5OEOMH57RM53Z4H1WP0","","null","<img src=""img/land1.png"" style=""width:200px; border:14px solid green;"">","null","","","","","","","",""
"","image-keyboard-response","251","183781","0.0-366.0","3N4BPTXIO9ET730V0FSKXJSRUHYUKE","A2KW87ZD2ELYNG","3H6W48L9F4B5OEOMH57RM53Z4H1WP0","","585.7999999523163","img/land6.png","75","586.4000000953674","2","1","false","2","1,0.5,0.5,0.5,1,0.5,0.5,0.5,1","",""
"","html-keyboard-response","252","184082","0.0-367.0","3N4BPTXIO9ET730V0FSKXJSRUHYUKE","A2KW87ZD2ELYNG","3H6W48L9F4B5OEOMH57RM53Z4H1WP0","","null","<img src=""img/land6.png"" style=""width:200px; border:14px solid green;"">","null","","","","","","","",""
"","image-keyboard-response","253","184670","0.0-369.0","3N4BPTXIO9ET730V0FSKXJSRUHYUKE","A2KW87ZD2ELYNG","3H6W48L9F4B5OEOMH57RM53Z4H1WP0","","587.3999998569489","img/land5.png","76","588","3","1","false","3","1,0.5,0.5,0.5,1,0.5,0.5,0.5,1","",""
"","html-keyboard-response","254","184978","0.0-370.0","3N4BPTXIO9ET730V0FSKXJSRUHYUKE","A2KW87ZD2ELYNG","3H6W48L9F4B5OEOMH57RM53Z4H1WP0","","null","<img src=""img/land5.png"" style=""width:200px; border:14px solid green;"">","null","","","","","","","",""
"","image-keyboard-response","255","185817","0.0-372.0","3N4BPTXIO9ET730V0FSKXJSRUHYUKE","A2KW87ZD2ELYNG","3H6W48L9F4B5OEOMH57RM53Z4H1WP0","","838.5999999046326","img/land1.png","74","839.2999999523163","1","1","false","1","1,0.5,0.5,0.5,1,0.5,0.5,0.5,1","",""
"","html-keyboard-response","256","186122","0.0-373.0","3N4BPTXIO9ET730V0FSKXJSRUHYUKE","A2KW87ZD2ELYNG","3H6W48L9F4B5OEOMH57RM53Z4H1WP0","","null","<img src=""img/land1.png"" style=""width:200px; border:14px solid green;"">","null","","","","","","","",""
"","image-keyboard-response","257","186829","0.0-375.0","3N4BPTXIO9ET730V0FSKXJSRUHYUKE","A2KW87ZD2ELYNG","3H6W48L9F4B5OEOMH57RM53Z4H1WP0","","706.4000000953674","img/land5.png","76","707","3","1","false","3","1,0.5,0.5,0.5,1,0.5,0.5,0.5,1","",""
"","html-keyboard-response","258","187130","0.0-376.0","3N4BPTXIO9ET730V0FSKXJSRUHYUKE","A2KW87ZD2ELYNG","3H6W48L9F4B5OEOMH57RM53Z4H1WP0","","null","<img src=""img/land5.png"" style=""width:200px; border:14px solid green;"">","null","","","","","","","",""
"","image-keyboard-response","259","188095","0.0-378.0","3N4BPTXIO9ET730V0FSKXJSRUHYUKE","A2KW87ZD2ELYNG","3H6W48L9F4B5OEOMH57RM53Z4H1WP0","","964","img/land6.png","74","964.6999998092651","1","1","false","2","1,0.5,0.5,0.5,1,0.5,0.5,0.5,1","",""
"","html-keyboard-response","260","188402","0.0-379.0","3N4BPTXIO9ET730V0FSKXJSRUHYUKE","A2KW87ZD2ELYNG","3H6W48L9F4B5OEOMH57RM53Z4H1WP0","","null","<img src=""img/land6.png"" style=""width:200px; border:14px solid green;"">","null","","","","","","","",""
"","image-keyboard-response","261","189410","0.0-381.0","3N4BPTXIO9ET730V0FSKXJSRUHYUKE","A2KW87ZD2ELYNG","3H6W48L9F4B5OEOMH57RM53Z4H1WP0","","","img/land1.png","","1007.9000000953674","-1","0","true","1","1,0.5,0.5,0.5,1,0.5,0.5,0.5,1","",""
"","html-keyboard-response","262","189714","0.0-382.0","3N4BPTXIO9ET730V0FSKXJSRUHYUKE","A2KW87ZD2ELYNG","3H6W48L9F4B5OEOMH57RM53Z4H1WP0","","null","<img src=""img/land1.png"" style=""width:200px;border:14px solid red;"">","null","","","","","","","",""
"","html-keyboard-response","263","192422","0.0-383.0-0.0","3N4BPTXIO9ET730V0FSKXJSRUHYUKE","A2KW87ZD2ELYNG","3H6W48L9F4B5OEOMH57RM53Z4H1WP0","","","","","","","","","","","",""
"","image-keyboard-response","264","192992","0.0-384.0","3N4BPTXIO9ET730V0FSKXJSRUHYUKE","A2KW87ZD2ELYNG","3H6W48L9F4B5OEOMH57RM53Z4H1WP0","","569.1000001430511","img/land1.png","75","570.2000000476837","2","1","false","1","1,0.5,0.5,0.5,1,0.5,0.5,0.5,1","",""
"","html-keyboard-response","265","193298","0.0-385.0","3N4BPTXIO9ET730V0FSKXJSRUHYUKE","A2KW87ZD2ELYNG","3H6W48L9F4B5OEOMH57RM53Z4H1WP0","","null","<img src=""img/land1.png"" style=""width:200px; border:14px solid green;"">","null","","","","","","","",""
"","image-keyboard-response","266","193936","0.0-387.0","3N4BPTXIO9ET730V0FSKXJSRUHYUKE","A2KW87ZD2ELYNG","3H6W48L9F4B5OEOMH57RM53Z4H1WP0","","636.7999999523163","img/land5.png","76","637.5","3","1","false","3","1,0.5,0.5,0.5,1,0.5,0.5,0.5,1","",""
"","html-keyboard-response","267","194242","0.0-388.0","3N4BPTXIO9ET730V0FSKXJSRUHYUKE","A2KW87ZD2ELYNG","3H6W48L9F4B5OEOMH57RM53Z4H1WP0","","null","<img src=""img/land5.png"" style=""width:200px; border:14px solid green;"">","null","","","","","","","",""
"","image-keyboard-response","268","194615","0.0-390.0","3N4BPTXIO9ET730V0FSKXJSRUHYUKE","A2KW87ZD2ELYNG","3H6W48L9F4B5OEOMH57RM53Z4H1WP0","","372.5","img/land5.png","76","373.2000000476837","3","1","false","3","1,0.5,0.5,0.5,1,0.5,0.5,0.5,1","",""
"","html-keyboard-response","269","194922","0.0-391.0","3N4BPTXIO9ET730V0FSKXJSRUHYUKE","A2KW87ZD2ELYNG","3H6W48L9F4B5OEOMH57RM53Z4H1WP0","","null","<img src=""img/land5.png"" style=""width:200px; border:14px solid green;"">","null","","","","","","","",""
"","image-keyboard-response","270","195471","0.0-393.0","3N4BPTXIO9ET730V0FSKXJSRUHYUKE","A2KW87ZD2ELYNG","3H6W48L9F4B5OEOMH57RM53Z4H1WP0","","548.6000001430511","img/land1.png","75","549.0999999046326","2","1","false","1","1,0.5,0.5,0.5,1,0.5,0.5,0.5,1","",""
"","html-keyboard-response","271","195778","0.0-394.0","3N4BPTXIO9ET730V0FSKXJSRUHYUKE","A2KW87ZD2ELYNG","3H6W48L9F4B5OEOMH57RM53Z4H1WP0","","null","<img src=""img/land1.png"" style=""width:200px; border:14px solid green;"">","null","","","","","","","",""
"","image-keyboard-response","272","196134","0.0-396.0","3N4BPTXIO9ET730V0FSKXJSRUHYUKE","A2KW87ZD2ELYNG","3H6W48L9F4B5OEOMH57RM53Z4H1WP0","","355.2000000476837","img/land1.png","75","355.7999999523163","2","1","false","1","1,0.5,0.5,0.5,1,0.5,0.5,0.5,1","",""
"","html-keyboard-response","273","196442","0.0-397.0","3N4BPTXIO9ET730V0FSKXJSRUHYUKE","A2KW87ZD2ELYNG","3H6W48L9F4B5OEOMH57RM53Z4H1WP0","","null","<img src=""img/land1.png"" style=""width:200px; border:14px solid green;"">","null","","","","","","","",""
"","image-keyboard-response","274","196793","0.0-399.0","3N4BPTXIO9ET730V0FSKXJSRUHYUKE","A2KW87ZD2ELYNG","3H6W48L9F4B5OEOMH57RM53Z4H1WP0","","349.69999980926514","img/land1.png","75","350.60000014305115","2","1","false","1","1,0.5,0.5,0.5,1,0.5,0.5,0.5,1","",""
"","html-keyboard-response","275","197098","0.0-400.0","3N4BPTXIO9ET730V0FSKXJSRUHYUKE","A2KW87ZD2ELYNG","3H6W48L9F4B5OEOMH57RM53Z4H1WP0","","null","<img src=""img/land1.png"" style=""width:200px; border:14px solid green;"">","null","","","","","","","",""
"","image-keyboard-response","276","197747","0.0-402.0","3N4BPTXIO9ET730V0FSKXJSRUHYUKE","A2KW87ZD2ELYNG","3H6W48L9F4B5OEOMH57RM53Z4H1WP0","","648.2999999523163","img/land6.png","74","648.8999998569489","1","1","false","2","1,0.5,0.5,0.5,1,0.5,0.5,0.5,1","",""
"","html-keyboard-response","277","198050","0.0-403.0","3N4BPTXIO9ET730V0FSKXJSRUHYUKE","A2KW87ZD2ELYNG","3H6W48L9F4B5OEOMH57RM53Z4H1WP0","","null","<img src=""img/land6.png"" style=""width:200px; border:14px solid green;"">","null","","","","","","","",""
"","image-keyboard-response","278","198416","0.0-405.0","3N4BPTXIO9ET730V0FSKXJSRUHYUKE","A2KW87ZD2ELYNG","3H6W48L9F4B5OEOMH57RM53Z4H1WP0","","365.5","img/land6.png","74","366.09999990463257","1","0","false","2","1,0.5,0.5,0.5,1,0.5,0.5,0.5,1","",""
"","html-keyboard-response","279","198722","0.0-406.0","3N4BPTXIO9ET730V0FSKXJSRUHYUKE","A2KW87ZD2ELYNG","3H6W48L9F4B5OEOMH57RM53Z4H1WP0","","null","<img src=""img/land6.png"" style=""width:200px;border:14px solid red;"">","null","","","","","","","",""
"","image-keyboard-response","280","199112","0.0-408.0","3N4BPTXIO9ET730V0FSKXJSRUHYUKE","A2KW87ZD2ELYNG","3H6W48L9F4B5OEOMH57RM53Z4H1WP0","","389.69999980926514","img/land6.png","74","390.2000000476837","1","1","false","2","1,0.5,0.5,0.5,1,0.5,0.5,0.5,1","",""
"","html-keyboard-response","281","199418","0.0-409.0","3N4BPTXIO9ET730V0FSKXJSRUHYUKE","A2KW87ZD2ELYNG","3H6W48L9F4B5OEOMH57RM53Z4H1WP0","","null","<img src=""img/land6.png"" style=""width:200px; border:14px solid green;"">","null","","","","","","","",""
"","image-keyboard-response","282","199812","0.0-411.0","3N4BPTXIO9ET730V0FSKXJSRUHYUKE","A2KW87ZD2ELYNG","3H6W48L9F4B5OEOMH57RM53Z4H1WP0","","393.59999990463257","img/land6.png","74","394.2999999523163","1","1","false","2","1,0.5,0.5,0.5,1,0.5,0.5,0.5,1","",""
"","html-keyboard-response","283","200114","0.0-412.0","3N4BPTXIO9ET730V0FSKXJSRUHYUKE","A2KW87ZD2ELYNG","3H6W48L9F4B5OEOMH57RM53Z4H1WP0","","null","<img src=""img/land6.png"" style=""width:200px; border:14px solid green;"">","null","","","","","","","",""
"","image-keyboard-response","284","200773","0.0-414.0","3N4BPTXIO9ET730V0FSKXJSRUHYUKE","A2KW87ZD2ELYNG","3H6W48L9F4B5OEOMH57RM53Z4H1WP0","","658.5","img/land5.png","76","659.0999999046326","3","1","false","3","1,0.5,0.5,0.5,1,0.5,0.5,0.5,1","",""
"","html-keyboard-response","285","201082","0.0-415.0","3N4BPTXIO9ET730V0FSKXJSRUHYUKE","A2KW87ZD2ELYNG","3H6W48L9F4B5OEOMH57RM53Z4H1WP0","","null","<img src=""img/land5.png"" style=""width:200px; border:14px solid green;"">","null","","","","","","","",""
"","image-keyboard-response","286","201710","0.0-417.0","3N4BPTXIO9ET730V0FSKXJSRUHYUKE","A2KW87ZD2ELYNG","3H6W48L9F4B5OEOMH57RM53Z4H1WP0","","627.4000000953674","img/land1.png","75","628.0999999046326","2","1","false","1","1,0.5,0.5,0.5,1,0.5,0.5,0.5,1","",""
"","html-keyboard-response","287","202018","0.0-418.0","3N4BPTXIO9ET730V0FSKXJSRUHYUKE","A2KW87ZD2ELYNG","3H6W48L9F4B5OEOMH57RM53Z4H1WP0","","null","<img src=""img/land1.png"" style=""width:200px; border:14px solid green;"">","null","","","","","","","",""
"","image-keyboard-response","288","202288","0.0-420.0","3N4BPTXIO9ET730V0FSKXJSRUHYUKE","A2KW87ZD2ELYNG","3H6W48L9F4B5OEOMH57RM53Z4H1WP0","","269","img/land5.png","75","269.59999990463257","2","0","false","3","1,0.5,0.5,0.5,1,0.5,0.5,0.5,1","",""
"","html-keyboard-response","289","202594","0.0-421.0","3N4BPTXIO9ET730V0FSKXJSRUHYUKE","A2KW87ZD2ELYNG","3H6W48L9F4B5OEOMH57RM53Z4H1WP0","","null","<img src=""img/land5.png"" style=""width:200px;border:14px solid red;"">","null","","","","","","","",""
"","image-keyboard-response","290","202916","0.0-423.0","3N4BPTXIO9ET730V0FSKXJSRUHYUKE","A2KW87ZD2ELYNG","3H6W48L9F4B5OEOMH57RM53Z4H1WP0","","321.59999990463257","img/land6.png","76","322.09999990463257","3","0","false","2","1,0.5,0.5,0.5,1,0.5,0.5,0.5,1","",""
"","html-keyboard-response","291","203218","0.0-424.0","3N4BPTXIO9ET730V0FSKXJSRUHYUKE","A2KW87ZD2ELYNG","3H6W48L9F4B5OEOMH57RM53Z4H1WP0","","null","<img src=""img/land6.png"" style=""width:200px;border:14px solid red;"">","null","","","","","","","",""
"","image-keyboard-response","292","204114","0.0-426.0","3N4BPTXIO9ET730V0FSKXJSRUHYUKE","A2KW87ZD2ELYNG","3H6W48L9F4B5OEOMH57RM53Z4H1WP0","","895.5","img/land1.png","74","896","1","1","false","1","1,0.5,0.5,0.5,1,0.5,0.5,0.5,1","",""
"","html-keyboard-response","293","204418","0.0-427.0","3N4BPTXIO9ET730V0FSKXJSRUHYUKE","A2KW87ZD2ELYNG","3H6W48L9F4B5OEOMH57RM53Z4H1WP0","","null","<img src=""img/land1.png"" style=""width:200px; border:14px solid green;"">","null","","","","","","","",""
"","image-keyboard-response","294","205105","0.0-429.0","3N4BPTXIO9ET730V0FSKXJSRUHYUKE","A2KW87ZD2ELYNG","3H6W48L9F4B5OEOMH57RM53Z4H1WP0","","686.5","img/land6.png","75","687.0999999046326","2","1","false","2","1,0.5,0.5,0.5,1,0.5,0.5,0.5,1","",""
"","html-keyboard-response","295","205410","0.0-430.0","3N4BPTXIO9ET730V0FSKXJSRUHYUKE","A2KW87ZD2ELYNG","3H6W48L9F4B5OEOMH57RM53Z4H1WP0","","null","<img src=""img/land6.png"" style=""width:200px; border:14px solid green;"">","null","","","","","","","",""
"","image-keyboard-response","296","206049","0.0-432.0","3N4BPTXIO9ET730V0FSKXJSRUHYUKE","A2KW87ZD2ELYNG","3H6W48L9F4B5OEOMH57RM53Z4H1WP0","","638.2999999523163","img/land1.png","74","639","1","1","false","1","1,0.5,0.5,0.5,1,0.5,0.5,0.5,1","",""
"","html-keyboard-response","297","206354","0.0-433.0","3N4BPTXIO9ET730V0FSKXJSRUHYUKE","A2KW87ZD2ELYNG","3H6W48L9F4B5OEOMH57RM53Z4H1WP0","","null","<img src=""img/land1.png"" style=""width:200px; border:14px solid green;"">","null","","","","","","","",""
"","image-keyboard-response","298","206776","0.0-435.0","3N4BPTXIO9ET730V0FSKXJSRUHYUKE","A2KW87ZD2ELYNG","3H6W48L9F4B5OEOMH57RM53Z4H1WP0","","421.7000000476837","img/land1.png","74","422.2999999523163","1","1","false","1","1,0.5,0.5,0.5,1,0.5,0.5,0.5,1","",""
"","html-keyboard-response","299","207082","0.0-436.0","3N4BPTXIO9ET730V0FSKXJSRUHYUKE","A2KW87ZD2ELYNG","3H6W48L9F4B5OEOMH57RM53Z4H1WP0","","null","<img src=""img/land1.png"" style=""width:200px; border:14px solid green;"">","null","","","","","","","",""
"","image-keyboard-response","300","207564","0.0-438.0","3N4BPTXIO9ET730V0FSKXJSRUHYUKE","A2KW87ZD2ELYNG","3H6W48L9F4B5OEOMH57RM53Z4H1WP0","","481.2999999523163","img/land6.png","75","481.90000009536743","2","1","false","2","1,0.5,0.5,0.5,1,0.5,0.5,0.5,1","",""
"","html-keyboard-response","301","207866","0.0-439.0","3N4BPTXIO9ET730V0FSKXJSRUHYUKE","A2KW87ZD2ELYNG","3H6W48L9F4B5OEOMH57RM53Z4H1WP0","","null","<img src=""img/land6.png"" style=""width:200px; border:14px solid green;"">","null","","","","","","","",""
"","image-keyboard-response","302","208464","0.0-441.0","3N4BPTXIO9ET730V0FSKXJSRUHYUKE","A2KW87ZD2ELYNG","3H6W48L9F4B5OEOMH57RM53Z4H1WP0","","596.5999999046326","img/land5.png","76","597.3999998569489","3","1","false","3","1,0.5,0.5,0.5,1,0.5,0.5,0.5,1","",""
"","html-keyboard-response","303","208770","0.0-442.0","3N4BPTXIO9ET730V0FSKXJSRUHYUKE","A2KW87ZD2ELYNG","3H6W48L9F4B5OEOMH57RM53Z4H1WP0","","null","<img src=""img/land5.png"" style=""width:200px; border:14px solid green;"">","null","","","","","","","",""
"","image-keyboard-response","304","209160","0.0-444.0","3N4BPTXIO9ET730V0FSKXJSRUHYUKE","A2KW87ZD2ELYNG","3H6W48L9F4B5OEOMH57RM53Z4H1WP0","","389.2000000476837","img/land5.png","76","390","3","1","false","3","1,0.5,0.5,0.5,1,0.5,0.5,0.5,1","",""
"","html-keyboard-response","305","209466","0.0-445.0","3N4BPTXIO9ET730V0FSKXJSRUHYUKE","A2KW87ZD2ELYNG","3H6W48L9F4B5OEOMH57RM53Z4H1WP0","","null","<img src=""img/land5.png"" style=""width:200px; border:14px solid green;"">","null","","","","","","","",""
"","image-keyboard-response","306","210253","0.0-447.0","3N4BPTXIO9ET730V0FSKXJSRUHYUKE","A2KW87ZD2ELYNG","3H6W48L9F4B5OEOMH57RM53Z4H1WP0","","786.1000001430511","img/land1.png","74","786.7000000476837","1","1","false","1","1,0.5,0.5,0.5,1,0.5,0.5,0.5,1","",""
"","html-keyboard-response","307","210554","0.0-448.0","3N4BPTXIO9ET730V0FSKXJSRUHYUKE","A2KW87ZD2ELYNG","3H6W48L9F4B5OEOMH57RM53Z4H1WP0","","null","<img src=""img/land1.png"" style=""width:200px; border:14px solid green;"">","null","","","","","","","",""
"","image-keyboard-response","308","211061","0.0-450.0","3N4BPTXIO9ET730V0FSKXJSRUHYUKE","A2KW87ZD2ELYNG","3H6W48L9F4B5OEOMH57RM53Z4H1WP0","","506.30000019073486","img/land6.png","75","507.10000014305115","2","1","false","2","1,0.5,0.5,0.5,1,0.5,0.5,0.5,1","",""
"","html-keyboard-response","309","211370","0.0-451.0","3N4BPTXIO9ET730V0FSKXJSRUHYUKE","A2KW87ZD2ELYNG","3H6W48L9F4B5OEOMH57RM53Z4H1WP0","","null","<img src=""img/land6.png"" style=""width:200px; border:14px solid green;"">","null","","","","","","","",""
"","image-keyboard-response","310","211930","0.0-453.0","3N4BPTXIO9ET730V0FSKXJSRUHYUKE","A2KW87ZD2ELYNG","3H6W48L9F4B5OEOMH57RM53Z4H1WP0","","559.7000000476837","img/land5.png","76","560.3999998569489","3","1","false","3","1,0.5,0.5,0.5,1,0.5,0.5,0.5,1","",""
"","html-keyboard-response","311","212234","0.0-454.0","3N4BPTXIO9ET730V0FSKXJSRUHYUKE","A2KW87ZD2ELYNG","3H6W48L9F4B5OEOMH57RM53Z4H1WP0","","null","<img src=""img/land5.png"" style=""width:200px; border:14px solid green;"">","null","","","","","","","",""
"","image-keyboard-response","312","213142","0.0-456.0","3N4BPTXIO9ET730V0FSKXJSRUHYUKE","A2KW87ZD2ELYNG","3H6W48L9F4B5OEOMH57RM53Z4H1WP0","","907","img/land1.png","74","907.7999999523163","1","1","false","1","1,0.5,0.5,0.5,1,0.5,0.5,0.5,1","",""
"","html-keyboard-response","313","213450","0.0-457.0","3N4BPTXIO9ET730V0FSKXJSRUHYUKE","A2KW87ZD2ELYNG","3H6W48L9F4B5OEOMH57RM53Z4H1WP0","","null","<img src=""img/land1.png"" style=""width:200px; border:14px solid green;"">","null","","","","","","","",""
"","image-keyboard-response","314","213849","0.0-459.0","3N4BPTXIO9ET730V0FSKXJSRUHYUKE","A2KW87ZD2ELYNG","3H6W48L9F4B5OEOMH57RM53Z4H1WP0","","397.7999999523163","img/land1.png","74","398.59999990463257","1","1","false","1","1,0.5,0.5,0.5,1,0.5,0.5,0.5,1","",""
"","html-keyboard-response","315","214154","0.0-460.0","3N4BPTXIO9ET730V0FSKXJSRUHYUKE","A2KW87ZD2ELYNG","3H6W48L9F4B5OEOMH57RM53Z4H1WP0","","null","<img src=""img/land1.png"" style=""width:200px; border:14px solid green;"">","null","","","","","","","",""
"","image-keyboard-response","316","214796","0.0-462.0","3N4BPTXIO9ET730V0FSKXJSRUHYUKE","A2KW87ZD2ELYNG","3H6W48L9F4B5OEOMH57RM53Z4H1WP0","","641.0999999046326","img/land6.png","75","641.7000000476837","2","1","false","2","1,0.5,0.5,0.5,1,0.5,0.5,0.5,1","",""
"","html-keyboard-response","317","215098","0.0-463.0","3N4BPTXIO9ET730V0FSKXJSRUHYUKE","A2KW87ZD2ELYNG","3H6W48L9F4B5OEOMH57RM53Z4H1WP0","","null","<img src=""img/land6.png"" style=""width:200px; border:14px solid green;"">","null","","","","","","","",""
"","image-keyboard-response","318","215977","0.0-465.0","3N4BPTXIO9ET730V0FSKXJSRUHYUKE","A2KW87ZD2ELYNG","3H6W48L9F4B5OEOMH57RM53Z4H1WP0","","878.2999999523163","img/land1.png","74","879","1","1","false","1","1,0.5,0.5,0.5,1,0.5,0.5,0.5,1","",""
"","html-keyboard-response","319","216282","0.0-466.0","3N4BPTXIO9ET730V0FSKXJSRUHYUKE","A2KW87ZD2ELYNG","3H6W48L9F4B5OEOMH57RM53Z4H1WP0","","null","<img src=""img/land1.png"" style=""width:200px; border:14px solid green;"">","null","","","","","","","",""
"","image-keyboard-response","320","216711","0.0-468.0","3N4BPTXIO9ET730V0FSKXJSRUHYUKE","A2KW87ZD2ELYNG","3H6W48L9F4B5OEOMH57RM53Z4H1WP0","","428.10000014305115","img/land1.png","74","428.7999999523163","1","1","false","1","1,0.5,0.5,0.5,1,0.5,0.5,0.5,1","",""
"","html-keyboard-response","321","217018","0.0-469.0","3N4BPTXIO9ET730V0FSKXJSRUHYUKE","A2KW87ZD2ELYNG","3H6W48L9F4B5OEOMH57RM53Z4H1WP0","","null","<img src=""img/land1.png"" style=""width:200px; border:14px solid green;"">","null","","","","","","","",""
"","image-keyboard-response","322","217387","0.0-471.0","3N4BPTXIO9ET730V0FSKXJSRUHYUKE","A2KW87ZD2ELYNG","3H6W48L9F4B5OEOMH57RM53Z4H1WP0","","368.10000014305115","img/land1.png","74","368.7000000476837","1","1","false","1","1,0.5,0.5,0.5,1,0.5,0.5,0.5,1","",""
"","html-keyboard-response","323","217690","0.0-472.0","3N4BPTXIO9ET730V0FSKXJSRUHYUKE","A2KW87ZD2ELYNG","3H6W48L9F4B5OEOMH57RM53Z4H1WP0","","null","<img src=""img/land1.png"" style=""width:200px; border:14px solid green;"">","null","","","","","","","",""
"","image-keyboard-response","324","218219","0.0-474.0","3N4BPTXIO9ET730V0FSKXJSRUHYUKE","A2KW87ZD2ELYNG","3H6W48L9F4B5OEOMH57RM53Z4H1WP0","","527.2999999523163","img/land5.png","76","528.3999998569489","3","1","false","3","1,0.5,0.5,0.5,1,0.5,0.5,0.5,1","",""
"","html-keyboard-response","325","218522","0.0-475.0","3N4BPTXIO9ET730V0FSKXJSRUHYUKE","A2KW87ZD2ELYNG","3H6W48L9F4B5OEOMH57RM53Z4H1WP0","","null","<img src=""img/land5.png"" style=""width:200px; border:14px solid green;"">","null","","","","","","","",""
"","image-keyboard-response","326","219136","0.0-477.0","3N4BPTXIO9ET730V0FSKXJSRUHYUKE","A2KW87ZD2ELYNG","3H6W48L9F4B5OEOMH57RM53Z4H1WP0","","612.9000000953674","img/land6.png","75","613.4000000953674","2","1","false","2","1,0.5,0.5,0.5,1,0.5,0.5,0.5,1","",""
"","html-keyboard-response","327","219442","0.0-478.0","3N4BPTXIO9ET730V0FSKXJSRUHYUKE","A2KW87ZD2ELYNG","3H6W48L9F4B5OEOMH57RM53Z4H1WP0","","null","<img src=""img/land6.png"" style=""width:200px; border:14px solid green;"">","null","","","","","","","",""
"","image-keyboard-response","328","220099","0.0-480.0","3N4BPTXIO9ET730V0FSKXJSRUHYUKE","A2KW87ZD2ELYNG","3H6W48L9F4B5OEOMH57RM53Z4H1WP0","","656.7000000476837","img/land1.png","74","657.2999999523163","1","1","false","1","1,0.5,0.5,0.5,1,0.5,0.5,0.5,1","",""
"","html-keyboard-response","329","220402","0.0-481.0","3N4BPTXIO9ET730V0FSKXJSRUHYUKE","A2KW87ZD2ELYNG","3H6W48L9F4B5OEOMH57RM53Z4H1WP0","","null","<img src=""img/land1.png"" style=""width:200px; border:14px solid green;"">","null","","","","","","","",""
"","image-keyboard-response","330","221052","0.0-483.0","3N4BPTXIO9ET730V0FSKXJSRUHYUKE","A2KW87ZD2ELYNG","3H6W48L9F4B5OEOMH57RM53Z4H1WP0","","649.0999999046326","img/land5.png","76","649.6999998092651","3","1","false","3","1,0.5,0.5,0.5,1,0.5,0.5,0.5,1","",""
"","html-keyboard-response","331","221354","0.0-484.0","3N4BPTXIO9ET730V0FSKXJSRUHYUKE","A2KW87ZD2ELYNG","3H6W48L9F4B5OEOMH57RM53Z4H1WP0","","null","<img src=""img/land5.png"" style=""width:200px; border:14px solid green;"">","null","","","","","","","",""
"","image-keyboard-response","332","221973","0.0-486.0","3N4BPTXIO9ET730V0FSKXJSRUHYUKE","A2KW87ZD2ELYNG","3H6W48L9F4B5OEOMH57RM53Z4H1WP0","","618.6000001430511","img/land6.png","75","619.2000000476837","2","1","false","2","1,0.5,0.5,0.5,1,0.5,0.5,0.5,1","",""
"","html-keyboard-response","333","222282","0.0-487.0","3N4BPTXIO9ET730V0FSKXJSRUHYUKE","A2KW87ZD2ELYNG","3H6W48L9F4B5OEOMH57RM53Z4H1WP0","","null","<img src=""img/land6.png"" style=""width:200px; border:14px solid green;"">","null","","","","","","","",""
"","image-keyboard-response","334","222765","0.0-489.0","3N4BPTXIO9ET730V0FSKXJSRUHYUKE","A2KW87ZD2ELYNG","3H6W48L9F4B5OEOMH57RM53Z4H1WP0","","481.90000009536743","img/land6.png","75","482.40000009536743","2","1","false","2","1,0.5,0.5,0.5,1,0.5,0.5,0.5,1","",""
"","html-keyboard-response","335","223066","0.0-490.0","3N4BPTXIO9ET730V0FSKXJSRUHYUKE","A2KW87ZD2ELYNG","3H6W48L9F4B5OEOMH57RM53Z4H1WP0","","null","<img src=""img/land6.png"" style=""width:200px; border:14px solid green;"">","null","","","","","","","",""
"","image-keyboard-response","336","223421","0.0-492.0","3N4BPTXIO9ET730V0FSKXJSRUHYUKE","A2KW87ZD2ELYNG","3H6W48L9F4B5OEOMH57RM53Z4H1WP0","","354","img/land6.png","75","354.69999980926514","2","1","false","2","1,0.5,0.5,0.5,1,0.5,0.5,0.5,1","",""
"","html-keyboard-response","337","223722","0.0-493.0","3N4BPTXIO9ET730V0FSKXJSRUHYUKE","A2KW87ZD2ELYNG","3H6W48L9F4B5OEOMH57RM53Z4H1WP0","","null","<img src=""img/land6.png"" style=""width:200px; border:14px solid green;"">","null","","","","","","","",""
"","image-keyboard-response","338","224466","0.0-495.0","3N4BPTXIO9ET730V0FSKXJSRUHYUKE","A2KW87ZD2ELYNG","3H6W48L9F4B5OEOMH57RM53Z4H1WP0","","743.6000001430511","img/land1.png","74","744.0999999046326","1","1","false","1","1,0.5,0.5,0.5,1,0.5,0.5,0.5,1","",""
"","html-keyboard-response","339","224770","0.0-496.0","3N4BPTXIO9ET730V0FSKXJSRUHYUKE","A2KW87ZD2ELYNG","3H6W48L9F4B5OEOMH57RM53Z4H1WP0","","null","<img src=""img/land1.png"" style=""width:200px; border:14px solid green;"">","null","","","","","","","",""
"","image-keyboard-response","340","225339","0.0-498.0","3N4BPTXIO9ET730V0FSKXJSRUHYUKE","A2KW87ZD2ELYNG","3H6W48L9F4B5OEOMH57RM53Z4H1WP0","","568.1999998092651","img/land5.png","76","568.7999999523163","3","1","false","3","1,0.5,0.5,0.5,1,0.5,0.5,0.5,1","",""
"","html-keyboard-response","341","225642","0.0-499.0","3N4BPTXIO9ET730V0FSKXJSRUHYUKE","A2KW87ZD2ELYNG","3H6W48L9F4B5OEOMH57RM53Z4H1WP0","","null","<img src=""img/land5.png"" style=""width:200px; border:14px solid green;"">","null","","","","","","","",""
"","image-keyboard-response","342","226277","0.0-501.0","3N4BPTXIO9ET730V0FSKXJSRUHYUKE","A2KW87ZD2ELYNG","3H6W48L9F4B5OEOMH57RM53Z4H1WP0","","633.5","img/land5.png","76","634.3000001907349","3","1","false","3","1,0.5,0.5,0.5,1,0.5,0.5,0.5,1","",""
"","html-keyboard-response","343","226578","0.0-502.0","3N4BPTXIO9ET730V0FSKXJSRUHYUKE","A2KW87ZD2ELYNG","3H6W48L9F4B5OEOMH57RM53Z4H1WP0","","null","<img src=""img/land5.png"" style=""width:200px; border:14px solid green;"">","null","","","","","","","",""
"","image-keyboard-response","344","226921","0.0-504.0","3N4BPTXIO9ET730V0FSKXJSRUHYUKE","A2KW87ZD2ELYNG","3H6W48L9F4B5OEOMH57RM53Z4H1WP0","","342.5","img/land5.png","76","343.09999990463257","3","1","false","3","1,0.5,0.5,0.5,1,0.5,0.5,0.5,1","",""
"","html-keyboard-response","345","227226","0.0-505.0","3N4BPTXIO9ET730V0FSKXJSRUHYUKE","A2KW87ZD2ELYNG","3H6W48L9F4B5OEOMH57RM53Z4H1WP0","","null","<img src=""img/land5.png"" style=""width:200px; border:14px solid green;"">","null","","","","","","","",""
"","image-keyboard-response","346","227957","0.0-507.0","3N4BPTXIO9ET730V0FSKXJSRUHYUKE","A2KW87ZD2ELYNG","3H6W48L9F4B5OEOMH57RM53Z4H1WP0","","729.9000000953674","img/land1.png","74","730.8000001907349","1","1","false","1","1,0.5,0.5,0.5,1,0.5,0.5,0.5,1","",""
"","html-keyboard-response","347","228266","0.0-508.0","3N4BPTXIO9ET730V0FSKXJSRUHYUKE","A2KW87ZD2ELYNG","3H6W48L9F4B5OEOMH57RM53Z4H1WP0","","null","<img src=""img/land1.png"" style=""width:200px; border:14px solid green;"">","null","","","","","","","",""
"","image-keyboard-response","348","228981","0.0-510.0","3N4BPTXIO9ET730V0FSKXJSRUHYUKE","A2KW87ZD2ELYNG","3H6W48L9F4B5OEOMH57RM53Z4H1WP0","","714.7999999523163","img/land6.png","75","715.2999999523163","2","1","false","2","1,0.5,0.5,0.5,1,0.5,0.5,0.5,1","",""
"","html-keyboard-response","349","229290","0.0-511.0","3N4BPTXIO9ET730V0FSKXJSRUHYUKE","A2KW87ZD2ELYNG","3H6W48L9F4B5OEOMH57RM53Z4H1WP0","","null","<img src=""img/land6.png"" style=""width:200px; border:14px solid green;"">","null","","","","","","","",""
"","image-keyboard-response","350","229620","0.0-513.0","3N4BPTXIO9ET730V0FSKXJSRUHYUKE","A2KW87ZD2ELYNG","3H6W48L9F4B5OEOMH57RM53Z4H1WP0","","329.2000000476837","img/land6.png","75","329.7000000476837","2","1","false","2","1,0.5,0.5,0.5,1,0.5,0.5,0.5,1","",""
"","html-keyboard-response","351","229922","0.0-514.0","3N4BPTXIO9ET730V0FSKXJSRUHYUKE","A2KW87ZD2ELYNG","3H6W48L9F4B5OEOMH57RM53Z4H1WP0","","null","<img src=""img/land6.png"" style=""width:200px; border:14px solid green;"">","null","","","","","","","",""
"","image-keyboard-response","352","230604","0.0-516.0","3N4BPTXIO9ET730V0FSKXJSRUHYUKE","A2KW87ZD2ELYNG","3H6W48L9F4B5OEOMH57RM53Z4H1WP0","","681.7999999523163","img/land1.png","74","682.2999999523163","1","1","false","1","1,0.5,0.5,0.5,1,0.5,0.5,0.5,1","",""
"","html-keyboard-response","353","230906","0.0-517.0","3N4BPTXIO9ET730V0FSKXJSRUHYUKE","A2KW87ZD2ELYNG","3H6W48L9F4B5OEOMH57RM53Z4H1WP0","","null","<img src=""img/land1.png"" style=""width:200px; border:14px solid green;"">","null","","","","","","","",""
"","image-keyboard-response","354","231297","0.0-519.0","3N4BPTXIO9ET730V0FSKXJSRUHYUKE","A2KW87ZD2ELYNG","3H6W48L9F4B5OEOMH57RM53Z4H1WP0","","390.7000000476837","img/land1.png","74","391.2999999523163","1","1","false","1","1,0.5,0.5,0.5,1,0.5,0.5,0.5,1","",""
"","html-keyboard-response","355","231602","0.0-520.0","3N4BPTXIO9ET730V0FSKXJSRUHYUKE","A2KW87ZD2ELYNG","3H6W48L9F4B5OEOMH57RM53Z4H1WP0","","null","<img src=""img/land1.png"" style=""width:200px; border:14px solid green;"">","null","","","","","","","",""
"","image-keyboard-response","356","232221","0.0-522.0","3N4BPTXIO9ET730V0FSKXJSRUHYUKE","A2KW87ZD2ELYNG","3H6W48L9F4B5OEOMH57RM53Z4H1WP0","","618","img/land5.png","76","618.5999999046326","3","1","false","3","1,0.5,0.5,0.5,1,0.5,0.5,0.5,1","",""
"","html-keyboard-response","357","232522","0.0-523.0","3N4BPTXIO9ET730V0FSKXJSRUHYUKE","A2KW87ZD2ELYNG","3H6W48L9F4B5OEOMH57RM53Z4H1WP0","","null","<img src=""img/land5.png"" style=""width:200px; border:14px solid green;"">","null","","","","","","","",""
"","image-keyboard-response","358","233182","0.0-525.0","3N4BPTXIO9ET730V0FSKXJSRUHYUKE","A2KW87ZD2ELYNG","3H6W48L9F4B5OEOMH57RM53Z4H1WP0","","659","img/land1.png","75","659.5","2","1","false","1","1,0.5,0.5,0.5,1,0.5,0.5,0.5,1","",""
"","html-keyboard-response","359","233490","0.0-526.0","3N4BPTXIO9ET730V0FSKXJSRUHYUKE","A2KW87ZD2ELYNG","3H6W48L9F4B5OEOMH57RM53Z4H1WP0","","null","<img src=""img/land1.png"" style=""width:200px; border:14px solid green;"">","null","","","","","","","",""
"","image-keyboard-response","360","234220","0.0-528.0","3N4BPTXIO9ET730V0FSKXJSRUHYUKE","A2KW87ZD2ELYNG","3H6W48L9F4B5OEOMH57RM53Z4H1WP0","","729.7000000476837","img/land5.png","76","730.0999999046326","3","1","false","3","1,0.5,0.5,0.5,1,0.5,0.5,0.5,1","",""
"","html-keyboard-response","361","234522","0.0-529.0","3N4BPTXIO9ET730V0FSKXJSRUHYUKE","A2KW87ZD2ELYNG","3H6W48L9F4B5OEOMH57RM53Z4H1WP0","","null","<img src=""img/land5.png"" style=""width:200px; border:14px solid green;"">","null","","","","","","","",""
"","image-keyboard-response","362","234930","0.0-531.0","3N4BPTXIO9ET730V0FSKXJSRUHYUKE","A2KW87ZD2ELYNG","3H6W48L9F4B5OEOMH57RM53Z4H1WP0","","407.5","img/land5.png","76","408","3","1","false","3","1,0.5,0.5,0.5,1,0.5,0.5,0.5,1","",""
"","html-keyboard-response","363","235234","0.0-532.0","3N4BPTXIO9ET730V0FSKXJSRUHYUKE","A2KW87ZD2ELYNG","3H6W48L9F4B5OEOMH57RM53Z4H1WP0","","null","<img src=""img/land5.png"" style=""width:200px; border:14px solid green;"">","null","","","","","","","",""
"","image-keyboard-response","364","235918","0.0-534.0","3N4BPTXIO9ET730V0FSKXJSRUHYUKE","A2KW87ZD2ELYNG","3H6W48L9F4B5OEOMH57RM53Z4H1WP0","","683.2000000476837","img/land1.png","75","683.7999999523163","2","0","false","1","1,0.5,0.5,0.5,1,0.5,0.5,0.5,1","",""
"","html-keyboard-response","365","236226","0.0-535.0","3N4BPTXIO9ET730V0FSKXJSRUHYUKE","A2KW87ZD2ELYNG","3H6W48L9F4B5OEOMH57RM53Z4H1WP0","","null","<img src=""img/land1.png"" style=""width:200px;border:14px solid red;"">","null","","","","","","","",""
"","image-keyboard-response","366","237234","0.0-537.0","3N4BPTXIO9ET730V0FSKXJSRUHYUKE","A2KW87ZD2ELYNG","3H6W48L9F4B5OEOMH57RM53Z4H1WP0","","","img/land5.png","","1007.7000000476837","-1","0","true","3","1,0.5,0.5,0.5,1,0.5,0.5,0.5,1","",""
"","html-keyboard-response","367","237538","0.0-538.0","3N4BPTXIO9ET730V0FSKXJSRUHYUKE","A2KW87ZD2ELYNG","3H6W48L9F4B5OEOMH57RM53Z4H1WP0","","null","<img src=""img/land5.png"" style=""width:200px;border:14px solid red;"">","null","","","","","","","",""
"","html-keyboard-response","368","240416","0.0-539.0-0.0","3N4BPTXIO9ET730V0FSKXJSRUHYUKE","A2KW87ZD2ELYNG","3H6W48L9F4B5OEOMH57RM53Z4H1WP0","","","","","","","","","","","",""
"","image-keyboard-response","369","240558","0.0-540.0","3N4BPTXIO9ET730V0FSKXJSRUHYUKE","A2KW87ZD2ELYNG","3H6W48L9F4B5OEOMH57RM53Z4H1WP0","","140.69999980926514","img/land1.png","74","141.5","1","1","false","1","1,0.5,0.5,0.5,1,0.5,0.5,0.5,1","",""
"","html-keyboard-response","370","240866","0.0-541.0","3N4BPTXIO9ET730V0FSKXJSRUHYUKE","A2KW87ZD2ELYNG","3H6W48L9F4B5OEOMH57RM53Z4H1WP0","","null","<img src=""img/land1.png"" style=""width:200px; border:14px solid green;"">","null","","","","","","","",""
"","instructions","371","245546","0.0-543.0","3N4BPTXIO9ET730V0FSKXJSRUHYUKE","A2KW87ZD2ELYNG","3H6W48L9F4B5OEOMH57RM53Z4H1WP0","[{""page_index"":0,""viewing_time"":4679.200000047684}]","4679.299999952316","","","","","","","","","",""
"","survey-text","372","247638","0.0-544.0-0.0","3N4BPTXIO9ET730V0FSKXJSRUHYUKE","A2KW87ZD2ELYNG","3H6W48L9F4B5OEOMH57RM53Z4H1WP0","","2091.0999999046326","","","","","","","","","{""Q0"":""43""}",""
"","survey-multi-choice","373","252493","0.0-544.0-1.0","3N4BPTXIO9ET730V0FSKXJSRUHYUKE","A2KW87ZD2ELYNG","3H6W48L9F4B5OEOMH57RM53Z4H1WP0","","4854.200000047684","","","","","","","","","{""gender"":""M""}","[0]"
"","survey-text","374","264396","0.0-545.0","3N4BPTXIO9ET730V0FSKXJSRUHYUKE","A2KW87ZD2ELYNG","3H6W48L9F4B5OEOMH57RM53Z4H1WP0","","11901.099999904633","","","","","","","","","{""Q0"":""A2KW87ZD2ELYNG""}",""
