"success","trial_type","trial_index","time_elapsed","internal_node_id","assignmentID","mturkID","hitID","view_history","rt","stimulus","key_press","reactionTime","a","r","s","cond","reward_cond","reward_cond_actual","reward_matrix_idx","responses","question_order"
"true","fullscreen","0","2784","0.0-0.0","","","","","","","","","","","","","","","","",""
"","instructions","1","30354","0.0-1.0","","","","[{""page_index"":0,""viewing_time"":1212},{""page_index"":1,""viewing_time"":2205.9000000953674},{""page_index"":2,""viewing_time"":555.2000000476837},{""page_index"":3,""viewing_time"":5742.399999856949},{""page_index"":4,""viewing_time"":4549.200000047684},{""page_index"":5,""viewing_time"":2033.7000000476837},{""page_index"":4,""viewing_time"":1784.5},{""page_index"":3,""viewing_time"":5056.299999952316},{""page_index"":4,""viewing_time"":1694.2999999523163},{""page_index"":5,""viewing_time"":1734.1000001430511},{""page_index"":6,""viewing_time"":1001.2000000476837}]","27569.200000047684","","","","","","","","","","","",""
"","image-keyboard-response","2","32151","0.0-2.0","","","","","1795.2999999523163","img/land5.png","74","1796.5","1","0","2","1","1,0.5,0.5,0.5,1,0.5,0.5,0.5,1","1,0.5,0.5,0.5,1,0.5,0.5,0.5,1","1","",""
"","html-keyboard-response","3","32453","0.0-3.0","","","","","null","<img src=""img/land5.png"" style=""width:200px;border:14px solid red;"">","null","","","","","","","","","",""
"","image-keyboard-response","4","32819","0.0-4.0","","","","","364.30000019073486","img/land6.png","75","365.09999990463257","2","1","1","1","1,0.5,0.5,0.5,1,0.5,0.5,0.5,1","1,0.5,0.5,0.5,1,0.5,0.5,0.5,1","1","",""
"","html-keyboard-response","5","33121","0.0-5.0","","","","","null","<img src=""img/land6.png"" style=""width:200px; border:14px solid green;"">","null","","","","","","","","","",""
"","image-keyboard-response","6","33659","0.0-6.0","","","","","537.2999999523163","img/land4.png","74","538.2000000476837","1","0","3","1","1,0.5,0.5,0.5,1,0.5,0.5,0.5,1","1,0.5,0.5,0.5,1,0.5,0.5,0.5,1","1","",""
"","html-keyboard-response","7","33961","0.0-7.0","","","","","null","<img src=""img/land4.png"" style=""width:200px;border:14px solid red;"">","null","","","","","","","","","",""
"","image-keyboard-response","8","34531","0.0-8.0","","","","","568.2000000476837","img/land4.png","76","569.3000001907349","3","1","3","1","1,0.5,0.5,0.5,1,0.5,0.5,0.5,1","1,0.5,0.5,0.5,1,0.5,0.5,0.5,1","1","",""
"","html-keyboard-response","9","34833","0.0-9.0","","","","","null","<img src=""img/land4.png"" style=""width:200px; border:14px solid green;"">","null","","","","","","","","","",""
"","image-keyboard-response","10","35420","0.0-10.0","","","","","585.7999999523163","img/land5.png","75","586.7999999523163","2","1","2","1","1,0.5,0.5,0.5,1,0.5,0.5,0.5,1","1,0.5,0.5,0.5,1,0.5,0.5,0.5,1","1","",""
"","html-keyboard-response","11","35721","0.0-11.0","","","","","null","<img src=""img/land5.png"" style=""width:200px; border:14px solid green;"">","null","","","","","","","","","",""
"","image-keyboard-response","12","36220","0.0-12.0","","","","","498","img/land4.png","76","499.19999980926514","3","1","3","1","1,0.5,0.5,0.5,1,0.5,0.5,0.5,1","1,0.5,0.5,0.5,1,0.5,0.5,0.5,1","1","",""
"","html-keyboard-response","13","36522","0.0-13.0","","","","","null","<img src=""img/land4.png"" style=""width:200px; border:14px solid green;"">","null","","","","","","","","","",""
"","image-keyboard-response","14","37027","0.0-14.0","","","","","503.59999990463257","img/land6.png","75","504.5","2","0","1","1","1,0.5,0.5,0.5,1,0.5,0.5,0.5,1","1,0.5,0.5,0.5,1,0.5,0.5,0.5,1","1","",""
"","html-keyboard-response","15","37328","0.0-15.0","","","","","null","<img src=""img/land6.png"" style=""width:200px;border:14px solid red;"">","null","","","","","","","","","",""
"","image-keyboard-response","16","37611","0.0-16.0","","","","","282.59999990463257","img/land6.png","74","283.2000000476837","1","1","1","1","1,0.5,0.5,0.5,1,0.5,0.5,0.5,1","1,0.5,0.5,0.5,1,0.5,0.5,0.5,1","1","",""
"","html-keyboard-response","17","37913","0.0-17.0","","","","","null","<img src=""img/land6.png"" style=""width:200px; border:14px solid green;"">","null","","","","","","","","","",""
"","image-keyboard-response","18","38524","0.0-18.0","","","","","609.5999999046326","img/land6.png","74","610.5","1","1","1","1","1,0.5,0.5,0.5,1,0.5,0.5,0.5,1","1,0.5,0.5,0.5,1,0.5,0.5,0.5,1","1","",""
"","html-keyboard-response","19","38825","0.0-19.0","","","","","null","<img src=""img/land6.png"" style=""width:200px; border:14px solid green;"">","null","","","","","","","","","",""
"","image-keyboard-response","20","39116","0.0-20.0","","","","","289.60000014305115","img/land5.png","74","290.2999999523163","1","0","2","1","1,0.5,0.5,0.5,1,0.5,0.5,0.5,1","1,0.5,0.5,0.5,1,0.5,0.5,0.5,1","1","",""
"","html-keyboard-response","21","39418","0.0-21.0","","","","","null","<img src=""img/land5.png"" style=""width:200px;border:14px solid red;"">","null","","","","","","","","","",""
"","image-keyboard-response","22","39594","0.0-22.0","","","","","175.5","img/land5.png","75","176.09999990463257","2","1","2","1","1,0.5,0.5,0.5,1,0.5,0.5,0.5,1","1,0.5,0.5,0.5,1,0.5,0.5,0.5,1","1","",""
"","html-keyboard-response","23","39896","0.0-23.0","","","","","null","<img src=""img/land5.png"" style=""width:200px; border:14px solid green;"">","null","","","","","","","","","",""
"","image-keyboard-response","24","40514","0.0-24.0","","","","","616.6999998092651","img/land4.png","75","617.2999999523163","2","0","3","1","1,0.5,0.5,0.5,1,0.5,0.5,0.5,1","1,0.5,0.5,0.5,1,0.5,0.5,0.5,1","1","",""
"","html-keyboard-response","25","40815","0.0-25.0","","","","","null","<img src=""img/land4.png"" style=""width:200px;border:14px solid red;"">","null","","","","","","","","","",""
"","image-keyboard-response","26","40971","0.0-26.0","","","","","155","img/land6.png","76","155.60000014305115","3","0","1","1","1,0.5,0.5,0.5,1,0.5,0.5,0.5,1","1,0.5,0.5,0.5,1,0.5,0.5,0.5,1","1","",""
"","html-keyboard-response","27","41273","0.0-27.0","","","","","null","<img src=""img/land6.png"" style=""width:200px;border:14px solid red;"">","null","","","","","","","","","",""
"","image-keyboard-response","28","41626","0.0-28.0","","","","","352.7000000476837","img/land5.png","74","353.5","1","0","2","1","1,0.5,0.5,0.5,1,0.5,0.5,0.5,1","1,0.5,0.5,0.5,1,0.5,0.5,0.5,1","1","",""
"","html-keyboard-response","29","41929","0.0-29.0","","","","","null","<img src=""img/land5.png"" style=""width:200px;border:14px solid red;"">","null","","","","","","","","","",""
"","image-keyboard-response","30","42658","0.0-30.0","","","","","728.7999999523163","img/land5.png","74","729.5","1","0","2","1","1,0.5,0.5,0.5,1,0.5,0.5,0.5,1","1,0.5,0.5,0.5,1,0.5,0.5,0.5,1","1","",""
"","html-keyboard-response","31","42961","0.0-31.0","","","","","null","<img src=""img/land5.png"" style=""width:200px;border:14px solid red;"">","null","","","","","","","","","",""
"","image-keyboard-response","32","43124","0.0-32.0","","","","","161.70000004768372","img/land6.png","76","162.5","3","0","1","1","1,0.5,0.5,0.5,1,0.5,0.5,0.5,1","1,0.5,0.5,0.5,1,0.5,0.5,0.5,1","1","",""
"","html-keyboard-response","33","43425","0.0-33.0","","","","","null","<img src=""img/land6.png"" style=""width:200px;border:14px solid red;"">","null","","","","","","","","","",""
"","image-keyboard-response","34","43786","0.0-34.0","","","","","360","img/land4.png","75","360.7999999523163","2","0","3","1","1,0.5,0.5,0.5,1,0.5,0.5,0.5,1","1,0.5,0.5,0.5,1,0.5,0.5,0.5,1","1","",""
"","html-keyboard-response","35","44087","0.0-35.0","","","","","null","<img src=""img/land4.png"" style=""width:200px;border:14px solid red;"">","null","","","","","","","","","",""
"","image-keyboard-response","36","44682","0.0-36.0","","","","","594.5","img/land5.png","76","595","3","0","2","1","1,0.5,0.5,0.5,1,0.5,0.5,0.5,1","1,0.5,0.5,0.5,1,0.5,0.5,0.5,1","1","",""
"","html-keyboard-response","37","44985","0.0-37.0","","","","","null","<img src=""img/land5.png"" style=""width:200px;border:14px solid red;"">","null","","","","","","","","","",""
"","image-keyboard-response","38","45299","0.0-38.0","","","","","313.09999990463257","img/land6.png","75","313.90000009536743","2","1","1","1","1,0.5,0.5,0.5,1,0.5,0.5,0.5,1","1,0.5,0.5,0.5,1,0.5,0.5,0.5,1","1","",""
"","html-keyboard-response","39","45601","0.0-39.0","","","","","null","<img src=""img/land6.png"" style=""width:200px; border:14px solid green;"">","null","","","","","","","","","",""
"","image-keyboard-response","40","45970","0.0-40.0","","","","","368.39999985694885","img/land5.png","75","369.10000014305115","2","1","2","1","1,0.5,0.5,0.5,1,0.5,0.5,0.5,1","1,0.5,0.5,0.5,1,0.5,0.5,0.5,1","1","",""
"","html-keyboard-response","41","46272","0.0-41.0","","","","","null","<img src=""img/land5.png"" style=""width:200px; border:14px solid green;"">","null","","","","","","","","","",""
"","image-keyboard-response","42","46522","0.0-42.0","","","","","249.70000004768372","img/land4.png","75","250.20000004768372","2","0","3","1","1,0.5,0.5,0.5,1,0.5,0.5,0.5,1","1,0.5,0.5,0.5,1,0.5,0.5,0.5,1","1","",""
"","html-keyboard-response","43","46823","0.0-43.0","","","","","null","<img src=""img/land4.png"" style=""width:200px;border:14px solid red;"">","null","","","","","","","","","",""
"","image-keyboard-response","44","47266","0.0-44.0","","","","","441.59999990463257","img/land5.png","74","442.2000000476837","1","1","2","1","1,0.5,0.5,0.5,1,0.5,0.5,0.5,1","1,0.5,0.5,0.5,1,0.5,0.5,0.5,1","1","",""
"","html-keyboard-response","45","47567","0.0-45.0","","","","","null","<img src=""img/land5.png"" style=""width:200px; border:14px solid green;"">","null","","","","","","","","","",""
"","image-keyboard-response","46","47953","0.0-46.0","","","","","384.90000009536743","img/land6.png","75","385.5","2","1","1","1","1,0.5,0.5,0.5,1,0.5,0.5,0.5,1","1,0.5,0.5,0.5,1,0.5,0.5,0.5,1","1","",""
"","html-keyboard-response","47","48254","0.0-47.0","","","","","null","<img src=""img/land6.png"" style=""width:200px; border:14px solid green;"">","null","","","","","","","","","",""
"","image-keyboard-response","48","48594","0.0-48.0","","","","","338.89999985694885","img/land6.png","74","339.5","1","1","1","1","1,0.5,0.5,0.5,1,0.5,0.5,0.5,1","1,0.5,0.5,0.5,1,0.5,0.5,0.5,1","1","",""
"","html-keyboard-response","49","48896","0.0-49.0","","","","","null","<img src=""img/land6.png"" style=""width:200px; border:14px solid green;"">","null","","","","","","","","","",""
"","image-keyboard-response","50","49170","0.0-50.0","","","","","273.80000019073486","img/land4.png","74","274.60000014305115","1","0","3","1","1,0.5,0.5,0.5,1,0.5,0.5,0.5,1","1,0.5,0.5,0.5,1,0.5,0.5,0.5,1","1","",""
"","html-keyboard-response","51","49472","0.0-51.0","","","","","null","<img src=""img/land4.png"" style=""width:200px;border:14px solid red;"">","null","","","","","","","","","",""
"","image-keyboard-response","52","49650","0.0-52.0","","","","","176.5","img/land5.png","75","177.20000004768372","2","1","2","1","1,0.5,0.5,0.5,1,0.5,0.5,0.5,1","1,0.5,0.5,0.5,1,0.5,0.5,0.5,1","1","",""
"","html-keyboard-response","53","49952","0.0-53.0","","","","","null","<img src=""img/land5.png"" style=""width:200px; border:14px solid green;"">","null","","","","","","","","","",""
"","image-keyboard-response","54","50323","0.0-54.0","","","","","369.7000000476837","img/land6.png","75","370.40000009536743","2","1","1","1","1,0.5,0.5,0.5,1,0.5,0.5,0.5,1","1,0.5,0.5,0.5,1,0.5,0.5,0.5,1","1","",""
"","html-keyboard-response","55","50624","0.0-55.0","","","","","null","<img src=""img/land6.png"" style=""width:200px; border:14px solid green;"">","null","","","","","","","","","",""
"","image-keyboard-response","56","50859","0.0-56.0","","","","","234.39999985694885","img/land4.png","75","235.20000004768372","2","0","3","1","1,0.5,0.5,0.5,1,0.5,0.5,0.5,1","1,0.5,0.5,0.5,1,0.5,0.5,0.5,1","1","",""
"","html-keyboard-response","57","51161","0.0-57.0","","","","","null","<img src=""img/land4.png"" style=""width:200px;border:14px solid red;"">","null","","","","","","","","","",""
"","image-keyboard-response","58","51475","0.0-58.0","","","","","313.2000000476837","img/land6.png","76","314","3","0","1","1","1,0.5,0.5,0.5,1,0.5,0.5,0.5,1","1,0.5,0.5,0.5,1,0.5,0.5,0.5,1","1","",""
"","html-keyboard-response","59","51778","0.0-59.0","","","","","null","<img src=""img/land6.png"" style=""width:200px;border:14px solid red;"">","null","","","","","","","","","",""
"","image-keyboard-response","60","52051","0.0-60.0","","","","","272.2000000476837","img/land6.png","75","273","2","0","1","1","1,0.5,0.5,0.5,1,0.5,0.5,0.5,1","1,0.5,0.5,0.5,1,0.5,0.5,0.5,1","1","",""
"","html-keyboard-response","61","52353","0.0-61.0","","","","","null","<img src=""img/land6.png"" style=""width:200px;border:14px solid red;"">","null","","","","","","","","","",""
"","image-keyboard-response","62","52547","0.0-62.0","","","","","192.90000009536743","img/land6.png","74","193.59999990463257","1","1","1","1","1,0.5,0.5,0.5,1,0.5,0.5,0.5,1","1,0.5,0.5,0.5,1,0.5,0.5,0.5,1","1","",""
"","html-keyboard-response","63","52848","0.0-63.0","","","","","null","<img src=""img/land6.png"" style=""width:200px; border:14px solid green;"">","null","","","","","","","","","",""
"","image-keyboard-response","64","53164","0.0-64.0","","","","","314.90000009536743","img/land4.png","75","315.7000000476837","2","0","3","1","1,0.5,0.5,0.5,1,0.5,0.5,0.5,1","1,0.5,0.5,0.5,1,0.5,0.5,0.5,1","1","",""
"","html-keyboard-response","65","53465","0.0-65.0","","","","","null","<img src=""img/land4.png"" style=""width:200px;border:14px solid red;"">","null","","","","","","","","","",""
"","image-keyboard-response","66","53667","0.0-66.0","","","","","201.30000019073486","img/land4.png","74","201.90000009536743","1","1","3","1","1,0.5,0.5,0.5,1,0.5,0.5,0.5,1","1,0.5,0.5,0.5,1,0.5,0.5,0.5,1","1","",""
"","html-keyboard-response","67","53969","0.0-67.0","","","","","null","<img src=""img/land4.png"" style=""width:200px; border:14px solid green;"">","null","","","","","","","","","",""
"","image-keyboard-response","68","54178","0.0-68.0","","","","","207.89999985694885","img/land6.png","76","208.69999980926514","3","0","1","1","1,0.5,0.5,0.5,1,0.5,0.5,0.5,1","1,0.5,0.5,0.5,1,0.5,0.5,0.5,1","1","",""
"","html-keyboard-response","69","54480","0.0-69.0","","","","","null","<img src=""img/land6.png"" style=""width:200px;border:14px solid red;"">","null","","","","","","","","","",""
"","image-keyboard-response","70","54672","0.0-70.0","","","","","190.79999995231628","img/land6.png","75","191.39999985694885","2","0","1","1","1,0.5,0.5,0.5,1,0.5,0.5,0.5,1","1,0.5,0.5,0.5,1,0.5,0.5,0.5,1","1","",""
"","html-keyboard-response","71","54974","0.0-71.0","","","","","null","<img src=""img/land6.png"" style=""width:200px;border:14px solid red;"">","null","","","","","","","","","",""
"","image-keyboard-response","72","55107","0.0-72.0","","","","","131.90000009536743","img/land5.png","74","132.70000004768372","1","0","2","1","1,0.5,0.5,0.5,1,0.5,0.5,0.5,1","1,0.5,0.5,0.5,1,0.5,0.5,0.5,1","1","",""
"","html-keyboard-response","73","55409","0.0-73.0","","","","","null","<img src=""img/land5.png"" style=""width:200px;border:14px solid red;"">","null","","","","","","","","","",""
"","image-keyboard-response","74","55770","0.0-74.0","","","","","360.5","img/land4.png","75","360.89999985694885","2","1","3","1","1,0.5,0.5,0.5,1,0.5,0.5,0.5,1","1,0.5,0.5,0.5,1,0.5,0.5,0.5,1","1","",""
"","html-keyboard-response","75","56073","0.0-75.0","","","","","null","<img src=""img/land4.png"" style=""width:200px; border:14px solid green;"">","null","","","","","","","","","",""
"","image-keyboard-response","76","56392","0.0-76.0","","","","","317.90000009536743","img/land6.png","75","318.7999999523163","2","0","1","1","1,0.5,0.5,0.5,1,0.5,0.5,0.5,1","1,0.5,0.5,0.5,1,0.5,0.5,0.5,1","1","",""
"","html-keyboard-response","77","56694","0.0-77.0","","","","","null","<img src=""img/land6.png"" style=""width:200px;border:14px solid red;"">","null","","","","","","","","","",""
"","image-keyboard-response","78","56955","0.0-78.0","","","","","260.5","img/land4.png","74","261.09999990463257","1","0","3","1","1,0.5,0.5,0.5,1,0.5,0.5,0.5,1","1,0.5,0.5,0.5,1,0.5,0.5,0.5,1","1","",""
"","html-keyboard-response","79","57258","0.0-79.0","","","","","null","<img src=""img/land4.png"" style=""width:200px;border:14px solid red;"">","null","","","","","","","","","",""
"","image-keyboard-response","80","57466","0.0-80.0","","","","","206.70000004768372","img/land4.png","76","207.5","3","1","3","1","1,0.5,0.5,0.5,1,0.5,0.5,0.5,1","1,0.5,0.5,0.5,1,0.5,0.5,0.5,1","1","",""
"","html-keyboard-response","81","57768","0.0-81.0","","","","","null","<img src=""img/land4.png"" style=""width:200px; border:14px solid green;"">","null","","","","","","","","","",""
"","image-keyboard-response","82","57962","0.0-82.0","","","","","193","img/land6.png","76","193.80000019073486","3","0","1","1","1,0.5,0.5,0.5,1,0.5,0.5,0.5,1","1,0.5,0.5,0.5,1,0.5,0.5,0.5,1","1","",""
"","html-keyboard-response","83","58264","0.0-83.0","","","","","null","<img src=""img/land6.png"" style=""width:200px;border:14px solid red;"">","null","","","","","","","","","",""
"","image-keyboard-response","84","58458","0.0-84.0","","","","","193.5","img/land5.png","75","194.09999990463257","2","1","2","1","1,0.5,0.5,0.5,1,0.5,0.5,0.5,1","1,0.5,0.5,0.5,1,0.5,0.5,0.5,1","1","",""
"","html-keyboard-response","85","58760","0.0-85.0","","","","","null","<img src=""img/land5.png"" style=""width:200px; border:14px solid green;"">","null","","","","","","","","","",""
"","image-keyboard-response","86","58897","0.0-86.0","","","","","136.09999990463257","img/land5.png","74","136.70000004768372","1","1","2","1","1,0.5,0.5,0.5,1,0.5,0.5,0.5,1","1,0.5,0.5,0.5,1,0.5,0.5,0.5,1","1","",""
"","html-keyboard-response","87","59199","0.0-87.0","","","","","null","<img src=""img/land5.png"" style=""width:200px; border:14px solid green;"">","null","","","","","","","","","",""
"","image-keyboard-response","88","59378","0.0-88.0","","","","","178.40000009536743","img/land5.png","74","179.10000014305115","1","0","2","1","1,0.5,0.5,0.5,1,0.5,0.5,0.5,1","1,0.5,0.5,0.5,1,0.5,0.5,0.5,1","1","",""
"","html-keyboard-response","89","59679","0.0-89.0","","","","","null","<img src=""img/land5.png"" style=""width:200px;border:14px solid red;"">","null","","","","","","","","","",""
"","image-keyboard-response","90","59878","0.0-90.0","","","","","197.79999995231628","img/land6.png","75","198.60000014305115","2","1","1","1","1,0.5,0.5,0.5,1,0.5,0.5,0.5,1","1,0.5,0.5,0.5,1,0.5,0.5,0.5,1","1","",""
"","html-keyboard-response","91","60181","0.0-91.0","","","","","null","<img src=""img/land6.png"" style=""width:200px; border:14px solid green;"">","null","","","","","","","","","",""
"","image-keyboard-response","92","60625","0.0-92.0","","","","","443.69999980926514","img/land6.png","75","444.30000019073486","2","0","1","1","1,0.5,0.5,0.5,1,0.5,0.5,0.5,1","1,0.5,0.5,0.5,1,0.5,0.5,0.5,1","1","",""
"","html-keyboard-response","93","60927","0.0-93.0","","","","","null","<img src=""img/land6.png"" style=""width:200px;border:14px solid red;"">","null","","","","","","","","","",""
"","image-keyboard-response","94","61082","0.0-94.0","","","","","154.30000019073486","img/land5.png","75","155","2","1","2","1","1,0.5,0.5,0.5,1,0.5,0.5,0.5,1","1,0.5,0.5,0.5,1,0.5,0.5,0.5,1","1","",""
"","html-keyboard-response","95","61384","0.0-95.0","","","","","null","<img src=""img/land5.png"" style=""width:200px; border:14px solid green;"">","null","","","","","","","","","",""
"","image-keyboard-response","96","61635","0.0-96.0","","","","","249.80000019073486","img/land5.png","76","250.39999985694885","3","1","2","1","1,0.5,0.5,0.5,1,0.5,0.5,0.5,1","1,0.5,0.5,0.5,1,0.5,0.5,0.5,1","1","",""
"","html-keyboard-response","97","61942","0.0-97.0","","","","","null","<img src=""img/land5.png"" style=""width:200px; border:14px solid green;"">","null","","","","","","","","","",""
"","image-keyboard-response","98","62299","0.0-98.0","","","","","356.09999990463257","img/land4.png","76","356.89999985694885","3","1","3","1","1,0.5,0.5,0.5,1,0.5,0.5,0.5,1","1,0.5,0.5,0.5,1,0.5,0.5,0.5,1","1","",""
"","html-keyboard-response","99","62601","0.0-99.0","","","","","null","<img src=""img/land4.png"" style=""width:200px; border:14px solid green;"">","null","","","","","","","","","",""
"","image-keyboard-response","100","62851","0.0-100.0","","","","","249.20000004768372","img/land6.png","76","249.70000004768372","3","0","1","1","1,0.5,0.5,0.5,1,0.5,0.5,0.5,1","1,0.5,0.5,0.5,1,0.5,0.5,0.5,1","1","",""
"","html-keyboard-response","101","63153","0.0-101.0","","","","","null","<img src=""img/land6.png"" style=""width:200px;border:14px solid red;"">","null","","","","","","","","","",""
"","image-keyboard-response","102","63370","0.0-102.0","","","","","216.5","img/land6.png","75","217.20000004768372","2","0","1","1","1,0.5,0.5,0.5,1,0.5,0.5,0.5,1","1,0.5,0.5,0.5,1,0.5,0.5,0.5,1","1","",""
"","html-keyboard-response","103","63673","0.0-103.0","","","","","null","<img src=""img/land6.png"" style=""width:200px;border:14px solid red;"">","null","","","","","","","","","",""
"","image-keyboard-response","104","63789","0.0-104.0","","","","","115.5","img/land5.png","74","116.10000014305115","1","1","2","1","1,0.5,0.5,0.5,1,0.5,0.5,0.5,1","1,0.5,0.5,0.5,1,0.5,0.5,0.5,1","1","",""
"","html-keyboard-response","105","64091","0.0-105.0","","","","","null","<img src=""img/land5.png"" style=""width:200px; border:14px solid green;"">","null","","","","","","","","","",""
"","image-keyboard-response","106","64330","0.0-106.0","","","","","238","img/land4.png","74","238.80000019073486","1","0","3","1","1,0.5,0.5,0.5,1,0.5,0.5,0.5,1","1,0.5,0.5,0.5,1,0.5,0.5,0.5,1","1","",""
"","html-keyboard-response","107","64633","0.0-107.0","","","","","null","<img src=""img/land4.png"" style=""width:200px;border:14px solid red;"">","null","","","","","","","","","",""
"","image-keyboard-response","108","64770","0.0-108.0","","","","","136","img/land4.png","75","136.59999990463257","2","0","3","1","1,0.5,0.5,0.5,1,0.5,0.5,0.5,1","1,0.5,0.5,0.5,1,0.5,0.5,0.5,1","1","",""
"","html-keyboard-response","109","65072","0.0-109.0","","","","","null","<img src=""img/land4.png"" style=""width:200px;border:14px solid red;"">","null","","","","","","","","","",""
"","image-keyboard-response","110","65232","0.0-110.0","","","","","159.39999985694885","img/land6.png","76","160.09999990463257","3","0","1","1","1,0.5,0.5,0.5,1,0.5,0.5,0.5,1","1,0.5,0.5,0.5,1,0.5,0.5,0.5,1","1","",""
"","html-keyboard-response","111","65535","0.0-111.0","","","","","null","<img src=""img/land6.png"" style=""width:200px;border:14px solid red;"">","null","","","","","","","","","",""
"","image-keyboard-response","112","66157","0.0-112.0","","","","","621.1000001430511","img/land4.png","74","621.7999999523163","1","0","3","1","1,0.5,0.5,0.5,1,0.5,0.5,0.5,1","1,0.5,0.5,0.5,1,0.5,0.5,0.5,1","1","",""
"","html-keyboard-response","113","66459","0.0-113.0","","","","","null","<img src=""img/land4.png"" style=""width:200px;border:14px solid red;"">","null","","","","","","","","","",""
"","image-keyboard-response","114","66658","0.0-114.0","","","","","197.79999995231628","img/land4.png","75","198.60000014305115","2","0","3","1","1,0.5,0.5,0.5,1,0.5,0.5,0.5,1","1,0.5,0.5,0.5,1,0.5,0.5,0.5,1","1","",""
"","html-keyboard-response","115","66960","0.0-115.0","","","","","null","<img src=""img/land4.png"" style=""width:200px;border:14px solid red;"">","null","","","","","","","","","",""
"","image-keyboard-response","116","67177","0.0-116.0","","","","","216.69999980926514","img/land5.png","76","217.40000009536743","3","0","2","1","1,0.5,0.5,0.5,1,0.5,0.5,0.5,1","1,0.5,0.5,0.5,1,0.5,0.5,0.5,1","1","",""
"","html-keyboard-response","117","67479","0.0-117.0","","","","","null","<img src=""img/land5.png"" style=""width:200px;border:14px solid red;"">","null","","","","","","","","","",""
"","image-keyboard-response","118","67865","0.0-118.0","","","","","385.89999985694885","img/land5.png","75","386.40000009536743","2","1","2","1","1,0.5,0.5,0.5,1,0.5,0.5,0.5,1","1,0.5,0.5,0.5,1,0.5,0.5,0.5,1","1","",""
"","html-keyboard-response","119","68168","0.0-119.0","","","","","null","<img src=""img/land5.png"" style=""width:200px; border:14px solid green;"">","null","","","","","","","","","",""
"","image-keyboard-response","120","68488","0.0-120.0","","","","","319.40000009536743","img/land5.png","75","320.10000014305115","2","1","2","1","1,0.5,0.5,0.5,1,0.5,0.5,0.5,1","1,0.5,0.5,0.5,1,0.5,0.5,0.5,1","1","",""
"","html-keyboard-response","121","68789","0.0-121.0","","","","","null","<img src=""img/land5.png"" style=""width:200px; border:14px solid green;"">","null","","","","","","","","","",""
"","image-keyboard-response","122","69009","0.0-122.0","","","","","218.79999995231628","img/land6.png","75","219.30000019073486","2","0","1","1","1,0.5,0.5,0.5,1,0.5,0.5,0.5,1","1,0.5,0.5,0.5,1,0.5,0.5,0.5,1","1","",""
"","html-keyboard-response","123","69311","0.0-123.0","","","","","null","<img src=""img/land6.png"" style=""width:200px;border:14px solid red;"">","null","","","","","","","","","",""
"","image-keyboard-response","124","69674","0.0-124.0","","","","","362.2999999523163","img/land4.png","74","362.7999999523163","1","0","3","1","1,0.5,0.5,0.5,1,0.5,0.5,0.5,1","1,0.5,0.5,0.5,1,0.5,0.5,0.5,1","1","",""
"","html-keyboard-response","125","69976","0.0-125.0","","","","","null","<img src=""img/land4.png"" style=""width:200px;border:14px solid red;"">","null","","","","","","","","","",""
"","image-keyboard-response","126","70986","0.0-126.0","","","","","1009.6000001430511","img/land4.png","76","1010.2000000476837","3","1","3","1","1,0.5,0.5,0.5,1,0.5,0.5,0.5,1","1,0.5,0.5,0.5,1,0.5,0.5,0.5,1","1","",""
"","html-keyboard-response","127","71287","0.0-127.0","","","","","null","<img src=""img/land4.png"" style=""width:200px; border:14px solid green;"">","null","","","","","","","","","",""
"","image-keyboard-response","128","71564","0.0-128.0","","","","","275.90000009536743","img/land4.png","76","276.5","3","1","3","1","1,0.5,0.5,0.5,1,0.5,0.5,0.5,1","1,0.5,0.5,0.5,1,0.5,0.5,0.5,1","1","",""
"","html-keyboard-response","129","71865","0.0-129.0","","","","","null","<img src=""img/land4.png"" style=""width:200px; border:14px solid green;"">","null","","","","","","","","","",""
"","image-keyboard-response","130","72017","0.0-130.0","","","","","151","img/land6.png","76","151.70000004768372","3","1","1","1","1,0.5,0.5,0.5,1,0.5,0.5,0.5,1","1,0.5,0.5,0.5,1,0.5,0.5,0.5,1","1","",""
"","html-keyboard-response","131","72321","0.0-131.0","","","","","null","<img src=""img/land6.png"" style=""width:200px; border:14px solid green;"">","null","","","","","","","","","",""
"","image-keyboard-response","132","72562","0.0-132.0","","","","","240.09999990463257","img/land5.png","76","240.79999995231628","3","1","2","1","1,0.5,0.5,0.5,1,0.5,0.5,0.5,1","1,0.5,0.5,0.5,1,0.5,0.5,0.5,1","1","",""
"","html-keyboard-response","133","72864","0.0-133.0","","","","","null","<img src=""img/land5.png"" style=""width:200px; border:14px solid green;"">","null","","","","","","","","","",""
"","image-keyboard-response","134","73002","0.0-134.0","","","","","137.29999995231628","img/land4.png","76","137.90000009536743","3","1","3","1","1,0.5,0.5,0.5,1,0.5,0.5,0.5,1","1,0.5,0.5,0.5,1,0.5,0.5,0.5,1","1","",""
"","html-keyboard-response","135","73303","0.0-135.0","","","","","null","<img src=""img/land4.png"" style=""width:200px; border:14px solid green;"">","null","","","","","","","","","",""
"","image-keyboard-response","136","73412","0.0-136.0","","","","","107.59999990463257","img/land5.png","76","108.40000009536743","3","0","2","1","1,0.5,0.5,0.5,1,0.5,0.5,0.5,1","1,0.5,0.5,0.5,1,0.5,0.5,0.5,1","1","",""
"","html-keyboard-response","137","73713","0.0-137.0","","","","","null","<img src=""img/land5.png"" style=""width:200px;border:14px solid red;"">","null","","","","","","","","","",""
"","image-keyboard-response","138","73761","0.0-138.0","","","","","47.10000014305115","img/land5.png","76","47.799999952316284","3","0","2","1","1,0.5,0.5,0.5,1,0.5,0.5,0.5,1","1,0.5,0.5,0.5,1,0.5,0.5,0.5,1","1","",""
"","html-keyboard-response","139","74062","0.0-139.0","","","","","null","<img src=""img/land5.png"" style=""width:200px;border:14px solid red;"">","null","","","","","","","","","",""
"","image-keyboard-response","140","74267","0.0-140.0","","","","","203.70000004768372","img/land5.png","75","204.5","2","1","2","1","1,0.5,0.5,0.5,1,0.5,0.5,0.5,1","1,0.5,0.5,0.5,1,0.5,0.5,0.5,1","1","",""
"","html-keyboard-response","141","74569","0.0-141.0","","","","","null","<img src=""img/land5.png"" style=""width:200px; border:14px solid green;"">","null","","","","","","","","","",""
"","image-keyboard-response","142","74804","0.0-142.0","","","","","234.5","img/land5.png","75","235.09999990463257","2","1","2","1","1,0.5,0.5,0.5,1,0.5,0.5,0.5,1","1,0.5,0.5,0.5,1,0.5,0.5,0.5,1","1","",""
"","html-keyboard-response","143","75106","0.0-143.0","","","","","null","<img src=""img/land5.png"" style=""width:200px; border:14px solid green;"">","null","","","","","","","","","",""
"","image-keyboard-response","144","75378","0.0-144.0","","","","","270.19999980926514","img/land4.png","75","271.5","2","0","3","1","1,0.5,0.5,0.5,1,0.5,0.5,0.5,1","1,0.5,0.5,0.5,1,0.5,0.5,0.5,1","1","",""
"","html-keyboard-response","145","75680","0.0-145.0","","","","","null","<img src=""img/land4.png"" style=""width:200px;border:14px solid red;"">","null","","","","","","","","","",""
"","image-keyboard-response","146","75913","0.0-146.0","","","","","231.70000004768372","img/land4.png","76","232.40000009536743","3","1","3","1","1,0.5,0.5,0.5,1,0.5,0.5,0.5,1","1,0.5,0.5,0.5,1,0.5,0.5,0.5,1","1","",""
"","html-keyboard-response","147","76215","0.0-147.0","","","","","null","<img src=""img/land4.png"" style=""width:200px; border:14px solid green;"">","null","","","","","","","","","",""
"","image-keyboard-response","148","76298","0.0-148.0","","","","","82","img/land6.png","76","82.59999990463257","3","1","1","1","1,0.5,0.5,0.5,1,0.5,0.5,0.5,1","1,0.5,0.5,0.5,1,0.5,0.5,0.5,1","1","",""
"","html-keyboard-response","149","76600","0.0-149.0","","","","","null","<img src=""img/land6.png"" style=""width:200px; border:14px solid green;"">","null","","","","","","","","","",""
"","image-keyboard-response","150","76801","0.0-150.0","","","","","200.59999990463257","img/land4.png","76","201.30000019073486","3","1","3","1","1,0.5,0.5,0.5,1,0.5,0.5,0.5,1","1,0.5,0.5,0.5,1,0.5,0.5,0.5,1","1","",""
"","html-keyboard-response","151","77103","0.0-151.0","","","","","null","<img src=""img/land4.png"" style=""width:200px; border:14px solid green;"">","null","","","","","","","","","",""
"","image-keyboard-response","152","77321","0.0-152.0","","","","","217.70000004768372","img/land4.png","76","218.40000009536743","3","1","3","1","1,0.5,0.5,0.5,1,0.5,0.5,0.5,1","1,0.5,0.5,0.5,1,0.5,0.5,0.5,1","1","",""
"","html-keyboard-response","153","77624","0.0-153.0","","","","","null","<img src=""img/land4.png"" style=""width:200px; border:14px solid green;"">","null","","","","","","","","","",""
"","image-keyboard-response","154","77714","0.0-154.0","","","","","89","img/land6.png","76","89.79999995231628","3","0","1","1","1,0.5,0.5,0.5,1,0.5,0.5,0.5,1","1,0.5,0.5,0.5,1,0.5,0.5,0.5,1","1","",""
"","html-keyboard-response","155","78015","0.0-155.0","","","","","null","<img src=""img/land6.png"" style=""width:200px;border:14px solid red;"">","null","","","","","","","","","",""
"","image-keyboard-response","156","78257","0.0-156.0","","","","","240.89999985694885","img/land6.png","75","241.5","2","1","1","1","1,0.5,0.5,0.5,1,0.5,0.5,0.5,1","1,0.5,0.5,0.5,1,0.5,0.5,0.5,1","1","",""
"","html-keyboard-response","157","78559","0.0-157.0","","","","","null","<img src=""img/land6.png"" style=""width:200px; border:14px solid green;"">","null","","","","","","","","","",""
"","image-keyboard-response","158","78768","0.0-158.0","","","","","207.70000004768372","img/land4.png","75","209.10000014305115","2","0","3","1","1,0.5,0.5,0.5,1,0.5,0.5,0.5,1","1,0.5,0.5,0.5,1,0.5,0.5,0.5,1","1","",""
"","html-keyboard-response","159","79070","0.0-159.0","","","","","null","<img src=""img/land4.png"" style=""width:200px;border:14px solid red;"">","null","","","","","","","","","",""
"","image-keyboard-response","160","79235","0.0-160.0","","","","","164.5","img/land5.png","76","165.09999990463257","3","0","2","1","1,0.5,0.5,0.5,1,0.5,0.5,0.5,1","1,0.5,0.5,0.5,1,0.5,0.5,0.5,1","1","",""
"","html-keyboard-response","161","79537","0.0-161.0","","","","","null","<img src=""img/land5.png"" style=""width:200px;border:14px solid red;"">","null","","","","","","","","","",""
"","image-keyboard-response","162","79713","0.0-162.0","","","","","175.59999990463257","img/land4.png","76","176.39999985694885","3","1","3","1","1,0.5,0.5,0.5,1,0.5,0.5,0.5,1","1,0.5,0.5,0.5,1,0.5,0.5,0.5,1","1","",""
"","html-keyboard-response","163","80015","0.0-163.0","","","","","null","<img src=""img/land4.png"" style=""width:200px; border:14px solid green;"">","null","","","","","","","","","",""
"","image-keyboard-response","164","80152","0.0-164.0","","","","","136.20000004768372","img/land5.png","74","136.79999995231628","1","0","2","1","1,0.5,0.5,0.5,1,0.5,0.5,0.5,1","1,0.5,0.5,0.5,1,0.5,0.5,0.5,1","1","",""
"","html-keyboard-response","165","80453","0.0-165.0","","","","","null","<img src=""img/land5.png"" style=""width:200px;border:14px solid red;"">","null","","","","","","","","","",""
"","image-keyboard-response","166","80737","0.0-166.0","","","","","283.5","img/land4.png","74","284.2000000476837","1","0","3","1","1,0.5,0.5,0.5,1,0.5,0.5,0.5,1","1,0.5,0.5,0.5,1,0.5,0.5,0.5,1","1","",""
"","html-keyboard-response","167","81040","0.0-167.0","","","","","null","<img src=""img/land4.png"" style=""width:200px;border:14px solid red;"">","null","","","","","","","","","",""
"","image-keyboard-response","168","81178","0.0-168.0","","","","","137","img/land6.png","75","137.5","2","0","1","1","1,0.5,0.5,0.5,1,0.5,0.5,0.5,1","1,0.5,0.5,0.5,1,0.5,0.5,0.5,1","1","",""
"","html-keyboard-response","169","81479","0.0-169.0","","","","","null","<img src=""img/land6.png"" style=""width:200px;border:14px solid red;"">","null","","","","","","","","","",""
"","image-keyboard-response","170","81596","0.0-170.0","","","","","115.39999985694885","img/land5.png","76","116.20000004768372","3","1","2","1","1,0.5,0.5,0.5,1,0.5,0.5,0.5,1","1,0.5,0.5,0.5,1,0.5,0.5,0.5,1","1","",""
"","html-keyboard-response","171","81897","0.0-171.0","","","","","null","<img src=""img/land5.png"" style=""width:200px; border:14px solid green;"">","null","","","","","","","","","",""
"","image-keyboard-response","172","82031","0.0-172.0","","","","","133.29999995231628","img/land5.png","76","134.20000004768372","3","0","2","1","1,0.5,0.5,0.5,1,0.5,0.5,0.5,1","1,0.5,0.5,0.5,1,0.5,0.5,0.5,1","1","",""
"","html-keyboard-response","173","82333","0.0-173.0","","","","","null","<img src=""img/land5.png"" style=""width:200px;border:14px solid red;"">","null","","","","","","","","","",""
"","image-keyboard-response","174","82476","0.0-174.0","","","","","141.80000019073486","img/land5.png","76","142.5","3","0","2","1","1,0.5,0.5,0.5,1,0.5,0.5,0.5,1","1,0.5,0.5,0.5,1,0.5,0.5,0.5,1","1","",""
"","html-keyboard-response","175","82778","0.0-175.0","","","","","null","<img src=""img/land5.png"" style=""width:200px;border:14px solid red;"">","null","","","","","","","","","",""
"","image-keyboard-response","176","82906","0.0-176.0","","","","","128","img/land6.png","75","128.5","2","0","1","1","1,0.5,0.5,0.5,1,0.5,0.5,0.5,1","1,0.5,0.5,0.5,1,0.5,0.5,0.5,1","1","",""
"","html-keyboard-response","177","83208","0.0-177.0","","","","","null","<img src=""img/land6.png"" style=""width:200px;border:14px solid red;"">","null","","","","","","","","","",""
"","image-keyboard-response","178","83522","0.0-178.0","","","","","312.59999990463257","img/land4.png","74","313.5","1","1","3","1","1,0.5,0.5,0.5,1,0.5,0.5,0.5,1","1,0.5,0.5,0.5,1,0.5,0.5,0.5,1","1","",""
"","html-keyboard-response","179","83824","0.0-179.0","","","","","null","<img src=""img/land4.png"" style=""width:200px; border:14px solid green;"">","null","","","","","","","","","",""
"","image-keyboard-response","180","84152","0.0-180.0","","","","","327.40000009536743","img/land6.png","74","328","1","1","1","1","1,0.5,0.5,0.5,1,0.5,0.5,0.5,1","1,0.5,0.5,0.5,1,0.5,0.5,0.5,1","1","",""
"","html-keyboard-response","181","84454","0.0-181.0","","","","","null","<img src=""img/land6.png"" style=""width:200px; border:14px solid green;"">","null","","","","","","","","","",""
"","html-keyboard-response","182","86747","0.0-182.0","","","","","","","","","","","","","","","","",""
"","image-keyboard-response","183","88009","0.0-183.0","","","","","1261.5","img/land1.png","75","1262.3999998569489","2","1","1","2","1,0.5,0.5,0.5,1,0.5,0.5,0.5,1","1,0.5,0.5,0.5,1,0.5,0.5,0.5,1","1","",""
"","html-keyboard-response","184","88311","0.0-184.0","","","","","null","<img src=""img/land1.png"" style=""width:200px; border:14px solid green;"">","null","","","","","","","","","",""
"","image-keyboard-response","185","89266","0.0-185.0","","","","","954.5","img/land3.png","76","955.1000001430511","3","1","3","2","1,0.5,0.5,0.5,1,0.5,0.5,0.5,1","1,0.5,0.5,0.5,1,0.5,0.5,0.5,1","1","",""
"","html-keyboard-response","186","89568","0.0-186.0","","","","","null","<img src=""img/land3.png"" style=""width:200px; border:14px solid green;"">","null","","","","","","","","","",""
"","image-keyboard-response","187","89963","0.0-187.0","","","","","393.60000014305115","img/land1.png","75","394.5","2","0","1","2","1,0.5,0.5,0.5,1,0.5,0.5,0.5,1","1,0.5,0.5,0.5,1,0.5,0.5,0.5,1","1","",""
"","html-keyboard-response","188","90265","0.0-188.0","","","","","null","<img src=""img/land1.png"" style=""width:200px;border:14px solid red;"">","null","","","","","","","","","",""
"","image-keyboard-response","189","90649","0.0-189.0","","","","","383.60000014305115","img/land1.png","76","384.2000000476837","3","1","1","2","1,0.5,0.5,0.5,1,0.5,0.5,0.5,1","1,0.5,0.5,0.5,1,0.5,0.5,0.5,1","1","",""
"","html-keyboard-response","190","90951","0.0-190.0","","","","","null","<img src=""img/land1.png"" style=""width:200px; border:14px solid green;"">","null","","","","","","","","","",""
"","image-keyboard-response","191","91378","0.0-191.0","","","","","426.09999990463257","img/land1.png","76","426.89999985694885","3","1","1","2","1,0.5,0.5,0.5,1,0.5,0.5,0.5,1","1,0.5,0.5,0.5,1,0.5,0.5,0.5,1","1","",""
"","html-keyboard-response","192","91694","0.0-192.0","","","","","null","<img src=""img/land1.png"" style=""width:200px; border:14px solid green;"">","null","","","","","","","","","",""
"","image-keyboard-response","193","91917","0.0-193.0","","","","","221.89999985694885","img/land1.png","76","222.5","3","1","1","2","1,0.5,0.5,0.5,1,0.5,0.5,0.5,1","1,0.5,0.5,0.5,1,0.5,0.5,0.5,1","1","",""
"","html-keyboard-response","194","92219","0.0-194.0","","","","","null","<img src=""img/land1.png"" style=""width:200px; border:14px solid green;"">","null","","","","","","","","","",""
"","image-keyboard-response","195","92356","0.0-195.0","","","","","136.09999990463257","img/land1.png","76","136.90000009536743","3","1","1","2","1,0.5,0.5,0.5,1,0.5,0.5,0.5,1","1,0.5,0.5,0.5,1,0.5,0.5,0.5,1","1","",""
"","html-keyboard-response","196","92657","0.0-196.0","","","","","null","<img src=""img/land1.png"" style=""width:200px; border:14px solid green;"">","null","","","","","","","","","",""
"","image-keyboard-response","197","92721","0.0-197.0","","","","","63.19999980926514","img/land1.png","76","63.700000047683716","3","1","1","2","1,0.5,0.5,0.5,1,0.5,0.5,0.5,1","1,0.5,0.5,0.5,1,0.5,0.5,0.5,1","1","",""
"","html-keyboard-response","198","93023","0.0-198.0","","","","","null","<img src=""img/land1.png"" style=""width:200px; border:14px solid green;"">","null","","","","","","","","","",""
"","image-keyboard-response","199","93085","0.0-199.0","","","","","61","img/land2.png","76","61.799999952316284","3","0","2","2","1,0.5,0.5,0.5,1,0.5,0.5,0.5,1","1,0.5,0.5,0.5,1,0.5,0.5,0.5,1","1","",""
"","html-keyboard-response","200","93387","0.0-200.0","","","","","null","<img src=""img/land2.png"" style=""width:200px;border:14px solid red;"">","null","","","","","","","","","",""
"","image-keyboard-response","201","93760","0.0-201.0","","","","","372.40000009536743","img/land1.png","75","373.2000000476837","2","1","1","2","1,0.5,0.5,0.5,1,0.5,0.5,0.5,1","1,0.5,0.5,0.5,1,0.5,0.5,0.5,1","1","",""
"","html-keyboard-response","202","94062","0.0-202.0","","","","","null","<img src=""img/land1.png"" style=""width:200px; border:14px solid green;"">","null","","","","","","","","","",""
"","image-keyboard-response","203","94296","0.0-203.0","","","","","233.39999985694885","img/land1.png","75","234.09999990463257","2","0","1","2","1,0.5,0.5,0.5,1,0.5,0.5,0.5,1","1,0.5,0.5,0.5,1,0.5,0.5,0.5,1","1","",""
"","html-keyboard-response","204","94603","0.0-204.0","","","","","null","<img src=""img/land1.png"" style=""width:200px;border:14px solid red;"">","null","","","","","","","","","",""
"","image-keyboard-response","205","94727","0.0-205.0","","","","","123.19999980926514","img/land1.png","75","123.79999995231628","2","0","1","2","1,0.5,0.5,0.5,1,0.5,0.5,0.5,1","1,0.5,0.5,0.5,1,0.5,0.5,0.5,1","1","",""
"","html-keyboard-response","206","95029","0.0-206.0","","","","","null","<img src=""img/land1.png"" style=""width:200px;border:14px solid red;"">","null","","","","","","","","","",""
"","image-keyboard-response","207","95289","0.0-207.0","","","","","258.5","img/land1.png","76","259.10000014305115","3","0","1","2","1,0.5,0.5,0.5,1,0.5,0.5,0.5,1","1,0.5,0.5,0.5,1,0.5,0.5,0.5,1","1","",""
"","html-keyboard-response","208","95590","0.0-208.0","","","","","null","<img src=""img/land1.png"" style=""width:200px;border:14px solid red;"">","null","","","","","","","","","",""
"","image-keyboard-response","209","95905","0.0-209.0","","","","","314.40000009536743","img/land1.png","74","315.09999990463257","1","1","1","2","1,0.5,0.5,0.5,1,0.5,0.5,0.5,1","1,0.5,0.5,0.5,1,0.5,0.5,0.5,1","1","",""
"","html-keyboard-response","210","96207","0.0-210.0","","","","","null","<img src=""img/land1.png"" style=""width:200px; border:14px solid green;"">","null","","","","","","","","","",""
"","image-keyboard-response","211","96698","0.0-211.0","","","","","490.10000014305115","img/land2.png","74","490.89999985694885","1","1","2","2","1,0.5,0.5,0.5,1,0.5,0.5,0.5,1","1,0.5,0.5,0.5,1,0.5,0.5,0.5,1","1","",""
"","html-keyboard-response","212","97001","0.0-212.0","","","","","null","<img src=""img/land2.png"" style=""width:200px; border:14px solid green;"">","null","","","","","","","","","",""
"","image-keyboard-response","213","97856","0.0-213.0","","","","","853.8999998569489","img/land1.png","74","854.5","1","1","1","2","1,0.5,0.5,0.5,1,0.5,0.5,0.5,1","1,0.5,0.5,0.5,1,0.5,0.5,0.5,1","1","",""
"","html-keyboard-response","214","98158","0.0-214.0","","","","","null","<img src=""img/land1.png"" style=""width:200px; border:14px solid green;"">","null","","","","","","","","","",""
"","image-keyboard-response","215","98457","0.0-215.0","","","","","298.09999990463257","img/land3.png","74","298.7999999523163","1","1","3","2","1,0.5,0.5,0.5,1,0.5,0.5,0.5,1","1,0.5,0.5,0.5,1,0.5,0.5,0.5,1","1","",""
"","html-keyboard-response","216","98759","0.0-216.0","","","","","null","<img src=""img/land3.png"" style=""width:200px; border:14px solid green;"">","null","","","","","","","","","",""
"","image-keyboard-response","217","99108","0.0-217.0","","","","","347.7000000476837","img/land1.png","74","348.2000000476837","1","1","1","2","1,0.5,0.5,0.5,1,0.5,0.5,0.5,1","1,0.5,0.5,0.5,1,0.5,0.5,0.5,1","1","",""
"","html-keyboard-response","218","99409","0.0-218.0","","","","","null","<img src=""img/land1.png"" style=""width:200px; border:14px solid green;"">","null","","","","","","","","","",""
"","image-keyboard-response","219","99594","0.0-219.0","","","","","183.40000009536743","img/land1.png","74","184.40000009536743","1","1","1","2","1,0.5,0.5,0.5,1,0.5,0.5,0.5,1","1,0.5,0.5,0.5,1,0.5,0.5,0.5,1","1","",""
"","html-keyboard-response","220","99895","0.0-220.0","","","","","null","<img src=""img/land1.png"" style=""width:200px; border:14px solid green;"">","null","","","","","","","","","",""
"","image-keyboard-response","221","100001","0.0-221.0","","","","","105.39999985694885","img/land1.png","74","105.90000009536743","1","1","1","2","1,0.5,0.5,0.5,1,0.5,0.5,0.5,1","1,0.5,0.5,0.5,1,0.5,0.5,0.5,1","1","",""
"","html-keyboard-response","222","100302","0.0-222.0","","","","","null","<img src=""img/land1.png"" style=""width:200px; border:14px solid green;"">","null","","","","","","","","","",""
"","image-keyboard-response","223","100436","0.0-223.0","","","","","133","img/land1.png","74","133.70000004768372","1","1","1","2","1,0.5,0.5,0.5,1,0.5,0.5,0.5,1","1,0.5,0.5,0.5,1,0.5,0.5,0.5,1","1","",""
"","html-keyboard-response","224","100738","0.0-224.0","","","","","null","<img src=""img/land1.png"" style=""width:200px; border:14px solid green;"">","null","","","","","","","","","",""
"","image-keyboard-response","225","100850","0.0-225.0","","","","","110.60000014305115","img/land1.png","74","111.60000014305115","1","1","1","2","1,0.5,0.5,0.5,1,0.5,0.5,0.5,1","1,0.5,0.5,0.5,1,0.5,0.5,0.5,1","1","",""
"","html-keyboard-response","226","101151","0.0-226.0","","","","","null","<img src=""img/land1.png"" style=""width:200px; border:14px solid green;"">","null","","","","","","","","","",""
"","image-keyboard-response","227","101258","0.0-227.0","","","","","105.70000004768372","img/land1.png","74","106.39999985694885","1","1","1","2","1,0.5,0.5,0.5,1,0.5,0.5,0.5,1","1,0.5,0.5,0.5,1,0.5,0.5,0.5,1","1","",""
"","html-keyboard-response","228","101559","0.0-228.0","","","","","null","<img src=""img/land1.png"" style=""width:200px; border:14px solid green;"">","null","","","","","","","","","",""
"","image-keyboard-response","229","101687","0.0-229.0","","","","","127.19999980926514","img/land1.png","74","128","1","1","1","2","1,0.5,0.5,0.5,1,0.5,0.5,0.5,1","1,0.5,0.5,0.5,1,0.5,0.5,0.5,1","1","",""
"","html-keyboard-response","230","101989","0.0-230.0","","","","","null","<img src=""img/land1.png"" style=""width:200px; border:14px solid green;"">","null","","","","","","","","","",""
"","image-keyboard-response","231","102082","0.0-231.0","","","","","92.20000004768372","img/land1.png","74","93.10000014305115","1","1","1","2","1,0.5,0.5,0.5,1,0.5,0.5,0.5,1","1,0.5,0.5,0.5,1,0.5,0.5,0.5,1","1","",""
"","html-keyboard-response","232","102383","0.0-232.0","","","","","null","<img src=""img/land1.png"" style=""width:200px; border:14px solid green;"">","null","","","","","","","","","",""
"","image-keyboard-response","233","102443","0.0-233.0","","","","","58.30000019073486","img/land1.png","74","59.10000014305115","1","1","1","2","1,0.5,0.5,0.5,1,0.5,0.5,0.5,1","1,0.5,0.5,0.5,1,0.5,0.5,0.5,1","1","",""
"","html-keyboard-response","234","102744","0.0-234.0","","","","","null","<img src=""img/land1.png"" style=""width:200px; border:14px solid green;"">","null","","","","","","","","","",""
"","image-keyboard-response","235","102787","0.0-235.0","","","","","41.69999980926514","img/land1.png","74","42.5","1","1","1","2","1,0.5,0.5,0.5,1,0.5,0.5,0.5,1","1,0.5,0.5,0.5,1,0.5,0.5,0.5,1","1","",""
"","html-keyboard-response","236","103090","0.0-236.0","","","","","null","<img src=""img/land1.png"" style=""width:200px; border:14px solid green;"">","null","","","","","","","","","",""
"","image-keyboard-response","237","103274","0.0-237.0","","","","","183.20000004768372","img/land3.png","74","183.89999985694885","1","1","3","2","1,0.5,0.5,0.5,1,0.5,0.5,0.5,1","1,0.5,0.5,0.5,1,0.5,0.5,0.5,1","1","",""
"","html-keyboard-response","238","103576","0.0-238.0","","","","","null","<img src=""img/land3.png"" style=""width:200px; border:14px solid green;"">","null","","","","","","","","","",""
"","image-keyboard-response","239","104010","0.0-239.0","","","","","432.5","img/land2.png","74","433.2000000476837","1","0","2","2","1,0.5,0.5,0.5,1,0.5,0.5,0.5,1","1,0.5,0.5,0.5,1,0.5,0.5,0.5,1","1","",""
"","html-keyboard-response","240","104312","0.0-240.0","","","","","null","<img src=""img/land2.png"" style=""width:200px;border:14px solid red;"">","null","","","","","","","","","",""
"","image-keyboard-response","241","104387","0.0-241.0","","","","","73.80000019073486","img/land1.png","74","74.40000009536743","1","1","1","2","1,0.5,0.5,0.5,1,0.5,0.5,0.5,1","1,0.5,0.5,0.5,1,0.5,0.5,0.5,1","1","",""
"","html-keyboard-response","242","104689","0.0-242.0","","","","","null","<img src=""img/land1.png"" style=""width:200px; border:14px solid green;"">","null","","","","","","","","","",""
"","image-keyboard-response","243","104737","0.0-243.0","","","","","46.69999980926514","img/land3.png","76","47.30000019073486","3","1","3","2","1,0.5,0.5,0.5,1,0.5,0.5,0.5,1","1,0.5,0.5,0.5,1,0.5,0.5,0.5,1","1","",""
"","html-keyboard-response","244","105039","0.0-244.0","","","","","null","<img src=""img/land3.png"" style=""width:200px; border:14px solid green;"">","null","","","","","","","","","",""
"","image-keyboard-response","245","105418","0.0-245.0","","","","","377.7000000476837","img/land1.png","74","378.39999985694885","1","1","1","2","1,0.5,0.5,0.5,1,0.5,0.5,0.5,1","1,0.5,0.5,0.5,1,0.5,0.5,0.5,1","1","",""
"","html-keyboard-response","246","105719","0.0-246.0","","","","","null","<img src=""img/land1.png"" style=""width:200px; border:14px solid green;"">","null","","","","","","","","","",""
"","image-keyboard-response","247","105938","0.0-247.0","","","","","217.90000009536743","img/land3.png","76","218.90000009536743","3","1","3","2","1,0.5,0.5,0.5,1,0.5,0.5,0.5,1","1,0.5,0.5,0.5,1,0.5,0.5,0.5,1","1","",""
"","html-keyboard-response","248","106240","0.0-248.0","","","","","null","<img src=""img/land3.png"" style=""width:200px; border:14px solid green;"">","null","","","","","","","","","",""
"","image-keyboard-response","249","106432","0.0-249.0","","","","","191.5","img/land2.png","74","192.09999990463257","1","1","2","2","1,0.5,0.5,0.5,1,0.5,0.5,0.5,1","1,0.5,0.5,0.5,1,0.5,0.5,0.5,1","1","",""
"","html-keyboard-response","250","106734","0.0-250.0","","","","","null","<img src=""img/land2.png"" style=""width:200px; border:14px solid green;"">","null","","","","","","","","","",""
"","image-keyboard-response","251","106850","0.0-251.0","","","","","115.10000014305115","img/land1.png","74","115.70000004768372","1","1","1","2","1,0.5,0.5,0.5,1,0.5,0.5,0.5,1","1,0.5,0.5,0.5,1,0.5,0.5,0.5,1","1","",""
"","html-keyboard-response","252","107151","0.0-252.0","","","","","null","<img src=""img/land1.png"" style=""width:200px; border:14px solid green;"">","null","","","","","","","","","",""
"","image-keyboard-response","253","107273","0.0-253.0","","","","","121.20000004768372","img/land1.png","74","122","1","1","1","2","1,0.5,0.5,0.5,1,0.5,0.5,0.5,1","1,0.5,0.5,0.5,1,0.5,0.5,0.5,1","1","",""
"","html-keyboard-response","254","107575","0.0-254.0","","","","","null","<img src=""img/land1.png"" style=""width:200px; border:14px solid green;"">","null","","","","","","","","","",""
"","image-keyboard-response","255","107715","0.0-255.0","","","","","139.90000009536743","img/land2.png","74","140.60000014305115","1","0","2","2","1,0.5,0.5,0.5,1,0.5,0.5,0.5,1","1,0.5,0.5,0.5,1,0.5,0.5,0.5,1","1","",""
"","html-keyboard-response","256","108017","0.0-256.0","","","","","null","<img src=""img/land2.png"" style=""width:200px;border:14px solid red;"">","null","","","","","","","","","",""
"","image-keyboard-response","257","108332","0.0-257.0","","","","","313.60000014305115","img/land2.png","75","314.2999999523163","2","1","2","2","1,0.5,0.5,0.5,1,0.5,0.5,0.5,1","1,0.5,0.5,0.5,1,0.5,0.5,0.5,1","1","",""
"","html-keyboard-response","258","108633","0.0-258.0","","","","","null","<img src=""img/land2.png"" style=""width:200px; border:14px solid green;"">","null","","","","","","","","","",""
"","image-keyboard-response","259","108874","0.0-259.0","","","","","240.29999995231628","img/land1.png","76","241","3","0","1","2","1,0.5,0.5,0.5,1,0.5,0.5,0.5,1","1,0.5,0.5,0.5,1,0.5,0.5,0.5,1","1","",""
"","html-keyboard-response","260","109176","0.0-260.0","","","","","null","<img src=""img/land1.png"" style=""width:200px;border:14px solid red;"">","null","","","","","","","","","",""
"","image-keyboard-response","261","109393","0.0-261.0","","","","","216.40000009536743","img/land2.png","74","217","1","0","2","2","1,0.5,0.5,0.5,1,0.5,0.5,0.5,1","1,0.5,0.5,0.5,1,0.5,0.5,0.5,1","1","",""
"","html-keyboard-response","262","109694","0.0-262.0","","","","","null","<img src=""img/land2.png"" style=""width:200px;border:14px solid red;"">","null","","","","","","","","","",""
"","image-keyboard-response","263","109888","0.0-263.0","","","","","193.5","img/land1.png","74","194.30000019073486","1","1","1","2","1,0.5,0.5,0.5,1,0.5,0.5,0.5,1","1,0.5,0.5,0.5,1,0.5,0.5,0.5,1","1","",""
"","html-keyboard-response","264","110190","0.0-264.0","","","","","null","<img src=""img/land1.png"" style=""width:200px; border:14px solid green;"">","null","","","","","","","","","",""
"","image-keyboard-response","265","110559","0.0-265.0","","","","","368.60000014305115","img/land3.png","74","369.2000000476837","1","0","3","2","1,0.5,0.5,0.5,1,0.5,0.5,0.5,1","1,0.5,0.5,0.5,1,0.5,0.5,0.5,1","1","",""
"","html-keyboard-response","266","110861","0.0-266.0","","","","","null","<img src=""img/land3.png"" style=""width:200px;border:14px solid red;"">","null","","","","","","","","","",""
"","image-keyboard-response","267","111122","0.0-267.0","","","","","260","img/land1.png","75","260.59999990463257","2","1","1","2","1,0.5,0.5,0.5,1,0.5,0.5,0.5,1","1,0.5,0.5,0.5,1,0.5,0.5,0.5,1","1","",""
"","html-keyboard-response","268","111424","0.0-268.0","","","","","null","<img src=""img/land1.png"" style=""width:200px; border:14px solid green;"">","null","","","","","","","","","",""
"","image-keyboard-response","269","111646","0.0-269.0","","","","","221","img/land1.png","76","221.59999990463257","3","0","1","2","1,0.5,0.5,0.5,1,0.5,0.5,0.5,1","1,0.5,0.5,0.5,1,0.5,0.5,0.5,1","1","",""
"","html-keyboard-response","270","111950","0.0-270.0","","","","","null","<img src=""img/land1.png"" style=""width:200px;border:14px solid red;"">","null","","","","","","","","","",""
"","image-keyboard-response","271","112121","0.0-271.0","","","","","170","img/land1.png","76","170.89999985694885","3","1","1","2","1,0.5,0.5,0.5,1,0.5,0.5,0.5,1","1,0.5,0.5,0.5,1,0.5,0.5,0.5,1","1","",""
"","html-keyboard-response","272","112423","0.0-272.0","","","","","null","<img src=""img/land1.png"" style=""width:200px; border:14px solid green;"">","null","","","","","","","","","",""
"","image-keyboard-response","273","112611","0.0-273.0","","","","","186.79999995231628","img/land1.png","76","187.40000009536743","3","0","1","2","1,0.5,0.5,0.5,1,0.5,0.5,0.5,1","1,0.5,0.5,0.5,1,0.5,0.5,0.5,1","1","",""
"","html-keyboard-response","274","112912","0.0-274.0","","","","","null","<img src=""img/land1.png"" style=""width:200px;border:14px solid red;"">","null","","","","","","","","","",""
"","image-keyboard-response","275","113388","0.0-275.0","","","","","475.2000000476837","img/land1.png","74","476","1","1","1","2","1,0.5,0.5,0.5,1,0.5,0.5,0.5,1","1,0.5,0.5,0.5,1,0.5,0.5,0.5,1","1","",""
"","html-keyboard-response","276","113690","0.0-276.0","","","","","null","<img src=""img/land1.png"" style=""width:200px; border:14px solid green;"">","null","","","","","","","","","",""
"","image-keyboard-response","277","113833","0.0-277.0","","","","","142.29999995231628","img/land1.png","75","142.79999995231628","2","1","1","2","1,0.5,0.5,0.5,1,0.5,0.5,0.5,1","1,0.5,0.5,0.5,1,0.5,0.5,0.5,1","1","",""
"","html-keyboard-response","278","114134","0.0-278.0","","","","","null","<img src=""img/land1.png"" style=""width:200px; border:14px solid green;"">","null","","","","","","","","","",""
"","image-keyboard-response","279","114304","0.0-279.0","","","","","169.09999990463257","img/land3.png","74","169.80000019073486","1","1","3","2","1,0.5,0.5,0.5,1,0.5,0.5,0.5,1","1,0.5,0.5,0.5,1,0.5,0.5,0.5,1","1","",""
"","html-keyboard-response","280","114606","0.0-280.0","","","","","null","<img src=""img/land3.png"" style=""width:200px; border:14px solid green;"">","null","","","","","","","","","",""
"","image-keyboard-response","281","114920","0.0-281.0","","","","","313.5","img/land1.png","75","314","2","1","1","2","1,0.5,0.5,0.5,1,0.5,0.5,0.5,1","1,0.5,0.5,0.5,1,0.5,0.5,0.5,1","1","",""
"","html-keyboard-response","282","115222","0.0-282.0","","","","","null","<img src=""img/land1.png"" style=""width:200px; border:14px solid green;"">","null","","","","","","","","","",""
"","image-keyboard-response","283","115328","0.0-283.0","","","","","104.70000004768372","img/land3.png","74","105.39999985694885","1","1","3","2","1,0.5,0.5,0.5,1,0.5,0.5,0.5,1","1,0.5,0.5,0.5,1,0.5,0.5,0.5,1","1","",""
"","html-keyboard-response","284","115629","0.0-284.0","","","","","null","<img src=""img/land3.png"" style=""width:200px; border:14px solid green;"">","null","","","","","","","","","",""
"","image-keyboard-response","285","115833","0.0-285.0","","","","","203.40000009536743","img/land3.png","76","204.19999980926514","3","1","3","2","1,0.5,0.5,0.5,1,0.5,0.5,0.5,1","1,0.5,0.5,0.5,1,0.5,0.5,0.5,1","1","",""
"","html-keyboard-response","286","116136","0.0-286.0","","","","","null","<img src=""img/land3.png"" style=""width:200px; border:14px solid green;"">","null","","","","","","","","","",""
"","image-keyboard-response","287","116391","0.0-287.0","","","","","253.40000009536743","img/land1.png","76","254.20000004768372","3","0","1","2","1,0.5,0.5,0.5,1,0.5,0.5,0.5,1","1,0.5,0.5,0.5,1,0.5,0.5,0.5,1","1","",""
"","html-keyboard-response","288","116693","0.0-288.0","","","","","null","<img src=""img/land1.png"" style=""width:200px;border:14px solid red;"">","null","","","","","","","","","",""
"","image-keyboard-response","289","116807","0.0-289.0","","","","","113.39999985694885","img/land1.png","75","114.29999995231628","2","0","1","2","1,0.5,0.5,0.5,1,0.5,0.5,0.5,1","1,0.5,0.5,0.5,1,0.5,0.5,0.5,1","1","",""
"","html-keyboard-response","290","117110","0.0-290.0","","","","","null","<img src=""img/land1.png"" style=""width:200px;border:14px solid red;"">","null","","","","","","","","","",""
"","image-keyboard-response","291","117210","0.0-291.0","","","","","99.29999995231628","img/land3.png","74","100","1","1","3","2","1,0.5,0.5,0.5,1,0.5,0.5,0.5,1","1,0.5,0.5,0.5,1,0.5,0.5,0.5,1","1","",""
"","html-keyboard-response","292","117511","0.0-292.0","","","","","null","<img src=""img/land3.png"" style=""width:200px; border:14px solid green;"">","null","","","","","","","","","",""
"","image-keyboard-response","293","117801","0.0-293.0","","","","","288.39999985694885","img/land2.png","75","289.2000000476837","2","1","2","2","1,0.5,0.5,0.5,1,0.5,0.5,0.5,1","1,0.5,0.5,0.5,1,0.5,0.5,0.5,1","1","",""
"","html-keyboard-response","294","118102","0.0-294.0","","","","","null","<img src=""img/land2.png"" style=""width:200px; border:14px solid green;"">","null","","","","","","","","","",""
"","image-keyboard-response","295","118202","0.0-295.0","","","","","99.20000004768372","img/land1.png","74","99.89999985694885","1","1","1","2","1,0.5,0.5,0.5,1,0.5,0.5,0.5,1","1,0.5,0.5,0.5,1,0.5,0.5,0.5,1","1","",""
"","html-keyboard-response","296","118504","0.0-296.0","","","","","null","<img src=""img/land1.png"" style=""width:200px; border:14px solid green;"">","null","","","","","","","","","",""
"","image-keyboard-response","297","118665","0.0-297.0","","","","","160","img/land1.png","76","161.29999995231628","3","1","1","2","1,0.5,0.5,0.5,1,0.5,0.5,0.5,1","1,0.5,0.5,0.5,1,0.5,0.5,0.5,1","1","",""
"","html-keyboard-response","298","118968","0.0-298.0","","","","","null","<img src=""img/land1.png"" style=""width:200px; border:14px solid green;"">","null","","","","","","","","","",""
"","image-keyboard-response","299","119176","0.0-299.0","","","","","207.79999995231628","img/land2.png","74","208.60000014305115","1","1","2","2","1,0.5,0.5,0.5,1,0.5,0.5,0.5,1","1,0.5,0.5,0.5,1,0.5,0.5,0.5,1","1","",""
"","html-keyboard-response","300","119478","0.0-300.0","","","","","null","<img src=""img/land2.png"" style=""width:200px; border:14px solid green;"">","null","","","","","","","","","",""
"","image-keyboard-response","301","119609","0.0-301.0","","","","","131.09999990463257","img/land2.png","75","131.79999995231628","2","1","2","2","1,0.5,0.5,0.5,1,0.5,0.5,0.5,1","1,0.5,0.5,0.5,1,0.5,0.5,0.5,1","1","",""
"","html-keyboard-response","302","119911","0.0-302.0","","","","","null","<img src=""img/land2.png"" style=""width:200px; border:14px solid green;"">","null","","","","","","","","","",""
"","image-keyboard-response","303","120052","0.0-303.0","","","","","140","img/land1.png","76","140.70000004768372","3","0","1","2","1,0.5,0.5,0.5,1,0.5,0.5,0.5,1","1,0.5,0.5,0.5,1,0.5,0.5,0.5,1","1","",""
"","html-keyboard-response","304","120354","0.0-304.0","","","","","null","<img src=""img/land1.png"" style=""width:200px;border:14px solid red;"">","null","","","","","","","","","",""
"","image-keyboard-response","305","120512","0.0-305.0","","","","","157.19999980926514","img/land3.png","75","157.90000009536743","2","1","3","2","1,0.5,0.5,0.5,1,0.5,0.5,0.5,1","1,0.5,0.5,0.5,1,0.5,0.5,0.5,1","1","",""
"","html-keyboard-response","306","120814","0.0-306.0","","","","","null","<img src=""img/land3.png"" style=""width:200px; border:14px solid green;"">","null","","","","","","","","","",""
"","image-keyboard-response","307","120921","0.0-307.0","","","","","106.5","img/land2.png","74","107","1","1","2","2","1,0.5,0.5,0.5,1,0.5,0.5,0.5,1","1,0.5,0.5,0.5,1,0.5,0.5,0.5,1","1","",""
"","html-keyboard-response","308","121223","0.0-308.0","","","","","null","<img src=""img/land2.png"" style=""width:200px; border:14px solid green;"">","null","","","","","","","","","",""
"","image-keyboard-response","309","121384","0.0-309.0","","","","","161.09999990463257","img/land1.png","75","161.79999995231628","2","0","1","2","1,0.5,0.5,0.5,1,0.5,0.5,0.5,1","1,0.5,0.5,0.5,1,0.5,0.5,0.5,1","1","",""
"","html-keyboard-response","310","121686","0.0-310.0","","","","","null","<img src=""img/land1.png"" style=""width:200px;border:14px solid red;"">","null","","","","","","","","","",""
"","image-keyboard-response","311","121873","0.0-311.0","","","","","185.40000009536743","img/land1.png","76","185.89999985694885","3","1","1","2","1,0.5,0.5,0.5,1,0.5,0.5,0.5,1","1,0.5,0.5,0.5,1,0.5,0.5,0.5,1","1","",""
"","html-keyboard-response","312","122175","0.0-312.0","","","","","null","<img src=""img/land1.png"" style=""width:200px; border:14px solid green;"">","null","","","","","","","","","",""
"","image-keyboard-response","313","122520","0.0-313.0","","","","","343.59999990463257","img/land1.png","76","344.19999980926514","3","0","1","2","1,0.5,0.5,0.5,1,0.5,0.5,0.5,1","1,0.5,0.5,0.5,1,0.5,0.5,0.5,1","1","",""
"","html-keyboard-response","314","122822","0.0-314.0","","","","","null","<img src=""img/land1.png"" style=""width:200px;border:14px solid red;"">","null","","","","","","","","","",""
"","image-keyboard-response","315","122986","0.0-315.0","","","","","162.89999985694885","img/land1.png","76","163.39999985694885","3","1","1","2","1,0.5,0.5,0.5,1,0.5,0.5,0.5,1","1,0.5,0.5,0.5,1,0.5,0.5,0.5,1","1","",""
"","html-keyboard-response","316","123288","0.0-316.0","","","","","null","<img src=""img/land1.png"" style=""width:200px; border:14px solid green;"">","null","","","","","","","","","",""
"","image-keyboard-response","317","123570","0.0-317.0","","","","","281.59999990463257","img/land1.png","75","282.2000000476837","2","1","1","2","1,0.5,0.5,0.5,1,0.5,0.5,0.5,1","1,0.5,0.5,0.5,1,0.5,0.5,0.5,1","1","",""
"","html-keyboard-response","318","123873","0.0-318.0","","","","","null","<img src=""img/land1.png"" style=""width:200px; border:14px solid green;"">","null","","","","","","","","","",""
"","image-keyboard-response","319","124004","0.0-319.0","","","","","130.09999990463257","img/land1.png","74","130.79999995231628","1","1","1","2","1,0.5,0.5,0.5,1,0.5,0.5,0.5,1","1,0.5,0.5,0.5,1,0.5,0.5,0.5,1","1","",""
"","html-keyboard-response","320","124306","0.0-320.0","","","","","null","<img src=""img/land1.png"" style=""width:200px; border:14px solid green;"">","null","","","","","","","","","",""
"","image-keyboard-response","321","124474","0.0-321.0","","","","","167.10000014305115","img/land3.png","75","167.79999995231628","2","0","3","2","1,0.5,0.5,0.5,1,0.5,0.5,0.5,1","1,0.5,0.5,0.5,1,0.5,0.5,0.5,1","1","",""
"","html-keyboard-response","322","124777","0.0-322.0","","","","","null","<img src=""img/land3.png"" style=""width:200px;border:14px solid red;"">","null","","","","","","","","","",""
"","image-keyboard-response","323","124984","0.0-323.0","","","","","206.30000019073486","img/land1.png","74","207.09999990463257","1","1","1","2","1,0.5,0.5,0.5,1,0.5,0.5,0.5,1","1,0.5,0.5,0.5,1,0.5,0.5,0.5,1","1","",""
"","html-keyboard-response","324","125286","0.0-324.0","","","","","null","<img src=""img/land1.png"" style=""width:200px; border:14px solid green;"">","null","","","","","","","","","",""
"","image-keyboard-response","325","125448","0.0-325.0","","","","","161.40000009536743","img/land1.png","76","162","3","0","1","2","1,0.5,0.5,0.5,1,0.5,0.5,0.5,1","1,0.5,0.5,0.5,1,0.5,0.5,0.5,1","1","",""
"","html-keyboard-response","326","125751","0.0-326.0","","","","","null","<img src=""img/land1.png"" style=""width:200px;border:14px solid red;"">","null","","","","","","","","","",""
"","image-keyboard-response","327","125912","0.0-327.0","","","","","160.80000019073486","img/land1.png","74","161.5","1","1","1","2","1,0.5,0.5,0.5,1,0.5,0.5,0.5,1","1,0.5,0.5,0.5,1,0.5,0.5,0.5,1","1","",""
"","html-keyboard-response","328","126214","0.0-328.0","","","","","null","<img src=""img/land1.png"" style=""width:200px; border:14px solid green;"">","null","","","","","","","","","",""
"","image-keyboard-response","329","126444","0.0-329.0","","","","","229.19999980926514","img/land2.png","75","230","2","1","2","2","1,0.5,0.5,0.5,1,0.5,0.5,0.5,1","1,0.5,0.5,0.5,1,0.5,0.5,0.5,1","1","",""
"","html-keyboard-response","330","126745","0.0-330.0","","","","","null","<img src=""img/land2.png"" style=""width:200px; border:14px solid green;"">","null","","","","","","","","","",""
"","image-keyboard-response","331","127136","0.0-331.0","","","","","389.40000009536743","img/land1.png","75","390","2","0","1","2","1,0.5,0.5,0.5,1,0.5,0.5,0.5,1","1,0.5,0.5,0.5,1,0.5,0.5,0.5,1","1","",""
"","html-keyboard-response","332","127437","0.0-332.0","","","","","null","<img src=""img/land1.png"" style=""width:200px;border:14px solid red;"">","null","","","","","","","","","",""
"","image-keyboard-response","333","127720","0.0-333.0","","","","","283","img/land1.png","76","283.59999990463257","3","0","1","2","1,0.5,0.5,0.5,1,0.5,0.5,0.5,1","1,0.5,0.5,0.5,1,0.5,0.5,0.5,1","1","",""
"","html-keyboard-response","334","128022","0.0-334.0","","","","","null","<img src=""img/land1.png"" style=""width:200px;border:14px solid red;"">","null","","","","","","","","","",""
"","image-keyboard-response","335","128256","0.0-335.0","","","","","232.70000004768372","img/land1.png","74","233.39999985694885","1","1","1","2","1,0.5,0.5,0.5,1,0.5,0.5,0.5,1","1,0.5,0.5,0.5,1,0.5,0.5,0.5,1","1","",""
"","html-keyboard-response","336","128558","0.0-336.0","","","","","null","<img src=""img/land1.png"" style=""width:200px; border:14px solid green;"">","null","","","","","","","","","",""
"","image-keyboard-response","337","128824","0.0-337.0","","","","","264.60000014305115","img/land1.png","74","265.40000009536743","1","1","1","2","1,0.5,0.5,0.5,1,0.5,0.5,0.5,1","1,0.5,0.5,0.5,1,0.5,0.5,0.5,1","1","",""
"","html-keyboard-response","338","129125","0.0-338.0","","","","","null","<img src=""img/land1.png"" style=""width:200px; border:14px solid green;"">","null","","","","","","","","","",""
"","image-keyboard-response","339","129334","0.0-339.0","","","","","208.29999995231628","img/land1.png","74","209","1","1","1","2","1,0.5,0.5,0.5,1,0.5,0.5,0.5,1","1,0.5,0.5,0.5,1,0.5,0.5,0.5,1","1","",""
"","html-keyboard-response","340","129636","0.0-340.0","","","","","null","<img src=""img/land1.png"" style=""width:200px; border:14px solid green;"">","null","","","","","","","","","",""
"","image-keyboard-response","341","129747","0.0-341.0","","","","","110.59999990463257","img/land1.png","74","111.20000004768372","1","1","1","2","1,0.5,0.5,0.5,1,0.5,0.5,0.5,1","1,0.5,0.5,0.5,1,0.5,0.5,0.5,1","1","",""
"","html-keyboard-response","342","130049","0.0-342.0","","","","","null","<img src=""img/land1.png"" style=""width:200px; border:14px solid green;"">","null","","","","","","","","","",""
"","image-keyboard-response","343","130143","0.0-343.0","","","","","92.69999980926514","img/land2.png","74","93.5","1","1","2","2","1,0.5,0.5,0.5,1,0.5,0.5,0.5,1","1,0.5,0.5,0.5,1,0.5,0.5,0.5,1","1","",""
"","html-keyboard-response","344","130445","0.0-344.0","","","","","null","<img src=""img/land2.png"" style=""width:200px; border:14px solid green;"">","null","","","","","","","","","",""
"","image-keyboard-response","345","130840","0.0-345.0","","","","","394.5","img/land2.png","74","395.2999999523163","1","0","2","2","1,0.5,0.5,0.5,1,0.5,0.5,0.5,1","1,0.5,0.5,0.5,1,0.5,0.5,0.5,1","1","",""
"","html-keyboard-response","346","131142","0.0-346.0","","","","","null","<img src=""img/land2.png"" style=""width:200px;border:14px solid red;"">","null","","","","","","","","","",""
"","image-keyboard-response","347","131275","0.0-347.0","","","","","131.59999990463257","img/land1.png","74","132.29999995231628","1","1","1","2","1,0.5,0.5,0.5,1,0.5,0.5,0.5,1","1,0.5,0.5,0.5,1,0.5,0.5,0.5,1","1","",""
"","html-keyboard-response","348","131577","0.0-348.0","","","","","null","<img src=""img/land1.png"" style=""width:200px; border:14px solid green;"">","null","","","","","","","","","",""
"","image-keyboard-response","349","132081","0.0-349.0","","","","","503.5","img/land1.png","75","504.10000014305115","2","0","1","2","1,0.5,0.5,0.5,1,0.5,0.5,0.5,1","1,0.5,0.5,0.5,1,0.5,0.5,0.5,1","1","",""
"","html-keyboard-response","350","132382","0.0-350.0","","","","","null","<img src=""img/land1.png"" style=""width:200px;border:14px solid red;"">","null","","","","","","","","","",""
"","image-keyboard-response","351","132536","0.0-351.0","","","","","153","img/land1.png","76","153.80000019073486","3","0","1","2","1,0.5,0.5,0.5,1,0.5,0.5,0.5,1","1,0.5,0.5,0.5,1,0.5,0.5,0.5,1","1","",""
"","html-keyboard-response","352","132837","0.0-352.0","","","","","null","<img src=""img/land1.png"" style=""width:200px;border:14px solid red;"">","null","","","","","","","","","",""
"","image-keyboard-response","353","133104","0.0-353.0","","","","","266.2000000476837","img/land1.png","74","266.90000009536743","1","1","1","2","1,0.5,0.5,0.5,1,0.5,0.5,0.5,1","1,0.5,0.5,0.5,1,0.5,0.5,0.5,1","1","",""
"","html-keyboard-response","354","133406","0.0-354.0","","","","","null","<img src=""img/land1.png"" style=""width:200px; border:14px solid green;"">","null","","","","","","","","","",""
"","image-keyboard-response","355","133513","0.0-355.0","","","","","106.5","img/land3.png","74","107.10000014305115","1","0","3","2","1,0.5,0.5,0.5,1,0.5,0.5,0.5,1","1,0.5,0.5,0.5,1,0.5,0.5,0.5,1","1","",""
"","html-keyboard-response","356","133814","0.0-356.0","","","","","null","<img src=""img/land3.png"" style=""width:200px;border:14px solid red;"">","null","","","","","","","","","",""
"","image-keyboard-response","357","133975","0.0-357.0","","","","","160.19999980926514","img/land1.png","74","160.90000009536743","1","1","1","2","1,0.5,0.5,0.5,1,0.5,0.5,0.5,1","1,0.5,0.5,0.5,1,0.5,0.5,0.5,1","1","",""
"","html-keyboard-response","358","134277","0.0-358.0","","","","","null","<img src=""img/land1.png"" style=""width:200px; border:14px solid green;"">","null","","","","","","","","","",""
"","image-keyboard-response","359","134728","0.0-359.0","","","","","450.09999990463257","img/land2.png","74","450.7000000476837","1","1","2","2","1,0.5,0.5,0.5,1,0.5,0.5,0.5,1","1,0.5,0.5,0.5,1,0.5,0.5,0.5,1","1","",""
"","html-keyboard-response","360","135030","0.0-360.0","","","","","null","<img src=""img/land2.png"" style=""width:200px; border:14px solid green;"">","null","","","","","","","","","",""
"","image-keyboard-response","361","135376","0.0-361.0","","","","","344.59999990463257","img/land1.png","74","345.19999980926514","1","1","1","2","1,0.5,0.5,0.5,1,0.5,0.5,0.5,1","1,0.5,0.5,0.5,1,0.5,0.5,0.5,1","1","",""
"","html-keyboard-response","362","135678","0.0-362.0","","","","","null","<img src=""img/land1.png"" style=""width:200px; border:14px solid green;"">","null","","","","","","","","","",""
"","image-keyboard-response","363","135896","0.0-363.0","","","","","217.5","img/land1.png","74","218.19999980926514","1","1","1","2","1,0.5,0.5,0.5,1,0.5,0.5,0.5,1","1,0.5,0.5,0.5,1,0.5,0.5,0.5,1","1","",""
"","html-keyboard-response","364","136198","0.0-364.0","","","","","null","<img src=""img/land1.png"" style=""width:200px; border:14px solid green;"">","null","","","","","","","","","",""
"","image-keyboard-response","365","136336","0.0-365.0","","","","","136.90000009536743","img/land2.png","74","137.70000004768372","1","0","2","2","1,0.5,0.5,0.5,1,0.5,0.5,0.5,1","1,0.5,0.5,0.5,1,0.5,0.5,0.5,1","1","",""
"","html-keyboard-response","366","136638","0.0-366.0","","","","","null","<img src=""img/land2.png"" style=""width:200px;border:14px solid red;"">","null","","","","","","","","","",""
"","image-keyboard-response","367","136864","0.0-367.0","","","","","224.80000019073486","img/land2.png","75","225.29999995231628","2","1","2","2","1,0.5,0.5,0.5,1,0.5,0.5,0.5,1","1,0.5,0.5,0.5,1,0.5,0.5,0.5,1","1","",""
"","html-keyboard-response","368","137165","0.0-368.0","","","","","null","<img src=""img/land2.png"" style=""width:200px; border:14px solid green;"">","null","","","","","","","","","",""
"","image-keyboard-response","369","137360","0.0-369.0","","","","","194.60000014305115","img/land1.png","76","195.29999995231628","3","1","1","2","1,0.5,0.5,0.5,1,0.5,0.5,0.5,1","1,0.5,0.5,0.5,1,0.5,0.5,0.5,1","1","",""
"","html-keyboard-response","370","137662","0.0-370.0","","","","","null","<img src=""img/land1.png"" style=""width:200px; border:14px solid green;"">","null","","","","","","","","","",""
"","image-keyboard-response","371","137888","0.0-371.0","","","","","225.29999995231628","img/land3.png","76","225.90000009536743","3","1","3","2","1,0.5,0.5,0.5,1,0.5,0.5,0.5,1","1,0.5,0.5,0.5,1,0.5,0.5,0.5,1","1","",""
"","html-keyboard-response","372","138190","0.0-372.0","","","","","null","<img src=""img/land3.png"" style=""width:200px; border:14px solid green;"">","null","","","","","","","","","",""
"","image-keyboard-response","373","138376","0.0-373.0","","","","","185.79999995231628","img/land1.png","76","186.29999995231628","3","0","1","2","1,0.5,0.5,0.5,1,0.5,0.5,0.5,1","1,0.5,0.5,0.5,1,0.5,0.5,0.5,1","1","",""
"","html-keyboard-response","374","138692","0.0-374.0","","","","","null","<img src=""img/land1.png"" style=""width:200px;border:14px solid red;"">","null","","","","","","","","","",""
"","image-keyboard-response","375","138804","0.0-375.0","","","","","111","img/land1.png","76","111.90000009536743","3","1","1","2","1,0.5,0.5,0.5,1,0.5,0.5,0.5,1","1,0.5,0.5,0.5,1,0.5,0.5,0.5,1","1","",""
"","html-keyboard-response","376","139105","0.0-376.0","","","","","null","<img src=""img/land1.png"" style=""width:200px; border:14px solid green;"">","null","","","","","","","","","",""
"","image-keyboard-response","377","139241","0.0-377.0","","","","","135","img/land2.png","75","135.70000004768372","2","1","2","2","1,0.5,0.5,0.5,1,0.5,0.5,0.5,1","1,0.5,0.5,0.5,1,0.5,0.5,0.5,1","1","",""
"","html-keyboard-response","378","139543","0.0-378.0","","","","","null","<img src=""img/land2.png"" style=""width:200px; border:14px solid green;"">","null","","","","","","","","","",""
"","image-keyboard-response","379","139680","0.0-379.0","","","","","136.79999995231628","img/land2.png","74","137.40000009536743","1","0","2","2","1,0.5,0.5,0.5,1,0.5,0.5,0.5,1","1,0.5,0.5,0.5,1,0.5,0.5,0.5,1","1","",""
"","html-keyboard-response","380","139982","0.0-380.0","","","","","null","<img src=""img/land2.png"" style=""width:200px;border:14px solid red;"">","null","","","","","","","","","",""
"","image-keyboard-response","381","140178","0.0-381.0","","","","","194.20000004768372","img/land1.png","76","195","3","1","1","2","1,0.5,0.5,0.5,1,0.5,0.5,0.5,1","1,0.5,0.5,0.5,1,0.5,0.5,0.5,1","1","",""
"","html-keyboard-response","382","140490","0.0-382.0","","","","","null","<img src=""img/land1.png"" style=""width:200px; border:14px solid green;"">","null","","","","","","","","","",""
"","image-keyboard-response","383","140633","0.0-383.0","","","","","142.5","img/land2.png","75","143.09999990463257","2","1","2","2","1,0.5,0.5,0.5,1,0.5,0.5,0.5,1","1,0.5,0.5,0.5,1,0.5,0.5,0.5,1","1","",""
"","html-keyboard-response","384","140934","0.0-384.0","","","","","null","<img src=""img/land2.png"" style=""width:200px; border:14px solid green;"">","null","","","","","","","","","",""
"","image-keyboard-response","385","141070","0.0-385.0","","","","","134.5","img/land1.png","74","135.29999995231628","1","1","1","2","1,0.5,0.5,0.5,1,0.5,0.5,0.5,1","1,0.5,0.5,0.5,1,0.5,0.5,0.5,1","1","",""
"","html-keyboard-response","386","141372","0.0-386.0","","","","","null","<img src=""img/land1.png"" style=""width:200px; border:14px solid green;"">","null","","","","","","","","","",""
"","image-keyboard-response","387","141460","0.0-387.0","","","","","87","img/land1.png","75","88.20000004768372","2","0","1","2","1,0.5,0.5,0.5,1,0.5,0.5,0.5,1","1,0.5,0.5,0.5,1,0.5,0.5,0.5,1","1","",""
"","html-keyboard-response","388","141763","0.0-388.0","","","","","null","<img src=""img/land1.png"" style=""width:200px;border:14px solid red;"">","null","","","","","","","","","",""
"","image-keyboard-response","389","141884","0.0-389.0","","","","","120.5","img/land3.png","76","121.10000014305115","3","1","3","2","1,0.5,0.5,0.5,1,0.5,0.5,0.5,1","1,0.5,0.5,0.5,1,0.5,0.5,0.5,1","1","",""
"","html-keyboard-response","390","142187","0.0-390.0","","","","","null","<img src=""img/land3.png"" style=""width:200px; border:14px solid green;"">","null","","","","","","","","","",""
"","image-keyboard-response","391","142321","0.0-391.0","","","","","133.09999990463257","img/land3.png","75","133.90000009536743","2","0","3","2","1,0.5,0.5,0.5,1,0.5,0.5,0.5,1","1,0.5,0.5,0.5,1,0.5,0.5,0.5,1","1","",""
"","html-keyboard-response","392","142623","0.0-392.0","","","","","null","<img src=""img/land3.png"" style=""width:200px;border:14px solid red;"">","null","","","","","","","","","",""
"","image-keyboard-response","393","142681","0.0-393.0","","","","","57.10000014305115","img/land3.png","75","58","2","0","3","2","1,0.5,0.5,0.5,1,0.5,0.5,0.5,1","1,0.5,0.5,0.5,1,0.5,0.5,0.5,1","1","",""
"","html-keyboard-response","394","142982","0.0-394.0","","","","","null","<img src=""img/land3.png"" style=""width:200px;border:14px solid red;"">","null","","","","","","","","","",""
"","image-keyboard-response","395","143158","0.0-395.0","","","","","175.40000009536743","img/land1.png","74","176","1","1","1","2","1,0.5,0.5,0.5,1,0.5,0.5,0.5,1","1,0.5,0.5,0.5,1,0.5,0.5,0.5,1","1","",""
"","html-keyboard-response","396","143461","0.0-396.0","","","","","null","<img src=""img/land1.png"" style=""width:200px; border:14px solid green;"">","null","","","","","","","","","",""
"","image-keyboard-response","397","143631","0.0-397.0","","","","","168.90000009536743","img/land3.png","76","169.90000009536743","3","1","3","2","1,0.5,0.5,0.5,1,0.5,0.5,0.5,1","1,0.5,0.5,0.5,1,0.5,0.5,0.5,1","1","",""
"","html-keyboard-response","398","143933","0.0-398.0","","","","","null","<img src=""img/land3.png"" style=""width:200px; border:14px solid green;"">","null","","","","","","","","","",""
"","image-keyboard-response","399","144143","0.0-399.0","","","","","208.80000019073486","img/land1.png","74","209.70000004768372","1","1","1","2","1,0.5,0.5,0.5,1,0.5,0.5,0.5,1","1,0.5,0.5,0.5,1,0.5,0.5,0.5,1","1","",""
"","html-keyboard-response","400","144445","0.0-400.0","","","","","null","<img src=""img/land1.png"" style=""width:200px; border:14px solid green;"">","null","","","","","","","","","",""
"","image-keyboard-response","401","144536","0.0-401.0","","","","","90.29999995231628","img/land1.png","75","91.09999990463257","2","1","1","2","1,0.5,0.5,0.5,1,0.5,0.5,0.5,1","1,0.5,0.5,0.5,1,0.5,0.5,0.5,1","1","",""
"","html-keyboard-response","402","144839","0.0-402.0","","","","","null","<img src=""img/land1.png"" style=""width:200px; border:14px solid green;"">","null","","","","","","","","","",""
"","image-keyboard-response","403","145000","0.0-403.0","","","","","159.5","img/land1.png","76","160.09999990463257","3","1","1","2","1,0.5,0.5,0.5,1,0.5,0.5,0.5,1","1,0.5,0.5,0.5,1,0.5,0.5,0.5,1","1","",""
"","html-keyboard-response","404","145302","0.0-404.0","","","","","null","<img src=""img/land1.png"" style=""width:200px; border:14px solid green;"">","null","","","","","","","","","",""
"","image-keyboard-response","405","145535","0.0-405.0","","","","","232.5","img/land1.png","76","233.09999990463257","3","1","1","2","1,0.5,0.5,0.5,1,0.5,0.5,0.5,1","1,0.5,0.5,0.5,1,0.5,0.5,0.5,1","1","",""
"","html-keyboard-response","406","145839","0.0-406.0","","","","","null","<img src=""img/land1.png"" style=""width:200px; border:14px solid green;"">","null","","","","","","","","","",""
"","image-keyboard-response","407","146095","0.0-407.0","","","","","255.09999990463257","img/land2.png","74","255.60000014305115","1","1","2","2","1,0.5,0.5,0.5,1,0.5,0.5,0.5,1","1,0.5,0.5,0.5,1,0.5,0.5,0.5,1","1","",""
"","html-keyboard-response","408","146396","0.0-408.0","","","","","null","<img src=""img/land2.png"" style=""width:200px; border:14px solid green;"">","null","","","","","","","","","",""
"","image-keyboard-response","409","146550","0.0-409.0","","","","","152.5","img/land2.png","75","153.20000004768372","2","1","2","2","1,0.5,0.5,0.5,1,0.5,0.5,0.5,1","1,0.5,0.5,0.5,1,0.5,0.5,0.5,1","1","",""
"","html-keyboard-response","410","146852","0.0-410.0","","","","","null","<img src=""img/land2.png"" style=""width:200px; border:14px solid green;"">","null","","","","","","","","","",""
"","image-keyboard-response","411","146986","0.0-411.0","","","","","133.39999985694885","img/land2.png","74","134.20000004768372","1","0","2","2","1,0.5,0.5,0.5,1,0.5,0.5,0.5,1","1,0.5,0.5,0.5,1,0.5,0.5,0.5,1","1","",""
"","html-keyboard-response","412","147288","0.0-412.0","","","","","null","<img src=""img/land2.png"" style=""width:200px;border:14px solid red;"">","null","","","","","","","","","",""
"","image-keyboard-response","413","147457","0.0-413.0","","","","","168","img/land3.png","75","168.79999995231628","2","1","3","2","1,0.5,0.5,0.5,1,0.5,0.5,0.5,1","1,0.5,0.5,0.5,1,0.5,0.5,0.5,1","1","",""
"","html-keyboard-response","414","147759","0.0-414.0","","","","","null","<img src=""img/land3.png"" style=""width:200px; border:14px solid green;"">","null","","","","","","","","","",""
"","image-keyboard-response","415","147860","0.0-415.0","","","","","99.20000004768372","img/land3.png","76","99.89999985694885","3","1","3","2","1,0.5,0.5,0.5,1,0.5,0.5,0.5,1","1,0.5,0.5,0.5,1,0.5,0.5,0.5,1","1","",""
"","html-keyboard-response","416","148161","0.0-416.0","","","","","null","<img src=""img/land3.png"" style=""width:200px; border:14px solid green;"">","null","","","","","","","","","",""
"","image-keyboard-response","417","148315","0.0-417.0","","","","","153.29999995231628","img/land1.png","76","154.19999980926514","3","0","1","2","1,0.5,0.5,0.5,1,0.5,0.5,0.5,1","1,0.5,0.5,0.5,1,0.5,0.5,0.5,1","1","",""
"","html-keyboard-response","418","148617","0.0-418.0","","","","","null","<img src=""img/land1.png"" style=""width:200px;border:14px solid red;"">","null","","","","","","","","","",""
"","image-keyboard-response","419","148832","0.0-419.0","","","","","213.89999985694885","img/land1.png","75","214.70000004768372","2","1","1","2","1,0.5,0.5,0.5,1,0.5,0.5,0.5,1","1,0.5,0.5,0.5,1,0.5,0.5,0.5,1","1","",""
"","html-keyboard-response","420","149134","0.0-420.0","","","","","null","<img src=""img/land1.png"" style=""width:200px; border:14px solid green;"">","null","","","","","","","","","",""
"","image-keyboard-response","421","149160","0.0-421.0","","","","","25","img/land1.png","74","25.59999990463257","1","1","1","2","1,0.5,0.5,0.5,1,0.5,0.5,0.5,1","1,0.5,0.5,0.5,1,0.5,0.5,0.5,1","1","",""
"","html-keyboard-response","422","149462","0.0-422.0","","","","","null","<img src=""img/land1.png"" style=""width:200px; border:14px solid green;"">","null","","","","","","","","","",""
"","image-keyboard-response","423","149656","0.0-423.0","","","","","192.89999985694885","img/land1.png","75","193.79999995231628","2","0","1","2","1,0.5,0.5,0.5,1,0.5,0.5,0.5,1","1,0.5,0.5,0.5,1,0.5,0.5,0.5,1","1","",""
"","html-keyboard-response","424","149957","0.0-424.0","","","","","null","<img src=""img/land1.png"" style=""width:200px;border:14px solid red;"">","null","","","","","","","","","",""
"","image-keyboard-response","425","150083","0.0-425.0","","","","","124.59999990463257","img/land1.png","74","125.29999995231628","1","1","1","2","1,0.5,0.5,0.5,1,0.5,0.5,0.5,1","1,0.5,0.5,0.5,1,0.5,0.5,0.5,1","1","",""
"","html-keyboard-response","426","150389","0.0-426.0","","","","","null","<img src=""img/land1.png"" style=""width:200px; border:14px solid green;"">","null","","","","","","","","","",""
"","image-keyboard-response","427","150602","0.0-427.0","","","","","211.70000004768372","img/land2.png","74","213","1","1","2","2","1,0.5,0.5,0.5,1,0.5,0.5,0.5,1","1,0.5,0.5,0.5,1,0.5,0.5,0.5,1","1","",""
"","html-keyboard-response","428","150904","0.0-428.0","","","","","null","<img src=""img/land2.png"" style=""width:200px; border:14px solid green;"">","null","","","","","","","","","",""
"","image-keyboard-response","429","151033","0.0-429.0","","","","","128","img/land3.png","74","128.59999990463257","1","0","3","2","1,0.5,0.5,0.5,1,0.5,0.5,0.5,1","1,0.5,0.5,0.5,1,0.5,0.5,0.5,1","1","",""
"","html-keyboard-response","430","151335","0.0-430.0","","","","","null","<img src=""img/land3.png"" style=""width:200px;border:14px solid red;"">","null","","","","","","","","","",""
"","image-keyboard-response","431","151421","0.0-431.0","","","","","85.20000004768372","img/land3.png","74","86","1","0","3","2","1,0.5,0.5,0.5,1,0.5,0.5,0.5,1","1,0.5,0.5,0.5,1,0.5,0.5,0.5,1","1","",""
"","html-keyboard-response","432","151723","0.0-432.0","","","","","null","<img src=""img/land3.png"" style=""width:200px;border:14px solid red;"">","null","","","","","","","","","",""
"","image-keyboard-response","433","152079","0.0-433.0","","","","","355.7000000476837","img/land2.png","76","356.5","3","0","2","2","1,0.5,0.5,0.5,1,0.5,0.5,0.5,1","1,0.5,0.5,0.5,1,0.5,0.5,0.5,1","1","",""
"","html-keyboard-response","434","152382","0.0-434.0","","","","","null","<img src=""img/land2.png"" style=""width:200px;border:14px solid red;"">","null","","","","","","","","","",""
"","image-keyboard-response","435","152767","0.0-435.0","","","","","384.5","img/land3.png","75","385.10000014305115","2","0","3","2","1,0.5,0.5,0.5,1,0.5,0.5,0.5,1","1,0.5,0.5,0.5,1,0.5,0.5,0.5,1","1","",""
"","html-keyboard-response","436","153069","0.0-436.0","","","","","null","<img src=""img/land3.png"" style=""width:200px;border:14px solid red;"">","null","","","","","","","","","",""
"","image-keyboard-response","437","153282","0.0-437.0","","","","","211.89999985694885","img/land1.png","74","212.60000014305115","1","1","1","2","1,0.5,0.5,0.5,1,0.5,0.5,0.5,1","1,0.5,0.5,0.5,1,0.5,0.5,0.5,1","1","",""
"","html-keyboard-response","438","153584","0.0-438.0","","","","","null","<img src=""img/land1.png"" style=""width:200px; border:14px solid green;"">","null","","","","","","","","","",""
"","image-keyboard-response","439","154007","0.0-439.0","","","","","421.90000009536743","img/land1.png","76","422.7000000476837","3","1","1","2","1,0.5,0.5,0.5,1,0.5,0.5,0.5,1","1,0.5,0.5,0.5,1,0.5,0.5,0.5,1","1","",""
"","html-keyboard-response","440","154309","0.0-440.0","","","","","null","<img src=""img/land1.png"" style=""width:200px; border:14px solid green;"">","null","","","","","","","","","",""
"","image-keyboard-response","441","154464","0.0-441.0","","","","","153.40000009536743","img/land1.png","74","154.09999990463257","1","1","1","2","1,0.5,0.5,0.5,1,0.5,0.5,0.5,1","1,0.5,0.5,0.5,1,0.5,0.5,0.5,1","1","",""
"","html-keyboard-response","442","154765","0.0-442.0","","","","","null","<img src=""img/land1.png"" style=""width:200px; border:14px solid green;"">","null","","","","","","","","","",""
"","image-keyboard-response","443","154952","0.0-443.0","","","","","185.79999995231628","img/land1.png","74","186.5","1","1","1","2","1,0.5,0.5,0.5,1,0.5,0.5,0.5,1","1,0.5,0.5,0.5,1,0.5,0.5,0.5,1","1","",""
"","html-keyboard-response","444","155254","0.0-444.0","","","","","null","<img src=""img/land1.png"" style=""width:200px; border:14px solid green;"">","null","","","","","","","","","",""
"","image-keyboard-response","445","155450","0.0-445.0","","","","","194.70000004768372","img/land1.png","74","195.70000004768372","1","1","1","2","1,0.5,0.5,0.5,1,0.5,0.5,0.5,1","1,0.5,0.5,0.5,1,0.5,0.5,0.5,1","1","",""
"","html-keyboard-response","446","155751","0.0-446.0","","","","","null","<img src=""img/land1.png"" style=""width:200px; border:14px solid green;"">","null","","","","","","","","","",""
"","image-keyboard-response","447","155887","0.0-447.0","","","","","134.5","img/land3.png","74","135.20000004768372","1","0","3","2","1,0.5,0.5,0.5,1,0.5,0.5,0.5,1","1,0.5,0.5,0.5,1,0.5,0.5,0.5,1","1","",""
"","html-keyboard-response","448","156189","0.0-448.0","","","","","null","<img src=""img/land3.png"" style=""width:200px;border:14px solid red;"">","null","","","","","","","","","",""
"","image-keyboard-response","449","156363","0.0-449.0","","","","","173.5","img/land1.png","76","174.29999995231628","3","1","1","2","1,0.5,0.5,0.5,1,0.5,0.5,0.5,1","1,0.5,0.5,0.5,1,0.5,0.5,0.5,1","1","",""
"","html-keyboard-response","450","156665","0.0-450.0","","","","","null","<img src=""img/land1.png"" style=""width:200px; border:14px solid green;"">","null","","","","","","","","","",""
"","image-keyboard-response","451","156851","0.0-451.0","","","","","185.5","img/land1.png","76","186.29999995231628","3","1","1","2","1,0.5,0.5,0.5,1,0.5,0.5,0.5,1","1,0.5,0.5,0.5,1,0.5,0.5,0.5,1","1","",""
"","html-keyboard-response","452","157153","0.0-452.0","","","","","null","<img src=""img/land1.png"" style=""width:200px; border:14px solid green;"">","null","","","","","","","","","",""
"","image-keyboard-response","453","157290","0.0-453.0","","","","","136.70000004768372","img/land1.png","76","137.29999995231628","3","0","1","2","1,0.5,0.5,0.5,1,0.5,0.5,0.5,1","1,0.5,0.5,0.5,1,0.5,0.5,0.5,1","1","",""
"","html-keyboard-response","454","157593","0.0-454.0","","","","","null","<img src=""img/land1.png"" style=""width:200px;border:14px solid red;"">","null","","","","","","","","","",""
"","image-keyboard-response","455","157721","0.0-455.0","","","","","127.29999995231628","img/land2.png","76","128","3","1","2","2","1,0.5,0.5,0.5,1,0.5,0.5,0.5,1","1,0.5,0.5,0.5,1,0.5,0.5,0.5,1","1","",""
"","html-keyboard-response","456","158024","0.0-456.0","","","","","null","<img src=""img/land2.png"" style=""width:200px; border:14px solid green;"">","null","","","","","","","","","",""
"","image-keyboard-response","457","158168","0.0-457.0","","","","","143.5","img/land3.png","75","144.09999990463257","2","1","3","2","1,0.5,0.5,0.5,1,0.5,0.5,0.5,1","1,0.5,0.5,0.5,1,0.5,0.5,0.5,1","1","",""
"","html-keyboard-response","458","158470","0.0-458.0","","","","","null","<img src=""img/land3.png"" style=""width:200px; border:14px solid green;"">","null","","","","","","","","","",""
"","image-keyboard-response","459","158600","0.0-459.0","","","","","128.90000009536743","img/land3.png","74","129.80000019073486","1","0","3","2","1,0.5,0.5,0.5,1,0.5,0.5,0.5,1","1,0.5,0.5,0.5,1,0.5,0.5,0.5,1","1","",""
"","html-keyboard-response","460","158901","0.0-460.0","","","","","null","<img src=""img/land3.png"" style=""width:200px;border:14px solid red;"">","null","","","","","","","","","",""
"","image-keyboard-response","461","158986","0.0-461.0","","","","","84","img/land2.png","75","84.79999995231628","2","1","2","2","1,0.5,0.5,0.5,1,0.5,0.5,0.5,1","1,0.5,0.5,0.5,1,0.5,0.5,0.5,1","1","",""
"","html-keyboard-response","462","159289","0.0-462.0","","","","","null","<img src=""img/land2.png"" style=""width:200px; border:14px solid green;"">","null","","","","","","","","","",""
"","image-keyboard-response","463","159463","0.0-463.0","","","","","173.39999985694885","img/land2.png","74","174.20000004768372","1","0","2","2","1,0.5,0.5,0.5,1,0.5,0.5,0.5,1","1,0.5,0.5,0.5,1,0.5,0.5,0.5,1","1","",""
"","html-keyboard-response","464","159765","0.0-464.0","","","","","null","<img src=""img/land2.png"" style=""width:200px;border:14px solid red;"">","null","","","","","","","","","",""
"","image-keyboard-response","465","159879","0.0-465.0","","","","","112.10000014305115","img/land1.png","75","112.90000009536743","2","0","1","2","1,0.5,0.5,0.5,1,0.5,0.5,0.5,1","1,0.5,0.5,0.5,1,0.5,0.5,0.5,1","1","",""
"","html-keyboard-response","466","160180","0.0-466.0","","","","","null","<img src=""img/land1.png"" style=""width:200px;border:14px solid red;"">","null","","","","","","","","","",""
"","image-keyboard-response","467","160328","0.0-467.0","","","","","146.89999985694885","img/land3.png","76","147.70000004768372","3","1","3","2","1,0.5,0.5,0.5,1,0.5,0.5,0.5,1","1,0.5,0.5,0.5,1,0.5,0.5,0.5,1","1","",""
"","html-keyboard-response","468","160630","0.0-468.0","","","","","null","<img src=""img/land3.png"" style=""width:200px; border:14px solid green;"">","null","","","","","","","","","",""
"","image-keyboard-response","469","160736","0.0-469.0","","","","","105.59999990463257","img/land3.png","76","106.29999995231628","3","1","3","2","1,0.5,0.5,0.5,1,0.5,0.5,0.5,1","1,0.5,0.5,0.5,1,0.5,0.5,0.5,1","1","",""
"","html-keyboard-response","470","161039","0.0-470.0","","","","","null","<img src=""img/land3.png"" style=""width:200px; border:14px solid green;"">","null","","","","","","","","","",""
"","image-keyboard-response","471","161152","0.0-471.0","","","","","112.60000014305115","img/land2.png","76","113","3","1","2","2","1,0.5,0.5,0.5,1,0.5,0.5,0.5,1","1,0.5,0.5,0.5,1,0.5,0.5,0.5,1","1","",""
"","html-keyboard-response","472","161454","0.0-472.0","","","","","null","<img src=""img/land2.png"" style=""width:200px; border:14px solid green;"">","null","","","","","","","","","",""
"","image-keyboard-response","473","161631","0.0-473.0","","","","","176.29999995231628","img/land1.png","74","177","1","1","1","2","1,0.5,0.5,0.5,1,0.5,0.5,0.5,1","1,0.5,0.5,0.5,1,0.5,0.5,0.5,1","1","",""
"","html-keyboard-response","474","161933","0.0-474.0","","","","","null","<img src=""img/land1.png"" style=""width:200px; border:14px solid green;"">","null","","","","","","","","","",""
"","image-keyboard-response","475","162064","0.0-475.0","","","","","130.40000009536743","img/land3.png","75","131.20000004768372","2","0","3","2","1,0.5,0.5,0.5,1,0.5,0.5,0.5,1","1,0.5,0.5,0.5,1,0.5,0.5,0.5,1","1","",""
"","html-keyboard-response","476","162366","0.0-476.0","","","","","null","<img src=""img/land3.png"" style=""width:200px;border:14px solid red;"">","null","","","","","","","","","",""
"","image-keyboard-response","477","162520","0.0-477.0","","","","","152.70000004768372","img/land1.png","76","153.70000004768372","3","1","1","2","1,0.5,0.5,0.5,1,0.5,0.5,0.5,1","1,0.5,0.5,0.5,1,0.5,0.5,0.5,1","1","",""
"","html-keyboard-response","478","162821","0.0-478.0","","","","","null","<img src=""img/land1.png"" style=""width:200px; border:14px solid green;"">","null","","","","","","","","","",""
"","image-keyboard-response","479","162999","0.0-479.0","","","","","176.89999985694885","img/land3.png","75","177.79999995231628","2","1","3","2","1,0.5,0.5,0.5,1,0.5,0.5,0.5,1","1,0.5,0.5,0.5,1,0.5,0.5,0.5,1","1","",""
"","html-keyboard-response","480","163301","0.0-480.0","","","","","null","<img src=""img/land3.png"" style=""width:200px; border:14px solid green;"">","null","","","","","","","","","",""
"","image-keyboard-response","481","163433","0.0-481.0","","","","","131.19999980926514","img/land2.png","74","131.80000019073486","1","1","2","2","1,0.5,0.5,0.5,1,0.5,0.5,0.5,1","1,0.5,0.5,0.5,1,0.5,0.5,0.5,1","1","",""
"","html-keyboard-response","482","163734","0.0-482.0","","","","","null","<img src=""img/land2.png"" style=""width:200px; border:14px solid green;"">","null","","","","","","","","","",""
"","instructions","483","165271","0.0-483.0","","","","[{""page_index"":0,""viewing_time"":1535.5}]","1535.7999999523163","","","","","","","","","","","",""
"","survey-text","484","171144","0.0-484.0-0.0","","","","","5868.899999856949","","","","","","","","","","","{""Q0"":""24""}",""
"","survey-multi-choice","485","173422","0.0-484.0-1.0","","","","","2277","","","","","","","","","","","{""gender"":""M""}","[0]"
"","survey-text","486","179091","0.0-485.0","","","","","5666.5","","","","","","","","","","","{""Q0"":""A2LKGF193ZR5JP""}",""
