"success","trial_type","trial_index","time_elapsed","internal_node_id","assignmentID","mturkID","hitID","view_history","rt","stimulus","key_press","reactionTime","a","r","warning","s","reward_cond","responses","question_order"
"true","fullscreen","0","10602","0.0-0.0","31T4R4OBOT29QUCBVUIBZ81ZGHM7C9","A2LMQ4497NMK3S","3S829FDFT2NBOHQMM1CIOU0HZYXDXL","","","","","","","","","","","",""
"","instructions","1","41949","0.0-1.0","31T4R4OBOT29QUCBVUIBZ81ZGHM7C9","A2LMQ4497NMK3S","3S829FDFT2NBOHQMM1CIOU0HZYXDXL","[{""page_index"":0,""viewing_time"":14435.599999964237},{""page_index"":1,""viewing_time"":1739.699999988079},{""page_index"":0,""viewing_time"":4406.400000035763},{""page_index"":1,""viewing_time"":1873.5999999642372},{""page_index"":2,""viewing_time"":469.9000000357628},{""page_index"":3,""viewing_time"":471.89999997615814},{""page_index"":4,""viewing_time"":2414.199999988079},{""page_index"":5,""viewing_time"":972},{""page_index"":6,""viewing_time"":1332},{""page_index"":7,""viewing_time"":3230.2000000476837}]","31346.19999998808","","","","","","","","","",""
"","image-keyboard-response","2","42445","0.0-2.0","31T4R4OBOT29QUCBVUIBZ81ZGHM7C9","A2LMQ4497NMK3S","3S829FDFT2NBOHQMM1CIOU0HZYXDXL","","493.4000000357628","img/land5.png","74","494.9000000357628","1","1","false","3","0.6,0.6,0,0,0.6,0.6,0.6,0,0.6","",""
"","html-keyboard-response","3","42747","0.0-3.0","31T4R4OBOT29QUCBVUIBZ81ZGHM7C9","A2LMQ4497NMK3S","3S829FDFT2NBOHQMM1CIOU0HZYXDXL","","null","<img src=""img/land5.png"" style=""width:200px; border:14px solid green;"">","null","","","","","","","",""
"","image-keyboard-response","4","43348","0.0-5.0","31T4R4OBOT29QUCBVUIBZ81ZGHM7C9","A2LMQ4497NMK3S","3S829FDFT2NBOHQMM1CIOU0HZYXDXL","","599.6999999880791","img/land7.png","74","600.8000000119209","1","0","false","2","0.6,0.6,0,0,0.6,0.6,0.6,0,0.6","",""
"","html-keyboard-response","5","43651","0.0-6.0","31T4R4OBOT29QUCBVUIBZ81ZGHM7C9","A2LMQ4497NMK3S","3S829FDFT2NBOHQMM1CIOU0HZYXDXL","","null","<img src=""img/land7.png"" style=""width:200px;border:14px solid red;"">","null","","","","","","","",""
"","image-keyboard-response","6","44132","0.0-8.0","31T4R4OBOT29QUCBVUIBZ81ZGHM7C9","A2LMQ4497NMK3S","3S829FDFT2NBOHQMM1CIOU0HZYXDXL","","480.10000002384186","img/land9.png","75","481.30000001192093","2","0","false","1","0.6,0.6,0,0,0.6,0.6,0.6,0,0.6","",""
"","html-keyboard-response","7","44434","0.0-9.0","31T4R4OBOT29QUCBVUIBZ81ZGHM7C9","A2LMQ4497NMK3S","3S829FDFT2NBOHQMM1CIOU0HZYXDXL","","null","<img src=""img/land9.png"" style=""width:200px;border:14px solid red;"">","null","","","","","","","",""
"","image-keyboard-response","8","45052","0.0-11.0","31T4R4OBOT29QUCBVUIBZ81ZGHM7C9","A2LMQ4497NMK3S","3S829FDFT2NBOHQMM1CIOU0HZYXDXL","","616.6999999880791","img/land5.png","74","617.8999999761581","1","0","false","3","0.6,0.6,0,0,0.6,0.6,0.6,0,0.6","",""
"","html-keyboard-response","9","45354","0.0-12.0","31T4R4OBOT29QUCBVUIBZ81ZGHM7C9","A2LMQ4497NMK3S","3S829FDFT2NBOHQMM1CIOU0HZYXDXL","","null","<img src=""img/land5.png"" style=""width:200px;border:14px solid red;"">","null","","","","","","","",""
"","image-keyboard-response","10","45780","0.0-14.0","31T4R4OBOT29QUCBVUIBZ81ZGHM7C9","A2LMQ4497NMK3S","3S829FDFT2NBOHQMM1CIOU0HZYXDXL","","424.7000000476837","img/land5.png","75","425.80000001192093","2","0","false","3","0.6,0.6,0,0,0.6,0.6,0.6,0,0.6","",""
"","html-keyboard-response","11","46082","0.0-15.0","31T4R4OBOT29QUCBVUIBZ81ZGHM7C9","A2LMQ4497NMK3S","3S829FDFT2NBOHQMM1CIOU0HZYXDXL","","null","<img src=""img/land5.png"" style=""width:200px;border:14px solid red;"">","null","","","","","","","",""
"","image-keyboard-response","12","46525","0.0-17.0","31T4R4OBOT29QUCBVUIBZ81ZGHM7C9","A2LMQ4497NMK3S","3S829FDFT2NBOHQMM1CIOU0HZYXDXL","","440.69999998807907","img/land5.png","76","441.89999997615814","3","0","false","3","0.6,0.6,0,0,0.6,0.6,0.6,0,0.6","",""
"","html-keyboard-response","13","46828","0.0-18.0","31T4R4OBOT29QUCBVUIBZ81ZGHM7C9","A2LMQ4497NMK3S","3S829FDFT2NBOHQMM1CIOU0HZYXDXL","","null","<img src=""img/land5.png"" style=""width:200px;border:14px solid red;"">","null","","","","","","","",""
"","image-keyboard-response","14","47148","0.0-20.0","31T4R4OBOT29QUCBVUIBZ81ZGHM7C9","A2LMQ4497NMK3S","3S829FDFT2NBOHQMM1CIOU0HZYXDXL","","319.5","img/land5.png","74","320.5","1","0","false","3","0.6,0.6,0,0,0.6,0.6,0.6,0,0.6","",""
"","html-keyboard-response","15","47450","0.0-21.0","31T4R4OBOT29QUCBVUIBZ81ZGHM7C9","A2LMQ4497NMK3S","3S829FDFT2NBOHQMM1CIOU0HZYXDXL","","null","<img src=""img/land5.png"" style=""width:200px;border:14px solid red;"">","null","","","","","","","",""
"","image-keyboard-response","16","48260","0.0-23.0","31T4R4OBOT29QUCBVUIBZ81ZGHM7C9","A2LMQ4497NMK3S","3S829FDFT2NBOHQMM1CIOU0HZYXDXL","","809.1999999880791","img/land9.png","75","810.1999999880791","2","0","false","1","0.6,0.6,0,0,0.6,0.6,0.6,0,0.6","",""
"","html-keyboard-response","17","48563","0.0-24.0","31T4R4OBOT29QUCBVUIBZ81ZGHM7C9","A2LMQ4497NMK3S","3S829FDFT2NBOHQMM1CIOU0HZYXDXL","","null","<img src=""img/land9.png"" style=""width:200px;border:14px solid red;"">","null","","","","","","","",""
"","image-keyboard-response","18","49220","0.0-26.0","31T4R4OBOT29QUCBVUIBZ81ZGHM7C9","A2LMQ4497NMK3S","3S829FDFT2NBOHQMM1CIOU0HZYXDXL","","656.1000000238419","img/land7.png","74","657.2000000476837","1","0","false","2","0.6,0.6,0,0,0.6,0.6,0.6,0,0.6","",""
"","html-keyboard-response","19","49523","0.0-27.0","31T4R4OBOT29QUCBVUIBZ81ZGHM7C9","A2LMQ4497NMK3S","3S829FDFT2NBOHQMM1CIOU0HZYXDXL","","null","<img src=""img/land7.png"" style=""width:200px;border:14px solid red;"">","null","","","","","","","",""
"","image-keyboard-response","20","50524","0.0-29.0","31T4R4OBOT29QUCBVUIBZ81ZGHM7C9","A2LMQ4497NMK3S","3S829FDFT2NBOHQMM1CIOU0HZYXDXL","","","img/land5.png","","1001.5","-1","0","true","3","0.6,0.6,0,0,0.6,0.6,0.6,0,0.6","",""
"","html-keyboard-response","21","50827","0.0-30.0","31T4R4OBOT29QUCBVUIBZ81ZGHM7C9","A2LMQ4497NMK3S","3S829FDFT2NBOHQMM1CIOU0HZYXDXL","","null","<img src=""img/land5.png"" style=""width:200px;border:14px solid red;"">","null","","","","","","","",""
"","html-keyboard-response","22","57894","0.0-31.0-0.0","31T4R4OBOT29QUCBVUIBZ81ZGHM7C9","A2LMQ4497NMK3S","3S829FDFT2NBOHQMM1CIOU0HZYXDXL","","","","","","","","","","","",""
"","image-keyboard-response","23","58316","0.0-32.0","31T4R4OBOT29QUCBVUIBZ81ZGHM7C9","A2LMQ4497NMK3S","3S829FDFT2NBOHQMM1CIOU0HZYXDXL","","420.2999999523163","img/land7.png","74","421.5","1","0","false","2","0.6,0.6,0,0,0.6,0.6,0.6,0,0.6","",""
"","html-keyboard-response","24","58618","0.0-33.0","31T4R4OBOT29QUCBVUIBZ81ZGHM7C9","A2LMQ4497NMK3S","3S829FDFT2NBOHQMM1CIOU0HZYXDXL","","null","<img src=""img/land7.png"" style=""width:200px;border:14px solid red;"">","null","","","","","","","",""
"","image-keyboard-response","25","58852","0.0-35.0","31T4R4OBOT29QUCBVUIBZ81ZGHM7C9","A2LMQ4497NMK3S","3S829FDFT2NBOHQMM1CIOU0HZYXDXL","","232.80000001192093","img/land9.png","75","233.69999998807907","2","0","false","1","0.6,0.6,0,0,0.6,0.6,0.6,0,0.6","",""
"","html-keyboard-response","26","59155","0.0-36.0","31T4R4OBOT29QUCBVUIBZ81ZGHM7C9","A2LMQ4497NMK3S","3S829FDFT2NBOHQMM1CIOU0HZYXDXL","","null","<img src=""img/land9.png"" style=""width:200px;border:14px solid red;"">","null","","","","","","","",""
"","image-keyboard-response","27","59444","0.0-38.0","31T4R4OBOT29QUCBVUIBZ81ZGHM7C9","A2LMQ4497NMK3S","3S829FDFT2NBOHQMM1CIOU0HZYXDXL","","288.39999997615814","img/land9.png","76","289.30000001192093","3","0","false","1","0.6,0.6,0,0,0.6,0.6,0.6,0,0.6","",""
"","html-keyboard-response","28","59746","0.0-39.0","31T4R4OBOT29QUCBVUIBZ81ZGHM7C9","A2LMQ4497NMK3S","3S829FDFT2NBOHQMM1CIOU0HZYXDXL","","null","<img src=""img/land9.png"" style=""width:200px;border:14px solid red;"">","null","","","","","","","",""
"","image-keyboard-response","29","60124","0.0-41.0","31T4R4OBOT29QUCBVUIBZ81ZGHM7C9","A2LMQ4497NMK3S","3S829FDFT2NBOHQMM1CIOU0HZYXDXL","","377.2000000476837","img/land5.png","74","378.19999998807907","1","0","false","3","0.6,0.6,0,0,0.6,0.6,0.6,0,0.6","",""
"","html-keyboard-response","30","60428","0.0-42.0","31T4R4OBOT29QUCBVUIBZ81ZGHM7C9","A2LMQ4497NMK3S","3S829FDFT2NBOHQMM1CIOU0HZYXDXL","","null","<img src=""img/land5.png"" style=""width:200px;border:14px solid red;"">","null","","","","","","","",""
"","image-keyboard-response","31","60740","0.0-44.0","31T4R4OBOT29QUCBVUIBZ81ZGHM7C9","A2LMQ4497NMK3S","3S829FDFT2NBOHQMM1CIOU0HZYXDXL","","311.0999999642372","img/land7.png","75","312.19999998807907","2","1","false","2","0.6,0.6,0,0,0.6,0.6,0.6,0,0.6","",""
"","html-keyboard-response","32","61042","0.0-45.0","31T4R4OBOT29QUCBVUIBZ81ZGHM7C9","A2LMQ4497NMK3S","3S829FDFT2NBOHQMM1CIOU0HZYXDXL","","null","<img src=""img/land7.png"" style=""width:200px; border:14px solid green;"">","null","","","","","","","",""
"","image-keyboard-response","33","61436","0.0-47.0","31T4R4OBOT29QUCBVUIBZ81ZGHM7C9","A2LMQ4497NMK3S","3S829FDFT2NBOHQMM1CIOU0HZYXDXL","","392.60000002384186","img/land5.png","75","393.5","2","0","false","3","0.6,0.6,0,0,0.6,0.6,0.6,0,0.6","",""
"","html-keyboard-response","34","61738","0.0-48.0","31T4R4OBOT29QUCBVUIBZ81ZGHM7C9","A2LMQ4497NMK3S","3S829FDFT2NBOHQMM1CIOU0HZYXDXL","","null","<img src=""img/land5.png"" style=""width:200px;border:14px solid red;"">","null","","","","","","","",""
"","image-keyboard-response","35","62212","0.0-50.0","31T4R4OBOT29QUCBVUIBZ81ZGHM7C9","A2LMQ4497NMK3S","3S829FDFT2NBOHQMM1CIOU0HZYXDXL","","473","img/land7.png","74","473.89999997615814","1","0","false","2","0.6,0.6,0,0,0.6,0.6,0.6,0,0.6","",""
"","html-keyboard-response","36","62514","0.0-51.0","31T4R4OBOT29QUCBVUIBZ81ZGHM7C9","A2LMQ4497NMK3S","3S829FDFT2NBOHQMM1CIOU0HZYXDXL","","null","<img src=""img/land7.png"" style=""width:200px;border:14px solid red;"">","null","","","","","","","",""
"","image-keyboard-response","37","62764","0.0-53.0","31T4R4OBOT29QUCBVUIBZ81ZGHM7C9","A2LMQ4497NMK3S","3S829FDFT2NBOHQMM1CIOU0HZYXDXL","","249.5","img/land7.png","75","250.5","2","1","false","2","0.6,0.6,0,0,0.6,0.6,0.6,0,0.6","",""
"","html-keyboard-response","38","63067","0.0-54.0","31T4R4OBOT29QUCBVUIBZ81ZGHM7C9","A2LMQ4497NMK3S","3S829FDFT2NBOHQMM1CIOU0HZYXDXL","","null","<img src=""img/land7.png"" style=""width:200px; border:14px solid green;"">","null","","","","","","","",""
"","image-keyboard-response","39","63708","0.0-56.0","31T4R4OBOT29QUCBVUIBZ81ZGHM7C9","A2LMQ4497NMK3S","3S829FDFT2NBOHQMM1CIOU0HZYXDXL","","640.5","img/land5.png","74","641.5999999642372","1","1","false","3","0.6,0.6,0,0,0.6,0.6,0.6,0,0.6","",""
"","html-keyboard-response","40","64010","0.0-57.0","31T4R4OBOT29QUCBVUIBZ81ZGHM7C9","A2LMQ4497NMK3S","3S829FDFT2NBOHQMM1CIOU0HZYXDXL","","null","<img src=""img/land5.png"" style=""width:200px; border:14px solid green;"">","null","","","","","","","",""
"","image-keyboard-response","41","64508","0.0-59.0","31T4R4OBOT29QUCBVUIBZ81ZGHM7C9","A2LMQ4497NMK3S","3S829FDFT2NBOHQMM1CIOU0HZYXDXL","","497.30000001192093","img/land7.png","75","498.2000000476837","2","1","false","2","0.6,0.6,0,0,0.6,0.6,0.6,0,0.6","",""
"","html-keyboard-response","42","64810","0.0-60.0","31T4R4OBOT29QUCBVUIBZ81ZGHM7C9","A2LMQ4497NMK3S","3S829FDFT2NBOHQMM1CIOU0HZYXDXL","","null","<img src=""img/land7.png"" style=""width:200px; border:14px solid green;"">","null","","","","","","","",""
"","image-keyboard-response","43","65292","0.0-62.0","31T4R4OBOT29QUCBVUIBZ81ZGHM7C9","A2LMQ4497NMK3S","3S829FDFT2NBOHQMM1CIOU0HZYXDXL","","480.69999998807907","img/land9.png","74","481.69999998807907","1","1","false","1","0.6,0.6,0,0,0.6,0.6,0.6,0,0.6","",""
"","html-keyboard-response","44","65595","0.0-63.0","31T4R4OBOT29QUCBVUIBZ81ZGHM7C9","A2LMQ4497NMK3S","3S829FDFT2NBOHQMM1CIOU0HZYXDXL","","null","<img src=""img/land9.png"" style=""width:200px; border:14px solid green;"">","null","","","","","","","",""
"","image-keyboard-response","45","65940","0.0-65.0","31T4R4OBOT29QUCBVUIBZ81ZGHM7C9","A2LMQ4497NMK3S","3S829FDFT2NBOHQMM1CIOU0HZYXDXL","","344.30000001192093","img/land9.png","74","345.19999998807907","1","0","false","1","0.6,0.6,0,0,0.6,0.6,0.6,0,0.6","",""
"","html-keyboard-response","46","66242","0.0-66.0","31T4R4OBOT29QUCBVUIBZ81ZGHM7C9","A2LMQ4497NMK3S","3S829FDFT2NBOHQMM1CIOU0HZYXDXL","","null","<img src=""img/land9.png"" style=""width:200px;border:14px solid red;"">","null","","","","","","","",""
"","image-keyboard-response","47","66732","0.0-68.0","31T4R4OBOT29QUCBVUIBZ81ZGHM7C9","A2LMQ4497NMK3S","3S829FDFT2NBOHQMM1CIOU0HZYXDXL","","488.5","img/land5.png","75","489.60000002384186","2","0","false","3","0.6,0.6,0,0,0.6,0.6,0.6,0,0.6","",""
"","html-keyboard-response","48","67033","0.0-69.0","31T4R4OBOT29QUCBVUIBZ81ZGHM7C9","A2LMQ4497NMK3S","3S829FDFT2NBOHQMM1CIOU0HZYXDXL","","null","<img src=""img/land5.png"" style=""width:200px;border:14px solid red;"">","null","","","","","","","",""
"","image-keyboard-response","49","67356","0.0-71.0","31T4R4OBOT29QUCBVUIBZ81ZGHM7C9","A2LMQ4497NMK3S","3S829FDFT2NBOHQMM1CIOU0HZYXDXL","","321.39999997615814","img/land5.png","74","322.39999997615814","1","0","false","3","0.6,0.6,0,0,0.6,0.6,0.6,0,0.6","",""
"","html-keyboard-response","50","67659","0.0-72.0","31T4R4OBOT29QUCBVUIBZ81ZGHM7C9","A2LMQ4497NMK3S","3S829FDFT2NBOHQMM1CIOU0HZYXDXL","","null","<img src=""img/land5.png"" style=""width:200px;border:14px solid red;"">","null","","","","","","","",""
"","image-keyboard-response","51","68116","0.0-74.0","31T4R4OBOT29QUCBVUIBZ81ZGHM7C9","A2LMQ4497NMK3S","3S829FDFT2NBOHQMM1CIOU0HZYXDXL","","456.4000000357628","img/land9.png","75","457.5999999642372","2","0","false","1","0.6,0.6,0,0,0.6,0.6,0.6,0,0.6","",""
"","html-keyboard-response","52","68419","0.0-75.0","31T4R4OBOT29QUCBVUIBZ81ZGHM7C9","A2LMQ4497NMK3S","3S829FDFT2NBOHQMM1CIOU0HZYXDXL","","null","<img src=""img/land9.png"" style=""width:200px;border:14px solid red;"">","null","","","","","","","",""
"","image-keyboard-response","53","68884","0.0-77.0","31T4R4OBOT29QUCBVUIBZ81ZGHM7C9","A2LMQ4497NMK3S","3S829FDFT2NBOHQMM1CIOU0HZYXDXL","","464.19999998807907","img/land7.png","75","465.2000000476837","2","0","false","2","0.6,0.6,0,0,0.6,0.6,0.6,0,0.6","",""
"","html-keyboard-response","54","69187","0.0-78.0","31T4R4OBOT29QUCBVUIBZ81ZGHM7C9","A2LMQ4497NMK3S","3S829FDFT2NBOHQMM1CIOU0HZYXDXL","","null","<img src=""img/land7.png"" style=""width:200px;border:14px solid red;"">","null","","","","","","","",""
"","image-keyboard-response","55","69508","0.0-80.0","31T4R4OBOT29QUCBVUIBZ81ZGHM7C9","A2LMQ4497NMK3S","3S829FDFT2NBOHQMM1CIOU0HZYXDXL","","320.39999997615814","img/land5.png","75","321.39999997615814","2","0","false","3","0.6,0.6,0,0,0.6,0.6,0.6,0,0.6","",""
"","html-keyboard-response","56","69811","0.0-81.0","31T4R4OBOT29QUCBVUIBZ81ZGHM7C9","A2LMQ4497NMK3S","3S829FDFT2NBOHQMM1CIOU0HZYXDXL","","null","<img src=""img/land5.png"" style=""width:200px;border:14px solid red;"">","null","","","","","","","",""
"","image-keyboard-response","57","70076","0.0-83.0","31T4R4OBOT29QUCBVUIBZ81ZGHM7C9","A2LMQ4497NMK3S","3S829FDFT2NBOHQMM1CIOU0HZYXDXL","","264","img/land7.png","74","265","1","0","false","2","0.6,0.6,0,0,0.6,0.6,0.6,0,0.6","",""
"","html-keyboard-response","58","70379","0.0-84.0","31T4R4OBOT29QUCBVUIBZ81ZGHM7C9","A2LMQ4497NMK3S","3S829FDFT2NBOHQMM1CIOU0HZYXDXL","","null","<img src=""img/land7.png"" style=""width:200px;border:14px solid red;"">","null","","","","","","","",""
"","image-keyboard-response","59","70636","0.0-86.0","31T4R4OBOT29QUCBVUIBZ81ZGHM7C9","A2LMQ4497NMK3S","3S829FDFT2NBOHQMM1CIOU0HZYXDXL","","255.39999997615814","img/land7.png","75","256.80000001192093","2","1","false","2","0.6,0.6,0,0,0.6,0.6,0.6,0,0.6","",""
"","html-keyboard-response","60","70938","0.0-87.0","31T4R4OBOT29QUCBVUIBZ81ZGHM7C9","A2LMQ4497NMK3S","3S829FDFT2NBOHQMM1CIOU0HZYXDXL","","null","<img src=""img/land7.png"" style=""width:200px; border:14px solid green;"">","null","","","","","","","",""
"","image-keyboard-response","61","71492","0.0-89.0","31T4R4OBOT29QUCBVUIBZ81ZGHM7C9","A2LMQ4497NMK3S","3S829FDFT2NBOHQMM1CIOU0HZYXDXL","","553.0999999642372","img/land9.png","75","554.0999999642372","2","0","false","1","0.6,0.6,0,0,0.6,0.6,0.6,0,0.6","",""
"","html-keyboard-response","62","71795","0.0-90.0","31T4R4OBOT29QUCBVUIBZ81ZGHM7C9","A2LMQ4497NMK3S","3S829FDFT2NBOHQMM1CIOU0HZYXDXL","","null","<img src=""img/land9.png"" style=""width:200px;border:14px solid red;"">","null","","","","","","","",""
"","image-keyboard-response","63","72044","0.0-92.0","31T4R4OBOT29QUCBVUIBZ81ZGHM7C9","A2LMQ4497NMK3S","3S829FDFT2NBOHQMM1CIOU0HZYXDXL","","247.89999997615814","img/land9.png","74","248.80000001192093","1","0","false","1","0.6,0.6,0,0,0.6,0.6,0.6,0,0.6","",""
"","html-keyboard-response","64","72346","0.0-93.0","31T4R4OBOT29QUCBVUIBZ81ZGHM7C9","A2LMQ4497NMK3S","3S829FDFT2NBOHQMM1CIOU0HZYXDXL","","null","<img src=""img/land9.png"" style=""width:200px;border:14px solid red;"">","null","","","","","","","",""
"","image-keyboard-response","65","72652","0.0-95.0","31T4R4OBOT29QUCBVUIBZ81ZGHM7C9","A2LMQ4497NMK3S","3S829FDFT2NBOHQMM1CIOU0HZYXDXL","","305","img/land7.png","74","306.30000001192093","1","0","false","2","0.6,0.6,0,0,0.6,0.6,0.6,0,0.6","",""
"","html-keyboard-response","66","72954","0.0-96.0","31T4R4OBOT29QUCBVUIBZ81ZGHM7C9","A2LMQ4497NMK3S","3S829FDFT2NBOHQMM1CIOU0HZYXDXL","","null","<img src=""img/land7.png"" style=""width:200px;border:14px solid red;"">","null","","","","","","","",""
"","image-keyboard-response","67","73236","0.0-98.0","31T4R4OBOT29QUCBVUIBZ81ZGHM7C9","A2LMQ4497NMK3S","3S829FDFT2NBOHQMM1CIOU0HZYXDXL","","280.60000002384186","img/land7.png","75","281.5999999642372","2","0","false","2","0.6,0.6,0,0,0.6,0.6,0.6,0,0.6","",""
"","html-keyboard-response","68","73538","0.0-99.0","31T4R4OBOT29QUCBVUIBZ81ZGHM7C9","A2LMQ4497NMK3S","3S829FDFT2NBOHQMM1CIOU0HZYXDXL","","null","<img src=""img/land7.png"" style=""width:200px;border:14px solid red;"">","null","","","","","","","",""
"","image-keyboard-response","69","73892","0.0-101.0","31T4R4OBOT29QUCBVUIBZ81ZGHM7C9","A2LMQ4497NMK3S","3S829FDFT2NBOHQMM1CIOU0HZYXDXL","","353.39999997615814","img/land5.png","75","354.39999997615814","2","0","false","3","0.6,0.6,0,0,0.6,0.6,0.6,0,0.6","",""
"","html-keyboard-response","70","74194","0.0-102.0","31T4R4OBOT29QUCBVUIBZ81ZGHM7C9","A2LMQ4497NMK3S","3S829FDFT2NBOHQMM1CIOU0HZYXDXL","","null","<img src=""img/land5.png"" style=""width:200px;border:14px solid red;"">","null","","","","","","","",""
"","image-keyboard-response","71","74484","0.0-104.0","31T4R4OBOT29QUCBVUIBZ81ZGHM7C9","A2LMQ4497NMK3S","3S829FDFT2NBOHQMM1CIOU0HZYXDXL","","288.5999999642372","img/land9.png","74","289.60000002384186","1","0","false","1","0.6,0.6,0,0,0.6,0.6,0.6,0,0.6","",""
"","html-keyboard-response","72","74786","0.0-105.0","31T4R4OBOT29QUCBVUIBZ81ZGHM7C9","A2LMQ4497NMK3S","3S829FDFT2NBOHQMM1CIOU0HZYXDXL","","null","<img src=""img/land9.png"" style=""width:200px;border:14px solid red;"">","null","","","","","","","",""
"","image-keyboard-response","73","74972","0.0-107.0","31T4R4OBOT29QUCBVUIBZ81ZGHM7C9","A2LMQ4497NMK3S","3S829FDFT2NBOHQMM1CIOU0HZYXDXL","","185.4000000357628","img/land5.png","75","186.30000001192093","2","0","false","3","0.6,0.6,0,0,0.6,0.6,0.6,0,0.6","",""
"","html-keyboard-response","74","75274","0.0-108.0","31T4R4OBOT29QUCBVUIBZ81ZGHM7C9","A2LMQ4497NMK3S","3S829FDFT2NBOHQMM1CIOU0HZYXDXL","","null","<img src=""img/land5.png"" style=""width:200px;border:14px solid red;"">","null","","","","","","","",""
"","image-keyboard-response","75","75500","0.0-110.0","31T4R4OBOT29QUCBVUIBZ81ZGHM7C9","A2LMQ4497NMK3S","3S829FDFT2NBOHQMM1CIOU0HZYXDXL","","225","img/land7.png","74","226.20000004768372","1","0","false","2","0.6,0.6,0,0,0.6,0.6,0.6,0,0.6","",""
"","html-keyboard-response","76","75803","0.0-111.0","31T4R4OBOT29QUCBVUIBZ81ZGHM7C9","A2LMQ4497NMK3S","3S829FDFT2NBOHQMM1CIOU0HZYXDXL","","null","<img src=""img/land7.png"" style=""width:200px;border:14px solid red;"">","null","","","","","","","",""
"","image-keyboard-response","77","76076","0.0-113.0","31T4R4OBOT29QUCBVUIBZ81ZGHM7C9","A2LMQ4497NMK3S","3S829FDFT2NBOHQMM1CIOU0HZYXDXL","","272.19999998807907","img/land9.png","75","273.19999998807907","2","1","false","1","0.6,0.6,0,0,0.6,0.6,0.6,0,0.6","",""
"","html-keyboard-response","78","76380","0.0-114.0","31T4R4OBOT29QUCBVUIBZ81ZGHM7C9","A2LMQ4497NMK3S","3S829FDFT2NBOHQMM1CIOU0HZYXDXL","","null","<img src=""img/land9.png"" style=""width:200px; border:14px solid green;"">","null","","","","","","","",""
"","image-keyboard-response","79","76788","0.0-116.0","31T4R4OBOT29QUCBVUIBZ81ZGHM7C9","A2LMQ4497NMK3S","3S829FDFT2NBOHQMM1CIOU0HZYXDXL","","407.4000000357628","img/land5.png","75","408.39999997615814","2","0","false","3","0.6,0.6,0,0,0.6,0.6,0.6,0,0.6","",""
"","html-keyboard-response","80","77090","0.0-117.0","31T4R4OBOT29QUCBVUIBZ81ZGHM7C9","A2LMQ4497NMK3S","3S829FDFT2NBOHQMM1CIOU0HZYXDXL","","null","<img src=""img/land5.png"" style=""width:200px;border:14px solid red;"">","null","","","","","","","",""
"","image-keyboard-response","81","77396","0.0-119.0","31T4R4OBOT29QUCBVUIBZ81ZGHM7C9","A2LMQ4497NMK3S","3S829FDFT2NBOHQMM1CIOU0HZYXDXL","","304.60000002384186","img/land5.png","75","305.60000002384186","2","0","false","3","0.6,0.6,0,0,0.6,0.6,0.6,0,0.6","",""
"","html-keyboard-response","82","77699","0.0-120.0","31T4R4OBOT29QUCBVUIBZ81ZGHM7C9","A2LMQ4497NMK3S","3S829FDFT2NBOHQMM1CIOU0HZYXDXL","","null","<img src=""img/land5.png"" style=""width:200px;border:14px solid red;"">","null","","","","","","","",""
"","image-keyboard-response","83","78060","0.0-122.0","31T4R4OBOT29QUCBVUIBZ81ZGHM7C9","A2LMQ4497NMK3S","3S829FDFT2NBOHQMM1CIOU0HZYXDXL","","359.5999999642372","img/land9.png","74","360.69999998807907","1","1","false","1","0.6,0.6,0,0,0.6,0.6,0.6,0,0.6","",""
"","html-keyboard-response","84","78362","0.0-123.0","31T4R4OBOT29QUCBVUIBZ81ZGHM7C9","A2LMQ4497NMK3S","3S829FDFT2NBOHQMM1CIOU0HZYXDXL","","null","<img src=""img/land9.png"" style=""width:200px; border:14px solid green;"">","null","","","","","","","",""
"","image-keyboard-response","85","78620","0.0-125.0","31T4R4OBOT29QUCBVUIBZ81ZGHM7C9","A2LMQ4497NMK3S","3S829FDFT2NBOHQMM1CIOU0HZYXDXL","","257.0999999642372","img/land7.png","74","258","1","0","false","2","0.6,0.6,0,0,0.6,0.6,0.6,0,0.6","",""
"","html-keyboard-response","86","78923","0.0-126.0","31T4R4OBOT29QUCBVUIBZ81ZGHM7C9","A2LMQ4497NMK3S","3S829FDFT2NBOHQMM1CIOU0HZYXDXL","","null","<img src=""img/land7.png"" style=""width:200px;border:14px solid red;"">","null","","","","","","","",""
"","image-keyboard-response","87","79228","0.0-128.0","31T4R4OBOT29QUCBVUIBZ81ZGHM7C9","A2LMQ4497NMK3S","3S829FDFT2NBOHQMM1CIOU0HZYXDXL","","304.39999997615814","img/land9.png","75","305.4000000357628","2","1","false","1","0.6,0.6,0,0,0.6,0.6,0.6,0,0.6","",""
"","html-keyboard-response","88","79531","0.0-129.0","31T4R4OBOT29QUCBVUIBZ81ZGHM7C9","A2LMQ4497NMK3S","3S829FDFT2NBOHQMM1CIOU0HZYXDXL","","null","<img src=""img/land9.png"" style=""width:200px; border:14px solid green;"">","null","","","","","","","",""
"","image-keyboard-response","89","79956","0.0-131.0","31T4R4OBOT29QUCBVUIBZ81ZGHM7C9","A2LMQ4497NMK3S","3S829FDFT2NBOHQMM1CIOU0HZYXDXL","","424","img/land5.png","75","425.10000002384186","2","0","false","3","0.6,0.6,0,0,0.6,0.6,0.6,0,0.6","",""
"","html-keyboard-response","90","80259","0.0-132.0","31T4R4OBOT29QUCBVUIBZ81ZGHM7C9","A2LMQ4497NMK3S","3S829FDFT2NBOHQMM1CIOU0HZYXDXL","","null","<img src=""img/land5.png"" style=""width:200px;border:14px solid red;"">","null","","","","","","","",""
"","image-keyboard-response","91","80741","0.0-134.0","31T4R4OBOT29QUCBVUIBZ81ZGHM7C9","A2LMQ4497NMK3S","3S829FDFT2NBOHQMM1CIOU0HZYXDXL","","480.60000002384186","img/land7.png","74","481.80000001192093","1","0","false","2","0.6,0.6,0,0,0.6,0.6,0.6,0,0.6","",""
"","html-keyboard-response","92","81043","0.0-135.0","31T4R4OBOT29QUCBVUIBZ81ZGHM7C9","A2LMQ4497NMK3S","3S829FDFT2NBOHQMM1CIOU0HZYXDXL","","null","<img src=""img/land7.png"" style=""width:200px;border:14px solid red;"">","null","","","","","","","",""
"","image-keyboard-response","93","81188","0.0-137.0","31T4R4OBOT29QUCBVUIBZ81ZGHM7C9","A2LMQ4497NMK3S","3S829FDFT2NBOHQMM1CIOU0HZYXDXL","","144.10000002384186","img/land5.png","75","145.19999998807907","2","0","false","3","0.6,0.6,0,0,0.6,0.6,0.6,0,0.6","",""
"","html-keyboard-response","94","81491","0.0-138.0","31T4R4OBOT29QUCBVUIBZ81ZGHM7C9","A2LMQ4497NMK3S","3S829FDFT2NBOHQMM1CIOU0HZYXDXL","","null","<img src=""img/land5.png"" style=""width:200px;border:14px solid red;"">","null","","","","","","","",""
"","image-keyboard-response","95","81956","0.0-140.0","31T4R4OBOT29QUCBVUIBZ81ZGHM7C9","A2LMQ4497NMK3S","3S829FDFT2NBOHQMM1CIOU0HZYXDXL","","464.39999997615814","img/land5.png","75","465.39999997615814","2","0","false","3","0.6,0.6,0,0,0.6,0.6,0.6,0,0.6","",""
"","html-keyboard-response","96","82258","0.0-141.0","31T4R4OBOT29QUCBVUIBZ81ZGHM7C9","A2LMQ4497NMK3S","3S829FDFT2NBOHQMM1CIOU0HZYXDXL","","null","<img src=""img/land5.png"" style=""width:200px;border:14px solid red;"">","null","","","","","","","",""
"","image-keyboard-response","97","82444","0.0-143.0","31T4R4OBOT29QUCBVUIBZ81ZGHM7C9","A2LMQ4497NMK3S","3S829FDFT2NBOHQMM1CIOU0HZYXDXL","","184.89999997615814","img/land9.png","74","185.89999997615814","1","1","false","1","0.6,0.6,0,0,0.6,0.6,0.6,0,0.6","",""
"","html-keyboard-response","98","82746","0.0-144.0","31T4R4OBOT29QUCBVUIBZ81ZGHM7C9","A2LMQ4497NMK3S","3S829FDFT2NBOHQMM1CIOU0HZYXDXL","","null","<img src=""img/land9.png"" style=""width:200px; border:14px solid green;"">","null","","","","","","","",""
"","image-keyboard-response","99","83060","0.0-146.0","31T4R4OBOT29QUCBVUIBZ81ZGHM7C9","A2LMQ4497NMK3S","3S829FDFT2NBOHQMM1CIOU0HZYXDXL","","313.30000001192093","img/land9.png","74","314.39999997615814","1","1","false","1","0.6,0.6,0,0,0.6,0.6,0.6,0,0.6","",""
"","html-keyboard-response","100","83362","0.0-147.0","31T4R4OBOT29QUCBVUIBZ81ZGHM7C9","A2LMQ4497NMK3S","3S829FDFT2NBOHQMM1CIOU0HZYXDXL","","null","<img src=""img/land9.png"" style=""width:200px; border:14px solid green;"">","null","","","","","","","",""
"","image-keyboard-response","101","83612","0.0-149.0","31T4R4OBOT29QUCBVUIBZ81ZGHM7C9","A2LMQ4497NMK3S","3S829FDFT2NBOHQMM1CIOU0HZYXDXL","","249.4000000357628","img/land9.png","74","250.5","1","0","false","1","0.6,0.6,0,0,0.6,0.6,0.6,0,0.6","",""
"","html-keyboard-response","102","83915","0.0-150.0","31T4R4OBOT29QUCBVUIBZ81ZGHM7C9","A2LMQ4497NMK3S","3S829FDFT2NBOHQMM1CIOU0HZYXDXL","","null","<img src=""img/land9.png"" style=""width:200px;border:14px solid red;"">","null","","","","","","","",""
"","image-keyboard-response","103","84300","0.0-152.0","31T4R4OBOT29QUCBVUIBZ81ZGHM7C9","A2LMQ4497NMK3S","3S829FDFT2NBOHQMM1CIOU0HZYXDXL","","384.2000000476837","img/land5.png","74","385.30000001192093","1","1","false","3","0.6,0.6,0,0,0.6,0.6,0.6,0,0.6","",""
"","html-keyboard-response","104","84602","0.0-153.0","31T4R4OBOT29QUCBVUIBZ81ZGHM7C9","A2LMQ4497NMK3S","3S829FDFT2NBOHQMM1CIOU0HZYXDXL","","null","<img src=""img/land5.png"" style=""width:200px; border:14px solid green;"">","null","","","","","","","",""
"","image-keyboard-response","105","84900","0.0-155.0","31T4R4OBOT29QUCBVUIBZ81ZGHM7C9","A2LMQ4497NMK3S","3S829FDFT2NBOHQMM1CIOU0HZYXDXL","","296.69999998807907","img/land7.png","74","297.69999998807907","1","0","false","2","0.6,0.6,0,0,0.6,0.6,0.6,0,0.6","",""
"","html-keyboard-response","106","85202","0.0-156.0","31T4R4OBOT29QUCBVUIBZ81ZGHM7C9","A2LMQ4497NMK3S","3S829FDFT2NBOHQMM1CIOU0HZYXDXL","","null","<img src=""img/land7.png"" style=""width:200px;border:14px solid red;"">","null","","","","","","","",""
"","image-keyboard-response","107","85508","0.0-158.0","31T4R4OBOT29QUCBVUIBZ81ZGHM7C9","A2LMQ4497NMK3S","3S829FDFT2NBOHQMM1CIOU0HZYXDXL","","304.80000001192093","img/land9.png","75","305.80000001192093","2","1","false","1","0.6,0.6,0,0,0.6,0.6,0.6,0,0.6","",""
"","html-keyboard-response","108","85811","0.0-159.0","31T4R4OBOT29QUCBVUIBZ81ZGHM7C9","A2LMQ4497NMK3S","3S829FDFT2NBOHQMM1CIOU0HZYXDXL","","null","<img src=""img/land9.png"" style=""width:200px; border:14px solid green;"">","null","","","","","","","",""
"","image-keyboard-response","109","86532","0.0-161.0","31T4R4OBOT29QUCBVUIBZ81ZGHM7C9","A2LMQ4497NMK3S","3S829FDFT2NBOHQMM1CIOU0HZYXDXL","","720.5","img/land7.png","75","721.4000000357628","2","1","false","2","0.6,0.6,0,0,0.6,0.6,0.6,0,0.6","",""
"","html-keyboard-response","110","86835","0.0-162.0","31T4R4OBOT29QUCBVUIBZ81ZGHM7C9","A2LMQ4497NMK3S","3S829FDFT2NBOHQMM1CIOU0HZYXDXL","","null","<img src=""img/land7.png"" style=""width:200px; border:14px solid green;"">","null","","","","","","","",""
"","image-keyboard-response","111","87196","0.0-164.0","31T4R4OBOT29QUCBVUIBZ81ZGHM7C9","A2LMQ4497NMK3S","3S829FDFT2NBOHQMM1CIOU0HZYXDXL","","359.5","img/land7.png","75","360.60000002384186","2","0","false","2","0.6,0.6,0,0,0.6,0.6,0.6,0,0.6","",""
"","html-keyboard-response","112","87498","0.0-165.0","31T4R4OBOT29QUCBVUIBZ81ZGHM7C9","A2LMQ4497NMK3S","3S829FDFT2NBOHQMM1CIOU0HZYXDXL","","null","<img src=""img/land7.png"" style=""width:200px;border:14px solid red;"">","null","","","","","","","",""
"","image-keyboard-response","113","87804","0.0-167.0","31T4R4OBOT29QUCBVUIBZ81ZGHM7C9","A2LMQ4497NMK3S","3S829FDFT2NBOHQMM1CIOU0HZYXDXL","","304.5","img/land7.png","75","305.69999998807907","2","0","false","2","0.6,0.6,0,0,0.6,0.6,0.6,0,0.6","",""
"","html-keyboard-response","114","88106","0.0-168.0","31T4R4OBOT29QUCBVUIBZ81ZGHM7C9","A2LMQ4497NMK3S","3S829FDFT2NBOHQMM1CIOU0HZYXDXL","","null","<img src=""img/land7.png"" style=""width:200px;border:14px solid red;"">","null","","","","","","","",""
"","image-keyboard-response","115","88556","0.0-170.0","31T4R4OBOT29QUCBVUIBZ81ZGHM7C9","A2LMQ4497NMK3S","3S829FDFT2NBOHQMM1CIOU0HZYXDXL","","449.10000002384186","img/land5.png","74","450","1","1","false","3","0.6,0.6,0,0,0.6,0.6,0.6,0,0.6","",""
"","html-keyboard-response","116","88858","0.0-171.0","31T4R4OBOT29QUCBVUIBZ81ZGHM7C9","A2LMQ4497NMK3S","3S829FDFT2NBOHQMM1CIOU0HZYXDXL","","null","<img src=""img/land5.png"" style=""width:200px; border:14px solid green;"">","null","","","","","","","",""
"","image-keyboard-response","117","89028","0.0-173.0","31T4R4OBOT29QUCBVUIBZ81ZGHM7C9","A2LMQ4497NMK3S","3S829FDFT2NBOHQMM1CIOU0HZYXDXL","","168.80000001192093","img/land5.png","74","169.9000000357628","1","0","false","3","0.6,0.6,0,0,0.6,0.6,0.6,0,0.6","",""
"","html-keyboard-response","118","89330","0.0-174.0","31T4R4OBOT29QUCBVUIBZ81ZGHM7C9","A2LMQ4497NMK3S","3S829FDFT2NBOHQMM1CIOU0HZYXDXL","","null","<img src=""img/land5.png"" style=""width:200px;border:14px solid red;"">","null","","","","","","","",""
"","image-keyboard-response","119","89596","0.0-176.0","31T4R4OBOT29QUCBVUIBZ81ZGHM7C9","A2LMQ4497NMK3S","3S829FDFT2NBOHQMM1CIOU0HZYXDXL","","265.0999999642372","img/land9.png","74","265.89999997615814","1","1","false","1","0.6,0.6,0,0,0.6,0.6,0.6,0,0.6","",""
"","html-keyboard-response","120","89899","0.0-177.0","31T4R4OBOT29QUCBVUIBZ81ZGHM7C9","A2LMQ4497NMK3S","3S829FDFT2NBOHQMM1CIOU0HZYXDXL","","null","<img src=""img/land9.png"" style=""width:200px; border:14px solid green;"">","null","","","","","","","",""
"","image-keyboard-response","121","90108","0.0-179.0","31T4R4OBOT29QUCBVUIBZ81ZGHM7C9","A2LMQ4497NMK3S","3S829FDFT2NBOHQMM1CIOU0HZYXDXL","","208.5","img/land7.png","74","209.5","1","0","false","2","0.6,0.6,0,0,0.6,0.6,0.6,0,0.6","",""
"","html-keyboard-response","122","90410","0.0-180.0","31T4R4OBOT29QUCBVUIBZ81ZGHM7C9","A2LMQ4497NMK3S","3S829FDFT2NBOHQMM1CIOU0HZYXDXL","","null","<img src=""img/land7.png"" style=""width:200px;border:14px solid red;"">","null","","","","","","","",""
"","image-keyboard-response","123","90845","0.0-182.0","31T4R4OBOT29QUCBVUIBZ81ZGHM7C9","A2LMQ4497NMK3S","3S829FDFT2NBOHQMM1CIOU0HZYXDXL","","432.69999998807907","img/land7.png","75","433.80000001192093","2","0","false","2","0.6,0.6,0,0,0.6,0.6,0.6,0,0.6","",""
"","html-keyboard-response","124","91147","0.0-183.0","31T4R4OBOT29QUCBVUIBZ81ZGHM7C9","A2LMQ4497NMK3S","3S829FDFT2NBOHQMM1CIOU0HZYXDXL","","null","<img src=""img/land7.png"" style=""width:200px;border:14px solid red;"">","null","","","","","","","",""
"","image-keyboard-response","125","91741","0.0-185.0","31T4R4OBOT29QUCBVUIBZ81ZGHM7C9","A2LMQ4497NMK3S","3S829FDFT2NBOHQMM1CIOU0HZYXDXL","","592.4000000357628","img/land9.png","75","593.5","2","0","false","1","0.6,0.6,0,0,0.6,0.6,0.6,0,0.6","",""
"","html-keyboard-response","126","92043","0.0-186.0","31T4R4OBOT29QUCBVUIBZ81ZGHM7C9","A2LMQ4497NMK3S","3S829FDFT2NBOHQMM1CIOU0HZYXDXL","","null","<img src=""img/land9.png"" style=""width:200px;border:14px solid red;"">","null","","","","","","","",""
"","image-keyboard-response","127","92116","0.0-188.0","31T4R4OBOT29QUCBVUIBZ81ZGHM7C9","A2LMQ4497NMK3S","3S829FDFT2NBOHQMM1CIOU0HZYXDXL","","71.39999997615814","img/land9.png","74","72.39999997615814","1","1","false","1","0.6,0.6,0,0,0.6,0.6,0.6,0,0.6","",""
"","html-keyboard-response","128","92419","0.0-189.0","31T4R4OBOT29QUCBVUIBZ81ZGHM7C9","A2LMQ4497NMK3S","3S829FDFT2NBOHQMM1CIOU0HZYXDXL","","null","<img src=""img/land9.png"" style=""width:200px; border:14px solid green;"">","null","","","","","","","",""
"","image-keyboard-response","129","92748","0.0-191.0","31T4R4OBOT29QUCBVUIBZ81ZGHM7C9","A2LMQ4497NMK3S","3S829FDFT2NBOHQMM1CIOU0HZYXDXL","","327.69999998807907","img/land5.png","74","329","1","1","false","3","0.6,0.6,0,0,0.6,0.6,0.6,0,0.6","",""
"","html-keyboard-response","130","93050","0.0-192.0","31T4R4OBOT29QUCBVUIBZ81ZGHM7C9","A2LMQ4497NMK3S","3S829FDFT2NBOHQMM1CIOU0HZYXDXL","","null","<img src=""img/land5.png"" style=""width:200px; border:14px solid green;"">","null","","","","","","","",""
"","image-keyboard-response","131","93148","0.0-194.0","31T4R4OBOT29QUCBVUIBZ81ZGHM7C9","A2LMQ4497NMK3S","3S829FDFT2NBOHQMM1CIOU0HZYXDXL","","96.5","img/land9.png","75","97.30000001192093","2","0","false","1","0.6,0.6,0,0,0.6,0.6,0.6,0,0.6","",""
"","html-keyboard-response","132","93451","0.0-195.0","31T4R4OBOT29QUCBVUIBZ81ZGHM7C9","A2LMQ4497NMK3S","3S829FDFT2NBOHQMM1CIOU0HZYXDXL","","null","<img src=""img/land9.png"" style=""width:200px;border:14px solid red;"">","null","","","","","","","",""
"","image-keyboard-response","133","93940","0.0-197.0","31T4R4OBOT29QUCBVUIBZ81ZGHM7C9","A2LMQ4497NMK3S","3S829FDFT2NBOHQMM1CIOU0HZYXDXL","","488.30000001192093","img/land7.png","75","489.30000001192093","2","1","false","2","0.6,0.6,0,0,0.6,0.6,0.6,0,0.6","",""
"","html-keyboard-response","134","94242","0.0-198.0","31T4R4OBOT29QUCBVUIBZ81ZGHM7C9","A2LMQ4497NMK3S","3S829FDFT2NBOHQMM1CIOU0HZYXDXL","","null","<img src=""img/land7.png"" style=""width:200px; border:14px solid green;"">","null","","","","","","","",""
"","image-keyboard-response","135","94540","0.0-200.0","31T4R4OBOT29QUCBVUIBZ81ZGHM7C9","A2LMQ4497NMK3S","3S829FDFT2NBOHQMM1CIOU0HZYXDXL","","296.5999999642372","img/land9.png","74","297.80000001192093","1","1","false","1","0.6,0.6,0,0,0.6,0.6,0.6,0,0.6","",""
"","html-keyboard-response","136","94842","0.0-201.0","31T4R4OBOT29QUCBVUIBZ81ZGHM7C9","A2LMQ4497NMK3S","3S829FDFT2NBOHQMM1CIOU0HZYXDXL","","null","<img src=""img/land9.png"" style=""width:200px; border:14px solid green;"">","null","","","","","","","",""
"","image-keyboard-response","137","95140","0.0-203.0","31T4R4OBOT29QUCBVUIBZ81ZGHM7C9","A2LMQ4497NMK3S","3S829FDFT2NBOHQMM1CIOU0HZYXDXL","","297","img/land9.png","74","298","1","1","false","1","0.6,0.6,0,0,0.6,0.6,0.6,0,0.6","",""
"","html-keyboard-response","138","95441","0.0-204.0","31T4R4OBOT29QUCBVUIBZ81ZGHM7C9","A2LMQ4497NMK3S","3S829FDFT2NBOHQMM1CIOU0HZYXDXL","","null","<img src=""img/land9.png"" style=""width:200px; border:14px solid green;"">","null","","","","","","","",""
"","image-keyboard-response","139","95700","0.0-206.0","31T4R4OBOT29QUCBVUIBZ81ZGHM7C9","A2LMQ4497NMK3S","3S829FDFT2NBOHQMM1CIOU0HZYXDXL","","257.30000001192093","img/land9.png","74","258.30000001192093","1","1","false","1","0.6,0.6,0,0,0.6,0.6,0.6,0,0.6","",""
"","html-keyboard-response","140","96003","0.0-207.0","31T4R4OBOT29QUCBVUIBZ81ZGHM7C9","A2LMQ4497NMK3S","3S829FDFT2NBOHQMM1CIOU0HZYXDXL","","null","<img src=""img/land9.png"" style=""width:200px; border:14px solid green;"">","null","","","","","","","",""
"","image-keyboard-response","141","96260","0.0-209.0","31T4R4OBOT29QUCBVUIBZ81ZGHM7C9","A2LMQ4497NMK3S","3S829FDFT2NBOHQMM1CIOU0HZYXDXL","","256.0999999642372","img/land7.png","74","257.30000001192093","1","0","false","2","0.6,0.6,0,0,0.6,0.6,0.6,0,0.6","",""
"","html-keyboard-response","142","96563","0.0-210.0","31T4R4OBOT29QUCBVUIBZ81ZGHM7C9","A2LMQ4497NMK3S","3S829FDFT2NBOHQMM1CIOU0HZYXDXL","","null","<img src=""img/land7.png"" style=""width:200px;border:14px solid red;"">","null","","","","","","","",""
"","image-keyboard-response","143","96732","0.0-212.0","31T4R4OBOT29QUCBVUIBZ81ZGHM7C9","A2LMQ4497NMK3S","3S829FDFT2NBOHQMM1CIOU0HZYXDXL","","168.10000002384186","img/land9.png","75","169.19999998807907","2","1","false","1","0.6,0.6,0,0,0.6,0.6,0.6,0,0.6","",""
"","html-keyboard-response","144","97034","0.0-213.0","31T4R4OBOT29QUCBVUIBZ81ZGHM7C9","A2LMQ4497NMK3S","3S829FDFT2NBOHQMM1CIOU0HZYXDXL","","null","<img src=""img/land9.png"" style=""width:200px; border:14px solid green;"">","null","","","","","","","",""
"","image-keyboard-response","145","97397","0.0-215.0","31T4R4OBOT29QUCBVUIBZ81ZGHM7C9","A2LMQ4497NMK3S","3S829FDFT2NBOHQMM1CIOU0HZYXDXL","","360.9000000357628","img/land7.png","74","361.89999997615814","1","0","false","2","0.6,0.6,0,0,0.6,0.6,0.6,0,0.6","",""
"","html-keyboard-response","146","97698","0.0-216.0","31T4R4OBOT29QUCBVUIBZ81ZGHM7C9","A2LMQ4497NMK3S","3S829FDFT2NBOHQMM1CIOU0HZYXDXL","","null","<img src=""img/land7.png"" style=""width:200px;border:14px solid red;"">","null","","","","","","","",""
"","image-keyboard-response","147","98068","0.0-218.0","31T4R4OBOT29QUCBVUIBZ81ZGHM7C9","A2LMQ4497NMK3S","3S829FDFT2NBOHQMM1CIOU0HZYXDXL","","368.60000002384186","img/land7.png","75","369.80000001192093","2","0","false","2","0.6,0.6,0,0,0.6,0.6,0.6,0,0.6","",""
"","html-keyboard-response","148","98370","0.0-219.0","31T4R4OBOT29QUCBVUIBZ81ZGHM7C9","A2LMQ4497NMK3S","3S829FDFT2NBOHQMM1CIOU0HZYXDXL","","null","<img src=""img/land7.png"" style=""width:200px;border:14px solid red;"">","null","","","","","","","",""
"","image-keyboard-response","149","98604","0.0-221.0","31T4R4OBOT29QUCBVUIBZ81ZGHM7C9","A2LMQ4497NMK3S","3S829FDFT2NBOHQMM1CIOU0HZYXDXL","","232.69999998807907","img/land9.png","75","233.70000004768372","2","0","false","1","0.6,0.6,0,0,0.6,0.6,0.6,0,0.6","",""
"","html-keyboard-response","150","98906","0.0-222.0","31T4R4OBOT29QUCBVUIBZ81ZGHM7C9","A2LMQ4497NMK3S","3S829FDFT2NBOHQMM1CIOU0HZYXDXL","","null","<img src=""img/land9.png"" style=""width:200px;border:14px solid red;"">","null","","","","","","","",""
"","image-keyboard-response","151","99156","0.0-224.0","31T4R4OBOT29QUCBVUIBZ81ZGHM7C9","A2LMQ4497NMK3S","3S829FDFT2NBOHQMM1CIOU0HZYXDXL","","249.30000001192093","img/land5.png","74","250.39999997615814","1","0","false","3","0.6,0.6,0,0,0.6,0.6,0.6,0,0.6","",""
"","html-keyboard-response","152","99458","0.0-225.0","31T4R4OBOT29QUCBVUIBZ81ZGHM7C9","A2LMQ4497NMK3S","3S829FDFT2NBOHQMM1CIOU0HZYXDXL","","null","<img src=""img/land5.png"" style=""width:200px;border:14px solid red;"">","null","","","","","","","",""
"","image-keyboard-response","153","99860","0.0-227.0","31T4R4OBOT29QUCBVUIBZ81ZGHM7C9","A2LMQ4497NMK3S","3S829FDFT2NBOHQMM1CIOU0HZYXDXL","","401.2000000476837","img/land9.png","74","402.4000000357628","1","0","false","1","0.6,0.6,0,0,0.6,0.6,0.6,0,0.6","",""
"","html-keyboard-response","154","100163","0.0-228.0","31T4R4OBOT29QUCBVUIBZ81ZGHM7C9","A2LMQ4497NMK3S","3S829FDFT2NBOHQMM1CIOU0HZYXDXL","","null","<img src=""img/land9.png"" style=""width:200px;border:14px solid red;"">","null","","","","","","","",""
"","image-keyboard-response","155","100444","0.0-230.0","31T4R4OBOT29QUCBVUIBZ81ZGHM7C9","A2LMQ4497NMK3S","3S829FDFT2NBOHQMM1CIOU0HZYXDXL","","280.4000000357628","img/land9.png","74","281.5","1","0","false","1","0.6,0.6,0,0,0.6,0.6,0.6,0,0.6","",""
"","html-keyboard-response","156","100746","0.0-231.0","31T4R4OBOT29QUCBVUIBZ81ZGHM7C9","A2LMQ4497NMK3S","3S829FDFT2NBOHQMM1CIOU0HZYXDXL","","null","<img src=""img/land9.png"" style=""width:200px;border:14px solid red;"">","null","","","","","","","",""
"","image-keyboard-response","157","101068","0.0-233.0","31T4R4OBOT29QUCBVUIBZ81ZGHM7C9","A2LMQ4497NMK3S","3S829FDFT2NBOHQMM1CIOU0HZYXDXL","","320.7000000476837","img/land5.png","74","321.69999998807907","1","0","false","3","0.6,0.6,0,0,0.6,0.6,0.6,0,0.6","",""
"","html-keyboard-response","158","101370","0.0-234.0","31T4R4OBOT29QUCBVUIBZ81ZGHM7C9","A2LMQ4497NMK3S","3S829FDFT2NBOHQMM1CIOU0HZYXDXL","","null","<img src=""img/land5.png"" style=""width:200px;border:14px solid red;"">","null","","","","","","","",""
"","image-keyboard-response","159","101724","0.0-236.0","31T4R4OBOT29QUCBVUIBZ81ZGHM7C9","A2LMQ4497NMK3S","3S829FDFT2NBOHQMM1CIOU0HZYXDXL","","352.4000000357628","img/land7.png","74","353.5999999642372","1","0","false","2","0.6,0.6,0,0,0.6,0.6,0.6,0,0.6","",""
"","html-keyboard-response","160","102028","0.0-237.0","31T4R4OBOT29QUCBVUIBZ81ZGHM7C9","A2LMQ4497NMK3S","3S829FDFT2NBOHQMM1CIOU0HZYXDXL","","null","<img src=""img/land7.png"" style=""width:200px;border:14px solid red;"">","null","","","","","","","",""
"","image-keyboard-response","161","102460","0.0-239.0","31T4R4OBOT29QUCBVUIBZ81ZGHM7C9","A2LMQ4497NMK3S","3S829FDFT2NBOHQMM1CIOU0HZYXDXL","","430.7000000476837","img/land5.png","74","431.80000001192093","1","0","false","3","0.6,0.6,0,0,0.6,0.6,0.6,0,0.6","",""
"","html-keyboard-response","162","102762","0.0-240.0","31T4R4OBOT29QUCBVUIBZ81ZGHM7C9","A2LMQ4497NMK3S","3S829FDFT2NBOHQMM1CIOU0HZYXDXL","","null","<img src=""img/land5.png"" style=""width:200px;border:14px solid red;"">","null","","","","","","","",""
"","image-keyboard-response","163","103308","0.0-242.0","31T4R4OBOT29QUCBVUIBZ81ZGHM7C9","A2LMQ4497NMK3S","3S829FDFT2NBOHQMM1CIOU0HZYXDXL","","544.3999999761581","img/land9.png","75","545.4000000357628","2","0","false","1","0.6,0.6,0,0,0.6,0.6,0.6,0,0.6","",""
"","html-keyboard-response","164","103610","0.0-243.0","31T4R4OBOT29QUCBVUIBZ81ZGHM7C9","A2LMQ4497NMK3S","3S829FDFT2NBOHQMM1CIOU0HZYXDXL","","null","<img src=""img/land9.png"" style=""width:200px;border:14px solid red;"">","null","","","","","","","",""
"","image-keyboard-response","165","103892","0.0-245.0","31T4R4OBOT29QUCBVUIBZ81ZGHM7C9","A2LMQ4497NMK3S","3S829FDFT2NBOHQMM1CIOU0HZYXDXL","","280.80000001192093","img/land5.png","74","281.9000000357628","1","0","false","3","0.6,0.6,0,0,0.6,0.6,0.6,0,0.6","",""
"","html-keyboard-response","166","104194","0.0-246.0","31T4R4OBOT29QUCBVUIBZ81ZGHM7C9","A2LMQ4497NMK3S","3S829FDFT2NBOHQMM1CIOU0HZYXDXL","","null","<img src=""img/land5.png"" style=""width:200px;border:14px solid red;"">","null","","","","","","","",""
"","image-keyboard-response","167","104564","0.0-248.0","31T4R4OBOT29QUCBVUIBZ81ZGHM7C9","A2LMQ4497NMK3S","3S829FDFT2NBOHQMM1CIOU0HZYXDXL","","368.5","img/land5.png","74","369.5999999642372","1","0","false","3","0.6,0.6,0,0,0.6,0.6,0.6,0,0.6","",""
"","html-keyboard-response","168","104867","0.0-249.0","31T4R4OBOT29QUCBVUIBZ81ZGHM7C9","A2LMQ4497NMK3S","3S829FDFT2NBOHQMM1CIOU0HZYXDXL","","null","<img src=""img/land5.png"" style=""width:200px;border:14px solid red;"">","null","","","","","","","",""
"","image-keyboard-response","169","105196","0.0-251.0","31T4R4OBOT29QUCBVUIBZ81ZGHM7C9","A2LMQ4497NMK3S","3S829FDFT2NBOHQMM1CIOU0HZYXDXL","","327.5","img/land7.png","76","328.60000002384186","3","0","false","2","0.6,0.6,0,0,0.6,0.6,0.6,0,0.6","",""
"","html-keyboard-response","170","105499","0.0-252.0","31T4R4OBOT29QUCBVUIBZ81ZGHM7C9","A2LMQ4497NMK3S","3S829FDFT2NBOHQMM1CIOU0HZYXDXL","","null","<img src=""img/land7.png"" style=""width:200px;border:14px solid red;"">","null","","","","","","","",""
"","image-keyboard-response","171","105845","0.0-254.0","31T4R4OBOT29QUCBVUIBZ81ZGHM7C9","A2LMQ4497NMK3S","3S829FDFT2NBOHQMM1CIOU0HZYXDXL","","344.30000001192093","img/land7.png","75","345.5","2","1","false","2","0.6,0.6,0,0,0.6,0.6,0.6,0,0.6","",""
"","html-keyboard-response","172","106158","0.0-255.0","31T4R4OBOT29QUCBVUIBZ81ZGHM7C9","A2LMQ4497NMK3S","3S829FDFT2NBOHQMM1CIOU0HZYXDXL","","null","<img src=""img/land7.png"" style=""width:200px; border:14px solid green;"">","null","","","","","","","",""
"","image-keyboard-response","173","106596","0.0-257.0","31T4R4OBOT29QUCBVUIBZ81ZGHM7C9","A2LMQ4497NMK3S","3S829FDFT2NBOHQMM1CIOU0HZYXDXL","","437.10000002384186","img/land9.png","75","438.10000002384186","2","1","false","1","0.6,0.6,0,0,0.6,0.6,0.6,0,0.6","",""
"","html-keyboard-response","174","106898","0.0-258.0","31T4R4OBOT29QUCBVUIBZ81ZGHM7C9","A2LMQ4497NMK3S","3S829FDFT2NBOHQMM1CIOU0HZYXDXL","","null","<img src=""img/land9.png"" style=""width:200px; border:14px solid green;"">","null","","","","","","","",""
"","image-keyboard-response","175","107220","0.0-260.0","31T4R4OBOT29QUCBVUIBZ81ZGHM7C9","A2LMQ4497NMK3S","3S829FDFT2NBOHQMM1CIOU0HZYXDXL","","320.80000001192093","img/land5.png","74","321.89999997615814","1","0","false","3","0.6,0.6,0,0,0.6,0.6,0.6,0,0.6","",""
"","html-keyboard-response","176","107522","0.0-261.0","31T4R4OBOT29QUCBVUIBZ81ZGHM7C9","A2LMQ4497NMK3S","3S829FDFT2NBOHQMM1CIOU0HZYXDXL","","null","<img src=""img/land5.png"" style=""width:200px;border:14px solid red;"">","null","","","","","","","",""
"","image-keyboard-response","177","107668","0.0-263.0","31T4R4OBOT29QUCBVUIBZ81ZGHM7C9","A2LMQ4497NMK3S","3S829FDFT2NBOHQMM1CIOU0HZYXDXL","","144.5","img/land5.png","75","145.5","2","0","false","3","0.6,0.6,0,0,0.6,0.6,0.6,0,0.6","",""
"","html-keyboard-response","178","107970","0.0-264.0","31T4R4OBOT29QUCBVUIBZ81ZGHM7C9","A2LMQ4497NMK3S","3S829FDFT2NBOHQMM1CIOU0HZYXDXL","","null","<img src=""img/land5.png"" style=""width:200px;border:14px solid red;"">","null","","","","","","","",""
"","image-keyboard-response","179","108316","0.0-266.0","31T4R4OBOT29QUCBVUIBZ81ZGHM7C9","A2LMQ4497NMK3S","3S829FDFT2NBOHQMM1CIOU0HZYXDXL","","344.39999997615814","img/land7.png","75","345.60000002384186","2","0","false","2","0.6,0.6,0,0,0.6,0.6,0.6,0,0.6","",""
"","html-keyboard-response","180","108618","0.0-267.0","31T4R4OBOT29QUCBVUIBZ81ZGHM7C9","A2LMQ4497NMK3S","3S829FDFT2NBOHQMM1CIOU0HZYXDXL","","null","<img src=""img/land7.png"" style=""width:200px;border:14px solid red;"">","null","","","","","","","",""
"","image-keyboard-response","181","108876","0.0-269.0","31T4R4OBOT29QUCBVUIBZ81ZGHM7C9","A2LMQ4497NMK3S","3S829FDFT2NBOHQMM1CIOU0HZYXDXL","","256.9000000357628","img/land7.png","75","258.30000001192093","2","0","false","2","0.6,0.6,0,0,0.6,0.6,0.6,0,0.6","",""
"","html-keyboard-response","182","109178","0.0-270.0","31T4R4OBOT29QUCBVUIBZ81ZGHM7C9","A2LMQ4497NMK3S","3S829FDFT2NBOHQMM1CIOU0HZYXDXL","","null","<img src=""img/land7.png"" style=""width:200px;border:14px solid red;"">","null","","","","","","","",""
"","html-keyboard-response","183","115454","0.0-272.0","31T4R4OBOT29QUCBVUIBZ81ZGHM7C9","A2LMQ4497NMK3S","3S829FDFT2NBOHQMM1CIOU0HZYXDXL","","","","","","","","","","","",""
"","image-keyboard-response","184","115844","0.0-273.0","31T4R4OBOT29QUCBVUIBZ81ZGHM7C9","A2LMQ4497NMK3S","3S829FDFT2NBOHQMM1CIOU0HZYXDXL","","388.5","img/land6.png","74","389.80000001192093","1","0","false","1","0.8,0.2,0.2,0.2,0.8,0.2,0.2,0.2,0.8","",""
"","html-keyboard-response","185","116147","0.0-274.0","31T4R4OBOT29QUCBVUIBZ81ZGHM7C9","A2LMQ4497NMK3S","3S829FDFT2NBOHQMM1CIOU0HZYXDXL","","null","<img src=""img/land6.png"" style=""width:200px;border:14px solid red;"">","null","","","","","","","",""
"","image-keyboard-response","186","116356","0.0-276.0","31T4R4OBOT29QUCBVUIBZ81ZGHM7C9","A2LMQ4497NMK3S","3S829FDFT2NBOHQMM1CIOU0HZYXDXL","","208.19999998807907","img/land4.png","75","209.30000001192093","2","0","false","3","0.8,0.2,0.2,0.2,0.8,0.2,0.2,0.2,0.8","",""
"","html-keyboard-response","187","116658","0.0-277.0","31T4R4OBOT29QUCBVUIBZ81ZGHM7C9","A2LMQ4497NMK3S","3S829FDFT2NBOHQMM1CIOU0HZYXDXL","","null","<img src=""img/land4.png"" style=""width:200px;border:14px solid red;"">","null","","","","","","","",""
"","image-keyboard-response","188","116948","0.0-279.0","31T4R4OBOT29QUCBVUIBZ81ZGHM7C9","A2LMQ4497NMK3S","3S829FDFT2NBOHQMM1CIOU0HZYXDXL","","288.69999998807907","img/land4.png","76","289.9000000357628","3","1","false","3","0.8,0.2,0.2,0.2,0.8,0.2,0.2,0.2,0.8","",""
"","html-keyboard-response","189","117251","0.0-280.0","31T4R4OBOT29QUCBVUIBZ81ZGHM7C9","A2LMQ4497NMK3S","3S829FDFT2NBOHQMM1CIOU0HZYXDXL","","null","<img src=""img/land4.png"" style=""width:200px; border:14px solid green;"">","null","","","","","","","",""
"","image-keyboard-response","190","117692","0.0-282.0","31T4R4OBOT29QUCBVUIBZ81ZGHM7C9","A2LMQ4497NMK3S","3S829FDFT2NBOHQMM1CIOU0HZYXDXL","","440.0999999642372","img/land6.png","76","441.30000001192093","3","0","false","1","0.8,0.2,0.2,0.2,0.8,0.2,0.2,0.2,0.8","",""
"","html-keyboard-response","191","117995","0.0-283.0","31T4R4OBOT29QUCBVUIBZ81ZGHM7C9","A2LMQ4497NMK3S","3S829FDFT2NBOHQMM1CIOU0HZYXDXL","","null","<img src=""img/land6.png"" style=""width:200px;border:14px solid red;"">","null","","","","","","","",""
"","image-keyboard-response","192","118596","0.0-285.0","31T4R4OBOT29QUCBVUIBZ81ZGHM7C9","A2LMQ4497NMK3S","3S829FDFT2NBOHQMM1CIOU0HZYXDXL","","599.5999999642372","img/land3.png","75","600.8000000119209","2","1","false","2","0.8,0.2,0.2,0.2,0.8,0.2,0.2,0.2,0.8","",""
"","html-keyboard-response","193","118899","0.0-286.0","31T4R4OBOT29QUCBVUIBZ81ZGHM7C9","A2LMQ4497NMK3S","3S829FDFT2NBOHQMM1CIOU0HZYXDXL","","null","<img src=""img/land3.png"" style=""width:200px; border:14px solid green;"">","null","","","","","","","",""
"","image-keyboard-response","194","119140","0.0-288.0","31T4R4OBOT29QUCBVUIBZ81ZGHM7C9","A2LMQ4497NMK3S","3S829FDFT2NBOHQMM1CIOU0HZYXDXL","","240.10000002384186","img/land3.png","75","241.30000001192093","2","1","false","2","0.8,0.2,0.2,0.2,0.8,0.2,0.2,0.2,0.8","",""
"","html-keyboard-response","195","119442","0.0-289.0","31T4R4OBOT29QUCBVUIBZ81ZGHM7C9","A2LMQ4497NMK3S","3S829FDFT2NBOHQMM1CIOU0HZYXDXL","","null","<img src=""img/land3.png"" style=""width:200px; border:14px solid green;"">","null","","","","","","","",""
"","image-keyboard-response","196","119660","0.0-291.0","31T4R4OBOT29QUCBVUIBZ81ZGHM7C9","A2LMQ4497NMK3S","3S829FDFT2NBOHQMM1CIOU0HZYXDXL","","217","img/land3.png","75","218.10000002384186","2","1","false","2","0.8,0.2,0.2,0.2,0.8,0.2,0.2,0.2,0.8","",""
"","html-keyboard-response","197","119962","0.0-292.0","31T4R4OBOT29QUCBVUIBZ81ZGHM7C9","A2LMQ4497NMK3S","3S829FDFT2NBOHQMM1CIOU0HZYXDXL","","null","<img src=""img/land3.png"" style=""width:200px; border:14px solid green;"">","null","","","","","","","",""
"","image-keyboard-response","198","120172","0.0-294.0","31T4R4OBOT29QUCBVUIBZ81ZGHM7C9","A2LMQ4497NMK3S","3S829FDFT2NBOHQMM1CIOU0HZYXDXL","","208.89999997615814","img/land4.png","75","210","2","0","false","3","0.8,0.2,0.2,0.2,0.8,0.2,0.2,0.2,0.8","",""
"","html-keyboard-response","199","120474","0.0-295.0","31T4R4OBOT29QUCBVUIBZ81ZGHM7C9","A2LMQ4497NMK3S","3S829FDFT2NBOHQMM1CIOU0HZYXDXL","","null","<img src=""img/land4.png"" style=""width:200px;border:14px solid red;"">","null","","","","","","","",""
"","image-keyboard-response","200","120853","0.0-297.0","31T4R4OBOT29QUCBVUIBZ81ZGHM7C9","A2LMQ4497NMK3S","3S829FDFT2NBOHQMM1CIOU0HZYXDXL","","377.4000000357628","img/land4.png","75","378.60000002384186","2","0","false","3","0.8,0.2,0.2,0.2,0.8,0.2,0.2,0.2,0.8","",""
"","html-keyboard-response","201","121155","0.0-298.0","31T4R4OBOT29QUCBVUIBZ81ZGHM7C9","A2LMQ4497NMK3S","3S829FDFT2NBOHQMM1CIOU0HZYXDXL","","null","<img src=""img/land4.png"" style=""width:200px;border:14px solid red;"">","null","","","","","","","",""
"","image-keyboard-response","202","121596","0.0-300.0","31T4R4OBOT29QUCBVUIBZ81ZGHM7C9","A2LMQ4497NMK3S","3S829FDFT2NBOHQMM1CIOU0HZYXDXL","","439.5","img/land3.png","76","440.5","3","0","false","2","0.8,0.2,0.2,0.2,0.8,0.2,0.2,0.2,0.8","",""
"","html-keyboard-response","203","121898","0.0-301.0","31T4R4OBOT29QUCBVUIBZ81ZGHM7C9","A2LMQ4497NMK3S","3S829FDFT2NBOHQMM1CIOU0HZYXDXL","","null","<img src=""img/land3.png"" style=""width:200px;border:14px solid red;"">","null","","","","","","","",""
"","image-keyboard-response","204","122012","0.0-303.0","31T4R4OBOT29QUCBVUIBZ81ZGHM7C9","A2LMQ4497NMK3S","3S829FDFT2NBOHQMM1CIOU0HZYXDXL","","112.80000001192093","img/land4.png","75","113.89999997615814","2","1","false","3","0.8,0.2,0.2,0.2,0.8,0.2,0.2,0.2,0.8","",""
"","html-keyboard-response","205","122315","0.0-304.0","31T4R4OBOT29QUCBVUIBZ81ZGHM7C9","A2LMQ4497NMK3S","3S829FDFT2NBOHQMM1CIOU0HZYXDXL","","null","<img src=""img/land4.png"" style=""width:200px; border:14px solid green;"">","null","","","","","","","",""
"","image-keyboard-response","206","122788","0.0-306.0","31T4R4OBOT29QUCBVUIBZ81ZGHM7C9","A2LMQ4497NMK3S","3S829FDFT2NBOHQMM1CIOU0HZYXDXL","","471.19999998807907","img/land4.png","76","472.39999997615814","3","1","false","3","0.8,0.2,0.2,0.2,0.8,0.2,0.2,0.2,0.8","",""
"","html-keyboard-response","207","123091","0.0-307.0","31T4R4OBOT29QUCBVUIBZ81ZGHM7C9","A2LMQ4497NMK3S","3S829FDFT2NBOHQMM1CIOU0HZYXDXL","","null","<img src=""img/land4.png"" style=""width:200px; border:14px solid green;"">","null","","","","","","","",""
"","image-keyboard-response","208","123540","0.0-309.0","31T4R4OBOT29QUCBVUIBZ81ZGHM7C9","A2LMQ4497NMK3S","3S829FDFT2NBOHQMM1CIOU0HZYXDXL","","447.5","img/land3.png","75","448.5","2","1","false","2","0.8,0.2,0.2,0.2,0.8,0.2,0.2,0.2,0.8","",""
"","html-keyboard-response","209","123842","0.0-310.0","31T4R4OBOT29QUCBVUIBZ81ZGHM7C9","A2LMQ4497NMK3S","3S829FDFT2NBOHQMM1CIOU0HZYXDXL","","null","<img src=""img/land3.png"" style=""width:200px; border:14px solid green;"">","null","","","","","","","",""
"","image-keyboard-response","210","124164","0.0-312.0","31T4R4OBOT29QUCBVUIBZ81ZGHM7C9","A2LMQ4497NMK3S","3S829FDFT2NBOHQMM1CIOU0HZYXDXL","","320.80000001192093","img/land6.png","75","321.89999997615814","2","1","false","1","0.8,0.2,0.2,0.2,0.8,0.2,0.2,0.2,0.8","",""
"","html-keyboard-response","211","124467","0.0-313.0","31T4R4OBOT29QUCBVUIBZ81ZGHM7C9","A2LMQ4497NMK3S","3S829FDFT2NBOHQMM1CIOU0HZYXDXL","","null","<img src=""img/land6.png"" style=""width:200px; border:14px solid green;"">","null","","","","","","","",""
"","image-keyboard-response","212","124812","0.0-315.0","31T4R4OBOT29QUCBVUIBZ81ZGHM7C9","A2LMQ4497NMK3S","3S829FDFT2NBOHQMM1CIOU0HZYXDXL","","344.19999998807907","img/land6.png","75","345.30000001192093","2","0","false","1","0.8,0.2,0.2,0.2,0.8,0.2,0.2,0.2,0.8","",""
"","html-keyboard-response","213","125114","0.0-316.0","31T4R4OBOT29QUCBVUIBZ81ZGHM7C9","A2LMQ4497NMK3S","3S829FDFT2NBOHQMM1CIOU0HZYXDXL","","null","<img src=""img/land6.png"" style=""width:200px;border:14px solid red;"">","null","","","","","","","",""
"","image-keyboard-response","214","125460","0.0-318.0","31T4R4OBOT29QUCBVUIBZ81ZGHM7C9","A2LMQ4497NMK3S","3S829FDFT2NBOHQMM1CIOU0HZYXDXL","","345","img/land3.png","75","346.0999999642372","2","0","false","2","0.8,0.2,0.2,0.2,0.8,0.2,0.2,0.2,0.8","",""
"","html-keyboard-response","215","125763","0.0-319.0","31T4R4OBOT29QUCBVUIBZ81ZGHM7C9","A2LMQ4497NMK3S","3S829FDFT2NBOHQMM1CIOU0HZYXDXL","","null","<img src=""img/land3.png"" style=""width:200px;border:14px solid red;"">","null","","","","","","","",""
"","image-keyboard-response","216","126004","0.0-321.0","31T4R4OBOT29QUCBVUIBZ81ZGHM7C9","A2LMQ4497NMK3S","3S829FDFT2NBOHQMM1CIOU0HZYXDXL","","239.69999998807907","img/land3.png","76","240.80000001192093","3","0","false","2","0.8,0.2,0.2,0.2,0.8,0.2,0.2,0.2,0.8","",""
"","html-keyboard-response","217","126306","0.0-322.0","31T4R4OBOT29QUCBVUIBZ81ZGHM7C9","A2LMQ4497NMK3S","3S829FDFT2NBOHQMM1CIOU0HZYXDXL","","null","<img src=""img/land3.png"" style=""width:200px;border:14px solid red;"">","null","","","","","","","",""
"","image-keyboard-response","218","126684","0.0-324.0","31T4R4OBOT29QUCBVUIBZ81ZGHM7C9","A2LMQ4497NMK3S","3S829FDFT2NBOHQMM1CIOU0HZYXDXL","","377.0999999642372","img/land3.png","75","378.19999998807907","2","1","false","2","0.8,0.2,0.2,0.2,0.8,0.2,0.2,0.2,0.8","",""
"","html-keyboard-response","219","126995","0.0-325.0","31T4R4OBOT29QUCBVUIBZ81ZGHM7C9","A2LMQ4497NMK3S","3S829FDFT2NBOHQMM1CIOU0HZYXDXL","","null","<img src=""img/land3.png"" style=""width:200px; border:14px solid green;"">","null","","","","","","","",""
"","image-keyboard-response","220","127148","0.0-327.0","31T4R4OBOT29QUCBVUIBZ81ZGHM7C9","A2LMQ4497NMK3S","3S829FDFT2NBOHQMM1CIOU0HZYXDXL","","151.89999997615814","img/land4.png","75","152.9000000357628","2","1","false","3","0.8,0.2,0.2,0.2,0.8,0.2,0.2,0.2,0.8","",""
"","html-keyboard-response","221","127450","0.0-328.0","31T4R4OBOT29QUCBVUIBZ81ZGHM7C9","A2LMQ4497NMK3S","3S829FDFT2NBOHQMM1CIOU0HZYXDXL","","null","<img src=""img/land4.png"" style=""width:200px; border:14px solid green;"">","null","","","","","","","",""
"","image-keyboard-response","222","128076","0.0-330.0","31T4R4OBOT29QUCBVUIBZ81ZGHM7C9","A2LMQ4497NMK3S","3S829FDFT2NBOHQMM1CIOU0HZYXDXL","","624.6000000238419","img/land6.png","75","625.6000000238419","2","0","false","1","0.8,0.2,0.2,0.2,0.8,0.2,0.2,0.2,0.8","",""
"","html-keyboard-response","223","128378","0.0-331.0","31T4R4OBOT29QUCBVUIBZ81ZGHM7C9","A2LMQ4497NMK3S","3S829FDFT2NBOHQMM1CIOU0HZYXDXL","","null","<img src=""img/land6.png"" style=""width:200px;border:14px solid red;"">","null","","","","","","","",""
"","image-keyboard-response","224","128604","0.0-333.0","31T4R4OBOT29QUCBVUIBZ81ZGHM7C9","A2LMQ4497NMK3S","3S829FDFT2NBOHQMM1CIOU0HZYXDXL","","224.20000004768372","img/land4.png","75","225.69999998807907","2","0","false","3","0.8,0.2,0.2,0.2,0.8,0.2,0.2,0.2,0.8","",""
"","html-keyboard-response","225","128906","0.0-334.0","31T4R4OBOT29QUCBVUIBZ81ZGHM7C9","A2LMQ4497NMK3S","3S829FDFT2NBOHQMM1CIOU0HZYXDXL","","null","<img src=""img/land4.png"" style=""width:200px;border:14px solid red;"">","null","","","","","","","",""
"","image-keyboard-response","226","129364","0.0-336.0","31T4R4OBOT29QUCBVUIBZ81ZGHM7C9","A2LMQ4497NMK3S","3S829FDFT2NBOHQMM1CIOU0HZYXDXL","","456.30000001192093","img/land4.png","76","457.60000002384186","3","1","false","3","0.8,0.2,0.2,0.2,0.8,0.2,0.2,0.2,0.8","",""
"","html-keyboard-response","227","129666","0.0-337.0","31T4R4OBOT29QUCBVUIBZ81ZGHM7C9","A2LMQ4497NMK3S","3S829FDFT2NBOHQMM1CIOU0HZYXDXL","","null","<img src=""img/land4.png"" style=""width:200px; border:14px solid green;"">","null","","","","","","","",""
"","image-keyboard-response","228","129924","0.0-339.0","31T4R4OBOT29QUCBVUIBZ81ZGHM7C9","A2LMQ4497NMK3S","3S829FDFT2NBOHQMM1CIOU0HZYXDXL","","256.30000001192093","img/land3.png","76","257.4000000357628","3","1","false","2","0.8,0.2,0.2,0.2,0.8,0.2,0.2,0.2,0.8","",""
"","html-keyboard-response","229","130227","0.0-340.0","31T4R4OBOT29QUCBVUIBZ81ZGHM7C9","A2LMQ4497NMK3S","3S829FDFT2NBOHQMM1CIOU0HZYXDXL","","null","<img src=""img/land3.png"" style=""width:200px; border:14px solid green;"">","null","","","","","","","",""
"","image-keyboard-response","230","130308","0.0-342.0","31T4R4OBOT29QUCBVUIBZ81ZGHM7C9","A2LMQ4497NMK3S","3S829FDFT2NBOHQMM1CIOU0HZYXDXL","","80.39999997615814","img/land3.png","75","81.60000002384186","2","0","false","2","0.8,0.2,0.2,0.2,0.8,0.2,0.2,0.2,0.8","",""
"","html-keyboard-response","231","130611","0.0-343.0","31T4R4OBOT29QUCBVUIBZ81ZGHM7C9","A2LMQ4497NMK3S","3S829FDFT2NBOHQMM1CIOU0HZYXDXL","","null","<img src=""img/land3.png"" style=""width:200px;border:14px solid red;"">","null","","","","","","","",""
"","image-keyboard-response","232","130972","0.0-345.0","31T4R4OBOT29QUCBVUIBZ81ZGHM7C9","A2LMQ4497NMK3S","3S829FDFT2NBOHQMM1CIOU0HZYXDXL","","360.30000001192093","img/land4.png","75","361.5","2","0","false","3","0.8,0.2,0.2,0.2,0.8,0.2,0.2,0.2,0.8","",""
"","html-keyboard-response","233","131274","0.0-346.0","31T4R4OBOT29QUCBVUIBZ81ZGHM7C9","A2LMQ4497NMK3S","3S829FDFT2NBOHQMM1CIOU0HZYXDXL","","null","<img src=""img/land4.png"" style=""width:200px;border:14px solid red;"">","null","","","","","","","",""
"","image-keyboard-response","234","131581","0.0-348.0","31T4R4OBOT29QUCBVUIBZ81ZGHM7C9","A2LMQ4497NMK3S","3S829FDFT2NBOHQMM1CIOU0HZYXDXL","","305.60000002384186","img/land3.png","75","306.89999997615814","2","1","false","2","0.8,0.2,0.2,0.2,0.8,0.2,0.2,0.2,0.8","",""
"","html-keyboard-response","235","131883","0.0-349.0","31T4R4OBOT29QUCBVUIBZ81ZGHM7C9","A2LMQ4497NMK3S","3S829FDFT2NBOHQMM1CIOU0HZYXDXL","","null","<img src=""img/land3.png"" style=""width:200px; border:14px solid green;"">","null","","","","","","","",""
"","image-keyboard-response","236","132228","0.0-351.0","31T4R4OBOT29QUCBVUIBZ81ZGHM7C9","A2LMQ4497NMK3S","3S829FDFT2NBOHQMM1CIOU0HZYXDXL","","344.39999997615814","img/land3.png","75","345.5","2","1","false","2","0.8,0.2,0.2,0.2,0.8,0.2,0.2,0.2,0.8","",""
"","html-keyboard-response","237","132531","0.0-352.0","31T4R4OBOT29QUCBVUIBZ81ZGHM7C9","A2LMQ4497NMK3S","3S829FDFT2NBOHQMM1CIOU0HZYXDXL","","null","<img src=""img/land3.png"" style=""width:200px; border:14px solid green;"">","null","","","","","","","",""
"","image-keyboard-response","238","132836","0.0-354.0","31T4R4OBOT29QUCBVUIBZ81ZGHM7C9","A2LMQ4497NMK3S","3S829FDFT2NBOHQMM1CIOU0HZYXDXL","","304","img/land4.png","75","305.2000000476837","2","0","false","3","0.8,0.2,0.2,0.2,0.8,0.2,0.2,0.2,0.8","",""
"","html-keyboard-response","239","133138","0.0-355.0","31T4R4OBOT29QUCBVUIBZ81ZGHM7C9","A2LMQ4497NMK3S","3S829FDFT2NBOHQMM1CIOU0HZYXDXL","","null","<img src=""img/land4.png"" style=""width:200px;border:14px solid red;"">","null","","","","","","","",""
"","image-keyboard-response","240","133508","0.0-357.0","31T4R4OBOT29QUCBVUIBZ81ZGHM7C9","A2LMQ4497NMK3S","3S829FDFT2NBOHQMM1CIOU0HZYXDXL","","368.5","img/land4.png","74","369.80000001192093","1","0","false","3","0.8,0.2,0.2,0.2,0.8,0.2,0.2,0.2,0.8","",""
"","html-keyboard-response","241","133811","0.0-358.0","31T4R4OBOT29QUCBVUIBZ81ZGHM7C9","A2LMQ4497NMK3S","3S829FDFT2NBOHQMM1CIOU0HZYXDXL","","null","<img src=""img/land4.png"" style=""width:200px;border:14px solid red;"">","null","","","","","","","",""
"","image-keyboard-response","242","134068","0.0-360.0","31T4R4OBOT29QUCBVUIBZ81ZGHM7C9","A2LMQ4497NMK3S","3S829FDFT2NBOHQMM1CIOU0HZYXDXL","","256.2000000476837","img/land6.png","76","257.4000000357628","3","1","false","1","0.8,0.2,0.2,0.2,0.8,0.2,0.2,0.2,0.8","",""
"","html-keyboard-response","243","134370","0.0-361.0","31T4R4OBOT29QUCBVUIBZ81ZGHM7C9","A2LMQ4497NMK3S","3S829FDFT2NBOHQMM1CIOU0HZYXDXL","","null","<img src=""img/land6.png"" style=""width:200px; border:14px solid green;"">","null","","","","","","","",""
"","image-keyboard-response","244","134812","0.0-363.0","31T4R4OBOT29QUCBVUIBZ81ZGHM7C9","A2LMQ4497NMK3S","3S829FDFT2NBOHQMM1CIOU0HZYXDXL","","440.4000000357628","img/land3.png","76","441.39999997615814","3","1","false","2","0.8,0.2,0.2,0.2,0.8,0.2,0.2,0.2,0.8","",""
"","html-keyboard-response","245","135115","0.0-364.0","31T4R4OBOT29QUCBVUIBZ81ZGHM7C9","A2LMQ4497NMK3S","3S829FDFT2NBOHQMM1CIOU0HZYXDXL","","null","<img src=""img/land3.png"" style=""width:200px; border:14px solid green;"">","null","","","","","","","",""
"","image-keyboard-response","246","135260","0.0-366.0","31T4R4OBOT29QUCBVUIBZ81ZGHM7C9","A2LMQ4497NMK3S","3S829FDFT2NBOHQMM1CIOU0HZYXDXL","","144.30000001192093","img/land3.png","75","145.0999999642372","2","1","false","2","0.8,0.2,0.2,0.2,0.8,0.2,0.2,0.2,0.8","",""
"","html-keyboard-response","247","135563","0.0-367.0","31T4R4OBOT29QUCBVUIBZ81ZGHM7C9","A2LMQ4497NMK3S","3S829FDFT2NBOHQMM1CIOU0HZYXDXL","","null","<img src=""img/land3.png"" style=""width:200px; border:14px solid green;"">","null","","","","","","","",""
"","image-keyboard-response","248","135932","0.0-369.0","31T4R4OBOT29QUCBVUIBZ81ZGHM7C9","A2LMQ4497NMK3S","3S829FDFT2NBOHQMM1CIOU0HZYXDXL","","368.19999998807907","img/land6.png","75","369.30000001192093","2","1","false","1","0.8,0.2,0.2,0.2,0.8,0.2,0.2,0.2,0.8","",""
"","html-keyboard-response","249","136235","0.0-370.0","31T4R4OBOT29QUCBVUIBZ81ZGHM7C9","A2LMQ4497NMK3S","3S829FDFT2NBOHQMM1CIOU0HZYXDXL","","null","<img src=""img/land6.png"" style=""width:200px; border:14px solid green;"">","null","","","","","","","",""
"","image-keyboard-response","250","136412","0.0-372.0","31T4R4OBOT29QUCBVUIBZ81ZGHM7C9","A2LMQ4497NMK3S","3S829FDFT2NBOHQMM1CIOU0HZYXDXL","","176.19999998807907","img/land4.png","75","177.19999998807907","2","0","false","3","0.8,0.2,0.2,0.2,0.8,0.2,0.2,0.2,0.8","",""
"","html-keyboard-response","251","136714","0.0-373.0","31T4R4OBOT29QUCBVUIBZ81ZGHM7C9","A2LMQ4497NMK3S","3S829FDFT2NBOHQMM1CIOU0HZYXDXL","","null","<img src=""img/land4.png"" style=""width:200px;border:14px solid red;"">","null","","","","","","","",""
"","image-keyboard-response","252","137004","0.0-375.0","31T4R4OBOT29QUCBVUIBZ81ZGHM7C9","A2LMQ4497NMK3S","3S829FDFT2NBOHQMM1CIOU0HZYXDXL","","288.89999997615814","img/land4.png","76","289.80000001192093","3","1","false","3","0.8,0.2,0.2,0.2,0.8,0.2,0.2,0.2,0.8","",""
"","html-keyboard-response","253","137306","0.0-376.0","31T4R4OBOT29QUCBVUIBZ81ZGHM7C9","A2LMQ4497NMK3S","3S829FDFT2NBOHQMM1CIOU0HZYXDXL","","null","<img src=""img/land4.png"" style=""width:200px; border:14px solid green;"">","null","","","","","","","",""
"","image-keyboard-response","254","137516","0.0-378.0","31T4R4OBOT29QUCBVUIBZ81ZGHM7C9","A2LMQ4497NMK3S","3S829FDFT2NBOHQMM1CIOU0HZYXDXL","","208.4000000357628","img/land4.png","76","209.60000002384186","3","1","false","3","0.8,0.2,0.2,0.2,0.8,0.2,0.2,0.2,0.8","",""
"","html-keyboard-response","255","137819","0.0-379.0","31T4R4OBOT29QUCBVUIBZ81ZGHM7C9","A2LMQ4497NMK3S","3S829FDFT2NBOHQMM1CIOU0HZYXDXL","","null","<img src=""img/land4.png"" style=""width:200px; border:14px solid green;"">","null","","","","","","","",""
"","image-keyboard-response","256","138060","0.0-381.0","31T4R4OBOT29QUCBVUIBZ81ZGHM7C9","A2LMQ4497NMK3S","3S829FDFT2NBOHQMM1CIOU0HZYXDXL","","239.79999995231628","img/land4.png","76","241","3","1","false","3","0.8,0.2,0.2,0.2,0.8,0.2,0.2,0.2,0.8","",""
"","html-keyboard-response","257","138362","0.0-382.0","31T4R4OBOT29QUCBVUIBZ81ZGHM7C9","A2LMQ4497NMK3S","3S829FDFT2NBOHQMM1CIOU0HZYXDXL","","null","<img src=""img/land4.png"" style=""width:200px; border:14px solid green;"">","null","","","","","","","",""
"","image-keyboard-response","258","138564","0.0-384.0","31T4R4OBOT29QUCBVUIBZ81ZGHM7C9","A2LMQ4497NMK3S","3S829FDFT2NBOHQMM1CIOU0HZYXDXL","","200.5999999642372","img/land4.png","76","201.5999999642372","3","1","false","3","0.8,0.2,0.2,0.2,0.8,0.2,0.2,0.2,0.8","",""
"","html-keyboard-response","259","138867","0.0-385.0","31T4R4OBOT29QUCBVUIBZ81ZGHM7C9","A2LMQ4497NMK3S","3S829FDFT2NBOHQMM1CIOU0HZYXDXL","","null","<img src=""img/land4.png"" style=""width:200px; border:14px solid green;"">","null","","","","","","","",""
"","image-keyboard-response","260","139308","0.0-387.0","31T4R4OBOT29QUCBVUIBZ81ZGHM7C9","A2LMQ4497NMK3S","3S829FDFT2NBOHQMM1CIOU0HZYXDXL","","439.5999999642372","img/land3.png","75","440.69999998807907","2","1","false","2","0.8,0.2,0.2,0.2,0.8,0.2,0.2,0.2,0.8","",""
"","html-keyboard-response","261","139610","0.0-388.0","31T4R4OBOT29QUCBVUIBZ81ZGHM7C9","A2LMQ4497NMK3S","3S829FDFT2NBOHQMM1CIOU0HZYXDXL","","null","<img src=""img/land3.png"" style=""width:200px; border:14px solid green;"">","null","","","","","","","",""
"","image-keyboard-response","262","139692","0.0-390.0","31T4R4OBOT29QUCBVUIBZ81ZGHM7C9","A2LMQ4497NMK3S","3S829FDFT2NBOHQMM1CIOU0HZYXDXL","","80.59999996423721","img/land6.png","75","81.80000001192093","2","0","false","1","0.8,0.2,0.2,0.2,0.8,0.2,0.2,0.2,0.8","",""
"","html-keyboard-response","263","139994","0.0-391.0","31T4R4OBOT29QUCBVUIBZ81ZGHM7C9","A2LMQ4497NMK3S","3S829FDFT2NBOHQMM1CIOU0HZYXDXL","","null","<img src=""img/land6.png"" style=""width:200px;border:14px solid red;"">","null","","","","","","","",""
"","image-keyboard-response","264","140132","0.0-393.0","31T4R4OBOT29QUCBVUIBZ81ZGHM7C9","A2LMQ4497NMK3S","3S829FDFT2NBOHQMM1CIOU0HZYXDXL","","137.19999998807907","img/land4.png","76","138.0999999642372","3","0","false","3","0.8,0.2,0.2,0.2,0.8,0.2,0.2,0.2,0.8","",""
"","html-keyboard-response","265","140434","0.0-394.0","31T4R4OBOT29QUCBVUIBZ81ZGHM7C9","A2LMQ4497NMK3S","3S829FDFT2NBOHQMM1CIOU0HZYXDXL","","null","<img src=""img/land4.png"" style=""width:200px;border:14px solid red;"">","null","","","","","","","",""
"","image-keyboard-response","266","140692","0.0-396.0","31T4R4OBOT29QUCBVUIBZ81ZGHM7C9","A2LMQ4497NMK3S","3S829FDFT2NBOHQMM1CIOU0HZYXDXL","","256.5","img/land6.png","76","257.5","3","1","false","1","0.8,0.2,0.2,0.2,0.8,0.2,0.2,0.2,0.8","",""
"","html-keyboard-response","267","140994","0.0-397.0","31T4R4OBOT29QUCBVUIBZ81ZGHM7C9","A2LMQ4497NMK3S","3S829FDFT2NBOHQMM1CIOU0HZYXDXL","","null","<img src=""img/land6.png"" style=""width:200px; border:14px solid green;"">","null","","","","","","","",""
"","image-keyboard-response","268","141172","0.0-399.0","31T4R4OBOT29QUCBVUIBZ81ZGHM7C9","A2LMQ4497NMK3S","3S829FDFT2NBOHQMM1CIOU0HZYXDXL","","176.89999997615814","img/land6.png","76","177.89999997615814","3","0","false","1","0.8,0.2,0.2,0.2,0.8,0.2,0.2,0.2,0.8","",""
"","html-keyboard-response","269","141474","0.0-400.0","31T4R4OBOT29QUCBVUIBZ81ZGHM7C9","A2LMQ4497NMK3S","3S829FDFT2NBOHQMM1CIOU0HZYXDXL","","null","<img src=""img/land6.png"" style=""width:200px;border:14px solid red;"">","null","","","","","","","",""
"","image-keyboard-response","270","141748","0.0-402.0","31T4R4OBOT29QUCBVUIBZ81ZGHM7C9","A2LMQ4497NMK3S","3S829FDFT2NBOHQMM1CIOU0HZYXDXL","","273","img/land6.png","76","274.19999998807907","3","0","false","1","0.8,0.2,0.2,0.2,0.8,0.2,0.2,0.2,0.8","",""
"","html-keyboard-response","271","142051","0.0-403.0","31T4R4OBOT29QUCBVUIBZ81ZGHM7C9","A2LMQ4497NMK3S","3S829FDFT2NBOHQMM1CIOU0HZYXDXL","","null","<img src=""img/land6.png"" style=""width:200px;border:14px solid red;"">","null","","","","","","","",""
"","image-keyboard-response","272","142164","0.0-405.0","31T4R4OBOT29QUCBVUIBZ81ZGHM7C9","A2LMQ4497NMK3S","3S829FDFT2NBOHQMM1CIOU0HZYXDXL","","112.39999997615814","img/land3.png","76","113.5","3","0","false","2","0.8,0.2,0.2,0.2,0.8,0.2,0.2,0.2,0.8","",""
"","html-keyboard-response","273","142466","0.0-406.0","31T4R4OBOT29QUCBVUIBZ81ZGHM7C9","A2LMQ4497NMK3S","3S829FDFT2NBOHQMM1CIOU0HZYXDXL","","null","<img src=""img/land3.png"" style=""width:200px;border:14px solid red;"">","null","","","","","","","",""
"","image-keyboard-response","274","142548","0.0-408.0","31T4R4OBOT29QUCBVUIBZ81ZGHM7C9","A2LMQ4497NMK3S","3S829FDFT2NBOHQMM1CIOU0HZYXDXL","","81.09999996423721","img/land4.png","75","82.30000001192093","2","0","false","3","0.8,0.2,0.2,0.2,0.8,0.2,0.2,0.2,0.8","",""
"","html-keyboard-response","275","142851","0.0-409.0","31T4R4OBOT29QUCBVUIBZ81ZGHM7C9","A2LMQ4497NMK3S","3S829FDFT2NBOHQMM1CIOU0HZYXDXL","","null","<img src=""img/land4.png"" style=""width:200px;border:14px solid red;"">","null","","","","","","","",""
"","image-keyboard-response","276","143108","0.0-411.0","31T4R4OBOT29QUCBVUIBZ81ZGHM7C9","A2LMQ4497NMK3S","3S829FDFT2NBOHQMM1CIOU0HZYXDXL","","256.19999998807907","img/land4.png","76","257.2000000476837","3","1","false","3","0.8,0.2,0.2,0.2,0.8,0.2,0.2,0.2,0.8","",""
"","html-keyboard-response","277","143411","0.0-412.0","31T4R4OBOT29QUCBVUIBZ81ZGHM7C9","A2LMQ4497NMK3S","3S829FDFT2NBOHQMM1CIOU0HZYXDXL","","null","<img src=""img/land4.png"" style=""width:200px; border:14px solid green;"">","null","","","","","","","",""
"","image-keyboard-response","278","143668","0.0-414.0","31T4R4OBOT29QUCBVUIBZ81ZGHM7C9","A2LMQ4497NMK3S","3S829FDFT2NBOHQMM1CIOU0HZYXDXL","","256","img/land4.png","76","257","3","1","false","3","0.8,0.2,0.2,0.2,0.8,0.2,0.2,0.2,0.8","",""
"","html-keyboard-response","279","143971","0.0-415.0","31T4R4OBOT29QUCBVUIBZ81ZGHM7C9","A2LMQ4497NMK3S","3S829FDFT2NBOHQMM1CIOU0HZYXDXL","","null","<img src=""img/land4.png"" style=""width:200px; border:14px solid green;"">","null","","","","","","","",""
"","image-keyboard-response","280","144212","0.0-417.0","31T4R4OBOT29QUCBVUIBZ81ZGHM7C9","A2LMQ4497NMK3S","3S829FDFT2NBOHQMM1CIOU0HZYXDXL","","240.39999997615814","img/land3.png","76","241.39999997615814","3","0","false","2","0.8,0.2,0.2,0.2,0.8,0.2,0.2,0.2,0.8","",""
"","html-keyboard-response","281","144527","0.0-418.0","31T4R4OBOT29QUCBVUIBZ81ZGHM7C9","A2LMQ4497NMK3S","3S829FDFT2NBOHQMM1CIOU0HZYXDXL","","null","<img src=""img/land3.png"" style=""width:200px;border:14px solid red;"">","null","","","","","","","",""
"","image-keyboard-response","282","144684","0.0-420.0","31T4R4OBOT29QUCBVUIBZ81ZGHM7C9","A2LMQ4497NMK3S","3S829FDFT2NBOHQMM1CIOU0HZYXDXL","","155.69999998807907","img/land6.png","75","156.5999999642372","2","0","false","1","0.8,0.2,0.2,0.2,0.8,0.2,0.2,0.2,0.8","",""
"","html-keyboard-response","283","144986","0.0-421.0","31T4R4OBOT29QUCBVUIBZ81ZGHM7C9","A2LMQ4497NMK3S","3S829FDFT2NBOHQMM1CIOU0HZYXDXL","","null","<img src=""img/land6.png"" style=""width:200px;border:14px solid red;"">","null","","","","","","","",""
"","image-keyboard-response","284","145244","0.0-423.0","31T4R4OBOT29QUCBVUIBZ81ZGHM7C9","A2LMQ4497NMK3S","3S829FDFT2NBOHQMM1CIOU0HZYXDXL","","256.69999998807907","img/land4.png","76","257.69999998807907","3","0","false","3","0.8,0.2,0.2,0.2,0.8,0.2,0.2,0.2,0.8","",""
"","html-keyboard-response","285","145546","0.0-424.0","31T4R4OBOT29QUCBVUIBZ81ZGHM7C9","A2LMQ4497NMK3S","3S829FDFT2NBOHQMM1CIOU0HZYXDXL","","null","<img src=""img/land4.png"" style=""width:200px;border:14px solid red;"">","null","","","","","","","",""
"","image-keyboard-response","286","145901","0.0-426.0","31T4R4OBOT29QUCBVUIBZ81ZGHM7C9","A2LMQ4497NMK3S","3S829FDFT2NBOHQMM1CIOU0HZYXDXL","","353.0999999642372","img/land6.png","76","354.19999998807907","3","1","false","1","0.8,0.2,0.2,0.2,0.8,0.2,0.2,0.2,0.8","",""
"","html-keyboard-response","287","146202","0.0-427.0","31T4R4OBOT29QUCBVUIBZ81ZGHM7C9","A2LMQ4497NMK3S","3S829FDFT2NBOHQMM1CIOU0HZYXDXL","","null","<img src=""img/land6.png"" style=""width:200px; border:14px solid green;"">","null","","","","","","","",""
"","image-keyboard-response","288","146476","0.0-429.0","31T4R4OBOT29QUCBVUIBZ81ZGHM7C9","A2LMQ4497NMK3S","3S829FDFT2NBOHQMM1CIOU0HZYXDXL","","272.80000001192093","img/land3.png","76","273.80000001192093","3","0","false","2","0.8,0.2,0.2,0.2,0.8,0.2,0.2,0.2,0.8","",""
"","html-keyboard-response","289","146778","0.0-430.0","31T4R4OBOT29QUCBVUIBZ81ZGHM7C9","A2LMQ4497NMK3S","3S829FDFT2NBOHQMM1CIOU0HZYXDXL","","null","<img src=""img/land3.png"" style=""width:200px;border:14px solid red;"">","null","","","","","","","",""
"","image-keyboard-response","290","147060","0.0-432.0","31T4R4OBOT29QUCBVUIBZ81ZGHM7C9","A2LMQ4497NMK3S","3S829FDFT2NBOHQMM1CIOU0HZYXDXL","","281.30000001192093","img/land6.png","75","282.2000000476837","2","0","false","1","0.8,0.2,0.2,0.2,0.8,0.2,0.2,0.2,0.8","",""
"","html-keyboard-response","291","147362","0.0-433.0","31T4R4OBOT29QUCBVUIBZ81ZGHM7C9","A2LMQ4497NMK3S","3S829FDFT2NBOHQMM1CIOU0HZYXDXL","","null","<img src=""img/land6.png"" style=""width:200px;border:14px solid red;"">","null","","","","","","","",""
"","image-keyboard-response","292","147524","0.0-435.0","31T4R4OBOT29QUCBVUIBZ81ZGHM7C9","A2LMQ4497NMK3S","3S829FDFT2NBOHQMM1CIOU0HZYXDXL","","161.29999995231628","img/land6.png","76","162.29999995231628","3","0","false","1","0.8,0.2,0.2,0.2,0.8,0.2,0.2,0.2,0.8","",""
"","html-keyboard-response","293","147826","0.0-436.0","31T4R4OBOT29QUCBVUIBZ81ZGHM7C9","A2LMQ4497NMK3S","3S829FDFT2NBOHQMM1CIOU0HZYXDXL","","null","<img src=""img/land6.png"" style=""width:200px;border:14px solid red;"">","null","","","","","","","",""
"","image-keyboard-response","294","148309","0.0-438.0","31T4R4OBOT29QUCBVUIBZ81ZGHM7C9","A2LMQ4497NMK3S","3S829FDFT2NBOHQMM1CIOU0HZYXDXL","","481","img/land3.png","76","482","3","0","false","2","0.8,0.2,0.2,0.2,0.8,0.2,0.2,0.2,0.8","",""
"","html-keyboard-response","295","148610","0.0-439.0","31T4R4OBOT29QUCBVUIBZ81ZGHM7C9","A2LMQ4497NMK3S","3S829FDFT2NBOHQMM1CIOU0HZYXDXL","","null","<img src=""img/land3.png"" style=""width:200px;border:14px solid red;"">","null","","","","","","","",""
"","image-keyboard-response","296","148732","0.0-441.0","31T4R4OBOT29QUCBVUIBZ81ZGHM7C9","A2LMQ4497NMK3S","3S829FDFT2NBOHQMM1CIOU0HZYXDXL","","121.09999996423721","img/land3.png","75","122.19999998807907","2","1","false","2","0.8,0.2,0.2,0.2,0.8,0.2,0.2,0.2,0.8","",""
"","html-keyboard-response","297","149035","0.0-442.0","31T4R4OBOT29QUCBVUIBZ81ZGHM7C9","A2LMQ4497NMK3S","3S829FDFT2NBOHQMM1CIOU0HZYXDXL","","null","<img src=""img/land3.png"" style=""width:200px; border:14px solid green;"">","null","","","","","","","",""
"","image-keyboard-response","298","149124","0.0-444.0","31T4R4OBOT29QUCBVUIBZ81ZGHM7C9","A2LMQ4497NMK3S","3S829FDFT2NBOHQMM1CIOU0HZYXDXL","","87.80000001192093","img/land6.png","75","88.90000003576279","2","0","false","1","0.8,0.2,0.2,0.2,0.8,0.2,0.2,0.2,0.8","",""
"","html-keyboard-response","299","149426","0.0-445.0","31T4R4OBOT29QUCBVUIBZ81ZGHM7C9","A2LMQ4497NMK3S","3S829FDFT2NBOHQMM1CIOU0HZYXDXL","","null","<img src=""img/land6.png"" style=""width:200px;border:14px solid red;"">","null","","","","","","","",""
"","image-keyboard-response","300","149724","0.0-447.0","31T4R4OBOT29QUCBVUIBZ81ZGHM7C9","A2LMQ4497NMK3S","3S829FDFT2NBOHQMM1CIOU0HZYXDXL","","296.9000000357628","img/land6.png","76","297.80000001192093","3","0","false","1","0.8,0.2,0.2,0.2,0.8,0.2,0.2,0.2,0.8","",""
"","html-keyboard-response","301","150027","0.0-448.0","31T4R4OBOT29QUCBVUIBZ81ZGHM7C9","A2LMQ4497NMK3S","3S829FDFT2NBOHQMM1CIOU0HZYXDXL","","null","<img src=""img/land6.png"" style=""width:200px;border:14px solid red;"">","null","","","","","","","",""
"","image-keyboard-response","302","150068","0.0-450.0","31T4R4OBOT29QUCBVUIBZ81ZGHM7C9","A2LMQ4497NMK3S","3S829FDFT2NBOHQMM1CIOU0HZYXDXL","","40.59999996423721","img/land6.png","75","41.59999996423721","2","0","false","1","0.8,0.2,0.2,0.2,0.8,0.2,0.2,0.2,0.8","",""
"","html-keyboard-response","303","150371","0.0-451.0","31T4R4OBOT29QUCBVUIBZ81ZGHM7C9","A2LMQ4497NMK3S","3S829FDFT2NBOHQMM1CIOU0HZYXDXL","","null","<img src=""img/land6.png"" style=""width:200px;border:14px solid red;"">","null","","","","","","","",""
"","image-keyboard-response","304","150468","0.0-453.0","31T4R4OBOT29QUCBVUIBZ81ZGHM7C9","A2LMQ4497NMK3S","3S829FDFT2NBOHQMM1CIOU0HZYXDXL","","96.40000003576279","img/land4.png","75","97.40000003576279","2","0","false","3","0.8,0.2,0.2,0.2,0.8,0.2,0.2,0.2,0.8","",""
"","html-keyboard-response","305","150771","0.0-454.0","31T4R4OBOT29QUCBVUIBZ81ZGHM7C9","A2LMQ4497NMK3S","3S829FDFT2NBOHQMM1CIOU0HZYXDXL","","null","<img src=""img/land4.png"" style=""width:200px;border:14px solid red;"">","null","","","","","","","",""
"","image-keyboard-response","306","151196","0.0-456.0","31T4R4OBOT29QUCBVUIBZ81ZGHM7C9","A2LMQ4497NMK3S","3S829FDFT2NBOHQMM1CIOU0HZYXDXL","","423.89999997615814","img/land6.png","76","424.69999998807907","3","0","false","1","0.8,0.2,0.2,0.2,0.8,0.2,0.2,0.2,0.8","",""
"","html-keyboard-response","307","151498","0.0-457.0","31T4R4OBOT29QUCBVUIBZ81ZGHM7C9","A2LMQ4497NMK3S","3S829FDFT2NBOHQMM1CIOU0HZYXDXL","","null","<img src=""img/land6.png"" style=""width:200px;border:14px solid red;"">","null","","","","","","","",""
"","image-keyboard-response","308","151837","0.0-459.0","31T4R4OBOT29QUCBVUIBZ81ZGHM7C9","A2LMQ4497NMK3S","3S829FDFT2NBOHQMM1CIOU0HZYXDXL","","337.60000002384186","img/land6.png","76","338.5","3","0","false","1","0.8,0.2,0.2,0.2,0.8,0.2,0.2,0.2,0.8","",""
"","html-keyboard-response","309","152139","0.0-460.0","31T4R4OBOT29QUCBVUIBZ81ZGHM7C9","A2LMQ4497NMK3S","3S829FDFT2NBOHQMM1CIOU0HZYXDXL","","null","<img src=""img/land6.png"" style=""width:200px;border:14px solid red;"">","null","","","","","","","",""
"","image-keyboard-response","310","152164","0.0-462.0","31T4R4OBOT29QUCBVUIBZ81ZGHM7C9","A2LMQ4497NMK3S","3S829FDFT2NBOHQMM1CIOU0HZYXDXL","","24.399999976158142","img/land4.png","74","25.299999952316284","1","0","false","3","0.8,0.2,0.2,0.2,0.8,0.2,0.2,0.2,0.8","",""
"","html-keyboard-response","311","152467","0.0-463.0","31T4R4OBOT29QUCBVUIBZ81ZGHM7C9","A2LMQ4497NMK3S","3S829FDFT2NBOHQMM1CIOU0HZYXDXL","","null","<img src=""img/land4.png"" style=""width:200px;border:14px solid red;"">","null","","","","","","","",""
"","image-keyboard-response","312","152748","0.0-465.0","31T4R4OBOT29QUCBVUIBZ81ZGHM7C9","A2LMQ4497NMK3S","3S829FDFT2NBOHQMM1CIOU0HZYXDXL","","279.80000001192093","img/land3.png","75","281","2","1","false","2","0.8,0.2,0.2,0.2,0.8,0.2,0.2,0.2,0.8","",""
"","html-keyboard-response","313","153051","0.0-466.0","31T4R4OBOT29QUCBVUIBZ81ZGHM7C9","A2LMQ4497NMK3S","3S829FDFT2NBOHQMM1CIOU0HZYXDXL","","null","<img src=""img/land3.png"" style=""width:200px; border:14px solid green;"">","null","","","","","","","",""
"","image-keyboard-response","314","153356","0.0-468.0","31T4R4OBOT29QUCBVUIBZ81ZGHM7C9","A2LMQ4497NMK3S","3S829FDFT2NBOHQMM1CIOU0HZYXDXL","","304.10000002384186","img/land4.png","75","305","2","0","false","3","0.8,0.2,0.2,0.2,0.8,0.2,0.2,0.2,0.8","",""
"","html-keyboard-response","315","153672","0.0-469.0","31T4R4OBOT29QUCBVUIBZ81ZGHM7C9","A2LMQ4497NMK3S","3S829FDFT2NBOHQMM1CIOU0HZYXDXL","","null","<img src=""img/land4.png"" style=""width:200px;border:14px solid red;"">","null","","","","","","","",""
"","image-keyboard-response","316","153884","0.0-471.0","31T4R4OBOT29QUCBVUIBZ81ZGHM7C9","A2LMQ4497NMK3S","3S829FDFT2NBOHQMM1CIOU0HZYXDXL","","211.5","img/land4.png","76","212.4000000357628","3","0","false","3","0.8,0.2,0.2,0.2,0.8,0.2,0.2,0.2,0.8","",""
"","html-keyboard-response","317","154187","0.0-472.0","31T4R4OBOT29QUCBVUIBZ81ZGHM7C9","A2LMQ4497NMK3S","3S829FDFT2NBOHQMM1CIOU0HZYXDXL","","null","<img src=""img/land4.png"" style=""width:200px;border:14px solid red;"">","null","","","","","","","",""
"","image-keyboard-response","318","154396","0.0-474.0","31T4R4OBOT29QUCBVUIBZ81ZGHM7C9","A2LMQ4497NMK3S","3S829FDFT2NBOHQMM1CIOU0HZYXDXL","","208.39999997615814","img/land6.png","76","209.39999997615814","3","0","false","1","0.8,0.2,0.2,0.2,0.8,0.2,0.2,0.2,0.8","",""
"","html-keyboard-response","319","154698","0.0-475.0","31T4R4OBOT29QUCBVUIBZ81ZGHM7C9","A2LMQ4497NMK3S","3S829FDFT2NBOHQMM1CIOU0HZYXDXL","","null","<img src=""img/land6.png"" style=""width:200px;border:14px solid red;"">","null","","","","","","","",""
"","image-keyboard-response","320","155133","0.0-477.0","31T4R4OBOT29QUCBVUIBZ81ZGHM7C9","A2LMQ4497NMK3S","3S829FDFT2NBOHQMM1CIOU0HZYXDXL","","433.0999999642372","img/land6.png","75","434.0999999642372","2","1","false","1","0.8,0.2,0.2,0.2,0.8,0.2,0.2,0.2,0.8","",""
"","html-keyboard-response","321","155446","0.0-478.0","31T4R4OBOT29QUCBVUIBZ81ZGHM7C9","A2LMQ4497NMK3S","3S829FDFT2NBOHQMM1CIOU0HZYXDXL","","null","<img src=""img/land6.png"" style=""width:200px; border:14px solid green;"">","null","","","","","","","",""
"","image-keyboard-response","322","155588","0.0-480.0","31T4R4OBOT29QUCBVUIBZ81ZGHM7C9","A2LMQ4497NMK3S","3S829FDFT2NBOHQMM1CIOU0HZYXDXL","","140.60000002384186","img/land3.png","75","141.70000004768372","2","0","false","2","0.8,0.2,0.2,0.2,0.8,0.2,0.2,0.2,0.8","",""
"","html-keyboard-response","323","155891","0.0-481.0","31T4R4OBOT29QUCBVUIBZ81ZGHM7C9","A2LMQ4497NMK3S","3S829FDFT2NBOHQMM1CIOU0HZYXDXL","","null","<img src=""img/land3.png"" style=""width:200px;border:14px solid red;"">","null","","","","","","","",""
"","image-keyboard-response","324","156268","0.0-483.0","31T4R4OBOT29QUCBVUIBZ81ZGHM7C9","A2LMQ4497NMK3S","3S829FDFT2NBOHQMM1CIOU0HZYXDXL","","376.39999997615814","img/land4.png","76","377.39999997615814","3","1","false","3","0.8,0.2,0.2,0.2,0.8,0.2,0.2,0.2,0.8","",""
"","html-keyboard-response","325","156570","0.0-484.0","31T4R4OBOT29QUCBVUIBZ81ZGHM7C9","A2LMQ4497NMK3S","3S829FDFT2NBOHQMM1CIOU0HZYXDXL","","null","<img src=""img/land4.png"" style=""width:200px; border:14px solid green;"">","null","","","","","","","",""
"","image-keyboard-response","326","156629","0.0-486.0","31T4R4OBOT29QUCBVUIBZ81ZGHM7C9","A2LMQ4497NMK3S","3S829FDFT2NBOHQMM1CIOU0HZYXDXL","","57.19999998807907","img/land6.png","75","58.19999998807907","2","0","false","1","0.8,0.2,0.2,0.2,0.8,0.2,0.2,0.2,0.8","",""
"","html-keyboard-response","327","156931","0.0-487.0","31T4R4OBOT29QUCBVUIBZ81ZGHM7C9","A2LMQ4497NMK3S","3S829FDFT2NBOHQMM1CIOU0HZYXDXL","","null","<img src=""img/land6.png"" style=""width:200px;border:14px solid red;"">","null","","","","","","","",""
"","image-keyboard-response","328","157300","0.0-489.0","31T4R4OBOT29QUCBVUIBZ81ZGHM7C9","A2LMQ4497NMK3S","3S829FDFT2NBOHQMM1CIOU0HZYXDXL","","368.10000002384186","img/land3.png","76","369.10000002384186","3","0","false","2","0.8,0.2,0.2,0.2,0.8,0.2,0.2,0.2,0.8","",""
"","html-keyboard-response","329","157602","0.0-490.0","31T4R4OBOT29QUCBVUIBZ81ZGHM7C9","A2LMQ4497NMK3S","3S829FDFT2NBOHQMM1CIOU0HZYXDXL","","null","<img src=""img/land3.png"" style=""width:200px;border:14px solid red;"">","null","","","","","","","",""
"","image-keyboard-response","330","157804","0.0-492.0","31T4R4OBOT29QUCBVUIBZ81ZGHM7C9","A2LMQ4497NMK3S","3S829FDFT2NBOHQMM1CIOU0HZYXDXL","","201.19999998807907","img/land4.png","75","202.0999999642372","2","0","false","3","0.8,0.2,0.2,0.2,0.8,0.2,0.2,0.2,0.8","",""
"","html-keyboard-response","331","158107","0.0-493.0","31T4R4OBOT29QUCBVUIBZ81ZGHM7C9","A2LMQ4497NMK3S","3S829FDFT2NBOHQMM1CIOU0HZYXDXL","","null","<img src=""img/land4.png"" style=""width:200px;border:14px solid red;"">","null","","","","","","","",""
"","image-keyboard-response","332","158461","0.0-495.0","31T4R4OBOT29QUCBVUIBZ81ZGHM7C9","A2LMQ4497NMK3S","3S829FDFT2NBOHQMM1CIOU0HZYXDXL","","352.80000001192093","img/land6.png","75","353.80000001192093","2","0","false","1","0.8,0.2,0.2,0.2,0.8,0.2,0.2,0.2,0.8","",""
"","html-keyboard-response","333","158763","0.0-496.0","31T4R4OBOT29QUCBVUIBZ81ZGHM7C9","A2LMQ4497NMK3S","3S829FDFT2NBOHQMM1CIOU0HZYXDXL","","null","<img src=""img/land6.png"" style=""width:200px;border:14px solid red;"">","null","","","","","","","",""
"","image-keyboard-response","334","159012","0.0-498.0","31T4R4OBOT29QUCBVUIBZ81ZGHM7C9","A2LMQ4497NMK3S","3S829FDFT2NBOHQMM1CIOU0HZYXDXL","","247.89999997615814","img/land3.png","75","248.9000000357628","2","1","false","2","0.8,0.2,0.2,0.2,0.8,0.2,0.2,0.2,0.8","",""
"","html-keyboard-response","335","159315","0.0-499.0","31T4R4OBOT29QUCBVUIBZ81ZGHM7C9","A2LMQ4497NMK3S","3S829FDFT2NBOHQMM1CIOU0HZYXDXL","","null","<img src=""img/land3.png"" style=""width:200px; border:14px solid green;"">","null","","","","","","","",""
"","image-keyboard-response","336","159429","0.0-501.0","31T4R4OBOT29QUCBVUIBZ81ZGHM7C9","A2LMQ4497NMK3S","3S829FDFT2NBOHQMM1CIOU0HZYXDXL","","112.59999996423721","img/land6.png","75","113.59999996423721","2","0","false","1","0.8,0.2,0.2,0.2,0.8,0.2,0.2,0.2,0.8","",""
"","html-keyboard-response","337","159731","0.0-502.0","31T4R4OBOT29QUCBVUIBZ81ZGHM7C9","A2LMQ4497NMK3S","3S829FDFT2NBOHQMM1CIOU0HZYXDXL","","null","<img src=""img/land6.png"" style=""width:200px;border:14px solid red;"">","null","","","","","","","",""
"","image-keyboard-response","338","159860","0.0-504.0","31T4R4OBOT29QUCBVUIBZ81ZGHM7C9","A2LMQ4497NMK3S","3S829FDFT2NBOHQMM1CIOU0HZYXDXL","","128.39999997615814","img/land3.png","75","129.5999999642372","2","1","false","2","0.8,0.2,0.2,0.2,0.8,0.2,0.2,0.2,0.8","",""
"","html-keyboard-response","339","160162","0.0-505.0","31T4R4OBOT29QUCBVUIBZ81ZGHM7C9","A2LMQ4497NMK3S","3S829FDFT2NBOHQMM1CIOU0HZYXDXL","","null","<img src=""img/land3.png"" style=""width:200px; border:14px solid green;"">","null","","","","","","","",""
"","image-keyboard-response","340","160205","0.0-507.0","31T4R4OBOT29QUCBVUIBZ81ZGHM7C9","A2LMQ4497NMK3S","3S829FDFT2NBOHQMM1CIOU0HZYXDXL","","40.80000001192093","img/land6.png","76","41.80000001192093","3","0","false","1","0.8,0.2,0.2,0.2,0.8,0.2,0.2,0.2,0.8","",""
"","html-keyboard-response","341","160507","0.0-508.0","31T4R4OBOT29QUCBVUIBZ81ZGHM7C9","A2LMQ4497NMK3S","3S829FDFT2NBOHQMM1CIOU0HZYXDXL","","null","<img src=""img/land6.png"" style=""width:200px;border:14px solid red;"">","null","","","","","","","",""
"","image-keyboard-response","342","160996","0.0-510.0","31T4R4OBOT29QUCBVUIBZ81ZGHM7C9","A2LMQ4497NMK3S","3S829FDFT2NBOHQMM1CIOU0HZYXDXL","","487.5","img/land6.png","75","488.69999998807907","2","0","false","1","0.8,0.2,0.2,0.2,0.8,0.2,0.2,0.2,0.8","",""
"","html-keyboard-response","343","161299","0.0-511.0","31T4R4OBOT29QUCBVUIBZ81ZGHM7C9","A2LMQ4497NMK3S","3S829FDFT2NBOHQMM1CIOU0HZYXDXL","","null","<img src=""img/land6.png"" style=""width:200px;border:14px solid red;"">","null","","","","","","","",""
"","image-keyboard-response","344","161412","0.0-513.0","31T4R4OBOT29QUCBVUIBZ81ZGHM7C9","A2LMQ4497NMK3S","3S829FDFT2NBOHQMM1CIOU0HZYXDXL","","111.89999997615814","img/land3.png","75","112.89999997615814","2","1","false","2","0.8,0.2,0.2,0.2,0.8,0.2,0.2,0.2,0.8","",""
"","html-keyboard-response","345","161714","0.0-514.0","31T4R4OBOT29QUCBVUIBZ81ZGHM7C9","A2LMQ4497NMK3S","3S829FDFT2NBOHQMM1CIOU0HZYXDXL","","null","<img src=""img/land3.png"" style=""width:200px; border:14px solid green;"">","null","","","","","","","",""
"","image-keyboard-response","346","161829","0.0-516.0","31T4R4OBOT29QUCBVUIBZ81ZGHM7C9","A2LMQ4497NMK3S","3S829FDFT2NBOHQMM1CIOU0HZYXDXL","","113.39999997615814","img/land3.png","75","114.5","2","1","false","2","0.8,0.2,0.2,0.2,0.8,0.2,0.2,0.2,0.8","",""
"","html-keyboard-response","347","162132","0.0-517.0","31T4R4OBOT29QUCBVUIBZ81ZGHM7C9","A2LMQ4497NMK3S","3S829FDFT2NBOHQMM1CIOU0HZYXDXL","","null","<img src=""img/land3.png"" style=""width:200px; border:14px solid green;"">","null","","","","","","","",""
"","image-keyboard-response","348","162172","0.0-519.0","31T4R4OBOT29QUCBVUIBZ81ZGHM7C9","A2LMQ4497NMK3S","3S829FDFT2NBOHQMM1CIOU0HZYXDXL","","39.5","img/land6.png","75","40.5","2","0","false","1","0.8,0.2,0.2,0.2,0.8,0.2,0.2,0.2,0.8","",""
"","html-keyboard-response","349","162475","0.0-520.0","31T4R4OBOT29QUCBVUIBZ81ZGHM7C9","A2LMQ4497NMK3S","3S829FDFT2NBOHQMM1CIOU0HZYXDXL","","null","<img src=""img/land6.png"" style=""width:200px;border:14px solid red;"">","null","","","","","","","",""
"","image-keyboard-response","350","162653","0.0-522.0","31T4R4OBOT29QUCBVUIBZ81ZGHM7C9","A2LMQ4497NMK3S","3S829FDFT2NBOHQMM1CIOU0HZYXDXL","","176.5","img/land3.png","76","177.5","3","1","false","2","0.8,0.2,0.2,0.2,0.8,0.2,0.2,0.2,0.8","",""
"","html-keyboard-response","351","162954","0.0-523.0","31T4R4OBOT29QUCBVUIBZ81ZGHM7C9","A2LMQ4497NMK3S","3S829FDFT2NBOHQMM1CIOU0HZYXDXL","","null","<img src=""img/land3.png"" style=""width:200px; border:14px solid green;"">","null","","","","","","","",""
"","image-keyboard-response","352","163220","0.0-525.0","31T4R4OBOT29QUCBVUIBZ81ZGHM7C9","A2LMQ4497NMK3S","3S829FDFT2NBOHQMM1CIOU0HZYXDXL","","265","img/land6.png","75","266","2","0","false","1","0.8,0.2,0.2,0.2,0.8,0.2,0.2,0.2,0.8","",""
"","html-keyboard-response","353","163522","0.0-526.0","31T4R4OBOT29QUCBVUIBZ81ZGHM7C9","A2LMQ4497NMK3S","3S829FDFT2NBOHQMM1CIOU0HZYXDXL","","null","<img src=""img/land6.png"" style=""width:200px;border:14px solid red;"">","null","","","","","","","",""
"","image-keyboard-response","354","163804","0.0-528.0","31T4R4OBOT29QUCBVUIBZ81ZGHM7C9","A2LMQ4497NMK3S","3S829FDFT2NBOHQMM1CIOU0HZYXDXL","","281.4000000357628","img/land4.png","75","282.4000000357628","2","0","false","3","0.8,0.2,0.2,0.2,0.8,0.2,0.2,0.2,0.8","",""
"","html-keyboard-response","355","164107","0.0-529.0","31T4R4OBOT29QUCBVUIBZ81ZGHM7C9","A2LMQ4497NMK3S","3S829FDFT2NBOHQMM1CIOU0HZYXDXL","","null","<img src=""img/land4.png"" style=""width:200px;border:14px solid red;"">","null","","","","","","","",""
"","image-keyboard-response","356","164293","0.0-531.0","31T4R4OBOT29QUCBVUIBZ81ZGHM7C9","A2LMQ4497NMK3S","3S829FDFT2NBOHQMM1CIOU0HZYXDXL","","184.5","img/land3.png","76","185.69999998807907","3","0","false","2","0.8,0.2,0.2,0.2,0.8,0.2,0.2,0.2,0.8","",""
"","html-keyboard-response","357","164597","0.0-532.0","31T4R4OBOT29QUCBVUIBZ81ZGHM7C9","A2LMQ4497NMK3S","3S829FDFT2NBOHQMM1CIOU0HZYXDXL","","null","<img src=""img/land3.png"" style=""width:200px;border:14px solid red;"">","null","","","","","","","",""
"","image-keyboard-response","358","164900","0.0-534.0","31T4R4OBOT29QUCBVUIBZ81ZGHM7C9","A2LMQ4497NMK3S","3S829FDFT2NBOHQMM1CIOU0HZYXDXL","","301.89999997615814","img/land4.png","75","302.89999997615814","2","0","false","3","0.8,0.2,0.2,0.2,0.8,0.2,0.2,0.2,0.8","",""
"","html-keyboard-response","359","165202","0.0-535.0","31T4R4OBOT29QUCBVUIBZ81ZGHM7C9","A2LMQ4497NMK3S","3S829FDFT2NBOHQMM1CIOU0HZYXDXL","","null","<img src=""img/land4.png"" style=""width:200px;border:14px solid red;"">","null","","","","","","","",""
"","image-keyboard-response","360","165228","0.0-537.0","31T4R4OBOT29QUCBVUIBZ81ZGHM7C9","A2LMQ4497NMK3S","3S829FDFT2NBOHQMM1CIOU0HZYXDXL","","25.100000023841858","img/land6.png","76","26.200000047683716","3","0","false","1","0.8,0.2,0.2,0.2,0.8,0.2,0.2,0.2,0.8","",""
"","html-keyboard-response","361","165530","0.0-538.0","31T4R4OBOT29QUCBVUIBZ81ZGHM7C9","A2LMQ4497NMK3S","3S829FDFT2NBOHQMM1CIOU0HZYXDXL","","null","<img src=""img/land6.png"" style=""width:200px;border:14px solid red;"">","null","","","","","","","",""
"","image-keyboard-response","362","166004","0.0-540.0","31T4R4OBOT29QUCBVUIBZ81ZGHM7C9","A2LMQ4497NMK3S","3S829FDFT2NBOHQMM1CIOU0HZYXDXL","","473.39999997615814","img/land3.png","76","474.5","3","0","false","2","0.8,0.2,0.2,0.2,0.8,0.2,0.2,0.2,0.8","",""
"","html-keyboard-response","363","166306","0.0-541.0","31T4R4OBOT29QUCBVUIBZ81ZGHM7C9","A2LMQ4497NMK3S","3S829FDFT2NBOHQMM1CIOU0HZYXDXL","","null","<img src=""img/land3.png"" style=""width:200px;border:14px solid red;"">","null","","","","","","","",""
"","html-keyboard-response","364","168306","0.0-543.0","31T4R4OBOT29QUCBVUIBZ81ZGHM7C9","A2LMQ4497NMK3S","3S829FDFT2NBOHQMM1CIOU0HZYXDXL","","","","","","","","","","","",""
"","image-keyboard-response","365","168836","0.0-544.0","31T4R4OBOT29QUCBVUIBZ81ZGHM7C9","A2LMQ4497NMK3S","3S829FDFT2NBOHQMM1CIOU0HZYXDXL","","528.5","img/land1.png","75","529.6000000238419","2","1","false","2","0.8,0.8,0.2,0.2,0.8,0.8,0.8,0.2,0.8","",""
"","html-keyboard-response","366","169138","0.0-545.0","31T4R4OBOT29QUCBVUIBZ81ZGHM7C9","A2LMQ4497NMK3S","3S829FDFT2NBOHQMM1CIOU0HZYXDXL","","null","<img src=""img/land1.png"" style=""width:200px; border:14px solid green;"">","null","","","","","","","",""
"","image-keyboard-response","367","169325","0.0-547.0","31T4R4OBOT29QUCBVUIBZ81ZGHM7C9","A2LMQ4497NMK3S","3S829FDFT2NBOHQMM1CIOU0HZYXDXL","","186.30000001192093","img/land1.png","75","187.0999999642372","2","1","false","2","0.8,0.8,0.2,0.2,0.8,0.8,0.8,0.2,0.8","",""
"","html-keyboard-response","368","169628","0.0-548.0","31T4R4OBOT29QUCBVUIBZ81ZGHM7C9","A2LMQ4497NMK3S","3S829FDFT2NBOHQMM1CIOU0HZYXDXL","","null","<img src=""img/land1.png"" style=""width:200px; border:14px solid green;"">","null","","","","","","","",""
"","image-keyboard-response","369","169764","0.0-550.0","31T4R4OBOT29QUCBVUIBZ81ZGHM7C9","A2LMQ4497NMK3S","3S829FDFT2NBOHQMM1CIOU0HZYXDXL","","135.30000001192093","img/land8.png","75","136.19999998807907","2","1","false","3","0.8,0.8,0.2,0.2,0.8,0.8,0.8,0.2,0.8","",""
"","html-keyboard-response","370","170067","0.0-551.0","31T4R4OBOT29QUCBVUIBZ81ZGHM7C9","A2LMQ4497NMK3S","3S829FDFT2NBOHQMM1CIOU0HZYXDXL","","null","<img src=""img/land8.png"" style=""width:200px; border:14px solid green;"">","null","","","","","","","",""
"","image-keyboard-response","371","170444","0.0-553.0","31T4R4OBOT29QUCBVUIBZ81ZGHM7C9","A2LMQ4497NMK3S","3S829FDFT2NBOHQMM1CIOU0HZYXDXL","","376.39999997615814","img/land2.png","75","377.39999997615814","2","1","false","1","0.8,0.8,0.2,0.2,0.8,0.8,0.8,0.2,0.8","",""
"","html-keyboard-response","372","170746","0.0-554.0","31T4R4OBOT29QUCBVUIBZ81ZGHM7C9","A2LMQ4497NMK3S","3S829FDFT2NBOHQMM1CIOU0HZYXDXL","","null","<img src=""img/land2.png"" style=""width:200px; border:14px solid green;"">","null","","","","","","","",""
"","image-keyboard-response","373","170988","0.0-556.0","31T4R4OBOT29QUCBVUIBZ81ZGHM7C9","A2LMQ4497NMK3S","3S829FDFT2NBOHQMM1CIOU0HZYXDXL","","240.89999997615814","img/land2.png","75","241.89999997615814","2","1","false","1","0.8,0.8,0.2,0.2,0.8,0.8,0.8,0.2,0.8","",""
"","html-keyboard-response","374","171290","0.0-557.0","31T4R4OBOT29QUCBVUIBZ81ZGHM7C9","A2LMQ4497NMK3S","3S829FDFT2NBOHQMM1CIOU0HZYXDXL","","null","<img src=""img/land2.png"" style=""width:200px; border:14px solid green;"">","null","","","","","","","",""
"","image-keyboard-response","375","171332","0.0-559.0","31T4R4OBOT29QUCBVUIBZ81ZGHM7C9","A2LMQ4497NMK3S","3S829FDFT2NBOHQMM1CIOU0HZYXDXL","","41.200000047683716","img/land2.png","75","42.10000002384186","2","1","false","1","0.8,0.8,0.2,0.2,0.8,0.8,0.8,0.2,0.8","",""
"","html-keyboard-response","376","171634","0.0-560.0","31T4R4OBOT29QUCBVUIBZ81ZGHM7C9","A2LMQ4497NMK3S","3S829FDFT2NBOHQMM1CIOU0HZYXDXL","","null","<img src=""img/land2.png"" style=""width:200px; border:14px solid green;"">","null","","","","","","","",""
"","image-keyboard-response","377","171901","0.0-562.0","31T4R4OBOT29QUCBVUIBZ81ZGHM7C9","A2LMQ4497NMK3S","3S829FDFT2NBOHQMM1CIOU0HZYXDXL","","265.19999998807907","img/land8.png","75","266.19999998807907","2","0","false","3","0.8,0.8,0.2,0.2,0.8,0.8,0.8,0.2,0.8","",""
"","html-keyboard-response","378","172203","0.0-563.0","31T4R4OBOT29QUCBVUIBZ81ZGHM7C9","A2LMQ4497NMK3S","3S829FDFT2NBOHQMM1CIOU0HZYXDXL","","null","<img src=""img/land8.png"" style=""width:200px;border:14px solid red;"">","null","","","","","","","",""
"","image-keyboard-response","379","172436","0.0-565.0","31T4R4OBOT29QUCBVUIBZ81ZGHM7C9","A2LMQ4497NMK3S","3S829FDFT2NBOHQMM1CIOU0HZYXDXL","","232.30000001192093","img/land1.png","74","233.39999997615814","1","0","false","2","0.8,0.8,0.2,0.2,0.8,0.8,0.8,0.2,0.8","",""
"","html-keyboard-response","380","172739","0.0-566.0","31T4R4OBOT29QUCBVUIBZ81ZGHM7C9","A2LMQ4497NMK3S","3S829FDFT2NBOHQMM1CIOU0HZYXDXL","","null","<img src=""img/land1.png"" style=""width:200px;border:14px solid red;"">","null","","","","","","","",""
"","image-keyboard-response","381","173060","0.0-568.0","31T4R4OBOT29QUCBVUIBZ81ZGHM7C9","A2LMQ4497NMK3S","3S829FDFT2NBOHQMM1CIOU0HZYXDXL","","320.39999997615814","img/land8.png","75","321.39999997615814","2","0","false","3","0.8,0.8,0.2,0.2,0.8,0.8,0.8,0.2,0.8","",""
"","html-keyboard-response","382","173363","0.0-569.0","31T4R4OBOT29QUCBVUIBZ81ZGHM7C9","A2LMQ4497NMK3S","3S829FDFT2NBOHQMM1CIOU0HZYXDXL","","null","<img src=""img/land8.png"" style=""width:200px;border:14px solid red;"">","null","","","","","","","",""
"","image-keyboard-response","383","173572","0.0-571.0","31T4R4OBOT29QUCBVUIBZ81ZGHM7C9","A2LMQ4497NMK3S","3S829FDFT2NBOHQMM1CIOU0HZYXDXL","","208.39999997615814","img/land2.png","75","209.30000001192093","2","1","false","1","0.8,0.8,0.2,0.2,0.8,0.8,0.8,0.2,0.8","",""
"","html-keyboard-response","384","173874","0.0-572.0","31T4R4OBOT29QUCBVUIBZ81ZGHM7C9","A2LMQ4497NMK3S","3S829FDFT2NBOHQMM1CIOU0HZYXDXL","","null","<img src=""img/land2.png"" style=""width:200px; border:14px solid green;"">","null","","","","","","","",""
"","image-keyboard-response","385","174188","0.0-574.0","31T4R4OBOT29QUCBVUIBZ81ZGHM7C9","A2LMQ4497NMK3S","3S829FDFT2NBOHQMM1CIOU0HZYXDXL","","313.5","img/land8.png","75","314.5","2","1","false","3","0.8,0.8,0.2,0.2,0.8,0.8,0.8,0.2,0.8","",""
"","html-keyboard-response","386","174490","0.0-575.0","31T4R4OBOT29QUCBVUIBZ81ZGHM7C9","A2LMQ4497NMK3S","3S829FDFT2NBOHQMM1CIOU0HZYXDXL","","null","<img src=""img/land8.png"" style=""width:200px; border:14px solid green;"">","null","","","","","","","",""
"","image-keyboard-response","387","174733","0.0-577.0","31T4R4OBOT29QUCBVUIBZ81ZGHM7C9","A2LMQ4497NMK3S","3S829FDFT2NBOHQMM1CIOU0HZYXDXL","","241.60000002384186","img/land8.png","75","242.69999998807907","2","0","false","3","0.8,0.8,0.2,0.2,0.8,0.8,0.8,0.2,0.8","",""
