"success","trial_type","trial_index","time_elapsed","internal_node_id","assignmentID","mturkID","hitID","view_history","rt","stimulus","key_press","reactionTime","a","r","s","cond","reward_cond","reward_cond_actual","reward_matrix_idx","responses","question_order"
"true","fullscreen","0","3172","0.0-0.0","3AZHRG4CU567VJG8H2M1RQNI67R03U","A2MJ0X6M3VSFVN","3WRBLBQ2GRU63BU2LFOJL1G32T90GO","","","","","","","","","","","","","",""
"","instructions","1","33530","0.0-1.0","3AZHRG4CU567VJG8H2M1RQNI67R03U","A2MJ0X6M3VSFVN","3WRBLBQ2GRU63BU2LFOJL1G32T90GO","[{""page_index"":0,""viewing_time"":2896.199999988079},{""page_index"":1,""viewing_time"":1612.800000011921},{""page_index"":2,""viewing_time"":3564.300000011921},{""page_index"":3,""viewing_time"":2619.699999988079},{""page_index"":4,""viewing_time"":5203.4000000059605},{""page_index"":5,""viewing_time"":10732.299999982119},{""page_index"":6,""viewing_time"":3713.9000000059605}]","30350","","","","","","","","","","","",""
"","image-keyboard-response","2","34799","0.0-2.0","3AZHRG4CU567VJG8H2M1RQNI67R03U","A2MJ0X6M3VSFVN","3WRBLBQ2GRU63BU2LFOJL1G32T90GO","","1261","img/land1.png","75","1267.300000011921","2","0","1","1","0.8,0.2,0.2,0.2,0.8,0.2,0.2,0.2,0.8","0.8,0.2,0.2,0.2,0.8,0.2,0.2,0.2,0.8","1","",""
"","html-keyboard-response","3","35114","0.0-3.0","3AZHRG4CU567VJG8H2M1RQNI67R03U","A2MJ0X6M3VSFVN","3WRBLBQ2GRU63BU2LFOJL1G32T90GO","","null","<img src=""img/land1.png"" style=""width:200px;border:14px solid red;"">","null","","","","","","","","","",""
"","image-keyboard-response","4","35874","0.0-4.0","3AZHRG4CU567VJG8H2M1RQNI67R03U","A2MJ0X6M3VSFVN","3WRBLBQ2GRU63BU2LFOJL1G32T90GO","","749.5999999940395","img/land1.png","75","756.8000000119209","2","0","1","1","0.8,0.2,0.2,0.2,0.8,0.2,0.2,0.2,0.8","0.8,0.2,0.2,0.2,0.8,0.2,0.2,0.2,0.8","1","",""
"","html-keyboard-response","5","36182","0.0-5.0","3AZHRG4CU567VJG8H2M1RQNI67R03U","A2MJ0X6M3VSFVN","3WRBLBQ2GRU63BU2LFOJL1G32T90GO","","null","<img src=""img/land1.png"" style=""width:200px;border:14px solid red;"">","null","","","","","","","","","",""
"","image-keyboard-response","6","37926","0.0-6.0","3AZHRG4CU567VJG8H2M1RQNI67R03U","A2MJ0X6M3VSFVN","3WRBLBQ2GRU63BU2LFOJL1G32T90GO","","1736.5999999940395","img/land5.png","74","1742.7999999821186","1","0","3","1","0.8,0.2,0.2,0.2,0.8,0.2,0.2,0.2,0.8","0.8,0.2,0.2,0.2,0.8,0.2,0.2,0.2,0.8","1","",""
"","html-keyboard-response","7","38237","0.0-7.0","3AZHRG4CU567VJG8H2M1RQNI67R03U","A2MJ0X6M3VSFVN","3WRBLBQ2GRU63BU2LFOJL1G32T90GO","","null","<img src=""img/land5.png"" style=""width:200px;border:14px solid red;"">","null","","","","","","","","","",""
"","image-keyboard-response","8","40032","0.0-8.0","3AZHRG4CU567VJG8H2M1RQNI67R03U","A2MJ0X6M3VSFVN","3WRBLBQ2GRU63BU2LFOJL1G32T90GO","","1782.9000000059605","img/land5.png","74","1792.7999999821186","1","0","3","1","0.8,0.2,0.2,0.2,0.8,0.2,0.2,0.2,0.8","0.8,0.2,0.2,0.2,0.8,0.2,0.2,0.2,0.8","1","",""
"","html-keyboard-response","9","40339","0.0-9.0","3AZHRG4CU567VJG8H2M1RQNI67R03U","A2MJ0X6M3VSFVN","3WRBLBQ2GRU63BU2LFOJL1G32T90GO","","null","<img src=""img/land5.png"" style=""width:200px;border:14px solid red;"">","null","","","","","","","","","",""
"","image-keyboard-response","10","42343","0.0-10.0","3AZHRG4CU567VJG8H2M1RQNI67R03U","A2MJ0X6M3VSFVN","3WRBLBQ2GRU63BU2LFOJL1G32T90GO","","","img/land6.png","","2004","-1","0","2","1","0.8,0.2,0.2,0.2,0.8,0.2,0.2,0.2,0.8","0.8,0.2,0.2,0.2,0.8,0.2,0.2,0.2,0.8","1","",""
"","html-keyboard-response","11","42650","0.0-11.0","3AZHRG4CU567VJG8H2M1RQNI67R03U","A2MJ0X6M3VSFVN","3WRBLBQ2GRU63BU2LFOJL1G32T90GO","","null","<img src=""img/land6.png"" style=""width:200px;border:14px solid red;"">","null","","","","","","","","","",""
"","image-keyboard-response","12","43540","0.0-12.0","3AZHRG4CU567VJG8H2M1RQNI67R03U","A2MJ0X6M3VSFVN","3WRBLBQ2GRU63BU2LFOJL1G32T90GO","","881.5","img/land5.png","75","887.6999999880791","2","0","3","1","0.8,0.2,0.2,0.2,0.8,0.2,0.2,0.2,0.8","0.8,0.2,0.2,0.2,0.8,0.2,0.2,0.2,0.8","1","",""
"","html-keyboard-response","13","43848","0.0-13.0","3AZHRG4CU567VJG8H2M1RQNI67R03U","A2MJ0X6M3VSFVN","3WRBLBQ2GRU63BU2LFOJL1G32T90GO","","null","<img src=""img/land5.png"" style=""width:200px;border:14px solid red;"">","null","","","","","","","","","",""
"","image-keyboard-response","14","44244","0.0-14.0","3AZHRG4CU567VJG8H2M1RQNI67R03U","A2MJ0X6M3VSFVN","3WRBLBQ2GRU63BU2LFOJL1G32T90GO","","388.2999999821186","img/land1.png","74","394.5","1","1","1","1","0.8,0.2,0.2,0.2,0.8,0.2,0.2,0.2,0.8","0.8,0.2,0.2,0.2,0.8,0.2,0.2,0.2,0.8","1","",""
"","html-keyboard-response","15","44549","0.0-15.0","3AZHRG4CU567VJG8H2M1RQNI67R03U","A2MJ0X6M3VSFVN","3WRBLBQ2GRU63BU2LFOJL1G32T90GO","","null","<img src=""img/land1.png"" style=""width:200px; border:14px solid green;"">","null","","","","","","","","","",""
"","image-keyboard-response","16","45615","0.0-16.0","3AZHRG4CU567VJG8H2M1RQNI67R03U","A2MJ0X6M3VSFVN","3WRBLBQ2GRU63BU2LFOJL1G32T90GO","","1060.699999988079","img/land5.png","75","1064.7000000178814","2","0","3","1","0.8,0.2,0.2,0.2,0.8,0.2,0.2,0.2,0.8","0.8,0.2,0.2,0.2,0.8,0.2,0.2,0.2,0.8","1","",""
"","html-keyboard-response","17","45922","0.0-17.0","3AZHRG4CU567VJG8H2M1RQNI67R03U","A2MJ0X6M3VSFVN","3WRBLBQ2GRU63BU2LFOJL1G32T90GO","","null","<img src=""img/land5.png"" style=""width:200px;border:14px solid red;"">","null","","","","","","","","","",""
"","image-keyboard-response","18","46479","0.0-18.0","3AZHRG4CU567VJG8H2M1RQNI67R03U","A2MJ0X6M3VSFVN","3WRBLBQ2GRU63BU2LFOJL1G32T90GO","","551.5999999940395","img/land6.png","74","555.5","1","0","2","1","0.8,0.2,0.2,0.2,0.8,0.2,0.2,0.2,0.8","0.8,0.2,0.2,0.2,0.8,0.2,0.2,0.2,0.8","1","",""
"","html-keyboard-response","19","46785","0.0-19.0","3AZHRG4CU567VJG8H2M1RQNI67R03U","A2MJ0X6M3VSFVN","3WRBLBQ2GRU63BU2LFOJL1G32T90GO","","null","<img src=""img/land6.png"" style=""width:200px;border:14px solid red;"">","null","","","","","","","","","",""
"","image-keyboard-response","20","47741","0.0-20.0","3AZHRG4CU567VJG8H2M1RQNI67R03U","A2MJ0X6M3VSFVN","3WRBLBQ2GRU63BU2LFOJL1G32T90GO","","947.1999999880791","img/land6.png","75","954.4000000059605","2","1","2","1","0.8,0.2,0.2,0.2,0.8,0.2,0.2,0.2,0.8","0.8,0.2,0.2,0.2,0.8,0.2,0.2,0.2,0.8","1","",""
"","html-keyboard-response","21","48048","0.0-21.0","3AZHRG4CU567VJG8H2M1RQNI67R03U","A2MJ0X6M3VSFVN","3WRBLBQ2GRU63BU2LFOJL1G32T90GO","","null","<img src=""img/land6.png"" style=""width:200px; border:14px solid green;"">","null","","","","","","","","","",""
"","image-keyboard-response","22","48753","0.0-22.0","3AZHRG4CU567VJG8H2M1RQNI67R03U","A2MJ0X6M3VSFVN","3WRBLBQ2GRU63BU2LFOJL1G32T90GO","","697.9000000059605","img/land5.png","76","702.9000000059605","3","0","3","1","0.8,0.2,0.2,0.2,0.8,0.2,0.2,0.2,0.8","0.8,0.2,0.2,0.2,0.8,0.2,0.2,0.2,0.8","1","",""
"","html-keyboard-response","23","49059","0.0-23.0","3AZHRG4CU567VJG8H2M1RQNI67R03U","A2MJ0X6M3VSFVN","3WRBLBQ2GRU63BU2LFOJL1G32T90GO","","null","<img src=""img/land5.png"" style=""width:200px;border:14px solid red;"">","null","","","","","","","","","",""
"","image-keyboard-response","24","49821","0.0-24.0","3AZHRG4CU567VJG8H2M1RQNI67R03U","A2MJ0X6M3VSFVN","3WRBLBQ2GRU63BU2LFOJL1G32T90GO","","757","img/land1.png","74","760.5999999940395","1","1","1","1","0.8,0.2,0.2,0.2,0.8,0.2,0.2,0.2,0.8","0.8,0.2,0.2,0.2,0.8,0.2,0.2,0.2,0.8","1","",""
"","html-keyboard-response","25","50127","0.0-25.0","3AZHRG4CU567VJG8H2M1RQNI67R03U","A2MJ0X6M3VSFVN","3WRBLBQ2GRU63BU2LFOJL1G32T90GO","","null","<img src=""img/land1.png"" style=""width:200px; border:14px solid green;"">","null","","","","","","","","","",""
"","image-keyboard-response","26","51004","0.0-26.0","3AZHRG4CU567VJG8H2M1RQNI67R03U","A2MJ0X6M3VSFVN","3WRBLBQ2GRU63BU2LFOJL1G32T90GO","","871.1000000238419","img/land1.png","74","875","1","1","1","1","0.8,0.2,0.2,0.2,0.8,0.2,0.2,0.2,0.8","0.8,0.2,0.2,0.2,0.8,0.2,0.2,0.2,0.8","1","",""
"","html-keyboard-response","27","51310","0.0-27.0","3AZHRG4CU567VJG8H2M1RQNI67R03U","A2MJ0X6M3VSFVN","3WRBLBQ2GRU63BU2LFOJL1G32T90GO","","null","<img src=""img/land1.png"" style=""width:200px; border:14px solid green;"">","null","","","","","","","","","",""
"","image-keyboard-response","28","52038","0.0-28.0","3AZHRG4CU567VJG8H2M1RQNI67R03U","A2MJ0X6M3VSFVN","3WRBLBQ2GRU63BU2LFOJL1G32T90GO","","719.4000000059605","img/land5.png","74","725.1000000238419","1","0","3","1","0.8,0.2,0.2,0.2,0.8,0.2,0.2,0.2,0.8","0.8,0.2,0.2,0.2,0.8,0.2,0.2,0.2,0.8","1","",""
"","html-keyboard-response","29","52343","0.0-29.0","3AZHRG4CU567VJG8H2M1RQNI67R03U","A2MJ0X6M3VSFVN","3WRBLBQ2GRU63BU2LFOJL1G32T90GO","","null","<img src=""img/land5.png"" style=""width:200px;border:14px solid red;"">","null","","","","","","","","","",""
"","image-keyboard-response","30","52726","0.0-30.0","3AZHRG4CU567VJG8H2M1RQNI67R03U","A2MJ0X6M3VSFVN","3WRBLBQ2GRU63BU2LFOJL1G32T90GO","","376.2000000178814","img/land5.png","74","380.40000000596046","1","0","3","1","0.8,0.2,0.2,0.2,0.8,0.2,0.2,0.2,0.8","0.8,0.2,0.2,0.2,0.8,0.2,0.2,0.2,0.8","1","",""
"","html-keyboard-response","31","53031","0.0-31.0","3AZHRG4CU567VJG8H2M1RQNI67R03U","A2MJ0X6M3VSFVN","3WRBLBQ2GRU63BU2LFOJL1G32T90GO","","null","<img src=""img/land5.png"" style=""width:200px;border:14px solid red;"">","null","","","","","","","","","",""
"","image-keyboard-response","32","53753","0.0-32.0","3AZHRG4CU567VJG8H2M1RQNI67R03U","A2MJ0X6M3VSFVN","3WRBLBQ2GRU63BU2LFOJL1G32T90GO","","713.4000000059605","img/land6.png","74","720.4000000059605","1","0","2","1","0.8,0.2,0.2,0.2,0.8,0.2,0.2,0.2,0.8","0.8,0.2,0.2,0.2,0.8,0.2,0.2,0.2,0.8","1","",""
"","html-keyboard-response","33","54058","0.0-33.0","3AZHRG4CU567VJG8H2M1RQNI67R03U","A2MJ0X6M3VSFVN","3WRBLBQ2GRU63BU2LFOJL1G32T90GO","","null","<img src=""img/land6.png"" style=""width:200px;border:14px solid red;"">","null","","","","","","","","","",""
"","image-keyboard-response","34","54420","0.0-34.0","3AZHRG4CU567VJG8H2M1RQNI67R03U","A2MJ0X6M3VSFVN","3WRBLBQ2GRU63BU2LFOJL1G32T90GO","","354.59999999403954","img/land6.png","74","361.5","1","0","2","1","0.8,0.2,0.2,0.2,0.8,0.2,0.2,0.2,0.8","0.8,0.2,0.2,0.2,0.8,0.2,0.2,0.2,0.8","1","",""
"","html-keyboard-response","35","54725","0.0-35.0","3AZHRG4CU567VJG8H2M1RQNI67R03U","A2MJ0X6M3VSFVN","3WRBLBQ2GRU63BU2LFOJL1G32T90GO","","null","<img src=""img/land6.png"" style=""width:200px;border:14px solid red;"">","null","","","","","","","","","",""
"","image-keyboard-response","36","55073","0.0-36.0","3AZHRG4CU567VJG8H2M1RQNI67R03U","A2MJ0X6M3VSFVN","3WRBLBQ2GRU63BU2LFOJL1G32T90GO","","341.09999999403954","img/land6.png","75","346.80000001192093","2","1","2","1","0.8,0.2,0.2,0.2,0.8,0.2,0.2,0.2,0.8","0.8,0.2,0.2,0.2,0.8,0.2,0.2,0.2,0.8","1","",""
"","html-keyboard-response","37","55379","0.0-37.0","3AZHRG4CU567VJG8H2M1RQNI67R03U","A2MJ0X6M3VSFVN","3WRBLBQ2GRU63BU2LFOJL1G32T90GO","","null","<img src=""img/land6.png"" style=""width:200px; border:14px solid green;"">","null","","","","","","","","","",""
"","image-keyboard-response","38","55945","0.0-38.0","3AZHRG4CU567VJG8H2M1RQNI67R03U","A2MJ0X6M3VSFVN","3WRBLBQ2GRU63BU2LFOJL1G32T90GO","","562.8999999761581","img/land5.png","74","566.8000000119209","1","0","3","1","0.8,0.2,0.2,0.2,0.8,0.2,0.2,0.2,0.8","0.8,0.2,0.2,0.2,0.8,0.2,0.2,0.2,0.8","1","",""
"","html-keyboard-response","39","56254","0.0-39.0","3AZHRG4CU567VJG8H2M1RQNI67R03U","A2MJ0X6M3VSFVN","3WRBLBQ2GRU63BU2LFOJL1G32T90GO","","null","<img src=""img/land5.png"" style=""width:200px;border:14px solid red;"">","null","","","","","","","","","",""
"","image-keyboard-response","40","56818","0.0-40.0","3AZHRG4CU567VJG8H2M1RQNI67R03U","A2MJ0X6M3VSFVN","3WRBLBQ2GRU63BU2LFOJL1G32T90GO","","555.4000000059605","img/land6.png","74","562.6999999880791","1","0","2","1","0.8,0.2,0.2,0.2,0.8,0.2,0.2,0.2,0.8","0.8,0.2,0.2,0.2,0.8,0.2,0.2,0.2,0.8","1","",""
"","html-keyboard-response","41","57124","0.0-41.0","3AZHRG4CU567VJG8H2M1RQNI67R03U","A2MJ0X6M3VSFVN","3WRBLBQ2GRU63BU2LFOJL1G32T90GO","","null","<img src=""img/land6.png"" style=""width:200px;border:14px solid red;"">","null","","","","","","","","","",""
"","image-keyboard-response","42","57642","0.0-42.0","3AZHRG4CU567VJG8H2M1RQNI67R03U","A2MJ0X6M3VSFVN","3WRBLBQ2GRU63BU2LFOJL1G32T90GO","","511.80000001192093","img/land1.png","74","515.9000000059605","1","1","1","1","0.8,0.2,0.2,0.2,0.8,0.2,0.2,0.2,0.8","0.8,0.2,0.2,0.2,0.8,0.2,0.2,0.2,0.8","1","",""
"","html-keyboard-response","43","57946","0.0-43.0","3AZHRG4CU567VJG8H2M1RQNI67R03U","A2MJ0X6M3VSFVN","3WRBLBQ2GRU63BU2LFOJL1G32T90GO","","null","<img src=""img/land1.png"" style=""width:200px; border:14px solid green;"">","null","","","","","","","","","",""
"","image-keyboard-response","44","58309","0.0-44.0","3AZHRG4CU567VJG8H2M1RQNI67R03U","A2MJ0X6M3VSFVN","3WRBLBQ2GRU63BU2LFOJL1G32T90GO","","357.59999999403954","img/land6.png","74","361.90000000596046","1","0","2","1","0.8,0.2,0.2,0.2,0.8,0.2,0.2,0.2,0.8","0.8,0.2,0.2,0.2,0.8,0.2,0.2,0.2,0.8","1","",""
"","html-keyboard-response","45","58613","0.0-45.0","3AZHRG4CU567VJG8H2M1RQNI67R03U","A2MJ0X6M3VSFVN","3WRBLBQ2GRU63BU2LFOJL1G32T90GO","","null","<img src=""img/land6.png"" style=""width:200px;border:14px solid red;"">","null","","","","","","","","","",""
"","image-keyboard-response","46","59209","0.0-46.0","3AZHRG4CU567VJG8H2M1RQNI67R03U","A2MJ0X6M3VSFVN","3WRBLBQ2GRU63BU2LFOJL1G32T90GO","","591.8000000119209","img/land1.png","74","595.5999999940395","1","0","1","1","0.8,0.2,0.2,0.2,0.8,0.2,0.2,0.2,0.8","0.8,0.2,0.2,0.2,0.8,0.2,0.2,0.2,0.8","1","",""
"","html-keyboard-response","47","59516","0.0-47.0","3AZHRG4CU567VJG8H2M1RQNI67R03U","A2MJ0X6M3VSFVN","3WRBLBQ2GRU63BU2LFOJL1G32T90GO","","null","<img src=""img/land1.png"" style=""width:200px;border:14px solid red;"">","null","","","","","","","","","",""
"","image-keyboard-response","48","60134","0.0-48.0","3AZHRG4CU567VJG8H2M1RQNI67R03U","A2MJ0X6M3VSFVN","3WRBLBQ2GRU63BU2LFOJL1G32T90GO","","610.4000000059605","img/land5.png","75","617.7000000178814","2","0","3","1","0.8,0.2,0.2,0.2,0.8,0.2,0.2,0.2,0.8","0.8,0.2,0.2,0.2,0.8,0.2,0.2,0.2,0.8","1","",""
"","html-keyboard-response","49","60441","0.0-49.0","3AZHRG4CU567VJG8H2M1RQNI67R03U","A2MJ0X6M3VSFVN","3WRBLBQ2GRU63BU2LFOJL1G32T90GO","","null","<img src=""img/land5.png"" style=""width:200px;border:14px solid red;"">","null","","","","","","","","","",""
"","image-keyboard-response","50","60915","0.0-50.0","3AZHRG4CU567VJG8H2M1RQNI67R03U","A2MJ0X6M3VSFVN","3WRBLBQ2GRU63BU2LFOJL1G32T90GO","","466.30000001192093","img/land6.png","76","473.40000000596046","3","0","2","1","0.8,0.2,0.2,0.2,0.8,0.2,0.2,0.2,0.8","0.8,0.2,0.2,0.2,0.8,0.2,0.2,0.2,0.8","1","",""
"","html-keyboard-response","51","61223","0.0-51.0","3AZHRG4CU567VJG8H2M1RQNI67R03U","A2MJ0X6M3VSFVN","3WRBLBQ2GRU63BU2LFOJL1G32T90GO","","null","<img src=""img/land6.png"" style=""width:200px;border:14px solid red;"">","null","","","","","","","","","",""
"","image-keyboard-response","52","61851","0.0-52.0","3AZHRG4CU567VJG8H2M1RQNI67R03U","A2MJ0X6M3VSFVN","3WRBLBQ2GRU63BU2LFOJL1G32T90GO","","621.2000000178814","img/land1.png","74","627","1","1","1","1","0.8,0.2,0.2,0.2,0.8,0.2,0.2,0.2,0.8","0.8,0.2,0.2,0.2,0.8,0.2,0.2,0.2,0.8","1","",""
"","html-keyboard-response","53","62158","0.0-53.0","3AZHRG4CU567VJG8H2M1RQNI67R03U","A2MJ0X6M3VSFVN","3WRBLBQ2GRU63BU2LFOJL1G32T90GO","","null","<img src=""img/land1.png"" style=""width:200px; border:14px solid green;"">","null","","","","","","","","","",""
"","image-keyboard-response","54","62722","0.0-54.0","3AZHRG4CU567VJG8H2M1RQNI67R03U","A2MJ0X6M3VSFVN","3WRBLBQ2GRU63BU2LFOJL1G32T90GO","","556.5999999940395","img/land6.png","75","562.3000000119209","2","1","2","1","0.8,0.2,0.2,0.2,0.8,0.2,0.2,0.2,0.8","0.8,0.2,0.2,0.2,0.8,0.2,0.2,0.2,0.8","1","",""
"","html-keyboard-response","55","63028","0.0-55.0","3AZHRG4CU567VJG8H2M1RQNI67R03U","A2MJ0X6M3VSFVN","3WRBLBQ2GRU63BU2LFOJL1G32T90GO","","null","<img src=""img/land6.png"" style=""width:200px; border:14px solid green;"">","null","","","","","","","","","",""
"","image-keyboard-response","56","63641","0.0-56.0","3AZHRG4CU567VJG8H2M1RQNI67R03U","A2MJ0X6M3VSFVN","3WRBLBQ2GRU63BU2LFOJL1G32T90GO","","601.4000000059605","img/land1.png","76","610.5","3","0","1","1","0.8,0.2,0.2,0.2,0.8,0.2,0.2,0.2,0.8","0.8,0.2,0.2,0.2,0.8,0.2,0.2,0.2,0.8","1","",""
"","html-keyboard-response","57","63946","0.0-57.0","3AZHRG4CU567VJG8H2M1RQNI67R03U","A2MJ0X6M3VSFVN","3WRBLBQ2GRU63BU2LFOJL1G32T90GO","","null","<img src=""img/land1.png"" style=""width:200px;border:14px solid red;"">","null","","","","","","","","","",""
"","image-keyboard-response","58","64333","0.0-58.0","3AZHRG4CU567VJG8H2M1RQNI67R03U","A2MJ0X6M3VSFVN","3WRBLBQ2GRU63BU2LFOJL1G32T90GO","","378.09999999403954","img/land1.png","74","384","1","0","1","1","0.8,0.2,0.2,0.2,0.8,0.2,0.2,0.2,0.8","0.8,0.2,0.2,0.2,0.8,0.2,0.2,0.2,0.8","1","",""
"","html-keyboard-response","59","64636","0.0-59.0","3AZHRG4CU567VJG8H2M1RQNI67R03U","A2MJ0X6M3VSFVN","3WRBLBQ2GRU63BU2LFOJL1G32T90GO","","null","<img src=""img/land1.png"" style=""width:200px;border:14px solid red;"">","null","","","","","","","","","",""
"","image-keyboard-response","60","65089","0.0-60.0","3AZHRG4CU567VJG8H2M1RQNI67R03U","A2MJ0X6M3VSFVN","3WRBLBQ2GRU63BU2LFOJL1G32T90GO","","444.09999999403954","img/land1.png","74","450.59999999403954","1","1","1","1","0.8,0.2,0.2,0.2,0.8,0.2,0.2,0.2,0.8","0.8,0.2,0.2,0.2,0.8,0.2,0.2,0.2,0.8","1","",""
"","html-keyboard-response","61","65395","0.0-61.0","3AZHRG4CU567VJG8H2M1RQNI67R03U","A2MJ0X6M3VSFVN","3WRBLBQ2GRU63BU2LFOJL1G32T90GO","","null","<img src=""img/land1.png"" style=""width:200px; border:14px solid green;"">","null","","","","","","","","","",""
"","image-keyboard-response","62","66835","0.0-62.0","3AZHRG4CU567VJG8H2M1RQNI67R03U","A2MJ0X6M3VSFVN","3WRBLBQ2GRU63BU2LFOJL1G32T90GO","","1435.5999999940395","img/land1.png","75","1439.7999999821186","2","0","1","1","0.8,0.2,0.2,0.2,0.8,0.2,0.2,0.2,0.8","0.8,0.2,0.2,0.2,0.8,0.2,0.2,0.2,0.8","1","",""
"","html-keyboard-response","63","67143","0.0-63.0","3AZHRG4CU567VJG8H2M1RQNI67R03U","A2MJ0X6M3VSFVN","3WRBLBQ2GRU63BU2LFOJL1G32T90GO","","null","<img src=""img/land1.png"" style=""width:200px;border:14px solid red;"">","null","","","","","","","","","",""
"","image-keyboard-response","64","67643","0.0-64.0","3AZHRG4CU567VJG8H2M1RQNI67R03U","A2MJ0X6M3VSFVN","3WRBLBQ2GRU63BU2LFOJL1G32T90GO","","491.09999999403954","img/land5.png","74","498","1","0","3","1","0.8,0.2,0.2,0.2,0.8,0.2,0.2,0.2,0.8","0.8,0.2,0.2,0.2,0.8,0.2,0.2,0.2,0.8","1","",""
"","html-keyboard-response","65","67950","0.0-65.0","3AZHRG4CU567VJG8H2M1RQNI67R03U","A2MJ0X6M3VSFVN","3WRBLBQ2GRU63BU2LFOJL1G32T90GO","","null","<img src=""img/land5.png"" style=""width:200px;border:14px solid red;"">","null","","","","","","","","","",""
"","image-keyboard-response","66","68461","0.0-66.0","3AZHRG4CU567VJG8H2M1RQNI67R03U","A2MJ0X6M3VSFVN","3WRBLBQ2GRU63BU2LFOJL1G32T90GO","","505","img/land6.png","74","510.09999999403954","1","0","2","1","0.8,0.2,0.2,0.2,0.8,0.2,0.2,0.2,0.8","0.8,0.2,0.2,0.2,0.8,0.2,0.2,0.2,0.8","1","",""
"","html-keyboard-response","67","68767","0.0-67.0","3AZHRG4CU567VJG8H2M1RQNI67R03U","A2MJ0X6M3VSFVN","3WRBLBQ2GRU63BU2LFOJL1G32T90GO","","null","<img src=""img/land6.png"" style=""width:200px;border:14px solid red;"">","null","","","","","","","","","",""
"","image-keyboard-response","68","69148","0.0-68.0","3AZHRG4CU567VJG8H2M1RQNI67R03U","A2MJ0X6M3VSFVN","3WRBLBQ2GRU63BU2LFOJL1G32T90GO","","377.30000001192093","img/land5.png","75","380.80000001192093","2","0","3","1","0.8,0.2,0.2,0.2,0.8,0.2,0.2,0.2,0.8","0.8,0.2,0.2,0.2,0.8,0.2,0.2,0.2,0.8","1","",""
"","html-keyboard-response","69","69455","0.0-69.0","3AZHRG4CU567VJG8H2M1RQNI67R03U","A2MJ0X6M3VSFVN","3WRBLBQ2GRU63BU2LFOJL1G32T90GO","","null","<img src=""img/land5.png"" style=""width:200px;border:14px solid red;"">","null","","","","","","","","","",""
"","image-keyboard-response","70","69959","0.0-70.0","3AZHRG4CU567VJG8H2M1RQNI67R03U","A2MJ0X6M3VSFVN","3WRBLBQ2GRU63BU2LFOJL1G32T90GO","","495.09999999403954","img/land6.png","76","500.80000001192093","3","0","2","1","0.8,0.2,0.2,0.2,0.8,0.2,0.2,0.2,0.8","0.8,0.2,0.2,0.2,0.8,0.2,0.2,0.2,0.8","1","",""
"","html-keyboard-response","71","70265","0.0-71.0","3AZHRG4CU567VJG8H2M1RQNI67R03U","A2MJ0X6M3VSFVN","3WRBLBQ2GRU63BU2LFOJL1G32T90GO","","null","<img src=""img/land6.png"" style=""width:200px;border:14px solid red;"">","null","","","","","","","","","",""
"","image-keyboard-response","72","70679","0.0-72.0","3AZHRG4CU567VJG8H2M1RQNI67R03U","A2MJ0X6M3VSFVN","3WRBLBQ2GRU63BU2LFOJL1G32T90GO","","408.10000002384186","img/land6.png","74","413.40000000596046","1","0","2","1","0.8,0.2,0.2,0.2,0.8,0.2,0.2,0.2,0.8","0.8,0.2,0.2,0.2,0.8,0.2,0.2,0.2,0.8","1","",""
"","html-keyboard-response","73","70984","0.0-73.0","3AZHRG4CU567VJG8H2M1RQNI67R03U","A2MJ0X6M3VSFVN","3WRBLBQ2GRU63BU2LFOJL1G32T90GO","","null","<img src=""img/land6.png"" style=""width:200px;border:14px solid red;"">","null","","","","","","","","","",""
"","image-keyboard-response","74","71249","0.0-74.0","3AZHRG4CU567VJG8H2M1RQNI67R03U","A2MJ0X6M3VSFVN","3WRBLBQ2GRU63BU2LFOJL1G32T90GO","","262.80000001192093","img/land6.png","75","264.90000000596046","2","1","2","1","0.8,0.2,0.2,0.2,0.8,0.2,0.2,0.2,0.8","0.8,0.2,0.2,0.2,0.8,0.2,0.2,0.2,0.8","1","",""
"","html-keyboard-response","75","71553","0.0-75.0","3AZHRG4CU567VJG8H2M1RQNI67R03U","A2MJ0X6M3VSFVN","3WRBLBQ2GRU63BU2LFOJL1G32T90GO","","null","<img src=""img/land6.png"" style=""width:200px; border:14px solid green;"">","null","","","","","","","","","",""
"","image-keyboard-response","76","72079","0.0-76.0","3AZHRG4CU567VJG8H2M1RQNI67R03U","A2MJ0X6M3VSFVN","3WRBLBQ2GRU63BU2LFOJL1G32T90GO","","516.5999999940395","img/land1.png","76","524.4000000059605","3","1","1","1","0.8,0.2,0.2,0.2,0.8,0.2,0.2,0.2,0.8","0.8,0.2,0.2,0.2,0.8,0.2,0.2,0.2,0.8","1","",""
"","html-keyboard-response","77","72382","0.0-77.0","3AZHRG4CU567VJG8H2M1RQNI67R03U","A2MJ0X6M3VSFVN","3WRBLBQ2GRU63BU2LFOJL1G32T90GO","","null","<img src=""img/land1.png"" style=""width:200px; border:14px solid green;"">","null","","","","","","","","","",""
"","image-keyboard-response","78","72824","0.0-78.0","3AZHRG4CU567VJG8H2M1RQNI67R03U","A2MJ0X6M3VSFVN","3WRBLBQ2GRU63BU2LFOJL1G32T90GO","","437.09999999403954","img/land5.png","76","441.90000000596046","3","1","3","1","0.8,0.2,0.2,0.2,0.8,0.2,0.2,0.2,0.8","0.8,0.2,0.2,0.2,0.8,0.2,0.2,0.2,0.8","1","",""
"","html-keyboard-response","79","73130","0.0-79.0","3AZHRG4CU567VJG8H2M1RQNI67R03U","A2MJ0X6M3VSFVN","3WRBLBQ2GRU63BU2LFOJL1G32T90GO","","null","<img src=""img/land5.png"" style=""width:200px; border:14px solid green;"">","null","","","","","","","","","",""
"","image-keyboard-response","80","73585","0.0-80.0","3AZHRG4CU567VJG8H2M1RQNI67R03U","A2MJ0X6M3VSFVN","3WRBLBQ2GRU63BU2LFOJL1G32T90GO","","444.90000000596046","img/land6.png","76","453.30000001192093","3","1","2","1","0.8,0.2,0.2,0.2,0.8,0.2,0.2,0.2,0.8","0.8,0.2,0.2,0.2,0.8,0.2,0.2,0.2,0.8","1","",""
"","html-keyboard-response","81","73889","0.0-81.0","3AZHRG4CU567VJG8H2M1RQNI67R03U","A2MJ0X6M3VSFVN","3WRBLBQ2GRU63BU2LFOJL1G32T90GO","","null","<img src=""img/land6.png"" style=""width:200px; border:14px solid green;"">","null","","","","","","","","","",""
"","image-keyboard-response","82","74278","0.0-82.0","3AZHRG4CU567VJG8H2M1RQNI67R03U","A2MJ0X6M3VSFVN","3WRBLBQ2GRU63BU2LFOJL1G32T90GO","","383","img/land1.png","76","387.19999998807907","3","1","1","1","0.8,0.2,0.2,0.2,0.8,0.2,0.2,0.2,0.8","0.8,0.2,0.2,0.2,0.8,0.2,0.2,0.2,0.8","1","",""
"","html-keyboard-response","83","74586","0.0-83.0","3AZHRG4CU567VJG8H2M1RQNI67R03U","A2MJ0X6M3VSFVN","3WRBLBQ2GRU63BU2LFOJL1G32T90GO","","null","<img src=""img/land1.png"" style=""width:200px; border:14px solid green;"">","null","","","","","","","","","",""
"","image-keyboard-response","84","75047","0.0-84.0","3AZHRG4CU567VJG8H2M1RQNI67R03U","A2MJ0X6M3VSFVN","3WRBLBQ2GRU63BU2LFOJL1G32T90GO","","455","img/land1.png","76","459.59999999403954","3","0","1","1","0.8,0.2,0.2,0.2,0.8,0.2,0.2,0.2,0.8","0.8,0.2,0.2,0.2,0.8,0.2,0.2,0.2,0.8","1","",""
"","html-keyboard-response","85","75352","0.0-85.0","3AZHRG4CU567VJG8H2M1RQNI67R03U","A2MJ0X6M3VSFVN","3WRBLBQ2GRU63BU2LFOJL1G32T90GO","","null","<img src=""img/land1.png"" style=""width:200px;border:14px solid red;"">","null","","","","","","","","","",""
"","image-keyboard-response","86","75712","0.0-86.0","3AZHRG4CU567VJG8H2M1RQNI67R03U","A2MJ0X6M3VSFVN","3WRBLBQ2GRU63BU2LFOJL1G32T90GO","","354.09999999403954","img/land1.png","76","358.7999999821186","3","0","1","1","0.8,0.2,0.2,0.2,0.8,0.2,0.2,0.2,0.8","0.8,0.2,0.2,0.2,0.8,0.2,0.2,0.2,0.8","1","",""
"","html-keyboard-response","87","76018","0.0-87.0","3AZHRG4CU567VJG8H2M1RQNI67R03U","A2MJ0X6M3VSFVN","3WRBLBQ2GRU63BU2LFOJL1G32T90GO","","null","<img src=""img/land1.png"" style=""width:200px;border:14px solid red;"">","null","","","","","","","","","",""
"","image-keyboard-response","88","76472","0.0-88.0","3AZHRG4CU567VJG8H2M1RQNI67R03U","A2MJ0X6M3VSFVN","3WRBLBQ2GRU63BU2LFOJL1G32T90GO","","446.69999998807907","img/land1.png","75","453.5","2","0","1","1","0.8,0.2,0.2,0.2,0.8,0.2,0.2,0.2,0.8","0.8,0.2,0.2,0.2,0.8,0.2,0.2,0.2,0.8","1","",""
"","html-keyboard-response","89","76778","0.0-89.0","3AZHRG4CU567VJG8H2M1RQNI67R03U","A2MJ0X6M3VSFVN","3WRBLBQ2GRU63BU2LFOJL1G32T90GO","","null","<img src=""img/land1.png"" style=""width:200px;border:14px solid red;"">","null","","","","","","","","","",""
"","image-keyboard-response","90","76998","0.0-90.0","3AZHRG4CU567VJG8H2M1RQNI67R03U","A2MJ0X6M3VSFVN","3WRBLBQ2GRU63BU2LFOJL1G32T90GO","","214.59999999403954","img/land6.png","74","218.10000002384186","1","0","2","1","0.8,0.2,0.2,0.2,0.8,0.2,0.2,0.2,0.8","0.8,0.2,0.2,0.2,0.8,0.2,0.2,0.2,0.8","1","",""
"","html-keyboard-response","91","77306","0.0-91.0","3AZHRG4CU567VJG8H2M1RQNI67R03U","A2MJ0X6M3VSFVN","3WRBLBQ2GRU63BU2LFOJL1G32T90GO","","null","<img src=""img/land6.png"" style=""width:200px;border:14px solid red;"">","null","","","","","","","","","",""
"","image-keyboard-response","92","77756","0.0-92.0","3AZHRG4CU567VJG8H2M1RQNI67R03U","A2MJ0X6M3VSFVN","3WRBLBQ2GRU63BU2LFOJL1G32T90GO","","445.40000000596046","img/land5.png","74","449.19999998807907","1","0","3","1","0.8,0.2,0.2,0.2,0.8,0.2,0.2,0.2,0.8","0.8,0.2,0.2,0.2,0.8,0.2,0.2,0.2,0.8","1","",""
"","html-keyboard-response","93","78061","0.0-93.0","3AZHRG4CU567VJG8H2M1RQNI67R03U","A2MJ0X6M3VSFVN","3WRBLBQ2GRU63BU2LFOJL1G32T90GO","","null","<img src=""img/land5.png"" style=""width:200px;border:14px solid red;"">","null","","","","","","","","","",""
"","image-keyboard-response","94","78470","0.0-94.0","3AZHRG4CU567VJG8H2M1RQNI67R03U","A2MJ0X6M3VSFVN","3WRBLBQ2GRU63BU2LFOJL1G32T90GO","","404.59999999403954","img/land6.png","74","407.69999998807907","1","0","2","1","0.8,0.2,0.2,0.2,0.8,0.2,0.2,0.2,0.8","0.8,0.2,0.2,0.2,0.8,0.2,0.2,0.2,0.8","1","",""
"","html-keyboard-response","95","78776","0.0-95.0","3AZHRG4CU567VJG8H2M1RQNI67R03U","A2MJ0X6M3VSFVN","3WRBLBQ2GRU63BU2LFOJL1G32T90GO","","null","<img src=""img/land6.png"" style=""width:200px;border:14px solid red;"">","null","","","","","","","","","",""
"","image-keyboard-response","96","79157","0.0-96.0","3AZHRG4CU567VJG8H2M1RQNI67R03U","A2MJ0X6M3VSFVN","3WRBLBQ2GRU63BU2LFOJL1G32T90GO","","375.5","img/land5.png","74","380.59999999403954","1","1","3","1","0.8,0.2,0.2,0.2,0.8,0.2,0.2,0.2,0.8","0.8,0.2,0.2,0.2,0.8,0.2,0.2,0.2,0.8","1","",""
"","html-keyboard-response","97","79464","0.0-97.0","3AZHRG4CU567VJG8H2M1RQNI67R03U","A2MJ0X6M3VSFVN","3WRBLBQ2GRU63BU2LFOJL1G32T90GO","","null","<img src=""img/land5.png"" style=""width:200px; border:14px solid green;"">","null","","","","","","","","","",""
"","image-keyboard-response","98","79860","0.0-98.0","3AZHRG4CU567VJG8H2M1RQNI67R03U","A2MJ0X6M3VSFVN","3WRBLBQ2GRU63BU2LFOJL1G32T90GO","","384.19999998807907","img/land5.png","74","393.90000000596046","1","1","3","1","0.8,0.2,0.2,0.2,0.8,0.2,0.2,0.2,0.8","0.8,0.2,0.2,0.2,0.8,0.2,0.2,0.2,0.8","1","",""
"","html-keyboard-response","99","80166","0.0-99.0","3AZHRG4CU567VJG8H2M1RQNI67R03U","A2MJ0X6M3VSFVN","3WRBLBQ2GRU63BU2LFOJL1G32T90GO","","null","<img src=""img/land5.png"" style=""width:200px; border:14px solid green;"">","null","","","","","","","","","",""
"","image-keyboard-response","100","80435","0.0-100.0","3AZHRG4CU567VJG8H2M1RQNI67R03U","A2MJ0X6M3VSFVN","3WRBLBQ2GRU63BU2LFOJL1G32T90GO","","260.40000000596046","img/land1.png","74","268.09999999403954","1","1","1","1","0.8,0.2,0.2,0.2,0.8,0.2,0.2,0.2,0.8","0.8,0.2,0.2,0.2,0.8,0.2,0.2,0.2,0.8","1","",""
"","html-keyboard-response","101","80742","0.0-101.0","3AZHRG4CU567VJG8H2M1RQNI67R03U","A2MJ0X6M3VSFVN","3WRBLBQ2GRU63BU2LFOJL1G32T90GO","","null","<img src=""img/land1.png"" style=""width:200px; border:14px solid green;"">","null","","","","","","","","","",""
"","image-keyboard-response","102","81050","0.0-102.0","3AZHRG4CU567VJG8H2M1RQNI67R03U","A2MJ0X6M3VSFVN","3WRBLBQ2GRU63BU2LFOJL1G32T90GO","","302","img/land5.png","74","306.10000002384186","1","1","3","1","0.8,0.2,0.2,0.2,0.8,0.2,0.2,0.2,0.8","0.8,0.2,0.2,0.2,0.8,0.2,0.2,0.2,0.8","1","",""
"","html-keyboard-response","103","81356","0.0-103.0","3AZHRG4CU567VJG8H2M1RQNI67R03U","A2MJ0X6M3VSFVN","3WRBLBQ2GRU63BU2LFOJL1G32T90GO","","null","<img src=""img/land5.png"" style=""width:200px; border:14px solid green;"">","null","","","","","","","","","",""
"","image-keyboard-response","104","81678","0.0-104.0","3AZHRG4CU567VJG8H2M1RQNI67R03U","A2MJ0X6M3VSFVN","3WRBLBQ2GRU63BU2LFOJL1G32T90GO","","318.59999999403954","img/land6.png","74","322.5","1","0","2","1","0.8,0.2,0.2,0.2,0.8,0.2,0.2,0.2,0.8","0.8,0.2,0.2,0.2,0.8,0.2,0.2,0.2,0.8","1","",""
"","html-keyboard-response","105","81986","0.0-105.0","3AZHRG4CU567VJG8H2M1RQNI67R03U","A2MJ0X6M3VSFVN","3WRBLBQ2GRU63BU2LFOJL1G32T90GO","","null","<img src=""img/land6.png"" style=""width:200px;border:14px solid red;"">","null","","","","","","","","","",""
"","image-keyboard-response","106","82152","0.0-106.0","3AZHRG4CU567VJG8H2M1RQNI67R03U","A2MJ0X6M3VSFVN","3WRBLBQ2GRU63BU2LFOJL1G32T90GO","","160.80000001192093","img/land1.png","75","164.7000000178814","2","0","1","1","0.8,0.2,0.2,0.2,0.8,0.2,0.2,0.2,0.8","0.8,0.2,0.2,0.2,0.8,0.2,0.2,0.2,0.8","1","",""
"","html-keyboard-response","107","82457","0.0-107.0","3AZHRG4CU567VJG8H2M1RQNI67R03U","A2MJ0X6M3VSFVN","3WRBLBQ2GRU63BU2LFOJL1G32T90GO","","null","<img src=""img/land1.png"" style=""width:200px;border:14px solid red;"">","null","","","","","","","","","",""
"","image-keyboard-response","108","83003","0.0-108.0","3AZHRG4CU567VJG8H2M1RQNI67R03U","A2MJ0X6M3VSFVN","3WRBLBQ2GRU63BU2LFOJL1G32T90GO","","542.9000000059605","img/land6.png","76","546.1999999880791","3","0","2","1","0.8,0.2,0.2,0.2,0.8,0.2,0.2,0.2,0.8","0.8,0.2,0.2,0.2,0.8,0.2,0.2,0.2,0.8","1","",""
"","html-keyboard-response","109","83311","0.0-109.0","3AZHRG4CU567VJG8H2M1RQNI67R03U","A2MJ0X6M3VSFVN","3WRBLBQ2GRU63BU2LFOJL1G32T90GO","","null","<img src=""img/land6.png"" style=""width:200px;border:14px solid red;"">","null","","","","","","","","","",""
"","image-keyboard-response","110","83640","0.0-110.0","3AZHRG4CU567VJG8H2M1RQNI67R03U","A2MJ0X6M3VSFVN","3WRBLBQ2GRU63BU2LFOJL1G32T90GO","","319.59999999403954","img/land1.png","74","328.09999999403954","1","1","1","1","0.8,0.2,0.2,0.2,0.8,0.2,0.2,0.2,0.8","0.8,0.2,0.2,0.2,0.8,0.2,0.2,0.2,0.8","1","",""
"","html-keyboard-response","111","83946","0.0-111.0","3AZHRG4CU567VJG8H2M1RQNI67R03U","A2MJ0X6M3VSFVN","3WRBLBQ2GRU63BU2LFOJL1G32T90GO","","null","<img src=""img/land1.png"" style=""width:200px; border:14px solid green;"">","null","","","","","","","","","",""
"","image-keyboard-response","112","85061","0.0-112.0","3AZHRG4CU567VJG8H2M1RQNI67R03U","A2MJ0X6M3VSFVN","3WRBLBQ2GRU63BU2LFOJL1G32T90GO","","1105","img/land1.png","74","1112.5999999940395","1","1","1","1","0.8,0.2,0.2,0.2,0.8,0.2,0.2,0.2,0.8","0.8,0.2,0.2,0.2,0.8,0.2,0.2,0.2,0.8","1","",""
"","html-keyboard-response","113","85368","0.0-113.0","3AZHRG4CU567VJG8H2M1RQNI67R03U","A2MJ0X6M3VSFVN","3WRBLBQ2GRU63BU2LFOJL1G32T90GO","","null","<img src=""img/land1.png"" style=""width:200px; border:14px solid green;"">","null","","","","","","","","","",""
"","image-keyboard-response","114","85415","0.0-114.0","3AZHRG4CU567VJG8H2M1RQNI67R03U","A2MJ0X6M3VSFVN","3WRBLBQ2GRU63BU2LFOJL1G32T90GO","","38.900000005960464","img/land5.png","74","45","1","0","3","1","0.8,0.2,0.2,0.2,0.8,0.2,0.2,0.2,0.8","0.8,0.2,0.2,0.2,0.8,0.2,0.2,0.2,0.8","1","",""
"","html-keyboard-response","115","85720","0.0-115.0","3AZHRG4CU567VJG8H2M1RQNI67R03U","A2MJ0X6M3VSFVN","3WRBLBQ2GRU63BU2LFOJL1G32T90GO","","null","<img src=""img/land5.png"" style=""width:200px;border:14px solid red;"">","null","","","","","","","","","",""
"","image-keyboard-response","116","85962","0.0-116.0","3AZHRG4CU567VJG8H2M1RQNI67R03U","A2MJ0X6M3VSFVN","3WRBLBQ2GRU63BU2LFOJL1G32T90GO","","236.80000001192093","img/land5.png","74","240.90000000596046","1","0","3","1","0.8,0.2,0.2,0.2,0.8,0.2,0.2,0.2,0.8","0.8,0.2,0.2,0.2,0.8,0.2,0.2,0.2,0.8","1","",""
"","html-keyboard-response","117","86268","0.0-117.0","3AZHRG4CU567VJG8H2M1RQNI67R03U","A2MJ0X6M3VSFVN","3WRBLBQ2GRU63BU2LFOJL1G32T90GO","","null","<img src=""img/land5.png"" style=""width:200px;border:14px solid red;"">","null","","","","","","","","","",""
"","image-keyboard-response","118","86548","0.0-118.0","3AZHRG4CU567VJG8H2M1RQNI67R03U","A2MJ0X6M3VSFVN","3WRBLBQ2GRU63BU2LFOJL1G32T90GO","","275.60000002384186","img/land1.png","75","280.59999999403954","2","0","1","1","0.8,0.2,0.2,0.2,0.8,0.2,0.2,0.2,0.8","0.8,0.2,0.2,0.2,0.8,0.2,0.2,0.2,0.8","1","",""
"","html-keyboard-response","119","86854","0.0-119.0","3AZHRG4CU567VJG8H2M1RQNI67R03U","A2MJ0X6M3VSFVN","3WRBLBQ2GRU63BU2LFOJL1G32T90GO","","null","<img src=""img/land1.png"" style=""width:200px;border:14px solid red;"">","null","","","","","","","","","",""
"","image-keyboard-response","120","87163","0.0-120.0","3AZHRG4CU567VJG8H2M1RQNI67R03U","A2MJ0X6M3VSFVN","3WRBLBQ2GRU63BU2LFOJL1G32T90GO","","301.69999998807907","img/land5.png","74","306.90000000596046","1","0","3","1","0.8,0.2,0.2,0.2,0.8,0.2,0.2,0.2,0.8","0.8,0.2,0.2,0.2,0.8,0.2,0.2,0.2,0.8","1","",""
"","html-keyboard-response","121","87469","0.0-121.0","3AZHRG4CU567VJG8H2M1RQNI67R03U","A2MJ0X6M3VSFVN","3WRBLBQ2GRU63BU2LFOJL1G32T90GO","","null","<img src=""img/land5.png"" style=""width:200px;border:14px solid red;"">","null","","","","","","","","","",""
"","image-keyboard-response","122","87681","0.0-122.0","3AZHRG4CU567VJG8H2M1RQNI67R03U","A2MJ0X6M3VSFVN","3WRBLBQ2GRU63BU2LFOJL1G32T90GO","","206.59999999403954","img/land5.png","75","211.19999998807907","2","0","3","1","0.8,0.2,0.2,0.2,0.8,0.2,0.2,0.2,0.8","0.8,0.2,0.2,0.2,0.8,0.2,0.2,0.2,0.8","1","",""
"","html-keyboard-response","123","87986","0.0-123.0","3AZHRG4CU567VJG8H2M1RQNI67R03U","A2MJ0X6M3VSFVN","3WRBLBQ2GRU63BU2LFOJL1G32T90GO","","null","<img src=""img/land5.png"" style=""width:200px;border:14px solid red;"">","null","","","","","","","","","",""
"","image-keyboard-response","124","88081","0.0-124.0","3AZHRG4CU567VJG8H2M1RQNI67R03U","A2MJ0X6M3VSFVN","3WRBLBQ2GRU63BU2LFOJL1G32T90GO","","92","img/land1.png","74","94.5","1","1","1","1","0.8,0.2,0.2,0.2,0.8,0.2,0.2,0.2,0.8","0.8,0.2,0.2,0.2,0.8,0.2,0.2,0.2,0.8","1","",""
"","html-keyboard-response","125","88386","0.0-125.0","3AZHRG4CU567VJG8H2M1RQNI67R03U","A2MJ0X6M3VSFVN","3WRBLBQ2GRU63BU2LFOJL1G32T90GO","","null","<img src=""img/land1.png"" style=""width:200px; border:14px solid green;"">","null","","","","","","","","","",""
"","image-keyboard-response","126","88744","0.0-126.0","3AZHRG4CU567VJG8H2M1RQNI67R03U","A2MJ0X6M3VSFVN","3WRBLBQ2GRU63BU2LFOJL1G32T90GO","","351","img/land1.png","74","355.5","1","1","1","1","0.8,0.2,0.2,0.2,0.8,0.2,0.2,0.2,0.8","0.8,0.2,0.2,0.2,0.8,0.2,0.2,0.2,0.8","1","",""
"","html-keyboard-response","127","89053","0.0-127.0","3AZHRG4CU567VJG8H2M1RQNI67R03U","A2MJ0X6M3VSFVN","3WRBLBQ2GRU63BU2LFOJL1G32T90GO","","null","<img src=""img/land1.png"" style=""width:200px; border:14px solid green;"">","null","","","","","","","","","",""
"","image-keyboard-response","128","89212","0.0-128.0","3AZHRG4CU567VJG8H2M1RQNI67R03U","A2MJ0X6M3VSFVN","3WRBLBQ2GRU63BU2LFOJL1G32T90GO","","153.7999999821186","img/land6.png","75","157.19999998807907","2","1","2","1","0.8,0.2,0.2,0.2,0.8,0.2,0.2,0.2,0.8","0.8,0.2,0.2,0.2,0.8,0.2,0.2,0.2,0.8","1","",""
"","html-keyboard-response","129","89519","0.0-129.0","3AZHRG4CU567VJG8H2M1RQNI67R03U","A2MJ0X6M3VSFVN","3WRBLBQ2GRU63BU2LFOJL1G32T90GO","","null","<img src=""img/land6.png"" style=""width:200px; border:14px solid green;"">","null","","","","","","","","","",""
"","image-keyboard-response","130","89678","0.0-130.0","3AZHRG4CU567VJG8H2M1RQNI67R03U","A2MJ0X6M3VSFVN","3WRBLBQ2GRU63BU2LFOJL1G32T90GO","","151.5","img/land5.png","74","157.60000002384186","1","0","3","1","0.8,0.2,0.2,0.2,0.8,0.2,0.2,0.2,0.8","0.8,0.2,0.2,0.2,0.8,0.2,0.2,0.2,0.8","1","",""
"","html-keyboard-response","131","89985","0.0-131.0","3AZHRG4CU567VJG8H2M1RQNI67R03U","A2MJ0X6M3VSFVN","3WRBLBQ2GRU63BU2LFOJL1G32T90GO","","null","<img src=""img/land5.png"" style=""width:200px;border:14px solid red;"">","null","","","","","","","","","",""
"","image-keyboard-response","132","90336","0.0-132.0","3AZHRG4CU567VJG8H2M1RQNI67R03U","A2MJ0X6M3VSFVN","3WRBLBQ2GRU63BU2LFOJL1G32T90GO","","347.19999998807907","img/land6.png","75","349.90000000596046","2","1","2","1","0.8,0.2,0.2,0.2,0.8,0.2,0.2,0.2,0.8","0.8,0.2,0.2,0.2,0.8,0.2,0.2,0.2,0.8","1","",""
"","html-keyboard-response","133","90641","0.0-133.0","3AZHRG4CU567VJG8H2M1RQNI67R03U","A2MJ0X6M3VSFVN","3WRBLBQ2GRU63BU2LFOJL1G32T90GO","","null","<img src=""img/land6.png"" style=""width:200px; border:14px solid green;"">","null","","","","","","","","","",""
"","image-keyboard-response","134","90736","0.0-134.0","3AZHRG4CU567VJG8H2M1RQNI67R03U","A2MJ0X6M3VSFVN","3WRBLBQ2GRU63BU2LFOJL1G32T90GO","","90.40000000596046","img/land5.png","76","95.59999999403954","3","1","3","1","0.8,0.2,0.2,0.2,0.8,0.2,0.2,0.2,0.8","0.8,0.2,0.2,0.2,0.8,0.2,0.2,0.2,0.8","1","",""
"","html-keyboard-response","135","91043","0.0-135.0","3AZHRG4CU567VJG8H2M1RQNI67R03U","A2MJ0X6M3VSFVN","3WRBLBQ2GRU63BU2LFOJL1G32T90GO","","null","<img src=""img/land5.png"" style=""width:200px; border:14px solid green;"">","null","","","","","","","","","",""
"","image-keyboard-response","136","91484","0.0-136.0","3AZHRG4CU567VJG8H2M1RQNI67R03U","A2MJ0X6M3VSFVN","3WRBLBQ2GRU63BU2LFOJL1G32T90GO","","434.19999998807907","img/land6.png","74","438.80000001192093","1","0","2","1","0.8,0.2,0.2,0.2,0.8,0.2,0.2,0.2,0.8","0.8,0.2,0.2,0.2,0.8,0.2,0.2,0.2,0.8","1","",""
"","html-keyboard-response","137","91790","0.0-137.0","3AZHRG4CU567VJG8H2M1RQNI67R03U","A2MJ0X6M3VSFVN","3WRBLBQ2GRU63BU2LFOJL1G32T90GO","","null","<img src=""img/land6.png"" style=""width:200px;border:14px solid red;"">","null","","","","","","","","","",""
"","image-keyboard-response","138","91954","0.0-138.0","3AZHRG4CU567VJG8H2M1RQNI67R03U","A2MJ0X6M3VSFVN","3WRBLBQ2GRU63BU2LFOJL1G32T90GO","","153.30000001192093","img/land6.png","75","161.5","2","1","2","1","0.8,0.2,0.2,0.2,0.8,0.2,0.2,0.2,0.8","0.8,0.2,0.2,0.2,0.8,0.2,0.2,0.2,0.8","1","",""
"","html-keyboard-response","139","92259","0.0-139.0","3AZHRG4CU567VJG8H2M1RQNI67R03U","A2MJ0X6M3VSFVN","3WRBLBQ2GRU63BU2LFOJL1G32T90GO","","null","<img src=""img/land6.png"" style=""width:200px; border:14px solid green;"">","null","","","","","","","","","",""
"","image-keyboard-response","140","92308","0.0-140.0","3AZHRG4CU567VJG8H2M1RQNI67R03U","A2MJ0X6M3VSFVN","3WRBLBQ2GRU63BU2LFOJL1G32T90GO","","41.5","img/land6.png","74","46.69999998807907","1","0","2","1","0.8,0.2,0.2,0.2,0.8,0.2,0.2,0.2,0.8","0.8,0.2,0.2,0.2,0.8,0.2,0.2,0.2,0.8","1","",""
"","html-keyboard-response","141","92613","0.0-141.0","3AZHRG4CU567VJG8H2M1RQNI67R03U","A2MJ0X6M3VSFVN","3WRBLBQ2GRU63BU2LFOJL1G32T90GO","","null","<img src=""img/land6.png"" style=""width:200px;border:14px solid red;"">","null","","","","","","","","","",""
"","image-keyboard-response","142","92843","0.0-142.0","3AZHRG4CU567VJG8H2M1RQNI67R03U","A2MJ0X6M3VSFVN","3WRBLBQ2GRU63BU2LFOJL1G32T90GO","","223.90000000596046","img/land5.png","75","228.2999999821186","2","0","3","1","0.8,0.2,0.2,0.2,0.8,0.2,0.2,0.2,0.8","0.8,0.2,0.2,0.2,0.8,0.2,0.2,0.2,0.8","1","",""
"","html-keyboard-response","143","93153","0.0-143.0","3AZHRG4CU567VJG8H2M1RQNI67R03U","A2MJ0X6M3VSFVN","3WRBLBQ2GRU63BU2LFOJL1G32T90GO","","null","<img src=""img/land5.png"" style=""width:200px;border:14px solid red;"">","null","","","","","","","","","",""
"","image-keyboard-response","144","93171","0.0-144.0","3AZHRG4CU567VJG8H2M1RQNI67R03U","A2MJ0X6M3VSFVN","3WRBLBQ2GRU63BU2LFOJL1G32T90GO","","13.200000017881393","img/land6.png","76","16.600000023841858","3","0","2","1","0.8,0.2,0.2,0.2,0.8,0.2,0.2,0.2,0.8","0.8,0.2,0.2,0.2,0.8,0.2,0.2,0.2,0.8","1","",""
"","html-keyboard-response","145","93476","0.0-145.0","3AZHRG4CU567VJG8H2M1RQNI67R03U","A2MJ0X6M3VSFVN","3WRBLBQ2GRU63BU2LFOJL1G32T90GO","","null","<img src=""img/land6.png"" style=""width:200px;border:14px solid red;"">","null","","","","","","","","","",""
"","image-keyboard-response","146","93684","0.0-146.0","3AZHRG4CU567VJG8H2M1RQNI67R03U","A2MJ0X6M3VSFVN","3WRBLBQ2GRU63BU2LFOJL1G32T90GO","","202.40000000596046","img/land5.png","75","207.59999999403954","2","0","3","1","0.8,0.2,0.2,0.2,0.8,0.2,0.2,0.2,0.8","0.8,0.2,0.2,0.2,0.8,0.2,0.2,0.2,0.8","1","",""
"","html-keyboard-response","147","93992","0.0-147.0","3AZHRG4CU567VJG8H2M1RQNI67R03U","A2MJ0X6M3VSFVN","3WRBLBQ2GRU63BU2LFOJL1G32T90GO","","null","<img src=""img/land5.png"" style=""width:200px;border:14px solid red;"">","null","","","","","","","","","",""
"","image-keyboard-response","148","94182","0.0-148.0","3AZHRG4CU567VJG8H2M1RQNI67R03U","A2MJ0X6M3VSFVN","3WRBLBQ2GRU63BU2LFOJL1G32T90GO","","179.60000002384186","img/land5.png","76","188","3","1","3","1","0.8,0.2,0.2,0.2,0.8,0.2,0.2,0.2,0.8","0.8,0.2,0.2,0.2,0.8,0.2,0.2,0.2,0.8","1","",""
"","html-keyboard-response","149","94487","0.0-149.0","3AZHRG4CU567VJG8H2M1RQNI67R03U","A2MJ0X6M3VSFVN","3WRBLBQ2GRU63BU2LFOJL1G32T90GO","","null","<img src=""img/land5.png"" style=""width:200px; border:14px solid green;"">","null","","","","","","","","","",""
"","image-keyboard-response","150","94706","0.0-150.0","3AZHRG4CU567VJG8H2M1RQNI67R03U","A2MJ0X6M3VSFVN","3WRBLBQ2GRU63BU2LFOJL1G32T90GO","","211.7999999821186","img/land6.png","76","216.7999999821186","3","0","2","1","0.8,0.2,0.2,0.2,0.8,0.2,0.2,0.2,0.8","0.8,0.2,0.2,0.2,0.8,0.2,0.2,0.2,0.8","1","",""
"","html-keyboard-response","151","95010","0.0-151.0","3AZHRG4CU567VJG8H2M1RQNI67R03U","A2MJ0X6M3VSFVN","3WRBLBQ2GRU63BU2LFOJL1G32T90GO","","null","<img src=""img/land6.png"" style=""width:200px;border:14px solid red;"">","null","","","","","","","","","",""
"","image-keyboard-response","152","95050","0.0-152.0","3AZHRG4CU567VJG8H2M1RQNI67R03U","A2MJ0X6M3VSFVN","3WRBLBQ2GRU63BU2LFOJL1G32T90GO","","34.5","img/land5.png","75","39.400000005960464","2","0","3","1","0.8,0.2,0.2,0.2,0.8,0.2,0.2,0.2,0.8","0.8,0.2,0.2,0.2,0.8,0.2,0.2,0.2,0.8","1","",""
"","html-keyboard-response","153","95356","0.0-153.0","3AZHRG4CU567VJG8H2M1RQNI67R03U","A2MJ0X6M3VSFVN","3WRBLBQ2GRU63BU2LFOJL1G32T90GO","","null","<img src=""img/land5.png"" style=""width:200px;border:14px solid red;"">","null","","","","","","","","","",""
"","image-keyboard-response","154","95546","0.0-154.0","3AZHRG4CU567VJG8H2M1RQNI67R03U","A2MJ0X6M3VSFVN","3WRBLBQ2GRU63BU2LFOJL1G32T90GO","","183.09999999403954","img/land5.png","76","189.40000000596046","3","1","3","1","0.8,0.2,0.2,0.2,0.8,0.2,0.2,0.2,0.8","0.8,0.2,0.2,0.2,0.8,0.2,0.2,0.2,0.8","1","",""
"","html-keyboard-response","155","95851","0.0-155.0","3AZHRG4CU567VJG8H2M1RQNI67R03U","A2MJ0X6M3VSFVN","3WRBLBQ2GRU63BU2LFOJL1G32T90GO","","null","<img src=""img/land5.png"" style=""width:200px; border:14px solid green;"">","null","","","","","","","","","",""
"","image-keyboard-response","156","96015","0.0-156.0","3AZHRG4CU567VJG8H2M1RQNI67R03U","A2MJ0X6M3VSFVN","3WRBLBQ2GRU63BU2LFOJL1G32T90GO","","157.10000002384186","img/land1.png","75","162.69999998807907","2","0","1","1","0.8,0.2,0.2,0.2,0.8,0.2,0.2,0.2,0.8","0.8,0.2,0.2,0.2,0.8,0.2,0.2,0.2,0.8","1","",""
"","html-keyboard-response","157","96321","0.0-157.0","3AZHRG4CU567VJG8H2M1RQNI67R03U","A2MJ0X6M3VSFVN","3WRBLBQ2GRU63BU2LFOJL1G32T90GO","","null","<img src=""img/land1.png"" style=""width:200px;border:14px solid red;"">","null","","","","","","","","","",""
"","image-keyboard-response","158","96400","0.0-158.0","3AZHRG4CU567VJG8H2M1RQNI67R03U","A2MJ0X6M3VSFVN","3WRBLBQ2GRU63BU2LFOJL1G32T90GO","","73.5","img/land5.png","76","77.90000000596046","3","1","3","1","0.8,0.2,0.2,0.2,0.8,0.2,0.2,0.2,0.8","0.8,0.2,0.2,0.2,0.8,0.2,0.2,0.2,0.8","1","",""
"","html-keyboard-response","159","96705","0.0-159.0","3AZHRG4CU567VJG8H2M1RQNI67R03U","A2MJ0X6M3VSFVN","3WRBLBQ2GRU63BU2LFOJL1G32T90GO","","null","<img src=""img/land5.png"" style=""width:200px; border:14px solid green;"">","null","","","","","","","","","",""
"","image-keyboard-response","160","96858","0.0-160.0","3AZHRG4CU567VJG8H2M1RQNI67R03U","A2MJ0X6M3VSFVN","3WRBLBQ2GRU63BU2LFOJL1G32T90GO","","147.30000001192093","img/land1.png","75","152.39999997615814","2","0","1","1","0.8,0.2,0.2,0.2,0.8,0.2,0.2,0.2,0.8","0.8,0.2,0.2,0.2,0.8,0.2,0.2,0.2,0.8","1","",""
"","html-keyboard-response","161","97163","0.0-161.0","3AZHRG4CU567VJG8H2M1RQNI67R03U","A2MJ0X6M3VSFVN","3WRBLBQ2GRU63BU2LFOJL1G32T90GO","","null","<img src=""img/land1.png"" style=""width:200px;border:14px solid red;"">","null","","","","","","","","","",""
"","image-keyboard-response","162","97337","0.0-162.0","3AZHRG4CU567VJG8H2M1RQNI67R03U","A2MJ0X6M3VSFVN","3WRBLBQ2GRU63BU2LFOJL1G32T90GO","","168.69999998807907","img/land5.png","76","173","3","0","3","1","0.8,0.2,0.2,0.2,0.8,0.2,0.2,0.2,0.8","0.8,0.2,0.2,0.2,0.8,0.2,0.2,0.2,0.8","1","",""
"","html-keyboard-response","163","97641","0.0-163.0","3AZHRG4CU567VJG8H2M1RQNI67R03U","A2MJ0X6M3VSFVN","3WRBLBQ2GRU63BU2LFOJL1G32T90GO","","null","<img src=""img/land5.png"" style=""width:200px;border:14px solid red;"">","null","","","","","","","","","",""
"","image-keyboard-response","164","97656","0.0-164.0","3AZHRG4CU567VJG8H2M1RQNI67R03U","A2MJ0X6M3VSFVN","3WRBLBQ2GRU63BU2LFOJL1G32T90GO","","10.100000023841858","img/land5.png","76","14","3","1","3","1","0.8,0.2,0.2,0.2,0.8,0.2,0.2,0.2,0.8","0.8,0.2,0.2,0.2,0.8,0.2,0.2,0.2,0.8","1","",""
"","html-keyboard-response","165","97960","0.0-165.0","3AZHRG4CU567VJG8H2M1RQNI67R03U","A2MJ0X6M3VSFVN","3WRBLBQ2GRU63BU2LFOJL1G32T90GO","","null","<img src=""img/land5.png"" style=""width:200px; border:14px solid green;"">","null","","","","","","","","","",""
"","image-keyboard-response","166","98029","0.0-166.0","3AZHRG4CU567VJG8H2M1RQNI67R03U","A2MJ0X6M3VSFVN","3WRBLBQ2GRU63BU2LFOJL1G32T90GO","","63.20000001788139","img/land1.png","75","67.89999997615814","2","0","1","1","0.8,0.2,0.2,0.2,0.8,0.2,0.2,0.2,0.8","0.8,0.2,0.2,0.2,0.8,0.2,0.2,0.2,0.8","1","",""
"","html-keyboard-response","167","98334","0.0-167.0","3AZHRG4CU567VJG8H2M1RQNI67R03U","A2MJ0X6M3VSFVN","3WRBLBQ2GRU63BU2LFOJL1G32T90GO","","null","<img src=""img/land1.png"" style=""width:200px;border:14px solid red;"">","null","","","","","","","","","",""
"","image-keyboard-response","168","98766","0.0-168.0","3AZHRG4CU567VJG8H2M1RQNI67R03U","A2MJ0X6M3VSFVN","3WRBLBQ2GRU63BU2LFOJL1G32T90GO","","425.90000000596046","img/land6.png","74","431.09999999403954","1","0","2","1","0.8,0.2,0.2,0.2,0.8,0.2,0.2,0.2,0.8","0.8,0.2,0.2,0.2,0.8,0.2,0.2,0.2,0.8","1","",""
"","html-keyboard-response","169","99071","0.0-169.0","3AZHRG4CU567VJG8H2M1RQNI67R03U","A2MJ0X6M3VSFVN","3WRBLBQ2GRU63BU2LFOJL1G32T90GO","","null","<img src=""img/land6.png"" style=""width:200px;border:14px solid red;"">","null","","","","","","","","","",""
"","image-keyboard-response","170","99238","0.0-170.0","3AZHRG4CU567VJG8H2M1RQNI67R03U","A2MJ0X6M3VSFVN","3WRBLBQ2GRU63BU2LFOJL1G32T90GO","","159.59999999403954","img/land1.png","75","164.7999999821186","2","0","1","1","0.8,0.2,0.2,0.2,0.8,0.2,0.2,0.2,0.8","0.8,0.2,0.2,0.2,0.8,0.2,0.2,0.2,0.8","1","",""
"","html-keyboard-response","171","99543","0.0-171.0","3AZHRG4CU567VJG8H2M1RQNI67R03U","A2MJ0X6M3VSFVN","3WRBLBQ2GRU63BU2LFOJL1G32T90GO","","null","<img src=""img/land1.png"" style=""width:200px;border:14px solid red;"">","null","","","","","","","","","",""
"","image-keyboard-response","172","99802","0.0-172.0","3AZHRG4CU567VJG8H2M1RQNI67R03U","A2MJ0X6M3VSFVN","3WRBLBQ2GRU63BU2LFOJL1G32T90GO","","250.09999999403954","img/land6.png","76","256.59999999403954","3","0","2","1","0.8,0.2,0.2,0.2,0.8,0.2,0.2,0.2,0.8","0.8,0.2,0.2,0.2,0.8,0.2,0.2,0.2,0.8","1","",""
"","html-keyboard-response","173","100107","0.0-173.0","3AZHRG4CU567VJG8H2M1RQNI67R03U","A2MJ0X6M3VSFVN","3WRBLBQ2GRU63BU2LFOJL1G32T90GO","","null","<img src=""img/land6.png"" style=""width:200px;border:14px solid red;"">","null","","","","","","","","","",""
"","image-keyboard-response","174","100418","0.0-174.0","3AZHRG4CU567VJG8H2M1RQNI67R03U","A2MJ0X6M3VSFVN","3WRBLBQ2GRU63BU2LFOJL1G32T90GO","","305.89999997615814","img/land6.png","76","310.30000001192093","3","0","2","1","0.8,0.2,0.2,0.2,0.8,0.2,0.2,0.2,0.8","0.8,0.2,0.2,0.2,0.8,0.2,0.2,0.2,0.8","1","",""
"","html-keyboard-response","175","100724","0.0-175.0","3AZHRG4CU567VJG8H2M1RQNI67R03U","A2MJ0X6M3VSFVN","3WRBLBQ2GRU63BU2LFOJL1G32T90GO","","null","<img src=""img/land6.png"" style=""width:200px;border:14px solid red;"">","null","","","","","","","","","",""
"","image-keyboard-response","176","100846","0.0-176.0","3AZHRG4CU567VJG8H2M1RQNI67R03U","A2MJ0X6M3VSFVN","3WRBLBQ2GRU63BU2LFOJL1G32T90GO","","114.19999998807907","img/land6.png","75","119.59999999403954","2","0","2","1","0.8,0.2,0.2,0.2,0.8,0.2,0.2,0.2,0.8","0.8,0.2,0.2,0.2,0.8,0.2,0.2,0.2,0.8","1","",""
"","html-keyboard-response","177","101152","0.0-177.0","3AZHRG4CU567VJG8H2M1RQNI67R03U","A2MJ0X6M3VSFVN","3WRBLBQ2GRU63BU2LFOJL1G32T90GO","","null","<img src=""img/land6.png"" style=""width:200px;border:14px solid red;"">","null","","","","","","","","","",""
"","image-keyboard-response","178","101246","0.0-178.0","3AZHRG4CU567VJG8H2M1RQNI67R03U","A2MJ0X6M3VSFVN","3WRBLBQ2GRU63BU2LFOJL1G32T90GO","","86.90000000596046","img/land1.png","74","91","1","1","1","1","0.8,0.2,0.2,0.2,0.8,0.2,0.2,0.2,0.8","0.8,0.2,0.2,0.2,0.8,0.2,0.2,0.2,0.8","1","",""
"","html-keyboard-response","179","101549","0.0-179.0","3AZHRG4CU567VJG8H2M1RQNI67R03U","A2MJ0X6M3VSFVN","3WRBLBQ2GRU63BU2LFOJL1G32T90GO","","null","<img src=""img/land1.png"" style=""width:200px; border:14px solid green;"">","null","","","","","","","","","",""
"","image-keyboard-response","180","101896","0.0-180.0","3AZHRG4CU567VJG8H2M1RQNI67R03U","A2MJ0X6M3VSFVN","3WRBLBQ2GRU63BU2LFOJL1G32T90GO","","343.59999999403954","img/land1.png","74","346.80000001192093","1","1","1","1","0.8,0.2,0.2,0.2,0.8,0.2,0.2,0.2,0.8","0.8,0.2,0.2,0.2,0.8,0.2,0.2,0.2,0.8","1","",""
"","html-keyboard-response","181","102200","0.0-181.0","3AZHRG4CU567VJG8H2M1RQNI67R03U","A2MJ0X6M3VSFVN","3WRBLBQ2GRU63BU2LFOJL1G32T90GO","","null","<img src=""img/land1.png"" style=""width:200px; border:14px solid green;"">","null","","","","","","","","","",""
"","html-keyboard-response","182","106496","0.0-182.0","3AZHRG4CU567VJG8H2M1RQNI67R03U","A2MJ0X6M3VSFVN","3WRBLBQ2GRU63BU2LFOJL1G32T90GO","","","","","","","","","","","","","",""
"","image-keyboard-response","183","108068","0.0-183.0","3AZHRG4CU567VJG8H2M1RQNI67R03U","A2MJ0X6M3VSFVN","3WRBLBQ2GRU63BU2LFOJL1G32T90GO","","1564.7999999821186","img/land2.png","75","1571.5","2","0","3","2","0.8,0.2,0.2,0.2,0.8,0.2,0.2,0.2,0.8","0.8,0.2,0.2,0.2,0.8,0.2,0.2,0.2,0.8","1","",""
"","html-keyboard-response","184","108374","0.0-184.0","3AZHRG4CU567VJG8H2M1RQNI67R03U","A2MJ0X6M3VSFVN","3WRBLBQ2GRU63BU2LFOJL1G32T90GO","","null","<img src=""img/land2.png"" style=""width:200px;border:14px solid red;"">","null","","","","","","","","","",""
"","image-keyboard-response","185","109027","0.0-185.0","3AZHRG4CU567VJG8H2M1RQNI67R03U","A2MJ0X6M3VSFVN","3WRBLBQ2GRU63BU2LFOJL1G32T90GO","","647.5","img/land3.png","75","652.6999999880791","2","0","1","2","0.8,0.2,0.2,0.2,0.8,0.2,0.2,0.2,0.8","0.8,0.2,0.2,0.2,0.8,0.2,0.2,0.2,0.8","1","",""
"","html-keyboard-response","186","109334","0.0-186.0","3AZHRG4CU567VJG8H2M1RQNI67R03U","A2MJ0X6M3VSFVN","3WRBLBQ2GRU63BU2LFOJL1G32T90GO","","null","<img src=""img/land3.png"" style=""width:200px;border:14px solid red;"">","null","","","","","","","","","",""
"","image-keyboard-response","187","109860","0.0-187.0","3AZHRG4CU567VJG8H2M1RQNI67R03U","A2MJ0X6M3VSFVN","3WRBLBQ2GRU63BU2LFOJL1G32T90GO","","516","img/land4.png","75","524.6999999880791","2","1","2","2","0.8,0.2,0.2,0.2,0.8,0.2,0.2,0.2,0.8","0.8,0.2,0.2,0.2,0.8,0.2,0.2,0.2,0.8","1","",""
"","html-keyboard-response","188","110166","0.0-188.0","3AZHRG4CU567VJG8H2M1RQNI67R03U","A2MJ0X6M3VSFVN","3WRBLBQ2GRU63BU2LFOJL1G32T90GO","","null","<img src=""img/land4.png"" style=""width:200px; border:14px solid green;"">","null","","","","","","","","","",""
"","image-keyboard-response","189","110662","0.0-189.0","3AZHRG4CU567VJG8H2M1RQNI67R03U","A2MJ0X6M3VSFVN","3WRBLBQ2GRU63BU2LFOJL1G32T90GO","","486.59999999403954","img/land4.png","75","492.09999999403954","2","1","2","2","0.8,0.2,0.2,0.2,0.8,0.2,0.2,0.2,0.8","0.8,0.2,0.2,0.2,0.8,0.2,0.2,0.2,0.8","1","",""
"","html-keyboard-response","190","110967","0.0-190.0","3AZHRG4CU567VJG8H2M1RQNI67R03U","A2MJ0X6M3VSFVN","3WRBLBQ2GRU63BU2LFOJL1G32T90GO","","null","<img src=""img/land4.png"" style=""width:200px; border:14px solid green;"">","null","","","","","","","","","",""
"","image-keyboard-response","191","111067","0.0-191.0","3AZHRG4CU567VJG8H2M1RQNI67R03U","A2MJ0X6M3VSFVN","3WRBLBQ2GRU63BU2LFOJL1G32T90GO","","92.80000001192093","img/land3.png","76","96.90000000596046","3","0","1","2","0.8,0.2,0.2,0.2,0.8,0.2,0.2,0.2,0.8","0.8,0.2,0.2,0.2,0.8,0.2,0.2,0.2,0.8","1","",""
"","html-keyboard-response","192","111373","0.0-192.0","3AZHRG4CU567VJG8H2M1RQNI67R03U","A2MJ0X6M3VSFVN","3WRBLBQ2GRU63BU2LFOJL1G32T90GO","","null","<img src=""img/land3.png"" style=""width:200px;border:14px solid red;"">","null","","","","","","","","","",""
"","image-keyboard-response","193","111654","0.0-193.0","3AZHRG4CU567VJG8H2M1RQNI67R03U","A2MJ0X6M3VSFVN","3WRBLBQ2GRU63BU2LFOJL1G32T90GO","","274.80000001192093","img/land3.png","76","279.5","3","0","1","2","0.8,0.2,0.2,0.2,0.8,0.2,0.2,0.2,0.8","0.8,0.2,0.2,0.2,0.8,0.2,0.2,0.2,0.8","1","",""
"","html-keyboard-response","194","111959","0.0-194.0","3AZHRG4CU567VJG8H2M1RQNI67R03U","A2MJ0X6M3VSFVN","3WRBLBQ2GRU63BU2LFOJL1G32T90GO","","null","<img src=""img/land3.png"" style=""width:200px;border:14px solid red;"">","null","","","","","","","","","",""
"","image-keyboard-response","195","112655","0.0-195.0","3AZHRG4CU567VJG8H2M1RQNI67R03U","A2MJ0X6M3VSFVN","3WRBLBQ2GRU63BU2LFOJL1G32T90GO","","690.3000000119209","img/land3.png","75","693.8999999761581","2","0","1","2","0.8,0.2,0.2,0.2,0.8,0.2,0.2,0.2,0.8","0.8,0.2,0.2,0.2,0.8,0.2,0.2,0.2,0.8","1","",""
"","html-keyboard-response","196","112962","0.0-196.0","3AZHRG4CU567VJG8H2M1RQNI67R03U","A2MJ0X6M3VSFVN","3WRBLBQ2GRU63BU2LFOJL1G32T90GO","","null","<img src=""img/land3.png"" style=""width:200px;border:14px solid red;"">","null","","","","","","","","","",""
"","image-keyboard-response","197","113432","0.0-197.0","3AZHRG4CU567VJG8H2M1RQNI67R03U","A2MJ0X6M3VSFVN","3WRBLBQ2GRU63BU2LFOJL1G32T90GO","","463.19999998807907","img/land4.png","74","468.5","1","0","2","2","0.8,0.2,0.2,0.2,0.8,0.2,0.2,0.2,0.8","0.8,0.2,0.2,0.2,0.8,0.2,0.2,0.2,0.8","1","",""
"","html-keyboard-response","198","113739","0.0-198.0","3AZHRG4CU567VJG8H2M1RQNI67R03U","A2MJ0X6M3VSFVN","3WRBLBQ2GRU63BU2LFOJL1G32T90GO","","null","<img src=""img/land4.png"" style=""width:200px;border:14px solid red;"">","null","","","","","","","","","",""
"","image-keyboard-response","199","114952","0.0-199.0","3AZHRG4CU567VJG8H2M1RQNI67R03U","A2MJ0X6M3VSFVN","3WRBLBQ2GRU63BU2LFOJL1G32T90GO","","1206.0999999940395","img/land2.png","74","1211","1","1","3","2","0.8,0.2,0.2,0.2,0.8,0.2,0.2,0.2,0.8","0.8,0.2,0.2,0.2,0.8,0.2,0.2,0.2,0.8","1","",""
"","html-keyboard-response","200","115256","0.0-200.0","3AZHRG4CU567VJG8H2M1RQNI67R03U","A2MJ0X6M3VSFVN","3WRBLBQ2GRU63BU2LFOJL1G32T90GO","","null","<img src=""img/land2.png"" style=""width:200px; border:14px solid green;"">","null","","","","","","","","","",""
"","image-keyboard-response","201","115534","0.0-201.0","3AZHRG4CU567VJG8H2M1RQNI67R03U","A2MJ0X6M3VSFVN","3WRBLBQ2GRU63BU2LFOJL1G32T90GO","","273.59999999403954","img/land3.png","75","277","2","1","1","2","0.8,0.2,0.2,0.2,0.8,0.2,0.2,0.2,0.8","0.8,0.2,0.2,0.2,0.8,0.2,0.2,0.2,0.8","1","",""
"","html-keyboard-response","202","115839","0.0-202.0","3AZHRG4CU567VJG8H2M1RQNI67R03U","A2MJ0X6M3VSFVN","3WRBLBQ2GRU63BU2LFOJL1G32T90GO","","null","<img src=""img/land3.png"" style=""width:200px; border:14px solid green;"">","null","","","","","","","","","",""
"","image-keyboard-response","203","116337","0.0-203.0","3AZHRG4CU567VJG8H2M1RQNI67R03U","A2MJ0X6M3VSFVN","3WRBLBQ2GRU63BU2LFOJL1G32T90GO","","489.90000000596046","img/land2.png","76","496.7000000178814","3","1","3","2","0.8,0.2,0.2,0.2,0.8,0.2,0.2,0.2,0.8","0.8,0.2,0.2,0.2,0.8,0.2,0.2,0.2,0.8","1","",""
"","html-keyboard-response","204","116642","0.0-204.0","3AZHRG4CU567VJG8H2M1RQNI67R03U","A2MJ0X6M3VSFVN","3WRBLBQ2GRU63BU2LFOJL1G32T90GO","","null","<img src=""img/land2.png"" style=""width:200px; border:14px solid green;"">","null","","","","","","","","","",""
"","image-keyboard-response","205","116974","0.0-205.0","3AZHRG4CU567VJG8H2M1RQNI67R03U","A2MJ0X6M3VSFVN","3WRBLBQ2GRU63BU2LFOJL1G32T90GO","","325.80000001192093","img/land2.png","74","331.5","1","0","3","2","0.8,0.2,0.2,0.2,0.8,0.2,0.2,0.2,0.8","0.8,0.2,0.2,0.2,0.8,0.2,0.2,0.2,0.8","1","",""
"","html-keyboard-response","206","117280","0.0-206.0","3AZHRG4CU567VJG8H2M1RQNI67R03U","A2MJ0X6M3VSFVN","3WRBLBQ2GRU63BU2LFOJL1G32T90GO","","null","<img src=""img/land2.png"" style=""width:200px;border:14px solid red;"">","null","","","","","","","","","",""
"","image-keyboard-response","207","117487","0.0-207.0","3AZHRG4CU567VJG8H2M1RQNI67R03U","A2MJ0X6M3VSFVN","3WRBLBQ2GRU63BU2LFOJL1G32T90GO","","198.7999999821186","img/land3.png","75","203.30000001192093","2","0","1","2","0.8,0.2,0.2,0.2,0.8,0.2,0.2,0.2,0.8","0.8,0.2,0.2,0.2,0.8,0.2,0.2,0.2,0.8","1","",""
"","html-keyboard-response","208","117792","0.0-208.0","3AZHRG4CU567VJG8H2M1RQNI67R03U","A2MJ0X6M3VSFVN","3WRBLBQ2GRU63BU2LFOJL1G32T90GO","","null","<img src=""img/land3.png"" style=""width:200px;border:14px solid red;"">","null","","","","","","","","","",""
"","image-keyboard-response","209","118070","0.0-209.0","3AZHRG4CU567VJG8H2M1RQNI67R03U","A2MJ0X6M3VSFVN","3WRBLBQ2GRU63BU2LFOJL1G32T90GO","","270.19999998807907","img/land2.png","76","275.69999998807907","3","1","3","2","0.8,0.2,0.2,0.2,0.8,0.2,0.2,0.2,0.8","0.8,0.2,0.2,0.2,0.8,0.2,0.2,0.2,0.8","1","",""
"","html-keyboard-response","210","118378","0.0-210.0","3AZHRG4CU567VJG8H2M1RQNI67R03U","A2MJ0X6M3VSFVN","3WRBLBQ2GRU63BU2LFOJL1G32T90GO","","null","<img src=""img/land2.png"" style=""width:200px; border:14px solid green;"">","null","","","","","","","","","",""
"","image-keyboard-response","211","119376","0.0-211.0","3AZHRG4CU567VJG8H2M1RQNI67R03U","A2MJ0X6M3VSFVN","3WRBLBQ2GRU63BU2LFOJL1G32T90GO","","990.2000000178814","img/land3.png","76","996.4000000059605","3","0","1","2","0.8,0.2,0.2,0.2,0.8,0.2,0.2,0.2,0.8","0.8,0.2,0.2,0.2,0.8,0.2,0.2,0.2,0.8","1","",""
"","html-keyboard-response","212","119682","0.0-212.0","3AZHRG4CU567VJG8H2M1RQNI67R03U","A2MJ0X6M3VSFVN","3WRBLBQ2GRU63BU2LFOJL1G32T90GO","","null","<img src=""img/land3.png"" style=""width:200px;border:14px solid red;"">","null","","","","","","","","","",""
"","image-keyboard-response","213","120159","0.0-213.0","3AZHRG4CU567VJG8H2M1RQNI67R03U","A2MJ0X6M3VSFVN","3WRBLBQ2GRU63BU2LFOJL1G32T90GO","","470.7000000178814","img/land3.png","75","476.80000001192093","2","0","1","2","0.8,0.2,0.2,0.2,0.8,0.2,0.2,0.2,0.8","0.8,0.2,0.2,0.2,0.8,0.2,0.2,0.2,0.8","1","",""
"","html-keyboard-response","214","120466","0.0-214.0","3AZHRG4CU567VJG8H2M1RQNI67R03U","A2MJ0X6M3VSFVN","3WRBLBQ2GRU63BU2LFOJL1G32T90GO","","null","<img src=""img/land3.png"" style=""width:200px;border:14px solid red;"">","null","","","","","","","","","",""
"","image-keyboard-response","215","120588","0.0-215.0","3AZHRG4CU567VJG8H2M1RQNI67R03U","A2MJ0X6M3VSFVN","3WRBLBQ2GRU63BU2LFOJL1G32T90GO","","117.40000000596046","img/land4.png","74","120.5","1","0","2","2","0.8,0.2,0.2,0.2,0.8,0.2,0.2,0.2,0.8","0.8,0.2,0.2,0.2,0.8,0.2,0.2,0.2,0.8","1","",""
"","html-keyboard-response","216","120896","0.0-216.0","3AZHRG4CU567VJG8H2M1RQNI67R03U","A2MJ0X6M3VSFVN","3WRBLBQ2GRU63BU2LFOJL1G32T90GO","","null","<img src=""img/land4.png"" style=""width:200px;border:14px solid red;"">","null","","","","","","","","","",""
"","image-keyboard-response","217","121060","0.0-217.0","3AZHRG4CU567VJG8H2M1RQNI67R03U","A2MJ0X6M3VSFVN","3WRBLBQ2GRU63BU2LFOJL1G32T90GO","","157.7999999821186","img/land3.png","76","161.5","3","1","1","2","0.8,0.2,0.2,0.2,0.8,0.2,0.2,0.2,0.8","0.8,0.2,0.2,0.2,0.8,0.2,0.2,0.2,0.8","1","",""
"","html-keyboard-response","218","121366","0.0-218.0","3AZHRG4CU567VJG8H2M1RQNI67R03U","A2MJ0X6M3VSFVN","3WRBLBQ2GRU63BU2LFOJL1G32T90GO","","null","<img src=""img/land3.png"" style=""width:200px; border:14px solid green;"">","null","","","","","","","","","",""
"","image-keyboard-response","219","122093","0.0-219.0","3AZHRG4CU567VJG8H2M1RQNI67R03U","A2MJ0X6M3VSFVN","3WRBLBQ2GRU63BU2LFOJL1G32T90GO","","717.8000000119209","img/land2.png","76","725.0999999940395","3","1","3","2","0.8,0.2,0.2,0.2,0.8,0.2,0.2,0.2,0.8","0.8,0.2,0.2,0.2,0.8,0.2,0.2,0.2,0.8","1","",""
"","html-keyboard-response","220","122397","0.0-220.0","3AZHRG4CU567VJG8H2M1RQNI67R03U","A2MJ0X6M3VSFVN","3WRBLBQ2GRU63BU2LFOJL1G32T90GO","","null","<img src=""img/land2.png"" style=""width:200px; border:14px solid green;"">","null","","","","","","","","","",""
"","image-keyboard-response","221","123168","0.0-221.0","3AZHRG4CU567VJG8H2M1RQNI67R03U","A2MJ0X6M3VSFVN","3WRBLBQ2GRU63BU2LFOJL1G32T90GO","","766.5","img/land3.png","76","770.6999999880791","3","1","1","2","0.8,0.2,0.2,0.2,0.8,0.2,0.2,0.2,0.8","0.8,0.2,0.2,0.2,0.8,0.2,0.2,0.2,0.8","1","",""
"","html-keyboard-response","222","123475","0.0-222.0","3AZHRG4CU567VJG8H2M1RQNI67R03U","A2MJ0X6M3VSFVN","3WRBLBQ2GRU63BU2LFOJL1G32T90GO","","null","<img src=""img/land3.png"" style=""width:200px; border:14px solid green;"">","null","","","","","","","","","",""
"","image-keyboard-response","223","124053","0.0-223.0","3AZHRG4CU567VJG8H2M1RQNI67R03U","A2MJ0X6M3VSFVN","3WRBLBQ2GRU63BU2LFOJL1G32T90GO","","571.5","img/land3.png","76","579.5","3","0","1","2","0.8,0.2,0.2,0.2,0.8,0.2,0.2,0.2,0.8","0.8,0.2,0.2,0.2,0.8,0.2,0.2,0.2,0.8","1","",""
"","html-keyboard-response","224","124362","0.0-224.0","3AZHRG4CU567VJG8H2M1RQNI67R03U","A2MJ0X6M3VSFVN","3WRBLBQ2GRU63BU2LFOJL1G32T90GO","","null","<img src=""img/land3.png"" style=""width:200px;border:14px solid red;"">","null","","","","","","","","","",""
"","image-keyboard-response","225","125041","0.0-225.0","3AZHRG4CU567VJG8H2M1RQNI67R03U","A2MJ0X6M3VSFVN","3WRBLBQ2GRU63BU2LFOJL1G32T90GO","","671.3000000119209","img/land2.png","75","677.6999999880791","2","0","3","2","0.8,0.2,0.2,0.2,0.8,0.2,0.2,0.2,0.8","0.8,0.2,0.2,0.2,0.8,0.2,0.2,0.2,0.8","1","",""
"","html-keyboard-response","226","125350","0.0-226.0","3AZHRG4CU567VJG8H2M1RQNI67R03U","A2MJ0X6M3VSFVN","3WRBLBQ2GRU63BU2LFOJL1G32T90GO","","null","<img src=""img/land2.png"" style=""width:200px;border:14px solid red;"">","null","","","","","","","","","",""
"","image-keyboard-response","227","125812","0.0-227.0","3AZHRG4CU567VJG8H2M1RQNI67R03U","A2MJ0X6M3VSFVN","3WRBLBQ2GRU63BU2LFOJL1G32T90GO","","456","img/land3.png","75","461.80000001192093","2","0","1","2","0.8,0.2,0.2,0.2,0.8,0.2,0.2,0.2,0.8","0.8,0.2,0.2,0.2,0.8,0.2,0.2,0.2,0.8","1","",""
"","html-keyboard-response","228","126118","0.0-228.0","3AZHRG4CU567VJG8H2M1RQNI67R03U","A2MJ0X6M3VSFVN","3WRBLBQ2GRU63BU2LFOJL1G32T90GO","","null","<img src=""img/land3.png"" style=""width:200px;border:14px solid red;"">","null","","","","","","","","","",""
"","image-keyboard-response","229","126372","0.0-229.0","3AZHRG4CU567VJG8H2M1RQNI67R03U","A2MJ0X6M3VSFVN","3WRBLBQ2GRU63BU2LFOJL1G32T90GO","","244.7000000178814","img/land4.png","76","252.40000000596046","3","0","2","2","0.8,0.2,0.2,0.2,0.8,0.2,0.2,0.2,0.8","0.8,0.2,0.2,0.2,0.8,0.2,0.2,0.2,0.8","1","",""
"","html-keyboard-response","230","126680","0.0-230.0","3AZHRG4CU567VJG8H2M1RQNI67R03U","A2MJ0X6M3VSFVN","3WRBLBQ2GRU63BU2LFOJL1G32T90GO","","null","<img src=""img/land4.png"" style=""width:200px;border:14px solid red;"">","null","","","","","","","","","",""
"","image-keyboard-response","231","127576","0.0-231.0","3AZHRG4CU567VJG8H2M1RQNI67R03U","A2MJ0X6M3VSFVN","3WRBLBQ2GRU63BU2LFOJL1G32T90GO","","889.9000000059605","img/land3.png","76","894.5999999940395","3","0","1","2","0.8,0.2,0.2,0.2,0.8,0.2,0.2,0.2,0.8","0.8,0.2,0.2,0.2,0.8,0.2,0.2,0.2,0.8","1","",""
"","html-keyboard-response","232","127883","0.0-232.0","3AZHRG4CU567VJG8H2M1RQNI67R03U","A2MJ0X6M3VSFVN","3WRBLBQ2GRU63BU2LFOJL1G32T90GO","","null","<img src=""img/land3.png"" style=""width:200px;border:14px solid red;"">","null","","","","","","","","","",""
"","image-keyboard-response","233","128391","0.0-233.0","3AZHRG4CU567VJG8H2M1RQNI67R03U","A2MJ0X6M3VSFVN","3WRBLBQ2GRU63BU2LFOJL1G32T90GO","","501.30000001192093","img/land4.png","75","505.7999999821186","2","1","2","2","0.8,0.2,0.2,0.2,0.8,0.2,0.2,0.2,0.8","0.8,0.2,0.2,0.2,0.8,0.2,0.2,0.2,0.8","1","",""
"","html-keyboard-response","234","128701","0.0-234.0","3AZHRG4CU567VJG8H2M1RQNI67R03U","A2MJ0X6M3VSFVN","3WRBLBQ2GRU63BU2LFOJL1G32T90GO","","null","<img src=""img/land4.png"" style=""width:200px; border:14px solid green;"">","null","","","","","","","","","",""
"","image-keyboard-response","235","129109","0.0-235.0","3AZHRG4CU567VJG8H2M1RQNI67R03U","A2MJ0X6M3VSFVN","3WRBLBQ2GRU63BU2LFOJL1G32T90GO","","400.80000001192093","img/land3.png","75","405.69999998807907","2","0","1","2","0.8,0.2,0.2,0.2,0.8,0.2,0.2,0.2,0.8","0.8,0.2,0.2,0.2,0.8,0.2,0.2,0.2,0.8","1","",""
"","html-keyboard-response","236","129417","0.0-236.0","3AZHRG4CU567VJG8H2M1RQNI67R03U","A2MJ0X6M3VSFVN","3WRBLBQ2GRU63BU2LFOJL1G32T90GO","","null","<img src=""img/land3.png"" style=""width:200px;border:14px solid red;"">","null","","","","","","","","","",""
"","image-keyboard-response","237","129655","0.0-237.0","3AZHRG4CU567VJG8H2M1RQNI67R03U","A2MJ0X6M3VSFVN","3WRBLBQ2GRU63BU2LFOJL1G32T90GO","","230.59999999403954","img/land3.png","76","236.5","3","1","1","2","0.8,0.2,0.2,0.2,0.8,0.2,0.2,0.2,0.8","0.8,0.2,0.2,0.2,0.8,0.2,0.2,0.2,0.8","1","",""
"","html-keyboard-response","238","129961","0.0-238.0","3AZHRG4CU567VJG8H2M1RQNI67R03U","A2MJ0X6M3VSFVN","3WRBLBQ2GRU63BU2LFOJL1G32T90GO","","null","<img src=""img/land3.png"" style=""width:200px; border:14px solid green;"">","null","","","","","","","","","",""
"","image-keyboard-response","239","130459","0.0-239.0","3AZHRG4CU567VJG8H2M1RQNI67R03U","A2MJ0X6M3VSFVN","3WRBLBQ2GRU63BU2LFOJL1G32T90GO","","488.90000000596046","img/land2.png","76","495.59999999403954","3","1","3","2","0.8,0.2,0.2,0.2,0.8,0.2,0.2,0.2,0.8","0.8,0.2,0.2,0.2,0.8,0.2,0.2,0.2,0.8","1","",""
"","html-keyboard-response","240","130765","0.0-240.0","3AZHRG4CU567VJG8H2M1RQNI67R03U","A2MJ0X6M3VSFVN","3WRBLBQ2GRU63BU2LFOJL1G32T90GO","","null","<img src=""img/land2.png"" style=""width:200px; border:14px solid green;"">","null","","","","","","","","","",""
"","image-keyboard-response","241","131063","0.0-241.0","3AZHRG4CU567VJG8H2M1RQNI67R03U","A2MJ0X6M3VSFVN","3WRBLBQ2GRU63BU2LFOJL1G32T90GO","","289.09999999403954","img/land3.png","76","296.2000000178814","3","1","1","2","0.8,0.2,0.2,0.2,0.8,0.2,0.2,0.2,0.8","0.8,0.2,0.2,0.2,0.8,0.2,0.2,0.2,0.8","1","",""
"","html-keyboard-response","242","131368","0.0-242.0","3AZHRG4CU567VJG8H2M1RQNI67R03U","A2MJ0X6M3VSFVN","3WRBLBQ2GRU63BU2LFOJL1G32T90GO","","null","<img src=""img/land3.png"" style=""width:200px; border:14px solid green;"">","null","","","","","","","","","",""
"","image-keyboard-response","243","131567","0.0-243.0","3AZHRG4CU567VJG8H2M1RQNI67R03U","A2MJ0X6M3VSFVN","3WRBLBQ2GRU63BU2LFOJL1G32T90GO","","192.69999998807907","img/land4.png","75","197.40000000596046","2","1","2","2","0.8,0.2,0.2,0.2,0.8,0.2,0.2,0.2,0.8","0.8,0.2,0.2,0.2,0.8,0.2,0.2,0.2,0.8","1","",""
"","html-keyboard-response","244","131872","0.0-244.0","3AZHRG4CU567VJG8H2M1RQNI67R03U","A2MJ0X6M3VSFVN","3WRBLBQ2GRU63BU2LFOJL1G32T90GO","","null","<img src=""img/land4.png"" style=""width:200px; border:14px solid green;"">","null","","","","","","","","","",""
"","image-keyboard-response","245","132216","0.0-245.0","3AZHRG4CU567VJG8H2M1RQNI67R03U","A2MJ0X6M3VSFVN","3WRBLBQ2GRU63BU2LFOJL1G32T90GO","","335.69999998807907","img/land3.png","75","343.19999998807907","2","0","1","2","0.8,0.2,0.2,0.2,0.8,0.2,0.2,0.2,0.8","0.8,0.2,0.2,0.2,0.8,0.2,0.2,0.2,0.8","1","",""
"","html-keyboard-response","246","132523","0.0-246.0","3AZHRG4CU567VJG8H2M1RQNI67R03U","A2MJ0X6M3VSFVN","3WRBLBQ2GRU63BU2LFOJL1G32T90GO","","null","<img src=""img/land3.png"" style=""width:200px;border:14px solid red;"">","null","","","","","","","","","",""
"","image-keyboard-response","247","132821","0.0-247.0","3AZHRG4CU567VJG8H2M1RQNI67R03U","A2MJ0X6M3VSFVN","3WRBLBQ2GRU63BU2LFOJL1G32T90GO","","290.7000000178814","img/land3.png","75","295","2","0","1","2","0.8,0.2,0.2,0.2,0.8,0.2,0.2,0.2,0.8","0.8,0.2,0.2,0.2,0.8,0.2,0.2,0.2,0.8","1","",""
"","html-keyboard-response","248","133127","0.0-248.0","3AZHRG4CU567VJG8H2M1RQNI67R03U","A2MJ0X6M3VSFVN","3WRBLBQ2GRU63BU2LFOJL1G32T90GO","","null","<img src=""img/land3.png"" style=""width:200px;border:14px solid red;"">","null","","","","","","","","","",""
"","image-keyboard-response","249","133530","0.0-249.0","3AZHRG4CU567VJG8H2M1RQNI67R03U","A2MJ0X6M3VSFVN","3WRBLBQ2GRU63BU2LFOJL1G32T90GO","","396","img/land4.png","74","401","1","0","2","2","0.8,0.2,0.2,0.2,0.8,0.2,0.2,0.2,0.8","0.8,0.2,0.2,0.2,0.8,0.2,0.2,0.2,0.8","1","",""
"","html-keyboard-response","250","133837","0.0-250.0","3AZHRG4CU567VJG8H2M1RQNI67R03U","A2MJ0X6M3VSFVN","3WRBLBQ2GRU63BU2LFOJL1G32T90GO","","null","<img src=""img/land4.png"" style=""width:200px;border:14px solid red;"">","null","","","","","","","","","",""
"","image-keyboard-response","251","135845","0.0-251.0","3AZHRG4CU567VJG8H2M1RQNI67R03U","A2MJ0X6M3VSFVN","3WRBLBQ2GRU63BU2LFOJL1G32T90GO","","","img/land3.png","","2007.0999999940395","-1","0","1","2","0.8,0.2,0.2,0.2,0.8,0.2,0.2,0.2,0.8","0.8,0.2,0.2,0.2,0.8,0.2,0.2,0.2,0.8","1","",""
"","html-keyboard-response","252","136153","0.0-252.0","3AZHRG4CU567VJG8H2M1RQNI67R03U","A2MJ0X6M3VSFVN","3WRBLBQ2GRU63BU2LFOJL1G32T90GO","","null","<img src=""img/land3.png"" style=""width:200px;border:14px solid red;"">","null","","","","","","","","","",""
"","image-keyboard-response","253","136639","0.0-253.0","3AZHRG4CU567VJG8H2M1RQNI67R03U","A2MJ0X6M3VSFVN","3WRBLBQ2GRU63BU2LFOJL1G32T90GO","","478.10000002384186","img/land2.png","76","484","3","1","3","2","0.8,0.2,0.2,0.2,0.8,0.2,0.2,0.2,0.8","0.8,0.2,0.2,0.2,0.8,0.2,0.2,0.2,0.8","1","",""
"","html-keyboard-response","254","136946","0.0-254.0","3AZHRG4CU567VJG8H2M1RQNI67R03U","A2MJ0X6M3VSFVN","3WRBLBQ2GRU63BU2LFOJL1G32T90GO","","null","<img src=""img/land2.png"" style=""width:200px; border:14px solid green;"">","null","","","","","","","","","",""
"","image-keyboard-response","255","137015","0.0-255.0","3AZHRG4CU567VJG8H2M1RQNI67R03U","A2MJ0X6M3VSFVN","3WRBLBQ2GRU63BU2LFOJL1G32T90GO","","59.599999994039536","img/land3.png","76","66.7999999821186","3","0","1","2","0.8,0.2,0.2,0.2,0.8,0.2,0.2,0.2,0.8","0.8,0.2,0.2,0.2,0.8,0.2,0.2,0.2,0.8","1","",""
"","html-keyboard-response","256","137322","0.0-256.0","3AZHRG4CU567VJG8H2M1RQNI67R03U","A2MJ0X6M3VSFVN","3WRBLBQ2GRU63BU2LFOJL1G32T90GO","","null","<img src=""img/land3.png"" style=""width:200px;border:14px solid red;"">","null","","","","","","","","","",""
"","image-keyboard-response","257","137504","0.0-257.0","3AZHRG4CU567VJG8H2M1RQNI67R03U","A2MJ0X6M3VSFVN","3WRBLBQ2GRU63BU2LFOJL1G32T90GO","","172.5","img/land3.png","76","181","3","0","1","2","0.8,0.2,0.2,0.2,0.8,0.2,0.2,0.2,0.8","0.8,0.2,0.2,0.2,0.8,0.2,0.2,0.2,0.8","1","",""
"","html-keyboard-response","258","137813","0.0-258.0","3AZHRG4CU567VJG8H2M1RQNI67R03U","A2MJ0X6M3VSFVN","3WRBLBQ2GRU63BU2LFOJL1G32T90GO","","null","<img src=""img/land3.png"" style=""width:200px;border:14px solid red;"">","null","","","","","","","","","",""
"","image-keyboard-response","259","138465","0.0-259.0","3AZHRG4CU567VJG8H2M1RQNI67R03U","A2MJ0X6M3VSFVN","3WRBLBQ2GRU63BU2LFOJL1G32T90GO","","644.3000000119209","img/land3.png","76","650.8999999761581","3","1","1","2","0.8,0.2,0.2,0.2,0.8,0.2,0.2,0.2,0.8","0.8,0.2,0.2,0.2,0.8,0.2,0.2,0.2,0.8","1","",""
"","html-keyboard-response","260","138773","0.0-260.0","3AZHRG4CU567VJG8H2M1RQNI67R03U","A2MJ0X6M3VSFVN","3WRBLBQ2GRU63BU2LFOJL1G32T90GO","","null","<img src=""img/land3.png"" style=""width:200px; border:14px solid green;"">","null","","","","","","","","","",""
"","image-keyboard-response","261","139224","0.0-261.0","3AZHRG4CU567VJG8H2M1RQNI67R03U","A2MJ0X6M3VSFVN","3WRBLBQ2GRU63BU2LFOJL1G32T90GO","","444.5","img/land3.png","74","449.40000000596046","1","0","1","2","0.8,0.2,0.2,0.2,0.8,0.2,0.2,0.2,0.8","0.8,0.2,0.2,0.2,0.8,0.2,0.2,0.2,0.8","1","",""
"","html-keyboard-response","262","139532","0.0-262.0","3AZHRG4CU567VJG8H2M1RQNI67R03U","A2MJ0X6M3VSFVN","3WRBLBQ2GRU63BU2LFOJL1G32T90GO","","null","<img src=""img/land3.png"" style=""width:200px;border:14px solid red;"">","null","","","","","","","","","",""
"","image-keyboard-response","263","139969","0.0-263.0","3AZHRG4CU567VJG8H2M1RQNI67R03U","A2MJ0X6M3VSFVN","3WRBLBQ2GRU63BU2LFOJL1G32T90GO","","428.90000000596046","img/land3.png","76","435.7000000178814","3","0","1","2","0.8,0.2,0.2,0.2,0.8,0.2,0.2,0.2,0.8","0.8,0.2,0.2,0.2,0.8,0.2,0.2,0.2,0.8","1","",""
"","html-keyboard-response","264","140277","0.0-264.0","3AZHRG4CU567VJG8H2M1RQNI67R03U","A2MJ0X6M3VSFVN","3WRBLBQ2GRU63BU2LFOJL1G32T90GO","","null","<img src=""img/land3.png"" style=""width:200px;border:14px solid red;"">","null","","","","","","","","","",""
"","image-keyboard-response","265","140768","0.0-265.0","3AZHRG4CU567VJG8H2M1RQNI67R03U","A2MJ0X6M3VSFVN","3WRBLBQ2GRU63BU2LFOJL1G32T90GO","","484.2000000178814","img/land3.png","74","489.90000000596046","1","1","1","2","0.8,0.2,0.2,0.2,0.8,0.2,0.2,0.2,0.8","0.8,0.2,0.2,0.2,0.8,0.2,0.2,0.2,0.8","1","",""
"","html-keyboard-response","266","141073","0.0-266.0","3AZHRG4CU567VJG8H2M1RQNI67R03U","A2MJ0X6M3VSFVN","3WRBLBQ2GRU63BU2LFOJL1G32T90GO","","null","<img src=""img/land3.png"" style=""width:200px; border:14px solid green;"">","null","","","","","","","","","",""
"","image-keyboard-response","267","141779","0.0-267.0","3AZHRG4CU567VJG8H2M1RQNI67R03U","A2MJ0X6M3VSFVN","3WRBLBQ2GRU63BU2LFOJL1G32T90GO","","700.5","img/land2.png","76","705.0999999940395","3","1","3","2","0.8,0.2,0.2,0.2,0.8,0.2,0.2,0.2,0.8","0.8,0.2,0.2,0.2,0.8,0.2,0.2,0.2,0.8","1","",""
"","html-keyboard-response","268","142089","0.0-268.0","3AZHRG4CU567VJG8H2M1RQNI67R03U","A2MJ0X6M3VSFVN","3WRBLBQ2GRU63BU2LFOJL1G32T90GO","","null","<img src=""img/land2.png"" style=""width:200px; border:14px solid green;"">","null","","","","","","","","","",""
"","image-keyboard-response","269","143191","0.0-269.0","3AZHRG4CU567VJG8H2M1RQNI67R03U","A2MJ0X6M3VSFVN","3WRBLBQ2GRU63BU2LFOJL1G32T90GO","","1090.0999999940395","img/land2.png","76","1095.699999988079","3","1","3","2","0.8,0.2,0.2,0.2,0.8,0.2,0.2,0.2,0.8","0.8,0.2,0.2,0.2,0.8,0.2,0.2,0.2,0.8","1","",""
"","html-keyboard-response","270","143498","0.0-270.0","3AZHRG4CU567VJG8H2M1RQNI67R03U","A2MJ0X6M3VSFVN","3WRBLBQ2GRU63BU2LFOJL1G32T90GO","","null","<img src=""img/land2.png"" style=""width:200px; border:14px solid green;"">","null","","","","","","","","","",""
"","image-keyboard-response","271","144570","0.0-271.0","3AZHRG4CU567VJG8H2M1RQNI67R03U","A2MJ0X6M3VSFVN","3WRBLBQ2GRU63BU2LFOJL1G32T90GO","","1065.9000000059605","img/land3.png","74","1071.2999999821186","1","1","1","2","0.8,0.2,0.2,0.2,0.8,0.2,0.2,0.2,0.8","0.8,0.2,0.2,0.2,0.8,0.2,0.2,0.2,0.8","1","",""
"","html-keyboard-response","272","144874","0.0-272.0","3AZHRG4CU567VJG8H2M1RQNI67R03U","A2MJ0X6M3VSFVN","3WRBLBQ2GRU63BU2LFOJL1G32T90GO","","null","<img src=""img/land3.png"" style=""width:200px; border:14px solid green;"">","null","","","","","","","","","",""
"","image-keyboard-response","273","145919","0.0-273.0","3AZHRG4CU567VJG8H2M1RQNI67R03U","A2MJ0X6M3VSFVN","3WRBLBQ2GRU63BU2LFOJL1G32T90GO","","1036.7999999821186","img/land3.png","74","1043.2999999821186","1","1","1","2","0.8,0.2,0.2,0.2,0.8,0.2,0.2,0.2,0.8","0.8,0.2,0.2,0.2,0.8,0.2,0.2,0.2,0.8","1","",""
"","html-keyboard-response","274","146224","0.0-274.0","3AZHRG4CU567VJG8H2M1RQNI67R03U","A2MJ0X6M3VSFVN","3WRBLBQ2GRU63BU2LFOJL1G32T90GO","","null","<img src=""img/land3.png"" style=""width:200px; border:14px solid green;"">","null","","","","","","","","","",""
"","image-keyboard-response","275","146838","0.0-275.0","3AZHRG4CU567VJG8H2M1RQNI67R03U","A2MJ0X6M3VSFVN","3WRBLBQ2GRU63BU2LFOJL1G32T90GO","","603.7999999821186","img/land4.png","76","611.5","3","1","2","2","0.8,0.2,0.2,0.2,0.8,0.2,0.2,0.2,0.8","0.8,0.2,0.2,0.2,0.8,0.2,0.2,0.2,0.8","1","",""
"","html-keyboard-response","276","147145","0.0-276.0","3AZHRG4CU567VJG8H2M1RQNI67R03U","A2MJ0X6M3VSFVN","3WRBLBQ2GRU63BU2LFOJL1G32T90GO","","null","<img src=""img/land4.png"" style=""width:200px; border:14px solid green;"">","null","","","","","","","","","",""
"","image-keyboard-response","277","147879","0.0-277.0","3AZHRG4CU567VJG8H2M1RQNI67R03U","A2MJ0X6M3VSFVN","3WRBLBQ2GRU63BU2LFOJL1G32T90GO","","723.9000000059605","img/land4.png","76","731","3","0","2","2","0.8,0.2,0.2,0.2,0.8,0.2,0.2,0.2,0.8","0.8,0.2,0.2,0.2,0.8,0.2,0.2,0.2,0.8","1","",""
"","html-keyboard-response","278","148184","0.0-278.0","3AZHRG4CU567VJG8H2M1RQNI67R03U","A2MJ0X6M3VSFVN","3WRBLBQ2GRU63BU2LFOJL1G32T90GO","","null","<img src=""img/land4.png"" style=""width:200px;border:14px solid red;"">","null","","","","","","","","","",""
"","image-keyboard-response","279","148613","0.0-279.0","3AZHRG4CU567VJG8H2M1RQNI67R03U","A2MJ0X6M3VSFVN","3WRBLBQ2GRU63BU2LFOJL1G32T90GO","","422.5","img/land4.png","76","427.19999998807907","3","0","2","2","0.8,0.2,0.2,0.2,0.8,0.2,0.2,0.2,0.8","0.8,0.2,0.2,0.2,0.8,0.2,0.2,0.2,0.8","1","",""
"","html-keyboard-response","280","148917","0.0-280.0","3AZHRG4CU567VJG8H2M1RQNI67R03U","A2MJ0X6M3VSFVN","3WRBLBQ2GRU63BU2LFOJL1G32T90GO","","null","<img src=""img/land4.png"" style=""width:200px;border:14px solid red;"">","null","","","","","","","","","",""
"","image-keyboard-response","281","149247","0.0-281.0","3AZHRG4CU567VJG8H2M1RQNI67R03U","A2MJ0X6M3VSFVN","3WRBLBQ2GRU63BU2LFOJL1G32T90GO","","322.59999999403954","img/land3.png","76","327.90000000596046","3","0","1","2","0.8,0.2,0.2,0.2,0.8,0.2,0.2,0.2,0.8","0.8,0.2,0.2,0.2,0.8,0.2,0.2,0.2,0.8","1","",""
"","html-keyboard-response","282","149552","0.0-282.0","3AZHRG4CU567VJG8H2M1RQNI67R03U","A2MJ0X6M3VSFVN","3WRBLBQ2GRU63BU2LFOJL1G32T90GO","","null","<img src=""img/land3.png"" style=""width:200px;border:14px solid red;"">","null","","","","","","","","","",""
"","image-keyboard-response","283","149844","0.0-283.0","3AZHRG4CU567VJG8H2M1RQNI67R03U","A2MJ0X6M3VSFVN","3WRBLBQ2GRU63BU2LFOJL1G32T90GO","","286.30000001192093","img/land3.png","76","290.90000000596046","3","0","1","2","0.8,0.2,0.2,0.2,0.8,0.2,0.2,0.2,0.8","0.8,0.2,0.2,0.2,0.8,0.2,0.2,0.2,0.8","1","",""
"","html-keyboard-response","284","150152","0.0-284.0","3AZHRG4CU567VJG8H2M1RQNI67R03U","A2MJ0X6M3VSFVN","3WRBLBQ2GRU63BU2LFOJL1G32T90GO","","null","<img src=""img/land3.png"" style=""width:200px;border:14px solid red;"">","null","","","","","","","","","",""
"","image-keyboard-response","285","150390","0.0-285.0","3AZHRG4CU567VJG8H2M1RQNI67R03U","A2MJ0X6M3VSFVN","3WRBLBQ2GRU63BU2LFOJL1G32T90GO","","231.5","img/land3.png","76","236.19999998807907","3","0","1","2","0.8,0.2,0.2,0.2,0.8,0.2,0.2,0.2,0.8","0.8,0.2,0.2,0.2,0.8,0.2,0.2,0.2,0.8","1","",""
"","html-keyboard-response","286","150698","0.0-286.0","3AZHRG4CU567VJG8H2M1RQNI67R03U","A2MJ0X6M3VSFVN","3WRBLBQ2GRU63BU2LFOJL1G32T90GO","","null","<img src=""img/land3.png"" style=""width:200px;border:14px solid red;"">","null","","","","","","","","","",""
"","image-keyboard-response","287","151007","0.0-287.0","3AZHRG4CU567VJG8H2M1RQNI67R03U","A2MJ0X6M3VSFVN","3WRBLBQ2GRU63BU2LFOJL1G32T90GO","","299.5","img/land4.png","74","307.30000001192093","1","0","2","2","0.8,0.2,0.2,0.2,0.8,0.2,0.2,0.2,0.8","0.8,0.2,0.2,0.2,0.8,0.2,0.2,0.2,0.8","1","",""
"","html-keyboard-response","288","151313","0.0-288.0","3AZHRG4CU567VJG8H2M1RQNI67R03U","A2MJ0X6M3VSFVN","3WRBLBQ2GRU63BU2LFOJL1G32T90GO","","null","<img src=""img/land4.png"" style=""width:200px;border:14px solid red;"">","null","","","","","","","","","",""
"","image-keyboard-response","289","151838","0.0-289.0","3AZHRG4CU567VJG8H2M1RQNI67R03U","A2MJ0X6M3VSFVN","3WRBLBQ2GRU63BU2LFOJL1G32T90GO","","515.3999999761581","img/land3.png","74","523.3000000119209","1","1","1","2","0.8,0.2,0.2,0.2,0.8,0.2,0.2,0.2,0.8","0.8,0.2,0.2,0.2,0.8,0.2,0.2,0.2,0.8","1","",""
"","html-keyboard-response","290","152144","0.0-290.0","3AZHRG4CU567VJG8H2M1RQNI67R03U","A2MJ0X6M3VSFVN","3WRBLBQ2GRU63BU2LFOJL1G32T90GO","","null","<img src=""img/land3.png"" style=""width:200px; border:14px solid green;"">","null","","","","","","","","","",""
"","image-keyboard-response","291","152441","0.0-291.0","3AZHRG4CU567VJG8H2M1RQNI67R03U","A2MJ0X6M3VSFVN","3WRBLBQ2GRU63BU2LFOJL1G32T90GO","","289.80000001192093","img/land3.png","74","295.09999999403954","1","0","1","2","0.8,0.2,0.2,0.2,0.8,0.2,0.2,0.2,0.8","0.8,0.2,0.2,0.2,0.8,0.2,0.2,0.2,0.8","1","",""
"","html-keyboard-response","292","152745","0.0-292.0","3AZHRG4CU567VJG8H2M1RQNI67R03U","A2MJ0X6M3VSFVN","3WRBLBQ2GRU63BU2LFOJL1G32T90GO","","null","<img src=""img/land3.png"" style=""width:200px;border:14px solid red;"">","null","","","","","","","","","",""
"","image-keyboard-response","293","153052","0.0-293.0","3AZHRG4CU567VJG8H2M1RQNI67R03U","A2MJ0X6M3VSFVN","3WRBLBQ2GRU63BU2LFOJL1G32T90GO","","298.30000001192093","img/land3.png","74","304.19999998807907","1","1","1","2","0.8,0.2,0.2,0.2,0.8,0.2,0.2,0.2,0.8","0.8,0.2,0.2,0.2,0.8,0.2,0.2,0.2,0.8","1","",""
"","html-keyboard-response","294","153358","0.0-294.0","3AZHRG4CU567VJG8H2M1RQNI67R03U","A2MJ0X6M3VSFVN","3WRBLBQ2GRU63BU2LFOJL1G32T90GO","","null","<img src=""img/land3.png"" style=""width:200px; border:14px solid green;"">","null","","","","","","","","","",""
"","image-keyboard-response","295","153630","0.0-295.0","3AZHRG4CU567VJG8H2M1RQNI67R03U","A2MJ0X6M3VSFVN","3WRBLBQ2GRU63BU2LFOJL1G32T90GO","","262.30000001192093","img/land3.png","74","271.2000000178814","1","1","1","2","0.8,0.2,0.2,0.2,0.8,0.2,0.2,0.2,0.8","0.8,0.2,0.2,0.2,0.8,0.2,0.2,0.2,0.8","1","",""
"","html-keyboard-response","296","153938","0.0-296.0","3AZHRG4CU567VJG8H2M1RQNI67R03U","A2MJ0X6M3VSFVN","3WRBLBQ2GRU63BU2LFOJL1G32T90GO","","null","<img src=""img/land3.png"" style=""width:200px; border:14px solid green;"">","null","","","","","","","","","",""
"","image-keyboard-response","297","154220","0.0-297.0","3AZHRG4CU567VJG8H2M1RQNI67R03U","A2MJ0X6M3VSFVN","3WRBLBQ2GRU63BU2LFOJL1G32T90GO","","272.69999998807907","img/land3.png","74","279.69999998807907","1","0","1","2","0.8,0.2,0.2,0.2,0.8,0.2,0.2,0.2,0.8","0.8,0.2,0.2,0.2,0.8,0.2,0.2,0.2,0.8","1","",""
"","html-keyboard-response","298","154526","0.0-298.0","3AZHRG4CU567VJG8H2M1RQNI67R03U","A2MJ0X6M3VSFVN","3WRBLBQ2GRU63BU2LFOJL1G32T90GO","","null","<img src=""img/land3.png"" style=""width:200px;border:14px solid red;"">","null","","","","","","","","","",""
"","image-keyboard-response","299","154684","0.0-299.0","3AZHRG4CU567VJG8H2M1RQNI67R03U","A2MJ0X6M3VSFVN","3WRBLBQ2GRU63BU2LFOJL1G32T90GO","","150.80000001192093","img/land3.png","74","157.5","1","1","1","2","0.8,0.2,0.2,0.2,0.8,0.2,0.2,0.2,0.8","0.8,0.2,0.2,0.2,0.8,0.2,0.2,0.2,0.8","1","",""
"","html-keyboard-response","300","154991","0.0-300.0","3AZHRG4CU567VJG8H2M1RQNI67R03U","A2MJ0X6M3VSFVN","3WRBLBQ2GRU63BU2LFOJL1G32T90GO","","null","<img src=""img/land3.png"" style=""width:200px; border:14px solid green;"">","null","","","","","","","","","",""
"","image-keyboard-response","301","155116","0.0-301.0","3AZHRG4CU567VJG8H2M1RQNI67R03U","A2MJ0X6M3VSFVN","3WRBLBQ2GRU63BU2LFOJL1G32T90GO","","118.2000000178814","img/land3.png","74","123.69999998807907","1","1","1","2","0.8,0.2,0.2,0.2,0.8,0.2,0.2,0.2,0.8","0.8,0.2,0.2,0.2,0.8,0.2,0.2,0.2,0.8","1","",""
"","html-keyboard-response","302","155424","0.0-302.0","3AZHRG4CU567VJG8H2M1RQNI67R03U","A2MJ0X6M3VSFVN","3WRBLBQ2GRU63BU2LFOJL1G32T90GO","","null","<img src=""img/land3.png"" style=""width:200px; border:14px solid green;"">","null","","","","","","","","","",""
"","image-keyboard-response","303","155459","0.0-303.0","3AZHRG4CU567VJG8H2M1RQNI67R03U","A2MJ0X6M3VSFVN","3WRBLBQ2GRU63BU2LFOJL1G32T90GO","","27.099999994039536","img/land3.png","74","32.5","1","1","1","2","0.8,0.2,0.2,0.2,0.8,0.2,0.2,0.2,0.8","0.8,0.2,0.2,0.2,0.8,0.2,0.2,0.2,0.8","1","",""
"","html-keyboard-response","304","155764","0.0-304.0","3AZHRG4CU567VJG8H2M1RQNI67R03U","A2MJ0X6M3VSFVN","3WRBLBQ2GRU63BU2LFOJL1G32T90GO","","null","<img src=""img/land3.png"" style=""width:200px; border:14px solid green;"">","null","","","","","","","","","",""
"","image-keyboard-response","305","155806","0.0-305.0","3AZHRG4CU567VJG8H2M1RQNI67R03U","A2MJ0X6M3VSFVN","3WRBLBQ2GRU63BU2LFOJL1G32T90GO","","33.5","img/land3.png","74","38.599999994039536","1","1","1","2","0.8,0.2,0.2,0.2,0.8,0.2,0.2,0.2,0.8","0.8,0.2,0.2,0.2,0.8,0.2,0.2,0.2,0.8","1","",""
"","html-keyboard-response","306","156112","0.0-306.0","3AZHRG4CU567VJG8H2M1RQNI67R03U","A2MJ0X6M3VSFVN","3WRBLBQ2GRU63BU2LFOJL1G32T90GO","","null","<img src=""img/land3.png"" style=""width:200px; border:14px solid green;"">","null","","","","","","","","","",""
"","image-keyboard-response","307","156137","0.0-307.0","3AZHRG4CU567VJG8H2M1RQNI67R03U","A2MJ0X6M3VSFVN","3WRBLBQ2GRU63BU2LFOJL1G32T90GO","","19.400000005960464","img/land3.png","74","23.5","1","1","1","2","0.8,0.2,0.2,0.2,0.8,0.2,0.2,0.2,0.8","0.8,0.2,0.2,0.2,0.8,0.2,0.2,0.2,0.8","1","",""
"","html-keyboard-response","308","156442","0.0-308.0","3AZHRG4CU567VJG8H2M1RQNI67R03U","A2MJ0X6M3VSFVN","3WRBLBQ2GRU63BU2LFOJL1G32T90GO","","null","<img src=""img/land3.png"" style=""width:200px; border:14px solid green;"">","null","","","","","","","","","",""
"","image-keyboard-response","309","156919","0.0-309.0","3AZHRG4CU567VJG8H2M1RQNI67R03U","A2MJ0X6M3VSFVN","3WRBLBQ2GRU63BU2LFOJL1G32T90GO","","471.59999999403954","img/land3.png","74","475.80000001192093","1","1","1","2","0.8,0.2,0.2,0.2,0.8,0.2,0.2,0.2,0.8","0.8,0.2,0.2,0.2,0.8,0.2,0.2,0.2,0.8","1","",""
"","html-keyboard-response","310","157224","0.0-310.0","3AZHRG4CU567VJG8H2M1RQNI67R03U","A2MJ0X6M3VSFVN","3WRBLBQ2GRU63BU2LFOJL1G32T90GO","","null","<img src=""img/land3.png"" style=""width:200px; border:14px solid green;"">","null","","","","","","","","","",""
"","image-keyboard-response","311","157514","0.0-311.0","3AZHRG4CU567VJG8H2M1RQNI67R03U","A2MJ0X6M3VSFVN","3WRBLBQ2GRU63BU2LFOJL1G32T90GO","","282","img/land2.png","74","288.19999998807907","1","0","3","2","0.8,0.2,0.2,0.2,0.8,0.2,0.2,0.2,0.8","0.8,0.2,0.2,0.2,0.8,0.2,0.2,0.2,0.8","1","",""
"","html-keyboard-response","312","157818","0.0-312.0","3AZHRG4CU567VJG8H2M1RQNI67R03U","A2MJ0X6M3VSFVN","3WRBLBQ2GRU63BU2LFOJL1G32T90GO","","null","<img src=""img/land2.png"" style=""width:200px;border:14px solid red;"">","null","","","","","","","","","",""
"","image-keyboard-response","313","158297","0.0-313.0","3AZHRG4CU567VJG8H2M1RQNI67R03U","A2MJ0X6M3VSFVN","3WRBLBQ2GRU63BU2LFOJL1G32T90GO","","472.5","img/land3.png","76","477.2999999821186","3","0","1","2","0.8,0.2,0.2,0.2,0.8,0.2,0.2,0.2,0.8","0.8,0.2,0.2,0.2,0.8,0.2,0.2,0.2,0.8","1","",""
"","html-keyboard-response","314","158604","0.0-314.0","3AZHRG4CU567VJG8H2M1RQNI67R03U","A2MJ0X6M3VSFVN","3WRBLBQ2GRU63BU2LFOJL1G32T90GO","","null","<img src=""img/land3.png"" style=""width:200px;border:14px solid red;"">","null","","","","","","","","","",""
"","image-keyboard-response","315","160610","0.0-315.0","3AZHRG4CU567VJG8H2M1RQNI67R03U","A2MJ0X6M3VSFVN","3WRBLBQ2GRU63BU2LFOJL1G32T90GO","","","img/land3.png","","2006","-1","0","1","2","0.8,0.2,0.2,0.2,0.8,0.2,0.2,0.2,0.8","0.8,0.2,0.2,0.2,0.8,0.2,0.2,0.2,0.8","1","",""
"","html-keyboard-response","316","160916","0.0-316.0","3AZHRG4CU567VJG8H2M1RQNI67R03U","A2MJ0X6M3VSFVN","3WRBLBQ2GRU63BU2LFOJL1G32T90GO","","null","<img src=""img/land3.png"" style=""width:200px;border:14px solid red;"">","null","","","","","","","","","",""
"","image-keyboard-response","317","161433","0.0-317.0","3AZHRG4CU567VJG8H2M1RQNI67R03U","A2MJ0X6M3VSFVN","3WRBLBQ2GRU63BU2LFOJL1G32T90GO","","510.2000000178814","img/land2.png","76","516.2000000178814","3","1","3","2","0.8,0.2,0.2,0.2,0.8,0.2,0.2,0.2,0.8","0.8,0.2,0.2,0.2,0.8,0.2,0.2,0.2,0.8","1","",""
"","html-keyboard-response","318","161739","0.0-318.0","3AZHRG4CU567VJG8H2M1RQNI67R03U","A2MJ0X6M3VSFVN","3WRBLBQ2GRU63BU2LFOJL1G32T90GO","","null","<img src=""img/land2.png"" style=""width:200px; border:14px solid green;"">","null","","","","","","","","","",""
"","image-keyboard-response","319","162209","0.0-319.0","3AZHRG4CU567VJG8H2M1RQNI67R03U","A2MJ0X6M3VSFVN","3WRBLBQ2GRU63BU2LFOJL1G32T90GO","","462","img/land2.png","74","468.2999999821186","1","0","3","2","0.8,0.2,0.2,0.2,0.8,0.2,0.2,0.2,0.8","0.8,0.2,0.2,0.2,0.8,0.2,0.2,0.2,0.8","1","",""
"","html-keyboard-response","320","162515","0.0-320.0","3AZHRG4CU567VJG8H2M1RQNI67R03U","A2MJ0X6M3VSFVN","3WRBLBQ2GRU63BU2LFOJL1G32T90GO","","null","<img src=""img/land2.png"" style=""width:200px;border:14px solid red;"">","null","","","","","","","","","",""
"","image-keyboard-response","321","162930","0.0-321.0","3AZHRG4CU567VJG8H2M1RQNI67R03U","A2MJ0X6M3VSFVN","3WRBLBQ2GRU63BU2LFOJL1G32T90GO","","408.2999999821186","img/land3.png","76","412.30000001192093","3","0","1","2","0.8,0.2,0.2,0.2,0.8,0.2,0.2,0.2,0.8","0.8,0.2,0.2,0.2,0.8,0.2,0.2,0.2,0.8","1","",""
"","html-keyboard-response","322","163235","0.0-322.0","3AZHRG4CU567VJG8H2M1RQNI67R03U","A2MJ0X6M3VSFVN","3WRBLBQ2GRU63BU2LFOJL1G32T90GO","","null","<img src=""img/land3.png"" style=""width:200px;border:14px solid red;"">","null","","","","","","","","","",""
"","image-keyboard-response","323","165242","0.0-323.0","3AZHRG4CU567VJG8H2M1RQNI67R03U","A2MJ0X6M3VSFVN","3WRBLBQ2GRU63BU2LFOJL1G32T90GO","","","img/land4.png","","2004.2000000178814","-1","0","2","2","0.8,0.2,0.2,0.2,0.8,0.2,0.2,0.2,0.8","0.8,0.2,0.2,0.2,0.8,0.2,0.2,0.2,0.8","1","",""
"","html-keyboard-response","324","165546","0.0-324.0","3AZHRG4CU567VJG8H2M1RQNI67R03U","A2MJ0X6M3VSFVN","3WRBLBQ2GRU63BU2LFOJL1G32T90GO","","null","<img src=""img/land4.png"" style=""width:200px;border:14px solid red;"">","null","","","","","","","","","",""
"","image-keyboard-response","325","166050","0.0-325.0","3AZHRG4CU567VJG8H2M1RQNI67R03U","A2MJ0X6M3VSFVN","3WRBLBQ2GRU63BU2LFOJL1G32T90GO","","497.5","img/land3.png","76","502.59999999403954","3","0","1","2","0.8,0.2,0.2,0.2,0.8,0.2,0.2,0.2,0.8","0.8,0.2,0.2,0.2,0.8,0.2,0.2,0.2,0.8","1","",""
"","html-keyboard-response","326","166356","0.0-326.0","3AZHRG4CU567VJG8H2M1RQNI67R03U","A2MJ0X6M3VSFVN","3WRBLBQ2GRU63BU2LFOJL1G32T90GO","","null","<img src=""img/land3.png"" style=""width:200px;border:14px solid red;"">","null","","","","","","","","","",""
"","image-keyboard-response","327","166544","0.0-327.0","3AZHRG4CU567VJG8H2M1RQNI67R03U","A2MJ0X6M3VSFVN","3WRBLBQ2GRU63BU2LFOJL1G32T90GO","","180.5","img/land4.png","76","186.09999999403954","3","1","2","2","0.8,0.2,0.2,0.2,0.8,0.2,0.2,0.2,0.8","0.8,0.2,0.2,0.2,0.8,0.2,0.2,0.2,0.8","1","",""
"","html-keyboard-response","328","166849","0.0-328.0","3AZHRG4CU567VJG8H2M1RQNI67R03U","A2MJ0X6M3VSFVN","3WRBLBQ2GRU63BU2LFOJL1G32T90GO","","null","<img src=""img/land4.png"" style=""width:200px; border:14px solid green;"">","null","","","","","","","","","",""
"","image-keyboard-response","329","167341","0.0-329.0","3AZHRG4CU567VJG8H2M1RQNI67R03U","A2MJ0X6M3VSFVN","3WRBLBQ2GRU63BU2LFOJL1G32T90GO","","481.89999997615814","img/land4.png","74","488.69999998807907","1","1","2","2","0.8,0.2,0.2,0.2,0.8,0.2,0.2,0.2,0.8","0.8,0.2,0.2,0.2,0.8,0.2,0.2,0.2,0.8","1","",""
"","html-keyboard-response","330","167646","0.0-330.0","3AZHRG4CU567VJG8H2M1RQNI67R03U","A2MJ0X6M3VSFVN","3WRBLBQ2GRU63BU2LFOJL1G32T90GO","","null","<img src=""img/land4.png"" style=""width:200px; border:14px solid green;"">","null","","","","","","","","","",""
"","image-keyboard-response","331","168207","0.0-331.0","3AZHRG4CU567VJG8H2M1RQNI67R03U","A2MJ0X6M3VSFVN","3WRBLBQ2GRU63BU2LFOJL1G32T90GO","","554.0999999940395","img/land3.png","74","559.5","1","1","1","2","0.8,0.2,0.2,0.2,0.8,0.2,0.2,0.2,0.8","0.8,0.2,0.2,0.2,0.8,0.2,0.2,0.2,0.8","1","",""
"","html-keyboard-response","332","168514","0.0-332.0","3AZHRG4CU567VJG8H2M1RQNI67R03U","A2MJ0X6M3VSFVN","3WRBLBQ2GRU63BU2LFOJL1G32T90GO","","null","<img src=""img/land3.png"" style=""width:200px; border:14px solid green;"">","null","","","","","","","","","",""
"","image-keyboard-response","333","168962","0.0-333.0","3AZHRG4CU567VJG8H2M1RQNI67R03U","A2MJ0X6M3VSFVN","3WRBLBQ2GRU63BU2LFOJL1G32T90GO","","438.59999999403954","img/land2.png","74","444.30000001192093","1","0","3","2","0.8,0.2,0.2,0.2,0.8,0.2,0.2,0.2,0.8","0.8,0.2,0.2,0.2,0.8,0.2,0.2,0.2,0.8","1","",""
"","html-keyboard-response","334","169273","0.0-334.0","3AZHRG4CU567VJG8H2M1RQNI67R03U","A2MJ0X6M3VSFVN","3WRBLBQ2GRU63BU2LFOJL1G32T90GO","","null","<img src=""img/land2.png"" style=""width:200px;border:14px solid red;"">","null","","","","","","","","","",""
"","image-keyboard-response","335","170105","0.0-335.0","3AZHRG4CU567VJG8H2M1RQNI67R03U","A2MJ0X6M3VSFVN","3WRBLBQ2GRU63BU2LFOJL1G32T90GO","","820.9000000059605","img/land3.png","76","830.7999999821186","3","0","1","2","0.8,0.2,0.2,0.2,0.8,0.2,0.2,0.2,0.8","0.8,0.2,0.2,0.2,0.8,0.2,0.2,0.2,0.8","1","",""
"","html-keyboard-response","336","170412","0.0-336.0","3AZHRG4CU567VJG8H2M1RQNI67R03U","A2MJ0X6M3VSFVN","3WRBLBQ2GRU63BU2LFOJL1G32T90GO","","null","<img src=""img/land3.png"" style=""width:200px;border:14px solid red;"">","null","","","","","","","","","",""
"","image-keyboard-response","337","172419","0.0-337.0","3AZHRG4CU567VJG8H2M1RQNI67R03U","A2MJ0X6M3VSFVN","3WRBLBQ2GRU63BU2LFOJL1G32T90GO","","","img/land4.png","","2006.800000011921","-1","0","2","2","0.8,0.2,0.2,0.2,0.8,0.2,0.2,0.2,0.8","0.8,0.2,0.2,0.2,0.8,0.2,0.2,0.2,0.8","1","",""
"","html-keyboard-response","338","172725","0.0-338.0","3AZHRG4CU567VJG8H2M1RQNI67R03U","A2MJ0X6M3VSFVN","3WRBLBQ2GRU63BU2LFOJL1G32T90GO","","null","<img src=""img/land4.png"" style=""width:200px;border:14px solid red;"">","null","","","","","","","","","",""
"","image-keyboard-response","339","174734","0.0-339.0","3AZHRG4CU567VJG8H2M1RQNI67R03U","A2MJ0X6M3VSFVN","3WRBLBQ2GRU63BU2LFOJL1G32T90GO","","","img/land3.png","","2007.9000000059605","-1","0","1","2","0.8,0.2,0.2,0.2,0.8,0.2,0.2,0.2,0.8","0.8,0.2,0.2,0.2,0.8,0.2,0.2,0.2,0.8","1","",""
"","html-keyboard-response","340","175040","0.0-340.0","3AZHRG4CU567VJG8H2M1RQNI67R03U","A2MJ0X6M3VSFVN","3WRBLBQ2GRU63BU2LFOJL1G32T90GO","","null","<img src=""img/land3.png"" style=""width:200px;border:14px solid red;"">","null","","","","","","","","","",""
"","image-keyboard-response","341","175603","0.0-341.0","3AZHRG4CU567VJG8H2M1RQNI67R03U","A2MJ0X6M3VSFVN","3WRBLBQ2GRU63BU2LFOJL1G32T90GO","","557.1999999880791","img/land4.png","74","561.8000000119209","1","0","2","2","0.8,0.2,0.2,0.2,0.8,0.2,0.2,0.2,0.8","0.8,0.2,0.2,0.2,0.8,0.2,0.2,0.2,0.8","1","",""
"","html-keyboard-response","342","175908","0.0-342.0","3AZHRG4CU567VJG8H2M1RQNI67R03U","A2MJ0X6M3VSFVN","3WRBLBQ2GRU63BU2LFOJL1G32T90GO","","null","<img src=""img/land4.png"" style=""width:200px;border:14px solid red;"">","null","","","","","","","","","",""
"","image-keyboard-response","343","176336","0.0-343.0","3AZHRG4CU567VJG8H2M1RQNI67R03U","A2MJ0X6M3VSFVN","3WRBLBQ2GRU63BU2LFOJL1G32T90GO","","421.59999999403954","img/land3.png","74","427.40000000596046","1","1","1","2","0.8,0.2,0.2,0.2,0.8,0.2,0.2,0.2,0.8","0.8,0.2,0.2,0.2,0.8,0.2,0.2,0.2,0.8","1","",""
"","html-keyboard-response","344","176643","0.0-344.0","3AZHRG4CU567VJG8H2M1RQNI67R03U","A2MJ0X6M3VSFVN","3WRBLBQ2GRU63BU2LFOJL1G32T90GO","","null","<img src=""img/land3.png"" style=""width:200px; border:14px solid green;"">","null","","","","","","","","","",""
"","image-keyboard-response","345","177352","0.0-345.0","3AZHRG4CU567VJG8H2M1RQNI67R03U","A2MJ0X6M3VSFVN","3WRBLBQ2GRU63BU2LFOJL1G32T90GO","","702.9000000059605","img/land2.png","75","707.3000000119209","2","0","3","2","0.8,0.2,0.2,0.2,0.8,0.2,0.2,0.2,0.8","0.8,0.2,0.2,0.2,0.8,0.2,0.2,0.2,0.8","1","",""
"","html-keyboard-response","346","177657","0.0-346.0","3AZHRG4CU567VJG8H2M1RQNI67R03U","A2MJ0X6M3VSFVN","3WRBLBQ2GRU63BU2LFOJL1G32T90GO","","null","<img src=""img/land2.png"" style=""width:200px;border:14px solid red;"">","null","","","","","","","","","",""
"","image-keyboard-response","347","178010","0.0-347.0","3AZHRG4CU567VJG8H2M1RQNI67R03U","A2MJ0X6M3VSFVN","3WRBLBQ2GRU63BU2LFOJL1G32T90GO","","347.5","img/land4.png","74","350.40000000596046","1","0","2","2","0.8,0.2,0.2,0.2,0.8,0.2,0.2,0.2,0.8","0.8,0.2,0.2,0.2,0.8,0.2,0.2,0.2,0.8","1","",""
"","html-keyboard-response","348","178314","0.0-348.0","3AZHRG4CU567VJG8H2M1RQNI67R03U","A2MJ0X6M3VSFVN","3WRBLBQ2GRU63BU2LFOJL1G32T90GO","","null","<img src=""img/land4.png"" style=""width:200px;border:14px solid red;"">","null","","","","","","","","","",""
"","image-keyboard-response","349","178756","0.0-349.0","3AZHRG4CU567VJG8H2M1RQNI67R03U","A2MJ0X6M3VSFVN","3WRBLBQ2GRU63BU2LFOJL1G32T90GO","","433.19999998807907","img/land3.png","76","441.30000001192093","3","0","1","2","0.8,0.2,0.2,0.2,0.8,0.2,0.2,0.2,0.8","0.8,0.2,0.2,0.2,0.8,0.2,0.2,0.2,0.8","1","",""
"","html-keyboard-response","350","179062","0.0-350.0","3AZHRG4CU567VJG8H2M1RQNI67R03U","A2MJ0X6M3VSFVN","3WRBLBQ2GRU63BU2LFOJL1G32T90GO","","null","<img src=""img/land3.png"" style=""width:200px;border:14px solid red;"">","null","","","","","","","","","",""
"","image-keyboard-response","351","181069","0.0-351.0","3AZHRG4CU567VJG8H2M1RQNI67R03U","A2MJ0X6M3VSFVN","3WRBLBQ2GRU63BU2LFOJL1G32T90GO","","","img/land2.png","","2005.699999988079","-1","0","3","2","0.8,0.2,0.2,0.2,0.8,0.2,0.2,0.2,0.8","0.8,0.2,0.2,0.2,0.8,0.2,0.2,0.2,0.8","1","",""
"","html-keyboard-response","352","181375","0.0-352.0","3AZHRG4CU567VJG8H2M1RQNI67R03U","A2MJ0X6M3VSFVN","3WRBLBQ2GRU63BU2LFOJL1G32T90GO","","null","<img src=""img/land2.png"" style=""width:200px;border:14px solid red;"">","null","","","","","","","","","",""
"","image-keyboard-response","353","181993","0.0-353.0","3AZHRG4CU567VJG8H2M1RQNI67R03U","A2MJ0X6M3VSFVN","3WRBLBQ2GRU63BU2LFOJL1G32T90GO","","610.1999999880791","img/land4.png","75","616.4000000059605","2","1","2","2","0.8,0.2,0.2,0.2,0.8,0.2,0.2,0.2,0.8","0.8,0.2,0.2,0.2,0.8,0.2,0.2,0.2,0.8","1","",""
"","html-keyboard-response","354","182300","0.0-354.0","3AZHRG4CU567VJG8H2M1RQNI67R03U","A2MJ0X6M3VSFVN","3WRBLBQ2GRU63BU2LFOJL1G32T90GO","","null","<img src=""img/land4.png"" style=""width:200px; border:14px solid green;"">","null","","","","","","","","","",""
"","image-keyboard-response","355","182771","0.0-355.0","3AZHRG4CU567VJG8H2M1RQNI67R03U","A2MJ0X6M3VSFVN","3WRBLBQ2GRU63BU2LFOJL1G32T90GO","","463.5","img/land2.png","74","470","1","1","3","2","0.8,0.2,0.2,0.2,0.8,0.2,0.2,0.2,0.8","0.8,0.2,0.2,0.2,0.8,0.2,0.2,0.2,0.8","1","",""
