"success","trial_type","trial_index","time_elapsed","internal_node_id","assignmentID","mturkID","hitID","view_history","rt","stimulus","key_press","reactionTime","a","r","s","cond","reward_cond","reward_cond_actual","reward_matrix_idx","responses","question_order"
"true","fullscreen","0","5893","0.0-0.0","","","","","","","","","","","","","","","","",""
"","instructions","1","37525","0.0-1.0","","","","[{""page_index"":0,""viewing_time"":3975.199999988079},{""page_index"":1,""viewing_time"":5143.599999964237},{""page_index"":2,""viewing_time"":2408},{""page_index"":3,""viewing_time"":7312},{""page_index"":4,""viewing_time"":5255.900000035763},{""page_index"":5,""viewing_time"":3408},{""page_index"":6,""viewing_time"":4127.800000011921}]","31631.19999998808","","","","","","","","","","","",""
"","image-keyboard-response","2","38377","0.0-2.0","","","","","850.3999999761581","img/land1.png","74","851.6999999880791","1","1","1","2","1,0.7,0.7,0.7,1,0.7,0.7,0.7,1","1,0.7,0.7,0.7,1,0.7,0.7,0.7,1","","",""
"","html-keyboard-response","3","38685","0.0-3.0","","","","","null","<img src=""img/land1.png"" style=""width:200px; border:14px solid green;"">","null","","","","","","","","","",""
"","image-keyboard-response","4","40189","0.0-4.0","","","","","","img/land1.png","","1503.6000000238419","-1","0","1","2","1,0.7,0.7,0.7,1,0.7,0.7,0.7,1","1,0.7,0.7,0.7,1,0.7,0.7,0.7,1","","",""
"","html-keyboard-response","5","40493","0.0-5.0","","","","","null","<img src=""img/land1.png"" style=""width:200px;border:14px solid red;"">","null","","","","","","","","","",""
"","image-keyboard-response","6","41997","0.0-6.0","","","","","","img/land3.png","","1504","-1","0","3","2","1,0.7,0.7,0.7,1,0.7,0.7,0.7,1","1,0.7,0.7,0.7,1,0.7,0.7,0.7,1","","",""
"","html-keyboard-response","7","42301","0.0-7.0","","","","","null","<img src=""img/land3.png"" style=""width:200px;border:14px solid red;"">","null","","","","","","","","","",""
"","image-keyboard-response","8","43064","0.0-8.0","","","","","762.6000000238419","img/land3.png","76","763.1999999880791","3","1","3","2","1,0.7,0.7,0.7,1,0.7,0.7,0.7,1","1,0.7,0.7,0.7,1,0.7,0.7,0.7,1","","",""
"","html-keyboard-response","9","43373","0.0-9.0","","","","","null","<img src=""img/land3.png"" style=""width:200px; border:14px solid green;"">","null","","","","","","","","","",""
"","image-keyboard-response","10","44449","0.0-10.0","","","","","1074.8999999761581","img/land1.png","74","1075.5999999642372","1","1","1","2","1,0.7,0.7,0.7,1,0.7,0.7,0.7,1","1,0.7,0.7,0.7,1,0.7,0.7,0.7,1","","",""
"","html-keyboard-response","11","44757","0.0-11.0","","","","","null","<img src=""img/land1.png"" style=""width:200px; border:14px solid green;"">","null","","","","","","","","","",""
"","image-keyboard-response","12","45561","0.0-12.0","","","","","802.8000000119209","img/land3.png","76","803.5","3","1","3","2","1,0.7,0.7,0.7,1,0.7,0.7,0.7,1","1,0.7,0.7,0.7,1,0.7,0.7,0.7,1","","",""
"","html-keyboard-response","13","45869","0.0-13.0","","","","","null","<img src=""img/land3.png"" style=""width:200px; border:14px solid green;"">","null","","","","","","","","","",""
"","image-keyboard-response","14","46649","0.0-14.0","","","","","778.5999999642372","img/land3.png","76","779.1999999880791","3","1","3","2","1,0.7,0.7,0.7,1,0.7,0.7,0.7,1","1,0.7,0.7,0.7,1,0.7,0.7,0.7,1","","",""
"","html-keyboard-response","15","46957","0.0-15.0","","","","","null","<img src=""img/land3.png"" style=""width:200px; border:14px solid green;"">","null","","","","","","","","","",""
"","image-keyboard-response","16","47729","0.0-16.0","","","","","771","img/land3.png","76","771.5999999642372","3","1","3","2","1,0.7,0.7,0.7,1,0.7,0.7,0.7,1","1,0.7,0.7,0.7,1,0.7,0.7,0.7,1","","",""
"","html-keyboard-response","17","48037","0.0-17.0","","","","","null","<img src=""img/land3.png"" style=""width:200px; border:14px solid green;"">","null","","","","","","","","","",""
"","image-keyboard-response","18","48536","0.0-18.0","","","","","498.2999999523163","img/land3.png","76","498.89999997615814","3","1","3","2","1,0.7,0.7,0.7,1,0.7,0.7,0.7,1","1,0.7,0.7,0.7,1,0.7,0.7,0.7,1","","",""
"","html-keyboard-response","19","48845","0.0-19.0","","","","","null","<img src=""img/land3.png"" style=""width:200px; border:14px solid green;"">","null","","","","","","","","","",""
"","image-keyboard-response","20","49409","0.0-20.0","","","","","562.7999999523163","img/land3.png","76","563.3000000119209","3","1","3","2","1,0.7,0.7,0.7,1,0.7,0.7,0.7,1","1,0.7,0.7,0.7,1,0.7,0.7,0.7,1","","",""
"","html-keyboard-response","21","49717","0.0-21.0","","","","","null","<img src=""img/land3.png"" style=""width:200px; border:14px solid green;"">","null","","","","","","","","","",""
"","image-keyboard-response","22","50625","0.0-22.0","","","","","906.4000000357628","img/land2.png","75","906.9000000357628","2","1","2","2","1,0.7,0.7,0.7,1,0.7,0.7,0.7,1","1,0.7,0.7,0.7,1,0.7,0.7,0.7,1","","",""
"","html-keyboard-response","23","50933","0.0-23.0","","","","","null","<img src=""img/land2.png"" style=""width:200px; border:14px solid green;"">","null","","","","","","","","","",""
"","image-keyboard-response","24","51569","0.0-24.0","","","","","635.3000000119209","img/land2.png","75","635.9000000357628","2","1","2","2","1,0.7,0.7,0.7,1,0.7,0.7,0.7,1","1,0.7,0.7,0.7,1,0.7,0.7,0.7,1","","",""
"","html-keyboard-response","25","51877","0.0-25.0","","","","","null","<img src=""img/land2.png"" style=""width:200px; border:14px solid green;"">","null","","","","","","","","","",""
"","image-keyboard-response","26","52568","0.0-26.0","","","","","691.1999999880791","img/land3.png","76","691.8000000119209","3","1","3","2","1,0.7,0.7,0.7,1,0.7,0.7,0.7,1","1,0.7,0.7,0.7,1,0.7,0.7,0.7,1","","",""
"","html-keyboard-response","27","52877","0.0-27.0","","","","","null","<img src=""img/land3.png"" style=""width:200px; border:14px solid green;"">","null","","","","","","","","","",""
"","image-keyboard-response","28","53553","0.0-28.0","","","","","675.3999999761581","img/land1.png","74","675.8000000119209","1","1","1","2","1,0.7,0.7,0.7,1,0.7,0.7,0.7,1","1,0.7,0.7,0.7,1,0.7,0.7,0.7,1","","",""
"","html-keyboard-response","29","53861","0.0-29.0","","","","","null","<img src=""img/land1.png"" style=""width:200px; border:14px solid green;"">","null","","","","","","","","","",""
"","image-keyboard-response","30","54736","0.0-30.0","","","","","875.1999999880791","img/land2.png","75","875.6999999880791","2","1","2","2","1,0.7,0.7,0.7,1,0.7,0.7,0.7,1","1,0.7,0.7,0.7,1,0.7,0.7,0.7,1","","",""
"","html-keyboard-response","31","55045","0.0-31.0","","","","","null","<img src=""img/land2.png"" style=""width:200px; border:14px solid green;"">","null","","","","","","","","","",""
"","image-keyboard-response","32","55672","0.0-32.0","","","","","627.0999999642372","img/land3.png","76","627.6000000238419","3","1","3","2","1,0.7,0.7,0.7,1,0.7,0.7,0.7,1","1,0.7,0.7,0.7,1,0.7,0.7,0.7,1","","",""
"","html-keyboard-response","33","55981","0.0-33.0","","","","","null","<img src=""img/land3.png"" style=""width:200px; border:14px solid green;"">","null","","","","","","","","","",""
"","image-keyboard-response","34","56721","0.0-34.0","","","","","739.1999999880791","img/land3.png","76","739.6999999880791","3","1","3","2","1,0.7,0.7,0.7,1,0.7,0.7,0.7,1","1,0.7,0.7,0.7,1,0.7,0.7,0.7,1","","",""
"","html-keyboard-response","35","57030","0.0-35.0","","","","","null","<img src=""img/land3.png"" style=""width:200px; border:14px solid green;"">","null","","","","","","","","","",""
"","image-keyboard-response","36","57746","0.0-36.0","","","","","715.5","img/land2.png","75","716.0999999642372","2","1","2","2","1,0.7,0.7,0.7,1,0.7,0.7,0.7,1","1,0.7,0.7,0.7,1,0.7,0.7,0.7,1","","",""
"","html-keyboard-response","37","58054","0.0-37.0","","","","","null","<img src=""img/land2.png"" style=""width:200px; border:14px solid green;"">","null","","","","","","","","","",""
"","image-keyboard-response","38","58553","0.0-38.0","","","","","498.89999997615814","img/land2.png","75","499.4000000357628","2","1","2","2","1,0.7,0.7,0.7,1,0.7,0.7,0.7,1","1,0.7,0.7,0.7,1,0.7,0.7,0.7,1","","",""
"","html-keyboard-response","39","58862","0.0-39.0","","","","","null","<img src=""img/land2.png"" style=""width:200px; border:14px solid green;"">","null","","","","","","","","","",""
"","image-keyboard-response","40","59338","0.0-40.0","","","","","475.0999999642372","img/land2.png","75","475.69999998807907","2","1","2","2","1,0.7,0.7,0.7,1,0.7,0.7,0.7,1","1,0.7,0.7,0.7,1,0.7,0.7,0.7,1","","",""
"","html-keyboard-response","41","59646","0.0-41.0","","","","","null","<img src=""img/land2.png"" style=""width:200px; border:14px solid green;"">","null","","","","","","","","","",""
"","image-keyboard-response","42","60369","0.0-42.0","","","","","722.7999999523163","img/land3.png","76","723.3000000119209","3","1","3","2","1,0.7,0.7,0.7,1,0.7,0.7,0.7,1","1,0.7,0.7,0.7,1,0.7,0.7,0.7,1","","",""
"","html-keyboard-response","43","60678","0.0-43.0","","","","","null","<img src=""img/land3.png"" style=""width:200px; border:14px solid green;"">","null","","","","","","","","","",""
"","image-keyboard-response","44","61169","0.0-44.0","","","","","490.7999999523163","img/land3.png","76","491.30000001192093","3","1","3","2","1,0.7,0.7,0.7,1,0.7,0.7,0.7,1","1,0.7,0.7,0.7,1,0.7,0.7,0.7,1","","",""
"","html-keyboard-response","45","61478","0.0-45.0","","","","","null","<img src=""img/land3.png"" style=""width:200px; border:14px solid green;"">","null","","","","","","","","","",""
"","image-keyboard-response","46","61857","0.0-46.0","","","","","378.69999998807907","img/land3.png","76","379.30000001192093","3","1","3","2","1,0.7,0.7,0.7,1,0.7,0.7,0.7,1","1,0.7,0.7,0.7,1,0.7,0.7,0.7,1","","",""
"","html-keyboard-response","47","62166","0.0-47.0","","","","","null","<img src=""img/land3.png"" style=""width:200px; border:14px solid green;"">","null","","","","","","","","","",""
"","image-keyboard-response","48","62586","0.0-48.0","","","","","419","img/land3.png","76","419.69999998807907","3","1","3","2","1,0.7,0.7,0.7,1,0.7,0.7,0.7,1","1,0.7,0.7,0.7,1,0.7,0.7,0.7,1","","",""
"","html-keyboard-response","49","62894","0.0-49.0","","","","","null","<img src=""img/land3.png"" style=""width:200px; border:14px solid green;"">","null","","","","","","","","","",""
"","image-keyboard-response","50","63281","0.0-50.0","","","","","386.5999999642372","img/land3.png","76","387.10000002384186","3","1","3","2","1,0.7,0.7,0.7,1,0.7,0.7,0.7,1","1,0.7,0.7,0.7,1,0.7,0.7,0.7,1","","",""
"","html-keyboard-response","51","63590","0.0-51.0","","","","","null","<img src=""img/land3.png"" style=""width:200px; border:14px solid green;"">","null","","","","","","","","","",""
"","image-keyboard-response","52","64185","0.0-52.0","","","","","594.8000000119209","img/land1.png","75","595.3999999761581","2","1","1","2","1,0.7,0.7,0.7,1,0.7,0.7,0.7,1","1,0.7,0.7,0.7,1,0.7,0.7,0.7,1","","",""
"","html-keyboard-response","53","64494","0.0-53.0","","","","","null","<img src=""img/land1.png"" style=""width:200px; border:14px solid green;"">","null","","","","","","","","","",""
"","image-keyboard-response","54","65969","0.0-54.0","","","","","1474.800000011921","img/land3.png","76","1475.3999999761581","3","1","3","2","1,0.7,0.7,0.7,1,0.7,0.7,0.7,1","1,0.7,0.7,0.7,1,0.7,0.7,0.7,1","","",""
"","html-keyboard-response","55","66278","0.0-55.0","","","","","null","<img src=""img/land3.png"" style=""width:200px; border:14px solid green;"">","null","","","","","","","","","",""
"","image-keyboard-response","56","66785","0.0-56.0","","","","","506.30000001192093","img/land3.png","76","507","3","1","3","2","1,0.7,0.7,0.7,1,0.7,0.7,0.7,1","1,0.7,0.7,0.7,1,0.7,0.7,0.7,1","","",""
"","html-keyboard-response","57","67094","0.0-57.0","","","","","null","<img src=""img/land3.png"" style=""width:200px; border:14px solid green;"">","null","","","","","","","","","",""
"","image-keyboard-response","58","67545","0.0-58.0","","","","","450.7000000476837","img/land3.png","76","451.19999998807907","3","1","3","2","1,0.7,0.7,0.7,1,0.7,0.7,0.7,1","1,0.7,0.7,0.7,1,0.7,0.7,0.7,1","","",""
"","html-keyboard-response","59","67854","0.0-59.0","","","","","null","<img src=""img/land3.png"" style=""width:200px; border:14px solid green;"">","null","","","","","","","","","",""
"","image-keyboard-response","60","68498","0.0-60.0","","","","","642.8999999761581","img/land1.png","74","643.4000000357628","1","1","1","2","1,0.7,0.7,0.7,1,0.7,0.7,0.7,1","1,0.7,0.7,0.7,1,0.7,0.7,0.7,1","","",""
"","html-keyboard-response","61","68806","0.0-61.0","","","","","null","<img src=""img/land1.png"" style=""width:200px; border:14px solid green;"">","null","","","","","","","","","",""
"","image-keyboard-response","62","69538","0.0-62.0","","","","","730.6999999880791","img/land3.png","76","731.3999999761581","3","1","3","2","1,0.7,0.7,0.7,1,0.7,0.7,0.7,1","1,0.7,0.7,0.7,1,0.7,0.7,0.7,1","","",""
"","html-keyboard-response","63","69846","0.0-63.0","","","","","null","<img src=""img/land3.png"" style=""width:200px; border:14px solid green;"">","null","","","","","","","","","",""
"","image-keyboard-response","64","70609","0.0-64.0","","","","","762.6000000238419","img/land3.png","76","763.1000000238419","3","1","3","2","1,0.7,0.7,0.7,1,0.7,0.7,0.7,1","1,0.7,0.7,0.7,1,0.7,0.7,0.7,1","","",""
"","html-keyboard-response","65","70918","0.0-65.0","","","","","null","<img src=""img/land3.png"" style=""width:200px; border:14px solid green;"">","null","","","","","","","","","",""
"","image-keyboard-response","66","71593","0.0-66.0","","","","","674.5","img/land1.png","74","675","1","1","1","2","1,0.7,0.7,0.7,1,0.7,0.7,0.7,1","1,0.7,0.7,0.7,1,0.7,0.7,0.7,1","","",""
"","html-keyboard-response","67","71902","0.0-67.0","","","","","null","<img src=""img/land1.png"" style=""width:200px; border:14px solid green;"">","null","","","","","","","","","",""
"","image-keyboard-response","68","72865","0.0-68.0","","","","","961.8000000119209","img/land3.png","76","962.6999999880791","3","1","3","2","1,0.7,0.7,0.7,1,0.7,0.7,0.7,1","1,0.7,0.7,0.7,1,0.7,0.7,0.7,1","","",""
"","html-keyboard-response","69","73173","0.0-69.0","","","","","null","<img src=""img/land3.png"" style=""width:200px; border:14px solid green;"">","null","","","","","","","","","",""
"","image-keyboard-response","70","73761","0.0-70.0","","","","","587.5","img/land1.png","74","588","1","1","1","2","1,0.7,0.7,0.7,1,0.7,0.7,0.7,1","1,0.7,0.7,0.7,1,0.7,0.7,0.7,1","","",""
"","html-keyboard-response","71","74069","0.0-71.0","","","","","null","<img src=""img/land1.png"" style=""width:200px; border:14px solid green;"">","null","","","","","","","","","",""
"","image-keyboard-response","72","74826","0.0-72.0","","","","","755.1999999880791","img/land3.png","76","756","3","1","3","2","1,0.7,0.7,0.7,1,0.7,0.7,0.7,1","1,0.7,0.7,0.7,1,0.7,0.7,0.7,1","","",""
"","html-keyboard-response","73","75133","0.0-73.0","","","","","null","<img src=""img/land3.png"" style=""width:200px; border:14px solid green;"">","null","","","","","","","","","",""
"","image-keyboard-response","74","75753","0.0-74.0","","","","","618.8999999761581","img/land3.png","76","619.5","3","1","3","2","1,0.7,0.7,0.7,1,0.7,0.7,0.7,1","1,0.7,0.7,0.7,1,0.7,0.7,0.7,1","","",""
"","html-keyboard-response","75","76061","0.0-75.0","","","","","null","<img src=""img/land3.png"" style=""width:200px; border:14px solid green;"">","null","","","","","","","","","",""
"","image-keyboard-response","76","76497","0.0-76.0","","","","","434.89999997615814","img/land3.png","76","435.39999997615814","3","1","3","2","1,0.7,0.7,0.7,1,0.7,0.7,0.7,1","1,0.7,0.7,0.7,1,0.7,0.7,0.7,1","","",""
"","html-keyboard-response","77","76806","0.0-77.0","","","","","null","<img src=""img/land3.png"" style=""width:200px; border:14px solid green;"">","null","","","","","","","","","",""
"","image-keyboard-response","78","77209","0.0-78.0","","","","","402.9000000357628","img/land3.png","76","403.39999997615814","3","1","3","2","1,0.7,0.7,0.7,1,0.7,0.7,0.7,1","1,0.7,0.7,0.7,1,0.7,0.7,0.7,1","","",""
"","html-keyboard-response","79","77518","0.0-79.0","","","","","null","<img src=""img/land3.png"" style=""width:200px; border:14px solid green;"">","null","","","","","","","","","",""
"","image-keyboard-response","80","78353","0.0-80.0","","","","","835.1000000238419","img/land2.png","75","835.6999999880791","2","1","2","2","1,0.7,0.7,0.7,1,0.7,0.7,0.7,1","1,0.7,0.7,0.7,1,0.7,0.7,0.7,1","","",""
"","html-keyboard-response","81","78662","0.0-81.0","","","","","null","<img src=""img/land2.png"" style=""width:200px; border:14px solid green;"">","null","","","","","","","","","",""
"","image-keyboard-response","82","79418","0.0-82.0","","","","","755.3000000119209","img/land3.png","76","755.7999999523163","3","1","3","2","1,0.7,0.7,0.7,1,0.7,0.7,0.7,1","1,0.7,0.7,0.7,1,0.7,0.7,0.7,1","","",""
"","html-keyboard-response","83","79726","0.0-83.0","","","","","null","<img src=""img/land3.png"" style=""width:200px; border:14px solid green;"">","null","","","","","","","","","",""
"","image-keyboard-response","84","80137","0.0-84.0","","","","","411.10000002384186","img/land3.png","76","411.69999998807907","3","1","3","2","1,0.7,0.7,0.7,1,0.7,0.7,0.7,1","1,0.7,0.7,0.7,1,0.7,0.7,0.7,1","","",""
"","html-keyboard-response","85","80446","0.0-85.0","","","","","null","<img src=""img/land3.png"" style=""width:200px; border:14px solid green;"">","null","","","","","","","","","",""
"","image-keyboard-response","86","80833","0.0-86.0","","","","","386.60000002384186","img/land3.png","76","387.19999998807907","3","1","3","2","1,0.7,0.7,0.7,1,0.7,0.7,0.7,1","1,0.7,0.7,0.7,1,0.7,0.7,0.7,1","","",""
"","html-keyboard-response","87","81142","0.0-87.0","","","","","null","<img src=""img/land3.png"" style=""width:200px; border:14px solid green;"">","null","","","","","","","","","",""
"","image-keyboard-response","88","81569","0.0-88.0","","","","","426.5","img/land3.png","76","427.10000002384186","3","1","3","2","1,0.7,0.7,0.7,1,0.7,0.7,0.7,1","1,0.7,0.7,0.7,1,0.7,0.7,0.7,1","","",""
"","html-keyboard-response","89","81878","0.0-89.0","","","","","null","<img src=""img/land3.png"" style=""width:200px; border:14px solid green;"">","null","","","","","","","","","",""
"","image-keyboard-response","90","82441","0.0-90.0","","","","","562.8999999761581","img/land2.png","75","563.4000000357628","2","1","2","2","1,0.7,0.7,0.7,1,0.7,0.7,0.7,1","1,0.7,0.7,0.7,1,0.7,0.7,0.7,1","","",""
"","html-keyboard-response","91","82750","0.0-91.0","","","","","null","<img src=""img/land2.png"" style=""width:200px; border:14px solid green;"">","null","","","","","","","","","",""
"","image-keyboard-response","92","83305","0.0-92.0","","","","","554.7999999523163","img/land3.png","76","555.3000000119209","3","1","3","2","1,0.7,0.7,0.7,1,0.7,0.7,0.7,1","1,0.7,0.7,0.7,1,0.7,0.7,0.7,1","","",""
"","html-keyboard-response","93","83614","0.0-93.0","","","","","null","<img src=""img/land3.png"" style=""width:200px; border:14px solid green;"">","null","","","","","","","","","",""
"","image-keyboard-response","94","84401","0.0-94.0","","","","","786.6000000238419","img/land1.png","74","787.3000000119209","1","1","1","2","1,0.7,0.7,0.7,1,0.7,0.7,0.7,1","1,0.7,0.7,0.7,1,0.7,0.7,0.7,1","","",""
"","html-keyboard-response","95","84710","0.0-95.0","","","","","null","<img src=""img/land1.png"" style=""width:200px; border:14px solid green;"">","null","","","","","","","","","",""
"","image-keyboard-response","96","85353","0.0-96.0","","","","","642.8000000119209","img/land3.png","76","643.3000000119209","3","1","3","2","1,0.7,0.7,0.7,1,0.7,0.7,0.7,1","1,0.7,0.7,0.7,1,0.7,0.7,0.7,1","","",""
"","html-keyboard-response","97","85662","0.0-97.0","","","","","null","<img src=""img/land3.png"" style=""width:200px; border:14px solid green;"">","null","","","","","","","","","",""
"","image-keyboard-response","98","86177","0.0-98.0","","","","","514.8000000119209","img/land3.png","76","515.3000000119209","3","1","3","2","1,0.7,0.7,0.7,1,0.7,0.7,0.7,1","1,0.7,0.7,0.7,1,0.7,0.7,0.7,1","","",""
"","html-keyboard-response","99","86486","0.0-99.0","","","","","null","<img src=""img/land3.png"" style=""width:200px; border:14px solid green;"">","null","","","","","","","","","",""
"","image-keyboard-response","100","87177","0.0-100.0","","","","","690.5999999642372","img/land1.png","74","691.2000000476837","1","1","1","2","1,0.7,0.7,0.7,1,0.7,0.7,0.7,1","1,0.7,0.7,0.7,1,0.7,0.7,0.7,1","","",""
"","html-keyboard-response","101","87486","0.0-101.0","","","","","null","<img src=""img/land1.png"" style=""width:200px; border:14px solid green;"">","null","","","","","","","","","",""
"","image-keyboard-response","102","88153","0.0-102.0","","","","","666.6999999880791","img/land2.png","75","667.1999999880791","2","1","2","2","1,0.7,0.7,0.7,1,0.7,0.7,0.7,1","1,0.7,0.7,0.7,1,0.7,0.7,0.7,1","","",""
"","html-keyboard-response","103","88462","0.0-103.0","","","","","null","<img src=""img/land2.png"" style=""width:200px; border:14px solid green;"">","null","","","","","","","","","",""
"","image-keyboard-response","104","89281","0.0-104.0","","","","","818.5","img/land1.png","74","819","1","1","1","2","1,0.7,0.7,0.7,1,0.7,0.7,0.7,1","1,0.7,0.7,0.7,1,0.7,0.7,0.7,1","","",""
"","html-keyboard-response","105","89590","0.0-105.0","","","","","null","<img src=""img/land1.png"" style=""width:200px; border:14px solid green;"">","null","","","","","","","","","",""
"","image-keyboard-response","106","90169","0.0-106.0","","","","","578.5","img/land3.png","76","579.0999999642372","3","1","3","2","1,0.7,0.7,0.7,1,0.7,0.7,0.7,1","1,0.7,0.7,0.7,1,0.7,0.7,0.7,1","","",""
"","html-keyboard-response","107","90478","0.0-107.0","","","","","null","<img src=""img/land3.png"" style=""width:200px; border:14px solid green;"">","null","","","","","","","","","",""
"","image-keyboard-response","108","90945","0.0-108.0","","","","","466.39999997615814","img/land3.png","76","467.0999999642372","3","1","3","2","1,0.7,0.7,0.7,1,0.7,0.7,0.7,1","1,0.7,0.7,0.7,1,0.7,0.7,0.7,1","","",""
"","html-keyboard-response","109","91254","0.0-109.0","","","","","null","<img src=""img/land3.png"" style=""width:200px; border:14px solid green;"">","null","","","","","","","","","",""
"","image-keyboard-response","110","92001","0.0-110.0","","","","","746.3000000119209","img/land1.png","74","746.8999999761581","1","1","1","2","1,0.7,0.7,0.7,1,0.7,0.7,0.7,1","1,0.7,0.7,0.7,1,0.7,0.7,0.7,1","","",""
"","html-keyboard-response","111","92310","0.0-111.0","","","","","null","<img src=""img/land1.png"" style=""width:200px; border:14px solid green;"">","null","","","","","","","","","",""
"","image-keyboard-response","112","92777","0.0-112.0","","","","","466","img/land1.png","74","466.5","1","1","1","2","1,0.7,0.7,0.7,1,0.7,0.7,0.7,1","1,0.7,0.7,0.7,1,0.7,0.7,0.7,1","","",""
"","html-keyboard-response","113","93086","0.0-113.0","","","","","null","<img src=""img/land1.png"" style=""width:200px; border:14px solid green;"">","null","","","","","","","","","",""
"","image-keyboard-response","114","93721","0.0-114.0","","","","","634.1999999880791","img/land3.png","76","634.6999999880791","3","1","3","2","1,0.7,0.7,0.7,1,0.7,0.7,0.7,1","1,0.7,0.7,0.7,1,0.7,0.7,0.7,1","","",""
"","html-keyboard-response","115","94030","0.0-115.0","","","","","null","<img src=""img/land3.png"" style=""width:200px; border:14px solid green;"">","null","","","","","","","","","",""
"","image-keyboard-response","116","94665","0.0-116.0","","","","","634","img/land2.png","75","634.3999999761581","2","1","2","2","1,0.7,0.7,0.7,1,0.7,0.7,0.7,1","1,0.7,0.7,0.7,1,0.7,0.7,0.7,1","","",""
"","html-keyboard-response","117","94967","0.0-117.0","","","","","null","<img src=""img/land2.png"" style=""width:200px; border:14px solid green;"">","null","","","","","","","","","",""
"","image-keyboard-response","118","95425","0.0-118.0","","","","","457.80000001192093","img/land2.png","75","458.39999997615814","2","1","2","2","1,0.7,0.7,0.7,1,0.7,0.7,0.7,1","1,0.7,0.7,0.7,1,0.7,0.7,0.7,1","","",""
"","html-keyboard-response","119","95733","0.0-119.0","","","","","null","<img src=""img/land2.png"" style=""width:200px; border:14px solid green;"">","null","","","","","","","","","",""
"","image-keyboard-response","120","96385","0.0-120.0","","","","","650.9000000357628","img/land1.png","74","651.4000000357628","1","1","1","2","1,0.7,0.7,0.7,1,0.7,0.7,0.7,1","1,0.7,0.7,0.7,1,0.7,0.7,0.7,1","","",""
"","html-keyboard-response","121","96693","0.0-121.0","","","","","null","<img src=""img/land1.png"" style=""width:200px; border:14px solid green;"">","null","","","","","","","","","",""
"","image-keyboard-response","122","97473","0.0-122.0","","","","","779.0999999642372","img/land3.png","76","779.5999999642372","3","1","3","2","1,0.7,0.7,0.7,1,0.7,0.7,0.7,1","1,0.7,0.7,0.7,1,0.7,0.7,0.7,1","","",""
"","html-keyboard-response","123","97781","0.0-123.0","","","","","null","<img src=""img/land3.png"" style=""width:200px; border:14px solid green;"">","null","","","","","","","","","",""
"","image-keyboard-response","124","98641","0.0-124.0","","","","","858.5","img/land2.png","75","859.1999999880791","2","1","2","2","1,0.7,0.7,0.7,1,0.7,0.7,0.7,1","1,0.7,0.7,0.7,1,0.7,0.7,0.7,1","","",""
"","html-keyboard-response","125","98949","0.0-125.0","","","","","null","<img src=""img/land2.png"" style=""width:200px; border:14px solid green;"">","null","","","","","","","","","",""
"","image-keyboard-response","126","99561","0.0-126.0","","","","","610.6000000238419","img/land2.png","75","611.3000000119209","2","1","2","2","1,0.7,0.7,0.7,1,0.7,0.7,0.7,1","1,0.7,0.7,0.7,1,0.7,0.7,0.7,1","","",""
"","html-keyboard-response","127","99870","0.0-127.0","","","","","null","<img src=""img/land2.png"" style=""width:200px; border:14px solid green;"">","null","","","","","","","","","",""
"","image-keyboard-response","128","100465","0.0-128.0","","","","","595.1999999880791","img/land1.png","74","595.5","1","1","1","2","1,0.7,0.7,0.7,1,0.7,0.7,0.7,1","1,0.7,0.7,0.7,1,0.7,0.7,0.7,1","","",""
"","html-keyboard-response","129","100774","0.0-129.0","","","","","null","<img src=""img/land1.png"" style=""width:200px; border:14px solid green;"">","null","","","","","","","","","",""
"","image-keyboard-response","130","101441","0.0-130.0","","","","","666.3999999761581","img/land3.png","76","667.1999999880791","3","1","3","2","1,0.7,0.7,0.7,1,0.7,0.7,0.7,1","1,0.7,0.7,0.7,1,0.7,0.7,0.7,1","","",""
"","html-keyboard-response","131","101750","0.0-131.0","","","","","null","<img src=""img/land3.png"" style=""width:200px; border:14px solid green;"">","null","","","","","","","","","",""
"","image-keyboard-response","132","102593","0.0-132.0","","","","","842.6000000238419","img/land1.png","74","843.1999999880791","1","1","1","2","1,0.7,0.7,0.7,1,0.7,0.7,0.7,1","1,0.7,0.7,0.7,1,0.7,0.7,0.7,1","","",""
"","html-keyboard-response","133","102902","0.0-133.0","","","","","null","<img src=""img/land1.png"" style=""width:200px; border:14px solid green;"">","null","","","","","","","","","",""
"","image-keyboard-response","134","103497","0.0-134.0","","","","","594.5999999642372","img/land3.png","76","595.0999999642372","3","1","3","2","1,0.7,0.7,0.7,1,0.7,0.7,0.7,1","1,0.7,0.7,0.7,1,0.7,0.7,0.7,1","","",""
"","html-keyboard-response","135","103798","0.0-135.0","","","","","null","<img src=""img/land3.png"" style=""width:200px; border:14px solid green;"">","null","","","","","","","","","",""
"","image-keyboard-response","136","104401","0.0-136.0","","","","","602.5999999642372","img/land3.png","76","603.0999999642372","3","1","3","2","1,0.7,0.7,0.7,1,0.7,0.7,0.7,1","1,0.7,0.7,0.7,1,0.7,0.7,0.7,1","","",""
"","html-keyboard-response","137","104702","0.0-137.0","","","","","null","<img src=""img/land3.png"" style=""width:200px; border:14px solid green;"">","null","","","","","","","","","",""
"","image-keyboard-response","138","105201","0.0-138.0","","","","","498.2000000476837","img/land3.png","76","499","3","1","3","2","1,0.7,0.7,0.7,1,0.7,0.7,0.7,1","1,0.7,0.7,0.7,1,0.7,0.7,0.7,1","","",""
"","html-keyboard-response","139","105510","0.0-139.0","","","","","null","<img src=""img/land3.png"" style=""width:200px; border:14px solid green;"">","null","","","","","","","","","",""
"","image-keyboard-response","140","105897","0.0-140.0","","","","","386.5","img/land3.png","76","387.0999999642372","3","1","3","2","1,0.7,0.7,0.7,1,0.7,0.7,0.7,1","1,0.7,0.7,0.7,1,0.7,0.7,0.7,1","","",""
"","html-keyboard-response","141","106206","0.0-141.0","","","","","null","<img src=""img/land3.png"" style=""width:200px; border:14px solid green;"">","null","","","","","","","","","",""
"","image-keyboard-response","142","106585","0.0-142.0","","","","","378.5","img/land3.png","76","378.9000000357628","3","1","3","2","1,0.7,0.7,0.7,1,0.7,0.7,0.7,1","1,0.7,0.7,0.7,1,0.7,0.7,0.7,1","","",""
"","html-keyboard-response","143","106894","0.0-143.0","","","","","null","<img src=""img/land3.png"" style=""width:200px; border:14px solid green;"">","null","","","","","","","","","",""
"","image-keyboard-response","144","107265","0.0-144.0","","","","","370.5","img/land3.png","76","371.0999999642372","3","1","3","2","1,0.7,0.7,0.7,1,0.7,0.7,0.7,1","1,0.7,0.7,0.7,1,0.7,0.7,0.7,1","","",""
"","html-keyboard-response","145","107574","0.0-145.0","","","","","null","<img src=""img/land3.png"" style=""width:200px; border:14px solid green;"">","null","","","","","","","","","",""
"","image-keyboard-response","146","108049","0.0-146.0","","","","","473.89999997615814","img/land3.png","76","474.60000002384186","3","1","3","2","1,0.7,0.7,0.7,1,0.7,0.7,0.7,1","1,0.7,0.7,0.7,1,0.7,0.7,0.7,1","","",""
"","html-keyboard-response","147","108350","0.0-147.0","","","","","null","<img src=""img/land3.png"" style=""width:200px; border:14px solid green;"">","null","","","","","","","","","",""
"","image-keyboard-response","148","108697","0.0-148.0","","","","","346.19999998807907","img/land3.png","76","346.80000001192093","3","1","3","2","1,0.7,0.7,0.7,1,0.7,0.7,0.7,1","1,0.7,0.7,0.7,1,0.7,0.7,0.7,1","","",""
"","html-keyboard-response","149","109006","0.0-149.0","","","","","null","<img src=""img/land3.png"" style=""width:200px; border:14px solid green;"">","null","","","","","","","","","",""
"","image-keyboard-response","150","109329","0.0-150.0","","","","","322.0999999642372","img/land3.png","76","322.60000002384186","3","1","3","2","1,0.7,0.7,0.7,1,0.7,0.7,0.7,1","1,0.7,0.7,0.7,1,0.7,0.7,0.7,1","","",""
"","html-keyboard-response","151","109638","0.0-151.0","","","","","null","<img src=""img/land3.png"" style=""width:200px; border:14px solid green;"">","null","","","","","","","","","",""
"","image-keyboard-response","152","110473","0.0-152.0","","","","","834.6000000238419","img/land1.png","74","835.1000000238419","1","1","1","2","1,0.7,0.7,0.7,1,0.7,0.7,0.7,1","1,0.7,0.7,0.7,1,0.7,0.7,0.7,1","","",""
"","html-keyboard-response","153","110782","0.0-153.0","","","","","null","<img src=""img/land1.png"" style=""width:200px; border:14px solid green;"">","null","","","","","","","","","",""
"","image-keyboard-response","154","111217","0.0-154.0","","","","","433.60000002384186","img/land1.png","74","434.19999998807907","1","1","1","2","1,0.7,0.7,0.7,1,0.7,0.7,0.7,1","1,0.7,0.7,0.7,1,0.7,0.7,0.7,1","","",""
"","html-keyboard-response","155","111518","0.0-155.0","","","","","null","<img src=""img/land1.png"" style=""width:200px; border:14px solid green;"">","null","","","","","","","","","",""
"","image-keyboard-response","156","112369","0.0-156.0","","","","","850.3000000119209","img/land3.png","76","850.8000000119209","3","1","3","2","1,0.7,0.7,0.7,1,0.7,0.7,0.7,1","1,0.7,0.7,0.7,1,0.7,0.7,0.7,1","","",""
"","html-keyboard-response","157","112678","0.0-157.0","","","","","null","<img src=""img/land3.png"" style=""width:200px; border:14px solid green;"">","null","","","","","","","","","",""
"","image-keyboard-response","158","113112","0.0-158.0","","","","","433.80000001192093","img/land3.png","76","434.19999998807907","3","1","3","2","1,0.7,0.7,0.7,1,0.7,0.7,0.7,1","1,0.7,0.7,0.7,1,0.7,0.7,0.7,1","","",""
"","html-keyboard-response","159","113414","0.0-159.0","","","","","null","<img src=""img/land3.png"" style=""width:200px; border:14px solid green;"">","null","","","","","","","","","",""
"","image-keyboard-response","160","113713","0.0-160.0","","","","","297.80000001192093","img/land3.png","76","298.39999997615814","3","1","3","2","1,0.7,0.7,0.7,1,0.7,0.7,0.7,1","1,0.7,0.7,0.7,1,0.7,0.7,0.7,1","","",""
"","html-keyboard-response","161","114014","0.0-161.0","","","","","null","<img src=""img/land3.png"" style=""width:200px; border:14px solid green;"">","null","","","","","","","","","",""
"","image-keyboard-response","162","114721","0.0-162.0","","","","","705.8000000119209","img/land1.png","74","706.3000000119209","1","1","1","2","1,0.7,0.7,0.7,1,0.7,0.7,0.7,1","1,0.7,0.7,0.7,1,0.7,0.7,0.7,1","","",""
"","html-keyboard-response","163","115022","0.0-163.0","","","","","null","<img src=""img/land1.png"" style=""width:200px; border:14px solid green;"">","null","","","","","","","","","",""
"","image-keyboard-response","164","115424","0.0-164.0","","","","","401.60000002384186","img/land1.png","74","402.19999998807907","1","1","1","2","1,0.7,0.7,0.7,1,0.7,0.7,0.7,1","1,0.7,0.7,0.7,1,0.7,0.7,0.7,1","","",""
"","html-keyboard-response","165","115726","0.0-165.0","","","","","null","<img src=""img/land1.png"" style=""width:200px; border:14px solid green;"">","null","","","","","","","","","",""
"","image-keyboard-response","166","116465","0.0-166.0","","","","","737.6000000238419","img/land3.png","76","738.0999999642372","3","1","3","2","1,0.7,0.7,0.7,1,0.7,0.7,0.7,1","1,0.7,0.7,0.7,1,0.7,0.7,0.7,1","","",""
"","html-keyboard-response","167","116767","0.0-167.0","","","","","null","<img src=""img/land3.png"" style=""width:200px; border:14px solid green;"">","null","","","","","","","","","",""
"","image-keyboard-response","168","117193","0.0-168.0","","","","","425.5999999642372","img/land3.png","76","426.19999998807907","3","1","3","2","1,0.7,0.7,0.7,1,0.7,0.7,0.7,1","1,0.7,0.7,0.7,1,0.7,0.7,0.7,1","","",""
"","html-keyboard-response","169","117495","0.0-169.0","","","","","null","<img src=""img/land3.png"" style=""width:200px; border:14px solid green;"">","null","","","","","","","","","",""
"","image-keyboard-response","170","117865","0.0-170.0","","","","","369.69999998807907","img/land3.png","76","370.30000001192093","3","1","3","2","1,0.7,0.7,0.7,1,0.7,0.7,0.7,1","1,0.7,0.7,0.7,1,0.7,0.7,0.7,1","","",""
"","html-keyboard-response","171","118175","0.0-171.0","","","","","null","<img src=""img/land3.png"" style=""width:200px; border:14px solid green;"">","null","","","","","","","","","",""
"","image-keyboard-response","172","118953","0.0-172.0","","","","","777.7999999523163","img/land2.png","75","778.3000000119209","2","1","2","2","1,0.7,0.7,0.7,1,0.7,0.7,0.7,1","1,0.7,0.7,0.7,1,0.7,0.7,0.7,1","","",""
"","html-keyboard-response","173","119262","0.0-173.0","","","","","null","<img src=""img/land2.png"" style=""width:200px; border:14px solid green;"">","null","","","","","","","","","",""
"","image-keyboard-response","174","120001","0.0-174.0","","","","","738.6000000238419","img/land3.png","76","739.1000000238419","3","1","3","2","1,0.7,0.7,0.7,1,0.7,0.7,0.7,1","1,0.7,0.7,0.7,1,0.7,0.7,0.7,1","","",""
"","html-keyboard-response","175","120302","0.0-175.0","","","","","null","<img src=""img/land3.png"" style=""width:200px; border:14px solid green;"">","null","","","","","","","","","",""
"","image-keyboard-response","176","121057","0.0-176.0","","","","","754.8999999761581","img/land1.png","74","755.4000000357628","1","1","1","2","1,0.7,0.7,0.7,1,0.7,0.7,0.7,1","1,0.7,0.7,0.7,1,0.7,0.7,0.7,1","","",""
"","html-keyboard-response","177","121366","0.0-177.0","","","","","null","<img src=""img/land1.png"" style=""width:200px; border:14px solid green;"">","null","","","","","","","","","",""
"","image-keyboard-response","178","122009","0.0-178.0","","","","","642.3000000119209","img/land2.png","75","643","2","1","2","2","1,0.7,0.7,0.7,1,0.7,0.7,0.7,1","1,0.7,0.7,0.7,1,0.7,0.7,0.7,1","","",""
"","html-keyboard-response","179","122318","0.0-179.0","","","","","null","<img src=""img/land2.png"" style=""width:200px; border:14px solid green;"">","null","","","","","","","","","",""
"","image-keyboard-response","180","122937","0.0-180.0","","","","","618","img/land2.png","75","618.5999999642372","2","1","2","2","1,0.7,0.7,0.7,1,0.7,0.7,0.7,1","1,0.7,0.7,0.7,1,0.7,0.7,0.7,1","","",""
"","html-keyboard-response","181","123238","0.0-181.0","","","","","null","<img src=""img/land2.png"" style=""width:200px; border:14px solid green;"">","null","","","","","","","","","",""
"","image-keyboard-response","182","123769","0.0-182.0","","","","","530.5","img/land3.png","76","531.1000000238419","3","1","3","2","1,0.7,0.7,0.7,1,0.7,0.7,0.7,1","1,0.7,0.7,0.7,1,0.7,0.7,0.7,1","","",""
"","html-keyboard-response","183","124078","0.0-183.0","","","","","null","<img src=""img/land3.png"" style=""width:200px; border:14px solid green;"">","null","","","","","","","","","",""
"","image-keyboard-response","184","124545","0.0-184.0","","","","","466.5","img/land3.png","76","467","3","1","3","2","1,0.7,0.7,0.7,1,0.7,0.7,0.7,1","1,0.7,0.7,0.7,1,0.7,0.7,0.7,1","","",""
"","html-keyboard-response","185","124846","0.0-185.0","","","","","null","<img src=""img/land3.png"" style=""width:200px; border:14px solid green;"">","null","","","","","","","","","",""
"","image-keyboard-response","186","125273","0.0-186.0","","","","","426","img/land3.png","76","426.5","3","1","3","2","1,0.7,0.7,0.7,1,0.7,0.7,0.7,1","1,0.7,0.7,0.7,1,0.7,0.7,0.7,1","","",""
"","html-keyboard-response","187","125574","0.0-187.0","","","","","null","<img src=""img/land3.png"" style=""width:200px; border:14px solid green;"">","null","","","","","","","","","",""
"","image-keyboard-response","188","125985","0.0-188.0","","","","","410.39999997615814","img/land3.png","76","411.0999999642372","3","1","3","2","1,0.7,0.7,0.7,1,0.7,0.7,0.7,1","1,0.7,0.7,0.7,1,0.7,0.7,0.7,1","","",""
"","html-keyboard-response","189","126294","0.0-189.0","","","","","null","<img src=""img/land3.png"" style=""width:200px; border:14px solid green;"">","null","","","","","","","","","",""
"","image-keyboard-response","190","127297","0.0-190.0","","","","","1002.2999999523163","img/land1.png","74","1002.8000000119209","1","1","1","2","1,0.7,0.7,0.7,1,0.7,0.7,0.7,1","1,0.7,0.7,0.7,1,0.7,0.7,0.7,1","","",""
"","html-keyboard-response","191","127606","0.0-191.0","","","","","null","<img src=""img/land1.png"" style=""width:200px; border:14px solid green;"">","null","","","","","","","","","",""
"","image-keyboard-response","192","128291","0.0-192.0","","","","","683.5999999642372","img/land3.png","76","684.3000000119209","3","1","3","2","1,0.7,0.7,0.7,1,0.7,0.7,0.7,1","1,0.7,0.7,0.7,1,0.7,0.7,0.7,1","","",""
"","html-keyboard-response","193","128598","0.0-193.0","","","","","null","<img src=""img/land3.png"" style=""width:200px; border:14px solid green;"">","null","","","","","","","","","",""
"","image-keyboard-response","194","129033","0.0-194.0","","","","","433.7999999523163","img/land3.png","76","434.39999997615814","3","1","3","2","1,0.7,0.7,0.7,1,0.7,0.7,0.7,1","1,0.7,0.7,0.7,1,0.7,0.7,0.7,1","","",""
"","html-keyboard-response","195","129334","0.0-195.0","","","","","null","<img src=""img/land3.png"" style=""width:200px; border:14px solid green;"">","null","","","","","","","","","",""
"","image-keyboard-response","196","129617","0.0-196.0","","","","","281.80000001192093","img/land3.png","76","282.39999997615814","3","1","3","2","1,0.7,0.7,0.7,1,0.7,0.7,0.7,1","1,0.7,0.7,0.7,1,0.7,0.7,0.7,1","","",""
"","html-keyboard-response","197","129918","0.0-197.0","","","","","null","<img src=""img/land3.png"" style=""width:200px; border:14px solid green;"">","null","","","","","","","","","",""
"","image-keyboard-response","198","130145","0.0-198.0","","","","","226.19999998807907","img/land3.png","76","226.70000004768372","3","1","3","2","1,0.7,0.7,0.7,1,0.7,0.7,0.7,1","1,0.7,0.7,0.7,1,0.7,0.7,0.7,1","","",""
"","html-keyboard-response","199","130454","0.0-199.0","","","","","null","<img src=""img/land3.png"" style=""width:200px; border:14px solid green;"">","null","","","","","","","","","",""
"","image-keyboard-response","200","131233","0.0-200.0","","","","","778.1999999880791","img/land2.png","75","778.6000000238419","2","1","2","2","1,0.7,0.7,0.7,1,0.7,0.7,0.7,1","1,0.7,0.7,0.7,1,0.7,0.7,0.7,1","","",""
"","html-keyboard-response","201","131542","0.0-201.0","","","","","null","<img src=""img/land2.png"" style=""width:200px; border:14px solid green;"">","null","","","","","","","","","",""
"","image-keyboard-response","202","132289","0.0-202.0","","","","","745.8000000119209","img/land1.png","74","746.4000000357628","1","1","1","2","1,0.7,0.7,0.7,1,0.7,0.7,0.7,1","1,0.7,0.7,0.7,1,0.7,0.7,0.7,1","","",""
"","html-keyboard-response","203","132590","0.0-203.0","","","","","null","<img src=""img/land1.png"" style=""width:200px; border:14px solid green;"">","null","","","","","","","","","",""
"","image-keyboard-response","204","133129","0.0-204.0","","","","","538","img/land1.png","74","538.6000000238419","1","1","1","2","1,0.7,0.7,0.7,1,0.7,0.7,0.7,1","1,0.7,0.7,0.7,1,0.7,0.7,0.7,1","","",""
"","html-keyboard-response","205","133431","0.0-205.0","","","","","null","<img src=""img/land1.png"" style=""width:200px; border:14px solid green;"">","null","","","","","","","","","",""
"","image-keyboard-response","206","134017","0.0-206.0","","","","","585.8999999761581","img/land2.png","75","586.5","2","1","2","2","1,0.7,0.7,0.7,1,0.7,0.7,0.7,1","1,0.7,0.7,0.7,1,0.7,0.7,0.7,1","","",""
"","html-keyboard-response","207","134319","0.0-207.0","","","","","null","<img src=""img/land2.png"" style=""width:200px; border:14px solid green;"">","null","","","","","","","","","",""
"","image-keyboard-response","208","134945","0.0-208.0","","","","","625.8000000119209","img/land3.png","76","626.3000000119209","3","1","3","2","1,0.7,0.7,0.7,1,0.7,0.7,0.7,1","1,0.7,0.7,0.7,1,0.7,0.7,0.7,1","","",""
"","html-keyboard-response","209","135247","0.0-209.0","","","","","null","<img src=""img/land3.png"" style=""width:200px; border:14px solid green;"">","null","","","","","","","","","",""
"","image-keyboard-response","210","135809","0.0-210.0","","","","","561.7000000476837","img/land3.png","76","562.1999999880791","3","1","3","2","1,0.7,0.7,0.7,1,0.7,0.7,0.7,1","1,0.7,0.7,0.7,1,0.7,0.7,0.7,1","","",""
"","html-keyboard-response","211","136111","0.0-211.0","","","","","null","<img src=""img/land3.png"" style=""width:200px; border:14px solid green;"">","null","","","","","","","","","",""
"","image-keyboard-response","212","136513","0.0-212.0","","","","","401.60000002384186","img/land3.png","76","402.39999997615814","3","1","3","2","1,0.7,0.7,0.7,1,0.7,0.7,0.7,1","1,0.7,0.7,0.7,1,0.7,0.7,0.7,1","","",""
"","html-keyboard-response","213","136815","0.0-213.0","","","","","null","<img src=""img/land3.png"" style=""width:200px; border:14px solid green;"">","null","","","","","","","","","",""
"","image-keyboard-response","214","137217","0.0-214.0","","","","","401.80000001192093","img/land3.png","76","402.39999997615814","3","1","3","2","1,0.7,0.7,0.7,1,0.7,0.7,0.7,1","1,0.7,0.7,0.7,1,0.7,0.7,0.7,1","","",""
"","html-keyboard-response","215","137519","0.0-215.0","","","","","null","<img src=""img/land3.png"" style=""width:200px; border:14px solid green;"">","null","","","","","","","","","",""
"","image-keyboard-response","216","138241","0.0-216.0","","","","","721.6000000238419","img/land2.png","75","722.1000000238419","2","1","2","2","1,0.7,0.7,0.7,1,0.7,0.7,0.7,1","1,0.7,0.7,0.7,1,0.7,0.7,0.7,1","","",""
"","html-keyboard-response","217","138543","0.0-217.0","","","","","null","<img src=""img/land2.png"" style=""width:200px; border:14px solid green;"">","null","","","","","","","","","",""
"","image-keyboard-response","218","139329","0.0-218.0","","","","","785.5999999642372","img/land3.png","76","786.1999999880791","3","1","3","2","1,0.7,0.7,0.7,1,0.7,0.7,0.7,1","1,0.7,0.7,0.7,1,0.7,0.7,0.7,1","","",""
"","html-keyboard-response","219","139631","0.0-219.0","","","","","null","<img src=""img/land3.png"" style=""width:200px; border:14px solid green;"">","null","","","","","","","","","",""
"","image-keyboard-response","220","140353","0.0-220.0","","","","","721.1999999880791","img/land2.png","75","721.8000000119209","2","1","2","2","1,0.7,0.7,0.7,1,0.7,0.7,0.7,1","1,0.7,0.7,0.7,1,0.7,0.7,0.7,1","","",""
"","html-keyboard-response","221","140654","0.0-221.0","","","","","null","<img src=""img/land2.png"" style=""width:200px; border:14px solid green;"">","null","","","","","","","","","",""
"","image-keyboard-response","222","141289","0.0-222.0","","","","","634.6000000238419","img/land3.png","76","635.1000000238419","3","1","3","2","1,0.7,0.7,0.7,1,0.7,0.7,0.7,1","1,0.7,0.7,0.7,1,0.7,0.7,0.7,1","","",""
"","html-keyboard-response","223","141590","0.0-223.0","","","","","null","<img src=""img/land3.png"" style=""width:200px; border:14px solid green;"">","null","","","","","","","","","",""
"","image-keyboard-response","224","142153","0.0-224.0","","","","","562.0999999642372","img/land3.png","76","562.9000000357628","3","1","3","2","1,0.7,0.7,0.7,1,0.7,0.7,0.7,1","1,0.7,0.7,0.7,1,0.7,0.7,0.7,1","","",""
"","html-keyboard-response","225","142454","0.0-225.0","","","","","null","<img src=""img/land3.png"" style=""width:200px; border:14px solid green;"">","null","","","","","","","","","",""
"","image-keyboard-response","226","143353","0.0-226.0","","","","","898.3000000119209","img/land1.png","74","898.6000000238419","1","1","1","2","1,0.7,0.7,0.7,1,0.7,0.7,0.7,1","1,0.7,0.7,0.7,1,0.7,0.7,0.7,1","","",""
"","html-keyboard-response","227","143654","0.0-227.0","","","","","null","<img src=""img/land1.png"" style=""width:200px; border:14px solid green;"">","null","","","","","","","","","",""
"","image-keyboard-response","228","144321","0.0-228.0","","","","","666","img/land2.png","75","666.5","2","1","2","2","1,0.7,0.7,0.7,1,0.7,0.7,0.7,1","1,0.7,0.7,0.7,1,0.7,0.7,0.7,1","","",""
"","html-keyboard-response","229","144622","0.0-229.0","","","","","null","<img src=""img/land2.png"" style=""width:200px; border:14px solid green;"">","null","","","","","","","","","",""
"","image-keyboard-response","230","145265","0.0-230.0","","","","","642.0999999642372","img/land3.png","76","642.6000000238419","3","1","3","2","1,0.7,0.7,0.7,1,0.7,0.7,0.7,1","1,0.7,0.7,0.7,1,0.7,0.7,0.7,1","","",""
"","html-keyboard-response","231","145566","0.0-231.0","","","","","null","<img src=""img/land3.png"" style=""width:200px; border:14px solid green;"">","null","","","","","","","","","",""
"","image-keyboard-response","232","145993","0.0-232.0","","","","","426.0999999642372","img/land3.png","76","426.60000002384186","3","1","3","2","1,0.7,0.7,0.7,1,0.7,0.7,0.7,1","1,0.7,0.7,0.7,1,0.7,0.7,0.7,1","","",""
"","html-keyboard-response","233","146294","0.0-233.0","","","","","null","<img src=""img/land3.png"" style=""width:200px; border:14px solid green;"">","null","","","","","","","","","",""
"","image-keyboard-response","234","146745","0.0-234.0","","","","","449.9000000357628","img/land3.png","76","450.39999997615814","3","1","3","2","1,0.7,0.7,0.7,1,0.7,0.7,0.7,1","1,0.7,0.7,0.7,1,0.7,0.7,0.7,1","","",""
"","html-keyboard-response","235","147046","0.0-235.0","","","","","null","<img src=""img/land3.png"" style=""width:200px; border:14px solid green;"">","null","","","","","","","","","",""
"","image-keyboard-response","236","147817","0.0-236.0","","","","","769.8999999761581","img/land2.png","75","770.5","2","1","2","2","1,0.7,0.7,0.7,1,0.7,0.7,0.7,1","1,0.7,0.7,0.7,1,0.7,0.7,0.7,1","","",""
"","html-keyboard-response","237","148118","0.0-237.0","","","","","null","<img src=""img/land2.png"" style=""width:200px; border:14px solid green;"">","null","","","","","","","","","",""
"","image-keyboard-response","238","148841","0.0-238.0","","","","","722.1000000238419","img/land3.png","76","722.6999999880791","3","1","3","2","1,0.7,0.7,0.7,1,0.7,0.7,0.7,1","1,0.7,0.7,0.7,1,0.7,0.7,0.7,1","","",""
"","html-keyboard-response","239","149142","0.0-239.0","","","","","null","<img src=""img/land3.png"" style=""width:200px; border:14px solid green;"">","null","","","","","","","","","",""
"","image-keyboard-response","240","149841","0.0-240.0","","","","","698.1000000238419","img/land1.png","74","698.6999999880791","1","1","1","2","1,0.7,0.7,0.7,1,0.7,0.7,0.7,1","1,0.7,0.7,0.7,1,0.7,0.7,0.7,1","","",""
"","html-keyboard-response","241","150142","0.0-241.0","","","","","null","<img src=""img/land1.png"" style=""width:200px; border:14px solid green;"">","null","","","","","","","","","",""
"","image-keyboard-response","242","151265","0.0-242.0","","","","","1121.699999988079","img/land3.png","76","1122.300000011921","3","1","3","2","1,0.7,0.7,0.7,1,0.7,0.7,0.7,1","1,0.7,0.7,0.7,1,0.7,0.7,0.7,1","","",""
"","html-keyboard-response","243","151566","0.0-243.0","","","","","null","<img src=""img/land3.png"" style=""width:200px; border:14px solid green;"">","null","","","","","","","","","",""
"","image-keyboard-response","244","152297","0.0-244.0","","","","","729.9000000357628","img/land2.png","75","730.4000000357628","2","1","2","2","1,0.7,0.7,0.7,1,0.7,0.7,0.7,1","1,0.7,0.7,0.7,1,0.7,0.7,0.7,1","","",""
"","html-keyboard-response","245","152598","0.0-245.0","","","","","null","<img src=""img/land2.png"" style=""width:200px; border:14px solid green;"">","null","","","","","","","","","",""
"","image-keyboard-response","246","153233","0.0-246.0","","","","","633.5","img/land3.png","76","634.1000000238419","3","1","3","2","1,0.7,0.7,0.7,1,0.7,0.7,0.7,1","1,0.7,0.7,0.7,1,0.7,0.7,0.7,1","","",""
"","html-keyboard-response","247","153534","0.0-247.0","","","","","null","<img src=""img/land3.png"" style=""width:200px; border:14px solid green;"">","null","","","","","","","","","",""
"","image-keyboard-response","248","154089","0.0-248.0","","","","","553.8000000119209","img/land3.png","76","554.3000000119209","3","1","3","2","1,0.7,0.7,0.7,1,0.7,0.7,0.7,1","1,0.7,0.7,0.7,1,0.7,0.7,0.7,1","","",""
"","html-keyboard-response","249","154390","0.0-249.0","","","","","null","<img src=""img/land3.png"" style=""width:200px; border:14px solid green;"">","null","","","","","","","","","",""
"","image-keyboard-response","250","154753","0.0-250.0","","","","","361.80000001192093","img/land3.png","76","362.2000000476837","3","1","3","2","1,0.7,0.7,0.7,1,0.7,0.7,0.7,1","1,0.7,0.7,0.7,1,0.7,0.7,0.7,1","","",""
"","html-keyboard-response","251","155054","0.0-251.0","","","","","null","<img src=""img/land3.png"" style=""width:200px; border:14px solid green;"">","null","","","","","","","","","",""
"","image-keyboard-response","252","155689","0.0-252.0","","","","","633.6999999880791","img/land2.png","75","634.1999999880791","2","1","2","2","1,0.7,0.7,0.7,1,0.7,0.7,0.7,1","1,0.7,0.7,0.7,1,0.7,0.7,0.7,1","","",""
"","html-keyboard-response","253","155991","0.0-253.0","","","","","null","<img src=""img/land2.png"" style=""width:200px; border:14px solid green;"">","null","","","","","","","","","",""
"","image-keyboard-response","254","156464","0.0-254.0","","","","","473.2000000476837","img/land2.png","75","473.80000001192093","2","1","2","2","1,0.7,0.7,0.7,1,0.7,0.7,0.7,1","1,0.7,0.7,0.7,1,0.7,0.7,0.7,1","","",""
"","html-keyboard-response","255","156767","0.0-255.0","","","","","null","<img src=""img/land2.png"" style=""width:200px; border:14px solid green;"">","null","","","","","","","","","",""
"","image-keyboard-response","256","157424","0.0-256.0","","","","","657.2000000476837","img/land3.png","76","657.6999999880791","3","1","3","2","1,0.7,0.7,0.7,1,0.7,0.7,0.7,1","1,0.7,0.7,0.7,1,0.7,0.7,0.7,1","","",""
"","html-keyboard-response","257","157726","0.0-257.0","","","","","null","<img src=""img/land3.png"" style=""width:200px; border:14px solid green;"">","null","","","","","","","","","",""
"","image-keyboard-response","258","157912","0.0-258.0","","","","","185.20000004768372","img/land3.png","76","185.80000001192093","3","1","3","2","1,0.7,0.7,0.7,1,0.7,0.7,0.7,1","1,0.7,0.7,0.7,1,0.7,0.7,0.7,1","","",""
"","html-keyboard-response","259","158215","0.0-259.0","","","","","null","<img src=""img/land3.png"" style=""width:200px; border:14px solid green;"">","null","","","","","","","","","",""
"","image-keyboard-response","260","158664","0.0-260.0","","","","","449.10000002384186","img/land3.png","76","449.69999998807907","3","1","3","2","1,0.7,0.7,0.7,1,0.7,0.7,0.7,1","1,0.7,0.7,0.7,1,0.7,0.7,0.7,1","","",""
"","html-keyboard-response","261","158967","0.0-261.0","","","","","null","<img src=""img/land3.png"" style=""width:200px; border:14px solid green;"">","null","","","","","","","","","",""
"","image-keyboard-response","262","159344","0.0-262.0","","","","","377.10000002384186","img/land3.png","76","377.60000002384186","3","1","3","2","1,0.7,0.7,0.7,1,0.7,0.7,0.7,1","1,0.7,0.7,0.7,1,0.7,0.7,0.7,1","","",""
"","html-keyboard-response","263","159647","0.0-263.0","","","","","null","<img src=""img/land3.png"" style=""width:200px; border:14px solid green;"">","null","","","","","","","","","",""
"","image-keyboard-response","264","160424","0.0-264.0","","","","","777.3000000119209","img/land1.png","74","777.6999999880791","1","1","1","2","1,0.7,0.7,0.7,1,0.7,0.7,0.7,1","1,0.7,0.7,0.7,1,0.7,0.7,0.7,1","","",""
"","html-keyboard-response","265","160727","0.0-265.0","","","","","null","<img src=""img/land1.png"" style=""width:200px; border:14px solid green;"">","null","","","","","","","","","",""
"","image-keyboard-response","266","161305","0.0-266.0","","","","","577.3000000119209","img/land3.png","76","577.6999999880791","3","1","3","2","1,0.7,0.7,0.7,1,0.7,0.7,0.7,1","1,0.7,0.7,0.7,1,0.7,0.7,0.7,1","","",""
"","html-keyboard-response","267","161607","0.0-267.0","","","","","null","<img src=""img/land3.png"" style=""width:200px; border:14px solid green;"">","null","","","","","","","","","",""
"","image-keyboard-response","268","162473","0.0-268.0","","","","","865.3999999761581","img/land2.png","75","865.9000000357628","2","1","2","2","1,0.7,0.7,0.7,1,0.7,0.7,0.7,1","1,0.7,0.7,0.7,1,0.7,0.7,0.7,1","","",""
"","html-keyboard-response","269","162775","0.0-269.0","","","","","null","<img src=""img/land2.png"" style=""width:200px; border:14px solid green;"">","null","","","","","","","","","",""
"","image-keyboard-response","270","163569","0.0-270.0","","","","","793.0999999642372","img/land1.png","74","793.6000000238419","1","1","1","2","1,0.7,0.7,0.7,1,0.7,0.7,0.7,1","1,0.7,0.7,0.7,1,0.7,0.7,0.7,1","","",""
"","html-keyboard-response","271","163870","0.0-271.0","","","","","null","<img src=""img/land1.png"" style=""width:200px; border:14px solid green;"">","null","","","","","","","","","",""
"","image-keyboard-response","272","164416","0.0-272.0","","","","","545.9000000357628","img/land3.png","76","546.3000000119209","3","1","3","2","1,0.7,0.7,0.7,1,0.7,0.7,0.7,1","1,0.7,0.7,0.7,1,0.7,0.7,0.7,1","","",""
"","html-keyboard-response","273","164718","0.0-273.0","","","","","null","<img src=""img/land3.png"" style=""width:200px; border:14px solid green;"">","null","","","","","","","","","",""
"","image-keyboard-response","274","165177","0.0-274.0","","","","","458","img/land3.png","76","458.5","3","1","3","2","1,0.7,0.7,0.7,1,0.7,0.7,0.7,1","1,0.7,0.7,0.7,1,0.7,0.7,0.7,1","","",""
"","html-keyboard-response","275","165478","0.0-275.0","","","","","null","<img src=""img/land3.png"" style=""width:200px; border:14px solid green;"">","null","","","","","","","","","",""
"","image-keyboard-response","276","166313","0.0-276.0","","","","","834.3000000119209","img/land1.png","74","835.2000000476837","1","1","1","2","1,0.7,0.7,0.7,1,0.7,0.7,0.7,1","1,0.7,0.7,0.7,1,0.7,0.7,0.7,1","","",""
"","html-keyboard-response","277","166622","0.0-277.0","","","","","null","<img src=""img/land1.png"" style=""width:200px; border:14px solid green;"">","null","","","","","","","","","",""
"","image-keyboard-response","278","167552","0.0-278.0","","","","","929.8000000119209","img/land2.png","75","930.3999999761581","2","1","2","2","1,0.7,0.7,0.7,1,0.7,0.7,0.7,1","1,0.7,0.7,0.7,1,0.7,0.7,0.7,1","","",""
"","html-keyboard-response","279","167854","0.0-279.0","","","","","null","<img src=""img/land2.png"" style=""width:200px; border:14px solid green;"">","null","","","","","","","","","",""
"","image-keyboard-response","280","168369","0.0-280.0","","","","","513.7000000476837","img/land3.png","76","514.3999999761581","3","1","3","2","1,0.7,0.7,0.7,1,0.7,0.7,0.7,1","1,0.7,0.7,0.7,1,0.7,0.7,0.7,1","","",""
"","html-keyboard-response","281","168670","0.0-281.0","","","","","null","<img src=""img/land3.png"" style=""width:200px; border:14px solid green;"">","null","","","","","","","","","",""
"","image-keyboard-response","282","169264","0.0-282.0","","","","","593.7000000476837","img/land2.png","75","594.2999999523163","2","1","2","2","1,0.7,0.7,0.7,1,0.7,0.7,0.7,1","1,0.7,0.7,0.7,1,0.7,0.7,0.7,1","","",""
"","html-keyboard-response","283","169566","0.0-283.0","","","","","null","<img src=""img/land2.png"" style=""width:200px; border:14px solid green;"">","null","","","","","","","","","",""
"","image-keyboard-response","284","170057","0.0-284.0","","","","","489.9000000357628","img/land2.png","75","490.5","2","1","2","2","1,0.7,0.7,0.7,1,0.7,0.7,0.7,1","1,0.7,0.7,0.7,1,0.7,0.7,0.7,1","","",""
"","html-keyboard-response","285","170358","0.0-285.0","","","","","null","<img src=""img/land2.png"" style=""width:200px; border:14px solid green;"">","null","","","","","","","","","",""
"","image-keyboard-response","286","171201","0.0-286.0","","","","","841.6999999880791","img/land3.png","76","842.1999999880791","3","1","3","2","1,0.7,0.7,0.7,1,0.7,0.7,0.7,1","1,0.7,0.7,0.7,1,0.7,0.7,0.7,1","","",""
"","html-keyboard-response","287","171502","0.0-287.0","","","","","null","<img src=""img/land3.png"" style=""width:200px; border:14px solid green;"">","null","","","","","","","","","",""
"","image-keyboard-response","288","172161","0.0-288.0","","","","","657.6999999880791","img/land1.png","74","658.0999999642372","1","1","1","2","1,0.7,0.7,0.7,1,0.7,0.7,0.7,1","1,0.7,0.7,0.7,1,0.7,0.7,0.7,1","","",""
"","html-keyboard-response","289","172462","0.0-289.0","","","","","null","<img src=""img/land1.png"" style=""width:200px; border:14px solid green;"">","null","","","","","","","","","",""
"","image-keyboard-response","290","173041","0.0-290.0","","","","","578","img/land3.png","76","578.5999999642372","3","1","3","2","1,0.7,0.7,0.7,1,0.7,0.7,0.7,1","1,0.7,0.7,0.7,1,0.7,0.7,0.7,1","","",""
"","html-keyboard-response","291","173342","0.0-291.0","","","","","null","<img src=""img/land3.png"" style=""width:200px; border:14px solid green;"">","null","","","","","","","","","",""
"","image-keyboard-response","292","173969","0.0-292.0","","","","","625.7999999523163","img/land3.png","76","626.1999999880791","3","1","3","2","1,0.7,0.7,0.7,1,0.7,0.7,0.7,1","1,0.7,0.7,0.7,1,0.7,0.7,0.7,1","","",""
"","html-keyboard-response","293","174270","0.0-293.0","","","","","null","<img src=""img/land3.png"" style=""width:200px; border:14px solid green;"">","null","","","","","","","","","",""
"","image-keyboard-response","294","174697","0.0-294.0","","","","","425.60000002384186","img/land3.png","76","426.10000002384186","3","1","3","2","1,0.7,0.7,0.7,1,0.7,0.7,0.7,1","1,0.7,0.7,0.7,1,0.7,0.7,0.7,1","","",""
"","html-keyboard-response","295","174998","0.0-295.0","","","","","null","<img src=""img/land3.png"" style=""width:200px; border:14px solid green;"">","null","","","","","","","","","",""
"","image-keyboard-response","296","175392","0.0-296.0","","","","","393.0999999642372","img/land3.png","76","393.7000000476837","3","1","3","2","1,0.7,0.7,0.7,1,0.7,0.7,0.7,1","1,0.7,0.7,0.7,1,0.7,0.7,0.7,1","","",""
"","html-keyboard-response","297","175694","0.0-297.0","","","","","null","<img src=""img/land3.png"" style=""width:200px; border:14px solid green;"">","null","","","","","","","","","",""
"","image-keyboard-response","298","176256","0.0-298.0","","","","","561.1999999880791","img/land2.png","75","561.8000000119209","2","1","2","2","1,0.7,0.7,0.7,1,0.7,0.7,0.7,1","1,0.7,0.7,0.7,1,0.7,0.7,0.7,1","","",""
"","html-keyboard-response","299","176558","0.0-299.0","","","","","null","<img src=""img/land2.png"" style=""width:200px; border:14px solid green;"">","null","","","","","","","","","",""
"","image-keyboard-response","300","177393","0.0-300.0","","","","","833.1999999880791","img/land3.png","76","833.8000000119209","3","1","3","2","1,0.7,0.7,0.7,1,0.7,0.7,0.7,1","1,0.7,0.7,0.7,1,0.7,0.7,0.7,1","","",""
"","html-keyboard-response","301","177696","0.0-301.0","","","","","null","<img src=""img/land3.png"" style=""width:200px; border:14px solid green;"">","null","","","","","","","","","",""
"","html-keyboard-response","302","181309","0.0-302.0","","","","","","","","","","","","","","","","",""
"","image-keyboard-response","303","182816","0.0-303.0","","","","","","img/land6.png","","1506.1000000238419","-1","0","3","2","1,0.7,0.7,0.7,1,0.7,0.7,0.7,1","1,0.7,0.7,0.7,1,0.7,0.7,0.7,1","","",""
"","html-keyboard-response","304","183120","0.0-304.0","","","","","null","<img src=""img/land6.png"" style=""width:200px;border:14px solid red;"">","null","","","","","","","","","",""
"","image-keyboard-response","305","183810","0.0-305.0","","","","","689.1999999880791","img/land6.png","75","689.8000000119209","2","1","3","2","1,0.7,0.7,0.7,1,0.7,0.7,0.7,1","1,0.7,0.7,0.7,1,0.7,0.7,0.7,1","","",""
"","html-keyboard-response","306","184112","0.0-306.0","","","","","null","<img src=""img/land6.png"" style=""width:200px; border:14px solid green;"">","null","","","","","","","","","",""
"","image-keyboard-response","307","185282","0.0-307.0","","","","","1169","img/land4.png","74","1169.699999988079","1","1","1","2","1,0.7,0.7,0.7,1,0.7,0.7,0.7,1","1,0.7,0.7,0.7,1,0.7,0.7,0.7,1","","",""
"","html-keyboard-response","308","185584","0.0-308.0","","","","","null","<img src=""img/land4.png"" style=""width:200px; border:14px solid green;"">","null","","","","","","","","","",""
"","image-keyboard-response","309","186505","0.0-309.0","","","","","920.6999999880791","img/land4.png","74","921.4000000357628","1","1","1","2","1,0.7,0.7,0.7,1,0.7,0.7,0.7,1","1,0.7,0.7,0.7,1,0.7,0.7,0.7,1","","",""
"","html-keyboard-response","310","186807","0.0-310.0","","","","","null","<img src=""img/land4.png"" style=""width:200px; border:14px solid green;"">","null","","","","","","","","","",""
"","image-keyboard-response","311","187361","0.0-311.0","","","","","553.5","img/land4.png","74","554.2000000476837","1","1","1","2","1,0.7,0.7,0.7,1,0.7,0.7,0.7,1","1,0.7,0.7,0.7,1,0.7,0.7,0.7,1","","",""
"","html-keyboard-response","312","187663","0.0-312.0","","","","","null","<img src=""img/land4.png"" style=""width:200px; border:14px solid green;"">","null","","","","","","","","","",""
"","image-keyboard-response","313","188394","0.0-313.0","","","","","730.0999999642372","img/land5.png","76","730.8000000119209","3","1","2","2","1,0.7,0.7,0.7,1,0.7,0.7,0.7,1","1,0.7,0.7,0.7,1,0.7,0.7,0.7,1","","",""
"","html-keyboard-response","314","188695","0.0-314.0","","","","","null","<img src=""img/land5.png"" style=""width:200px; border:14px solid green;"">","null","","","","","","","","","",""
"","image-keyboard-response","315","189594","0.0-315.0","","","","","897.6999999880791","img/land4.png","74","898.5","1","1","1","2","1,0.7,0.7,0.7,1,0.7,0.7,0.7,1","1,0.7,0.7,0.7,1,0.7,0.7,0.7,1","","",""
"","html-keyboard-response","316","189895","0.0-316.0","","","","","null","<img src=""img/land4.png"" style=""width:200px; border:14px solid green;"">","null","","","","","","","","","",""
"","image-keyboard-response","317","190330","0.0-317.0","","","","","433.60000002384186","img/land4.png","74","434.39999997615814","1","1","1","2","1,0.7,0.7,0.7,1,0.7,0.7,0.7,1","1,0.7,0.7,0.7,1,0.7,0.7,0.7,1","","",""
"","html-keyboard-response","318","190631","0.0-318.0","","","","","null","<img src=""img/land4.png"" style=""width:200px; border:14px solid green;"">","null","","","","","","","","","",""
"","image-keyboard-response","319","191241","0.0-319.0","","","","","609.6000000238419","img/land6.png","75","610.3999999761581","2","1","3","2","1,0.7,0.7,0.7,1,0.7,0.7,0.7,1","1,0.7,0.7,0.7,1,0.7,0.7,0.7,1","","",""
"","html-keyboard-response","320","191543","0.0-320.0","","","","","null","<img src=""img/land6.png"" style=""width:200px; border:14px solid green;"">","null","","","","","","","","","",""
"","image-keyboard-response","321","192041","0.0-321.0","","","","","497.5","img/land6.png","75","498","2","1","3","2","1,0.7,0.7,0.7,1,0.7,0.7,0.7,1","1,0.7,0.7,0.7,1,0.7,0.7,0.7,1","","",""
"","html-keyboard-response","322","192343","0.0-322.0","","","","","null","<img src=""img/land6.png"" style=""width:200px; border:14px solid green;"">","null","","","","","","","","","",""
"","image-keyboard-response","323","192945","0.0-323.0","","","","","601.2999999523163","img/land5.png","76","602","3","1","2","2","1,0.7,0.7,0.7,1,0.7,0.7,0.7,1","1,0.7,0.7,0.7,1,0.7,0.7,0.7,1","","",""
"","html-keyboard-response","324","193247","0.0-324.0","","","","","null","<img src=""img/land5.png"" style=""width:200px; border:14px solid green;"">","null","","","","","","","","","",""
"","image-keyboard-response","325","194106","0.0-325.0","","","","","857.5","img/land4.png","74","858.1999999880791","1","1","1","2","1,0.7,0.7,0.7,1,0.7,0.7,0.7,1","1,0.7,0.7,0.7,1,0.7,0.7,0.7,1","","",""
"","html-keyboard-response","326","194407","0.0-326.0","","","","","null","<img src=""img/land4.png"" style=""width:200px; border:14px solid green;"">","null","","","","","","","","","",""
"","image-keyboard-response","327","195001","0.0-327.0","","","","","593.3000000119209","img/land6.png","75","593.8000000119209","2","0","3","2","1,0.7,0.7,0.7,1,0.7,0.7,0.7,1","1,0.7,0.7,0.7,1,0.7,0.7,0.7,1","","",""
"","html-keyboard-response","328","195303","0.0-328.0","","","","","null","<img src=""img/land6.png"" style=""width:200px;border:14px solid red;"">","null","","","","","","","","","",""
"","image-keyboard-response","329","196273","0.0-329.0","","","","","969.1999999880791","img/land6.png","76","969.6999999880791","3","1","3","2","1,0.7,0.7,0.7,1,0.7,0.7,0.7,1","1,0.7,0.7,0.7,1,0.7,0.7,0.7,1","","",""
"","html-keyboard-response","330","196575","0.0-330.0","","","","","null","<img src=""img/land6.png"" style=""width:200px; border:14px solid green;"">","null","","","","","","","","","",""
"","image-keyboard-response","331","197393","0.0-331.0","","","","","816.4000000357628","img/land5.png","76","817.6999999880791","3","0","2","2","1,0.7,0.7,0.7,1,0.7,0.7,0.7,1","1,0.7,0.7,0.7,1,0.7,0.7,0.7,1","","",""
"","html-keyboard-response","332","197696","0.0-332.0","","","","","null","<img src=""img/land5.png"" style=""width:200px;border:14px solid red;"">","null","","","","","","","","","",""
"","image-keyboard-response","333","198753","0.0-333.0","","","","","1057.1000000238419","img/land6.png","75","1057.6000000238419","2","1","3","2","1,0.7,0.7,0.7,1,0.7,0.7,0.7,1","1,0.7,0.7,0.7,1,0.7,0.7,0.7,1","","",""
"","html-keyboard-response","334","199056","0.0-334.0","","","","","null","<img src=""img/land6.png"" style=""width:200px; border:14px solid green;"">","null","","","","","","","","","",""
"","image-keyboard-response","335","200001","0.0-335.0","","","","","945","img/land5.png","76","945.7000000476837","3","1","2","2","1,0.7,0.7,0.7,1,0.7,0.7,0.7,1","1,0.7,0.7,0.7,1,0.7,0.7,0.7,1","","",""
"","html-keyboard-response","336","200304","0.0-336.0","","","","","null","<img src=""img/land5.png"" style=""width:200px; border:14px solid green;"">","null","","","","","","","","","",""
"","image-keyboard-response","337","201113","0.0-337.0","","","","","808.6999999880791","img/land6.png","75","809.6000000238419","2","0","3","2","1,0.7,0.7,0.7,1,0.7,0.7,0.7,1","1,0.7,0.7,0.7,1,0.7,0.7,0.7,1","","",""
"","html-keyboard-response","338","201416","0.0-338.0","","","","","null","<img src=""img/land6.png"" style=""width:200px;border:14px solid red;"">","null","","","","","","","","","",""
"","image-keyboard-response","339","202241","0.0-339.0","","","","","824.8000000119209","img/land4.png","74","825.3999999761581","1","1","1","2","1,0.7,0.7,0.7,1,0.7,0.7,0.7,1","1,0.7,0.7,0.7,1,0.7,0.7,0.7,1","","",""
"","html-keyboard-response","340","202544","0.0-340.0","","","","","null","<img src=""img/land4.png"" style=""width:200px; border:14px solid green;"">","null","","","","","","","","","",""
"","image-keyboard-response","341","203377","0.0-341.0","","","","","832.8000000119209","img/land5.png","76","833.2999999523163","3","0","2","2","1,0.7,0.7,0.7,1,0.7,0.7,0.7,1","1,0.7,0.7,0.7,1,0.7,0.7,0.7,1","","",""
"","html-keyboard-response","342","203680","0.0-342.0","","","","","null","<img src=""img/land5.png"" style=""width:200px;border:14px solid red;"">","null","","","","","","","","","",""
"","image-keyboard-response","343","204226","0.0-343.0","","","","","545.1000000238419","img/land5.png","76","545.6999999880791","3","1","2","2","1,0.7,0.7,0.7,1,0.7,0.7,0.7,1","1,0.7,0.7,0.7,1,0.7,0.7,0.7,1","","",""
"","html-keyboard-response","344","204528","0.0-344.0","","","","","null","<img src=""img/land5.png"" style=""width:200px; border:14px solid green;"">","null","","","","","","","","","",""
"","image-keyboard-response","345","205377","0.0-345.0","","","","","848.6999999880791","img/land4.png","74","849.4000000357628","1","1","1","2","1,0.7,0.7,0.7,1,0.7,0.7,0.7,1","1,0.7,0.7,0.7,1,0.7,0.7,0.7,1","","",""
"","html-keyboard-response","346","205680","0.0-346.0","","","","","null","<img src=""img/land4.png"" style=""width:200px; border:14px solid green;"">","null","","","","","","","","","",""
"","image-keyboard-response","347","206177","0.0-347.0","","","","","496.69999998807907","img/land4.png","74","497.30000001192093","1","1","1","2","1,0.7,0.7,0.7,1,0.7,0.7,0.7,1","1,0.7,0.7,0.7,1,0.7,0.7,0.7,1","","",""
"","html-keyboard-response","348","206480","0.0-348.0","","","","","null","<img src=""img/land4.png"" style=""width:200px; border:14px solid green;"">","null","","","","","","","","","",""
"","image-keyboard-response","349","206953","0.0-349.0","","","","","472.60000002384186","img/land4.png","74","473.30000001192093","1","1","1","2","1,0.7,0.7,0.7,1,0.7,0.7,0.7,1","1,0.7,0.7,0.7,1,0.7,0.7,0.7,1","","",""
"","html-keyboard-response","350","207256","0.0-350.0","","","","","null","<img src=""img/land4.png"" style=""width:200px; border:14px solid green;"">","null","","","","","","","","","",""
"","image-keyboard-response","351","207713","0.0-351.0","","","","","456.69999998807907","img/land4.png","74","457.39999997615814","1","1","1","2","1,0.7,0.7,0.7,1,0.7,0.7,0.7,1","1,0.7,0.7,0.7,1,0.7,0.7,0.7,1","","",""
"","html-keyboard-response","352","208016","0.0-352.0","","","","","null","<img src=""img/land4.png"" style=""width:200px; border:14px solid green;"">","null","","","","","","","","","",""
"","image-keyboard-response","353","208681","0.0-353.0","","","","","664.5","img/land4.png","74","665.1000000238419","1","1","1","2","1,0.7,0.7,0.7,1,0.7,0.7,0.7,1","1,0.7,0.7,0.7,1,0.7,0.7,0.7,1","","",""
"","html-keyboard-response","354","208983","0.0-354.0","","","","","null","<img src=""img/land4.png"" style=""width:200px; border:14px solid green;"">","null","","","","","","","","","",""
"","image-keyboard-response","355","209385","0.0-355.0","","","","","401.5","img/land4.png","74","402.30000001192093","1","1","1","2","1,0.7,0.7,0.7,1,0.7,0.7,0.7,1","1,0.7,0.7,0.7,1,0.7,0.7,0.7,1","","",""
"","html-keyboard-response","356","209687","0.0-356.0","","","","","null","<img src=""img/land4.png"" style=""width:200px; border:14px solid green;"">","null","","","","","","","","","",""
"","image-keyboard-response","357","210945","0.0-357.0","","","","","1257.5999999642372","img/land6.png","75","1258.199999988079","2","0","3","2","1,0.7,0.7,0.7,1,0.7,0.7,0.7,1","1,0.7,0.7,0.7,1,0.7,0.7,0.7,1","","",""
"","html-keyboard-response","358","211247","0.0-358.0","","","","","null","<img src=""img/land6.png"" style=""width:200px;border:14px solid red;"">","null","","","","","","","","","",""
"","image-keyboard-response","359","211905","0.0-359.0","","","","","657.6999999880791","img/land6.png","75","658.3000000119209","2","1","3","2","1,0.7,0.7,0.7,1,0.7,0.7,0.7,1","1,0.7,0.7,0.7,1,0.7,0.7,0.7,1","","",""
"","html-keyboard-response","360","212207","0.0-360.0","","","","","null","<img src=""img/land6.png"" style=""width:200px; border:14px solid green;"">","null","","","","","","","","","",""
"","image-keyboard-response","361","212697","0.0-361.0","","","","","488.80000001192093","img/land6.png","75","489.39999997615814","2","1","3","2","1,0.7,0.7,0.7,1,0.7,0.7,0.7,1","1,0.7,0.7,0.7,1,0.7,0.7,0.7,1","","",""
"","html-keyboard-response","362","212999","0.0-362.0","","","","","null","<img src=""img/land6.png"" style=""width:200px; border:14px solid green;"">","null","","","","","","","","","",""
"","image-keyboard-response","363","213857","0.0-363.0","","","","","857.5","img/land4.png","74","858.0999999642372","1","1","1","2","1,0.7,0.7,0.7,1,0.7,0.7,0.7,1","1,0.7,0.7,0.7,1,0.7,0.7,0.7,1","","",""
"","html-keyboard-response","364","214159","0.0-364.0","","","","","null","<img src=""img/land4.png"" style=""width:200px; border:14px solid green;"">","null","","","","","","","","","",""
"","image-keyboard-response","365","214825","0.0-365.0","","","","","665.3000000119209","img/land5.png","76","665.8999999761581","3","1","2","2","1,0.7,0.7,0.7,1,0.7,0.7,0.7,1","1,0.7,0.7,0.7,1,0.7,0.7,0.7,1","","",""
"","html-keyboard-response","366","215127","0.0-366.0","","","","","null","<img src=""img/land5.png"" style=""width:200px; border:14px solid green;"">","null","","","","","","","","","",""
"","image-keyboard-response","367","215953","0.0-367.0","","","","","824.8999999761581","img/land6.png","75","825.5","2","1","3","2","1,0.7,0.7,0.7,1,0.7,0.7,0.7,1","1,0.7,0.7,0.7,1,0.7,0.7,0.7,1","","",""
"","html-keyboard-response","368","216255","0.0-368.0","","","","","null","<img src=""img/land6.png"" style=""width:200px; border:14px solid green;"">","null","","","","","","","","","",""
"","image-keyboard-response","369","216777","0.0-369.0","","","","","521.1000000238419","img/land6.png","75","521.6000000238419","2","1","3","2","1,0.7,0.7,0.7,1,0.7,0.7,0.7,1","1,0.7,0.7,0.7,1,0.7,0.7,0.7,1","","",""
"","html-keyboard-response","370","217079","0.0-370.0","","","","","null","<img src=""img/land6.png"" style=""width:200px; border:14px solid green;"">","null","","","","","","","","","",""
"","image-keyboard-response","371","217801","0.0-371.0","","","","","721","img/land4.png","74","721.5","1","1","1","2","1,0.7,0.7,0.7,1,0.7,0.7,0.7,1","1,0.7,0.7,0.7,1,0.7,0.7,0.7,1","","",""
"","html-keyboard-response","372","218103","0.0-372.0","","","","","null","<img src=""img/land4.png"" style=""width:200px; border:14px solid green;"">","null","","","","","","","","","",""
"","image-keyboard-response","373","218785","0.0-373.0","","","","","680.9000000357628","img/land5.png","76","681.3999999761581","3","0","2","2","1,0.7,0.7,0.7,1,0.7,0.7,0.7,1","1,0.7,0.7,0.7,1,0.7,0.7,0.7,1","","",""
"","html-keyboard-response","374","219088","0.0-374.0","","","","","null","<img src=""img/land5.png"" style=""width:200px;border:14px solid red;"">","null","","","","","","","","","",""
"","image-keyboard-response","375","219777","0.0-375.0","","","","","688.6999999880791","img/land4.png","74","689.4000000357628","1","1","1","2","1,0.7,0.7,0.7,1,0.7,0.7,0.7,1","1,0.7,0.7,0.7,1,0.7,0.7,0.7,1","","",""
"","html-keyboard-response","376","220080","0.0-376.0","","","","","null","<img src=""img/land4.png"" style=""width:200px; border:14px solid green;"">","null","","","","","","","","","",""
"","image-keyboard-response","377","220553","0.0-377.0","","","","","472.69999998807907","img/land4.png","74","473.30000001192093","1","1","1","2","1,0.7,0.7,0.7,1,0.7,0.7,0.7,1","1,0.7,0.7,0.7,1,0.7,0.7,0.7,1","","",""
"","html-keyboard-response","378","220856","0.0-378.0","","","","","null","<img src=""img/land4.png"" style=""width:200px; border:14px solid green;"">","null","","","","","","","","","",""
"","image-keyboard-response","379","221265","0.0-379.0","","","","","408.80000001192093","img/land4.png","74","409.5","1","1","1","2","1,0.7,0.7,0.7,1,0.7,0.7,0.7,1","1,0.7,0.7,0.7,1,0.7,0.7,0.7,1","","",""
"","html-keyboard-response","380","221568","0.0-380.0","","","","","null","<img src=""img/land4.png"" style=""width:200px; border:14px solid green;"">","null","","","","","","","","","",""
"","image-keyboard-response","381","222609","0.0-381.0","","","","","1040.800000011921","img/land6.png","75","1041.3999999761581","2","1","3","2","1,0.7,0.7,0.7,1,0.7,0.7,0.7,1","1,0.7,0.7,0.7,1,0.7,0.7,0.7,1","","",""
"","html-keyboard-response","382","222912","0.0-382.0","","","","","null","<img src=""img/land6.png"" style=""width:200px; border:14px solid green;"">","null","","","","","","","","","",""
"","image-keyboard-response","383","223345","0.0-383.0","","","","","432.7000000476837","img/land6.png","75","433.30000001192093","2","0","3","2","1,0.7,0.7,0.7,1,0.7,0.7,0.7,1","1,0.7,0.7,0.7,1,0.7,0.7,0.7,1","","",""
"","html-keyboard-response","384","223648","0.0-384.0","","","","","null","<img src=""img/land6.png"" style=""width:200px;border:14px solid red;"">","null","","","","","","","","","",""
"","image-keyboard-response","385","224369","0.0-385.0","","","","","720.7000000476837","img/land5.png","76","721.2999999523163","3","1","2","2","1,0.7,0.7,0.7,1,0.7,0.7,0.7,1","1,0.7,0.7,0.7,1,0.7,0.7,0.7,1","","",""
"","html-keyboard-response","386","224672","0.0-386.0","","","","","null","<img src=""img/land5.png"" style=""width:200px; border:14px solid green;"">","null","","","","","","","","","",""
"","image-keyboard-response","387","225473","0.0-387.0","","","","","801.1000000238419","img/land4.png","74","801.5999999642372","1","1","1","2","1,0.7,0.7,0.7,1,0.7,0.7,0.7,1","1,0.7,0.7,0.7,1,0.7,0.7,0.7,1","","",""
"","html-keyboard-response","388","225776","0.0-388.0","","","","","null","<img src=""img/land4.png"" style=""width:200px; border:14px solid green;"">","null","","","","","","","","","",""
"","image-keyboard-response","389","226481","0.0-389.0","","","","","704.6000000238419","img/land6.png","75","705.2999999523163","2","1","3","2","1,0.7,0.7,0.7,1,0.7,0.7,0.7,1","1,0.7,0.7,0.7,1,0.7,0.7,0.7,1","","",""
"","html-keyboard-response","390","226784","0.0-390.0","","","","","null","<img src=""img/land6.png"" style=""width:200px; border:14px solid green;"">","null","","","","","","","","","",""
"","image-keyboard-response","391","227225","0.0-391.0","","","","","440.30000001192093","img/land6.png","75","441","2","1","3","2","1,0.7,0.7,0.7,1,0.7,0.7,0.7,1","1,0.7,0.7,0.7,1,0.7,0.7,0.7,1","","",""
"","html-keyboard-response","392","227528","0.0-392.0","","","","","null","<img src=""img/land6.png"" style=""width:200px; border:14px solid green;"">","null","","","","","","","","","",""
"","image-keyboard-response","393","228145","0.0-393.0","","","","","616.5999999642372","img/land5.png","76","617.3000000119209","3","1","2","2","1,0.7,0.7,0.7,1,0.7,0.7,0.7,1","1,0.7,0.7,0.7,1,0.7,0.7,0.7,1","","",""
"","html-keyboard-response","394","228448","0.0-394.0","","","","","null","<img src=""img/land5.png"" style=""width:200px; border:14px solid green;"">","null","","","","","","","","","",""
"","image-keyboard-response","395","228825","0.0-395.0","","","","","376.5999999642372","img/land5.png","76","377.30000001192093","3","0","2","2","1,0.7,0.7,0.7,1,0.7,0.7,0.7,1","1,0.7,0.7,0.7,1,0.7,0.7,0.7,1","","",""
"","html-keyboard-response","396","229128","0.0-396.0","","","","","null","<img src=""img/land5.png"" style=""width:200px;border:14px solid red;"">","null","","","","","","","","","",""
"","image-keyboard-response","397","230025","0.0-397.0","","","","","896.5999999642372","img/land6.png","75","897.1999999880791","2","1","3","2","1,0.7,0.7,0.7,1,0.7,0.7,0.7,1","1,0.7,0.7,0.7,1,0.7,0.7,0.7,1","","",""
"","html-keyboard-response","398","230328","0.0-398.0","","","","","null","<img src=""img/land6.png"" style=""width:200px; border:14px solid green;"">","null","","","","","","","","","",""
"","image-keyboard-response","399","231137","0.0-399.0","","","","","808.1000000238419","img/land5.png","76","808.8000000119209","3","0","2","2","1,0.7,0.7,0.7,1,0.7,0.7,0.7,1","1,0.7,0.7,0.7,1,0.7,0.7,0.7,1","","",""
"","html-keyboard-response","400","231440","0.0-400.0","","","","","null","<img src=""img/land5.png"" style=""width:200px;border:14px solid red;"">","null","","","","","","","","","",""
"","image-keyboard-response","401","232225","0.0-401.0","","","","","784.1000000238419","img/land4.png","74","784.6000000238419","1","1","1","2","1,0.7,0.7,0.7,1,0.7,0.7,0.7,1","1,0.7,0.7,0.7,1,0.7,0.7,0.7,1","","",""
"","html-keyboard-response","402","232527","0.0-402.0","","","","","null","<img src=""img/land4.png"" style=""width:200px; border:14px solid green;"">","null","","","","","","","","","",""
"","image-keyboard-response","403","233281","0.0-403.0","","","","","753.4000000357628","img/land6.png","75","754","2","1","3","2","1,0.7,0.7,0.7,1,0.7,0.7,0.7,1","1,0.7,0.7,0.7,1,0.7,0.7,0.7,1","","",""
"","html-keyboard-response","404","233583","0.0-404.0","","","","","null","<img src=""img/land6.png"" style=""width:200px; border:14px solid green;"">","null","","","","","","","","","",""
"","image-keyboard-response","405","234313","0.0-405.0","","","","","728.9000000357628","img/land5.png","76","729.5","3","0","2","2","1,0.7,0.7,0.7,1,0.7,0.7,0.7,1","1,0.7,0.7,0.7,1,0.7,0.7,0.7,1","","",""
"","html-keyboard-response","406","234615","0.0-406.0","","","","","null","<img src=""img/land5.png"" style=""width:200px;border:14px solid red;"">","null","","","","","","","","","",""
"","image-keyboard-response","407","235217","0.0-407.0","","","","","600.8000000119209","img/land5.png","76","601.3999999761581","3","0","2","2","1,0.7,0.7,0.7,1,0.7,0.7,0.7,1","1,0.7,0.7,0.7,1,0.7,0.7,0.7,1","","",""
"","html-keyboard-response","408","235519","0.0-408.0","","","","","null","<img src=""img/land5.png"" style=""width:200px;border:14px solid red;"">","null","","","","","","","","","",""
"","image-keyboard-response","409","236393","0.0-409.0","","","","","873.3000000119209","img/land6.png","75","873.6999999880791","2","1","3","2","1,0.7,0.7,0.7,1,0.7,0.7,0.7,1","1,0.7,0.7,0.7,1,0.7,0.7,0.7,1","","",""
"","html-keyboard-response","410","236695","0.0-410.0","","","","","null","<img src=""img/land6.png"" style=""width:200px; border:14px solid green;"">","null","","","","","","","","","",""
"","image-keyboard-response","411","237561","0.0-411.0","","","","","865","img/land5.png","76","865.6999999880791","3","1","2","2","1,0.7,0.7,0.7,1,0.7,0.7,0.7,1","1,0.7,0.7,0.7,1,0.7,0.7,0.7,1","","",""
"","html-keyboard-response","412","237863","0.0-412.0","","","","","null","<img src=""img/land5.png"" style=""width:200px; border:14px solid green;"">","null","","","","","","","","","",""
"","image-keyboard-response","413","238657","0.0-413.0","","","","","792.8000000119209","img/land6.png","75","793.3999999761581","2","1","3","2","1,0.7,0.7,0.7,1,0.7,0.7,0.7,1","1,0.7,0.7,0.7,1,0.7,0.7,0.7,1","","",""
"","html-keyboard-response","414","238959","0.0-414.0","","","","","null","<img src=""img/land6.png"" style=""width:200px; border:14px solid green;"">","null","","","","","","","","","",""
"","image-keyboard-response","415","239553","0.0-415.0","","","","","591.6999999880791","img/land6.png","75","593.2000000476837","2","1","3","2","1,0.7,0.7,0.7,1,0.7,0.7,0.7,1","1,0.7,0.7,0.7,1,0.7,0.7,0.7,1","","",""
"","html-keyboard-response","416","239855","0.0-416.0","","","","","null","<img src=""img/land6.png"" style=""width:200px; border:14px solid green;"">","null","","","","","","","","","",""
"","image-keyboard-response","417","240681","0.0-417.0","","","","","824.6999999880791","img/land5.png","76","825.3000000119209","3","1","2","2","1,0.7,0.7,0.7,1,0.7,0.7,0.7,1","1,0.7,0.7,0.7,1,0.7,0.7,0.7,1","","",""
"","html-keyboard-response","418","240983","0.0-418.0","","","","","null","<img src=""img/land5.png"" style=""width:200px; border:14px solid green;"">","null","","","","","","","","","",""
"","image-keyboard-response","419","241985","0.0-419.0","","","","","1000.5999999642372","img/land4.png","74","1001.2000000476837","1","1","1","2","1,0.7,0.7,0.7,1,0.7,0.7,0.7,1","1,0.7,0.7,0.7,1,0.7,0.7,0.7,1","","",""
"","html-keyboard-response","420","242287","0.0-420.0","","","","","null","<img src=""img/land4.png"" style=""width:200px; border:14px solid green;"">","null","","","","","","","","","",""
"","image-keyboard-response","421","242993","0.0-421.0","","","","","704.5","img/land5.png","76","705.2000000476837","3","0","2","2","1,0.7,0.7,0.7,1,0.7,0.7,0.7,1","1,0.7,0.7,0.7,1,0.7,0.7,0.7,1","","",""
"","html-keyboard-response","422","243295","0.0-422.0","","","","","null","<img src=""img/land5.png"" style=""width:200px;border:14px solid red;"">","null","","","","","","","","","",""
"","image-keyboard-response","423","244368","0.0-423.0","","","","","1072","img/land4.png","74","1072.800000011921","1","1","1","2","1,0.7,0.7,0.7,1,0.7,0.7,0.7,1","1,0.7,0.7,0.7,1,0.7,0.7,0.7,1","","",""
"","html-keyboard-response","424","244671","0.0-424.0","","","","","null","<img src=""img/land4.png"" style=""width:200px; border:14px solid green;"">","null","","","","","","","","","",""
"","image-keyboard-response","425","245425","0.0-425.0","","","","","752.8000000119209","img/land5.png","76","753.5","3","0","2","2","1,0.7,0.7,0.7,1,0.7,0.7,0.7,1","1,0.7,0.7,0.7,1,0.7,0.7,0.7,1","","",""
"","html-keyboard-response","426","245728","0.0-426.0","","","","","null","<img src=""img/land5.png"" style=""width:200px;border:14px solid red;"">","null","","","","","","","","","",""
"","image-keyboard-response","427","246433","0.0-427.0","","","","","704.4000000357628","img/land6.png","75","705","2","0","3","2","1,0.7,0.7,0.7,1,0.7,0.7,0.7,1","1,0.7,0.7,0.7,1,0.7,0.7,0.7,1","","",""
"","html-keyboard-response","428","246736","0.0-428.0","","","","","null","<img src=""img/land6.png"" style=""width:200px;border:14px solid red;"">","null","","","","","","","","","",""
"","image-keyboard-response","429","247481","0.0-429.0","","","","","744.5","img/land6.png","75","745.1999999880791","2","1","3","2","1,0.7,0.7,0.7,1,0.7,0.7,0.7,1","1,0.7,0.7,0.7,1,0.7,0.7,0.7,1","","",""
"","html-keyboard-response","430","247784","0.0-430.0","","","","","null","<img src=""img/land6.png"" style=""width:200px; border:14px solid green;"">","null","","","","","","","","","",""
"","image-keyboard-response","431","248514","0.0-431.0","","","","","729.6999999880791","img/land6.png","75","730.3999999761581","2","0","3","2","1,0.7,0.7,0.7,1,0.7,0.7,0.7,1","1,0.7,0.7,0.7,1,0.7,0.7,0.7,1","","",""
"","html-keyboard-response","432","248824","0.0-432.0","","","","","null","<img src=""img/land6.png"" style=""width:200px;border:14px solid red;"">","null","","","","","","","","","",""
"","image-keyboard-response","433","249617","0.0-433.0","","","","","792.3000000119209","img/land4.png","74","793","1","1","1","2","1,0.7,0.7,0.7,1,0.7,0.7,0.7,1","1,0.7,0.7,0.7,1,0.7,0.7,0.7,1","","",""
"","html-keyboard-response","434","249920","0.0-434.0","","","","","null","<img src=""img/land4.png"" style=""width:200px; border:14px solid green;"">","null","","","","","","","","","",""
"","image-keyboard-response","435","250681","0.0-435.0","","","","","760.3999999761581","img/land5.png","76","761","3","1","2","2","1,0.7,0.7,0.7,1,0.7,0.7,0.7,1","1,0.7,0.7,0.7,1,0.7,0.7,0.7,1","","",""
"","html-keyboard-response","436","250984","0.0-436.0","","","","","null","<img src=""img/land5.png"" style=""width:200px; border:14px solid green;"">","null","","","","","","","","","",""
"","image-keyboard-response","437","251793","0.0-437.0","","","","","807.8999999761581","img/land4.png","74","808.5","1","1","1","2","1,0.7,0.7,0.7,1,0.7,0.7,0.7,1","1,0.7,0.7,0.7,1,0.7,0.7,0.7,1","","",""
"","html-keyboard-response","438","252096","0.0-438.0","","","","","null","<img src=""img/land4.png"" style=""width:200px; border:14px solid green;"">","null","","","","","","","","","",""
"","image-keyboard-response","439","253056","0.0-439.0","","","","","960","img/land5.png","76","960.5","3","1","2","2","1,0.7,0.7,0.7,1,0.7,0.7,0.7,1","1,0.7,0.7,0.7,1,0.7,0.7,0.7,1","","",""
"","html-keyboard-response","440","253360","0.0-440.0","","","","","null","<img src=""img/land5.png"" style=""width:200px; border:14px solid green;"">","null","","","","","","","","","",""
"","image-keyboard-response","441","253817","0.0-441.0","","","","","456.10000002384186","img/land5.png","76","456.89999997615814","3","0","2","2","1,0.7,0.7,0.7,1,0.7,0.7,0.7,1","1,0.7,0.7,0.7,1,0.7,0.7,0.7,1","","",""
"","html-keyboard-response","442","254119","0.0-442.0","","","","","null","<img src=""img/land5.png"" style=""width:200px;border:14px solid red;"">","null","","","","","","","","","",""
"","image-keyboard-response","443","254713","0.0-443.0","","","","","593","img/land5.png","76","593.7000000476837","3","1","2","2","1,0.7,0.7,0.7,1,0.7,0.7,0.7,1","1,0.7,0.7,0.7,1,0.7,0.7,0.7,1","","",""
"","html-keyboard-response","444","255015","0.0-444.0","","","","","null","<img src=""img/land5.png"" style=""width:200px; border:14px solid green;"">","null","","","","","","","","","",""
"","image-keyboard-response","445","255752","0.0-445.0","","","","","736.7000000476837","img/land6.png","75","737.3999999761581","2","1","3","2","1,0.7,0.7,0.7,1,0.7,0.7,0.7,1","1,0.7,0.7,0.7,1,0.7,0.7,0.7,1","","",""
"","html-keyboard-response","446","256055","0.0-446.0","","","","","null","<img src=""img/land6.png"" style=""width:200px; border:14px solid green;"">","null","","","","","","","","","",""
"","image-keyboard-response","447","256712","0.0-447.0","","","","","656.8000000119209","img/land5.png","76","657.3999999761581","3","1","2","2","1,0.7,0.7,0.7,1,0.7,0.7,0.7,1","1,0.7,0.7,0.7,1,0.7,0.7,0.7,1","","",""
"","html-keyboard-response","448","257015","0.0-448.0","","","","","null","<img src=""img/land5.png"" style=""width:200px; border:14px solid green;"">","null","","","","","","","","","",""
"","image-keyboard-response","449","257481","0.0-449.0","","","","","465.19999998807907","img/land5.png","76","465.80000001192093","3","1","2","2","1,0.7,0.7,0.7,1,0.7,0.7,0.7,1","1,0.7,0.7,0.7,1,0.7,0.7,0.7,1","","",""
"","html-keyboard-response","450","257783","0.0-450.0","","","","","null","<img src=""img/land5.png"" style=""width:200px; border:14px solid green;"">","null","","","","","","","","","",""
"","image-keyboard-response","451","258585","0.0-451.0","","","","","801","img/land4.png","74","801.6000000238419","1","1","1","2","1,0.7,0.7,0.7,1,0.7,0.7,0.7,1","1,0.7,0.7,0.7,1,0.7,0.7,0.7,1","","",""
"","html-keyboard-response","452","258887","0.0-452.0","","","","","null","<img src=""img/land4.png"" style=""width:200px; border:14px solid green;"">","null","","","","","","","","","",""
"","image-keyboard-response","453","259624","0.0-453.0","","","","","736.7000000476837","img/land6.png","75","737.1999999880791","2","1","3","2","1,0.7,0.7,0.7,1,0.7,0.7,0.7,1","1,0.7,0.7,0.7,1,0.7,0.7,0.7,1","","",""
"","html-keyboard-response","454","259927","0.0-454.0","","","","","null","<img src=""img/land6.png"" style=""width:200px; border:14px solid green;"">","null","","","","","","","","","",""
"","image-keyboard-response","455","260665","0.0-455.0","","","","","736.6999999880791","img/land4.png","74","737.3999999761581","1","1","1","2","1,0.7,0.7,0.7,1,0.7,0.7,0.7,1","1,0.7,0.7,0.7,1,0.7,0.7,0.7,1","","",""
"","html-keyboard-response","456","260967","0.0-456.0","","","","","null","<img src=""img/land4.png"" style=""width:200px; border:14px solid green;"">","null","","","","","","","","","",""
"","image-keyboard-response","457","261713","0.0-457.0","","","","","744.8999999761581","img/land5.png","76","745.5","3","1","2","2","1,0.7,0.7,0.7,1,0.7,0.7,0.7,1","1,0.7,0.7,0.7,1,0.7,0.7,0.7,1","","",""
"","html-keyboard-response","458","262015","0.0-458.0","","","","","null","<img src=""img/land5.png"" style=""width:200px; border:14px solid green;"">","null","","","","","","","","","",""
"","image-keyboard-response","459","262529","0.0-459.0","","","","","512.5","img/land5.png","76","513.3000000119209","3","1","2","2","1,0.7,0.7,0.7,1,0.7,0.7,0.7,1","1,0.7,0.7,0.7,1,0.7,0.7,0.7,1","","",""
"","html-keyboard-response","460","262831","0.0-460.0","","","","","null","<img src=""img/land5.png"" style=""width:200px; border:14px solid green;"">","null","","","","","","","","","",""
"","image-keyboard-response","461","263432","0.0-461.0","","","","","600.1999999880791","img/land6.png","75","600.8000000119209","2","1","3","2","1,0.7,0.7,0.7,1,0.7,0.7,0.7,1","1,0.7,0.7,0.7,1,0.7,0.7,0.7,1","","",""
"","html-keyboard-response","462","263735","0.0-462.0","","","","","null","<img src=""img/land6.png"" style=""width:200px; border:14px solid green;"">","null","","","","","","","","","",""
"","image-keyboard-response","463","264393","0.0-463.0","","","","","656.6000000238419","img/land4.png","74","657.3000000119209","1","1","1","2","1,0.7,0.7,0.7,1,0.7,0.7,0.7,1","1,0.7,0.7,0.7,1,0.7,0.7,0.7,1","","",""
"","html-keyboard-response","464","264695","0.0-464.0","","","","","null","<img src=""img/land4.png"" style=""width:200px; border:14px solid green;"">","null","","","","","","","","","",""
"","image-keyboard-response","465","265448","0.0-465.0","","","","","752.1999999880791","img/land6.png","75","752.8000000119209","2","0","3","2","1,0.7,0.7,0.7,1,0.7,0.7,0.7,1","1,0.7,0.7,0.7,1,0.7,0.7,0.7,1","","",""
"","html-keyboard-response","466","265751","0.0-466.0","","","","","null","<img src=""img/land6.png"" style=""width:200px;border:14px solid red;"">","null","","","","","","","","","",""
"","image-keyboard-response","467","266656","0.0-467.0","","","","","904.1999999880791","img/land5.png","76","904.8000000119209","3","0","2","2","1,0.7,0.7,0.7,1,0.7,0.7,0.7,1","1,0.7,0.7,0.7,1,0.7,0.7,0.7,1","","",""
"","html-keyboard-response","468","266960","0.0-468.0","","","","","null","<img src=""img/land5.png"" style=""width:200px;border:14px solid red;"">","null","","","","","","","","","",""
"","image-keyboard-response","469","267593","0.0-469.0","","","","","632.3000000119209","img/land4.png","74","633","1","1","1","2","1,0.7,0.7,0.7,1,0.7,0.7,0.7,1","1,0.7,0.7,0.7,1,0.7,0.7,0.7,1","","",""
"","html-keyboard-response","470","267895","0.0-470.0","","","","","null","<img src=""img/land4.png"" style=""width:200px; border:14px solid green;"">","null","","","","","","","","","",""
"","image-keyboard-response","471","268704","0.0-471.0","","","","","808.1999999880791","img/land5.png","75","808.8000000119209","2","1","2","2","1,0.7,0.7,0.7,1,0.7,0.7,0.7,1","1,0.7,0.7,0.7,1,0.7,0.7,0.7,1","","",""
"","html-keyboard-response","472","269008","0.0-472.0","","","","","null","<img src=""img/land5.png"" style=""width:200px; border:14px solid green;"">","null","","","","","","","","","",""
"","image-keyboard-response","473","269760","0.0-473.0","","","","","752.3000000119209","img/land5.png","76","752.8999999761581","3","1","2","2","1,0.7,0.7,0.7,1,0.7,0.7,0.7,1","1,0.7,0.7,0.7,1,0.7,0.7,0.7,1","","",""
"","html-keyboard-response","474","270063","0.0-474.0","","","","","null","<img src=""img/land5.png"" style=""width:200px; border:14px solid green;"">","null","","","","","","","","","",""
"","image-keyboard-response","475","270784","0.0-475.0","","","","","719.9000000357628","img/land5.png","76","720.6999999880791","3","1","2","2","1,0.7,0.7,0.7,1,0.7,0.7,0.7,1","1,0.7,0.7,0.7,1,0.7,0.7,0.7,1","","",""
"","html-keyboard-response","476","271088","0.0-476.0","","","","","null","<img src=""img/land5.png"" style=""width:200px; border:14px solid green;"">","null","","","","","","","","","",""
"","image-keyboard-response","477","271705","0.0-477.0","","","","","616.1999999880791","img/land6.png","75","616.8000000119209","2","0","3","2","1,0.7,0.7,0.7,1,0.7,0.7,0.7,1","1,0.7,0.7,0.7,1,0.7,0.7,0.7,1","","",""
"","html-keyboard-response","478","272008","0.0-478.0","","","","","null","<img src=""img/land6.png"" style=""width:200px;border:14px solid red;"">","null","","","","","","","","","",""
"","image-keyboard-response","479","272697","0.0-479.0","","","","","688.0999999642372","img/land4.png","74","688.8000000119209","1","1","1","2","1,0.7,0.7,0.7,1,0.7,0.7,0.7,1","1,0.7,0.7,0.7,1,0.7,0.7,0.7,1","","",""
"","html-keyboard-response","480","273000","0.0-480.0","","","","","null","<img src=""img/land4.png"" style=""width:200px; border:14px solid green;"">","null","","","","","","","","","",""
"","image-keyboard-response","481","273456","0.0-481.0","","","","","456","img/land4.png","74","456.60000002384186","1","1","1","2","1,0.7,0.7,0.7,1,0.7,0.7,0.7,1","1,0.7,0.7,0.7,1,0.7,0.7,0.7,1","","",""
"","html-keyboard-response","482","273760","0.0-482.0","","","","","null","<img src=""img/land4.png"" style=""width:200px; border:14px solid green;"">","null","","","","","","","","","",""
"","instructions","483","277580","0.0-483.0","","","","[{""page_index"":0,""viewing_time"":3819.599999964237}]","3819.7999999523163","","","","","","","","","","","",""
"","survey-text","484","283277","0.0-484.0-0.0","","","","","5694.100000023842","","","","","","","","","","","{""Q0"":""64""}",""
"","survey-multi-choice","485","289428","0.0-484.0-1.0","","","","","6150.5","","","","","","","","","","","{""gender"":""F""}","[0]"
"","survey-text","486","299238","0.0-485.0","","","","","9806.099999964237","","","","","","","","","","","{""Q0"":""A2ML0070M8FDK1""}",""
