"success","trial_type","trial_index","time_elapsed","internal_node_id","assignmentID","mturkID","hitID","view_history","rt","stimulus","key_press","reactionTime","a","r","warning","s","reward_cond","responses","question_order"
"true","fullscreen","0","5100","0.0-0.0","3QXNC7EIPJHTAL5OYBNBI3Q43YJ90X","A2MX0EF342FY3P","3H6W48L9F4B5OEOMH57RM53Z4H1WP0","","","","","","","","","","","",""
"","instructions","1","55993","0.0-1.0","3QXNC7EIPJHTAL5OYBNBI3Q43YJ90X","A2MX0EF342FY3P","3H6W48L9F4B5OEOMH57RM53Z4H1WP0","[{""page_index"":0,""viewing_time"":16193.600000023842},{""page_index"":1,""viewing_time"":2699.899999976158},{""page_index"":2,""viewing_time"":13022},{""page_index"":3,""viewing_time"":4560},{""page_index"":4,""viewing_time"":4494},{""page_index"":5,""viewing_time"":4701.900000035763},{""page_index"":6,""viewing_time"":3630.300000011921},{""page_index"":7,""viewing_time"":1587.8999999761581}]","50890.200000047684","","","","","","","","","",""
"","image-keyboard-response","2","56996","0.0-2.0","3QXNC7EIPJHTAL5OYBNBI3Q43YJ90X","A2MX0EF342FY3P","3H6W48L9F4B5OEOMH57RM53Z4H1WP0","","","img/land5.png","","1002.1999999880791","-1","0","true","2","1,1,0,0,1,1,1,0,1","",""
"","html-keyboard-response","3","57301","0.0-3.0","3QXNC7EIPJHTAL5OYBNBI3Q43YJ90X","A2MX0EF342FY3P","3H6W48L9F4B5OEOMH57RM53Z4H1WP0","","null","<img src=""img/land5.png"" style=""width:200px;border:14px solid red;"">","null","","","","","","","",""
"","html-keyboard-response","4","67055","0.0-4.0-0.0","3QXNC7EIPJHTAL5OYBNBI3Q43YJ90X","A2MX0EF342FY3P","3H6W48L9F4B5OEOMH57RM53Z4H1WP0","","","","","","","","","","","",""
"","image-keyboard-response","5","67674","0.0-5.0","3QXNC7EIPJHTAL5OYBNBI3Q43YJ90X","A2MX0EF342FY3P","3H6W48L9F4B5OEOMH57RM53Z4H1WP0","","617.6999999880791","img/land4.png","75","619.1999999880791","2","1","false","1","1,1,0,0,1,1,1,0,1","",""
"","html-keyboard-response","6","67977","0.0-6.0","3QXNC7EIPJHTAL5OYBNBI3Q43YJ90X","A2MX0EF342FY3P","3H6W48L9F4B5OEOMH57RM53Z4H1WP0","","null","<img src=""img/land4.png"" style=""width:200px; border:14px solid green;"">","null","","","","","","","",""
"","image-keyboard-response","7","68671","0.0-8.0","3QXNC7EIPJHTAL5OYBNBI3Q43YJ90X","A2MX0EF342FY3P","3H6W48L9F4B5OEOMH57RM53Z4H1WP0","","692.1999999880791","img/land4.png","75","693.4000000357628","2","1","false","1","1,1,0,0,1,1,1,0,1","",""
"","html-keyboard-response","8","68974","0.0-9.0","3QXNC7EIPJHTAL5OYBNBI3Q43YJ90X","A2MX0EF342FY3P","3H6W48L9F4B5OEOMH57RM53Z4H1WP0","","null","<img src=""img/land4.png"" style=""width:200px; border:14px solid green;"">","null","","","","","","","",""
"","image-keyboard-response","9","69663","0.0-11.0","3QXNC7EIPJHTAL5OYBNBI3Q43YJ90X","A2MX0EF342FY3P","3H6W48L9F4B5OEOMH57RM53Z4H1WP0","","685.8000000119209","img/land5.png","74","687.3999999761581","1","0","false","2","1,1,0,0,1,1,1,0,1","",""
"","html-keyboard-response","10","69964","0.0-12.0","3QXNC7EIPJHTAL5OYBNBI3Q43YJ90X","A2MX0EF342FY3P","3H6W48L9F4B5OEOMH57RM53Z4H1WP0","","null","<img src=""img/land5.png"" style=""width:200px;border:14px solid red;"">","null","","","","","","","",""
"","image-keyboard-response","11","70800","0.0-14.0","3QXNC7EIPJHTAL5OYBNBI3Q43YJ90X","A2MX0EF342FY3P","3H6W48L9F4B5OEOMH57RM53Z4H1WP0","","833.8999999761581","img/land6.png","74","835.5","1","1","false","3","1,1,0,0,1,1,1,0,1","",""
"","html-keyboard-response","12","71103","0.0-15.0","3QXNC7EIPJHTAL5OYBNBI3Q43YJ90X","A2MX0EF342FY3P","3H6W48L9F4B5OEOMH57RM53Z4H1WP0","","null","<img src=""img/land6.png"" style=""width:200px; border:14px solid green;"">","null","","","","","","","",""
"","image-keyboard-response","13","71616","0.0-17.0","3QXNC7EIPJHTAL5OYBNBI3Q43YJ90X","A2MX0EF342FY3P","3H6W48L9F4B5OEOMH57RM53Z4H1WP0","","511.60000002384186","img/land6.png","74","512.8000000119209","1","1","false","3","1,1,0,0,1,1,1,0,1","",""
"","html-keyboard-response","14","71919","0.0-18.0","3QXNC7EIPJHTAL5OYBNBI3Q43YJ90X","A2MX0EF342FY3P","3H6W48L9F4B5OEOMH57RM53Z4H1WP0","","null","<img src=""img/land6.png"" style=""width:200px; border:14px solid green;"">","null","","","","","","","",""
"","image-keyboard-response","15","72511","0.0-20.0","3QXNC7EIPJHTAL5OYBNBI3Q43YJ90X","A2MX0EF342FY3P","3H6W48L9F4B5OEOMH57RM53Z4H1WP0","","590.6000000238419","img/land4.png","75","591.5","2","1","false","1","1,1,0,0,1,1,1,0,1","",""
"","html-keyboard-response","16","72813","0.0-21.0","3QXNC7EIPJHTAL5OYBNBI3Q43YJ90X","A2MX0EF342FY3P","3H6W48L9F4B5OEOMH57RM53Z4H1WP0","","null","<img src=""img/land4.png"" style=""width:200px; border:14px solid green;"">","null","","","","","","","",""
"","image-keyboard-response","17","73352","0.0-23.0","3QXNC7EIPJHTAL5OYBNBI3Q43YJ90X","A2MX0EF342FY3P","3H6W48L9F4B5OEOMH57RM53Z4H1WP0","","537.1000000238419","img/land4.png","75","538.6999999880791","2","1","false","1","1,1,0,0,1,1,1,0,1","",""
"","html-keyboard-response","18","73655","0.0-24.0","3QXNC7EIPJHTAL5OYBNBI3Q43YJ90X","A2MX0EF342FY3P","3H6W48L9F4B5OEOMH57RM53Z4H1WP0","","null","<img src=""img/land4.png"" style=""width:200px; border:14px solid green;"">","null","","","","","","","",""
"","image-keyboard-response","19","74327","0.0-26.0","3QXNC7EIPJHTAL5OYBNBI3Q43YJ90X","A2MX0EF342FY3P","3H6W48L9F4B5OEOMH57RM53Z4H1WP0","","670.3999999761581","img/land5.png","76","671.4000000357628","3","1","false","2","1,1,0,0,1,1,1,0,1","",""
"","html-keyboard-response","20","74629","0.0-27.0","3QXNC7EIPJHTAL5OYBNBI3Q43YJ90X","A2MX0EF342FY3P","3H6W48L9F4B5OEOMH57RM53Z4H1WP0","","null","<img src=""img/land5.png"" style=""width:200px; border:14px solid green;"">","null","","","","","","","",""
"","image-keyboard-response","21","75159","0.0-29.0","3QXNC7EIPJHTAL5OYBNBI3Q43YJ90X","A2MX0EF342FY3P","3H6W48L9F4B5OEOMH57RM53Z4H1WP0","","527.5","img/land4.png","75","528.8000000119209","2","1","false","1","1,1,0,0,1,1,1,0,1","",""
"","html-keyboard-response","22","75461","0.0-30.0","3QXNC7EIPJHTAL5OYBNBI3Q43YJ90X","A2MX0EF342FY3P","3H6W48L9F4B5OEOMH57RM53Z4H1WP0","","null","<img src=""img/land4.png"" style=""width:200px; border:14px solid green;"">","null","","","","","","","",""
"","image-keyboard-response","23","75984","0.0-32.0","3QXNC7EIPJHTAL5OYBNBI3Q43YJ90X","A2MX0EF342FY3P","3H6W48L9F4B5OEOMH57RM53Z4H1WP0","","521.4000000357628","img/land5.png","76","522.5","3","1","false","2","1,1,0,0,1,1,1,0,1","",""
"","html-keyboard-response","24","76287","0.0-33.0","3QXNC7EIPJHTAL5OYBNBI3Q43YJ90X","A2MX0EF342FY3P","3H6W48L9F4B5OEOMH57RM53Z4H1WP0","","null","<img src=""img/land5.png"" style=""width:200px; border:14px solid green;"">","null","","","","","","","",""
"","image-keyboard-response","25","77088","0.0-35.0","3QXNC7EIPJHTAL5OYBNBI3Q43YJ90X","A2MX0EF342FY3P","3H6W48L9F4B5OEOMH57RM53Z4H1WP0","","798.6000000238419","img/land6.png","74","800.0999999642372","1","1","false","3","1,1,0,0,1,1,1,0,1","",""
"","html-keyboard-response","26","77395","0.0-36.0","3QXNC7EIPJHTAL5OYBNBI3Q43YJ90X","A2MX0EF342FY3P","3H6W48L9F4B5OEOMH57RM53Z4H1WP0","","null","<img src=""img/land6.png"" style=""width:200px; border:14px solid green;"">","null","","","","","","","",""
"","image-keyboard-response","27","78136","0.0-38.0","3QXNC7EIPJHTAL5OYBNBI3Q43YJ90X","A2MX0EF342FY3P","3H6W48L9F4B5OEOMH57RM53Z4H1WP0","","737.8999999761581","img/land4.png","76","740","3","0","false","1","1,1,0,0,1,1,1,0,1","",""
"","html-keyboard-response","28","78439","0.0-39.0","3QXNC7EIPJHTAL5OYBNBI3Q43YJ90X","A2MX0EF342FY3P","3H6W48L9F4B5OEOMH57RM53Z4H1WP0","","null","<img src=""img/land4.png"" style=""width:200px;border:14px solid red;"">","null","","","","","","","",""
"","image-keyboard-response","29","78975","0.0-41.0","3QXNC7EIPJHTAL5OYBNBI3Q43YJ90X","A2MX0EF342FY3P","3H6W48L9F4B5OEOMH57RM53Z4H1WP0","","534.1000000238419","img/land4.png","75","535.3999999761581","2","1","false","1","1,1,0,0,1,1,1,0,1","",""
"","html-keyboard-response","30","79277","0.0-42.0","3QXNC7EIPJHTAL5OYBNBI3Q43YJ90X","A2MX0EF342FY3P","3H6W48L9F4B5OEOMH57RM53Z4H1WP0","","null","<img src=""img/land4.png"" style=""width:200px; border:14px solid green;"">","null","","","","","","","",""
"","image-keyboard-response","31","79792","0.0-44.0","3QXNC7EIPJHTAL5OYBNBI3Q43YJ90X","A2MX0EF342FY3P","3H6W48L9F4B5OEOMH57RM53Z4H1WP0","","513","img/land4.png","75","514.6000000238419","2","1","false","1","1,1,0,0,1,1,1,0,1","",""
"","html-keyboard-response","32","80096","0.0-45.0","3QXNC7EIPJHTAL5OYBNBI3Q43YJ90X","A2MX0EF342FY3P","3H6W48L9F4B5OEOMH57RM53Z4H1WP0","","null","<img src=""img/land4.png"" style=""width:200px; border:14px solid green;"">","null","","","","","","","",""
"","image-keyboard-response","33","80775","0.0-47.0","3QXNC7EIPJHTAL5OYBNBI3Q43YJ90X","A2MX0EF342FY3P","3H6W48L9F4B5OEOMH57RM53Z4H1WP0","","677.3999999761581","img/land5.png","76","678.5999999642372","3","1","false","2","1,1,0,0,1,1,1,0,1","",""
"","html-keyboard-response","34","81077","0.0-48.0","3QXNC7EIPJHTAL5OYBNBI3Q43YJ90X","A2MX0EF342FY3P","3H6W48L9F4B5OEOMH57RM53Z4H1WP0","","null","<img src=""img/land5.png"" style=""width:200px; border:14px solid green;"">","null","","","","","","","",""
"","image-keyboard-response","35","81767","0.0-50.0","3QXNC7EIPJHTAL5OYBNBI3Q43YJ90X","A2MX0EF342FY3P","3H6W48L9F4B5OEOMH57RM53Z4H1WP0","","689.3000000119209","img/land4.png","75","689.8999999761581","2","1","false","1","1,1,0,0,1,1,1,0,1","",""
"","html-keyboard-response","36","82069","0.0-51.0","3QXNC7EIPJHTAL5OYBNBI3Q43YJ90X","A2MX0EF342FY3P","3H6W48L9F4B5OEOMH57RM53Z4H1WP0","","null","<img src=""img/land4.png"" style=""width:200px; border:14px solid green;"">","null","","","","","","","",""
"","image-keyboard-response","37","82896","0.0-53.0","3QXNC7EIPJHTAL5OYBNBI3Q43YJ90X","A2MX0EF342FY3P","3H6W48L9F4B5OEOMH57RM53Z4H1WP0","","824.9000000357628","img/land6.png","74","826.5","1","1","false","3","1,1,0,0,1,1,1,0,1","",""
"","html-keyboard-response","38","83199","0.0-54.0","3QXNC7EIPJHTAL5OYBNBI3Q43YJ90X","A2MX0EF342FY3P","3H6W48L9F4B5OEOMH57RM53Z4H1WP0","","null","<img src=""img/land6.png"" style=""width:200px; border:14px solid green;"">","null","","","","","","","",""
"","image-keyboard-response","39","83648","0.0-56.0","3QXNC7EIPJHTAL5OYBNBI3Q43YJ90X","A2MX0EF342FY3P","3H6W48L9F4B5OEOMH57RM53Z4H1WP0","","446.9000000357628","img/land6.png","74","448.19999998807907","1","1","false","3","1,1,0,0,1,1,1,0,1","",""
"","html-keyboard-response","40","83951","0.0-57.0","3QXNC7EIPJHTAL5OYBNBI3Q43YJ90X","A2MX0EF342FY3P","3H6W48L9F4B5OEOMH57RM53Z4H1WP0","","null","<img src=""img/land6.png"" style=""width:200px; border:14px solid green;"">","null","","","","","","","",""
"","image-keyboard-response","41","84360","0.0-59.0","3QXNC7EIPJHTAL5OYBNBI3Q43YJ90X","A2MX0EF342FY3P","3H6W48L9F4B5OEOMH57RM53Z4H1WP0","","407.19999998807907","img/land6.png","74","408.80000001192093","1","1","false","3","1,1,0,0,1,1,1,0,1","",""
"","html-keyboard-response","42","84663","0.0-60.0","3QXNC7EIPJHTAL5OYBNBI3Q43YJ90X","A2MX0EF342FY3P","3H6W48L9F4B5OEOMH57RM53Z4H1WP0","","null","<img src=""img/land6.png"" style=""width:200px; border:14px solid green;"">","null","","","","","","","",""
"","image-keyboard-response","43","85352","0.0-62.0","3QXNC7EIPJHTAL5OYBNBI3Q43YJ90X","A2MX0EF342FY3P","3H6W48L9F4B5OEOMH57RM53Z4H1WP0","","687.8999999761581","img/land4.png","75","689.1999999880791","2","1","false","1","1,1,0,0,1,1,1,0,1","",""
"","html-keyboard-response","44","85656","0.0-63.0","3QXNC7EIPJHTAL5OYBNBI3Q43YJ90X","A2MX0EF342FY3P","3H6W48L9F4B5OEOMH57RM53Z4H1WP0","","null","<img src=""img/land4.png"" style=""width:200px; border:14px solid green;"">","null","","","","","","","",""
"","image-keyboard-response","45","86400","0.0-65.0","3QXNC7EIPJHTAL5OYBNBI3Q43YJ90X","A2MX0EF342FY3P","3H6W48L9F4B5OEOMH57RM53Z4H1WP0","","742.4000000357628","img/land5.png","76","743.8999999761581","3","1","false","2","1,1,0,0,1,1,1,0,1","",""
"","html-keyboard-response","46","86703","0.0-66.0","3QXNC7EIPJHTAL5OYBNBI3Q43YJ90X","A2MX0EF342FY3P","3H6W48L9F4B5OEOMH57RM53Z4H1WP0","","null","<img src=""img/land5.png"" style=""width:200px; border:14px solid green;"">","null","","","","","","","",""
"","image-keyboard-response","47","87279","0.0-68.0","3QXNC7EIPJHTAL5OYBNBI3Q43YJ90X","A2MX0EF342FY3P","3H6W48L9F4B5OEOMH57RM53Z4H1WP0","","574.1000000238419","img/land4.png","75","575.5","2","1","false","1","1,1,0,0,1,1,1,0,1","",""
"","html-keyboard-response","48","87581","0.0-69.0","3QXNC7EIPJHTAL5OYBNBI3Q43YJ90X","A2MX0EF342FY3P","3H6W48L9F4B5OEOMH57RM53Z4H1WP0","","null","<img src=""img/land4.png"" style=""width:200px; border:14px solid green;"">","null","","","","","","","",""
"","image-keyboard-response","49","88191","0.0-71.0","3QXNC7EIPJHTAL5OYBNBI3Q43YJ90X","A2MX0EF342FY3P","3H6W48L9F4B5OEOMH57RM53Z4H1WP0","","607.8000000119209","img/land5.png","75","609","2","1","false","2","1,1,0,0,1,1,1,0,1","",""
"","html-keyboard-response","50","88493","0.0-72.0","3QXNC7EIPJHTAL5OYBNBI3Q43YJ90X","A2MX0EF342FY3P","3H6W48L9F4B5OEOMH57RM53Z4H1WP0","","null","<img src=""img/land5.png"" style=""width:200px; border:14px solid green;"">","null","","","","","","","",""
"","image-keyboard-response","51","89280","0.0-74.0","3QXNC7EIPJHTAL5OYBNBI3Q43YJ90X","A2MX0EF342FY3P","3H6W48L9F4B5OEOMH57RM53Z4H1WP0","","785.3000000119209","img/land6.png","74","786.8999999761581","1","1","false","3","1,1,0,0,1,1,1,0,1","",""
"","html-keyboard-response","52","89583","0.0-75.0","3QXNC7EIPJHTAL5OYBNBI3Q43YJ90X","A2MX0EF342FY3P","3H6W48L9F4B5OEOMH57RM53Z4H1WP0","","null","<img src=""img/land6.png"" style=""width:200px; border:14px solid green;"">","null","","","","","","","",""
"","image-keyboard-response","53","90079","0.0-77.0","3QXNC7EIPJHTAL5OYBNBI3Q43YJ90X","A2MX0EF342FY3P","3H6W48L9F4B5OEOMH57RM53Z4H1WP0","","493.9000000357628","img/land6.png","74","495","1","1","false","3","1,1,0,0,1,1,1,0,1","",""
"","html-keyboard-response","54","90381","0.0-78.0","3QXNC7EIPJHTAL5OYBNBI3Q43YJ90X","A2MX0EF342FY3P","3H6W48L9F4B5OEOMH57RM53Z4H1WP0","","null","<img src=""img/land6.png"" style=""width:200px; border:14px solid green;"">","null","","","","","","","",""
"","image-keyboard-response","55","90960","0.0-80.0","3QXNC7EIPJHTAL5OYBNBI3Q43YJ90X","A2MX0EF342FY3P","3H6W48L9F4B5OEOMH57RM53Z4H1WP0","","576.5","img/land6.png","74","578.0999999642372","1","1","false","3","1,1,0,0,1,1,1,0,1","",""
"","html-keyboard-response","56","91262","0.0-81.0","3QXNC7EIPJHTAL5OYBNBI3Q43YJ90X","A2MX0EF342FY3P","3H6W48L9F4B5OEOMH57RM53Z4H1WP0","","null","<img src=""img/land6.png"" style=""width:200px; border:14px solid green;"">","null","","","","","","","",""
"","image-keyboard-response","57","91736","0.0-83.0","3QXNC7EIPJHTAL5OYBNBI3Q43YJ90X","A2MX0EF342FY3P","3H6W48L9F4B5OEOMH57RM53Z4H1WP0","","472.80000001192093","img/land6.png","74","473.69999998807907","1","1","false","3","1,1,0,0,1,1,1,0,1","",""
"","html-keyboard-response","58","92045","0.0-84.0","3QXNC7EIPJHTAL5OYBNBI3Q43YJ90X","A2MX0EF342FY3P","3H6W48L9F4B5OEOMH57RM53Z4H1WP0","","null","<img src=""img/land6.png"" style=""width:200px; border:14px solid green;"">","null","","","","","","","",""
"","image-keyboard-response","59","92583","0.0-86.0","3QXNC7EIPJHTAL5OYBNBI3Q43YJ90X","A2MX0EF342FY3P","3H6W48L9F4B5OEOMH57RM53Z4H1WP0","","536.9000000357628","img/land4.png","75","537.7000000476837","2","1","false","1","1,1,0,0,1,1,1,0,1","",""
"","html-keyboard-response","60","92885","0.0-87.0","3QXNC7EIPJHTAL5OYBNBI3Q43YJ90X","A2MX0EF342FY3P","3H6W48L9F4B5OEOMH57RM53Z4H1WP0","","null","<img src=""img/land4.png"" style=""width:200px; border:14px solid green;"">","null","","","","","","","",""
"","image-keyboard-response","61","93447","0.0-89.0","3QXNC7EIPJHTAL5OYBNBI3Q43YJ90X","A2MX0EF342FY3P","3H6W48L9F4B5OEOMH57RM53Z4H1WP0","","561.1999999880791","img/land6.png","75","561.9000000357628","2","0","false","3","1,1,0,0,1,1,1,0,1","",""
"","html-keyboard-response","62","93749","0.0-90.0","3QXNC7EIPJHTAL5OYBNBI3Q43YJ90X","A2MX0EF342FY3P","3H6W48L9F4B5OEOMH57RM53Z4H1WP0","","null","<img src=""img/land6.png"" style=""width:200px;border:14px solid red;"">","null","","","","","","","",""
"","image-keyboard-response","63","94360","0.0-92.0","3QXNC7EIPJHTAL5OYBNBI3Q43YJ90X","A2MX0EF342FY3P","3H6W48L9F4B5OEOMH57RM53Z4H1WP0","","608.8999999761581","img/land5.png","76","610.1999999880791","3","1","false","2","1,1,0,0,1,1,1,0,1","",""
"","html-keyboard-response","64","94663","0.0-93.0","3QXNC7EIPJHTAL5OYBNBI3Q43YJ90X","A2MX0EF342FY3P","3H6W48L9F4B5OEOMH57RM53Z4H1WP0","","null","<img src=""img/land5.png"" style=""width:200px; border:14px solid green;"">","null","","","","","","","",""
"","image-keyboard-response","65","95175","0.0-95.0","3QXNC7EIPJHTAL5OYBNBI3Q43YJ90X","A2MX0EF342FY3P","3H6W48L9F4B5OEOMH57RM53Z4H1WP0","","509.69999998807907","img/land6.png","75","511.10000002384186","2","0","false","3","1,1,0,0,1,1,1,0,1","",""
"","html-keyboard-response","66","95477","0.0-96.0","3QXNC7EIPJHTAL5OYBNBI3Q43YJ90X","A2MX0EF342FY3P","3H6W48L9F4B5OEOMH57RM53Z4H1WP0","","null","<img src=""img/land6.png"" style=""width:200px;border:14px solid red;"">","null","","","","","","","",""
"","image-keyboard-response","67","96088","0.0-98.0","3QXNC7EIPJHTAL5OYBNBI3Q43YJ90X","A2MX0EF342FY3P","3H6W48L9F4B5OEOMH57RM53Z4H1WP0","","609.7999999523163","img/land4.png","75","610.7000000476837","2","1","false","1","1,1,0,0,1,1,1,0,1","",""
"","html-keyboard-response","68","96391","0.0-99.0","3QXNC7EIPJHTAL5OYBNBI3Q43YJ90X","A2MX0EF342FY3P","3H6W48L9F4B5OEOMH57RM53Z4H1WP0","","null","<img src=""img/land4.png"" style=""width:200px; border:14px solid green;"">","null","","","","","","","",""
"","image-keyboard-response","69","96927","0.0-101.0","3QXNC7EIPJHTAL5OYBNBI3Q43YJ90X","A2MX0EF342FY3P","3H6W48L9F4B5OEOMH57RM53Z4H1WP0","","533.6999999880791","img/land6.png","74","535","1","1","false","3","1,1,0,0,1,1,1,0,1","",""
"","html-keyboard-response","70","97229","0.0-102.0","3QXNC7EIPJHTAL5OYBNBI3Q43YJ90X","A2MX0EF342FY3P","3H6W48L9F4B5OEOMH57RM53Z4H1WP0","","null","<img src=""img/land6.png"" style=""width:200px; border:14px solid green;"">","null","","","","","","","",""
"","image-keyboard-response","71","97991","0.0-104.0","3QXNC7EIPJHTAL5OYBNBI3Q43YJ90X","A2MX0EF342FY3P","3H6W48L9F4B5OEOMH57RM53Z4H1WP0","","759.7999999523163","img/land4.png","75","761.1000000238419","2","1","false","1","1,1,0,0,1,1,1,0,1","",""
"","html-keyboard-response","72","98293","0.0-105.0","3QXNC7EIPJHTAL5OYBNBI3Q43YJ90X","A2MX0EF342FY3P","3H6W48L9F4B5OEOMH57RM53Z4H1WP0","","null","<img src=""img/land4.png"" style=""width:200px; border:14px solid green;"">","null","","","","","","","",""
"","image-keyboard-response","73","99016","0.0-107.0","3QXNC7EIPJHTAL5OYBNBI3Q43YJ90X","A2MX0EF342FY3P","3H6W48L9F4B5OEOMH57RM53Z4H1WP0","","720.8000000119209","img/land5.png","76","722.3999999761581","3","1","false","2","1,1,0,0,1,1,1,0,1","",""
"","html-keyboard-response","74","99320","0.0-108.0","3QXNC7EIPJHTAL5OYBNBI3Q43YJ90X","A2MX0EF342FY3P","3H6W48L9F4B5OEOMH57RM53Z4H1WP0","","null","<img src=""img/land5.png"" style=""width:200px; border:14px solid green;"">","null","","","","","","","",""
"","image-keyboard-response","75","100280","0.0-110.0","3QXNC7EIPJHTAL5OYBNBI3Q43YJ90X","A2MX0EF342FY3P","3H6W48L9F4B5OEOMH57RM53Z4H1WP0","","958.1999999880791","img/land4.png","74","959.8999999761581","1","1","false","1","1,1,0,0,1,1,1,0,1","",""
"","html-keyboard-response","76","100584","0.0-111.0","3QXNC7EIPJHTAL5OYBNBI3Q43YJ90X","A2MX0EF342FY3P","3H6W48L9F4B5OEOMH57RM53Z4H1WP0","","null","<img src=""img/land4.png"" style=""width:200px; border:14px solid green;"">","null","","","","","","","",""
"","image-keyboard-response","77","101152","0.0-113.0","3QXNC7EIPJHTAL5OYBNBI3Q43YJ90X","A2MX0EF342FY3P","3H6W48L9F4B5OEOMH57RM53Z4H1WP0","","566","img/land6.png","74","567.6999999880791","1","1","false","3","1,1,0,0,1,1,1,0,1","",""
"","html-keyboard-response","78","101455","0.0-114.0","3QXNC7EIPJHTAL5OYBNBI3Q43YJ90X","A2MX0EF342FY3P","3H6W48L9F4B5OEOMH57RM53Z4H1WP0","","null","<img src=""img/land6.png"" style=""width:200px; border:14px solid green;"">","null","","","","","","","",""
"","image-keyboard-response","79","102143","0.0-116.0","3QXNC7EIPJHTAL5OYBNBI3Q43YJ90X","A2MX0EF342FY3P","3H6W48L9F4B5OEOMH57RM53Z4H1WP0","","686.6000000238419","img/land4.png","75","687.5","2","1","false","1","1,1,0,0,1,1,1,0,1","",""
"","html-keyboard-response","80","102445","0.0-117.0","3QXNC7EIPJHTAL5OYBNBI3Q43YJ90X","A2MX0EF342FY3P","3H6W48L9F4B5OEOMH57RM53Z4H1WP0","","null","<img src=""img/land4.png"" style=""width:200px; border:14px solid green;"">","null","","","","","","","",""
"","image-keyboard-response","81","102992","0.0-119.0","3QXNC7EIPJHTAL5OYBNBI3Q43YJ90X","A2MX0EF342FY3P","3H6W48L9F4B5OEOMH57RM53Z4H1WP0","","545.3000000119209","img/land6.png","76","547","3","1","false","3","1,1,0,0,1,1,1,0,1","",""
"","html-keyboard-response","82","103296","0.0-120.0","3QXNC7EIPJHTAL5OYBNBI3Q43YJ90X","A2MX0EF342FY3P","3H6W48L9F4B5OEOMH57RM53Z4H1WP0","","null","<img src=""img/land6.png"" style=""width:200px; border:14px solid green;"">","null","","","","","","","",""
"","image-keyboard-response","83","104176","0.0-122.0","3QXNC7EIPJHTAL5OYBNBI3Q43YJ90X","A2MX0EF342FY3P","3H6W48L9F4B5OEOMH57RM53Z4H1WP0","","878.1000000238419","img/land6.png","76","879.6999999880791","3","1","false","3","1,1,0,0,1,1,1,0,1","",""
"","html-keyboard-response","84","104480","0.0-123.0","3QXNC7EIPJHTAL5OYBNBI3Q43YJ90X","A2MX0EF342FY3P","3H6W48L9F4B5OEOMH57RM53Z4H1WP0","","null","<img src=""img/land6.png"" style=""width:200px; border:14px solid green;"">","null","","","","","","","",""
"","image-keyboard-response","85","105360","0.0-125.0","3QXNC7EIPJHTAL5OYBNBI3Q43YJ90X","A2MX0EF342FY3P","3H6W48L9F4B5OEOMH57RM53Z4H1WP0","","879","img/land5.png","76","880.0999999642372","3","1","false","2","1,1,0,0,1,1,1,0,1","",""
"","html-keyboard-response","86","105663","0.0-126.0","3QXNC7EIPJHTAL5OYBNBI3Q43YJ90X","A2MX0EF342FY3P","3H6W48L9F4B5OEOMH57RM53Z4H1WP0","","null","<img src=""img/land5.png"" style=""width:200px; border:14px solid green;"">","null","","","","","","","",""
"","image-keyboard-response","87","106647","0.0-128.0","3QXNC7EIPJHTAL5OYBNBI3Q43YJ90X","A2MX0EF342FY3P","3H6W48L9F4B5OEOMH57RM53Z4H1WP0","","981.8000000119209","img/land4.png","75","983.1000000238419","2","1","false","1","1,1,0,0,1,1,1,0,1","",""
"","html-keyboard-response","88","106949","0.0-129.0","3QXNC7EIPJHTAL5OYBNBI3Q43YJ90X","A2MX0EF342FY3P","3H6W48L9F4B5OEOMH57RM53Z4H1WP0","","null","<img src=""img/land4.png"" style=""width:200px; border:14px solid green;"">","null","","","","","","","",""
"","image-keyboard-response","89","107536","0.0-131.0","3QXNC7EIPJHTAL5OYBNBI3Q43YJ90X","A2MX0EF342FY3P","3H6W48L9F4B5OEOMH57RM53Z4H1WP0","","586.1000000238419","img/land4.png","75","587","2","1","false","1","1,1,0,0,1,1,1,0,1","",""
"","html-keyboard-response","90","107839","0.0-132.0","3QXNC7EIPJHTAL5OYBNBI3Q43YJ90X","A2MX0EF342FY3P","3H6W48L9F4B5OEOMH57RM53Z4H1WP0","","null","<img src=""img/land4.png"" style=""width:200px; border:14px solid green;"">","null","","","","","","","",""
"","image-keyboard-response","91","108353","0.0-134.0","3QXNC7EIPJHTAL5OYBNBI3Q43YJ90X","A2MX0EF342FY3P","3H6W48L9F4B5OEOMH57RM53Z4H1WP0","","511.30000001192093","img/land4.png","75","513","2","1","false","1","1,1,0,0,1,1,1,0,1","",""
"","html-keyboard-response","92","108655","0.0-135.0","3QXNC7EIPJHTAL5OYBNBI3Q43YJ90X","A2MX0EF342FY3P","3H6W48L9F4B5OEOMH57RM53Z4H1WP0","","null","<img src=""img/land4.png"" style=""width:200px; border:14px solid green;"">","null","","","","","","","",""
"","image-keyboard-response","93","109191","0.0-137.0","3QXNC7EIPJHTAL5OYBNBI3Q43YJ90X","A2MX0EF342FY3P","3H6W48L9F4B5OEOMH57RM53Z4H1WP0","","534.5999999642372","img/land6.png","76","535.3000000119209","3","1","false","3","1,1,0,0,1,1,1,0,1","",""
"","html-keyboard-response","94","109492","0.0-138.0","3QXNC7EIPJHTAL5OYBNBI3Q43YJ90X","A2MX0EF342FY3P","3H6W48L9F4B5OEOMH57RM53Z4H1WP0","","null","<img src=""img/land6.png"" style=""width:200px; border:14px solid green;"">","null","","","","","","","",""
"","image-keyboard-response","95","109943","0.0-140.0","3QXNC7EIPJHTAL5OYBNBI3Q43YJ90X","A2MX0EF342FY3P","3H6W48L9F4B5OEOMH57RM53Z4H1WP0","","448.60000002384186","img/land6.png","76","450.2000000476837","3","1","false","3","1,1,0,0,1,1,1,0,1","",""
"","html-keyboard-response","96","110245","0.0-141.0","3QXNC7EIPJHTAL5OYBNBI3Q43YJ90X","A2MX0EF342FY3P","3H6W48L9F4B5OEOMH57RM53Z4H1WP0","","null","<img src=""img/land6.png"" style=""width:200px; border:14px solid green;"">","null","","","","","","","",""
"","image-keyboard-response","97","110912","0.0-143.0","3QXNC7EIPJHTAL5OYBNBI3Q43YJ90X","A2MX0EF342FY3P","3H6W48L9F4B5OEOMH57RM53Z4H1WP0","","664.4000000357628","img/land4.png","76","665.8999999761581","3","0","false","1","1,1,0,0,1,1,1,0,1","",""
"","html-keyboard-response","98","111214","0.0-144.0","3QXNC7EIPJHTAL5OYBNBI3Q43YJ90X","A2MX0EF342FY3P","3H6W48L9F4B5OEOMH57RM53Z4H1WP0","","null","<img src=""img/land4.png"" style=""width:200px;border:14px solid red;"">","null","","","","","","","",""
"","image-keyboard-response","99","112217","0.0-146.0","3QXNC7EIPJHTAL5OYBNBI3Q43YJ90X","A2MX0EF342FY3P","3H6W48L9F4B5OEOMH57RM53Z4H1WP0","","","img/land5.png","","1002.1999999880791","-1","0","true","2","1,1,0,0,1,1,1,0,1","",""
"","html-keyboard-response","100","112520","0.0-147.0","3QXNC7EIPJHTAL5OYBNBI3Q43YJ90X","A2MX0EF342FY3P","3H6W48L9F4B5OEOMH57RM53Z4H1WP0","","null","<img src=""img/land5.png"" style=""width:200px;border:14px solid red;"">","null","","","","","","","",""
"","html-keyboard-response","101","114931","0.0-148.0-0.0","3QXNC7EIPJHTAL5OYBNBI3Q43YJ90X","A2MX0EF342FY3P","3H6W48L9F4B5OEOMH57RM53Z4H1WP0","","","","","","","","","","","",""
"","image-keyboard-response","102","115593","0.0-149.0","3QXNC7EIPJHTAL5OYBNBI3Q43YJ90X","A2MX0EF342FY3P","3H6W48L9F4B5OEOMH57RM53Z4H1WP0","","660.7000000476837","img/land6.png","75","661.6000000238419","2","0","false","3","1,1,0,0,1,1,1,0,1","",""
"","html-keyboard-response","103","115895","0.0-150.0","3QXNC7EIPJHTAL5OYBNBI3Q43YJ90X","A2MX0EF342FY3P","3H6W48L9F4B5OEOMH57RM53Z4H1WP0","","null","<img src=""img/land6.png"" style=""width:200px;border:14px solid red;"">","null","","","","","","","",""
"","image-keyboard-response","104","116503","0.0-152.0","3QXNC7EIPJHTAL5OYBNBI3Q43YJ90X","A2MX0EF342FY3P","3H6W48L9F4B5OEOMH57RM53Z4H1WP0","","605.6000000238419","img/land6.png","74","607","1","1","false","3","1,1,0,0,1,1,1,0,1","",""
"","html-keyboard-response","105","116804","0.0-153.0","3QXNC7EIPJHTAL5OYBNBI3Q43YJ90X","A2MX0EF342FY3P","3H6W48L9F4B5OEOMH57RM53Z4H1WP0","","null","<img src=""img/land6.png"" style=""width:200px; border:14px solid green;"">","null","","","","","","","",""
"","image-keyboard-response","106","117687","0.0-155.0","3QXNC7EIPJHTAL5OYBNBI3Q43YJ90X","A2MX0EF342FY3P","3H6W48L9F4B5OEOMH57RM53Z4H1WP0","","880.8999999761581","img/land5.png","75","882.5","2","1","false","2","1,1,0,0,1,1,1,0,1","",""
"","html-keyboard-response","107","117990","0.0-156.0","3QXNC7EIPJHTAL5OYBNBI3Q43YJ90X","A2MX0EF342FY3P","3H6W48L9F4B5OEOMH57RM53Z4H1WP0","","null","<img src=""img/land5.png"" style=""width:200px; border:14px solid green;"">","null","","","","","","","",""
"","image-keyboard-response","108","118615","0.0-158.0","3QXNC7EIPJHTAL5OYBNBI3Q43YJ90X","A2MX0EF342FY3P","3H6W48L9F4B5OEOMH57RM53Z4H1WP0","","623.5","img/land5.png","75","624.2000000476837","2","1","false","2","1,1,0,0,1,1,1,0,1","",""
"","html-keyboard-response","109","118917","0.0-159.0","3QXNC7EIPJHTAL5OYBNBI3Q43YJ90X","A2MX0EF342FY3P","3H6W48L9F4B5OEOMH57RM53Z4H1WP0","","null","<img src=""img/land5.png"" style=""width:200px; border:14px solid green;"">","null","","","","","","","",""
"","image-keyboard-response","110","119895","0.0-161.0","3QXNC7EIPJHTAL5OYBNBI3Q43YJ90X","A2MX0EF342FY3P","3H6W48L9F4B5OEOMH57RM53Z4H1WP0","","977.1000000238419","img/land6.png","76","977.7000000476837","3","1","false","3","1,1,0,0,1,1,1,0,1","",""
"","html-keyboard-response","111","120196","0.0-162.0","3QXNC7EIPJHTAL5OYBNBI3Q43YJ90X","A2MX0EF342FY3P","3H6W48L9F4B5OEOMH57RM53Z4H1WP0","","null","<img src=""img/land6.png"" style=""width:200px; border:14px solid green;"">","null","","","","","","","",""
"","image-keyboard-response","112","120879","0.0-164.0","3QXNC7EIPJHTAL5OYBNBI3Q43YJ90X","A2MX0EF342FY3P","3H6W48L9F4B5OEOMH57RM53Z4H1WP0","","682","img/land4.png","76","682.5","3","0","false","1","1,1,0,0,1,1,1,0,1","",""
"","html-keyboard-response","113","121180","0.0-165.0","3QXNC7EIPJHTAL5OYBNBI3Q43YJ90X","A2MX0EF342FY3P","3H6W48L9F4B5OEOMH57RM53Z4H1WP0","","null","<img src=""img/land4.png"" style=""width:200px;border:14px solid red;"">","null","","","","","","","",""
"","image-keyboard-response","114","121992","0.0-167.0","3QXNC7EIPJHTAL5OYBNBI3Q43YJ90X","A2MX0EF342FY3P","3H6W48L9F4B5OEOMH57RM53Z4H1WP0","","810.3999999761581","img/land6.png","76","811.5","3","1","false","3","1,1,0,0,1,1,1,0,1","",""
"","html-keyboard-response","115","122294","0.0-168.0","3QXNC7EIPJHTAL5OYBNBI3Q43YJ90X","A2MX0EF342FY3P","3H6W48L9F4B5OEOMH57RM53Z4H1WP0","","null","<img src=""img/land6.png"" style=""width:200px; border:14px solid green;"">","null","","","","","","","",""
"","image-keyboard-response","116","122799","0.0-170.0","3QXNC7EIPJHTAL5OYBNBI3Q43YJ90X","A2MX0EF342FY3P","3H6W48L9F4B5OEOMH57RM53Z4H1WP0","","503.39999997615814","img/land4.png","75","504.0999999642372","2","1","false","1","1,1,0,0,1,1,1,0,1","",""
"","html-keyboard-response","117","123101","0.0-171.0","3QXNC7EIPJHTAL5OYBNBI3Q43YJ90X","A2MX0EF342FY3P","3H6W48L9F4B5OEOMH57RM53Z4H1WP0","","null","<img src=""img/land4.png"" style=""width:200px; border:14px solid green;"">","null","","","","","","","",""
"","image-keyboard-response","118","123896","0.0-173.0","3QXNC7EIPJHTAL5OYBNBI3Q43YJ90X","A2MX0EF342FY3P","3H6W48L9F4B5OEOMH57RM53Z4H1WP0","","794","img/land6.png","76","795.1000000238419","3","1","false","3","1,1,0,0,1,1,1,0,1","",""
"","html-keyboard-response","119","124199","0.0-174.0","3QXNC7EIPJHTAL5OYBNBI3Q43YJ90X","A2MX0EF342FY3P","3H6W48L9F4B5OEOMH57RM53Z4H1WP0","","null","<img src=""img/land6.png"" style=""width:200px; border:14px solid green;"">","null","","","","","","","",""
"","image-keyboard-response","120","124928","0.0-176.0","3QXNC7EIPJHTAL5OYBNBI3Q43YJ90X","A2MX0EF342FY3P","3H6W48L9F4B5OEOMH57RM53Z4H1WP0","","727.4000000357628","img/land5.png","76","728.3999999761581","3","1","false","2","1,1,0,0,1,1,1,0,1","",""
"","html-keyboard-response","121","125232","0.0-177.0","3QXNC7EIPJHTAL5OYBNBI3Q43YJ90X","A2MX0EF342FY3P","3H6W48L9F4B5OEOMH57RM53Z4H1WP0","","null","<img src=""img/land5.png"" style=""width:200px; border:14px solid green;"">","null","","","","","","","",""
"","image-keyboard-response","122","125824","0.0-179.0","3QXNC7EIPJHTAL5OYBNBI3Q43YJ90X","A2MX0EF342FY3P","3H6W48L9F4B5OEOMH57RM53Z4H1WP0","","591.1999999880791","img/land5.png","76","592.3000000119209","3","1","false","2","1,1,0,0,1,1,1,0,1","",""
"","html-keyboard-response","123","126126","0.0-180.0","3QXNC7EIPJHTAL5OYBNBI3Q43YJ90X","A2MX0EF342FY3P","3H6W48L9F4B5OEOMH57RM53Z4H1WP0","","null","<img src=""img/land5.png"" style=""width:200px; border:14px solid green;"">","null","","","","","","","",""
"","image-keyboard-response","124","126703","0.0-182.0","3QXNC7EIPJHTAL5OYBNBI3Q43YJ90X","A2MX0EF342FY3P","3H6W48L9F4B5OEOMH57RM53Z4H1WP0","","574.3000000119209","img/land6.png","75","575.7000000476837","2","0","false","3","1,1,0,0,1,1,1,0,1","",""
"","html-keyboard-response","125","127005","0.0-183.0","3QXNC7EIPJHTAL5OYBNBI3Q43YJ90X","A2MX0EF342FY3P","3H6W48L9F4B5OEOMH57RM53Z4H1WP0","","null","<img src=""img/land6.png"" style=""width:200px;border:14px solid red;"">","null","","","","","","","",""
"","image-keyboard-response","126","127568","0.0-185.0","3QXNC7EIPJHTAL5OYBNBI3Q43YJ90X","A2MX0EF342FY3P","3H6W48L9F4B5OEOMH57RM53Z4H1WP0","","560.8000000119209","img/land5.png","76","563.6999999880791","3","1","false","2","1,1,0,0,1,1,1,0,1","",""
"","html-keyboard-response","127","127872","0.0-186.0","3QXNC7EIPJHTAL5OYBNBI3Q43YJ90X","A2MX0EF342FY3P","3H6W48L9F4B5OEOMH57RM53Z4H1WP0","","null","<img src=""img/land5.png"" style=""width:200px; border:14px solid green;"">","null","","","","","","","",""
"","image-keyboard-response","128","128336","0.0-188.0","3QXNC7EIPJHTAL5OYBNBI3Q43YJ90X","A2MX0EF342FY3P","3H6W48L9F4B5OEOMH57RM53Z4H1WP0","","462.5999999642372","img/land6.png","75","463.60000002384186","2","0","false","3","1,1,0,0,1,1,1,0,1","",""
"","html-keyboard-response","129","128639","0.0-189.0","3QXNC7EIPJHTAL5OYBNBI3Q43YJ90X","A2MX0EF342FY3P","3H6W48L9F4B5OEOMH57RM53Z4H1WP0","","null","<img src=""img/land6.png"" style=""width:200px;border:14px solid red;"">","null","","","","","","","",""
"","image-keyboard-response","130","129248","0.0-191.0","3QXNC7EIPJHTAL5OYBNBI3Q43YJ90X","A2MX0EF342FY3P","3H6W48L9F4B5OEOMH57RM53Z4H1WP0","","606.6999999880791","img/land5.png","76","608.3000000119209","3","1","false","2","1,1,0,0,1,1,1,0,1","",""
"","html-keyboard-response","131","129550","0.0-192.0","3QXNC7EIPJHTAL5OYBNBI3Q43YJ90X","A2MX0EF342FY3P","3H6W48L9F4B5OEOMH57RM53Z4H1WP0","","null","<img src=""img/land5.png"" style=""width:200px; border:14px solid green;"">","null","","","","","","","",""
"","image-keyboard-response","132","130271","0.0-194.0","3QXNC7EIPJHTAL5OYBNBI3Q43YJ90X","A2MX0EF342FY3P","3H6W48L9F4B5OEOMH57RM53Z4H1WP0","","719.8000000119209","img/land5.png","76","720.3000000119209","3","1","false","2","1,1,0,0,1,1,1,0,1","",""
"","html-keyboard-response","133","130573","0.0-195.0","3QXNC7EIPJHTAL5OYBNBI3Q43YJ90X","A2MX0EF342FY3P","3H6W48L9F4B5OEOMH57RM53Z4H1WP0","","null","<img src=""img/land5.png"" style=""width:200px; border:14px solid green;"">","null","","","","","","","",""
"","image-keyboard-response","134","131512","0.0-197.0","3QXNC7EIPJHTAL5OYBNBI3Q43YJ90X","A2MX0EF342FY3P","3H6W48L9F4B5OEOMH57RM53Z4H1WP0","","937.1000000238419","img/land4.png","76","938.8000000119209","3","0","false","1","1,1,0,0,1,1,1,0,1","",""
"","html-keyboard-response","135","131815","0.0-198.0","3QXNC7EIPJHTAL5OYBNBI3Q43YJ90X","A2MX0EF342FY3P","3H6W48L9F4B5OEOMH57RM53Z4H1WP0","","null","<img src=""img/land4.png"" style=""width:200px;border:14px solid red;"">","null","","","","","","","",""
"","image-keyboard-response","136","132351","0.0-200.0","3QXNC7EIPJHTAL5OYBNBI3Q43YJ90X","A2MX0EF342FY3P","3H6W48L9F4B5OEOMH57RM53Z4H1WP0","","534.6000000238419","img/land4.png","75","536.1999999880791","2","1","false","1","1,1,0,0,1,1,1,0,1","",""
"","html-keyboard-response","137","132654","0.0-201.0","3QXNC7EIPJHTAL5OYBNBI3Q43YJ90X","A2MX0EF342FY3P","3H6W48L9F4B5OEOMH57RM53Z4H1WP0","","null","<img src=""img/land4.png"" style=""width:200px; border:14px solid green;"">","null","","","","","","","",""
"","image-keyboard-response","138","133192","0.0-203.0","3QXNC7EIPJHTAL5OYBNBI3Q43YJ90X","A2MX0EF342FY3P","3H6W48L9F4B5OEOMH57RM53Z4H1WP0","","535.9000000357628","img/land4.png","75","537.3999999761581","2","1","false","1","1,1,0,0,1,1,1,0,1","",""
"","html-keyboard-response","139","133503","0.0-204.0","3QXNC7EIPJHTAL5OYBNBI3Q43YJ90X","A2MX0EF342FY3P","3H6W48L9F4B5OEOMH57RM53Z4H1WP0","","null","<img src=""img/land4.png"" style=""width:200px; border:14px solid green;"">","null","","","","","","","",""
"","image-keyboard-response","140","133968","0.0-206.0","3QXNC7EIPJHTAL5OYBNBI3Q43YJ90X","A2MX0EF342FY3P","3H6W48L9F4B5OEOMH57RM53Z4H1WP0","","464.30000001192093","img/land6.png","76","465.30000001192093","3","1","false","3","1,1,0,0,1,1,1,0,1","",""
"","html-keyboard-response","141","134271","0.0-207.0","3QXNC7EIPJHTAL5OYBNBI3Q43YJ90X","A2MX0EF342FY3P","3H6W48L9F4B5OEOMH57RM53Z4H1WP0","","null","<img src=""img/land6.png"" style=""width:200px; border:14px solid green;"">","null","","","","","","","",""
"","image-keyboard-response","142","134952","0.0-209.0","3QXNC7EIPJHTAL5OYBNBI3Q43YJ90X","A2MX0EF342FY3P","3H6W48L9F4B5OEOMH57RM53Z4H1WP0","","679.1999999880791","img/land5.png","76","680.8000000119209","3","1","false","2","1,1,0,0,1,1,1,0,1","",""
"","html-keyboard-response","143","135254","0.0-210.0","3QXNC7EIPJHTAL5OYBNBI3Q43YJ90X","A2MX0EF342FY3P","3H6W48L9F4B5OEOMH57RM53Z4H1WP0","","null","<img src=""img/land5.png"" style=""width:200px; border:14px solid green;"">","null","","","","","","","",""
"","image-keyboard-response","144","136167","0.0-212.0","3QXNC7EIPJHTAL5OYBNBI3Q43YJ90X","A2MX0EF342FY3P","3H6W48L9F4B5OEOMH57RM53Z4H1WP0","","910.1999999880791","img/land4.png","75","911.4000000357628","2","1","false","1","1,1,0,0,1,1,1,0,1","",""
"","html-keyboard-response","145","136474","0.0-213.0","3QXNC7EIPJHTAL5OYBNBI3Q43YJ90X","A2MX0EF342FY3P","3H6W48L9F4B5OEOMH57RM53Z4H1WP0","","null","<img src=""img/land4.png"" style=""width:200px; border:14px solid green;"">","null","","","","","","","",""
"","image-keyboard-response","146","137064","0.0-215.0","3QXNC7EIPJHTAL5OYBNBI3Q43YJ90X","A2MX0EF342FY3P","3H6W48L9F4B5OEOMH57RM53Z4H1WP0","","587","img/land5.png","76","588.6000000238419","3","1","false","2","1,1,0,0,1,1,1,0,1","",""
"","html-keyboard-response","147","137365","0.0-216.0","3QXNC7EIPJHTAL5OYBNBI3Q43YJ90X","A2MX0EF342FY3P","3H6W48L9F4B5OEOMH57RM53Z4H1WP0","","null","<img src=""img/land5.png"" style=""width:200px; border:14px solid green;"">","null","","","","","","","",""
"","image-keyboard-response","148","137928","0.0-218.0","3QXNC7EIPJHTAL5OYBNBI3Q43YJ90X","A2MX0EF342FY3P","3H6W48L9F4B5OEOMH57RM53Z4H1WP0","","561.5","img/land5.png","76","562.6000000238419","3","1","false","2","1,1,0,0,1,1,1,0,1","",""
"","html-keyboard-response","149","138231","0.0-219.0","3QXNC7EIPJHTAL5OYBNBI3Q43YJ90X","A2MX0EF342FY3P","3H6W48L9F4B5OEOMH57RM53Z4H1WP0","","null","<img src=""img/land5.png"" style=""width:200px; border:14px solid green;"">","null","","","","","","","",""
"","image-keyboard-response","150","138832","0.0-221.0","3QXNC7EIPJHTAL5OYBNBI3Q43YJ90X","A2MX0EF342FY3P","3H6W48L9F4B5OEOMH57RM53Z4H1WP0","","599","img/land6.png","75","600.8000000119209","2","0","false","3","1,1,0,0,1,1,1,0,1","",""
"","html-keyboard-response","151","139135","0.0-222.0","3QXNC7EIPJHTAL5OYBNBI3Q43YJ90X","A2MX0EF342FY3P","3H6W48L9F4B5OEOMH57RM53Z4H1WP0","","null","<img src=""img/land6.png"" style=""width:200px;border:14px solid red;"">","null","","","","","","","",""
"","image-keyboard-response","152","139791","0.0-224.0","3QXNC7EIPJHTAL5OYBNBI3Q43YJ90X","A2MX0EF342FY3P","3H6W48L9F4B5OEOMH57RM53Z4H1WP0","","653.9000000357628","img/land5.png","76","655.1000000238419","3","1","false","2","1,1,0,0,1,1,1,0,1","",""
"","html-keyboard-response","153","140093","0.0-225.0","3QXNC7EIPJHTAL5OYBNBI3Q43YJ90X","A2MX0EF342FY3P","3H6W48L9F4B5OEOMH57RM53Z4H1WP0","","null","<img src=""img/land5.png"" style=""width:200px; border:14px solid green;"">","null","","","","","","","",""
"","image-keyboard-response","154","140944","0.0-227.0","3QXNC7EIPJHTAL5OYBNBI3Q43YJ90X","A2MX0EF342FY3P","3H6W48L9F4B5OEOMH57RM53Z4H1WP0","","849","img/land5.png","76","850.8000000119209","3","1","false","2","1,1,0,0,1,1,1,0,1","",""
"","html-keyboard-response","155","141247","0.0-228.0","3QXNC7EIPJHTAL5OYBNBI3Q43YJ90X","A2MX0EF342FY3P","3H6W48L9F4B5OEOMH57RM53Z4H1WP0","","null","<img src=""img/land5.png"" style=""width:200px; border:14px solid green;"">","null","","","","","","","",""
"","image-keyboard-response","156","141799","0.0-230.0","3QXNC7EIPJHTAL5OYBNBI3Q43YJ90X","A2MX0EF342FY3P","3H6W48L9F4B5OEOMH57RM53Z4H1WP0","","550.5","img/land5.png","76","551.0999999642372","3","1","false","2","1,1,0,0,1,1,1,0,1","",""
"","html-keyboard-response","157","142101","0.0-231.0","3QXNC7EIPJHTAL5OYBNBI3Q43YJ90X","A2MX0EF342FY3P","3H6W48L9F4B5OEOMH57RM53Z4H1WP0","","null","<img src=""img/land5.png"" style=""width:200px; border:14px solid green;"">","null","","","","","","","",""
"","image-keyboard-response","158","142648","0.0-233.0","3QXNC7EIPJHTAL5OYBNBI3Q43YJ90X","A2MX0EF342FY3P","3H6W48L9F4B5OEOMH57RM53Z4H1WP0","","545.1000000238419","img/land6.png","76","546.8000000119209","3","1","false","3","1,1,0,0,1,1,1,0,1","",""
"","html-keyboard-response","159","142951","0.0-234.0","3QXNC7EIPJHTAL5OYBNBI3Q43YJ90X","A2MX0EF342FY3P","3H6W48L9F4B5OEOMH57RM53Z4H1WP0","","null","<img src=""img/land6.png"" style=""width:200px; border:14px solid green;"">","null","","","","","","","",""
"","image-keyboard-response","160","143552","0.0-236.0","3QXNC7EIPJHTAL5OYBNBI3Q43YJ90X","A2MX0EF342FY3P","3H6W48L9F4B5OEOMH57RM53Z4H1WP0","","599.1999999880791","img/land5.png","75","600.8000000119209","2","1","false","2","1,1,0,0,1,1,1,0,1","",""
"","html-keyboard-response","161","143854","0.0-237.0","3QXNC7EIPJHTAL5OYBNBI3Q43YJ90X","A2MX0EF342FY3P","3H6W48L9F4B5OEOMH57RM53Z4H1WP0","","null","<img src=""img/land5.png"" style=""width:200px; border:14px solid green;"">","null","","","","","","","",""
"","image-keyboard-response","162","144512","0.0-239.0","3QXNC7EIPJHTAL5OYBNBI3Q43YJ90X","A2MX0EF342FY3P","3H6W48L9F4B5OEOMH57RM53Z4H1WP0","","656.3999999761581","img/land5.png","76","657.3999999761581","3","1","false","2","1,1,0,0,1,1,1,0,1","",""
"","html-keyboard-response","163","144815","0.0-240.0","3QXNC7EIPJHTAL5OYBNBI3Q43YJ90X","A2MX0EF342FY3P","3H6W48L9F4B5OEOMH57RM53Z4H1WP0","","null","<img src=""img/land5.png"" style=""width:200px; border:14px solid green;"">","null","","","","","","","",""
"","image-keyboard-response","164","145817","0.0-242.0","3QXNC7EIPJHTAL5OYBNBI3Q43YJ90X","A2MX0EF342FY3P","3H6W48L9F4B5OEOMH57RM53Z4H1WP0","","","img/land6.png","","1002","-1","0","true","3","1,1,0,0,1,1,1,0,1","",""
"","html-keyboard-response","165","146122","0.0-243.0","3QXNC7EIPJHTAL5OYBNBI3Q43YJ90X","A2MX0EF342FY3P","3H6W48L9F4B5OEOMH57RM53Z4H1WP0","","null","<img src=""img/land6.png"" style=""width:200px;border:14px solid red;"">","null","","","","","","","",""
"","html-keyboard-response","166","149947","0.0-244.0-0.0","3QXNC7EIPJHTAL5OYBNBI3Q43YJ90X","A2MX0EF342FY3P","3H6W48L9F4B5OEOMH57RM53Z4H1WP0","","","","","","","","","","","",""
"","image-keyboard-response","167","150948","0.0-245.0","3QXNC7EIPJHTAL5OYBNBI3Q43YJ90X","A2MX0EF342FY3P","3H6W48L9F4B5OEOMH57RM53Z4H1WP0","","","img/land4.png","","1001.1000000238419","-1","0","true","1","1,1,0,0,1,1,1,0,1","",""
"","html-keyboard-response","168","151250","0.0-246.0","3QXNC7EIPJHTAL5OYBNBI3Q43YJ90X","A2MX0EF342FY3P","3H6W48L9F4B5OEOMH57RM53Z4H1WP0","","null","<img src=""img/land4.png"" style=""width:200px;border:14px solid red;"">","null","","","","","","","",""
"","html-keyboard-response","169","156035","0.0-247.0-0.0","3QXNC7EIPJHTAL5OYBNBI3Q43YJ90X","A2MX0EF342FY3P","3H6W48L9F4B5OEOMH57RM53Z4H1WP0","","","","","","","","","","","",""
"","image-keyboard-response","170","156079","0.0-248.0","3QXNC7EIPJHTAL5OYBNBI3Q43YJ90X","A2MX0EF342FY3P","3H6W48L9F4B5OEOMH57RM53Z4H1WP0","","43","img/land4.png","75","43.90000003576279","2","1","false","1","1,1,0,0,1,1,1,0,1","",""
"","html-keyboard-response","171","156381","0.0-249.0","3QXNC7EIPJHTAL5OYBNBI3Q43YJ90X","A2MX0EF342FY3P","3H6W48L9F4B5OEOMH57RM53Z4H1WP0","","null","<img src=""img/land4.png"" style=""width:200px; border:14px solid green;"">","null","","","","","","","",""
"","image-keyboard-response","172","157272","0.0-251.0","3QXNC7EIPJHTAL5OYBNBI3Q43YJ90X","A2MX0EF342FY3P","3H6W48L9F4B5OEOMH57RM53Z4H1WP0","","888.3000000119209","img/land6.png","76","890.2999999523163","3","1","false","3","1,1,0,0,1,1,1,0,1","",""
"","html-keyboard-response","173","157574","0.0-252.0","3QXNC7EIPJHTAL5OYBNBI3Q43YJ90X","A2MX0EF342FY3P","3H6W48L9F4B5OEOMH57RM53Z4H1WP0","","null","<img src=""img/land6.png"" style=""width:200px; border:14px solid green;"">","null","","","","","","","",""
"","image-keyboard-response","174","158176","0.0-254.0","3QXNC7EIPJHTAL5OYBNBI3Q43YJ90X","A2MX0EF342FY3P","3H6W48L9F4B5OEOMH57RM53Z4H1WP0","","599.2000000476837","img/land4.png","75","600.8999999761581","2","1","false","1","1,1,0,0,1,1,1,0,1","",""
"","html-keyboard-response","175","158478","0.0-255.0","3QXNC7EIPJHTAL5OYBNBI3Q43YJ90X","A2MX0EF342FY3P","3H6W48L9F4B5OEOMH57RM53Z4H1WP0","","null","<img src=""img/land4.png"" style=""width:200px; border:14px solid green;"">","null","","","","","","","",""
"","image-keyboard-response","176","159008","0.0-257.0","3QXNC7EIPJHTAL5OYBNBI3Q43YJ90X","A2MX0EF342FY3P","3H6W48L9F4B5OEOMH57RM53Z4H1WP0","","528.6000000238419","img/land4.png","75","529.7000000476837","2","1","false","1","1,1,0,0,1,1,1,0,1","",""
"","html-keyboard-response","177","159311","0.0-258.0","3QXNC7EIPJHTAL5OYBNBI3Q43YJ90X","A2MX0EF342FY3P","3H6W48L9F4B5OEOMH57RM53Z4H1WP0","","null","<img src=""img/land4.png"" style=""width:200px; border:14px solid green;"">","null","","","","","","","",""
"","image-keyboard-response","178","160000","0.0-260.0","3QXNC7EIPJHTAL5OYBNBI3Q43YJ90X","A2MX0EF342FY3P","3H6W48L9F4B5OEOMH57RM53Z4H1WP0","","686.9000000357628","img/land5.png","76","688.3999999761581","3","1","false","2","1,1,0,0,1,1,1,0,1","",""
"","html-keyboard-response","179","160309","0.0-261.0","3QXNC7EIPJHTAL5OYBNBI3Q43YJ90X","A2MX0EF342FY3P","3H6W48L9F4B5OEOMH57RM53Z4H1WP0","","null","<img src=""img/land5.png"" style=""width:200px; border:14px solid green;"">","null","","","","","","","",""
"","image-keyboard-response","180","160824","0.0-263.0","3QXNC7EIPJHTAL5OYBNBI3Q43YJ90X","A2MX0EF342FY3P","3H6W48L9F4B5OEOMH57RM53Z4H1WP0","","513.8000000119209","img/land5.png","76","515","3","1","false","2","1,1,0,0,1,1,1,0,1","",""
"","html-keyboard-response","181","161127","0.0-264.0","3QXNC7EIPJHTAL5OYBNBI3Q43YJ90X","A2MX0EF342FY3P","3H6W48L9F4B5OEOMH57RM53Z4H1WP0","","null","<img src=""img/land5.png"" style=""width:200px; border:14px solid green;"">","null","","","","","","","",""
"","image-keyboard-response","182","161624","0.0-266.0","3QXNC7EIPJHTAL5OYBNBI3Q43YJ90X","A2MX0EF342FY3P","3H6W48L9F4B5OEOMH57RM53Z4H1WP0","","496.5","img/land5.png","76","497.69999998807907","3","1","false","2","1,1,0,0,1,1,1,0,1","",""
"","html-keyboard-response","183","161928","0.0-267.0","3QXNC7EIPJHTAL5OYBNBI3Q43YJ90X","A2MX0EF342FY3P","3H6W48L9F4B5OEOMH57RM53Z4H1WP0","","null","<img src=""img/land5.png"" style=""width:200px; border:14px solid green;"">","null","","","","","","","",""
"","image-keyboard-response","184","162319","0.0-269.0","3QXNC7EIPJHTAL5OYBNBI3Q43YJ90X","A2MX0EF342FY3P","3H6W48L9F4B5OEOMH57RM53Z4H1WP0","","389","img/land5.png","76","390.10000002384186","3","1","false","2","1,1,0,0,1,1,1,0,1","",""
"","html-keyboard-response","185","162620","0.0-270.0","3QXNC7EIPJHTAL5OYBNBI3Q43YJ90X","A2MX0EF342FY3P","3H6W48L9F4B5OEOMH57RM53Z4H1WP0","","null","<img src=""img/land5.png"" style=""width:200px; border:14px solid green;"">","null","","","","","","","",""
"","html-keyboard-response","186","175693","0.0-272.0","3QXNC7EIPJHTAL5OYBNBI3Q43YJ90X","A2MX0EF342FY3P","3H6W48L9F4B5OEOMH57RM53Z4H1WP0","","","","","","","","","","","",""
"","image-keyboard-response","187","176695","0.0-273.0","3QXNC7EIPJHTAL5OYBNBI3Q43YJ90X","A2MX0EF342FY3P","3H6W48L9F4B5OEOMH57RM53Z4H1WP0","","","img/land1.png","","1002","-1","0","true","3","1,0.5,0.5,0.5,1,0.5,0.5,0.5,1","",""
"","html-keyboard-response","188","176997","0.0-274.0","3QXNC7EIPJHTAL5OYBNBI3Q43YJ90X","A2MX0EF342FY3P","3H6W48L9F4B5OEOMH57RM53Z4H1WP0","","null","<img src=""img/land1.png"" style=""width:200px;border:14px solid red;"">","null","","","","","","","",""
"","html-keyboard-response","189","188046","0.0-275.0-0.0","3QXNC7EIPJHTAL5OYBNBI3Q43YJ90X","A2MX0EF342FY3P","3H6W48L9F4B5OEOMH57RM53Z4H1WP0","","","","","","","","","","","",""
"","image-keyboard-response","190","188697","0.0-276.0","3QXNC7EIPJHTAL5OYBNBI3Q43YJ90X","A2MX0EF342FY3P","3H6W48L9F4B5OEOMH57RM53Z4H1WP0","","650.0999999642372","img/land2.png","75","651.2000000476837","2","1","false","2","1,0.5,0.5,0.5,1,0.5,0.5,0.5,1","",""
"","html-keyboard-response","191","188999","0.0-277.0","3QXNC7EIPJHTAL5OYBNBI3Q43YJ90X","A2MX0EF342FY3P","3H6W48L9F4B5OEOMH57RM53Z4H1WP0","","null","<img src=""img/land2.png"" style=""width:200px; border:14px solid green;"">","null","","","","","","","",""
"","image-keyboard-response","192","189632","0.0-279.0","3QXNC7EIPJHTAL5OYBNBI3Q43YJ90X","A2MX0EF342FY3P","3H6W48L9F4B5OEOMH57RM53Z4H1WP0","","630.1000000238419","img/land3.png","76","631.5999999642372","3","0","false","1","1,0.5,0.5,0.5,1,0.5,0.5,0.5,1","",""
"","html-keyboard-response","193","189933","0.0-280.0","3QXNC7EIPJHTAL5OYBNBI3Q43YJ90X","A2MX0EF342FY3P","3H6W48L9F4B5OEOMH57RM53Z4H1WP0","","null","<img src=""img/land3.png"" style=""width:200px;border:14px solid red;"">","null","","","","","","","",""
"","image-keyboard-response","194","190680","0.0-282.0","3QXNC7EIPJHTAL5OYBNBI3Q43YJ90X","A2MX0EF342FY3P","3H6W48L9F4B5OEOMH57RM53Z4H1WP0","","745.8000000119209","img/land1.png","76","746.9000000357628","3","1","false","3","1,0.5,0.5,0.5,1,0.5,0.5,0.5,1","",""
"","html-keyboard-response","195","190984","0.0-283.0","3QXNC7EIPJHTAL5OYBNBI3Q43YJ90X","A2MX0EF342FY3P","3H6W48L9F4B5OEOMH57RM53Z4H1WP0","","null","<img src=""img/land1.png"" style=""width:200px; border:14px solid green;"">","null","","","","","","","",""
"","image-keyboard-response","196","191569","0.0-285.0","3QXNC7EIPJHTAL5OYBNBI3Q43YJ90X","A2MX0EF342FY3P","3H6W48L9F4B5OEOMH57RM53Z4H1WP0","","582.5999999642372","img/land1.png","76","584.1999999880791","3","1","false","3","1,0.5,0.5,0.5,1,0.5,0.5,0.5,1","",""
"","html-keyboard-response","197","191872","0.0-286.0","3QXNC7EIPJHTAL5OYBNBI3Q43YJ90X","A2MX0EF342FY3P","3H6W48L9F4B5OEOMH57RM53Z4H1WP0","","null","<img src=""img/land1.png"" style=""width:200px; border:14px solid green;"">","null","","","","","","","",""
"","image-keyboard-response","198","192705","0.0-288.0","3QXNC7EIPJHTAL5OYBNBI3Q43YJ90X","A2MX0EF342FY3P","3H6W48L9F4B5OEOMH57RM53Z4H1WP0","","829.8000000119209","img/land2.png","75","831.6000000238419","2","1","false","2","1,0.5,0.5,0.5,1,0.5,0.5,0.5,1","",""
"","html-keyboard-response","199","193007","0.0-289.0","3QXNC7EIPJHTAL5OYBNBI3Q43YJ90X","A2MX0EF342FY3P","3H6W48L9F4B5OEOMH57RM53Z4H1WP0","","null","<img src=""img/land2.png"" style=""width:200px; border:14px solid green;"">","null","","","","","","","",""
"","image-keyboard-response","200","193561","0.0-291.0","3QXNC7EIPJHTAL5OYBNBI3Q43YJ90X","A2MX0EF342FY3P","3H6W48L9F4B5OEOMH57RM53Z4H1WP0","","549.1999999880791","img/land2.png","75","550.8000000119209","2","1","false","2","1,0.5,0.5,0.5,1,0.5,0.5,0.5,1","",""
"","html-keyboard-response","201","193863","0.0-292.0","3QXNC7EIPJHTAL5OYBNBI3Q43YJ90X","A2MX0EF342FY3P","3H6W48L9F4B5OEOMH57RM53Z4H1WP0","","null","<img src=""img/land2.png"" style=""width:200px; border:14px solid green;"">","null","","","","","","","",""
"","image-keyboard-response","202","194415","0.0-294.0","3QXNC7EIPJHTAL5OYBNBI3Q43YJ90X","A2MX0EF342FY3P","3H6W48L9F4B5OEOMH57RM53Z4H1WP0","","551.8000000119209","img/land1.png","76","552.3999999761581","3","1","false","3","1,0.5,0.5,0.5,1,0.5,0.5,0.5,1","",""
"","html-keyboard-response","203","194717","0.0-295.0","3QXNC7EIPJHTAL5OYBNBI3Q43YJ90X","A2MX0EF342FY3P","3H6W48L9F4B5OEOMH57RM53Z4H1WP0","","null","<img src=""img/land1.png"" style=""width:200px; border:14px solid green;"">","null","","","","","","","",""
"","image-keyboard-response","204","195415","0.0-297.0","3QXNC7EIPJHTAL5OYBNBI3Q43YJ90X","A2MX0EF342FY3P","3H6W48L9F4B5OEOMH57RM53Z4H1WP0","","696.1999999880791","img/land3.png","74","697.5","1","1","false","1","1,0.5,0.5,0.5,1,0.5,0.5,0.5,1","",""
"","html-keyboard-response","205","195718","0.0-298.0","3QXNC7EIPJHTAL5OYBNBI3Q43YJ90X","A2MX0EF342FY3P","3H6W48L9F4B5OEOMH57RM53Z4H1WP0","","null","<img src=""img/land3.png"" style=""width:200px; border:14px solid green;"">","null","","","","","","","",""
"","image-keyboard-response","206","196391","0.0-300.0","3QXNC7EIPJHTAL5OYBNBI3Q43YJ90X","A2MX0EF342FY3P","3H6W48L9F4B5OEOMH57RM53Z4H1WP0","","671.5","img/land2.png","75","672.6000000238419","2","1","false","2","1,0.5,0.5,0.5,1,0.5,0.5,0.5,1","",""
"","html-keyboard-response","207","196693","0.0-301.0","3QXNC7EIPJHTAL5OYBNBI3Q43YJ90X","A2MX0EF342FY3P","3H6W48L9F4B5OEOMH57RM53Z4H1WP0","","null","<img src=""img/land2.png"" style=""width:200px; border:14px solid green;"">","null","","","","","","","",""
"","image-keyboard-response","208","197256","0.0-303.0","3QXNC7EIPJHTAL5OYBNBI3Q43YJ90X","A2MX0EF342FY3P","3H6W48L9F4B5OEOMH57RM53Z4H1WP0","","561.0999999642372","img/land1.png","76","562.6000000238419","3","1","false","3","1,0.5,0.5,0.5,1,0.5,0.5,0.5,1","",""
"","html-keyboard-response","209","197559","0.0-304.0","3QXNC7EIPJHTAL5OYBNBI3Q43YJ90X","A2MX0EF342FY3P","3H6W48L9F4B5OEOMH57RM53Z4H1WP0","","null","<img src=""img/land1.png"" style=""width:200px; border:14px solid green;"">","null","","","","","","","",""
"","image-keyboard-response","210","198105","0.0-306.0","3QXNC7EIPJHTAL5OYBNBI3Q43YJ90X","A2MX0EF342FY3P","3H6W48L9F4B5OEOMH57RM53Z4H1WP0","","544.6999999880791","img/land3.png","75","545.6000000238419","2","1","false","1","1,0.5,0.5,0.5,1,0.5,0.5,0.5,1","",""
"","html-keyboard-response","211","198408","0.0-307.0","3QXNC7EIPJHTAL5OYBNBI3Q43YJ90X","A2MX0EF342FY3P","3H6W48L9F4B5OEOMH57RM53Z4H1WP0","","null","<img src=""img/land3.png"" style=""width:200px; border:14px solid green;"">","null","","","","","","","",""
"","image-keyboard-response","212","199039","0.0-309.0","3QXNC7EIPJHTAL5OYBNBI3Q43YJ90X","A2MX0EF342FY3P","3H6W48L9F4B5OEOMH57RM53Z4H1WP0","","629.7999999523163","img/land1.png","74","631","1","0","false","3","1,0.5,0.5,0.5,1,0.5,0.5,0.5,1","",""
"","html-keyboard-response","213","199341","0.0-310.0","3QXNC7EIPJHTAL5OYBNBI3Q43YJ90X","A2MX0EF342FY3P","3H6W48L9F4B5OEOMH57RM53Z4H1WP0","","null","<img src=""img/land1.png"" style=""width:200px;border:14px solid red;"">","null","","","","","","","",""
"","image-keyboard-response","214","199929","0.0-312.0","3QXNC7EIPJHTAL5OYBNBI3Q43YJ90X","A2MX0EF342FY3P","3H6W48L9F4B5OEOMH57RM53Z4H1WP0","","585.3000000119209","img/land1.png","75","586.7999999523163","2","1","false","3","1,0.5,0.5,0.5,1,0.5,0.5,0.5,1","",""
"","html-keyboard-response","215","200232","0.0-313.0","3QXNC7EIPJHTAL5OYBNBI3Q43YJ90X","A2MX0EF342FY3P","3H6W48L9F4B5OEOMH57RM53Z4H1WP0","","null","<img src=""img/land1.png"" style=""width:200px; border:14px solid green;"">","null","","","","","","","",""
"","image-keyboard-response","216","200777","0.0-315.0","3QXNC7EIPJHTAL5OYBNBI3Q43YJ90X","A2MX0EF342FY3P","3H6W48L9F4B5OEOMH57RM53Z4H1WP0","","544","img/land1.png","75","545.1000000238419","2","0","false","3","1,0.5,0.5,0.5,1,0.5,0.5,0.5,1","",""
"","html-keyboard-response","217","201080","0.0-316.0","3QXNC7EIPJHTAL5OYBNBI3Q43YJ90X","A2MX0EF342FY3P","3H6W48L9F4B5OEOMH57RM53Z4H1WP0","","null","<img src=""img/land1.png"" style=""width:200px;border:14px solid red;"">","null","","","","","","","",""
"","image-keyboard-response","218","201817","0.0-318.0","3QXNC7EIPJHTAL5OYBNBI3Q43YJ90X","A2MX0EF342FY3P","3H6W48L9F4B5OEOMH57RM53Z4H1WP0","","734.7999999523163","img/land3.png","75","736.4000000357628","2","1","false","1","1,0.5,0.5,0.5,1,0.5,0.5,0.5,1","",""
"","html-keyboard-response","219","202120","0.0-319.0","3QXNC7EIPJHTAL5OYBNBI3Q43YJ90X","A2MX0EF342FY3P","3H6W48L9F4B5OEOMH57RM53Z4H1WP0","","null","<img src=""img/land3.png"" style=""width:200px; border:14px solid green;"">","null","","","","","","","",""
"","image-keyboard-response","220","202855","0.0-321.0","3QXNC7EIPJHTAL5OYBNBI3Q43YJ90X","A2MX0EF342FY3P","3H6W48L9F4B5OEOMH57RM53Z4H1WP0","","733.5999999642372","img/land2.png","76","734.8000000119209","3","1","false","2","1,0.5,0.5,0.5,1,0.5,0.5,0.5,1","",""
"","html-keyboard-response","221","203157","0.0-322.0","3QXNC7EIPJHTAL5OYBNBI3Q43YJ90X","A2MX0EF342FY3P","3H6W48L9F4B5OEOMH57RM53Z4H1WP0","","null","<img src=""img/land2.png"" style=""width:200px; border:14px solid green;"">","null","","","","","","","",""
"","image-keyboard-response","222","203799","0.0-324.0","3QXNC7EIPJHTAL5OYBNBI3Q43YJ90X","A2MX0EF342FY3P","3H6W48L9F4B5OEOMH57RM53Z4H1WP0","","640.5999999642372","img/land1.png","75","641.8999999761581","2","0","false","3","1,0.5,0.5,0.5,1,0.5,0.5,0.5,1","",""
"","html-keyboard-response","223","204101","0.0-325.0","3QXNC7EIPJHTAL5OYBNBI3Q43YJ90X","A2MX0EF342FY3P","3H6W48L9F4B5OEOMH57RM53Z4H1WP0","","null","<img src=""img/land1.png"" style=""width:200px;border:14px solid red;"">","null","","","","","","","",""
"","image-keyboard-response","224","204912","0.0-327.0","3QXNC7EIPJHTAL5OYBNBI3Q43YJ90X","A2MX0EF342FY3P","3H6W48L9F4B5OEOMH57RM53Z4H1WP0","","810.0999999642372","img/land3.png","76","810.8000000119209","3","0","false","1","1,0.5,0.5,0.5,1,0.5,0.5,0.5,1","",""
"","html-keyboard-response","225","205215","0.0-328.0","3QXNC7EIPJHTAL5OYBNBI3Q43YJ90X","A2MX0EF342FY3P","3H6W48L9F4B5OEOMH57RM53Z4H1WP0","","null","<img src=""img/land3.png"" style=""width:200px;border:14px solid red;"">","null","","","","","","","",""
"","image-keyboard-response","226","205713","0.0-330.0","3QXNC7EIPJHTAL5OYBNBI3Q43YJ90X","A2MX0EF342FY3P","3H6W48L9F4B5OEOMH57RM53Z4H1WP0","","496.4000000357628","img/land3.png","75","497.5","2","0","false","1","1,0.5,0.5,0.5,1,0.5,0.5,0.5,1","",""
"","html-keyboard-response","227","206016","0.0-331.0","3QXNC7EIPJHTAL5OYBNBI3Q43YJ90X","A2MX0EF342FY3P","3H6W48L9F4B5OEOMH57RM53Z4H1WP0","","null","<img src=""img/land3.png"" style=""width:200px;border:14px solid red;"">","null","","","","","","","",""
"","image-keyboard-response","228","206817","0.0-333.0","3QXNC7EIPJHTAL5OYBNBI3Q43YJ90X","A2MX0EF342FY3P","3H6W48L9F4B5OEOMH57RM53Z4H1WP0","","799.6999999880791","img/land3.png","76","800.9000000357628","3","1","false","1","1,0.5,0.5,0.5,1,0.5,0.5,0.5,1","",""
"","html-keyboard-response","229","207120","0.0-334.0","3QXNC7EIPJHTAL5OYBNBI3Q43YJ90X","A2MX0EF342FY3P","3H6W48L9F4B5OEOMH57RM53Z4H1WP0","","null","<img src=""img/land3.png"" style=""width:200px; border:14px solid green;"">","null","","","","","","","",""
"","image-keyboard-response","230","207799","0.0-336.0","3QXNC7EIPJHTAL5OYBNBI3Q43YJ90X","A2MX0EF342FY3P","3H6W48L9F4B5OEOMH57RM53Z4H1WP0","","677","img/land2.png","75","678.3000000119209","2","1","false","2","1,0.5,0.5,0.5,1,0.5,0.5,0.5,1","",""
"","html-keyboard-response","231","208102","0.0-337.0","3QXNC7EIPJHTAL5OYBNBI3Q43YJ90X","A2MX0EF342FY3P","3H6W48L9F4B5OEOMH57RM53Z4H1WP0","","null","<img src=""img/land2.png"" style=""width:200px; border:14px solid green;"">","null","","","","","","","",""
"","image-keyboard-response","232","209057","0.0-339.0","3QXNC7EIPJHTAL5OYBNBI3Q43YJ90X","A2MX0EF342FY3P","3H6W48L9F4B5OEOMH57RM53Z4H1WP0","","952.1999999880791","img/land3.png","76","954","3","0","false","1","1,0.5,0.5,0.5,1,0.5,0.5,0.5,1","",""
"","html-keyboard-response","233","209359","0.0-340.0","3QXNC7EIPJHTAL5OYBNBI3Q43YJ90X","A2MX0EF342FY3P","3H6W48L9F4B5OEOMH57RM53Z4H1WP0","","null","<img src=""img/land3.png"" style=""width:200px;border:14px solid red;"">","null","","","","","","","",""
"","image-keyboard-response","234","210025","0.0-342.0","3QXNC7EIPJHTAL5OYBNBI3Q43YJ90X","A2MX0EF342FY3P","3H6W48L9F4B5OEOMH57RM53Z4H1WP0","","663.8999999761581","img/land1.png","75","665","2","0","false","3","1,0.5,0.5,0.5,1,0.5,0.5,0.5,1","",""
"","html-keyboard-response","235","210327","0.0-343.0","3QXNC7EIPJHTAL5OYBNBI3Q43YJ90X","A2MX0EF342FY3P","3H6W48L9F4B5OEOMH57RM53Z4H1WP0","","null","<img src=""img/land1.png"" style=""width:200px;border:14px solid red;"">","null","","","","","","","",""
"","image-keyboard-response","236","210913","0.0-345.0","3QXNC7EIPJHTAL5OYBNBI3Q43YJ90X","A2MX0EF342FY3P","3H6W48L9F4B5OEOMH57RM53Z4H1WP0","","583.3000000119209","img/land3.png","76","584.8000000119209","3","1","false","1","1,0.5,0.5,0.5,1,0.5,0.5,0.5,1","",""
"","html-keyboard-response","237","211216","0.0-346.0","3QXNC7EIPJHTAL5OYBNBI3Q43YJ90X","A2MX0EF342FY3P","3H6W48L9F4B5OEOMH57RM53Z4H1WP0","","null","<img src=""img/land3.png"" style=""width:200px; border:14px solid green;"">","null","","","","","","","",""
"","image-keyboard-response","238","211673","0.0-348.0","3QXNC7EIPJHTAL5OYBNBI3Q43YJ90X","A2MX0EF342FY3P","3H6W48L9F4B5OEOMH57RM53Z4H1WP0","","454.30000001192093","img/land1.png","75","456","2","0","false","3","1,0.5,0.5,0.5,1,0.5,0.5,0.5,1","",""
"","html-keyboard-response","239","211975","0.0-349.0","3QXNC7EIPJHTAL5OYBNBI3Q43YJ90X","A2MX0EF342FY3P","3H6W48L9F4B5OEOMH57RM53Z4H1WP0","","null","<img src=""img/land1.png"" style=""width:200px;border:14px solid red;"">","null","","","","","","","",""
"","image-keyboard-response","240","212855","0.0-351.0","3QXNC7EIPJHTAL5OYBNBI3Q43YJ90X","A2MX0EF342FY3P","3H6W48L9F4B5OEOMH57RM53Z4H1WP0","","879.3999999761581","img/land2.png","76","880.1999999880791","3","1","false","2","1,0.5,0.5,0.5,1,0.5,0.5,0.5,1","",""
"","html-keyboard-response","241","213158","0.0-352.0","3QXNC7EIPJHTAL5OYBNBI3Q43YJ90X","A2MX0EF342FY3P","3H6W48L9F4B5OEOMH57RM53Z4H1WP0","","null","<img src=""img/land2.png"" style=""width:200px; border:14px solid green;"">","null","","","","","","","",""
"","image-keyboard-response","242","213729","0.0-354.0","3QXNC7EIPJHTAL5OYBNBI3Q43YJ90X","A2MX0EF342FY3P","3H6W48L9F4B5OEOMH57RM53Z4H1WP0","","569.6000000238419","img/land2.png","76","570.8000000119209","3","1","false","2","1,0.5,0.5,0.5,1,0.5,0.5,0.5,1","",""
"","html-keyboard-response","243","214031","0.0-355.0","3QXNC7EIPJHTAL5OYBNBI3Q43YJ90X","A2MX0EF342FY3P","3H6W48L9F4B5OEOMH57RM53Z4H1WP0","","null","<img src=""img/land2.png"" style=""width:200px; border:14px solid green;"">","null","","","","","","","",""
"","image-keyboard-response","244","214729","0.0-357.0","3QXNC7EIPJHTAL5OYBNBI3Q43YJ90X","A2MX0EF342FY3P","3H6W48L9F4B5OEOMH57RM53Z4H1WP0","","694.8999999761581","img/land1.png","75","696.5","2","1","false","3","1,0.5,0.5,0.5,1,0.5,0.5,0.5,1","",""
"","html-keyboard-response","245","215033","0.0-358.0","3QXNC7EIPJHTAL5OYBNBI3Q43YJ90X","A2MX0EF342FY3P","3H6W48L9F4B5OEOMH57RM53Z4H1WP0","","null","<img src=""img/land1.png"" style=""width:200px; border:14px solid green;"">","null","","","","","","","",""
"","image-keyboard-response","246","215615","0.0-360.0","3QXNC7EIPJHTAL5OYBNBI3Q43YJ90X","A2MX0EF342FY3P","3H6W48L9F4B5OEOMH57RM53Z4H1WP0","","580.9000000357628","img/land1.png","75","582.1999999880791","2","1","false","3","1,0.5,0.5,0.5,1,0.5,0.5,0.5,1","",""
"","html-keyboard-response","247","215918","0.0-361.0","3QXNC7EIPJHTAL5OYBNBI3Q43YJ90X","A2MX0EF342FY3P","3H6W48L9F4B5OEOMH57RM53Z4H1WP0","","null","<img src=""img/land1.png"" style=""width:200px; border:14px solid green;"">","null","","","","","","","",""
"","image-keyboard-response","248","216489","0.0-363.0","3QXNC7EIPJHTAL5OYBNBI3Q43YJ90X","A2MX0EF342FY3P","3H6W48L9F4B5OEOMH57RM53Z4H1WP0","","568.5","img/land2.png","76","570.3000000119209","3","0","false","2","1,0.5,0.5,0.5,1,0.5,0.5,0.5,1","",""
"","html-keyboard-response","249","216791","0.0-364.0","3QXNC7EIPJHTAL5OYBNBI3Q43YJ90X","A2MX0EF342FY3P","3H6W48L9F4B5OEOMH57RM53Z4H1WP0","","null","<img src=""img/land2.png"" style=""width:200px;border:14px solid red;"">","null","","","","","","","",""
"","image-keyboard-response","250","217721","0.0-366.0","3QXNC7EIPJHTAL5OYBNBI3Q43YJ90X","A2MX0EF342FY3P","3H6W48L9F4B5OEOMH57RM53Z4H1WP0","","927.6999999880791","img/land3.png","76","928.8999999761581","3","1","false","1","1,0.5,0.5,0.5,1,0.5,0.5,0.5,1","",""
"","html-keyboard-response","251","218024","0.0-367.0","3QXNC7EIPJHTAL5OYBNBI3Q43YJ90X","A2MX0EF342FY3P","3H6W48L9F4B5OEOMH57RM53Z4H1WP0","","null","<img src=""img/land3.png"" style=""width:200px; border:14px solid green;"">","null","","","","","","","",""
"","image-keyboard-response","252","218543","0.0-369.0","3QXNC7EIPJHTAL5OYBNBI3Q43YJ90X","A2MX0EF342FY3P","3H6W48L9F4B5OEOMH57RM53Z4H1WP0","","517.5999999642372","img/land2.png","75","518.8000000119209","2","1","false","2","1,0.5,0.5,0.5,1,0.5,0.5,0.5,1","",""
"","html-keyboard-response","253","218846","0.0-370.0","3QXNC7EIPJHTAL5OYBNBI3Q43YJ90X","A2MX0EF342FY3P","3H6W48L9F4B5OEOMH57RM53Z4H1WP0","","null","<img src=""img/land2.png"" style=""width:200px; border:14px solid green;"">","null","","","","","","","",""
"","image-keyboard-response","254","219321","0.0-372.0","3QXNC7EIPJHTAL5OYBNBI3Q43YJ90X","A2MX0EF342FY3P","3H6W48L9F4B5OEOMH57RM53Z4H1WP0","","472.89999997615814","img/land2.png","76","474.60000002384186","3","1","false","2","1,0.5,0.5,0.5,1,0.5,0.5,0.5,1","",""
"","html-keyboard-response","255","219625","0.0-373.0","3QXNC7EIPJHTAL5OYBNBI3Q43YJ90X","A2MX0EF342FY3P","3H6W48L9F4B5OEOMH57RM53Z4H1WP0","","null","<img src=""img/land2.png"" style=""width:200px; border:14px solid green;"">","null","","","","","","","",""
"","image-keyboard-response","256","220185","0.0-375.0","3QXNC7EIPJHTAL5OYBNBI3Q43YJ90X","A2MX0EF342FY3P","3H6W48L9F4B5OEOMH57RM53Z4H1WP0","","558.3000000119209","img/land1.png","75","559.5","2","1","false","3","1,0.5,0.5,0.5,1,0.5,0.5,0.5,1","",""
"","html-keyboard-response","257","220488","0.0-376.0","3QXNC7EIPJHTAL5OYBNBI3Q43YJ90X","A2MX0EF342FY3P","3H6W48L9F4B5OEOMH57RM53Z4H1WP0","","null","<img src=""img/land1.png"" style=""width:200px; border:14px solid green;"">","null","","","","","","","",""
"","image-keyboard-response","258","221031","0.0-378.0","3QXNC7EIPJHTAL5OYBNBI3Q43YJ90X","A2MX0EF342FY3P","3H6W48L9F4B5OEOMH57RM53Z4H1WP0","","541.5","img/land3.png","76","542.8000000119209","3","1","false","1","1,0.5,0.5,0.5,1,0.5,0.5,0.5,1","",""
"","html-keyboard-response","259","221333","0.0-379.0","3QXNC7EIPJHTAL5OYBNBI3Q43YJ90X","A2MX0EF342FY3P","3H6W48L9F4B5OEOMH57RM53Z4H1WP0","","null","<img src=""img/land3.png"" style=""width:200px; border:14px solid green;"">","null","","","","","","","",""
"","image-keyboard-response","260","221896","0.0-381.0","3QXNC7EIPJHTAL5OYBNBI3Q43YJ90X","A2MX0EF342FY3P","3H6W48L9F4B5OEOMH57RM53Z4H1WP0","","560.8000000119209","img/land2.png","75","562.3000000119209","2","1","false","2","1,0.5,0.5,0.5,1,0.5,0.5,0.5,1","",""
"","html-keyboard-response","261","222206","0.0-382.0","3QXNC7EIPJHTAL5OYBNBI3Q43YJ90X","A2MX0EF342FY3P","3H6W48L9F4B5OEOMH57RM53Z4H1WP0","","null","<img src=""img/land2.png"" style=""width:200px; border:14px solid green;"">","null","","","","","","","",""
"","image-keyboard-response","262","222841","0.0-384.0","3QXNC7EIPJHTAL5OYBNBI3Q43YJ90X","A2MX0EF342FY3P","3H6W48L9F4B5OEOMH57RM53Z4H1WP0","","633.2999999523163","img/land3.png","76","634.4000000357628","3","1","false","1","1,0.5,0.5,0.5,1,0.5,0.5,0.5,1","",""
"","html-keyboard-response","263","223143","0.0-385.0","3QXNC7EIPJHTAL5OYBNBI3Q43YJ90X","A2MX0EF342FY3P","3H6W48L9F4B5OEOMH57RM53Z4H1WP0","","null","<img src=""img/land3.png"" style=""width:200px; border:14px solid green;"">","null","","","","","","","",""
"","image-keyboard-response","264","223760","0.0-387.0","3QXNC7EIPJHTAL5OYBNBI3Q43YJ90X","A2MX0EF342FY3P","3H6W48L9F4B5OEOMH57RM53Z4H1WP0","","614.9000000357628","img/land2.png","75","616.3000000119209","2","1","false","2","1,0.5,0.5,0.5,1,0.5,0.5,0.5,1","",""
"","html-keyboard-response","265","224062","0.0-388.0","3QXNC7EIPJHTAL5OYBNBI3Q43YJ90X","A2MX0EF342FY3P","3H6W48L9F4B5OEOMH57RM53Z4H1WP0","","null","<img src=""img/land2.png"" style=""width:200px; border:14px solid green;"">","null","","","","","","","",""
"","image-keyboard-response","266","224615","0.0-390.0","3QXNC7EIPJHTAL5OYBNBI3Q43YJ90X","A2MX0EF342FY3P","3H6W48L9F4B5OEOMH57RM53Z4H1WP0","","550.8000000119209","img/land3.png","76","552.0999999642372","3","1","false","1","1,0.5,0.5,0.5,1,0.5,0.5,0.5,1","",""
"","html-keyboard-response","267","224917","0.0-391.0","3QXNC7EIPJHTAL5OYBNBI3Q43YJ90X","A2MX0EF342FY3P","3H6W48L9F4B5OEOMH57RM53Z4H1WP0","","null","<img src=""img/land3.png"" style=""width:200px; border:14px solid green;"">","null","","","","","","","",""
"","image-keyboard-response","268","225369","0.0-393.0","3QXNC7EIPJHTAL5OYBNBI3Q43YJ90X","A2MX0EF342FY3P","3H6W48L9F4B5OEOMH57RM53Z4H1WP0","","450.2000000476837","img/land3.png","75","451.5","2","0","false","1","1,0.5,0.5,0.5,1,0.5,0.5,0.5,1","",""
"","html-keyboard-response","269","225673","0.0-394.0","3QXNC7EIPJHTAL5OYBNBI3Q43YJ90X","A2MX0EF342FY3P","3H6W48L9F4B5OEOMH57RM53Z4H1WP0","","null","<img src=""img/land3.png"" style=""width:200px;border:14px solid red;"">","null","","","","","","","",""
"","image-keyboard-response","270","226264","0.0-396.0","3QXNC7EIPJHTAL5OYBNBI3Q43YJ90X","A2MX0EF342FY3P","3H6W48L9F4B5OEOMH57RM53Z4H1WP0","","588.8000000119209","img/land2.png","75","590.1999999880791","2","1","false","2","1,0.5,0.5,0.5,1,0.5,0.5,0.5,1","",""
"","html-keyboard-response","271","226565","0.0-397.0","3QXNC7EIPJHTAL5OYBNBI3Q43YJ90X","A2MX0EF342FY3P","3H6W48L9F4B5OEOMH57RM53Z4H1WP0","","null","<img src=""img/land2.png"" style=""width:200px; border:14px solid green;"">","null","","","","","","","",""
"","image-keyboard-response","272","226985","0.0-399.0","3QXNC7EIPJHTAL5OYBNBI3Q43YJ90X","A2MX0EF342FY3P","3H6W48L9F4B5OEOMH57RM53Z4H1WP0","","417.0999999642372","img/land3.png","76","418.7000000476837","3","1","false","1","1,0.5,0.5,0.5,1,0.5,0.5,0.5,1","",""
"","html-keyboard-response","273","227288","0.0-400.0","3QXNC7EIPJHTAL5OYBNBI3Q43YJ90X","A2MX0EF342FY3P","3H6W48L9F4B5OEOMH57RM53Z4H1WP0","","null","<img src=""img/land3.png"" style=""width:200px; border:14px solid green;"">","null","","","","","","","",""
"","image-keyboard-response","274","227833","0.0-402.0","3QXNC7EIPJHTAL5OYBNBI3Q43YJ90X","A2MX0EF342FY3P","3H6W48L9F4B5OEOMH57RM53Z4H1WP0","","542.3999999761581","img/land2.png","75","544.2000000476837","2","1","false","2","1,0.5,0.5,0.5,1,0.5,0.5,0.5,1","",""
"","html-keyboard-response","275","228135","0.0-403.0","3QXNC7EIPJHTAL5OYBNBI3Q43YJ90X","A2MX0EF342FY3P","3H6W48L9F4B5OEOMH57RM53Z4H1WP0","","null","<img src=""img/land2.png"" style=""width:200px; border:14px solid green;"">","null","","","","","","","",""
"","image-keyboard-response","276","228864","0.0-405.0","3QXNC7EIPJHTAL5OYBNBI3Q43YJ90X","A2MX0EF342FY3P","3H6W48L9F4B5OEOMH57RM53Z4H1WP0","","726.3000000119209","img/land1.png","75","727.5999999642372","2","0","false","3","1,0.5,0.5,0.5,1,0.5,0.5,0.5,1","",""
"","html-keyboard-response","277","229166","0.0-406.0","3QXNC7EIPJHTAL5OYBNBI3Q43YJ90X","A2MX0EF342FY3P","3H6W48L9F4B5OEOMH57RM53Z4H1WP0","","null","<img src=""img/land1.png"" style=""width:200px;border:14px solid red;"">","null","","","","","","","",""
"","image-keyboard-response","278","230000","0.0-408.0","3QXNC7EIPJHTAL5OYBNBI3Q43YJ90X","A2MX0EF342FY3P","3H6W48L9F4B5OEOMH57RM53Z4H1WP0","","832.3999999761581","img/land2.png","75","833.9000000357628","2","1","false","2","1,0.5,0.5,0.5,1,0.5,0.5,0.5,1","",""
"","html-keyboard-response","279","230303","0.0-409.0","3QXNC7EIPJHTAL5OYBNBI3Q43YJ90X","A2MX0EF342FY3P","3H6W48L9F4B5OEOMH57RM53Z4H1WP0","","null","<img src=""img/land2.png"" style=""width:200px; border:14px solid green;"">","null","","","","","","","",""
"","image-keyboard-response","280","230841","0.0-411.0","3QXNC7EIPJHTAL5OYBNBI3Q43YJ90X","A2MX0EF342FY3P","3H6W48L9F4B5OEOMH57RM53Z4H1WP0","","536.1000000238419","img/land3.png","76","537.2000000476837","3","1","false","1","1,0.5,0.5,0.5,1,0.5,0.5,0.5,1","",""
"","html-keyboard-response","281","231143","0.0-412.0","3QXNC7EIPJHTAL5OYBNBI3Q43YJ90X","A2MX0EF342FY3P","3H6W48L9F4B5OEOMH57RM53Z4H1WP0","","null","<img src=""img/land3.png"" style=""width:200px; border:14px solid green;"">","null","","","","","","","",""
"","image-keyboard-response","282","231713","0.0-414.0","3QXNC7EIPJHTAL5OYBNBI3Q43YJ90X","A2MX0EF342FY3P","3H6W48L9F4B5OEOMH57RM53Z4H1WP0","","567.7999999523163","img/land1.png","75","569","2","1","false","3","1,0.5,0.5,0.5,1,0.5,0.5,0.5,1","",""
"","html-keyboard-response","283","232016","0.0-415.0","3QXNC7EIPJHTAL5OYBNBI3Q43YJ90X","A2MX0EF342FY3P","3H6W48L9F4B5OEOMH57RM53Z4H1WP0","","null","<img src=""img/land1.png"" style=""width:200px; border:14px solid green;"">","null","","","","","","","",""
"","image-keyboard-response","284","232529","0.0-417.0","3QXNC7EIPJHTAL5OYBNBI3Q43YJ90X","A2MX0EF342FY3P","3H6W48L9F4B5OEOMH57RM53Z4H1WP0","","510.89999997615814","img/land1.png","75","512.5","2","1","false","3","1,0.5,0.5,0.5,1,0.5,0.5,0.5,1","",""
"","html-keyboard-response","285","232832","0.0-418.0","3QXNC7EIPJHTAL5OYBNBI3Q43YJ90X","A2MX0EF342FY3P","3H6W48L9F4B5OEOMH57RM53Z4H1WP0","","null","<img src=""img/land1.png"" style=""width:200px; border:14px solid green;"">","null","","","","","","","",""
"","image-keyboard-response","286","233305","0.0-420.0","3QXNC7EIPJHTAL5OYBNBI3Q43YJ90X","A2MX0EF342FY3P","3H6W48L9F4B5OEOMH57RM53Z4H1WP0","","471.10000002384186","img/land3.png","76","472.5","3","0","false","1","1,0.5,0.5,0.5,1,0.5,0.5,0.5,1","",""
"","html-keyboard-response","287","233609","0.0-421.0","3QXNC7EIPJHTAL5OYBNBI3Q43YJ90X","A2MX0EF342FY3P","3H6W48L9F4B5OEOMH57RM53Z4H1WP0","","null","<img src=""img/land3.png"" style=""width:200px;border:14px solid red;"">","null","","","","","","","",""
"","image-keyboard-response","288","234169","0.0-423.0","3QXNC7EIPJHTAL5OYBNBI3Q43YJ90X","A2MX0EF342FY3P","3H6W48L9F4B5OEOMH57RM53Z4H1WP0","","558.5","img/land3.png","76","559.9000000357628","3","1","false","1","1,0.5,0.5,0.5,1,0.5,0.5,0.5,1","",""
"","html-keyboard-response","289","234471","0.0-424.0","3QXNC7EIPJHTAL5OYBNBI3Q43YJ90X","A2MX0EF342FY3P","3H6W48L9F4B5OEOMH57RM53Z4H1WP0","","null","<img src=""img/land3.png"" style=""width:200px; border:14px solid green;"">","null","","","","","","","",""
"","image-keyboard-response","290","235033","0.0-426.0","3QXNC7EIPJHTAL5OYBNBI3Q43YJ90X","A2MX0EF342FY3P","3H6W48L9F4B5OEOMH57RM53Z4H1WP0","","558.8000000119209","img/land1.png","75","560.6000000238419","2","0","false","3","1,0.5,0.5,0.5,1,0.5,0.5,0.5,1","",""
"","html-keyboard-response","291","235336","0.0-427.0","3QXNC7EIPJHTAL5OYBNBI3Q43YJ90X","A2MX0EF342FY3P","3H6W48L9F4B5OEOMH57RM53Z4H1WP0","","null","<img src=""img/land1.png"" style=""width:200px;border:14px solid red;"">","null","","","","","","","",""
"","image-keyboard-response","292","235935","0.0-429.0","3QXNC7EIPJHTAL5OYBNBI3Q43YJ90X","A2MX0EF342FY3P","3H6W48L9F4B5OEOMH57RM53Z4H1WP0","","598.2999999523163","img/land3.png","76","599","3","1","false","1","1,0.5,0.5,0.5,1,0.5,0.5,0.5,1","",""
"","html-keyboard-response","293","236240","0.0-430.0","3QXNC7EIPJHTAL5OYBNBI3Q43YJ90X","A2MX0EF342FY3P","3H6W48L9F4B5OEOMH57RM53Z4H1WP0","","null","<img src=""img/land3.png"" style=""width:200px; border:14px solid green;"">","null","","","","","","","",""
"","image-keyboard-response","294","236777","0.0-432.0","3QXNC7EIPJHTAL5OYBNBI3Q43YJ90X","A2MX0EF342FY3P","3H6W48L9F4B5OEOMH57RM53Z4H1WP0","","534.1999999880791","img/land3.png","76","535.8999999761581","3","1","false","1","1,0.5,0.5,0.5,1,0.5,0.5,0.5,1","",""
"","html-keyboard-response","295","237080","0.0-433.0","3QXNC7EIPJHTAL5OYBNBI3Q43YJ90X","A2MX0EF342FY3P","3H6W48L9F4B5OEOMH57RM53Z4H1WP0","","null","<img src=""img/land3.png"" style=""width:200px; border:14px solid green;"">","null","","","","","","","",""
"","image-keyboard-response","296","237593","0.0-435.0","3QXNC7EIPJHTAL5OYBNBI3Q43YJ90X","A2MX0EF342FY3P","3H6W48L9F4B5OEOMH57RM53Z4H1WP0","","510.5","img/land3.png","76","512.1000000238419","3","1","false","1","1,0.5,0.5,0.5,1,0.5,0.5,0.5,1","",""
"","html-keyboard-response","297","237895","0.0-436.0","3QXNC7EIPJHTAL5OYBNBI3Q43YJ90X","A2MX0EF342FY3P","3H6W48L9F4B5OEOMH57RM53Z4H1WP0","","null","<img src=""img/land3.png"" style=""width:200px; border:14px solid green;"">","null","","","","","","","",""
"","image-keyboard-response","298","238336","0.0-438.0","3QXNC7EIPJHTAL5OYBNBI3Q43YJ90X","A2MX0EF342FY3P","3H6W48L9F4B5OEOMH57RM53Z4H1WP0","","439.10000002384186","img/land1.png","75","440","2","0","false","3","1,0.5,0.5,0.5,1,0.5,0.5,0.5,1","",""
"","html-keyboard-response","299","238637","0.0-439.0","3QXNC7EIPJHTAL5OYBNBI3Q43YJ90X","A2MX0EF342FY3P","3H6W48L9F4B5OEOMH57RM53Z4H1WP0","","null","<img src=""img/land1.png"" style=""width:200px;border:14px solid red;"">","null","","","","","","","",""
"","image-keyboard-response","300","239025","0.0-441.0","3QXNC7EIPJHTAL5OYBNBI3Q43YJ90X","A2MX0EF342FY3P","3H6W48L9F4B5OEOMH57RM53Z4H1WP0","","385.10000002384186","img/land1.png","76","386.69999998807907","3","1","false","3","1,0.5,0.5,0.5,1,0.5,0.5,0.5,1","",""
"","html-keyboard-response","301","239328","0.0-442.0","3QXNC7EIPJHTAL5OYBNBI3Q43YJ90X","A2MX0EF342FY3P","3H6W48L9F4B5OEOMH57RM53Z4H1WP0","","null","<img src=""img/land1.png"" style=""width:200px; border:14px solid green;"">","null","","","","","","","",""
"","image-keyboard-response","302","239833","0.0-444.0","3QXNC7EIPJHTAL5OYBNBI3Q43YJ90X","A2MX0EF342FY3P","3H6W48L9F4B5OEOMH57RM53Z4H1WP0","","503.0999999642372","img/land1.png","75","504.19999998807907","2","0","false","3","1,0.5,0.5,0.5,1,0.5,0.5,0.5,1","",""
"","html-keyboard-response","303","240136","0.0-445.0","3QXNC7EIPJHTAL5OYBNBI3Q43YJ90X","A2MX0EF342FY3P","3H6W48L9F4B5OEOMH57RM53Z4H1WP0","","null","<img src=""img/land1.png"" style=""width:200px;border:14px solid red;"">","null","","","","","","","",""
"","image-keyboard-response","304","240568","0.0-447.0","3QXNC7EIPJHTAL5OYBNBI3Q43YJ90X","A2MX0EF342FY3P","3H6W48L9F4B5OEOMH57RM53Z4H1WP0","","429.89999997615814","img/land2.png","76","431.19999998807907","3","1","false","2","1,0.5,0.5,0.5,1,0.5,0.5,0.5,1","",""
"","html-keyboard-response","305","240869","0.0-448.0","3QXNC7EIPJHTAL5OYBNBI3Q43YJ90X","A2MX0EF342FY3P","3H6W48L9F4B5OEOMH57RM53Z4H1WP0","","null","<img src=""img/land2.png"" style=""width:200px; border:14px solid green;"">","null","","","","","","","",""
"","image-keyboard-response","306","241497","0.0-450.0","3QXNC7EIPJHTAL5OYBNBI3Q43YJ90X","A2MX0EF342FY3P","3H6W48L9F4B5OEOMH57RM53Z4H1WP0","","625.3000000119209","img/land3.png","75","627","2","0","false","1","1,0.5,0.5,0.5,1,0.5,0.5,0.5,1","",""
"","html-keyboard-response","307","241800","0.0-451.0","3QXNC7EIPJHTAL5OYBNBI3Q43YJ90X","A2MX0EF342FY3P","3H6W48L9F4B5OEOMH57RM53Z4H1WP0","","null","<img src=""img/land3.png"" style=""width:200px;border:14px solid red;"">","null","","","","","","","",""
"","image-keyboard-response","308","242393","0.0-453.0","3QXNC7EIPJHTAL5OYBNBI3Q43YJ90X","A2MX0EF342FY3P","3H6W48L9F4B5OEOMH57RM53Z4H1WP0","","591.5","img/land1.png","75","592.5","2","1","false","3","1,0.5,0.5,0.5,1,0.5,0.5,0.5,1","",""
"","html-keyboard-response","309","242695","0.0-454.0","3QXNC7EIPJHTAL5OYBNBI3Q43YJ90X","A2MX0EF342FY3P","3H6W48L9F4B5OEOMH57RM53Z4H1WP0","","null","<img src=""img/land1.png"" style=""width:200px; border:14px solid green;"">","null","","","","","","","",""
"","image-keyboard-response","310","243105","0.0-456.0","3QXNC7EIPJHTAL5OYBNBI3Q43YJ90X","A2MX0EF342FY3P","3H6W48L9F4B5OEOMH57RM53Z4H1WP0","","406.80000001192093","img/land3.png","76","408.5","3","1","false","1","1,0.5,0.5,0.5,1,0.5,0.5,0.5,1","",""
"","html-keyboard-response","311","243407","0.0-457.0","3QXNC7EIPJHTAL5OYBNBI3Q43YJ90X","A2MX0EF342FY3P","3H6W48L9F4B5OEOMH57RM53Z4H1WP0","","null","<img src=""img/land3.png"" style=""width:200px; border:14px solid green;"">","null","","","","","","","",""
"","image-keyboard-response","312","243809","0.0-459.0","3QXNC7EIPJHTAL5OYBNBI3Q43YJ90X","A2MX0EF342FY3P","3H6W48L9F4B5OEOMH57RM53Z4H1WP0","","400.30000001192093","img/land2.png","75","401.2000000476837","2","1","false","2","1,0.5,0.5,0.5,1,0.5,0.5,0.5,1","",""
"","html-keyboard-response","313","244112","0.0-460.0","3QXNC7EIPJHTAL5OYBNBI3Q43YJ90X","A2MX0EF342FY3P","3H6W48L9F4B5OEOMH57RM53Z4H1WP0","","null","<img src=""img/land2.png"" style=""width:200px; border:14px solid green;"">","null","","","","","","","",""
"","image-keyboard-response","314","244648","0.0-462.0","3QXNC7EIPJHTAL5OYBNBI3Q43YJ90X","A2MX0EF342FY3P","3H6W48L9F4B5OEOMH57RM53Z4H1WP0","","534.1999999880791","img/land2.png","75","535.5","2","1","false","2","1,0.5,0.5,0.5,1,0.5,0.5,0.5,1","",""
"","html-keyboard-response","315","244951","0.0-463.0","3QXNC7EIPJHTAL5OYBNBI3Q43YJ90X","A2MX0EF342FY3P","3H6W48L9F4B5OEOMH57RM53Z4H1WP0","","null","<img src=""img/land2.png"" style=""width:200px; border:14px solid green;"">","null","","","","","","","",""
"","image-keyboard-response","316","245489","0.0-465.0","3QXNC7EIPJHTAL5OYBNBI3Q43YJ90X","A2MX0EF342FY3P","3H6W48L9F4B5OEOMH57RM53Z4H1WP0","","535.5","img/land1.png","76","537.3000000119209","3","1","false","3","1,0.5,0.5,0.5,1,0.5,0.5,0.5,1","",""
"","html-keyboard-response","317","245792","0.0-466.0","3QXNC7EIPJHTAL5OYBNBI3Q43YJ90X","A2MX0EF342FY3P","3H6W48L9F4B5OEOMH57RM53Z4H1WP0","","null","<img src=""img/land1.png"" style=""width:200px; border:14px solid green;"">","null","","","","","","","",""
"","image-keyboard-response","318","246377","0.0-468.0","3QXNC7EIPJHTAL5OYBNBI3Q43YJ90X","A2MX0EF342FY3P","3H6W48L9F4B5OEOMH57RM53Z4H1WP0","","582.8000000119209","img/land1.png","76","584.6000000238419","3","1","false","3","1,0.5,0.5,0.5,1,0.5,0.5,0.5,1","",""
"","html-keyboard-response","319","246679","0.0-469.0","3QXNC7EIPJHTAL5OYBNBI3Q43YJ90X","A2MX0EF342FY3P","3H6W48L9F4B5OEOMH57RM53Z4H1WP0","","null","<img src=""img/land1.png"" style=""width:200px; border:14px solid green;"">","null","","","","","","","",""
"","image-keyboard-response","320","247263","0.0-471.0","3QXNC7EIPJHTAL5OYBNBI3Q43YJ90X","A2MX0EF342FY3P","3H6W48L9F4B5OEOMH57RM53Z4H1WP0","","582","img/land2.png","75","583.5","2","1","false","2","1,0.5,0.5,0.5,1,0.5,0.5,0.5,1","",""
"","html-keyboard-response","321","247565","0.0-472.0","3QXNC7EIPJHTAL5OYBNBI3Q43YJ90X","A2MX0EF342FY3P","3H6W48L9F4B5OEOMH57RM53Z4H1WP0","","null","<img src=""img/land2.png"" style=""width:200px; border:14px solid green;"">","null","","","","","","","",""
"","image-keyboard-response","322","248105","0.0-474.0","3QXNC7EIPJHTAL5OYBNBI3Q43YJ90X","A2MX0EF342FY3P","3H6W48L9F4B5OEOMH57RM53Z4H1WP0","","538.3000000119209","img/land3.png","76","539.3999999761581","3","1","false","1","1,0.5,0.5,0.5,1,0.5,0.5,0.5,1","",""
"","html-keyboard-response","323","248408","0.0-475.0","3QXNC7EIPJHTAL5OYBNBI3Q43YJ90X","A2MX0EF342FY3P","3H6W48L9F4B5OEOMH57RM53Z4H1WP0","","null","<img src=""img/land3.png"" style=""width:200px; border:14px solid green;"">","null","","","","","","","",""
"","image-keyboard-response","324","248720","0.0-477.0","3QXNC7EIPJHTAL5OYBNBI3Q43YJ90X","A2MX0EF342FY3P","3H6W48L9F4B5OEOMH57RM53Z4H1WP0","","309.69999998807907","img/land3.png","75","311.10000002384186","2","0","false","1","1,0.5,0.5,0.5,1,0.5,0.5,0.5,1","",""
"","html-keyboard-response","325","249022","0.0-478.0","3QXNC7EIPJHTAL5OYBNBI3Q43YJ90X","A2MX0EF342FY3P","3H6W48L9F4B5OEOMH57RM53Z4H1WP0","","null","<img src=""img/land3.png"" style=""width:200px;border:14px solid red;"">","null","","","","","","","",""
"","image-keyboard-response","326","249633","0.0-480.0","3QXNC7EIPJHTAL5OYBNBI3Q43YJ90X","A2MX0EF342FY3P","3H6W48L9F4B5OEOMH57RM53Z4H1WP0","","608.4000000357628","img/land3.png","75","610.3000000119209","2","0","false","1","1,0.5,0.5,0.5,1,0.5,0.5,0.5,1","",""
"","html-keyboard-response","327","249935","0.0-481.0","3QXNC7EIPJHTAL5OYBNBI3Q43YJ90X","A2MX0EF342FY3P","3H6W48L9F4B5OEOMH57RM53Z4H1WP0","","null","<img src=""img/land3.png"" style=""width:200px;border:14px solid red;"">","null","","","","","","","",""
"","image-keyboard-response","328","250136","0.0-483.0","3QXNC7EIPJHTAL5OYBNBI3Q43YJ90X","A2MX0EF342FY3P","3H6W48L9F4B5OEOMH57RM53Z4H1WP0","","199.60000002384186","img/land1.png","76","200.19999998807907","3","1","false","3","1,0.5,0.5,0.5,1,0.5,0.5,0.5,1","",""
"","html-keyboard-response","329","250438","0.0-484.0","3QXNC7EIPJHTAL5OYBNBI3Q43YJ90X","A2MX0EF342FY3P","3H6W48L9F4B5OEOMH57RM53Z4H1WP0","","null","<img src=""img/land1.png"" style=""width:200px; border:14px solid green;"">","null","","","","","","","",""
"","image-keyboard-response","330","251065","0.0-486.0","3QXNC7EIPJHTAL5OYBNBI3Q43YJ90X","A2MX0EF342FY3P","3H6W48L9F4B5OEOMH57RM53Z4H1WP0","","625.5","img/land2.png","75","627.1999999880791","2","1","false","2","1,0.5,0.5,0.5,1,0.5,0.5,0.5,1","",""
"","html-keyboard-response","331","251368","0.0-487.0","3QXNC7EIPJHTAL5OYBNBI3Q43YJ90X","A2MX0EF342FY3P","3H6W48L9F4B5OEOMH57RM53Z4H1WP0","","null","<img src=""img/land2.png"" style=""width:200px; border:14px solid green;"">","null","","","","","","","",""
"","image-keyboard-response","332","251833","0.0-489.0","3QXNC7EIPJHTAL5OYBNBI3Q43YJ90X","A2MX0EF342FY3P","3H6W48L9F4B5OEOMH57RM53Z4H1WP0","","463","img/land3.png","76","464.30000001192093","3","1","false","1","1,0.5,0.5,0.5,1,0.5,0.5,0.5,1","",""
"","html-keyboard-response","333","252136","0.0-490.0","3QXNC7EIPJHTAL5OYBNBI3Q43YJ90X","A2MX0EF342FY3P","3H6W48L9F4B5OEOMH57RM53Z4H1WP0","","null","<img src=""img/land3.png"" style=""width:200px; border:14px solid green;"">","null","","","","","","","",""
"","image-keyboard-response","334","252712","0.0-492.0","3QXNC7EIPJHTAL5OYBNBI3Q43YJ90X","A2MX0EF342FY3P","3H6W48L9F4B5OEOMH57RM53Z4H1WP0","","574.6999999880791","img/land2.png","75","575.5999999642372","2","1","false","2","1,0.5,0.5,0.5,1,0.5,0.5,0.5,1","",""
"","html-keyboard-response","335","253013","0.0-493.0","3QXNC7EIPJHTAL5OYBNBI3Q43YJ90X","A2MX0EF342FY3P","3H6W48L9F4B5OEOMH57RM53Z4H1WP0","","null","<img src=""img/land2.png"" style=""width:200px; border:14px solid green;"">","null","","","","","","","",""
"","image-keyboard-response","336","253561","0.0-495.0","3QXNC7EIPJHTAL5OYBNBI3Q43YJ90X","A2MX0EF342FY3P","3H6W48L9F4B5OEOMH57RM53Z4H1WP0","","545.2999999523163","img/land2.png","76","546.6999999880791","3","1","false","2","1,0.5,0.5,0.5,1,0.5,0.5,0.5,1","",""
"","html-keyboard-response","337","253864","0.0-496.0","3QXNC7EIPJHTAL5OYBNBI3Q43YJ90X","A2MX0EF342FY3P","3H6W48L9F4B5OEOMH57RM53Z4H1WP0","","null","<img src=""img/land2.png"" style=""width:200px; border:14px solid green;"">","null","","","","","","","",""
"","image-keyboard-response","338","254560","0.0-498.0","3QXNC7EIPJHTAL5OYBNBI3Q43YJ90X","A2MX0EF342FY3P","3H6W48L9F4B5OEOMH57RM53Z4H1WP0","","693.6999999880791","img/land3.png","76","695","3","0","false","1","1,0.5,0.5,0.5,1,0.5,0.5,0.5,1","",""
"","html-keyboard-response","339","254862","0.0-499.0","3QXNC7EIPJHTAL5OYBNBI3Q43YJ90X","A2MX0EF342FY3P","3H6W48L9F4B5OEOMH57RM53Z4H1WP0","","null","<img src=""img/land3.png"" style=""width:200px;border:14px solid red;"">","null","","","","","","","",""
"","image-keyboard-response","340","255344","0.0-501.0","3QXNC7EIPJHTAL5OYBNBI3Q43YJ90X","A2MX0EF342FY3P","3H6W48L9F4B5OEOMH57RM53Z4H1WP0","","479.19999998807907","img/land2.png","75","480.30000001192093","2","1","false","2","1,0.5,0.5,0.5,1,0.5,0.5,0.5,1","",""
"","html-keyboard-response","341","255646","0.0-502.0","3QXNC7EIPJHTAL5OYBNBI3Q43YJ90X","A2MX0EF342FY3P","3H6W48L9F4B5OEOMH57RM53Z4H1WP0","","null","<img src=""img/land2.png"" style=""width:200px; border:14px solid green;"">","null","","","","","","","",""
"","image-keyboard-response","342","256249","0.0-504.0","3QXNC7EIPJHTAL5OYBNBI3Q43YJ90X","A2MX0EF342FY3P","3H6W48L9F4B5OEOMH57RM53Z4H1WP0","","600.6999999880791","img/land2.png","76","602.5","3","1","false","2","1,0.5,0.5,0.5,1,0.5,0.5,0.5,1","",""
"","html-keyboard-response","343","256553","0.0-505.0","3QXNC7EIPJHTAL5OYBNBI3Q43YJ90X","A2MX0EF342FY3P","3H6W48L9F4B5OEOMH57RM53Z4H1WP0","","null","<img src=""img/land2.png"" style=""width:200px; border:14px solid green;"">","null","","","","","","","",""
"","image-keyboard-response","344","257249","0.0-507.0","3QXNC7EIPJHTAL5OYBNBI3Q43YJ90X","A2MX0EF342FY3P","3H6W48L9F4B5OEOMH57RM53Z4H1WP0","","694.2999999523163","img/land3.png","76","695.6000000238419","3","0","false","1","1,0.5,0.5,0.5,1,0.5,0.5,0.5,1","",""
"","html-keyboard-response","345","257553","0.0-508.0","3QXNC7EIPJHTAL5OYBNBI3Q43YJ90X","A2MX0EF342FY3P","3H6W48L9F4B5OEOMH57RM53Z4H1WP0","","null","<img src=""img/land3.png"" style=""width:200px;border:14px solid red;"">","null","","","","","","","",""
"","image-keyboard-response","346","257983","0.0-510.0","3QXNC7EIPJHTAL5OYBNBI3Q43YJ90X","A2MX0EF342FY3P","3H6W48L9F4B5OEOMH57RM53Z4H1WP0","","428.2999999523163","img/land3.png","76","429.5999999642372","3","0","false","1","1,0.5,0.5,0.5,1,0.5,0.5,0.5,1","",""
"","html-keyboard-response","347","258286","0.0-511.0","3QXNC7EIPJHTAL5OYBNBI3Q43YJ90X","A2MX0EF342FY3P","3H6W48L9F4B5OEOMH57RM53Z4H1WP0","","null","<img src=""img/land3.png"" style=""width:200px;border:14px solid red;"">","null","","","","","","","",""
"","image-keyboard-response","348","259289","0.0-513.0","3QXNC7EIPJHTAL5OYBNBI3Q43YJ90X","A2MX0EF342FY3P","3H6W48L9F4B5OEOMH57RM53Z4H1WP0","","","img/land1.png","","1002.5999999642372","-1","0","true","3","1,0.5,0.5,0.5,1,0.5,0.5,0.5,1","",""
"","html-keyboard-response","349","259591","0.0-514.0","3QXNC7EIPJHTAL5OYBNBI3Q43YJ90X","A2MX0EF342FY3P","3H6W48L9F4B5OEOMH57RM53Z4H1WP0","","null","<img src=""img/land1.png"" style=""width:200px;border:14px solid red;"">","null","","","","","","","",""
"","html-keyboard-response","350","263547","0.0-515.0-0.0","3QXNC7EIPJHTAL5OYBNBI3Q43YJ90X","A2MX0EF342FY3P","3H6W48L9F4B5OEOMH57RM53Z4H1WP0","","","","","","","","","","","",""
"","image-keyboard-response","351","264153","0.0-516.0","3QXNC7EIPJHTAL5OYBNBI3Q43YJ90X","A2MX0EF342FY3P","3H6W48L9F4B5OEOMH57RM53Z4H1WP0","","604.1999999880791","img/land2.png","75","605.4000000357628","2","1","false","2","1,0.5,0.5,0.5,1,0.5,0.5,0.5,1","",""
"","html-keyboard-response","352","264456","0.0-517.0","3QXNC7EIPJHTAL5OYBNBI3Q43YJ90X","A2MX0EF342FY3P","3H6W48L9F4B5OEOMH57RM53Z4H1WP0","","null","<img src=""img/land2.png"" style=""width:200px; border:14px solid green;"">","null","","","","","","","",""
"","image-keyboard-response","353","265097","0.0-519.0","3QXNC7EIPJHTAL5OYBNBI3Q43YJ90X","A2MX0EF342FY3P","3H6W48L9F4B5OEOMH57RM53Z4H1WP0","","639.3000000119209","img/land2.png","75","640.5999999642372","2","1","false","2","1,0.5,0.5,0.5,1,0.5,0.5,0.5,1","",""
"","html-keyboard-response","354","265400","0.0-520.0","3QXNC7EIPJHTAL5OYBNBI3Q43YJ90X","A2MX0EF342FY3P","3H6W48L9F4B5OEOMH57RM53Z4H1WP0","","null","<img src=""img/land2.png"" style=""width:200px; border:14px solid green;"">","null","","","","","","","",""
"","image-keyboard-response","355","265879","0.0-522.0","3QXNC7EIPJHTAL5OYBNBI3Q43YJ90X","A2MX0EF342FY3P","3H6W48L9F4B5OEOMH57RM53Z4H1WP0","","477.19999998807907","img/land2.png","75","478.5999999642372","2","1","false","2","1,0.5,0.5,0.5,1,0.5,0.5,0.5,1","",""
"","html-keyboard-response","356","266182","0.0-523.0","3QXNC7EIPJHTAL5OYBNBI3Q43YJ90X","A2MX0EF342FY3P","3H6W48L9F4B5OEOMH57RM53Z4H1WP0","","null","<img src=""img/land2.png"" style=""width:200px; border:14px solid green;"">","null","","","","","","","",""
"","image-keyboard-response","357","266721","0.0-525.0","3QXNC7EIPJHTAL5OYBNBI3Q43YJ90X","A2MX0EF342FY3P","3H6W48L9F4B5OEOMH57RM53Z4H1WP0","","536.6999999880791","img/land1.png","76","538.3999999761581","3","1","false","3","1,0.5,0.5,0.5,1,0.5,0.5,0.5,1","",""
"","html-keyboard-response","358","267024","0.0-526.0","3QXNC7EIPJHTAL5OYBNBI3Q43YJ90X","A2MX0EF342FY3P","3H6W48L9F4B5OEOMH57RM53Z4H1WP0","","null","<img src=""img/land1.png"" style=""width:200px; border:14px solid green;"">","null","","","","","","","",""
"","image-keyboard-response","359","267537","0.0-528.0","3QXNC7EIPJHTAL5OYBNBI3Q43YJ90X","A2MX0EF342FY3P","3H6W48L9F4B5OEOMH57RM53Z4H1WP0","","510.69999998807907","img/land1.png","76","512","3","1","false","3","1,0.5,0.5,0.5,1,0.5,0.5,0.5,1","",""
"","html-keyboard-response","360","267841","0.0-529.0","3QXNC7EIPJHTAL5OYBNBI3Q43YJ90X","A2MX0EF342FY3P","3H6W48L9F4B5OEOMH57RM53Z4H1WP0","","null","<img src=""img/land1.png"" style=""width:200px; border:14px solid green;"">","null","","","","","","","",""
"","image-keyboard-response","361","268367","0.0-531.0","3QXNC7EIPJHTAL5OYBNBI3Q43YJ90X","A2MX0EF342FY3P","3H6W48L9F4B5OEOMH57RM53Z4H1WP0","","524","img/land2.png","75","525.1000000238419","2","1","false","2","1,0.5,0.5,0.5,1,0.5,0.5,0.5,1","",""
"","html-keyboard-response","362","268669","0.0-532.0","3QXNC7EIPJHTAL5OYBNBI3Q43YJ90X","A2MX0EF342FY3P","3H6W48L9F4B5OEOMH57RM53Z4H1WP0","","null","<img src=""img/land2.png"" style=""width:200px; border:14px solid green;"">","null","","","","","","","",""
"","image-keyboard-response","363","269097","0.0-534.0","3QXNC7EIPJHTAL5OYBNBI3Q43YJ90X","A2MX0EF342FY3P","3H6W48L9F4B5OEOMH57RM53Z4H1WP0","","425.69999998807907","img/land2.png","75","427.30000001192093","2","1","false","2","1,0.5,0.5,0.5,1,0.5,0.5,0.5,1","",""
"","html-keyboard-response","364","269400","0.0-535.0","3QXNC7EIPJHTAL5OYBNBI3Q43YJ90X","A2MX0EF342FY3P","3H6W48L9F4B5OEOMH57RM53Z4H1WP0","","null","<img src=""img/land2.png"" style=""width:200px; border:14px solid green;"">","null","","","","","","","",""
"","image-keyboard-response","365","269921","0.0-537.0","3QXNC7EIPJHTAL5OYBNBI3Q43YJ90X","A2MX0EF342FY3P","3H6W48L9F4B5OEOMH57RM53Z4H1WP0","","517.1999999880791","img/land1.png","76","519.1999999880791","3","1","false","3","1,0.5,0.5,0.5,1,0.5,0.5,0.5,1","",""
"","html-keyboard-response","366","270237","0.0-538.0","3QXNC7EIPJHTAL5OYBNBI3Q43YJ90X","A2MX0EF342FY3P","3H6W48L9F4B5OEOMH57RM53Z4H1WP0","","null","<img src=""img/land1.png"" style=""width:200px; border:14px solid green;"">","null","","","","","","","",""
"","image-keyboard-response","367","270697","0.0-540.0","3QXNC7EIPJHTAL5OYBNBI3Q43YJ90X","A2MX0EF342FY3P","3H6W48L9F4B5OEOMH57RM53Z4H1WP0","","457.2999999523163","img/land1.png","76","459.0999999642372","3","1","false","3","1,0.5,0.5,0.5,1,0.5,0.5,0.5,1","",""
"","html-keyboard-response","368","271013","0.0-541.0","3QXNC7EIPJHTAL5OYBNBI3Q43YJ90X","A2MX0EF342FY3P","3H6W48L9F4B5OEOMH57RM53Z4H1WP0","","null","<img src=""img/land1.png"" style=""width:200px; border:14px solid green;"">","null","","","","","","","",""
"","instructions","369","274974","0.0-543.0","3QXNC7EIPJHTAL5OYBNBI3Q43YJ90X","A2MX0EF342FY3P","3H6W48L9F4B5OEOMH57RM53Z4H1WP0","[{""page_index"":0,""viewing_time"":3960}]","3960.2000000476837","","","","","","","","","",""
"","survey-text","370","279372","0.0-544.0-0.0","3QXNC7EIPJHTAL5OYBNBI3Q43YJ90X","A2MX0EF342FY3P","3H6W48L9F4B5OEOMH57RM53Z4H1WP0","","4396.200000047684","","","","","","","","","{""Q0"":""56""}",""
"","survey-multi-choice","371","284140","0.0-544.0-1.0","3QXNC7EIPJHTAL5OYBNBI3Q43YJ90X","A2MX0EF342FY3P","3H6W48L9F4B5OEOMH57RM53Z4H1WP0","","4766.600000023842","","","","","","","","","{""gender"":""M""}","[0]"
"","survey-text","372","292488","0.0-545.0","3QXNC7EIPJHTAL5OYBNBI3Q43YJ90X","A2MX0EF342FY3P","3H6W48L9F4B5OEOMH57RM53Z4H1WP0","","8346.600000023842","","","","","","","","","{""Q0"":""A2MX0EF342FY3P""}",""
