"success","trial_type","trial_index","time_elapsed","internal_node_id","assignmentID","mturkID","hitID","view_history","rt","stimulus","key_press","reactionTime","a","r","warning","s","reward_cond","responses","question_order"
"true","fullscreen","0","4419","0.0-0.0","3ZOTGHDK5JXWIHT692PDPZRCTPNOSC","A2NXMRPHG86N2T","3A3KKYU7P33Z3BR9PPFZ5194ZCQMWU","","","","","","","","","","","",""
"","instructions","1","67728","0.0-1.0","3ZOTGHDK5JXWIHT692PDPZRCTPNOSC","A2NXMRPHG86N2T","3A3KKYU7P33Z3BR9PPFZ5194ZCQMWU","[{""page_index"":0,""viewing_time"":25395.099999904633},{""page_index"":1,""viewing_time"":2091.8000000715256},{""page_index"":2,""viewing_time"":2292},{""page_index"":3,""viewing_time"":1293.6999999284744},{""page_index"":4,""viewing_time"":2035.9000000953674},{""page_index"":5,""viewing_time"":1073.5},{""page_index"":6,""viewing_time"":3524.6999999284744},{""page_index"":7,""viewing_time"":25597.899999976158}]","63305.799999952316","","","","","","","","","",""
"","image-keyboard-response","2","68064","0.0-2.0","3ZOTGHDK5JXWIHT692PDPZRCTPNOSC","A2NXMRPHG86N2T","3A3KKYU7P33Z3BR9PPFZ5194ZCQMWU","","333.2999999523163","img/land5.png","74","336.1999999284744","1","1","false","1","1,1,0,0,1,1,1,0,1","",""
"","html-keyboard-response","3","68369","0.0-3.0","3ZOTGHDK5JXWIHT692PDPZRCTPNOSC","A2NXMRPHG86N2T","3A3KKYU7P33Z3BR9PPFZ5194ZCQMWU","","null","<img src=""img/land5.png"" style=""width:200px; border:14px solid green;"">","null","","","","","","","",""
"","image-keyboard-response","4","68543","0.0-5.0","3ZOTGHDK5JXWIHT692PDPZRCTPNOSC","A2NXMRPHG86N2T","3A3KKYU7P33Z3BR9PPFZ5194ZCQMWU","","170.80000007152557","img/land1.png","74","172.5","1","1","false","3","1,1,0,0,1,1,1,0,1","",""
"","html-keyboard-response","5","68850","0.0-6.0","3ZOTGHDK5JXWIHT692PDPZRCTPNOSC","A2NXMRPHG86N2T","3A3KKYU7P33Z3BR9PPFZ5194ZCQMWU","","null","<img src=""img/land1.png"" style=""width:200px; border:14px solid green;"">","null","","","","","","","",""
"","image-keyboard-response","6","69223","0.0-8.0","3ZOTGHDK5JXWIHT692PDPZRCTPNOSC","A2NXMRPHG86N2T","3A3KKYU7P33Z3BR9PPFZ5194ZCQMWU","","369.89999997615814","img/land6.png","74","371.59999990463257","1","0","false","2","1,1,0,0,1,1,1,0,1","",""
"","html-keyboard-response","7","69531","0.0-9.0","3ZOTGHDK5JXWIHT692PDPZRCTPNOSC","A2NXMRPHG86N2T","3A3KKYU7P33Z3BR9PPFZ5194ZCQMWU","","null","<img src=""img/land6.png"" style=""width:200px;border:14px solid red;"">","null","","","","","","","",""
"","image-keyboard-response","8","69855","0.0-11.0","3ZOTGHDK5JXWIHT692PDPZRCTPNOSC","A2NXMRPHG86N2T","3A3KKYU7P33Z3BR9PPFZ5194ZCQMWU","","321.7000000476837","img/land5.png","74","323.90000009536743","1","1","false","1","1,1,0,0,1,1,1,0,1","",""
"","html-keyboard-response","9","70158","0.0-12.0","3ZOTGHDK5JXWIHT692PDPZRCTPNOSC","A2NXMRPHG86N2T","3A3KKYU7P33Z3BR9PPFZ5194ZCQMWU","","null","<img src=""img/land5.png"" style=""width:200px; border:14px solid green;"">","null","","","","","","","",""
"","image-keyboard-response","10","70479","0.0-14.0","3ZOTGHDK5JXWIHT692PDPZRCTPNOSC","A2NXMRPHG86N2T","3A3KKYU7P33Z3BR9PPFZ5194ZCQMWU","","318","img/land5.png","74","320","1","1","false","1","1,1,0,0,1,1,1,0,1","",""
"","html-keyboard-response","11","70782","0.0-15.0","3ZOTGHDK5JXWIHT692PDPZRCTPNOSC","A2NXMRPHG86N2T","3A3KKYU7P33Z3BR9PPFZ5194ZCQMWU","","null","<img src=""img/land5.png"" style=""width:200px; border:14px solid green;"">","null","","","","","","","",""
"","image-keyboard-response","12","70983","0.0-17.0","3ZOTGHDK5JXWIHT692PDPZRCTPNOSC","A2NXMRPHG86N2T","3A3KKYU7P33Z3BR9PPFZ5194ZCQMWU","","198.89999997615814","img/land6.png","74","201","1","0","false","2","1,1,0,0,1,1,1,0,1","",""
"","html-keyboard-response","13","71287","0.0-18.0","3ZOTGHDK5JXWIHT692PDPZRCTPNOSC","A2NXMRPHG86N2T","3A3KKYU7P33Z3BR9PPFZ5194ZCQMWU","","null","<img src=""img/land6.png"" style=""width:200px;border:14px solid red;"">","null","","","","","","","",""
"","image-keyboard-response","14","71814","0.0-20.0","3ZOTGHDK5JXWIHT692PDPZRCTPNOSC","A2NXMRPHG86N2T","3A3KKYU7P33Z3BR9PPFZ5194ZCQMWU","","525.3999999761581","img/land5.png","74","527.1000000238419","1","1","false","1","1,1,0,0,1,1,1,0,1","",""
"","html-keyboard-response","15","72123","0.0-21.0","3ZOTGHDK5JXWIHT692PDPZRCTPNOSC","A2NXMRPHG86N2T","3A3KKYU7P33Z3BR9PPFZ5194ZCQMWU","","null","<img src=""img/land5.png"" style=""width:200px; border:14px solid green;"">","null","","","","","","","",""
"","image-keyboard-response","16","72351","0.0-23.0","3ZOTGHDK5JXWIHT692PDPZRCTPNOSC","A2NXMRPHG86N2T","3A3KKYU7P33Z3BR9PPFZ5194ZCQMWU","","225.70000004768372","img/land5.png","74","227","1","1","false","1","1,1,0,0,1,1,1,0,1","",""
"","html-keyboard-response","17","72653","0.0-24.0","3ZOTGHDK5JXWIHT692PDPZRCTPNOSC","A2NXMRPHG86N2T","3A3KKYU7P33Z3BR9PPFZ5194ZCQMWU","","null","<img src=""img/land5.png"" style=""width:200px; border:14px solid green;"">","null","","","","","","","",""
"","image-keyboard-response","18","72967","0.0-26.0","3ZOTGHDK5JXWIHT692PDPZRCTPNOSC","A2NXMRPHG86N2T","3A3KKYU7P33Z3BR9PPFZ5194ZCQMWU","","312","img/land5.png","74","313.8000000715256","1","1","false","1","1,1,0,0,1,1,1,0,1","",""
"","html-keyboard-response","19","73271","0.0-27.0","3ZOTGHDK5JXWIHT692PDPZRCTPNOSC","A2NXMRPHG86N2T","3A3KKYU7P33Z3BR9PPFZ5194ZCQMWU","","null","<img src=""img/land5.png"" style=""width:200px; border:14px solid green;"">","null","","","","","","","",""
"","image-keyboard-response","20","73583","0.0-29.0","3ZOTGHDK5JXWIHT692PDPZRCTPNOSC","A2NXMRPHG86N2T","3A3KKYU7P33Z3BR9PPFZ5194ZCQMWU","","309.7000000476837","img/land1.png","74","311.39999997615814","1","1","false","3","1,1,0,0,1,1,1,0,1","",""
"","html-keyboard-response","21","73886","0.0-30.0","3ZOTGHDK5JXWIHT692PDPZRCTPNOSC","A2NXMRPHG86N2T","3A3KKYU7P33Z3BR9PPFZ5194ZCQMWU","","null","<img src=""img/land1.png"" style=""width:200px; border:14px solid green;"">","null","","","","","","","",""
"","image-keyboard-response","22","74263","0.0-32.0","3ZOTGHDK5JXWIHT692PDPZRCTPNOSC","A2NXMRPHG86N2T","3A3KKYU7P33Z3BR9PPFZ5194ZCQMWU","","374.6999999284744","img/land1.png","74","376.10000002384186","1","1","false","3","1,1,0,0,1,1,1,0,1","",""
"","html-keyboard-response","23","74566","0.0-33.0","3ZOTGHDK5JXWIHT692PDPZRCTPNOSC","A2NXMRPHG86N2T","3A3KKYU7P33Z3BR9PPFZ5194ZCQMWU","","null","<img src=""img/land1.png"" style=""width:200px; border:14px solid green;"">","null","","","","","","","",""
"","image-keyboard-response","24","74863","0.0-35.0","3ZOTGHDK5JXWIHT692PDPZRCTPNOSC","A2NXMRPHG86N2T","3A3KKYU7P33Z3BR9PPFZ5194ZCQMWU","","294","img/land6.png","74","295.5","1","0","false","2","1,1,0,0,1,1,1,0,1","",""
"","html-keyboard-response","25","75166","0.0-36.0","3ZOTGHDK5JXWIHT692PDPZRCTPNOSC","A2NXMRPHG86N2T","3A3KKYU7P33Z3BR9PPFZ5194ZCQMWU","","null","<img src=""img/land6.png"" style=""width:200px;border:14px solid red;"">","null","","","","","","","",""
"","image-keyboard-response","26","75695","0.0-38.0","3ZOTGHDK5JXWIHT692PDPZRCTPNOSC","A2NXMRPHG86N2T","3A3KKYU7P33Z3BR9PPFZ5194ZCQMWU","","526.3000000715256","img/land6.png","74","528.3999999761581","1","0","false","2","1,1,0,0,1,1,1,0,1","",""
"","html-keyboard-response","27","75997","0.0-39.0","3ZOTGHDK5JXWIHT692PDPZRCTPNOSC","A2NXMRPHG86N2T","3A3KKYU7P33Z3BR9PPFZ5194ZCQMWU","","null","<img src=""img/land6.png"" style=""width:200px;border:14px solid red;"">","null","","","","","","","",""
"","image-keyboard-response","28","76159","0.0-41.0","3ZOTGHDK5JXWIHT692PDPZRCTPNOSC","A2NXMRPHG86N2T","3A3KKYU7P33Z3BR9PPFZ5194ZCQMWU","","158.89999997615814","img/land1.png","75","160.59999990463257","2","0","false","3","1,1,0,0,1,1,1,0,1","",""
"","html-keyboard-response","29","76462","0.0-42.0","3ZOTGHDK5JXWIHT692PDPZRCTPNOSC","A2NXMRPHG86N2T","3A3KKYU7P33Z3BR9PPFZ5194ZCQMWU","","null","<img src=""img/land1.png"" style=""width:200px;border:14px solid red;"">","null","","","","","","","",""
"","image-keyboard-response","30","76902","0.0-44.0","3ZOTGHDK5JXWIHT692PDPZRCTPNOSC","A2NXMRPHG86N2T","3A3KKYU7P33Z3BR9PPFZ5194ZCQMWU","","438.10000002384186","img/land6.png","74","439.8000000715256","1","0","false","2","1,1,0,0,1,1,1,0,1","",""
"","html-keyboard-response","31","77206","0.0-45.0","3ZOTGHDK5JXWIHT692PDPZRCTPNOSC","A2NXMRPHG86N2T","3A3KKYU7P33Z3BR9PPFZ5194ZCQMWU","","null","<img src=""img/land6.png"" style=""width:200px;border:14px solid red;"">","null","","","","","","","",""
"","image-keyboard-response","32","77463","0.0-47.0","3ZOTGHDK5JXWIHT692PDPZRCTPNOSC","A2NXMRPHG86N2T","3A3KKYU7P33Z3BR9PPFZ5194ZCQMWU","","255.19999992847443","img/land1.png","74","256.89999997615814","1","1","false","3","1,1,0,0,1,1,1,0,1","",""
"","html-keyboard-response","33","77766","0.0-48.0","3ZOTGHDK5JXWIHT692PDPZRCTPNOSC","A2NXMRPHG86N2T","3A3KKYU7P33Z3BR9PPFZ5194ZCQMWU","","null","<img src=""img/land1.png"" style=""width:200px; border:14px solid green;"">","null","","","","","","","",""
"","image-keyboard-response","34","78167","0.0-50.0","3ZOTGHDK5JXWIHT692PDPZRCTPNOSC","A2NXMRPHG86N2T","3A3KKYU7P33Z3BR9PPFZ5194ZCQMWU","","399.1999999284744","img/land1.png","74","400.7999999523163","1","1","false","3","1,1,0,0,1,1,1,0,1","",""
"","html-keyboard-response","35","78475","0.0-51.0","3ZOTGHDK5JXWIHT692PDPZRCTPNOSC","A2NXMRPHG86N2T","3A3KKYU7P33Z3BR9PPFZ5194ZCQMWU","","null","<img src=""img/land1.png"" style=""width:200px; border:14px solid green;"">","null","","","","","","","",""
"","image-keyboard-response","36","78735","0.0-53.0","3ZOTGHDK5JXWIHT692PDPZRCTPNOSC","A2NXMRPHG86N2T","3A3KKYU7P33Z3BR9PPFZ5194ZCQMWU","","257.39999997615814","img/land6.png","74","259.10000002384186","1","0","false","2","1,1,0,0,1,1,1,0,1","",""
"","html-keyboard-response","37","79037","0.0-54.0","3ZOTGHDK5JXWIHT692PDPZRCTPNOSC","A2NXMRPHG86N2T","3A3KKYU7P33Z3BR9PPFZ5194ZCQMWU","","null","<img src=""img/land6.png"" style=""width:200px;border:14px solid red;"">","null","","","","","","","",""
"","image-keyboard-response","38","79471","0.0-56.0","3ZOTGHDK5JXWIHT692PDPZRCTPNOSC","A2NXMRPHG86N2T","3A3KKYU7P33Z3BR9PPFZ5194ZCQMWU","","431.3000000715256","img/land6.png","74","432.7999999523163","1","0","false","2","1,1,0,0,1,1,1,0,1","",""
"","html-keyboard-response","39","79773","0.0-57.0","3ZOTGHDK5JXWIHT692PDPZRCTPNOSC","A2NXMRPHG86N2T","3A3KKYU7P33Z3BR9PPFZ5194ZCQMWU","","null","<img src=""img/land6.png"" style=""width:200px;border:14px solid red;"">","null","","","","","","","",""
"","image-keyboard-response","40","80479","0.0-59.0","3ZOTGHDK5JXWIHT692PDPZRCTPNOSC","A2NXMRPHG86N2T","3A3KKYU7P33Z3BR9PPFZ5194ZCQMWU","","703.7000000476837","img/land6.png","75","705.5","2","1","false","2","1,1,0,0,1,1,1,0,1","",""
"","html-keyboard-response","41","80782","0.0-60.0","3ZOTGHDK5JXWIHT692PDPZRCTPNOSC","A2NXMRPHG86N2T","3A3KKYU7P33Z3BR9PPFZ5194ZCQMWU","","null","<img src=""img/land6.png"" style=""width:200px; border:14px solid green;"">","null","","","","","","","",""
"","image-keyboard-response","42","81391","0.0-62.0","3ZOTGHDK5JXWIHT692PDPZRCTPNOSC","A2NXMRPHG86N2T","3A3KKYU7P33Z3BR9PPFZ5194ZCQMWU","","606.1000000238419","img/land5.png","74","607.8000000715256","1","1","false","1","1,1,0,0,1,1,1,0,1","",""
"","html-keyboard-response","43","81694","0.0-63.0","3ZOTGHDK5JXWIHT692PDPZRCTPNOSC","A2NXMRPHG86N2T","3A3KKYU7P33Z3BR9PPFZ5194ZCQMWU","","null","<img src=""img/land5.png"" style=""width:200px; border:14px solid green;"">","null","","","","","","","",""
"","image-keyboard-response","44","81973","0.0-65.0","3ZOTGHDK5JXWIHT692PDPZRCTPNOSC","A2NXMRPHG86N2T","3A3KKYU7P33Z3BR9PPFZ5194ZCQMWU","","277.60000002384186","img/land1.png","74","278.7999999523163","1","1","false","3","1,1,0,0,1,1,1,0,1","",""
"","html-keyboard-response","45","82276","0.0-66.0","3ZOTGHDK5JXWIHT692PDPZRCTPNOSC","A2NXMRPHG86N2T","3A3KKYU7P33Z3BR9PPFZ5194ZCQMWU","","null","<img src=""img/land1.png"" style=""width:200px; border:14px solid green;"">","null","","","","","","","",""
"","image-keyboard-response","46","82594","0.0-68.0","3ZOTGHDK5JXWIHT692PDPZRCTPNOSC","A2NXMRPHG86N2T","3A3KKYU7P33Z3BR9PPFZ5194ZCQMWU","","315.7999999523163","img/land6.png","74","317.2999999523163","1","0","false","2","1,1,0,0,1,1,1,0,1","",""
"","html-keyboard-response","47","82896","0.0-69.0","3ZOTGHDK5JXWIHT692PDPZRCTPNOSC","A2NXMRPHG86N2T","3A3KKYU7P33Z3BR9PPFZ5194ZCQMWU","","null","<img src=""img/land6.png"" style=""width:200px;border:14px solid red;"">","null","","","","","","","",""
"","image-keyboard-response","48","83399","0.0-71.0","3ZOTGHDK5JXWIHT692PDPZRCTPNOSC","A2NXMRPHG86N2T","3A3KKYU7P33Z3BR9PPFZ5194ZCQMWU","","500.2999999523163","img/land5.png","75","502","2","1","false","1","1,1,0,0,1,1,1,0,1","",""
"","html-keyboard-response","49","83702","0.0-72.0","3ZOTGHDK5JXWIHT692PDPZRCTPNOSC","A2NXMRPHG86N2T","3A3KKYU7P33Z3BR9PPFZ5194ZCQMWU","","null","<img src=""img/land5.png"" style=""width:200px; border:14px solid green;"">","null","","","","","","","",""
"","image-keyboard-response","50","84110","0.0-74.0","3ZOTGHDK5JXWIHT692PDPZRCTPNOSC","A2NXMRPHG86N2T","3A3KKYU7P33Z3BR9PPFZ5194ZCQMWU","","405.89999997615814","img/land6.png","74","407.39999997615814","1","0","false","2","1,1,0,0,1,1,1,0,1","",""
"","html-keyboard-response","51","84414","0.0-75.0","3ZOTGHDK5JXWIHT692PDPZRCTPNOSC","A2NXMRPHG86N2T","3A3KKYU7P33Z3BR9PPFZ5194ZCQMWU","","null","<img src=""img/land6.png"" style=""width:200px;border:14px solid red;"">","null","","","","","","","",""
"","image-keyboard-response","52","84775","0.0-77.0","3ZOTGHDK5JXWIHT692PDPZRCTPNOSC","A2NXMRPHG86N2T","3A3KKYU7P33Z3BR9PPFZ5194ZCQMWU","","359.2000000476837","img/land5.png","75","360.5","2","1","false","1","1,1,0,0,1,1,1,0,1","",""
"","html-keyboard-response","53","85077","0.0-78.0","3ZOTGHDK5JXWIHT692PDPZRCTPNOSC","A2NXMRPHG86N2T","3A3KKYU7P33Z3BR9PPFZ5194ZCQMWU","","null","<img src=""img/land5.png"" style=""width:200px; border:14px solid green;"">","null","","","","","","","",""
"","image-keyboard-response","54","85710","0.0-80.0","3ZOTGHDK5JXWIHT692PDPZRCTPNOSC","A2NXMRPHG86N2T","3A3KKYU7P33Z3BR9PPFZ5194ZCQMWU","","631.2000000476837","img/land1.png","74","632.5","1","1","false","3","1,1,0,0,1,1,1,0,1","",""
"","html-keyboard-response","55","86013","0.0-81.0","3ZOTGHDK5JXWIHT692PDPZRCTPNOSC","A2NXMRPHG86N2T","3A3KKYU7P33Z3BR9PPFZ5194ZCQMWU","","null","<img src=""img/land1.png"" style=""width:200px; border:14px solid green;"">","null","","","","","","","",""
"","image-keyboard-response","56","86198","0.0-83.0","3ZOTGHDK5JXWIHT692PDPZRCTPNOSC","A2NXMRPHG86N2T","3A3KKYU7P33Z3BR9PPFZ5194ZCQMWU","","183","img/land6.png","74","184.60000002384186","1","0","false","2","1,1,0,0,1,1,1,0,1","",""
"","html-keyboard-response","57","86502","0.0-84.0","3ZOTGHDK5JXWIHT692PDPZRCTPNOSC","A2NXMRPHG86N2T","3A3KKYU7P33Z3BR9PPFZ5194ZCQMWU","","null","<img src=""img/land6.png"" style=""width:200px;border:14px solid red;"">","null","","","","","","","",""
"","image-keyboard-response","58","87167","0.0-86.0","3ZOTGHDK5JXWIHT692PDPZRCTPNOSC","A2NXMRPHG86N2T","3A3KKYU7P33Z3BR9PPFZ5194ZCQMWU","","662.2999999523163","img/land5.png","74","664.1000000238419","1","1","false","1","1,1,0,0,1,1,1,0,1","",""
"","html-keyboard-response","59","87469","0.0-87.0","3ZOTGHDK5JXWIHT692PDPZRCTPNOSC","A2NXMRPHG86N2T","3A3KKYU7P33Z3BR9PPFZ5194ZCQMWU","","null","<img src=""img/land5.png"" style=""width:200px; border:14px solid green;"">","null","","","","","","","",""
"","image-keyboard-response","60","87671","0.0-89.0","3ZOTGHDK5JXWIHT692PDPZRCTPNOSC","A2NXMRPHG86N2T","3A3KKYU7P33Z3BR9PPFZ5194ZCQMWU","","199.5","img/land6.png","74","201","1","0","false","2","1,1,0,0,1,1,1,0,1","",""
"","html-keyboard-response","61","87974","0.0-90.0","3ZOTGHDK5JXWIHT692PDPZRCTPNOSC","A2NXMRPHG86N2T","3A3KKYU7P33Z3BR9PPFZ5194ZCQMWU","","null","<img src=""img/land6.png"" style=""width:200px;border:14px solid red;"">","null","","","","","","","",""
"","image-keyboard-response","62","88591","0.0-92.0","3ZOTGHDK5JXWIHT692PDPZRCTPNOSC","A2NXMRPHG86N2T","3A3KKYU7P33Z3BR9PPFZ5194ZCQMWU","","614.7000000476837","img/land6.png","76","616.4000000953674","3","1","false","2","1,1,0,0,1,1,1,0,1","",""
"","html-keyboard-response","63","88894","0.0-93.0","3ZOTGHDK5JXWIHT692PDPZRCTPNOSC","A2NXMRPHG86N2T","3A3KKYU7P33Z3BR9PPFZ5194ZCQMWU","","null","<img src=""img/land6.png"" style=""width:200px; border:14px solid green;"">","null","","","","","","","",""
"","image-keyboard-response","64","89089","0.0-95.0","3ZOTGHDK5JXWIHT692PDPZRCTPNOSC","A2NXMRPHG86N2T","3A3KKYU7P33Z3BR9PPFZ5194ZCQMWU","","191.89999997615814","img/land5.png","76","194.10000002384186","3","0","false","1","1,1,0,0,1,1,1,0,1","",""
"","html-keyboard-response","65","89392","0.0-96.0","3ZOTGHDK5JXWIHT692PDPZRCTPNOSC","A2NXMRPHG86N2T","3A3KKYU7P33Z3BR9PPFZ5194ZCQMWU","","null","<img src=""img/land5.png"" style=""width:200px;border:14px solid red;"">","null","","","","","","","",""
"","image-keyboard-response","66","89671","0.0-98.0","3ZOTGHDK5JXWIHT692PDPZRCTPNOSC","A2NXMRPHG86N2T","3A3KKYU7P33Z3BR9PPFZ5194ZCQMWU","","276","img/land1.png","74","277.7000000476837","1","1","false","3","1,1,0,0,1,1,1,0,1","",""
"","html-keyboard-response","67","89974","0.0-99.0","3ZOTGHDK5JXWIHT692PDPZRCTPNOSC","A2NXMRPHG86N2T","3A3KKYU7P33Z3BR9PPFZ5194ZCQMWU","","null","<img src=""img/land1.png"" style=""width:200px; border:14px solid green;"">","null","","","","","","","",""
"","image-keyboard-response","68","90375","0.0-101.0","3ZOTGHDK5JXWIHT692PDPZRCTPNOSC","A2NXMRPHG86N2T","3A3KKYU7P33Z3BR9PPFZ5194ZCQMWU","","398.89999997615814","img/land5.png","74","400.60000002384186","1","1","false","1","1,1,0,0,1,1,1,0,1","",""
"","html-keyboard-response","69","90679","0.0-102.0","3ZOTGHDK5JXWIHT692PDPZRCTPNOSC","A2NXMRPHG86N2T","3A3KKYU7P33Z3BR9PPFZ5194ZCQMWU","","null","<img src=""img/land5.png"" style=""width:200px; border:14px solid green;"">","null","","","","","","","",""
"","image-keyboard-response","70","90975","0.0-104.0","3ZOTGHDK5JXWIHT692PDPZRCTPNOSC","A2NXMRPHG86N2T","3A3KKYU7P33Z3BR9PPFZ5194ZCQMWU","","294","img/land5.png","74","295.60000002384186","1","1","false","1","1,1,0,0,1,1,1,0,1","",""
"","html-keyboard-response","71","91278","0.0-105.0","3ZOTGHDK5JXWIHT692PDPZRCTPNOSC","A2NXMRPHG86N2T","3A3KKYU7P33Z3BR9PPFZ5194ZCQMWU","","null","<img src=""img/land5.png"" style=""width:200px; border:14px solid green;"">","null","","","","","","","",""
"","image-keyboard-response","72","91599","0.0-107.0","3ZOTGHDK5JXWIHT692PDPZRCTPNOSC","A2NXMRPHG86N2T","3A3KKYU7P33Z3BR9PPFZ5194ZCQMWU","","318.6999999284744","img/land6.png","74","320.39999997615814","1","0","false","2","1,1,0,0,1,1,1,0,1","",""
"","html-keyboard-response","73","91902","0.0-108.0","3ZOTGHDK5JXWIHT692PDPZRCTPNOSC","A2NXMRPHG86N2T","3A3KKYU7P33Z3BR9PPFZ5194ZCQMWU","","null","<img src=""img/land6.png"" style=""width:200px;border:14px solid red;"">","null","","","","","","","",""
"","image-keyboard-response","74","92030","0.0-110.0","3ZOTGHDK5JXWIHT692PDPZRCTPNOSC","A2NXMRPHG86N2T","3A3KKYU7P33Z3BR9PPFZ5194ZCQMWU","","125.29999995231628","img/land1.png","75","126.80000007152557","2","0","false","3","1,1,0,0,1,1,1,0,1","",""
"","html-keyboard-response","75","92331","0.0-111.0","3ZOTGHDK5JXWIHT692PDPZRCTPNOSC","A2NXMRPHG86N2T","3A3KKYU7P33Z3BR9PPFZ5194ZCQMWU","","null","<img src=""img/land1.png"" style=""width:200px;border:14px solid red;"">","null","","","","","","","",""
"","image-keyboard-response","76","92751","0.0-113.0","3ZOTGHDK5JXWIHT692PDPZRCTPNOSC","A2NXMRPHG86N2T","3A3KKYU7P33Z3BR9PPFZ5194ZCQMWU","","417.1999999284744","img/land6.png","74","419","1","0","false","2","1,1,0,0,1,1,1,0,1","",""
"","html-keyboard-response","77","93054","0.0-114.0","3ZOTGHDK5JXWIHT692PDPZRCTPNOSC","A2NXMRPHG86N2T","3A3KKYU7P33Z3BR9PPFZ5194ZCQMWU","","null","<img src=""img/land6.png"" style=""width:200px;border:14px solid red;"">","null","","","","","","","",""
"","image-keyboard-response","78","93350","0.0-116.0","3ZOTGHDK5JXWIHT692PDPZRCTPNOSC","A2NXMRPHG86N2T","3A3KKYU7P33Z3BR9PPFZ5194ZCQMWU","","293.59999990463257","img/land1.png","74","295.2999999523163","1","1","false","3","1,1,0,0,1,1,1,0,1","",""
"","html-keyboard-response","79","93652","0.0-117.0","3ZOTGHDK5JXWIHT692PDPZRCTPNOSC","A2NXMRPHG86N2T","3A3KKYU7P33Z3BR9PPFZ5194ZCQMWU","","null","<img src=""img/land1.png"" style=""width:200px; border:14px solid green;"">","null","","","","","","","",""
"","image-keyboard-response","80","93918","0.0-119.0","3ZOTGHDK5JXWIHT692PDPZRCTPNOSC","A2NXMRPHG86N2T","3A3KKYU7P33Z3BR9PPFZ5194ZCQMWU","","264.10000002384186","img/land1.png","74","265.60000002384186","1","1","false","3","1,1,0,0,1,1,1,0,1","",""
"","html-keyboard-response","81","94221","0.0-120.0","3ZOTGHDK5JXWIHT692PDPZRCTPNOSC","A2NXMRPHG86N2T","3A3KKYU7P33Z3BR9PPFZ5194ZCQMWU","","null","<img src=""img/land1.png"" style=""width:200px; border:14px solid green;"">","null","","","","","","","",""
"","image-keyboard-response","82","94431","0.0-122.0","3ZOTGHDK5JXWIHT692PDPZRCTPNOSC","A2NXMRPHG86N2T","3A3KKYU7P33Z3BR9PPFZ5194ZCQMWU","","208","img/land6.png","74","209.70000004768372","1","0","false","2","1,1,0,0,1,1,1,0,1","",""
"","html-keyboard-response","83","94733","0.0-123.0","3ZOTGHDK5JXWIHT692PDPZRCTPNOSC","A2NXMRPHG86N2T","3A3KKYU7P33Z3BR9PPFZ5194ZCQMWU","","null","<img src=""img/land6.png"" style=""width:200px;border:14px solid red;"">","null","","","","","","","",""
"","image-keyboard-response","84","95233","0.0-125.0","3ZOTGHDK5JXWIHT692PDPZRCTPNOSC","A2NXMRPHG86N2T","3A3KKYU7P33Z3BR9PPFZ5194ZCQMWU","","498.60000002384186","img/land1.png","74","499.6999999284744","1","1","false","3","1,1,0,0,1,1,1,0,1","",""
"","html-keyboard-response","85","95536","0.0-126.0","3ZOTGHDK5JXWIHT692PDPZRCTPNOSC","A2NXMRPHG86N2T","3A3KKYU7P33Z3BR9PPFZ5194ZCQMWU","","null","<img src=""img/land1.png"" style=""width:200px; border:14px solid green;"">","null","","","","","","","",""
"","image-keyboard-response","86","95678","0.0-128.0","3ZOTGHDK5JXWIHT692PDPZRCTPNOSC","A2NXMRPHG86N2T","3A3KKYU7P33Z3BR9PPFZ5194ZCQMWU","","140.10000002384186","img/land1.png","74","141.80000007152557","1","1","false","3","1,1,0,0,1,1,1,0,1","",""
"","html-keyboard-response","87","95982","0.0-129.0","3ZOTGHDK5JXWIHT692PDPZRCTPNOSC","A2NXMRPHG86N2T","3A3KKYU7P33Z3BR9PPFZ5194ZCQMWU","","null","<img src=""img/land1.png"" style=""width:200px; border:14px solid green;"">","null","","","","","","","",""
"","image-keyboard-response","88","96630","0.0-131.0","3ZOTGHDK5JXWIHT692PDPZRCTPNOSC","A2NXMRPHG86N2T","3A3KKYU7P33Z3BR9PPFZ5194ZCQMWU","","646.1000000238419","img/land6.png","75","648.1000000238419","2","1","false","2","1,1,0,0,1,1,1,0,1","",""
"","html-keyboard-response","89","96934","0.0-132.0","3ZOTGHDK5JXWIHT692PDPZRCTPNOSC","A2NXMRPHG86N2T","3A3KKYU7P33Z3BR9PPFZ5194ZCQMWU","","null","<img src=""img/land6.png"" style=""width:200px; border:14px solid green;"">","null","","","","","","","",""
"","image-keyboard-response","90","97383","0.0-134.0","3ZOTGHDK5JXWIHT692PDPZRCTPNOSC","A2NXMRPHG86N2T","3A3KKYU7P33Z3BR9PPFZ5194ZCQMWU","","447","img/land1.png","74","448.60000002384186","1","1","false","3","1,1,0,0,1,1,1,0,1","",""
"","html-keyboard-response","91","97685","0.0-135.0","3ZOTGHDK5JXWIHT692PDPZRCTPNOSC","A2NXMRPHG86N2T","3A3KKYU7P33Z3BR9PPFZ5194ZCQMWU","","null","<img src=""img/land1.png"" style=""width:200px; border:14px solid green;"">","null","","","","","","","",""
"","image-keyboard-response","92","98007","0.0-137.0","3ZOTGHDK5JXWIHT692PDPZRCTPNOSC","A2NXMRPHG86N2T","3A3KKYU7P33Z3BR9PPFZ5194ZCQMWU","","319.2000000476837","img/land6.png","74","320.7999999523163","1","0","false","2","1,1,0,0,1,1,1,0,1","",""
"","html-keyboard-response","93","98309","0.0-138.0","3ZOTGHDK5JXWIHT692PDPZRCTPNOSC","A2NXMRPHG86N2T","3A3KKYU7P33Z3BR9PPFZ5194ZCQMWU","","null","<img src=""img/land6.png"" style=""width:200px;border:14px solid red;"">","null","","","","","","","",""
"","image-keyboard-response","94","99023","0.0-140.0","3ZOTGHDK5JXWIHT692PDPZRCTPNOSC","A2NXMRPHG86N2T","3A3KKYU7P33Z3BR9PPFZ5194ZCQMWU","","711.5","img/land5.png","74","713.2000000476837","1","1","false","1","1,1,0,0,1,1,1,0,1","",""
"","html-keyboard-response","95","99326","0.0-141.0","3ZOTGHDK5JXWIHT692PDPZRCTPNOSC","A2NXMRPHG86N2T","3A3KKYU7P33Z3BR9PPFZ5194ZCQMWU","","null","<img src=""img/land5.png"" style=""width:200px; border:14px solid green;"">","null","","","","","","","",""
"","image-keyboard-response","96","99823","0.0-143.0","3ZOTGHDK5JXWIHT692PDPZRCTPNOSC","A2NXMRPHG86N2T","3A3KKYU7P33Z3BR9PPFZ5194ZCQMWU","","494.10000002384186","img/land5.png","74","495.89999997615814","1","1","false","1","1,1,0,0,1,1,1,0,1","",""
"","html-keyboard-response","97","100127","0.0-144.0","3ZOTGHDK5JXWIHT692PDPZRCTPNOSC","A2NXMRPHG86N2T","3A3KKYU7P33Z3BR9PPFZ5194ZCQMWU","","null","<img src=""img/land5.png"" style=""width:200px; border:14px solid green;"">","null","","","","","","","",""
"","image-keyboard-response","98","100462","0.0-146.0","3ZOTGHDK5JXWIHT692PDPZRCTPNOSC","A2NXMRPHG86N2T","3A3KKYU7P33Z3BR9PPFZ5194ZCQMWU","","333.2999999523163","img/land1.png","74","335.10000002384186","1","1","false","3","1,1,0,0,1,1,1,0,1","",""
"","html-keyboard-response","99","100765","0.0-147.0","3ZOTGHDK5JXWIHT692PDPZRCTPNOSC","A2NXMRPHG86N2T","3A3KKYU7P33Z3BR9PPFZ5194ZCQMWU","","null","<img src=""img/land1.png"" style=""width:200px; border:14px solid green;"">","null","","","","","","","",""
"","image-keyboard-response","100","101215","0.0-149.0","3ZOTGHDK5JXWIHT692PDPZRCTPNOSC","A2NXMRPHG86N2T","3A3KKYU7P33Z3BR9PPFZ5194ZCQMWU","","447.90000009536743","img/land1.png","74","449.7000000476837","1","1","false","3","1,1,0,0,1,1,1,0,1","",""
"","html-keyboard-response","101","101517","0.0-150.0","3ZOTGHDK5JXWIHT692PDPZRCTPNOSC","A2NXMRPHG86N2T","3A3KKYU7P33Z3BR9PPFZ5194ZCQMWU","","null","<img src=""img/land1.png"" style=""width:200px; border:14px solid green;"">","null","","","","","","","",""
"","image-keyboard-response","102","102095","0.0-152.0","3ZOTGHDK5JXWIHT692PDPZRCTPNOSC","A2NXMRPHG86N2T","3A3KKYU7P33Z3BR9PPFZ5194ZCQMWU","","575.5999999046326","img/land5.png","74","577.2999999523163","1","1","false","1","1,1,0,0,1,1,1,0,1","",""
"","html-keyboard-response","103","102412","0.0-153.0","3ZOTGHDK5JXWIHT692PDPZRCTPNOSC","A2NXMRPHG86N2T","3A3KKYU7P33Z3BR9PPFZ5194ZCQMWU","","null","<img src=""img/land5.png"" style=""width:200px; border:14px solid green;"">","null","","","","","","","",""
"","image-keyboard-response","104","102807","0.0-155.0","3ZOTGHDK5JXWIHT692PDPZRCTPNOSC","A2NXMRPHG86N2T","3A3KKYU7P33Z3BR9PPFZ5194ZCQMWU","","392.60000002384186","img/land5.png","74","394.3000000715256","1","1","false","1","1,1,0,0,1,1,1,0,1","",""
"","html-keyboard-response","105","103109","0.0-156.0","3ZOTGHDK5JXWIHT692PDPZRCTPNOSC","A2NXMRPHG86N2T","3A3KKYU7P33Z3BR9PPFZ5194ZCQMWU","","null","<img src=""img/land5.png"" style=""width:200px; border:14px solid green;"">","null","","","","","","","",""
"","image-keyboard-response","106","103719","0.0-158.0","3ZOTGHDK5JXWIHT692PDPZRCTPNOSC","A2NXMRPHG86N2T","3A3KKYU7P33Z3BR9PPFZ5194ZCQMWU","","608.6999999284744","img/land6.png","75","610.1000000238419","2","1","false","2","1,1,0,0,1,1,1,0,1","",""
"","html-keyboard-response","107","104022","0.0-159.0","3ZOTGHDK5JXWIHT692PDPZRCTPNOSC","A2NXMRPHG86N2T","3A3KKYU7P33Z3BR9PPFZ5194ZCQMWU","","null","<img src=""img/land6.png"" style=""width:200px; border:14px solid green;"">","null","","","","","","","",""
"","image-keyboard-response","108","104303","0.0-161.0","3ZOTGHDK5JXWIHT692PDPZRCTPNOSC","A2NXMRPHG86N2T","3A3KKYU7P33Z3BR9PPFZ5194ZCQMWU","","278.2999999523163","img/land6.png","74","280","1","0","false","2","1,1,0,0,1,1,1,0,1","",""
"","html-keyboard-response","109","104606","0.0-162.0","3ZOTGHDK5JXWIHT692PDPZRCTPNOSC","A2NXMRPHG86N2T","3A3KKYU7P33Z3BR9PPFZ5194ZCQMWU","","null","<img src=""img/land6.png"" style=""width:200px;border:14px solid red;"">","null","","","","","","","",""
"","image-keyboard-response","110","105526","0.0-164.0","3ZOTGHDK5JXWIHT692PDPZRCTPNOSC","A2NXMRPHG86N2T","3A3KKYU7P33Z3BR9PPFZ5194ZCQMWU","","917.7000000476837","img/land1.png","74","919.2000000476837","1","1","false","3","1,1,0,0,1,1,1,0,1","",""
"","html-keyboard-response","111","105828","0.0-165.0","3ZOTGHDK5JXWIHT692PDPZRCTPNOSC","A2NXMRPHG86N2T","3A3KKYU7P33Z3BR9PPFZ5194ZCQMWU","","null","<img src=""img/land1.png"" style=""width:200px; border:14px solid green;"">","null","","","","","","","",""
"","image-keyboard-response","112","106167","0.0-167.0","3ZOTGHDK5JXWIHT692PDPZRCTPNOSC","A2NXMRPHG86N2T","3A3KKYU7P33Z3BR9PPFZ5194ZCQMWU","","333.60000002384186","img/land5.png","74","335.60000002384186","1","1","false","1","1,1,0,0,1,1,1,0,1","",""
"","html-keyboard-response","113","106470","0.0-168.0","3ZOTGHDK5JXWIHT692PDPZRCTPNOSC","A2NXMRPHG86N2T","3A3KKYU7P33Z3BR9PPFZ5194ZCQMWU","","null","<img src=""img/land5.png"" style=""width:200px; border:14px solid green;"">","null","","","","","","","",""
"","image-keyboard-response","114","106727","0.0-170.0","3ZOTGHDK5JXWIHT692PDPZRCTPNOSC","A2NXMRPHG86N2T","3A3KKYU7P33Z3BR9PPFZ5194ZCQMWU","","255.19999992847443","img/land5.png","74","256.2999999523163","1","1","false","1","1,1,0,0,1,1,1,0,1","",""
"","html-keyboard-response","115","107030","0.0-171.0","3ZOTGHDK5JXWIHT692PDPZRCTPNOSC","A2NXMRPHG86N2T","3A3KKYU7P33Z3BR9PPFZ5194ZCQMWU","","null","<img src=""img/land5.png"" style=""width:200px; border:14px solid green;"">","null","","","","","","","",""
"","image-keyboard-response","116","107321","0.0-173.0","3ZOTGHDK5JXWIHT692PDPZRCTPNOSC","A2NXMRPHG86N2T","3A3KKYU7P33Z3BR9PPFZ5194ZCQMWU","","289","img/land5.png","74","290.89999997615814","1","1","false","1","1,1,0,0,1,1,1,0,1","",""
"","html-keyboard-response","117","107624","0.0-174.0","3ZOTGHDK5JXWIHT692PDPZRCTPNOSC","A2NXMRPHG86N2T","3A3KKYU7P33Z3BR9PPFZ5194ZCQMWU","","null","<img src=""img/land5.png"" style=""width:200px; border:14px solid green;"">","null","","","","","","","",""
"","image-keyboard-response","118","108150","0.0-176.0","3ZOTGHDK5JXWIHT692PDPZRCTPNOSC","A2NXMRPHG86N2T","3A3KKYU7P33Z3BR9PPFZ5194ZCQMWU","","524.6000000238419","img/land6.png","75","526.1000000238419","2","1","false","2","1,1,0,0,1,1,1,0,1","",""
"","html-keyboard-response","119","108466","0.0-177.0","3ZOTGHDK5JXWIHT692PDPZRCTPNOSC","A2NXMRPHG86N2T","3A3KKYU7P33Z3BR9PPFZ5194ZCQMWU","","null","<img src=""img/land6.png"" style=""width:200px; border:14px solid green;"">","null","","","","","","","",""
"","image-keyboard-response","120","108687","0.0-179.0","3ZOTGHDK5JXWIHT692PDPZRCTPNOSC","A2NXMRPHG86N2T","3A3KKYU7P33Z3BR9PPFZ5194ZCQMWU","","219","img/land6.png","75","220.60000002384186","2","1","false","2","1,1,0,0,1,1,1,0,1","",""
"","html-keyboard-response","121","108989","0.0-180.0","3ZOTGHDK5JXWIHT692PDPZRCTPNOSC","A2NXMRPHG86N2T","3A3KKYU7P33Z3BR9PPFZ5194ZCQMWU","","null","<img src=""img/land6.png"" style=""width:200px; border:14px solid green;"">","null","","","","","","","",""
"","image-keyboard-response","122","109271","0.0-182.0","3ZOTGHDK5JXWIHT692PDPZRCTPNOSC","A2NXMRPHG86N2T","3A3KKYU7P33Z3BR9PPFZ5194ZCQMWU","","279.39999997615814","img/land6.png","75","281.39999997615814","2","1","false","2","1,1,0,0,1,1,1,0,1","",""
"","html-keyboard-response","123","109574","0.0-183.0","3ZOTGHDK5JXWIHT692PDPZRCTPNOSC","A2NXMRPHG86N2T","3A3KKYU7P33Z3BR9PPFZ5194ZCQMWU","","null","<img src=""img/land6.png"" style=""width:200px; border:14px solid green;"">","null","","","","","","","",""
"","image-keyboard-response","124","109783","0.0-185.0","3ZOTGHDK5JXWIHT692PDPZRCTPNOSC","A2NXMRPHG86N2T","3A3KKYU7P33Z3BR9PPFZ5194ZCQMWU","","206.80000007152557","img/land1.png","75","208.70000004768372","2","0","false","3","1,1,0,0,1,1,1,0,1","",""
"","html-keyboard-response","125","110086","0.0-186.0","3ZOTGHDK5JXWIHT692PDPZRCTPNOSC","A2NXMRPHG86N2T","3A3KKYU7P33Z3BR9PPFZ5194ZCQMWU","","null","<img src=""img/land1.png"" style=""width:200px;border:14px solid red;"">","null","","","","","","","",""
"","image-keyboard-response","126","110319","0.0-188.0","3ZOTGHDK5JXWIHT692PDPZRCTPNOSC","A2NXMRPHG86N2T","3A3KKYU7P33Z3BR9PPFZ5194ZCQMWU","","230.29999995231628","img/land5.png","76","231.79999995231628","3","0","false","1","1,1,0,0,1,1,1,0,1","",""
"","html-keyboard-response","127","110621","0.0-189.0","3ZOTGHDK5JXWIHT692PDPZRCTPNOSC","A2NXMRPHG86N2T","3A3KKYU7P33Z3BR9PPFZ5194ZCQMWU","","null","<img src=""img/land5.png"" style=""width:200px;border:14px solid red;"">","null","","","","","","","",""
"","image-keyboard-response","128","111182","0.0-191.0","3ZOTGHDK5JXWIHT692PDPZRCTPNOSC","A2NXMRPHG86N2T","3A3KKYU7P33Z3BR9PPFZ5194ZCQMWU","","559.7000000476837","img/land1.png","76","561.1000000238419","3","1","false","3","1,1,0,0,1,1,1,0,1","",""
"","html-keyboard-response","129","111486","0.0-192.0","3ZOTGHDK5JXWIHT692PDPZRCTPNOSC","A2NXMRPHG86N2T","3A3KKYU7P33Z3BR9PPFZ5194ZCQMWU","","null","<img src=""img/land1.png"" style=""width:200px; border:14px solid green;"">","null","","","","","","","",""
"","image-keyboard-response","130","111831","0.0-194.0","3ZOTGHDK5JXWIHT692PDPZRCTPNOSC","A2NXMRPHG86N2T","3A3KKYU7P33Z3BR9PPFZ5194ZCQMWU","","343.7000000476837","img/land5.png","74","344.7999999523163","1","1","false","1","1,1,0,0,1,1,1,0,1","",""
"","html-keyboard-response","131","112134","0.0-195.0","3ZOTGHDK5JXWIHT692PDPZRCTPNOSC","A2NXMRPHG86N2T","3A3KKYU7P33Z3BR9PPFZ5194ZCQMWU","","null","<img src=""img/land5.png"" style=""width:200px; border:14px solid green;"">","null","","","","","","","",""
"","image-keyboard-response","132","112374","0.0-197.0","3ZOTGHDK5JXWIHT692PDPZRCTPNOSC","A2NXMRPHG86N2T","3A3KKYU7P33Z3BR9PPFZ5194ZCQMWU","","238.19999992847443","img/land5.png","74","239.39999997615814","1","1","false","1","1,1,0,0,1,1,1,0,1","",""
"","html-keyboard-response","133","112676","0.0-198.0","3ZOTGHDK5JXWIHT692PDPZRCTPNOSC","A2NXMRPHG86N2T","3A3KKYU7P33Z3BR9PPFZ5194ZCQMWU","","null","<img src=""img/land5.png"" style=""width:200px; border:14px solid green;"">","null","","","","","","","",""
"","image-keyboard-response","134","112999","0.0-200.0","3ZOTGHDK5JXWIHT692PDPZRCTPNOSC","A2NXMRPHG86N2T","3A3KKYU7P33Z3BR9PPFZ5194ZCQMWU","","320.39999997615814","img/land1.png","74","322.2000000476837","1","1","false","3","1,1,0,0,1,1,1,0,1","",""
"","html-keyboard-response","135","113302","0.0-201.0","3ZOTGHDK5JXWIHT692PDPZRCTPNOSC","A2NXMRPHG86N2T","3A3KKYU7P33Z3BR9PPFZ5194ZCQMWU","","null","<img src=""img/land1.png"" style=""width:200px; border:14px solid green;"">","null","","","","","","","",""
"","image-keyboard-response","136","113967","0.0-203.0","3ZOTGHDK5JXWIHT692PDPZRCTPNOSC","A2NXMRPHG86N2T","3A3KKYU7P33Z3BR9PPFZ5194ZCQMWU","","662.6999999284744","img/land5.png","74","664.1999999284744","1","1","false","1","1,1,0,0,1,1,1,0,1","",""
"","html-keyboard-response","137","114270","0.0-204.0","3ZOTGHDK5JXWIHT692PDPZRCTPNOSC","A2NXMRPHG86N2T","3A3KKYU7P33Z3BR9PPFZ5194ZCQMWU","","null","<img src=""img/land5.png"" style=""width:200px; border:14px solid green;"">","null","","","","","","","",""
"","image-keyboard-response","138","114407","0.0-206.0","3ZOTGHDK5JXWIHT692PDPZRCTPNOSC","A2NXMRPHG86N2T","3A3KKYU7P33Z3BR9PPFZ5194ZCQMWU","","134.20000004768372","img/land1.png","74","135.90000009536743","1","1","false","3","1,1,0,0,1,1,1,0,1","",""
"","html-keyboard-response","139","114711","0.0-207.0","3ZOTGHDK5JXWIHT692PDPZRCTPNOSC","A2NXMRPHG86N2T","3A3KKYU7P33Z3BR9PPFZ5194ZCQMWU","","null","<img src=""img/land1.png"" style=""width:200px; border:14px solid green;"">","null","","","","","","","",""
"","image-keyboard-response","140","114935","0.0-209.0","3ZOTGHDK5JXWIHT692PDPZRCTPNOSC","A2NXMRPHG86N2T","3A3KKYU7P33Z3BR9PPFZ5194ZCQMWU","","221.80000007152557","img/land5.png","74","223.39999997615814","1","1","false","1","1,1,0,0,1,1,1,0,1","",""
"","html-keyboard-response","141","115238","0.0-210.0","3ZOTGHDK5JXWIHT692PDPZRCTPNOSC","A2NXMRPHG86N2T","3A3KKYU7P33Z3BR9PPFZ5194ZCQMWU","","null","<img src=""img/land5.png"" style=""width:200px; border:14px solid green;"">","null","","","","","","","",""
"","image-keyboard-response","142","115535","0.0-212.0","3ZOTGHDK5JXWIHT692PDPZRCTPNOSC","A2NXMRPHG86N2T","3A3KKYU7P33Z3BR9PPFZ5194ZCQMWU","","294.60000002384186","img/land6.png","74","296.2000000476837","1","0","false","2","1,1,0,0,1,1,1,0,1","",""
"","html-keyboard-response","143","115838","0.0-213.0","3ZOTGHDK5JXWIHT692PDPZRCTPNOSC","A2NXMRPHG86N2T","3A3KKYU7P33Z3BR9PPFZ5194ZCQMWU","","null","<img src=""img/land6.png"" style=""width:200px;border:14px solid red;"">","null","","","","","","","",""
"","image-keyboard-response","144","115982","0.0-215.0","3ZOTGHDK5JXWIHT692PDPZRCTPNOSC","A2NXMRPHG86N2T","3A3KKYU7P33Z3BR9PPFZ5194ZCQMWU","","142.39999997615814","img/land1.png","75","144.20000004768372","2","0","false","3","1,1,0,0,1,1,1,0,1","",""
"","html-keyboard-response","145","116288","0.0-216.0","3ZOTGHDK5JXWIHT692PDPZRCTPNOSC","A2NXMRPHG86N2T","3A3KKYU7P33Z3BR9PPFZ5194ZCQMWU","","null","<img src=""img/land1.png"" style=""width:200px;border:14px solid red;"">","null","","","","","","","",""
"","image-keyboard-response","146","116607","0.0-218.0","3ZOTGHDK5JXWIHT692PDPZRCTPNOSC","A2NXMRPHG86N2T","3A3KKYU7P33Z3BR9PPFZ5194ZCQMWU","","316.90000009536743","img/land6.png","74","317.8000000715256","1","0","false","2","1,1,0,0,1,1,1,0,1","",""
"","html-keyboard-response","147","116910","0.0-219.0","3ZOTGHDK5JXWIHT692PDPZRCTPNOSC","A2NXMRPHG86N2T","3A3KKYU7P33Z3BR9PPFZ5194ZCQMWU","","null","<img src=""img/land6.png"" style=""width:200px;border:14px solid red;"">","null","","","","","","","",""
"","image-keyboard-response","148","117599","0.0-221.0","3ZOTGHDK5JXWIHT692PDPZRCTPNOSC","A2NXMRPHG86N2T","3A3KKYU7P33Z3BR9PPFZ5194ZCQMWU","","686.8999999761581","img/land1.png","74","688.3999999761581","1","1","false","3","1,1,0,0,1,1,1,0,1","",""
"","html-keyboard-response","149","117901","0.0-222.0","3ZOTGHDK5JXWIHT692PDPZRCTPNOSC","A2NXMRPHG86N2T","3A3KKYU7P33Z3BR9PPFZ5194ZCQMWU","","null","<img src=""img/land1.png"" style=""width:200px; border:14px solid green;"">","null","","","","","","","",""
"","image-keyboard-response","150","118087","0.0-224.0","3ZOTGHDK5JXWIHT692PDPZRCTPNOSC","A2NXMRPHG86N2T","3A3KKYU7P33Z3BR9PPFZ5194ZCQMWU","","183.19999992847443","img/land1.png","74","184.89999997615814","1","1","false","3","1,1,0,0,1,1,1,0,1","",""
"","html-keyboard-response","151","118391","0.0-225.0","3ZOTGHDK5JXWIHT692PDPZRCTPNOSC","A2NXMRPHG86N2T","3A3KKYU7P33Z3BR9PPFZ5194ZCQMWU","","null","<img src=""img/land1.png"" style=""width:200px; border:14px solid green;"">","null","","","","","","","",""
"","image-keyboard-response","152","118703","0.0-227.0","3ZOTGHDK5JXWIHT692PDPZRCTPNOSC","A2NXMRPHG86N2T","3A3KKYU7P33Z3BR9PPFZ5194ZCQMWU","","310.10000002384186","img/land5.png","74","311.60000002384186","1","1","false","1","1,1,0,0,1,1,1,0,1","",""
"","html-keyboard-response","153","119006","0.0-228.0","3ZOTGHDK5JXWIHT692PDPZRCTPNOSC","A2NXMRPHG86N2T","3A3KKYU7P33Z3BR9PPFZ5194ZCQMWU","","null","<img src=""img/land5.png"" style=""width:200px; border:14px solid green;"">","null","","","","","","","",""
"","image-keyboard-response","154","119247","0.0-230.0","3ZOTGHDK5JXWIHT692PDPZRCTPNOSC","A2NXMRPHG86N2T","3A3KKYU7P33Z3BR9PPFZ5194ZCQMWU","","238.5","img/land1.png","74","240","1","1","false","3","1,1,0,0,1,1,1,0,1","",""
"","html-keyboard-response","155","119550","0.0-231.0","3ZOTGHDK5JXWIHT692PDPZRCTPNOSC","A2NXMRPHG86N2T","3A3KKYU7P33Z3BR9PPFZ5194ZCQMWU","","null","<img src=""img/land1.png"" style=""width:200px; border:14px solid green;"">","null","","","","","","","",""
"","image-keyboard-response","156","119815","0.0-233.0","3ZOTGHDK5JXWIHT692PDPZRCTPNOSC","A2NXMRPHG86N2T","3A3KKYU7P33Z3BR9PPFZ5194ZCQMWU","","262.39999997615814","img/land5.png","74","264.2000000476837","1","1","false","1","1,1,0,0,1,1,1,0,1","",""
"","html-keyboard-response","157","120117","0.0-234.0","3ZOTGHDK5JXWIHT692PDPZRCTPNOSC","A2NXMRPHG86N2T","3A3KKYU7P33Z3BR9PPFZ5194ZCQMWU","","null","<img src=""img/land5.png"" style=""width:200px; border:14px solid green;"">","null","","","","","","","",""
"","image-keyboard-response","158","120360","0.0-236.0","3ZOTGHDK5JXWIHT692PDPZRCTPNOSC","A2NXMRPHG86N2T","3A3KKYU7P33Z3BR9PPFZ5194ZCQMWU","","240","img/land1.png","74","241.79999995231628","1","1","false","3","1,1,0,0,1,1,1,0,1","",""
"","html-keyboard-response","159","120662","0.0-237.0","3ZOTGHDK5JXWIHT692PDPZRCTPNOSC","A2NXMRPHG86N2T","3A3KKYU7P33Z3BR9PPFZ5194ZCQMWU","","null","<img src=""img/land1.png"" style=""width:200px; border:14px solid green;"">","null","","","","","","","",""
"","image-keyboard-response","160","121087","0.0-239.0","3ZOTGHDK5JXWIHT692PDPZRCTPNOSC","A2NXMRPHG86N2T","3A3KKYU7P33Z3BR9PPFZ5194ZCQMWU","","422.7999999523163","img/land5.png","74","424.2999999523163","1","1","false","1","1,1,0,0,1,1,1,0,1","",""
"","html-keyboard-response","161","121390","0.0-240.0","3ZOTGHDK5JXWIHT692PDPZRCTPNOSC","A2NXMRPHG86N2T","3A3KKYU7P33Z3BR9PPFZ5194ZCQMWU","","null","<img src=""img/land5.png"" style=""width:200px; border:14px solid green;"">","null","","","","","","","",""
"","image-keyboard-response","162","121639","0.0-242.0","3ZOTGHDK5JXWIHT692PDPZRCTPNOSC","A2NXMRPHG86N2T","3A3KKYU7P33Z3BR9PPFZ5194ZCQMWU","","246.79999995231628","img/land1.png","74","248.5","1","1","false","3","1,1,0,0,1,1,1,0,1","",""
"","html-keyboard-response","163","121942","0.0-243.0","3ZOTGHDK5JXWIHT692PDPZRCTPNOSC","A2NXMRPHG86N2T","3A3KKYU7P33Z3BR9PPFZ5194ZCQMWU","","null","<img src=""img/land1.png"" style=""width:200px; border:14px solid green;"">","null","","","","","","","",""
"","image-keyboard-response","164","122271","0.0-245.0","3ZOTGHDK5JXWIHT692PDPZRCTPNOSC","A2NXMRPHG86N2T","3A3KKYU7P33Z3BR9PPFZ5194ZCQMWU","","326.5","img/land5.png","74","328.10000002384186","1","1","false","1","1,1,0,0,1,1,1,0,1","",""
"","html-keyboard-response","165","122573","0.0-246.0","3ZOTGHDK5JXWIHT692PDPZRCTPNOSC","A2NXMRPHG86N2T","3A3KKYU7P33Z3BR9PPFZ5194ZCQMWU","","null","<img src=""img/land5.png"" style=""width:200px; border:14px solid green;"">","null","","","","","","","",""
"","image-keyboard-response","166","122895","0.0-248.0","3ZOTGHDK5JXWIHT692PDPZRCTPNOSC","A2NXMRPHG86N2T","3A3KKYU7P33Z3BR9PPFZ5194ZCQMWU","","319.8000000715256","img/land6.png","74","321.5","1","0","false","2","1,1,0,0,1,1,1,0,1","",""
"","html-keyboard-response","167","123199","0.0-249.0","3ZOTGHDK5JXWIHT692PDPZRCTPNOSC","A2NXMRPHG86N2T","3A3KKYU7P33Z3BR9PPFZ5194ZCQMWU","","null","<img src=""img/land6.png"" style=""width:200px;border:14px solid red;"">","null","","","","","","","",""
"","image-keyboard-response","168","123407","0.0-251.0","3ZOTGHDK5JXWIHT692PDPZRCTPNOSC","A2NXMRPHG86N2T","3A3KKYU7P33Z3BR9PPFZ5194ZCQMWU","","205.69999992847443","img/land6.png","75","207.60000002384186","2","1","false","2","1,1,0,0,1,1,1,0,1","",""
"","html-keyboard-response","169","123710","0.0-252.0","3ZOTGHDK5JXWIHT692PDPZRCTPNOSC","A2NXMRPHG86N2T","3A3KKYU7P33Z3BR9PPFZ5194ZCQMWU","","null","<img src=""img/land6.png"" style=""width:200px; border:14px solid green;"">","null","","","","","","","",""
"","image-keyboard-response","170","123903","0.0-254.0","3ZOTGHDK5JXWIHT692PDPZRCTPNOSC","A2NXMRPHG86N2T","3A3KKYU7P33Z3BR9PPFZ5194ZCQMWU","","190.60000002384186","img/land1.png","75","192.20000004768372","2","0","false","3","1,1,0,0,1,1,1,0,1","",""
"","html-keyboard-response","171","124206","0.0-255.0","3ZOTGHDK5JXWIHT692PDPZRCTPNOSC","A2NXMRPHG86N2T","3A3KKYU7P33Z3BR9PPFZ5194ZCQMWU","","null","<img src=""img/land1.png"" style=""width:200px;border:14px solid red;"">","null","","","","","","","",""
"","image-keyboard-response","172","124863","0.0-257.0","3ZOTGHDK5JXWIHT692PDPZRCTPNOSC","A2NXMRPHG86N2T","3A3KKYU7P33Z3BR9PPFZ5194ZCQMWU","","654.3999999761581","img/land6.png","76","656.3000000715256","3","1","false","2","1,1,0,0,1,1,1,0,1","",""
"","html-keyboard-response","173","125166","0.0-258.0","3ZOTGHDK5JXWIHT692PDPZRCTPNOSC","A2NXMRPHG86N2T","3A3KKYU7P33Z3BR9PPFZ5194ZCQMWU","","null","<img src=""img/land6.png"" style=""width:200px; border:14px solid green;"">","null","","","","","","","",""
"","image-keyboard-response","174","125503","0.0-260.0","3ZOTGHDK5JXWIHT692PDPZRCTPNOSC","A2NXMRPHG86N2T","3A3KKYU7P33Z3BR9PPFZ5194ZCQMWU","","334.90000009536743","img/land5.png","75","336.59999990463257","2","1","false","1","1,1,0,0,1,1,1,0,1","",""
"","html-keyboard-response","175","125805","0.0-261.0","3ZOTGHDK5JXWIHT692PDPZRCTPNOSC","A2NXMRPHG86N2T","3A3KKYU7P33Z3BR9PPFZ5194ZCQMWU","","null","<img src=""img/land5.png"" style=""width:200px; border:14px solid green;"">","null","","","","","","","",""
"","image-keyboard-response","176","126014","0.0-263.0","3ZOTGHDK5JXWIHT692PDPZRCTPNOSC","A2NXMRPHG86N2T","3A3KKYU7P33Z3BR9PPFZ5194ZCQMWU","","207.10000002384186","img/land6.png","75","208.60000002384186","2","1","false","2","1,1,0,0,1,1,1,0,1","",""
"","html-keyboard-response","177","126317","0.0-264.0","3ZOTGHDK5JXWIHT692PDPZRCTPNOSC","A2NXMRPHG86N2T","3A3KKYU7P33Z3BR9PPFZ5194ZCQMWU","","null","<img src=""img/land6.png"" style=""width:200px; border:14px solid green;"">","null","","","","","","","",""
"","image-keyboard-response","178","126479","0.0-266.0","3ZOTGHDK5JXWIHT692PDPZRCTPNOSC","A2NXMRPHG86N2T","3A3KKYU7P33Z3BR9PPFZ5194ZCQMWU","","159.5","img/land6.png","75","161.29999995231628","2","1","false","2","1,1,0,0,1,1,1,0,1","",""
"","html-keyboard-response","179","126781","0.0-267.0","3ZOTGHDK5JXWIHT692PDPZRCTPNOSC","A2NXMRPHG86N2T","3A3KKYU7P33Z3BR9PPFZ5194ZCQMWU","","null","<img src=""img/land6.png"" style=""width:200px; border:14px solid green;"">","null","","","","","","","",""
"","image-keyboard-response","180","126958","0.0-269.0","3ZOTGHDK5JXWIHT692PDPZRCTPNOSC","A2NXMRPHG86N2T","3A3KKYU7P33Z3BR9PPFZ5194ZCQMWU","","174.89999997615814","img/land1.png","75","176.60000002384186","2","0","false","3","1,1,0,0,1,1,1,0,1","",""
"","html-keyboard-response","181","127262","0.0-270.0","3ZOTGHDK5JXWIHT692PDPZRCTPNOSC","A2NXMRPHG86N2T","3A3KKYU7P33Z3BR9PPFZ5194ZCQMWU","","null","<img src=""img/land1.png"" style=""width:200px;border:14px solid red;"">","null","","","","","","","",""
"","html-keyboard-response","182","135523","0.0-272.0","3ZOTGHDK5JXWIHT692PDPZRCTPNOSC","A2NXMRPHG86N2T","3A3KKYU7P33Z3BR9PPFZ5194ZCQMWU","","","","","","","","","","","",""
"","image-keyboard-response","183","135815","0.0-273.0","3ZOTGHDK5JXWIHT692PDPZRCTPNOSC","A2NXMRPHG86N2T","3A3KKYU7P33Z3BR9PPFZ5194ZCQMWU","","289.89999997615814","img/land2.png","74","291.89999997615814","1","1","false","2","1,0.5,0.5,0.5,1,0.5,0.5,0.5,1","",""
"","html-keyboard-response","184","136117","0.0-274.0","3ZOTGHDK5JXWIHT692PDPZRCTPNOSC","A2NXMRPHG86N2T","3A3KKYU7P33Z3BR9PPFZ5194ZCQMWU","","null","<img src=""img/land2.png"" style=""width:200px; border:14px solid green;"">","null","","","","","","","",""
"","image-keyboard-response","185","136519","0.0-276.0","3ZOTGHDK5JXWIHT692PDPZRCTPNOSC","A2NXMRPHG86N2T","3A3KKYU7P33Z3BR9PPFZ5194ZCQMWU","","399.10000002384186","img/land3.png","74","400.8000000715256","1","0","false","3","1,0.5,0.5,0.5,1,0.5,0.5,0.5,1","",""
"","html-keyboard-response","186","136822","0.0-277.0","3ZOTGHDK5JXWIHT692PDPZRCTPNOSC","A2NXMRPHG86N2T","3A3KKYU7P33Z3BR9PPFZ5194ZCQMWU","","null","<img src=""img/land3.png"" style=""width:200px;border:14px solid red;"">","null","","","","","","","",""
"","image-keyboard-response","187","137007","0.0-279.0","3ZOTGHDK5JXWIHT692PDPZRCTPNOSC","A2NXMRPHG86N2T","3A3KKYU7P33Z3BR9PPFZ5194ZCQMWU","","182.5","img/land4.png","74","184.39999997615814","1","1","false","1","1,0.5,0.5,0.5,1,0.5,0.5,0.5,1","",""
"","html-keyboard-response","188","137312","0.0-280.0","3ZOTGHDK5JXWIHT692PDPZRCTPNOSC","A2NXMRPHG86N2T","3A3KKYU7P33Z3BR9PPFZ5194ZCQMWU","","null","<img src=""img/land4.png"" style=""width:200px; border:14px solid green;"">","null","","","","","","","",""
"","image-keyboard-response","189","137519","0.0-282.0","3ZOTGHDK5JXWIHT692PDPZRCTPNOSC","A2NXMRPHG86N2T","3A3KKYU7P33Z3BR9PPFZ5194ZCQMWU","","204.5","img/land4.png","74","206.5","1","1","false","1","1,0.5,0.5,0.5,1,0.5,0.5,0.5,1","",""
"","html-keyboard-response","190","137822","0.0-283.0","3ZOTGHDK5JXWIHT692PDPZRCTPNOSC","A2NXMRPHG86N2T","3A3KKYU7P33Z3BR9PPFZ5194ZCQMWU","","null","<img src=""img/land4.png"" style=""width:200px; border:14px solid green;"">","null","","","","","","","",""
"","image-keyboard-response","191","138023","0.0-285.0","3ZOTGHDK5JXWIHT692PDPZRCTPNOSC","A2NXMRPHG86N2T","3A3KKYU7P33Z3BR9PPFZ5194ZCQMWU","","198.80000007152557","img/land2.png","74","200.39999997615814","1","0","false","2","1,0.5,0.5,0.5,1,0.5,0.5,0.5,1","",""
"","html-keyboard-response","192","138325","0.0-286.0","3ZOTGHDK5JXWIHT692PDPZRCTPNOSC","A2NXMRPHG86N2T","3A3KKYU7P33Z3BR9PPFZ5194ZCQMWU","","null","<img src=""img/land2.png"" style=""width:200px;border:14px solid red;"">","null","","","","","","","",""
"","image-keyboard-response","193","138623","0.0-288.0","3ZOTGHDK5JXWIHT692PDPZRCTPNOSC","A2NXMRPHG86N2T","3A3KKYU7P33Z3BR9PPFZ5194ZCQMWU","","294.7000000476837","img/land3.png","74","296.8000000715256","1","0","false","3","1,0.5,0.5,0.5,1,0.5,0.5,0.5,1","",""
"","html-keyboard-response","194","138925","0.0-289.0","3ZOTGHDK5JXWIHT692PDPZRCTPNOSC","A2NXMRPHG86N2T","3A3KKYU7P33Z3BR9PPFZ5194ZCQMWU","","null","<img src=""img/land3.png"" style=""width:200px;border:14px solid red;"">","null","","","","","","","",""
"","image-keyboard-response","195","139159","0.0-291.0","3ZOTGHDK5JXWIHT692PDPZRCTPNOSC","A2NXMRPHG86N2T","3A3KKYU7P33Z3BR9PPFZ5194ZCQMWU","","231.70000004768372","img/land2.png","74","233.20000004768372","1","0","false","2","1,0.5,0.5,0.5,1,0.5,0.5,0.5,1","",""
"","html-keyboard-response","196","139463","0.0-292.0","3ZOTGHDK5JXWIHT692PDPZRCTPNOSC","A2NXMRPHG86N2T","3A3KKYU7P33Z3BR9PPFZ5194ZCQMWU","","null","<img src=""img/land2.png"" style=""width:200px;border:14px solid red;"">","null","","","","","","","",""
"","image-keyboard-response","197","139663","0.0-294.0","3ZOTGHDK5JXWIHT692PDPZRCTPNOSC","A2NXMRPHG86N2T","3A3KKYU7P33Z3BR9PPFZ5194ZCQMWU","","197.89999997615814","img/land4.png","74","199.70000004768372","1","1","false","1","1,0.5,0.5,0.5,1,0.5,0.5,0.5,1","",""
"","html-keyboard-response","198","139966","0.0-295.0","3ZOTGHDK5JXWIHT692PDPZRCTPNOSC","A2NXMRPHG86N2T","3A3KKYU7P33Z3BR9PPFZ5194ZCQMWU","","null","<img src=""img/land4.png"" style=""width:200px; border:14px solid green;"">","null","","","","","","","",""
"","image-keyboard-response","199","140135","0.0-297.0","3ZOTGHDK5JXWIHT692PDPZRCTPNOSC","A2NXMRPHG86N2T","3A3KKYU7P33Z3BR9PPFZ5194ZCQMWU","","166.39999997615814","img/land3.png","74","168","1","0","false","3","1,0.5,0.5,0.5,1,0.5,0.5,0.5,1","",""
"","html-keyboard-response","200","140438","0.0-298.0","3ZOTGHDK5JXWIHT692PDPZRCTPNOSC","A2NXMRPHG86N2T","3A3KKYU7P33Z3BR9PPFZ5194ZCQMWU","","null","<img src=""img/land3.png"" style=""width:200px;border:14px solid red;"">","null","","","","","","","",""
"","image-keyboard-response","201","140742","0.0-300.0","3ZOTGHDK5JXWIHT692PDPZRCTPNOSC","A2NXMRPHG86N2T","3A3KKYU7P33Z3BR9PPFZ5194ZCQMWU","","302.3000000715256","img/land2.png","74","303.7000000476837","1","0","false","2","1,0.5,0.5,0.5,1,0.5,0.5,0.5,1","",""
"","html-keyboard-response","202","141045","0.0-301.0","3ZOTGHDK5JXWIHT692PDPZRCTPNOSC","A2NXMRPHG86N2T","3A3KKYU7P33Z3BR9PPFZ5194ZCQMWU","","null","<img src=""img/land2.png"" style=""width:200px;border:14px solid red;"">","null","","","","","","","",""
"","image-keyboard-response","203","141342","0.0-303.0","3ZOTGHDK5JXWIHT692PDPZRCTPNOSC","A2NXMRPHG86N2T","3A3KKYU7P33Z3BR9PPFZ5194ZCQMWU","","294.2000000476837","img/land4.png","74","296.10000002384186","1","1","false","1","1,0.5,0.5,0.5,1,0.5,0.5,0.5,1","",""
"","html-keyboard-response","204","141646","0.0-304.0","3ZOTGHDK5JXWIHT692PDPZRCTPNOSC","A2NXMRPHG86N2T","3A3KKYU7P33Z3BR9PPFZ5194ZCQMWU","","null","<img src=""img/land4.png"" style=""width:200px; border:14px solid green;"">","null","","","","","","","",""
"","image-keyboard-response","205","141855","0.0-306.0","3ZOTGHDK5JXWIHT692PDPZRCTPNOSC","A2NXMRPHG86N2T","3A3KKYU7P33Z3BR9PPFZ5194ZCQMWU","","206.60000002384186","img/land3.png","74","208.09999990463257","1","0","false","3","1,0.5,0.5,0.5,1,0.5,0.5,0.5,1","",""
"","html-keyboard-response","206","142158","0.0-307.0","3ZOTGHDK5JXWIHT692PDPZRCTPNOSC","A2NXMRPHG86N2T","3A3KKYU7P33Z3BR9PPFZ5194ZCQMWU","","null","<img src=""img/land3.png"" style=""width:200px;border:14px solid red;"">","null","","","","","","","",""
"","image-keyboard-response","207","142374","0.0-309.0","3ZOTGHDK5JXWIHT692PDPZRCTPNOSC","A2NXMRPHG86N2T","3A3KKYU7P33Z3BR9PPFZ5194ZCQMWU","","214","img/land4.png","74","215.79999995231628","1","1","false","1","1,0.5,0.5,0.5,1,0.5,0.5,0.5,1","",""
"","html-keyboard-response","208","142678","0.0-310.0","3ZOTGHDK5JXWIHT692PDPZRCTPNOSC","A2NXMRPHG86N2T","3A3KKYU7P33Z3BR9PPFZ5194ZCQMWU","","null","<img src=""img/land4.png"" style=""width:200px; border:14px solid green;"">","null","","","","","","","",""
"","image-keyboard-response","209","142935","0.0-312.0","3ZOTGHDK5JXWIHT692PDPZRCTPNOSC","A2NXMRPHG86N2T","3A3KKYU7P33Z3BR9PPFZ5194ZCQMWU","","254","img/land4.png","74","255.69999992847443","1","1","false","1","1,0.5,0.5,0.5,1,0.5,0.5,0.5,1","",""
"","html-keyboard-response","210","143238","0.0-313.0","3ZOTGHDK5JXWIHT692PDPZRCTPNOSC","A2NXMRPHG86N2T","3A3KKYU7P33Z3BR9PPFZ5194ZCQMWU","","null","<img src=""img/land4.png"" style=""width:200px; border:14px solid green;"">","null","","","","","","","",""
"","image-keyboard-response","211","143447","0.0-315.0","3ZOTGHDK5JXWIHT692PDPZRCTPNOSC","A2NXMRPHG86N2T","3A3KKYU7P33Z3BR9PPFZ5194ZCQMWU","","206.19999992847443","img/land3.png","74","207.69999992847443","1","0","false","3","1,0.5,0.5,0.5,1,0.5,0.5,0.5,1","",""
"","html-keyboard-response","212","143750","0.0-316.0","3ZOTGHDK5JXWIHT692PDPZRCTPNOSC","A2NXMRPHG86N2T","3A3KKYU7P33Z3BR9PPFZ5194ZCQMWU","","null","<img src=""img/land3.png"" style=""width:200px;border:14px solid red;"">","null","","","","","","","",""
"","image-keyboard-response","213","144054","0.0-318.0","3ZOTGHDK5JXWIHT692PDPZRCTPNOSC","A2NXMRPHG86N2T","3A3KKYU7P33Z3BR9PPFZ5194ZCQMWU","","302.60000002384186","img/land3.png","74","304.39999997615814","1","1","false","3","1,0.5,0.5,0.5,1,0.5,0.5,0.5,1","",""
"","html-keyboard-response","214","144357","0.0-319.0","3ZOTGHDK5JXWIHT692PDPZRCTPNOSC","A2NXMRPHG86N2T","3A3KKYU7P33Z3BR9PPFZ5194ZCQMWU","","null","<img src=""img/land3.png"" style=""width:200px; border:14px solid green;"">","null","","","","","","","",""
"","image-keyboard-response","215","144495","0.0-321.0","3ZOTGHDK5JXWIHT692PDPZRCTPNOSC","A2NXMRPHG86N2T","3A3KKYU7P33Z3BR9PPFZ5194ZCQMWU","","135.5","img/land4.png","75","137.10000002384186","2","1","false","1","1,0.5,0.5,0.5,1,0.5,0.5,0.5,1","",""
"","html-keyboard-response","216","144797","0.0-322.0","3ZOTGHDK5JXWIHT692PDPZRCTPNOSC","A2NXMRPHG86N2T","3A3KKYU7P33Z3BR9PPFZ5194ZCQMWU","","null","<img src=""img/land4.png"" style=""width:200px; border:14px solid green;"">","null","","","","","","","",""
"","image-keyboard-response","217","145078","0.0-324.0","3ZOTGHDK5JXWIHT692PDPZRCTPNOSC","A2NXMRPHG86N2T","3A3KKYU7P33Z3BR9PPFZ5194ZCQMWU","","279.39999997615814","img/land2.png","75","281","2","1","false","2","1,0.5,0.5,0.5,1,0.5,0.5,0.5,1","",""
"","html-keyboard-response","218","145382","0.0-325.0","3ZOTGHDK5JXWIHT692PDPZRCTPNOSC","A2NXMRPHG86N2T","3A3KKYU7P33Z3BR9PPFZ5194ZCQMWU","","null","<img src=""img/land2.png"" style=""width:200px; border:14px solid green;"">","null","","","","","","","",""
"","image-keyboard-response","219","145663","0.0-327.0","3ZOTGHDK5JXWIHT692PDPZRCTPNOSC","A2NXMRPHG86N2T","3A3KKYU7P33Z3BR9PPFZ5194ZCQMWU","","278.89999997615814","img/land2.png","75","280.7999999523163","2","1","false","2","1,0.5,0.5,0.5,1,0.5,0.5,0.5,1","",""
"","html-keyboard-response","220","145965","0.0-328.0","3ZOTGHDK5JXWIHT692PDPZRCTPNOSC","A2NXMRPHG86N2T","3A3KKYU7P33Z3BR9PPFZ5194ZCQMWU","","null","<img src=""img/land2.png"" style=""width:200px; border:14px solid green;"">","null","","","","","","","",""
"","image-keyboard-response","221","146190","0.0-330.0","3ZOTGHDK5JXWIHT692PDPZRCTPNOSC","A2NXMRPHG86N2T","3A3KKYU7P33Z3BR9PPFZ5194ZCQMWU","","222.70000004768372","img/land3.png","75","224.30000007152557","2","1","false","3","1,0.5,0.5,0.5,1,0.5,0.5,0.5,1","",""
"","html-keyboard-response","222","146493","0.0-331.0","3ZOTGHDK5JXWIHT692PDPZRCTPNOSC","A2NXMRPHG86N2T","3A3KKYU7P33Z3BR9PPFZ5194ZCQMWU","","null","<img src=""img/land3.png"" style=""width:200px; border:14px solid green;"">","null","","","","","","","",""
"","image-keyboard-response","223","146702","0.0-333.0","3ZOTGHDK5JXWIHT692PDPZRCTPNOSC","A2NXMRPHG86N2T","3A3KKYU7P33Z3BR9PPFZ5194ZCQMWU","","207.80000007152557","img/land4.png","75","208.90000009536743","2","0","false","1","1,0.5,0.5,0.5,1,0.5,0.5,0.5,1","",""
"","html-keyboard-response","224","147004","0.0-334.0","3ZOTGHDK5JXWIHT692PDPZRCTPNOSC","A2NXMRPHG86N2T","3A3KKYU7P33Z3BR9PPFZ5194ZCQMWU","","null","<img src=""img/land4.png"" style=""width:200px;border:14px solid red;"">","null","","","","","","","",""
"","image-keyboard-response","225","147270","0.0-336.0","3ZOTGHDK5JXWIHT692PDPZRCTPNOSC","A2NXMRPHG86N2T","3A3KKYU7P33Z3BR9PPFZ5194ZCQMWU","","263.60000002384186","img/land2.png","75","265.39999997615814","2","1","false","2","1,0.5,0.5,0.5,1,0.5,0.5,0.5,1","",""
"","html-keyboard-response","226","147573","0.0-337.0","3ZOTGHDK5JXWIHT692PDPZRCTPNOSC","A2NXMRPHG86N2T","3A3KKYU7P33Z3BR9PPFZ5194ZCQMWU","","null","<img src=""img/land2.png"" style=""width:200px; border:14px solid green;"">","null","","","","","","","",""
"","image-keyboard-response","227","147822","0.0-339.0","3ZOTGHDK5JXWIHT692PDPZRCTPNOSC","A2NXMRPHG86N2T","3A3KKYU7P33Z3BR9PPFZ5194ZCQMWU","","247.70000004768372","img/land4.png","74","249.20000004768372","1","1","false","1","1,0.5,0.5,0.5,1,0.5,0.5,0.5,1","",""
"","html-keyboard-response","228","148125","0.0-340.0","3ZOTGHDK5JXWIHT692PDPZRCTPNOSC","A2NXMRPHG86N2T","3A3KKYU7P33Z3BR9PPFZ5194ZCQMWU","","null","<img src=""img/land4.png"" style=""width:200px; border:14px solid green;"">","null","","","","","","","",""
"","image-keyboard-response","229","148335","0.0-342.0","3ZOTGHDK5JXWIHT692PDPZRCTPNOSC","A2NXMRPHG86N2T","3A3KKYU7P33Z3BR9PPFZ5194ZCQMWU","","206.89999997615814","img/land4.png","74","208.89999997615814","1","1","false","1","1,0.5,0.5,0.5,1,0.5,0.5,0.5,1","",""
"","html-keyboard-response","230","148638","0.0-343.0","3ZOTGHDK5JXWIHT692PDPZRCTPNOSC","A2NXMRPHG86N2T","3A3KKYU7P33Z3BR9PPFZ5194ZCQMWU","","null","<img src=""img/land4.png"" style=""width:200px; border:14px solid green;"">","null","","","","","","","",""
"","image-keyboard-response","231","148838","0.0-345.0","3ZOTGHDK5JXWIHT692PDPZRCTPNOSC","A2NXMRPHG86N2T","3A3KKYU7P33Z3BR9PPFZ5194ZCQMWU","","197.60000002384186","img/land3.png","74","199.20000004768372","1","0","false","3","1,0.5,0.5,0.5,1,0.5,0.5,0.5,1","",""
"","html-keyboard-response","232","149141","0.0-346.0","3ZOTGHDK5JXWIHT692PDPZRCTPNOSC","A2NXMRPHG86N2T","3A3KKYU7P33Z3BR9PPFZ5194ZCQMWU","","null","<img src=""img/land3.png"" style=""width:200px;border:14px solid red;"">","null","","","","","","","",""
"","image-keyboard-response","233","149391","0.0-348.0","3ZOTGHDK5JXWIHT692PDPZRCTPNOSC","A2NXMRPHG86N2T","3A3KKYU7P33Z3BR9PPFZ5194ZCQMWU","","247.5","img/land3.png","74","249.39999997615814","1","1","false","3","1,0.5,0.5,0.5,1,0.5,0.5,0.5,1","",""
"","html-keyboard-response","234","149693","0.0-349.0","3ZOTGHDK5JXWIHT692PDPZRCTPNOSC","A2NXMRPHG86N2T","3A3KKYU7P33Z3BR9PPFZ5194ZCQMWU","","null","<img src=""img/land3.png"" style=""width:200px; border:14px solid green;"">","null","","","","","","","",""
"","image-keyboard-response","235","149783","0.0-351.0","3ZOTGHDK5JXWIHT692PDPZRCTPNOSC","A2NXMRPHG86N2T","3A3KKYU7P33Z3BR9PPFZ5194ZCQMWU","","87.40000009536743","img/land2.png","75","89.20000004768372","2","1","false","2","1,0.5,0.5,0.5,1,0.5,0.5,0.5,1","",""
"","html-keyboard-response","236","150086","0.0-352.0","3ZOTGHDK5JXWIHT692PDPZRCTPNOSC","A2NXMRPHG86N2T","3A3KKYU7P33Z3BR9PPFZ5194ZCQMWU","","null","<img src=""img/land2.png"" style=""width:200px; border:14px solid green;"">","null","","","","","","","",""
"","image-keyboard-response","237","150286","0.0-354.0","3ZOTGHDK5JXWIHT692PDPZRCTPNOSC","A2NXMRPHG86N2T","3A3KKYU7P33Z3BR9PPFZ5194ZCQMWU","","198.70000004768372","img/land4.png","75","200.39999997615814","2","1","false","1","1,0.5,0.5,0.5,1,0.5,0.5,0.5,1","",""
"","html-keyboard-response","238","150589","0.0-355.0","3ZOTGHDK5JXWIHT692PDPZRCTPNOSC","A2NXMRPHG86N2T","3A3KKYU7P33Z3BR9PPFZ5194ZCQMWU","","null","<img src=""img/land4.png"" style=""width:200px; border:14px solid green;"">","null","","","","","","","",""
"","image-keyboard-response","239","150798","0.0-357.0","3ZOTGHDK5JXWIHT692PDPZRCTPNOSC","A2NXMRPHG86N2T","3A3KKYU7P33Z3BR9PPFZ5194ZCQMWU","","206.90000009536743","img/land4.png","75","208.30000007152557","2","0","false","1","1,0.5,0.5,0.5,1,0.5,0.5,0.5,1","",""
"","html-keyboard-response","240","151101","0.0-358.0","3ZOTGHDK5JXWIHT692PDPZRCTPNOSC","A2NXMRPHG86N2T","3A3KKYU7P33Z3BR9PPFZ5194ZCQMWU","","null","<img src=""img/land4.png"" style=""width:200px;border:14px solid red;"">","null","","","","","","","",""
"","image-keyboard-response","241","151270","0.0-360.0","3ZOTGHDK5JXWIHT692PDPZRCTPNOSC","A2NXMRPHG86N2T","3A3KKYU7P33Z3BR9PPFZ5194ZCQMWU","","166.70000004768372","img/land2.png","75","168.20000004768372","2","1","false","2","1,0.5,0.5,0.5,1,0.5,0.5,0.5,1","",""
"","html-keyboard-response","242","151573","0.0-361.0","3ZOTGHDK5JXWIHT692PDPZRCTPNOSC","A2NXMRPHG86N2T","3A3KKYU7P33Z3BR9PPFZ5194ZCQMWU","","null","<img src=""img/land2.png"" style=""width:200px; border:14px solid green;"">","null","","","","","","","",""
"","image-keyboard-response","243","151798","0.0-363.0","3ZOTGHDK5JXWIHT692PDPZRCTPNOSC","A2NXMRPHG86N2T","3A3KKYU7P33Z3BR9PPFZ5194ZCQMWU","","223.30000007152557","img/land4.png","75","225.10000002384186","2","0","false","1","1,0.5,0.5,0.5,1,0.5,0.5,0.5,1","",""
"","html-keyboard-response","244","152102","0.0-364.0","3ZOTGHDK5JXWIHT692PDPZRCTPNOSC","A2NXMRPHG86N2T","3A3KKYU7P33Z3BR9PPFZ5194ZCQMWU","","null","<img src=""img/land4.png"" style=""width:200px;border:14px solid red;"">","null","","","","","","","",""
"","image-keyboard-response","245","152254","0.0-366.0","3ZOTGHDK5JXWIHT692PDPZRCTPNOSC","A2NXMRPHG86N2T","3A3KKYU7P33Z3BR9PPFZ5194ZCQMWU","","149.5","img/land2.png","75","150.79999995231628","2","1","false","2","1,0.5,0.5,0.5,1,0.5,0.5,0.5,1","",""
"","html-keyboard-response","246","152556","0.0-367.0","3ZOTGHDK5JXWIHT692PDPZRCTPNOSC","A2NXMRPHG86N2T","3A3KKYU7P33Z3BR9PPFZ5194ZCQMWU","","null","<img src=""img/land2.png"" style=""width:200px; border:14px solid green;"">","null","","","","","","","",""
"","image-keyboard-response","247","152775","0.0-369.0","3ZOTGHDK5JXWIHT692PDPZRCTPNOSC","A2NXMRPHG86N2T","3A3KKYU7P33Z3BR9PPFZ5194ZCQMWU","","216","img/land2.png","76","217.60000002384186","3","0","false","2","1,0.5,0.5,0.5,1,0.5,0.5,0.5,1","",""
"","html-keyboard-response","248","153077","0.0-370.0","3ZOTGHDK5JXWIHT692PDPZRCTPNOSC","A2NXMRPHG86N2T","3A3KKYU7P33Z3BR9PPFZ5194ZCQMWU","","null","<img src=""img/land2.png"" style=""width:200px;border:14px solid red;"">","null","","","","","","","",""
"","image-keyboard-response","249","153207","0.0-372.0","3ZOTGHDK5JXWIHT692PDPZRCTPNOSC","A2NXMRPHG86N2T","3A3KKYU7P33Z3BR9PPFZ5194ZCQMWU","","127.39999997615814","img/land2.png","76","129.10000002384186","3","0","false","2","1,0.5,0.5,0.5,1,0.5,0.5,0.5,1","",""
"","html-keyboard-response","250","153510","0.0-373.0","3ZOTGHDK5JXWIHT692PDPZRCTPNOSC","A2NXMRPHG86N2T","3A3KKYU7P33Z3BR9PPFZ5194ZCQMWU","","null","<img src=""img/land2.png"" style=""width:200px;border:14px solid red;"">","null","","","","","","","",""
"","image-keyboard-response","251","153759","0.0-375.0","3ZOTGHDK5JXWIHT692PDPZRCTPNOSC","A2NXMRPHG86N2T","3A3KKYU7P33Z3BR9PPFZ5194ZCQMWU","","246.79999995231628","img/land4.png","74","248.29999995231628","1","1","false","1","1,0.5,0.5,0.5,1,0.5,0.5,0.5,1","",""
"","html-keyboard-response","252","154062","0.0-376.0","3ZOTGHDK5JXWIHT692PDPZRCTPNOSC","A2NXMRPHG86N2T","3A3KKYU7P33Z3BR9PPFZ5194ZCQMWU","","null","<img src=""img/land4.png"" style=""width:200px; border:14px solid green;"">","null","","","","","","","",""
"","image-keyboard-response","253","154230","0.0-378.0","3ZOTGHDK5JXWIHT692PDPZRCTPNOSC","A2NXMRPHG86N2T","3A3KKYU7P33Z3BR9PPFZ5194ZCQMWU","","165.39999997615814","img/land2.png","74","167.20000004768372","1","0","false","2","1,0.5,0.5,0.5,1,0.5,0.5,0.5,1","",""
"","html-keyboard-response","254","154533","0.0-379.0","3ZOTGHDK5JXWIHT692PDPZRCTPNOSC","A2NXMRPHG86N2T","3A3KKYU7P33Z3BR9PPFZ5194ZCQMWU","","null","<img src=""img/land2.png"" style=""width:200px;border:14px solid red;"">","null","","","","","","","",""
"","image-keyboard-response","255","154654","0.0-381.0","3ZOTGHDK5JXWIHT692PDPZRCTPNOSC","A2NXMRPHG86N2T","3A3KKYU7P33Z3BR9PPFZ5194ZCQMWU","","119.30000007152557","img/land2.png","74","120.90000009536743","1","0","false","2","1,0.5,0.5,0.5,1,0.5,0.5,0.5,1","",""
"","html-keyboard-response","256","154957","0.0-382.0","3ZOTGHDK5JXWIHT692PDPZRCTPNOSC","A2NXMRPHG86N2T","3A3KKYU7P33Z3BR9PPFZ5194ZCQMWU","","null","<img src=""img/land2.png"" style=""width:200px;border:14px solid red;"">","null","","","","","","","",""
"","image-keyboard-response","257","155254","0.0-384.0","3ZOTGHDK5JXWIHT692PDPZRCTPNOSC","A2NXMRPHG86N2T","3A3KKYU7P33Z3BR9PPFZ5194ZCQMWU","","294.89999997615814","img/land2.png","74","296.1999999284744","1","1","false","2","1,0.5,0.5,0.5,1,0.5,0.5,0.5,1","",""
"","html-keyboard-response","258","155556","0.0-385.0","3ZOTGHDK5JXWIHT692PDPZRCTPNOSC","A2NXMRPHG86N2T","3A3KKYU7P33Z3BR9PPFZ5194ZCQMWU","","null","<img src=""img/land2.png"" style=""width:200px; border:14px solid green;"">","null","","","","","","","",""
"","image-keyboard-response","259","155831","0.0-387.0","3ZOTGHDK5JXWIHT692PDPZRCTPNOSC","A2NXMRPHG86N2T","3A3KKYU7P33Z3BR9PPFZ5194ZCQMWU","","272.2000000476837","img/land3.png","74","273.90000009536743","1","0","false","3","1,0.5,0.5,0.5,1,0.5,0.5,0.5,1","",""
"","html-keyboard-response","260","156144","0.0-388.0","3ZOTGHDK5JXWIHT692PDPZRCTPNOSC","A2NXMRPHG86N2T","3A3KKYU7P33Z3BR9PPFZ5194ZCQMWU","","null","<img src=""img/land3.png"" style=""width:200px;border:14px solid red;"">","null","","","","","","","",""
"","image-keyboard-response","261","156471","0.0-390.0","3ZOTGHDK5JXWIHT692PDPZRCTPNOSC","A2NXMRPHG86N2T","3A3KKYU7P33Z3BR9PPFZ5194ZCQMWU","","323","img/land2.png","74","324.8000000715256","1","1","false","2","1,0.5,0.5,0.5,1,0.5,0.5,0.5,1","",""
"","html-keyboard-response","262","156774","0.0-391.0","3ZOTGHDK5JXWIHT692PDPZRCTPNOSC","A2NXMRPHG86N2T","3A3KKYU7P33Z3BR9PPFZ5194ZCQMWU","","null","<img src=""img/land2.png"" style=""width:200px; border:14px solid green;"">","null","","","","","","","",""
"","image-keyboard-response","263","157062","0.0-393.0","3ZOTGHDK5JXWIHT692PDPZRCTPNOSC","A2NXMRPHG86N2T","3A3KKYU7P33Z3BR9PPFZ5194ZCQMWU","","286.10000002384186","img/land4.png","74","287.89999997615814","1","1","false","1","1,0.5,0.5,0.5,1,0.5,0.5,0.5,1","",""
"","html-keyboard-response","264","157366","0.0-394.0","3ZOTGHDK5JXWIHT692PDPZRCTPNOSC","A2NXMRPHG86N2T","3A3KKYU7P33Z3BR9PPFZ5194ZCQMWU","","null","<img src=""img/land4.png"" style=""width:200px; border:14px solid green;"">","null","","","","","","","",""
"","image-keyboard-response","265","157672","0.0-396.0","3ZOTGHDK5JXWIHT692PDPZRCTPNOSC","A2NXMRPHG86N2T","3A3KKYU7P33Z3BR9PPFZ5194ZCQMWU","","303.6999999284744","img/land2.png","74","305.60000002384186","1","0","false","2","1,0.5,0.5,0.5,1,0.5,0.5,0.5,1","",""
"","html-keyboard-response","266","157975","0.0-397.0","3ZOTGHDK5JXWIHT692PDPZRCTPNOSC","A2NXMRPHG86N2T","3A3KKYU7P33Z3BR9PPFZ5194ZCQMWU","","null","<img src=""img/land2.png"" style=""width:200px;border:14px solid red;"">","null","","","","","","","",""
"","image-keyboard-response","267","158183","0.0-399.0","3ZOTGHDK5JXWIHT692PDPZRCTPNOSC","A2NXMRPHG86N2T","3A3KKYU7P33Z3BR9PPFZ5194ZCQMWU","","205.80000007152557","img/land3.png","75","207.5","2","1","false","3","1,0.5,0.5,0.5,1,0.5,0.5,0.5,1","",""
"","html-keyboard-response","268","158487","0.0-400.0","3ZOTGHDK5JXWIHT692PDPZRCTPNOSC","A2NXMRPHG86N2T","3A3KKYU7P33Z3BR9PPFZ5194ZCQMWU","","null","<img src=""img/land3.png"" style=""width:200px; border:14px solid green;"">","null","","","","","","","",""
"","image-keyboard-response","269","158823","0.0-402.0","3ZOTGHDK5JXWIHT692PDPZRCTPNOSC","A2NXMRPHG86N2T","3A3KKYU7P33Z3BR9PPFZ5194ZCQMWU","","333.39999997615814","img/land3.png","74","334.89999997615814","1","1","false","3","1,0.5,0.5,0.5,1,0.5,0.5,0.5,1","",""
"","html-keyboard-response","270","159126","0.0-403.0","3ZOTGHDK5JXWIHT692PDPZRCTPNOSC","A2NXMRPHG86N2T","3A3KKYU7P33Z3BR9PPFZ5194ZCQMWU","","null","<img src=""img/land3.png"" style=""width:200px; border:14px solid green;"">","null","","","","","","","",""
"","image-keyboard-response","271","159479","0.0-405.0","3ZOTGHDK5JXWIHT692PDPZRCTPNOSC","A2NXMRPHG86N2T","3A3KKYU7P33Z3BR9PPFZ5194ZCQMWU","","350.59999990463257","img/land3.png","75","352.1999999284744","2","0","false","3","1,0.5,0.5,0.5,1,0.5,0.5,0.5,1","",""
"","html-keyboard-response","272","159782","0.0-406.0","3ZOTGHDK5JXWIHT692PDPZRCTPNOSC","A2NXMRPHG86N2T","3A3KKYU7P33Z3BR9PPFZ5194ZCQMWU","","null","<img src=""img/land3.png"" style=""width:200px;border:14px solid red;"">","null","","","","","","","",""
"","image-keyboard-response","273","159943","0.0-408.0","3ZOTGHDK5JXWIHT692PDPZRCTPNOSC","A2NXMRPHG86N2T","3A3KKYU7P33Z3BR9PPFZ5194ZCQMWU","","158.29999995231628","img/land3.png","75","160.10000002384186","2","0","false","3","1,0.5,0.5,0.5,1,0.5,0.5,0.5,1","",""
"","html-keyboard-response","274","160245","0.0-409.0","3ZOTGHDK5JXWIHT692PDPZRCTPNOSC","A2NXMRPHG86N2T","3A3KKYU7P33Z3BR9PPFZ5194ZCQMWU","","null","<img src=""img/land3.png"" style=""width:200px;border:14px solid red;"">","null","","","","","","","",""
"","image-keyboard-response","275","160935","0.0-411.0","3ZOTGHDK5JXWIHT692PDPZRCTPNOSC","A2NXMRPHG86N2T","3A3KKYU7P33Z3BR9PPFZ5194ZCQMWU","","687.2999999523163","img/land4.png","74","689.1000000238419","1","1","false","1","1,0.5,0.5,0.5,1,0.5,0.5,0.5,1","",""
"","html-keyboard-response","276","161238","0.0-412.0","3ZOTGHDK5JXWIHT692PDPZRCTPNOSC","A2NXMRPHG86N2T","3A3KKYU7P33Z3BR9PPFZ5194ZCQMWU","","null","<img src=""img/land4.png"" style=""width:200px; border:14px solid green;"">","null","","","","","","","",""
"","image-keyboard-response","277","161430","0.0-414.0","3ZOTGHDK5JXWIHT692PDPZRCTPNOSC","A2NXMRPHG86N2T","3A3KKYU7P33Z3BR9PPFZ5194ZCQMWU","","190","img/land3.png","74","191.59999990463257","1","1","false","3","1,0.5,0.5,0.5,1,0.5,0.5,0.5,1","",""
"","html-keyboard-response","278","161733","0.0-415.0","3ZOTGHDK5JXWIHT692PDPZRCTPNOSC","A2NXMRPHG86N2T","3A3KKYU7P33Z3BR9PPFZ5194ZCQMWU","","null","<img src=""img/land3.png"" style=""width:200px; border:14px solid green;"">","null","","","","","","","",""
"","image-keyboard-response","279","162015","0.0-417.0","3ZOTGHDK5JXWIHT692PDPZRCTPNOSC","A2NXMRPHG86N2T","3A3KKYU7P33Z3BR9PPFZ5194ZCQMWU","","279","img/land3.png","74","280.60000002384186","1","1","false","3","1,0.5,0.5,0.5,1,0.5,0.5,0.5,1","",""
"","html-keyboard-response","280","162318","0.0-418.0","3ZOTGHDK5JXWIHT692PDPZRCTPNOSC","A2NXMRPHG86N2T","3A3KKYU7P33Z3BR9PPFZ5194ZCQMWU","","null","<img src=""img/land3.png"" style=""width:200px; border:14px solid green;"">","null","","","","","","","",""
"","image-keyboard-response","281","162582","0.0-420.0","3ZOTGHDK5JXWIHT692PDPZRCTPNOSC","A2NXMRPHG86N2T","3A3KKYU7P33Z3BR9PPFZ5194ZCQMWU","","262.2999999523163","img/land3.png","74","263.5","1","1","false","3","1,0.5,0.5,0.5,1,0.5,0.5,0.5,1","",""
"","html-keyboard-response","282","162884","0.0-421.0","3ZOTGHDK5JXWIHT692PDPZRCTPNOSC","A2NXMRPHG86N2T","3A3KKYU7P33Z3BR9PPFZ5194ZCQMWU","","null","<img src=""img/land3.png"" style=""width:200px; border:14px solid green;"">","null","","","","","","","",""
"","image-keyboard-response","283","163134","0.0-423.0","3ZOTGHDK5JXWIHT692PDPZRCTPNOSC","A2NXMRPHG86N2T","3A3KKYU7P33Z3BR9PPFZ5194ZCQMWU","","248.40000009536743","img/land3.png","74","250.19999992847443","1","0","false","3","1,0.5,0.5,0.5,1,0.5,0.5,0.5,1","",""
"","html-keyboard-response","284","163438","0.0-424.0","3ZOTGHDK5JXWIHT692PDPZRCTPNOSC","A2NXMRPHG86N2T","3A3KKYU7P33Z3BR9PPFZ5194ZCQMWU","","null","<img src=""img/land3.png"" style=""width:200px;border:14px solid red;"">","null","","","","","","","",""
"","image-keyboard-response","285","163759","0.0-426.0","3ZOTGHDK5JXWIHT692PDPZRCTPNOSC","A2NXMRPHG86N2T","3A3KKYU7P33Z3BR9PPFZ5194ZCQMWU","","318.3000000715256","img/land3.png","74","320.10000002384186","1","0","false","3","1,0.5,0.5,0.5,1,0.5,0.5,0.5,1","",""
"","html-keyboard-response","286","164061","0.0-427.0","3ZOTGHDK5JXWIHT692PDPZRCTPNOSC","A2NXMRPHG86N2T","3A3KKYU7P33Z3BR9PPFZ5194ZCQMWU","","null","<img src=""img/land3.png"" style=""width:200px;border:14px solid red;"">","null","","","","","","","",""
"","image-keyboard-response","287","164246","0.0-429.0","3ZOTGHDK5JXWIHT692PDPZRCTPNOSC","A2NXMRPHG86N2T","3A3KKYU7P33Z3BR9PPFZ5194ZCQMWU","","182.60000002384186","img/land2.png","76","184.20000004768372","3","1","false","2","1,0.5,0.5,0.5,1,0.5,0.5,0.5,1","",""
"","html-keyboard-response","288","164550","0.0-430.0","3ZOTGHDK5JXWIHT692PDPZRCTPNOSC","A2NXMRPHG86N2T","3A3KKYU7P33Z3BR9PPFZ5194ZCQMWU","","null","<img src=""img/land2.png"" style=""width:200px; border:14px solid green;"">","null","","","","","","","",""
"","image-keyboard-response","289","164799","0.0-432.0","3ZOTGHDK5JXWIHT692PDPZRCTPNOSC","A2NXMRPHG86N2T","3A3KKYU7P33Z3BR9PPFZ5194ZCQMWU","","246.59999990463257","img/land3.png","76","248.39999997615814","3","1","false","3","1,0.5,0.5,0.5,1,0.5,0.5,0.5,1","",""
"","html-keyboard-response","290","165102","0.0-433.0","3ZOTGHDK5JXWIHT692PDPZRCTPNOSC","A2NXMRPHG86N2T","3A3KKYU7P33Z3BR9PPFZ5194ZCQMWU","","null","<img src=""img/land3.png"" style=""width:200px; border:14px solid green;"">","null","","","","","","","",""
"","image-keyboard-response","291","165422","0.0-435.0","3ZOTGHDK5JXWIHT692PDPZRCTPNOSC","A2NXMRPHG86N2T","3A3KKYU7P33Z3BR9PPFZ5194ZCQMWU","","318.40000009536743","img/land3.png","76","320.09999990463257","3","1","false","3","1,0.5,0.5,0.5,1,0.5,0.5,0.5,1","",""
"","html-keyboard-response","292","165726","0.0-436.0","3ZOTGHDK5JXWIHT692PDPZRCTPNOSC","A2NXMRPHG86N2T","3A3KKYU7P33Z3BR9PPFZ5194ZCQMWU","","null","<img src=""img/land3.png"" style=""width:200px; border:14px solid green;"">","null","","","","","","","",""
"","image-keyboard-response","293","166295","0.0-438.0","3ZOTGHDK5JXWIHT692PDPZRCTPNOSC","A2NXMRPHG86N2T","3A3KKYU7P33Z3BR9PPFZ5194ZCQMWU","","566.5","img/land4.png","76","568.2999999523163","3","0","false","1","1,0.5,0.5,0.5,1,0.5,0.5,0.5,1","",""
"","html-keyboard-response","294","166611","0.0-439.0","3ZOTGHDK5JXWIHT692PDPZRCTPNOSC","A2NXMRPHG86N2T","3A3KKYU7P33Z3BR9PPFZ5194ZCQMWU","","null","<img src=""img/land4.png"" style=""width:200px;border:14px solid red;"">","null","","","","","","","",""
"","image-keyboard-response","295","166934","0.0-441.0","3ZOTGHDK5JXWIHT692PDPZRCTPNOSC","A2NXMRPHG86N2T","3A3KKYU7P33Z3BR9PPFZ5194ZCQMWU","","321.8000000715256","img/land2.png","74","322.89999997615814","1","0","false","2","1,0.5,0.5,0.5,1,0.5,0.5,0.5,1","",""
"","html-keyboard-response","296","167235","0.0-442.0","3ZOTGHDK5JXWIHT692PDPZRCTPNOSC","A2NXMRPHG86N2T","3A3KKYU7P33Z3BR9PPFZ5194ZCQMWU","","null","<img src=""img/land2.png"" style=""width:200px;border:14px solid red;"">","null","","","","","","","",""
"","image-keyboard-response","297","167559","0.0-444.0","3ZOTGHDK5JXWIHT692PDPZRCTPNOSC","A2NXMRPHG86N2T","3A3KKYU7P33Z3BR9PPFZ5194ZCQMWU","","320.89999997615814","img/land2.png","76","322.8000000715256","3","1","false","2","1,0.5,0.5,0.5,1,0.5,0.5,0.5,1","",""
"","html-keyboard-response","298","167862","0.0-445.0","3ZOTGHDK5JXWIHT692PDPZRCTPNOSC","A2NXMRPHG86N2T","3A3KKYU7P33Z3BR9PPFZ5194ZCQMWU","","null","<img src=""img/land2.png"" style=""width:200px; border:14px solid green;"">","null","","","","","","","",""
"","image-keyboard-response","299","167999","0.0-447.0","3ZOTGHDK5JXWIHT692PDPZRCTPNOSC","A2NXMRPHG86N2T","3A3KKYU7P33Z3BR9PPFZ5194ZCQMWU","","133.30000007152557","img/land3.png","76","135","3","1","false","3","1,0.5,0.5,0.5,1,0.5,0.5,0.5,1","",""
"","html-keyboard-response","300","168302","0.0-448.0","3ZOTGHDK5JXWIHT692PDPZRCTPNOSC","A2NXMRPHG86N2T","3A3KKYU7P33Z3BR9PPFZ5194ZCQMWU","","null","<img src=""img/land3.png"" style=""width:200px; border:14px solid green;"">","null","","","","","","","",""
"","image-keyboard-response","301","168503","0.0-450.0","3ZOTGHDK5JXWIHT692PDPZRCTPNOSC","A2NXMRPHG86N2T","3A3KKYU7P33Z3BR9PPFZ5194ZCQMWU","","198.79999995231628","img/land4.png","76","200.5","3","1","false","1","1,0.5,0.5,0.5,1,0.5,0.5,0.5,1","",""
"","html-keyboard-response","302","168805","0.0-451.0","3ZOTGHDK5JXWIHT692PDPZRCTPNOSC","A2NXMRPHG86N2T","3A3KKYU7P33Z3BR9PPFZ5194ZCQMWU","","null","<img src=""img/land4.png"" style=""width:200px; border:14px solid green;"">","null","","","","","","","",""
"","image-keyboard-response","303","168982","0.0-453.0","3ZOTGHDK5JXWIHT692PDPZRCTPNOSC","A2NXMRPHG86N2T","3A3KKYU7P33Z3BR9PPFZ5194ZCQMWU","","174.89999997615814","img/land3.png","76","176.69999992847443","3","1","false","3","1,0.5,0.5,0.5,1,0.5,0.5,0.5,1","",""
"","html-keyboard-response","304","169284","0.0-454.0","3ZOTGHDK5JXWIHT692PDPZRCTPNOSC","A2NXMRPHG86N2T","3A3KKYU7P33Z3BR9PPFZ5194ZCQMWU","","null","<img src=""img/land3.png"" style=""width:200px; border:14px solid green;"">","null","","","","","","","",""
"","image-keyboard-response","305","169510","0.0-456.0","3ZOTGHDK5JXWIHT692PDPZRCTPNOSC","A2NXMRPHG86N2T","3A3KKYU7P33Z3BR9PPFZ5194ZCQMWU","","223.80000007152557","img/land3.png","76","225.60000002384186","3","1","false","3","1,0.5,0.5,0.5,1,0.5,0.5,0.5,1","",""
"","html-keyboard-response","306","169813","0.0-457.0","3ZOTGHDK5JXWIHT692PDPZRCTPNOSC","A2NXMRPHG86N2T","3A3KKYU7P33Z3BR9PPFZ5194ZCQMWU","","null","<img src=""img/land3.png"" style=""width:200px; border:14px solid green;"">","null","","","","","","","",""
"","image-keyboard-response","307","170087","0.0-459.0","3ZOTGHDK5JXWIHT692PDPZRCTPNOSC","A2NXMRPHG86N2T","3A3KKYU7P33Z3BR9PPFZ5194ZCQMWU","","271","img/land3.png","76","272.7000000476837","3","1","false","3","1,0.5,0.5,0.5,1,0.5,0.5,0.5,1","",""
"","html-keyboard-response","308","170391","0.0-460.0","3ZOTGHDK5JXWIHT692PDPZRCTPNOSC","A2NXMRPHG86N2T","3A3KKYU7P33Z3BR9PPFZ5194ZCQMWU","","null","<img src=""img/land3.png"" style=""width:200px; border:14px solid green;"">","null","","","","","","","",""
"","image-keyboard-response","309","170656","0.0-462.0","3ZOTGHDK5JXWIHT692PDPZRCTPNOSC","A2NXMRPHG86N2T","3A3KKYU7P33Z3BR9PPFZ5194ZCQMWU","","262.60000002384186","img/land4.png","75","264.3000000715256","2","0","false","1","1,0.5,0.5,0.5,1,0.5,0.5,0.5,1","",""
"","html-keyboard-response","310","170958","0.0-463.0","3ZOTGHDK5JXWIHT692PDPZRCTPNOSC","A2NXMRPHG86N2T","3A3KKYU7P33Z3BR9PPFZ5194ZCQMWU","","null","<img src=""img/land4.png"" style=""width:200px;border:14px solid red;"">","null","","","","","","","",""
"","image-keyboard-response","311","171166","0.0-465.0","3ZOTGHDK5JXWIHT692PDPZRCTPNOSC","A2NXMRPHG86N2T","3A3KKYU7P33Z3BR9PPFZ5194ZCQMWU","","206","img/land2.png","75","207.59999990463257","2","1","false","2","1,0.5,0.5,0.5,1,0.5,0.5,0.5,1","",""
"","html-keyboard-response","312","171469","0.0-466.0","3ZOTGHDK5JXWIHT692PDPZRCTPNOSC","A2NXMRPHG86N2T","3A3KKYU7P33Z3BR9PPFZ5194ZCQMWU","","null","<img src=""img/land2.png"" style=""width:200px; border:14px solid green;"">","null","","","","","","","",""
"","image-keyboard-response","313","171614","0.0-468.0","3ZOTGHDK5JXWIHT692PDPZRCTPNOSC","A2NXMRPHG86N2T","3A3KKYU7P33Z3BR9PPFZ5194ZCQMWU","","142.90000009536743","img/land2.png","76","144.5","3","1","false","2","1,0.5,0.5,0.5,1,0.5,0.5,0.5,1","",""
"","html-keyboard-response","314","171917","0.0-469.0","3ZOTGHDK5JXWIHT692PDPZRCTPNOSC","A2NXMRPHG86N2T","3A3KKYU7P33Z3BR9PPFZ5194ZCQMWU","","null","<img src=""img/land2.png"" style=""width:200px; border:14px solid green;"">","null","","","","","","","",""
"","image-keyboard-response","315","172166","0.0-471.0","3ZOTGHDK5JXWIHT692PDPZRCTPNOSC","A2NXMRPHG86N2T","3A3KKYU7P33Z3BR9PPFZ5194ZCQMWU","","246.80000007152557","img/land2.png","76","248.30000007152557","3","1","false","2","1,0.5,0.5,0.5,1,0.5,0.5,0.5,1","",""
"","html-keyboard-response","316","172469","0.0-472.0","3ZOTGHDK5JXWIHT692PDPZRCTPNOSC","A2NXMRPHG86N2T","3A3KKYU7P33Z3BR9PPFZ5194ZCQMWU","","null","<img src=""img/land2.png"" style=""width:200px; border:14px solid green;"">","null","","","","","","","",""
"","image-keyboard-response","317","172742","0.0-474.0","3ZOTGHDK5JXWIHT692PDPZRCTPNOSC","A2NXMRPHG86N2T","3A3KKYU7P33Z3BR9PPFZ5194ZCQMWU","","271","img/land2.png","76","272.6999999284744","3","0","false","2","1,0.5,0.5,0.5,1,0.5,0.5,0.5,1","",""
"","html-keyboard-response","318","173046","0.0-475.0","3ZOTGHDK5JXWIHT692PDPZRCTPNOSC","A2NXMRPHG86N2T","3A3KKYU7P33Z3BR9PPFZ5194ZCQMWU","","null","<img src=""img/land2.png"" style=""width:200px;border:14px solid red;"">","null","","","","","","","",""
"","image-keyboard-response","319","173239","0.0-477.0","3ZOTGHDK5JXWIHT692PDPZRCTPNOSC","A2NXMRPHG86N2T","3A3KKYU7P33Z3BR9PPFZ5194ZCQMWU","","191.5","img/land4.png","76","193.5","3","1","false","1","1,0.5,0.5,0.5,1,0.5,0.5,0.5,1","",""
"","html-keyboard-response","320","173542","0.0-478.0","3ZOTGHDK5JXWIHT692PDPZRCTPNOSC","A2NXMRPHG86N2T","3A3KKYU7P33Z3BR9PPFZ5194ZCQMWU","","null","<img src=""img/land4.png"" style=""width:200px; border:14px solid green;"">","null","","","","","","","",""
"","image-keyboard-response","321","173704","0.0-480.0","3ZOTGHDK5JXWIHT692PDPZRCTPNOSC","A2NXMRPHG86N2T","3A3KKYU7P33Z3BR9PPFZ5194ZCQMWU","","159.79999995231628","img/land4.png","76","161.29999995231628","3","0","false","1","1,0.5,0.5,0.5,1,0.5,0.5,0.5,1","",""
"","html-keyboard-response","322","174006","0.0-481.0","3ZOTGHDK5JXWIHT692PDPZRCTPNOSC","A2NXMRPHG86N2T","3A3KKYU7P33Z3BR9PPFZ5194ZCQMWU","","null","<img src=""img/land4.png"" style=""width:200px;border:14px solid red;"">","null","","","","","","","",""
"","image-keyboard-response","323","174214","0.0-483.0","3ZOTGHDK5JXWIHT692PDPZRCTPNOSC","A2NXMRPHG86N2T","3A3KKYU7P33Z3BR9PPFZ5194ZCQMWU","","206.5","img/land4.png","76","208.19999992847443","3","0","false","1","1,0.5,0.5,0.5,1,0.5,0.5,0.5,1","",""
"","html-keyboard-response","324","174518","0.0-484.0","3ZOTGHDK5JXWIHT692PDPZRCTPNOSC","A2NXMRPHG86N2T","3A3KKYU7P33Z3BR9PPFZ5194ZCQMWU","","null","<img src=""img/land4.png"" style=""width:200px;border:14px solid red;"">","null","","","","","","","",""
"","image-keyboard-response","325","174806","0.0-486.0","3ZOTGHDK5JXWIHT692PDPZRCTPNOSC","A2NXMRPHG86N2T","3A3KKYU7P33Z3BR9PPFZ5194ZCQMWU","","286.1999999284744","img/land4.png","74","287.7999999523163","1","1","false","1","1,0.5,0.5,0.5,1,0.5,0.5,0.5,1","",""
"","html-keyboard-response","326","175108","0.0-487.0","3ZOTGHDK5JXWIHT692PDPZRCTPNOSC","A2NXMRPHG86N2T","3A3KKYU7P33Z3BR9PPFZ5194ZCQMWU","","null","<img src=""img/land4.png"" style=""width:200px; border:14px solid green;"">","null","","","","","","","",""
"","image-keyboard-response","327","175231","0.0-489.0","3ZOTGHDK5JXWIHT692PDPZRCTPNOSC","A2NXMRPHG86N2T","3A3KKYU7P33Z3BR9PPFZ5194ZCQMWU","","121.10000002384186","img/land2.png","74","122.40000009536743","1","1","false","2","1,0.5,0.5,0.5,1,0.5,0.5,0.5,1","",""
"","html-keyboard-response","328","175535","0.0-490.0","3ZOTGHDK5JXWIHT692PDPZRCTPNOSC","A2NXMRPHG86N2T","3A3KKYU7P33Z3BR9PPFZ5194ZCQMWU","","null","<img src=""img/land2.png"" style=""width:200px; border:14px solid green;"">","null","","","","","","","",""
"","image-keyboard-response","329","175727","0.0-492.0","3ZOTGHDK5JXWIHT692PDPZRCTPNOSC","A2NXMRPHG86N2T","3A3KKYU7P33Z3BR9PPFZ5194ZCQMWU","","189.39999997615814","img/land3.png","74","191.60000002384186","1","0","false","3","1,0.5,0.5,0.5,1,0.5,0.5,0.5,1","",""
"","html-keyboard-response","330","176029","0.0-493.0","3ZOTGHDK5JXWIHT692PDPZRCTPNOSC","A2NXMRPHG86N2T","3A3KKYU7P33Z3BR9PPFZ5194ZCQMWU","","null","<img src=""img/land3.png"" style=""width:200px;border:14px solid red;"">","null","","","","","","","",""
"","image-keyboard-response","331","176214","0.0-495.0","3ZOTGHDK5JXWIHT692PDPZRCTPNOSC","A2NXMRPHG86N2T","3A3KKYU7P33Z3BR9PPFZ5194ZCQMWU","","183.20000004768372","img/land4.png","74","184.70000004768372","1","1","false","1","1,0.5,0.5,0.5,1,0.5,0.5,0.5,1","",""
"","html-keyboard-response","332","176517","0.0-496.0","3ZOTGHDK5JXWIHT692PDPZRCTPNOSC","A2NXMRPHG86N2T","3A3KKYU7P33Z3BR9PPFZ5194ZCQMWU","","null","<img src=""img/land4.png"" style=""width:200px; border:14px solid green;"">","null","","","","","","","",""
"","image-keyboard-response","333","176702","0.0-498.0","3ZOTGHDK5JXWIHT692PDPZRCTPNOSC","A2NXMRPHG86N2T","3A3KKYU7P33Z3BR9PPFZ5194ZCQMWU","","183.09999990463257","img/land3.png","74","184.20000004768372","1","0","false","3","1,0.5,0.5,0.5,1,0.5,0.5,0.5,1","",""
"","html-keyboard-response","334","177004","0.0-499.0","3ZOTGHDK5JXWIHT692PDPZRCTPNOSC","A2NXMRPHG86N2T","3A3KKYU7P33Z3BR9PPFZ5194ZCQMWU","","null","<img src=""img/land3.png"" style=""width:200px;border:14px solid red;"">","null","","","","","","","",""
"","image-keyboard-response","335","177630","0.0-501.0","3ZOTGHDK5JXWIHT692PDPZRCTPNOSC","A2NXMRPHG86N2T","3A3KKYU7P33Z3BR9PPFZ5194ZCQMWU","","623.7999999523163","img/land4.png","74","625","1","1","false","1","1,0.5,0.5,0.5,1,0.5,0.5,0.5,1","",""
"","html-keyboard-response","336","177932","0.0-502.0","3ZOTGHDK5JXWIHT692PDPZRCTPNOSC","A2NXMRPHG86N2T","3A3KKYU7P33Z3BR9PPFZ5194ZCQMWU","","null","<img src=""img/land4.png"" style=""width:200px; border:14px solid green;"">","null","","","","","","","",""
"","image-keyboard-response","337","178335","0.0-504.0","3ZOTGHDK5JXWIHT692PDPZRCTPNOSC","A2NXMRPHG86N2T","3A3KKYU7P33Z3BR9PPFZ5194ZCQMWU","","401.2000000476837","img/land4.png","74","402.2999999523163","1","1","false","1","1,0.5,0.5,0.5,1,0.5,0.5,0.5,1","",""
"","html-keyboard-response","338","178638","0.0-505.0","3ZOTGHDK5JXWIHT692PDPZRCTPNOSC","A2NXMRPHG86N2T","3A3KKYU7P33Z3BR9PPFZ5194ZCQMWU","","null","<img src=""img/land4.png"" style=""width:200px; border:14px solid green;"">","null","","","","","","","",""
"","image-keyboard-response","339","178943","0.0-507.0","3ZOTGHDK5JXWIHT692PDPZRCTPNOSC","A2NXMRPHG86N2T","3A3KKYU7P33Z3BR9PPFZ5194ZCQMWU","","301.7999999523163","img/land3.png","74","303.8000000715256","1","1","false","3","1,0.5,0.5,0.5,1,0.5,0.5,0.5,1","",""
"","html-keyboard-response","340","179246","0.0-508.0","3ZOTGHDK5JXWIHT692PDPZRCTPNOSC","A2NXMRPHG86N2T","3A3KKYU7P33Z3BR9PPFZ5194ZCQMWU","","null","<img src=""img/land3.png"" style=""width:200px; border:14px solid green;"">","null","","","","","","","",""
"","image-keyboard-response","341","179854","0.0-510.0","3ZOTGHDK5JXWIHT692PDPZRCTPNOSC","A2NXMRPHG86N2T","3A3KKYU7P33Z3BR9PPFZ5194ZCQMWU","","606.3000000715256","img/land3.png","75","607.8000000715256","2","1","false","3","1,0.5,0.5,0.5,1,0.5,0.5,0.5,1","",""
"","html-keyboard-response","342","180157","0.0-511.0","3ZOTGHDK5JXWIHT692PDPZRCTPNOSC","A2NXMRPHG86N2T","3A3KKYU7P33Z3BR9PPFZ5194ZCQMWU","","null","<img src=""img/land3.png"" style=""width:200px; border:14px solid green;"">","null","","","","","","","",""
"","image-keyboard-response","343","180415","0.0-513.0","3ZOTGHDK5JXWIHT692PDPZRCTPNOSC","A2NXMRPHG86N2T","3A3KKYU7P33Z3BR9PPFZ5194ZCQMWU","","255.5","img/land3.png","75","257.2999999523163","2","0","false","3","1,0.5,0.5,0.5,1,0.5,0.5,0.5,1","",""
"","html-keyboard-response","344","180731","0.0-514.0","3ZOTGHDK5JXWIHT692PDPZRCTPNOSC","A2NXMRPHG86N2T","3A3KKYU7P33Z3BR9PPFZ5194ZCQMWU","","null","<img src=""img/land3.png"" style=""width:200px;border:14px solid red;"">","null","","","","","","","",""
"","image-keyboard-response","345","181199","0.0-516.0","3ZOTGHDK5JXWIHT692PDPZRCTPNOSC","A2NXMRPHG86N2T","3A3KKYU7P33Z3BR9PPFZ5194ZCQMWU","","465.89999997615814","img/land2.png","74","467.7000000476837","1","0","false","2","1,0.5,0.5,0.5,1,0.5,0.5,0.5,1","",""
"","html-keyboard-response","346","181503","0.0-517.0","3ZOTGHDK5JXWIHT692PDPZRCTPNOSC","A2NXMRPHG86N2T","3A3KKYU7P33Z3BR9PPFZ5194ZCQMWU","","null","<img src=""img/land2.png"" style=""width:200px;border:14px solid red;"">","null","","","","","","","",""
"","image-keyboard-response","347","182063","0.0-519.0","3ZOTGHDK5JXWIHT692PDPZRCTPNOSC","A2NXMRPHG86N2T","3A3KKYU7P33Z3BR9PPFZ5194ZCQMWU","","557.2000000476837","img/land4.png","74","559.1000000238419","1","1","false","1","1,0.5,0.5,0.5,1,0.5,0.5,0.5,1","",""
"","html-keyboard-response","348","182365","0.0-520.0","3ZOTGHDK5JXWIHT692PDPZRCTPNOSC","A2NXMRPHG86N2T","3A3KKYU7P33Z3BR9PPFZ5194ZCQMWU","","null","<img src=""img/land4.png"" style=""width:200px; border:14px solid green;"">","null","","","","","","","",""
"","image-keyboard-response","349","182590","0.0-522.0","3ZOTGHDK5JXWIHT692PDPZRCTPNOSC","A2NXMRPHG86N2T","3A3KKYU7P33Z3BR9PPFZ5194ZCQMWU","","222.89999997615814","img/land2.png","74","224.59999990463257","1","1","false","2","1,0.5,0.5,0.5,1,0.5,0.5,0.5,1","",""
"","html-keyboard-response","350","182893","0.0-523.0","3ZOTGHDK5JXWIHT692PDPZRCTPNOSC","A2NXMRPHG86N2T","3A3KKYU7P33Z3BR9PPFZ5194ZCQMWU","","null","<img src=""img/land2.png"" style=""width:200px; border:14px solid green;"">","null","","","","","","","",""
"","image-keyboard-response","351","183142","0.0-525.0","3ZOTGHDK5JXWIHT692PDPZRCTPNOSC","A2NXMRPHG86N2T","3A3KKYU7P33Z3BR9PPFZ5194ZCQMWU","","246.90000009536743","img/land4.png","74","248.5","1","1","false","1","1,0.5,0.5,0.5,1,0.5,0.5,0.5,1","",""
"","html-keyboard-response","352","183446","0.0-526.0","3ZOTGHDK5JXWIHT692PDPZRCTPNOSC","A2NXMRPHG86N2T","3A3KKYU7P33Z3BR9PPFZ5194ZCQMWU","","null","<img src=""img/land4.png"" style=""width:200px; border:14px solid green;"">","null","","","","","","","",""
"","image-keyboard-response","353","183719","0.0-528.0","3ZOTGHDK5JXWIHT692PDPZRCTPNOSC","A2NXMRPHG86N2T","3A3KKYU7P33Z3BR9PPFZ5194ZCQMWU","","271.2999999523163","img/land2.png","74","272.8000000715256","1","0","false","2","1,0.5,0.5,0.5,1,0.5,0.5,0.5,1","",""
"","html-keyboard-response","354","184022","0.0-529.0","3ZOTGHDK5JXWIHT692PDPZRCTPNOSC","A2NXMRPHG86N2T","3A3KKYU7P33Z3BR9PPFZ5194ZCQMWU","","null","<img src=""img/land2.png"" style=""width:200px;border:14px solid red;"">","null","","","","","","","",""
"","image-keyboard-response","355","184246","0.0-531.0","3ZOTGHDK5JXWIHT692PDPZRCTPNOSC","A2NXMRPHG86N2T","3A3KKYU7P33Z3BR9PPFZ5194ZCQMWU","","222.5","img/land2.png","74","224","1","1","false","2","1,0.5,0.5,0.5,1,0.5,0.5,0.5,1","",""
"","html-keyboard-response","356","184550","0.0-532.0","3ZOTGHDK5JXWIHT692PDPZRCTPNOSC","A2NXMRPHG86N2T","3A3KKYU7P33Z3BR9PPFZ5194ZCQMWU","","null","<img src=""img/land2.png"" style=""width:200px; border:14px solid green;"">","null","","","","","","","",""
"","image-keyboard-response","357","184782","0.0-534.0","3ZOTGHDK5JXWIHT692PDPZRCTPNOSC","A2NXMRPHG86N2T","3A3KKYU7P33Z3BR9PPFZ5194ZCQMWU","","230","img/land2.png","74","231.79999995231628","1","0","false","2","1,0.5,0.5,0.5,1,0.5,0.5,0.5,1","",""
"","html-keyboard-response","358","185085","0.0-535.0","3ZOTGHDK5JXWIHT692PDPZRCTPNOSC","A2NXMRPHG86N2T","3A3KKYU7P33Z3BR9PPFZ5194ZCQMWU","","null","<img src=""img/land2.png"" style=""width:200px;border:14px solid red;"">","null","","","","","","","",""
"","image-keyboard-response","359","185367","0.0-537.0","3ZOTGHDK5JXWIHT692PDPZRCTPNOSC","A2NXMRPHG86N2T","3A3KKYU7P33Z3BR9PPFZ5194ZCQMWU","","279.1999999284744","img/land4.png","74","280.89999997615814","1","1","false","1","1,0.5,0.5,0.5,1,0.5,0.5,0.5,1","",""
"","html-keyboard-response","360","185670","0.0-538.0","3ZOTGHDK5JXWIHT692PDPZRCTPNOSC","A2NXMRPHG86N2T","3A3KKYU7P33Z3BR9PPFZ5194ZCQMWU","","null","<img src=""img/land4.png"" style=""width:200px; border:14px solid green;"">","null","","","","","","","",""
"","image-keyboard-response","361","185886","0.0-540.0","3ZOTGHDK5JXWIHT692PDPZRCTPNOSC","A2NXMRPHG86N2T","3A3KKYU7P33Z3BR9PPFZ5194ZCQMWU","","214.10000002384186","img/land4.png","74","215.70000004768372","1","1","false","1","1,0.5,0.5,0.5,1,0.5,0.5,0.5,1","",""
"","html-keyboard-response","362","186189","0.0-541.0","3ZOTGHDK5JXWIHT692PDPZRCTPNOSC","A2NXMRPHG86N2T","3A3KKYU7P33Z3BR9PPFZ5194ZCQMWU","","null","<img src=""img/land4.png"" style=""width:200px; border:14px solid green;"">","null","","","","","","","",""
"","instructions","363","189717","0.0-543.0","3ZOTGHDK5JXWIHT692PDPZRCTPNOSC","A2NXMRPHG86N2T","3A3KKYU7P33Z3BR9PPFZ5194ZCQMWU","[{""page_index"":0,""viewing_time"":3525.6999999284744}]","3526.399999976158","","","","","","","","","",""
"","survey-text","364","197077","0.0-544.0-0.0","3ZOTGHDK5JXWIHT692PDPZRCTPNOSC","A2NXMRPHG86N2T","3A3KKYU7P33Z3BR9PPFZ5194ZCQMWU","","7355.899999976158","","","","","","","","","{""Q0"":""49""}",""
"","survey-multi-choice","365","200238","0.0-544.0-1.0","3ZOTGHDK5JXWIHT692PDPZRCTPNOSC","A2NXMRPHG86N2T","3A3KKYU7P33Z3BR9PPFZ5194ZCQMWU","","3158.2999999523163","","","","","","","","","{""gender"":""M""}","[0]"
"","survey-text","366","205773","0.0-545.0","3ZOTGHDK5JXWIHT692PDPZRCTPNOSC","A2NXMRPHG86N2T","3A3KKYU7P33Z3BR9PPFZ5194ZCQMWU","","5530.899999976158","","","","","","","","","{""Q0"":""A2NXMRPHG86N2T""}",""
