"success","trial_type","trial_index","time_elapsed","internal_node_id","assignmentID","mturkID","hitID","view_history","rt","stimulus","key_press","reactionTime","a","r","warning","s","reward_cond","responses","question_order"
"true","fullscreen","0","6790","0.0-0.0","3A7Y0R2P2PAQDNO8NZ3VGBRI8UAJXU","A2OVX9UW5WANQE","3S829FDFT2NBOHQMM1CIOU0HZYXDXL","","","","","","","","","","","",""
"","instructions","1","81582","0.0-1.0","3A7Y0R2P2PAQDNO8NZ3VGBRI8UAJXU","A2OVX9UW5WANQE","3S829FDFT2NBOHQMM1CIOU0HZYXDXL","[{""page_index"":0,""viewing_time"":8368},{""page_index"":1,""viewing_time"":650.4000000059605},{""page_index"":2,""viewing_time"":1017.2999999821186},{""page_index"":3,""viewing_time"":912.0999999940395},{""page_index"":4,""viewing_time"":1658.300000011921},{""page_index"":5,""viewing_time"":1417.800000011921},{""page_index"":6,""viewing_time"":56756.09999999404},{""page_index"":7,""viewing_time"":4008.0999999940395}]","74789.19999998808","","","","","","","","","",""
"","image-keyboard-response","2","82595","0.0-2.0","3A7Y0R2P2PAQDNO8NZ3VGBRI8UAJXU","A2OVX9UW5WANQE","3S829FDFT2NBOHQMM1CIOU0HZYXDXL","","","img/land6.png","","1013","-1","0","true","3","0.8,0.8,0.2,0.2,0.8,0.8,0.8,0.2,0.8","",""
"","html-keyboard-response","3","82905","0.0-3.0","3A7Y0R2P2PAQDNO8NZ3VGBRI8UAJXU","A2OVX9UW5WANQE","3S829FDFT2NBOHQMM1CIOU0HZYXDXL","","null","<img src=""img/land6.png"" style=""width:200px;border:14px solid red;"">","null","","","","","","","",""
"","html-keyboard-response","4","94076","0.0-4.0-0.0","3A7Y0R2P2PAQDNO8NZ3VGBRI8UAJXU","A2OVX9UW5WANQE","3S829FDFT2NBOHQMM1CIOU0HZYXDXL","","","","","","","","","","","",""
"","image-keyboard-response","5","94442","0.0-5.0","3A7Y0R2P2PAQDNO8NZ3VGBRI8UAJXU","A2OVX9UW5WANQE","3S829FDFT2NBOHQMM1CIOU0HZYXDXL","","363.7999999821186","img/land1.png","74","365.30000001192093","1","0","false","2","0.8,0.8,0.2,0.2,0.8,0.8,0.8,0.2,0.8","",""
"","html-keyboard-response","6","94745","0.0-6.0","3A7Y0R2P2PAQDNO8NZ3VGBRI8UAJXU","A2OVX9UW5WANQE","3S829FDFT2NBOHQMM1CIOU0HZYXDXL","","null","<img src=""img/land1.png"" style=""width:200px;border:14px solid red;"">","null","","","","","","","",""
"","image-keyboard-response","7","95353","0.0-8.0","3A7Y0R2P2PAQDNO8NZ3VGBRI8UAJXU","A2OVX9UW5WANQE","3S829FDFT2NBOHQMM1CIOU0HZYXDXL","","605.5999999940395","img/land5.png","74","607.2999999821186","1","0","false","1","0.8,0.8,0.2,0.2,0.8,0.8,0.8,0.2,0.8","",""
"","html-keyboard-response","8","95655","0.0-9.0","3A7Y0R2P2PAQDNO8NZ3VGBRI8UAJXU","A2OVX9UW5WANQE","3S829FDFT2NBOHQMM1CIOU0HZYXDXL","","null","<img src=""img/land5.png"" style=""width:200px;border:14px solid red;"">","null","","","","","","","",""
"","image-keyboard-response","9","95873","0.0-11.0","3A7Y0R2P2PAQDNO8NZ3VGBRI8UAJXU","A2OVX9UW5WANQE","3S829FDFT2NBOHQMM1CIOU0HZYXDXL","","215.90000000596046","img/land5.png","74","217.2999999821186","1","1","false","1","0.8,0.8,0.2,0.2,0.8,0.8,0.8,0.2,0.8","",""
"","html-keyboard-response","10","96175","0.0-12.0","3A7Y0R2P2PAQDNO8NZ3VGBRI8UAJXU","A2OVX9UW5WANQE","3S829FDFT2NBOHQMM1CIOU0HZYXDXL","","null","<img src=""img/land5.png"" style=""width:200px; border:14px solid green;"">","null","","","","","","","",""
"","image-keyboard-response","11","96393","0.0-14.0","3A7Y0R2P2PAQDNO8NZ3VGBRI8UAJXU","A2OVX9UW5WANQE","3S829FDFT2NBOHQMM1CIOU0HZYXDXL","","215.90000000596046","img/land1.png","74","217.09999999403954","1","1","false","2","0.8,0.8,0.2,0.2,0.8,0.8,0.8,0.2,0.8","",""
"","html-keyboard-response","12","96695","0.0-15.0","3A7Y0R2P2PAQDNO8NZ3VGBRI8UAJXU","A2OVX9UW5WANQE","3S829FDFT2NBOHQMM1CIOU0HZYXDXL","","null","<img src=""img/land1.png"" style=""width:200px; border:14px solid green;"">","null","","","","","","","",""
"","image-keyboard-response","13","96865","0.0-17.0","3A7Y0R2P2PAQDNO8NZ3VGBRI8UAJXU","A2OVX9UW5WANQE","3S829FDFT2NBOHQMM1CIOU0HZYXDXL","","168","img/land6.png","74","169.30000001192093","1","0","false","3","0.8,0.8,0.2,0.2,0.8,0.8,0.8,0.2,0.8","",""
"","html-keyboard-response","14","97168","0.0-18.0","3A7Y0R2P2PAQDNO8NZ3VGBRI8UAJXU","A2OVX9UW5WANQE","3S829FDFT2NBOHQMM1CIOU0HZYXDXL","","null","<img src=""img/land6.png"" style=""width:200px;border:14px solid red;"">","null","","","","","","","",""
"","image-keyboard-response","15","97281","0.0-20.0","3A7Y0R2P2PAQDNO8NZ3VGBRI8UAJXU","A2OVX9UW5WANQE","3S829FDFT2NBOHQMM1CIOU0HZYXDXL","","110.5","img/land5.png","74","111.90000000596046","1","1","false","1","0.8,0.8,0.2,0.2,0.8,0.8,0.8,0.2,0.8","",""
"","html-keyboard-response","16","97583","0.0-21.0","3A7Y0R2P2PAQDNO8NZ3VGBRI8UAJXU","A2OVX9UW5WANQE","3S829FDFT2NBOHQMM1CIOU0HZYXDXL","","null","<img src=""img/land5.png"" style=""width:200px; border:14px solid green;"">","null","","","","","","","",""
"","image-keyboard-response","17","97737","0.0-23.0","3A7Y0R2P2PAQDNO8NZ3VGBRI8UAJXU","A2OVX9UW5WANQE","3S829FDFT2NBOHQMM1CIOU0HZYXDXL","","152.2999999821186","img/land5.png","75","153.60000002384186","2","1","false","1","0.8,0.8,0.2,0.2,0.8,0.8,0.8,0.2,0.8","",""
"","html-keyboard-response","18","98054","0.0-24.0","3A7Y0R2P2PAQDNO8NZ3VGBRI8UAJXU","A2OVX9UW5WANQE","3S829FDFT2NBOHQMM1CIOU0HZYXDXL","","null","<img src=""img/land5.png"" style=""width:200px; border:14px solid green;"">","null","","","","","","","",""
"","image-keyboard-response","19","98072","0.0-26.0","3A7Y0R2P2PAQDNO8NZ3VGBRI8UAJXU","A2OVX9UW5WANQE","3S829FDFT2NBOHQMM1CIOU0HZYXDXL","","16.599999994039536","img/land5.png","75","17.599999994039536","2","0","false","1","0.8,0.8,0.2,0.2,0.8,0.8,0.8,0.2,0.8","",""
"","html-keyboard-response","20","98374","0.0-27.0","3A7Y0R2P2PAQDNO8NZ3VGBRI8UAJXU","A2OVX9UW5WANQE","3S829FDFT2NBOHQMM1CIOU0HZYXDXL","","null","<img src=""img/land5.png"" style=""width:200px;border:14px solid red;"">","null","","","","","","","",""
"","image-keyboard-response","21","98497","0.0-29.0","3A7Y0R2P2PAQDNO8NZ3VGBRI8UAJXU","A2OVX9UW5WANQE","3S829FDFT2NBOHQMM1CIOU0HZYXDXL","","121.09999999403954","img/land1.png","75","122.39999997615814","2","0","false","2","0.8,0.8,0.2,0.2,0.8,0.8,0.8,0.2,0.8","",""
"","html-keyboard-response","22","98800","0.0-30.0","3A7Y0R2P2PAQDNO8NZ3VGBRI8UAJXU","A2OVX9UW5WANQE","3S829FDFT2NBOHQMM1CIOU0HZYXDXL","","null","<img src=""img/land1.png"" style=""width:200px;border:14px solid red;"">","null","","","","","","","",""
"","image-keyboard-response","23","98881","0.0-32.0","3A7Y0R2P2PAQDNO8NZ3VGBRI8UAJXU","A2OVX9UW5WANQE","3S829FDFT2NBOHQMM1CIOU0HZYXDXL","","79.2999999821186","img/land1.png","76","80.80000001192093","3","0","false","2","0.8,0.8,0.2,0.2,0.8,0.8,0.8,0.2,0.8","",""
"","html-keyboard-response","24","99184","0.0-33.0","3A7Y0R2P2PAQDNO8NZ3VGBRI8UAJXU","A2OVX9UW5WANQE","3S829FDFT2NBOHQMM1CIOU0HZYXDXL","","null","<img src=""img/land1.png"" style=""width:200px;border:14px solid red;"">","null","","","","","","","",""
"","image-keyboard-response","25","99273","0.0-35.0","3A7Y0R2P2PAQDNO8NZ3VGBRI8UAJXU","A2OVX9UW5WANQE","3S829FDFT2NBOHQMM1CIOU0HZYXDXL","","86.30000001192093","img/land5.png","76","87.5","3","0","false","1","0.8,0.8,0.2,0.2,0.8,0.8,0.8,0.2,0.8","",""
"","html-keyboard-response","26","99587","0.0-36.0","3A7Y0R2P2PAQDNO8NZ3VGBRI8UAJXU","A2OVX9UW5WANQE","3S829FDFT2NBOHQMM1CIOU0HZYXDXL","","null","<img src=""img/land5.png"" style=""width:200px;border:14px solid red;"">","null","","","","","","","",""
"","image-keyboard-response","27","99681","0.0-38.0","3A7Y0R2P2PAQDNO8NZ3VGBRI8UAJXU","A2OVX9UW5WANQE","3S829FDFT2NBOHQMM1CIOU0HZYXDXL","","92.40000000596046","img/land5.png","76","93.90000000596046","3","0","false","1","0.8,0.8,0.2,0.2,0.8,0.8,0.8,0.2,0.8","",""
"","html-keyboard-response","28","99984","0.0-39.0","3A7Y0R2P2PAQDNO8NZ3VGBRI8UAJXU","A2OVX9UW5WANQE","3S829FDFT2NBOHQMM1CIOU0HZYXDXL","","null","<img src=""img/land5.png"" style=""width:200px;border:14px solid red;"">","null","","","","","","","",""
"","image-keyboard-response","29","100017","0.0-41.0","3A7Y0R2P2PAQDNO8NZ3VGBRI8UAJXU","A2OVX9UW5WANQE","3S829FDFT2NBOHQMM1CIOU0HZYXDXL","","31.400000005960464","img/land1.png","74","32.599999994039536","1","0","false","2","0.8,0.8,0.2,0.2,0.8,0.8,0.8,0.2,0.8","",""
"","html-keyboard-response","30","100319","0.0-42.0","3A7Y0R2P2PAQDNO8NZ3VGBRI8UAJXU","A2OVX9UW5WANQE","3S829FDFT2NBOHQMM1CIOU0HZYXDXL","","null","<img src=""img/land1.png"" style=""width:200px;border:14px solid red;"">","null","","","","","","","",""
"","image-keyboard-response","31","100401","0.0-44.0","3A7Y0R2P2PAQDNO8NZ3VGBRI8UAJXU","A2OVX9UW5WANQE","3S829FDFT2NBOHQMM1CIOU0HZYXDXL","","80.09999999403954","img/land5.png","74","81.5","1","1","false","1","0.8,0.8,0.2,0.2,0.8,0.8,0.8,0.2,0.8","",""
"","html-keyboard-response","32","100704","0.0-45.0","3A7Y0R2P2PAQDNO8NZ3VGBRI8UAJXU","A2OVX9UW5WANQE","3S829FDFT2NBOHQMM1CIOU0HZYXDXL","","null","<img src=""img/land5.png"" style=""width:200px; border:14px solid green;"">","null","","","","","","","",""
"","image-keyboard-response","33","100785","0.0-47.0","3A7Y0R2P2PAQDNO8NZ3VGBRI8UAJXU","A2OVX9UW5WANQE","3S829FDFT2NBOHQMM1CIOU0HZYXDXL","","78.80000001192093","img/land6.png","74","80.19999998807907","1","1","false","3","0.8,0.8,0.2,0.2,0.8,0.8,0.8,0.2,0.8","",""
"","html-keyboard-response","34","101087","0.0-48.0","3A7Y0R2P2PAQDNO8NZ3VGBRI8UAJXU","A2OVX9UW5WANQE","3S829FDFT2NBOHQMM1CIOU0HZYXDXL","","null","<img src=""img/land6.png"" style=""width:200px; border:14px solid green;"">","null","","","","","","","",""
"","image-keyboard-response","35","101185","0.0-50.0","3A7Y0R2P2PAQDNO8NZ3VGBRI8UAJXU","A2OVX9UW5WANQE","3S829FDFT2NBOHQMM1CIOU0HZYXDXL","","96.19999998807907","img/land5.png","74","97.5","1","1","false","1","0.8,0.8,0.2,0.2,0.8,0.8,0.8,0.2,0.8","",""
"","html-keyboard-response","36","101487","0.0-51.0","3A7Y0R2P2PAQDNO8NZ3VGBRI8UAJXU","A2OVX9UW5WANQE","3S829FDFT2NBOHQMM1CIOU0HZYXDXL","","null","<img src=""img/land5.png"" style=""width:200px; border:14px solid green;"">","null","","","","","","","",""
"","image-keyboard-response","37","101609","0.0-53.0","3A7Y0R2P2PAQDNO8NZ3VGBRI8UAJXU","A2OVX9UW5WANQE","3S829FDFT2NBOHQMM1CIOU0HZYXDXL","","121.30000001192093","img/land1.png","74","122.30000001192093","1","0","false","2","0.8,0.8,0.2,0.2,0.8,0.8,0.8,0.2,0.8","",""
"","html-keyboard-response","38","101912","0.0-54.0","3A7Y0R2P2PAQDNO8NZ3VGBRI8UAJXU","A2OVX9UW5WANQE","3S829FDFT2NBOHQMM1CIOU0HZYXDXL","","null","<img src=""img/land1.png"" style=""width:200px;border:14px solid red;"">","null","","","","","","","",""
"","image-keyboard-response","39","102001","0.0-56.0","3A7Y0R2P2PAQDNO8NZ3VGBRI8UAJXU","A2OVX9UW5WANQE","3S829FDFT2NBOHQMM1CIOU0HZYXDXL","","87.19999998807907","img/land5.png","74","88.90000000596046","1","0","false","1","0.8,0.8,0.2,0.2,0.8,0.8,0.8,0.2,0.8","",""
"","html-keyboard-response","40","102305","0.0-57.0","3A7Y0R2P2PAQDNO8NZ3VGBRI8UAJXU","A2OVX9UW5WANQE","3S829FDFT2NBOHQMM1CIOU0HZYXDXL","","null","<img src=""img/land5.png"" style=""width:200px;border:14px solid red;"">","null","","","","","","","",""
"","image-keyboard-response","41","102369","0.0-59.0","3A7Y0R2P2PAQDNO8NZ3VGBRI8UAJXU","A2OVX9UW5WANQE","3S829FDFT2NBOHQMM1CIOU0HZYXDXL","","62.900000005960464","img/land1.png","75","64.30000001192093","2","1","false","2","0.8,0.8,0.2,0.2,0.8,0.8,0.8,0.2,0.8","",""
"","html-keyboard-response","42","102671","0.0-60.0","3A7Y0R2P2PAQDNO8NZ3VGBRI8UAJXU","A2OVX9UW5WANQE","3S829FDFT2NBOHQMM1CIOU0HZYXDXL","","null","<img src=""img/land1.png"" style=""width:200px; border:14px solid green;"">","null","","","","","","","",""
"","image-keyboard-response","43","102753","0.0-62.0","3A7Y0R2P2PAQDNO8NZ3VGBRI8UAJXU","A2OVX9UW5WANQE","3S829FDFT2NBOHQMM1CIOU0HZYXDXL","","80.69999998807907","img/land1.png","75","81.59999999403954","2","1","false","2","0.8,0.8,0.2,0.2,0.8,0.8,0.8,0.2,0.8","",""
"","html-keyboard-response","44","103055","0.0-63.0","3A7Y0R2P2PAQDNO8NZ3VGBRI8UAJXU","A2OVX9UW5WANQE","3S829FDFT2NBOHQMM1CIOU0HZYXDXL","","null","<img src=""img/land1.png"" style=""width:200px; border:14px solid green;"">","null","","","","","","","",""
"","image-keyboard-response","45","103137","0.0-65.0","3A7Y0R2P2PAQDNO8NZ3VGBRI8UAJXU","A2OVX9UW5WANQE","3S829FDFT2NBOHQMM1CIOU0HZYXDXL","","80.2999999821186","img/land6.png","75","81.60000002384186","2","0","false","3","0.8,0.8,0.2,0.2,0.8,0.8,0.8,0.2,0.8","",""
"","html-keyboard-response","46","103440","0.0-66.0","3A7Y0R2P2PAQDNO8NZ3VGBRI8UAJXU","A2OVX9UW5WANQE","3S829FDFT2NBOHQMM1CIOU0HZYXDXL","","null","<img src=""img/land6.png"" style=""width:200px;border:14px solid red;"">","null","","","","","","","",""
"","image-keyboard-response","47","103553","0.0-68.0","3A7Y0R2P2PAQDNO8NZ3VGBRI8UAJXU","A2OVX9UW5WANQE","3S829FDFT2NBOHQMM1CIOU0HZYXDXL","","111.30000001192093","img/land5.png","76","112.40000000596046","3","0","false","1","0.8,0.8,0.2,0.2,0.8,0.8,0.8,0.2,0.8","",""
"","html-keyboard-response","48","103855","0.0-69.0","3A7Y0R2P2PAQDNO8NZ3VGBRI8UAJXU","A2OVX9UW5WANQE","3S829FDFT2NBOHQMM1CIOU0HZYXDXL","","null","<img src=""img/land5.png"" style=""width:200px;border:14px solid red;"">","null","","","","","","","",""
"","image-keyboard-response","49","103945","0.0-71.0","3A7Y0R2P2PAQDNO8NZ3VGBRI8UAJXU","A2OVX9UW5WANQE","3S829FDFT2NBOHQMM1CIOU0HZYXDXL","","88.59999999403954","img/land6.png","74","89.7999999821186","1","0","false","3","0.8,0.8,0.2,0.2,0.8,0.8,0.8,0.2,0.8","",""
"","html-keyboard-response","50","104248","0.0-72.0","3A7Y0R2P2PAQDNO8NZ3VGBRI8UAJXU","A2OVX9UW5WANQE","3S829FDFT2NBOHQMM1CIOU0HZYXDXL","","null","<img src=""img/land6.png"" style=""width:200px;border:14px solid red;"">","null","","","","","","","",""
"","image-keyboard-response","51","104297","0.0-74.0","3A7Y0R2P2PAQDNO8NZ3VGBRI8UAJXU","A2OVX9UW5WANQE","3S829FDFT2NBOHQMM1CIOU0HZYXDXL","","46.599999994039536","img/land5.png","75","48.39999997615814","2","1","false","1","0.8,0.8,0.2,0.2,0.8,0.8,0.8,0.2,0.8","",""
"","html-keyboard-response","52","104600","0.0-75.0","3A7Y0R2P2PAQDNO8NZ3VGBRI8UAJXU","A2OVX9UW5WANQE","3S829FDFT2NBOHQMM1CIOU0HZYXDXL","","null","<img src=""img/land5.png"" style=""width:200px; border:14px solid green;"">","null","","","","","","","",""
"","image-keyboard-response","53","104849","0.0-77.0","3A7Y0R2P2PAQDNO8NZ3VGBRI8UAJXU","A2OVX9UW5WANQE","3S829FDFT2NBOHQMM1CIOU0HZYXDXL","","247.2999999821186","img/land6.png","75","248.69999998807907","2","0","false","3","0.8,0.8,0.2,0.2,0.8,0.8,0.8,0.2,0.8","",""
"","html-keyboard-response","54","105152","0.0-78.0","3A7Y0R2P2PAQDNO8NZ3VGBRI8UAJXU","A2OVX9UW5WANQE","3S829FDFT2NBOHQMM1CIOU0HZYXDXL","","null","<img src=""img/land6.png"" style=""width:200px;border:14px solid red;"">","null","","","","","","","",""
"","image-keyboard-response","55","105297","0.0-80.0","3A7Y0R2P2PAQDNO8NZ3VGBRI8UAJXU","A2OVX9UW5WANQE","3S829FDFT2NBOHQMM1CIOU0HZYXDXL","","142.89999997615814","img/land5.png","75","144.09999999403954","2","1","false","1","0.8,0.8,0.2,0.2,0.8,0.8,0.8,0.2,0.8","",""
"","html-keyboard-response","56","105599","0.0-81.0","3A7Y0R2P2PAQDNO8NZ3VGBRI8UAJXU","A2OVX9UW5WANQE","3S829FDFT2NBOHQMM1CIOU0HZYXDXL","","null","<img src=""img/land5.png"" style=""width:200px; border:14px solid green;"">","null","","","","","","","",""
"","image-keyboard-response","57","105729","0.0-83.0","3A7Y0R2P2PAQDNO8NZ3VGBRI8UAJXU","A2OVX9UW5WANQE","3S829FDFT2NBOHQMM1CIOU0HZYXDXL","","128.5","img/land6.png","74","129.89999997615814","1","1","false","3","0.8,0.8,0.2,0.2,0.8,0.8,0.8,0.2,0.8","",""
"","html-keyboard-response","58","106031","0.0-84.0","3A7Y0R2P2PAQDNO8NZ3VGBRI8UAJXU","A2OVX9UW5WANQE","3S829FDFT2NBOHQMM1CIOU0HZYXDXL","","null","<img src=""img/land6.png"" style=""width:200px; border:14px solid green;"">","null","","","","","","","",""
"","image-keyboard-response","59","106193","0.0-86.0","3A7Y0R2P2PAQDNO8NZ3VGBRI8UAJXU","A2OVX9UW5WANQE","3S829FDFT2NBOHQMM1CIOU0HZYXDXL","","160.5","img/land6.png","74","161.7000000178814","1","0","false","3","0.8,0.8,0.2,0.2,0.8,0.8,0.8,0.2,0.8","",""
"","html-keyboard-response","60","106496","0.0-87.0","3A7Y0R2P2PAQDNO8NZ3VGBRI8UAJXU","A2OVX9UW5WANQE","3S829FDFT2NBOHQMM1CIOU0HZYXDXL","","null","<img src=""img/land6.png"" style=""width:200px;border:14px solid red;"">","null","","","","","","","",""
"","image-keyboard-response","61","106705","0.0-89.0","3A7Y0R2P2PAQDNO8NZ3VGBRI8UAJXU","A2OVX9UW5WANQE","3S829FDFT2NBOHQMM1CIOU0HZYXDXL","","207","img/land1.png","74","208.19999998807907","1","0","false","2","0.8,0.8,0.2,0.2,0.8,0.8,0.8,0.2,0.8","",""
"","html-keyboard-response","62","107007","0.0-90.0","3A7Y0R2P2PAQDNO8NZ3VGBRI8UAJXU","A2OVX9UW5WANQE","3S829FDFT2NBOHQMM1CIOU0HZYXDXL","","null","<img src=""img/land1.png"" style=""width:200px;border:14px solid red;"">","null","","","","","","","",""
"","image-keyboard-response","63","107097","0.0-92.0","3A7Y0R2P2PAQDNO8NZ3VGBRI8UAJXU","A2OVX9UW5WANQE","3S829FDFT2NBOHQMM1CIOU0HZYXDXL","","88.90000000596046","img/land5.png","75","90","2","1","false","1","0.8,0.8,0.2,0.2,0.8,0.8,0.8,0.2,0.8","",""
"","html-keyboard-response","64","107400","0.0-93.0","3A7Y0R2P2PAQDNO8NZ3VGBRI8UAJXU","A2OVX9UW5WANQE","3S829FDFT2NBOHQMM1CIOU0HZYXDXL","","null","<img src=""img/land5.png"" style=""width:200px; border:14px solid green;"">","null","","","","","","","",""
"","image-keyboard-response","65","107545","0.0-95.0","3A7Y0R2P2PAQDNO8NZ3VGBRI8UAJXU","A2OVX9UW5WANQE","3S829FDFT2NBOHQMM1CIOU0HZYXDXL","","143.40000000596046","img/land6.png","75","144.59999999403954","2","0","false","3","0.8,0.8,0.2,0.2,0.8,0.8,0.8,0.2,0.8","",""
"","html-keyboard-response","66","107847","0.0-96.0","3A7Y0R2P2PAQDNO8NZ3VGBRI8UAJXU","A2OVX9UW5WANQE","3S829FDFT2NBOHQMM1CIOU0HZYXDXL","","null","<img src=""img/land6.png"" style=""width:200px;border:14px solid red;"">","null","","","","","","","",""
"","image-keyboard-response","67","108017","0.0-98.0","3A7Y0R2P2PAQDNO8NZ3VGBRI8UAJXU","A2OVX9UW5WANQE","3S829FDFT2NBOHQMM1CIOU0HZYXDXL","","168.69999998807907","img/land1.png","76","169.90000000596046","3","1","false","2","0.8,0.8,0.2,0.2,0.8,0.8,0.8,0.2,0.8","",""
"","html-keyboard-response","68","108320","0.0-99.0","3A7Y0R2P2PAQDNO8NZ3VGBRI8UAJXU","A2OVX9UW5WANQE","3S829FDFT2NBOHQMM1CIOU0HZYXDXL","","null","<img src=""img/land1.png"" style=""width:200px; border:14px solid green;"">","null","","","","","","","",""
"","image-keyboard-response","69","108401","0.0-101.0","3A7Y0R2P2PAQDNO8NZ3VGBRI8UAJXU","A2OVX9UW5WANQE","3S829FDFT2NBOHQMM1CIOU0HZYXDXL","","79.5","img/land1.png","76","80.7000000178814","3","0","false","2","0.8,0.8,0.2,0.2,0.8,0.8,0.8,0.2,0.8","",""
"","html-keyboard-response","70","108704","0.0-102.0","3A7Y0R2P2PAQDNO8NZ3VGBRI8UAJXU","A2OVX9UW5WANQE","3S829FDFT2NBOHQMM1CIOU0HZYXDXL","","null","<img src=""img/land1.png"" style=""width:200px;border:14px solid red;"">","null","","","","","","","",""
"","image-keyboard-response","71","108809","0.0-104.0","3A7Y0R2P2PAQDNO8NZ3VGBRI8UAJXU","A2OVX9UW5WANQE","3S829FDFT2NBOHQMM1CIOU0HZYXDXL","","103.5","img/land6.png","74","104.40000000596046","1","1","false","3","0.8,0.8,0.2,0.2,0.8,0.8,0.8,0.2,0.8","",""
"","html-keyboard-response","72","109111","0.0-105.0","3A7Y0R2P2PAQDNO8NZ3VGBRI8UAJXU","A2OVX9UW5WANQE","3S829FDFT2NBOHQMM1CIOU0HZYXDXL","","null","<img src=""img/land6.png"" style=""width:200px; border:14px solid green;"">","null","","","","","","","",""
"","image-keyboard-response","73","109250","0.0-107.0","3A7Y0R2P2PAQDNO8NZ3VGBRI8UAJXU","A2OVX9UW5WANQE","3S829FDFT2NBOHQMM1CIOU0HZYXDXL","","136.89999997615814","img/land5.png","75","138.5","2","1","false","1","0.8,0.8,0.2,0.2,0.8,0.8,0.8,0.2,0.8","",""
"","html-keyboard-response","74","109553","0.0-108.0","3A7Y0R2P2PAQDNO8NZ3VGBRI8UAJXU","A2OVX9UW5WANQE","3S829FDFT2NBOHQMM1CIOU0HZYXDXL","","null","<img src=""img/land5.png"" style=""width:200px; border:14px solid green;"">","null","","","","","","","",""
"","image-keyboard-response","75","109681","0.0-110.0","3A7Y0R2P2PAQDNO8NZ3VGBRI8UAJXU","A2OVX9UW5WANQE","3S829FDFT2NBOHQMM1CIOU0HZYXDXL","","126.19999998807907","img/land1.png","76","127.40000000596046","3","0","false","2","0.8,0.8,0.2,0.2,0.8,0.8,0.8,0.2,0.8","",""
"","html-keyboard-response","76","109984","0.0-111.0","3A7Y0R2P2PAQDNO8NZ3VGBRI8UAJXU","A2OVX9UW5WANQE","3S829FDFT2NBOHQMM1CIOU0HZYXDXL","","null","<img src=""img/land1.png"" style=""width:200px;border:14px solid red;"">","null","","","","","","","",""
"","image-keyboard-response","77","110097","0.0-113.0","3A7Y0R2P2PAQDNO8NZ3VGBRI8UAJXU","A2OVX9UW5WANQE","3S829FDFT2NBOHQMM1CIOU0HZYXDXL","","112","img/land1.png","74","113.30000001192093","1","0","false","2","0.8,0.8,0.2,0.2,0.8,0.8,0.8,0.2,0.8","",""
"","html-keyboard-response","78","110400","0.0-114.0","3A7Y0R2P2PAQDNO8NZ3VGBRI8UAJXU","A2OVX9UW5WANQE","3S829FDFT2NBOHQMM1CIOU0HZYXDXL","","null","<img src=""img/land1.png"" style=""width:200px;border:14px solid red;"">","null","","","","","","","",""
"","image-keyboard-response","79","110545","0.0-116.0","3A7Y0R2P2PAQDNO8NZ3VGBRI8UAJXU","A2OVX9UW5WANQE","3S829FDFT2NBOHQMM1CIOU0HZYXDXL","","142.5","img/land1.png","75","143.80000001192093","2","1","false","2","0.8,0.8,0.2,0.2,0.8,0.8,0.8,0.2,0.8","",""
"","html-keyboard-response","80","110847","0.0-117.0","3A7Y0R2P2PAQDNO8NZ3VGBRI8UAJXU","A2OVX9UW5WANQE","3S829FDFT2NBOHQMM1CIOU0HZYXDXL","","null","<img src=""img/land1.png"" style=""width:200px; border:14px solid green;"">","null","","","","","","","",""
"","image-keyboard-response","81","111001","0.0-119.0","3A7Y0R2P2PAQDNO8NZ3VGBRI8UAJXU","A2OVX9UW5WANQE","3S829FDFT2NBOHQMM1CIOU0HZYXDXL","","152.90000000596046","img/land6.png","75","154.19999998807907","2","0","false","3","0.8,0.8,0.2,0.2,0.8,0.8,0.8,0.2,0.8","",""
"","html-keyboard-response","82","111303","0.0-120.0","3A7Y0R2P2PAQDNO8NZ3VGBRI8UAJXU","A2OVX9UW5WANQE","3S829FDFT2NBOHQMM1CIOU0HZYXDXL","","null","<img src=""img/land6.png"" style=""width:200px;border:14px solid red;"">","null","","","","","","","",""
"","image-keyboard-response","83","111465","0.0-122.0","3A7Y0R2P2PAQDNO8NZ3VGBRI8UAJXU","A2OVX9UW5WANQE","3S829FDFT2NBOHQMM1CIOU0HZYXDXL","","160.19999998807907","img/land5.png","76","161.2999999821186","3","0","false","1","0.8,0.8,0.2,0.2,0.8,0.8,0.8,0.2,0.8","",""
"","html-keyboard-response","84","111767","0.0-123.0","3A7Y0R2P2PAQDNO8NZ3VGBRI8UAJXU","A2OVX9UW5WANQE","3S829FDFT2NBOHQMM1CIOU0HZYXDXL","","null","<img src=""img/land5.png"" style=""width:200px;border:14px solid red;"">","null","","","","","","","",""
"","image-keyboard-response","85","111889","0.0-125.0","3A7Y0R2P2PAQDNO8NZ3VGBRI8UAJXU","A2OVX9UW5WANQE","3S829FDFT2NBOHQMM1CIOU0HZYXDXL","","120.5","img/land5.png","74","121.69999998807907","1","1","false","1","0.8,0.8,0.2,0.2,0.8,0.8,0.8,0.2,0.8","",""
"","html-keyboard-response","86","112191","0.0-126.0","3A7Y0R2P2PAQDNO8NZ3VGBRI8UAJXU","A2OVX9UW5WANQE","3S829FDFT2NBOHQMM1CIOU0HZYXDXL","","null","<img src=""img/land5.png"" style=""width:200px; border:14px solid green;"">","null","","","","","","","",""
"","image-keyboard-response","87","112313","0.0-128.0","3A7Y0R2P2PAQDNO8NZ3VGBRI8UAJXU","A2OVX9UW5WANQE","3S829FDFT2NBOHQMM1CIOU0HZYXDXL","","119.90000000596046","img/land6.png","74","121.19999998807907","1","0","false","3","0.8,0.8,0.2,0.2,0.8,0.8,0.8,0.2,0.8","",""
"","html-keyboard-response","88","112614","0.0-129.0","3A7Y0R2P2PAQDNO8NZ3VGBRI8UAJXU","A2OVX9UW5WANQE","3S829FDFT2NBOHQMM1CIOU0HZYXDXL","","null","<img src=""img/land6.png"" style=""width:200px;border:14px solid red;"">","null","","","","","","","",""
"","image-keyboard-response","89","112729","0.0-131.0","3A7Y0R2P2PAQDNO8NZ3VGBRI8UAJXU","A2OVX9UW5WANQE","3S829FDFT2NBOHQMM1CIOU0HZYXDXL","","112.80000001192093","img/land6.png","74","114.19999998807907","1","1","false","3","0.8,0.8,0.2,0.2,0.8,0.8,0.8,0.2,0.8","",""
"","html-keyboard-response","90","113032","0.0-132.0","3A7Y0R2P2PAQDNO8NZ3VGBRI8UAJXU","A2OVX9UW5WANQE","3S829FDFT2NBOHQMM1CIOU0HZYXDXL","","null","<img src=""img/land6.png"" style=""width:200px; border:14px solid green;"">","null","","","","","","","",""
"","image-keyboard-response","91","113185","0.0-134.0","3A7Y0R2P2PAQDNO8NZ3VGBRI8UAJXU","A2OVX9UW5WANQE","3S829FDFT2NBOHQMM1CIOU0HZYXDXL","","151.19999998807907","img/land1.png","74","152.5","1","1","false","2","0.8,0.8,0.2,0.2,0.8,0.8,0.8,0.2,0.8","",""
"","html-keyboard-response","92","113486","0.0-135.0","3A7Y0R2P2PAQDNO8NZ3VGBRI8UAJXU","A2OVX9UW5WANQE","3S829FDFT2NBOHQMM1CIOU0HZYXDXL","","null","<img src=""img/land1.png"" style=""width:200px; border:14px solid green;"">","null","","","","","","","",""
"","image-keyboard-response","93","113649","0.0-137.0","3A7Y0R2P2PAQDNO8NZ3VGBRI8UAJXU","A2OVX9UW5WANQE","3S829FDFT2NBOHQMM1CIOU0HZYXDXL","","161.39999997615814","img/land6.png","74","162.39999997615814","1","1","false","3","0.8,0.8,0.2,0.2,0.8,0.8,0.8,0.2,0.8","",""
"","html-keyboard-response","94","113953","0.0-138.0","3A7Y0R2P2PAQDNO8NZ3VGBRI8UAJXU","A2OVX9UW5WANQE","3S829FDFT2NBOHQMM1CIOU0HZYXDXL","","null","<img src=""img/land6.png"" style=""width:200px; border:14px solid green;"">","null","","","","","","","",""
"","image-keyboard-response","95","114129","0.0-140.0","3A7Y0R2P2PAQDNO8NZ3VGBRI8UAJXU","A2OVX9UW5WANQE","3S829FDFT2NBOHQMM1CIOU0HZYXDXL","","174.09999999403954","img/land6.png","74","175.40000000596046","1","1","false","3","0.8,0.8,0.2,0.2,0.8,0.8,0.8,0.2,0.8","",""
"","html-keyboard-response","96","114432","0.0-141.0","3A7Y0R2P2PAQDNO8NZ3VGBRI8UAJXU","A2OVX9UW5WANQE","3S829FDFT2NBOHQMM1CIOU0HZYXDXL","","null","<img src=""img/land6.png"" style=""width:200px; border:14px solid green;"">","null","","","","","","","",""
"","image-keyboard-response","97","114593","0.0-143.0","3A7Y0R2P2PAQDNO8NZ3VGBRI8UAJXU","A2OVX9UW5WANQE","3S829FDFT2NBOHQMM1CIOU0HZYXDXL","","159.90000000596046","img/land6.png","74","161","1","0","false","3","0.8,0.8,0.2,0.2,0.8,0.8,0.8,0.2,0.8","",""
"","html-keyboard-response","98","114895","0.0-144.0","3A7Y0R2P2PAQDNO8NZ3VGBRI8UAJXU","A2OVX9UW5WANQE","3S829FDFT2NBOHQMM1CIOU0HZYXDXL","","null","<img src=""img/land6.png"" style=""width:200px;border:14px solid red;"">","null","","","","","","","",""
"","image-keyboard-response","99","115073","0.0-146.0","3A7Y0R2P2PAQDNO8NZ3VGBRI8UAJXU","A2OVX9UW5WANQE","3S829FDFT2NBOHQMM1CIOU0HZYXDXL","","175.59999999403954","img/land1.png","74","176.69999998807907","1","0","false","2","0.8,0.8,0.2,0.2,0.8,0.8,0.8,0.2,0.8","",""
"","html-keyboard-response","100","115375","0.0-147.0","3A7Y0R2P2PAQDNO8NZ3VGBRI8UAJXU","A2OVX9UW5WANQE","3S829FDFT2NBOHQMM1CIOU0HZYXDXL","","null","<img src=""img/land1.png"" style=""width:200px;border:14px solid red;"">","null","","","","","","","",""
"","image-keyboard-response","101","115625","0.0-149.0","3A7Y0R2P2PAQDNO8NZ3VGBRI8UAJXU","A2OVX9UW5WANQE","3S829FDFT2NBOHQMM1CIOU0HZYXDXL","","248.7999999821186","img/land1.png","75","250.09999999403954","2","1","false","2","0.8,0.8,0.2,0.2,0.8,0.8,0.8,0.2,0.8","",""
"","html-keyboard-response","102","115927","0.0-150.0","3A7Y0R2P2PAQDNO8NZ3VGBRI8UAJXU","A2OVX9UW5WANQE","3S829FDFT2NBOHQMM1CIOU0HZYXDXL","","null","<img src=""img/land1.png"" style=""width:200px; border:14px solid green;"">","null","","","","","","","",""
"","image-keyboard-response","103","116025","0.0-152.0","3A7Y0R2P2PAQDNO8NZ3VGBRI8UAJXU","A2OVX9UW5WANQE","3S829FDFT2NBOHQMM1CIOU0HZYXDXL","","96.5","img/land1.png","75","97.59999999403954","2","1","false","2","0.8,0.8,0.2,0.2,0.8,0.8,0.8,0.2,0.8","",""
"","html-keyboard-response","104","116328","0.0-153.0","3A7Y0R2P2PAQDNO8NZ3VGBRI8UAJXU","A2OVX9UW5WANQE","3S829FDFT2NBOHQMM1CIOU0HZYXDXL","","null","<img src=""img/land1.png"" style=""width:200px; border:14px solid green;"">","null","","","","","","","",""
"","image-keyboard-response","105","116553","0.0-155.0","3A7Y0R2P2PAQDNO8NZ3VGBRI8UAJXU","A2OVX9UW5WANQE","3S829FDFT2NBOHQMM1CIOU0HZYXDXL","","223.40000000596046","img/land6.png","75","224.59999999403954","2","0","false","3","0.8,0.8,0.2,0.2,0.8,0.8,0.8,0.2,0.8","",""
"","html-keyboard-response","106","116859","0.0-156.0","3A7Y0R2P2PAQDNO8NZ3VGBRI8UAJXU","A2OVX9UW5WANQE","3S829FDFT2NBOHQMM1CIOU0HZYXDXL","","null","<img src=""img/land6.png"" style=""width:200px;border:14px solid red;"">","null","","","","","","","",""
"","image-keyboard-response","107","117009","0.0-158.0","3A7Y0R2P2PAQDNO8NZ3VGBRI8UAJXU","A2OVX9UW5WANQE","3S829FDFT2NBOHQMM1CIOU0HZYXDXL","","148.90000000596046","img/land5.png","75","150.19999998807907","2","1","false","1","0.8,0.8,0.2,0.2,0.8,0.8,0.8,0.2,0.8","",""
"","html-keyboard-response","108","117312","0.0-159.0","3A7Y0R2P2PAQDNO8NZ3VGBRI8UAJXU","A2OVX9UW5WANQE","3S829FDFT2NBOHQMM1CIOU0HZYXDXL","","null","<img src=""img/land5.png"" style=""width:200px; border:14px solid green;"">","null","","","","","","","",""
"","image-keyboard-response","109","117489","0.0-161.0","3A7Y0R2P2PAQDNO8NZ3VGBRI8UAJXU","A2OVX9UW5WANQE","3S829FDFT2NBOHQMM1CIOU0HZYXDXL","","175.2000000178814","img/land6.png","76","176.69999998807907","3","1","false","3","0.8,0.8,0.2,0.2,0.8,0.8,0.8,0.2,0.8","",""
"","html-keyboard-response","110","117792","0.0-162.0","3A7Y0R2P2PAQDNO8NZ3VGBRI8UAJXU","A2OVX9UW5WANQE","3S829FDFT2NBOHQMM1CIOU0HZYXDXL","","null","<img src=""img/land6.png"" style=""width:200px; border:14px solid green;"">","null","","","","","","","",""
"","image-keyboard-response","111","118009","0.0-164.0","3A7Y0R2P2PAQDNO8NZ3VGBRI8UAJXU","A2OVX9UW5WANQE","3S829FDFT2NBOHQMM1CIOU0HZYXDXL","","215.2999999821186","img/land6.png","76","216.7000000178814","3","1","false","3","0.8,0.8,0.2,0.2,0.8,0.8,0.8,0.2,0.8","",""
"","html-keyboard-response","112","118312","0.0-165.0","3A7Y0R2P2PAQDNO8NZ3VGBRI8UAJXU","A2OVX9UW5WANQE","3S829FDFT2NBOHQMM1CIOU0HZYXDXL","","null","<img src=""img/land6.png"" style=""width:200px; border:14px solid green;"">","null","","","","","","","",""
"","image-keyboard-response","113","118497","0.0-167.0","3A7Y0R2P2PAQDNO8NZ3VGBRI8UAJXU","A2OVX9UW5WANQE","3S829FDFT2NBOHQMM1CIOU0HZYXDXL","","183","img/land5.png","76","184.19999998807907","3","0","false","1","0.8,0.8,0.2,0.2,0.8,0.8,0.8,0.2,0.8","",""
"","html-keyboard-response","114","118799","0.0-168.0","3A7Y0R2P2PAQDNO8NZ3VGBRI8UAJXU","A2OVX9UW5WANQE","3S829FDFT2NBOHQMM1CIOU0HZYXDXL","","null","<img src=""img/land5.png"" style=""width:200px;border:14px solid red;"">","null","","","","","","","",""
"","image-keyboard-response","115","118961","0.0-170.0","3A7Y0R2P2PAQDNO8NZ3VGBRI8UAJXU","A2OVX9UW5WANQE","3S829FDFT2NBOHQMM1CIOU0HZYXDXL","","160.09999999403954","img/land5.png","74","161.30000001192093","1","1","false","1","0.8,0.8,0.2,0.2,0.8,0.8,0.8,0.2,0.8","",""
"","html-keyboard-response","116","119264","0.0-171.0","3A7Y0R2P2PAQDNO8NZ3VGBRI8UAJXU","A2OVX9UW5WANQE","3S829FDFT2NBOHQMM1CIOU0HZYXDXL","","null","<img src=""img/land5.png"" style=""width:200px; border:14px solid green;"">","null","","","","","","","",""
"","image-keyboard-response","117","119537","0.0-173.0","3A7Y0R2P2PAQDNO8NZ3VGBRI8UAJXU","A2OVX9UW5WANQE","3S829FDFT2NBOHQMM1CIOU0HZYXDXL","","270.69999998807907","img/land1.png","74","271.7999999821186","1","0","false","2","0.8,0.8,0.2,0.2,0.8,0.8,0.8,0.2,0.8","",""
"","html-keyboard-response","118","119839","0.0-174.0","3A7Y0R2P2PAQDNO8NZ3VGBRI8UAJXU","A2OVX9UW5WANQE","3S829FDFT2NBOHQMM1CIOU0HZYXDXL","","null","<img src=""img/land1.png"" style=""width:200px;border:14px solid red;"">","null","","","","","","","",""
"","image-keyboard-response","119","120033","0.0-176.0","3A7Y0R2P2PAQDNO8NZ3VGBRI8UAJXU","A2OVX9UW5WANQE","3S829FDFT2NBOHQMM1CIOU0HZYXDXL","","192.40000000596046","img/land1.png","74","193.69999998807907","1","0","false","2","0.8,0.8,0.2,0.2,0.8,0.8,0.8,0.2,0.8","",""
"","html-keyboard-response","120","120334","0.0-177.0","3A7Y0R2P2PAQDNO8NZ3VGBRI8UAJXU","A2OVX9UW5WANQE","3S829FDFT2NBOHQMM1CIOU0HZYXDXL","","null","<img src=""img/land1.png"" style=""width:200px;border:14px solid red;"">","null","","","","","","","",""
"","image-keyboard-response","121","120761","0.0-179.0","3A7Y0R2P2PAQDNO8NZ3VGBRI8UAJXU","A2OVX9UW5WANQE","3S829FDFT2NBOHQMM1CIOU0HZYXDXL","","424.69999998807907","img/land6.png","74","425.90000000596046","1","1","false","3","0.8,0.8,0.2,0.2,0.8,0.8,0.8,0.2,0.8","",""
"","html-keyboard-response","122","121064","0.0-180.0","3A7Y0R2P2PAQDNO8NZ3VGBRI8UAJXU","A2OVX9UW5WANQE","3S829FDFT2NBOHQMM1CIOU0HZYXDXL","","null","<img src=""img/land6.png"" style=""width:200px; border:14px solid green;"">","null","","","","","","","",""
"","image-keyboard-response","123","121249","0.0-182.0","3A7Y0R2P2PAQDNO8NZ3VGBRI8UAJXU","A2OVX9UW5WANQE","3S829FDFT2NBOHQMM1CIOU0HZYXDXL","","183.30000001192093","img/land1.png","74","184.5","1","0","false","2","0.8,0.8,0.2,0.2,0.8,0.8,0.8,0.2,0.8","",""
"","html-keyboard-response","124","121551","0.0-183.0","3A7Y0R2P2PAQDNO8NZ3VGBRI8UAJXU","A2OVX9UW5WANQE","3S829FDFT2NBOHQMM1CIOU0HZYXDXL","","null","<img src=""img/land1.png"" style=""width:200px;border:14px solid red;"">","null","","","","","","","",""
"","image-keyboard-response","125","121769","0.0-185.0","3A7Y0R2P2PAQDNO8NZ3VGBRI8UAJXU","A2OVX9UW5WANQE","3S829FDFT2NBOHQMM1CIOU0HZYXDXL","","216.19999998807907","img/land6.png","74","217.30000001192093","1","1","false","3","0.8,0.8,0.2,0.2,0.8,0.8,0.8,0.2,0.8","",""
"","html-keyboard-response","126","122072","0.0-186.0","3A7Y0R2P2PAQDNO8NZ3VGBRI8UAJXU","A2OVX9UW5WANQE","3S829FDFT2NBOHQMM1CIOU0HZYXDXL","","null","<img src=""img/land6.png"" style=""width:200px; border:14px solid green;"">","null","","","","","","","",""
"","image-keyboard-response","127","122161","0.0-188.0","3A7Y0R2P2PAQDNO8NZ3VGBRI8UAJXU","A2OVX9UW5WANQE","3S829FDFT2NBOHQMM1CIOU0HZYXDXL","","87.19999998807907","img/land1.png","75","88.5","2","1","false","2","0.8,0.8,0.2,0.2,0.8,0.8,0.8,0.2,0.8","",""
"","html-keyboard-response","128","122463","0.0-189.0","3A7Y0R2P2PAQDNO8NZ3VGBRI8UAJXU","A2OVX9UW5WANQE","3S829FDFT2NBOHQMM1CIOU0HZYXDXL","","null","<img src=""img/land1.png"" style=""width:200px; border:14px solid green;"">","null","","","","","","","",""
"","image-keyboard-response","129","122649","0.0-191.0","3A7Y0R2P2PAQDNO8NZ3VGBRI8UAJXU","A2OVX9UW5WANQE","3S829FDFT2NBOHQMM1CIOU0HZYXDXL","","184.30000001192093","img/land5.png","76","185.5","3","0","false","1","0.8,0.8,0.2,0.2,0.8,0.8,0.8,0.2,0.8","",""
"","html-keyboard-response","130","122951","0.0-192.0","3A7Y0R2P2PAQDNO8NZ3VGBRI8UAJXU","A2OVX9UW5WANQE","3S829FDFT2NBOHQMM1CIOU0HZYXDXL","","null","<img src=""img/land5.png"" style=""width:200px;border:14px solid red;"">","null","","","","","","","",""
"","image-keyboard-response","131","123225","0.0-194.0","3A7Y0R2P2PAQDNO8NZ3VGBRI8UAJXU","A2OVX9UW5WANQE","3S829FDFT2NBOHQMM1CIOU0HZYXDXL","","272.5","img/land1.png","74","273.69999998807907","1","0","false","2","0.8,0.8,0.2,0.2,0.8,0.8,0.8,0.2,0.8","",""
"","html-keyboard-response","132","123528","0.0-195.0","3A7Y0R2P2PAQDNO8NZ3VGBRI8UAJXU","A2OVX9UW5WANQE","3S829FDFT2NBOHQMM1CIOU0HZYXDXL","","null","<img src=""img/land1.png"" style=""width:200px;border:14px solid red;"">","null","","","","","","","",""
"","image-keyboard-response","133","123809","0.0-197.0","3A7Y0R2P2PAQDNO8NZ3VGBRI8UAJXU","A2OVX9UW5WANQE","3S829FDFT2NBOHQMM1CIOU0HZYXDXL","","280","img/land6.png","74","281.30000001192093","1","1","false","3","0.8,0.8,0.2,0.2,0.8,0.8,0.8,0.2,0.8","",""
"","html-keyboard-response","134","124111","0.0-198.0","3A7Y0R2P2PAQDNO8NZ3VGBRI8UAJXU","A2OVX9UW5WANQE","3S829FDFT2NBOHQMM1CIOU0HZYXDXL","","null","<img src=""img/land6.png"" style=""width:200px; border:14px solid green;"">","null","","","","","","","",""
"","image-keyboard-response","135","124329","0.0-200.0","3A7Y0R2P2PAQDNO8NZ3VGBRI8UAJXU","A2OVX9UW5WANQE","3S829FDFT2NBOHQMM1CIOU0HZYXDXL","","215.59999999403954","img/land1.png","74","217","1","0","false","2","0.8,0.8,0.2,0.2,0.8,0.8,0.8,0.2,0.8","",""
"","html-keyboard-response","136","124632","0.0-201.0","3A7Y0R2P2PAQDNO8NZ3VGBRI8UAJXU","A2OVX9UW5WANQE","3S829FDFT2NBOHQMM1CIOU0HZYXDXL","","null","<img src=""img/land1.png"" style=""width:200px;border:14px solid red;"">","null","","","","","","","",""
"","image-keyboard-response","137","124842","0.0-203.0","3A7Y0R2P2PAQDNO8NZ3VGBRI8UAJXU","A2OVX9UW5WANQE","3S829FDFT2NBOHQMM1CIOU0HZYXDXL","","208.40000000596046","img/land6.png","75","209.5","2","1","false","3","0.8,0.8,0.2,0.2,0.8,0.8,0.8,0.2,0.8","",""
"","html-keyboard-response","138","125144","0.0-204.0","3A7Y0R2P2PAQDNO8NZ3VGBRI8UAJXU","A2OVX9UW5WANQE","3S829FDFT2NBOHQMM1CIOU0HZYXDXL","","null","<img src=""img/land6.png"" style=""width:200px; border:14px solid green;"">","null","","","","","","","",""
"","image-keyboard-response","139","125337","0.0-206.0","3A7Y0R2P2PAQDNO8NZ3VGBRI8UAJXU","A2OVX9UW5WANQE","3S829FDFT2NBOHQMM1CIOU0HZYXDXL","","191.09999999403954","img/land5.png","76","192.40000000596046","3","0","false","1","0.8,0.8,0.2,0.2,0.8,0.8,0.8,0.2,0.8","",""
"","html-keyboard-response","140","125639","0.0-207.0","3A7Y0R2P2PAQDNO8NZ3VGBRI8UAJXU","A2OVX9UW5WANQE","3S829FDFT2NBOHQMM1CIOU0HZYXDXL","","null","<img src=""img/land5.png"" style=""width:200px;border:14px solid red;"">","null","","","","","","","",""
"","image-keyboard-response","141","125841","0.0-209.0","3A7Y0R2P2PAQDNO8NZ3VGBRI8UAJXU","A2OVX9UW5WANQE","3S829FDFT2NBOHQMM1CIOU0HZYXDXL","","200.59999999403954","img/land5.png","74","201.90000000596046","1","1","false","1","0.8,0.8,0.2,0.2,0.8,0.8,0.8,0.2,0.8","",""
"","html-keyboard-response","142","126144","0.0-210.0","3A7Y0R2P2PAQDNO8NZ3VGBRI8UAJXU","A2OVX9UW5WANQE","3S829FDFT2NBOHQMM1CIOU0HZYXDXL","","null","<img src=""img/land5.png"" style=""width:200px; border:14px solid green;"">","null","","","","","","","",""
"","image-keyboard-response","143","126337","0.0-212.0","3A7Y0R2P2PAQDNO8NZ3VGBRI8UAJXU","A2OVX9UW5WANQE","3S829FDFT2NBOHQMM1CIOU0HZYXDXL","","191","img/land6.png","74","192.40000000596046","1","1","false","3","0.8,0.8,0.2,0.2,0.8,0.8,0.8,0.2,0.8","",""
"","html-keyboard-response","144","126640","0.0-213.0","3A7Y0R2P2PAQDNO8NZ3VGBRI8UAJXU","A2OVX9UW5WANQE","3S829FDFT2NBOHQMM1CIOU0HZYXDXL","","null","<img src=""img/land6.png"" style=""width:200px; border:14px solid green;"">","null","","","","","","","",""
"","image-keyboard-response","145","126905","0.0-215.0","3A7Y0R2P2PAQDNO8NZ3VGBRI8UAJXU","A2OVX9UW5WANQE","3S829FDFT2NBOHQMM1CIOU0HZYXDXL","","263.59999999403954","img/land5.png","74","264.69999998807907","1","1","false","1","0.8,0.8,0.2,0.2,0.8,0.8,0.8,0.2,0.8","",""
"","html-keyboard-response","146","127208","0.0-216.0","3A7Y0R2P2PAQDNO8NZ3VGBRI8UAJXU","A2OVX9UW5WANQE","3S829FDFT2NBOHQMM1CIOU0HZYXDXL","","null","<img src=""img/land5.png"" style=""width:200px; border:14px solid green;"">","null","","","","","","","",""
"","image-keyboard-response","147","127537","0.0-218.0","3A7Y0R2P2PAQDNO8NZ3VGBRI8UAJXU","A2OVX9UW5WANQE","3S829FDFT2NBOHQMM1CIOU0HZYXDXL","","327.60000002384186","img/land5.png","74","328.80000001192093","1","1","false","1","0.8,0.8,0.2,0.2,0.8,0.8,0.8,0.2,0.8","",""
"","html-keyboard-response","148","127839","0.0-219.0","3A7Y0R2P2PAQDNO8NZ3VGBRI8UAJXU","A2OVX9UW5WANQE","3S829FDFT2NBOHQMM1CIOU0HZYXDXL","","null","<img src=""img/land5.png"" style=""width:200px; border:14px solid green;"">","null","","","","","","","",""
"","image-keyboard-response","149","128113","0.0-221.0","3A7Y0R2P2PAQDNO8NZ3VGBRI8UAJXU","A2OVX9UW5WANQE","3S829FDFT2NBOHQMM1CIOU0HZYXDXL","","272.2000000178814","img/land5.png","74","273.30000001192093","1","1","false","1","0.8,0.8,0.2,0.2,0.8,0.8,0.8,0.2,0.8","",""
"","html-keyboard-response","150","128415","0.0-222.0","3A7Y0R2P2PAQDNO8NZ3VGBRI8UAJXU","A2OVX9UW5WANQE","3S829FDFT2NBOHQMM1CIOU0HZYXDXL","","null","<img src=""img/land5.png"" style=""width:200px; border:14px solid green;"">","null","","","","","","","",""
"","image-keyboard-response","151","128737","0.0-224.0","3A7Y0R2P2PAQDNO8NZ3VGBRI8UAJXU","A2OVX9UW5WANQE","3S829FDFT2NBOHQMM1CIOU0HZYXDXL","","320.19999998807907","img/land1.png","74","321.09999999403954","1","0","false","2","0.8,0.8,0.2,0.2,0.8,0.8,0.8,0.2,0.8","",""
"","html-keyboard-response","152","129039","0.0-225.0","3A7Y0R2P2PAQDNO8NZ3VGBRI8UAJXU","A2OVX9UW5WANQE","3S829FDFT2NBOHQMM1CIOU0HZYXDXL","","null","<img src=""img/land1.png"" style=""width:200px;border:14px solid red;"">","null","","","","","","","",""
"","image-keyboard-response","153","129393","0.0-227.0","3A7Y0R2P2PAQDNO8NZ3VGBRI8UAJXU","A2OVX9UW5WANQE","3S829FDFT2NBOHQMM1CIOU0HZYXDXL","","352.5","img/land1.png","74","353.59999999403954","1","0","false","2","0.8,0.8,0.2,0.2,0.8,0.8,0.8,0.2,0.8","",""
"","html-keyboard-response","154","129696","0.0-228.0","3A7Y0R2P2PAQDNO8NZ3VGBRI8UAJXU","A2OVX9UW5WANQE","3S829FDFT2NBOHQMM1CIOU0HZYXDXL","","null","<img src=""img/land1.png"" style=""width:200px;border:14px solid red;"">","null","","","","","","","",""
"","image-keyboard-response","155","129913","0.0-230.0","3A7Y0R2P2PAQDNO8NZ3VGBRI8UAJXU","A2OVX9UW5WANQE","3S829FDFT2NBOHQMM1CIOU0HZYXDXL","","215.89999997615814","img/land5.png","75","216.90000000596046","2","1","false","1","0.8,0.8,0.2,0.2,0.8,0.8,0.8,0.2,0.8","",""
"","html-keyboard-response","156","130216","0.0-231.0","3A7Y0R2P2PAQDNO8NZ3VGBRI8UAJXU","A2OVX9UW5WANQE","3S829FDFT2NBOHQMM1CIOU0HZYXDXL","","null","<img src=""img/land5.png"" style=""width:200px; border:14px solid green;"">","null","","","","","","","",""
"","image-keyboard-response","157","130418","0.0-233.0","3A7Y0R2P2PAQDNO8NZ3VGBRI8UAJXU","A2OVX9UW5WANQE","3S829FDFT2NBOHQMM1CIOU0HZYXDXL","","200.30000001192093","img/land1.png","75","201.5","2","1","false","2","0.8,0.8,0.2,0.2,0.8,0.8,0.8,0.2,0.8","",""
"","html-keyboard-response","158","130720","0.0-234.0","3A7Y0R2P2PAQDNO8NZ3VGBRI8UAJXU","A2OVX9UW5WANQE","3S829FDFT2NBOHQMM1CIOU0HZYXDXL","","null","<img src=""img/land1.png"" style=""width:200px; border:14px solid green;"">","null","","","","","","","",""
"","image-keyboard-response","159","130946","0.0-236.0","3A7Y0R2P2PAQDNO8NZ3VGBRI8UAJXU","A2OVX9UW5WANQE","3S829FDFT2NBOHQMM1CIOU0HZYXDXL","","223.7000000178814","img/land1.png","75","225","2","0","false","2","0.8,0.8,0.2,0.2,0.8,0.8,0.8,0.2,0.8","",""
"","html-keyboard-response","160","131247","0.0-237.0","3A7Y0R2P2PAQDNO8NZ3VGBRI8UAJXU","A2OVX9UW5WANQE","3S829FDFT2NBOHQMM1CIOU0HZYXDXL","","null","<img src=""img/land1.png"" style=""width:200px;border:14px solid red;"">","null","","","","","","","",""
"","image-keyboard-response","161","131425","0.0-239.0","3A7Y0R2P2PAQDNO8NZ3VGBRI8UAJXU","A2OVX9UW5WANQE","3S829FDFT2NBOHQMM1CIOU0HZYXDXL","","176.5","img/land6.png","75","177.69999998807907","2","0","false","3","0.8,0.8,0.2,0.2,0.8,0.8,0.8,0.2,0.8","",""
"","html-keyboard-response","162","131728","0.0-240.0","3A7Y0R2P2PAQDNO8NZ3VGBRI8UAJXU","A2OVX9UW5WANQE","3S829FDFT2NBOHQMM1CIOU0HZYXDXL","","null","<img src=""img/land6.png"" style=""width:200px;border:14px solid red;"">","null","","","","","","","",""
"","image-keyboard-response","163","131873","0.0-242.0","3A7Y0R2P2PAQDNO8NZ3VGBRI8UAJXU","A2OVX9UW5WANQE","3S829FDFT2NBOHQMM1CIOU0HZYXDXL","","143.59999999403954","img/land6.png","74","144.59999999403954","1","1","false","3","0.8,0.8,0.2,0.2,0.8,0.8,0.8,0.2,0.8","",""
"","html-keyboard-response","164","132175","0.0-243.0","3A7Y0R2P2PAQDNO8NZ3VGBRI8UAJXU","A2OVX9UW5WANQE","3S829FDFT2NBOHQMM1CIOU0HZYXDXL","","null","<img src=""img/land6.png"" style=""width:200px; border:14px solid green;"">","null","","","","","","","",""
"","image-keyboard-response","165","132393","0.0-245.0","3A7Y0R2P2PAQDNO8NZ3VGBRI8UAJXU","A2OVX9UW5WANQE","3S829FDFT2NBOHQMM1CIOU0HZYXDXL","","216.19999998807907","img/land1.png","74","217.39999997615814","1","0","false","2","0.8,0.8,0.2,0.2,0.8,0.8,0.8,0.2,0.8","",""
"","html-keyboard-response","166","132699","0.0-246.0","3A7Y0R2P2PAQDNO8NZ3VGBRI8UAJXU","A2OVX9UW5WANQE","3S829FDFT2NBOHQMM1CIOU0HZYXDXL","","null","<img src=""img/land1.png"" style=""width:200px;border:14px solid red;"">","null","","","","","","","",""
"","image-keyboard-response","167","132881","0.0-248.0","3A7Y0R2P2PAQDNO8NZ3VGBRI8UAJXU","A2OVX9UW5WANQE","3S829FDFT2NBOHQMM1CIOU0HZYXDXL","","181.09999999403954","img/land6.png","74","182.39999997615814","1","0","false","3","0.8,0.8,0.2,0.2,0.8,0.8,0.8,0.2,0.8","",""
"","html-keyboard-response","168","133185","0.0-249.0","3A7Y0R2P2PAQDNO8NZ3VGBRI8UAJXU","A2OVX9UW5WANQE","3S829FDFT2NBOHQMM1CIOU0HZYXDXL","","null","<img src=""img/land6.png"" style=""width:200px;border:14px solid red;"">","null","","","","","","","",""
"","image-keyboard-response","169","133417","0.0-251.0","3A7Y0R2P2PAQDNO8NZ3VGBRI8UAJXU","A2OVX9UW5WANQE","3S829FDFT2NBOHQMM1CIOU0HZYXDXL","","231.09999999403954","img/land6.png","74","232.30000001192093","1","1","false","3","0.8,0.8,0.2,0.2,0.8,0.8,0.8,0.2,0.8","",""
"","html-keyboard-response","170","133720","0.0-252.0","3A7Y0R2P2PAQDNO8NZ3VGBRI8UAJXU","A2OVX9UW5WANQE","3S829FDFT2NBOHQMM1CIOU0HZYXDXL","","null","<img src=""img/land6.png"" style=""width:200px; border:14px solid green;"">","null","","","","","","","",""
"","image-keyboard-response","171","133922","0.0-254.0","3A7Y0R2P2PAQDNO8NZ3VGBRI8UAJXU","A2OVX9UW5WANQE","3S829FDFT2NBOHQMM1CIOU0HZYXDXL","","200.19999998807907","img/land6.png","76","201.40000000596046","3","1","false","3","0.8,0.8,0.2,0.2,0.8,0.8,0.8,0.2,0.8","",""
"","html-keyboard-response","172","134239","0.0-255.0","3A7Y0R2P2PAQDNO8NZ3VGBRI8UAJXU","A2OVX9UW5WANQE","3S829FDFT2NBOHQMM1CIOU0HZYXDXL","","null","<img src=""img/land6.png"" style=""width:200px; border:14px solid green;"">","null","","","","","","","",""
"","image-keyboard-response","173","134521","0.0-257.0","3A7Y0R2P2PAQDNO8NZ3VGBRI8UAJXU","A2OVX9UW5WANQE","3S829FDFT2NBOHQMM1CIOU0HZYXDXL","","280.69999998807907","img/land5.png","74","281.89999997615814","1","1","false","1","0.8,0.8,0.2,0.2,0.8,0.8,0.8,0.2,0.8","",""
"","html-keyboard-response","174","134823","0.0-258.0","3A7Y0R2P2PAQDNO8NZ3VGBRI8UAJXU","A2OVX9UW5WANQE","3S829FDFT2NBOHQMM1CIOU0HZYXDXL","","null","<img src=""img/land5.png"" style=""width:200px; border:14px solid green;"">","null","","","","","","","",""
"","image-keyboard-response","175","135050","0.0-260.0","3A7Y0R2P2PAQDNO8NZ3VGBRI8UAJXU","A2OVX9UW5WANQE","3S829FDFT2NBOHQMM1CIOU0HZYXDXL","","224.80000001192093","img/land5.png","74","225.90000000596046","1","0","false","1","0.8,0.8,0.2,0.2,0.8,0.8,0.8,0.2,0.8","",""
"","html-keyboard-response","176","135352","0.0-261.0","3A7Y0R2P2PAQDNO8NZ3VGBRI8UAJXU","A2OVX9UW5WANQE","3S829FDFT2NBOHQMM1CIOU0HZYXDXL","","null","<img src=""img/land5.png"" style=""width:200px;border:14px solid red;"">","null","","","","","","","",""
"","image-keyboard-response","177","135545","0.0-263.0","3A7Y0R2P2PAQDNO8NZ3VGBRI8UAJXU","A2OVX9UW5WANQE","3S829FDFT2NBOHQMM1CIOU0HZYXDXL","","191.80000001192093","img/land6.png","74","193.09999999403954","1","1","false","3","0.8,0.8,0.2,0.2,0.8,0.8,0.8,0.2,0.8","",""
"","html-keyboard-response","178","135847","0.0-264.0","3A7Y0R2P2PAQDNO8NZ3VGBRI8UAJXU","A2OVX9UW5WANQE","3S829FDFT2NBOHQMM1CIOU0HZYXDXL","","null","<img src=""img/land6.png"" style=""width:200px; border:14px solid green;"">","null","","","","","","","",""
"","image-keyboard-response","179","136033","0.0-266.0","3A7Y0R2P2PAQDNO8NZ3VGBRI8UAJXU","A2OVX9UW5WANQE","3S829FDFT2NBOHQMM1CIOU0HZYXDXL","","184.30000001192093","img/land1.png","75","185.59999999403954","2","1","false","2","0.8,0.8,0.2,0.2,0.8,0.8,0.8,0.2,0.8","",""
"","html-keyboard-response","180","136335","0.0-267.0","3A7Y0R2P2PAQDNO8NZ3VGBRI8UAJXU","A2OVX9UW5WANQE","3S829FDFT2NBOHQMM1CIOU0HZYXDXL","","null","<img src=""img/land1.png"" style=""width:200px; border:14px solid green;"">","null","","","","","","","",""
"","image-keyboard-response","181","136713","0.0-269.0","3A7Y0R2P2PAQDNO8NZ3VGBRI8UAJXU","A2OVX9UW5WANQE","3S829FDFT2NBOHQMM1CIOU0HZYXDXL","","376.80000001192093","img/land5.png","74","377.90000000596046","1","1","false","1","0.8,0.8,0.2,0.2,0.8,0.8,0.8,0.2,0.8","",""
"","html-keyboard-response","182","137016","0.0-270.0","3A7Y0R2P2PAQDNO8NZ3VGBRI8UAJXU","A2OVX9UW5WANQE","3S829FDFT2NBOHQMM1CIOU0HZYXDXL","","null","<img src=""img/land5.png"" style=""width:200px; border:14px solid green;"">","null","","","","","","","",""
"","html-keyboard-response","183","160678","0.0-272.0","3A7Y0R2P2PAQDNO8NZ3VGBRI8UAJXU","A2OVX9UW5WANQE","3S829FDFT2NBOHQMM1CIOU0HZYXDXL","","","","","","","","","","","",""
"","image-keyboard-response","184","161266","0.0-273.0","3A7Y0R2P2PAQDNO8NZ3VGBRI8UAJXU","A2OVX9UW5WANQE","3S829FDFT2NBOHQMM1CIOU0HZYXDXL","","586.1000000238419","img/land4.png","74","587.3999999761581","1","1","false","3","0.6,0.6,0,0,0.6,0.6,0.6,0,0.6","",""
"","html-keyboard-response","185","161567","0.0-274.0","3A7Y0R2P2PAQDNO8NZ3VGBRI8UAJXU","A2OVX9UW5WANQE","3S829FDFT2NBOHQMM1CIOU0HZYXDXL","","null","<img src=""img/land4.png"" style=""width:200px; border:14px solid green;"">","null","","","","","","","",""
"","image-keyboard-response","186","162257","0.0-276.0","3A7Y0R2P2PAQDNO8NZ3VGBRI8UAJXU","A2OVX9UW5WANQE","3S829FDFT2NBOHQMM1CIOU0HZYXDXL","","688.5999999940395","img/land2.png","75","689.4000000059605","2","1","false","1","0.6,0.6,0,0,0.6,0.6,0.6,0,0.6","",""
"","html-keyboard-response","187","162559","0.0-277.0","3A7Y0R2P2PAQDNO8NZ3VGBRI8UAJXU","A2OVX9UW5WANQE","3S829FDFT2NBOHQMM1CIOU0HZYXDXL","","null","<img src=""img/land2.png"" style=""width:200px; border:14px solid green;"">","null","","","","","","","",""
"","image-keyboard-response","188","163369","0.0-279.0","3A7Y0R2P2PAQDNO8NZ3VGBRI8UAJXU","A2OVX9UW5WANQE","3S829FDFT2NBOHQMM1CIOU0HZYXDXL","","808.9000000059605","img/land4.png","74","810.2999999821186","1","1","false","3","0.6,0.6,0,0,0.6,0.6,0.6,0,0.6","",""
"","html-keyboard-response","189","163672","0.0-280.0","3A7Y0R2P2PAQDNO8NZ3VGBRI8UAJXU","A2OVX9UW5WANQE","3S829FDFT2NBOHQMM1CIOU0HZYXDXL","","null","<img src=""img/land4.png"" style=""width:200px; border:14px solid green;"">","null","","","","","","","",""
"","image-keyboard-response","190","164425","0.0-282.0","3A7Y0R2P2PAQDNO8NZ3VGBRI8UAJXU","A2OVX9UW5WANQE","3S829FDFT2NBOHQMM1CIOU0HZYXDXL","","751.5999999940395","img/land8.png","76","752.6999999880791","3","1","false","2","0.6,0.6,0,0,0.6,0.6,0.6,0,0.6","",""
"","html-keyboard-response","191","164731","0.0-283.0","3A7Y0R2P2PAQDNO8NZ3VGBRI8UAJXU","A2OVX9UW5WANQE","3S829FDFT2NBOHQMM1CIOU0HZYXDXL","","null","<img src=""img/land8.png"" style=""width:200px; border:14px solid green;"">","null","","","","","","","",""
"","image-keyboard-response","192","165393","0.0-285.0","3A7Y0R2P2PAQDNO8NZ3VGBRI8UAJXU","A2OVX9UW5WANQE","3S829FDFT2NBOHQMM1CIOU0HZYXDXL","","660.8000000119209","img/land8.png","76","662","3","1","false","2","0.6,0.6,0,0,0.6,0.6,0.6,0,0.6","",""
"","html-keyboard-response","193","165710","0.0-286.0","3A7Y0R2P2PAQDNO8NZ3VGBRI8UAJXU","A2OVX9UW5WANQE","3S829FDFT2NBOHQMM1CIOU0HZYXDXL","","null","<img src=""img/land8.png"" style=""width:200px; border:14px solid green;"">","null","","","","","","","",""
"","image-keyboard-response","194","166130","0.0-288.0","3A7Y0R2P2PAQDNO8NZ3VGBRI8UAJXU","A2OVX9UW5WANQE","3S829FDFT2NBOHQMM1CIOU0HZYXDXL","","418.40000000596046","img/land8.png","76","419.59999999403954","3","1","false","2","0.6,0.6,0,0,0.6,0.6,0.6,0,0.6","",""
"","html-keyboard-response","195","166434","0.0-289.0","3A7Y0R2P2PAQDNO8NZ3VGBRI8UAJXU","A2OVX9UW5WANQE","3S829FDFT2NBOHQMM1CIOU0HZYXDXL","","null","<img src=""img/land8.png"" style=""width:200px; border:14px solid green;"">","null","","","","","","","",""
"","image-keyboard-response","196","166810","0.0-291.0","3A7Y0R2P2PAQDNO8NZ3VGBRI8UAJXU","A2OVX9UW5WANQE","3S829FDFT2NBOHQMM1CIOU0HZYXDXL","","375","img/land8.png","76","376.30000001192093","3","1","false","2","0.6,0.6,0,0,0.6,0.6,0.6,0,0.6","",""
"","html-keyboard-response","197","167113","0.0-292.0","3A7Y0R2P2PAQDNO8NZ3VGBRI8UAJXU","A2OVX9UW5WANQE","3S829FDFT2NBOHQMM1CIOU0HZYXDXL","","null","<img src=""img/land8.png"" style=""width:200px; border:14px solid green;"">","null","","","","","","","",""
"","image-keyboard-response","198","167490","0.0-294.0","3A7Y0R2P2PAQDNO8NZ3VGBRI8UAJXU","A2OVX9UW5WANQE","3S829FDFT2NBOHQMM1CIOU0HZYXDXL","","375.10000002384186","img/land4.png","76","376.40000000596046","3","1","false","3","0.6,0.6,0,0,0.6,0.6,0.6,0,0.6","",""
"","html-keyboard-response","199","167792","0.0-295.0","3A7Y0R2P2PAQDNO8NZ3VGBRI8UAJXU","A2OVX9UW5WANQE","3S829FDFT2NBOHQMM1CIOU0HZYXDXL","","null","<img src=""img/land4.png"" style=""width:200px; border:14px solid green;"">","null","","","","","","","",""
"","image-keyboard-response","200","168193","0.0-297.0","3A7Y0R2P2PAQDNO8NZ3VGBRI8UAJXU","A2OVX9UW5WANQE","3S829FDFT2NBOHQMM1CIOU0HZYXDXL","","399.7999999821186","img/land2.png","76","401","3","0","false","1","0.6,0.6,0,0,0.6,0.6,0.6,0,0.6","",""
"","html-keyboard-response","201","168496","0.0-298.0","3A7Y0R2P2PAQDNO8NZ3VGBRI8UAJXU","A2OVX9UW5WANQE","3S829FDFT2NBOHQMM1CIOU0HZYXDXL","","null","<img src=""img/land2.png"" style=""width:200px;border:14px solid red;"">","null","","","","","","","",""
"","image-keyboard-response","202","168873","0.0-300.0","3A7Y0R2P2PAQDNO8NZ3VGBRI8UAJXU","A2OVX9UW5WANQE","3S829FDFT2NBOHQMM1CIOU0HZYXDXL","","375.19999998807907","img/land8.png","74","376.69999998807907","1","0","false","2","0.6,0.6,0,0,0.6,0.6,0.6,0,0.6","",""
"","html-keyboard-response","203","169176","0.0-301.0","3A7Y0R2P2PAQDNO8NZ3VGBRI8UAJXU","A2OVX9UW5WANQE","3S829FDFT2NBOHQMM1CIOU0HZYXDXL","","null","<img src=""img/land8.png"" style=""width:200px;border:14px solid red;"">","null","","","","","","","",""
"","image-keyboard-response","204","169673","0.0-303.0","3A7Y0R2P2PAQDNO8NZ3VGBRI8UAJXU","A2OVX9UW5WANQE","3S829FDFT2NBOHQMM1CIOU0HZYXDXL","","495.90000000596046","img/land2.png","76","497.09999999403954","3","0","false","1","0.6,0.6,0,0,0.6,0.6,0.6,0,0.6","",""
"","html-keyboard-response","205","169975","0.0-304.0","3A7Y0R2P2PAQDNO8NZ3VGBRI8UAJXU","A2OVX9UW5WANQE","3S829FDFT2NBOHQMM1CIOU0HZYXDXL","","null","<img src=""img/land2.png"" style=""width:200px;border:14px solid red;"">","null","","","","","","","",""
"","image-keyboard-response","206","170314","0.0-306.0","3A7Y0R2P2PAQDNO8NZ3VGBRI8UAJXU","A2OVX9UW5WANQE","3S829FDFT2NBOHQMM1CIOU0HZYXDXL","","336.90000000596046","img/land2.png","76","338.2000000178814","3","0","false","1","0.6,0.6,0,0,0.6,0.6,0.6,0,0.6","",""
"","html-keyboard-response","207","170615","0.0-307.0","3A7Y0R2P2PAQDNO8NZ3VGBRI8UAJXU","A2OVX9UW5WANQE","3S829FDFT2NBOHQMM1CIOU0HZYXDXL","","null","<img src=""img/land2.png"" style=""width:200px;border:14px solid red;"">","null","","","","","","","",""
"","image-keyboard-response","208","171506","0.0-309.0","3A7Y0R2P2PAQDNO8NZ3VGBRI8UAJXU","A2OVX9UW5WANQE","3S829FDFT2NBOHQMM1CIOU0HZYXDXL","","889.4000000059605","img/land4.png","76","890.5","3","0","false","3","0.6,0.6,0,0,0.6,0.6,0.6,0,0.6","",""
"","html-keyboard-response","209","171808","0.0-310.0","3A7Y0R2P2PAQDNO8NZ3VGBRI8UAJXU","A2OVX9UW5WANQE","3S829FDFT2NBOHQMM1CIOU0HZYXDXL","","null","<img src=""img/land4.png"" style=""width:200px;border:14px solid red;"">","null","","","","","","","",""
"","image-keyboard-response","210","172402","0.0-312.0","3A7Y0R2P2PAQDNO8NZ3VGBRI8UAJXU","A2OVX9UW5WANQE","3S829FDFT2NBOHQMM1CIOU0HZYXDXL","","592.5","img/land8.png","76","593.9000000059605","3","1","false","2","0.6,0.6,0,0,0.6,0.6,0.6,0,0.6","",""
"","html-keyboard-response","211","172704","0.0-313.0","3A7Y0R2P2PAQDNO8NZ3VGBRI8UAJXU","A2OVX9UW5WANQE","3S829FDFT2NBOHQMM1CIOU0HZYXDXL","","null","<img src=""img/land8.png"" style=""width:200px; border:14px solid green;"">","null","","","","","","","",""
"","image-keyboard-response","212","173578","0.0-315.0","3A7Y0R2P2PAQDNO8NZ3VGBRI8UAJXU","A2OVX9UW5WANQE","3S829FDFT2NBOHQMM1CIOU0HZYXDXL","","872.0999999940395","img/land2.png","75","873.3000000119209","2","1","false","1","0.6,0.6,0,0,0.6,0.6,0.6,0,0.6","",""
"","html-keyboard-response","213","173887","0.0-316.0","3A7Y0R2P2PAQDNO8NZ3VGBRI8UAJXU","A2OVX9UW5WANQE","3S829FDFT2NBOHQMM1CIOU0HZYXDXL","","null","<img src=""img/land2.png"" style=""width:200px; border:14px solid green;"">","null","","","","","","","",""
"","image-keyboard-response","214","174433","0.0-318.0","3A7Y0R2P2PAQDNO8NZ3VGBRI8UAJXU","A2OVX9UW5WANQE","3S829FDFT2NBOHQMM1CIOU0HZYXDXL","","544.5999999940395","img/land4.png","74","546","1","0","false","3","0.6,0.6,0,0,0.6,0.6,0.6,0,0.6","",""
"","html-keyboard-response","215","174737","0.0-319.0","3A7Y0R2P2PAQDNO8NZ3VGBRI8UAJXU","A2OVX9UW5WANQE","3S829FDFT2NBOHQMM1CIOU0HZYXDXL","","null","<img src=""img/land4.png"" style=""width:200px;border:14px solid red;"">","null","","","","","","","",""
"","image-keyboard-response","216","175362","0.0-321.0","3A7Y0R2P2PAQDNO8NZ3VGBRI8UAJXU","A2OVX9UW5WANQE","3S829FDFT2NBOHQMM1CIOU0HZYXDXL","","623.7999999821186","img/land2.png","75","625","2","1","false","1","0.6,0.6,0,0,0.6,0.6,0.6,0,0.6","",""
"","html-keyboard-response","217","175664","0.0-322.0","3A7Y0R2P2PAQDNO8NZ3VGBRI8UAJXU","A2OVX9UW5WANQE","3S829FDFT2NBOHQMM1CIOU0HZYXDXL","","null","<img src=""img/land2.png"" style=""width:200px; border:14px solid green;"">","null","","","","","","","",""
"","image-keyboard-response","218","176082","0.0-324.0","3A7Y0R2P2PAQDNO8NZ3VGBRI8UAJXU","A2OVX9UW5WANQE","3S829FDFT2NBOHQMM1CIOU0HZYXDXL","","416.09999999403954","img/land2.png","75","417.5","2","1","false","1","0.6,0.6,0,0,0.6,0.6,0.6,0,0.6","",""
"","html-keyboard-response","219","176384","0.0-325.0","3A7Y0R2P2PAQDNO8NZ3VGBRI8UAJXU","A2OVX9UW5WANQE","3S829FDFT2NBOHQMM1CIOU0HZYXDXL","","null","<img src=""img/land2.png"" style=""width:200px; border:14px solid green;"">","null","","","","","","","",""
"","image-keyboard-response","220","176937","0.0-327.0","3A7Y0R2P2PAQDNO8NZ3VGBRI8UAJXU","A2OVX9UW5WANQE","3S829FDFT2NBOHQMM1CIOU0HZYXDXL","","551.6999999880791","img/land8.png","76","553.0999999940395","3","1","false","2","0.6,0.6,0,0,0.6,0.6,0.6,0,0.6","",""
"","html-keyboard-response","221","177240","0.0-328.0","3A7Y0R2P2PAQDNO8NZ3VGBRI8UAJXU","A2OVX9UW5WANQE","3S829FDFT2NBOHQMM1CIOU0HZYXDXL","","null","<img src=""img/land8.png"" style=""width:200px; border:14px solid green;"">","null","","","","","","","",""
"","image-keyboard-response","222","177865","0.0-330.0","3A7Y0R2P2PAQDNO8NZ3VGBRI8UAJXU","A2OVX9UW5WANQE","3S829FDFT2NBOHQMM1CIOU0HZYXDXL","","623.5999999940395","img/land4.png","75","624.9000000059605","2","0","false","3","0.6,0.6,0,0,0.6,0.6,0.6,0,0.6","",""
"","html-keyboard-response","223","178168","0.0-331.0","3A7Y0R2P2PAQDNO8NZ3VGBRI8UAJXU","A2OVX9UW5WANQE","3S829FDFT2NBOHQMM1CIOU0HZYXDXL","","null","<img src=""img/land4.png"" style=""width:200px;border:14px solid red;"">","null","","","","","","","",""
"","image-keyboard-response","224","178690","0.0-333.0","3A7Y0R2P2PAQDNO8NZ3VGBRI8UAJXU","A2OVX9UW5WANQE","3S829FDFT2NBOHQMM1CIOU0HZYXDXL","","519.9000000059605","img/land2.png","75","521","2","0","false","1","0.6,0.6,0,0,0.6,0.6,0.6,0,0.6","",""
"","html-keyboard-response","225","178992","0.0-334.0","3A7Y0R2P2PAQDNO8NZ3VGBRI8UAJXU","A2OVX9UW5WANQE","3S829FDFT2NBOHQMM1CIOU0HZYXDXL","","null","<img src=""img/land2.png"" style=""width:200px;border:14px solid red;"">","null","","","","","","","",""
"","image-keyboard-response","226","179562","0.0-336.0","3A7Y0R2P2PAQDNO8NZ3VGBRI8UAJXU","A2OVX9UW5WANQE","3S829FDFT2NBOHQMM1CIOU0HZYXDXL","","568.2999999821186","img/land4.png","76","569.5","3","1","false","3","0.6,0.6,0,0,0.6,0.6,0.6,0,0.6","",""
"","html-keyboard-response","227","179865","0.0-337.0","3A7Y0R2P2PAQDNO8NZ3VGBRI8UAJXU","A2OVX9UW5WANQE","3S829FDFT2NBOHQMM1CIOU0HZYXDXL","","null","<img src=""img/land4.png"" style=""width:200px; border:14px solid green;"">","null","","","","","","","",""
"","image-keyboard-response","228","180250","0.0-339.0","3A7Y0R2P2PAQDNO8NZ3VGBRI8UAJXU","A2OVX9UW5WANQE","3S829FDFT2NBOHQMM1CIOU0HZYXDXL","","383.30000001192093","img/land4.png","76","384.5","3","0","false","3","0.6,0.6,0,0,0.6,0.6,0.6,0,0.6","",""
"","html-keyboard-response","229","180552","0.0-340.0","3A7Y0R2P2PAQDNO8NZ3VGBRI8UAJXU","A2OVX9UW5WANQE","3S829FDFT2NBOHQMM1CIOU0HZYXDXL","","null","<img src=""img/land4.png"" style=""width:200px;border:14px solid red;"">","null","","","","","","","",""
"","image-keyboard-response","230","181282","0.0-342.0","3A7Y0R2P2PAQDNO8NZ3VGBRI8UAJXU","A2OVX9UW5WANQE","3S829FDFT2NBOHQMM1CIOU0HZYXDXL","","727.9000000059605","img/land2.png","76","729.5","3","0","false","1","0.6,0.6,0,0,0.6,0.6,0.6,0,0.6","",""
"","html-keyboard-response","231","181585","0.0-343.0","3A7Y0R2P2PAQDNO8NZ3VGBRI8UAJXU","A2OVX9UW5WANQE","3S829FDFT2NBOHQMM1CIOU0HZYXDXL","","null","<img src=""img/land2.png"" style=""width:200px;border:14px solid red;"">","null","","","","","","","",""
"","image-keyboard-response","232","182202","0.0-345.0","3A7Y0R2P2PAQDNO8NZ3VGBRI8UAJXU","A2OVX9UW5WANQE","3S829FDFT2NBOHQMM1CIOU0HZYXDXL","","615.6999999880791","img/land8.png","76","616.9000000059605","3","1","false","2","0.6,0.6,0,0,0.6,0.6,0.6,0,0.6","",""
"","html-keyboard-response","233","182505","0.0-346.0","3A7Y0R2P2PAQDNO8NZ3VGBRI8UAJXU","A2OVX9UW5WANQE","3S829FDFT2NBOHQMM1CIOU0HZYXDXL","","null","<img src=""img/land8.png"" style=""width:200px; border:14px solid green;"">","null","","","","","","","",""
"","image-keyboard-response","234","182898","0.0-348.0","3A7Y0R2P2PAQDNO8NZ3VGBRI8UAJXU","A2OVX9UW5WANQE","3S829FDFT2NBOHQMM1CIOU0HZYXDXL","","391.40000000596046","img/land8.png","76","392.5","3","1","false","2","0.6,0.6,0,0,0.6,0.6,0.6,0,0.6","",""
"","html-keyboard-response","235","183200","0.0-349.0","3A7Y0R2P2PAQDNO8NZ3VGBRI8UAJXU","A2OVX9UW5WANQE","3S829FDFT2NBOHQMM1CIOU0HZYXDXL","","null","<img src=""img/land8.png"" style=""width:200px; border:14px solid green;"">","null","","","","","","","",""
"","image-keyboard-response","236","183530","0.0-351.0","3A7Y0R2P2PAQDNO8NZ3VGBRI8UAJXU","A2OVX9UW5WANQE","3S829FDFT2NBOHQMM1CIOU0HZYXDXL","","328.30000001192093","img/land8.png","76","329.59999999403954","3","0","false","2","0.6,0.6,0,0,0.6,0.6,0.6,0,0.6","",""
"","html-keyboard-response","237","183832","0.0-352.0","3A7Y0R2P2PAQDNO8NZ3VGBRI8UAJXU","A2OVX9UW5WANQE","3S829FDFT2NBOHQMM1CIOU0HZYXDXL","","null","<img src=""img/land8.png"" style=""width:200px;border:14px solid red;"">","null","","","","","","","",""
"","image-keyboard-response","238","184129","0.0-354.0","3A7Y0R2P2PAQDNO8NZ3VGBRI8UAJXU","A2OVX9UW5WANQE","3S829FDFT2NBOHQMM1CIOU0HZYXDXL","","296","img/land8.png","76","297.09999999403954","3","1","false","2","0.6,0.6,0,0,0.6,0.6,0.6,0,0.6","",""
"","html-keyboard-response","239","184432","0.0-355.0","3A7Y0R2P2PAQDNO8NZ3VGBRI8UAJXU","A2OVX9UW5WANQE","3S829FDFT2NBOHQMM1CIOU0HZYXDXL","","null","<img src=""img/land8.png"" style=""width:200px; border:14px solid green;"">","null","","","","","","","",""
"","image-keyboard-response","240","184738","0.0-357.0","3A7Y0R2P2PAQDNO8NZ3VGBRI8UAJXU","A2OVX9UW5WANQE","3S829FDFT2NBOHQMM1CIOU0HZYXDXL","","304.19999998807907","img/land8.png","76","305.5","3","1","false","2","0.6,0.6,0,0,0.6,0.6,0.6,0,0.6","",""
"","html-keyboard-response","241","185040","0.0-358.0","3A7Y0R2P2PAQDNO8NZ3VGBRI8UAJXU","A2OVX9UW5WANQE","3S829FDFT2NBOHQMM1CIOU0HZYXDXL","","null","<img src=""img/land8.png"" style=""width:200px; border:14px solid green;"">","null","","","","","","","",""
"","image-keyboard-response","242","185410","0.0-360.0","3A7Y0R2P2PAQDNO8NZ3VGBRI8UAJXU","A2OVX9UW5WANQE","3S829FDFT2NBOHQMM1CIOU0HZYXDXL","","368.40000000596046","img/land8.png","76","369.7000000178814","3","0","false","2","0.6,0.6,0,0,0.6,0.6,0.6,0,0.6","",""
"","html-keyboard-response","243","185713","0.0-361.0","3A7Y0R2P2PAQDNO8NZ3VGBRI8UAJXU","A2OVX9UW5WANQE","3S829FDFT2NBOHQMM1CIOU0HZYXDXL","","null","<img src=""img/land8.png"" style=""width:200px;border:14px solid red;"">","null","","","","","","","",""
"","image-keyboard-response","244","186393","0.0-363.0","3A7Y0R2P2PAQDNO8NZ3VGBRI8UAJXU","A2OVX9UW5WANQE","3S829FDFT2NBOHQMM1CIOU0HZYXDXL","","679.1999999880791","img/land2.png","76","680.4000000059605","3","0","false","1","0.6,0.6,0,0,0.6,0.6,0.6,0,0.6","",""
"","html-keyboard-response","245","186695","0.0-364.0","3A7Y0R2P2PAQDNO8NZ3VGBRI8UAJXU","A2OVX9UW5WANQE","3S829FDFT2NBOHQMM1CIOU0HZYXDXL","","null","<img src=""img/land2.png"" style=""width:200px;border:14px solid red;"">","null","","","","","","","",""
"","image-keyboard-response","246","187034","0.0-366.0","3A7Y0R2P2PAQDNO8NZ3VGBRI8UAJXU","A2OVX9UW5WANQE","3S829FDFT2NBOHQMM1CIOU0HZYXDXL","","336.7000000178814","img/land2.png","76","338.09999999403954","3","0","false","1","0.6,0.6,0,0,0.6,0.6,0.6,0,0.6","",""
"","html-keyboard-response","247","187336","0.0-367.0","3A7Y0R2P2PAQDNO8NZ3VGBRI8UAJXU","A2OVX9UW5WANQE","3S829FDFT2NBOHQMM1CIOU0HZYXDXL","","null","<img src=""img/land2.png"" style=""width:200px;border:14px solid red;"">","null","","","","","","","",""
"","image-keyboard-response","248","187978","0.0-369.0","3A7Y0R2P2PAQDNO8NZ3VGBRI8UAJXU","A2OVX9UW5WANQE","3S829FDFT2NBOHQMM1CIOU0HZYXDXL","","639.3999999761581","img/land4.png","75","640.9000000059605","2","0","false","3","0.6,0.6,0,0,0.6,0.6,0.6,0,0.6","",""
"","html-keyboard-response","249","188280","0.0-370.0","3A7Y0R2P2PAQDNO8NZ3VGBRI8UAJXU","A2OVX9UW5WANQE","3S829FDFT2NBOHQMM1CIOU0HZYXDXL","","null","<img src=""img/land4.png"" style=""width:200px;border:14px solid red;"">","null","","","","","","","",""
"","image-keyboard-response","250","188721","0.0-372.0","3A7Y0R2P2PAQDNO8NZ3VGBRI8UAJXU","A2OVX9UW5WANQE","3S829FDFT2NBOHQMM1CIOU0HZYXDXL","","439.19999998807907","img/land4.png","75","440.59999999403954","2","0","false","3","0.6,0.6,0,0,0.6,0.6,0.6,0,0.6","",""
"","html-keyboard-response","251","189024","0.0-373.0","3A7Y0R2P2PAQDNO8NZ3VGBRI8UAJXU","A2OVX9UW5WANQE","3S829FDFT2NBOHQMM1CIOU0HZYXDXL","","null","<img src=""img/land4.png"" style=""width:200px;border:14px solid red;"">","null","","","","","","","",""
"","image-keyboard-response","252","189354","0.0-375.0","3A7Y0R2P2PAQDNO8NZ3VGBRI8UAJXU","A2OVX9UW5WANQE","3S829FDFT2NBOHQMM1CIOU0HZYXDXL","","328","img/land4.png","76","329.19999998807907","3","1","false","3","0.6,0.6,0,0,0.6,0.6,0.6,0,0.6","",""
"","html-keyboard-response","253","189656","0.0-376.0","3A7Y0R2P2PAQDNO8NZ3VGBRI8UAJXU","A2OVX9UW5WANQE","3S829FDFT2NBOHQMM1CIOU0HZYXDXL","","null","<img src=""img/land4.png"" style=""width:200px; border:14px solid green;"">","null","","","","","","","",""
"","image-keyboard-response","254","189953","0.0-378.0","3A7Y0R2P2PAQDNO8NZ3VGBRI8UAJXU","A2OVX9UW5WANQE","3S829FDFT2NBOHQMM1CIOU0HZYXDXL","","296.30000001192093","img/land4.png","76","297.40000000596046","3","0","false","3","0.6,0.6,0,0,0.6,0.6,0.6,0,0.6","",""
"","html-keyboard-response","255","190256","0.0-379.0","3A7Y0R2P2PAQDNO8NZ3VGBRI8UAJXU","A2OVX9UW5WANQE","3S829FDFT2NBOHQMM1CIOU0HZYXDXL","","null","<img src=""img/land4.png"" style=""width:200px;border:14px solid red;"">","null","","","","","","","",""
"","image-keyboard-response","256","190970","0.0-381.0","3A7Y0R2P2PAQDNO8NZ3VGBRI8UAJXU","A2OVX9UW5WANQE","3S829FDFT2NBOHQMM1CIOU0HZYXDXL","","712.4000000059605","img/land8.png","75","713.6999999880791","2","1","false","2","0.6,0.6,0,0,0.6,0.6,0.6,0,0.6","",""
"","html-keyboard-response","257","191272","0.0-382.0","3A7Y0R2P2PAQDNO8NZ3VGBRI8UAJXU","A2OVX9UW5WANQE","3S829FDFT2NBOHQMM1CIOU0HZYXDXL","","null","<img src=""img/land8.png"" style=""width:200px; border:14px solid green;"">","null","","","","","","","",""
"","image-keyboard-response","258","191786","0.0-384.0","3A7Y0R2P2PAQDNO8NZ3VGBRI8UAJXU","A2OVX9UW5WANQE","3S829FDFT2NBOHQMM1CIOU0HZYXDXL","","511.69999998807907","img/land4.png","75","512.9000000059605","2","0","false","3","0.6,0.6,0,0,0.6,0.6,0.6,0,0.6","",""
"","html-keyboard-response","259","192088","0.0-385.0","3A7Y0R2P2PAQDNO8NZ3VGBRI8UAJXU","A2OVX9UW5WANQE","3S829FDFT2NBOHQMM1CIOU0HZYXDXL","","null","<img src=""img/land4.png"" style=""width:200px;border:14px solid red;"">","null","","","","","","","",""
"","image-keyboard-response","260","192530","0.0-387.0","3A7Y0R2P2PAQDNO8NZ3VGBRI8UAJXU","A2OVX9UW5WANQE","3S829FDFT2NBOHQMM1CIOU0HZYXDXL","","440.90000000596046","img/land8.png","74","442.09999999403954","1","0","false","2","0.6,0.6,0,0,0.6,0.6,0.6,0,0.6","",""
"","html-keyboard-response","261","192834","0.0-388.0","3A7Y0R2P2PAQDNO8NZ3VGBRI8UAJXU","A2OVX9UW5WANQE","3S829FDFT2NBOHQMM1CIOU0HZYXDXL","","null","<img src=""img/land8.png"" style=""width:200px;border:14px solid red;"">","null","","","","","","","",""
"","image-keyboard-response","262","193106","0.0-390.0","3A7Y0R2P2PAQDNO8NZ3VGBRI8UAJXU","A2OVX9UW5WANQE","3S829FDFT2NBOHQMM1CIOU0HZYXDXL","","270.5","img/land2.png","76","271.69999998807907","3","0","false","1","0.6,0.6,0,0,0.6,0.6,0.6,0,0.6","",""
"","html-keyboard-response","263","193408","0.0-391.0","3A7Y0R2P2PAQDNO8NZ3VGBRI8UAJXU","A2OVX9UW5WANQE","3S829FDFT2NBOHQMM1CIOU0HZYXDXL","","null","<img src=""img/land2.png"" style=""width:200px;border:14px solid red;"">","null","","","","","","","",""
"","image-keyboard-response","264","193618","0.0-393.0","3A7Y0R2P2PAQDNO8NZ3VGBRI8UAJXU","A2OVX9UW5WANQE","3S829FDFT2NBOHQMM1CIOU0HZYXDXL","","208","img/land4.png","76","209.2000000178814","3","0","false","3","0.6,0.6,0,0,0.6,0.6,0.6,0,0.6","",""
"","html-keyboard-response","265","193919","0.0-394.0","3A7Y0R2P2PAQDNO8NZ3VGBRI8UAJXU","A2OVX9UW5WANQE","3S829FDFT2NBOHQMM1CIOU0HZYXDXL","","null","<img src=""img/land4.png"" style=""width:200px;border:14px solid red;"">","null","","","","","","","",""
"","image-keyboard-response","266","194194","0.0-396.0","3A7Y0R2P2PAQDNO8NZ3VGBRI8UAJXU","A2OVX9UW5WANQE","3S829FDFT2NBOHQMM1CIOU0HZYXDXL","","272.7999999821186","img/land4.png","76","274","3","0","false","3","0.6,0.6,0,0,0.6,0.6,0.6,0,0.6","",""
"","html-keyboard-response","267","194496","0.0-397.0","3A7Y0R2P2PAQDNO8NZ3VGBRI8UAJXU","A2OVX9UW5WANQE","3S829FDFT2NBOHQMM1CIOU0HZYXDXL","","null","<img src=""img/land4.png"" style=""width:200px;border:14px solid red;"">","null","","","","","","","",""
"","image-keyboard-response","268","194770","0.0-399.0","3A7Y0R2P2PAQDNO8NZ3VGBRI8UAJXU","A2OVX9UW5WANQE","3S829FDFT2NBOHQMM1CIOU0HZYXDXL","","272.5","img/land8.png","76","273.80000001192093","3","1","false","2","0.6,0.6,0,0,0.6,0.6,0.6,0,0.6","",""
"","html-keyboard-response","269","195072","0.0-400.0","3A7Y0R2P2PAQDNO8NZ3VGBRI8UAJXU","A2OVX9UW5WANQE","3S829FDFT2NBOHQMM1CIOU0HZYXDXL","","null","<img src=""img/land8.png"" style=""width:200px; border:14px solid green;"">","null","","","","","","","",""
"","image-keyboard-response","270","195282","0.0-402.0","3A7Y0R2P2PAQDNO8NZ3VGBRI8UAJXU","A2OVX9UW5WANQE","3S829FDFT2NBOHQMM1CIOU0HZYXDXL","","207.7999999821186","img/land2.png","74","209.30000001192093","1","1","false","1","0.6,0.6,0,0,0.6,0.6,0.6,0,0.6","",""
"","html-keyboard-response","271","195584","0.0-403.0","3A7Y0R2P2PAQDNO8NZ3VGBRI8UAJXU","A2OVX9UW5WANQE","3S829FDFT2NBOHQMM1CIOU0HZYXDXL","","null","<img src=""img/land2.png"" style=""width:200px; border:14px solid green;"">","null","","","","","","","",""
"","image-keyboard-response","272","195898","0.0-405.0","3A7Y0R2P2PAQDNO8NZ3VGBRI8UAJXU","A2OVX9UW5WANQE","3S829FDFT2NBOHQMM1CIOU0HZYXDXL","","312.30000001192093","img/land2.png","74","313.40000000596046","1","1","false","1","0.6,0.6,0,0,0.6,0.6,0.6,0,0.6","",""
"","html-keyboard-response","273","196200","0.0-406.0","3A7Y0R2P2PAQDNO8NZ3VGBRI8UAJXU","A2OVX9UW5WANQE","3S829FDFT2NBOHQMM1CIOU0HZYXDXL","","null","<img src=""img/land2.png"" style=""width:200px; border:14px solid green;"">","null","","","","","","","",""
"","image-keyboard-response","274","196458","0.0-408.0","3A7Y0R2P2PAQDNO8NZ3VGBRI8UAJXU","A2OVX9UW5WANQE","3S829FDFT2NBOHQMM1CIOU0HZYXDXL","","256.39999997615814","img/land2.png","74","257.7000000178814","1","1","false","1","0.6,0.6,0,0,0.6,0.6,0.6,0,0.6","",""
"","html-keyboard-response","275","196761","0.0-409.0","3A7Y0R2P2PAQDNO8NZ3VGBRI8UAJXU","A2OVX9UW5WANQE","3S829FDFT2NBOHQMM1CIOU0HZYXDXL","","null","<img src=""img/land2.png"" style=""width:200px; border:14px solid green;"">","null","","","","","","","",""
"","image-keyboard-response","276","197338","0.0-411.0","3A7Y0R2P2PAQDNO8NZ3VGBRI8UAJXU","A2OVX9UW5WANQE","3S829FDFT2NBOHQMM1CIOU0HZYXDXL","","574.7999999821186","img/land4.png","75","576.5","2","0","false","3","0.6,0.6,0,0,0.6,0.6,0.6,0,0.6","",""
"","html-keyboard-response","277","197641","0.0-412.0","3A7Y0R2P2PAQDNO8NZ3VGBRI8UAJXU","A2OVX9UW5WANQE","3S829FDFT2NBOHQMM1CIOU0HZYXDXL","","null","<img src=""img/land4.png"" style=""width:200px;border:14px solid red;"">","null","","","","","","","",""
"","image-keyboard-response","278","197938","0.0-414.0","3A7Y0R2P2PAQDNO8NZ3VGBRI8UAJXU","A2OVX9UW5WANQE","3S829FDFT2NBOHQMM1CIOU0HZYXDXL","","294.80000001192093","img/land4.png","74","295.89999997615814","1","0","false","3","0.6,0.6,0,0,0.6,0.6,0.6,0,0.6","",""
"","html-keyboard-response","279","198240","0.0-415.0","3A7Y0R2P2PAQDNO8NZ3VGBRI8UAJXU","A2OVX9UW5WANQE","3S829FDFT2NBOHQMM1CIOU0HZYXDXL","","null","<img src=""img/land4.png"" style=""width:200px;border:14px solid red;"">","null","","","","","","","",""
"","image-keyboard-response","280","198474","0.0-417.0","3A7Y0R2P2PAQDNO8NZ3VGBRI8UAJXU","A2OVX9UW5WANQE","3S829FDFT2NBOHQMM1CIOU0HZYXDXL","","232.60000002384186","img/land2.png","76","233.80000001192093","3","0","false","1","0.6,0.6,0,0,0.6,0.6,0.6,0,0.6","",""
"","html-keyboard-response","281","198776","0.0-418.0","3A7Y0R2P2PAQDNO8NZ3VGBRI8UAJXU","A2OVX9UW5WANQE","3S829FDFT2NBOHQMM1CIOU0HZYXDXL","","null","<img src=""img/land2.png"" style=""width:200px;border:14px solid red;"">","null","","","","","","","",""
"","image-keyboard-response","282","199138","0.0-420.0","3A7Y0R2P2PAQDNO8NZ3VGBRI8UAJXU","A2OVX9UW5WANQE","3S829FDFT2NBOHQMM1CIOU0HZYXDXL","","360.40000000596046","img/land8.png","74","361.59999999403954","1","0","false","2","0.6,0.6,0,0,0.6,0.6,0.6,0,0.6","",""
"","html-keyboard-response","283","199440","0.0-421.0","3A7Y0R2P2PAQDNO8NZ3VGBRI8UAJXU","A2OVX9UW5WANQE","3S829FDFT2NBOHQMM1CIOU0HZYXDXL","","null","<img src=""img/land8.png"" style=""width:200px;border:14px solid red;"">","null","","","","","","","",""
"","image-keyboard-response","284","199770","0.0-423.0","3A7Y0R2P2PAQDNO8NZ3VGBRI8UAJXU","A2OVX9UW5WANQE","3S829FDFT2NBOHQMM1CIOU0HZYXDXL","","328.69999998807907","img/land4.png","76","329.80000001192093","3","0","false","3","0.6,0.6,0,0,0.6,0.6,0.6,0,0.6","",""
"","html-keyboard-response","285","200072","0.0-424.0","3A7Y0R2P2PAQDNO8NZ3VGBRI8UAJXU","A2OVX9UW5WANQE","3S829FDFT2NBOHQMM1CIOU0HZYXDXL","","null","<img src=""img/land4.png"" style=""width:200px;border:14px solid red;"">","null","","","","","","","",""
"","image-keyboard-response","286","200482","0.0-426.0","3A7Y0R2P2PAQDNO8NZ3VGBRI8UAJXU","A2OVX9UW5WANQE","3S829FDFT2NBOHQMM1CIOU0HZYXDXL","","408.2999999821186","img/land8.png","75","409.7000000178814","2","1","false","2","0.6,0.6,0,0,0.6,0.6,0.6,0,0.6","",""
"","html-keyboard-response","287","200785","0.0-427.0","3A7Y0R2P2PAQDNO8NZ3VGBRI8UAJXU","A2OVX9UW5WANQE","3S829FDFT2NBOHQMM1CIOU0HZYXDXL","","null","<img src=""img/land8.png"" style=""width:200px; border:14px solid green;"">","null","","","","","","","",""
"","image-keyboard-response","288","201154","0.0-429.0","3A7Y0R2P2PAQDNO8NZ3VGBRI8UAJXU","A2OVX9UW5WANQE","3S829FDFT2NBOHQMM1CIOU0HZYXDXL","","367.19999998807907","img/land2.png","75","368.2999999821186","2","1","false","1","0.6,0.6,0,0,0.6,0.6,0.6,0,0.6","",""
"","html-keyboard-response","289","201456","0.0-430.0","3A7Y0R2P2PAQDNO8NZ3VGBRI8UAJXU","A2OVX9UW5WANQE","3S829FDFT2NBOHQMM1CIOU0HZYXDXL","","null","<img src=""img/land2.png"" style=""width:200px; border:14px solid green;"">","null","","","","","","","",""
"","image-keyboard-response","290","201762","0.0-432.0","3A7Y0R2P2PAQDNO8NZ3VGBRI8UAJXU","A2OVX9UW5WANQE","3S829FDFT2NBOHQMM1CIOU0HZYXDXL","","304.40000000596046","img/land8.png","75","306","2","0","false","2","0.6,0.6,0,0,0.6,0.6,0.6,0,0.6","",""
"","html-keyboard-response","291","202064","0.0-433.0","3A7Y0R2P2PAQDNO8NZ3VGBRI8UAJXU","A2OVX9UW5WANQE","3S829FDFT2NBOHQMM1CIOU0HZYXDXL","","null","<img src=""img/land8.png"" style=""width:200px;border:14px solid red;"">","null","","","","","","","",""
"","image-keyboard-response","292","202434","0.0-435.0","3A7Y0R2P2PAQDNO8NZ3VGBRI8UAJXU","A2OVX9UW5WANQE","3S829FDFT2NBOHQMM1CIOU0HZYXDXL","","367.90000000596046","img/land4.png","76","369.09999999403954","3","0","false","3","0.6,0.6,0,0,0.6,0.6,0.6,0,0.6","",""
"","html-keyboard-response","293","202736","0.0-436.0","3A7Y0R2P2PAQDNO8NZ3VGBRI8UAJXU","A2OVX9UW5WANQE","3S829FDFT2NBOHQMM1CIOU0HZYXDXL","","null","<img src=""img/land4.png"" style=""width:200px;border:14px solid red;"">","null","","","","","","","",""
"","image-keyboard-response","294","203066","0.0-438.0","3A7Y0R2P2PAQDNO8NZ3VGBRI8UAJXU","A2OVX9UW5WANQE","3S829FDFT2NBOHQMM1CIOU0HZYXDXL","","329.09999999403954","img/land4.png","76","330.30000001192093","3","0","false","3","0.6,0.6,0,0,0.6,0.6,0.6,0,0.6","",""
"","html-keyboard-response","295","203368","0.0-439.0","3A7Y0R2P2PAQDNO8NZ3VGBRI8UAJXU","A2OVX9UW5WANQE","3S829FDFT2NBOHQMM1CIOU0HZYXDXL","","null","<img src=""img/land4.png"" style=""width:200px;border:14px solid red;"">","null","","","","","","","",""
"","image-keyboard-response","296","203818","0.0-441.0","3A7Y0R2P2PAQDNO8NZ3VGBRI8UAJXU","A2OVX9UW5WANQE","3S829FDFT2NBOHQMM1CIOU0HZYXDXL","","448.40000000596046","img/land8.png","74","449.59999999403954","1","0","false","2","0.6,0.6,0,0,0.6,0.6,0.6,0,0.6","",""
"","html-keyboard-response","297","204121","0.0-442.0","3A7Y0R2P2PAQDNO8NZ3VGBRI8UAJXU","A2OVX9UW5WANQE","3S829FDFT2NBOHQMM1CIOU0HZYXDXL","","null","<img src=""img/land8.png"" style=""width:200px;border:14px solid red;"">","null","","","","","","","",""
"","image-keyboard-response","298","204412","0.0-444.0","3A7Y0R2P2PAQDNO8NZ3VGBRI8UAJXU","A2OVX9UW5WANQE","3S829FDFT2NBOHQMM1CIOU0HZYXDXL","","289.60000002384186","img/land8.png","74","291.19999998807907","1","0","false","2","0.6,0.6,0,0,0.6,0.6,0.6,0,0.6","",""
"","html-keyboard-response","299","204716","0.0-445.0","3A7Y0R2P2PAQDNO8NZ3VGBRI8UAJXU","A2OVX9UW5WANQE","3S829FDFT2NBOHQMM1CIOU0HZYXDXL","","null","<img src=""img/land8.png"" style=""width:200px;border:14px solid red;"">","null","","","","","","","",""
"","image-keyboard-response","300","204962","0.0-447.0","3A7Y0R2P2PAQDNO8NZ3VGBRI8UAJXU","A2OVX9UW5WANQE","3S829FDFT2NBOHQMM1CIOU0HZYXDXL","","245.09999999403954","img/land2.png","75","246.30000001192093","2","1","false","1","0.6,0.6,0,0,0.6,0.6,0.6,0,0.6","",""
"","html-keyboard-response","301","205265","0.0-448.0","3A7Y0R2P2PAQDNO8NZ3VGBRI8UAJXU","A2OVX9UW5WANQE","3S829FDFT2NBOHQMM1CIOU0HZYXDXL","","null","<img src=""img/land2.png"" style=""width:200px; border:14px solid green;"">","null","","","","","","","",""
"","image-keyboard-response","302","205522","0.0-450.0","3A7Y0R2P2PAQDNO8NZ3VGBRI8UAJXU","A2OVX9UW5WANQE","3S829FDFT2NBOHQMM1CIOU0HZYXDXL","","255.90000000596046","img/land8.png","75","257.09999999403954","2","0","false","2","0.6,0.6,0,0,0.6,0.6,0.6,0,0.6","",""
"","html-keyboard-response","303","205825","0.0-451.0","3A7Y0R2P2PAQDNO8NZ3VGBRI8UAJXU","A2OVX9UW5WANQE","3S829FDFT2NBOHQMM1CIOU0HZYXDXL","","null","<img src=""img/land8.png"" style=""width:200px;border:14px solid red;"">","null","","","","","","","",""
"","image-keyboard-response","304","206186","0.0-453.0","3A7Y0R2P2PAQDNO8NZ3VGBRI8UAJXU","A2OVX9UW5WANQE","3S829FDFT2NBOHQMM1CIOU0HZYXDXL","","358.69999998807907","img/land2.png","76","360.19999998807907","3","0","false","1","0.6,0.6,0,0,0.6,0.6,0.6,0,0.6","",""
"","html-keyboard-response","305","206488","0.0-454.0","3A7Y0R2P2PAQDNO8NZ3VGBRI8UAJXU","A2OVX9UW5WANQE","3S829FDFT2NBOHQMM1CIOU0HZYXDXL","","null","<img src=""img/land2.png"" style=""width:200px;border:14px solid red;"">","null","","","","","","","",""
"","image-keyboard-response","306","206786","0.0-456.0","3A7Y0R2P2PAQDNO8NZ3VGBRI8UAJXU","A2OVX9UW5WANQE","3S829FDFT2NBOHQMM1CIOU0HZYXDXL","","296.59999999403954","img/land4.png","76","297.59999999403954","3","1","false","3","0.6,0.6,0,0,0.6,0.6,0.6,0,0.6","",""
"","html-keyboard-response","307","207088","0.0-457.0","3A7Y0R2P2PAQDNO8NZ3VGBRI8UAJXU","A2OVX9UW5WANQE","3S829FDFT2NBOHQMM1CIOU0HZYXDXL","","null","<img src=""img/land4.png"" style=""width:200px; border:14px solid green;"">","null","","","","","","","",""
"","image-keyboard-response","308","207402","0.0-459.0","3A7Y0R2P2PAQDNO8NZ3VGBRI8UAJXU","A2OVX9UW5WANQE","3S829FDFT2NBOHQMM1CIOU0HZYXDXL","","312.19999998807907","img/land2.png","76","313.5","3","0","false","1","0.6,0.6,0,0,0.6,0.6,0.6,0,0.6","",""
"","html-keyboard-response","309","207705","0.0-460.0","3A7Y0R2P2PAQDNO8NZ3VGBRI8UAJXU","A2OVX9UW5WANQE","3S829FDFT2NBOHQMM1CIOU0HZYXDXL","","null","<img src=""img/land2.png"" style=""width:200px;border:14px solid red;"">","null","","","","","","","",""
"","image-keyboard-response","310","208122","0.0-462.0","3A7Y0R2P2PAQDNO8NZ3VGBRI8UAJXU","A2OVX9UW5WANQE","3S829FDFT2NBOHQMM1CIOU0HZYXDXL","","415.69999998807907","img/land2.png","75","416.7999999821186","2","0","false","1","0.6,0.6,0,0,0.6,0.6,0.6,0,0.6","",""
"","html-keyboard-response","311","208424","0.0-463.0","3A7Y0R2P2PAQDNO8NZ3VGBRI8UAJXU","A2OVX9UW5WANQE","3S829FDFT2NBOHQMM1CIOU0HZYXDXL","","null","<img src=""img/land2.png"" style=""width:200px;border:14px solid red;"">","null","","","","","","","",""
"","image-keyboard-response","312","208834","0.0-465.0","3A7Y0R2P2PAQDNO8NZ3VGBRI8UAJXU","A2OVX9UW5WANQE","3S829FDFT2NBOHQMM1CIOU0HZYXDXL","","407.7000000178814","img/land4.png","74","409.09999999403954","1","1","false","3","0.6,0.6,0,0,0.6,0.6,0.6,0,0.6","",""
"","html-keyboard-response","313","209136","0.0-466.0","3A7Y0R2P2PAQDNO8NZ3VGBRI8UAJXU","A2OVX9UW5WANQE","3S829FDFT2NBOHQMM1CIOU0HZYXDXL","","null","<img src=""img/land4.png"" style=""width:200px; border:14px solid green;"">","null","","","","","","","",""
"","image-keyboard-response","314","209426","0.0-468.0","3A7Y0R2P2PAQDNO8NZ3VGBRI8UAJXU","A2OVX9UW5WANQE","3S829FDFT2NBOHQMM1CIOU0HZYXDXL","","288.69999998807907","img/land8.png","76","289.89999997615814","3","0","false","2","0.6,0.6,0,0,0.6,0.6,0.6,0,0.6","",""
"","html-keyboard-response","315","209729","0.0-469.0","3A7Y0R2P2PAQDNO8NZ3VGBRI8UAJXU","A2OVX9UW5WANQE","3S829FDFT2NBOHQMM1CIOU0HZYXDXL","","null","<img src=""img/land8.png"" style=""width:200px;border:14px solid red;"">","null","","","","","","","",""
"","image-keyboard-response","316","210074","0.0-471.0","3A7Y0R2P2PAQDNO8NZ3VGBRI8UAJXU","A2OVX9UW5WANQE","3S829FDFT2NBOHQMM1CIOU0HZYXDXL","","343.2000000178814","img/land2.png","76","344.5","3","0","false","1","0.6,0.6,0,0,0.6,0.6,0.6,0,0.6","",""
"","html-keyboard-response","317","210377","0.0-472.0","3A7Y0R2P2PAQDNO8NZ3VGBRI8UAJXU","A2OVX9UW5WANQE","3S829FDFT2NBOHQMM1CIOU0HZYXDXL","","null","<img src=""img/land2.png"" style=""width:200px;border:14px solid red;"">","null","","","","","","","",""
"","image-keyboard-response","318","210730","0.0-474.0","3A7Y0R2P2PAQDNO8NZ3VGBRI8UAJXU","A2OVX9UW5WANQE","3S829FDFT2NBOHQMM1CIOU0HZYXDXL","","351.40000000596046","img/land2.png","76","352.7999999821186","3","0","false","1","0.6,0.6,0,0,0.6,0.6,0.6,0,0.6","",""
"","html-keyboard-response","319","211042","0.0-475.0","3A7Y0R2P2PAQDNO8NZ3VGBRI8UAJXU","A2OVX9UW5WANQE","3S829FDFT2NBOHQMM1CIOU0HZYXDXL","","null","<img src=""img/land2.png"" style=""width:200px;border:14px solid red;"">","null","","","","","","","",""
"","image-keyboard-response","320","211250","0.0-477.0","3A7Y0R2P2PAQDNO8NZ3VGBRI8UAJXU","A2OVX9UW5WANQE","3S829FDFT2NBOHQMM1CIOU0HZYXDXL","","206.40000000596046","img/land8.png","75","207.59999999403954","2","1","false","2","0.6,0.6,0,0,0.6,0.6,0.6,0,0.6","",""
"","html-keyboard-response","321","211554","0.0-478.0","3A7Y0R2P2PAQDNO8NZ3VGBRI8UAJXU","A2OVX9UW5WANQE","3S829FDFT2NBOHQMM1CIOU0HZYXDXL","","null","<img src=""img/land8.png"" style=""width:200px; border:14px solid green;"">","null","","","","","","","",""
"","image-keyboard-response","322","211834","0.0-480.0","3A7Y0R2P2PAQDNO8NZ3VGBRI8UAJXU","A2OVX9UW5WANQE","3S829FDFT2NBOHQMM1CIOU0HZYXDXL","","278.59999999403954","img/land2.png","76","279.89999997615814","3","0","false","1","0.6,0.6,0,0,0.6,0.6,0.6,0,0.6","",""
"","html-keyboard-response","323","212137","0.0-481.0","3A7Y0R2P2PAQDNO8NZ3VGBRI8UAJXU","A2OVX9UW5WANQE","3S829FDFT2NBOHQMM1CIOU0HZYXDXL","","null","<img src=""img/land2.png"" style=""width:200px;border:14px solid red;"">","null","","","","","","","",""
"","image-keyboard-response","324","212370","0.0-483.0","3A7Y0R2P2PAQDNO8NZ3VGBRI8UAJXU","A2OVX9UW5WANQE","3S829FDFT2NBOHQMM1CIOU0HZYXDXL","","231.69999998807907","img/land8.png","75","233.09999999403954","2","1","false","2","0.6,0.6,0,0,0.6,0.6,0.6,0,0.6","",""
"","html-keyboard-response","325","212672","0.0-484.0","3A7Y0R2P2PAQDNO8NZ3VGBRI8UAJXU","A2OVX9UW5WANQE","3S829FDFT2NBOHQMM1CIOU0HZYXDXL","","null","<img src=""img/land8.png"" style=""width:200px; border:14px solid green;"">","null","","","","","","","",""
"","image-keyboard-response","326","213034","0.0-486.0","3A7Y0R2P2PAQDNO8NZ3VGBRI8UAJXU","A2OVX9UW5WANQE","3S829FDFT2NBOHQMM1CIOU0HZYXDXL","","359.69999998807907","img/land8.png","76","360.90000000596046","3","1","false","2","0.6,0.6,0,0,0.6,0.6,0.6,0,0.6","",""
"","html-keyboard-response","327","213335","0.0-487.0","3A7Y0R2P2PAQDNO8NZ3VGBRI8UAJXU","A2OVX9UW5WANQE","3S829FDFT2NBOHQMM1CIOU0HZYXDXL","","null","<img src=""img/land8.png"" style=""width:200px; border:14px solid green;"">","null","","","","","","","",""
"","image-keyboard-response","328","213986","0.0-489.0","3A7Y0R2P2PAQDNO8NZ3VGBRI8UAJXU","A2OVX9UW5WANQE","3S829FDFT2NBOHQMM1CIOU0HZYXDXL","","649.1999999880791","img/land2.png","75","650.5","2","1","false","1","0.6,0.6,0,0,0.6,0.6,0.6,0,0.6","",""
"","html-keyboard-response","329","214289","0.0-490.0","3A7Y0R2P2PAQDNO8NZ3VGBRI8UAJXU","A2OVX9UW5WANQE","3S829FDFT2NBOHQMM1CIOU0HZYXDXL","","null","<img src=""img/land2.png"" style=""width:200px; border:14px solid green;"">","null","","","","","","","",""
"","image-keyboard-response","330","215034","0.0-492.0","3A7Y0R2P2PAQDNO8NZ3VGBRI8UAJXU","A2OVX9UW5WANQE","3S829FDFT2NBOHQMM1CIOU0HZYXDXL","","743.7000000178814","img/land4.png","74","744.7000000178814","1","1","false","3","0.6,0.6,0,0,0.6,0.6,0.6,0,0.6","",""
"","html-keyboard-response","331","215336","0.0-493.0","3A7Y0R2P2PAQDNO8NZ3VGBRI8UAJXU","A2OVX9UW5WANQE","3S829FDFT2NBOHQMM1CIOU0HZYXDXL","","null","<img src=""img/land4.png"" style=""width:200px; border:14px solid green;"">","null","","","","","","","",""
"","image-keyboard-response","332","215738","0.0-495.0","3A7Y0R2P2PAQDNO8NZ3VGBRI8UAJXU","A2OVX9UW5WANQE","3S829FDFT2NBOHQMM1CIOU0HZYXDXL","","400.30000001192093","img/land4.png","74","401.59999999403954","1","0","false","3","0.6,0.6,0,0,0.6,0.6,0.6,0,0.6","",""
"","html-keyboard-response","333","216040","0.0-496.0","3A7Y0R2P2PAQDNO8NZ3VGBRI8UAJXU","A2OVX9UW5WANQE","3S829FDFT2NBOHQMM1CIOU0HZYXDXL","","null","<img src=""img/land4.png"" style=""width:200px;border:14px solid red;"">","null","","","","","","","",""
"","image-keyboard-response","334","216642","0.0-498.0","3A7Y0R2P2PAQDNO8NZ3VGBRI8UAJXU","A2OVX9UW5WANQE","3S829FDFT2NBOHQMM1CIOU0HZYXDXL","","599.7999999821186","img/land2.png","75","601","2","1","false","1","0.6,0.6,0,0,0.6,0.6,0.6,0,0.6","",""
"","html-keyboard-response","335","216945","0.0-499.0","3A7Y0R2P2PAQDNO8NZ3VGBRI8UAJXU","A2OVX9UW5WANQE","3S829FDFT2NBOHQMM1CIOU0HZYXDXL","","null","<img src=""img/land2.png"" style=""width:200px; border:14px solid green;"">","null","","","","","","","",""
"","image-keyboard-response","336","217339","0.0-501.0","3A7Y0R2P2PAQDNO8NZ3VGBRI8UAJXU","A2OVX9UW5WANQE","3S829FDFT2NBOHQMM1CIOU0HZYXDXL","","392.19999998807907","img/land2.png","75","393.5","2","1","false","1","0.6,0.6,0,0,0.6,0.6,0.6,0,0.6","",""
"","html-keyboard-response","337","217641","0.0-502.0","3A7Y0R2P2PAQDNO8NZ3VGBRI8UAJXU","A2OVX9UW5WANQE","3S829FDFT2NBOHQMM1CIOU0HZYXDXL","","null","<img src=""img/land2.png"" style=""width:200px; border:14px solid green;"">","null","","","","","","","",""
"","image-keyboard-response","338","218186","0.0-504.0","3A7Y0R2P2PAQDNO8NZ3VGBRI8UAJXU","A2OVX9UW5WANQE","3S829FDFT2NBOHQMM1CIOU0HZYXDXL","","543.4000000059605","img/land8.png","76","544.5999999940395","3","1","false","2","0.6,0.6,0,0,0.6,0.6,0.6,0,0.6","",""
"","html-keyboard-response","339","218488","0.0-505.0","3A7Y0R2P2PAQDNO8NZ3VGBRI8UAJXU","A2OVX9UW5WANQE","3S829FDFT2NBOHQMM1CIOU0HZYXDXL","","null","<img src=""img/land8.png"" style=""width:200px; border:14px solid green;"">","null","","","","","","","",""
"","image-keyboard-response","340","219114","0.0-507.0","3A7Y0R2P2PAQDNO8NZ3VGBRI8UAJXU","A2OVX9UW5WANQE","3S829FDFT2NBOHQMM1CIOU0HZYXDXL","","624.4000000059605","img/land2.png","75","625.5999999940395","2","1","false","1","0.6,0.6,0,0,0.6,0.6,0.6,0,0.6","",""
"","html-keyboard-response","341","219417","0.0-508.0","3A7Y0R2P2PAQDNO8NZ3VGBRI8UAJXU","A2OVX9UW5WANQE","3S829FDFT2NBOHQMM1CIOU0HZYXDXL","","null","<img src=""img/land2.png"" style=""width:200px; border:14px solid green;"">","null","","","","","","","",""
"","image-keyboard-response","342","220178","0.0-510.0","3A7Y0R2P2PAQDNO8NZ3VGBRI8UAJXU","A2OVX9UW5WANQE","3S829FDFT2NBOHQMM1CIOU0HZYXDXL","","759.7999999821186","img/land4.png","74","761","1","1","false","3","0.6,0.6,0,0,0.6,0.6,0.6,0,0.6","",""
"","html-keyboard-response","343","220480","0.0-511.0","3A7Y0R2P2PAQDNO8NZ3VGBRI8UAJXU","A2OVX9UW5WANQE","3S829FDFT2NBOHQMM1CIOU0HZYXDXL","","null","<img src=""img/land4.png"" style=""width:200px; border:14px solid green;"">","null","","","","","","","",""
"","image-keyboard-response","344","221058","0.0-513.0","3A7Y0R2P2PAQDNO8NZ3VGBRI8UAJXU","A2OVX9UW5WANQE","3S829FDFT2NBOHQMM1CIOU0HZYXDXL","","576.6999999880791","img/land8.png","76","578","3","1","false","2","0.6,0.6,0,0,0.6,0.6,0.6,0,0.6","",""
"","html-keyboard-response","345","221360","0.0-514.0","3A7Y0R2P2PAQDNO8NZ3VGBRI8UAJXU","A2OVX9UW5WANQE","3S829FDFT2NBOHQMM1CIOU0HZYXDXL","","null","<img src=""img/land8.png"" style=""width:200px; border:14px solid green;"">","null","","","","","","","",""
"","image-keyboard-response","346","221994","0.0-516.0","3A7Y0R2P2PAQDNO8NZ3VGBRI8UAJXU","A2OVX9UW5WANQE","3S829FDFT2NBOHQMM1CIOU0HZYXDXL","","632.5999999940395","img/land4.png","75","633.9000000059605","2","0","false","3","0.6,0.6,0,0,0.6,0.6,0.6,0,0.6","",""
"","html-keyboard-response","347","222297","0.0-517.0","3A7Y0R2P2PAQDNO8NZ3VGBRI8UAJXU","A2OVX9UW5WANQE","3S829FDFT2NBOHQMM1CIOU0HZYXDXL","","null","<img src=""img/land4.png"" style=""width:200px;border:14px solid red;"">","null","","","","","","","",""
"","image-keyboard-response","348","222682","0.0-519.0","3A7Y0R2P2PAQDNO8NZ3VGBRI8UAJXU","A2OVX9UW5WANQE","3S829FDFT2NBOHQMM1CIOU0HZYXDXL","","384.19999998807907","img/land2.png","74","385.39999997615814","1","0","false","1","0.6,0.6,0,0,0.6,0.6,0.6,0,0.6","",""
"","html-keyboard-response","349","222985","0.0-520.0","3A7Y0R2P2PAQDNO8NZ3VGBRI8UAJXU","A2OVX9UW5WANQE","3S829FDFT2NBOHQMM1CIOU0HZYXDXL","","null","<img src=""img/land2.png"" style=""width:200px;border:14px solid red;"">","null","","","","","","","",""
"","image-keyboard-response","350","223778","0.0-522.0","3A7Y0R2P2PAQDNO8NZ3VGBRI8UAJXU","A2OVX9UW5WANQE","3S829FDFT2NBOHQMM1CIOU0HZYXDXL","","791.1000000238419","img/land4.png","76","792.4000000059605","3","0","false","3","0.6,0.6,0,0,0.6,0.6,0.6,0,0.6","",""
"","html-keyboard-response","351","224080","0.0-523.0","3A7Y0R2P2PAQDNO8NZ3VGBRI8UAJXU","A2OVX9UW5WANQE","3S829FDFT2NBOHQMM1CIOU0HZYXDXL","","null","<img src=""img/land4.png"" style=""width:200px;border:14px solid red;"">","null","","","","","","","",""
"","image-keyboard-response","352","224491","0.0-525.0","3A7Y0R2P2PAQDNO8NZ3VGBRI8UAJXU","A2OVX9UW5WANQE","3S829FDFT2NBOHQMM1CIOU0HZYXDXL","","408.5","img/land4.png","74","409.90000000596046","1","0","false","3","0.6,0.6,0,0,0.6,0.6,0.6,0,0.6","",""
"","html-keyboard-response","353","224794","0.0-526.0","3A7Y0R2P2PAQDNO8NZ3VGBRI8UAJXU","A2OVX9UW5WANQE","3S829FDFT2NBOHQMM1CIOU0HZYXDXL","","null","<img src=""img/land4.png"" style=""width:200px;border:14px solid red;"">","null","","","","","","","",""
"","image-keyboard-response","354","225170","0.0-528.0","3A7Y0R2P2PAQDNO8NZ3VGBRI8UAJXU","A2OVX9UW5WANQE","3S829FDFT2NBOHQMM1CIOU0HZYXDXL","","374.5","img/land4.png","74","375.7000000178814","1","0","false","3","0.6,0.6,0,0,0.6,0.6,0.6,0,0.6","",""
"","html-keyboard-response","355","225473","0.0-529.0","3A7Y0R2P2PAQDNO8NZ3VGBRI8UAJXU","A2OVX9UW5WANQE","3S829FDFT2NBOHQMM1CIOU0HZYXDXL","","null","<img src=""img/land4.png"" style=""width:200px;border:14px solid red;"">","null","","","","","","","",""
"","image-keyboard-response","356","226074","0.0-531.0","3A7Y0R2P2PAQDNO8NZ3VGBRI8UAJXU","A2OVX9UW5WANQE","3S829FDFT2NBOHQMM1CIOU0HZYXDXL","","599.3000000119209","img/land2.png","75","600.4000000059605","2","1","false","1","0.6,0.6,0,0,0.6,0.6,0.6,0,0.6","",""
"","html-keyboard-response","357","226377","0.0-532.0","3A7Y0R2P2PAQDNO8NZ3VGBRI8UAJXU","A2OVX9UW5WANQE","3S829FDFT2NBOHQMM1CIOU0HZYXDXL","","null","<img src=""img/land2.png"" style=""width:200px; border:14px solid green;"">","null","","","","","","","",""
"","image-keyboard-response","358","226970","0.0-534.0","3A7Y0R2P2PAQDNO8NZ3VGBRI8UAJXU","A2OVX9UW5WANQE","3S829FDFT2NBOHQMM1CIOU0HZYXDXL","","591.7000000178814","img/land8.png","76","592.9000000059605","3","1","false","2","0.6,0.6,0,0,0.6,0.6,0.6,0,0.6","",""
"","html-keyboard-response","359","227288","0.0-535.0","3A7Y0R2P2PAQDNO8NZ3VGBRI8UAJXU","A2OVX9UW5WANQE","3S829FDFT2NBOHQMM1CIOU0HZYXDXL","","null","<img src=""img/land8.png"" style=""width:200px; border:14px solid green;"">","null","","","","","","","",""
"","image-keyboard-response","360","227738","0.0-537.0","3A7Y0R2P2PAQDNO8NZ3VGBRI8UAJXU","A2OVX9UW5WANQE","3S829FDFT2NBOHQMM1CIOU0HZYXDXL","","448.09999999403954","img/land8.png","76","449.40000000596046","3","1","false","2","0.6,0.6,0,0,0.6,0.6,0.6,0,0.6","",""
"","html-keyboard-response","361","228040","0.0-538.0","3A7Y0R2P2PAQDNO8NZ3VGBRI8UAJXU","A2OVX9UW5WANQE","3S829FDFT2NBOHQMM1CIOU0HZYXDXL","","null","<img src=""img/land8.png"" style=""width:200px; border:14px solid green;"">","null","","","","","","","",""
"","image-keyboard-response","362","228578","0.0-540.0","3A7Y0R2P2PAQDNO8NZ3VGBRI8UAJXU","A2OVX9UW5WANQE","3S829FDFT2NBOHQMM1CIOU0HZYXDXL","","536.4000000059605","img/land4.png","75","537.7999999821186","2","0","false","3","0.6,0.6,0,0,0.6,0.6,0.6,0,0.6","",""
"","html-keyboard-response","363","228881","0.0-541.0","3A7Y0R2P2PAQDNO8NZ3VGBRI8UAJXU","A2OVX9UW5WANQE","3S829FDFT2NBOHQMM1CIOU0HZYXDXL","","null","<img src=""img/land4.png"" style=""width:200px;border:14px solid red;"">","null","","","","","","","",""
"","html-keyboard-response","364","235280","0.0-543.0","3A7Y0R2P2PAQDNO8NZ3VGBRI8UAJXU","A2OVX9UW5WANQE","3S829FDFT2NBOHQMM1CIOU0HZYXDXL","","","","","","","","","","","",""
"","image-keyboard-response","365","236283","0.0-544.0","3A7Y0R2P2PAQDNO8NZ3VGBRI8UAJXU","A2OVX9UW5WANQE","3S829FDFT2NBOHQMM1CIOU0HZYXDXL","","","img/land3.png","","1002.8000000119209","-1","0","true","2","0.8,0.2,0.2,0.2,0.8,0.2,0.2,0.2,0.8","",""
"","html-keyboard-response","366","236586","0.0-545.0","3A7Y0R2P2PAQDNO8NZ3VGBRI8UAJXU","A2OVX9UW5WANQE","3S829FDFT2NBOHQMM1CIOU0HZYXDXL","","null","<img src=""img/land3.png"" style=""width:200px;border:14px solid red;"">","null","","","","","","","",""
"","html-keyboard-response","367","239414","0.0-546.0-0.0","3A7Y0R2P2PAQDNO8NZ3VGBRI8UAJXU","A2OVX9UW5WANQE","3S829FDFT2NBOHQMM1CIOU0HZYXDXL","","","","","","","","","","","",""
"","image-keyboard-response","368","239763","0.0-547.0","3A7Y0R2P2PAQDNO8NZ3VGBRI8UAJXU","A2OVX9UW5WANQE","3S829FDFT2NBOHQMM1CIOU0HZYXDXL","","346.7000000178814","img/land3.png","75","348","2","1","false","2","0.8,0.2,0.2,0.2,0.8,0.2,0.2,0.2,0.8","",""
"","html-keyboard-response","369","240066","0.0-548.0","3A7Y0R2P2PAQDNO8NZ3VGBRI8UAJXU","A2OVX9UW5WANQE","3S829FDFT2NBOHQMM1CIOU0HZYXDXL","","null","<img src=""img/land3.png"" style=""width:200px; border:14px solid green;"">","null","","","","","","","",""
"","image-keyboard-response","370","240770","0.0-550.0","3A7Y0R2P2PAQDNO8NZ3VGBRI8UAJXU","A2OVX9UW5WANQE","3S829FDFT2NBOHQMM1CIOU0HZYXDXL","","702.9000000059605","img/land7.png","76","704","3","1","false","1","0.8,0.2,0.2,0.2,0.8,0.2,0.2,0.2,0.8","",""
"","html-keyboard-response","371","241073","0.0-551.0","3A7Y0R2P2PAQDNO8NZ3VGBRI8UAJXU","A2OVX9UW5WANQE","3S829FDFT2NBOHQMM1CIOU0HZYXDXL","","null","<img src=""img/land7.png"" style=""width:200px; border:14px solid green;"">","null","","","","","","","",""
"","image-keyboard-response","372","241714","0.0-553.0","3A7Y0R2P2PAQDNO8NZ3VGBRI8UAJXU","A2OVX9UW5WANQE","3S829FDFT2NBOHQMM1CIOU0HZYXDXL","","639.3000000119209","img/land9.png","74","640.3000000119209","1","0","false","3","0.8,0.2,0.2,0.2,0.8,0.2,0.2,0.2,0.8","",""
"","html-keyboard-response","373","242016","0.0-554.0","3A7Y0R2P2PAQDNO8NZ3VGBRI8UAJXU","A2OVX9UW5WANQE","3S829FDFT2NBOHQMM1CIOU0HZYXDXL","","null","<img src=""img/land9.png"" style=""width:200px;border:14px solid red;"">","null","","","","","","","",""
"","image-keyboard-response","374","242626","0.0-556.0","3A7Y0R2P2PAQDNO8NZ3VGBRI8UAJXU","A2OVX9UW5WANQE","3S829FDFT2NBOHQMM1CIOU0HZYXDXL","","608.9000000059605","img/land3.png","75","610.0999999940395","2","1","false","2","0.8,0.2,0.2,0.2,0.8,0.2,0.2,0.2,0.8","",""
"","html-keyboard-response","375","242928","0.0-557.0","3A7Y0R2P2PAQDNO8NZ3VGBRI8UAJXU","A2OVX9UW5WANQE","3S829FDFT2NBOHQMM1CIOU0HZYXDXL","","null","<img src=""img/land3.png"" style=""width:200px; border:14px solid green;"">","null","","","","","","","",""
"","image-keyboard-response","376","243514","0.0-559.0","3A7Y0R2P2PAQDNO8NZ3VGBRI8UAJXU","A2OVX9UW5WANQE","3S829FDFT2NBOHQMM1CIOU0HZYXDXL","","584.1999999880791","img/land7.png","76","585.5","3","0","false","1","0.8,0.2,0.2,0.2,0.8,0.2,0.2,0.2,0.8","",""
"","html-keyboard-response","377","243816","0.0-560.0","3A7Y0R2P2PAQDNO8NZ3VGBRI8UAJXU","A2OVX9UW5WANQE","3S829FDFT2NBOHQMM1CIOU0HZYXDXL","","null","<img src=""img/land7.png"" style=""width:200px;border:14px solid red;"">","null","","","","","","","",""
"","image-keyboard-response","378","244530","0.0-562.0","3A7Y0R2P2PAQDNO8NZ3VGBRI8UAJXU","A2OVX9UW5WANQE","3S829FDFT2NBOHQMM1CIOU0HZYXDXL","","712.0999999940395","img/land9.png","74","713.2000000178814","1","0","false","3","0.8,0.2,0.2,0.2,0.8,0.2,0.2,0.2,0.8","",""
"","html-keyboard-response","379","244832","0.0-563.0","3A7Y0R2P2PAQDNO8NZ3VGBRI8UAJXU","A2OVX9UW5WANQE","3S829FDFT2NBOHQMM1CIOU0HZYXDXL","","null","<img src=""img/land9.png"" style=""width:200px;border:14px solid red;"">","null","","","","","","","",""
"","image-keyboard-response","380","245331","0.0-565.0","3A7Y0R2P2PAQDNO8NZ3VGBRI8UAJXU","A2OVX9UW5WANQE","3S829FDFT2NBOHQMM1CIOU0HZYXDXL","","496.7000000178814","img/land3.png","75","498","2","1","false","2","0.8,0.2,0.2,0.2,0.8,0.2,0.2,0.2,0.8","",""
"","html-keyboard-response","381","245634","0.0-566.0","3A7Y0R2P2PAQDNO8NZ3VGBRI8UAJXU","A2OVX9UW5WANQE","3S829FDFT2NBOHQMM1CIOU0HZYXDXL","","null","<img src=""img/land3.png"" style=""width:200px; border:14px solid green;"">","null","","","","","","","",""
"","image-keyboard-response","382","246226","0.0-568.0","3A7Y0R2P2PAQDNO8NZ3VGBRI8UAJXU","A2OVX9UW5WANQE","3S829FDFT2NBOHQMM1CIOU0HZYXDXL","","591","img/land7.png","76","592.1999999880791","3","0","false","1","0.8,0.2,0.2,0.2,0.8,0.2,0.2,0.2,0.8","",""
"","html-keyboard-response","383","246530","0.0-569.0","3A7Y0R2P2PAQDNO8NZ3VGBRI8UAJXU","A2OVX9UW5WANQE","3S829FDFT2NBOHQMM1CIOU0HZYXDXL","","null","<img src=""img/land7.png"" style=""width:200px;border:14px solid red;"">","null","","","","","","","",""
"","image-keyboard-response","384","247283","0.0-571.0","3A7Y0R2P2PAQDNO8NZ3VGBRI8UAJXU","A2OVX9UW5WANQE","3S829FDFT2NBOHQMM1CIOU0HZYXDXL","","751.0999999940395","img/land9.png","74","753.0999999940395","1","0","false","3","0.8,0.2,0.2,0.2,0.8,0.2,0.2,0.2,0.8","",""
"","html-keyboard-response","385","247587","0.0-572.0","3A7Y0R2P2PAQDNO8NZ3VGBRI8UAJXU","A2OVX9UW5WANQE","3S829FDFT2NBOHQMM1CIOU0HZYXDXL","","null","<img src=""img/land9.png"" style=""width:200px;border:14px solid red;"">","null","","","","","","","",""
"","image-keyboard-response","386","248218","0.0-574.0","3A7Y0R2P2PAQDNO8NZ3VGBRI8UAJXU","A2OVX9UW5WANQE","3S829FDFT2NBOHQMM1CIOU0HZYXDXL","","630","img/land9.png","74","631.2000000178814","1","0","false","3","0.8,0.2,0.2,0.2,0.8,0.2,0.2,0.2,0.8","",""
"","html-keyboard-response","387","248524","0.0-575.0","3A7Y0R2P2PAQDNO8NZ3VGBRI8UAJXU","A2OVX9UW5WANQE","3S829FDFT2NBOHQMM1CIOU0HZYXDXL","","null","<img src=""img/land9.png"" style=""width:200px;border:14px solid red;"">","null","","","","","","","",""
