"success","trial_type","trial_index","time_elapsed","internal_node_id","assignmentID","mturkID","hitID","view_history","rt","stimulus","key_press","reactionTime","a","r","s","cond","reward_cond","reward_cond_actual","reward_matrix_idx","responses","question_order"
"true","fullscreen","0","5827","0.0-0.0","3CFVK00FWM7JPYSCPX6IWDRQJUBL6X","A2OWFJJ8YEKBF1","3I7KR83SNAZT1REYB2SRC49PCEEK9H","","","","","","","","","","","","","",""
"","instructions","1","49290","0.0-1.0","3CFVK00FWM7JPYSCPX6IWDRQJUBL6X","A2OWFJJ8YEKBF1","3I7KR83SNAZT1REYB2SRC49PCEEK9H","[{""page_index"":0,""viewing_time"":2511.5},{""page_index"":1,""viewing_time"":3783.7999999523163},{""page_index"":2,""viewing_time"":4833.200000047684},{""page_index"":3,""viewing_time"":6500.399999976158},{""page_index"":4,""viewing_time"":8169.300000071526},{""page_index"":3,""viewing_time"":6998},{""page_index"":4,""viewing_time"":2650.1999999284744},{""page_index"":5,""viewing_time"":3283.399999976158},{""page_index"":6,""viewing_time"":4733.900000095367}]","43464","","","","","","","","","","","",""
"","image-keyboard-response","2","50760","0.0-2.0","3CFVK00FWM7JPYSCPX6IWDRQJUBL6X","A2OWFJJ8YEKBF1","3I7KR83SNAZT1REYB2SRC49PCEEK9H","","1468.6999999284744","img/land1.png","74","1470.1000000238419","1","0","3","2","0.8,0.2,0.2,0.2,0.8,0.2,0.2,0.2,0.8","0.2,0.2,0.8,0.8,0.2,0.2,0.2,0.8,0.2","2","",""
"","html-keyboard-response","3","51065","0.0-3.0","3CFVK00FWM7JPYSCPX6IWDRQJUBL6X","A2OWFJJ8YEKBF1","3I7KR83SNAZT1REYB2SRC49PCEEK9H","","null","<img src=""img/land1.png"" style=""width:200px;border:14px solid red;"">","null","","","","","","","","","",""
"","image-keyboard-response","4","52363","0.0-4.0","3CFVK00FWM7JPYSCPX6IWDRQJUBL6X","A2OWFJJ8YEKBF1","3I7KR83SNAZT1REYB2SRC49PCEEK9H","","1296.6999999284744","img/land2.png","75","1297.5","2","0","1","2","0.8,0.2,0.2,0.2,0.8,0.2,0.2,0.2,0.8","0.2,0.2,0.8,0.8,0.2,0.2,0.2,0.8,0.2","2","",""
"","html-keyboard-response","5","52667","0.0-5.0","3CFVK00FWM7JPYSCPX6IWDRQJUBL6X","A2OWFJJ8YEKBF1","3I7KR83SNAZT1REYB2SRC49PCEEK9H","","null","<img src=""img/land2.png"" style=""width:200px;border:14px solid red;"">","null","","","","","","","","","",""
"","image-keyboard-response","6","53125","0.0-6.0","3CFVK00FWM7JPYSCPX6IWDRQJUBL6X","A2OWFJJ8YEKBF1","3I7KR83SNAZT1REYB2SRC49PCEEK9H","","456.7000000476837","img/land2.png","75","457.7000000476837","2","1","1","2","0.8,0.2,0.2,0.2,0.8,0.2,0.2,0.2,0.8","0.2,0.2,0.8,0.8,0.2,0.2,0.2,0.8,0.2","2","",""
"","html-keyboard-response","7","53427","0.0-7.0","3CFVK00FWM7JPYSCPX6IWDRQJUBL6X","A2OWFJJ8YEKBF1","3I7KR83SNAZT1REYB2SRC49PCEEK9H","","null","<img src=""img/land2.png"" style=""width:200px; border:14px solid green;"">","null","","","","","","","","","",""
"","image-keyboard-response","8","54488","0.0-8.0","3CFVK00FWM7JPYSCPX6IWDRQJUBL6X","A2OWFJJ8YEKBF1","3I7KR83SNAZT1REYB2SRC49PCEEK9H","","1059.7000000476837","img/land1.png","76","1060.6000000238419","3","0","3","2","0.8,0.2,0.2,0.2,0.8,0.2,0.2,0.2,0.8","0.2,0.2,0.8,0.8,0.2,0.2,0.2,0.8,0.2","2","",""
"","html-keyboard-response","9","54792","0.0-9.0","3CFVK00FWM7JPYSCPX6IWDRQJUBL6X","A2OWFJJ8YEKBF1","3I7KR83SNAZT1REYB2SRC49PCEEK9H","","null","<img src=""img/land1.png"" style=""width:200px;border:14px solid red;"">","null","","","","","","","","","",""
"","image-keyboard-response","10","56310","0.0-10.0","3CFVK00FWM7JPYSCPX6IWDRQJUBL6X","A2OWFJJ8YEKBF1","3I7KR83SNAZT1REYB2SRC49PCEEK9H","","1515.7999999523163","img/land6.png","76","1517.3000000715256","3","0","2","2","0.8,0.2,0.2,0.2,0.8,0.2,0.2,0.2,0.8","0.2,0.2,0.8,0.8,0.2,0.2,0.2,0.8,0.2","2","",""
"","html-keyboard-response","11","56614","0.0-11.0","3CFVK00FWM7JPYSCPX6IWDRQJUBL6X","A2OWFJJ8YEKBF1","3I7KR83SNAZT1REYB2SRC49PCEEK9H","","null","<img src=""img/land6.png"" style=""width:200px;border:14px solid red;"">","null","","","","","","","","","",""
"","image-keyboard-response","12","57601","0.0-12.0","3CFVK00FWM7JPYSCPX6IWDRQJUBL6X","A2OWFJJ8YEKBF1","3I7KR83SNAZT1REYB2SRC49PCEEK9H","","985.2999999523163","img/land2.png","75","986.8999999761581","2","1","1","2","0.8,0.2,0.2,0.2,0.8,0.2,0.2,0.2,0.8","0.2,0.2,0.8,0.8,0.2,0.2,0.2,0.8,0.2","2","",""
"","html-keyboard-response","13","57903","0.0-13.0","3CFVK00FWM7JPYSCPX6IWDRQJUBL6X","A2OWFJJ8YEKBF1","3I7KR83SNAZT1REYB2SRC49PCEEK9H","","null","<img src=""img/land2.png"" style=""width:200px; border:14px solid green;"">","null","","","","","","","","","",""
"","image-keyboard-response","14","58932","0.0-14.0","3CFVK00FWM7JPYSCPX6IWDRQJUBL6X","A2OWFJJ8YEKBF1","3I7KR83SNAZT1REYB2SRC49PCEEK9H","","1028.0999999046326","img/land1.png","74","1029.3000000715256","1","0","3","2","0.8,0.2,0.2,0.2,0.8,0.2,0.2,0.2,0.8","0.2,0.2,0.8,0.8,0.2,0.2,0.2,0.8,0.2","2","",""
"","html-keyboard-response","15","59238","0.0-15.0","3CFVK00FWM7JPYSCPX6IWDRQJUBL6X","A2OWFJJ8YEKBF1","3I7KR83SNAZT1REYB2SRC49PCEEK9H","","null","<img src=""img/land1.png"" style=""width:200px;border:14px solid red;"">","null","","","","","","","","","",""
"","image-keyboard-response","16","60232","0.0-16.0","3CFVK00FWM7JPYSCPX6IWDRQJUBL6X","A2OWFJJ8YEKBF1","3I7KR83SNAZT1REYB2SRC49PCEEK9H","","992.1000000238419","img/land2.png","75","993.6000000238419","2","1","1","2","0.8,0.2,0.2,0.2,0.8,0.2,0.2,0.2,0.8","0.2,0.2,0.8,0.8,0.2,0.2,0.2,0.8,0.2","2","",""
"","html-keyboard-response","17","60538","0.0-17.0","3CFVK00FWM7JPYSCPX6IWDRQJUBL6X","A2OWFJJ8YEKBF1","3I7KR83SNAZT1REYB2SRC49PCEEK9H","","null","<img src=""img/land2.png"" style=""width:200px; border:14px solid green;"">","null","","","","","","","","","",""
"","image-keyboard-response","18","61625","0.0-18.0","3CFVK00FWM7JPYSCPX6IWDRQJUBL6X","A2OWFJJ8YEKBF1","3I7KR83SNAZT1REYB2SRC49PCEEK9H","","1085.5","img/land1.png","76","1086.5","3","1","3","2","0.8,0.2,0.2,0.2,0.8,0.2,0.2,0.2,0.8","0.2,0.2,0.8,0.8,0.2,0.2,0.2,0.8,0.2","2","",""
"","html-keyboard-response","19","61930","0.0-19.0","3CFVK00FWM7JPYSCPX6IWDRQJUBL6X","A2OWFJJ8YEKBF1","3I7KR83SNAZT1REYB2SRC49PCEEK9H","","null","<img src=""img/land1.png"" style=""width:200px; border:14px solid green;"">","null","","","","","","","","","",""
"","image-keyboard-response","20","61958","0.0-20.0","3CFVK00FWM7JPYSCPX6IWDRQJUBL6X","A2OWFJJ8YEKBF1","3I7KR83SNAZT1REYB2SRC49PCEEK9H","","26.5","img/land6.png","76","27.09999990463257","3","1","2","2","0.8,0.2,0.2,0.2,0.8,0.2,0.2,0.2,0.8","0.2,0.2,0.8,0.8,0.2,0.2,0.2,0.8,0.2","2","",""
"","html-keyboard-response","21","62261","0.0-21.0","3CFVK00FWM7JPYSCPX6IWDRQJUBL6X","A2OWFJJ8YEKBF1","3I7KR83SNAZT1REYB2SRC49PCEEK9H","","null","<img src=""img/land6.png"" style=""width:200px; border:14px solid green;"">","null","","","","","","","","","",""
"","image-keyboard-response","22","63162","0.0-22.0","3CFVK00FWM7JPYSCPX6IWDRQJUBL6X","A2OWFJJ8YEKBF1","3I7KR83SNAZT1REYB2SRC49PCEEK9H","","898.3999999761581","img/land6.png","74","899.6000000238419","1","0","2","2","0.8,0.2,0.2,0.2,0.8,0.2,0.2,0.2,0.8","0.2,0.2,0.8,0.8,0.2,0.2,0.2,0.8,0.2","2","",""
"","html-keyboard-response","23","63464","0.0-23.0","3CFVK00FWM7JPYSCPX6IWDRQJUBL6X","A2OWFJJ8YEKBF1","3I7KR83SNAZT1REYB2SRC49PCEEK9H","","null","<img src=""img/land6.png"" style=""width:200px;border:14px solid red;"">","null","","","","","","","","","",""
"","image-keyboard-response","24","64403","0.0-24.0","3CFVK00FWM7JPYSCPX6IWDRQJUBL6X","A2OWFJJ8YEKBF1","3I7KR83SNAZT1REYB2SRC49PCEEK9H","","937.1000000238419","img/land2.png","74","938.1000000238419","1","0","1","2","0.8,0.2,0.2,0.2,0.8,0.2,0.2,0.2,0.8","0.2,0.2,0.8,0.8,0.2,0.2,0.2,0.8,0.2","2","",""
"","html-keyboard-response","25","64706","0.0-25.0","3CFVK00FWM7JPYSCPX6IWDRQJUBL6X","A2OWFJJ8YEKBF1","3I7KR83SNAZT1REYB2SRC49PCEEK9H","","null","<img src=""img/land2.png"" style=""width:200px;border:14px solid red;"">","null","","","","","","","","","",""
"","image-keyboard-response","26","65425","0.0-26.0","3CFVK00FWM7JPYSCPX6IWDRQJUBL6X","A2OWFJJ8YEKBF1","3I7KR83SNAZT1REYB2SRC49PCEEK9H","","718.3999999761581","img/land2.png","75","718.9000000953674","2","1","1","2","0.8,0.2,0.2,0.2,0.8,0.2,0.2,0.2,0.8","0.2,0.2,0.8,0.8,0.2,0.2,0.2,0.8,0.2","2","",""
"","html-keyboard-response","27","65728","0.0-27.0","3CFVK00FWM7JPYSCPX6IWDRQJUBL6X","A2OWFJJ8YEKBF1","3I7KR83SNAZT1REYB2SRC49PCEEK9H","","null","<img src=""img/land2.png"" style=""width:200px; border:14px solid green;"">","null","","","","","","","","","",""
"","image-keyboard-response","28","66736","0.0-28.0","3CFVK00FWM7JPYSCPX6IWDRQJUBL6X","A2OWFJJ8YEKBF1","3I7KR83SNAZT1REYB2SRC49PCEEK9H","","1005.3000000715256","img/land6.png","74","1007.1000000238419","1","1","2","2","0.8,0.2,0.2,0.2,0.8,0.2,0.2,0.2,0.8","0.2,0.2,0.8,0.8,0.2,0.2,0.2,0.8,0.2","2","",""
"","html-keyboard-response","29","67039","0.0-29.0","3CFVK00FWM7JPYSCPX6IWDRQJUBL6X","A2OWFJJ8YEKBF1","3I7KR83SNAZT1REYB2SRC49PCEEK9H","","null","<img src=""img/land6.png"" style=""width:200px; border:14px solid green;"">","null","","","","","","","","","",""
"","image-keyboard-response","30","67980","0.0-30.0","3CFVK00FWM7JPYSCPX6IWDRQJUBL6X","A2OWFJJ8YEKBF1","3I7KR83SNAZT1REYB2SRC49PCEEK9H","","940.3000000715256","img/land2.png","75","940.8000000715256","2","0","1","2","0.8,0.2,0.2,0.2,0.8,0.2,0.2,0.2,0.8","0.2,0.2,0.8,0.8,0.2,0.2,0.2,0.8,0.2","2","",""
"","html-keyboard-response","31","68282","0.0-31.0","3CFVK00FWM7JPYSCPX6IWDRQJUBL6X","A2OWFJJ8YEKBF1","3I7KR83SNAZT1REYB2SRC49PCEEK9H","","null","<img src=""img/land2.png"" style=""width:200px;border:14px solid red;"">","null","","","","","","","","","",""
"","image-keyboard-response","32","68955","0.0-32.0","3CFVK00FWM7JPYSCPX6IWDRQJUBL6X","A2OWFJJ8YEKBF1","3I7KR83SNAZT1REYB2SRC49PCEEK9H","","670.8000000715256","img/land2.png","75","672.2000000476837","2","0","1","2","0.8,0.2,0.2,0.2,0.8,0.2,0.2,0.2,0.8","0.2,0.2,0.8,0.8,0.2,0.2,0.2,0.8,0.2","2","",""
"","html-keyboard-response","33","69257","0.0-33.0","3CFVK00FWM7JPYSCPX6IWDRQJUBL6X","A2OWFJJ8YEKBF1","3I7KR83SNAZT1REYB2SRC49PCEEK9H","","null","<img src=""img/land2.png"" style=""width:200px;border:14px solid red;"">","null","","","","","","","","","",""
"","image-keyboard-response","34","69918","0.0-34.0","3CFVK00FWM7JPYSCPX6IWDRQJUBL6X","A2OWFJJ8YEKBF1","3I7KR83SNAZT1REYB2SRC49PCEEK9H","","658.5","img/land2.png","75","660","2","0","1","2","0.8,0.2,0.2,0.2,0.8,0.2,0.2,0.2,0.8","0.2,0.2,0.8,0.8,0.2,0.2,0.2,0.8,0.2","2","",""
"","html-keyboard-response","35","70221","0.0-35.0","3CFVK00FWM7JPYSCPX6IWDRQJUBL6X","A2OWFJJ8YEKBF1","3I7KR83SNAZT1REYB2SRC49PCEEK9H","","null","<img src=""img/land2.png"" style=""width:200px;border:14px solid red;"">","null","","","","","","","","","",""
"","image-keyboard-response","36","70584","0.0-36.0","3CFVK00FWM7JPYSCPX6IWDRQJUBL6X","A2OWFJJ8YEKBF1","3I7KR83SNAZT1REYB2SRC49PCEEK9H","","360.89999997615814","img/land2.png","74","362.1999999284744","1","1","1","2","0.8,0.2,0.2,0.2,0.8,0.2,0.2,0.2,0.8","0.2,0.2,0.8,0.8,0.2,0.2,0.2,0.8,0.2","2","",""
"","html-keyboard-response","37","70888","0.0-37.0","3CFVK00FWM7JPYSCPX6IWDRQJUBL6X","A2OWFJJ8YEKBF1","3I7KR83SNAZT1REYB2SRC49PCEEK9H","","null","<img src=""img/land2.png"" style=""width:200px; border:14px solid green;"">","null","","","","","","","","","",""
"","image-keyboard-response","38","71407","0.0-38.0","3CFVK00FWM7JPYSCPX6IWDRQJUBL6X","A2OWFJJ8YEKBF1","3I7KR83SNAZT1REYB2SRC49PCEEK9H","","516","img/land2.png","74","517.3999999761581","1","0","1","2","0.8,0.2,0.2,0.2,0.8,0.2,0.2,0.2,0.8","0.2,0.2,0.8,0.8,0.2,0.2,0.2,0.8,0.2","2","",""
"","html-keyboard-response","39","71712","0.0-39.0","3CFVK00FWM7JPYSCPX6IWDRQJUBL6X","A2OWFJJ8YEKBF1","3I7KR83SNAZT1REYB2SRC49PCEEK9H","","null","<img src=""img/land2.png"" style=""width:200px;border:14px solid red;"">","null","","","","","","","","","",""
"","image-keyboard-response","40","72200","0.0-40.0","3CFVK00FWM7JPYSCPX6IWDRQJUBL6X","A2OWFJJ8YEKBF1","3I7KR83SNAZT1REYB2SRC49PCEEK9H","","486.8000000715256","img/land2.png","74","487.39999997615814","1","0","1","2","0.8,0.2,0.2,0.2,0.8,0.2,0.2,0.2,0.8","0.2,0.2,0.8,0.8,0.2,0.2,0.2,0.8,0.2","2","",""
"","html-keyboard-response","41","72502","0.0-41.0","3CFVK00FWM7JPYSCPX6IWDRQJUBL6X","A2OWFJJ8YEKBF1","3I7KR83SNAZT1REYB2SRC49PCEEK9H","","null","<img src=""img/land2.png"" style=""width:200px;border:14px solid red;"">","null","","","","","","","","","",""
"","image-keyboard-response","42","72838","0.0-42.0","3CFVK00FWM7JPYSCPX6IWDRQJUBL6X","A2OWFJJ8YEKBF1","3I7KR83SNAZT1REYB2SRC49PCEEK9H","","335.40000009536743","img/land1.png","75","336","2","0","3","2","0.8,0.2,0.2,0.2,0.8,0.2,0.2,0.2,0.8","0.2,0.2,0.8,0.8,0.2,0.2,0.2,0.8,0.2","2","",""
"","html-keyboard-response","43","73140","0.0-43.0","3CFVK00FWM7JPYSCPX6IWDRQJUBL6X","A2OWFJJ8YEKBF1","3I7KR83SNAZT1REYB2SRC49PCEEK9H","","null","<img src=""img/land1.png"" style=""width:200px;border:14px solid red;"">","null","","","","","","","","","",""
"","image-keyboard-response","44","74063","0.0-44.0","3CFVK00FWM7JPYSCPX6IWDRQJUBL6X","A2OWFJJ8YEKBF1","3I7KR83SNAZT1REYB2SRC49PCEEK9H","","921.8999999761581","img/land2.png","74","922.6000000238419","1","0","1","2","0.8,0.2,0.2,0.2,0.8,0.2,0.2,0.2,0.8","0.2,0.2,0.8,0.8,0.2,0.2,0.2,0.8,0.2","2","",""
"","html-keyboard-response","45","74365","0.0-45.0","3CFVK00FWM7JPYSCPX6IWDRQJUBL6X","A2OWFJJ8YEKBF1","3I7KR83SNAZT1REYB2SRC49PCEEK9H","","null","<img src=""img/land2.png"" style=""width:200px;border:14px solid red;"">","null","","","","","","","","","",""
"","image-keyboard-response","46","74782","0.0-46.0","3CFVK00FWM7JPYSCPX6IWDRQJUBL6X","A2OWFJJ8YEKBF1","3I7KR83SNAZT1REYB2SRC49PCEEK9H","","414.89999997615814","img/land2.png","74","416.1999999284744","1","0","1","2","0.8,0.2,0.2,0.2,0.8,0.2,0.2,0.2,0.8","0.2,0.2,0.8,0.8,0.2,0.2,0.2,0.8,0.2","2","",""
"","html-keyboard-response","47","75085","0.0-47.0","3CFVK00FWM7JPYSCPX6IWDRQJUBL6X","A2OWFJJ8YEKBF1","3I7KR83SNAZT1REYB2SRC49PCEEK9H","","null","<img src=""img/land2.png"" style=""width:200px;border:14px solid red;"">","null","","","","","","","","","",""
"","image-keyboard-response","48","75625","0.0-48.0","3CFVK00FWM7JPYSCPX6IWDRQJUBL6X","A2OWFJJ8YEKBF1","3I7KR83SNAZT1REYB2SRC49PCEEK9H","","537.8999999761581","img/land2.png","75","539.1000000238419","2","1","1","2","0.8,0.2,0.2,0.2,0.8,0.2,0.2,0.2,0.8","0.2,0.2,0.8,0.8,0.2,0.2,0.2,0.8,0.2","2","",""
"","html-keyboard-response","49","75927","0.0-49.0","3CFVK00FWM7JPYSCPX6IWDRQJUBL6X","A2OWFJJ8YEKBF1","3I7KR83SNAZT1REYB2SRC49PCEEK9H","","null","<img src=""img/land2.png"" style=""width:200px; border:14px solid green;"">","null","","","","","","","","","",""
"","image-keyboard-response","50","76256","0.0-50.0","3CFVK00FWM7JPYSCPX6IWDRQJUBL6X","A2OWFJJ8YEKBF1","3I7KR83SNAZT1REYB2SRC49PCEEK9H","","326.7999999523163","img/land2.png","75","328.10000002384186","2","0","1","2","0.8,0.2,0.2,0.2,0.8,0.2,0.2,0.2,0.8","0.2,0.2,0.8,0.8,0.2,0.2,0.2,0.8,0.2","2","",""
"","html-keyboard-response","51","76559","0.0-51.0","3CFVK00FWM7JPYSCPX6IWDRQJUBL6X","A2OWFJJ8YEKBF1","3I7KR83SNAZT1REYB2SRC49PCEEK9H","","null","<img src=""img/land2.png"" style=""width:200px;border:14px solid red;"">","null","","","","","","","","","",""
"","image-keyboard-response","52","76806","0.0-52.0","3CFVK00FWM7JPYSCPX6IWDRQJUBL6X","A2OWFJJ8YEKBF1","3I7KR83SNAZT1REYB2SRC49PCEEK9H","","246.10000002384186","img/land2.png","75","246.79999995231628","2","0","1","2","0.8,0.2,0.2,0.2,0.8,0.2,0.2,0.2,0.8","0.2,0.2,0.8,0.8,0.2,0.2,0.2,0.8,0.2","2","",""
"","html-keyboard-response","53","77111","0.0-53.0","3CFVK00FWM7JPYSCPX6IWDRQJUBL6X","A2OWFJJ8YEKBF1","3I7KR83SNAZT1REYB2SRC49PCEEK9H","","null","<img src=""img/land2.png"" style=""width:200px;border:14px solid red;"">","null","","","","","","","","","",""
"","image-keyboard-response","54","77956","0.0-54.0","3CFVK00FWM7JPYSCPX6IWDRQJUBL6X","A2OWFJJ8YEKBF1","3I7KR83SNAZT1REYB2SRC49PCEEK9H","","845.2000000476837","img/land6.png","76","845.6999999284744","3","0","2","2","0.8,0.2,0.2,0.2,0.8,0.2,0.2,0.2,0.8","0.2,0.2,0.8,0.8,0.2,0.2,0.2,0.8,0.2","2","",""
"","html-keyboard-response","55","78260","0.0-55.0","3CFVK00FWM7JPYSCPX6IWDRQJUBL6X","A2OWFJJ8YEKBF1","3I7KR83SNAZT1REYB2SRC49PCEEK9H","","null","<img src=""img/land6.png"" style=""width:200px;border:14px solid red;"">","null","","","","","","","","","",""
"","image-keyboard-response","56","78800","0.0-56.0","3CFVK00FWM7JPYSCPX6IWDRQJUBL6X","A2OWFJJ8YEKBF1","3I7KR83SNAZT1REYB2SRC49PCEEK9H","","537","img/land6.png","74","538.2999999523163","1","1","2","2","0.8,0.2,0.2,0.2,0.8,0.2,0.2,0.2,0.8","0.2,0.2,0.8,0.8,0.2,0.2,0.2,0.8,0.2","2","",""
"","html-keyboard-response","57","79102","0.0-57.0","3CFVK00FWM7JPYSCPX6IWDRQJUBL6X","A2OWFJJ8YEKBF1","3I7KR83SNAZT1REYB2SRC49PCEEK9H","","null","<img src=""img/land6.png"" style=""width:200px; border:14px solid green;"">","null","","","","","","","","","",""
"","image-keyboard-response","58","81011","0.0-58.0","3CFVK00FWM7JPYSCPX6IWDRQJUBL6X","A2OWFJJ8YEKBF1","3I7KR83SNAZT1REYB2SRC49PCEEK9H","","1907.8000000715256","img/land2.png","75","1909.2000000476837","2","0","1","2","0.8,0.2,0.2,0.2,0.8,0.2,0.2,0.2,0.8","0.2,0.2,0.8,0.8,0.2,0.2,0.2,0.8,0.2","2","",""
"","html-keyboard-response","59","81313","0.0-59.0","3CFVK00FWM7JPYSCPX6IWDRQJUBL6X","A2OWFJJ8YEKBF1","3I7KR83SNAZT1REYB2SRC49PCEEK9H","","null","<img src=""img/land2.png"" style=""width:200px;border:14px solid red;"">","null","","","","","","","","","",""
"","image-keyboard-response","60","81888","0.0-60.0","3CFVK00FWM7JPYSCPX6IWDRQJUBL6X","A2OWFJJ8YEKBF1","3I7KR83SNAZT1REYB2SRC49PCEEK9H","","573.9000000953674","img/land2.png","76","574.8000000715256","3","1","1","2","0.8,0.2,0.2,0.2,0.8,0.2,0.2,0.2,0.8","0.2,0.2,0.8,0.8,0.2,0.2,0.2,0.8,0.2","2","",""
"","html-keyboard-response","61","82190","0.0-61.0","3CFVK00FWM7JPYSCPX6IWDRQJUBL6X","A2OWFJJ8YEKBF1","3I7KR83SNAZT1REYB2SRC49PCEEK9H","","null","<img src=""img/land2.png"" style=""width:200px; border:14px solid green;"">","null","","","","","","","","","",""
"","image-keyboard-response","62","83322","0.0-62.0","3CFVK00FWM7JPYSCPX6IWDRQJUBL6X","A2OWFJJ8YEKBF1","3I7KR83SNAZT1REYB2SRC49PCEEK9H","","1131.5","img/land2.png","76","1132.5","3","0","1","2","0.8,0.2,0.2,0.2,0.8,0.2,0.2,0.2,0.8","0.2,0.2,0.8,0.8,0.2,0.2,0.2,0.8,0.2","2","",""
"","html-keyboard-response","63","83624","0.0-63.0","3CFVK00FWM7JPYSCPX6IWDRQJUBL6X","A2OWFJJ8YEKBF1","3I7KR83SNAZT1REYB2SRC49PCEEK9H","","null","<img src=""img/land2.png"" style=""width:200px;border:14px solid red;"">","null","","","","","","","","","",""
"","image-keyboard-response","64","84612","0.0-64.0","3CFVK00FWM7JPYSCPX6IWDRQJUBL6X","A2OWFJJ8YEKBF1","3I7KR83SNAZT1REYB2SRC49PCEEK9H","","985.7999999523163","img/land1.png","75","987.2000000476837","2","1","3","2","0.8,0.2,0.2,0.2,0.8,0.2,0.2,0.2,0.8","0.2,0.2,0.8,0.8,0.2,0.2,0.2,0.8,0.2","2","",""
"","html-keyboard-response","65","84916","0.0-65.0","3CFVK00FWM7JPYSCPX6IWDRQJUBL6X","A2OWFJJ8YEKBF1","3I7KR83SNAZT1REYB2SRC49PCEEK9H","","null","<img src=""img/land1.png"" style=""width:200px; border:14px solid green;"">","null","","","","","","","","","",""
"","image-keyboard-response","66","86741","0.0-66.0","3CFVK00FWM7JPYSCPX6IWDRQJUBL6X","A2OWFJJ8YEKBF1","3I7KR83SNAZT1REYB2SRC49PCEEK9H","","1823.2000000476837","img/land6.png","75","1824.5","2","0","2","2","0.8,0.2,0.2,0.2,0.8,0.2,0.2,0.2,0.8","0.2,0.2,0.8,0.8,0.2,0.2,0.2,0.8,0.2","2","",""
"","html-keyboard-response","67","87043","0.0-67.0","3CFVK00FWM7JPYSCPX6IWDRQJUBL6X","A2OWFJJ8YEKBF1","3I7KR83SNAZT1REYB2SRC49PCEEK9H","","null","<img src=""img/land6.png"" style=""width:200px;border:14px solid red;"">","null","","","","","","","","","",""
"","image-keyboard-response","68","88416","0.0-68.0","3CFVK00FWM7JPYSCPX6IWDRQJUBL6X","A2OWFJJ8YEKBF1","3I7KR83SNAZT1REYB2SRC49PCEEK9H","","1371.5","img/land2.png","75","1372.7999999523163","2","1","1","2","0.8,0.2,0.2,0.2,0.8,0.2,0.2,0.2,0.8","0.2,0.2,0.8,0.8,0.2,0.2,0.2,0.8,0.2","2","",""
"","html-keyboard-response","69","88720","0.0-69.0","3CFVK00FWM7JPYSCPX6IWDRQJUBL6X","A2OWFJJ8YEKBF1","3I7KR83SNAZT1REYB2SRC49PCEEK9H","","null","<img src=""img/land2.png"" style=""width:200px; border:14px solid green;"">","null","","","","","","","","","",""
"","image-keyboard-response","70","89823","0.0-70.0","3CFVK00FWM7JPYSCPX6IWDRQJUBL6X","A2OWFJJ8YEKBF1","3I7KR83SNAZT1REYB2SRC49PCEEK9H","","1101.6000000238419","img/land6.png","75","1102.3999999761581","2","0","2","2","0.8,0.2,0.2,0.2,0.8,0.2,0.2,0.2,0.8","0.2,0.2,0.8,0.8,0.2,0.2,0.2,0.8,0.2","2","",""
"","html-keyboard-response","71","90124","0.0-71.0","3CFVK00FWM7JPYSCPX6IWDRQJUBL6X","A2OWFJJ8YEKBF1","3I7KR83SNAZT1REYB2SRC49PCEEK9H","","null","<img src=""img/land6.png"" style=""width:200px;border:14px solid red;"">","null","","","","","","","","","",""
"","image-keyboard-response","72","91061","0.0-72.0","3CFVK00FWM7JPYSCPX6IWDRQJUBL6X","A2OWFJJ8YEKBF1","3I7KR83SNAZT1REYB2SRC49PCEEK9H","","934.3000000715256","img/land2.png","74","936.1000000238419","1","0","1","2","0.8,0.2,0.2,0.2,0.8,0.2,0.2,0.2,0.8","0.2,0.2,0.8,0.8,0.2,0.2,0.2,0.8,0.2","2","",""
"","html-keyboard-response","73","91367","0.0-73.0","3CFVK00FWM7JPYSCPX6IWDRQJUBL6X","A2OWFJJ8YEKBF1","3I7KR83SNAZT1REYB2SRC49PCEEK9H","","null","<img src=""img/land2.png"" style=""width:200px;border:14px solid red;"">","null","","","","","","","","","",""
"","image-keyboard-response","74","92509","0.0-74.0","3CFVK00FWM7JPYSCPX6IWDRQJUBL6X","A2OWFJJ8YEKBF1","3I7KR83SNAZT1REYB2SRC49PCEEK9H","","1141.2000000476837","img/land6.png","76","1141.8999999761581","3","0","2","2","0.8,0.2,0.2,0.2,0.8,0.2,0.2,0.2,0.8","0.2,0.2,0.8,0.8,0.2,0.2,0.2,0.8,0.2","2","",""
"","html-keyboard-response","75","92813","0.0-75.0","3CFVK00FWM7JPYSCPX6IWDRQJUBL6X","A2OWFJJ8YEKBF1","3I7KR83SNAZT1REYB2SRC49PCEEK9H","","null","<img src=""img/land6.png"" style=""width:200px;border:14px solid red;"">","null","","","","","","","","","",""
"","image-keyboard-response","76","94504","0.0-76.0","3CFVK00FWM7JPYSCPX6IWDRQJUBL6X","A2OWFJJ8YEKBF1","3I7KR83SNAZT1REYB2SRC49PCEEK9H","","1688.7999999523163","img/land1.png","74","1690.3999999761581","1","0","3","2","0.8,0.2,0.2,0.2,0.8,0.2,0.2,0.2,0.8","0.2,0.2,0.8,0.8,0.2,0.2,0.2,0.8,0.2","2","",""
"","html-keyboard-response","77","94809","0.0-77.0","3CFVK00FWM7JPYSCPX6IWDRQJUBL6X","A2OWFJJ8YEKBF1","3I7KR83SNAZT1REYB2SRC49PCEEK9H","","null","<img src=""img/land1.png"" style=""width:200px;border:14px solid red;"">","null","","","","","","","","","",""
"","image-keyboard-response","78","96199","0.0-78.0","3CFVK00FWM7JPYSCPX6IWDRQJUBL6X","A2OWFJJ8YEKBF1","3I7KR83SNAZT1REYB2SRC49PCEEK9H","","1388.8000000715256","img/land2.png","75","1389.6000000238419","2","1","1","2","0.8,0.2,0.2,0.2,0.8,0.2,0.2,0.2,0.8","0.2,0.2,0.8,0.8,0.2,0.2,0.2,0.8,0.2","2","",""
"","html-keyboard-response","79","96504","0.0-79.0","3CFVK00FWM7JPYSCPX6IWDRQJUBL6X","A2OWFJJ8YEKBF1","3I7KR83SNAZT1REYB2SRC49PCEEK9H","","null","<img src=""img/land2.png"" style=""width:200px; border:14px solid green;"">","null","","","","","","","","","",""
"","image-keyboard-response","80","97052","0.0-80.0","3CFVK00FWM7JPYSCPX6IWDRQJUBL6X","A2OWFJJ8YEKBF1","3I7KR83SNAZT1REYB2SRC49PCEEK9H","","546.3999999761581","img/land2.png","75","547.3999999761581","2","1","1","2","0.8,0.2,0.2,0.2,0.8,0.2,0.2,0.2,0.8","0.2,0.2,0.8,0.8,0.2,0.2,0.2,0.8,0.2","2","",""
"","html-keyboard-response","81","97355","0.0-81.0","3CFVK00FWM7JPYSCPX6IWDRQJUBL6X","A2OWFJJ8YEKBF1","3I7KR83SNAZT1REYB2SRC49PCEEK9H","","null","<img src=""img/land2.png"" style=""width:200px; border:14px solid green;"">","null","","","","","","","","","",""
"","image-keyboard-response","82","97751","0.0-82.0","3CFVK00FWM7JPYSCPX6IWDRQJUBL6X","A2OWFJJ8YEKBF1","3I7KR83SNAZT1REYB2SRC49PCEEK9H","","394.1999999284744","img/land2.png","75","395.10000002384186","2","0","1","2","0.8,0.2,0.2,0.2,0.8,0.2,0.2,0.2,0.8","0.2,0.2,0.8,0.8,0.2,0.2,0.2,0.8,0.2","2","",""
"","html-keyboard-response","83","98054","0.0-83.0","3CFVK00FWM7JPYSCPX6IWDRQJUBL6X","A2OWFJJ8YEKBF1","3I7KR83SNAZT1REYB2SRC49PCEEK9H","","null","<img src=""img/land2.png"" style=""width:200px;border:14px solid red;"">","null","","","","","","","","","",""
"","image-keyboard-response","84","99498","0.0-84.0","3CFVK00FWM7JPYSCPX6IWDRQJUBL6X","A2OWFJJ8YEKBF1","3I7KR83SNAZT1REYB2SRC49PCEEK9H","","1443.3999999761581","img/land1.png","75","1444.2999999523163","2","1","3","2","0.8,0.2,0.2,0.2,0.8,0.2,0.2,0.2,0.8","0.2,0.2,0.8,0.8,0.2,0.2,0.2,0.8,0.2","2","",""
"","html-keyboard-response","85","99801","0.0-85.0","3CFVK00FWM7JPYSCPX6IWDRQJUBL6X","A2OWFJJ8YEKBF1","3I7KR83SNAZT1REYB2SRC49PCEEK9H","","null","<img src=""img/land1.png"" style=""width:200px; border:14px solid green;"">","null","","","","","","","","","",""
"","image-keyboard-response","86","100118","0.0-86.0","3CFVK00FWM7JPYSCPX6IWDRQJUBL6X","A2OWFJJ8YEKBF1","3I7KR83SNAZT1REYB2SRC49PCEEK9H","","315.39999997615814","img/land2.png","75","316.10000002384186","2","0","1","2","0.8,0.2,0.2,0.2,0.8,0.2,0.2,0.2,0.8","0.2,0.2,0.8,0.8,0.2,0.2,0.2,0.8,0.2","2","",""
"","html-keyboard-response","87","100423","0.0-87.0","3CFVK00FWM7JPYSCPX6IWDRQJUBL6X","A2OWFJJ8YEKBF1","3I7KR83SNAZT1REYB2SRC49PCEEK9H","","null","<img src=""img/land2.png"" style=""width:200px;border:14px solid red;"">","null","","","","","","","","","",""
"","image-keyboard-response","88","101042","0.0-88.0","3CFVK00FWM7JPYSCPX6IWDRQJUBL6X","A2OWFJJ8YEKBF1","3I7KR83SNAZT1REYB2SRC49PCEEK9H","","618.6000000238419","img/land2.png","75","619.5","2","0","1","2","0.8,0.2,0.2,0.2,0.8,0.2,0.2,0.2,0.8","0.2,0.2,0.8,0.8,0.2,0.2,0.2,0.8,0.2","2","",""
"","html-keyboard-response","89","101346","0.0-89.0","3CFVK00FWM7JPYSCPX6IWDRQJUBL6X","A2OWFJJ8YEKBF1","3I7KR83SNAZT1REYB2SRC49PCEEK9H","","null","<img src=""img/land2.png"" style=""width:200px;border:14px solid red;"">","null","","","","","","","","","",""
"","image-keyboard-response","90","102141","0.0-90.0","3CFVK00FWM7JPYSCPX6IWDRQJUBL6X","A2OWFJJ8YEKBF1","3I7KR83SNAZT1REYB2SRC49PCEEK9H","","792.3999999761581","img/land1.png","75","793.8999999761581","2","1","3","2","0.8,0.2,0.2,0.2,0.8,0.2,0.2,0.2,0.8","0.2,0.2,0.8,0.8,0.2,0.2,0.2,0.8,0.2","2","",""
"","html-keyboard-response","91","102442","0.0-91.0","3CFVK00FWM7JPYSCPX6IWDRQJUBL6X","A2OWFJJ8YEKBF1","3I7KR83SNAZT1REYB2SRC49PCEEK9H","","null","<img src=""img/land1.png"" style=""width:200px; border:14px solid green;"">","null","","","","","","","","","",""
"","image-keyboard-response","92","103066","0.0-92.0","3CFVK00FWM7JPYSCPX6IWDRQJUBL6X","A2OWFJJ8YEKBF1","3I7KR83SNAZT1REYB2SRC49PCEEK9H","","622.5","img/land1.png","75","623.3999999761581","2","1","3","2","0.8,0.2,0.2,0.2,0.8,0.2,0.2,0.2,0.8","0.2,0.2,0.8,0.8,0.2,0.2,0.2,0.8,0.2","2","",""
"","html-keyboard-response","93","103371","0.0-93.0","3CFVK00FWM7JPYSCPX6IWDRQJUBL6X","A2OWFJJ8YEKBF1","3I7KR83SNAZT1REYB2SRC49PCEEK9H","","null","<img src=""img/land1.png"" style=""width:200px; border:14px solid green;"">","null","","","","","","","","","",""
"","image-keyboard-response","94","104215","0.0-94.0","3CFVK00FWM7JPYSCPX6IWDRQJUBL6X","A2OWFJJ8YEKBF1","3I7KR83SNAZT1REYB2SRC49PCEEK9H","","843.5999999046326","img/land2.png","75","844.2000000476837","2","0","1","2","0.8,0.2,0.2,0.2,0.8,0.2,0.2,0.2,0.8","0.2,0.2,0.8,0.8,0.2,0.2,0.2,0.8,0.2","2","",""
"","html-keyboard-response","95","104519","0.0-95.0","3CFVK00FWM7JPYSCPX6IWDRQJUBL6X","A2OWFJJ8YEKBF1","3I7KR83SNAZT1REYB2SRC49PCEEK9H","","null","<img src=""img/land2.png"" style=""width:200px;border:14px solid red;"">","null","","","","","","","","","",""
"","image-keyboard-response","96","105242","0.0-96.0","3CFVK00FWM7JPYSCPX6IWDRQJUBL6X","A2OWFJJ8YEKBF1","3I7KR83SNAZT1REYB2SRC49PCEEK9H","","722.6000000238419","img/land2.png","75","723.3999999761581","2","0","1","2","0.8,0.2,0.2,0.2,0.8,0.2,0.2,0.2,0.8","0.2,0.2,0.8,0.8,0.2,0.2,0.2,0.8,0.2","2","",""
"","html-keyboard-response","97","105548","0.0-97.0","3CFVK00FWM7JPYSCPX6IWDRQJUBL6X","A2OWFJJ8YEKBF1","3I7KR83SNAZT1REYB2SRC49PCEEK9H","","null","<img src=""img/land2.png"" style=""width:200px;border:14px solid red;"">","null","","","","","","","","","",""
"","image-keyboard-response","98","106554","0.0-98.0","3CFVK00FWM7JPYSCPX6IWDRQJUBL6X","A2OWFJJ8YEKBF1","3I7KR83SNAZT1REYB2SRC49PCEEK9H","","1004.2999999523163","img/land6.png","76","1005.3999999761581","3","0","2","2","0.8,0.2,0.2,0.2,0.8,0.2,0.2,0.2,0.8","0.2,0.2,0.8,0.8,0.2,0.2,0.2,0.8,0.2","2","",""
"","html-keyboard-response","99","106859","0.0-99.0","3CFVK00FWM7JPYSCPX6IWDRQJUBL6X","A2OWFJJ8YEKBF1","3I7KR83SNAZT1REYB2SRC49PCEEK9H","","null","<img src=""img/land6.png"" style=""width:200px;border:14px solid red;"">","null","","","","","","","","","",""
"","image-keyboard-response","100","108010","0.0-100.0","3CFVK00FWM7JPYSCPX6IWDRQJUBL6X","A2OWFJJ8YEKBF1","3I7KR83SNAZT1REYB2SRC49PCEEK9H","","1149","img/land2.png","75","1150.3999999761581","2","0","1","2","0.8,0.2,0.2,0.2,0.8,0.2,0.2,0.2,0.8","0.2,0.2,0.8,0.8,0.2,0.2,0.2,0.8,0.2","2","",""
"","html-keyboard-response","101","108315","0.0-101.0","3CFVK00FWM7JPYSCPX6IWDRQJUBL6X","A2OWFJJ8YEKBF1","3I7KR83SNAZT1REYB2SRC49PCEEK9H","","null","<img src=""img/land2.png"" style=""width:200px;border:14px solid red;"">","null","","","","","","","","","",""
"","image-keyboard-response","102","108880","0.0-102.0","3CFVK00FWM7JPYSCPX6IWDRQJUBL6X","A2OWFJJ8YEKBF1","3I7KR83SNAZT1REYB2SRC49PCEEK9H","","564.6000000238419","img/land2.png","74","565.3999999761581","1","0","1","2","0.8,0.2,0.2,0.2,0.8,0.2,0.2,0.2,0.8","0.2,0.2,0.8,0.8,0.2,0.2,0.2,0.8,0.2","2","",""
"","html-keyboard-response","103","109182","0.0-103.0","3CFVK00FWM7JPYSCPX6IWDRQJUBL6X","A2OWFJJ8YEKBF1","3I7KR83SNAZT1REYB2SRC49PCEEK9H","","null","<img src=""img/land2.png"" style=""width:200px;border:14px solid red;"">","null","","","","","","","","","",""
"","image-keyboard-response","104","110190","0.0-104.0","3CFVK00FWM7JPYSCPX6IWDRQJUBL6X","A2OWFJJ8YEKBF1","3I7KR83SNAZT1REYB2SRC49PCEEK9H","","1007.2000000476837","img/land1.png","74","1007.8999999761581","1","0","3","2","0.8,0.2,0.2,0.2,0.8,0.2,0.2,0.2,0.8","0.2,0.2,0.8,0.8,0.2,0.2,0.2,0.8,0.2","2","",""
"","html-keyboard-response","105","110494","0.0-105.0","3CFVK00FWM7JPYSCPX6IWDRQJUBL6X","A2OWFJJ8YEKBF1","3I7KR83SNAZT1REYB2SRC49PCEEK9H","","null","<img src=""img/land1.png"" style=""width:200px;border:14px solid red;"">","null","","","","","","","","","",""
"","image-keyboard-response","106","111341","0.0-106.0","3CFVK00FWM7JPYSCPX6IWDRQJUBL6X","A2OWFJJ8YEKBF1","3I7KR83SNAZT1REYB2SRC49PCEEK9H","","846","img/land2.png","76","847","3","1","1","2","0.8,0.2,0.2,0.2,0.8,0.2,0.2,0.2,0.8","0.2,0.2,0.8,0.8,0.2,0.2,0.2,0.8,0.2","2","",""
"","html-keyboard-response","107","111643","0.0-107.0","3CFVK00FWM7JPYSCPX6IWDRQJUBL6X","A2OWFJJ8YEKBF1","3I7KR83SNAZT1REYB2SRC49PCEEK9H","","null","<img src=""img/land2.png"" style=""width:200px; border:14px solid green;"">","null","","","","","","","","","",""
"","image-keyboard-response","108","112021","0.0-108.0","3CFVK00FWM7JPYSCPX6IWDRQJUBL6X","A2OWFJJ8YEKBF1","3I7KR83SNAZT1REYB2SRC49PCEEK9H","","377.2999999523163","img/land2.png","76","378","3","1","1","2","0.8,0.2,0.2,0.2,0.8,0.2,0.2,0.2,0.8","0.2,0.2,0.8,0.8,0.2,0.2,0.2,0.8,0.2","2","",""
"","html-keyboard-response","109","112328","0.0-109.0","3CFVK00FWM7JPYSCPX6IWDRQJUBL6X","A2OWFJJ8YEKBF1","3I7KR83SNAZT1REYB2SRC49PCEEK9H","","null","<img src=""img/land2.png"" style=""width:200px; border:14px solid green;"">","null","","","","","","","","","",""
"","image-keyboard-response","110","112693","0.0-110.0","3CFVK00FWM7JPYSCPX6IWDRQJUBL6X","A2OWFJJ8YEKBF1","3I7KR83SNAZT1REYB2SRC49PCEEK9H","","364.10000002384186","img/land2.png","76","365.10000002384186","3","1","1","2","0.8,0.2,0.2,0.2,0.8,0.2,0.2,0.2,0.8","0.2,0.2,0.8,0.8,0.2,0.2,0.2,0.8,0.2","2","",""
"","html-keyboard-response","111","112996","0.0-111.0","3CFVK00FWM7JPYSCPX6IWDRQJUBL6X","A2OWFJJ8YEKBF1","3I7KR83SNAZT1REYB2SRC49PCEEK9H","","null","<img src=""img/land2.png"" style=""width:200px; border:14px solid green;"">","null","","","","","","","","","",""
"","image-keyboard-response","112","114925","0.0-112.0","3CFVK00FWM7JPYSCPX6IWDRQJUBL6X","A2OWFJJ8YEKBF1","3I7KR83SNAZT1REYB2SRC49PCEEK9H","","1926.9000000953674","img/land6.png","74","1928.1999999284744","1","1","2","2","0.8,0.2,0.2,0.2,0.8,0.2,0.2,0.2,0.8","0.2,0.2,0.8,0.8,0.2,0.2,0.2,0.8,0.2","2","",""
"","html-keyboard-response","113","115231","0.0-113.0","3CFVK00FWM7JPYSCPX6IWDRQJUBL6X","A2OWFJJ8YEKBF1","3I7KR83SNAZT1REYB2SRC49PCEEK9H","","null","<img src=""img/land6.png"" style=""width:200px; border:14px solid green;"">","null","","","","","","","","","",""
"","image-keyboard-response","114","116009","0.0-114.0","3CFVK00FWM7JPYSCPX6IWDRQJUBL6X","A2OWFJJ8YEKBF1","3I7KR83SNAZT1REYB2SRC49PCEEK9H","","776.4000000953674","img/land2.png","76","777.7999999523163","3","1","1","2","0.8,0.2,0.2,0.2,0.8,0.2,0.2,0.2,0.8","0.2,0.2,0.8,0.8,0.2,0.2,0.2,0.8,0.2","2","",""
"","html-keyboard-response","115","116315","0.0-115.0","3CFVK00FWM7JPYSCPX6IWDRQJUBL6X","A2OWFJJ8YEKBF1","3I7KR83SNAZT1REYB2SRC49PCEEK9H","","null","<img src=""img/land2.png"" style=""width:200px; border:14px solid green;"">","null","","","","","","","","","",""
"","image-keyboard-response","116","116759","0.0-116.0","3CFVK00FWM7JPYSCPX6IWDRQJUBL6X","A2OWFJJ8YEKBF1","3I7KR83SNAZT1REYB2SRC49PCEEK9H","","441.5","img/land2.png","76","442.89999997615814","3","1","1","2","0.8,0.2,0.2,0.2,0.8,0.2,0.2,0.2,0.8","0.2,0.2,0.8,0.8,0.2,0.2,0.2,0.8,0.2","2","",""
"","html-keyboard-response","117","117065","0.0-117.0","3CFVK00FWM7JPYSCPX6IWDRQJUBL6X","A2OWFJJ8YEKBF1","3I7KR83SNAZT1REYB2SRC49PCEEK9H","","null","<img src=""img/land2.png"" style=""width:200px; border:14px solid green;"">","null","","","","","","","","","",""
"","image-keyboard-response","118","117705","0.0-118.0","3CFVK00FWM7JPYSCPX6IWDRQJUBL6X","A2OWFJJ8YEKBF1","3I7KR83SNAZT1REYB2SRC49PCEEK9H","","638.3000000715256","img/land1.png","74","639.5","1","0","3","2","0.8,0.2,0.2,0.2,0.8,0.2,0.2,0.2,0.8","0.2,0.2,0.8,0.8,0.2,0.2,0.2,0.8,0.2","2","",""
"","html-keyboard-response","119","118011","0.0-119.0","3CFVK00FWM7JPYSCPX6IWDRQJUBL6X","A2OWFJJ8YEKBF1","3I7KR83SNAZT1REYB2SRC49PCEEK9H","","null","<img src=""img/land1.png"" style=""width:200px;border:14px solid red;"">","null","","","","","","","","","",""
"","image-keyboard-response","120","119071","0.0-120.0","3CFVK00FWM7JPYSCPX6IWDRQJUBL6X","A2OWFJJ8YEKBF1","3I7KR83SNAZT1REYB2SRC49PCEEK9H","","1058.1000000238419","img/land2.png","76","1059.5","3","1","1","2","0.8,0.2,0.2,0.2,0.8,0.2,0.2,0.2,0.8","0.2,0.2,0.8,0.8,0.2,0.2,0.2,0.8,0.2","2","",""
"","html-keyboard-response","121","119374","0.0-121.0","3CFVK00FWM7JPYSCPX6IWDRQJUBL6X","A2OWFJJ8YEKBF1","3I7KR83SNAZT1REYB2SRC49PCEEK9H","","null","<img src=""img/land2.png"" style=""width:200px; border:14px solid green;"">","null","","","","","","","","","",""
"","image-keyboard-response","122","119798","0.0-122.0","3CFVK00FWM7JPYSCPX6IWDRQJUBL6X","A2OWFJJ8YEKBF1","3I7KR83SNAZT1REYB2SRC49PCEEK9H","","421.2000000476837","img/land2.png","76","423","3","1","1","2","0.8,0.2,0.2,0.2,0.8,0.2,0.2,0.2,0.8","0.2,0.2,0.8,0.8,0.2,0.2,0.2,0.8,0.2","2","",""
"","html-keyboard-response","123","120100","0.0-123.0","3CFVK00FWM7JPYSCPX6IWDRQJUBL6X","A2OWFJJ8YEKBF1","3I7KR83SNAZT1REYB2SRC49PCEEK9H","","null","<img src=""img/land2.png"" style=""width:200px; border:14px solid green;"">","null","","","","","","","","","",""
"","image-keyboard-response","124","120441","0.0-124.0","3CFVK00FWM7JPYSCPX6IWDRQJUBL6X","A2OWFJJ8YEKBF1","3I7KR83SNAZT1REYB2SRC49PCEEK9H","","339.60000002384186","img/land2.png","76","340.1999999284744","3","1","1","2","0.8,0.2,0.2,0.2,0.8,0.2,0.2,0.2,0.8","0.2,0.2,0.8,0.8,0.2,0.2,0.2,0.8,0.2","2","",""
"","html-keyboard-response","125","120745","0.0-125.0","3CFVK00FWM7JPYSCPX6IWDRQJUBL6X","A2OWFJJ8YEKBF1","3I7KR83SNAZT1REYB2SRC49PCEEK9H","","null","<img src=""img/land2.png"" style=""width:200px; border:14px solid green;"">","null","","","","","","","","","",""
"","image-keyboard-response","126","121305","0.0-126.0","3CFVK00FWM7JPYSCPX6IWDRQJUBL6X","A2OWFJJ8YEKBF1","3I7KR83SNAZT1REYB2SRC49PCEEK9H","","559.3999999761581","img/land1.png","74","560.3999999761581","1","0","3","2","0.8,0.2,0.2,0.2,0.8,0.2,0.2,0.2,0.8","0.2,0.2,0.8,0.8,0.2,0.2,0.2,0.8,0.2","2","",""
"","html-keyboard-response","127","121610","0.0-127.0","3CFVK00FWM7JPYSCPX6IWDRQJUBL6X","A2OWFJJ8YEKBF1","3I7KR83SNAZT1REYB2SRC49PCEEK9H","","null","<img src=""img/land1.png"" style=""width:200px;border:14px solid red;"">","null","","","","","","","","","",""
"","image-keyboard-response","128","122723","0.0-128.0","3CFVK00FWM7JPYSCPX6IWDRQJUBL6X","A2OWFJJ8YEKBF1","3I7KR83SNAZT1REYB2SRC49PCEEK9H","","1113.1000000238419","img/land2.png","76","1113.7999999523163","3","1","1","2","0.8,0.2,0.2,0.2,0.8,0.2,0.2,0.2,0.8","0.2,0.2,0.8,0.8,0.2,0.2,0.2,0.8,0.2","2","",""
"","html-keyboard-response","129","123026","0.0-129.0","3CFVK00FWM7JPYSCPX6IWDRQJUBL6X","A2OWFJJ8YEKBF1","3I7KR83SNAZT1REYB2SRC49PCEEK9H","","null","<img src=""img/land2.png"" style=""width:200px; border:14px solid green;"">","null","","","","","","","","","",""
"","image-keyboard-response","130","123489","0.0-130.0","3CFVK00FWM7JPYSCPX6IWDRQJUBL6X","A2OWFJJ8YEKBF1","3I7KR83SNAZT1REYB2SRC49PCEEK9H","","461","img/land2.png","76","462.39999997615814","3","1","1","2","0.8,0.2,0.2,0.2,0.8,0.2,0.2,0.2,0.8","0.2,0.2,0.8,0.8,0.2,0.2,0.2,0.8,0.2","2","",""
"","html-keyboard-response","131","123792","0.0-131.0","3CFVK00FWM7JPYSCPX6IWDRQJUBL6X","A2OWFJJ8YEKBF1","3I7KR83SNAZT1REYB2SRC49PCEEK9H","","null","<img src=""img/land2.png"" style=""width:200px; border:14px solid green;"">","null","","","","","","","","","",""
"","image-keyboard-response","132","124166","0.0-132.0","3CFVK00FWM7JPYSCPX6IWDRQJUBL6X","A2OWFJJ8YEKBF1","3I7KR83SNAZT1REYB2SRC49PCEEK9H","","371.10000002384186","img/land2.png","76","372.5","3","1","1","2","0.8,0.2,0.2,0.2,0.8,0.2,0.2,0.2,0.8","0.2,0.2,0.8,0.8,0.2,0.2,0.2,0.8,0.2","2","",""
"","html-keyboard-response","133","124471","0.0-133.0","3CFVK00FWM7JPYSCPX6IWDRQJUBL6X","A2OWFJJ8YEKBF1","3I7KR83SNAZT1REYB2SRC49PCEEK9H","","null","<img src=""img/land2.png"" style=""width:200px; border:14px solid green;"">","null","","","","","","","","","",""
"","image-keyboard-response","134","124789","0.0-134.0","3CFVK00FWM7JPYSCPX6IWDRQJUBL6X","A2OWFJJ8YEKBF1","3I7KR83SNAZT1REYB2SRC49PCEEK9H","","316.2000000476837","img/land2.png","76","317.10000002384186","3","1","1","2","0.8,0.2,0.2,0.2,0.8,0.2,0.2,0.2,0.8","0.2,0.2,0.8,0.8,0.2,0.2,0.2,0.8,0.2","2","",""
"","html-keyboard-response","135","125092","0.0-135.0","3CFVK00FWM7JPYSCPX6IWDRQJUBL6X","A2OWFJJ8YEKBF1","3I7KR83SNAZT1REYB2SRC49PCEEK9H","","null","<img src=""img/land2.png"" style=""width:200px; border:14px solid green;"">","null","","","","","","","","","",""
"","image-keyboard-response","136","125745","0.0-136.0","3CFVK00FWM7JPYSCPX6IWDRQJUBL6X","A2OWFJJ8YEKBF1","3I7KR83SNAZT1REYB2SRC49PCEEK9H","","651.5","img/land6.png","74","652","1","1","2","2","0.8,0.2,0.2,0.2,0.8,0.2,0.2,0.2,0.8","0.2,0.2,0.8,0.8,0.2,0.2,0.2,0.8,0.2","2","",""
"","html-keyboard-response","137","126050","0.0-137.0","3CFVK00FWM7JPYSCPX6IWDRQJUBL6X","A2OWFJJ8YEKBF1","3I7KR83SNAZT1REYB2SRC49PCEEK9H","","null","<img src=""img/land6.png"" style=""width:200px; border:14px solid green;"">","null","","","","","","","","","",""
"","image-keyboard-response","138","126948","0.0-138.0","3CFVK00FWM7JPYSCPX6IWDRQJUBL6X","A2OWFJJ8YEKBF1","3I7KR83SNAZT1REYB2SRC49PCEEK9H","","896.6000000238419","img/land2.png","76","897.2999999523163","3","1","1","2","0.8,0.2,0.2,0.2,0.8,0.2,0.2,0.2,0.8","0.2,0.2,0.8,0.8,0.2,0.2,0.2,0.8,0.2","2","",""
"","html-keyboard-response","139","127250","0.0-139.0","3CFVK00FWM7JPYSCPX6IWDRQJUBL6X","A2OWFJJ8YEKBF1","3I7KR83SNAZT1REYB2SRC49PCEEK9H","","null","<img src=""img/land2.png"" style=""width:200px; border:14px solid green;"">","null","","","","","","","","","",""
"","image-keyboard-response","140","127593","0.0-140.0","3CFVK00FWM7JPYSCPX6IWDRQJUBL6X","A2OWFJJ8YEKBF1","3I7KR83SNAZT1REYB2SRC49PCEEK9H","","341","img/land2.png","76","342.2999999523163","3","0","1","2","0.8,0.2,0.2,0.2,0.8,0.2,0.2,0.2,0.8","0.2,0.2,0.8,0.8,0.2,0.2,0.2,0.8,0.2","2","",""
"","html-keyboard-response","141","127897","0.0-141.0","3CFVK00FWM7JPYSCPX6IWDRQJUBL6X","A2OWFJJ8YEKBF1","3I7KR83SNAZT1REYB2SRC49PCEEK9H","","null","<img src=""img/land2.png"" style=""width:200px;border:14px solid red;"">","null","","","","","","","","","",""
"","image-keyboard-response","142","128628","0.0-142.0","3CFVK00FWM7JPYSCPX6IWDRQJUBL6X","A2OWFJJ8YEKBF1","3I7KR83SNAZT1REYB2SRC49PCEEK9H","","729","img/land2.png","76","730.3999999761581","3","1","1","2","0.8,0.2,0.2,0.2,0.8,0.2,0.2,0.2,0.8","0.2,0.2,0.8,0.8,0.2,0.2,0.2,0.8,0.2","2","",""
"","html-keyboard-response","143","128930","0.0-143.0","3CFVK00FWM7JPYSCPX6IWDRQJUBL6X","A2OWFJJ8YEKBF1","3I7KR83SNAZT1REYB2SRC49PCEEK9H","","null","<img src=""img/land2.png"" style=""width:200px; border:14px solid green;"">","null","","","","","","","","","",""
"","image-keyboard-response","144","129621","0.0-144.0","3CFVK00FWM7JPYSCPX6IWDRQJUBL6X","A2OWFJJ8YEKBF1","3I7KR83SNAZT1REYB2SRC49PCEEK9H","","688.5999999046326","img/land1.png","74","690.3999999761581","1","0","3","2","0.8,0.2,0.2,0.2,0.8,0.2,0.2,0.2,0.8","0.2,0.2,0.8,0.8,0.2,0.2,0.2,0.8,0.2","2","",""
"","html-keyboard-response","145","129928","0.0-145.0","3CFVK00FWM7JPYSCPX6IWDRQJUBL6X","A2OWFJJ8YEKBF1","3I7KR83SNAZT1REYB2SRC49PCEEK9H","","null","<img src=""img/land1.png"" style=""width:200px;border:14px solid red;"">","null","","","","","","","","","",""
"","image-keyboard-response","146","130384","0.0-146.0","3CFVK00FWM7JPYSCPX6IWDRQJUBL6X","A2OWFJJ8YEKBF1","3I7KR83SNAZT1REYB2SRC49PCEEK9H","","454.1999999284744","img/land2.png","76","455.60000002384186","3","1","1","2","0.8,0.2,0.2,0.2,0.8,0.2,0.2,0.2,0.8","0.2,0.2,0.8,0.8,0.2,0.2,0.2,0.8,0.2","2","",""
"","html-keyboard-response","147","130689","0.0-147.0","3CFVK00FWM7JPYSCPX6IWDRQJUBL6X","A2OWFJJ8YEKBF1","3I7KR83SNAZT1REYB2SRC49PCEEK9H","","null","<img src=""img/land2.png"" style=""width:200px; border:14px solid green;"">","null","","","","","","","","","",""
"","image-keyboard-response","148","131114","0.0-148.0","3CFVK00FWM7JPYSCPX6IWDRQJUBL6X","A2OWFJJ8YEKBF1","3I7KR83SNAZT1REYB2SRC49PCEEK9H","","422.7000000476837","img/land2.png","76","424.1999999284744","3","1","1","2","0.8,0.2,0.2,0.2,0.8,0.2,0.2,0.2,0.8","0.2,0.2,0.8,0.8,0.2,0.2,0.2,0.8,0.2","2","",""
"","html-keyboard-response","149","131418","0.0-149.0","3CFVK00FWM7JPYSCPX6IWDRQJUBL6X","A2OWFJJ8YEKBF1","3I7KR83SNAZT1REYB2SRC49PCEEK9H","","null","<img src=""img/land2.png"" style=""width:200px; border:14px solid green;"">","null","","","","","","","","","",""
"","image-keyboard-response","150","131716","0.0-150.0","3CFVK00FWM7JPYSCPX6IWDRQJUBL6X","A2OWFJJ8YEKBF1","3I7KR83SNAZT1REYB2SRC49PCEEK9H","","297.2000000476837","img/land1.png","76","297.6999999284744","3","0","3","2","0.8,0.2,0.2,0.2,0.8,0.2,0.2,0.2,0.8","0.2,0.2,0.8,0.8,0.2,0.2,0.2,0.8,0.2","2","",""
"","html-keyboard-response","151","132018","0.0-151.0","3CFVK00FWM7JPYSCPX6IWDRQJUBL6X","A2OWFJJ8YEKBF1","3I7KR83SNAZT1REYB2SRC49PCEEK9H","","null","<img src=""img/land1.png"" style=""width:200px;border:14px solid red;"">","null","","","","","","","","","",""
"","image-keyboard-response","152","133298","0.0-152.0","3CFVK00FWM7JPYSCPX6IWDRQJUBL6X","A2OWFJJ8YEKBF1","3I7KR83SNAZT1REYB2SRC49PCEEK9H","","1277.2000000476837","img/land6.png","74","1278.7999999523163","1","0","2","2","0.8,0.2,0.2,0.2,0.8,0.2,0.2,0.2,0.8","0.2,0.2,0.8,0.8,0.2,0.2,0.2,0.8,0.2","2","",""
"","html-keyboard-response","153","133602","0.0-153.0","3CFVK00FWM7JPYSCPX6IWDRQJUBL6X","A2OWFJJ8YEKBF1","3I7KR83SNAZT1REYB2SRC49PCEEK9H","","null","<img src=""img/land6.png"" style=""width:200px;border:14px solid red;"">","null","","","","","","","","","",""
"","image-keyboard-response","154","134215","0.0-154.0","3CFVK00FWM7JPYSCPX6IWDRQJUBL6X","A2OWFJJ8YEKBF1","3I7KR83SNAZT1REYB2SRC49PCEEK9H","","613.2000000476837","img/land6.png","75","613.7999999523163","2","1","2","2","0.8,0.2,0.2,0.2,0.8,0.2,0.2,0.2,0.8","0.2,0.2,0.8,0.8,0.2,0.2,0.2,0.8,0.2","2","",""
"","html-keyboard-response","155","134519","0.0-155.0","3CFVK00FWM7JPYSCPX6IWDRQJUBL6X","A2OWFJJ8YEKBF1","3I7KR83SNAZT1REYB2SRC49PCEEK9H","","null","<img src=""img/land6.png"" style=""width:200px; border:14px solid green;"">","null","","","","","","","","","",""
"","image-keyboard-response","156","135620","0.0-156.0","3CFVK00FWM7JPYSCPX6IWDRQJUBL6X","A2OWFJJ8YEKBF1","3I7KR83SNAZT1REYB2SRC49PCEEK9H","","1099.8999999761581","img/land2.png","75","1100.3999999761581","2","0","1","2","0.8,0.2,0.2,0.2,0.8,0.2,0.2,0.2,0.8","0.2,0.2,0.8,0.8,0.2,0.2,0.2,0.8,0.2","2","",""
"","html-keyboard-response","157","135922","0.0-157.0","3CFVK00FWM7JPYSCPX6IWDRQJUBL6X","A2OWFJJ8YEKBF1","3I7KR83SNAZT1REYB2SRC49PCEEK9H","","null","<img src=""img/land2.png"" style=""width:200px;border:14px solid red;"">","null","","","","","","","","","",""
"","image-keyboard-response","158","136580","0.0-158.0","3CFVK00FWM7JPYSCPX6IWDRQJUBL6X","A2OWFJJ8YEKBF1","3I7KR83SNAZT1REYB2SRC49PCEEK9H","","657.6000000238419","img/land2.png","75","658.2999999523163","2","0","1","2","0.8,0.2,0.2,0.2,0.8,0.2,0.2,0.2,0.8","0.2,0.2,0.8,0.8,0.2,0.2,0.2,0.8,0.2","2","",""
"","html-keyboard-response","159","136888","0.0-159.0","3CFVK00FWM7JPYSCPX6IWDRQJUBL6X","A2OWFJJ8YEKBF1","3I7KR83SNAZT1REYB2SRC49PCEEK9H","","null","<img src=""img/land2.png"" style=""width:200px;border:14px solid red;"">","null","","","","","","","","","",""
"","image-keyboard-response","160","137338","0.0-160.0","3CFVK00FWM7JPYSCPX6IWDRQJUBL6X","A2OWFJJ8YEKBF1","3I7KR83SNAZT1REYB2SRC49PCEEK9H","","449","img/land2.png","76","449.90000009536743","3","1","1","2","0.8,0.2,0.2,0.2,0.8,0.2,0.2,0.2,0.8","0.2,0.2,0.8,0.8,0.2,0.2,0.2,0.8,0.2","2","",""
"","html-keyboard-response","161","137642","0.0-161.0","3CFVK00FWM7JPYSCPX6IWDRQJUBL6X","A2OWFJJ8YEKBF1","3I7KR83SNAZT1REYB2SRC49PCEEK9H","","null","<img src=""img/land2.png"" style=""width:200px; border:14px solid green;"">","null","","","","","","","","","",""
"","image-keyboard-response","162","138003","0.0-162.0","3CFVK00FWM7JPYSCPX6IWDRQJUBL6X","A2OWFJJ8YEKBF1","3I7KR83SNAZT1REYB2SRC49PCEEK9H","","359.89999997615814","img/land2.png","76","360.6999999284744","3","1","1","2","0.8,0.2,0.2,0.2,0.8,0.2,0.2,0.2,0.8","0.2,0.2,0.8,0.8,0.2,0.2,0.2,0.8,0.2","2","",""
"","html-keyboard-response","163","138304","0.0-163.0","3CFVK00FWM7JPYSCPX6IWDRQJUBL6X","A2OWFJJ8YEKBF1","3I7KR83SNAZT1REYB2SRC49PCEEK9H","","null","<img src=""img/land2.png"" style=""width:200px; border:14px solid green;"">","null","","","","","","","","","",""
"","image-keyboard-response","164","139189","0.0-164.0","3CFVK00FWM7JPYSCPX6IWDRQJUBL6X","A2OWFJJ8YEKBF1","3I7KR83SNAZT1REYB2SRC49PCEEK9H","","882.1000000238419","img/land1.png","74","883.4000000953674","1","0","3","2","0.8,0.2,0.2,0.2,0.8,0.2,0.2,0.2,0.8","0.2,0.2,0.8,0.8,0.2,0.2,0.2,0.8,0.2","2","",""
"","html-keyboard-response","165","139494","0.0-165.0","3CFVK00FWM7JPYSCPX6IWDRQJUBL6X","A2OWFJJ8YEKBF1","3I7KR83SNAZT1REYB2SRC49PCEEK9H","","null","<img src=""img/land1.png"" style=""width:200px;border:14px solid red;"">","null","","","","","","","","","",""
"","image-keyboard-response","166","139929","0.0-166.0","3CFVK00FWM7JPYSCPX6IWDRQJUBL6X","A2OWFJJ8YEKBF1","3I7KR83SNAZT1REYB2SRC49PCEEK9H","","434","img/land1.png","74","435.10000002384186","1","0","3","2","0.8,0.2,0.2,0.2,0.8,0.2,0.2,0.2,0.8","0.2,0.2,0.8,0.8,0.2,0.2,0.2,0.8,0.2","2","",""
"","html-keyboard-response","167","140233","0.0-167.0","3CFVK00FWM7JPYSCPX6IWDRQJUBL6X","A2OWFJJ8YEKBF1","3I7KR83SNAZT1REYB2SRC49PCEEK9H","","null","<img src=""img/land1.png"" style=""width:200px;border:14px solid red;"">","null","","","","","","","","","",""
"","image-keyboard-response","168","141333","0.0-168.0","3CFVK00FWM7JPYSCPX6IWDRQJUBL6X","A2OWFJJ8YEKBF1","3I7KR83SNAZT1REYB2SRC49PCEEK9H","","1098.1000000238419","img/land6.png","74","1099.2999999523163","1","1","2","2","0.8,0.2,0.2,0.2,0.8,0.2,0.2,0.2,0.8","0.2,0.2,0.8,0.8,0.2,0.2,0.2,0.8,0.2","2","",""
"","html-keyboard-response","169","141636","0.0-169.0","3CFVK00FWM7JPYSCPX6IWDRQJUBL6X","A2OWFJJ8YEKBF1","3I7KR83SNAZT1REYB2SRC49PCEEK9H","","null","<img src=""img/land6.png"" style=""width:200px; border:14px solid green;"">","null","","","","","","","","","",""
"","image-keyboard-response","170","142542","0.0-170.0","3CFVK00FWM7JPYSCPX6IWDRQJUBL6X","A2OWFJJ8YEKBF1","3I7KR83SNAZT1REYB2SRC49PCEEK9H","","905.5999999046326","img/land6.png","74","906.2000000476837","1","0","2","2","0.8,0.2,0.2,0.2,0.8,0.2,0.2,0.2,0.8","0.2,0.2,0.8,0.8,0.2,0.2,0.2,0.8,0.2","2","",""
"","html-keyboard-response","171","142843","0.0-171.0","3CFVK00FWM7JPYSCPX6IWDRQJUBL6X","A2OWFJJ8YEKBF1","3I7KR83SNAZT1REYB2SRC49PCEEK9H","","null","<img src=""img/land6.png"" style=""width:200px;border:14px solid red;"">","null","","","","","","","","","",""
"","image-keyboard-response","172","143596","0.0-172.0","3CFVK00FWM7JPYSCPX6IWDRQJUBL6X","A2OWFJJ8YEKBF1","3I7KR83SNAZT1REYB2SRC49PCEEK9H","","752.5","img/land1.png","75","753","2","1","3","2","0.8,0.2,0.2,0.2,0.8,0.2,0.2,0.2,0.8","0.2,0.2,0.8,0.8,0.2,0.2,0.2,0.8,0.2","2","",""
"","html-keyboard-response","173","143900","0.0-173.0","3CFVK00FWM7JPYSCPX6IWDRQJUBL6X","A2OWFJJ8YEKBF1","3I7KR83SNAZT1REYB2SRC49PCEEK9H","","null","<img src=""img/land1.png"" style=""width:200px; border:14px solid green;"">","null","","","","","","","","","",""
"","image-keyboard-response","174","144750","0.0-174.0","3CFVK00FWM7JPYSCPX6IWDRQJUBL6X","A2OWFJJ8YEKBF1","3I7KR83SNAZT1REYB2SRC49PCEEK9H","","847.7999999523163","img/land2.png","75","849.6999999284744","2","0","1","2","0.8,0.2,0.2,0.2,0.8,0.2,0.2,0.2,0.8","0.2,0.2,0.8,0.8,0.2,0.2,0.2,0.8,0.2","2","",""
"","html-keyboard-response","175","145055","0.0-175.0","3CFVK00FWM7JPYSCPX6IWDRQJUBL6X","A2OWFJJ8YEKBF1","3I7KR83SNAZT1REYB2SRC49PCEEK9H","","null","<img src=""img/land2.png"" style=""width:200px;border:14px solid red;"">","null","","","","","","","","","",""
"","image-keyboard-response","176","146707","0.0-176.0","3CFVK00FWM7JPYSCPX6IWDRQJUBL6X","A2OWFJJ8YEKBF1","3I7KR83SNAZT1REYB2SRC49PCEEK9H","","1650.1000000238419","img/land2.png","74","1651.2999999523163","1","1","1","2","0.8,0.2,0.2,0.2,0.8,0.2,0.2,0.2,0.8","0.2,0.2,0.8,0.8,0.2,0.2,0.2,0.8,0.2","2","",""
"","html-keyboard-response","177","147011","0.0-177.0","3CFVK00FWM7JPYSCPX6IWDRQJUBL6X","A2OWFJJ8YEKBF1","3I7KR83SNAZT1REYB2SRC49PCEEK9H","","null","<img src=""img/land2.png"" style=""width:200px; border:14px solid green;"">","null","","","","","","","","","",""
"","image-keyboard-response","178","147497","0.0-178.0","3CFVK00FWM7JPYSCPX6IWDRQJUBL6X","A2OWFJJ8YEKBF1","3I7KR83SNAZT1REYB2SRC49PCEEK9H","","485.5","img/land2.png","75","486.09999990463257","2","0","1","2","0.8,0.2,0.2,0.2,0.8,0.2,0.2,0.2,0.8","0.2,0.2,0.8,0.8,0.2,0.2,0.2,0.8,0.2","2","",""
"","html-keyboard-response","179","147800","0.0-179.0","3CFVK00FWM7JPYSCPX6IWDRQJUBL6X","A2OWFJJ8YEKBF1","3I7KR83SNAZT1REYB2SRC49PCEEK9H","","null","<img src=""img/land2.png"" style=""width:200px;border:14px solid red;"">","null","","","","","","","","","",""
"","image-keyboard-response","180","149334","0.0-180.0","3CFVK00FWM7JPYSCPX6IWDRQJUBL6X","A2OWFJJ8YEKBF1","3I7KR83SNAZT1REYB2SRC49PCEEK9H","","1532.7000000476837","img/land6.png","74","1533.1999999284744","1","1","2","2","0.8,0.2,0.2,0.2,0.8,0.2,0.2,0.2,0.8","0.2,0.2,0.8,0.8,0.2,0.2,0.2,0.8,0.2","2","",""
"","html-keyboard-response","181","149635","0.0-181.0","3CFVK00FWM7JPYSCPX6IWDRQJUBL6X","A2OWFJJ8YEKBF1","3I7KR83SNAZT1REYB2SRC49PCEEK9H","","null","<img src=""img/land6.png"" style=""width:200px; border:14px solid green;"">","null","","","","","","","","","",""
"","image-keyboard-response","182","150478","0.0-182.0","3CFVK00FWM7JPYSCPX6IWDRQJUBL6X","A2OWFJJ8YEKBF1","3I7KR83SNAZT1REYB2SRC49PCEEK9H","","841.6000000238419","img/land2.png","74","842.2999999523163","1","0","1","2","0.8,0.2,0.2,0.2,0.8,0.2,0.2,0.2,0.8","0.2,0.2,0.8,0.8,0.2,0.2,0.2,0.8,0.2","2","",""
"","html-keyboard-response","183","150779","0.0-183.0","3CFVK00FWM7JPYSCPX6IWDRQJUBL6X","A2OWFJJ8YEKBF1","3I7KR83SNAZT1REYB2SRC49PCEEK9H","","null","<img src=""img/land2.png"" style=""width:200px;border:14px solid red;"">","null","","","","","","","","","",""
"","image-keyboard-response","184","152587","0.0-184.0","3CFVK00FWM7JPYSCPX6IWDRQJUBL6X","A2OWFJJ8YEKBF1","3I7KR83SNAZT1REYB2SRC49PCEEK9H","","1806.6000000238419","img/land2.png","74","1807.8000000715256","1","0","1","2","0.8,0.2,0.2,0.2,0.8,0.2,0.2,0.2,0.8","0.2,0.2,0.8,0.8,0.2,0.2,0.2,0.8,0.2","2","",""
"","html-keyboard-response","185","152890","0.0-185.0","3CFVK00FWM7JPYSCPX6IWDRQJUBL6X","A2OWFJJ8YEKBF1","3I7KR83SNAZT1REYB2SRC49PCEEK9H","","null","<img src=""img/land2.png"" style=""width:200px;border:14px solid red;"">","null","","","","","","","","","",""
"","image-keyboard-response","186","153615","0.0-186.0","3CFVK00FWM7JPYSCPX6IWDRQJUBL6X","A2OWFJJ8YEKBF1","3I7KR83SNAZT1REYB2SRC49PCEEK9H","","724.0999999046326","img/land1.png","74","724.7000000476837","1","0","3","2","0.8,0.2,0.2,0.2,0.8,0.2,0.2,0.2,0.8","0.2,0.2,0.8,0.8,0.2,0.2,0.2,0.8,0.2","2","",""
"","html-keyboard-response","187","153919","0.0-187.0","3CFVK00FWM7JPYSCPX6IWDRQJUBL6X","A2OWFJJ8YEKBF1","3I7KR83SNAZT1REYB2SRC49PCEEK9H","","null","<img src=""img/land1.png"" style=""width:200px;border:14px solid red;"">","null","","","","","","","","","",""
"","image-keyboard-response","188","154842","0.0-188.0","3CFVK00FWM7JPYSCPX6IWDRQJUBL6X","A2OWFJJ8YEKBF1","3I7KR83SNAZT1REYB2SRC49PCEEK9H","","921.1999999284744","img/land6.png","76","922.8999999761581","3","0","2","2","0.8,0.2,0.2,0.2,0.8,0.2,0.2,0.2,0.8","0.2,0.2,0.8,0.8,0.2,0.2,0.2,0.8,0.2","2","",""
"","html-keyboard-response","189","155149","0.0-189.0","3CFVK00FWM7JPYSCPX6IWDRQJUBL6X","A2OWFJJ8YEKBF1","3I7KR83SNAZT1REYB2SRC49PCEEK9H","","null","<img src=""img/land6.png"" style=""width:200px;border:14px solid red;"">","null","","","","","","","","","",""
"","image-keyboard-response","190","156098","0.0-190.0","3CFVK00FWM7JPYSCPX6IWDRQJUBL6X","A2OWFJJ8YEKBF1","3I7KR83SNAZT1REYB2SRC49PCEEK9H","","948.0999999046326","img/land1.png","74","948.6000000238419","1","0","3","2","0.8,0.2,0.2,0.2,0.8,0.2,0.2,0.2,0.8","0.2,0.2,0.8,0.8,0.2,0.2,0.2,0.8,0.2","2","",""
"","html-keyboard-response","191","156403","0.0-191.0","3CFVK00FWM7JPYSCPX6IWDRQJUBL6X","A2OWFJJ8YEKBF1","3I7KR83SNAZT1REYB2SRC49PCEEK9H","","null","<img src=""img/land1.png"" style=""width:200px;border:14px solid red;"">","null","","","","","","","","","",""
"","image-keyboard-response","192","156897","0.0-192.0","3CFVK00FWM7JPYSCPX6IWDRQJUBL6X","A2OWFJJ8YEKBF1","3I7KR83SNAZT1REYB2SRC49PCEEK9H","","492.7999999523163","img/land1.png","74","493.60000002384186","1","0","3","2","0.8,0.2,0.2,0.2,0.8,0.2,0.2,0.2,0.8","0.2,0.2,0.8,0.8,0.2,0.2,0.2,0.8,0.2","2","",""
"","html-keyboard-response","193","157201","0.0-193.0","3CFVK00FWM7JPYSCPX6IWDRQJUBL6X","A2OWFJJ8YEKBF1","3I7KR83SNAZT1REYB2SRC49PCEEK9H","","null","<img src=""img/land1.png"" style=""width:200px;border:14px solid red;"">","null","","","","","","","","","",""
"","image-keyboard-response","194","158418","0.0-194.0","3CFVK00FWM7JPYSCPX6IWDRQJUBL6X","A2OWFJJ8YEKBF1","3I7KR83SNAZT1REYB2SRC49PCEEK9H","","1215.8999999761581","img/land2.png","75","1217.0999999046326","2","0","1","2","0.8,0.2,0.2,0.2,0.8,0.2,0.2,0.2,0.8","0.2,0.2,0.8,0.8,0.2,0.2,0.2,0.8,0.2","2","",""
"","html-keyboard-response","195","158720","0.0-195.0","3CFVK00FWM7JPYSCPX6IWDRQJUBL6X","A2OWFJJ8YEKBF1","3I7KR83SNAZT1REYB2SRC49PCEEK9H","","null","<img src=""img/land2.png"" style=""width:200px;border:14px solid red;"">","null","","","","","","","","","",""
"","image-keyboard-response","196","159951","0.0-196.0","3CFVK00FWM7JPYSCPX6IWDRQJUBL6X","A2OWFJJ8YEKBF1","3I7KR83SNAZT1REYB2SRC49PCEEK9H","","1229.6000000238419","img/land2.png","74","1230.5","1","0","1","2","0.8,0.2,0.2,0.2,0.8,0.2,0.2,0.2,0.8","0.2,0.2,0.8,0.8,0.2,0.2,0.2,0.8,0.2","2","",""
"","html-keyboard-response","197","160257","0.0-197.0","3CFVK00FWM7JPYSCPX6IWDRQJUBL6X","A2OWFJJ8YEKBF1","3I7KR83SNAZT1REYB2SRC49PCEEK9H","","null","<img src=""img/land2.png"" style=""width:200px;border:14px solid red;"">","null","","","","","","","","","",""
"","image-keyboard-response","198","160572","0.0-198.0","3CFVK00FWM7JPYSCPX6IWDRQJUBL6X","A2OWFJJ8YEKBF1","3I7KR83SNAZT1REYB2SRC49PCEEK9H","","314.40000009536743","img/land1.png","76","315","3","0","3","2","0.8,0.2,0.2,0.2,0.8,0.2,0.2,0.2,0.8","0.2,0.2,0.8,0.8,0.2,0.2,0.2,0.8,0.2","2","",""
"","html-keyboard-response","199","160879","0.0-199.0","3CFVK00FWM7JPYSCPX6IWDRQJUBL6X","A2OWFJJ8YEKBF1","3I7KR83SNAZT1REYB2SRC49PCEEK9H","","null","<img src=""img/land1.png"" style=""width:200px;border:14px solid red;"">","null","","","","","","","","","",""
"","image-keyboard-response","200","162328","0.0-200.0","3CFVK00FWM7JPYSCPX6IWDRQJUBL6X","A2OWFJJ8YEKBF1","3I7KR83SNAZT1REYB2SRC49PCEEK9H","","1446","img/land6.png","76","1448","3","0","2","2","0.8,0.2,0.2,0.2,0.8,0.2,0.2,0.2,0.8","0.2,0.2,0.8,0.8,0.2,0.2,0.2,0.8,0.2","2","",""
"","html-keyboard-response","201","162632","0.0-201.0","3CFVK00FWM7JPYSCPX6IWDRQJUBL6X","A2OWFJJ8YEKBF1","3I7KR83SNAZT1REYB2SRC49PCEEK9H","","null","<img src=""img/land6.png"" style=""width:200px;border:14px solid red;"">","null","","","","","","","","","",""
"","image-keyboard-response","202","163587","0.0-202.0","3CFVK00FWM7JPYSCPX6IWDRQJUBL6X","A2OWFJJ8YEKBF1","3I7KR83SNAZT1REYB2SRC49PCEEK9H","","952.5","img/land2.png","75","953.8999999761581","2","1","1","2","0.8,0.2,0.2,0.2,0.8,0.2,0.2,0.2,0.8","0.2,0.2,0.8,0.8,0.2,0.2,0.2,0.8,0.2","2","",""
"","html-keyboard-response","203","163891","0.0-203.0","3CFVK00FWM7JPYSCPX6IWDRQJUBL6X","A2OWFJJ8YEKBF1","3I7KR83SNAZT1REYB2SRC49PCEEK9H","","null","<img src=""img/land2.png"" style=""width:200px; border:14px solid green;"">","null","","","","","","","","","",""
"","image-keyboard-response","204","165048","0.0-204.0","3CFVK00FWM7JPYSCPX6IWDRQJUBL6X","A2OWFJJ8YEKBF1","3I7KR83SNAZT1REYB2SRC49PCEEK9H","","1155.7999999523163","img/land1.png","76","1157","3","0","3","2","0.8,0.2,0.2,0.2,0.8,0.2,0.2,0.2,0.8","0.2,0.2,0.8,0.8,0.2,0.2,0.2,0.8,0.2","2","",""
"","html-keyboard-response","205","165352","0.0-205.0","3CFVK00FWM7JPYSCPX6IWDRQJUBL6X","A2OWFJJ8YEKBF1","3I7KR83SNAZT1REYB2SRC49PCEEK9H","","null","<img src=""img/land1.png"" style=""width:200px;border:14px solid red;"">","null","","","","","","","","","",""
"","image-keyboard-response","206","166416","0.0-206.0","3CFVK00FWM7JPYSCPX6IWDRQJUBL6X","A2OWFJJ8YEKBF1","3I7KR83SNAZT1REYB2SRC49PCEEK9H","","1062.8000000715256","img/land2.png","75","1063.3999999761581","2","0","1","2","0.8,0.2,0.2,0.2,0.8,0.2,0.2,0.2,0.8","0.2,0.2,0.8,0.8,0.2,0.2,0.2,0.8,0.2","2","",""
"","html-keyboard-response","207","166719","0.0-207.0","3CFVK00FWM7JPYSCPX6IWDRQJUBL6X","A2OWFJJ8YEKBF1","3I7KR83SNAZT1REYB2SRC49PCEEK9H","","null","<img src=""img/land2.png"" style=""width:200px;border:14px solid red;"">","null","","","","","","","","","",""
"","image-keyboard-response","208","167149","0.0-208.0","3CFVK00FWM7JPYSCPX6IWDRQJUBL6X","A2OWFJJ8YEKBF1","3I7KR83SNAZT1REYB2SRC49PCEEK9H","","427.7999999523163","img/land2.png","75","429.2000000476837","2","0","1","2","0.8,0.2,0.2,0.2,0.8,0.2,0.2,0.2,0.8","0.2,0.2,0.8,0.8,0.2,0.2,0.2,0.8,0.2","2","",""
"","html-keyboard-response","209","167455","0.0-209.0","3CFVK00FWM7JPYSCPX6IWDRQJUBL6X","A2OWFJJ8YEKBF1","3I7KR83SNAZT1REYB2SRC49PCEEK9H","","null","<img src=""img/land2.png"" style=""width:200px;border:14px solid red;"">","null","","","","","","","","","",""
"","image-keyboard-response","210","167669","0.0-210.0","3CFVK00FWM7JPYSCPX6IWDRQJUBL6X","A2OWFJJ8YEKBF1","3I7KR83SNAZT1REYB2SRC49PCEEK9H","","213.20000004768372","img/land2.png","75","213.89999997615814","2","0","1","2","0.8,0.2,0.2,0.2,0.8,0.2,0.2,0.2,0.8","0.2,0.2,0.8,0.8,0.2,0.2,0.2,0.8,0.2","2","",""
"","html-keyboard-response","211","167972","0.0-211.0","3CFVK00FWM7JPYSCPX6IWDRQJUBL6X","A2OWFJJ8YEKBF1","3I7KR83SNAZT1REYB2SRC49PCEEK9H","","null","<img src=""img/land2.png"" style=""width:200px;border:14px solid red;"">","null","","","","","","","","","",""
"","image-keyboard-response","212","168028","0.0-212.0","3CFVK00FWM7JPYSCPX6IWDRQJUBL6X","A2OWFJJ8YEKBF1","3I7KR83SNAZT1REYB2SRC49PCEEK9H","","55.300000071525574","img/land2.png","75","55.699999928474426","2","0","1","2","0.8,0.2,0.2,0.2,0.8,0.2,0.2,0.2,0.8","0.2,0.2,0.8,0.8,0.2,0.2,0.2,0.8,0.2","2","",""
"","html-keyboard-response","213","168332","0.0-213.0","3CFVK00FWM7JPYSCPX6IWDRQJUBL6X","A2OWFJJ8YEKBF1","3I7KR83SNAZT1REYB2SRC49PCEEK9H","","null","<img src=""img/land2.png"" style=""width:200px;border:14px solid red;"">","null","","","","","","","","","",""
"","image-keyboard-response","214","169576","0.0-214.0","3CFVK00FWM7JPYSCPX6IWDRQJUBL6X","A2OWFJJ8YEKBF1","3I7KR83SNAZT1REYB2SRC49PCEEK9H","","1242","img/land6.png","76","1243.1000000238419","3","0","2","2","0.8,0.2,0.2,0.2,0.8,0.2,0.2,0.2,0.8","0.2,0.2,0.8,0.8,0.2,0.2,0.2,0.8,0.2","2","",""
"","html-keyboard-response","215","169880","0.0-215.0","3CFVK00FWM7JPYSCPX6IWDRQJUBL6X","A2OWFJJ8YEKBF1","3I7KR83SNAZT1REYB2SRC49PCEEK9H","","null","<img src=""img/land6.png"" style=""width:200px;border:14px solid red;"">","null","","","","","","","","","",""
"","image-keyboard-response","216","171012","0.0-216.0","3CFVK00FWM7JPYSCPX6IWDRQJUBL6X","A2OWFJJ8YEKBF1","3I7KR83SNAZT1REYB2SRC49PCEEK9H","","1129.2999999523163","img/land2.png","75","1131.3000000715256","2","1","1","2","0.8,0.2,0.2,0.2,0.8,0.2,0.2,0.2,0.8","0.2,0.2,0.8,0.8,0.2,0.2,0.2,0.8,0.2","2","",""
"","html-keyboard-response","217","171315","0.0-217.0","3CFVK00FWM7JPYSCPX6IWDRQJUBL6X","A2OWFJJ8YEKBF1","3I7KR83SNAZT1REYB2SRC49PCEEK9H","","null","<img src=""img/land2.png"" style=""width:200px; border:14px solid green;"">","null","","","","","","","","","",""
"","image-keyboard-response","218","171761","0.0-218.0","3CFVK00FWM7JPYSCPX6IWDRQJUBL6X","A2OWFJJ8YEKBF1","3I7KR83SNAZT1REYB2SRC49PCEEK9H","","444.89999997615814","img/land2.png","76","445.7999999523163","3","0","1","2","0.8,0.2,0.2,0.2,0.8,0.2,0.2,0.2,0.8","0.2,0.2,0.8,0.8,0.2,0.2,0.2,0.8,0.2","2","",""
"","html-keyboard-response","219","172064","0.0-219.0","3CFVK00FWM7JPYSCPX6IWDRQJUBL6X","A2OWFJJ8YEKBF1","3I7KR83SNAZT1REYB2SRC49PCEEK9H","","null","<img src=""img/land2.png"" style=""width:200px;border:14px solid red;"">","null","","","","","","","","","",""
"","image-keyboard-response","220","172402","0.0-220.0","3CFVK00FWM7JPYSCPX6IWDRQJUBL6X","A2OWFJJ8YEKBF1","3I7KR83SNAZT1REYB2SRC49PCEEK9H","","337.39999997615814","img/land2.png","75","338.09999990463257","2","0","1","2","0.8,0.2,0.2,0.2,0.8,0.2,0.2,0.2,0.8","0.2,0.2,0.8,0.8,0.2,0.2,0.2,0.8,0.2","2","",""
"","html-keyboard-response","221","172703","0.0-221.0","3CFVK00FWM7JPYSCPX6IWDRQJUBL6X","A2OWFJJ8YEKBF1","3I7KR83SNAZT1REYB2SRC49PCEEK9H","","null","<img src=""img/land2.png"" style=""width:200px;border:14px solid red;"">","null","","","","","","","","","",""
"","image-keyboard-response","222","173123","0.0-222.0","3CFVK00FWM7JPYSCPX6IWDRQJUBL6X","A2OWFJJ8YEKBF1","3I7KR83SNAZT1REYB2SRC49PCEEK9H","","418","img/land6.png","75","419.40000009536743","2","0","2","2","0.8,0.2,0.2,0.2,0.8,0.2,0.2,0.2,0.8","0.2,0.2,0.8,0.8,0.2,0.2,0.2,0.8,0.2","2","",""
"","html-keyboard-response","223","173429","0.0-223.0","3CFVK00FWM7JPYSCPX6IWDRQJUBL6X","A2OWFJJ8YEKBF1","3I7KR83SNAZT1REYB2SRC49PCEEK9H","","null","<img src=""img/land6.png"" style=""width:200px;border:14px solid red;"">","null","","","","","","","","","",""
"","image-keyboard-response","224","173965","0.0-224.0","3CFVK00FWM7JPYSCPX6IWDRQJUBL6X","A2OWFJJ8YEKBF1","3I7KR83SNAZT1REYB2SRC49PCEEK9H","","534.1999999284744","img/land6.png","76","535.7000000476837","3","1","2","2","0.8,0.2,0.2,0.2,0.8,0.2,0.2,0.2,0.8","0.2,0.2,0.8,0.8,0.2,0.2,0.2,0.8,0.2","2","",""
"","html-keyboard-response","225","174270","0.0-225.0","3CFVK00FWM7JPYSCPX6IWDRQJUBL6X","A2OWFJJ8YEKBF1","3I7KR83SNAZT1REYB2SRC49PCEEK9H","","null","<img src=""img/land6.png"" style=""width:200px; border:14px solid green;"">","null","","","","","","","","","",""
"","image-keyboard-response","226","174619","0.0-226.0","3CFVK00FWM7JPYSCPX6IWDRQJUBL6X","A2OWFJJ8YEKBF1","3I7KR83SNAZT1REYB2SRC49PCEEK9H","","346.60000002384186","img/land6.png","76","348","3","0","2","2","0.8,0.2,0.2,0.2,0.8,0.2,0.2,0.2,0.8","0.2,0.2,0.8,0.8,0.2,0.2,0.2,0.8,0.2","2","",""
"","html-keyboard-response","227","174927","0.0-227.0","3CFVK00FWM7JPYSCPX6IWDRQJUBL6X","A2OWFJJ8YEKBF1","3I7KR83SNAZT1REYB2SRC49PCEEK9H","","null","<img src=""img/land6.png"" style=""width:200px;border:14px solid red;"">","null","","","","","","","","","",""
"","image-keyboard-response","228","175192","0.0-228.0","3CFVK00FWM7JPYSCPX6IWDRQJUBL6X","A2OWFJJ8YEKBF1","3I7KR83SNAZT1REYB2SRC49PCEEK9H","","262.7000000476837","img/land2.png","76","264.60000002384186","3","1","1","2","0.8,0.2,0.2,0.2,0.8,0.2,0.2,0.2,0.8","0.2,0.2,0.8,0.8,0.2,0.2,0.2,0.8,0.2","2","",""
"","html-keyboard-response","229","175495","0.0-229.0","3CFVK00FWM7JPYSCPX6IWDRQJUBL6X","A2OWFJJ8YEKBF1","3I7KR83SNAZT1REYB2SRC49PCEEK9H","","null","<img src=""img/land2.png"" style=""width:200px; border:14px solid green;"">","null","","","","","","","","","",""
"","image-keyboard-response","230","175762","0.0-230.0","3CFVK00FWM7JPYSCPX6IWDRQJUBL6X","A2OWFJJ8YEKBF1","3I7KR83SNAZT1REYB2SRC49PCEEK9H","","266.5","img/land2.png","75","267.5","2","0","1","2","0.8,0.2,0.2,0.2,0.8,0.2,0.2,0.2,0.8","0.2,0.2,0.8,0.8,0.2,0.2,0.2,0.8,0.2","2","",""
"","html-keyboard-response","231","176064","0.0-231.0","3CFVK00FWM7JPYSCPX6IWDRQJUBL6X","A2OWFJJ8YEKBF1","3I7KR83SNAZT1REYB2SRC49PCEEK9H","","null","<img src=""img/land2.png"" style=""width:200px;border:14px solid red;"">","null","","","","","","","","","",""
"","image-keyboard-response","232","177022","0.0-232.0","3CFVK00FWM7JPYSCPX6IWDRQJUBL6X","A2OWFJJ8YEKBF1","3I7KR83SNAZT1REYB2SRC49PCEEK9H","","955.2000000476837","img/land1.png","74","957.2000000476837","1","0","3","2","0.8,0.2,0.2,0.2,0.8,0.2,0.2,0.2,0.8","0.2,0.2,0.8,0.8,0.2,0.2,0.2,0.8,0.2","2","",""
"","html-keyboard-response","233","177324","0.0-233.0","3CFVK00FWM7JPYSCPX6IWDRQJUBL6X","A2OWFJJ8YEKBF1","3I7KR83SNAZT1REYB2SRC49PCEEK9H","","null","<img src=""img/land1.png"" style=""width:200px;border:14px solid red;"">","null","","","","","","","","","",""
"","image-keyboard-response","234","178098","0.0-234.0","3CFVK00FWM7JPYSCPX6IWDRQJUBL6X","A2OWFJJ8YEKBF1","3I7KR83SNAZT1REYB2SRC49PCEEK9H","","773.3999999761581","img/land2.png","75","774.1000000238419","2","0","1","2","0.8,0.2,0.2,0.2,0.8,0.2,0.2,0.2,0.8","0.2,0.2,0.8,0.8,0.2,0.2,0.2,0.8,0.2","2","",""
"","html-keyboard-response","235","178403","0.0-235.0","3CFVK00FWM7JPYSCPX6IWDRQJUBL6X","A2OWFJJ8YEKBF1","3I7KR83SNAZT1REYB2SRC49PCEEK9H","","null","<img src=""img/land2.png"" style=""width:200px;border:14px solid red;"">","null","","","","","","","","","",""
"","image-keyboard-response","236","178821","0.0-236.0","3CFVK00FWM7JPYSCPX6IWDRQJUBL6X","A2OWFJJ8YEKBF1","3I7KR83SNAZT1REYB2SRC49PCEEK9H","","416.7999999523163","img/land2.png","75","417.5","2","0","1","2","0.8,0.2,0.2,0.2,0.8,0.2,0.2,0.2,0.8","0.2,0.2,0.8,0.8,0.2,0.2,0.2,0.8,0.2","2","",""
"","html-keyboard-response","237","179123","0.0-237.0","3CFVK00FWM7JPYSCPX6IWDRQJUBL6X","A2OWFJJ8YEKBF1","3I7KR83SNAZT1REYB2SRC49PCEEK9H","","null","<img src=""img/land2.png"" style=""width:200px;border:14px solid red;"">","null","","","","","","","","","",""
"","image-keyboard-response","238","179277","0.0-238.0","3CFVK00FWM7JPYSCPX6IWDRQJUBL6X","A2OWFJJ8YEKBF1","3I7KR83SNAZT1REYB2SRC49PCEEK9H","","151.5","img/land2.png","75","153.19999992847443","2","0","1","2","0.8,0.2,0.2,0.2,0.8,0.2,0.2,0.2,0.8","0.2,0.2,0.8,0.8,0.2,0.2,0.2,0.8,0.2","2","",""
"","html-keyboard-response","239","179581","0.0-239.0","3CFVK00FWM7JPYSCPX6IWDRQJUBL6X","A2OWFJJ8YEKBF1","3I7KR83SNAZT1REYB2SRC49PCEEK9H","","null","<img src=""img/land2.png"" style=""width:200px;border:14px solid red;"">","null","","","","","","","","","",""
"","image-keyboard-response","240","180045","0.0-240.0","3CFVK00FWM7JPYSCPX6IWDRQJUBL6X","A2OWFJJ8YEKBF1","3I7KR83SNAZT1REYB2SRC49PCEEK9H","","463.10000002384186","img/land2.png","75","463.89999997615814","2","0","1","2","0.8,0.2,0.2,0.2,0.8,0.2,0.2,0.2,0.8","0.2,0.2,0.8,0.8,0.2,0.2,0.2,0.8,0.2","2","",""
"","html-keyboard-response","241","180348","0.0-241.0","3CFVK00FWM7JPYSCPX6IWDRQJUBL6X","A2OWFJJ8YEKBF1","3I7KR83SNAZT1REYB2SRC49PCEEK9H","","null","<img src=""img/land2.png"" style=""width:200px;border:14px solid red;"">","null","","","","","","","","","",""
"","image-keyboard-response","242","180680","0.0-242.0","3CFVK00FWM7JPYSCPX6IWDRQJUBL6X","A2OWFJJ8YEKBF1","3I7KR83SNAZT1REYB2SRC49PCEEK9H","","331.09999990463257","img/land6.png","75","331.89999997615814","2","0","2","2","0.8,0.2,0.2,0.2,0.8,0.2,0.2,0.2,0.8","0.2,0.2,0.8,0.8,0.2,0.2,0.2,0.8,0.2","2","",""
"","html-keyboard-response","243","180983","0.0-243.0","3CFVK00FWM7JPYSCPX6IWDRQJUBL6X","A2OWFJJ8YEKBF1","3I7KR83SNAZT1REYB2SRC49PCEEK9H","","null","<img src=""img/land6.png"" style=""width:200px;border:14px solid red;"">","null","","","","","","","","","",""
"","image-keyboard-response","244","181889","0.0-244.0","3CFVK00FWM7JPYSCPX6IWDRQJUBL6X","A2OWFJJ8YEKBF1","3I7KR83SNAZT1REYB2SRC49PCEEK9H","","903","img/land1.png","74","904.7999999523163","1","0","3","2","0.8,0.2,0.2,0.2,0.8,0.2,0.2,0.2,0.8","0.2,0.2,0.8,0.8,0.2,0.2,0.2,0.8,0.2","2","",""
"","html-keyboard-response","245","182193","0.0-245.0","3CFVK00FWM7JPYSCPX6IWDRQJUBL6X","A2OWFJJ8YEKBF1","3I7KR83SNAZT1REYB2SRC49PCEEK9H","","null","<img src=""img/land1.png"" style=""width:200px;border:14px solid red;"">","null","","","","","","","","","",""
"","image-keyboard-response","246","183283","0.0-246.0","3CFVK00FWM7JPYSCPX6IWDRQJUBL6X","A2OWFJJ8YEKBF1","3I7KR83SNAZT1REYB2SRC49PCEEK9H","","1089.0999999046326","img/land2.png","75","1090","2","0","1","2","0.8,0.2,0.2,0.2,0.8,0.2,0.2,0.2,0.8","0.2,0.2,0.8,0.8,0.2,0.2,0.2,0.8,0.2","2","",""
"","html-keyboard-response","247","183587","0.0-247.0","3CFVK00FWM7JPYSCPX6IWDRQJUBL6X","A2OWFJJ8YEKBF1","3I7KR83SNAZT1REYB2SRC49PCEEK9H","","null","<img src=""img/land2.png"" style=""width:200px;border:14px solid red;"">","null","","","","","","","","","",""
"","image-keyboard-response","248","184490","0.0-248.0","3CFVK00FWM7JPYSCPX6IWDRQJUBL6X","A2OWFJJ8YEKBF1","3I7KR83SNAZT1REYB2SRC49PCEEK9H","","900.5","img/land1.png","76","902.1000000238419","3","1","3","2","0.8,0.2,0.2,0.2,0.8,0.2,0.2,0.2,0.8","0.2,0.2,0.8,0.8,0.2,0.2,0.2,0.8,0.2","2","",""
"","html-keyboard-response","249","184794","0.0-249.0","3CFVK00FWM7JPYSCPX6IWDRQJUBL6X","A2OWFJJ8YEKBF1","3I7KR83SNAZT1REYB2SRC49PCEEK9H","","null","<img src=""img/land1.png"" style=""width:200px; border:14px solid green;"">","null","","","","","","","","","",""
"","image-keyboard-response","250","185332","0.0-250.0","3CFVK00FWM7JPYSCPX6IWDRQJUBL6X","A2OWFJJ8YEKBF1","3I7KR83SNAZT1REYB2SRC49PCEEK9H","","537.3999999761581","img/land1.png","76","538.1000000238419","3","0","3","2","0.8,0.2,0.2,0.2,0.8,0.2,0.2,0.2,0.8","0.2,0.2,0.8,0.8,0.2,0.2,0.2,0.8,0.2","2","",""
"","html-keyboard-response","251","185636","0.0-251.0","3CFVK00FWM7JPYSCPX6IWDRQJUBL6X","A2OWFJJ8YEKBF1","3I7KR83SNAZT1REYB2SRC49PCEEK9H","","null","<img src=""img/land1.png"" style=""width:200px;border:14px solid red;"">","null","","","","","","","","","",""
"","image-keyboard-response","252","186332","0.0-252.0","3CFVK00FWM7JPYSCPX6IWDRQJUBL6X","A2OWFJJ8YEKBF1","3I7KR83SNAZT1REYB2SRC49PCEEK9H","","695.5","img/land2.png","75","696","2","0","1","2","0.8,0.2,0.2,0.2,0.8,0.2,0.2,0.2,0.8","0.2,0.2,0.8,0.8,0.2,0.2,0.2,0.8,0.2","2","",""
"","html-keyboard-response","253","186634","0.0-253.0","3CFVK00FWM7JPYSCPX6IWDRQJUBL6X","A2OWFJJ8YEKBF1","3I7KR83SNAZT1REYB2SRC49PCEEK9H","","null","<img src=""img/land2.png"" style=""width:200px;border:14px solid red;"">","null","","","","","","","","","",""
"","image-keyboard-response","254","187147","0.0-254.0","3CFVK00FWM7JPYSCPX6IWDRQJUBL6X","A2OWFJJ8YEKBF1","3I7KR83SNAZT1REYB2SRC49PCEEK9H","","512","img/land2.png","74","512.5","1","0","1","2","0.8,0.2,0.2,0.2,0.8,0.2,0.2,0.2,0.8","0.2,0.2,0.8,0.8,0.2,0.2,0.2,0.8,0.2","2","",""
"","html-keyboard-response","255","187453","0.0-255.0","3CFVK00FWM7JPYSCPX6IWDRQJUBL6X","A2OWFJJ8YEKBF1","3I7KR83SNAZT1REYB2SRC49PCEEK9H","","null","<img src=""img/land2.png"" style=""width:200px;border:14px solid red;"">","null","","","","","","","","","",""
"","image-keyboard-response","256","188018","0.0-256.0","3CFVK00FWM7JPYSCPX6IWDRQJUBL6X","A2OWFJJ8YEKBF1","3I7KR83SNAZT1REYB2SRC49PCEEK9H","","564.7000000476837","img/land1.png","75","565.1999999284744","2","1","3","2","0.8,0.2,0.2,0.2,0.8,0.2,0.2,0.2,0.8","0.2,0.2,0.8,0.8,0.2,0.2,0.2,0.8,0.2","2","",""
"","html-keyboard-response","257","188323","0.0-257.0","3CFVK00FWM7JPYSCPX6IWDRQJUBL6X","A2OWFJJ8YEKBF1","3I7KR83SNAZT1REYB2SRC49PCEEK9H","","null","<img src=""img/land1.png"" style=""width:200px; border:14px solid green;"">","null","","","","","","","","","",""
"","image-keyboard-response","258","189292","0.0-258.0","3CFVK00FWM7JPYSCPX6IWDRQJUBL6X","A2OWFJJ8YEKBF1","3I7KR83SNAZT1REYB2SRC49PCEEK9H","","966.3000000715256","img/land6.png","76","967.8999999761581","3","1","2","2","0.8,0.2,0.2,0.2,0.8,0.2,0.2,0.2,0.8","0.2,0.2,0.8,0.8,0.2,0.2,0.2,0.8,0.2","2","",""
"","html-keyboard-response","259","189594","0.0-259.0","3CFVK00FWM7JPYSCPX6IWDRQJUBL6X","A2OWFJJ8YEKBF1","3I7KR83SNAZT1REYB2SRC49PCEEK9H","","null","<img src=""img/land6.png"" style=""width:200px; border:14px solid green;"">","null","","","","","","","","","",""
"","image-keyboard-response","260","190034","0.0-260.0","3CFVK00FWM7JPYSCPX6IWDRQJUBL6X","A2OWFJJ8YEKBF1","3I7KR83SNAZT1REYB2SRC49PCEEK9H","","438.39999997615814","img/land6.png","76","439.2999999523163","3","1","2","2","0.8,0.2,0.2,0.2,0.8,0.2,0.2,0.2,0.8","0.2,0.2,0.8,0.8,0.2,0.2,0.2,0.8,0.2","2","",""
"","html-keyboard-response","261","190338","0.0-261.0","3CFVK00FWM7JPYSCPX6IWDRQJUBL6X","A2OWFJJ8YEKBF1","3I7KR83SNAZT1REYB2SRC49PCEEK9H","","null","<img src=""img/land6.png"" style=""width:200px; border:14px solid green;"">","null","","","","","","","","","",""
"","image-keyboard-response","262","190686","0.0-262.0","3CFVK00FWM7JPYSCPX6IWDRQJUBL6X","A2OWFJJ8YEKBF1","3I7KR83SNAZT1REYB2SRC49PCEEK9H","","346.60000002384186","img/land6.png","76","347.60000002384186","3","0","2","2","0.8,0.2,0.2,0.2,0.8,0.2,0.2,0.2,0.8","0.2,0.2,0.8,0.8,0.2,0.2,0.2,0.8,0.2","2","",""
"","html-keyboard-response","263","190988","0.0-263.0","3CFVK00FWM7JPYSCPX6IWDRQJUBL6X","A2OWFJJ8YEKBF1","3I7KR83SNAZT1REYB2SRC49PCEEK9H","","null","<img src=""img/land6.png"" style=""width:200px;border:14px solid red;"">","null","","","","","","","","","",""
"","image-keyboard-response","264","191846","0.0-264.0","3CFVK00FWM7JPYSCPX6IWDRQJUBL6X","A2OWFJJ8YEKBF1","3I7KR83SNAZT1REYB2SRC49PCEEK9H","","855.8000000715256","img/land6.png","76","857.5","3","0","2","2","0.8,0.2,0.2,0.2,0.8,0.2,0.2,0.2,0.8","0.2,0.2,0.8,0.8,0.2,0.2,0.2,0.8,0.2","2","",""
"","html-keyboard-response","265","192149","0.0-265.0","3CFVK00FWM7JPYSCPX6IWDRQJUBL6X","A2OWFJJ8YEKBF1","3I7KR83SNAZT1REYB2SRC49PCEEK9H","","null","<img src=""img/land6.png"" style=""width:200px;border:14px solid red;"">","null","","","","","","","","","",""
"","image-keyboard-response","266","192869","0.0-266.0","3CFVK00FWM7JPYSCPX6IWDRQJUBL6X","A2OWFJJ8YEKBF1","3I7KR83SNAZT1REYB2SRC49PCEEK9H","","719.3999999761581","img/land2.png","75","720.3000000715256","2","0","1","2","0.8,0.2,0.2,0.2,0.8,0.2,0.2,0.2,0.8","0.2,0.2,0.8,0.8,0.2,0.2,0.2,0.8,0.2","2","",""
"","html-keyboard-response","267","193170","0.0-267.0","3CFVK00FWM7JPYSCPX6IWDRQJUBL6X","A2OWFJJ8YEKBF1","3I7KR83SNAZT1REYB2SRC49PCEEK9H","","null","<img src=""img/land2.png"" style=""width:200px;border:14px solid red;"">","null","","","","","","","","","",""
"","image-keyboard-response","268","193557","0.0-268.0","3CFVK00FWM7JPYSCPX6IWDRQJUBL6X","A2OWFJJ8YEKBF1","3I7KR83SNAZT1REYB2SRC49PCEEK9H","","386.10000002384186","img/land2.png","75","386.7000000476837","2","0","1","2","0.8,0.2,0.2,0.2,0.8,0.2,0.2,0.2,0.8","0.2,0.2,0.8,0.8,0.2,0.2,0.2,0.8,0.2","2","",""
"","html-keyboard-response","269","193861","0.0-269.0","3CFVK00FWM7JPYSCPX6IWDRQJUBL6X","A2OWFJJ8YEKBF1","3I7KR83SNAZT1REYB2SRC49PCEEK9H","","null","<img src=""img/land2.png"" style=""width:200px;border:14px solid red;"">","null","","","","","","","","","",""
"","image-keyboard-response","270","193912","0.0-270.0","3CFVK00FWM7JPYSCPX6IWDRQJUBL6X","A2OWFJJ8YEKBF1","3I7KR83SNAZT1REYB2SRC49PCEEK9H","","50.5","img/land2.png","75","51","2","0","1","2","0.8,0.2,0.2,0.2,0.8,0.2,0.2,0.2,0.8","0.2,0.2,0.8,0.8,0.2,0.2,0.2,0.8,0.2","2","",""
"","html-keyboard-response","271","194215","0.0-271.0","3CFVK00FWM7JPYSCPX6IWDRQJUBL6X","A2OWFJJ8YEKBF1","3I7KR83SNAZT1REYB2SRC49PCEEK9H","","null","<img src=""img/land2.png"" style=""width:200px;border:14px solid red;"">","null","","","","","","","","","",""
"","image-keyboard-response","272","194289","0.0-272.0","3CFVK00FWM7JPYSCPX6IWDRQJUBL6X","A2OWFJJ8YEKBF1","3I7KR83SNAZT1REYB2SRC49PCEEK9H","","71.29999995231628","img/land1.png","75","72.89999997615814","2","0","3","2","0.8,0.2,0.2,0.2,0.8,0.2,0.2,0.2,0.8","0.2,0.2,0.8,0.8,0.2,0.2,0.2,0.8,0.2","2","",""
"","html-keyboard-response","273","194593","0.0-273.0","3CFVK00FWM7JPYSCPX6IWDRQJUBL6X","A2OWFJJ8YEKBF1","3I7KR83SNAZT1REYB2SRC49PCEEK9H","","null","<img src=""img/land1.png"" style=""width:200px;border:14px solid red;"">","null","","","","","","","","","",""
"","image-keyboard-response","274","195661","0.0-274.0","3CFVK00FWM7JPYSCPX6IWDRQJUBL6X","A2OWFJJ8YEKBF1","3I7KR83SNAZT1REYB2SRC49PCEEK9H","","1066.1999999284744","img/land2.png","75","1067.6000000238419","2","0","1","2","0.8,0.2,0.2,0.2,0.8,0.2,0.2,0.2,0.8","0.2,0.2,0.8,0.8,0.2,0.2,0.2,0.8,0.2","2","",""
"","html-keyboard-response","275","195968","0.0-275.0","3CFVK00FWM7JPYSCPX6IWDRQJUBL6X","A2OWFJJ8YEKBF1","3I7KR83SNAZT1REYB2SRC49PCEEK9H","","null","<img src=""img/land2.png"" style=""width:200px;border:14px solid red;"">","null","","","","","","","","","",""
"","image-keyboard-response","276","197219","0.0-276.0","3CFVK00FWM7JPYSCPX6IWDRQJUBL6X","A2OWFJJ8YEKBF1","3I7KR83SNAZT1REYB2SRC49PCEEK9H","","1249.2999999523163","img/land1.png","74","1250.9000000953674","1","1","3","2","0.8,0.2,0.2,0.2,0.8,0.2,0.2,0.2,0.8","0.2,0.2,0.8,0.8,0.2,0.2,0.2,0.8,0.2","2","",""
"","html-keyboard-response","277","197524","0.0-277.0","3CFVK00FWM7JPYSCPX6IWDRQJUBL6X","A2OWFJJ8YEKBF1","3I7KR83SNAZT1REYB2SRC49PCEEK9H","","null","<img src=""img/land1.png"" style=""width:200px; border:14px solid green;"">","null","","","","","","","","","",""
"","image-keyboard-response","278","198184","0.0-278.0","3CFVK00FWM7JPYSCPX6IWDRQJUBL6X","A2OWFJJ8YEKBF1","3I7KR83SNAZT1REYB2SRC49PCEEK9H","","657.3000000715256","img/land6.png","76","658.7999999523163","3","1","2","2","0.8,0.2,0.2,0.2,0.8,0.2,0.2,0.2,0.8","0.2,0.2,0.8,0.8,0.2,0.2,0.2,0.8,0.2","2","",""
"","html-keyboard-response","279","198488","0.0-279.0","3CFVK00FWM7JPYSCPX6IWDRQJUBL6X","A2OWFJJ8YEKBF1","3I7KR83SNAZT1REYB2SRC49PCEEK9H","","null","<img src=""img/land6.png"" style=""width:200px; border:14px solid green;"">","null","","","","","","","","","",""
"","image-keyboard-response","280","199527","0.0-280.0","3CFVK00FWM7JPYSCPX6IWDRQJUBL6X","A2OWFJJ8YEKBF1","3I7KR83SNAZT1REYB2SRC49PCEEK9H","","1037.6000000238419","img/land2.png","75","1038.7000000476837","2","0","1","2","0.8,0.2,0.2,0.2,0.8,0.2,0.2,0.2,0.8","0.2,0.2,0.8,0.8,0.2,0.2,0.2,0.8,0.2","2","",""
"","html-keyboard-response","281","199830","0.0-281.0","3CFVK00FWM7JPYSCPX6IWDRQJUBL6X","A2OWFJJ8YEKBF1","3I7KR83SNAZT1REYB2SRC49PCEEK9H","","null","<img src=""img/land2.png"" style=""width:200px;border:14px solid red;"">","null","","","","","","","","","",""
"","image-keyboard-response","282","200595","0.0-282.0","3CFVK00FWM7JPYSCPX6IWDRQJUBL6X","A2OWFJJ8YEKBF1","3I7KR83SNAZT1REYB2SRC49PCEEK9H","","764.1999999284744","img/land2.png","74","764.7000000476837","1","0","1","2","0.8,0.2,0.2,0.2,0.8,0.2,0.2,0.2,0.8","0.2,0.2,0.8,0.8,0.2,0.2,0.2,0.8,0.2","2","",""
"","html-keyboard-response","283","200897","0.0-283.0","3CFVK00FWM7JPYSCPX6IWDRQJUBL6X","A2OWFJJ8YEKBF1","3I7KR83SNAZT1REYB2SRC49PCEEK9H","","null","<img src=""img/land2.png"" style=""width:200px;border:14px solid red;"">","null","","","","","","","","","",""
"","image-keyboard-response","284","201235","0.0-284.0","3CFVK00FWM7JPYSCPX6IWDRQJUBL6X","A2OWFJJ8YEKBF1","3I7KR83SNAZT1REYB2SRC49PCEEK9H","","335.5","img/land2.png","75","337.2999999523163","2","1","1","2","0.8,0.2,0.2,0.2,0.8,0.2,0.2,0.2,0.8","0.2,0.2,0.8,0.8,0.2,0.2,0.2,0.8,0.2","2","",""
"","html-keyboard-response","285","201541","0.0-285.0","3CFVK00FWM7JPYSCPX6IWDRQJUBL6X","A2OWFJJ8YEKBF1","3I7KR83SNAZT1REYB2SRC49PCEEK9H","","null","<img src=""img/land2.png"" style=""width:200px; border:14px solid green;"">","null","","","","","","","","","",""
"","image-keyboard-response","286","201855","0.0-286.0","3CFVK00FWM7JPYSCPX6IWDRQJUBL6X","A2OWFJJ8YEKBF1","3I7KR83SNAZT1REYB2SRC49PCEEK9H","","313.5","img/land2.png","75","314.2999999523163","2","0","1","2","0.8,0.2,0.2,0.2,0.8,0.2,0.2,0.2,0.8","0.2,0.2,0.8,0.8,0.2,0.2,0.2,0.8,0.2","2","",""
"","html-keyboard-response","287","202159","0.0-287.0","3CFVK00FWM7JPYSCPX6IWDRQJUBL6X","A2OWFJJ8YEKBF1","3I7KR83SNAZT1REYB2SRC49PCEEK9H","","null","<img src=""img/land2.png"" style=""width:200px;border:14px solid red;"">","null","","","","","","","","","",""
"","image-keyboard-response","288","202525","0.0-288.0","3CFVK00FWM7JPYSCPX6IWDRQJUBL6X","A2OWFJJ8YEKBF1","3I7KR83SNAZT1REYB2SRC49PCEEK9H","","363.3000000715256","img/land2.png","75","364.7999999523163","2","0","1","2","0.8,0.2,0.2,0.2,0.8,0.2,0.2,0.2,0.8","0.2,0.2,0.8,0.8,0.2,0.2,0.2,0.8,0.2","2","",""
"","html-keyboard-response","289","202830","0.0-289.0","3CFVK00FWM7JPYSCPX6IWDRQJUBL6X","A2OWFJJ8YEKBF1","3I7KR83SNAZT1REYB2SRC49PCEEK9H","","null","<img src=""img/land2.png"" style=""width:200px;border:14px solid red;"">","null","","","","","","","","","",""
"","image-keyboard-response","290","202995","0.0-290.0","3CFVK00FWM7JPYSCPX6IWDRQJUBL6X","A2OWFJJ8YEKBF1","3I7KR83SNAZT1REYB2SRC49PCEEK9H","","162.5","img/land6.png","75","164.30000007152557","2","0","2","2","0.8,0.2,0.2,0.2,0.8,0.2,0.2,0.2,0.8","0.2,0.2,0.8,0.8,0.2,0.2,0.2,0.8,0.2","2","",""
"","html-keyboard-response","291","203299","0.0-291.0","3CFVK00FWM7JPYSCPX6IWDRQJUBL6X","A2OWFJJ8YEKBF1","3I7KR83SNAZT1REYB2SRC49PCEEK9H","","null","<img src=""img/land6.png"" style=""width:200px;border:14px solid red;"">","null","","","","","","","","","",""
"","image-keyboard-response","292","204245","0.0-292.0","3CFVK00FWM7JPYSCPX6IWDRQJUBL6X","A2OWFJJ8YEKBF1","3I7KR83SNAZT1REYB2SRC49PCEEK9H","","944.8999999761581","img/land2.png","74","945.5999999046326","1","1","1","2","0.8,0.2,0.2,0.2,0.8,0.2,0.2,0.2,0.8","0.2,0.2,0.8,0.8,0.2,0.2,0.2,0.8,0.2","2","",""
"","html-keyboard-response","293","204548","0.0-293.0","3CFVK00FWM7JPYSCPX6IWDRQJUBL6X","A2OWFJJ8YEKBF1","3I7KR83SNAZT1REYB2SRC49PCEEK9H","","null","<img src=""img/land2.png"" style=""width:200px; border:14px solid green;"">","null","","","","","","","","","",""
"","image-keyboard-response","294","205076","0.0-294.0","3CFVK00FWM7JPYSCPX6IWDRQJUBL6X","A2OWFJJ8YEKBF1","3I7KR83SNAZT1REYB2SRC49PCEEK9H","","525.3000000715256","img/land2.png","74","527.0999999046326","1","1","1","2","0.8,0.2,0.2,0.2,0.8,0.2,0.2,0.2,0.8","0.2,0.2,0.8,0.8,0.2,0.2,0.2,0.8,0.2","2","",""
"","html-keyboard-response","295","205378","0.0-295.0","3CFVK00FWM7JPYSCPX6IWDRQJUBL6X","A2OWFJJ8YEKBF1","3I7KR83SNAZT1REYB2SRC49PCEEK9H","","null","<img src=""img/land2.png"" style=""width:200px; border:14px solid green;"">","null","","","","","","","","","",""
"","image-keyboard-response","296","205394","0.0-296.0","3CFVK00FWM7JPYSCPX6IWDRQJUBL6X","A2OWFJJ8YEKBF1","3I7KR83SNAZT1REYB2SRC49PCEEK9H","","13.399999976158142","img/land2.png","74","14.799999952316284","1","1","1","2","0.8,0.2,0.2,0.2,0.8,0.2,0.2,0.2,0.8","0.2,0.2,0.8,0.8,0.2,0.2,0.2,0.8,0.2","2","",""
"","html-keyboard-response","297","205697","0.0-297.0","3CFVK00FWM7JPYSCPX6IWDRQJUBL6X","A2OWFJJ8YEKBF1","3I7KR83SNAZT1REYB2SRC49PCEEK9H","","null","<img src=""img/land2.png"" style=""width:200px; border:14px solid green;"">","null","","","","","","","","","",""
"","image-keyboard-response","298","205862","0.0-298.0","3CFVK00FWM7JPYSCPX6IWDRQJUBL6X","A2OWFJJ8YEKBF1","3I7KR83SNAZT1REYB2SRC49PCEEK9H","","163.70000004768372","img/land2.png","74","164.39999997615814","1","0","1","2","0.8,0.2,0.2,0.2,0.8,0.2,0.2,0.2,0.8","0.2,0.2,0.8,0.8,0.2,0.2,0.2,0.8,0.2","2","",""
"","html-keyboard-response","299","206167","0.0-299.0","3CFVK00FWM7JPYSCPX6IWDRQJUBL6X","A2OWFJJ8YEKBF1","3I7KR83SNAZT1REYB2SRC49PCEEK9H","","null","<img src=""img/land2.png"" style=""width:200px;border:14px solid red;"">","null","","","","","","","","","",""
"","image-keyboard-response","300","206404","0.0-300.0","3CFVK00FWM7JPYSCPX6IWDRQJUBL6X","A2OWFJJ8YEKBF1","3I7KR83SNAZT1REYB2SRC49PCEEK9H","","234.80000007152557","img/land2.png","74","236.29999995231628","1","1","1","2","0.8,0.2,0.2,0.2,0.8,0.2,0.2,0.2,0.8","0.2,0.2,0.8,0.8,0.2,0.2,0.2,0.8,0.2","2","",""
"","html-keyboard-response","301","206707","0.0-301.0","3CFVK00FWM7JPYSCPX6IWDRQJUBL6X","A2OWFJJ8YEKBF1","3I7KR83SNAZT1REYB2SRC49PCEEK9H","","null","<img src=""img/land2.png"" style=""width:200px; border:14px solid green;"">","null","","","","","","","","","",""
"","image-keyboard-response","302","208710","0.0-302.0","3CFVK00FWM7JPYSCPX6IWDRQJUBL6X","A2OWFJJ8YEKBF1","3I7KR83SNAZT1REYB2SRC49PCEEK9H","","","img/land3.png","","2003.1000000238419","-1","0","1","1","0.8,0.2,0.2,0.2,0.8,0.2,0.2,0.2,0.8","0.8,0.2,0.2,0.2,0.8,0.2,0.2,0.2,0.8","1","",""
"","html-keyboard-response","303","209014","0.0-303.0","3CFVK00FWM7JPYSCPX6IWDRQJUBL6X","A2OWFJJ8YEKBF1","3I7KR83SNAZT1REYB2SRC49PCEEK9H","","null","<img src=""img/land3.png"" style=""width:200px;border:14px solid red;"">","null","","","","","","","","","",""
"","image-keyboard-response","304","210085","0.0-304.0","3CFVK00FWM7JPYSCPX6IWDRQJUBL6X","A2OWFJJ8YEKBF1","3I7KR83SNAZT1REYB2SRC49PCEEK9H","","1070.0999999046326","img/land5.png","76","1070.6000000238419","3","0","2","1","0.8,0.2,0.2,0.2,0.8,0.2,0.2,0.2,0.8","0.8,0.2,0.2,0.2,0.8,0.2,0.2,0.2,0.8","1","",""
"","html-keyboard-response","305","210387","0.0-305.0","3CFVK00FWM7JPYSCPX6IWDRQJUBL6X","A2OWFJJ8YEKBF1","3I7KR83SNAZT1REYB2SRC49PCEEK9H","","null","<img src=""img/land5.png"" style=""width:200px;border:14px solid red;"">","null","","","","","","","","","",""
"","image-keyboard-response","306","210900","0.0-306.0","3CFVK00FWM7JPYSCPX6IWDRQJUBL6X","A2OWFJJ8YEKBF1","3I7KR83SNAZT1REYB2SRC49PCEEK9H","","510.5","img/land5.png","76","512","3","0","2","1","0.8,0.2,0.2,0.2,0.8,0.2,0.2,0.2,0.8","0.8,0.2,0.2,0.2,0.8,0.2,0.2,0.2,0.8","1","",""
"","html-keyboard-response","307","211206","0.0-307.0","3CFVK00FWM7JPYSCPX6IWDRQJUBL6X","A2OWFJJ8YEKBF1","3I7KR83SNAZT1REYB2SRC49PCEEK9H","","null","<img src=""img/land5.png"" style=""width:200px;border:14px solid red;"">","null","","","","","","","","","",""
"","image-keyboard-response","308","212960","0.0-308.0","3CFVK00FWM7JPYSCPX6IWDRQJUBL6X","A2OWFJJ8YEKBF1","3I7KR83SNAZT1REYB2SRC49PCEEK9H","","1750.8999999761581","img/land4.png","74","1752.8999999761581","1","0","3","1","0.8,0.2,0.2,0.2,0.8,0.2,0.2,0.2,0.8","0.8,0.2,0.2,0.2,0.8,0.2,0.2,0.2,0.8","1","",""
"","html-keyboard-response","309","213266","0.0-309.0","3CFVK00FWM7JPYSCPX6IWDRQJUBL6X","A2OWFJJ8YEKBF1","3I7KR83SNAZT1REYB2SRC49PCEEK9H","","null","<img src=""img/land4.png"" style=""width:200px;border:14px solid red;"">","null","","","","","","","","","",""
"","image-keyboard-response","310","214124","0.0-310.0","3CFVK00FWM7JPYSCPX6IWDRQJUBL6X","A2OWFJJ8YEKBF1","3I7KR83SNAZT1REYB2SRC49PCEEK9H","","856.7000000476837","img/land5.png","74","857.4000000953674","1","0","2","1","0.8,0.2,0.2,0.2,0.8,0.2,0.2,0.2,0.8","0.8,0.2,0.2,0.2,0.8,0.2,0.2,0.2,0.8","1","",""
"","html-keyboard-response","311","214427","0.0-311.0","3CFVK00FWM7JPYSCPX6IWDRQJUBL6X","A2OWFJJ8YEKBF1","3I7KR83SNAZT1REYB2SRC49PCEEK9H","","null","<img src=""img/land5.png"" style=""width:200px;border:14px solid red;"">","null","","","","","","","","","",""
"","image-keyboard-response","312","215511","0.0-312.0","3CFVK00FWM7JPYSCPX6IWDRQJUBL6X","A2OWFJJ8YEKBF1","3I7KR83SNAZT1REYB2SRC49PCEEK9H","","1082.7999999523163","img/land3.png","74","1083.5","1","1","1","1","0.8,0.2,0.2,0.2,0.8,0.2,0.2,0.2,0.8","0.8,0.2,0.2,0.2,0.8,0.2,0.2,0.2,0.8","1","",""
"","html-keyboard-response","313","215814","0.0-313.0","3CFVK00FWM7JPYSCPX6IWDRQJUBL6X","A2OWFJJ8YEKBF1","3I7KR83SNAZT1REYB2SRC49PCEEK9H","","null","<img src=""img/land3.png"" style=""width:200px; border:14px solid green;"">","null","","","","","","","","","",""
"","image-keyboard-response","314","216294","0.0-314.0","3CFVK00FWM7JPYSCPX6IWDRQJUBL6X","A2OWFJJ8YEKBF1","3I7KR83SNAZT1REYB2SRC49PCEEK9H","","479.09999990463257","img/land3.png","74","479.89999997615814","1","1","1","1","0.8,0.2,0.2,0.2,0.8,0.2,0.2,0.2,0.8","0.8,0.2,0.2,0.2,0.8,0.2,0.2,0.2,0.8","1","",""
"","html-keyboard-response","315","216598","0.0-315.0","3CFVK00FWM7JPYSCPX6IWDRQJUBL6X","A2OWFJJ8YEKBF1","3I7KR83SNAZT1REYB2SRC49PCEEK9H","","null","<img src=""img/land3.png"" style=""width:200px; border:14px solid green;"">","null","","","","","","","","","",""
"","image-keyboard-response","316","216641","0.0-316.0","3CFVK00FWM7JPYSCPX6IWDRQJUBL6X","A2OWFJJ8YEKBF1","3I7KR83SNAZT1REYB2SRC49PCEEK9H","","42.60000002384186","img/land5.png","74","43","1","0","2","1","0.8,0.2,0.2,0.2,0.8,0.2,0.2,0.2,0.8","0.8,0.2,0.2,0.2,0.8,0.2,0.2,0.2,0.8","1","",""
"","html-keyboard-response","317","216947","0.0-317.0","3CFVK00FWM7JPYSCPX6IWDRQJUBL6X","A2OWFJJ8YEKBF1","3I7KR83SNAZT1REYB2SRC49PCEEK9H","","null","<img src=""img/land5.png"" style=""width:200px;border:14px solid red;"">","null","","","","","","","","","",""
"","image-keyboard-response","318","218331","0.0-318.0","3CFVK00FWM7JPYSCPX6IWDRQJUBL6X","A2OWFJJ8YEKBF1","3I7KR83SNAZT1REYB2SRC49PCEEK9H","","1381.6999999284744","img/land3.png","75","1383","2","0","1","1","0.8,0.2,0.2,0.2,0.8,0.2,0.2,0.2,0.8","0.8,0.2,0.2,0.2,0.8,0.2,0.2,0.2,0.8","1","",""
"","html-keyboard-response","319","218636","0.0-319.0","3CFVK00FWM7JPYSCPX6IWDRQJUBL6X","A2OWFJJ8YEKBF1","3I7KR83SNAZT1REYB2SRC49PCEEK9H","","null","<img src=""img/land3.png"" style=""width:200px;border:14px solid red;"">","null","","","","","","","","","",""
"","image-keyboard-response","320","219192","0.0-320.0","3CFVK00FWM7JPYSCPX6IWDRQJUBL6X","A2OWFJJ8YEKBF1","3I7KR83SNAZT1REYB2SRC49PCEEK9H","","554.1000000238419","img/land3.png","75","555.5","2","0","1","1","0.8,0.2,0.2,0.2,0.8,0.2,0.2,0.2,0.8","0.8,0.2,0.2,0.2,0.8,0.2,0.2,0.2,0.8","1","",""
"","html-keyboard-response","321","219495","0.0-321.0","3CFVK00FWM7JPYSCPX6IWDRQJUBL6X","A2OWFJJ8YEKBF1","3I7KR83SNAZT1REYB2SRC49PCEEK9H","","null","<img src=""img/land3.png"" style=""width:200px;border:14px solid red;"">","null","","","","","","","","","",""
"","image-keyboard-response","322","221291","0.0-322.0","3CFVK00FWM7JPYSCPX6IWDRQJUBL6X","A2OWFJJ8YEKBF1","3I7KR83SNAZT1REYB2SRC49PCEEK9H","","1795","img/land5.png","75","1795.8999999761581","2","0","2","1","0.8,0.2,0.2,0.2,0.8,0.2,0.2,0.2,0.8","0.8,0.2,0.2,0.2,0.8,0.2,0.2,0.2,0.8","1","",""
"","html-keyboard-response","323","221596","0.0-323.0","3CFVK00FWM7JPYSCPX6IWDRQJUBL6X","A2OWFJJ8YEKBF1","3I7KR83SNAZT1REYB2SRC49PCEEK9H","","null","<img src=""img/land5.png"" style=""width:200px;border:14px solid red;"">","null","","","","","","","","","",""
"","image-keyboard-response","324","222124","0.0-324.0","3CFVK00FWM7JPYSCPX6IWDRQJUBL6X","A2OWFJJ8YEKBF1","3I7KR83SNAZT1REYB2SRC49PCEEK9H","","527.3999999761581","img/land3.png","75","528.3999999761581","2","0","1","1","0.8,0.2,0.2,0.2,0.8,0.2,0.2,0.2,0.8","0.8,0.2,0.2,0.2,0.8,0.2,0.2,0.2,0.8","1","",""
"","html-keyboard-response","325","222430","0.0-325.0","3CFVK00FWM7JPYSCPX6IWDRQJUBL6X","A2OWFJJ8YEKBF1","3I7KR83SNAZT1REYB2SRC49PCEEK9H","","null","<img src=""img/land3.png"" style=""width:200px;border:14px solid red;"">","null","","","","","","","","","",""
"","image-keyboard-response","326","222934","0.0-326.0","3CFVK00FWM7JPYSCPX6IWDRQJUBL6X","A2OWFJJ8YEKBF1","3I7KR83SNAZT1REYB2SRC49PCEEK9H","","503.1999999284744","img/land3.png","76","504.10000002384186","3","0","1","1","0.8,0.2,0.2,0.2,0.8,0.2,0.2,0.2,0.8","0.8,0.2,0.2,0.2,0.8,0.2,0.2,0.2,0.8","1","",""
"","html-keyboard-response","327","223238","0.0-327.0","3CFVK00FWM7JPYSCPX6IWDRQJUBL6X","A2OWFJJ8YEKBF1","3I7KR83SNAZT1REYB2SRC49PCEEK9H","","null","<img src=""img/land3.png"" style=""width:200px;border:14px solid red;"">","null","","","","","","","","","",""
"","image-keyboard-response","328","224352","0.0-328.0","3CFVK00FWM7JPYSCPX6IWDRQJUBL6X","A2OWFJJ8YEKBF1","3I7KR83SNAZT1REYB2SRC49PCEEK9H","","1113","img/land4.png","75","1113.6999999284744","2","0","3","1","0.8,0.2,0.2,0.2,0.8,0.2,0.2,0.2,0.8","0.8,0.2,0.2,0.2,0.8,0.2,0.2,0.2,0.8","1","",""
"","html-keyboard-response","329","224655","0.0-329.0","3CFVK00FWM7JPYSCPX6IWDRQJUBL6X","A2OWFJJ8YEKBF1","3I7KR83SNAZT1REYB2SRC49PCEEK9H","","null","<img src=""img/land4.png"" style=""width:200px;border:14px solid red;"">","null","","","","","","","","","",""
"","image-keyboard-response","330","225505","0.0-330.0","3CFVK00FWM7JPYSCPX6IWDRQJUBL6X","A2OWFJJ8YEKBF1","3I7KR83SNAZT1REYB2SRC49PCEEK9H","","846.7000000476837","img/land5.png","75","848.5","2","1","2","1","0.8,0.2,0.2,0.2,0.8,0.2,0.2,0.2,0.8","0.8,0.2,0.2,0.2,0.8,0.2,0.2,0.2,0.8","1","",""
"","html-keyboard-response","331","225810","0.0-331.0","3CFVK00FWM7JPYSCPX6IWDRQJUBL6X","A2OWFJJ8YEKBF1","3I7KR83SNAZT1REYB2SRC49PCEEK9H","","null","<img src=""img/land5.png"" style=""width:200px; border:14px solid green;"">","null","","","","","","","","","",""
"","image-keyboard-response","332","226406","0.0-332.0","3CFVK00FWM7JPYSCPX6IWDRQJUBL6X","A2OWFJJ8YEKBF1","3I7KR83SNAZT1REYB2SRC49PCEEK9H","","595.0999999046326","img/land3.png","76","595.6000000238419","3","0","1","1","0.8,0.2,0.2,0.2,0.8,0.2,0.2,0.2,0.8","0.8,0.2,0.2,0.2,0.8,0.2,0.2,0.2,0.8","1","",""
"","html-keyboard-response","333","226709","0.0-333.0","3CFVK00FWM7JPYSCPX6IWDRQJUBL6X","A2OWFJJ8YEKBF1","3I7KR83SNAZT1REYB2SRC49PCEEK9H","","null","<img src=""img/land3.png"" style=""width:200px;border:14px solid red;"">","null","","","","","","","","","",""
"","image-keyboard-response","334","227543","0.0-334.0","3CFVK00FWM7JPYSCPX6IWDRQJUBL6X","A2OWFJJ8YEKBF1","3I7KR83SNAZT1REYB2SRC49PCEEK9H","","833.5","img/land4.png","75","834","2","0","3","1","0.8,0.2,0.2,0.2,0.8,0.2,0.2,0.2,0.8","0.8,0.2,0.2,0.2,0.8,0.2,0.2,0.2,0.8","1","",""
"","html-keyboard-response","335","227848","0.0-335.0","3CFVK00FWM7JPYSCPX6IWDRQJUBL6X","A2OWFJJ8YEKBF1","3I7KR83SNAZT1REYB2SRC49PCEEK9H","","null","<img src=""img/land4.png"" style=""width:200px;border:14px solid red;"">","null","","","","","","","","","",""
"","image-keyboard-response","336","228516","0.0-336.0","3CFVK00FWM7JPYSCPX6IWDRQJUBL6X","A2OWFJJ8YEKBF1","3I7KR83SNAZT1REYB2SRC49PCEEK9H","","665.7000000476837","img/land3.png","75","666.8999999761581","2","0","1","1","0.8,0.2,0.2,0.2,0.8,0.2,0.2,0.2,0.8","0.8,0.2,0.2,0.2,0.8,0.2,0.2,0.2,0.8","1","",""
"","html-keyboard-response","337","228822","0.0-337.0","3CFVK00FWM7JPYSCPX6IWDRQJUBL6X","A2OWFJJ8YEKBF1","3I7KR83SNAZT1REYB2SRC49PCEEK9H","","null","<img src=""img/land3.png"" style=""width:200px;border:14px solid red;"">","null","","","","","","","","","",""
"","image-keyboard-response","338","229325","0.0-338.0","3CFVK00FWM7JPYSCPX6IWDRQJUBL6X","A2OWFJJ8YEKBF1","3I7KR83SNAZT1REYB2SRC49PCEEK9H","","502.10000002384186","img/land3.png","74","503","1","1","1","1","0.8,0.2,0.2,0.2,0.8,0.2,0.2,0.2,0.8","0.8,0.2,0.2,0.2,0.8,0.2,0.2,0.2,0.8","1","",""
"","html-keyboard-response","339","229630","0.0-339.0","3CFVK00FWM7JPYSCPX6IWDRQJUBL6X","A2OWFJJ8YEKBF1","3I7KR83SNAZT1REYB2SRC49PCEEK9H","","null","<img src=""img/land3.png"" style=""width:200px; border:14px solid green;"">","null","","","","","","","","","",""
"","image-keyboard-response","340","230517","0.0-340.0","3CFVK00FWM7JPYSCPX6IWDRQJUBL6X","A2OWFJJ8YEKBF1","3I7KR83SNAZT1REYB2SRC49PCEEK9H","","884.1000000238419","img/land4.png","75","885.8999999761581","2","0","3","1","0.8,0.2,0.2,0.2,0.8,0.2,0.2,0.2,0.8","0.8,0.2,0.2,0.2,0.8,0.2,0.2,0.2,0.8","1","",""
"","html-keyboard-response","341","230820","0.0-341.0","3CFVK00FWM7JPYSCPX6IWDRQJUBL6X","A2OWFJJ8YEKBF1","3I7KR83SNAZT1REYB2SRC49PCEEK9H","","null","<img src=""img/land4.png"" style=""width:200px;border:14px solid red;"">","null","","","","","","","","","",""
"","image-keyboard-response","342","231189","0.0-342.0","3CFVK00FWM7JPYSCPX6IWDRQJUBL6X","A2OWFJJ8YEKBF1","3I7KR83SNAZT1REYB2SRC49PCEEK9H","","368.39999997615814","img/land5.png","76","369.39999997615814","3","1","2","1","0.8,0.2,0.2,0.2,0.8,0.2,0.2,0.2,0.8","0.8,0.2,0.2,0.2,0.8,0.2,0.2,0.2,0.8","1","",""
"","html-keyboard-response","343","231493","0.0-343.0","3CFVK00FWM7JPYSCPX6IWDRQJUBL6X","A2OWFJJ8YEKBF1","3I7KR83SNAZT1REYB2SRC49PCEEK9H","","null","<img src=""img/land5.png"" style=""width:200px; border:14px solid green;"">","null","","","","","","","","","",""
"","image-keyboard-response","344","232224","0.0-344.0","3CFVK00FWM7JPYSCPX6IWDRQJUBL6X","A2OWFJJ8YEKBF1","3I7KR83SNAZT1REYB2SRC49PCEEK9H","","729.7999999523163","img/land4.png","75","730.8999999761581","2","1","3","1","0.8,0.2,0.2,0.2,0.8,0.2,0.2,0.2,0.8","0.8,0.2,0.2,0.2,0.8,0.2,0.2,0.2,0.8","1","",""
"","html-keyboard-response","345","232526","0.0-345.0","3CFVK00FWM7JPYSCPX6IWDRQJUBL6X","A2OWFJJ8YEKBF1","3I7KR83SNAZT1REYB2SRC49PCEEK9H","","null","<img src=""img/land4.png"" style=""width:200px; border:14px solid green;"">","null","","","","","","","","","",""
"","image-keyboard-response","346","233262","0.0-346.0","3CFVK00FWM7JPYSCPX6IWDRQJUBL6X","A2OWFJJ8YEKBF1","3I7KR83SNAZT1REYB2SRC49PCEEK9H","","734.7000000476837","img/land5.png","76","735.5","3","0","2","1","0.8,0.2,0.2,0.2,0.8,0.2,0.2,0.2,0.8","0.8,0.2,0.2,0.2,0.8,0.2,0.2,0.2,0.8","1","",""
"","html-keyboard-response","347","233565","0.0-347.0","3CFVK00FWM7JPYSCPX6IWDRQJUBL6X","A2OWFJJ8YEKBF1","3I7KR83SNAZT1REYB2SRC49PCEEK9H","","null","<img src=""img/land5.png"" style=""width:200px;border:14px solid red;"">","null","","","","","","","","","",""
"","image-keyboard-response","348","234020","0.0-348.0","3CFVK00FWM7JPYSCPX6IWDRQJUBL6X","A2OWFJJ8YEKBF1","3I7KR83SNAZT1REYB2SRC49PCEEK9H","","453.90000009536743","img/land5.png","76","455","3","0","2","1","0.8,0.2,0.2,0.2,0.8,0.2,0.2,0.2,0.8","0.8,0.2,0.2,0.2,0.8,0.2,0.2,0.2,0.8","1","",""
"","html-keyboard-response","349","234325","0.0-349.0","3CFVK00FWM7JPYSCPX6IWDRQJUBL6X","A2OWFJJ8YEKBF1","3I7KR83SNAZT1REYB2SRC49PCEEK9H","","null","<img src=""img/land5.png"" style=""width:200px;border:14px solid red;"">","null","","","","","","","","","",""
"","image-keyboard-response","350","234467","0.0-350.0","3CFVK00FWM7JPYSCPX6IWDRQJUBL6X","A2OWFJJ8YEKBF1","3I7KR83SNAZT1REYB2SRC49PCEEK9H","","140.89999997615814","img/land4.png","76","141.69999992847443","3","0","3","1","0.8,0.2,0.2,0.2,0.8,0.2,0.2,0.2,0.8","0.8,0.2,0.2,0.2,0.8,0.2,0.2,0.2,0.8","1","",""
"","html-keyboard-response","351","234773","0.0-351.0","3CFVK00FWM7JPYSCPX6IWDRQJUBL6X","A2OWFJJ8YEKBF1","3I7KR83SNAZT1REYB2SRC49PCEEK9H","","null","<img src=""img/land4.png"" style=""width:200px;border:14px solid red;"">","null","","","","","","","","","",""
"","image-keyboard-response","352","235380","0.0-352.0","3CFVK00FWM7JPYSCPX6IWDRQJUBL6X","A2OWFJJ8YEKBF1","3I7KR83SNAZT1REYB2SRC49PCEEK9H","","604","img/land4.png","75","605.8999999761581","2","0","3","1","0.8,0.2,0.2,0.2,0.8,0.2,0.2,0.2,0.8","0.8,0.2,0.2,0.2,0.8,0.2,0.2,0.2,0.8","1","",""
"","html-keyboard-response","353","235685","0.0-353.0","3CFVK00FWM7JPYSCPX6IWDRQJUBL6X","A2OWFJJ8YEKBF1","3I7KR83SNAZT1REYB2SRC49PCEEK9H","","null","<img src=""img/land4.png"" style=""width:200px;border:14px solid red;"">","null","","","","","","","","","",""
"","image-keyboard-response","354","236453","0.0-354.0","3CFVK00FWM7JPYSCPX6IWDRQJUBL6X","A2OWFJJ8YEKBF1","3I7KR83SNAZT1REYB2SRC49PCEEK9H","","765.7000000476837","img/land3.png","74","767.3999999761581","1","1","1","1","0.8,0.2,0.2,0.2,0.8,0.2,0.2,0.2,0.8","0.8,0.2,0.2,0.2,0.8,0.2,0.2,0.2,0.8","1","",""
