"success","trial_type","trial_index","time_elapsed","internal_node_id","assignmentID","mturkID","hitID","view_history","rt","stimulus","key_press","reactionTime","a","r","s","cond","reward_cond","reward_cond_actual","reward_matrix_idx","responses","question_order"
"true","fullscreen","0","2306","0.0-0.0","3UNH76FOCTR5E0K3VS2PFHQ8I4HMYD","A2PEN75MMUA963","31D0ZWOD0AL5TKHZZFW9PF504XD0AR","","","","","","","","","","","","","",""
"","instructions","1","18045","0.0-1.0","3UNH76FOCTR5E0K3VS2PFHQ8I4HMYD","A2PEN75MMUA963","31D0ZWOD0AL5TKHZZFW9PF504XD0AR","[{""page_index"":0,""viewing_time"":1155},{""page_index"":1,""viewing_time"":870},{""page_index"":2,""viewing_time"":2584},{""page_index"":3,""viewing_time"":4936},{""page_index"":4,""viewing_time"":3121},{""page_index"":5,""viewing_time"":895},{""page_index"":6,""viewing_time"":2168}]","15729","","","","","","","","","","","",""
"","image-keyboard-response","2","18769","0.0-2.0","3UNH76FOCTR5E0K3VS2PFHQ8I4HMYD","A2PEN75MMUA963","31D0ZWOD0AL5TKHZZFW9PF504XD0AR","","712","img/land1.png","74","719","1","1","1","1","0.8,0.2,0.2,0.2,0.8,0.2,0.2,0.2,0.8","0.8,0.2,0.2,0.2,0.8,0.2,0.2,0.2,0.8","1","",""
"","html-keyboard-response","3","19076","0.0-3.0","3UNH76FOCTR5E0K3VS2PFHQ8I4HMYD","A2PEN75MMUA963","31D0ZWOD0AL5TKHZZFW9PF504XD0AR","","null","<img src=""img/land1.png"" style=""width:200px; border:14px solid green;"">","null","","","","","","","","","",""
"","image-keyboard-response","4","19720","0.0-4.0","3UNH76FOCTR5E0K3VS2PFHQ8I4HMYD","A2PEN75MMUA963","31D0ZWOD0AL5TKHZZFW9PF504XD0AR","","640","img/land3.png","76","643","3","1","3","1","0.8,0.2,0.2,0.2,0.8,0.2,0.2,0.2,0.8","0.8,0.2,0.2,0.2,0.8,0.2,0.2,0.2,0.8","1","",""
"","html-keyboard-response","5","20023","0.0-5.0","3UNH76FOCTR5E0K3VS2PFHQ8I4HMYD","A2PEN75MMUA963","31D0ZWOD0AL5TKHZZFW9PF504XD0AR","","null","<img src=""img/land3.png"" style=""width:200px; border:14px solid green;"">","null","","","","","","","","","",""
"","image-keyboard-response","6","20424","0.0-6.0","3UNH76FOCTR5E0K3VS2PFHQ8I4HMYD","A2PEN75MMUA963","31D0ZWOD0AL5TKHZZFW9PF504XD0AR","","399","img/land3.png","76","400","3","1","3","1","0.8,0.2,0.2,0.2,0.8,0.2,0.2,0.2,0.8","0.8,0.2,0.2,0.2,0.8,0.2,0.2,0.2,0.8","1","",""
"","html-keyboard-response","7","20727","0.0-7.0","3UNH76FOCTR5E0K3VS2PFHQ8I4HMYD","A2PEN75MMUA963","31D0ZWOD0AL5TKHZZFW9PF504XD0AR","","null","<img src=""img/land3.png"" style=""width:200px; border:14px solid green;"">","null","","","","","","","","","",""
"","image-keyboard-response","8","21334","0.0-8.0","3UNH76FOCTR5E0K3VS2PFHQ8I4HMYD","A2PEN75MMUA963","31D0ZWOD0AL5TKHZZFW9PF504XD0AR","","604","img/land6.png","75","606","2","0","2","1","0.8,0.2,0.2,0.2,0.8,0.2,0.2,0.2,0.8","0.8,0.2,0.2,0.2,0.8,0.2,0.2,0.2,0.8","1","",""
"","html-keyboard-response","9","21637","0.0-9.0","3UNH76FOCTR5E0K3VS2PFHQ8I4HMYD","A2PEN75MMUA963","31D0ZWOD0AL5TKHZZFW9PF504XD0AR","","null","<img src=""img/land6.png"" style=""width:200px;border:14px solid red;"">","null","","","","","","","","","",""
"","image-keyboard-response","10","22164","0.0-10.0","3UNH76FOCTR5E0K3VS2PFHQ8I4HMYD","A2PEN75MMUA963","31D0ZWOD0AL5TKHZZFW9PF504XD0AR","","526","img/land6.png","75","527","2","1","2","1","0.8,0.2,0.2,0.2,0.8,0.2,0.2,0.2,0.8","0.8,0.2,0.2,0.2,0.8,0.2,0.2,0.2,0.8","1","",""
"","html-keyboard-response","11","22468","0.0-11.0","3UNH76FOCTR5E0K3VS2PFHQ8I4HMYD","A2PEN75MMUA963","31D0ZWOD0AL5TKHZZFW9PF504XD0AR","","null","<img src=""img/land6.png"" style=""width:200px; border:14px solid green;"">","null","","","","","","","","","",""
"","image-keyboard-response","12","23001","0.0-12.0","3UNH76FOCTR5E0K3VS2PFHQ8I4HMYD","A2PEN75MMUA963","31D0ZWOD0AL5TKHZZFW9PF504XD0AR","","533","img/land3.png","74","534","1","0","3","1","0.8,0.2,0.2,0.2,0.8,0.2,0.2,0.2,0.8","0.8,0.2,0.2,0.2,0.8,0.2,0.2,0.2,0.8","1","",""
"","html-keyboard-response","13","23303","0.0-13.0","3UNH76FOCTR5E0K3VS2PFHQ8I4HMYD","A2PEN75MMUA963","31D0ZWOD0AL5TKHZZFW9PF504XD0AR","","null","<img src=""img/land3.png"" style=""width:200px;border:14px solid red;"">","null","","","","","","","","","",""
"","image-keyboard-response","14","23948","0.0-14.0","3UNH76FOCTR5E0K3VS2PFHQ8I4HMYD","A2PEN75MMUA963","31D0ZWOD0AL5TKHZZFW9PF504XD0AR","","643","img/land1.png","74","644","1","1","1","1","0.8,0.2,0.2,0.2,0.8,0.2,0.2,0.2,0.8","0.8,0.2,0.2,0.2,0.8,0.2,0.2,0.2,0.8","1","",""
"","html-keyboard-response","15","24250","0.0-15.0","3UNH76FOCTR5E0K3VS2PFHQ8I4HMYD","A2PEN75MMUA963","31D0ZWOD0AL5TKHZZFW9PF504XD0AR","","null","<img src=""img/land1.png"" style=""width:200px; border:14px solid green;"">","null","","","","","","","","","",""
"","image-keyboard-response","16","24836","0.0-16.0","3UNH76FOCTR5E0K3VS2PFHQ8I4HMYD","A2PEN75MMUA963","31D0ZWOD0AL5TKHZZFW9PF504XD0AR","","586","img/land6.png","75","587","2","1","2","1","0.8,0.2,0.2,0.2,0.8,0.2,0.2,0.2,0.8","0.8,0.2,0.2,0.2,0.8,0.2,0.2,0.2,0.8","1","",""
"","html-keyboard-response","17","25138","0.0-17.0","3UNH76FOCTR5E0K3VS2PFHQ8I4HMYD","A2PEN75MMUA963","31D0ZWOD0AL5TKHZZFW9PF504XD0AR","","null","<img src=""img/land6.png"" style=""width:200px; border:14px solid green;"">","null","","","","","","","","","",""
"","image-keyboard-response","18","25975","0.0-18.0","3UNH76FOCTR5E0K3VS2PFHQ8I4HMYD","A2PEN75MMUA963","31D0ZWOD0AL5TKHZZFW9PF504XD0AR","","834","img/land1.png","74","836","1","1","1","1","0.8,0.2,0.2,0.2,0.8,0.2,0.2,0.2,0.8","0.8,0.2,0.2,0.2,0.8,0.2,0.2,0.2,0.8","1","",""
"","html-keyboard-response","19","26279","0.0-19.0","3UNH76FOCTR5E0K3VS2PFHQ8I4HMYD","A2PEN75MMUA963","31D0ZWOD0AL5TKHZZFW9PF504XD0AR","","null","<img src=""img/land1.png"" style=""width:200px; border:14px solid green;"">","null","","","","","","","","","",""
"","image-keyboard-response","20","27195","0.0-20.0","3UNH76FOCTR5E0K3VS2PFHQ8I4HMYD","A2PEN75MMUA963","31D0ZWOD0AL5TKHZZFW9PF504XD0AR","","913","img/land3.png","76","915","3","1","3","1","0.8,0.2,0.2,0.2,0.8,0.2,0.2,0.2,0.8","0.8,0.2,0.2,0.2,0.8,0.2,0.2,0.2,0.8","1","",""
"","html-keyboard-response","21","27497","0.0-21.0","3UNH76FOCTR5E0K3VS2PFHQ8I4HMYD","A2PEN75MMUA963","31D0ZWOD0AL5TKHZZFW9PF504XD0AR","","null","<img src=""img/land3.png"" style=""width:200px; border:14px solid green;"">","null","","","","","","","","","",""
"","image-keyboard-response","22","28187","0.0-22.0","3UNH76FOCTR5E0K3VS2PFHQ8I4HMYD","A2PEN75MMUA963","31D0ZWOD0AL5TKHZZFW9PF504XD0AR","","687","img/land1.png","74","689","1","1","1","1","0.8,0.2,0.2,0.2,0.8,0.2,0.2,0.2,0.8","0.8,0.2,0.2,0.2,0.8,0.2,0.2,0.2,0.8","1","",""
"","html-keyboard-response","23","28490","0.0-23.0","3UNH76FOCTR5E0K3VS2PFHQ8I4HMYD","A2PEN75MMUA963","31D0ZWOD0AL5TKHZZFW9PF504XD0AR","","null","<img src=""img/land1.png"" style=""width:200px; border:14px solid green;"">","null","","","","","","","","","",""
"","image-keyboard-response","24","28930","0.0-24.0","3UNH76FOCTR5E0K3VS2PFHQ8I4HMYD","A2PEN75MMUA963","31D0ZWOD0AL5TKHZZFW9PF504XD0AR","","438","img/land1.png","74","440","1","1","1","1","0.8,0.2,0.2,0.2,0.8,0.2,0.2,0.2,0.8","0.8,0.2,0.2,0.2,0.8,0.2,0.2,0.2,0.8","1","",""
"","html-keyboard-response","25","29234","0.0-25.0","3UNH76FOCTR5E0K3VS2PFHQ8I4HMYD","A2PEN75MMUA963","31D0ZWOD0AL5TKHZZFW9PF504XD0AR","","null","<img src=""img/land1.png"" style=""width:200px; border:14px solid green;"">","null","","","","","","","","","",""
"","image-keyboard-response","26","30760","0.0-26.0","3UNH76FOCTR5E0K3VS2PFHQ8I4HMYD","A2PEN75MMUA963","31D0ZWOD0AL5TKHZZFW9PF504XD0AR","","1523","img/land3.png","76","1525","3","1","3","1","0.8,0.2,0.2,0.2,0.8,0.2,0.2,0.2,0.8","0.8,0.2,0.2,0.2,0.8,0.2,0.2,0.2,0.8","1","",""
"","html-keyboard-response","27","31063","0.0-27.0","3UNH76FOCTR5E0K3VS2PFHQ8I4HMYD","A2PEN75MMUA963","31D0ZWOD0AL5TKHZZFW9PF504XD0AR","","null","<img src=""img/land3.png"" style=""width:200px; border:14px solid green;"">","null","","","","","","","","","",""
"","image-keyboard-response","28","31785","0.0-28.0","3UNH76FOCTR5E0K3VS2PFHQ8I4HMYD","A2PEN75MMUA963","31D0ZWOD0AL5TKHZZFW9PF504XD0AR","","718","img/land1.png","74","721","1","1","1","1","0.8,0.2,0.2,0.2,0.8,0.2,0.2,0.2,0.8","0.8,0.2,0.2,0.2,0.8,0.2,0.2,0.2,0.8","1","",""
"","html-keyboard-response","29","32088","0.0-29.0","3UNH76FOCTR5E0K3VS2PFHQ8I4HMYD","A2PEN75MMUA963","31D0ZWOD0AL5TKHZZFW9PF504XD0AR","","null","<img src=""img/land1.png"" style=""width:200px; border:14px solid green;"">","null","","","","","","","","","",""
"","image-keyboard-response","30","32571","0.0-30.0","3UNH76FOCTR5E0K3VS2PFHQ8I4HMYD","A2PEN75MMUA963","31D0ZWOD0AL5TKHZZFW9PF504XD0AR","","481","img/land1.png","74","483","1","1","1","1","0.8,0.2,0.2,0.2,0.8,0.2,0.2,0.2,0.8","0.8,0.2,0.2,0.2,0.8,0.2,0.2,0.2,0.8","1","",""
"","html-keyboard-response","31","32874","0.0-31.0","3UNH76FOCTR5E0K3VS2PFHQ8I4HMYD","A2PEN75MMUA963","31D0ZWOD0AL5TKHZZFW9PF504XD0AR","","null","<img src=""img/land1.png"" style=""width:200px; border:14px solid green;"">","null","","","","","","","","","",""
"","image-keyboard-response","32","33368","0.0-32.0","3UNH76FOCTR5E0K3VS2PFHQ8I4HMYD","A2PEN75MMUA963","31D0ZWOD0AL5TKHZZFW9PF504XD0AR","","492","img/land1.png","74","494","1","0","1","1","0.8,0.2,0.2,0.2,0.8,0.2,0.2,0.2,0.8","0.8,0.2,0.2,0.2,0.8,0.2,0.2,0.2,0.8","1","",""
"","html-keyboard-response","33","33672","0.0-33.0","3UNH76FOCTR5E0K3VS2PFHQ8I4HMYD","A2PEN75MMUA963","31D0ZWOD0AL5TKHZZFW9PF504XD0AR","","null","<img src=""img/land1.png"" style=""width:200px;border:14px solid red;"">","null","","","","","","","","","",""
"","image-keyboard-response","34","34421","0.0-34.0","3UNH76FOCTR5E0K3VS2PFHQ8I4HMYD","A2PEN75MMUA963","31D0ZWOD0AL5TKHZZFW9PF504XD0AR","","747","img/land6.png","75","748","2","1","2","1","0.8,0.2,0.2,0.2,0.8,0.2,0.2,0.2,0.8","0.8,0.2,0.2,0.2,0.8,0.2,0.2,0.2,0.8","1","",""
"","html-keyboard-response","35","34724","0.0-35.0","3UNH76FOCTR5E0K3VS2PFHQ8I4HMYD","A2PEN75MMUA963","31D0ZWOD0AL5TKHZZFW9PF504XD0AR","","null","<img src=""img/land6.png"" style=""width:200px; border:14px solid green;"">","null","","","","","","","","","",""
"","image-keyboard-response","36","35964","0.0-36.0","3UNH76FOCTR5E0K3VS2PFHQ8I4HMYD","A2PEN75MMUA963","31D0ZWOD0AL5TKHZZFW9PF504XD0AR","","1237","img/land3.png","76","1239","3","1","3","1","0.8,0.2,0.2,0.2,0.8,0.2,0.2,0.2,0.8","0.8,0.2,0.2,0.2,0.8,0.2,0.2,0.2,0.8","1","",""
"","html-keyboard-response","37","36267","0.0-37.0","3UNH76FOCTR5E0K3VS2PFHQ8I4HMYD","A2PEN75MMUA963","31D0ZWOD0AL5TKHZZFW9PF504XD0AR","","null","<img src=""img/land3.png"" style=""width:200px; border:14px solid green;"">","null","","","","","","","","","",""
"","image-keyboard-response","38","36730","0.0-38.0","3UNH76FOCTR5E0K3VS2PFHQ8I4HMYD","A2PEN75MMUA963","31D0ZWOD0AL5TKHZZFW9PF504XD0AR","","460","img/land3.png","76","461","3","1","3","1","0.8,0.2,0.2,0.2,0.8,0.2,0.2,0.2,0.8","0.8,0.2,0.2,0.2,0.8,0.2,0.2,0.2,0.8","1","",""
"","html-keyboard-response","39","37032","0.0-39.0","3UNH76FOCTR5E0K3VS2PFHQ8I4HMYD","A2PEN75MMUA963","31D0ZWOD0AL5TKHZZFW9PF504XD0AR","","null","<img src=""img/land3.png"" style=""width:200px; border:14px solid green;"">","null","","","","","","","","","",""
"","image-keyboard-response","40","37541","0.0-40.0","3UNH76FOCTR5E0K3VS2PFHQ8I4HMYD","A2PEN75MMUA963","31D0ZWOD0AL5TKHZZFW9PF504XD0AR","","507","img/land1.png","74","508","1","1","1","1","0.8,0.2,0.2,0.2,0.8,0.2,0.2,0.2,0.8","0.8,0.2,0.2,0.2,0.8,0.2,0.2,0.2,0.8","1","",""
"","html-keyboard-response","41","37844","0.0-41.0","3UNH76FOCTR5E0K3VS2PFHQ8I4HMYD","A2PEN75MMUA963","31D0ZWOD0AL5TKHZZFW9PF504XD0AR","","null","<img src=""img/land1.png"" style=""width:200px; border:14px solid green;"">","null","","","","","","","","","",""
"","image-keyboard-response","42","38525","0.0-42.0","3UNH76FOCTR5E0K3VS2PFHQ8I4HMYD","A2PEN75MMUA963","31D0ZWOD0AL5TKHZZFW9PF504XD0AR","","679","img/land3.png","76","681","3","0","3","1","0.8,0.2,0.2,0.2,0.8,0.2,0.2,0.2,0.8","0.8,0.2,0.2,0.2,0.8,0.2,0.2,0.2,0.8","1","",""
"","html-keyboard-response","43","38828","0.0-43.0","3UNH76FOCTR5E0K3VS2PFHQ8I4HMYD","A2PEN75MMUA963","31D0ZWOD0AL5TKHZZFW9PF504XD0AR","","null","<img src=""img/land3.png"" style=""width:200px;border:14px solid red;"">","null","","","","","","","","","",""
"","image-keyboard-response","44","39683","0.0-44.0","3UNH76FOCTR5E0K3VS2PFHQ8I4HMYD","A2PEN75MMUA963","31D0ZWOD0AL5TKHZZFW9PF504XD0AR","","853","img/land6.png","75","855","2","0","2","1","0.8,0.2,0.2,0.2,0.8,0.2,0.2,0.2,0.8","0.8,0.2,0.2,0.2,0.8,0.2,0.2,0.2,0.8","1","",""
"","html-keyboard-response","45","39987","0.0-45.0","3UNH76FOCTR5E0K3VS2PFHQ8I4HMYD","A2PEN75MMUA963","31D0ZWOD0AL5TKHZZFW9PF504XD0AR","","null","<img src=""img/land6.png"" style=""width:200px;border:14px solid red;"">","null","","","","","","","","","",""
"","image-keyboard-response","46","40518","0.0-46.0","3UNH76FOCTR5E0K3VS2PFHQ8I4HMYD","A2PEN75MMUA963","31D0ZWOD0AL5TKHZZFW9PF504XD0AR","","529","img/land1.png","74","531","1","1","1","1","0.8,0.2,0.2,0.2,0.8,0.2,0.2,0.2,0.8","0.8,0.2,0.2,0.2,0.8,0.2,0.2,0.2,0.8","1","",""
"","html-keyboard-response","47","40821","0.0-47.0","3UNH76FOCTR5E0K3VS2PFHQ8I4HMYD","A2PEN75MMUA963","31D0ZWOD0AL5TKHZZFW9PF504XD0AR","","null","<img src=""img/land1.png"" style=""width:200px; border:14px solid green;"">","null","","","","","","","","","",""
"","image-keyboard-response","48","41597","0.0-48.0","3UNH76FOCTR5E0K3VS2PFHQ8I4HMYD","A2PEN75MMUA963","31D0ZWOD0AL5TKHZZFW9PF504XD0AR","","774","img/land6.png","75","776","2","0","2","1","0.8,0.2,0.2,0.2,0.8,0.2,0.2,0.2,0.8","0.8,0.2,0.2,0.2,0.8,0.2,0.2,0.2,0.8","1","",""
"","html-keyboard-response","49","41900","0.0-49.0","3UNH76FOCTR5E0K3VS2PFHQ8I4HMYD","A2PEN75MMUA963","31D0ZWOD0AL5TKHZZFW9PF504XD0AR","","null","<img src=""img/land6.png"" style=""width:200px;border:14px solid red;"">","null","","","","","","","","","",""
"","image-keyboard-response","50","42423","0.0-50.0","3UNH76FOCTR5E0K3VS2PFHQ8I4HMYD","A2PEN75MMUA963","31D0ZWOD0AL5TKHZZFW9PF504XD0AR","","521","img/land1.png","74","523","1","1","1","1","0.8,0.2,0.2,0.2,0.8,0.2,0.2,0.2,0.8","0.8,0.2,0.2,0.2,0.8,0.2,0.2,0.2,0.8","1","",""
"","html-keyboard-response","51","42725","0.0-51.0","3UNH76FOCTR5E0K3VS2PFHQ8I4HMYD","A2PEN75MMUA963","31D0ZWOD0AL5TKHZZFW9PF504XD0AR","","null","<img src=""img/land1.png"" style=""width:200px; border:14px solid green;"">","null","","","","","","","","","",""
"","image-keyboard-response","52","43244","0.0-52.0","3UNH76FOCTR5E0K3VS2PFHQ8I4HMYD","A2PEN75MMUA963","31D0ZWOD0AL5TKHZZFW9PF504XD0AR","","518","img/land6.png","75","520","2","1","2","1","0.8,0.2,0.2,0.2,0.8,0.2,0.2,0.2,0.8","0.8,0.2,0.2,0.2,0.8,0.2,0.2,0.2,0.8","1","",""
"","html-keyboard-response","53","43548","0.0-53.0","3UNH76FOCTR5E0K3VS2PFHQ8I4HMYD","A2PEN75MMUA963","31D0ZWOD0AL5TKHZZFW9PF504XD0AR","","null","<img src=""img/land6.png"" style=""width:200px; border:14px solid green;"">","null","","","","","","","","","",""
"","image-keyboard-response","54","44090","0.0-54.0","3UNH76FOCTR5E0K3VS2PFHQ8I4HMYD","A2PEN75MMUA963","31D0ZWOD0AL5TKHZZFW9PF504XD0AR","","541","img/land6.png","75","542","2","0","2","1","0.8,0.2,0.2,0.2,0.8,0.2,0.2,0.2,0.8","0.8,0.2,0.2,0.2,0.8,0.2,0.2,0.2,0.8","1","",""
"","html-keyboard-response","55","44392","0.0-55.0","3UNH76FOCTR5E0K3VS2PFHQ8I4HMYD","A2PEN75MMUA963","31D0ZWOD0AL5TKHZZFW9PF504XD0AR","","null","<img src=""img/land6.png"" style=""width:200px;border:14px solid red;"">","null","","","","","","","","","",""
"","image-keyboard-response","56","45791","0.0-56.0","3UNH76FOCTR5E0K3VS2PFHQ8I4HMYD","A2PEN75MMUA963","31D0ZWOD0AL5TKHZZFW9PF504XD0AR","","1397","img/land6.png","75","1398","2","0","2","1","0.8,0.2,0.2,0.2,0.8,0.2,0.2,0.2,0.8","0.8,0.2,0.2,0.2,0.8,0.2,0.2,0.2,0.8","1","",""
"","html-keyboard-response","57","46094","0.0-57.0","3UNH76FOCTR5E0K3VS2PFHQ8I4HMYD","A2PEN75MMUA963","31D0ZWOD0AL5TKHZZFW9PF504XD0AR","","null","<img src=""img/land6.png"" style=""width:200px;border:14px solid red;"">","null","","","","","","","","","",""
"","image-keyboard-response","58","47288","0.0-58.0","3UNH76FOCTR5E0K3VS2PFHQ8I4HMYD","A2PEN75MMUA963","31D0ZWOD0AL5TKHZZFW9PF504XD0AR","","1192","img/land1.png","74","1193","1","1","1","1","0.8,0.2,0.2,0.2,0.8,0.2,0.2,0.2,0.8","0.8,0.2,0.2,0.2,0.8,0.2,0.2,0.2,0.8","1","",""
"","html-keyboard-response","59","47589","0.0-59.0","3UNH76FOCTR5E0K3VS2PFHQ8I4HMYD","A2PEN75MMUA963","31D0ZWOD0AL5TKHZZFW9PF504XD0AR","","null","<img src=""img/land1.png"" style=""width:200px; border:14px solid green;"">","null","","","","","","","","","",""
"","image-keyboard-response","60","48481","0.0-60.0","3UNH76FOCTR5E0K3VS2PFHQ8I4HMYD","A2PEN75MMUA963","31D0ZWOD0AL5TKHZZFW9PF504XD0AR","","890","img/land3.png","76","891","3","1","3","1","0.8,0.2,0.2,0.2,0.8,0.2,0.2,0.2,0.8","0.8,0.2,0.2,0.2,0.8,0.2,0.2,0.2,0.8","1","",""
"","html-keyboard-response","61","48785","0.0-61.0","3UNH76FOCTR5E0K3VS2PFHQ8I4HMYD","A2PEN75MMUA963","31D0ZWOD0AL5TKHZZFW9PF504XD0AR","","null","<img src=""img/land3.png"" style=""width:200px; border:14px solid green;"">","null","","","","","","","","","",""
"","image-keyboard-response","62","49469","0.0-62.0","3UNH76FOCTR5E0K3VS2PFHQ8I4HMYD","A2PEN75MMUA963","31D0ZWOD0AL5TKHZZFW9PF504XD0AR","","681","img/land1.png","74","682","1","1","1","1","0.8,0.2,0.2,0.2,0.8,0.2,0.2,0.2,0.8","0.8,0.2,0.2,0.2,0.8,0.2,0.2,0.2,0.8","1","",""
"","html-keyboard-response","63","49771","0.0-63.0","3UNH76FOCTR5E0K3VS2PFHQ8I4HMYD","A2PEN75MMUA963","31D0ZWOD0AL5TKHZZFW9PF504XD0AR","","null","<img src=""img/land1.png"" style=""width:200px; border:14px solid green;"">","null","","","","","","","","","",""
"","image-keyboard-response","64","50337","0.0-64.0","3UNH76FOCTR5E0K3VS2PFHQ8I4HMYD","A2PEN75MMUA963","31D0ZWOD0AL5TKHZZFW9PF504XD0AR","","564","img/land3.png","75","566","2","0","3","1","0.8,0.2,0.2,0.2,0.8,0.2,0.2,0.2,0.8","0.8,0.2,0.2,0.2,0.8,0.2,0.2,0.2,0.8","1","",""
"","html-keyboard-response","65","50640","0.0-65.0","3UNH76FOCTR5E0K3VS2PFHQ8I4HMYD","A2PEN75MMUA963","31D0ZWOD0AL5TKHZZFW9PF504XD0AR","","null","<img src=""img/land3.png"" style=""width:200px;border:14px solid red;"">","null","","","","","","","","","",""
"","image-keyboard-response","66","51296","0.0-66.0","3UNH76FOCTR5E0K3VS2PFHQ8I4HMYD","A2PEN75MMUA963","31D0ZWOD0AL5TKHZZFW9PF504XD0AR","","655","img/land6.png","75","656","2","0","2","1","0.8,0.2,0.2,0.2,0.8,0.2,0.2,0.2,0.8","0.8,0.2,0.2,0.2,0.8,0.2,0.2,0.2,0.8","1","",""
"","html-keyboard-response","67","51599","0.0-67.0","3UNH76FOCTR5E0K3VS2PFHQ8I4HMYD","A2PEN75MMUA963","31D0ZWOD0AL5TKHZZFW9PF504XD0AR","","null","<img src=""img/land6.png"" style=""width:200px;border:14px solid red;"">","null","","","","","","","","","",""
"","image-keyboard-response","68","52287","0.0-68.0","3UNH76FOCTR5E0K3VS2PFHQ8I4HMYD","A2PEN75MMUA963","31D0ZWOD0AL5TKHZZFW9PF504XD0AR","","684","img/land3.png","76","686","3","1","3","1","0.8,0.2,0.2,0.2,0.8,0.2,0.2,0.2,0.8","0.8,0.2,0.2,0.2,0.8,0.2,0.2,0.2,0.8","1","",""
"","html-keyboard-response","69","52590","0.0-69.0","3UNH76FOCTR5E0K3VS2PFHQ8I4HMYD","A2PEN75MMUA963","31D0ZWOD0AL5TKHZZFW9PF504XD0AR","","null","<img src=""img/land3.png"" style=""width:200px; border:14px solid green;"">","null","","","","","","","","","",""
"","image-keyboard-response","70","53131","0.0-70.0","3UNH76FOCTR5E0K3VS2PFHQ8I4HMYD","A2PEN75MMUA963","31D0ZWOD0AL5TKHZZFW9PF504XD0AR","","539","img/land6.png","74","541","1","0","2","1","0.8,0.2,0.2,0.2,0.8,0.2,0.2,0.2,0.8","0.8,0.2,0.2,0.2,0.8,0.2,0.2,0.2,0.8","1","",""
"","html-keyboard-response","71","53435","0.0-71.0","3UNH76FOCTR5E0K3VS2PFHQ8I4HMYD","A2PEN75MMUA963","31D0ZWOD0AL5TKHZZFW9PF504XD0AR","","null","<img src=""img/land6.png"" style=""width:200px;border:14px solid red;"">","null","","","","","","","","","",""
"","image-keyboard-response","72","54224","0.0-72.0","3UNH76FOCTR5E0K3VS2PFHQ8I4HMYD","A2PEN75MMUA963","31D0ZWOD0AL5TKHZZFW9PF504XD0AR","","787","img/land3.png","76","789","3","1","3","1","0.8,0.2,0.2,0.2,0.8,0.2,0.2,0.2,0.8","0.8,0.2,0.2,0.2,0.8,0.2,0.2,0.2,0.8","1","",""
"","html-keyboard-response","73","54526","0.0-73.0","3UNH76FOCTR5E0K3VS2PFHQ8I4HMYD","A2PEN75MMUA963","31D0ZWOD0AL5TKHZZFW9PF504XD0AR","","null","<img src=""img/land3.png"" style=""width:200px; border:14px solid green;"">","null","","","","","","","","","",""
"","image-keyboard-response","74","55142","0.0-74.0","3UNH76FOCTR5E0K3VS2PFHQ8I4HMYD","A2PEN75MMUA963","31D0ZWOD0AL5TKHZZFW9PF504XD0AR","","613","img/land1.png","74","615","1","1","1","1","0.8,0.2,0.2,0.2,0.8,0.2,0.2,0.2,0.8","0.8,0.2,0.2,0.2,0.8,0.2,0.2,0.2,0.8","1","",""
"","html-keyboard-response","75","55445","0.0-75.0","3UNH76FOCTR5E0K3VS2PFHQ8I4HMYD","A2PEN75MMUA963","31D0ZWOD0AL5TKHZZFW9PF504XD0AR","","null","<img src=""img/land1.png"" style=""width:200px; border:14px solid green;"">","null","","","","","","","","","",""
"","image-keyboard-response","76","55950","0.0-76.0","3UNH76FOCTR5E0K3VS2PFHQ8I4HMYD","A2PEN75MMUA963","31D0ZWOD0AL5TKHZZFW9PF504XD0AR","","503","img/land6.png","75","505","2","0","2","1","0.8,0.2,0.2,0.2,0.8,0.2,0.2,0.2,0.8","0.8,0.2,0.2,0.2,0.8,0.2,0.2,0.2,0.8","1","",""
"","html-keyboard-response","77","56253","0.0-77.0","3UNH76FOCTR5E0K3VS2PFHQ8I4HMYD","A2PEN75MMUA963","31D0ZWOD0AL5TKHZZFW9PF504XD0AR","","null","<img src=""img/land6.png"" style=""width:200px;border:14px solid red;"">","null","","","","","","","","","",""
"","image-keyboard-response","78","57047","0.0-78.0","3UNH76FOCTR5E0K3VS2PFHQ8I4HMYD","A2PEN75MMUA963","31D0ZWOD0AL5TKHZZFW9PF504XD0AR","","792","img/land3.png","76","794","3","1","3","1","0.8,0.2,0.2,0.2,0.8,0.2,0.2,0.2,0.8","0.8,0.2,0.2,0.2,0.8,0.2,0.2,0.2,0.8","1","",""
"","html-keyboard-response","79","57351","0.0-79.0","3UNH76FOCTR5E0K3VS2PFHQ8I4HMYD","A2PEN75MMUA963","31D0ZWOD0AL5TKHZZFW9PF504XD0AR","","null","<img src=""img/land3.png"" style=""width:200px; border:14px solid green;"">","null","","","","","","","","","",""
"","image-keyboard-response","80","58136","0.0-80.0","3UNH76FOCTR5E0K3VS2PFHQ8I4HMYD","A2PEN75MMUA963","31D0ZWOD0AL5TKHZZFW9PF504XD0AR","","784","img/land6.png","75","786","2","1","2","1","0.8,0.2,0.2,0.2,0.8,0.2,0.2,0.2,0.8","0.8,0.2,0.2,0.2,0.8,0.2,0.2,0.2,0.8","1","",""
"","html-keyboard-response","81","58439","0.0-81.0","3UNH76FOCTR5E0K3VS2PFHQ8I4HMYD","A2PEN75MMUA963","31D0ZWOD0AL5TKHZZFW9PF504XD0AR","","null","<img src=""img/land6.png"" style=""width:200px; border:14px solid green;"">","null","","","","","","","","","",""
"","image-keyboard-response","82","59149","0.0-82.0","3UNH76FOCTR5E0K3VS2PFHQ8I4HMYD","A2PEN75MMUA963","31D0ZWOD0AL5TKHZZFW9PF504XD0AR","","709","img/land1.png","74","710","1","1","1","1","0.8,0.2,0.2,0.2,0.8,0.2,0.2,0.2,0.8","0.8,0.2,0.2,0.2,0.8,0.2,0.2,0.2,0.8","1","",""
"","html-keyboard-response","83","59452","0.0-83.0","3UNH76FOCTR5E0K3VS2PFHQ8I4HMYD","A2PEN75MMUA963","31D0ZWOD0AL5TKHZZFW9PF504XD0AR","","null","<img src=""img/land1.png"" style=""width:200px; border:14px solid green;"">","null","","","","","","","","","",""
"","image-keyboard-response","84","60017","0.0-84.0","3UNH76FOCTR5E0K3VS2PFHQ8I4HMYD","A2PEN75MMUA963","31D0ZWOD0AL5TKHZZFW9PF504XD0AR","","562","img/land6.png","75","565","2","0","2","1","0.8,0.2,0.2,0.2,0.8,0.2,0.2,0.2,0.8","0.8,0.2,0.2,0.2,0.8,0.2,0.2,0.2,0.8","1","",""
"","html-keyboard-response","85","60318","0.0-85.0","3UNH76FOCTR5E0K3VS2PFHQ8I4HMYD","A2PEN75MMUA963","31D0ZWOD0AL5TKHZZFW9PF504XD0AR","","null","<img src=""img/land6.png"" style=""width:200px;border:14px solid red;"">","null","","","","","","","","","",""
"","image-keyboard-response","86","60968","0.0-86.0","3UNH76FOCTR5E0K3VS2PFHQ8I4HMYD","A2PEN75MMUA963","31D0ZWOD0AL5TKHZZFW9PF504XD0AR","","647","img/land1.png","76","650","3","0","1","1","0.8,0.2,0.2,0.2,0.8,0.2,0.2,0.2,0.8","0.8,0.2,0.2,0.2,0.8,0.2,0.2,0.2,0.8","1","",""
"","html-keyboard-response","87","61271","0.0-87.0","3UNH76FOCTR5E0K3VS2PFHQ8I4HMYD","A2PEN75MMUA963","31D0ZWOD0AL5TKHZZFW9PF504XD0AR","","null","<img src=""img/land1.png"" style=""width:200px;border:14px solid red;"">","null","","","","","","","","","",""
"","image-keyboard-response","88","63060","0.0-88.0","3UNH76FOCTR5E0K3VS2PFHQ8I4HMYD","A2PEN75MMUA963","31D0ZWOD0AL5TKHZZFW9PF504XD0AR","","1787","img/land3.png","76","1789","3","1","3","1","0.8,0.2,0.2,0.2,0.8,0.2,0.2,0.2,0.8","0.8,0.2,0.2,0.2,0.8,0.2,0.2,0.2,0.8","1","",""
"","html-keyboard-response","89","63364","0.0-89.0","3UNH76FOCTR5E0K3VS2PFHQ8I4HMYD","A2PEN75MMUA963","31D0ZWOD0AL5TKHZZFW9PF504XD0AR","","null","<img src=""img/land3.png"" style=""width:200px; border:14px solid green;"">","null","","","","","","","","","",""
"","image-keyboard-response","90","64001","0.0-90.0","3UNH76FOCTR5E0K3VS2PFHQ8I4HMYD","A2PEN75MMUA963","31D0ZWOD0AL5TKHZZFW9PF504XD0AR","","635","img/land6.png","75","637","2","1","2","1","0.8,0.2,0.2,0.2,0.8,0.2,0.2,0.2,0.8","0.8,0.2,0.2,0.2,0.8,0.2,0.2,0.2,0.8","1","",""
"","html-keyboard-response","91","64304","0.0-91.0","3UNH76FOCTR5E0K3VS2PFHQ8I4HMYD","A2PEN75MMUA963","31D0ZWOD0AL5TKHZZFW9PF504XD0AR","","null","<img src=""img/land6.png"" style=""width:200px; border:14px solid green;"">","null","","","","","","","","","",""
"","image-keyboard-response","92","65054","0.0-92.0","3UNH76FOCTR5E0K3VS2PFHQ8I4HMYD","A2PEN75MMUA963","31D0ZWOD0AL5TKHZZFW9PF504XD0AR","","748","img/land1.png","74","750","1","0","1","1","0.8,0.2,0.2,0.2,0.8,0.2,0.2,0.2,0.8","0.8,0.2,0.2,0.2,0.8,0.2,0.2,0.2,0.8","1","",""
"","html-keyboard-response","93","65365","0.0-93.0","3UNH76FOCTR5E0K3VS2PFHQ8I4HMYD","A2PEN75MMUA963","31D0ZWOD0AL5TKHZZFW9PF504XD0AR","","null","<img src=""img/land1.png"" style=""width:200px;border:14px solid red;"">","null","","","","","","","","","",""
"","image-keyboard-response","94","65982","0.0-94.0","3UNH76FOCTR5E0K3VS2PFHQ8I4HMYD","A2PEN75MMUA963","31D0ZWOD0AL5TKHZZFW9PF504XD0AR","","615","img/land6.png","75","616","2","1","2","1","0.8,0.2,0.2,0.2,0.8,0.2,0.2,0.2,0.8","0.8,0.2,0.2,0.2,0.8,0.2,0.2,0.2,0.8","1","",""
"","html-keyboard-response","95","66308","0.0-95.0","3UNH76FOCTR5E0K3VS2PFHQ8I4HMYD","A2PEN75MMUA963","31D0ZWOD0AL5TKHZZFW9PF504XD0AR","","null","<img src=""img/land6.png"" style=""width:200px; border:14px solid green;"">","null","","","","","","","","","",""
"","image-keyboard-response","96","66769","0.0-96.0","3UNH76FOCTR5E0K3VS2PFHQ8I4HMYD","A2PEN75MMUA963","31D0ZWOD0AL5TKHZZFW9PF504XD0AR","","455","img/land1.png","76","461","3","1","1","1","0.8,0.2,0.2,0.2,0.8,0.2,0.2,0.2,0.8","0.8,0.2,0.2,0.2,0.8,0.2,0.2,0.2,0.8","1","",""
"","html-keyboard-response","97","67077","0.0-97.0","3UNH76FOCTR5E0K3VS2PFHQ8I4HMYD","A2PEN75MMUA963","31D0ZWOD0AL5TKHZZFW9PF504XD0AR","","null","<img src=""img/land1.png"" style=""width:200px; border:14px solid green;"">","null","","","","","","","","","",""
"","image-keyboard-response","98","67752","0.0-98.0","3UNH76FOCTR5E0K3VS2PFHQ8I4HMYD","A2PEN75MMUA963","31D0ZWOD0AL5TKHZZFW9PF504XD0AR","","672","img/land3.png","76","674","3","1","3","1","0.8,0.2,0.2,0.2,0.8,0.2,0.2,0.2,0.8","0.8,0.2,0.2,0.2,0.8,0.2,0.2,0.2,0.8","1","",""
"","html-keyboard-response","99","68057","0.0-99.0","3UNH76FOCTR5E0K3VS2PFHQ8I4HMYD","A2PEN75MMUA963","31D0ZWOD0AL5TKHZZFW9PF504XD0AR","","null","<img src=""img/land3.png"" style=""width:200px; border:14px solid green;"">","null","","","","","","","","","",""
"","image-keyboard-response","100","68843","0.0-100.0","3UNH76FOCTR5E0K3VS2PFHQ8I4HMYD","A2PEN75MMUA963","31D0ZWOD0AL5TKHZZFW9PF504XD0AR","","783","img/land6.png","75","786","2","1","2","1","0.8,0.2,0.2,0.2,0.8,0.2,0.2,0.2,0.8","0.8,0.2,0.2,0.2,0.8,0.2,0.2,0.2,0.8","1","",""
"","html-keyboard-response","101","69146","0.0-101.0","3UNH76FOCTR5E0K3VS2PFHQ8I4HMYD","A2PEN75MMUA963","31D0ZWOD0AL5TKHZZFW9PF504XD0AR","","null","<img src=""img/land6.png"" style=""width:200px; border:14px solid green;"">","null","","","","","","","","","",""
"","image-keyboard-response","102","69779","0.0-102.0","3UNH76FOCTR5E0K3VS2PFHQ8I4HMYD","A2PEN75MMUA963","31D0ZWOD0AL5TKHZZFW9PF504XD0AR","","630","img/land1.png","74","632","1","1","1","1","0.8,0.2,0.2,0.2,0.8,0.2,0.2,0.2,0.8","0.8,0.2,0.2,0.2,0.8,0.2,0.2,0.2,0.8","1","",""
"","html-keyboard-response","103","70083","0.0-103.0","3UNH76FOCTR5E0K3VS2PFHQ8I4HMYD","A2PEN75MMUA963","31D0ZWOD0AL5TKHZZFW9PF504XD0AR","","null","<img src=""img/land1.png"" style=""width:200px; border:14px solid green;"">","null","","","","","","","","","",""
"","image-keyboard-response","104","70719","0.0-104.0","3UNH76FOCTR5E0K3VS2PFHQ8I4HMYD","A2PEN75MMUA963","31D0ZWOD0AL5TKHZZFW9PF504XD0AR","","634","img/land6.png","75","636","2","0","2","1","0.8,0.2,0.2,0.2,0.8,0.2,0.2,0.2,0.8","0.8,0.2,0.2,0.2,0.8,0.2,0.2,0.2,0.8","1","",""
"","html-keyboard-response","105","71021","0.0-105.0","3UNH76FOCTR5E0K3VS2PFHQ8I4HMYD","A2PEN75MMUA963","31D0ZWOD0AL5TKHZZFW9PF504XD0AR","","null","<img src=""img/land6.png"" style=""width:200px;border:14px solid red;"">","null","","","","","","","","","",""
"","image-keyboard-response","106","71507","0.0-106.0","3UNH76FOCTR5E0K3VS2PFHQ8I4HMYD","A2PEN75MMUA963","31D0ZWOD0AL5TKHZZFW9PF504XD0AR","","483","img/land6.png","75","486","2","1","2","1","0.8,0.2,0.2,0.2,0.8,0.2,0.2,0.2,0.8","0.8,0.2,0.2,0.2,0.8,0.2,0.2,0.2,0.8","1","",""
"","html-keyboard-response","107","71811","0.0-107.0","3UNH76FOCTR5E0K3VS2PFHQ8I4HMYD","A2PEN75MMUA963","31D0ZWOD0AL5TKHZZFW9PF504XD0AR","","null","<img src=""img/land6.png"" style=""width:200px; border:14px solid green;"">","null","","","","","","","","","",""
"","image-keyboard-response","108","72251","0.0-108.0","3UNH76FOCTR5E0K3VS2PFHQ8I4HMYD","A2PEN75MMUA963","31D0ZWOD0AL5TKHZZFW9PF504XD0AR","","439","img/land1.png","76","441","3","0","1","1","0.8,0.2,0.2,0.2,0.8,0.2,0.2,0.2,0.8","0.8,0.2,0.2,0.2,0.8,0.2,0.2,0.2,0.8","1","",""
"","html-keyboard-response","109","72553","0.0-109.0","3UNH76FOCTR5E0K3VS2PFHQ8I4HMYD","A2PEN75MMUA963","31D0ZWOD0AL5TKHZZFW9PF504XD0AR","","null","<img src=""img/land1.png"" style=""width:200px;border:14px solid red;"">","null","","","","","","","","","",""
"","image-keyboard-response","110","73334","0.0-110.0","3UNH76FOCTR5E0K3VS2PFHQ8I4HMYD","A2PEN75MMUA963","31D0ZWOD0AL5TKHZZFW9PF504XD0AR","","779","img/land6.png","75","781","2","1","2","1","0.8,0.2,0.2,0.2,0.8,0.2,0.2,0.2,0.8","0.8,0.2,0.2,0.2,0.8,0.2,0.2,0.2,0.8","1","",""
"","html-keyboard-response","111","73637","0.0-111.0","3UNH76FOCTR5E0K3VS2PFHQ8I4HMYD","A2PEN75MMUA963","31D0ZWOD0AL5TKHZZFW9PF504XD0AR","","null","<img src=""img/land6.png"" style=""width:200px; border:14px solid green;"">","null","","","","","","","","","",""
"","image-keyboard-response","112","74208","0.0-112.0","3UNH76FOCTR5E0K3VS2PFHQ8I4HMYD","A2PEN75MMUA963","31D0ZWOD0AL5TKHZZFW9PF504XD0AR","","569","img/land3.png","76","570","3","1","3","1","0.8,0.2,0.2,0.2,0.8,0.2,0.2,0.2,0.8","0.8,0.2,0.2,0.2,0.8,0.2,0.2,0.2,0.8","1","",""
"","html-keyboard-response","113","74512","0.0-113.0","3UNH76FOCTR5E0K3VS2PFHQ8I4HMYD","A2PEN75MMUA963","31D0ZWOD0AL5TKHZZFW9PF504XD0AR","","null","<img src=""img/land3.png"" style=""width:200px; border:14px solid green;"">","null","","","","","","","","","",""
"","image-keyboard-response","114","75044","0.0-114.0","3UNH76FOCTR5E0K3VS2PFHQ8I4HMYD","A2PEN75MMUA963","31D0ZWOD0AL5TKHZZFW9PF504XD0AR","","529","img/land3.png","75","531","2","1","3","1","0.8,0.2,0.2,0.2,0.8,0.2,0.2,0.2,0.8","0.8,0.2,0.2,0.2,0.8,0.2,0.2,0.2,0.8","1","",""
"","html-keyboard-response","115","75348","0.0-115.0","3UNH76FOCTR5E0K3VS2PFHQ8I4HMYD","A2PEN75MMUA963","31D0ZWOD0AL5TKHZZFW9PF504XD0AR","","null","<img src=""img/land3.png"" style=""width:200px; border:14px solid green;"">","null","","","","","","","","","",""
"","image-keyboard-response","116","75762","0.0-116.0","3UNH76FOCTR5E0K3VS2PFHQ8I4HMYD","A2PEN75MMUA963","31D0ZWOD0AL5TKHZZFW9PF504XD0AR","","411","img/land3.png","76","413","3","1","3","1","0.8,0.2,0.2,0.2,0.8,0.2,0.2,0.2,0.8","0.8,0.2,0.2,0.2,0.8,0.2,0.2,0.2,0.8","1","",""
"","html-keyboard-response","117","76065","0.0-117.0","3UNH76FOCTR5E0K3VS2PFHQ8I4HMYD","A2PEN75MMUA963","31D0ZWOD0AL5TKHZZFW9PF504XD0AR","","null","<img src=""img/land3.png"" style=""width:200px; border:14px solid green;"">","null","","","","","","","","","",""
"","image-keyboard-response","118","76837","0.0-118.0","3UNH76FOCTR5E0K3VS2PFHQ8I4HMYD","A2PEN75MMUA963","31D0ZWOD0AL5TKHZZFW9PF504XD0AR","","768","img/land1.png","74","771","1","1","1","1","0.8,0.2,0.2,0.2,0.8,0.2,0.2,0.2,0.8","0.8,0.2,0.2,0.2,0.8,0.2,0.2,0.2,0.8","1","",""
"","html-keyboard-response","119","77150","0.0-119.0","3UNH76FOCTR5E0K3VS2PFHQ8I4HMYD","A2PEN75MMUA963","31D0ZWOD0AL5TKHZZFW9PF504XD0AR","","null","<img src=""img/land1.png"" style=""width:200px; border:14px solid green;"">","null","","","","","","","","","",""
"","image-keyboard-response","120","77534","0.0-120.0","3UNH76FOCTR5E0K3VS2PFHQ8I4HMYD","A2PEN75MMUA963","31D0ZWOD0AL5TKHZZFW9PF504XD0AR","","382","img/land1.png","74","384","1","1","1","1","0.8,0.2,0.2,0.2,0.8,0.2,0.2,0.2,0.8","0.8,0.2,0.2,0.2,0.8,0.2,0.2,0.2,0.8","1","",""
"","html-keyboard-response","121","77837","0.0-121.0","3UNH76FOCTR5E0K3VS2PFHQ8I4HMYD","A2PEN75MMUA963","31D0ZWOD0AL5TKHZZFW9PF504XD0AR","","null","<img src=""img/land1.png"" style=""width:200px; border:14px solid green;"">","null","","","","","","","","","",""
"","image-keyboard-response","122","78396","0.0-122.0","3UNH76FOCTR5E0K3VS2PFHQ8I4HMYD","A2PEN75MMUA963","31D0ZWOD0AL5TKHZZFW9PF504XD0AR","","559","img/land6.png","75","560","2","0","2","1","0.8,0.2,0.2,0.2,0.8,0.2,0.2,0.2,0.8","0.8,0.2,0.2,0.2,0.8,0.2,0.2,0.2,0.8","1","",""
"","html-keyboard-response","123","78698","0.0-123.0","3UNH76FOCTR5E0K3VS2PFHQ8I4HMYD","A2PEN75MMUA963","31D0ZWOD0AL5TKHZZFW9PF504XD0AR","","null","<img src=""img/land6.png"" style=""width:200px;border:14px solid red;"">","null","","","","","","","","","",""
"","image-keyboard-response","124","79314","0.0-124.0","3UNH76FOCTR5E0K3VS2PFHQ8I4HMYD","A2PEN75MMUA963","31D0ZWOD0AL5TKHZZFW9PF504XD0AR","","614","img/land3.png","76","615","3","1","3","1","0.8,0.2,0.2,0.2,0.8,0.2,0.2,0.2,0.8","0.8,0.2,0.2,0.2,0.8,0.2,0.2,0.2,0.8","1","",""
"","html-keyboard-response","125","79616","0.0-125.0","3UNH76FOCTR5E0K3VS2PFHQ8I4HMYD","A2PEN75MMUA963","31D0ZWOD0AL5TKHZZFW9PF504XD0AR","","null","<img src=""img/land3.png"" style=""width:200px; border:14px solid green;"">","null","","","","","","","","","",""
"","image-keyboard-response","126","80100","0.0-126.0","3UNH76FOCTR5E0K3VS2PFHQ8I4HMYD","A2PEN75MMUA963","31D0ZWOD0AL5TKHZZFW9PF504XD0AR","","481","img/land3.png","76","482","3","1","3","1","0.8,0.2,0.2,0.2,0.8,0.2,0.2,0.2,0.8","0.8,0.2,0.2,0.2,0.8,0.2,0.2,0.2,0.8","1","",""
"","html-keyboard-response","127","80403","0.0-127.0","3UNH76FOCTR5E0K3VS2PFHQ8I4HMYD","A2PEN75MMUA963","31D0ZWOD0AL5TKHZZFW9PF504XD0AR","","null","<img src=""img/land3.png"" style=""width:200px; border:14px solid green;"">","null","","","","","","","","","",""
"","image-keyboard-response","128","80850","0.0-128.0","3UNH76FOCTR5E0K3VS2PFHQ8I4HMYD","A2PEN75MMUA963","31D0ZWOD0AL5TKHZZFW9PF504XD0AR","","444","img/land3.png","76","446","3","0","3","1","0.8,0.2,0.2,0.2,0.8,0.2,0.2,0.2,0.8","0.8,0.2,0.2,0.2,0.8,0.2,0.2,0.2,0.8","1","",""
"","html-keyboard-response","129","81153","0.0-129.0","3UNH76FOCTR5E0K3VS2PFHQ8I4HMYD","A2PEN75MMUA963","31D0ZWOD0AL5TKHZZFW9PF504XD0AR","","null","<img src=""img/land3.png"" style=""width:200px;border:14px solid red;"">","null","","","","","","","","","",""
"","image-keyboard-response","130","81591","0.0-130.0","3UNH76FOCTR5E0K3VS2PFHQ8I4HMYD","A2PEN75MMUA963","31D0ZWOD0AL5TKHZZFW9PF504XD0AR","","436","img/land3.png","76","438","3","1","3","1","0.8,0.2,0.2,0.2,0.8,0.2,0.2,0.2,0.8","0.8,0.2,0.2,0.2,0.8,0.2,0.2,0.2,0.8","1","",""
"","html-keyboard-response","131","81895","0.0-131.0","3UNH76FOCTR5E0K3VS2PFHQ8I4HMYD","A2PEN75MMUA963","31D0ZWOD0AL5TKHZZFW9PF504XD0AR","","null","<img src=""img/land3.png"" style=""width:200px; border:14px solid green;"">","null","","","","","","","","","",""
"","image-keyboard-response","132","82682","0.0-132.0","3UNH76FOCTR5E0K3VS2PFHQ8I4HMYD","A2PEN75MMUA963","31D0ZWOD0AL5TKHZZFW9PF504XD0AR","","785","img/land1.png","74","787","1","1","1","1","0.8,0.2,0.2,0.2,0.8,0.2,0.2,0.2,0.8","0.8,0.2,0.2,0.2,0.8,0.2,0.2,0.2,0.8","1","",""
"","html-keyboard-response","133","82985","0.0-133.0","3UNH76FOCTR5E0K3VS2PFHQ8I4HMYD","A2PEN75MMUA963","31D0ZWOD0AL5TKHZZFW9PF504XD0AR","","null","<img src=""img/land1.png"" style=""width:200px; border:14px solid green;"">","null","","","","","","","","","",""
"","image-keyboard-response","134","83654","0.0-134.0","3UNH76FOCTR5E0K3VS2PFHQ8I4HMYD","A2PEN75MMUA963","31D0ZWOD0AL5TKHZZFW9PF504XD0AR","","667","img/land6.png","75","668","2","0","2","1","0.8,0.2,0.2,0.2,0.8,0.2,0.2,0.2,0.8","0.8,0.2,0.2,0.2,0.8,0.2,0.2,0.2,0.8","1","",""
"","html-keyboard-response","135","83958","0.0-135.0","3UNH76FOCTR5E0K3VS2PFHQ8I4HMYD","A2PEN75MMUA963","31D0ZWOD0AL5TKHZZFW9PF504XD0AR","","null","<img src=""img/land6.png"" style=""width:200px;border:14px solid red;"">","null","","","","","","","","","",""
"","image-keyboard-response","136","84445","0.0-136.0","3UNH76FOCTR5E0K3VS2PFHQ8I4HMYD","A2PEN75MMUA963","31D0ZWOD0AL5TKHZZFW9PF504XD0AR","","484","img/land3.png","76","486","3","0","3","1","0.8,0.2,0.2,0.2,0.8,0.2,0.2,0.2,0.8","0.8,0.2,0.2,0.2,0.8,0.2,0.2,0.2,0.8","1","",""
"","html-keyboard-response","137","84748","0.0-137.0","3UNH76FOCTR5E0K3VS2PFHQ8I4HMYD","A2PEN75MMUA963","31D0ZWOD0AL5TKHZZFW9PF504XD0AR","","null","<img src=""img/land3.png"" style=""width:200px;border:14px solid red;"">","null","","","","","","","","","",""
"","image-keyboard-response","138","85153","0.0-138.0","3UNH76FOCTR5E0K3VS2PFHQ8I4HMYD","A2PEN75MMUA963","31D0ZWOD0AL5TKHZZFW9PF504XD0AR","","405","img/land3.png","76","406","3","1","3","1","0.8,0.2,0.2,0.2,0.8,0.2,0.2,0.2,0.8","0.8,0.2,0.2,0.2,0.8,0.2,0.2,0.2,0.8","1","",""
"","html-keyboard-response","139","85455","0.0-139.0","3UNH76FOCTR5E0K3VS2PFHQ8I4HMYD","A2PEN75MMUA963","31D0ZWOD0AL5TKHZZFW9PF504XD0AR","","null","<img src=""img/land3.png"" style=""width:200px; border:14px solid green;"">","null","","","","","","","","","",""
"","image-keyboard-response","140","86021","0.0-140.0","3UNH76FOCTR5E0K3VS2PFHQ8I4HMYD","A2PEN75MMUA963","31D0ZWOD0AL5TKHZZFW9PF504XD0AR","","563","img/land1.png","74","565","1","1","1","1","0.8,0.2,0.2,0.2,0.8,0.2,0.2,0.2,0.8","0.8,0.2,0.2,0.2,0.8,0.2,0.2,0.2,0.8","1","",""
"","html-keyboard-response","141","86324","0.0-141.0","3UNH76FOCTR5E0K3VS2PFHQ8I4HMYD","A2PEN75MMUA963","31D0ZWOD0AL5TKHZZFW9PF504XD0AR","","null","<img src=""img/land1.png"" style=""width:200px; border:14px solid green;"">","null","","","","","","","","","",""
"","image-keyboard-response","142","86933","0.0-142.0","3UNH76FOCTR5E0K3VS2PFHQ8I4HMYD","A2PEN75MMUA963","31D0ZWOD0AL5TKHZZFW9PF504XD0AR","","607","img/land6.png","75","610","2","0","2","1","0.8,0.2,0.2,0.2,0.8,0.2,0.2,0.2,0.8","0.8,0.2,0.2,0.2,0.8,0.2,0.2,0.2,0.8","1","",""
"","html-keyboard-response","143","87236","0.0-143.0","3UNH76FOCTR5E0K3VS2PFHQ8I4HMYD","A2PEN75MMUA963","31D0ZWOD0AL5TKHZZFW9PF504XD0AR","","null","<img src=""img/land6.png"" style=""width:200px;border:14px solid red;"">","null","","","","","","","","","",""
"","image-keyboard-response","144","87634","0.0-144.0","3UNH76FOCTR5E0K3VS2PFHQ8I4HMYD","A2PEN75MMUA963","31D0ZWOD0AL5TKHZZFW9PF504XD0AR","","397","img/land6.png","75","399","2","1","2","1","0.8,0.2,0.2,0.2,0.8,0.2,0.2,0.2,0.8","0.8,0.2,0.2,0.2,0.8,0.2,0.2,0.2,0.8","1","",""
"","html-keyboard-response","145","87938","0.0-145.0","3UNH76FOCTR5E0K3VS2PFHQ8I4HMYD","A2PEN75MMUA963","31D0ZWOD0AL5TKHZZFW9PF504XD0AR","","null","<img src=""img/land6.png"" style=""width:200px; border:14px solid green;"">","null","","","","","","","","","",""
"","image-keyboard-response","146","88605","0.0-146.0","3UNH76FOCTR5E0K3VS2PFHQ8I4HMYD","A2PEN75MMUA963","31D0ZWOD0AL5TKHZZFW9PF504XD0AR","","664","img/land3.png","76","666","3","1","3","1","0.8,0.2,0.2,0.2,0.8,0.2,0.2,0.2,0.8","0.8,0.2,0.2,0.2,0.8,0.2,0.2,0.2,0.8","1","",""
"","html-keyboard-response","147","88907","0.0-147.0","3UNH76FOCTR5E0K3VS2PFHQ8I4HMYD","A2PEN75MMUA963","31D0ZWOD0AL5TKHZZFW9PF504XD0AR","","null","<img src=""img/land3.png"" style=""width:200px; border:14px solid green;"">","null","","","","","","","","","",""
"","image-keyboard-response","148","89280","0.0-148.0","3UNH76FOCTR5E0K3VS2PFHQ8I4HMYD","A2PEN75MMUA963","31D0ZWOD0AL5TKHZZFW9PF504XD0AR","","369","img/land3.png","76","371","3","1","3","1","0.8,0.2,0.2,0.2,0.8,0.2,0.2,0.2,0.8","0.8,0.2,0.2,0.2,0.8,0.2,0.2,0.2,0.8","1","",""
"","html-keyboard-response","149","89582","0.0-149.0","3UNH76FOCTR5E0K3VS2PFHQ8I4HMYD","A2PEN75MMUA963","31D0ZWOD0AL5TKHZZFW9PF504XD0AR","","null","<img src=""img/land3.png"" style=""width:200px; border:14px solid green;"">","null","","","","","","","","","",""
"","image-keyboard-response","150","90412","0.0-150.0","3UNH76FOCTR5E0K3VS2PFHQ8I4HMYD","A2PEN75MMUA963","31D0ZWOD0AL5TKHZZFW9PF504XD0AR","","828","img/land6.png","75","830","2","1","2","1","0.8,0.2,0.2,0.2,0.8,0.2,0.2,0.2,0.8","0.8,0.2,0.2,0.2,0.8,0.2,0.2,0.2,0.8","1","",""
"","html-keyboard-response","151","90715","0.0-151.0","3UNH76FOCTR5E0K3VS2PFHQ8I4HMYD","A2PEN75MMUA963","31D0ZWOD0AL5TKHZZFW9PF504XD0AR","","null","<img src=""img/land6.png"" style=""width:200px; border:14px solid green;"">","null","","","","","","","","","",""
"","image-keyboard-response","152","91060","0.0-152.0","3UNH76FOCTR5E0K3VS2PFHQ8I4HMYD","A2PEN75MMUA963","31D0ZWOD0AL5TKHZZFW9PF504XD0AR","","343","img/land6.png","75","345","2","1","2","1","0.8,0.2,0.2,0.2,0.8,0.2,0.2,0.2,0.8","0.8,0.2,0.2,0.2,0.8,0.2,0.2,0.2,0.8","1","",""
"","html-keyboard-response","153","91364","0.0-153.0","3UNH76FOCTR5E0K3VS2PFHQ8I4HMYD","A2PEN75MMUA963","31D0ZWOD0AL5TKHZZFW9PF504XD0AR","","null","<img src=""img/land6.png"" style=""width:200px; border:14px solid green;"">","null","","","","","","","","","",""
"","image-keyboard-response","154","92153","0.0-154.0","3UNH76FOCTR5E0K3VS2PFHQ8I4HMYD","A2PEN75MMUA963","31D0ZWOD0AL5TKHZZFW9PF504XD0AR","","787","img/land1.png","74","789","1","1","1","1","0.8,0.2,0.2,0.2,0.8,0.2,0.2,0.2,0.8","0.8,0.2,0.2,0.2,0.8,0.2,0.2,0.2,0.8","1","",""
"","html-keyboard-response","155","92457","0.0-155.0","3UNH76FOCTR5E0K3VS2PFHQ8I4HMYD","A2PEN75MMUA963","31D0ZWOD0AL5TKHZZFW9PF504XD0AR","","null","<img src=""img/land1.png"" style=""width:200px; border:14px solid green;"">","null","","","","","","","","","",""
"","image-keyboard-response","156","92930","0.0-156.0","3UNH76FOCTR5E0K3VS2PFHQ8I4HMYD","A2PEN75MMUA963","31D0ZWOD0AL5TKHZZFW9PF504XD0AR","","470","img/land3.png","76","472","3","1","3","1","0.8,0.2,0.2,0.2,0.8,0.2,0.2,0.2,0.8","0.8,0.2,0.2,0.2,0.8,0.2,0.2,0.2,0.8","1","",""
"","html-keyboard-response","157","93233","0.0-157.0","3UNH76FOCTR5E0K3VS2PFHQ8I4HMYD","A2PEN75MMUA963","31D0ZWOD0AL5TKHZZFW9PF504XD0AR","","null","<img src=""img/land3.png"" style=""width:200px; border:14px solid green;"">","null","","","","","","","","","",""
"","image-keyboard-response","158","93784","0.0-158.0","3UNH76FOCTR5E0K3VS2PFHQ8I4HMYD","A2PEN75MMUA963","31D0ZWOD0AL5TKHZZFW9PF504XD0AR","","549","img/land1.png","74","550","1","0","1","1","0.8,0.2,0.2,0.2,0.8,0.2,0.2,0.2,0.8","0.8,0.2,0.2,0.2,0.8,0.2,0.2,0.2,0.8","1","",""
"","html-keyboard-response","159","94087","0.0-159.0","3UNH76FOCTR5E0K3VS2PFHQ8I4HMYD","A2PEN75MMUA963","31D0ZWOD0AL5TKHZZFW9PF504XD0AR","","null","<img src=""img/land1.png"" style=""width:200px;border:14px solid red;"">","null","","","","","","","","","",""
"","image-keyboard-response","160","94593","0.0-160.0","3UNH76FOCTR5E0K3VS2PFHQ8I4HMYD","A2PEN75MMUA963","31D0ZWOD0AL5TKHZZFW9PF504XD0AR","","504","img/land6.png","75","506","2","1","2","1","0.8,0.2,0.2,0.2,0.8,0.2,0.2,0.2,0.8","0.8,0.2,0.2,0.2,0.8,0.2,0.2,0.2,0.8","1","",""
"","html-keyboard-response","161","94896","0.0-161.0","3UNH76FOCTR5E0K3VS2PFHQ8I4HMYD","A2PEN75MMUA963","31D0ZWOD0AL5TKHZZFW9PF504XD0AR","","null","<img src=""img/land6.png"" style=""width:200px; border:14px solid green;"">","null","","","","","","","","","",""
"","image-keyboard-response","162","95479","0.0-162.0","3UNH76FOCTR5E0K3VS2PFHQ8I4HMYD","A2PEN75MMUA963","31D0ZWOD0AL5TKHZZFW9PF504XD0AR","","581","img/land6.png","75","582","2","1","2","1","0.8,0.2,0.2,0.2,0.8,0.2,0.2,0.2,0.8","0.8,0.2,0.2,0.2,0.8,0.2,0.2,0.2,0.8","1","",""
"","html-keyboard-response","163","95782","0.0-163.0","3UNH76FOCTR5E0K3VS2PFHQ8I4HMYD","A2PEN75MMUA963","31D0ZWOD0AL5TKHZZFW9PF504XD0AR","","null","<img src=""img/land6.png"" style=""width:200px; border:14px solid green;"">","null","","","","","","","","","",""
"","image-keyboard-response","164","96240","0.0-164.0","3UNH76FOCTR5E0K3VS2PFHQ8I4HMYD","A2PEN75MMUA963","31D0ZWOD0AL5TKHZZFW9PF504XD0AR","","456","img/land1.png","76","458","3","0","1","1","0.8,0.2,0.2,0.2,0.8,0.2,0.2,0.2,0.8","0.8,0.2,0.2,0.2,0.8,0.2,0.2,0.2,0.8","1","",""
"","html-keyboard-response","165","96543","0.0-165.0","3UNH76FOCTR5E0K3VS2PFHQ8I4HMYD","A2PEN75MMUA963","31D0ZWOD0AL5TKHZZFW9PF504XD0AR","","null","<img src=""img/land1.png"" style=""width:200px;border:14px solid red;"">","null","","","","","","","","","",""
"","image-keyboard-response","166","96897","0.0-166.0","3UNH76FOCTR5E0K3VS2PFHQ8I4HMYD","A2PEN75MMUA963","31D0ZWOD0AL5TKHZZFW9PF504XD0AR","","350","img/land1.png","74","352","1","1","1","1","0.8,0.2,0.2,0.2,0.8,0.2,0.2,0.2,0.8","0.8,0.2,0.2,0.2,0.8,0.2,0.2,0.2,0.8","1","",""
"","html-keyboard-response","167","97199","0.0-167.0","3UNH76FOCTR5E0K3VS2PFHQ8I4HMYD","A2PEN75MMUA963","31D0ZWOD0AL5TKHZZFW9PF504XD0AR","","null","<img src=""img/land1.png"" style=""width:200px; border:14px solid green;"">","null","","","","","","","","","",""
"","image-keyboard-response","168","97839","0.0-168.0","3UNH76FOCTR5E0K3VS2PFHQ8I4HMYD","A2PEN75MMUA963","31D0ZWOD0AL5TKHZZFW9PF504XD0AR","","638","img/land3.png","76","640","3","1","3","1","0.8,0.2,0.2,0.2,0.8,0.2,0.2,0.2,0.8","0.8,0.2,0.2,0.2,0.8,0.2,0.2,0.2,0.8","1","",""
"","html-keyboard-response","169","98142","0.0-169.0","3UNH76FOCTR5E0K3VS2PFHQ8I4HMYD","A2PEN75MMUA963","31D0ZWOD0AL5TKHZZFW9PF504XD0AR","","null","<img src=""img/land3.png"" style=""width:200px; border:14px solid green;"">","null","","","","","","","","","",""
"","image-keyboard-response","170","98597","0.0-170.0","3UNH76FOCTR5E0K3VS2PFHQ8I4HMYD","A2PEN75MMUA963","31D0ZWOD0AL5TKHZZFW9PF504XD0AR","","454","img/land3.png","76","455","3","1","3","1","0.8,0.2,0.2,0.2,0.8,0.2,0.2,0.2,0.8","0.8,0.2,0.2,0.2,0.8,0.2,0.2,0.2,0.8","1","",""
"","html-keyboard-response","171","98900","0.0-171.0","3UNH76FOCTR5E0K3VS2PFHQ8I4HMYD","A2PEN75MMUA963","31D0ZWOD0AL5TKHZZFW9PF504XD0AR","","null","<img src=""img/land3.png"" style=""width:200px; border:14px solid green;"">","null","","","","","","","","","",""
"","image-keyboard-response","172","99643","0.0-172.0","3UNH76FOCTR5E0K3VS2PFHQ8I4HMYD","A2PEN75MMUA963","31D0ZWOD0AL5TKHZZFW9PF504XD0AR","","741","img/land6.png","75","742","2","1","2","1","0.8,0.2,0.2,0.2,0.8,0.2,0.2,0.2,0.8","0.8,0.2,0.2,0.2,0.8,0.2,0.2,0.2,0.8","1","",""
"","html-keyboard-response","173","99946","0.0-173.0","3UNH76FOCTR5E0K3VS2PFHQ8I4HMYD","A2PEN75MMUA963","31D0ZWOD0AL5TKHZZFW9PF504XD0AR","","null","<img src=""img/land6.png"" style=""width:200px; border:14px solid green;"">","null","","","","","","","","","",""
"","image-keyboard-response","174","100516","0.0-174.0","3UNH76FOCTR5E0K3VS2PFHQ8I4HMYD","A2PEN75MMUA963","31D0ZWOD0AL5TKHZZFW9PF504XD0AR","","567","img/land3.png","76","570","3","1","3","1","0.8,0.2,0.2,0.2,0.8,0.2,0.2,0.2,0.8","0.8,0.2,0.2,0.2,0.8,0.2,0.2,0.2,0.8","1","",""
"","html-keyboard-response","175","100818","0.0-175.0","3UNH76FOCTR5E0K3VS2PFHQ8I4HMYD","A2PEN75MMUA963","31D0ZWOD0AL5TKHZZFW9PF504XD0AR","","null","<img src=""img/land3.png"" style=""width:200px; border:14px solid green;"">","null","","","","","","","","","",""
"","image-keyboard-response","176","101388","0.0-176.0","3UNH76FOCTR5E0K3VS2PFHQ8I4HMYD","A2PEN75MMUA963","31D0ZWOD0AL5TKHZZFW9PF504XD0AR","","569","img/land1.png","75","570","2","0","1","1","0.8,0.2,0.2,0.2,0.8,0.2,0.2,0.2,0.8","0.8,0.2,0.2,0.2,0.8,0.2,0.2,0.2,0.8","1","",""
"","html-keyboard-response","177","101691","0.0-177.0","3UNH76FOCTR5E0K3VS2PFHQ8I4HMYD","A2PEN75MMUA963","31D0ZWOD0AL5TKHZZFW9PF504XD0AR","","null","<img src=""img/land1.png"" style=""width:200px;border:14px solid red;"">","null","","","","","","","","","",""
"","image-keyboard-response","178","101955","0.0-178.0","3UNH76FOCTR5E0K3VS2PFHQ8I4HMYD","A2PEN75MMUA963","31D0ZWOD0AL5TKHZZFW9PF504XD0AR","","261","img/land6.png","74","263","1","0","2","1","0.8,0.2,0.2,0.2,0.8,0.2,0.2,0.2,0.8","0.8,0.2,0.2,0.2,0.8,0.2,0.2,0.2,0.8","1","",""
"","html-keyboard-response","179","102258","0.0-179.0","3UNH76FOCTR5E0K3VS2PFHQ8I4HMYD","A2PEN75MMUA963","31D0ZWOD0AL5TKHZZFW9PF504XD0AR","","null","<img src=""img/land6.png"" style=""width:200px;border:14px solid red;"">","null","","","","","","","","","",""
"","image-keyboard-response","180","102423","0.0-180.0","3UNH76FOCTR5E0K3VS2PFHQ8I4HMYD","A2PEN75MMUA963","31D0ZWOD0AL5TKHZZFW9PF504XD0AR","","163","img/land1.png","75","165","2","0","1","1","0.8,0.2,0.2,0.2,0.8,0.2,0.2,0.2,0.8","0.8,0.2,0.2,0.2,0.8,0.2,0.2,0.2,0.8","1","",""
"","html-keyboard-response","181","102726","0.0-181.0","3UNH76FOCTR5E0K3VS2PFHQ8I4HMYD","A2PEN75MMUA963","31D0ZWOD0AL5TKHZZFW9PF504XD0AR","","null","<img src=""img/land1.png"" style=""width:200px;border:14px solid red;"">","null","","","","","","","","","",""
"","html-keyboard-response","182","105546","0.0-182.0","3UNH76FOCTR5E0K3VS2PFHQ8I4HMYD","A2PEN75MMUA963","31D0ZWOD0AL5TKHZZFW9PF504XD0AR","","","","","","","","","","","","","",""
"","image-keyboard-response","183","107552","0.0-183.0","3UNH76FOCTR5E0K3VS2PFHQ8I4HMYD","A2PEN75MMUA963","31D0ZWOD0AL5TKHZZFW9PF504XD0AR","","","img/land2.png","","2006","-1","0","1","2","0.8,0.2,0.2,0.2,0.8,0.2,0.2,0.2,0.8","0.8,0.2,0.2,0.2,0.8,0.2,0.2,0.2,0.8","1","",""
"","html-keyboard-response","184","107855","0.0-184.0","3UNH76FOCTR5E0K3VS2PFHQ8I4HMYD","A2PEN75MMUA963","31D0ZWOD0AL5TKHZZFW9PF504XD0AR","","null","<img src=""img/land2.png"" style=""width:200px;border:14px solid red;"">","null","","","","","","","","","",""
"","image-keyboard-response","185","107862","0.0-185.0","3UNH76FOCTR5E0K3VS2PFHQ8I4HMYD","A2PEN75MMUA963","31D0ZWOD0AL5TKHZZFW9PF504XD0AR","","4","img/land2.png","75","5","2","1","1","2","0.8,0.2,0.2,0.2,0.8,0.2,0.2,0.2,0.8","0.8,0.2,0.2,0.2,0.8,0.2,0.2,0.2,0.8","1","",""
"","html-keyboard-response","186","108166","0.0-186.0","3UNH76FOCTR5E0K3VS2PFHQ8I4HMYD","A2PEN75MMUA963","31D0ZWOD0AL5TKHZZFW9PF504XD0AR","","null","<img src=""img/land2.png"" style=""width:200px; border:14px solid green;"">","null","","","","","","","","","",""
"","image-keyboard-response","187","108718","0.0-187.0","3UNH76FOCTR5E0K3VS2PFHQ8I4HMYD","A2PEN75MMUA963","31D0ZWOD0AL5TKHZZFW9PF504XD0AR","","550","img/land2.png","75","551","2","0","1","2","0.8,0.2,0.2,0.2,0.8,0.2,0.2,0.2,0.8","0.8,0.2,0.2,0.2,0.8,0.2,0.2,0.2,0.8","1","",""
"","html-keyboard-response","188","109019","0.0-188.0","3UNH76FOCTR5E0K3VS2PFHQ8I4HMYD","A2PEN75MMUA963","31D0ZWOD0AL5TKHZZFW9PF504XD0AR","","null","<img src=""img/land2.png"" style=""width:200px;border:14px solid red;"">","null","","","","","","","","","",""
"","image-keyboard-response","189","109415","0.0-189.0","3UNH76FOCTR5E0K3VS2PFHQ8I4HMYD","A2PEN75MMUA963","31D0ZWOD0AL5TKHZZFW9PF504XD0AR","","395","img/land2.png","75","395","2","0","1","2","0.8,0.2,0.2,0.2,0.8,0.2,0.2,0.2,0.8","0.8,0.2,0.2,0.2,0.8,0.2,0.2,0.2,0.8","1","",""
"","html-keyboard-response","190","109719","0.0-190.0","3UNH76FOCTR5E0K3VS2PFHQ8I4HMYD","A2PEN75MMUA963","31D0ZWOD0AL5TKHZZFW9PF504XD0AR","","null","<img src=""img/land2.png"" style=""width:200px;border:14px solid red;"">","null","","","","","","","","","",""
"","image-keyboard-response","191","110130","0.0-191.0","3UNH76FOCTR5E0K3VS2PFHQ8I4HMYD","A2PEN75MMUA963","31D0ZWOD0AL5TKHZZFW9PF504XD0AR","","410","img/land2.png","75","411","2","0","1","2","0.8,0.2,0.2,0.2,0.8,0.2,0.2,0.2,0.8","0.8,0.2,0.2,0.2,0.8,0.2,0.2,0.2,0.8","1","",""
"","html-keyboard-response","192","110432","0.0-192.0","3UNH76FOCTR5E0K3VS2PFHQ8I4HMYD","A2PEN75MMUA963","31D0ZWOD0AL5TKHZZFW9PF504XD0AR","","null","<img src=""img/land2.png"" style=""width:200px;border:14px solid red;"">","null","","","","","","","","","",""
"","image-keyboard-response","193","111478","0.0-193.0","3UNH76FOCTR5E0K3VS2PFHQ8I4HMYD","A2PEN75MMUA963","31D0ZWOD0AL5TKHZZFW9PF504XD0AR","","1043","img/land5.png","74","1045","1","0","2","2","0.8,0.2,0.2,0.2,0.8,0.2,0.2,0.2,0.8","0.8,0.2,0.2,0.2,0.8,0.2,0.2,0.2,0.8","1","",""
"","html-keyboard-response","194","111781","0.0-194.0","3UNH76FOCTR5E0K3VS2PFHQ8I4HMYD","A2PEN75MMUA963","31D0ZWOD0AL5TKHZZFW9PF504XD0AR","","null","<img src=""img/land5.png"" style=""width:200px;border:14px solid red;"">","null","","","","","","","","","",""
"","image-keyboard-response","195","112413","0.0-195.0","3UNH76FOCTR5E0K3VS2PFHQ8I4HMYD","A2PEN75MMUA963","31D0ZWOD0AL5TKHZZFW9PF504XD0AR","","629","img/land4.png","76","631","3","1","3","2","0.8,0.2,0.2,0.2,0.8,0.2,0.2,0.2,0.8","0.8,0.2,0.2,0.2,0.8,0.2,0.2,0.2,0.8","1","",""
"","html-keyboard-response","196","112715","0.0-196.0","3UNH76FOCTR5E0K3VS2PFHQ8I4HMYD","A2PEN75MMUA963","31D0ZWOD0AL5TKHZZFW9PF504XD0AR","","null","<img src=""img/land4.png"" style=""width:200px; border:14px solid green;"">","null","","","","","","","","","",""
"","image-keyboard-response","197","113037","0.0-197.0","3UNH76FOCTR5E0K3VS2PFHQ8I4HMYD","A2PEN75MMUA963","31D0ZWOD0AL5TKHZZFW9PF504XD0AR","","320","img/land2.png","76","321","3","0","1","2","0.8,0.2,0.2,0.2,0.8,0.2,0.2,0.2,0.8","0.8,0.2,0.2,0.2,0.8,0.2,0.2,0.2,0.8","1","",""
"","html-keyboard-response","198","113342","0.0-198.0","3UNH76FOCTR5E0K3VS2PFHQ8I4HMYD","A2PEN75MMUA963","31D0ZWOD0AL5TKHZZFW9PF504XD0AR","","null","<img src=""img/land2.png"" style=""width:200px;border:14px solid red;"">","null","","","","","","","","","",""
"","image-keyboard-response","199","113852","0.0-199.0","3UNH76FOCTR5E0K3VS2PFHQ8I4HMYD","A2PEN75MMUA963","31D0ZWOD0AL5TKHZZFW9PF504XD0AR","","509","img/land2.png","75","510","2","0","1","2","0.8,0.2,0.2,0.2,0.8,0.2,0.2,0.2,0.8","0.8,0.2,0.2,0.2,0.8,0.2,0.2,0.2,0.8","1","",""
"","html-keyboard-response","200","114156","0.0-200.0","3UNH76FOCTR5E0K3VS2PFHQ8I4HMYD","A2PEN75MMUA963","31D0ZWOD0AL5TKHZZFW9PF504XD0AR","","null","<img src=""img/land2.png"" style=""width:200px;border:14px solid red;"">","null","","","","","","","","","",""
"","image-keyboard-response","201","114450","0.0-201.0","3UNH76FOCTR5E0K3VS2PFHQ8I4HMYD","A2PEN75MMUA963","31D0ZWOD0AL5TKHZZFW9PF504XD0AR","","292","img/land4.png","75","293","2","0","3","2","0.8,0.2,0.2,0.2,0.8,0.2,0.2,0.2,0.8","0.8,0.2,0.2,0.2,0.8,0.2,0.2,0.2,0.8","1","",""
"","html-keyboard-response","202","114753","0.0-202.0","3UNH76FOCTR5E0K3VS2PFHQ8I4HMYD","A2PEN75MMUA963","31D0ZWOD0AL5TKHZZFW9PF504XD0AR","","null","<img src=""img/land4.png"" style=""width:200px;border:14px solid red;"">","null","","","","","","","","","",""
"","image-keyboard-response","203","115203","0.0-203.0","3UNH76FOCTR5E0K3VS2PFHQ8I4HMYD","A2PEN75MMUA963","31D0ZWOD0AL5TKHZZFW9PF504XD0AR","","448","img/land5.png","76","450","3","0","2","2","0.8,0.2,0.2,0.2,0.8,0.2,0.2,0.2,0.8","0.8,0.2,0.2,0.2,0.8,0.2,0.2,0.2,0.8","1","",""
"","html-keyboard-response","204","115506","0.0-204.0","3UNH76FOCTR5E0K3VS2PFHQ8I4HMYD","A2PEN75MMUA963","31D0ZWOD0AL5TKHZZFW9PF504XD0AR","","null","<img src=""img/land5.png"" style=""width:200px;border:14px solid red;"">","null","","","","","","","","","",""
"","image-keyboard-response","205","115563","0.0-205.0","3UNH76FOCTR5E0K3VS2PFHQ8I4HMYD","A2PEN75MMUA963","31D0ZWOD0AL5TKHZZFW9PF504XD0AR","","55","img/land2.png","76","57","3","0","1","2","0.8,0.2,0.2,0.2,0.8,0.2,0.2,0.2,0.8","0.8,0.2,0.2,0.2,0.8,0.2,0.2,0.2,0.8","1","",""
"","html-keyboard-response","206","115867","0.0-206.0","3UNH76FOCTR5E0K3VS2PFHQ8I4HMYD","A2PEN75MMUA963","31D0ZWOD0AL5TKHZZFW9PF504XD0AR","","null","<img src=""img/land2.png"" style=""width:200px;border:14px solid red;"">","null","","","","","","","","","",""
"","image-keyboard-response","207","115914","0.0-207.0","3UNH76FOCTR5E0K3VS2PFHQ8I4HMYD","A2PEN75MMUA963","31D0ZWOD0AL5TKHZZFW9PF504XD0AR","","44","img/land2.png","74","46","1","0","1","2","0.8,0.2,0.2,0.2,0.8,0.2,0.2,0.2,0.8","0.8,0.2,0.2,0.2,0.8,0.2,0.2,0.2,0.8","1","",""
"","html-keyboard-response","208","116217","0.0-208.0","3UNH76FOCTR5E0K3VS2PFHQ8I4HMYD","A2PEN75MMUA963","31D0ZWOD0AL5TKHZZFW9PF504XD0AR","","null","<img src=""img/land2.png"" style=""width:200px;border:14px solid red;"">","null","","","","","","","","","",""
"","image-keyboard-response","209","116263","0.0-209.0","3UNH76FOCTR5E0K3VS2PFHQ8I4HMYD","A2PEN75MMUA963","31D0ZWOD0AL5TKHZZFW9PF504XD0AR","","44","img/land2.png","75","46","2","0","1","2","0.8,0.2,0.2,0.2,0.8,0.2,0.2,0.2,0.8","0.8,0.2,0.2,0.2,0.8,0.2,0.2,0.2,0.8","1","",""
"","html-keyboard-response","210","116567","0.0-210.0","3UNH76FOCTR5E0K3VS2PFHQ8I4HMYD","A2PEN75MMUA963","31D0ZWOD0AL5TKHZZFW9PF504XD0AR","","null","<img src=""img/land2.png"" style=""width:200px;border:14px solid red;"">","null","","","","","","","","","",""
"","image-keyboard-response","211","116610","0.0-211.0","3UNH76FOCTR5E0K3VS2PFHQ8I4HMYD","A2PEN75MMUA963","31D0ZWOD0AL5TKHZZFW9PF504XD0AR","","41","img/land2.png","74","42","1","1","1","2","0.8,0.2,0.2,0.2,0.8,0.2,0.2,0.2,0.8","0.8,0.2,0.2,0.2,0.8,0.2,0.2,0.2,0.8","1","",""
"","html-keyboard-response","212","116915","0.0-212.0","3UNH76FOCTR5E0K3VS2PFHQ8I4HMYD","A2PEN75MMUA963","31D0ZWOD0AL5TKHZZFW9PF504XD0AR","","null","<img src=""img/land2.png"" style=""width:200px; border:14px solid green;"">","null","","","","","","","","","",""
"","image-keyboard-response","213","117222","0.0-213.0","3UNH76FOCTR5E0K3VS2PFHQ8I4HMYD","A2PEN75MMUA963","31D0ZWOD0AL5TKHZZFW9PF504XD0AR","","306","img/land2.png","75","308","2","0","1","2","0.8,0.2,0.2,0.2,0.8,0.2,0.2,0.2,0.8","0.8,0.2,0.2,0.2,0.8,0.2,0.2,0.2,0.8","1","",""
"","html-keyboard-response","214","117525","0.0-214.0","3UNH76FOCTR5E0K3VS2PFHQ8I4HMYD","A2PEN75MMUA963","31D0ZWOD0AL5TKHZZFW9PF504XD0AR","","null","<img src=""img/land2.png"" style=""width:200px;border:14px solid red;"">","null","","","","","","","","","",""
"","image-keyboard-response","215","117615","0.0-215.0","3UNH76FOCTR5E0K3VS2PFHQ8I4HMYD","A2PEN75MMUA963","31D0ZWOD0AL5TKHZZFW9PF504XD0AR","","89","img/land2.png","75","90","2","0","1","2","0.8,0.2,0.2,0.2,0.8,0.2,0.2,0.2,0.8","0.8,0.2,0.2,0.2,0.8,0.2,0.2,0.2,0.8","1","",""
"","html-keyboard-response","216","117919","0.0-216.0","3UNH76FOCTR5E0K3VS2PFHQ8I4HMYD","A2PEN75MMUA963","31D0ZWOD0AL5TKHZZFW9PF504XD0AR","","null","<img src=""img/land2.png"" style=""width:200px;border:14px solid red;"">","null","","","","","","","","","",""
"","image-keyboard-response","217","117978","0.0-217.0","3UNH76FOCTR5E0K3VS2PFHQ8I4HMYD","A2PEN75MMUA963","31D0ZWOD0AL5TKHZZFW9PF504XD0AR","","55","img/land5.png","74","58","1","0","2","2","0.8,0.2,0.2,0.2,0.8,0.2,0.2,0.2,0.8","0.8,0.2,0.2,0.2,0.8,0.2,0.2,0.2,0.8","1","",""
"","html-keyboard-response","218","118280","0.0-218.0","3UNH76FOCTR5E0K3VS2PFHQ8I4HMYD","A2PEN75MMUA963","31D0ZWOD0AL5TKHZZFW9PF504XD0AR","","null","<img src=""img/land5.png"" style=""width:200px;border:14px solid red;"">","null","","","","","","","","","",""
"","image-keyboard-response","219","118532","0.0-219.0","3UNH76FOCTR5E0K3VS2PFHQ8I4HMYD","A2PEN75MMUA963","31D0ZWOD0AL5TKHZZFW9PF504XD0AR","","248","img/land5.png","74","250","1","1","2","2","0.8,0.2,0.2,0.2,0.8,0.2,0.2,0.2,0.8","0.8,0.2,0.2,0.2,0.8,0.2,0.2,0.2,0.8","1","",""
"","html-keyboard-response","220","118836","0.0-220.0","3UNH76FOCTR5E0K3VS2PFHQ8I4HMYD","A2PEN75MMUA963","31D0ZWOD0AL5TKHZZFW9PF504XD0AR","","null","<img src=""img/land5.png"" style=""width:200px; border:14px solid green;"">","null","","","","","","","","","",""
"","image-keyboard-response","221","118894","0.0-221.0","3UNH76FOCTR5E0K3VS2PFHQ8I4HMYD","A2PEN75MMUA963","31D0ZWOD0AL5TKHZZFW9PF504XD0AR","","55","img/land2.png","76","58","3","1","1","2","0.8,0.2,0.2,0.2,0.8,0.2,0.2,0.2,0.8","0.8,0.2,0.2,0.2,0.8,0.2,0.2,0.2,0.8","1","",""
"","html-keyboard-response","222","119197","0.0-222.0","3UNH76FOCTR5E0K3VS2PFHQ8I4HMYD","A2PEN75MMUA963","31D0ZWOD0AL5TKHZZFW9PF504XD0AR","","null","<img src=""img/land2.png"" style=""width:200px; border:14px solid green;"">","null","","","","","","","","","",""
"","image-keyboard-response","223","119427","0.0-223.0","3UNH76FOCTR5E0K3VS2PFHQ8I4HMYD","A2PEN75MMUA963","31D0ZWOD0AL5TKHZZFW9PF504XD0AR","","228","img/land2.png","74","231","1","1","1","2","0.8,0.2,0.2,0.2,0.8,0.2,0.2,0.2,0.8","0.8,0.2,0.2,0.2,0.8,0.2,0.2,0.2,0.8","1","",""
"","html-keyboard-response","224","119730","0.0-224.0","3UNH76FOCTR5E0K3VS2PFHQ8I4HMYD","A2PEN75MMUA963","31D0ZWOD0AL5TKHZZFW9PF504XD0AR","","null","<img src=""img/land2.png"" style=""width:200px; border:14px solid green;"">","null","","","","","","","","","",""
"","image-keyboard-response","225","119769","0.0-225.0","3UNH76FOCTR5E0K3VS2PFHQ8I4HMYD","A2PEN75MMUA963","31D0ZWOD0AL5TKHZZFW9PF504XD0AR","","34","img/land4.png","75","37","2","0","3","2","0.8,0.2,0.2,0.2,0.8,0.2,0.2,0.2,0.8","0.8,0.2,0.2,0.2,0.8,0.2,0.2,0.2,0.8","1","",""
"","html-keyboard-response","226","120071","0.0-226.0","3UNH76FOCTR5E0K3VS2PFHQ8I4HMYD","A2PEN75MMUA963","31D0ZWOD0AL5TKHZZFW9PF504XD0AR","","null","<img src=""img/land4.png"" style=""width:200px;border:14px solid red;"">","null","","","","","","","","","",""
"","image-keyboard-response","227","120141","0.0-227.0","3UNH76FOCTR5E0K3VS2PFHQ8I4HMYD","A2PEN75MMUA963","31D0ZWOD0AL5TKHZZFW9PF504XD0AR","","68","img/land4.png","75","70","2","0","3","2","0.8,0.2,0.2,0.2,0.8,0.2,0.2,0.2,0.8","0.8,0.2,0.2,0.2,0.8,0.2,0.2,0.2,0.8","1","",""
"","html-keyboard-response","228","120446","0.0-228.0","3UNH76FOCTR5E0K3VS2PFHQ8I4HMYD","A2PEN75MMUA963","31D0ZWOD0AL5TKHZZFW9PF504XD0AR","","null","<img src=""img/land4.png"" style=""width:200px;border:14px solid red;"">","null","","","","","","","","","",""
"","image-keyboard-response","229","120622","0.0-229.0","3UNH76FOCTR5E0K3VS2PFHQ8I4HMYD","A2PEN75MMUA963","31D0ZWOD0AL5TKHZZFW9PF504XD0AR","","174","img/land5.png","76","176","3","0","2","2","0.8,0.2,0.2,0.2,0.8,0.2,0.2,0.2,0.8","0.8,0.2,0.2,0.2,0.8,0.2,0.2,0.2,0.8","1","",""
"","html-keyboard-response","230","120926","0.0-230.0","3UNH76FOCTR5E0K3VS2PFHQ8I4HMYD","A2PEN75MMUA963","31D0ZWOD0AL5TKHZZFW9PF504XD0AR","","null","<img src=""img/land5.png"" style=""width:200px;border:14px solid red;"">","null","","","","","","","","","",""
"","image-keyboard-response","231","121079","0.0-231.0","3UNH76FOCTR5E0K3VS2PFHQ8I4HMYD","A2PEN75MMUA963","31D0ZWOD0AL5TKHZZFW9PF504XD0AR","","152","img/land4.png","76","154","3","1","3","2","0.8,0.2,0.2,0.2,0.8,0.2,0.2,0.2,0.8","0.8,0.2,0.2,0.2,0.8,0.2,0.2,0.2,0.8","1","",""
"","html-keyboard-response","232","121383","0.0-232.0","3UNH76FOCTR5E0K3VS2PFHQ8I4HMYD","A2PEN75MMUA963","31D0ZWOD0AL5TKHZZFW9PF504XD0AR","","null","<img src=""img/land4.png"" style=""width:200px; border:14px solid green;"">","null","","","","","","","","","",""
"","image-keyboard-response","233","121859","0.0-233.0","3UNH76FOCTR5E0K3VS2PFHQ8I4HMYD","A2PEN75MMUA963","31D0ZWOD0AL5TKHZZFW9PF504XD0AR","","473","img/land2.png","75","476","2","0","1","2","0.8,0.2,0.2,0.2,0.8,0.2,0.2,0.2,0.8","0.8,0.2,0.2,0.2,0.8,0.2,0.2,0.2,0.8","1","",""
"","html-keyboard-response","234","122161","0.0-234.0","3UNH76FOCTR5E0K3VS2PFHQ8I4HMYD","A2PEN75MMUA963","31D0ZWOD0AL5TKHZZFW9PF504XD0AR","","null","<img src=""img/land2.png"" style=""width:200px;border:14px solid red;"">","null","","","","","","","","","",""
"","image-keyboard-response","235","122359","0.0-235.0","3UNH76FOCTR5E0K3VS2PFHQ8I4HMYD","A2PEN75MMUA963","31D0ZWOD0AL5TKHZZFW9PF504XD0AR","","197","img/land2.png","76","198","3","0","1","2","0.8,0.2,0.2,0.2,0.8,0.2,0.2,0.2,0.8","0.8,0.2,0.2,0.2,0.8,0.2,0.2,0.2,0.8","1","",""
"","html-keyboard-response","236","122663","0.0-236.0","3UNH76FOCTR5E0K3VS2PFHQ8I4HMYD","A2PEN75MMUA963","31D0ZWOD0AL5TKHZZFW9PF504XD0AR","","null","<img src=""img/land2.png"" style=""width:200px;border:14px solid red;"">","null","","","","","","","","","",""
"","image-keyboard-response","237","123112","0.0-237.0","3UNH76FOCTR5E0K3VS2PFHQ8I4HMYD","A2PEN75MMUA963","31D0ZWOD0AL5TKHZZFW9PF504XD0AR","","447","img/land2.png","75","449","2","0","1","2","0.8,0.2,0.2,0.2,0.8,0.2,0.2,0.2,0.8","0.8,0.2,0.2,0.2,0.8,0.2,0.2,0.2,0.8","1","",""
"","html-keyboard-response","238","123415","0.0-238.0","3UNH76FOCTR5E0K3VS2PFHQ8I4HMYD","A2PEN75MMUA963","31D0ZWOD0AL5TKHZZFW9PF504XD0AR","","null","<img src=""img/land2.png"" style=""width:200px;border:14px solid red;"">","null","","","","","","","","","",""
"","image-keyboard-response","239","124291","0.0-239.0","3UNH76FOCTR5E0K3VS2PFHQ8I4HMYD","A2PEN75MMUA963","31D0ZWOD0AL5TKHZZFW9PF504XD0AR","","874","img/land4.png","74","875","1","0","3","2","0.8,0.2,0.2,0.2,0.8,0.2,0.2,0.2,0.8","0.8,0.2,0.2,0.2,0.8,0.2,0.2,0.2,0.8","1","",""
"","html-keyboard-response","240","124593","0.0-240.0","3UNH76FOCTR5E0K3VS2PFHQ8I4HMYD","A2PEN75MMUA963","31D0ZWOD0AL5TKHZZFW9PF504XD0AR","","null","<img src=""img/land4.png"" style=""width:200px;border:14px solid red;"">","null","","","","","","","","","",""
"","image-keyboard-response","241","124759","0.0-241.0","3UNH76FOCTR5E0K3VS2PFHQ8I4HMYD","A2PEN75MMUA963","31D0ZWOD0AL5TKHZZFW9PF504XD0AR","","163","img/land5.png","75","165","2","1","2","2","0.8,0.2,0.2,0.2,0.8,0.2,0.2,0.2,0.8","0.8,0.2,0.2,0.2,0.8,0.2,0.2,0.2,0.8","1","",""
"","html-keyboard-response","242","125061","0.0-242.0","3UNH76FOCTR5E0K3VS2PFHQ8I4HMYD","A2PEN75MMUA963","31D0ZWOD0AL5TKHZZFW9PF504XD0AR","","null","<img src=""img/land5.png"" style=""width:200px; border:14px solid green;"">","null","","","","","","","","","",""
"","image-keyboard-response","243","125515","0.0-243.0","3UNH76FOCTR5E0K3VS2PFHQ8I4HMYD","A2PEN75MMUA963","31D0ZWOD0AL5TKHZZFW9PF504XD0AR","","450","img/land2.png","75","452","2","0","1","2","0.8,0.2,0.2,0.2,0.8,0.2,0.2,0.2,0.8","0.8,0.2,0.2,0.2,0.8,0.2,0.2,0.2,0.8","1","",""
"","html-keyboard-response","244","125818","0.0-244.0","3UNH76FOCTR5E0K3VS2PFHQ8I4HMYD","A2PEN75MMUA963","31D0ZWOD0AL5TKHZZFW9PF504XD0AR","","null","<img src=""img/land2.png"" style=""width:200px;border:14px solid red;"">","null","","","","","","","","","",""
"","image-keyboard-response","245","126283","0.0-245.0","3UNH76FOCTR5E0K3VS2PFHQ8I4HMYD","A2PEN75MMUA963","31D0ZWOD0AL5TKHZZFW9PF504XD0AR","","462","img/land2.png","75","463","2","0","1","2","0.8,0.2,0.2,0.2,0.8,0.2,0.2,0.2,0.8","0.8,0.2,0.2,0.2,0.8,0.2,0.2,0.2,0.8","1","",""
"","html-keyboard-response","246","126585","0.0-246.0","3UNH76FOCTR5E0K3VS2PFHQ8I4HMYD","A2PEN75MMUA963","31D0ZWOD0AL5TKHZZFW9PF504XD0AR","","null","<img src=""img/land2.png"" style=""width:200px;border:14px solid red;"">","null","","","","","","","","","",""
"","image-keyboard-response","247","126843","0.0-247.0","3UNH76FOCTR5E0K3VS2PFHQ8I4HMYD","A2PEN75MMUA963","31D0ZWOD0AL5TKHZZFW9PF504XD0AR","","254","img/land2.png","76","256","3","0","1","2","0.8,0.2,0.2,0.2,0.8,0.2,0.2,0.2,0.8","0.8,0.2,0.2,0.2,0.8,0.2,0.2,0.2,0.8","1","",""
"","html-keyboard-response","248","127145","0.0-248.0","3UNH76FOCTR5E0K3VS2PFHQ8I4HMYD","A2PEN75MMUA963","31D0ZWOD0AL5TKHZZFW9PF504XD0AR","","null","<img src=""img/land2.png"" style=""width:200px;border:14px solid red;"">","null","","","","","","","","","",""
"","image-keyboard-response","249","127280","0.0-249.0","3UNH76FOCTR5E0K3VS2PFHQ8I4HMYD","A2PEN75MMUA963","31D0ZWOD0AL5TKHZZFW9PF504XD0AR","","132","img/land2.png","76","133","3","0","1","2","0.8,0.2,0.2,0.2,0.8,0.2,0.2,0.2,0.8","0.8,0.2,0.2,0.2,0.8,0.2,0.2,0.2,0.8","1","",""
"","html-keyboard-response","250","127584","0.0-250.0","3UNH76FOCTR5E0K3VS2PFHQ8I4HMYD","A2PEN75MMUA963","31D0ZWOD0AL5TKHZZFW9PF504XD0AR","","null","<img src=""img/land2.png"" style=""width:200px;border:14px solid red;"">","null","","","","","","","","","",""
"","image-keyboard-response","251","127666","0.0-251.0","3UNH76FOCTR5E0K3VS2PFHQ8I4HMYD","A2PEN75MMUA963","31D0ZWOD0AL5TKHZZFW9PF504XD0AR","","79","img/land5.png","74","80","1","0","2","2","0.8,0.2,0.2,0.2,0.8,0.2,0.2,0.2,0.8","0.8,0.2,0.2,0.2,0.8,0.2,0.2,0.2,0.8","1","",""
"","html-keyboard-response","252","127967","0.0-252.0","3UNH76FOCTR5E0K3VS2PFHQ8I4HMYD","A2PEN75MMUA963","31D0ZWOD0AL5TKHZZFW9PF504XD0AR","","null","<img src=""img/land5.png"" style=""width:200px;border:14px solid red;"">","null","","","","","","","","","",""
"","image-keyboard-response","253","128730","0.0-253.0","3UNH76FOCTR5E0K3VS2PFHQ8I4HMYD","A2PEN75MMUA963","31D0ZWOD0AL5TKHZZFW9PF504XD0AR","","761","img/land4.png","75","763","2","0","3","2","0.8,0.2,0.2,0.2,0.8,0.2,0.2,0.2,0.8","0.8,0.2,0.2,0.2,0.8,0.2,0.2,0.2,0.8","1","",""
"","html-keyboard-response","254","129032","0.0-254.0","3UNH76FOCTR5E0K3VS2PFHQ8I4HMYD","A2PEN75MMUA963","31D0ZWOD0AL5TKHZZFW9PF504XD0AR","","null","<img src=""img/land4.png"" style=""width:200px;border:14px solid red;"">","null","","","","","","","","","",""
"","image-keyboard-response","255","129287","0.0-255.0","3UNH76FOCTR5E0K3VS2PFHQ8I4HMYD","A2PEN75MMUA963","31D0ZWOD0AL5TKHZZFW9PF504XD0AR","","251","img/land2.png","74","253","1","1","1","2","0.8,0.2,0.2,0.2,0.8,0.2,0.2,0.2,0.8","0.8,0.2,0.2,0.2,0.8,0.2,0.2,0.2,0.8","1","",""
"","html-keyboard-response","256","129589","0.0-256.0","3UNH76FOCTR5E0K3VS2PFHQ8I4HMYD","A2PEN75MMUA963","31D0ZWOD0AL5TKHZZFW9PF504XD0AR","","null","<img src=""img/land2.png"" style=""width:200px; border:14px solid green;"">","null","","","","","","","","","",""
"","image-keyboard-response","257","129915","0.0-257.0","3UNH76FOCTR5E0K3VS2PFHQ8I4HMYD","A2PEN75MMUA963","31D0ZWOD0AL5TKHZZFW9PF504XD0AR","","323","img/land2.png","74","326","1","1","1","2","0.8,0.2,0.2,0.2,0.8,0.2,0.2,0.2,0.8","0.8,0.2,0.2,0.2,0.8,0.2,0.2,0.2,0.8","1","",""
"","html-keyboard-response","258","130219","0.0-258.0","3UNH76FOCTR5E0K3VS2PFHQ8I4HMYD","A2PEN75MMUA963","31D0ZWOD0AL5TKHZZFW9PF504XD0AR","","null","<img src=""img/land2.png"" style=""width:200px; border:14px solid green;"">","null","","","","","","","","","",""
"","image-keyboard-response","259","130527","0.0-259.0","3UNH76FOCTR5E0K3VS2PFHQ8I4HMYD","A2PEN75MMUA963","31D0ZWOD0AL5TKHZZFW9PF504XD0AR","","307","img/land2.png","74","309","1","0","1","2","0.8,0.2,0.2,0.2,0.8,0.2,0.2,0.2,0.8","0.8,0.2,0.2,0.2,0.8,0.2,0.2,0.2,0.8","1","",""
"","html-keyboard-response","260","130830","0.0-260.0","3UNH76FOCTR5E0K3VS2PFHQ8I4HMYD","A2PEN75MMUA963","31D0ZWOD0AL5TKHZZFW9PF504XD0AR","","null","<img src=""img/land2.png"" style=""width:200px;border:14px solid red;"">","null","","","","","","","","","",""
"","image-keyboard-response","261","131472","0.0-261.0","3UNH76FOCTR5E0K3VS2PFHQ8I4HMYD","A2PEN75MMUA963","31D0ZWOD0AL5TKHZZFW9PF504XD0AR","","638","img/land4.png","74","640","1","1","3","2","0.8,0.2,0.2,0.2,0.8,0.2,0.2,0.2,0.8","0.8,0.2,0.2,0.2,0.8,0.2,0.2,0.2,0.8","1","",""
"","html-keyboard-response","262","131775","0.0-262.0","3UNH76FOCTR5E0K3VS2PFHQ8I4HMYD","A2PEN75MMUA963","31D0ZWOD0AL5TKHZZFW9PF504XD0AR","","null","<img src=""img/land4.png"" style=""width:200px; border:14px solid green;"">","null","","","","","","","","","",""
"","image-keyboard-response","263","132137","0.0-263.0","3UNH76FOCTR5E0K3VS2PFHQ8I4HMYD","A2PEN75MMUA963","31D0ZWOD0AL5TKHZZFW9PF504XD0AR","","360","img/land5.png","74","362","1","0","2","2","0.8,0.2,0.2,0.2,0.8,0.2,0.2,0.2,0.8","0.8,0.2,0.2,0.2,0.8,0.2,0.2,0.2,0.8","1","",""
"","html-keyboard-response","264","132440","0.0-264.0","3UNH76FOCTR5E0K3VS2PFHQ8I4HMYD","A2PEN75MMUA963","31D0ZWOD0AL5TKHZZFW9PF504XD0AR","","null","<img src=""img/land5.png"" style=""width:200px;border:14px solid red;"">","null","","","","","","","","","",""
"","image-keyboard-response","265","132727","0.0-265.0","3UNH76FOCTR5E0K3VS2PFHQ8I4HMYD","A2PEN75MMUA963","31D0ZWOD0AL5TKHZZFW9PF504XD0AR","","284","img/land2.png","75","286","2","1","1","2","0.8,0.2,0.2,0.2,0.8,0.2,0.2,0.2,0.8","0.8,0.2,0.2,0.2,0.8,0.2,0.2,0.2,0.8","1","",""
"","html-keyboard-response","266","133031","0.0-266.0","3UNH76FOCTR5E0K3VS2PFHQ8I4HMYD","A2PEN75MMUA963","31D0ZWOD0AL5TKHZZFW9PF504XD0AR","","null","<img src=""img/land2.png"" style=""width:200px; border:14px solid green;"">","null","","","","","","","","","",""
"","image-keyboard-response","267","133333","0.0-267.0","3UNH76FOCTR5E0K3VS2PFHQ8I4HMYD","A2PEN75MMUA963","31D0ZWOD0AL5TKHZZFW9PF504XD0AR","","301","img/land2.png","74","303","1","1","1","2","0.8,0.2,0.2,0.2,0.8,0.2,0.2,0.2,0.8","0.8,0.2,0.2,0.2,0.8,0.2,0.2,0.2,0.8","1","",""
"","html-keyboard-response","268","133637","0.0-268.0","3UNH76FOCTR5E0K3VS2PFHQ8I4HMYD","A2PEN75MMUA963","31D0ZWOD0AL5TKHZZFW9PF504XD0AR","","null","<img src=""img/land2.png"" style=""width:200px; border:14px solid green;"">","null","","","","","","","","","",""
"","image-keyboard-response","269","134025","0.0-269.0","3UNH76FOCTR5E0K3VS2PFHQ8I4HMYD","A2PEN75MMUA963","31D0ZWOD0AL5TKHZZFW9PF504XD0AR","","386","img/land5.png","74","389","1","0","2","2","0.8,0.2,0.2,0.2,0.8,0.2,0.2,0.2,0.8","0.8,0.2,0.2,0.2,0.8,0.2,0.2,0.2,0.8","1","",""
"","html-keyboard-response","270","134328","0.0-270.0","3UNH76FOCTR5E0K3VS2PFHQ8I4HMYD","A2PEN75MMUA963","31D0ZWOD0AL5TKHZZFW9PF504XD0AR","","null","<img src=""img/land5.png"" style=""width:200px;border:14px solid red;"">","null","","","","","","","","","",""
"","image-keyboard-response","271","134750","0.0-271.0","3UNH76FOCTR5E0K3VS2PFHQ8I4HMYD","A2PEN75MMUA963","31D0ZWOD0AL5TKHZZFW9PF504XD0AR","","418","img/land2.png","75","420","2","0","1","2","0.8,0.2,0.2,0.2,0.8,0.2,0.2,0.2,0.8","0.8,0.2,0.2,0.2,0.8,0.2,0.2,0.2,0.8","1","",""
"","html-keyboard-response","272","135052","0.0-272.0","3UNH76FOCTR5E0K3VS2PFHQ8I4HMYD","A2PEN75MMUA963","31D0ZWOD0AL5TKHZZFW9PF504XD0AR","","null","<img src=""img/land2.png"" style=""width:200px;border:14px solid red;"">","null","","","","","","","","","",""
"","image-keyboard-response","273","135273","0.0-273.0","3UNH76FOCTR5E0K3VS2PFHQ8I4HMYD","A2PEN75MMUA963","31D0ZWOD0AL5TKHZZFW9PF504XD0AR","","218","img/land2.png","74","220","1","1","1","2","0.8,0.2,0.2,0.2,0.8,0.2,0.2,0.2,0.8","0.8,0.2,0.2,0.2,0.8,0.2,0.2,0.2,0.8","1","",""
"","html-keyboard-response","274","135576","0.0-274.0","3UNH76FOCTR5E0K3VS2PFHQ8I4HMYD","A2PEN75MMUA963","31D0ZWOD0AL5TKHZZFW9PF504XD0AR","","null","<img src=""img/land2.png"" style=""width:200px; border:14px solid green;"">","null","","","","","","","","","",""
"","image-keyboard-response","275","135851","0.0-275.0","3UNH76FOCTR5E0K3VS2PFHQ8I4HMYD","A2PEN75MMUA963","31D0ZWOD0AL5TKHZZFW9PF504XD0AR","","273","img/land4.png","74","274","1","0","3","2","0.8,0.2,0.2,0.2,0.8,0.2,0.2,0.2,0.8","0.8,0.2,0.2,0.2,0.8,0.2,0.2,0.2,0.8","1","",""
"","html-keyboard-response","276","136153","0.0-276.0","3UNH76FOCTR5E0K3VS2PFHQ8I4HMYD","A2PEN75MMUA963","31D0ZWOD0AL5TKHZZFW9PF504XD0AR","","null","<img src=""img/land4.png"" style=""width:200px;border:14px solid red;"">","null","","","","","","","","","",""
"","image-keyboard-response","277","136540","0.0-277.0","3UNH76FOCTR5E0K3VS2PFHQ8I4HMYD","A2PEN75MMUA963","31D0ZWOD0AL5TKHZZFW9PF504XD0AR","","385","img/land2.png","76","387","3","0","1","2","0.8,0.2,0.2,0.2,0.8,0.2,0.2,0.2,0.8","0.8,0.2,0.2,0.2,0.8,0.2,0.2,0.2,0.8","1","",""
"","html-keyboard-response","278","136842","0.0-278.0","3UNH76FOCTR5E0K3VS2PFHQ8I4HMYD","A2PEN75MMUA963","31D0ZWOD0AL5TKHZZFW9PF504XD0AR","","null","<img src=""img/land2.png"" style=""width:200px;border:14px solid red;"">","null","","","","","","","","","",""
"","image-keyboard-response","279","137221","0.0-279.0","3UNH76FOCTR5E0K3VS2PFHQ8I4HMYD","A2PEN75MMUA963","31D0ZWOD0AL5TKHZZFW9PF504XD0AR","","375","img/land2.png","75","378","2","1","1","2","0.8,0.2,0.2,0.2,0.8,0.2,0.2,0.2,0.8","0.8,0.2,0.2,0.2,0.8,0.2,0.2,0.2,0.8","1","",""
"","html-keyboard-response","280","137524","0.0-280.0","3UNH76FOCTR5E0K3VS2PFHQ8I4HMYD","A2PEN75MMUA963","31D0ZWOD0AL5TKHZZFW9PF504XD0AR","","null","<img src=""img/land2.png"" style=""width:200px; border:14px solid green;"">","null","","","","","","","","","",""
"","image-keyboard-response","281","137923","0.0-281.0","3UNH76FOCTR5E0K3VS2PFHQ8I4HMYD","A2PEN75MMUA963","31D0ZWOD0AL5TKHZZFW9PF504XD0AR","","399","img/land5.png","75","399","2","1","2","2","0.8,0.2,0.2,0.2,0.8,0.2,0.2,0.2,0.8","0.8,0.2,0.2,0.2,0.8,0.2,0.2,0.2,0.8","1","",""
"","html-keyboard-response","282","138226","0.0-282.0","3UNH76FOCTR5E0K3VS2PFHQ8I4HMYD","A2PEN75MMUA963","31D0ZWOD0AL5TKHZZFW9PF504XD0AR","","null","<img src=""img/land5.png"" style=""width:200px; border:14px solid green;"">","null","","","","","","","","","",""
"","image-keyboard-response","283","138436","0.0-283.0","3UNH76FOCTR5E0K3VS2PFHQ8I4HMYD","A2PEN75MMUA963","31D0ZWOD0AL5TKHZZFW9PF504XD0AR","","209","img/land2.png","75","210","2","0","1","2","0.8,0.2,0.2,0.2,0.8,0.2,0.2,0.2,0.8","0.8,0.2,0.2,0.2,0.8,0.2,0.2,0.2,0.8","1","",""
"","html-keyboard-response","284","138739","0.0-284.0","3UNH76FOCTR5E0K3VS2PFHQ8I4HMYD","A2PEN75MMUA963","31D0ZWOD0AL5TKHZZFW9PF504XD0AR","","null","<img src=""img/land2.png"" style=""width:200px;border:14px solid red;"">","null","","","","","","","","","",""
"","image-keyboard-response","285","138925","0.0-285.0","3UNH76FOCTR5E0K3VS2PFHQ8I4HMYD","A2PEN75MMUA963","31D0ZWOD0AL5TKHZZFW9PF504XD0AR","","183","img/land2.png","76","185","3","0","1","2","0.8,0.2,0.2,0.2,0.8,0.2,0.2,0.2,0.8","0.8,0.2,0.2,0.2,0.8,0.2,0.2,0.2,0.8","1","",""
"","html-keyboard-response","286","139227","0.0-286.0","3UNH76FOCTR5E0K3VS2PFHQ8I4HMYD","A2PEN75MMUA963","31D0ZWOD0AL5TKHZZFW9PF504XD0AR","","null","<img src=""img/land2.png"" style=""width:200px;border:14px solid red;"">","null","","","","","","","","","",""
"","image-keyboard-response","287","139395","0.0-287.0","3UNH76FOCTR5E0K3VS2PFHQ8I4HMYD","A2PEN75MMUA963","31D0ZWOD0AL5TKHZZFW9PF504XD0AR","","165","img/land4.png","76","167","3","1","3","2","0.8,0.2,0.2,0.2,0.8,0.2,0.2,0.2,0.8","0.8,0.2,0.2,0.2,0.8,0.2,0.2,0.2,0.8","1","",""
"","html-keyboard-response","288","139699","0.0-288.0","3UNH76FOCTR5E0K3VS2PFHQ8I4HMYD","A2PEN75MMUA963","31D0ZWOD0AL5TKHZZFW9PF504XD0AR","","null","<img src=""img/land4.png"" style=""width:200px; border:14px solid green;"">","null","","","","","","","","","",""
"","image-keyboard-response","289","139924","0.0-289.0","3UNH76FOCTR5E0K3VS2PFHQ8I4HMYD","A2PEN75MMUA963","31D0ZWOD0AL5TKHZZFW9PF504XD0AR","","222","img/land2.png","76","224","3","0","1","2","0.8,0.2,0.2,0.2,0.8,0.2,0.2,0.2,0.8","0.8,0.2,0.2,0.2,0.8,0.2,0.2,0.2,0.8","1","",""
"","html-keyboard-response","290","140226","0.0-290.0","3UNH76FOCTR5E0K3VS2PFHQ8I4HMYD","A2PEN75MMUA963","31D0ZWOD0AL5TKHZZFW9PF504XD0AR","","null","<img src=""img/land2.png"" style=""width:200px;border:14px solid red;"">","null","","","","","","","","","",""
"","image-keyboard-response","291","140533","0.0-291.0","3UNH76FOCTR5E0K3VS2PFHQ8I4HMYD","A2PEN75MMUA963","31D0ZWOD0AL5TKHZZFW9PF504XD0AR","","304","img/land2.png","76","306","3","0","1","2","0.8,0.2,0.2,0.2,0.8,0.2,0.2,0.2,0.8","0.8,0.2,0.2,0.2,0.8,0.2,0.2,0.2,0.8","1","",""
"","html-keyboard-response","292","140835","0.0-292.0","3UNH76FOCTR5E0K3VS2PFHQ8I4HMYD","A2PEN75MMUA963","31D0ZWOD0AL5TKHZZFW9PF504XD0AR","","null","<img src=""img/land2.png"" style=""width:200px;border:14px solid red;"">","null","","","","","","","","","",""
"","image-keyboard-response","293","141132","0.0-293.0","3UNH76FOCTR5E0K3VS2PFHQ8I4HMYD","A2PEN75MMUA963","31D0ZWOD0AL5TKHZZFW9PF504XD0AR","","295","img/land2.png","74","296","1","0","1","2","0.8,0.2,0.2,0.2,0.8,0.2,0.2,0.2,0.8","0.8,0.2,0.2,0.2,0.8,0.2,0.2,0.2,0.8","1","",""
"","html-keyboard-response","294","141436","0.0-294.0","3UNH76FOCTR5E0K3VS2PFHQ8I4HMYD","A2PEN75MMUA963","31D0ZWOD0AL5TKHZZFW9PF504XD0AR","","null","<img src=""img/land2.png"" style=""width:200px;border:14px solid red;"">","null","","","","","","","","","",""
"","image-keyboard-response","295","141796","0.0-295.0","3UNH76FOCTR5E0K3VS2PFHQ8I4HMYD","A2PEN75MMUA963","31D0ZWOD0AL5TKHZZFW9PF504XD0AR","","357","img/land4.png","74","360","1","1","3","2","0.8,0.2,0.2,0.2,0.8,0.2,0.2,0.2,0.8","0.8,0.2,0.2,0.2,0.8,0.2,0.2,0.2,0.8","1","",""
"","html-keyboard-response","296","142101","0.0-296.0","3UNH76FOCTR5E0K3VS2PFHQ8I4HMYD","A2PEN75MMUA963","31D0ZWOD0AL5TKHZZFW9PF504XD0AR","","null","<img src=""img/land4.png"" style=""width:200px; border:14px solid green;"">","null","","","","","","","","","",""
"","image-keyboard-response","297","142259","0.0-297.0","3UNH76FOCTR5E0K3VS2PFHQ8I4HMYD","A2PEN75MMUA963","31D0ZWOD0AL5TKHZZFW9PF504XD0AR","","154","img/land2.png","74","156","1","1","1","2","0.8,0.2,0.2,0.2,0.8,0.2,0.2,0.2,0.8","0.8,0.2,0.2,0.2,0.8,0.2,0.2,0.2,0.8","1","",""
"","html-keyboard-response","298","142562","0.0-298.0","3UNH76FOCTR5E0K3VS2PFHQ8I4HMYD","A2PEN75MMUA963","31D0ZWOD0AL5TKHZZFW9PF504XD0AR","","null","<img src=""img/land2.png"" style=""width:200px; border:14px solid green;"">","null","","","","","","","","","",""
"","image-keyboard-response","299","143004","0.0-299.0","3UNH76FOCTR5E0K3VS2PFHQ8I4HMYD","A2PEN75MMUA963","31D0ZWOD0AL5TKHZZFW9PF504XD0AR","","440","img/land2.png","74","443","1","1","1","2","0.8,0.2,0.2,0.2,0.8,0.2,0.2,0.2,0.8","0.8,0.2,0.2,0.2,0.8,0.2,0.2,0.2,0.8","1","",""
"","html-keyboard-response","300","143307","0.0-300.0","3UNH76FOCTR5E0K3VS2PFHQ8I4HMYD","A2PEN75MMUA963","31D0ZWOD0AL5TKHZZFW9PF504XD0AR","","null","<img src=""img/land2.png"" style=""width:200px; border:14px solid green;"">","null","","","","","","","","","",""
"","image-keyboard-response","301","143629","0.0-301.0","3UNH76FOCTR5E0K3VS2PFHQ8I4HMYD","A2PEN75MMUA963","31D0ZWOD0AL5TKHZZFW9PF504XD0AR","","320","img/land2.png","74","322","1","1","1","2","0.8,0.2,0.2,0.2,0.8,0.2,0.2,0.2,0.8","0.8,0.2,0.2,0.2,0.8,0.2,0.2,0.2,0.8","1","",""
"","html-keyboard-response","302","143932","0.0-302.0","3UNH76FOCTR5E0K3VS2PFHQ8I4HMYD","A2PEN75MMUA963","31D0ZWOD0AL5TKHZZFW9PF504XD0AR","","null","<img src=""img/land2.png"" style=""width:200px; border:14px solid green;"">","null","","","","","","","","","",""
"","image-keyboard-response","303","144301","0.0-303.0","3UNH76FOCTR5E0K3VS2PFHQ8I4HMYD","A2PEN75MMUA963","31D0ZWOD0AL5TKHZZFW9PF504XD0AR","","367","img/land2.png","74","369","1","1","1","2","0.8,0.2,0.2,0.2,0.8,0.2,0.2,0.2,0.8","0.8,0.2,0.2,0.2,0.8,0.2,0.2,0.2,0.8","1","",""
"","html-keyboard-response","304","144604","0.0-304.0","3UNH76FOCTR5E0K3VS2PFHQ8I4HMYD","A2PEN75MMUA963","31D0ZWOD0AL5TKHZZFW9PF504XD0AR","","null","<img src=""img/land2.png"" style=""width:200px; border:14px solid green;"">","null","","","","","","","","","",""
"","image-keyboard-response","305","144853","0.0-305.0","3UNH76FOCTR5E0K3VS2PFHQ8I4HMYD","A2PEN75MMUA963","31D0ZWOD0AL5TKHZZFW9PF504XD0AR","","246","img/land2.png","74","249","1","1","1","2","0.8,0.2,0.2,0.2,0.8,0.2,0.2,0.2,0.8","0.8,0.2,0.2,0.2,0.8,0.2,0.2,0.2,0.8","1","",""
"","html-keyboard-response","306","145156","0.0-306.0","3UNH76FOCTR5E0K3VS2PFHQ8I4HMYD","A2PEN75MMUA963","31D0ZWOD0AL5TKHZZFW9PF504XD0AR","","null","<img src=""img/land2.png"" style=""width:200px; border:14px solid green;"">","null","","","","","","","","","",""
"","image-keyboard-response","307","145428","0.0-307.0","3UNH76FOCTR5E0K3VS2PFHQ8I4HMYD","A2PEN75MMUA963","31D0ZWOD0AL5TKHZZFW9PF504XD0AR","","269","img/land2.png","74","273","1","1","1","2","0.8,0.2,0.2,0.2,0.8,0.2,0.2,0.2,0.8","0.8,0.2,0.2,0.2,0.8,0.2,0.2,0.2,0.8","1","",""
"","html-keyboard-response","308","145732","0.0-308.0","3UNH76FOCTR5E0K3VS2PFHQ8I4HMYD","A2PEN75MMUA963","31D0ZWOD0AL5TKHZZFW9PF504XD0AR","","null","<img src=""img/land2.png"" style=""width:200px; border:14px solid green;"">","null","","","","","","","","","",""
"","image-keyboard-response","309","146385","0.0-309.0","3UNH76FOCTR5E0K3VS2PFHQ8I4HMYD","A2PEN75MMUA963","31D0ZWOD0AL5TKHZZFW9PF504XD0AR","","650","img/land5.png","75","653","2","1","2","2","0.8,0.2,0.2,0.2,0.8,0.2,0.2,0.2,0.8","0.8,0.2,0.2,0.2,0.8,0.2,0.2,0.2,0.8","1","",""
"","html-keyboard-response","310","146688","0.0-310.0","3UNH76FOCTR5E0K3VS2PFHQ8I4HMYD","A2PEN75MMUA963","31D0ZWOD0AL5TKHZZFW9PF504XD0AR","","null","<img src=""img/land5.png"" style=""width:200px; border:14px solid green;"">","null","","","","","","","","","",""
"","image-keyboard-response","311","146912","0.0-311.0","3UNH76FOCTR5E0K3VS2PFHQ8I4HMYD","A2PEN75MMUA963","31D0ZWOD0AL5TKHZZFW9PF504XD0AR","","222","img/land5.png","75","224","2","1","2","2","0.8,0.2,0.2,0.2,0.8,0.2,0.2,0.2,0.8","0.8,0.2,0.2,0.2,0.8,0.2,0.2,0.2,0.8","1","",""
"","html-keyboard-response","312","147216","0.0-312.0","3UNH76FOCTR5E0K3VS2PFHQ8I4HMYD","A2PEN75MMUA963","31D0ZWOD0AL5TKHZZFW9PF504XD0AR","","null","<img src=""img/land5.png"" style=""width:200px; border:14px solid green;"">","null","","","","","","","","","",""
"","image-keyboard-response","313","147369","0.0-313.0","3UNH76FOCTR5E0K3VS2PFHQ8I4HMYD","A2PEN75MMUA963","31D0ZWOD0AL5TKHZZFW9PF504XD0AR","","151","img/land2.png","75","153","2","0","1","2","0.8,0.2,0.2,0.2,0.8,0.2,0.2,0.2,0.8","0.8,0.2,0.2,0.2,0.8,0.2,0.2,0.2,0.8","1","",""
"","html-keyboard-response","314","147672","0.0-314.0","3UNH76FOCTR5E0K3VS2PFHQ8I4HMYD","A2PEN75MMUA963","31D0ZWOD0AL5TKHZZFW9PF504XD0AR","","null","<img src=""img/land2.png"" style=""width:200px;border:14px solid red;"">","null","","","","","","","","","",""
"","image-keyboard-response","315","147816","0.0-315.0","3UNH76FOCTR5E0K3VS2PFHQ8I4HMYD","A2PEN75MMUA963","31D0ZWOD0AL5TKHZZFW9PF504XD0AR","","141","img/land2.png","74","143","1","1","1","2","0.8,0.2,0.2,0.2,0.8,0.2,0.2,0.2,0.8","0.8,0.2,0.2,0.2,0.8,0.2,0.2,0.2,0.8","1","",""
"","html-keyboard-response","316","148119","0.0-316.0","3UNH76FOCTR5E0K3VS2PFHQ8I4HMYD","A2PEN75MMUA963","31D0ZWOD0AL5TKHZZFW9PF504XD0AR","","null","<img src=""img/land2.png"" style=""width:200px; border:14px solid green;"">","null","","","","","","","","","",""
"","image-keyboard-response","317","148264","0.0-317.0","3UNH76FOCTR5E0K3VS2PFHQ8I4HMYD","A2PEN75MMUA963","31D0ZWOD0AL5TKHZZFW9PF504XD0AR","","143","img/land2.png","74","144","1","1","1","2","0.8,0.2,0.2,0.2,0.8,0.2,0.2,0.2,0.8","0.8,0.2,0.2,0.2,0.8,0.2,0.2,0.2,0.8","1","",""
"","html-keyboard-response","318","148568","0.0-318.0","3UNH76FOCTR5E0K3VS2PFHQ8I4HMYD","A2PEN75MMUA963","31D0ZWOD0AL5TKHZZFW9PF504XD0AR","","null","<img src=""img/land2.png"" style=""width:200px; border:14px solid green;"">","null","","","","","","","","","",""
"","image-keyboard-response","319","148728","0.0-319.0","3UNH76FOCTR5E0K3VS2PFHQ8I4HMYD","A2PEN75MMUA963","31D0ZWOD0AL5TKHZZFW9PF504XD0AR","","158","img/land2.png","74","160","1","0","1","2","0.8,0.2,0.2,0.2,0.8,0.2,0.2,0.2,0.8","0.8,0.2,0.2,0.2,0.8,0.2,0.2,0.2,0.8","1","",""
"","html-keyboard-response","320","149031","0.0-320.0","3UNH76FOCTR5E0K3VS2PFHQ8I4HMYD","A2PEN75MMUA963","31D0ZWOD0AL5TKHZZFW9PF504XD0AR","","null","<img src=""img/land2.png"" style=""width:200px;border:14px solid red;"">","null","","","","","","","","","",""
"","image-keyboard-response","321","149392","0.0-321.0","3UNH76FOCTR5E0K3VS2PFHQ8I4HMYD","A2PEN75MMUA963","31D0ZWOD0AL5TKHZZFW9PF504XD0AR","","360","img/land2.png","74","361","1","0","1","2","0.8,0.2,0.2,0.2,0.8,0.2,0.2,0.2,0.8","0.8,0.2,0.2,0.2,0.8,0.2,0.2,0.2,0.8","1","",""
"","html-keyboard-response","322","149695","0.0-322.0","3UNH76FOCTR5E0K3VS2PFHQ8I4HMYD","A2PEN75MMUA963","31D0ZWOD0AL5TKHZZFW9PF504XD0AR","","null","<img src=""img/land2.png"" style=""width:200px;border:14px solid red;"">","null","","","","","","","","","",""
"","image-keyboard-response","323","149996","0.0-323.0","3UNH76FOCTR5E0K3VS2PFHQ8I4HMYD","A2PEN75MMUA963","31D0ZWOD0AL5TKHZZFW9PF504XD0AR","","298","img/land2.png","74","299","1","1","1","2","0.8,0.2,0.2,0.2,0.8,0.2,0.2,0.2,0.8","0.8,0.2,0.2,0.2,0.8,0.2,0.2,0.2,0.8","1","",""
"","html-keyboard-response","324","150298","0.0-324.0","3UNH76FOCTR5E0K3VS2PFHQ8I4HMYD","A2PEN75MMUA963","31D0ZWOD0AL5TKHZZFW9PF504XD0AR","","null","<img src=""img/land2.png"" style=""width:200px; border:14px solid green;"">","null","","","","","","","","","",""
"","image-keyboard-response","325","150507","0.0-325.0","3UNH76FOCTR5E0K3VS2PFHQ8I4HMYD","A2PEN75MMUA963","31D0ZWOD0AL5TKHZZFW9PF504XD0AR","","206","img/land2.png","74","207","1","1","1","2","0.8,0.2,0.2,0.2,0.8,0.2,0.2,0.2,0.8","0.8,0.2,0.2,0.2,0.8,0.2,0.2,0.2,0.8","1","",""
"","html-keyboard-response","326","150809","0.0-326.0","3UNH76FOCTR5E0K3VS2PFHQ8I4HMYD","A2PEN75MMUA963","31D0ZWOD0AL5TKHZZFW9PF504XD0AR","","null","<img src=""img/land2.png"" style=""width:200px; border:14px solid green;"">","null","","","","","","","","","",""
"","image-keyboard-response","327","150924","0.0-327.0","3UNH76FOCTR5E0K3VS2PFHQ8I4HMYD","A2PEN75MMUA963","31D0ZWOD0AL5TKHZZFW9PF504XD0AR","","113","img/land4.png","74","115","1","0","3","2","0.8,0.2,0.2,0.2,0.8,0.2,0.2,0.2,0.8","0.8,0.2,0.2,0.2,0.8,0.2,0.2,0.2,0.8","1","",""
"","html-keyboard-response","328","151226","0.0-328.0","3UNH76FOCTR5E0K3VS2PFHQ8I4HMYD","A2PEN75MMUA963","31D0ZWOD0AL5TKHZZFW9PF504XD0AR","","null","<img src=""img/land4.png"" style=""width:200px;border:14px solid red;"">","null","","","","","","","","","",""
"","image-keyboard-response","329","151490","0.0-329.0","3UNH76FOCTR5E0K3VS2PFHQ8I4HMYD","A2PEN75MMUA963","31D0ZWOD0AL5TKHZZFW9PF504XD0AR","","262","img/land4.png","75","263","2","1","3","2","0.8,0.2,0.2,0.2,0.8,0.2,0.2,0.2,0.8","0.8,0.2,0.2,0.2,0.8,0.2,0.2,0.2,0.8","1","",""
"","html-keyboard-response","330","151793","0.0-330.0","3UNH76FOCTR5E0K3VS2PFHQ8I4HMYD","A2PEN75MMUA963","31D0ZWOD0AL5TKHZZFW9PF504XD0AR","","null","<img src=""img/land4.png"" style=""width:200px; border:14px solid green;"">","null","","","","","","","","","",""
"","image-keyboard-response","331","151920","0.0-331.0","3UNH76FOCTR5E0K3VS2PFHQ8I4HMYD","A2PEN75MMUA963","31D0ZWOD0AL5TKHZZFW9PF504XD0AR","","124","img/land2.png","75","126","2","0","1","2","0.8,0.2,0.2,0.2,0.8,0.2,0.2,0.2,0.8","0.8,0.2,0.2,0.2,0.8,0.2,0.2,0.2,0.8","1","",""
"","html-keyboard-response","332","152224","0.0-332.0","3UNH76FOCTR5E0K3VS2PFHQ8I4HMYD","A2PEN75MMUA963","31D0ZWOD0AL5TKHZZFW9PF504XD0AR","","null","<img src=""img/land2.png"" style=""width:200px;border:14px solid red;"">","null","","","","","","","","","",""
"","image-keyboard-response","333","152378","0.0-333.0","3UNH76FOCTR5E0K3VS2PFHQ8I4HMYD","A2PEN75MMUA963","31D0ZWOD0AL5TKHZZFW9PF504XD0AR","","151","img/land2.png","74","153","1","1","1","2","0.8,0.2,0.2,0.2,0.8,0.2,0.2,0.2,0.8","0.8,0.2,0.2,0.2,0.8,0.2,0.2,0.2,0.8","1","",""
"","html-keyboard-response","334","152681","0.0-334.0","3UNH76FOCTR5E0K3VS2PFHQ8I4HMYD","A2PEN75MMUA963","31D0ZWOD0AL5TKHZZFW9PF504XD0AR","","null","<img src=""img/land2.png"" style=""width:200px; border:14px solid green;"">","null","","","","","","","","","",""
"","image-keyboard-response","335","152803","0.0-335.0","3UNH76FOCTR5E0K3VS2PFHQ8I4HMYD","A2PEN75MMUA963","31D0ZWOD0AL5TKHZZFW9PF504XD0AR","","120","img/land2.png","74","121","1","1","1","2","0.8,0.2,0.2,0.2,0.8,0.2,0.2,0.2,0.8","0.8,0.2,0.2,0.2,0.8,0.2,0.2,0.2,0.8","1","",""
"","html-keyboard-response","336","153105","0.0-336.0","3UNH76FOCTR5E0K3VS2PFHQ8I4HMYD","A2PEN75MMUA963","31D0ZWOD0AL5TKHZZFW9PF504XD0AR","","null","<img src=""img/land2.png"" style=""width:200px; border:14px solid green;"">","null","","","","","","","","","",""
"","image-keyboard-response","337","153291","0.0-337.0","3UNH76FOCTR5E0K3VS2PFHQ8I4HMYD","A2PEN75MMUA963","31D0ZWOD0AL5TKHZZFW9PF504XD0AR","","183","img/land5.png","74","186","1","0","2","2","0.8,0.2,0.2,0.2,0.8,0.2,0.2,0.2,0.8","0.8,0.2,0.2,0.2,0.8,0.2,0.2,0.2,0.8","1","",""
"","html-keyboard-response","338","153594","0.0-338.0","3UNH76FOCTR5E0K3VS2PFHQ8I4HMYD","A2PEN75MMUA963","31D0ZWOD0AL5TKHZZFW9PF504XD0AR","","null","<img src=""img/land5.png"" style=""width:200px;border:14px solid red;"">","null","","","","","","","","","",""
"","image-keyboard-response","339","153811","0.0-339.0","3UNH76FOCTR5E0K3VS2PFHQ8I4HMYD","A2PEN75MMUA963","31D0ZWOD0AL5TKHZZFW9PF504XD0AR","","215","img/land2.png","75","217","2","0","1","2","0.8,0.2,0.2,0.2,0.8,0.2,0.2,0.2,0.8","0.8,0.2,0.2,0.2,0.8,0.2,0.2,0.2,0.8","1","",""
"","html-keyboard-response","340","154114","0.0-340.0","3UNH76FOCTR5E0K3VS2PFHQ8I4HMYD","A2PEN75MMUA963","31D0ZWOD0AL5TKHZZFW9PF504XD0AR","","null","<img src=""img/land2.png"" style=""width:200px;border:14px solid red;"">","null","","","","","","","","","",""
"","image-keyboard-response","341","154422","0.0-341.0","3UNH76FOCTR5E0K3VS2PFHQ8I4HMYD","A2PEN75MMUA963","31D0ZWOD0AL5TKHZZFW9PF504XD0AR","","304","img/land2.png","75","306","2","1","1","2","0.8,0.2,0.2,0.2,0.8,0.2,0.2,0.2,0.8","0.8,0.2,0.2,0.2,0.8,0.2,0.2,0.2,0.8","1","",""
"","html-keyboard-response","342","154723","0.0-342.0","3UNH76FOCTR5E0K3VS2PFHQ8I4HMYD","A2PEN75MMUA963","31D0ZWOD0AL5TKHZZFW9PF504XD0AR","","null","<img src=""img/land2.png"" style=""width:200px; border:14px solid green;"">","null","","","","","","","","","",""
"","image-keyboard-response","343","154746","0.0-343.0","3UNH76FOCTR5E0K3VS2PFHQ8I4HMYD","A2PEN75MMUA963","31D0ZWOD0AL5TKHZZFW9PF504XD0AR","","20","img/land2.png","74","22","1","1","1","2","0.8,0.2,0.2,0.2,0.8,0.2,0.2,0.2,0.8","0.8,0.2,0.2,0.2,0.8,0.2,0.2,0.2,0.8","1","",""
"","html-keyboard-response","344","155049","0.0-344.0","3UNH76FOCTR5E0K3VS2PFHQ8I4HMYD","A2PEN75MMUA963","31D0ZWOD0AL5TKHZZFW9PF504XD0AR","","null","<img src=""img/land2.png"" style=""width:200px; border:14px solid green;"">","null","","","","","","","","","",""
"","image-keyboard-response","345","155277","0.0-345.0","3UNH76FOCTR5E0K3VS2PFHQ8I4HMYD","A2PEN75MMUA963","31D0ZWOD0AL5TKHZZFW9PF504XD0AR","","226","img/land4.png","74","228","1","0","3","2","0.8,0.2,0.2,0.2,0.8,0.2,0.2,0.2,0.8","0.8,0.2,0.2,0.2,0.8,0.2,0.2,0.2,0.8","1","",""
"","html-keyboard-response","346","155581","0.0-346.0","3UNH76FOCTR5E0K3VS2PFHQ8I4HMYD","A2PEN75MMUA963","31D0ZWOD0AL5TKHZZFW9PF504XD0AR","","null","<img src=""img/land4.png"" style=""width:200px;border:14px solid red;"">","null","","","","","","","","","",""
"","image-keyboard-response","347","155799","0.0-347.0","3UNH76FOCTR5E0K3VS2PFHQ8I4HMYD","A2PEN75MMUA963","31D0ZWOD0AL5TKHZZFW9PF504XD0AR","","216","img/land5.png","74","218","1","0","2","2","0.8,0.2,0.2,0.2,0.8,0.2,0.2,0.2,0.8","0.8,0.2,0.2,0.2,0.8,0.2,0.2,0.2,0.8","1","",""
"","html-keyboard-response","348","156102","0.0-348.0","3UNH76FOCTR5E0K3VS2PFHQ8I4HMYD","A2PEN75MMUA963","31D0ZWOD0AL5TKHZZFW9PF504XD0AR","","null","<img src=""img/land5.png"" style=""width:200px;border:14px solid red;"">","null","","","","","","","","","",""
"","image-keyboard-response","349","156245","0.0-349.0","3UNH76FOCTR5E0K3VS2PFHQ8I4HMYD","A2PEN75MMUA963","31D0ZWOD0AL5TKHZZFW9PF504XD0AR","","141","img/land2.png","74","143","1","1","1","2","0.8,0.2,0.2,0.2,0.8,0.2,0.2,0.2,0.8","0.8,0.2,0.2,0.2,0.8,0.2,0.2,0.2,0.8","1","",""
"","html-keyboard-response","350","156548","0.0-350.0","3UNH76FOCTR5E0K3VS2PFHQ8I4HMYD","A2PEN75MMUA963","31D0ZWOD0AL5TKHZZFW9PF504XD0AR","","null","<img src=""img/land2.png"" style=""width:200px; border:14px solid green;"">","null","","","","","","","","","",""
"","image-keyboard-response","351","156808","0.0-351.0","3UNH76FOCTR5E0K3VS2PFHQ8I4HMYD","A2PEN75MMUA963","31D0ZWOD0AL5TKHZZFW9PF504XD0AR","","257","img/land2.png","74","261","1","1","1","2","0.8,0.2,0.2,0.2,0.8,0.2,0.2,0.2,0.8","0.8,0.2,0.2,0.2,0.8,0.2,0.2,0.2,0.8","1","",""
"","html-keyboard-response","352","157111","0.0-352.0","3UNH76FOCTR5E0K3VS2PFHQ8I4HMYD","A2PEN75MMUA963","31D0ZWOD0AL5TKHZZFW9PF504XD0AR","","null","<img src=""img/land2.png"" style=""width:200px; border:14px solid green;"">","null","","","","","","","","","",""
"","image-keyboard-response","353","157466","0.0-353.0","3UNH76FOCTR5E0K3VS2PFHQ8I4HMYD","A2PEN75MMUA963","31D0ZWOD0AL5TKHZZFW9PF504XD0AR","","353","img/land4.png","74","355","1","0","3","2","0.8,0.2,0.2,0.2,0.8,0.2,0.2,0.2,0.8","0.8,0.2,0.2,0.2,0.8,0.2,0.2,0.2,0.8","1","",""
"","html-keyboard-response","354","157770","0.0-354.0","3UNH76FOCTR5E0K3VS2PFHQ8I4HMYD","A2PEN75MMUA963","31D0ZWOD0AL5TKHZZFW9PF504XD0AR","","null","<img src=""img/land4.png"" style=""width:200px;border:14px solid red;"">","null","","","","","","","","","",""
"","image-keyboard-response","355","157904","0.0-355.0","3UNH76FOCTR5E0K3VS2PFHQ8I4HMYD","A2PEN75MMUA963","31D0ZWOD0AL5TKHZZFW9PF504XD0AR","","132","img/land4.png","74","134","1","0","3","2","0.8,0.2,0.2,0.2,0.8,0.2,0.2,0.2,0.8","0.8,0.2,0.2,0.2,0.8,0.2,0.2,0.2,0.8","1","",""
"","html-keyboard-response","356","158210","0.0-356.0","3UNH76FOCTR5E0K3VS2PFHQ8I4HMYD","A2PEN75MMUA963","31D0ZWOD0AL5TKHZZFW9PF504XD0AR","","null","<img src=""img/land4.png"" style=""width:200px;border:14px solid red;"">","null","","","","","","","","","",""
"","image-keyboard-response","357","158325","0.0-357.0","3UNH76FOCTR5E0K3VS2PFHQ8I4HMYD","A2PEN75MMUA963","31D0ZWOD0AL5TKHZZFW9PF504XD0AR","","114","img/land2.png","74","115","1","0","1","2","0.8,0.2,0.2,0.2,0.8,0.2,0.2,0.2,0.8","0.8,0.2,0.2,0.2,0.8,0.2,0.2,0.2,0.8","1","",""
"","html-keyboard-response","358","158628","0.0-358.0","3UNH76FOCTR5E0K3VS2PFHQ8I4HMYD","A2PEN75MMUA963","31D0ZWOD0AL5TKHZZFW9PF504XD0AR","","null","<img src=""img/land2.png"" style=""width:200px;border:14px solid red;"">","null","","","","","","","","","",""
"","image-keyboard-response","359","158940","0.0-359.0","3UNH76FOCTR5E0K3VS2PFHQ8I4HMYD","A2PEN75MMUA963","31D0ZWOD0AL5TKHZZFW9PF504XD0AR","","309","img/land2.png","74","311","1","0","1","2","0.8,0.2,0.2,0.2,0.8,0.2,0.2,0.2,0.8","0.8,0.2,0.2,0.2,0.8,0.2,0.2,0.2,0.8","1","",""
"","html-keyboard-response","360","159242","0.0-360.0","3UNH76FOCTR5E0K3VS2PFHQ8I4HMYD","A2PEN75MMUA963","31D0ZWOD0AL5TKHZZFW9PF504XD0AR","","null","<img src=""img/land2.png"" style=""width:200px;border:14px solid red;"">","null","","","","","","","","","",""
"","image-keyboard-response","361","159601","0.0-361.0","3UNH76FOCTR5E0K3VS2PFHQ8I4HMYD","A2PEN75MMUA963","31D0ZWOD0AL5TKHZZFW9PF504XD0AR","","356","img/land5.png","76","358","3","1","2","2","0.8,0.2,0.2,0.2,0.8,0.2,0.2,0.2,0.8","0.8,0.2,0.2,0.2,0.8,0.2,0.2,0.2,0.8","1","",""
"","html-keyboard-response","362","159906","0.0-362.0","3UNH76FOCTR5E0K3VS2PFHQ8I4HMYD","A2PEN75MMUA963","31D0ZWOD0AL5TKHZZFW9PF504XD0AR","","null","<img src=""img/land5.png"" style=""width:200px; border:14px solid green;"">","null","","","","","","","","","",""
"","image-keyboard-response","363","159939","0.0-363.0","3UNH76FOCTR5E0K3VS2PFHQ8I4HMYD","A2PEN75MMUA963","31D0ZWOD0AL5TKHZZFW9PF504XD0AR","","31","img/land4.png","76","32","3","1","3","2","0.8,0.2,0.2,0.2,0.8,0.2,0.2,0.2,0.8","0.8,0.2,0.2,0.2,0.8,0.2,0.2,0.2,0.8","1","",""
"","html-keyboard-response","364","160241","0.0-364.0","3UNH76FOCTR5E0K3VS2PFHQ8I4HMYD","A2PEN75MMUA963","31D0ZWOD0AL5TKHZZFW9PF504XD0AR","","null","<img src=""img/land4.png"" style=""width:200px; border:14px solid green;"">","null","","","","","","","","","",""
"","image-keyboard-response","365","160426","0.0-365.0","3UNH76FOCTR5E0K3VS2PFHQ8I4HMYD","A2PEN75MMUA963","31D0ZWOD0AL5TKHZZFW9PF504XD0AR","","182","img/land2.png","76","184","3","1","1","2","0.8,0.2,0.2,0.2,0.8,0.2,0.2,0.2,0.8","0.8,0.2,0.2,0.2,0.8,0.2,0.2,0.2,0.8","1","",""
"","html-keyboard-response","366","160730","0.0-366.0","3UNH76FOCTR5E0K3VS2PFHQ8I4HMYD","A2PEN75MMUA963","31D0ZWOD0AL5TKHZZFW9PF504XD0AR","","null","<img src=""img/land2.png"" style=""width:200px; border:14px solid green;"">","null","","","","","","","","","",""
"","image-keyboard-response","367","160944","0.0-367.0","3UNH76FOCTR5E0K3VS2PFHQ8I4HMYD","A2PEN75MMUA963","31D0ZWOD0AL5TKHZZFW9PF504XD0AR","","212","img/land5.png","76","214","3","0","2","2","0.8,0.2,0.2,0.2,0.8,0.2,0.2,0.2,0.8","0.8,0.2,0.2,0.2,0.8,0.2,0.2,0.2,0.8","1","",""
"","html-keyboard-response","368","161246","0.0-368.0","3UNH76FOCTR5E0K3VS2PFHQ8I4HMYD","A2PEN75MMUA963","31D0ZWOD0AL5TKHZZFW9PF504XD0AR","","null","<img src=""img/land5.png"" style=""width:200px;border:14px solid red;"">","null","","","","","","","","","",""
"","image-keyboard-response","369","161339","0.0-369.0","3UNH76FOCTR5E0K3VS2PFHQ8I4HMYD","A2PEN75MMUA963","31D0ZWOD0AL5TKHZZFW9PF504XD0AR","","89","img/land5.png","74","91","1","0","2","2","0.8,0.2,0.2,0.2,0.8,0.2,0.2,0.2,0.8","0.8,0.2,0.2,0.2,0.8,0.2,0.2,0.2,0.8","1","",""
"","html-keyboard-response","370","161641","0.0-370.0","3UNH76FOCTR5E0K3VS2PFHQ8I4HMYD","A2PEN75MMUA963","31D0ZWOD0AL5TKHZZFW9PF504XD0AR","","null","<img src=""img/land5.png"" style=""width:200px;border:14px solid red;"">","null","","","","","","","","","",""
