"success","trial_type","trial_index","time_elapsed","internal_node_id","assignmentID","mturkID","hitID","view_history","rt","stimulus","key_press","reactionTime","a","r","s","cond","reward_cond","reward_cond_actual","reward_matrix_idx","responses","question_order"
"true","fullscreen","0","3521","0.0-0.0","3DQQ64TANH77AYMG87CTBOZNC6IWPK","A2QFZ2524HID2B","3I7KR83SNAZT1REYB2SRC49PCEEK9H","","","","","","","","","","","","","",""
"","instructions","1","17617","0.0-1.0","3DQQ64TANH77AYMG87CTBOZNC6IWPK","A2QFZ2524HID2B","3I7KR83SNAZT1REYB2SRC49PCEEK9H","[{""page_index"":0,""viewing_time"":2487.399999976158},{""page_index"":1,""viewing_time"":3825},{""page_index"":2,""viewing_time"":102.29999995231628},{""page_index"":3,""viewing_time"":1987.5},{""page_index"":4,""viewing_time"":1266.5},{""page_index"":5,""viewing_time"":2136.2000000476837},{""page_index"":6,""viewing_time"":2287.600000023842}]","14093.399999976158","","","","","","","","","","","",""
"","image-keyboard-response","2","18948","0.0-2.0","3DQQ64TANH77AYMG87CTBOZNC6IWPK","A2QFZ2524HID2B","3I7KR83SNAZT1REYB2SRC49PCEEK9H","","1328.1000000238419","img/land6.png","74","1330.2000000476837","1","0","2","1","0.8,0.2,0.2,0.2,0.8,0.2,0.2,0.2,0.8","0.8,0.2,0.2,0.2,0.8,0.2,0.2,0.2,0.8","1","",""
"","html-keyboard-response","3","19259","0.0-3.0","3DQQ64TANH77AYMG87CTBOZNC6IWPK","A2QFZ2524HID2B","3I7KR83SNAZT1REYB2SRC49PCEEK9H","","null","<img src=""img/land6.png"" style=""width:200px;border:14px solid red;"">","null","","","","","","","","","",""
"","image-keyboard-response","4","19419","0.0-4.0","3DQQ64TANH77AYMG87CTBOZNC6IWPK","A2QFZ2524HID2B","3I7KR83SNAZT1REYB2SRC49PCEEK9H","","157.39999997615814","img/land6.png","74","159.39999997615814","1","0","2","1","0.8,0.2,0.2,0.2,0.8,0.2,0.2,0.2,0.8","0.8,0.2,0.2,0.2,0.8,0.2,0.2,0.2,0.8","1","",""
"","html-keyboard-response","5","19723","0.0-5.0","3DQQ64TANH77AYMG87CTBOZNC6IWPK","A2QFZ2524HID2B","3I7KR83SNAZT1REYB2SRC49PCEEK9H","","null","<img src=""img/land6.png"" style=""width:200px;border:14px solid red;"">","null","","","","","","","","","",""
"","image-keyboard-response","6","19840","0.0-6.0","3DQQ64TANH77AYMG87CTBOZNC6IWPK","A2QFZ2524HID2B","3I7KR83SNAZT1REYB2SRC49PCEEK9H","","114.40000009536743","img/land5.png","75","116.5","2","0","1","1","0.8,0.2,0.2,0.2,0.8,0.2,0.2,0.2,0.8","0.8,0.2,0.2,0.2,0.8,0.2,0.2,0.2,0.8","1","",""
"","html-keyboard-response","7","20155","0.0-7.0","3DQQ64TANH77AYMG87CTBOZNC6IWPK","A2QFZ2524HID2B","3I7KR83SNAZT1REYB2SRC49PCEEK9H","","null","<img src=""img/land5.png"" style=""width:200px;border:14px solid red;"">","null","","","","","","","","","",""
"","image-keyboard-response","8","20257","0.0-8.0","3DQQ64TANH77AYMG87CTBOZNC6IWPK","A2QFZ2524HID2B","3I7KR83SNAZT1REYB2SRC49PCEEK9H","","99.70000004768372","img/land5.png","76","101.60000002384186","3","0","1","1","0.8,0.2,0.2,0.2,0.8,0.2,0.2,0.2,0.8","0.8,0.2,0.2,0.2,0.8,0.2,0.2,0.2,0.8","1","",""
"","html-keyboard-response","9","20567","0.0-9.0","3DQQ64TANH77AYMG87CTBOZNC6IWPK","A2QFZ2524HID2B","3I7KR83SNAZT1REYB2SRC49PCEEK9H","","null","<img src=""img/land5.png"" style=""width:200px;border:14px solid red;"">","null","","","","","","","","","",""
"","image-keyboard-response","10","20581","0.0-10.0","3DQQ64TANH77AYMG87CTBOZNC6IWPK","A2QFZ2524HID2B","3I7KR83SNAZT1REYB2SRC49PCEEK9H","","12.5","img/land4.png","75","13.899999976158142","2","0","3","1","0.8,0.2,0.2,0.2,0.8,0.2,0.2,0.2,0.8","0.8,0.2,0.2,0.2,0.8,0.2,0.2,0.2,0.8","1","",""
"","html-keyboard-response","11","20892","0.0-11.0","3DQQ64TANH77AYMG87CTBOZNC6IWPK","A2QFZ2524HID2B","3I7KR83SNAZT1REYB2SRC49PCEEK9H","","null","<img src=""img/land4.png"" style=""width:200px;border:14px solid red;"">","null","","","","","","","","","",""
"","image-keyboard-response","12","20935","0.0-12.0","3DQQ64TANH77AYMG87CTBOZNC6IWPK","A2QFZ2524HID2B","3I7KR83SNAZT1REYB2SRC49PCEEK9H","","40.39999997615814","img/land4.png","74","42.299999952316284","1","0","3","1","0.8,0.2,0.2,0.2,0.8,0.2,0.2,0.2,0.8","0.8,0.2,0.2,0.2,0.8,0.2,0.2,0.2,0.8","1","",""
"","html-keyboard-response","13","21248","0.0-13.0","3DQQ64TANH77AYMG87CTBOZNC6IWPK","A2QFZ2524HID2B","3I7KR83SNAZT1REYB2SRC49PCEEK9H","","null","<img src=""img/land4.png"" style=""width:200px;border:14px solid red;"">","null","","","","","","","","","",""
"","image-keyboard-response","14","21405","0.0-14.0","3DQQ64TANH77AYMG87CTBOZNC6IWPK","A2QFZ2524HID2B","3I7KR83SNAZT1REYB2SRC49PCEEK9H","","154.90000009536743","img/land4.png","74","156.69999992847443","1","0","3","1","0.8,0.2,0.2,0.2,0.8,0.2,0.2,0.2,0.8","0.8,0.2,0.2,0.2,0.8,0.2,0.2,0.2,0.8","1","",""
"","html-keyboard-response","15","21721","0.0-15.0","3DQQ64TANH77AYMG87CTBOZNC6IWPK","A2QFZ2524HID2B","3I7KR83SNAZT1REYB2SRC49PCEEK9H","","null","<img src=""img/land4.png"" style=""width:200px;border:14px solid red;"">","null","","","","","","","","","",""
"","image-keyboard-response","16","22277","0.0-16.0","3DQQ64TANH77AYMG87CTBOZNC6IWPK","A2QFZ2524HID2B","3I7KR83SNAZT1REYB2SRC49PCEEK9H","","553.2999999523163","img/land4.png","75","555.2000000476837","2","0","3","1","0.8,0.2,0.2,0.2,0.8,0.2,0.2,0.2,0.8","0.8,0.2,0.2,0.2,0.8,0.2,0.2,0.2,0.8","1","",""
"","html-keyboard-response","17","22583","0.0-17.0","3DQQ64TANH77AYMG87CTBOZNC6IWPK","A2QFZ2524HID2B","3I7KR83SNAZT1REYB2SRC49PCEEK9H","","null","<img src=""img/land4.png"" style=""width:200px;border:14px solid red;"">","null","","","","","","","","","",""
"","image-keyboard-response","18","22836","0.0-18.0","3DQQ64TANH77AYMG87CTBOZNC6IWPK","A2QFZ2524HID2B","3I7KR83SNAZT1REYB2SRC49PCEEK9H","","250.89999997615814","img/land5.png","75","252.5","2","0","1","1","0.8,0.2,0.2,0.2,0.8,0.2,0.2,0.2,0.8","0.8,0.2,0.2,0.2,0.8,0.2,0.2,0.2,0.8","1","",""
"","html-keyboard-response","19","23156","0.0-19.0","3DQQ64TANH77AYMG87CTBOZNC6IWPK","A2QFZ2524HID2B","3I7KR83SNAZT1REYB2SRC49PCEEK9H","","null","<img src=""img/land5.png"" style=""width:200px;border:14px solid red;"">","null","","","","","","","","","",""
"","image-keyboard-response","20","23175","0.0-20.0","3DQQ64TANH77AYMG87CTBOZNC6IWPK","A2QFZ2524HID2B","3I7KR83SNAZT1REYB2SRC49PCEEK9H","","16.799999952316284","img/land4.png","76","18.899999976158142","3","1","3","1","0.8,0.2,0.2,0.2,0.8,0.2,0.2,0.2,0.8","0.8,0.2,0.2,0.2,0.8,0.2,0.2,0.2,0.8","1","",""
"","html-keyboard-response","21","23480","0.0-21.0","3DQQ64TANH77AYMG87CTBOZNC6IWPK","A2QFZ2524HID2B","3I7KR83SNAZT1REYB2SRC49PCEEK9H","","null","<img src=""img/land4.png"" style=""width:200px; border:14px solid green;"">","null","","","","","","","","","",""
"","image-keyboard-response","22","23678","0.0-22.0","3DQQ64TANH77AYMG87CTBOZNC6IWPK","A2QFZ2524HID2B","3I7KR83SNAZT1REYB2SRC49PCEEK9H","","195.10000002384186","img/land5.png","76","196.79999995231628","3","0","1","1","0.8,0.2,0.2,0.2,0.8,0.2,0.2,0.2,0.8","0.8,0.2,0.2,0.2,0.8,0.2,0.2,0.2,0.8","1","",""
"","html-keyboard-response","23","23987","0.0-23.0","3DQQ64TANH77AYMG87CTBOZNC6IWPK","A2QFZ2524HID2B","3I7KR83SNAZT1REYB2SRC49PCEEK9H","","null","<img src=""img/land5.png"" style=""width:200px;border:14px solid red;"">","null","","","","","","","","","",""
"","image-keyboard-response","24","24033","0.0-24.0","3DQQ64TANH77AYMG87CTBOZNC6IWPK","A2QFZ2524HID2B","3I7KR83SNAZT1REYB2SRC49PCEEK9H","","43.300000071525574","img/land5.png","75","44.90000009536743","2","0","1","1","0.8,0.2,0.2,0.2,0.8,0.2,0.2,0.2,0.8","0.8,0.2,0.2,0.2,0.8,0.2,0.2,0.2,0.8","1","",""
"","html-keyboard-response","25","24345","0.0-25.0","3DQQ64TANH77AYMG87CTBOZNC6IWPK","A2QFZ2524HID2B","3I7KR83SNAZT1REYB2SRC49PCEEK9H","","null","<img src=""img/land5.png"" style=""width:200px;border:14px solid red;"">","null","","","","","","","","","",""
"","image-keyboard-response","26","24430","0.0-26.0","3DQQ64TANH77AYMG87CTBOZNC6IWPK","A2QFZ2524HID2B","3I7KR83SNAZT1REYB2SRC49PCEEK9H","","82.59999990463257","img/land5.png","74","84.5","1","1","1","1","0.8,0.2,0.2,0.2,0.8,0.2,0.2,0.2,0.8","0.8,0.2,0.2,0.2,0.8,0.2,0.2,0.2,0.8","1","",""
"","html-keyboard-response","27","24749","0.0-27.0","3DQQ64TANH77AYMG87CTBOZNC6IWPK","A2QFZ2524HID2B","3I7KR83SNAZT1REYB2SRC49PCEEK9H","","null","<img src=""img/land5.png"" style=""width:200px; border:14px solid green;"">","null","","","","","","","","","",""
"","image-keyboard-response","28","24886","0.0-28.0","3DQQ64TANH77AYMG87CTBOZNC6IWPK","A2QFZ2524HID2B","3I7KR83SNAZT1REYB2SRC49PCEEK9H","","134.70000004768372","img/land4.png","74","136.60000002384186","1","0","3","1","0.8,0.2,0.2,0.2,0.8,0.2,0.2,0.2,0.8","0.8,0.2,0.2,0.2,0.8,0.2,0.2,0.2,0.8","1","",""
"","html-keyboard-response","29","25190","0.0-29.0","3DQQ64TANH77AYMG87CTBOZNC6IWPK","A2QFZ2524HID2B","3I7KR83SNAZT1REYB2SRC49PCEEK9H","","null","<img src=""img/land4.png"" style=""width:200px;border:14px solid red;"">","null","","","","","","","","","",""
"","image-keyboard-response","30","25249","0.0-30.0","3DQQ64TANH77AYMG87CTBOZNC6IWPK","A2QFZ2524HID2B","3I7KR83SNAZT1REYB2SRC49PCEEK9H","","56.299999952316284","img/land5.png","76","58","3","0","1","1","0.8,0.2,0.2,0.2,0.8,0.2,0.2,0.2,0.8","0.8,0.2,0.2,0.2,0.8,0.2,0.2,0.2,0.8","1","",""
"","html-keyboard-response","31","25558","0.0-31.0","3DQQ64TANH77AYMG87CTBOZNC6IWPK","A2QFZ2524HID2B","3I7KR83SNAZT1REYB2SRC49PCEEK9H","","null","<img src=""img/land5.png"" style=""width:200px;border:14px solid red;"">","null","","","","","","","","","",""
"","image-keyboard-response","32","25638","0.0-32.0","3DQQ64TANH77AYMG87CTBOZNC6IWPK","A2QFZ2524HID2B","3I7KR83SNAZT1REYB2SRC49PCEEK9H","","77.5","img/land6.png","74","79.5","1","0","2","1","0.8,0.2,0.2,0.2,0.8,0.2,0.2,0.2,0.8","0.8,0.2,0.2,0.2,0.8,0.2,0.2,0.2,0.8","1","",""
"","html-keyboard-response","33","25947","0.0-33.0","3DQQ64TANH77AYMG87CTBOZNC6IWPK","A2QFZ2524HID2B","3I7KR83SNAZT1REYB2SRC49PCEEK9H","","null","<img src=""img/land6.png"" style=""width:200px;border:14px solid red;"">","null","","","","","","","","","",""
"","image-keyboard-response","34","25995","0.0-34.0","3DQQ64TANH77AYMG87CTBOZNC6IWPK","A2QFZ2524HID2B","3I7KR83SNAZT1REYB2SRC49PCEEK9H","","46.60000002384186","img/land5.png","75","48.5","2","0","1","1","0.8,0.2,0.2,0.2,0.8,0.2,0.2,0.2,0.8","0.8,0.2,0.2,0.2,0.8,0.2,0.2,0.2,0.8","1","",""
"","html-keyboard-response","35","26302","0.0-35.0","3DQQ64TANH77AYMG87CTBOZNC6IWPK","A2QFZ2524HID2B","3I7KR83SNAZT1REYB2SRC49PCEEK9H","","null","<img src=""img/land5.png"" style=""width:200px;border:14px solid red;"">","null","","","","","","","","","",""
"","image-keyboard-response","36","26353","0.0-36.0","3DQQ64TANH77AYMG87CTBOZNC6IWPK","A2QFZ2524HID2B","3I7KR83SNAZT1REYB2SRC49PCEEK9H","","48.39999997615814","img/land6.png","76","50.10000002384186","3","0","2","1","0.8,0.2,0.2,0.2,0.8,0.2,0.2,0.2,0.8","0.8,0.2,0.2,0.2,0.8,0.2,0.2,0.2,0.8","1","",""
"","html-keyboard-response","37","26668","0.0-37.0","3DQQ64TANH77AYMG87CTBOZNC6IWPK","A2QFZ2524HID2B","3I7KR83SNAZT1REYB2SRC49PCEEK9H","","null","<img src=""img/land6.png"" style=""width:200px;border:14px solid red;"">","null","","","","","","","","","",""
"","image-keyboard-response","38","26815","0.0-38.0","3DQQ64TANH77AYMG87CTBOZNC6IWPK","A2QFZ2524HID2B","3I7KR83SNAZT1REYB2SRC49PCEEK9H","","145.10000002384186","img/land6.png","74","147.29999995231628","1","0","2","1","0.8,0.2,0.2,0.2,0.8,0.2,0.2,0.2,0.8","0.8,0.2,0.2,0.2,0.8,0.2,0.2,0.2,0.8","1","",""
"","html-keyboard-response","39","27125","0.0-39.0","3DQQ64TANH77AYMG87CTBOZNC6IWPK","A2QFZ2524HID2B","3I7KR83SNAZT1REYB2SRC49PCEEK9H","","null","<img src=""img/land6.png"" style=""width:200px;border:14px solid red;"">","null","","","","","","","","","",""
"","image-keyboard-response","40","27415","0.0-40.0","3DQQ64TANH77AYMG87CTBOZNC6IWPK","A2QFZ2524HID2B","3I7KR83SNAZT1REYB2SRC49PCEEK9H","","288.10000002384186","img/land6.png","76","289.89999997615814","3","0","2","1","0.8,0.2,0.2,0.2,0.8,0.2,0.2,0.2,0.8","0.8,0.2,0.2,0.2,0.8,0.2,0.2,0.2,0.8","1","",""
"","html-keyboard-response","41","27732","0.0-41.0","3DQQ64TANH77AYMG87CTBOZNC6IWPK","A2QFZ2524HID2B","3I7KR83SNAZT1REYB2SRC49PCEEK9H","","null","<img src=""img/land6.png"" style=""width:200px;border:14px solid red;"">","null","","","","","","","","","",""
"","image-keyboard-response","42","27798","0.0-42.0","3DQQ64TANH77AYMG87CTBOZNC6IWPK","A2QFZ2524HID2B","3I7KR83SNAZT1REYB2SRC49PCEEK9H","","63.89999997615814","img/land6.png","74","65.60000002384186","1","0","2","1","0.8,0.2,0.2,0.2,0.8,0.2,0.2,0.2,0.8","0.8,0.2,0.2,0.2,0.8,0.2,0.2,0.2,0.8","1","",""
"","html-keyboard-response","43","28107","0.0-43.0","3DQQ64TANH77AYMG87CTBOZNC6IWPK","A2QFZ2524HID2B","3I7KR83SNAZT1REYB2SRC49PCEEK9H","","null","<img src=""img/land6.png"" style=""width:200px;border:14px solid red;"">","null","","","","","","","","","",""
"","image-keyboard-response","44","28147","0.0-44.0","3DQQ64TANH77AYMG87CTBOZNC6IWPK","A2QFZ2524HID2B","3I7KR83SNAZT1REYB2SRC49PCEEK9H","","37.800000071525574","img/land5.png","75","39.39999997615814","2","0","1","1","0.8,0.2,0.2,0.2,0.8,0.2,0.2,0.2,0.8","0.8,0.2,0.2,0.2,0.8,0.2,0.2,0.2,0.8","1","",""
"","html-keyboard-response","45","28462","0.0-45.0","3DQQ64TANH77AYMG87CTBOZNC6IWPK","A2QFZ2524HID2B","3I7KR83SNAZT1REYB2SRC49PCEEK9H","","null","<img src=""img/land5.png"" style=""width:200px;border:14px solid red;"">","null","","","","","","","","","",""
"","image-keyboard-response","46","28576","0.0-46.0","3DQQ64TANH77AYMG87CTBOZNC6IWPK","A2QFZ2524HID2B","3I7KR83SNAZT1REYB2SRC49PCEEK9H","","111.70000004768372","img/land4.png","76","113.20000004768372","3","1","3","1","0.8,0.2,0.2,0.2,0.8,0.2,0.2,0.2,0.8","0.8,0.2,0.2,0.2,0.8,0.2,0.2,0.2,0.8","1","",""
"","html-keyboard-response","47","28879","0.0-47.0","3DQQ64TANH77AYMG87CTBOZNC6IWPK","A2QFZ2524HID2B","3I7KR83SNAZT1REYB2SRC49PCEEK9H","","null","<img src=""img/land4.png"" style=""width:200px; border:14px solid green;"">","null","","","","","","","","","",""
"","image-keyboard-response","48","28974","0.0-48.0","3DQQ64TANH77AYMG87CTBOZNC6IWPK","A2QFZ2524HID2B","3I7KR83SNAZT1REYB2SRC49PCEEK9H","","93.10000002384186","img/land5.png","74","94.60000002384186","1","1","1","1","0.8,0.2,0.2,0.2,0.8,0.2,0.2,0.2,0.8","0.8,0.2,0.2,0.2,0.8,0.2,0.2,0.2,0.8","1","",""
"","html-keyboard-response","49","29279","0.0-49.0","3DQQ64TANH77AYMG87CTBOZNC6IWPK","A2QFZ2524HID2B","3I7KR83SNAZT1REYB2SRC49PCEEK9H","","null","<img src=""img/land5.png"" style=""width:200px; border:14px solid green;"">","null","","","","","","","","","",""
"","image-keyboard-response","50","29297","0.0-50.0","3DQQ64TANH77AYMG87CTBOZNC6IWPK","A2QFZ2524HID2B","3I7KR83SNAZT1REYB2SRC49PCEEK9H","","16.100000023841858","img/land6.png","75","17.800000071525574","2","1","2","1","0.8,0.2,0.2,0.2,0.8,0.2,0.2,0.2,0.8","0.8,0.2,0.2,0.2,0.8,0.2,0.2,0.2,0.8","1","",""
"","html-keyboard-response","51","29606","0.0-51.0","3DQQ64TANH77AYMG87CTBOZNC6IWPK","A2QFZ2524HID2B","3I7KR83SNAZT1REYB2SRC49PCEEK9H","","null","<img src=""img/land6.png"" style=""width:200px; border:14px solid green;"">","null","","","","","","","","","",""
"","image-keyboard-response","52","29775","0.0-52.0","3DQQ64TANH77AYMG87CTBOZNC6IWPK","A2QFZ2524HID2B","3I7KR83SNAZT1REYB2SRC49PCEEK9H","","166.39999997615814","img/land4.png","76","168.30000007152557","3","1","3","1","0.8,0.2,0.2,0.2,0.8,0.2,0.2,0.2,0.8","0.8,0.2,0.2,0.2,0.8,0.2,0.2,0.2,0.8","1","",""
"","html-keyboard-response","53","30078","0.0-53.0","3DQQ64TANH77AYMG87CTBOZNC6IWPK","A2QFZ2524HID2B","3I7KR83SNAZT1REYB2SRC49PCEEK9H","","null","<img src=""img/land4.png"" style=""width:200px; border:14px solid green;"">","null","","","","","","","","","",""
"","image-keyboard-response","54","30142","0.0-54.0","3DQQ64TANH77AYMG87CTBOZNC6IWPK","A2QFZ2524HID2B","3I7KR83SNAZT1REYB2SRC49PCEEK9H","","61.5","img/land5.png","74","63.299999952316284","1","1","1","1","0.8,0.2,0.2,0.2,0.8,0.2,0.2,0.2,0.8","0.8,0.2,0.2,0.2,0.8,0.2,0.2,0.2,0.8","1","",""
"","html-keyboard-response","55","30446","0.0-55.0","3DQQ64TANH77AYMG87CTBOZNC6IWPK","A2QFZ2524HID2B","3I7KR83SNAZT1REYB2SRC49PCEEK9H","","null","<img src=""img/land5.png"" style=""width:200px; border:14px solid green;"">","null","","","","","","","","","",""
"","image-keyboard-response","56","30553","0.0-56.0","3DQQ64TANH77AYMG87CTBOZNC6IWPK","A2QFZ2524HID2B","3I7KR83SNAZT1REYB2SRC49PCEEK9H","","105.10000002384186","img/land6.png","75","107","2","1","2","1","0.8,0.2,0.2,0.2,0.8,0.2,0.2,0.2,0.8","0.8,0.2,0.2,0.2,0.8,0.2,0.2,0.2,0.8","1","",""
"","html-keyboard-response","57","30862","0.0-57.0","3DQQ64TANH77AYMG87CTBOZNC6IWPK","A2QFZ2524HID2B","3I7KR83SNAZT1REYB2SRC49PCEEK9H","","null","<img src=""img/land6.png"" style=""width:200px; border:14px solid green;"">","null","","","","","","","","","",""
"","image-keyboard-response","58","30897","0.0-58.0","3DQQ64TANH77AYMG87CTBOZNC6IWPK","A2QFZ2524HID2B","3I7KR83SNAZT1REYB2SRC49PCEEK9H","","33","img/land5.png","76","34.699999928474426","3","0","1","1","0.8,0.2,0.2,0.2,0.8,0.2,0.2,0.2,0.8","0.8,0.2,0.2,0.2,0.8,0.2,0.2,0.2,0.8","1","",""
"","html-keyboard-response","59","31206","0.0-59.0","3DQQ64TANH77AYMG87CTBOZNC6IWPK","A2QFZ2524HID2B","3I7KR83SNAZT1REYB2SRC49PCEEK9H","","null","<img src=""img/land5.png"" style=""width:200px;border:14px solid red;"">","null","","","","","","","","","",""
"","image-keyboard-response","60","31259","0.0-60.0","3DQQ64TANH77AYMG87CTBOZNC6IWPK","A2QFZ2524HID2B","3I7KR83SNAZT1REYB2SRC49PCEEK9H","","51","img/land6.png","74","52.799999952316284","1","0","2","1","0.8,0.2,0.2,0.2,0.8,0.2,0.2,0.2,0.8","0.8,0.2,0.2,0.2,0.8,0.2,0.2,0.2,0.8","1","",""
"","html-keyboard-response","61","31567","0.0-61.0","3DQQ64TANH77AYMG87CTBOZNC6IWPK","A2QFZ2524HID2B","3I7KR83SNAZT1REYB2SRC49PCEEK9H","","null","<img src=""img/land6.png"" style=""width:200px;border:14px solid red;"">","null","","","","","","","","","",""
"","image-keyboard-response","62","31595","0.0-62.0","3DQQ64TANH77AYMG87CTBOZNC6IWPK","A2QFZ2524HID2B","3I7KR83SNAZT1REYB2SRC49PCEEK9H","","26.100000023841858","img/land4.png","75","27.800000071525574","2","1","3","1","0.8,0.2,0.2,0.2,0.8,0.2,0.2,0.2,0.8","0.8,0.2,0.2,0.2,0.8,0.2,0.2,0.2,0.8","1","",""
"","html-keyboard-response","63","31903","0.0-63.0","3DQQ64TANH77AYMG87CTBOZNC6IWPK","A2QFZ2524HID2B","3I7KR83SNAZT1REYB2SRC49PCEEK9H","","null","<img src=""img/land4.png"" style=""width:200px; border:14px solid green;"">","null","","","","","","","","","",""
"","image-keyboard-response","64","32038","0.0-64.0","3DQQ64TANH77AYMG87CTBOZNC6IWPK","A2QFZ2524HID2B","3I7KR83SNAZT1REYB2SRC49PCEEK9H","","132.90000009536743","img/land4.png","76","134.79999995231628","3","1","3","1","0.8,0.2,0.2,0.2,0.8,0.2,0.2,0.2,0.8","0.8,0.2,0.2,0.2,0.8,0.2,0.2,0.2,0.8","1","",""
"","html-keyboard-response","65","32342","0.0-65.0","3DQQ64TANH77AYMG87CTBOZNC6IWPK","A2QFZ2524HID2B","3I7KR83SNAZT1REYB2SRC49PCEEK9H","","null","<img src=""img/land4.png"" style=""width:200px; border:14px solid green;"">","null","","","","","","","","","",""
"","image-keyboard-response","66","32387","0.0-66.0","3DQQ64TANH77AYMG87CTBOZNC6IWPK","A2QFZ2524HID2B","3I7KR83SNAZT1REYB2SRC49PCEEK9H","","43","img/land4.png","75","44.700000047683716","2","1","3","1","0.8,0.2,0.2,0.2,0.8,0.2,0.2,0.2,0.8","0.8,0.2,0.2,0.2,0.8,0.2,0.2,0.2,0.8","1","",""
"","html-keyboard-response","67","32694","0.0-67.0","3DQQ64TANH77AYMG87CTBOZNC6IWPK","A2QFZ2524HID2B","3I7KR83SNAZT1REYB2SRC49PCEEK9H","","null","<img src=""img/land4.png"" style=""width:200px; border:14px solid green;"">","null","","","","","","","","","",""
"","image-keyboard-response","68","32876","0.0-68.0","3DQQ64TANH77AYMG87CTBOZNC6IWPK","A2QFZ2524HID2B","3I7KR83SNAZT1REYB2SRC49PCEEK9H","","179.09999990463257","img/land6.png","75","180.89999997615814","2","1","2","1","0.8,0.2,0.2,0.2,0.8,0.2,0.2,0.2,0.8","0.8,0.2,0.2,0.2,0.8,0.2,0.2,0.2,0.8","1","",""
"","html-keyboard-response","69","33182","0.0-69.0","3DQQ64TANH77AYMG87CTBOZNC6IWPK","A2QFZ2524HID2B","3I7KR83SNAZT1REYB2SRC49PCEEK9H","","null","<img src=""img/land6.png"" style=""width:200px; border:14px solid green;"">","null","","","","","","","","","",""
"","image-keyboard-response","70","33224","0.0-70.0","3DQQ64TANH77AYMG87CTBOZNC6IWPK","A2QFZ2524HID2B","3I7KR83SNAZT1REYB2SRC49PCEEK9H","","38.799999952316284","img/land4.png","76","40.700000047683716","3","0","3","1","0.8,0.2,0.2,0.2,0.8,0.2,0.2,0.2,0.8","0.8,0.2,0.2,0.2,0.8,0.2,0.2,0.2,0.8","1","",""
"","html-keyboard-response","71","33527","0.0-71.0","3DQQ64TANH77AYMG87CTBOZNC6IWPK","A2QFZ2524HID2B","3I7KR83SNAZT1REYB2SRC49PCEEK9H","","null","<img src=""img/land4.png"" style=""width:200px;border:14px solid red;"">","null","","","","","","","","","",""
"","image-keyboard-response","72","33666","0.0-72.0","3DQQ64TANH77AYMG87CTBOZNC6IWPK","A2QFZ2524HID2B","3I7KR83SNAZT1REYB2SRC49PCEEK9H","","137.10000002384186","img/land6.png","74","138.89999997615814","1","0","2","1","0.8,0.2,0.2,0.2,0.8,0.2,0.2,0.2,0.8","0.8,0.2,0.2,0.2,0.8,0.2,0.2,0.2,0.8","1","",""
"","html-keyboard-response","73","33975","0.0-73.0","3DQQ64TANH77AYMG87CTBOZNC6IWPK","A2QFZ2524HID2B","3I7KR83SNAZT1REYB2SRC49PCEEK9H","","null","<img src=""img/land6.png"" style=""width:200px;border:14px solid red;"">","null","","","","","","","","","",""
"","image-keyboard-response","74","34037","0.0-74.0","3DQQ64TANH77AYMG87CTBOZNC6IWPK","A2QFZ2524HID2B","3I7KR83SNAZT1REYB2SRC49PCEEK9H","","60.60000002384186","img/land6.png","76","62.299999952316284","3","0","2","1","0.8,0.2,0.2,0.2,0.8,0.2,0.2,0.2,0.8","0.8,0.2,0.2,0.2,0.8,0.2,0.2,0.2,0.8","1","",""
"","html-keyboard-response","75","34343","0.0-75.0","3DQQ64TANH77AYMG87CTBOZNC6IWPK","A2QFZ2524HID2B","3I7KR83SNAZT1REYB2SRC49PCEEK9H","","null","<img src=""img/land6.png"" style=""width:200px;border:14px solid red;"">","null","","","","","","","","","",""
"","image-keyboard-response","76","34459","0.0-76.0","3DQQ64TANH77AYMG87CTBOZNC6IWPK","A2QFZ2524HID2B","3I7KR83SNAZT1REYB2SRC49PCEEK9H","","114.30000007152557","img/land4.png","75","116.20000004768372","2","0","3","1","0.8,0.2,0.2,0.2,0.8,0.2,0.2,0.2,0.8","0.8,0.2,0.2,0.2,0.8,0.2,0.2,0.2,0.8","1","",""
"","html-keyboard-response","77","34766","0.0-77.0","3DQQ64TANH77AYMG87CTBOZNC6IWPK","A2QFZ2524HID2B","3I7KR83SNAZT1REYB2SRC49PCEEK9H","","null","<img src=""img/land4.png"" style=""width:200px;border:14px solid red;"">","null","","","","","","","","","",""
"","image-keyboard-response","78","34878","0.0-78.0","3DQQ64TANH77AYMG87CTBOZNC6IWPK","A2QFZ2524HID2B","3I7KR83SNAZT1REYB2SRC49PCEEK9H","","109.19999992847443","img/land4.png","74","110.89999997615814","1","0","3","1","0.8,0.2,0.2,0.2,0.8,0.2,0.2,0.2,0.8","0.8,0.2,0.2,0.2,0.8,0.2,0.2,0.2,0.8","1","",""
"","html-keyboard-response","79","35183","0.0-79.0","3DQQ64TANH77AYMG87CTBOZNC6IWPK","A2QFZ2524HID2B","3I7KR83SNAZT1REYB2SRC49PCEEK9H","","null","<img src=""img/land4.png"" style=""width:200px;border:14px solid red;"">","null","","","","","","","","","",""
"","image-keyboard-response","80","35213","0.0-80.0","3DQQ64TANH77AYMG87CTBOZNC6IWPK","A2QFZ2524HID2B","3I7KR83SNAZT1REYB2SRC49PCEEK9H","","28.899999976158142","img/land5.png","74","30.5","1","1","1","1","0.8,0.2,0.2,0.2,0.8,0.2,0.2,0.2,0.8","0.8,0.2,0.2,0.2,0.8,0.2,0.2,0.2,0.8","1","",""
"","html-keyboard-response","81","35518","0.0-81.0","3DQQ64TANH77AYMG87CTBOZNC6IWPK","A2QFZ2524HID2B","3I7KR83SNAZT1REYB2SRC49PCEEK9H","","null","<img src=""img/land5.png"" style=""width:200px; border:14px solid green;"">","null","","","","","","","","","",""
"","image-keyboard-response","82","35830","0.0-82.0","3DQQ64TANH77AYMG87CTBOZNC6IWPK","A2QFZ2524HID2B","3I7KR83SNAZT1REYB2SRC49PCEEK9H","","310","img/land5.png","74","311.7000000476837","1","1","1","1","0.8,0.2,0.2,0.2,0.8,0.2,0.2,0.2,0.8","0.8,0.2,0.2,0.2,0.8,0.2,0.2,0.2,0.8","1","",""
"","html-keyboard-response","83","36134","0.0-83.0","3DQQ64TANH77AYMG87CTBOZNC6IWPK","A2QFZ2524HID2B","3I7KR83SNAZT1REYB2SRC49PCEEK9H","","null","<img src=""img/land5.png"" style=""width:200px; border:14px solid green;"">","null","","","","","","","","","",""
"","image-keyboard-response","84","36277","0.0-84.0","3DQQ64TANH77AYMG87CTBOZNC6IWPK","A2QFZ2524HID2B","3I7KR83SNAZT1REYB2SRC49PCEEK9H","","140.20000004768372","img/land5.png","75","141.89999997615814","2","1","1","1","0.8,0.2,0.2,0.2,0.8,0.2,0.2,0.2,0.8","0.8,0.2,0.2,0.2,0.8,0.2,0.2,0.2,0.8","1","",""
"","html-keyboard-response","85","36582","0.0-85.0","3DQQ64TANH77AYMG87CTBOZNC6IWPK","A2QFZ2524HID2B","3I7KR83SNAZT1REYB2SRC49PCEEK9H","","null","<img src=""img/land5.png"" style=""width:200px; border:14px solid green;"">","null","","","","","","","","","",""
"","image-keyboard-response","86","36671","0.0-86.0","3DQQ64TANH77AYMG87CTBOZNC6IWPK","A2QFZ2524HID2B","3I7KR83SNAZT1REYB2SRC49PCEEK9H","","86.69999992847443","img/land5.png","76","88.10000002384186","3","0","1","1","0.8,0.2,0.2,0.2,0.8,0.2,0.2,0.2,0.8","0.8,0.2,0.2,0.2,0.8,0.2,0.2,0.2,0.8","1","",""
"","html-keyboard-response","87","36974","0.0-87.0","3DQQ64TANH77AYMG87CTBOZNC6IWPK","A2QFZ2524HID2B","3I7KR83SNAZT1REYB2SRC49PCEEK9H","","null","<img src=""img/land5.png"" style=""width:200px;border:14px solid red;"">","null","","","","","","","","","",""
"","image-keyboard-response","88","37093","0.0-88.0","3DQQ64TANH77AYMG87CTBOZNC6IWPK","A2QFZ2524HID2B","3I7KR83SNAZT1REYB2SRC49PCEEK9H","","116.59999990463257","img/land5.png","74","118.29999995231628","1","1","1","1","0.8,0.2,0.2,0.2,0.8,0.2,0.2,0.2,0.8","0.8,0.2,0.2,0.2,0.8,0.2,0.2,0.2,0.8","1","",""
"","html-keyboard-response","89","37399","0.0-89.0","3DQQ64TANH77AYMG87CTBOZNC6IWPK","A2QFZ2524HID2B","3I7KR83SNAZT1REYB2SRC49PCEEK9H","","null","<img src=""img/land5.png"" style=""width:200px; border:14px solid green;"">","null","","","","","","","","","",""
"","image-keyboard-response","90","37454","0.0-90.0","3DQQ64TANH77AYMG87CTBOZNC6IWPK","A2QFZ2524HID2B","3I7KR83SNAZT1REYB2SRC49PCEEK9H","","52.799999952316284","img/land6.png","74","54.5","1","0","2","1","0.8,0.2,0.2,0.2,0.8,0.2,0.2,0.2,0.8","0.8,0.2,0.2,0.2,0.8,0.2,0.2,0.2,0.8","1","",""
"","html-keyboard-response","91","37758","0.0-91.0","3DQQ64TANH77AYMG87CTBOZNC6IWPK","A2QFZ2524HID2B","3I7KR83SNAZT1REYB2SRC49PCEEK9H","","null","<img src=""img/land6.png"" style=""width:200px;border:14px solid red;"">","null","","","","","","","","","",""
"","image-keyboard-response","92","37834","0.0-92.0","3DQQ64TANH77AYMG87CTBOZNC6IWPK","A2QFZ2524HID2B","3I7KR83SNAZT1REYB2SRC49PCEEK9H","","72.89999997615814","img/land4.png","75","74.79999995231628","2","0","3","1","0.8,0.2,0.2,0.2,0.8,0.2,0.2,0.2,0.8","0.8,0.2,0.2,0.2,0.8,0.2,0.2,0.2,0.8","1","",""
"","html-keyboard-response","93","38142","0.0-93.0","3DQQ64TANH77AYMG87CTBOZNC6IWPK","A2QFZ2524HID2B","3I7KR83SNAZT1REYB2SRC49PCEEK9H","","null","<img src=""img/land4.png"" style=""width:200px;border:14px solid red;"">","null","","","","","","","","","",""
"","image-keyboard-response","94","38172","0.0-94.0","3DQQ64TANH77AYMG87CTBOZNC6IWPK","A2QFZ2524HID2B","3I7KR83SNAZT1REYB2SRC49PCEEK9H","","26.700000047683716","img/land5.png","75","28.700000047683716","2","0","1","1","0.8,0.2,0.2,0.2,0.8,0.2,0.2,0.2,0.8","0.8,0.2,0.2,0.2,0.8,0.2,0.2,0.2,0.8","1","",""
"","html-keyboard-response","95","38479","0.0-95.0","3DQQ64TANH77AYMG87CTBOZNC6IWPK","A2QFZ2524HID2B","3I7KR83SNAZT1REYB2SRC49PCEEK9H","","null","<img src=""img/land5.png"" style=""width:200px;border:14px solid red;"">","null","","","","","","","","","",""
"","image-keyboard-response","96","38554","0.0-96.0","3DQQ64TANH77AYMG87CTBOZNC6IWPK","A2QFZ2524HID2B","3I7KR83SNAZT1REYB2SRC49PCEEK9H","","73.09999990463257","img/land5.png","75","75","2","0","1","1","0.8,0.2,0.2,0.2,0.8,0.2,0.2,0.2,0.8","0.8,0.2,0.2,0.2,0.8,0.2,0.2,0.2,0.8","1","",""
"","html-keyboard-response","97","38862","0.0-97.0","3DQQ64TANH77AYMG87CTBOZNC6IWPK","A2QFZ2524HID2B","3I7KR83SNAZT1REYB2SRC49PCEEK9H","","null","<img src=""img/land5.png"" style=""width:200px;border:14px solid red;"">","null","","","","","","","","","",""
"","image-keyboard-response","98","38881","0.0-98.0","3DQQ64TANH77AYMG87CTBOZNC6IWPK","A2QFZ2524HID2B","3I7KR83SNAZT1REYB2SRC49PCEEK9H","","17.200000047683716","img/land4.png","75","18.700000047683716","2","0","3","1","0.8,0.2,0.2,0.2,0.8,0.2,0.2,0.2,0.8","0.8,0.2,0.2,0.2,0.8,0.2,0.2,0.2,0.8","1","",""
"","html-keyboard-response","99","39190","0.0-99.0","3DQQ64TANH77AYMG87CTBOZNC6IWPK","A2QFZ2524HID2B","3I7KR83SNAZT1REYB2SRC49PCEEK9H","","null","<img src=""img/land4.png"" style=""width:200px;border:14px solid red;"">","null","","","","","","","","","",""
"","image-keyboard-response","100","39296","0.0-100.0","3DQQ64TANH77AYMG87CTBOZNC6IWPK","A2QFZ2524HID2B","3I7KR83SNAZT1REYB2SRC49PCEEK9H","","104.80000007152557","img/land6.png","76","106","3","0","2","1","0.8,0.2,0.2,0.2,0.8,0.2,0.2,0.2,0.8","0.8,0.2,0.2,0.2,0.8,0.2,0.2,0.2,0.8","1","",""
"","html-keyboard-response","101","39606","0.0-101.0","3DQQ64TANH77AYMG87CTBOZNC6IWPK","A2QFZ2524HID2B","3I7KR83SNAZT1REYB2SRC49PCEEK9H","","null","<img src=""img/land6.png"" style=""width:200px;border:14px solid red;"">","null","","","","","","","","","",""
"","image-keyboard-response","102","39635","0.0-102.0","3DQQ64TANH77AYMG87CTBOZNC6IWPK","A2QFZ2524HID2B","3I7KR83SNAZT1REYB2SRC49PCEEK9H","","27.100000023841858","img/land5.png","75","28.700000047683716","2","0","1","1","0.8,0.2,0.2,0.2,0.8,0.2,0.2,0.2,0.8","0.8,0.2,0.2,0.2,0.8,0.2,0.2,0.2,0.8","1","",""
"","html-keyboard-response","103","39939","0.0-103.0","3DQQ64TANH77AYMG87CTBOZNC6IWPK","A2QFZ2524HID2B","3I7KR83SNAZT1REYB2SRC49PCEEK9H","","null","<img src=""img/land5.png"" style=""width:200px;border:14px solid red;"">","null","","","","","","","","","",""
"","image-keyboard-response","104","40246","0.0-104.0","3DQQ64TANH77AYMG87CTBOZNC6IWPK","A2QFZ2524HID2B","3I7KR83SNAZT1REYB2SRC49PCEEK9H","","305.8000000715256","img/land5.png","75","307","2","0","1","1","0.8,0.2,0.2,0.2,0.8,0.2,0.2,0.2,0.8","0.8,0.2,0.2,0.2,0.8,0.2,0.2,0.2,0.8","1","",""
"","html-keyboard-response","105","40551","0.0-105.0","3DQQ64TANH77AYMG87CTBOZNC6IWPK","A2QFZ2524HID2B","3I7KR83SNAZT1REYB2SRC49PCEEK9H","","null","<img src=""img/land5.png"" style=""width:200px;border:14px solid red;"">","null","","","","","","","","","",""
"","image-keyboard-response","106","40554","0.0-106.0","3DQQ64TANH77AYMG87CTBOZNC6IWPK","A2QFZ2524HID2B","3I7KR83SNAZT1REYB2SRC49PCEEK9H","","1.1999999284744263","img/land6.png","75","2.5999999046325684","2","1","2","1","0.8,0.2,0.2,0.2,0.8,0.2,0.2,0.2,0.8","0.8,0.2,0.2,0.2,0.8,0.2,0.2,0.2,0.8","1","",""
"","html-keyboard-response","107","40862","0.0-107.0","3DQQ64TANH77AYMG87CTBOZNC6IWPK","A2QFZ2524HID2B","3I7KR83SNAZT1REYB2SRC49PCEEK9H","","null","<img src=""img/land6.png"" style=""width:200px; border:14px solid green;"">","null","","","","","","","","","",""
"","image-keyboard-response","108","40973","0.0-108.0","3DQQ64TANH77AYMG87CTBOZNC6IWPK","A2QFZ2524HID2B","3I7KR83SNAZT1REYB2SRC49PCEEK9H","","108.29999995231628","img/land6.png","76","109.89999997615814","3","1","2","1","0.8,0.2,0.2,0.2,0.8,0.2,0.2,0.2,0.8","0.8,0.2,0.2,0.2,0.8,0.2,0.2,0.2,0.8","1","",""
"","html-keyboard-response","109","41278","0.0-109.0","3DQQ64TANH77AYMG87CTBOZNC6IWPK","A2QFZ2524HID2B","3I7KR83SNAZT1REYB2SRC49PCEEK9H","","null","<img src=""img/land6.png"" style=""width:200px; border:14px solid green;"">","null","","","","","","","","","",""
"","image-keyboard-response","110","41401","0.0-110.0","3DQQ64TANH77AYMG87CTBOZNC6IWPK","A2QFZ2524HID2B","3I7KR83SNAZT1REYB2SRC49PCEEK9H","","120.5","img/land5.png","76","122.5","3","1","1","1","0.8,0.2,0.2,0.2,0.8,0.2,0.2,0.2,0.8","0.8,0.2,0.2,0.2,0.8,0.2,0.2,0.2,0.8","1","",""
"","html-keyboard-response","111","41710","0.0-111.0","3DQQ64TANH77AYMG87CTBOZNC6IWPK","A2QFZ2524HID2B","3I7KR83SNAZT1REYB2SRC49PCEEK9H","","null","<img src=""img/land5.png"" style=""width:200px; border:14px solid green;"">","null","","","","","","","","","",""
"","image-keyboard-response","112","41737","0.0-112.0","3DQQ64TANH77AYMG87CTBOZNC6IWPK","A2QFZ2524HID2B","3I7KR83SNAZT1REYB2SRC49PCEEK9H","","25.09999990463257","img/land4.png","75","26.699999928474426","2","0","3","1","0.8,0.2,0.2,0.2,0.8,0.2,0.2,0.2,0.8","0.8,0.2,0.2,0.2,0.8,0.2,0.2,0.2,0.8","1","",""
"","html-keyboard-response","113","42046","0.0-113.0","3DQQ64TANH77AYMG87CTBOZNC6IWPK","A2QFZ2524HID2B","3I7KR83SNAZT1REYB2SRC49PCEEK9H","","null","<img src=""img/land4.png"" style=""width:200px;border:14px solid red;"">","null","","","","","","","","","",""
"","image-keyboard-response","114","42155","0.0-114.0","3DQQ64TANH77AYMG87CTBOZNC6IWPK","A2QFZ2524HID2B","3I7KR83SNAZT1REYB2SRC49PCEEK9H","","107","img/land4.png","76","108.60000002384186","3","1","3","1","0.8,0.2,0.2,0.2,0.8,0.2,0.2,0.2,0.8","0.8,0.2,0.2,0.2,0.8,0.2,0.2,0.2,0.8","1","",""
"","html-keyboard-response","115","42463","0.0-115.0","3DQQ64TANH77AYMG87CTBOZNC6IWPK","A2QFZ2524HID2B","3I7KR83SNAZT1REYB2SRC49PCEEK9H","","null","<img src=""img/land4.png"" style=""width:200px; border:14px solid green;"">","null","","","","","","","","","",""
"","image-keyboard-response","116","42619","0.0-116.0","3DQQ64TANH77AYMG87CTBOZNC6IWPK","A2QFZ2524HID2B","3I7KR83SNAZT1REYB2SRC49PCEEK9H","","154.29999995231628","img/land6.png","76","156.20000004768372","3","0","2","1","0.8,0.2,0.2,0.2,0.8,0.2,0.2,0.2,0.8","0.8,0.2,0.2,0.2,0.8,0.2,0.2,0.2,0.8","1","",""
"","html-keyboard-response","117","42926","0.0-117.0","3DQQ64TANH77AYMG87CTBOZNC6IWPK","A2QFZ2524HID2B","3I7KR83SNAZT1REYB2SRC49PCEEK9H","","null","<img src=""img/land6.png"" style=""width:200px;border:14px solid red;"">","null","","","","","","","","","",""
"","image-keyboard-response","118","42977","0.0-118.0","3DQQ64TANH77AYMG87CTBOZNC6IWPK","A2QFZ2524HID2B","3I7KR83SNAZT1REYB2SRC49PCEEK9H","","48.200000047683716","img/land6.png","74","49.89999997615814","1","0","2","1","0.8,0.2,0.2,0.2,0.8,0.2,0.2,0.2,0.8","0.8,0.2,0.2,0.2,0.8,0.2,0.2,0.2,0.8","1","",""
"","html-keyboard-response","119","43286","0.0-119.0","3DQQ64TANH77AYMG87CTBOZNC6IWPK","A2QFZ2524HID2B","3I7KR83SNAZT1REYB2SRC49PCEEK9H","","null","<img src=""img/land6.png"" style=""width:200px;border:14px solid red;"">","null","","","","","","","","","",""
"","image-keyboard-response","120","43289","0.0-120.0","3DQQ64TANH77AYMG87CTBOZNC6IWPK","A2QFZ2524HID2B","3I7KR83SNAZT1REYB2SRC49PCEEK9H","","1","img/land6.png","74","2.700000047683716","1","1","2","1","0.8,0.2,0.2,0.2,0.8,0.2,0.2,0.2,0.8","0.8,0.2,0.2,0.2,0.8,0.2,0.2,0.2,0.8","1","",""
"","html-keyboard-response","121","43598","0.0-121.0","3DQQ64TANH77AYMG87CTBOZNC6IWPK","A2QFZ2524HID2B","3I7KR83SNAZT1REYB2SRC49PCEEK9H","","null","<img src=""img/land6.png"" style=""width:200px; border:14px solid green;"">","null","","","","","","","","","",""
"","image-keyboard-response","122","43611","0.0-122.0","3DQQ64TANH77AYMG87CTBOZNC6IWPK","A2QFZ2524HID2B","3I7KR83SNAZT1REYB2SRC49PCEEK9H","","10.800000071525574","img/land4.png","75","12.200000047683716","2","0","3","1","0.8,0.2,0.2,0.2,0.8,0.2,0.2,0.2,0.8","0.8,0.2,0.2,0.2,0.8,0.2,0.2,0.2,0.8","1","",""
"","html-keyboard-response","123","43918","0.0-123.0","3DQQ64TANH77AYMG87CTBOZNC6IWPK","A2QFZ2524HID2B","3I7KR83SNAZT1REYB2SRC49PCEEK9H","","null","<img src=""img/land4.png"" style=""width:200px;border:14px solid red;"">","null","","","","","","","","","",""
"","image-keyboard-response","124","43973","0.0-124.0","3DQQ64TANH77AYMG87CTBOZNC6IWPK","A2QFZ2524HID2B","3I7KR83SNAZT1REYB2SRC49PCEEK9H","","52.89999997615814","img/land5.png","76","54.60000002384186","3","0","1","1","0.8,0.2,0.2,0.2,0.8,0.2,0.2,0.2,0.8","0.8,0.2,0.2,0.2,0.8,0.2,0.2,0.2,0.8","1","",""
"","html-keyboard-response","125","44278","0.0-125.0","3DQQ64TANH77AYMG87CTBOZNC6IWPK","A2QFZ2524HID2B","3I7KR83SNAZT1REYB2SRC49PCEEK9H","","null","<img src=""img/land5.png"" style=""width:200px;border:14px solid red;"">","null","","","","","","","","","",""
"","image-keyboard-response","126","44964","0.0-126.0","3DQQ64TANH77AYMG87CTBOZNC6IWPK","A2QFZ2524HID2B","3I7KR83SNAZT1REYB2SRC49PCEEK9H","","684","img/land4.png","75","685.7000000476837","2","0","3","1","0.8,0.2,0.2,0.2,0.8,0.2,0.2,0.2,0.8","0.8,0.2,0.2,0.2,0.8,0.2,0.2,0.2,0.8","1","",""
"","html-keyboard-response","127","45269","0.0-127.0","3DQQ64TANH77AYMG87CTBOZNC6IWPK","A2QFZ2524HID2B","3I7KR83SNAZT1REYB2SRC49PCEEK9H","","null","<img src=""img/land4.png"" style=""width:200px;border:14px solid red;"">","null","","","","","","","","","",""
"","image-keyboard-response","128","45321","0.0-128.0","3DQQ64TANH77AYMG87CTBOZNC6IWPK","A2QFZ2524HID2B","3I7KR83SNAZT1REYB2SRC49PCEEK9H","","49.300000071525574","img/land4.png","74","51.699999928474426","1","0","3","1","0.8,0.2,0.2,0.2,0.8,0.2,0.2,0.2,0.8","0.8,0.2,0.2,0.2,0.8,0.2,0.2,0.2,0.8","1","",""
"","html-keyboard-response","129","45630","0.0-129.0","3DQQ64TANH77AYMG87CTBOZNC6IWPK","A2QFZ2524HID2B","3I7KR83SNAZT1REYB2SRC49PCEEK9H","","null","<img src=""img/land4.png"" style=""width:200px;border:14px solid red;"">","null","","","","","","","","","",""
"","image-keyboard-response","130","45675","0.0-130.0","3DQQ64TANH77AYMG87CTBOZNC6IWPK","A2QFZ2524HID2B","3I7KR83SNAZT1REYB2SRC49PCEEK9H","","43.10000002384186","img/land6.png","76","44.799999952316284","3","1","2","1","0.8,0.2,0.2,0.2,0.8,0.2,0.2,0.2,0.8","0.8,0.2,0.2,0.2,0.8,0.2,0.2,0.2,0.8","1","",""
"","html-keyboard-response","131","45982","0.0-131.0","3DQQ64TANH77AYMG87CTBOZNC6IWPK","A2QFZ2524HID2B","3I7KR83SNAZT1REYB2SRC49PCEEK9H","","null","<img src=""img/land6.png"" style=""width:200px; border:14px solid green;"">","null","","","","","","","","","",""
"","image-keyboard-response","132","46052","0.0-132.0","3DQQ64TANH77AYMG87CTBOZNC6IWPK","A2QFZ2524HID2B","3I7KR83SNAZT1REYB2SRC49PCEEK9H","","67.70000004768372","img/land4.png","76","69.39999997615814","3","1","3","1","0.8,0.2,0.2,0.2,0.8,0.2,0.2,0.2,0.8","0.8,0.2,0.2,0.2,0.8,0.2,0.2,0.2,0.8","1","",""
"","html-keyboard-response","133","46356","0.0-133.0","3DQQ64TANH77AYMG87CTBOZNC6IWPK","A2QFZ2524HID2B","3I7KR83SNAZT1REYB2SRC49PCEEK9H","","null","<img src=""img/land4.png"" style=""width:200px; border:14px solid green;"">","null","","","","","","","","","",""
"","image-keyboard-response","134","46400","0.0-134.0","3DQQ64TANH77AYMG87CTBOZNC6IWPK","A2QFZ2524HID2B","3I7KR83SNAZT1REYB2SRC49PCEEK9H","","42.200000047683716","img/land5.png","74","43.800000071525574","1","1","1","1","0.8,0.2,0.2,0.2,0.8,0.2,0.2,0.2,0.8","0.8,0.2,0.2,0.2,0.8,0.2,0.2,0.2,0.8","1","",""
"","html-keyboard-response","135","46709","0.0-135.0","3DQQ64TANH77AYMG87CTBOZNC6IWPK","A2QFZ2524HID2B","3I7KR83SNAZT1REYB2SRC49PCEEK9H","","null","<img src=""img/land5.png"" style=""width:200px; border:14px solid green;"">","null","","","","","","","","","",""
"","image-keyboard-response","136","46784","0.0-136.0","3DQQ64TANH77AYMG87CTBOZNC6IWPK","A2QFZ2524HID2B","3I7KR83SNAZT1REYB2SRC49PCEEK9H","","73.70000004768372","img/land6.png","75","75.39999997615814","2","1","2","1","0.8,0.2,0.2,0.2,0.8,0.2,0.2,0.2,0.8","0.8,0.2,0.2,0.2,0.8,0.2,0.2,0.2,0.8","1","",""
"","html-keyboard-response","137","47095","0.0-137.0","3DQQ64TANH77AYMG87CTBOZNC6IWPK","A2QFZ2524HID2B","3I7KR83SNAZT1REYB2SRC49PCEEK9H","","null","<img src=""img/land6.png"" style=""width:200px; border:14px solid green;"">","null","","","","","","","","","",""
"","image-keyboard-response","138","47245","0.0-138.0","3DQQ64TANH77AYMG87CTBOZNC6IWPK","A2QFZ2524HID2B","3I7KR83SNAZT1REYB2SRC49PCEEK9H","","147.29999995231628","img/land4.png","75","149.10000002384186","2","0","3","1","0.8,0.2,0.2,0.2,0.8,0.2,0.2,0.2,0.8","0.8,0.2,0.2,0.2,0.8,0.2,0.2,0.2,0.8","1","",""
"","html-keyboard-response","139","47550","0.0-139.0","3DQQ64TANH77AYMG87CTBOZNC6IWPK","A2QFZ2524HID2B","3I7KR83SNAZT1REYB2SRC49PCEEK9H","","null","<img src=""img/land4.png"" style=""width:200px;border:14px solid red;"">","null","","","","","","","","","",""
"","image-keyboard-response","140","47582","0.0-140.0","3DQQ64TANH77AYMG87CTBOZNC6IWPK","A2QFZ2524HID2B","3I7KR83SNAZT1REYB2SRC49PCEEK9H","","29.699999928474426","img/land5.png","74","31.899999976158142","1","0","1","1","0.8,0.2,0.2,0.2,0.8,0.2,0.2,0.2,0.8","0.8,0.2,0.2,0.2,0.8,0.2,0.2,0.2,0.8","1","",""
"","html-keyboard-response","141","47886","0.0-141.0","3DQQ64TANH77AYMG87CTBOZNC6IWPK","A2QFZ2524HID2B","3I7KR83SNAZT1REYB2SRC49PCEEK9H","","null","<img src=""img/land5.png"" style=""width:200px;border:14px solid red;"">","null","","","","","","","","","",""
"","image-keyboard-response","142","47987","0.0-142.0","3DQQ64TANH77AYMG87CTBOZNC6IWPK","A2QFZ2524HID2B","3I7KR83SNAZT1REYB2SRC49PCEEK9H","","98.5","img/land6.png","75","100.20000004768372","2","1","2","1","0.8,0.2,0.2,0.2,0.8,0.2,0.2,0.2,0.8","0.8,0.2,0.2,0.2,0.8,0.2,0.2,0.2,0.8","1","",""
"","html-keyboard-response","143","48294","0.0-143.0","3DQQ64TANH77AYMG87CTBOZNC6IWPK","A2QFZ2524HID2B","3I7KR83SNAZT1REYB2SRC49PCEEK9H","","null","<img src=""img/land6.png"" style=""width:200px; border:14px solid green;"">","null","","","","","","","","","",""
"","image-keyboard-response","144","48389","0.0-144.0","3DQQ64TANH77AYMG87CTBOZNC6IWPK","A2QFZ2524HID2B","3I7KR83SNAZT1REYB2SRC49PCEEK9H","","93.20000004768372","img/land4.png","74","94.29999995231628","1","0","3","1","0.8,0.2,0.2,0.2,0.8,0.2,0.2,0.2,0.8","0.8,0.2,0.2,0.2,0.8,0.2,0.2,0.2,0.8","1","",""
"","html-keyboard-response","145","48695","0.0-145.0","3DQQ64TANH77AYMG87CTBOZNC6IWPK","A2QFZ2524HID2B","3I7KR83SNAZT1REYB2SRC49PCEEK9H","","null","<img src=""img/land4.png"" style=""width:200px;border:14px solid red;"">","null","","","","","","","","","",""
"","image-keyboard-response","146","48701","0.0-146.0","3DQQ64TANH77AYMG87CTBOZNC6IWPK","A2QFZ2524HID2B","3I7KR83SNAZT1REYB2SRC49PCEEK9H","","3.5","img/land4.png","75","5.300000071525574","2","0","3","1","0.8,0.2,0.2,0.2,0.8,0.2,0.2,0.2,0.8","0.8,0.2,0.2,0.2,0.8,0.2,0.2,0.2,0.8","1","",""
"","html-keyboard-response","147","49006","0.0-147.0","3DQQ64TANH77AYMG87CTBOZNC6IWPK","A2QFZ2524HID2B","3I7KR83SNAZT1REYB2SRC49PCEEK9H","","null","<img src=""img/land4.png"" style=""width:200px;border:14px solid red;"">","null","","","","","","","","","",""
"","image-keyboard-response","148","49041","0.0-148.0","3DQQ64TANH77AYMG87CTBOZNC6IWPK","A2QFZ2524HID2B","3I7KR83SNAZT1REYB2SRC49PCEEK9H","","32.5","img/land5.png","75","34.299999952316284","2","0","1","1","0.8,0.2,0.2,0.2,0.8,0.2,0.2,0.2,0.8","0.8,0.2,0.2,0.2,0.8,0.2,0.2,0.2,0.8","1","",""
"","html-keyboard-response","149","49351","0.0-149.0","3DQQ64TANH77AYMG87CTBOZNC6IWPK","A2QFZ2524HID2B","3I7KR83SNAZT1REYB2SRC49PCEEK9H","","null","<img src=""img/land5.png"" style=""width:200px;border:14px solid red;"">","null","","","","","","","","","",""
"","image-keyboard-response","150","49370","0.0-150.0","3DQQ64TANH77AYMG87CTBOZNC6IWPK","A2QFZ2524HID2B","3I7KR83SNAZT1REYB2SRC49PCEEK9H","","17.799999952316284","img/land5.png","74","19.299999952316284","1","1","1","1","0.8,0.2,0.2,0.2,0.8,0.2,0.2,0.2,0.8","0.8,0.2,0.2,0.2,0.8,0.2,0.2,0.2,0.8","1","",""
"","html-keyboard-response","151","49678","0.0-151.0","3DQQ64TANH77AYMG87CTBOZNC6IWPK","A2QFZ2524HID2B","3I7KR83SNAZT1REYB2SRC49PCEEK9H","","null","<img src=""img/land5.png"" style=""width:200px; border:14px solid green;"">","null","","","","","","","","","",""
"","image-keyboard-response","152","49770","0.0-152.0","3DQQ64TANH77AYMG87CTBOZNC6IWPK","A2QFZ2524HID2B","3I7KR83SNAZT1REYB2SRC49PCEEK9H","","89.5","img/land6.png","74","91.10000002384186","1","1","2","1","0.8,0.2,0.2,0.2,0.8,0.2,0.2,0.2,0.8","0.8,0.2,0.2,0.2,0.8,0.2,0.2,0.2,0.8","1","",""
"","html-keyboard-response","153","50078","0.0-153.0","3DQQ64TANH77AYMG87CTBOZNC6IWPK","A2QFZ2524HID2B","3I7KR83SNAZT1REYB2SRC49PCEEK9H","","null","<img src=""img/land6.png"" style=""width:200px; border:14px solid green;"">","null","","","","","","","","","",""
"","image-keyboard-response","154","50143","0.0-154.0","3DQQ64TANH77AYMG87CTBOZNC6IWPK","A2QFZ2524HID2B","3I7KR83SNAZT1REYB2SRC49PCEEK9H","","62","img/land6.png","76","63.700000047683716","3","0","2","1","0.8,0.2,0.2,0.2,0.8,0.2,0.2,0.2,0.8","0.8,0.2,0.2,0.2,0.8,0.2,0.2,0.2,0.8","1","",""
"","html-keyboard-response","155","50446","0.0-155.0","3DQQ64TANH77AYMG87CTBOZNC6IWPK","A2QFZ2524HID2B","3I7KR83SNAZT1REYB2SRC49PCEEK9H","","null","<img src=""img/land6.png"" style=""width:200px;border:14px solid red;"">","null","","","","","","","","","",""
"","image-keyboard-response","156","50596","0.0-156.0","3DQQ64TANH77AYMG87CTBOZNC6IWPK","A2QFZ2524HID2B","3I7KR83SNAZT1REYB2SRC49PCEEK9H","","147.5","img/land4.png","74","149.10000002384186","1","0","3","1","0.8,0.2,0.2,0.2,0.8,0.2,0.2,0.2,0.8","0.8,0.2,0.2,0.2,0.8,0.2,0.2,0.2,0.8","1","",""
"","html-keyboard-response","157","50902","0.0-157.0","3DQQ64TANH77AYMG87CTBOZNC6IWPK","A2QFZ2524HID2B","3I7KR83SNAZT1REYB2SRC49PCEEK9H","","null","<img src=""img/land4.png"" style=""width:200px;border:14px solid red;"">","null","","","","","","","","","",""
"","image-keyboard-response","158","50947","0.0-158.0","3DQQ64TANH77AYMG87CTBOZNC6IWPK","A2QFZ2524HID2B","3I7KR83SNAZT1REYB2SRC49PCEEK9H","","42.60000002384186","img/land6.png","76","44.299999952316284","3","0","2","1","0.8,0.2,0.2,0.2,0.8,0.2,0.2,0.2,0.8","0.8,0.2,0.2,0.2,0.8,0.2,0.2,0.2,0.8","1","",""
"","html-keyboard-response","159","51254","0.0-159.0","3DQQ64TANH77AYMG87CTBOZNC6IWPK","A2QFZ2524HID2B","3I7KR83SNAZT1REYB2SRC49PCEEK9H","","null","<img src=""img/land6.png"" style=""width:200px;border:14px solid red;"">","null","","","","","","","","","",""
"","image-keyboard-response","160","51423","0.0-160.0","3DQQ64TANH77AYMG87CTBOZNC6IWPK","A2QFZ2524HID2B","3I7KR83SNAZT1REYB2SRC49PCEEK9H","","166.90000009536743","img/land4.png","76","168.59999990463257","3","1","3","1","0.8,0.2,0.2,0.2,0.8,0.2,0.2,0.2,0.8","0.8,0.2,0.2,0.2,0.8,0.2,0.2,0.2,0.8","1","",""
"","html-keyboard-response","161","51726","0.0-161.0","3DQQ64TANH77AYMG87CTBOZNC6IWPK","A2QFZ2524HID2B","3I7KR83SNAZT1REYB2SRC49PCEEK9H","","null","<img src=""img/land4.png"" style=""width:200px; border:14px solid green;"">","null","","","","","","","","","",""
"","image-keyboard-response","162","51745","0.0-162.0","3DQQ64TANH77AYMG87CTBOZNC6IWPK","A2QFZ2524HID2B","3I7KR83SNAZT1REYB2SRC49PCEEK9H","","17.09999990463257","img/land5.png","75","18.799999952316284","2","0","1","1","0.8,0.2,0.2,0.2,0.8,0.2,0.2,0.2,0.8","0.8,0.2,0.2,0.2,0.8,0.2,0.2,0.2,0.8","1","",""
"","html-keyboard-response","163","52054","0.0-163.0","3DQQ64TANH77AYMG87CTBOZNC6IWPK","A2QFZ2524HID2B","3I7KR83SNAZT1REYB2SRC49PCEEK9H","","null","<img src=""img/land5.png"" style=""width:200px;border:14px solid red;"">","null","","","","","","","","","",""
"","image-keyboard-response","164","52112","0.0-164.0","3DQQ64TANH77AYMG87CTBOZNC6IWPK","A2QFZ2524HID2B","3I7KR83SNAZT1REYB2SRC49PCEEK9H","","55.799999952316284","img/land6.png","74","57.299999952316284","1","0","2","1","0.8,0.2,0.2,0.2,0.8,0.2,0.2,0.2,0.8","0.8,0.2,0.2,0.2,0.8,0.2,0.2,0.2,0.8","1","",""
"","html-keyboard-response","165","52423","0.0-165.0","3DQQ64TANH77AYMG87CTBOZNC6IWPK","A2QFZ2524HID2B","3I7KR83SNAZT1REYB2SRC49PCEEK9H","","null","<img src=""img/land6.png"" style=""width:200px;border:14px solid red;"">","null","","","","","","","","","",""
"","image-keyboard-response","166","52491","0.0-166.0","3DQQ64TANH77AYMG87CTBOZNC6IWPK","A2QFZ2524HID2B","3I7KR83SNAZT1REYB2SRC49PCEEK9H","","66.19999992847443","img/land5.png","76","68.10000002384186","3","1","1","1","0.8,0.2,0.2,0.2,0.8,0.2,0.2,0.2,0.8","0.8,0.2,0.2,0.2,0.8,0.2,0.2,0.2,0.8","1","",""
"","html-keyboard-response","167","52798","0.0-167.0","3DQQ64TANH77AYMG87CTBOZNC6IWPK","A2QFZ2524HID2B","3I7KR83SNAZT1REYB2SRC49PCEEK9H","","null","<img src=""img/land5.png"" style=""width:200px; border:14px solid green;"">","null","","","","","","","","","",""
"","image-keyboard-response","168","52923","0.0-168.0","3DQQ64TANH77AYMG87CTBOZNC6IWPK","A2QFZ2524HID2B","3I7KR83SNAZT1REYB2SRC49PCEEK9H","","122.19999992847443","img/land6.png","74","124","1","0","2","1","0.8,0.2,0.2,0.2,0.8,0.2,0.2,0.2,0.8","0.8,0.2,0.2,0.2,0.8,0.2,0.2,0.2,0.8","1","",""
"","html-keyboard-response","169","53230","0.0-169.0","3DQQ64TANH77AYMG87CTBOZNC6IWPK","A2QFZ2524HID2B","3I7KR83SNAZT1REYB2SRC49PCEEK9H","","null","<img src=""img/land6.png"" style=""width:200px;border:14px solid red;"">","null","","","","","","","","","",""
"","image-keyboard-response","170","53341","0.0-170.0","3DQQ64TANH77AYMG87CTBOZNC6IWPK","A2QFZ2524HID2B","3I7KR83SNAZT1REYB2SRC49PCEEK9H","","108.10000002384186","img/land4.png","74","109.90000009536743","1","0","3","1","0.8,0.2,0.2,0.2,0.8,0.2,0.2,0.2,0.8","0.8,0.2,0.2,0.2,0.8,0.2,0.2,0.2,0.8","1","",""
"","html-keyboard-response","171","53646","0.0-171.0","3DQQ64TANH77AYMG87CTBOZNC6IWPK","A2QFZ2524HID2B","3I7KR83SNAZT1REYB2SRC49PCEEK9H","","null","<img src=""img/land4.png"" style=""width:200px;border:14px solid red;"">","null","","","","","","","","","",""
"","image-keyboard-response","172","53749","0.0-172.0","3DQQ64TANH77AYMG87CTBOZNC6IWPK","A2QFZ2524HID2B","3I7KR83SNAZT1REYB2SRC49PCEEK9H","","101.79999995231628","img/land4.png","74","103.10000002384186","1","0","3","1","0.8,0.2,0.2,0.2,0.8,0.2,0.2,0.2,0.8","0.8,0.2,0.2,0.2,0.8,0.2,0.2,0.2,0.8","1","",""
"","html-keyboard-response","173","54054","0.0-173.0","3DQQ64TANH77AYMG87CTBOZNC6IWPK","A2QFZ2524HID2B","3I7KR83SNAZT1REYB2SRC49PCEEK9H","","null","<img src=""img/land4.png"" style=""width:200px;border:14px solid red;"">","null","","","","","","","","","",""
"","image-keyboard-response","174","54124","0.0-174.0","3DQQ64TANH77AYMG87CTBOZNC6IWPK","A2QFZ2524HID2B","3I7KR83SNAZT1REYB2SRC49PCEEK9H","","67.89999997615814","img/land4.png","76","69.60000002384186","3","1","3","1","0.8,0.2,0.2,0.2,0.8,0.2,0.2,0.2,0.8","0.8,0.2,0.2,0.2,0.8,0.2,0.2,0.2,0.8","1","",""
"","html-keyboard-response","175","54430","0.0-175.0","3DQQ64TANH77AYMG87CTBOZNC6IWPK","A2QFZ2524HID2B","3I7KR83SNAZT1REYB2SRC49PCEEK9H","","null","<img src=""img/land4.png"" style=""width:200px; border:14px solid green;"">","null","","","","","","","","","",""
"","image-keyboard-response","176","54525","0.0-176.0","3DQQ64TANH77AYMG87CTBOZNC6IWPK","A2QFZ2524HID2B","3I7KR83SNAZT1REYB2SRC49PCEEK9H","","93.29999995231628","img/land5.png","75","95","2","0","1","1","0.8,0.2,0.2,0.2,0.8,0.2,0.2,0.2,0.8","0.8,0.2,0.2,0.2,0.8,0.2,0.2,0.2,0.8","1","",""
"","html-keyboard-response","177","54830","0.0-177.0","3DQQ64TANH77AYMG87CTBOZNC6IWPK","A2QFZ2524HID2B","3I7KR83SNAZT1REYB2SRC49PCEEK9H","","null","<img src=""img/land5.png"" style=""width:200px;border:14px solid red;"">","null","","","","","","","","","",""
"","image-keyboard-response","178","54893","0.0-178.0","3DQQ64TANH77AYMG87CTBOZNC6IWPK","A2QFZ2524HID2B","3I7KR83SNAZT1REYB2SRC49PCEEK9H","","60.799999952316284","img/land6.png","75","62.5","2","1","2","1","0.8,0.2,0.2,0.2,0.8,0.2,0.2,0.2,0.8","0.8,0.2,0.2,0.2,0.8,0.2,0.2,0.2,0.8","1","",""
"","html-keyboard-response","179","55199","0.0-179.0","3DQQ64TANH77AYMG87CTBOZNC6IWPK","A2QFZ2524HID2B","3I7KR83SNAZT1REYB2SRC49PCEEK9H","","null","<img src=""img/land6.png"" style=""width:200px; border:14px solid green;"">","null","","","","","","","","","",""
"","image-keyboard-response","180","55243","0.0-180.0","3DQQ64TANH77AYMG87CTBOZNC6IWPK","A2QFZ2524HID2B","3I7KR83SNAZT1REYB2SRC49PCEEK9H","","41.5","img/land6.png","75","43.199999928474426","2","1","2","1","0.8,0.2,0.2,0.2,0.8,0.2,0.2,0.2,0.8","0.8,0.2,0.2,0.2,0.8,0.2,0.2,0.2,0.8","1","",""
"","html-keyboard-response","181","55550","0.0-181.0","3DQQ64TANH77AYMG87CTBOZNC6IWPK","A2QFZ2524HID2B","3I7KR83SNAZT1REYB2SRC49PCEEK9H","","null","<img src=""img/land6.png"" style=""width:200px; border:14px solid green;"">","null","","","","","","","","","",""
"","html-keyboard-response","182","74356","0.0-182.0","3DQQ64TANH77AYMG87CTBOZNC6IWPK","A2QFZ2524HID2B","3I7KR83SNAZT1REYB2SRC49PCEEK9H","","","","","","","","","","","","","",""
"","image-keyboard-response","183","76367","0.0-183.0","3DQQ64TANH77AYMG87CTBOZNC6IWPK","A2QFZ2524HID2B","3I7KR83SNAZT1REYB2SRC49PCEEK9H","","","img/land2.png","","2010.5","-1","0","1","2","0.8,0.2,0.2,0.2,0.8,0.2,0.2,0.2,0.8","0.8,0.2,0.2,0.2,0.8,0.2,0.2,0.2,0.8","1","",""
"","html-keyboard-response","184","76670","0.0-184.0","3DQQ64TANH77AYMG87CTBOZNC6IWPK","A2QFZ2524HID2B","3I7KR83SNAZT1REYB2SRC49PCEEK9H","","null","<img src=""img/land2.png"" style=""width:200px;border:14px solid red;"">","null","","","","","","","","","",""
"","image-keyboard-response","185","77366","0.0-185.0","3DQQ64TANH77AYMG87CTBOZNC6IWPK","A2QFZ2524HID2B","3I7KR83SNAZT1REYB2SRC49PCEEK9H","","694.6000000238419","img/land1.png","74","696","1","0","3","2","0.8,0.2,0.2,0.2,0.8,0.2,0.2,0.2,0.8","0.8,0.2,0.2,0.2,0.8,0.2,0.2,0.2,0.8","1","",""
"","html-keyboard-response","186","77671","0.0-186.0","3DQQ64TANH77AYMG87CTBOZNC6IWPK","A2QFZ2524HID2B","3I7KR83SNAZT1REYB2SRC49PCEEK9H","","null","<img src=""img/land1.png"" style=""width:200px;border:14px solid red;"">","null","","","","","","","","","",""
"","image-keyboard-response","187","77805","0.0-187.0","3DQQ64TANH77AYMG87CTBOZNC6IWPK","A2QFZ2524HID2B","3I7KR83SNAZT1REYB2SRC49PCEEK9H","","131","img/land2.png","74","133","1","1","1","2","0.8,0.2,0.2,0.2,0.8,0.2,0.2,0.2,0.8","0.8,0.2,0.2,0.2,0.8,0.2,0.2,0.2,0.8","1","",""
"","html-keyboard-response","188","78111","0.0-188.0","3DQQ64TANH77AYMG87CTBOZNC6IWPK","A2QFZ2524HID2B","3I7KR83SNAZT1REYB2SRC49PCEEK9H","","null","<img src=""img/land2.png"" style=""width:200px; border:14px solid green;"">","null","","","","","","","","","",""
"","image-keyboard-response","189","78358","0.0-189.0","3DQQ64TANH77AYMG87CTBOZNC6IWPK","A2QFZ2524HID2B","3I7KR83SNAZT1REYB2SRC49PCEEK9H","","245","img/land3.png","76","247","3","0","2","2","0.8,0.2,0.2,0.2,0.8,0.2,0.2,0.2,0.8","0.8,0.2,0.2,0.2,0.8,0.2,0.2,0.2,0.8","1","",""
"","html-keyboard-response","190","78663","0.0-190.0","3DQQ64TANH77AYMG87CTBOZNC6IWPK","A2QFZ2524HID2B","3I7KR83SNAZT1REYB2SRC49PCEEK9H","","null","<img src=""img/land3.png"" style=""width:200px;border:14px solid red;"">","null","","","","","","","","","",""
"","image-keyboard-response","191","78694","0.0-191.0","3DQQ64TANH77AYMG87CTBOZNC6IWPK","A2QFZ2524HID2B","3I7KR83SNAZT1REYB2SRC49PCEEK9H","","29.300000071525574","img/land2.png","75","31.100000023841858","2","0","1","2","0.8,0.2,0.2,0.2,0.8,0.2,0.2,0.2,0.8","0.8,0.2,0.2,0.2,0.8,0.2,0.2,0.2,0.8","1","",""
"","html-keyboard-response","192","78998","0.0-192.0","3DQQ64TANH77AYMG87CTBOZNC6IWPK","A2QFZ2524HID2B","3I7KR83SNAZT1REYB2SRC49PCEEK9H","","null","<img src=""img/land2.png"" style=""width:200px;border:14px solid red;"">","null","","","","","","","","","",""
"","image-keyboard-response","193","79096","0.0-193.0","3DQQ64TANH77AYMG87CTBOZNC6IWPK","A2QFZ2524HID2B","3I7KR83SNAZT1REYB2SRC49PCEEK9H","","95.89999997615814","img/land2.png","74","97.70000004768372","1","1","1","2","0.8,0.2,0.2,0.2,0.8,0.2,0.2,0.2,0.8","0.8,0.2,0.2,0.2,0.8,0.2,0.2,0.2,0.8","1","",""
"","html-keyboard-response","194","79407","0.0-194.0","3DQQ64TANH77AYMG87CTBOZNC6IWPK","A2QFZ2524HID2B","3I7KR83SNAZT1REYB2SRC49PCEEK9H","","null","<img src=""img/land2.png"" style=""width:200px; border:14px solid green;"">","null","","","","","","","","","",""
"","image-keyboard-response","195","79505","0.0-195.0","3DQQ64TANH77AYMG87CTBOZNC6IWPK","A2QFZ2524HID2B","3I7KR83SNAZT1REYB2SRC49PCEEK9H","","95.40000009536743","img/land2.png","76","97.29999995231628","3","0","1","2","0.8,0.2,0.2,0.2,0.8,0.2,0.2,0.2,0.8","0.8,0.2,0.2,0.2,0.8,0.2,0.2,0.2,0.8","1","",""
"","html-keyboard-response","196","79814","0.0-196.0","3DQQ64TANH77AYMG87CTBOZNC6IWPK","A2QFZ2524HID2B","3I7KR83SNAZT1REYB2SRC49PCEEK9H","","null","<img src=""img/land2.png"" style=""width:200px;border:14px solid red;"">","null","","","","","","","","","",""
"","image-keyboard-response","197","79965","0.0-197.0","3DQQ64TANH77AYMG87CTBOZNC6IWPK","A2QFZ2524HID2B","3I7KR83SNAZT1REYB2SRC49PCEEK9H","","149","img/land2.png","76","150.89999997615814","3","0","1","2","0.8,0.2,0.2,0.2,0.8,0.2,0.2,0.2,0.8","0.8,0.2,0.2,0.2,0.8,0.2,0.2,0.2,0.8","1","",""
"","html-keyboard-response","198","80271","0.0-198.0","3DQQ64TANH77AYMG87CTBOZNC6IWPK","A2QFZ2524HID2B","3I7KR83SNAZT1REYB2SRC49PCEEK9H","","null","<img src=""img/land2.png"" style=""width:200px;border:14px solid red;"">","null","","","","","","","","","",""
"","image-keyboard-response","199","80285","0.0-199.0","3DQQ64TANH77AYMG87CTBOZNC6IWPK","A2QFZ2524HID2B","3I7KR83SNAZT1REYB2SRC49PCEEK9H","","12.199999928474426","img/land1.png","76","14.200000047683716","3","1","3","2","0.8,0.2,0.2,0.2,0.8,0.2,0.2,0.2,0.8","0.8,0.2,0.2,0.2,0.8,0.2,0.2,0.2,0.8","1","",""
"","html-keyboard-response","200","80590","0.0-200.0","3DQQ64TANH77AYMG87CTBOZNC6IWPK","A2QFZ2524HID2B","3I7KR83SNAZT1REYB2SRC49PCEEK9H","","null","<img src=""img/land1.png"" style=""width:200px; border:14px solid green;"">","null","","","","","","","","","",""
"","image-keyboard-response","201","80820","0.0-201.0","3DQQ64TANH77AYMG87CTBOZNC6IWPK","A2QFZ2524HID2B","3I7KR83SNAZT1REYB2SRC49PCEEK9H","","228.5","img/land1.png","76","229.89999997615814","3","1","3","2","0.8,0.2,0.2,0.2,0.8,0.2,0.2,0.2,0.8","0.8,0.2,0.2,0.2,0.8,0.2,0.2,0.2,0.8","1","",""
"","html-keyboard-response","202","81127","0.0-202.0","3DQQ64TANH77AYMG87CTBOZNC6IWPK","A2QFZ2524HID2B","3I7KR83SNAZT1REYB2SRC49PCEEK9H","","null","<img src=""img/land1.png"" style=""width:200px; border:14px solid green;"">","null","","","","","","","","","",""
"","image-keyboard-response","203","81207","0.0-203.0","3DQQ64TANH77AYMG87CTBOZNC6IWPK","A2QFZ2524HID2B","3I7KR83SNAZT1REYB2SRC49PCEEK9H","","78.29999995231628","img/land2.png","74","80","1","1","1","2","0.8,0.2,0.2,0.2,0.8,0.2,0.2,0.2,0.8","0.8,0.2,0.2,0.2,0.8,0.2,0.2,0.2,0.8","1","",""
"","html-keyboard-response","204","81510","0.0-204.0","3DQQ64TANH77AYMG87CTBOZNC6IWPK","A2QFZ2524HID2B","3I7KR83SNAZT1REYB2SRC49PCEEK9H","","null","<img src=""img/land2.png"" style=""width:200px; border:14px solid green;"">","null","","","","","","","","","",""
"","image-keyboard-response","205","81658","0.0-205.0","3DQQ64TANH77AYMG87CTBOZNC6IWPK","A2QFZ2524HID2B","3I7KR83SNAZT1REYB2SRC49PCEEK9H","","145.79999995231628","img/land1.png","75","147.60000002384186","2","0","3","2","0.8,0.2,0.2,0.2,0.8,0.2,0.2,0.2,0.8","0.8,0.2,0.2,0.2,0.8,0.2,0.2,0.2,0.8","1","",""
"","html-keyboard-response","206","81967","0.0-206.0","3DQQ64TANH77AYMG87CTBOZNC6IWPK","A2QFZ2524HID2B","3I7KR83SNAZT1REYB2SRC49PCEEK9H","","null","<img src=""img/land1.png"" style=""width:200px;border:14px solid red;"">","null","","","","","","","","","",""
"","image-keyboard-response","207","82168","0.0-207.0","3DQQ64TANH77AYMG87CTBOZNC6IWPK","A2QFZ2524HID2B","3I7KR83SNAZT1REYB2SRC49PCEEK9H","","199.5","img/land1.png","76","201.29999995231628","3","1","3","2","0.8,0.2,0.2,0.2,0.8,0.2,0.2,0.2,0.8","0.8,0.2,0.2,0.2,0.8,0.2,0.2,0.2,0.8","1","",""
"","html-keyboard-response","208","82479","0.0-208.0","3DQQ64TANH77AYMG87CTBOZNC6IWPK","A2QFZ2524HID2B","3I7KR83SNAZT1REYB2SRC49PCEEK9H","","null","<img src=""img/land1.png"" style=""width:200px; border:14px solid green;"">","null","","","","","","","","","",""
"","image-keyboard-response","209","82553","0.0-209.0","3DQQ64TANH77AYMG87CTBOZNC6IWPK","A2QFZ2524HID2B","3I7KR83SNAZT1REYB2SRC49PCEEK9H","","71.60000002384186","img/land2.png","75","73.60000002384186","2","0","1","2","0.8,0.2,0.2,0.2,0.8,0.2,0.2,0.2,0.8","0.8,0.2,0.2,0.2,0.8,0.2,0.2,0.2,0.8","1","",""
"","html-keyboard-response","210","82862","0.0-210.0","3DQQ64TANH77AYMG87CTBOZNC6IWPK","A2QFZ2524HID2B","3I7KR83SNAZT1REYB2SRC49PCEEK9H","","null","<img src=""img/land2.png"" style=""width:200px;border:14px solid red;"">","null","","","","","","","","","",""
"","image-keyboard-response","211","82939","0.0-211.0","3DQQ64TANH77AYMG87CTBOZNC6IWPK","A2QFZ2524HID2B","3I7KR83SNAZT1REYB2SRC49PCEEK9H","","74.09999990463257","img/land2.png","74","75.79999995231628","1","1","1","2","0.8,0.2,0.2,0.2,0.8,0.2,0.2,0.2,0.8","0.8,0.2,0.2,0.2,0.8,0.2,0.2,0.2,0.8","1","",""
"","html-keyboard-response","212","83246","0.0-212.0","3DQQ64TANH77AYMG87CTBOZNC6IWPK","A2QFZ2524HID2B","3I7KR83SNAZT1REYB2SRC49PCEEK9H","","null","<img src=""img/land2.png"" style=""width:200px; border:14px solid green;"">","null","","","","","","","","","",""
"","image-keyboard-response","213","83352","0.0-213.0","3DQQ64TANH77AYMG87CTBOZNC6IWPK","A2QFZ2524HID2B","3I7KR83SNAZT1REYB2SRC49PCEEK9H","","104.10000002384186","img/land2.png","74","105.70000004768372","1","1","1","2","0.8,0.2,0.2,0.2,0.8,0.2,0.2,0.2,0.8","0.8,0.2,0.2,0.2,0.8,0.2,0.2,0.2,0.8","1","",""
"","html-keyboard-response","214","83663","0.0-214.0","3DQQ64TANH77AYMG87CTBOZNC6IWPK","A2QFZ2524HID2B","3I7KR83SNAZT1REYB2SRC49PCEEK9H","","null","<img src=""img/land2.png"" style=""width:200px; border:14px solid green;"">","null","","","","","","","","","",""
"","image-keyboard-response","215","83726","0.0-215.0","3DQQ64TANH77AYMG87CTBOZNC6IWPK","A2QFZ2524HID2B","3I7KR83SNAZT1REYB2SRC49PCEEK9H","","61","img/land1.png","76","62.699999928474426","3","0","3","2","0.8,0.2,0.2,0.2,0.8,0.2,0.2,0.2,0.8","0.8,0.2,0.2,0.2,0.8,0.2,0.2,0.2,0.8","1","",""
"","html-keyboard-response","216","84030","0.0-216.0","3DQQ64TANH77AYMG87CTBOZNC6IWPK","A2QFZ2524HID2B","3I7KR83SNAZT1REYB2SRC49PCEEK9H","","null","<img src=""img/land1.png"" style=""width:200px;border:14px solid red;"">","null","","","","","","","","","",""
"","image-keyboard-response","217","84069","0.0-217.0","3DQQ64TANH77AYMG87CTBOZNC6IWPK","A2QFZ2524HID2B","3I7KR83SNAZT1REYB2SRC49PCEEK9H","","36.300000071525574","img/land2.png","76","37.90000009536743","3","0","1","2","0.8,0.2,0.2,0.2,0.8,0.2,0.2,0.2,0.8","0.8,0.2,0.2,0.2,0.8,0.2,0.2,0.2,0.8","1","",""
"","html-keyboard-response","218","84375","0.0-218.0","3DQQ64TANH77AYMG87CTBOZNC6IWPK","A2QFZ2524HID2B","3I7KR83SNAZT1REYB2SRC49PCEEK9H","","null","<img src=""img/land2.png"" style=""width:200px;border:14px solid red;"">","null","","","","","","","","","",""
"","image-keyboard-response","219","84387","0.0-219.0","3DQQ64TANH77AYMG87CTBOZNC6IWPK","A2QFZ2524HID2B","3I7KR83SNAZT1REYB2SRC49PCEEK9H","","9.5","img/land2.png","74","11.699999928474426","1","1","1","2","0.8,0.2,0.2,0.2,0.8,0.2,0.2,0.2,0.8","0.8,0.2,0.2,0.2,0.8,0.2,0.2,0.2,0.8","1","",""
"","html-keyboard-response","220","84690","0.0-220.0","3DQQ64TANH77AYMG87CTBOZNC6IWPK","A2QFZ2524HID2B","3I7KR83SNAZT1REYB2SRC49PCEEK9H","","null","<img src=""img/land2.png"" style=""width:200px; border:14px solid green;"">","null","","","","","","","","","",""
"","image-keyboard-response","221","84850","0.0-221.0","3DQQ64TANH77AYMG87CTBOZNC6IWPK","A2QFZ2524HID2B","3I7KR83SNAZT1REYB2SRC49PCEEK9H","","158.60000002384186","img/land3.png","74","160.30000007152557","1","1","2","2","0.8,0.2,0.2,0.2,0.8,0.2,0.2,0.2,0.8","0.8,0.2,0.2,0.2,0.8,0.2,0.2,0.2,0.8","1","",""
"","html-keyboard-response","222","85158","0.0-222.0","3DQQ64TANH77AYMG87CTBOZNC6IWPK","A2QFZ2524HID2B","3I7KR83SNAZT1REYB2SRC49PCEEK9H","","null","<img src=""img/land3.png"" style=""width:200px; border:14px solid green;"">","null","","","","","","","","","",""
"","image-keyboard-response","223","85206","0.0-223.0","3DQQ64TANH77AYMG87CTBOZNC6IWPK","A2QFZ2524HID2B","3I7KR83SNAZT1REYB2SRC49PCEEK9H","","45","img/land1.png","74","46.799999952316284","1","0","3","2","0.8,0.2,0.2,0.2,0.8,0.2,0.2,0.2,0.8","0.8,0.2,0.2,0.2,0.8,0.2,0.2,0.2,0.8","1","",""
"","html-keyboard-response","224","85510","0.0-224.0","3DQQ64TANH77AYMG87CTBOZNC6IWPK","A2QFZ2524HID2B","3I7KR83SNAZT1REYB2SRC49PCEEK9H","","null","<img src=""img/land1.png"" style=""width:200px;border:14px solid red;"">","null","","","","","","","","","",""
"","image-keyboard-response","225","85676","0.0-225.0","3DQQ64TANH77AYMG87CTBOZNC6IWPK","A2QFZ2524HID2B","3I7KR83SNAZT1REYB2SRC49PCEEK9H","","164","img/land1.png","74","165.70000004768372","1","0","3","2","0.8,0.2,0.2,0.2,0.8,0.2,0.2,0.2,0.8","0.8,0.2,0.2,0.2,0.8,0.2,0.2,0.2,0.8","1","",""
"","html-keyboard-response","226","85982","0.0-226.0","3DQQ64TANH77AYMG87CTBOZNC6IWPK","A2QFZ2524HID2B","3I7KR83SNAZT1REYB2SRC49PCEEK9H","","null","<img src=""img/land1.png"" style=""width:200px;border:14px solid red;"">","null","","","","","","","","","",""
"","image-keyboard-response","227","86088","0.0-227.0","3DQQ64TANH77AYMG87CTBOZNC6IWPK","A2QFZ2524HID2B","3I7KR83SNAZT1REYB2SRC49PCEEK9H","","103.39999997615814","img/land2.png","75","105.20000004768372","2","0","1","2","0.8,0.2,0.2,0.2,0.8,0.2,0.2,0.2,0.8","0.8,0.2,0.2,0.2,0.8,0.2,0.2,0.2,0.8","1","",""
"","html-keyboard-response","228","86399","0.0-228.0","3DQQ64TANH77AYMG87CTBOZNC6IWPK","A2QFZ2524HID2B","3I7KR83SNAZT1REYB2SRC49PCEEK9H","","null","<img src=""img/land2.png"" style=""width:200px;border:14px solid red;"">","null","","","","","","","","","",""
"","image-keyboard-response","229","86416","0.0-229.0","3DQQ64TANH77AYMG87CTBOZNC6IWPK","A2QFZ2524HID2B","3I7KR83SNAZT1REYB2SRC49PCEEK9H","","14.899999976158142","img/land2.png","74","16.800000071525574","1","1","1","2","0.8,0.2,0.2,0.2,0.8,0.2,0.2,0.2,0.8","0.8,0.2,0.2,0.2,0.8,0.2,0.2,0.2,0.8","1","",""
"","html-keyboard-response","230","86726","0.0-230.0","3DQQ64TANH77AYMG87CTBOZNC6IWPK","A2QFZ2524HID2B","3I7KR83SNAZT1REYB2SRC49PCEEK9H","","null","<img src=""img/land2.png"" style=""width:200px; border:14px solid green;"">","null","","","","","","","","","",""
"","image-keyboard-response","231","86750","0.0-231.0","3DQQ64TANH77AYMG87CTBOZNC6IWPK","A2QFZ2524HID2B","3I7KR83SNAZT1REYB2SRC49PCEEK9H","","20.800000071525574","img/land2.png","74","22.5","1","0","1","2","0.8,0.2,0.2,0.2,0.8,0.2,0.2,0.2,0.8","0.8,0.2,0.2,0.2,0.8,0.2,0.2,0.2,0.8","1","",""
"","html-keyboard-response","232","87055","0.0-232.0","3DQQ64TANH77AYMG87CTBOZNC6IWPK","A2QFZ2524HID2B","3I7KR83SNAZT1REYB2SRC49PCEEK9H","","null","<img src=""img/land2.png"" style=""width:200px;border:14px solid red;"">","null","","","","","","","","","",""
"","image-keyboard-response","233","87105","0.0-233.0","3DQQ64TANH77AYMG87CTBOZNC6IWPK","A2QFZ2524HID2B","3I7KR83SNAZT1REYB2SRC49PCEEK9H","","47.60000002384186","img/land2.png","75","49.299999952316284","2","1","1","2","0.8,0.2,0.2,0.2,0.8,0.2,0.2,0.2,0.8","0.8,0.2,0.2,0.2,0.8,0.2,0.2,0.2,0.8","1","",""
"","html-keyboard-response","234","87415","0.0-234.0","3DQQ64TANH77AYMG87CTBOZNC6IWPK","A2QFZ2524HID2B","3I7KR83SNAZT1REYB2SRC49PCEEK9H","","null","<img src=""img/land2.png"" style=""width:200px; border:14px solid green;"">","null","","","","","","","","","",""
"","image-keyboard-response","235","87522","0.0-235.0","3DQQ64TANH77AYMG87CTBOZNC6IWPK","A2QFZ2524HID2B","3I7KR83SNAZT1REYB2SRC49PCEEK9H","","105","img/land2.png","74","106.89999997615814","1","0","1","2","0.8,0.2,0.2,0.2,0.8,0.2,0.2,0.2,0.8","0.8,0.2,0.2,0.2,0.8,0.2,0.2,0.2,0.8","1","",""
"","html-keyboard-response","236","87830","0.0-236.0","3DQQ64TANH77AYMG87CTBOZNC6IWPK","A2QFZ2524HID2B","3I7KR83SNAZT1REYB2SRC49PCEEK9H","","null","<img src=""img/land2.png"" style=""width:200px;border:14px solid red;"">","null","","","","","","","","","",""
"","image-keyboard-response","237","87919","0.0-237.0","3DQQ64TANH77AYMG87CTBOZNC6IWPK","A2QFZ2524HID2B","3I7KR83SNAZT1REYB2SRC49PCEEK9H","","86.69999992847443","img/land2.png","75","88.39999997615814","2","0","1","2","0.8,0.2,0.2,0.2,0.8,0.2,0.2,0.2,0.8","0.8,0.2,0.2,0.2,0.8,0.2,0.2,0.2,0.8","1","",""
"","html-keyboard-response","238","88222","0.0-238.0","3DQQ64TANH77AYMG87CTBOZNC6IWPK","A2QFZ2524HID2B","3I7KR83SNAZT1REYB2SRC49PCEEK9H","","null","<img src=""img/land2.png"" style=""width:200px;border:14px solid red;"">","null","","","","","","","","","",""
"","image-keyboard-response","239","88518","0.0-239.0","3DQQ64TANH77AYMG87CTBOZNC6IWPK","A2QFZ2524HID2B","3I7KR83SNAZT1REYB2SRC49PCEEK9H","","293.2999999523163","img/land1.png","74","295.2000000476837","1","0","3","2","0.8,0.2,0.2,0.2,0.8,0.2,0.2,0.2,0.8","0.8,0.2,0.2,0.2,0.8,0.2,0.2,0.2,0.8","1","",""
"","html-keyboard-response","240","88822","0.0-240.0","3DQQ64TANH77AYMG87CTBOZNC6IWPK","A2QFZ2524HID2B","3I7KR83SNAZT1REYB2SRC49PCEEK9H","","null","<img src=""img/land1.png"" style=""width:200px;border:14px solid red;"">","null","","","","","","","","","",""
"","image-keyboard-response","241","88852","0.0-241.0","3DQQ64TANH77AYMG87CTBOZNC6IWPK","A2QFZ2524HID2B","3I7KR83SNAZT1REYB2SRC49PCEEK9H","","27.59999990463257","img/land2.png","76","29.199999928474426","3","1","1","2","0.8,0.2,0.2,0.2,0.8,0.2,0.2,0.2,0.8","0.8,0.2,0.2,0.2,0.8,0.2,0.2,0.2,0.8","1","",""
"","html-keyboard-response","242","89158","0.0-242.0","3DQQ64TANH77AYMG87CTBOZNC6IWPK","A2QFZ2524HID2B","3I7KR83SNAZT1REYB2SRC49PCEEK9H","","null","<img src=""img/land2.png"" style=""width:200px; border:14px solid green;"">","null","","","","","","","","","",""
"","image-keyboard-response","243","89316","0.0-243.0","3DQQ64TANH77AYMG87CTBOZNC6IWPK","A2QFZ2524HID2B","3I7KR83SNAZT1REYB2SRC49PCEEK9H","","155.60000002384186","img/land1.png","76","157.39999997615814","3","1","3","2","0.8,0.2,0.2,0.2,0.8,0.2,0.2,0.2,0.8","0.8,0.2,0.2,0.2,0.8,0.2,0.2,0.2,0.8","1","",""
"","html-keyboard-response","244","89622","0.0-244.0","3DQQ64TANH77AYMG87CTBOZNC6IWPK","A2QFZ2524HID2B","3I7KR83SNAZT1REYB2SRC49PCEEK9H","","null","<img src=""img/land1.png"" style=""width:200px; border:14px solid green;"">","null","","","","","","","","","",""
"","image-keyboard-response","245","89660","0.0-245.0","3DQQ64TANH77AYMG87CTBOZNC6IWPK","A2QFZ2524HID2B","3I7KR83SNAZT1REYB2SRC49PCEEK9H","","35.40000009536743","img/land3.png","75","37.199999928474426","2","0","2","2","0.8,0.2,0.2,0.2,0.8,0.2,0.2,0.2,0.8","0.8,0.2,0.2,0.2,0.8,0.2,0.2,0.2,0.8","1","",""
"","html-keyboard-response","246","89966","0.0-246.0","3DQQ64TANH77AYMG87CTBOZNC6IWPK","A2QFZ2524HID2B","3I7KR83SNAZT1REYB2SRC49PCEEK9H","","null","<img src=""img/land3.png"" style=""width:200px;border:14px solid red;"">","null","","","","","","","","","",""
"","image-keyboard-response","247","90086","0.0-247.0","3DQQ64TANH77AYMG87CTBOZNC6IWPK","A2QFZ2524HID2B","3I7KR83SNAZT1REYB2SRC49PCEEK9H","","117.60000002384186","img/land3.png","74","119.39999997615814","1","1","2","2","0.8,0.2,0.2,0.2,0.8,0.2,0.2,0.2,0.8","0.8,0.2,0.2,0.2,0.8,0.2,0.2,0.2,0.8","1","",""
"","html-keyboard-response","248","90390","0.0-248.0","3DQQ64TANH77AYMG87CTBOZNC6IWPK","A2QFZ2524HID2B","3I7KR83SNAZT1REYB2SRC49PCEEK9H","","null","<img src=""img/land3.png"" style=""width:200px; border:14px solid green;"">","null","","","","","","","","","",""
"","image-keyboard-response","249","90411","0.0-249.0","3DQQ64TANH77AYMG87CTBOZNC6IWPK","A2QFZ2524HID2B","3I7KR83SNAZT1REYB2SRC49PCEEK9H","","18.899999976158142","img/land2.png","74","20.5","1","1","1","2","0.8,0.2,0.2,0.2,0.8,0.2,0.2,0.2,0.8","0.8,0.2,0.2,0.2,0.8,0.2,0.2,0.2,0.8","1","",""
"","html-keyboard-response","250","90719","0.0-250.0","3DQQ64TANH77AYMG87CTBOZNC6IWPK","A2QFZ2524HID2B","3I7KR83SNAZT1REYB2SRC49PCEEK9H","","null","<img src=""img/land2.png"" style=""width:200px; border:14px solid green;"">","null","","","","","","","","","",""
"","image-keyboard-response","251","90722","0.0-251.0","3DQQ64TANH77AYMG87CTBOZNC6IWPK","A2QFZ2524HID2B","3I7KR83SNAZT1REYB2SRC49PCEEK9H","","0.7000000476837158","img/land2.png","74","2.299999952316284","1","1","1","2","0.8,0.2,0.2,0.2,0.8,0.2,0.2,0.2,0.8","0.8,0.2,0.2,0.2,0.8,0.2,0.2,0.2,0.8","1","",""
"","html-keyboard-response","252","91031","0.0-252.0","3DQQ64TANH77AYMG87CTBOZNC6IWPK","A2QFZ2524HID2B","3I7KR83SNAZT1REYB2SRC49PCEEK9H","","null","<img src=""img/land2.png"" style=""width:200px; border:14px solid green;"">","null","","","","","","","","","",""
"","image-keyboard-response","253","91045","0.0-253.0","3DQQ64TANH77AYMG87CTBOZNC6IWPK","A2QFZ2524HID2B","3I7KR83SNAZT1REYB2SRC49PCEEK9H","","11.800000071525574","img/land2.png","74","13.5","1","0","1","2","0.8,0.2,0.2,0.2,0.8,0.2,0.2,0.2,0.8","0.8,0.2,0.2,0.2,0.8,0.2,0.2,0.2,0.8","1","",""
"","html-keyboard-response","254","91351","0.0-254.0","3DQQ64TANH77AYMG87CTBOZNC6IWPK","A2QFZ2524HID2B","3I7KR83SNAZT1REYB2SRC49PCEEK9H","","null","<img src=""img/land2.png"" style=""width:200px;border:14px solid red;"">","null","","","","","","","","","",""
"","image-keyboard-response","255","91450","0.0-255.0","3DQQ64TANH77AYMG87CTBOZNC6IWPK","A2QFZ2524HID2B","3I7KR83SNAZT1REYB2SRC49PCEEK9H","","96.90000009536743","img/land2.png","75","98.79999995231628","2","0","1","2","0.8,0.2,0.2,0.2,0.8,0.2,0.2,0.2,0.8","0.8,0.2,0.2,0.2,0.8,0.2,0.2,0.2,0.8","1","",""
"","html-keyboard-response","256","91759","0.0-256.0","3DQQ64TANH77AYMG87CTBOZNC6IWPK","A2QFZ2524HID2B","3I7KR83SNAZT1REYB2SRC49PCEEK9H","","null","<img src=""img/land2.png"" style=""width:200px;border:14px solid red;"">","null","","","","","","","","","",""
"","image-keyboard-response","257","91780","0.0-257.0","3DQQ64TANH77AYMG87CTBOZNC6IWPK","A2QFZ2524HID2B","3I7KR83SNAZT1REYB2SRC49PCEEK9H","","18.899999976158142","img/land2.png","76","20.700000047683716","3","0","1","2","0.8,0.2,0.2,0.2,0.8,0.2,0.2,0.2,0.8","0.8,0.2,0.2,0.2,0.8,0.2,0.2,0.2,0.8","1","",""
"","html-keyboard-response","258","92087","0.0-258.0","3DQQ64TANH77AYMG87CTBOZNC6IWPK","A2QFZ2524HID2B","3I7KR83SNAZT1REYB2SRC49PCEEK9H","","null","<img src=""img/land2.png"" style=""width:200px;border:14px solid red;"">","null","","","","","","","","","",""
"","image-keyboard-response","259","92168","0.0-259.0","3DQQ64TANH77AYMG87CTBOZNC6IWPK","A2QFZ2524HID2B","3I7KR83SNAZT1REYB2SRC49PCEEK9H","","79.60000002384186","img/land2.png","74","81.39999997615814","1","1","1","2","0.8,0.2,0.2,0.2,0.8,0.2,0.2,0.2,0.8","0.8,0.2,0.2,0.2,0.8,0.2,0.2,0.2,0.8","1","",""
"","html-keyboard-response","260","92479","0.0-260.0","3DQQ64TANH77AYMG87CTBOZNC6IWPK","A2QFZ2524HID2B","3I7KR83SNAZT1REYB2SRC49PCEEK9H","","null","<img src=""img/land2.png"" style=""width:200px; border:14px solid green;"">","null","","","","","","","","","",""
"","image-keyboard-response","261","92561","0.0-261.0","3DQQ64TANH77AYMG87CTBOZNC6IWPK","A2QFZ2524HID2B","3I7KR83SNAZT1REYB2SRC49PCEEK9H","","80.29999995231628","img/land2.png","76","82.30000007152557","3","0","1","2","0.8,0.2,0.2,0.2,0.8,0.2,0.2,0.2,0.8","0.8,0.2,0.2,0.2,0.8,0.2,0.2,0.2,0.8","1","",""
"","html-keyboard-response","262","92871","0.0-262.0","3DQQ64TANH77AYMG87CTBOZNC6IWPK","A2QFZ2524HID2B","3I7KR83SNAZT1REYB2SRC49PCEEK9H","","null","<img src=""img/land2.png"" style=""width:200px;border:14px solid red;"">","null","","","","","","","","","",""
"","image-keyboard-response","263","92989","0.0-263.0","3DQQ64TANH77AYMG87CTBOZNC6IWPK","A2QFZ2524HID2B","3I7KR83SNAZT1REYB2SRC49PCEEK9H","","115.60000002384186","img/land3.png","75","117.60000002384186","2","1","2","2","0.8,0.2,0.2,0.2,0.8,0.2,0.2,0.2,0.8","0.8,0.2,0.2,0.2,0.8,0.2,0.2,0.2,0.8","1","",""
"","html-keyboard-response","264","93295","0.0-264.0","3DQQ64TANH77AYMG87CTBOZNC6IWPK","A2QFZ2524HID2B","3I7KR83SNAZT1REYB2SRC49PCEEK9H","","null","<img src=""img/land3.png"" style=""width:200px; border:14px solid green;"">","null","","","","","","","","","",""
"","image-keyboard-response","265","93349","0.0-265.0","3DQQ64TANH77AYMG87CTBOZNC6IWPK","A2QFZ2524HID2B","3I7KR83SNAZT1REYB2SRC49PCEEK9H","","51.90000009536743","img/land2.png","74","53.799999952316284","1","1","1","2","0.8,0.2,0.2,0.2,0.8,0.2,0.2,0.2,0.8","0.8,0.2,0.2,0.2,0.8,0.2,0.2,0.2,0.8","1","",""
"","html-keyboard-response","266","93655","0.0-266.0","3DQQ64TANH77AYMG87CTBOZNC6IWPK","A2QFZ2524HID2B","3I7KR83SNAZT1REYB2SRC49PCEEK9H","","null","<img src=""img/land2.png"" style=""width:200px; border:14px solid green;"">","null","","","","","","","","","",""
"","image-keyboard-response","267","93790","0.0-267.0","3DQQ64TANH77AYMG87CTBOZNC6IWPK","A2QFZ2524HID2B","3I7KR83SNAZT1REYB2SRC49PCEEK9H","","133.20000004768372","img/land3.png","74","135","1","0","2","2","0.8,0.2,0.2,0.2,0.8,0.2,0.2,0.2,0.8","0.8,0.2,0.2,0.2,0.8,0.2,0.2,0.2,0.8","1","",""
"","html-keyboard-response","268","94095","0.0-268.0","3DQQ64TANH77AYMG87CTBOZNC6IWPK","A2QFZ2524HID2B","3I7KR83SNAZT1REYB2SRC49PCEEK9H","","null","<img src=""img/land3.png"" style=""width:200px;border:14px solid red;"">","null","","","","","","","","","",""
"","image-keyboard-response","269","94118","0.0-269.0","3DQQ64TANH77AYMG87CTBOZNC6IWPK","A2QFZ2524HID2B","3I7KR83SNAZT1REYB2SRC49PCEEK9H","","20.399999976158142","img/land2.png","75","22.40000009536743","2","0","1","2","0.8,0.2,0.2,0.2,0.8,0.2,0.2,0.2,0.8","0.8,0.2,0.2,0.2,0.8,0.2,0.2,0.2,0.8","1","",""
"","html-keyboard-response","270","94422","0.0-270.0","3DQQ64TANH77AYMG87CTBOZNC6IWPK","A2QFZ2524HID2B","3I7KR83SNAZT1REYB2SRC49PCEEK9H","","null","<img src=""img/land2.png"" style=""width:200px;border:14px solid red;"">","null","","","","","","","","","",""
"","image-keyboard-response","271","94522","0.0-271.0","3DQQ64TANH77AYMG87CTBOZNC6IWPK","A2QFZ2524HID2B","3I7KR83SNAZT1REYB2SRC49PCEEK9H","","97.29999995231628","img/land2.png","75","99.10000002384186","2","0","1","2","0.8,0.2,0.2,0.2,0.8,0.2,0.2,0.2,0.8","0.8,0.2,0.2,0.2,0.8,0.2,0.2,0.2,0.8","1","",""
"","html-keyboard-response","272","94831","0.0-272.0","3DQQ64TANH77AYMG87CTBOZNC6IWPK","A2QFZ2524HID2B","3I7KR83SNAZT1REYB2SRC49PCEEK9H","","null","<img src=""img/land2.png"" style=""width:200px;border:14px solid red;"">","null","","","","","","","","","",""
"","image-keyboard-response","273","94900","0.0-273.0","3DQQ64TANH77AYMG87CTBOZNC6IWPK","A2QFZ2524HID2B","3I7KR83SNAZT1REYB2SRC49PCEEK9H","","66.60000002384186","img/land3.png","76","68.70000004768372","3","1","2","2","0.8,0.2,0.2,0.2,0.8,0.2,0.2,0.2,0.8","0.8,0.2,0.2,0.2,0.8,0.2,0.2,0.2,0.8","1","",""
"","html-keyboard-response","274","95206","0.0-274.0","3DQQ64TANH77AYMG87CTBOZNC6IWPK","A2QFZ2524HID2B","3I7KR83SNAZT1REYB2SRC49PCEEK9H","","null","<img src=""img/land3.png"" style=""width:200px; border:14px solid green;"">","null","","","","","","","","","",""
"","image-keyboard-response","275","95241","0.0-275.0","3DQQ64TANH77AYMG87CTBOZNC6IWPK","A2QFZ2524HID2B","3I7KR83SNAZT1REYB2SRC49PCEEK9H","","33.300000071525574","img/land2.png","76","34.60000002384186","3","0","1","2","0.8,0.2,0.2,0.2,0.8,0.2,0.2,0.2,0.8","0.8,0.2,0.2,0.2,0.8,0.2,0.2,0.2,0.8","1","",""
"","html-keyboard-response","276","95546","0.0-276.0","3DQQ64TANH77AYMG87CTBOZNC6IWPK","A2QFZ2524HID2B","3I7KR83SNAZT1REYB2SRC49PCEEK9H","","null","<img src=""img/land2.png"" style=""width:200px;border:14px solid red;"">","null","","","","","","","","","",""
"","image-keyboard-response","277","95604","0.0-277.0","3DQQ64TANH77AYMG87CTBOZNC6IWPK","A2QFZ2524HID2B","3I7KR83SNAZT1REYB2SRC49PCEEK9H","","56.09999990463257","img/land2.png","75","57.60000002384186","2","0","1","2","0.8,0.2,0.2,0.2,0.8,0.2,0.2,0.2,0.8","0.8,0.2,0.2,0.2,0.8,0.2,0.2,0.2,0.8","1","",""
"","html-keyboard-response","278","95910","0.0-278.0","3DQQ64TANH77AYMG87CTBOZNC6IWPK","A2QFZ2524HID2B","3I7KR83SNAZT1REYB2SRC49PCEEK9H","","null","<img src=""img/land2.png"" style=""width:200px;border:14px solid red;"">","null","","","","","","","","","",""
"","image-keyboard-response","279","96049","0.0-279.0","3DQQ64TANH77AYMG87CTBOZNC6IWPK","A2QFZ2524HID2B","3I7KR83SNAZT1REYB2SRC49PCEEK9H","","137.69999992847443","img/land3.png","74","139","1","0","2","2","0.8,0.2,0.2,0.2,0.8,0.2,0.2,0.2,0.8","0.8,0.2,0.2,0.2,0.8,0.2,0.2,0.2,0.8","1","",""
"","html-keyboard-response","280","96358","0.0-280.0","3DQQ64TANH77AYMG87CTBOZNC6IWPK","A2QFZ2524HID2B","3I7KR83SNAZT1REYB2SRC49PCEEK9H","","null","<img src=""img/land3.png"" style=""width:200px;border:14px solid red;"">","null","","","","","","","","","",""
"","image-keyboard-response","281","96503","0.0-281.0","3DQQ64TANH77AYMG87CTBOZNC6IWPK","A2QFZ2524HID2B","3I7KR83SNAZT1REYB2SRC49PCEEK9H","","143.5","img/land2.png","74","144.80000007152557","1","1","1","2","0.8,0.2,0.2,0.2,0.8,0.2,0.2,0.2,0.8","0.8,0.2,0.2,0.2,0.8,0.2,0.2,0.2,0.8","1","",""
"","html-keyboard-response","282","96807","0.0-282.0","3DQQ64TANH77AYMG87CTBOZNC6IWPK","A2QFZ2524HID2B","3I7KR83SNAZT1REYB2SRC49PCEEK9H","","null","<img src=""img/land2.png"" style=""width:200px; border:14px solid green;"">","null","","","","","","","","","",""
"","image-keyboard-response","283","96836","0.0-283.0","3DQQ64TANH77AYMG87CTBOZNC6IWPK","A2QFZ2524HID2B","3I7KR83SNAZT1REYB2SRC49PCEEK9H","","27","img/land2.png","75","28.799999952316284","2","0","1","2","0.8,0.2,0.2,0.2,0.8,0.2,0.2,0.2,0.8","0.8,0.2,0.2,0.2,0.8,0.2,0.2,0.2,0.8","1","",""
"","html-keyboard-response","284","97142","0.0-284.0","3DQQ64TANH77AYMG87CTBOZNC6IWPK","A2QFZ2524HID2B","3I7KR83SNAZT1REYB2SRC49PCEEK9H","","null","<img src=""img/land2.png"" style=""width:200px;border:14px solid red;"">","null","","","","","","","","","",""
"","image-keyboard-response","285","97195","0.0-285.0","3DQQ64TANH77AYMG87CTBOZNC6IWPK","A2QFZ2524HID2B","3I7KR83SNAZT1REYB2SRC49PCEEK9H","","50.10000002384186","img/land2.png","76","52","3","0","1","2","0.8,0.2,0.2,0.2,0.8,0.2,0.2,0.2,0.8","0.8,0.2,0.2,0.2,0.8,0.2,0.2,0.2,0.8","1","",""
"","html-keyboard-response","286","97502","0.0-286.0","3DQQ64TANH77AYMG87CTBOZNC6IWPK","A2QFZ2524HID2B","3I7KR83SNAZT1REYB2SRC49PCEEK9H","","null","<img src=""img/land2.png"" style=""width:200px;border:14px solid red;"">","null","","","","","","","","","",""
"","image-keyboard-response","287","97567","0.0-287.0","3DQQ64TANH77AYMG87CTBOZNC6IWPK","A2QFZ2524HID2B","3I7KR83SNAZT1REYB2SRC49PCEEK9H","","62.200000047683716","img/land3.png","76","63.799999952316284","3","0","2","2","0.8,0.2,0.2,0.2,0.8,0.2,0.2,0.2,0.8","0.8,0.2,0.2,0.2,0.8,0.2,0.2,0.2,0.8","1","",""
"","html-keyboard-response","288","97871","0.0-288.0","3DQQ64TANH77AYMG87CTBOZNC6IWPK","A2QFZ2524HID2B","3I7KR83SNAZT1REYB2SRC49PCEEK9H","","null","<img src=""img/land3.png"" style=""width:200px;border:14px solid red;"">","null","","","","","","","","","",""
"","image-keyboard-response","289","98008","0.0-289.0","3DQQ64TANH77AYMG87CTBOZNC6IWPK","A2QFZ2524HID2B","3I7KR83SNAZT1REYB2SRC49PCEEK9H","","134.69999992847443","img/land2.png","76","136.39999997615814","3","1","1","2","0.8,0.2,0.2,0.2,0.8,0.2,0.2,0.2,0.8","0.8,0.2,0.2,0.2,0.8,0.2,0.2,0.2,0.8","1","",""
"","html-keyboard-response","290","98310","0.0-290.0","3DQQ64TANH77AYMG87CTBOZNC6IWPK","A2QFZ2524HID2B","3I7KR83SNAZT1REYB2SRC49PCEEK9H","","null","<img src=""img/land2.png"" style=""width:200px; border:14px solid green;"">","null","","","","","","","","","",""
"","image-keyboard-response","291","98343","0.0-291.0","3DQQ64TANH77AYMG87CTBOZNC6IWPK","A2QFZ2524HID2B","3I7KR83SNAZT1REYB2SRC49PCEEK9H","","30.200000047683716","img/land2.png","76","32","3","0","1","2","0.8,0.2,0.2,0.2,0.8,0.2,0.2,0.2,0.8","0.8,0.2,0.2,0.2,0.8,0.2,0.2,0.2,0.8","1","",""
"","html-keyboard-response","292","98647","0.0-292.0","3DQQ64TANH77AYMG87CTBOZNC6IWPK","A2QFZ2524HID2B","3I7KR83SNAZT1REYB2SRC49PCEEK9H","","null","<img src=""img/land2.png"" style=""width:200px;border:14px solid red;"">","null","","","","","","","","","",""
"","image-keyboard-response","293","98827","0.0-293.0","3DQQ64TANH77AYMG87CTBOZNC6IWPK","A2QFZ2524HID2B","3I7KR83SNAZT1REYB2SRC49PCEEK9H","","178.10000002384186","img/land2.png","74","179.80000007152557","1","0","1","2","0.8,0.2,0.2,0.2,0.8,0.2,0.2,0.2,0.8","0.8,0.2,0.2,0.2,0.8,0.2,0.2,0.2,0.8","1","",""
"","html-keyboard-response","294","99151","0.0-294.0","3DQQ64TANH77AYMG87CTBOZNC6IWPK","A2QFZ2524HID2B","3I7KR83SNAZT1REYB2SRC49PCEEK9H","","null","<img src=""img/land2.png"" style=""width:200px;border:14px solid red;"">","null","","","","","","","","","",""
"","image-keyboard-response","295","99256","0.0-295.0","3DQQ64TANH77AYMG87CTBOZNC6IWPK","A2QFZ2524HID2B","3I7KR83SNAZT1REYB2SRC49PCEEK9H","","101.89999997615814","img/land1.png","74","103.59999990463257","1","1","3","2","0.8,0.2,0.2,0.2,0.8,0.2,0.2,0.2,0.8","0.8,0.2,0.2,0.2,0.8,0.2,0.2,0.2,0.8","1","",""
"","html-keyboard-response","296","99559","0.0-296.0","3DQQ64TANH77AYMG87CTBOZNC6IWPK","A2QFZ2524HID2B","3I7KR83SNAZT1REYB2SRC49PCEEK9H","","null","<img src=""img/land1.png"" style=""width:200px; border:14px solid green;"">","null","","","","","","","","","",""
"","image-keyboard-response","297","99597","0.0-297.0","3DQQ64TANH77AYMG87CTBOZNC6IWPK","A2QFZ2524HID2B","3I7KR83SNAZT1REYB2SRC49PCEEK9H","","35.5","img/land2.png","74","37.10000002384186","1","1","1","2","0.8,0.2,0.2,0.2,0.8,0.2,0.2,0.2,0.8","0.8,0.2,0.2,0.2,0.8,0.2,0.2,0.2,0.8","1","",""
"","html-keyboard-response","298","99903","0.0-298.0","3DQQ64TANH77AYMG87CTBOZNC6IWPK","A2QFZ2524HID2B","3I7KR83SNAZT1REYB2SRC49PCEEK9H","","null","<img src=""img/land2.png"" style=""width:200px; border:14px solid green;"">","null","","","","","","","","","",""
"","image-keyboard-response","299","100023","0.0-299.0","3DQQ64TANH77AYMG87CTBOZNC6IWPK","A2QFZ2524HID2B","3I7KR83SNAZT1REYB2SRC49PCEEK9H","","118.29999995231628","img/land2.png","74","119.80000007152557","1","1","1","2","0.8,0.2,0.2,0.2,0.8,0.2,0.2,0.2,0.8","0.8,0.2,0.2,0.2,0.8,0.2,0.2,0.2,0.8","1","",""
"","html-keyboard-response","300","100327","0.0-300.0","3DQQ64TANH77AYMG87CTBOZNC6IWPK","A2QFZ2524HID2B","3I7KR83SNAZT1REYB2SRC49PCEEK9H","","null","<img src=""img/land2.png"" style=""width:200px; border:14px solid green;"">","null","","","","","","","","","",""
"","image-keyboard-response","301","100422","0.0-301.0","3DQQ64TANH77AYMG87CTBOZNC6IWPK","A2QFZ2524HID2B","3I7KR83SNAZT1REYB2SRC49PCEEK9H","","93.10000002384186","img/land2.png","76","94.79999995231628","3","1","1","2","0.8,0.2,0.2,0.2,0.8,0.2,0.2,0.2,0.8","0.8,0.2,0.2,0.2,0.8,0.2,0.2,0.2,0.8","1","",""
"","html-keyboard-response","302","100726","0.0-302.0","3DQQ64TANH77AYMG87CTBOZNC6IWPK","A2QFZ2524HID2B","3I7KR83SNAZT1REYB2SRC49PCEEK9H","","null","<img src=""img/land2.png"" style=""width:200px; border:14px solid green;"">","null","","","","","","","","","",""
"","image-keyboard-response","303","100751","0.0-303.0","3DQQ64TANH77AYMG87CTBOZNC6IWPK","A2QFZ2524HID2B","3I7KR83SNAZT1REYB2SRC49PCEEK9H","","23.100000023841858","img/land3.png","76","24.600000023841858","3","0","2","2","0.8,0.2,0.2,0.2,0.8,0.2,0.2,0.2,0.8","0.8,0.2,0.2,0.2,0.8,0.2,0.2,0.2,0.8","1","",""
"","html-keyboard-response","304","101054","0.0-304.0","3DQQ64TANH77AYMG87CTBOZNC6IWPK","A2QFZ2524HID2B","3I7KR83SNAZT1REYB2SRC49PCEEK9H","","null","<img src=""img/land3.png"" style=""width:200px;border:14px solid red;"">","null","","","","","","","","","",""
"","image-keyboard-response","305","101227","0.0-305.0","3DQQ64TANH77AYMG87CTBOZNC6IWPK","A2QFZ2524HID2B","3I7KR83SNAZT1REYB2SRC49PCEEK9H","","171.30000007152557","img/land3.png","76","173.09999990463257","3","0","2","2","0.8,0.2,0.2,0.2,0.8,0.2,0.2,0.2,0.8","0.8,0.2,0.2,0.2,0.8,0.2,0.2,0.2,0.8","1","",""
"","html-keyboard-response","306","101534","0.0-306.0","3DQQ64TANH77AYMG87CTBOZNC6IWPK","A2QFZ2524HID2B","3I7KR83SNAZT1REYB2SRC49PCEEK9H","","null","<img src=""img/land3.png"" style=""width:200px;border:14px solid red;"">","null","","","","","","","","","",""
"","image-keyboard-response","307","101561","0.0-307.0","3DQQ64TANH77AYMG87CTBOZNC6IWPK","A2QFZ2524HID2B","3I7KR83SNAZT1REYB2SRC49PCEEK9H","","23.699999928474426","img/land3.png","76","25.600000023841858","3","0","2","2","0.8,0.2,0.2,0.2,0.8,0.2,0.2,0.2,0.8","0.8,0.2,0.2,0.2,0.8,0.2,0.2,0.2,0.8","1","",""
"","html-keyboard-response","308","101870","0.0-308.0","3DQQ64TANH77AYMG87CTBOZNC6IWPK","A2QFZ2524HID2B","3I7KR83SNAZT1REYB2SRC49PCEEK9H","","null","<img src=""img/land3.png"" style=""width:200px;border:14px solid red;"">","null","","","","","","","","","",""
"","image-keyboard-response","309","102032","0.0-309.0","3DQQ64TANH77AYMG87CTBOZNC6IWPK","A2QFZ2524HID2B","3I7KR83SNAZT1REYB2SRC49PCEEK9H","","159.39999997615814","img/land2.png","76","161","3","0","1","2","0.8,0.2,0.2,0.2,0.8,0.2,0.2,0.2,0.8","0.8,0.2,0.2,0.2,0.8,0.2,0.2,0.2,0.8","1","",""
"","html-keyboard-response","310","102343","0.0-310.0","3DQQ64TANH77AYMG87CTBOZNC6IWPK","A2QFZ2524HID2B","3I7KR83SNAZT1REYB2SRC49PCEEK9H","","null","<img src=""img/land2.png"" style=""width:200px;border:14px solid red;"">","null","","","","","","","","","",""
"","image-keyboard-response","311","102752","0.0-311.0","3DQQ64TANH77AYMG87CTBOZNC6IWPK","A2QFZ2524HID2B","3I7KR83SNAZT1REYB2SRC49PCEEK9H","","407","img/land2.png","76","409","3","0","1","2","0.8,0.2,0.2,0.2,0.8,0.2,0.2,0.2,0.8","0.8,0.2,0.2,0.2,0.8,0.2,0.2,0.2,0.8","1","",""
"","html-keyboard-response","312","103063","0.0-312.0","3DQQ64TANH77AYMG87CTBOZNC6IWPK","A2QFZ2524HID2B","3I7KR83SNAZT1REYB2SRC49PCEEK9H","","null","<img src=""img/land2.png"" style=""width:200px;border:14px solid red;"">","null","","","","","","","","","",""
"","image-keyboard-response","313","103098","0.0-313.0","3DQQ64TANH77AYMG87CTBOZNC6IWPK","A2QFZ2524HID2B","3I7KR83SNAZT1REYB2SRC49PCEEK9H","","33.799999952316284","img/land1.png","75","35.39999997615814","2","0","3","2","0.8,0.2,0.2,0.2,0.8,0.2,0.2,0.2,0.8","0.8,0.2,0.2,0.2,0.8,0.2,0.2,0.2,0.8","1","",""
"","html-keyboard-response","314","103407","0.0-314.0","3DQQ64TANH77AYMG87CTBOZNC6IWPK","A2QFZ2524HID2B","3I7KR83SNAZT1REYB2SRC49PCEEK9H","","null","<img src=""img/land1.png"" style=""width:200px;border:14px solid red;"">","null","","","","","","","","","",""
"","image-keyboard-response","315","103687","0.0-315.0","3DQQ64TANH77AYMG87CTBOZNC6IWPK","A2QFZ2524HID2B","3I7KR83SNAZT1REYB2SRC49PCEEK9H","","278.7000000476837","img/land2.png","74","280.39999997615814","1","0","1","2","0.8,0.2,0.2,0.2,0.8,0.2,0.2,0.2,0.8","0.8,0.2,0.2,0.2,0.8,0.2,0.2,0.2,0.8","1","",""
"","html-keyboard-response","316","103990","0.0-316.0","3DQQ64TANH77AYMG87CTBOZNC6IWPK","A2QFZ2524HID2B","3I7KR83SNAZT1REYB2SRC49PCEEK9H","","null","<img src=""img/land2.png"" style=""width:200px;border:14px solid red;"">","null","","","","","","","","","",""
"","image-keyboard-response","317","104007","0.0-317.0","3DQQ64TANH77AYMG87CTBOZNC6IWPK","A2QFZ2524HID2B","3I7KR83SNAZT1REYB2SRC49PCEEK9H","","14.699999928474426","img/land2.png","74","16.300000071525574","1","1","1","2","0.8,0.2,0.2,0.2,0.8,0.2,0.2,0.2,0.8","0.8,0.2,0.2,0.2,0.8,0.2,0.2,0.2,0.8","1","",""
"","html-keyboard-response","318","104310","0.0-318.0","3DQQ64TANH77AYMG87CTBOZNC6IWPK","A2QFZ2524HID2B","3I7KR83SNAZT1REYB2SRC49PCEEK9H","","null","<img src=""img/land2.png"" style=""width:200px; border:14px solid green;"">","null","","","","","","","","","",""
"","image-keyboard-response","319","104387","0.0-319.0","3DQQ64TANH77AYMG87CTBOZNC6IWPK","A2QFZ2524HID2B","3I7KR83SNAZT1REYB2SRC49PCEEK9H","","74.60000002384186","img/land2.png","76","76.29999995231628","3","0","1","2","0.8,0.2,0.2,0.2,0.8,0.2,0.2,0.2,0.8","0.8,0.2,0.2,0.2,0.8,0.2,0.2,0.2,0.8","1","",""
"","html-keyboard-response","320","104695","0.0-320.0","3DQQ64TANH77AYMG87CTBOZNC6IWPK","A2QFZ2524HID2B","3I7KR83SNAZT1REYB2SRC49PCEEK9H","","null","<img src=""img/land2.png"" style=""width:200px;border:14px solid red;"">","null","","","","","","","","","",""
"","image-keyboard-response","321","104825","0.0-321.0","3DQQ64TANH77AYMG87CTBOZNC6IWPK","A2QFZ2524HID2B","3I7KR83SNAZT1REYB2SRC49PCEEK9H","","128.39999997615814","img/land2.png","75","130","2","0","1","2","0.8,0.2,0.2,0.2,0.8,0.2,0.2,0.2,0.8","0.8,0.2,0.2,0.2,0.8,0.2,0.2,0.2,0.8","1","",""
"","html-keyboard-response","322","105134","0.0-322.0","3DQQ64TANH77AYMG87CTBOZNC6IWPK","A2QFZ2524HID2B","3I7KR83SNAZT1REYB2SRC49PCEEK9H","","null","<img src=""img/land2.png"" style=""width:200px;border:14px solid red;"">","null","","","","","","","","","",""
"","image-keyboard-response","323","105568","0.0-323.0","3DQQ64TANH77AYMG87CTBOZNC6IWPK","A2QFZ2524HID2B","3I7KR83SNAZT1REYB2SRC49PCEEK9H","","432.2000000476837","img/land3.png","76","433.7999999523163","3","0","2","2","0.8,0.2,0.2,0.2,0.8,0.2,0.2,0.2,0.8","0.8,0.2,0.2,0.2,0.8,0.2,0.2,0.2,0.8","1","",""
"","html-keyboard-response","324","105879","0.0-324.0","3DQQ64TANH77AYMG87CTBOZNC6IWPK","A2QFZ2524HID2B","3I7KR83SNAZT1REYB2SRC49PCEEK9H","","null","<img src=""img/land3.png"" style=""width:200px;border:14px solid red;"">","null","","","","","","","","","",""
"","image-keyboard-response","325","105897","0.0-325.0","3DQQ64TANH77AYMG87CTBOZNC6IWPK","A2QFZ2524HID2B","3I7KR83SNAZT1REYB2SRC49PCEEK9H","","16.399999976158142","img/land3.png","74","18","1","0","2","2","0.8,0.2,0.2,0.2,0.8,0.2,0.2,0.2,0.8","0.8,0.2,0.2,0.2,0.8,0.2,0.2,0.2,0.8","1","",""
"","html-keyboard-response","326","106200","0.0-326.0","3DQQ64TANH77AYMG87CTBOZNC6IWPK","A2QFZ2524HID2B","3I7KR83SNAZT1REYB2SRC49PCEEK9H","","null","<img src=""img/land3.png"" style=""width:200px;border:14px solid red;"">","null","","","","","","","","","",""
"","image-keyboard-response","327","106291","0.0-327.0","3DQQ64TANH77AYMG87CTBOZNC6IWPK","A2QFZ2524HID2B","3I7KR83SNAZT1REYB2SRC49PCEEK9H","","89.20000004768372","img/land1.png","76","90.90000009536743","3","0","3","2","0.8,0.2,0.2,0.2,0.8,0.2,0.2,0.2,0.8","0.8,0.2,0.2,0.2,0.8,0.2,0.2,0.2,0.8","1","",""
"","html-keyboard-response","328","106599","0.0-328.0","3DQQ64TANH77AYMG87CTBOZNC6IWPK","A2QFZ2524HID2B","3I7KR83SNAZT1REYB2SRC49PCEEK9H","","null","<img src=""img/land1.png"" style=""width:200px;border:14px solid red;"">","null","","","","","","","","","",""
"","image-keyboard-response","329","106873","0.0-329.0","3DQQ64TANH77AYMG87CTBOZNC6IWPK","A2QFZ2524HID2B","3I7KR83SNAZT1REYB2SRC49PCEEK9H","","272.60000002384186","img/land3.png","76","274.09999990463257","3","0","2","2","0.8,0.2,0.2,0.2,0.8,0.2,0.2,0.2,0.8","0.8,0.2,0.2,0.2,0.8,0.2,0.2,0.2,0.8","1","",""
"","html-keyboard-response","330","107182","0.0-330.0","3DQQ64TANH77AYMG87CTBOZNC6IWPK","A2QFZ2524HID2B","3I7KR83SNAZT1REYB2SRC49PCEEK9H","","null","<img src=""img/land3.png"" style=""width:200px;border:14px solid red;"">","null","","","","","","","","","",""
"","image-keyboard-response","331","107544","0.0-331.0","3DQQ64TANH77AYMG87CTBOZNC6IWPK","A2QFZ2524HID2B","3I7KR83SNAZT1REYB2SRC49PCEEK9H","","360","img/land2.png","75","361.90000009536743","2","1","1","2","0.8,0.2,0.2,0.2,0.8,0.2,0.2,0.2,0.8","0.8,0.2,0.2,0.2,0.8,0.2,0.2,0.2,0.8","1","",""
"","html-keyboard-response","332","107854","0.0-332.0","3DQQ64TANH77AYMG87CTBOZNC6IWPK","A2QFZ2524HID2B","3I7KR83SNAZT1REYB2SRC49PCEEK9H","","null","<img src=""img/land2.png"" style=""width:200px; border:14px solid green;"">","null","","","","","","","","","",""
"","image-keyboard-response","333","107904","0.0-333.0","3DQQ64TANH77AYMG87CTBOZNC6IWPK","A2QFZ2524HID2B","3I7KR83SNAZT1REYB2SRC49PCEEK9H","","47.699999928474426","img/land2.png","75","49.299999952316284","2","1","1","2","0.8,0.2,0.2,0.2,0.8,0.2,0.2,0.2,0.8","0.8,0.2,0.2,0.2,0.8,0.2,0.2,0.2,0.8","1","",""
"","html-keyboard-response","334","108214","0.0-334.0","3DQQ64TANH77AYMG87CTBOZNC6IWPK","A2QFZ2524HID2B","3I7KR83SNAZT1REYB2SRC49PCEEK9H","","null","<img src=""img/land2.png"" style=""width:200px; border:14px solid green;"">","null","","","","","","","","","",""
"","image-keyboard-response","335","108329","0.0-335.0","3DQQ64TANH77AYMG87CTBOZNC6IWPK","A2QFZ2524HID2B","3I7KR83SNAZT1REYB2SRC49PCEEK9H","","112.60000002384186","img/land3.png","74","114.29999995231628","1","0","2","2","0.8,0.2,0.2,0.2,0.8,0.2,0.2,0.2,0.8","0.8,0.2,0.2,0.2,0.8,0.2,0.2,0.2,0.8","1","",""
"","html-keyboard-response","336","108639","0.0-336.0","3DQQ64TANH77AYMG87CTBOZNC6IWPK","A2QFZ2524HID2B","3I7KR83SNAZT1REYB2SRC49PCEEK9H","","null","<img src=""img/land3.png"" style=""width:200px;border:14px solid red;"">","null","","","","","","","","","",""
"","image-keyboard-response","337","108661","0.0-337.0","3DQQ64TANH77AYMG87CTBOZNC6IWPK","A2QFZ2524HID2B","3I7KR83SNAZT1REYB2SRC49PCEEK9H","","20.40000009536743","img/land1.png","76","22","3","1","3","2","0.8,0.2,0.2,0.2,0.8,0.2,0.2,0.2,0.8","0.8,0.2,0.2,0.2,0.8,0.2,0.2,0.2,0.8","1","",""
"","html-keyboard-response","338","108967","0.0-338.0","3DQQ64TANH77AYMG87CTBOZNC6IWPK","A2QFZ2524HID2B","3I7KR83SNAZT1REYB2SRC49PCEEK9H","","null","<img src=""img/land1.png"" style=""width:200px; border:14px solid green;"">","null","","","","","","","","","",""
"","image-keyboard-response","339","109011","0.0-339.0","3DQQ64TANH77AYMG87CTBOZNC6IWPK","A2QFZ2524HID2B","3I7KR83SNAZT1REYB2SRC49PCEEK9H","","41.89999997615814","img/land3.png","74","43.60000002384186","1","0","2","2","0.8,0.2,0.2,0.2,0.8,0.2,0.2,0.2,0.8","0.8,0.2,0.2,0.2,0.8,0.2,0.2,0.2,0.8","1","",""
"","html-keyboard-response","340","109318","0.0-340.0","3DQQ64TANH77AYMG87CTBOZNC6IWPK","A2QFZ2524HID2B","3I7KR83SNAZT1REYB2SRC49PCEEK9H","","null","<img src=""img/land3.png"" style=""width:200px;border:14px solid red;"">","null","","","","","","","","","",""
"","image-keyboard-response","341","109413","0.0-341.0","3DQQ64TANH77AYMG87CTBOZNC6IWPK","A2QFZ2524HID2B","3I7KR83SNAZT1REYB2SRC49PCEEK9H","","92.40000009536743","img/land2.png","76","94","3","0","1","2","0.8,0.2,0.2,0.2,0.8,0.2,0.2,0.2,0.8","0.8,0.2,0.2,0.2,0.8,0.2,0.2,0.2,0.8","1","",""
"","html-keyboard-response","342","109718","0.0-342.0","3DQQ64TANH77AYMG87CTBOZNC6IWPK","A2QFZ2524HID2B","3I7KR83SNAZT1REYB2SRC49PCEEK9H","","null","<img src=""img/land2.png"" style=""width:200px;border:14px solid red;"">","null","","","","","","","","","",""
"","image-keyboard-response","343","109745","0.0-343.0","3DQQ64TANH77AYMG87CTBOZNC6IWPK","A2QFZ2524HID2B","3I7KR83SNAZT1REYB2SRC49PCEEK9H","","24.600000023841858","img/land2.png","74","26.100000023841858","1","1","1","2","0.8,0.2,0.2,0.2,0.8,0.2,0.2,0.2,0.8","0.8,0.2,0.2,0.2,0.8,0.2,0.2,0.2,0.8","1","",""
"","html-keyboard-response","344","110052","0.0-344.0","3DQQ64TANH77AYMG87CTBOZNC6IWPK","A2QFZ2524HID2B","3I7KR83SNAZT1REYB2SRC49PCEEK9H","","null","<img src=""img/land2.png"" style=""width:200px; border:14px solid green;"">","null","","","","","","","","","",""
"","image-keyboard-response","345","110087","0.0-345.0","3DQQ64TANH77AYMG87CTBOZNC6IWPK","A2QFZ2524HID2B","3I7KR83SNAZT1REYB2SRC49PCEEK9H","","33.299999952316284","img/land1.png","74","34.89999997615814","1","1","3","2","0.8,0.2,0.2,0.2,0.8,0.2,0.2,0.2,0.8","0.8,0.2,0.2,0.2,0.8,0.2,0.2,0.2,0.8","1","",""
"","html-keyboard-response","346","110390","0.0-346.0","3DQQ64TANH77AYMG87CTBOZNC6IWPK","A2QFZ2524HID2B","3I7KR83SNAZT1REYB2SRC49PCEEK9H","","null","<img src=""img/land1.png"" style=""width:200px; border:14px solid green;"">","null","","","","","","","","","",""
"","image-keyboard-response","347","110396","0.0-347.0","3DQQ64TANH77AYMG87CTBOZNC6IWPK","A2QFZ2524HID2B","3I7KR83SNAZT1REYB2SRC49PCEEK9H","","4.300000071525574","img/land3.png","75","6.100000023841858","2","1","2","2","0.8,0.2,0.2,0.2,0.8,0.2,0.2,0.2,0.8","0.8,0.2,0.2,0.2,0.8,0.2,0.2,0.2,0.8","1","",""
"","html-keyboard-response","348","110703","0.0-348.0","3DQQ64TANH77AYMG87CTBOZNC6IWPK","A2QFZ2524HID2B","3I7KR83SNAZT1REYB2SRC49PCEEK9H","","null","<img src=""img/land3.png"" style=""width:200px; border:14px solid green;"">","null","","","","","","","","","",""
"","image-keyboard-response","349","110737","0.0-349.0","3DQQ64TANH77AYMG87CTBOZNC6IWPK","A2QFZ2524HID2B","3I7KR83SNAZT1REYB2SRC49PCEEK9H","","31.5","img/land2.png","74","33.09999990463257","1","1","1","2","0.8,0.2,0.2,0.2,0.8,0.2,0.2,0.2,0.8","0.8,0.2,0.2,0.2,0.8,0.2,0.2,0.2,0.8","1","",""
"","html-keyboard-response","350","111046","0.0-350.0","3DQQ64TANH77AYMG87CTBOZNC6IWPK","A2QFZ2524HID2B","3I7KR83SNAZT1REYB2SRC49PCEEK9H","","null","<img src=""img/land2.png"" style=""width:200px; border:14px solid green;"">","null","","","","","","","","","",""
"","image-keyboard-response","351","111319","0.0-351.0","3DQQ64TANH77AYMG87CTBOZNC6IWPK","A2QFZ2524HID2B","3I7KR83SNAZT1REYB2SRC49PCEEK9H","","270.7000000476837","img/land2.png","74","272.40000009536743","1","0","1","2","0.8,0.2,0.2,0.2,0.8,0.2,0.2,0.2,0.8","0.8,0.2,0.2,0.2,0.8,0.2,0.2,0.2,0.8","1","",""
"","html-keyboard-response","352","111623","0.0-352.0","3DQQ64TANH77AYMG87CTBOZNC6IWPK","A2QFZ2524HID2B","3I7KR83SNAZT1REYB2SRC49PCEEK9H","","null","<img src=""img/land2.png"" style=""width:200px;border:14px solid red;"">","null","","","","","","","","","",""
"","image-keyboard-response","353","111625","0.0-353.0","3DQQ64TANH77AYMG87CTBOZNC6IWPK","A2QFZ2524HID2B","3I7KR83SNAZT1REYB2SRC49PCEEK9H","","0.20000004768371582","img/land2.png","74","1.5","1","1","1","2","0.8,0.2,0.2,0.2,0.8,0.2,0.2,0.2,0.8","0.8,0.2,0.2,0.2,0.8,0.2,0.2,0.2,0.8","1","",""
"","html-keyboard-response","354","111934","0.0-354.0","3DQQ64TANH77AYMG87CTBOZNC6IWPK","A2QFZ2524HID2B","3I7KR83SNAZT1REYB2SRC49PCEEK9H","","null","<img src=""img/land2.png"" style=""width:200px; border:14px solid green;"">","null","","","","","","","","","",""
"","image-keyboard-response","355","111968","0.0-355.0","3DQQ64TANH77AYMG87CTBOZNC6IWPK","A2QFZ2524HID2B","3I7KR83SNAZT1REYB2SRC49PCEEK9H","","30.899999976158142","img/land2.png","76","32.5","3","1","1","2","0.8,0.2,0.2,0.2,0.8,0.2,0.2,0.2,0.8","0.8,0.2,0.2,0.2,0.8,0.2,0.2,0.2,0.8","1","",""
