"success","trial_type","trial_index","time_elapsed","internal_node_id","assignmentID","mturkID","hitID","view_history","rt","stimulus","key_press","reactionTime","a","r","s","cond","reward_cond","reward_cond_actual","reward_matrix_idx","responses","question_order"
"true","fullscreen","0","6758","0.0-0.0","31EUONYN2WPCA9AA3XUI0MBJVUCVOO","A2S6QOCFC3EAYH","382GHPVPHSDM8N0F9141EAH7F0K34Z","","","","","","","","","","","","","",""
"","instructions","1","170704","0.0-1.0","31EUONYN2WPCA9AA3XUI0MBJVUCVOO","A2S6QOCFC3EAYH","382GHPVPHSDM8N0F9141EAH7F0K34Z","[{""page_index"":0,""viewing_time"":5228},{""page_index"":1,""viewing_time"":3851},{""page_index"":2,""viewing_time"":5592},{""page_index"":3,""viewing_time"":13054},{""page_index"":4,""viewing_time"":6102},{""page_index"":5,""viewing_time"":6324},{""page_index"":4,""viewing_time"":2386},{""page_index"":3,""viewing_time"":107922},{""page_index"":4,""viewing_time"":3955},{""page_index"":5,""viewing_time"":3258},{""page_index"":6,""viewing_time"":6259}]","163935","","","","","","","","","","","",""
"","image-keyboard-response","2","171819","0.0-2.0","31EUONYN2WPCA9AA3XUI0MBJVUCVOO","A2S6QOCFC3EAYH","382GHPVPHSDM8N0F9141EAH7F0K34Z","","1104","img/land3.png","74","1112","1","0","1","2","0.8,0.2,0.2,0.2,0.8,0.2,0.2,0.2,0.8","0.2,0.2,0.8,0.8,0.2,0.2,0.2,0.8,0.2","2","",""
"","html-keyboard-response","3","172130","0.0-3.0","31EUONYN2WPCA9AA3XUI0MBJVUCVOO","A2S6QOCFC3EAYH","382GHPVPHSDM8N0F9141EAH7F0K34Z","","null","<img src=""img/land3.png"" style=""width:200px;border:14px solid red;"">","null","","","","","","","","","",""
"","image-keyboard-response","4","173262","0.0-4.0","31EUONYN2WPCA9AA3XUI0MBJVUCVOO","A2S6QOCFC3EAYH","382GHPVPHSDM8N0F9141EAH7F0K34Z","","1125","img/land3.png","75","1130","2","0","1","2","0.8,0.2,0.2,0.2,0.8,0.2,0.2,0.2,0.8","0.2,0.2,0.8,0.8,0.2,0.2,0.2,0.8,0.2","2","",""
"","html-keyboard-response","5","173571","0.0-5.0","31EUONYN2WPCA9AA3XUI0MBJVUCVOO","A2S6QOCFC3EAYH","382GHPVPHSDM8N0F9141EAH7F0K34Z","","null","<img src=""img/land3.png"" style=""width:200px;border:14px solid red;"">","null","","","","","","","","","",""
"","image-keyboard-response","6","175288","0.0-6.0","31EUONYN2WPCA9AA3XUI0MBJVUCVOO","A2S6QOCFC3EAYH","382GHPVPHSDM8N0F9141EAH7F0K34Z","","1712","img/land3.png","76","1717","3","1","1","2","0.8,0.2,0.2,0.2,0.8,0.2,0.2,0.2,0.8","0.2,0.2,0.8,0.8,0.2,0.2,0.2,0.8,0.2","2","",""
"","html-keyboard-response","7","175594","0.0-7.0","31EUONYN2WPCA9AA3XUI0MBJVUCVOO","A2S6QOCFC3EAYH","382GHPVPHSDM8N0F9141EAH7F0K34Z","","null","<img src=""img/land3.png"" style=""width:200px; border:14px solid green;"">","null","","","","","","","","","",""
"","image-keyboard-response","8","176656","0.0-8.0","31EUONYN2WPCA9AA3XUI0MBJVUCVOO","A2S6QOCFC3EAYH","382GHPVPHSDM8N0F9141EAH7F0K34Z","","1056","img/land1.png","74","1060","1","1","2","2","0.8,0.2,0.2,0.2,0.8,0.2,0.2,0.2,0.8","0.2,0.2,0.8,0.8,0.2,0.2,0.2,0.8,0.2","2","",""
"","html-keyboard-response","9","176962","0.0-9.0","31EUONYN2WPCA9AA3XUI0MBJVUCVOO","A2S6QOCFC3EAYH","382GHPVPHSDM8N0F9141EAH7F0K34Z","","null","<img src=""img/land1.png"" style=""width:200px; border:14px solid green;"">","null","","","","","","","","","",""
"","image-keyboard-response","10","178024","0.0-10.0","31EUONYN2WPCA9AA3XUI0MBJVUCVOO","A2S6QOCFC3EAYH","382GHPVPHSDM8N0F9141EAH7F0K34Z","","1055","img/land3.png","76","1060","3","0","1","2","0.8,0.2,0.2,0.2,0.8,0.2,0.2,0.2,0.8","0.2,0.2,0.8,0.8,0.2,0.2,0.2,0.8,0.2","2","",""
"","html-keyboard-response","11","178331","0.0-11.0","31EUONYN2WPCA9AA3XUI0MBJVUCVOO","A2S6QOCFC3EAYH","382GHPVPHSDM8N0F9141EAH7F0K34Z","","null","<img src=""img/land3.png"" style=""width:200px;border:14px solid red;"">","null","","","","","","","","","",""
"","image-keyboard-response","12","179621","0.0-12.0","31EUONYN2WPCA9AA3XUI0MBJVUCVOO","A2S6QOCFC3EAYH","382GHPVPHSDM8N0F9141EAH7F0K34Z","","1282","img/land5.png","75","1287","2","1","3","2","0.8,0.2,0.2,0.2,0.8,0.2,0.2,0.2,0.8","0.2,0.2,0.8,0.8,0.2,0.2,0.2,0.8,0.2","2","",""
"","html-keyboard-response","13","179929","0.0-13.0","31EUONYN2WPCA9AA3XUI0MBJVUCVOO","A2S6QOCFC3EAYH","382GHPVPHSDM8N0F9141EAH7F0K34Z","","null","<img src=""img/land5.png"" style=""width:200px; border:14px solid green;"">","null","","","","","","","","","",""
"","image-keyboard-response","14","181091","0.0-14.0","31EUONYN2WPCA9AA3XUI0MBJVUCVOO","A2S6QOCFC3EAYH","382GHPVPHSDM8N0F9141EAH7F0K34Z","","1153","img/land1.png","74","1157","1","1","2","2","0.8,0.2,0.2,0.2,0.8,0.2,0.2,0.2,0.8","0.2,0.2,0.8,0.8,0.2,0.2,0.2,0.8,0.2","2","",""
"","html-keyboard-response","15","181397","0.0-15.0","31EUONYN2WPCA9AA3XUI0MBJVUCVOO","A2S6QOCFC3EAYH","382GHPVPHSDM8N0F9141EAH7F0K34Z","","null","<img src=""img/land1.png"" style=""width:200px; border:14px solid green;"">","null","","","","","","","","","",""
"","image-keyboard-response","16","182526","0.0-16.0","31EUONYN2WPCA9AA3XUI0MBJVUCVOO","A2S6QOCFC3EAYH","382GHPVPHSDM8N0F9141EAH7F0K34Z","","1122","img/land1.png","74","1126","1","1","2","2","0.8,0.2,0.2,0.2,0.8,0.2,0.2,0.2,0.8","0.2,0.2,0.8,0.8,0.2,0.2,0.2,0.8,0.2","2","",""
"","html-keyboard-response","17","182834","0.0-17.0","31EUONYN2WPCA9AA3XUI0MBJVUCVOO","A2S6QOCFC3EAYH","382GHPVPHSDM8N0F9141EAH7F0K34Z","","null","<img src=""img/land1.png"" style=""width:200px; border:14px solid green;"">","null","","","","","","","","","",""
"","image-keyboard-response","18","183870","0.0-18.0","31EUONYN2WPCA9AA3XUI0MBJVUCVOO","A2S6QOCFC3EAYH","382GHPVPHSDM8N0F9141EAH7F0K34Z","","1030","img/land3.png","76","1034","3","0","1","2","0.8,0.2,0.2,0.2,0.8,0.2,0.2,0.2,0.8","0.2,0.2,0.8,0.8,0.2,0.2,0.2,0.8,0.2","2","",""
"","html-keyboard-response","19","184180","0.0-19.0","31EUONYN2WPCA9AA3XUI0MBJVUCVOO","A2S6QOCFC3EAYH","382GHPVPHSDM8N0F9141EAH7F0K34Z","","null","<img src=""img/land3.png"" style=""width:200px;border:14px solid red;"">","null","","","","","","","","","",""
"","image-keyboard-response","20","184814","0.0-20.0","31EUONYN2WPCA9AA3XUI0MBJVUCVOO","A2S6QOCFC3EAYH","382GHPVPHSDM8N0F9141EAH7F0K34Z","","627","img/land3.png","74","632","1","0","1","2","0.8,0.2,0.2,0.2,0.8,0.2,0.2,0.2,0.8","0.2,0.2,0.8,0.8,0.2,0.2,0.2,0.8,0.2","2","",""
"","html-keyboard-response","21","185122","0.0-21.0","31EUONYN2WPCA9AA3XUI0MBJVUCVOO","A2S6QOCFC3EAYH","382GHPVPHSDM8N0F9141EAH7F0K34Z","","null","<img src=""img/land3.png"" style=""width:200px;border:14px solid red;"">","null","","","","","","","","","",""
"","image-keyboard-response","22","185839","0.0-22.0","31EUONYN2WPCA9AA3XUI0MBJVUCVOO","A2S6QOCFC3EAYH","382GHPVPHSDM8N0F9141EAH7F0K34Z","","711","img/land1.png","75","715","2","0","2","2","0.8,0.2,0.2,0.2,0.8,0.2,0.2,0.2,0.8","0.2,0.2,0.8,0.8,0.2,0.2,0.2,0.8,0.2","2","",""
"","html-keyboard-response","23","186146","0.0-23.0","31EUONYN2WPCA9AA3XUI0MBJVUCVOO","A2S6QOCFC3EAYH","382GHPVPHSDM8N0F9141EAH7F0K34Z","","null","<img src=""img/land1.png"" style=""width:200px;border:14px solid red;"">","null","","","","","","","","","",""
"","image-keyboard-response","24","186871","0.0-24.0","31EUONYN2WPCA9AA3XUI0MBJVUCVOO","A2S6QOCFC3EAYH","382GHPVPHSDM8N0F9141EAH7F0K34Z","","716","img/land3.png","74","722","1","1","1","2","0.8,0.2,0.2,0.2,0.8,0.2,0.2,0.2,0.8","0.2,0.2,0.8,0.8,0.2,0.2,0.2,0.8,0.2","2","",""
"","html-keyboard-response","25","187177","0.0-25.0","31EUONYN2WPCA9AA3XUI0MBJVUCVOO","A2S6QOCFC3EAYH","382GHPVPHSDM8N0F9141EAH7F0K34Z","","null","<img src=""img/land3.png"" style=""width:200px; border:14px solid green;"">","null","","","","","","","","","",""
"","image-keyboard-response","26","188024","0.0-26.0","31EUONYN2WPCA9AA3XUI0MBJVUCVOO","A2S6QOCFC3EAYH","382GHPVPHSDM8N0F9141EAH7F0K34Z","","840","img/land5.png","74","845","1","0","3","2","0.8,0.2,0.2,0.2,0.8,0.2,0.2,0.2,0.8","0.2,0.2,0.8,0.8,0.2,0.2,0.2,0.8,0.2","2","",""
"","html-keyboard-response","27","188330","0.0-27.0","31EUONYN2WPCA9AA3XUI0MBJVUCVOO","A2S6QOCFC3EAYH","382GHPVPHSDM8N0F9141EAH7F0K34Z","","null","<img src=""img/land5.png"" style=""width:200px;border:14px solid red;"">","null","","","","","","","","","",""
"","image-keyboard-response","28","189394","0.0-28.0","31EUONYN2WPCA9AA3XUI0MBJVUCVOO","A2S6QOCFC3EAYH","382GHPVPHSDM8N0F9141EAH7F0K34Z","","1059","img/land1.png","74","1062","1","0","2","2","0.8,0.2,0.2,0.2,0.8,0.2,0.2,0.2,0.8","0.2,0.2,0.8,0.8,0.2,0.2,0.2,0.8,0.2","2","",""
"","html-keyboard-response","29","189701","0.0-29.0","31EUONYN2WPCA9AA3XUI0MBJVUCVOO","A2S6QOCFC3EAYH","382GHPVPHSDM8N0F9141EAH7F0K34Z","","null","<img src=""img/land1.png"" style=""width:200px;border:14px solid red;"">","null","","","","","","","","","",""
"","image-keyboard-response","30","191210","0.0-30.0","31EUONYN2WPCA9AA3XUI0MBJVUCVOO","A2S6QOCFC3EAYH","382GHPVPHSDM8N0F9141EAH7F0K34Z","","1503","img/land5.png","75","1508","2","1","3","2","0.8,0.2,0.2,0.2,0.8,0.2,0.2,0.2,0.8","0.2,0.2,0.8,0.8,0.2,0.2,0.2,0.8,0.2","2","",""
"","html-keyboard-response","31","191516","0.0-31.0","31EUONYN2WPCA9AA3XUI0MBJVUCVOO","A2S6QOCFC3EAYH","382GHPVPHSDM8N0F9141EAH7F0K34Z","","null","<img src=""img/land5.png"" style=""width:200px; border:14px solid green;"">","null","","","","","","","","","",""
"","image-keyboard-response","32","192574","0.0-32.0","31EUONYN2WPCA9AA3XUI0MBJVUCVOO","A2S6QOCFC3EAYH","382GHPVPHSDM8N0F9141EAH7F0K34Z","","1052","img/land3.png","76","1056","3","1","1","2","0.8,0.2,0.2,0.2,0.8,0.2,0.2,0.2,0.8","0.2,0.2,0.8,0.8,0.2,0.2,0.2,0.8,0.2","2","",""
"","html-keyboard-response","33","192880","0.0-33.0","31EUONYN2WPCA9AA3XUI0MBJVUCVOO","A2S6QOCFC3EAYH","382GHPVPHSDM8N0F9141EAH7F0K34Z","","null","<img src=""img/land3.png"" style=""width:200px; border:14px solid green;"">","null","","","","","","","","","",""
"","image-keyboard-response","34","193849","0.0-34.0","31EUONYN2WPCA9AA3XUI0MBJVUCVOO","A2S6QOCFC3EAYH","382GHPVPHSDM8N0F9141EAH7F0K34Z","","963","img/land3.png","76","966","3","1","1","2","0.8,0.2,0.2,0.2,0.8,0.2,0.2,0.2,0.8","0.2,0.2,0.8,0.8,0.2,0.2,0.2,0.8,0.2","2","",""
"","html-keyboard-response","35","194156","0.0-35.0","31EUONYN2WPCA9AA3XUI0MBJVUCVOO","A2S6QOCFC3EAYH","382GHPVPHSDM8N0F9141EAH7F0K34Z","","null","<img src=""img/land3.png"" style=""width:200px; border:14px solid green;"">","null","","","","","","","","","",""
"","image-keyboard-response","36","194878","0.0-36.0","31EUONYN2WPCA9AA3XUI0MBJVUCVOO","A2S6QOCFC3EAYH","382GHPVPHSDM8N0F9141EAH7F0K34Z","","716","img/land3.png","76","719","3","1","1","2","0.8,0.2,0.2,0.2,0.8,0.2,0.2,0.2,0.8","0.2,0.2,0.8,0.8,0.2,0.2,0.2,0.8,0.2","2","",""
"","html-keyboard-response","37","195184","0.0-37.0","31EUONYN2WPCA9AA3XUI0MBJVUCVOO","A2S6QOCFC3EAYH","382GHPVPHSDM8N0F9141EAH7F0K34Z","","null","<img src=""img/land3.png"" style=""width:200px; border:14px solid green;"">","null","","","","","","","","","",""
"","image-keyboard-response","38","195903","0.0-38.0","31EUONYN2WPCA9AA3XUI0MBJVUCVOO","A2S6QOCFC3EAYH","382GHPVPHSDM8N0F9141EAH7F0K34Z","","712","img/land1.png","74","717","1","1","2","2","0.8,0.2,0.2,0.2,0.8,0.2,0.2,0.2,0.8","0.2,0.2,0.8,0.8,0.2,0.2,0.2,0.8,0.2","2","",""
"","html-keyboard-response","39","196210","0.0-39.0","31EUONYN2WPCA9AA3XUI0MBJVUCVOO","A2S6QOCFC3EAYH","382GHPVPHSDM8N0F9141EAH7F0K34Z","","null","<img src=""img/land1.png"" style=""width:200px; border:14px solid green;"">","null","","","","","","","","","",""
"","image-keyboard-response","40","197099","0.0-40.0","31EUONYN2WPCA9AA3XUI0MBJVUCVOO","A2S6QOCFC3EAYH","382GHPVPHSDM8N0F9141EAH7F0K34Z","","883","img/land3.png","76","887","3","1","1","2","0.8,0.2,0.2,0.2,0.8,0.2,0.2,0.2,0.8","0.2,0.2,0.8,0.8,0.2,0.2,0.2,0.8,0.2","2","",""
"","html-keyboard-response","41","197407","0.0-41.0","31EUONYN2WPCA9AA3XUI0MBJVUCVOO","A2S6QOCFC3EAYH","382GHPVPHSDM8N0F9141EAH7F0K34Z","","null","<img src=""img/land3.png"" style=""width:200px; border:14px solid green;"">","null","","","","","","","","","",""
"","image-keyboard-response","42","198272","0.0-42.0","31EUONYN2WPCA9AA3XUI0MBJVUCVOO","A2S6QOCFC3EAYH","382GHPVPHSDM8N0F9141EAH7F0K34Z","","860","img/land3.png","76","863","3","1","1","2","0.8,0.2,0.2,0.2,0.8,0.2,0.2,0.2,0.8","0.2,0.2,0.8,0.8,0.2,0.2,0.2,0.8,0.2","2","",""
"","html-keyboard-response","43","198580","0.0-43.0","31EUONYN2WPCA9AA3XUI0MBJVUCVOO","A2S6QOCFC3EAYH","382GHPVPHSDM8N0F9141EAH7F0K34Z","","null","<img src=""img/land3.png"" style=""width:200px; border:14px solid green;"">","null","","","","","","","","","",""
"","image-keyboard-response","44","199579","0.0-44.0","31EUONYN2WPCA9AA3XUI0MBJVUCVOO","A2S6QOCFC3EAYH","382GHPVPHSDM8N0F9141EAH7F0K34Z","","993","img/land5.png","75","998","2","1","3","2","0.8,0.2,0.2,0.2,0.8,0.2,0.2,0.2,0.8","0.2,0.2,0.8,0.8,0.2,0.2,0.2,0.8,0.2","2","",""
"","html-keyboard-response","45","199889","0.0-45.0","31EUONYN2WPCA9AA3XUI0MBJVUCVOO","A2S6QOCFC3EAYH","382GHPVPHSDM8N0F9141EAH7F0K34Z","","null","<img src=""img/land5.png"" style=""width:200px; border:14px solid green;"">","null","","","","","","","","","",""
"","image-keyboard-response","46","200710","0.0-46.0","31EUONYN2WPCA9AA3XUI0MBJVUCVOO","A2S6QOCFC3EAYH","382GHPVPHSDM8N0F9141EAH7F0K34Z","","815","img/land3.png","74","820","1","0","1","2","0.8,0.2,0.2,0.2,0.8,0.2,0.2,0.2,0.8","0.2,0.2,0.8,0.8,0.2,0.2,0.2,0.8,0.2","2","",""
"","html-keyboard-response","47","201017","0.0-47.0","31EUONYN2WPCA9AA3XUI0MBJVUCVOO","A2S6QOCFC3EAYH","382GHPVPHSDM8N0F9141EAH7F0K34Z","","null","<img src=""img/land3.png"" style=""width:200px;border:14px solid red;"">","null","","","","","","","","","",""
"","image-keyboard-response","48","202060","0.0-48.0","31EUONYN2WPCA9AA3XUI0MBJVUCVOO","A2S6QOCFC3EAYH","382GHPVPHSDM8N0F9141EAH7F0K34Z","","1027","img/land1.png","74","1040","1","0","2","2","0.8,0.2,0.2,0.2,0.8,0.2,0.2,0.2,0.8","0.2,0.2,0.8,0.8,0.2,0.2,0.2,0.8,0.2","2","",""
"","html-keyboard-response","49","202367","0.0-49.0","31EUONYN2WPCA9AA3XUI0MBJVUCVOO","A2S6QOCFC3EAYH","382GHPVPHSDM8N0F9141EAH7F0K34Z","","null","<img src=""img/land1.png"" style=""width:200px;border:14px solid red;"">","null","","","","","","","","","",""
"","image-keyboard-response","50","203301","0.0-50.0","31EUONYN2WPCA9AA3XUI0MBJVUCVOO","A2S6QOCFC3EAYH","382GHPVPHSDM8N0F9141EAH7F0K34Z","","927","img/land3.png","76","931","3","1","1","2","0.8,0.2,0.2,0.2,0.8,0.2,0.2,0.2,0.8","0.2,0.2,0.8,0.8,0.2,0.2,0.2,0.8,0.2","2","",""
"","html-keyboard-response","51","203610","0.0-51.0","31EUONYN2WPCA9AA3XUI0MBJVUCVOO","A2S6QOCFC3EAYH","382GHPVPHSDM8N0F9141EAH7F0K34Z","","null","<img src=""img/land3.png"" style=""width:200px; border:14px solid green;"">","null","","","","","","","","","",""
"","image-keyboard-response","52","204408","0.0-52.0","31EUONYN2WPCA9AA3XUI0MBJVUCVOO","A2S6QOCFC3EAYH","382GHPVPHSDM8N0F9141EAH7F0K34Z","","792","img/land1.png","74","796","1","1","2","2","0.8,0.2,0.2,0.2,0.8,0.2,0.2,0.2,0.8","0.2,0.2,0.8,0.8,0.2,0.2,0.2,0.8,0.2","2","",""
"","html-keyboard-response","53","204716","0.0-53.0","31EUONYN2WPCA9AA3XUI0MBJVUCVOO","A2S6QOCFC3EAYH","382GHPVPHSDM8N0F9141EAH7F0K34Z","","null","<img src=""img/land1.png"" style=""width:200px; border:14px solid green;"">","null","","","","","","","","","",""
"","image-keyboard-response","54","205559","0.0-54.0","31EUONYN2WPCA9AA3XUI0MBJVUCVOO","A2S6QOCFC3EAYH","382GHPVPHSDM8N0F9141EAH7F0K34Z","","837","img/land3.png","76","841","3","1","1","2","0.8,0.2,0.2,0.2,0.8,0.2,0.2,0.2,0.8","0.2,0.2,0.8,0.8,0.2,0.2,0.2,0.8,0.2","2","",""
"","html-keyboard-response","55","205866","0.0-55.0","31EUONYN2WPCA9AA3XUI0MBJVUCVOO","A2S6QOCFC3EAYH","382GHPVPHSDM8N0F9141EAH7F0K34Z","","null","<img src=""img/land3.png"" style=""width:200px; border:14px solid green;"">","null","","","","","","","","","",""
"","image-keyboard-response","56","206718","0.0-56.0","31EUONYN2WPCA9AA3XUI0MBJVUCVOO","A2S6QOCFC3EAYH","382GHPVPHSDM8N0F9141EAH7F0K34Z","","845","img/land3.png","76","850","3","1","1","2","0.8,0.2,0.2,0.2,0.8,0.2,0.2,0.2,0.8","0.2,0.2,0.8,0.8,0.2,0.2,0.2,0.8,0.2","2","",""
"","html-keyboard-response","57","207028","0.0-57.0","31EUONYN2WPCA9AA3XUI0MBJVUCVOO","A2S6QOCFC3EAYH","382GHPVPHSDM8N0F9141EAH7F0K34Z","","null","<img src=""img/land3.png"" style=""width:200px; border:14px solid green;"">","null","","","","","","","","","",""
"","image-keyboard-response","58","207895","0.0-58.0","31EUONYN2WPCA9AA3XUI0MBJVUCVOO","A2S6QOCFC3EAYH","382GHPVPHSDM8N0F9141EAH7F0K34Z","","861","img/land1.png","74","865","1","1","2","2","0.8,0.2,0.2,0.2,0.8,0.2,0.2,0.2,0.8","0.2,0.2,0.8,0.8,0.2,0.2,0.2,0.8,0.2","2","",""
"","html-keyboard-response","59","208203","0.0-59.0","31EUONYN2WPCA9AA3XUI0MBJVUCVOO","A2S6QOCFC3EAYH","382GHPVPHSDM8N0F9141EAH7F0K34Z","","null","<img src=""img/land1.png"" style=""width:200px; border:14px solid green;"">","null","","","","","","","","","",""
"","image-keyboard-response","60","208961","0.0-60.0","31EUONYN2WPCA9AA3XUI0MBJVUCVOO","A2S6QOCFC3EAYH","382GHPVPHSDM8N0F9141EAH7F0K34Z","","752","img/land3.png","76","757","3","0","1","2","0.8,0.2,0.2,0.2,0.8,0.2,0.2,0.2,0.8","0.2,0.2,0.8,0.8,0.2,0.2,0.2,0.8,0.2","2","",""
"","html-keyboard-response","61","209267","0.0-61.0","31EUONYN2WPCA9AA3XUI0MBJVUCVOO","A2S6QOCFC3EAYH","382GHPVPHSDM8N0F9141EAH7F0K34Z","","null","<img src=""img/land3.png"" style=""width:200px;border:14px solid red;"">","null","","","","","","","","","",""
"","image-keyboard-response","62","210422","0.0-62.0","31EUONYN2WPCA9AA3XUI0MBJVUCVOO","A2S6QOCFC3EAYH","382GHPVPHSDM8N0F9141EAH7F0K34Z","","1149","img/land3.png","76","1152","3","0","1","2","0.8,0.2,0.2,0.2,0.8,0.2,0.2,0.2,0.8","0.2,0.2,0.8,0.8,0.2,0.2,0.2,0.8,0.2","2","",""
"","html-keyboard-response","63","210728","0.0-63.0","31EUONYN2WPCA9AA3XUI0MBJVUCVOO","A2S6QOCFC3EAYH","382GHPVPHSDM8N0F9141EAH7F0K34Z","","null","<img src=""img/land3.png"" style=""width:200px;border:14px solid red;"">","null","","","","","","","","","",""
"","image-keyboard-response","64","211888","0.0-64.0","31EUONYN2WPCA9AA3XUI0MBJVUCVOO","A2S6QOCFC3EAYH","382GHPVPHSDM8N0F9141EAH7F0K34Z","","1155","img/land5.png","75","1158","2","1","3","2","0.8,0.2,0.2,0.2,0.8,0.2,0.2,0.2,0.8","0.2,0.2,0.8,0.8,0.2,0.2,0.2,0.8,0.2","2","",""
"","html-keyboard-response","65","212196","0.0-65.0","31EUONYN2WPCA9AA3XUI0MBJVUCVOO","A2S6QOCFC3EAYH","382GHPVPHSDM8N0F9141EAH7F0K34Z","","null","<img src=""img/land5.png"" style=""width:200px; border:14px solid green;"">","null","","","","","","","","","",""
"","image-keyboard-response","66","213273","0.0-66.0","31EUONYN2WPCA9AA3XUI0MBJVUCVOO","A2S6QOCFC3EAYH","382GHPVPHSDM8N0F9141EAH7F0K34Z","","1071","img/land3.png","74","1075","1","1","1","2","0.8,0.2,0.2,0.2,0.8,0.2,0.2,0.2,0.8","0.2,0.2,0.8,0.8,0.2,0.2,0.2,0.8,0.2","2","",""
"","html-keyboard-response","67","213580","0.0-67.0","31EUONYN2WPCA9AA3XUI0MBJVUCVOO","A2S6QOCFC3EAYH","382GHPVPHSDM8N0F9141EAH7F0K34Z","","null","<img src=""img/land3.png"" style=""width:200px; border:14px solid green;"">","null","","","","","","","","","",""
"","image-keyboard-response","68","214634","0.0-68.0","31EUONYN2WPCA9AA3XUI0MBJVUCVOO","A2S6QOCFC3EAYH","382GHPVPHSDM8N0F9141EAH7F0K34Z","","1048","img/land3.png","74","1051","1","1","1","2","0.8,0.2,0.2,0.2,0.8,0.2,0.2,0.2,0.8","0.2,0.2,0.8,0.8,0.2,0.2,0.2,0.8,0.2","2","",""
"","html-keyboard-response","69","214939","0.0-69.0","31EUONYN2WPCA9AA3XUI0MBJVUCVOO","A2S6QOCFC3EAYH","382GHPVPHSDM8N0F9141EAH7F0K34Z","","null","<img src=""img/land3.png"" style=""width:200px; border:14px solid green;"">","null","","","","","","","","","",""
"","image-keyboard-response","70","215878","0.0-70.0","31EUONYN2WPCA9AA3XUI0MBJVUCVOO","A2S6QOCFC3EAYH","382GHPVPHSDM8N0F9141EAH7F0K34Z","","934","img/land5.png","75","938","2","1","3","2","0.8,0.2,0.2,0.2,0.8,0.2,0.2,0.2,0.8","0.2,0.2,0.8,0.8,0.2,0.2,0.2,0.8,0.2","2","",""
"","html-keyboard-response","71","216184","0.0-71.0","31EUONYN2WPCA9AA3XUI0MBJVUCVOO","A2S6QOCFC3EAYH","382GHPVPHSDM8N0F9141EAH7F0K34Z","","null","<img src=""img/land5.png"" style=""width:200px; border:14px solid green;"">","null","","","","","","","","","",""
"","image-keyboard-response","72","217245","0.0-72.0","31EUONYN2WPCA9AA3XUI0MBJVUCVOO","A2S6QOCFC3EAYH","382GHPVPHSDM8N0F9141EAH7F0K34Z","","1054","img/land1.png","74","1057","1","1","2","2","0.8,0.2,0.2,0.2,0.8,0.2,0.2,0.2,0.8","0.2,0.2,0.8,0.8,0.2,0.2,0.2,0.8,0.2","2","",""
"","html-keyboard-response","73","217552","0.0-73.0","31EUONYN2WPCA9AA3XUI0MBJVUCVOO","A2S6QOCFC3EAYH","382GHPVPHSDM8N0F9141EAH7F0K34Z","","null","<img src=""img/land1.png"" style=""width:200px; border:14px solid green;"">","null","","","","","","","","","",""
"","image-keyboard-response","74","218639","0.0-74.0","31EUONYN2WPCA9AA3XUI0MBJVUCVOO","A2S6QOCFC3EAYH","382GHPVPHSDM8N0F9141EAH7F0K34Z","","1081","img/land3.png","74","1085","1","0","1","2","0.8,0.2,0.2,0.2,0.8,0.2,0.2,0.2,0.8","0.2,0.2,0.8,0.8,0.2,0.2,0.2,0.8,0.2","2","",""
"","html-keyboard-response","75","218945","0.0-75.0","31EUONYN2WPCA9AA3XUI0MBJVUCVOO","A2S6QOCFC3EAYH","382GHPVPHSDM8N0F9141EAH7F0K34Z","","null","<img src=""img/land3.png"" style=""width:200px;border:14px solid red;"">","null","","","","","","","","","",""
"","image-keyboard-response","76","220091","0.0-76.0","31EUONYN2WPCA9AA3XUI0MBJVUCVOO","A2S6QOCFC3EAYH","382GHPVPHSDM8N0F9141EAH7F0K34Z","","1140","img/land1.png","74","1144","1","1","2","2","0.8,0.2,0.2,0.2,0.8,0.2,0.2,0.2,0.8","0.2,0.2,0.8,0.8,0.2,0.2,0.2,0.8,0.2","2","",""
"","html-keyboard-response","77","220397","0.0-77.0","31EUONYN2WPCA9AA3XUI0MBJVUCVOO","A2S6QOCFC3EAYH","382GHPVPHSDM8N0F9141EAH7F0K34Z","","null","<img src=""img/land1.png"" style=""width:200px; border:14px solid green;"">","null","","","","","","","","","",""
"","image-keyboard-response","78","221634","0.0-78.0","31EUONYN2WPCA9AA3XUI0MBJVUCVOO","A2S6QOCFC3EAYH","382GHPVPHSDM8N0F9141EAH7F0K34Z","","1232","img/land3.png","76","1236","3","1","1","2","0.8,0.2,0.2,0.2,0.8,0.2,0.2,0.2,0.8","0.2,0.2,0.8,0.8,0.2,0.2,0.2,0.8,0.2","2","",""
"","html-keyboard-response","79","221943","0.0-79.0","31EUONYN2WPCA9AA3XUI0MBJVUCVOO","A2S6QOCFC3EAYH","382GHPVPHSDM8N0F9141EAH7F0K34Z","","null","<img src=""img/land3.png"" style=""width:200px; border:14px solid green;"">","null","","","","","","","","","",""
"","image-keyboard-response","80","222922","0.0-80.0","31EUONYN2WPCA9AA3XUI0MBJVUCVOO","A2S6QOCFC3EAYH","382GHPVPHSDM8N0F9141EAH7F0K34Z","","973","img/land5.png","75","977","2","1","3","2","0.8,0.2,0.2,0.2,0.8,0.2,0.2,0.2,0.8","0.2,0.2,0.8,0.8,0.2,0.2,0.2,0.8,0.2","2","",""
"","html-keyboard-response","81","223228","0.0-81.0","31EUONYN2WPCA9AA3XUI0MBJVUCVOO","A2S6QOCFC3EAYH","382GHPVPHSDM8N0F9141EAH7F0K34Z","","null","<img src=""img/land5.png"" style=""width:200px; border:14px solid green;"">","null","","","","","","","","","",""
"","image-keyboard-response","82","224074","0.0-82.0","31EUONYN2WPCA9AA3XUI0MBJVUCVOO","A2S6QOCFC3EAYH","382GHPVPHSDM8N0F9141EAH7F0K34Z","","841","img/land5.png","75","845","2","1","3","2","0.8,0.2,0.2,0.2,0.8,0.2,0.2,0.2,0.8","0.2,0.2,0.8,0.8,0.2,0.2,0.2,0.8,0.2","2","",""
"","html-keyboard-response","83","224381","0.0-83.0","31EUONYN2WPCA9AA3XUI0MBJVUCVOO","A2S6QOCFC3EAYH","382GHPVPHSDM8N0F9141EAH7F0K34Z","","null","<img src=""img/land5.png"" style=""width:200px; border:14px solid green;"">","null","","","","","","","","","",""
"","image-keyboard-response","84","225126","0.0-84.0","31EUONYN2WPCA9AA3XUI0MBJVUCVOO","A2S6QOCFC3EAYH","382GHPVPHSDM8N0F9141EAH7F0K34Z","","739","img/land3.png","76","742","3","1","1","2","0.8,0.2,0.2,0.2,0.8,0.2,0.2,0.2,0.8","0.2,0.2,0.8,0.8,0.2,0.2,0.2,0.8,0.2","2","",""
"","html-keyboard-response","85","225432","0.0-85.0","31EUONYN2WPCA9AA3XUI0MBJVUCVOO","A2S6QOCFC3EAYH","382GHPVPHSDM8N0F9141EAH7F0K34Z","","null","<img src=""img/land3.png"" style=""width:200px; border:14px solid green;"">","null","","","","","","","","","",""
"","image-keyboard-response","86","226174","0.0-86.0","31EUONYN2WPCA9AA3XUI0MBJVUCVOO","A2S6QOCFC3EAYH","382GHPVPHSDM8N0F9141EAH7F0K34Z","","736","img/land1.png","74","740","1","1","2","2","0.8,0.2,0.2,0.2,0.8,0.2,0.2,0.2,0.8","0.2,0.2,0.8,0.8,0.2,0.2,0.2,0.8,0.2","2","",""
"","html-keyboard-response","87","226480","0.0-87.0","31EUONYN2WPCA9AA3XUI0MBJVUCVOO","A2S6QOCFC3EAYH","382GHPVPHSDM8N0F9141EAH7F0K34Z","","null","<img src=""img/land1.png"" style=""width:200px; border:14px solid green;"">","null","","","","","","","","","",""
"","image-keyboard-response","88","227351","0.0-88.0","31EUONYN2WPCA9AA3XUI0MBJVUCVOO","A2S6QOCFC3EAYH","382GHPVPHSDM8N0F9141EAH7F0K34Z","","866","img/land3.png","76","870","3","0","1","2","0.8,0.2,0.2,0.2,0.8,0.2,0.2,0.2,0.8","0.2,0.2,0.8,0.8,0.2,0.2,0.2,0.8,0.2","2","",""
"","html-keyboard-response","89","227660","0.0-89.0","31EUONYN2WPCA9AA3XUI0MBJVUCVOO","A2S6QOCFC3EAYH","382GHPVPHSDM8N0F9141EAH7F0K34Z","","null","<img src=""img/land3.png"" style=""width:200px;border:14px solid red;"">","null","","","","","","","","","",""
"","image-keyboard-response","90","228646","0.0-90.0","31EUONYN2WPCA9AA3XUI0MBJVUCVOO","A2S6QOCFC3EAYH","382GHPVPHSDM8N0F9141EAH7F0K34Z","","980","img/land5.png","75","985","2","0","3","2","0.8,0.2,0.2,0.2,0.8,0.2,0.2,0.2,0.8","0.2,0.2,0.8,0.8,0.2,0.2,0.2,0.8,0.2","2","",""
"","html-keyboard-response","91","228952","0.0-91.0","31EUONYN2WPCA9AA3XUI0MBJVUCVOO","A2S6QOCFC3EAYH","382GHPVPHSDM8N0F9141EAH7F0K34Z","","null","<img src=""img/land5.png"" style=""width:200px;border:14px solid red;"">","null","","","","","","","","","",""
"","image-keyboard-response","92","229669","0.0-92.0","31EUONYN2WPCA9AA3XUI0MBJVUCVOO","A2S6QOCFC3EAYH","382GHPVPHSDM8N0F9141EAH7F0K34Z","","710","img/land1.png","74","714","1","1","2","2","0.8,0.2,0.2,0.2,0.8,0.2,0.2,0.2,0.8","0.2,0.2,0.8,0.8,0.2,0.2,0.2,0.8,0.2","2","",""
"","html-keyboard-response","93","229975","0.0-93.0","31EUONYN2WPCA9AA3XUI0MBJVUCVOO","A2S6QOCFC3EAYH","382GHPVPHSDM8N0F9141EAH7F0K34Z","","null","<img src=""img/land1.png"" style=""width:200px; border:14px solid green;"">","null","","","","","","","","","",""
"","image-keyboard-response","94","230945","0.0-94.0","31EUONYN2WPCA9AA3XUI0MBJVUCVOO","A2S6QOCFC3EAYH","382GHPVPHSDM8N0F9141EAH7F0K34Z","","963","img/land3.png","75","967","2","1","1","2","0.8,0.2,0.2,0.2,0.8,0.2,0.2,0.2,0.8","0.2,0.2,0.8,0.8,0.2,0.2,0.2,0.8,0.2","2","",""
"","html-keyboard-response","95","231252","0.0-95.0","31EUONYN2WPCA9AA3XUI0MBJVUCVOO","A2S6QOCFC3EAYH","382GHPVPHSDM8N0F9141EAH7F0K34Z","","null","<img src=""img/land3.png"" style=""width:200px; border:14px solid green;"">","null","","","","","","","","","",""
"","image-keyboard-response","96","232063","0.0-96.0","31EUONYN2WPCA9AA3XUI0MBJVUCVOO","A2S6QOCFC3EAYH","382GHPVPHSDM8N0F9141EAH7F0K34Z","","807","img/land5.png","74","810","1","0","3","2","0.8,0.2,0.2,0.2,0.8,0.2,0.2,0.2,0.8","0.2,0.2,0.8,0.8,0.2,0.2,0.2,0.8,0.2","2","",""
"","html-keyboard-response","97","232385","0.0-97.0","31EUONYN2WPCA9AA3XUI0MBJVUCVOO","A2S6QOCFC3EAYH","382GHPVPHSDM8N0F9141EAH7F0K34Z","","null","<img src=""img/land5.png"" style=""width:200px;border:14px solid red;"">","null","","","","","","","","","",""
"","image-keyboard-response","98","233181","0.0-98.0","31EUONYN2WPCA9AA3XUI0MBJVUCVOO","A2S6QOCFC3EAYH","382GHPVPHSDM8N0F9141EAH7F0K34Z","","790","img/land3.png","75","794","2","0","1","2","0.8,0.2,0.2,0.2,0.8,0.2,0.2,0.2,0.8","0.2,0.2,0.8,0.8,0.2,0.2,0.2,0.8,0.2","2","",""
"","html-keyboard-response","99","233487","0.0-99.0","31EUONYN2WPCA9AA3XUI0MBJVUCVOO","A2S6QOCFC3EAYH","382GHPVPHSDM8N0F9141EAH7F0K34Z","","null","<img src=""img/land3.png"" style=""width:200px;border:14px solid red;"">","null","","","","","","","","","",""
"","image-keyboard-response","100","234385","0.0-100.0","31EUONYN2WPCA9AA3XUI0MBJVUCVOO","A2S6QOCFC3EAYH","382GHPVPHSDM8N0F9141EAH7F0K34Z","","892","img/land1.png","76","896","3","0","2","2","0.8,0.2,0.2,0.2,0.8,0.2,0.2,0.2,0.8","0.2,0.2,0.8,0.8,0.2,0.2,0.2,0.8,0.2","2","",""
"","html-keyboard-response","101","234692","0.0-101.0","31EUONYN2WPCA9AA3XUI0MBJVUCVOO","A2S6QOCFC3EAYH","382GHPVPHSDM8N0F9141EAH7F0K34Z","","null","<img src=""img/land1.png"" style=""width:200px;border:14px solid red;"">","null","","","","","","","","","",""
"","image-keyboard-response","102","235474","0.0-102.0","31EUONYN2WPCA9AA3XUI0MBJVUCVOO","A2S6QOCFC3EAYH","382GHPVPHSDM8N0F9141EAH7F0K34Z","","778","img/land5.png","74","783","1","0","3","2","0.8,0.2,0.2,0.2,0.8,0.2,0.2,0.2,0.8","0.2,0.2,0.8,0.8,0.2,0.2,0.2,0.8,0.2","2","",""
"","html-keyboard-response","103","235782","0.0-103.0","31EUONYN2WPCA9AA3XUI0MBJVUCVOO","A2S6QOCFC3EAYH","382GHPVPHSDM8N0F9141EAH7F0K34Z","","null","<img src=""img/land5.png"" style=""width:200px;border:14px solid red;"">","null","","","","","","","","","",""
"","image-keyboard-response","104","236547","0.0-104.0","31EUONYN2WPCA9AA3XUI0MBJVUCVOO","A2S6QOCFC3EAYH","382GHPVPHSDM8N0F9141EAH7F0K34Z","","759","img/land3.png","76","764","3","0","1","2","0.8,0.2,0.2,0.2,0.8,0.2,0.2,0.2,0.8","0.2,0.2,0.8,0.8,0.2,0.2,0.2,0.8,0.2","2","",""
"","html-keyboard-response","105","236852","0.0-105.0","31EUONYN2WPCA9AA3XUI0MBJVUCVOO","A2S6QOCFC3EAYH","382GHPVPHSDM8N0F9141EAH7F0K34Z","","null","<img src=""img/land3.png"" style=""width:200px;border:14px solid red;"">","null","","","","","","","","","",""
"","image-keyboard-response","106","237783","0.0-106.0","31EUONYN2WPCA9AA3XUI0MBJVUCVOO","A2S6QOCFC3EAYH","382GHPVPHSDM8N0F9141EAH7F0K34Z","","925","img/land1.png","75","929","2","0","2","2","0.8,0.2,0.2,0.2,0.8,0.2,0.2,0.2,0.8","0.2,0.2,0.8,0.8,0.2,0.2,0.2,0.8,0.2","2","",""
"","html-keyboard-response","107","238089","0.0-107.0","31EUONYN2WPCA9AA3XUI0MBJVUCVOO","A2S6QOCFC3EAYH","382GHPVPHSDM8N0F9141EAH7F0K34Z","","null","<img src=""img/land1.png"" style=""width:200px;border:14px solid red;"">","null","","","","","","","","","",""
"","image-keyboard-response","108","238945","0.0-108.0","31EUONYN2WPCA9AA3XUI0MBJVUCVOO","A2S6QOCFC3EAYH","382GHPVPHSDM8N0F9141EAH7F0K34Z","","852","img/land5.png","74","854","1","1","3","2","0.8,0.2,0.2,0.2,0.8,0.2,0.2,0.2,0.8","0.2,0.2,0.8,0.8,0.2,0.2,0.2,0.8,0.2","2","",""
"","html-keyboard-response","109","239251","0.0-109.0","31EUONYN2WPCA9AA3XUI0MBJVUCVOO","A2S6QOCFC3EAYH","382GHPVPHSDM8N0F9141EAH7F0K34Z","","null","<img src=""img/land5.png"" style=""width:200px; border:14px solid green;"">","null","","","","","","","","","",""
"","image-keyboard-response","110","239974","0.0-110.0","31EUONYN2WPCA9AA3XUI0MBJVUCVOO","A2S6QOCFC3EAYH","382GHPVPHSDM8N0F9141EAH7F0K34Z","","718","img/land5.png","74","720","1","0","3","2","0.8,0.2,0.2,0.2,0.8,0.2,0.2,0.2,0.8","0.2,0.2,0.8,0.8,0.2,0.2,0.2,0.8,0.2","2","",""
"","html-keyboard-response","111","240279","0.0-111.0","31EUONYN2WPCA9AA3XUI0MBJVUCVOO","A2S6QOCFC3EAYH","382GHPVPHSDM8N0F9141EAH7F0K34Z","","null","<img src=""img/land5.png"" style=""width:200px;border:14px solid red;"">","null","","","","","","","","","",""
"","image-keyboard-response","112","241103","0.0-112.0","31EUONYN2WPCA9AA3XUI0MBJVUCVOO","A2S6QOCFC3EAYH","382GHPVPHSDM8N0F9141EAH7F0K34Z","","819","img/land3.png","75","823","2","1","1","2","0.8,0.2,0.2,0.2,0.8,0.2,0.2,0.2,0.8","0.2,0.2,0.8,0.8,0.2,0.2,0.2,0.8,0.2","2","",""
"","html-keyboard-response","113","241409","0.0-113.0","31EUONYN2WPCA9AA3XUI0MBJVUCVOO","A2S6QOCFC3EAYH","382GHPVPHSDM8N0F9141EAH7F0K34Z","","null","<img src=""img/land3.png"" style=""width:200px; border:14px solid green;"">","null","","","","","","","","","",""
"","image-keyboard-response","114","242098","0.0-114.0","31EUONYN2WPCA9AA3XUI0MBJVUCVOO","A2S6QOCFC3EAYH","382GHPVPHSDM8N0F9141EAH7F0K34Z","","685","img/land3.png","75","687","2","1","1","2","0.8,0.2,0.2,0.2,0.8,0.2,0.2,0.2,0.8","0.2,0.2,0.8,0.8,0.2,0.2,0.2,0.8,0.2","2","",""
"","html-keyboard-response","115","242404","0.0-115.0","31EUONYN2WPCA9AA3XUI0MBJVUCVOO","A2S6QOCFC3EAYH","382GHPVPHSDM8N0F9141EAH7F0K34Z","","null","<img src=""img/land3.png"" style=""width:200px; border:14px solid green;"">","null","","","","","","","","","",""
"","image-keyboard-response","116","243072","0.0-116.0","31EUONYN2WPCA9AA3XUI0MBJVUCVOO","A2S6QOCFC3EAYH","382GHPVPHSDM8N0F9141EAH7F0K34Z","","664","img/land3.png","75","666","2","1","1","2","0.8,0.2,0.2,0.2,0.8,0.2,0.2,0.2,0.8","0.2,0.2,0.8,0.8,0.2,0.2,0.2,0.8,0.2","2","",""
"","html-keyboard-response","117","243379","0.0-117.0","31EUONYN2WPCA9AA3XUI0MBJVUCVOO","A2S6QOCFC3EAYH","382GHPVPHSDM8N0F9141EAH7F0K34Z","","null","<img src=""img/land3.png"" style=""width:200px; border:14px solid green;"">","null","","","","","","","","","",""
"","image-keyboard-response","118","244063","0.0-118.0","31EUONYN2WPCA9AA3XUI0MBJVUCVOO","A2S6QOCFC3EAYH","382GHPVPHSDM8N0F9141EAH7F0K34Z","","678","img/land3.png","75","683","2","0","1","2","0.8,0.2,0.2,0.2,0.8,0.2,0.2,0.2,0.8","0.2,0.2,0.8,0.8,0.2,0.2,0.2,0.8,0.2","2","",""
"","html-keyboard-response","119","244369","0.0-119.0","31EUONYN2WPCA9AA3XUI0MBJVUCVOO","A2S6QOCFC3EAYH","382GHPVPHSDM8N0F9141EAH7F0K34Z","","null","<img src=""img/land3.png"" style=""width:200px;border:14px solid red;"">","null","","","","","","","","","",""
"","image-keyboard-response","120","245644","0.0-120.0","31EUONYN2WPCA9AA3XUI0MBJVUCVOO","A2S6QOCFC3EAYH","382GHPVPHSDM8N0F9141EAH7F0K34Z","","1269","img/land3.png","76","1274","3","1","1","2","0.8,0.2,0.2,0.2,0.8,0.2,0.2,0.2,0.8","0.2,0.2,0.8,0.8,0.2,0.2,0.2,0.8,0.2","2","",""
"","html-keyboard-response","121","245951","0.0-121.0","31EUONYN2WPCA9AA3XUI0MBJVUCVOO","A2S6QOCFC3EAYH","382GHPVPHSDM8N0F9141EAH7F0K34Z","","null","<img src=""img/land3.png"" style=""width:200px; border:14px solid green;"">","null","","","","","","","","","",""
"","image-keyboard-response","122","246720","0.0-122.0","31EUONYN2WPCA9AA3XUI0MBJVUCVOO","A2S6QOCFC3EAYH","382GHPVPHSDM8N0F9141EAH7F0K34Z","","762","img/land3.png","76","767","3","1","1","2","0.8,0.2,0.2,0.2,0.8,0.2,0.2,0.2,0.8","0.2,0.2,0.8,0.8,0.2,0.2,0.2,0.8,0.2","2","",""
"","html-keyboard-response","123","247027","0.0-123.0","31EUONYN2WPCA9AA3XUI0MBJVUCVOO","A2S6QOCFC3EAYH","382GHPVPHSDM8N0F9141EAH7F0K34Z","","null","<img src=""img/land3.png"" style=""width:200px; border:14px solid green;"">","null","","","","","","","","","",""
"","image-keyboard-response","124","247836","0.0-124.0","31EUONYN2WPCA9AA3XUI0MBJVUCVOO","A2S6QOCFC3EAYH","382GHPVPHSDM8N0F9141EAH7F0K34Z","","804","img/land3.png","76","808","3","0","1","2","0.8,0.2,0.2,0.2,0.8,0.2,0.2,0.2,0.8","0.2,0.2,0.8,0.8,0.2,0.2,0.2,0.8,0.2","2","",""
"","html-keyboard-response","125","248144","0.0-125.0","31EUONYN2WPCA9AA3XUI0MBJVUCVOO","A2S6QOCFC3EAYH","382GHPVPHSDM8N0F9141EAH7F0K34Z","","null","<img src=""img/land3.png"" style=""width:200px;border:14px solid red;"">","null","","","","","","","","","",""
"","image-keyboard-response","126","249004","0.0-126.0","31EUONYN2WPCA9AA3XUI0MBJVUCVOO","A2S6QOCFC3EAYH","382GHPVPHSDM8N0F9141EAH7F0K34Z","","854","img/land3.png","75","858","2","1","1","2","0.8,0.2,0.2,0.2,0.8,0.2,0.2,0.2,0.8","0.2,0.2,0.8,0.8,0.2,0.2,0.2,0.8,0.2","2","",""
"","html-keyboard-response","127","249310","0.0-127.0","31EUONYN2WPCA9AA3XUI0MBJVUCVOO","A2S6QOCFC3EAYH","382GHPVPHSDM8N0F9141EAH7F0K34Z","","null","<img src=""img/land3.png"" style=""width:200px; border:14px solid green;"">","null","","","","","","","","","",""
"","image-keyboard-response","128","250107","0.0-128.0","31EUONYN2WPCA9AA3XUI0MBJVUCVOO","A2S6QOCFC3EAYH","382GHPVPHSDM8N0F9141EAH7F0K34Z","","791","img/land3.png","75","794","2","0","1","2","0.8,0.2,0.2,0.2,0.8,0.2,0.2,0.2,0.8","0.2,0.2,0.8,0.8,0.2,0.2,0.2,0.8,0.2","2","",""
"","html-keyboard-response","129","250414","0.0-129.0","31EUONYN2WPCA9AA3XUI0MBJVUCVOO","A2S6QOCFC3EAYH","382GHPVPHSDM8N0F9141EAH7F0K34Z","","null","<img src=""img/land3.png"" style=""width:200px;border:14px solid red;"">","null","","","","","","","","","",""
"","image-keyboard-response","130","251114","0.0-130.0","31EUONYN2WPCA9AA3XUI0MBJVUCVOO","A2S6QOCFC3EAYH","382GHPVPHSDM8N0F9141EAH7F0K34Z","","694","img/land3.png","74","698","1","0","1","2","0.8,0.2,0.2,0.2,0.8,0.2,0.2,0.2,0.8","0.2,0.2,0.8,0.8,0.2,0.2,0.2,0.8,0.2","2","",""
"","html-keyboard-response","131","251421","0.0-131.0","31EUONYN2WPCA9AA3XUI0MBJVUCVOO","A2S6QOCFC3EAYH","382GHPVPHSDM8N0F9141EAH7F0K34Z","","null","<img src=""img/land3.png"" style=""width:200px;border:14px solid red;"">","null","","","","","","","","","",""
"","image-keyboard-response","132","252272","0.0-132.0","31EUONYN2WPCA9AA3XUI0MBJVUCVOO","A2S6QOCFC3EAYH","382GHPVPHSDM8N0F9141EAH7F0K34Z","","847","img/land5.png","74","850","1","1","3","2","0.8,0.2,0.2,0.2,0.8,0.2,0.2,0.2,0.8","0.2,0.2,0.8,0.8,0.2,0.2,0.2,0.8,0.2","2","",""
"","html-keyboard-response","133","252579","0.0-133.0","31EUONYN2WPCA9AA3XUI0MBJVUCVOO","A2S6QOCFC3EAYH","382GHPVPHSDM8N0F9141EAH7F0K34Z","","null","<img src=""img/land5.png"" style=""width:200px; border:14px solid green;"">","null","","","","","","","","","",""
"","image-keyboard-response","134","253530","0.0-134.0","31EUONYN2WPCA9AA3XUI0MBJVUCVOO","A2S6QOCFC3EAYH","382GHPVPHSDM8N0F9141EAH7F0K34Z","","946","img/land1.png","74","950","1","1","2","2","0.8,0.2,0.2,0.2,0.8,0.2,0.2,0.2,0.8","0.2,0.2,0.8,0.8,0.2,0.2,0.2,0.8,0.2","2","",""
"","html-keyboard-response","135","253837","0.0-135.0","31EUONYN2WPCA9AA3XUI0MBJVUCVOO","A2S6QOCFC3EAYH","382GHPVPHSDM8N0F9141EAH7F0K34Z","","null","<img src=""img/land1.png"" style=""width:200px; border:14px solid green;"">","null","","","","","","","","","",""
"","image-keyboard-response","136","254686","0.0-136.0","31EUONYN2WPCA9AA3XUI0MBJVUCVOO","A2S6QOCFC3EAYH","382GHPVPHSDM8N0F9141EAH7F0K34Z","","842","img/land5.png","74","846","1","1","3","2","0.8,0.2,0.2,0.2,0.8,0.2,0.2,0.2,0.8","0.2,0.2,0.8,0.8,0.2,0.2,0.2,0.8,0.2","2","",""
"","html-keyboard-response","137","254993","0.0-137.0","31EUONYN2WPCA9AA3XUI0MBJVUCVOO","A2S6QOCFC3EAYH","382GHPVPHSDM8N0F9141EAH7F0K34Z","","null","<img src=""img/land5.png"" style=""width:200px; border:14px solid green;"">","null","","","","","","","","","",""
"","image-keyboard-response","138","255946","0.0-138.0","31EUONYN2WPCA9AA3XUI0MBJVUCVOO","A2S6QOCFC3EAYH","382GHPVPHSDM8N0F9141EAH7F0K34Z","","947","img/land3.png","76","950","3","1","1","2","0.8,0.2,0.2,0.2,0.8,0.2,0.2,0.2,0.8","0.2,0.2,0.8,0.8,0.2,0.2,0.2,0.8,0.2","2","",""
"","html-keyboard-response","139","256253","0.0-139.0","31EUONYN2WPCA9AA3XUI0MBJVUCVOO","A2S6QOCFC3EAYH","382GHPVPHSDM8N0F9141EAH7F0K34Z","","null","<img src=""img/land3.png"" style=""width:200px; border:14px solid green;"">","null","","","","","","","","","",""
"","image-keyboard-response","140","257007","0.0-140.0","31EUONYN2WPCA9AA3XUI0MBJVUCVOO","A2S6QOCFC3EAYH","382GHPVPHSDM8N0F9141EAH7F0K34Z","","747","img/land5.png","74","751","1","1","3","2","0.8,0.2,0.2,0.2,0.8,0.2,0.2,0.2,0.8","0.2,0.2,0.8,0.8,0.2,0.2,0.2,0.8,0.2","2","",""
"","html-keyboard-response","141","257329","0.0-141.0","31EUONYN2WPCA9AA3XUI0MBJVUCVOO","A2S6QOCFC3EAYH","382GHPVPHSDM8N0F9141EAH7F0K34Z","","null","<img src=""img/land5.png"" style=""width:200px; border:14px solid green;"">","null","","","","","","","","","",""
"","image-keyboard-response","142","258195","0.0-142.0","31EUONYN2WPCA9AA3XUI0MBJVUCVOO","A2S6QOCFC3EAYH","382GHPVPHSDM8N0F9141EAH7F0K34Z","","857","img/land1.png","74","862","1","1","2","2","0.8,0.2,0.2,0.2,0.8,0.2,0.2,0.2,0.8","0.2,0.2,0.8,0.8,0.2,0.2,0.2,0.8,0.2","2","",""
"","html-keyboard-response","143","258502","0.0-143.0","31EUONYN2WPCA9AA3XUI0MBJVUCVOO","A2S6QOCFC3EAYH","382GHPVPHSDM8N0F9141EAH7F0K34Z","","null","<img src=""img/land1.png"" style=""width:200px; border:14px solid green;"">","null","","","","","","","","","",""
"","image-keyboard-response","144","259402","0.0-144.0","31EUONYN2WPCA9AA3XUI0MBJVUCVOO","A2S6QOCFC3EAYH","382GHPVPHSDM8N0F9141EAH7F0K34Z","","894","img/land1.png","74","899","1","0","2","2","0.8,0.2,0.2,0.2,0.8,0.2,0.2,0.2,0.8","0.2,0.2,0.8,0.8,0.2,0.2,0.2,0.8,0.2","2","",""
"","html-keyboard-response","145","259710","0.0-145.0","31EUONYN2WPCA9AA3XUI0MBJVUCVOO","A2S6QOCFC3EAYH","382GHPVPHSDM8N0F9141EAH7F0K34Z","","null","<img src=""img/land1.png"" style=""width:200px;border:14px solid red;"">","null","","","","","","","","","",""
"","image-keyboard-response","146","260556","0.0-146.0","31EUONYN2WPCA9AA3XUI0MBJVUCVOO","A2S6QOCFC3EAYH","382GHPVPHSDM8N0F9141EAH7F0K34Z","","840","img/land3.png","76","844","3","1","1","2","0.8,0.2,0.2,0.2,0.8,0.2,0.2,0.2,0.8","0.2,0.2,0.8,0.8,0.2,0.2,0.2,0.8,0.2","2","",""
"","html-keyboard-response","147","260864","0.0-147.0","31EUONYN2WPCA9AA3XUI0MBJVUCVOO","A2S6QOCFC3EAYH","382GHPVPHSDM8N0F9141EAH7F0K34Z","","null","<img src=""img/land3.png"" style=""width:200px; border:14px solid green;"">","null","","","","","","","","","",""
"","image-keyboard-response","148","262398","0.0-148.0","31EUONYN2WPCA9AA3XUI0MBJVUCVOO","A2S6QOCFC3EAYH","382GHPVPHSDM8N0F9141EAH7F0K34Z","","1530","img/land5.png","75","1533","2","1","3","2","0.8,0.2,0.2,0.2,0.8,0.2,0.2,0.2,0.8","0.2,0.2,0.8,0.8,0.2,0.2,0.2,0.8,0.2","2","",""
"","html-keyboard-response","149","262704","0.0-149.0","31EUONYN2WPCA9AA3XUI0MBJVUCVOO","A2S6QOCFC3EAYH","382GHPVPHSDM8N0F9141EAH7F0K34Z","","null","<img src=""img/land5.png"" style=""width:200px; border:14px solid green;"">","null","","","","","","","","","",""
"","image-keyboard-response","150","263575","0.0-150.0","31EUONYN2WPCA9AA3XUI0MBJVUCVOO","A2S6QOCFC3EAYH","382GHPVPHSDM8N0F9141EAH7F0K34Z","","865","img/land3.png","74","868","1","0","1","2","0.8,0.2,0.2,0.2,0.8,0.2,0.2,0.2,0.8","0.2,0.2,0.8,0.8,0.2,0.2,0.2,0.8,0.2","2","",""
"","html-keyboard-response","151","263882","0.0-151.0","31EUONYN2WPCA9AA3XUI0MBJVUCVOO","A2S6QOCFC3EAYH","382GHPVPHSDM8N0F9141EAH7F0K34Z","","null","<img src=""img/land3.png"" style=""width:200px;border:14px solid red;"">","null","","","","","","","","","",""
"","image-keyboard-response","152","264688","0.0-152.0","31EUONYN2WPCA9AA3XUI0MBJVUCVOO","A2S6QOCFC3EAYH","382GHPVPHSDM8N0F9141EAH7F0K34Z","","800","img/land3.png","76","806","3","0","1","2","0.8,0.2,0.2,0.2,0.8,0.2,0.2,0.2,0.8","0.2,0.2,0.8,0.8,0.2,0.2,0.2,0.8,0.2","2","",""
"","html-keyboard-response","153","264996","0.0-153.0","31EUONYN2WPCA9AA3XUI0MBJVUCVOO","A2S6QOCFC3EAYH","382GHPVPHSDM8N0F9141EAH7F0K34Z","","null","<img src=""img/land3.png"" style=""width:200px;border:14px solid red;"">","null","","","","","","","","","",""
"","image-keyboard-response","154","265710","0.0-154.0","31EUONYN2WPCA9AA3XUI0MBJVUCVOO","A2S6QOCFC3EAYH","382GHPVPHSDM8N0F9141EAH7F0K34Z","","707","img/land3.png","74","710","1","0","1","2","0.8,0.2,0.2,0.2,0.8,0.2,0.2,0.2,0.8","0.2,0.2,0.8,0.8,0.2,0.2,0.2,0.8,0.2","2","",""
"","html-keyboard-response","155","266031","0.0-155.0","31EUONYN2WPCA9AA3XUI0MBJVUCVOO","A2S6QOCFC3EAYH","382GHPVPHSDM8N0F9141EAH7F0K34Z","","null","<img src=""img/land3.png"" style=""width:200px;border:14px solid red;"">","null","","","","","","","","","",""
"","image-keyboard-response","156","266592","0.0-156.0","31EUONYN2WPCA9AA3XUI0MBJVUCVOO","A2S6QOCFC3EAYH","382GHPVPHSDM8N0F9141EAH7F0K34Z","","556","img/land3.png","75","558","2","0","1","2","0.8,0.2,0.2,0.2,0.8,0.2,0.2,0.2,0.8","0.2,0.2,0.8,0.8,0.2,0.2,0.2,0.8,0.2","2","",""
"","html-keyboard-response","157","266900","0.0-157.0","31EUONYN2WPCA9AA3XUI0MBJVUCVOO","A2S6QOCFC3EAYH","382GHPVPHSDM8N0F9141EAH7F0K34Z","","null","<img src=""img/land3.png"" style=""width:200px;border:14px solid red;"">","null","","","","","","","","","",""
"","image-keyboard-response","158","267826","0.0-158.0","31EUONYN2WPCA9AA3XUI0MBJVUCVOO","A2S6QOCFC3EAYH","382GHPVPHSDM8N0F9141EAH7F0K34Z","","920","img/land3.png","74","924","1","0","1","2","0.8,0.2,0.2,0.2,0.8,0.2,0.2,0.2,0.8","0.2,0.2,0.8,0.8,0.2,0.2,0.2,0.8,0.2","2","",""
"","html-keyboard-response","159","268132","0.0-159.0","31EUONYN2WPCA9AA3XUI0MBJVUCVOO","A2S6QOCFC3EAYH","382GHPVPHSDM8N0F9141EAH7F0K34Z","","null","<img src=""img/land3.png"" style=""width:200px;border:14px solid red;"">","null","","","","","","","","","",""
"","image-keyboard-response","160","268946","0.0-160.0","31EUONYN2WPCA9AA3XUI0MBJVUCVOO","A2S6QOCFC3EAYH","382GHPVPHSDM8N0F9141EAH7F0K34Z","","807","img/land3.png","75","811","2","0","1","2","0.8,0.2,0.2,0.2,0.8,0.2,0.2,0.2,0.8","0.2,0.2,0.8,0.8,0.2,0.2,0.2,0.8,0.2","2","",""
"","html-keyboard-response","161","269253","0.0-161.0","31EUONYN2WPCA9AA3XUI0MBJVUCVOO","A2S6QOCFC3EAYH","382GHPVPHSDM8N0F9141EAH7F0K34Z","","null","<img src=""img/land3.png"" style=""width:200px;border:14px solid red;"">","null","","","","","","","","","",""
"","image-keyboard-response","162","270559","0.0-162.0","31EUONYN2WPCA9AA3XUI0MBJVUCVOO","A2S6QOCFC3EAYH","382GHPVPHSDM8N0F9141EAH7F0K34Z","","1301","img/land1.png","75","1304","2","0","2","2","0.8,0.2,0.2,0.2,0.8,0.2,0.2,0.2,0.8","0.2,0.2,0.8,0.8,0.2,0.2,0.2,0.8,0.2","2","",""
"","html-keyboard-response","163","270867","0.0-163.0","31EUONYN2WPCA9AA3XUI0MBJVUCVOO","A2S6QOCFC3EAYH","382GHPVPHSDM8N0F9141EAH7F0K34Z","","null","<img src=""img/land1.png"" style=""width:200px;border:14px solid red;"">","null","","","","","","","","","",""
"","image-keyboard-response","164","272581","0.0-164.0","31EUONYN2WPCA9AA3XUI0MBJVUCVOO","A2S6QOCFC3EAYH","382GHPVPHSDM8N0F9141EAH7F0K34Z","","1709","img/land3.png","76","1713","3","1","1","2","0.8,0.2,0.2,0.2,0.8,0.2,0.2,0.2,0.8","0.2,0.2,0.8,0.8,0.2,0.2,0.2,0.8,0.2","2","",""
"","html-keyboard-response","165","272889","0.0-165.0","31EUONYN2WPCA9AA3XUI0MBJVUCVOO","A2S6QOCFC3EAYH","382GHPVPHSDM8N0F9141EAH7F0K34Z","","null","<img src=""img/land3.png"" style=""width:200px; border:14px solid green;"">","null","","","","","","","","","",""
"","image-keyboard-response","166","273552","0.0-166.0","31EUONYN2WPCA9AA3XUI0MBJVUCVOO","A2S6QOCFC3EAYH","382GHPVPHSDM8N0F9141EAH7F0K34Z","","659","img/land3.png","76","662","3","0","1","2","0.8,0.2,0.2,0.2,0.8,0.2,0.2,0.2,0.8","0.2,0.2,0.8,0.8,0.2,0.2,0.2,0.8,0.2","2","",""
"","html-keyboard-response","167","273860","0.0-167.0","31EUONYN2WPCA9AA3XUI0MBJVUCVOO","A2S6QOCFC3EAYH","382GHPVPHSDM8N0F9141EAH7F0K34Z","","null","<img src=""img/land3.png"" style=""width:200px;border:14px solid red;"">","null","","","","","","","","","",""
"","image-keyboard-response","168","275009","0.0-168.0","31EUONYN2WPCA9AA3XUI0MBJVUCVOO","A2S6QOCFC3EAYH","382GHPVPHSDM8N0F9141EAH7F0K34Z","","1142","img/land3.png","74","1147","1","1","1","2","0.8,0.2,0.2,0.2,0.8,0.2,0.2,0.2,0.8","0.2,0.2,0.8,0.8,0.2,0.2,0.2,0.8,0.2","2","",""
"","html-keyboard-response","169","275317","0.0-169.0","31EUONYN2WPCA9AA3XUI0MBJVUCVOO","A2S6QOCFC3EAYH","382GHPVPHSDM8N0F9141EAH7F0K34Z","","null","<img src=""img/land3.png"" style=""width:200px; border:14px solid green;"">","null","","","","","","","","","",""
"","image-keyboard-response","170","276228","0.0-170.0","31EUONYN2WPCA9AA3XUI0MBJVUCVOO","A2S6QOCFC3EAYH","382GHPVPHSDM8N0F9141EAH7F0K34Z","","904","img/land1.png","74","908","1","1","2","2","0.8,0.2,0.2,0.2,0.8,0.2,0.2,0.2,0.8","0.2,0.2,0.8,0.8,0.2,0.2,0.2,0.8,0.2","2","",""
"","html-keyboard-response","171","276543","0.0-171.0","31EUONYN2WPCA9AA3XUI0MBJVUCVOO","A2S6QOCFC3EAYH","382GHPVPHSDM8N0F9141EAH7F0K34Z","","null","<img src=""img/land1.png"" style=""width:200px; border:14px solid green;"">","null","","","","","","","","","",""
"","image-keyboard-response","172","277664","0.0-172.0","31EUONYN2WPCA9AA3XUI0MBJVUCVOO","A2S6QOCFC3EAYH","382GHPVPHSDM8N0F9141EAH7F0K34Z","","1116","img/land3.png","74","1119","1","0","1","2","0.8,0.2,0.2,0.2,0.8,0.2,0.2,0.2,0.8","0.2,0.2,0.8,0.8,0.2,0.2,0.2,0.8,0.2","2","",""
"","html-keyboard-response","173","277971","0.0-173.0","31EUONYN2WPCA9AA3XUI0MBJVUCVOO","A2S6QOCFC3EAYH","382GHPVPHSDM8N0F9141EAH7F0K34Z","","null","<img src=""img/land3.png"" style=""width:200px;border:14px solid red;"">","null","","","","","","","","","",""
"","image-keyboard-response","174","278926","0.0-174.0","31EUONYN2WPCA9AA3XUI0MBJVUCVOO","A2S6QOCFC3EAYH","382GHPVPHSDM8N0F9141EAH7F0K34Z","","949","img/land1.png","76","952","3","0","2","2","0.8,0.2,0.2,0.2,0.8,0.2,0.2,0.2,0.8","0.2,0.2,0.8,0.8,0.2,0.2,0.2,0.8,0.2","2","",""
"","html-keyboard-response","175","279235","0.0-175.0","31EUONYN2WPCA9AA3XUI0MBJVUCVOO","A2S6QOCFC3EAYH","382GHPVPHSDM8N0F9141EAH7F0K34Z","","null","<img src=""img/land1.png"" style=""width:200px;border:14px solid red;"">","null","","","","","","","","","",""
"","image-keyboard-response","176","279899","0.0-176.0","31EUONYN2WPCA9AA3XUI0MBJVUCVOO","A2S6QOCFC3EAYH","382GHPVPHSDM8N0F9141EAH7F0K34Z","","659","img/land1.png","74","662","1","1","2","2","0.8,0.2,0.2,0.2,0.8,0.2,0.2,0.2,0.8","0.2,0.2,0.8,0.8,0.2,0.2,0.2,0.8,0.2","2","",""
"","html-keyboard-response","177","280207","0.0-177.0","31EUONYN2WPCA9AA3XUI0MBJVUCVOO","A2S6QOCFC3EAYH","382GHPVPHSDM8N0F9141EAH7F0K34Z","","null","<img src=""img/land1.png"" style=""width:200px; border:14px solid green;"">","null","","","","","","","","","",""
"","image-keyboard-response","178","281163","0.0-178.0","31EUONYN2WPCA9AA3XUI0MBJVUCVOO","A2S6QOCFC3EAYH","382GHPVPHSDM8N0F9141EAH7F0K34Z","","950","img/land3.png","75","959","2","0","1","2","0.8,0.2,0.2,0.2,0.8,0.2,0.2,0.2,0.8","0.2,0.2,0.8,0.8,0.2,0.2,0.2,0.8,0.2","2","",""
"","html-keyboard-response","179","281476","0.0-179.0","31EUONYN2WPCA9AA3XUI0MBJVUCVOO","A2S6QOCFC3EAYH","382GHPVPHSDM8N0F9141EAH7F0K34Z","","null","<img src=""img/land3.png"" style=""width:200px;border:14px solid red;"">","null","","","","","","","","","",""
"","image-keyboard-response","180","282028","0.0-180.0","31EUONYN2WPCA9AA3XUI0MBJVUCVOO","A2S6QOCFC3EAYH","382GHPVPHSDM8N0F9141EAH7F0K34Z","","546","img/land1.png","74","550","1","1","2","2","0.8,0.2,0.2,0.2,0.8,0.2,0.2,0.2,0.8","0.2,0.2,0.8,0.8,0.2,0.2,0.2,0.8,0.2","2","",""
"","html-keyboard-response","181","282359","0.0-181.0","31EUONYN2WPCA9AA3XUI0MBJVUCVOO","A2S6QOCFC3EAYH","382GHPVPHSDM8N0F9141EAH7F0K34Z","","null","<img src=""img/land1.png"" style=""width:200px; border:14px solid green;"">","null","","","","","","","","","",""
"","image-keyboard-response","182","283356","0.0-182.0","31EUONYN2WPCA9AA3XUI0MBJVUCVOO","A2S6QOCFC3EAYH","382GHPVPHSDM8N0F9141EAH7F0K34Z","","992","img/land3.png","76","995","3","1","1","2","0.8,0.2,0.2,0.2,0.8,0.2,0.2,0.2,0.8","0.2,0.2,0.8,0.8,0.2,0.2,0.2,0.8,0.2","2","",""
"","html-keyboard-response","183","283673","0.0-183.0","31EUONYN2WPCA9AA3XUI0MBJVUCVOO","A2S6QOCFC3EAYH","382GHPVPHSDM8N0F9141EAH7F0K34Z","","null","<img src=""img/land3.png"" style=""width:200px; border:14px solid green;"">","null","","","","","","","","","",""
"","image-keyboard-response","184","284372","0.0-184.0","31EUONYN2WPCA9AA3XUI0MBJVUCVOO","A2S6QOCFC3EAYH","382GHPVPHSDM8N0F9141EAH7F0K34Z","","692","img/land3.png","76","697","3","0","1","2","0.8,0.2,0.2,0.2,0.8,0.2,0.2,0.2,0.8","0.2,0.2,0.8,0.8,0.2,0.2,0.2,0.8,0.2","2","",""
"","html-keyboard-response","185","284677","0.0-185.0","31EUONYN2WPCA9AA3XUI0MBJVUCVOO","A2S6QOCFC3EAYH","382GHPVPHSDM8N0F9141EAH7F0K34Z","","null","<img src=""img/land3.png"" style=""width:200px;border:14px solid red;"">","null","","","","","","","","","",""
"","image-keyboard-response","186","285308","0.0-186.0","31EUONYN2WPCA9AA3XUI0MBJVUCVOO","A2S6QOCFC3EAYH","382GHPVPHSDM8N0F9141EAH7F0K34Z","","625","img/land3.png","74","629","1","0","1","2","0.8,0.2,0.2,0.2,0.8,0.2,0.2,0.2,0.8","0.2,0.2,0.8,0.8,0.2,0.2,0.2,0.8,0.2","2","",""
"","html-keyboard-response","187","285615","0.0-187.0","31EUONYN2WPCA9AA3XUI0MBJVUCVOO","A2S6QOCFC3EAYH","382GHPVPHSDM8N0F9141EAH7F0K34Z","","null","<img src=""img/land3.png"" style=""width:200px;border:14px solid red;"">","null","","","","","","","","","",""
"","image-keyboard-response","188","286669","0.0-188.0","31EUONYN2WPCA9AA3XUI0MBJVUCVOO","A2S6QOCFC3EAYH","382GHPVPHSDM8N0F9141EAH7F0K34Z","","1047","img/land3.png","75","1051","2","1","1","2","0.8,0.2,0.2,0.2,0.8,0.2,0.2,0.2,0.8","0.2,0.2,0.8,0.8,0.2,0.2,0.2,0.8,0.2","2","",""
"","html-keyboard-response","189","286977","0.0-189.0","31EUONYN2WPCA9AA3XUI0MBJVUCVOO","A2S6QOCFC3EAYH","382GHPVPHSDM8N0F9141EAH7F0K34Z","","null","<img src=""img/land3.png"" style=""width:200px; border:14px solid green;"">","null","","","","","","","","","",""
"","image-keyboard-response","190","287925","0.0-190.0","31EUONYN2WPCA9AA3XUI0MBJVUCVOO","A2S6QOCFC3EAYH","382GHPVPHSDM8N0F9141EAH7F0K34Z","","942","img/land3.png","75","946","2","1","1","2","0.8,0.2,0.2,0.2,0.8,0.2,0.2,0.2,0.8","0.2,0.2,0.8,0.8,0.2,0.2,0.2,0.8,0.2","2","",""
"","html-keyboard-response","191","288238","0.0-191.0","31EUONYN2WPCA9AA3XUI0MBJVUCVOO","A2S6QOCFC3EAYH","382GHPVPHSDM8N0F9141EAH7F0K34Z","","null","<img src=""img/land3.png"" style=""width:200px; border:14px solid green;"">","null","","","","","","","","","",""
"","image-keyboard-response","192","288945","0.0-192.0","31EUONYN2WPCA9AA3XUI0MBJVUCVOO","A2S6QOCFC3EAYH","382GHPVPHSDM8N0F9141EAH7F0K34Z","","703","img/land3.png","75","706","2","0","1","2","0.8,0.2,0.2,0.2,0.8,0.2,0.2,0.2,0.8","0.2,0.2,0.8,0.8,0.2,0.2,0.2,0.8,0.2","2","",""
"","html-keyboard-response","193","289253","0.0-193.0","31EUONYN2WPCA9AA3XUI0MBJVUCVOO","A2S6QOCFC3EAYH","382GHPVPHSDM8N0F9141EAH7F0K34Z","","null","<img src=""img/land3.png"" style=""width:200px;border:14px solid red;"">","null","","","","","","","","","",""
"","image-keyboard-response","194","290176","0.0-194.0","31EUONYN2WPCA9AA3XUI0MBJVUCVOO","A2S6QOCFC3EAYH","382GHPVPHSDM8N0F9141EAH7F0K34Z","","917","img/land3.png","74","921","1","0","1","2","0.8,0.2,0.2,0.2,0.8,0.2,0.2,0.2,0.8","0.2,0.2,0.8,0.8,0.2,0.2,0.2,0.8,0.2","2","",""
"","html-keyboard-response","195","290489","0.0-195.0","31EUONYN2WPCA9AA3XUI0MBJVUCVOO","A2S6QOCFC3EAYH","382GHPVPHSDM8N0F9141EAH7F0K34Z","","null","<img src=""img/land3.png"" style=""width:200px;border:14px solid red;"">","null","","","","","","","","","",""
"","image-keyboard-response","196","291243","0.0-196.0","31EUONYN2WPCA9AA3XUI0MBJVUCVOO","A2S6QOCFC3EAYH","382GHPVPHSDM8N0F9141EAH7F0K34Z","","748","img/land1.png","74","753","1","0","2","2","0.8,0.2,0.2,0.2,0.8,0.2,0.2,0.2,0.8","0.2,0.2,0.8,0.8,0.2,0.2,0.2,0.8,0.2","2","",""
"","html-keyboard-response","197","291563","0.0-197.0","31EUONYN2WPCA9AA3XUI0MBJVUCVOO","A2S6QOCFC3EAYH","382GHPVPHSDM8N0F9141EAH7F0K34Z","","null","<img src=""img/land1.png"" style=""width:200px;border:14px solid red;"">","null","","","","","","","","","",""
"","image-keyboard-response","198","292231","0.0-198.0","31EUONYN2WPCA9AA3XUI0MBJVUCVOO","A2S6QOCFC3EAYH","382GHPVPHSDM8N0F9141EAH7F0K34Z","","661","img/land1.png","76","666","3","1","2","2","0.8,0.2,0.2,0.2,0.8,0.2,0.2,0.2,0.8","0.2,0.2,0.8,0.8,0.2,0.2,0.2,0.8,0.2","2","",""
"","html-keyboard-response","199","292539","0.0-199.0","31EUONYN2WPCA9AA3XUI0MBJVUCVOO","A2S6QOCFC3EAYH","382GHPVPHSDM8N0F9141EAH7F0K34Z","","null","<img src=""img/land1.png"" style=""width:200px; border:14px solid green;"">","null","","","","","","","","","",""
"","image-keyboard-response","200","293584","0.0-200.0","31EUONYN2WPCA9AA3XUI0MBJVUCVOO","A2S6QOCFC3EAYH","382GHPVPHSDM8N0F9141EAH7F0K34Z","","1037","img/land3.png","76","1041","3","1","1","2","0.8,0.2,0.2,0.2,0.8,0.2,0.2,0.2,0.8","0.2,0.2,0.8,0.8,0.2,0.2,0.2,0.8,0.2","2","",""
"","html-keyboard-response","201","293892","0.0-201.0","31EUONYN2WPCA9AA3XUI0MBJVUCVOO","A2S6QOCFC3EAYH","382GHPVPHSDM8N0F9141EAH7F0K34Z","","null","<img src=""img/land3.png"" style=""width:200px; border:14px solid green;"">","null","","","","","","","","","",""
"","image-keyboard-response","202","294822","0.0-202.0","31EUONYN2WPCA9AA3XUI0MBJVUCVOO","A2S6QOCFC3EAYH","382GHPVPHSDM8N0F9141EAH7F0K34Z","","923","img/land3.png","76","927","3","1","1","2","0.8,0.2,0.2,0.2,0.8,0.2,0.2,0.2,0.8","0.2,0.2,0.8,0.8,0.2,0.2,0.2,0.8,0.2","2","",""
"","html-keyboard-response","203","295128","0.0-203.0","31EUONYN2WPCA9AA3XUI0MBJVUCVOO","A2S6QOCFC3EAYH","382GHPVPHSDM8N0F9141EAH7F0K34Z","","null","<img src=""img/land3.png"" style=""width:200px; border:14px solid green;"">","null","","","","","","","","","",""
"","image-keyboard-response","204","296100","0.0-204.0","31EUONYN2WPCA9AA3XUI0MBJVUCVOO","A2S6QOCFC3EAYH","382GHPVPHSDM8N0F9141EAH7F0K34Z","","966","img/land5.png","75","971","2","1","3","2","0.8,0.2,0.2,0.2,0.8,0.2,0.2,0.2,0.8","0.2,0.2,0.8,0.8,0.2,0.2,0.2,0.8,0.2","2","",""
"","html-keyboard-response","205","296408","0.0-205.0","31EUONYN2WPCA9AA3XUI0MBJVUCVOO","A2S6QOCFC3EAYH","382GHPVPHSDM8N0F9141EAH7F0K34Z","","null","<img src=""img/land5.png"" style=""width:200px; border:14px solid green;"">","null","","","","","","","","","",""
"","image-keyboard-response","206","297294","0.0-206.0","31EUONYN2WPCA9AA3XUI0MBJVUCVOO","A2S6QOCFC3EAYH","382GHPVPHSDM8N0F9141EAH7F0K34Z","","880","img/land3.png","76","884","3","0","1","2","0.8,0.2,0.2,0.2,0.8,0.2,0.2,0.2,0.8","0.2,0.2,0.8,0.8,0.2,0.2,0.2,0.8,0.2","2","",""
"","html-keyboard-response","207","297600","0.0-207.0","31EUONYN2WPCA9AA3XUI0MBJVUCVOO","A2S6QOCFC3EAYH","382GHPVPHSDM8N0F9141EAH7F0K34Z","","null","<img src=""img/land3.png"" style=""width:200px;border:14px solid red;"">","null","","","","","","","","","",""
"","image-keyboard-response","208","298741","0.0-208.0","31EUONYN2WPCA9AA3XUI0MBJVUCVOO","A2S6QOCFC3EAYH","382GHPVPHSDM8N0F9141EAH7F0K34Z","","1134","img/land3.png","75","1138","2","1","1","2","0.8,0.2,0.2,0.2,0.8,0.2,0.2,0.2,0.8","0.2,0.2,0.8,0.8,0.2,0.2,0.2,0.8,0.2","2","",""
"","html-keyboard-response","209","299048","0.0-209.0","31EUONYN2WPCA9AA3XUI0MBJVUCVOO","A2S6QOCFC3EAYH","382GHPVPHSDM8N0F9141EAH7F0K34Z","","null","<img src=""img/land3.png"" style=""width:200px; border:14px solid green;"">","null","","","","","","","","","",""
"","image-keyboard-response","210","299877","0.0-210.0","31EUONYN2WPCA9AA3XUI0MBJVUCVOO","A2S6QOCFC3EAYH","382GHPVPHSDM8N0F9141EAH7F0K34Z","","821","img/land5.png","75","827","2","1","3","2","0.8,0.2,0.2,0.2,0.8,0.2,0.2,0.2,0.8","0.2,0.2,0.8,0.8,0.2,0.2,0.2,0.8,0.2","2","",""
"","html-keyboard-response","211","300183","0.0-211.0","31EUONYN2WPCA9AA3XUI0MBJVUCVOO","A2S6QOCFC3EAYH","382GHPVPHSDM8N0F9141EAH7F0K34Z","","null","<img src=""img/land5.png"" style=""width:200px; border:14px solid green;"">","null","","","","","","","","","",""
"","image-keyboard-response","212","301254","0.0-212.0","31EUONYN2WPCA9AA3XUI0MBJVUCVOO","A2S6QOCFC3EAYH","382GHPVPHSDM8N0F9141EAH7F0K34Z","","1065","img/land1.png","75","1068","2","0","2","2","0.8,0.2,0.2,0.2,0.8,0.2,0.2,0.2,0.8","0.2,0.2,0.8,0.8,0.2,0.2,0.2,0.8,0.2","2","",""
"","html-keyboard-response","213","301561","0.0-213.0","31EUONYN2WPCA9AA3XUI0MBJVUCVOO","A2S6QOCFC3EAYH","382GHPVPHSDM8N0F9141EAH7F0K34Z","","null","<img src=""img/land1.png"" style=""width:200px;border:14px solid red;"">","null","","","","","","","","","",""
"","image-keyboard-response","214","302222","0.0-214.0","31EUONYN2WPCA9AA3XUI0MBJVUCVOO","A2S6QOCFC3EAYH","382GHPVPHSDM8N0F9141EAH7F0K34Z","","655","img/land3.png","74","658","1","0","1","2","0.8,0.2,0.2,0.2,0.8,0.2,0.2,0.2,0.8","0.2,0.2,0.8,0.8,0.2,0.2,0.2,0.8,0.2","2","",""
"","html-keyboard-response","215","302547","0.0-215.0","31EUONYN2WPCA9AA3XUI0MBJVUCVOO","A2S6QOCFC3EAYH","382GHPVPHSDM8N0F9141EAH7F0K34Z","","null","<img src=""img/land3.png"" style=""width:200px;border:14px solid red;"">","null","","","","","","","","","",""
"","image-keyboard-response","216","303250","0.0-216.0","31EUONYN2WPCA9AA3XUI0MBJVUCVOO","A2S6QOCFC3EAYH","382GHPVPHSDM8N0F9141EAH7F0K34Z","","699","img/land5.png","76","701","3","0","3","2","0.8,0.2,0.2,0.2,0.8,0.2,0.2,0.2,0.8","0.2,0.2,0.8,0.8,0.2,0.2,0.2,0.8,0.2","2","",""
"","html-keyboard-response","217","303556","0.0-217.0","31EUONYN2WPCA9AA3XUI0MBJVUCVOO","A2S6QOCFC3EAYH","382GHPVPHSDM8N0F9141EAH7F0K34Z","","null","<img src=""img/land5.png"" style=""width:200px;border:14px solid red;"">","null","","","","","","","","","",""
"","image-keyboard-response","218","304250","0.0-218.0","31EUONYN2WPCA9AA3XUI0MBJVUCVOO","A2S6QOCFC3EAYH","382GHPVPHSDM8N0F9141EAH7F0K34Z","","689","img/land3.png","74","692","1","0","1","2","0.8,0.2,0.2,0.2,0.8,0.2,0.2,0.2,0.8","0.2,0.2,0.8,0.8,0.2,0.2,0.2,0.8,0.2","2","",""
"","html-keyboard-response","219","304559","0.0-219.0","31EUONYN2WPCA9AA3XUI0MBJVUCVOO","A2S6QOCFC3EAYH","382GHPVPHSDM8N0F9141EAH7F0K34Z","","null","<img src=""img/land3.png"" style=""width:200px;border:14px solid red;"">","null","","","","","","","","","",""
"","image-keyboard-response","220","305374","0.0-220.0","31EUONYN2WPCA9AA3XUI0MBJVUCVOO","A2S6QOCFC3EAYH","382GHPVPHSDM8N0F9141EAH7F0K34Z","","809","img/land3.png","76","814","3","1","1","2","0.8,0.2,0.2,0.2,0.8,0.2,0.2,0.2,0.8","0.2,0.2,0.8,0.8,0.2,0.2,0.2,0.8,0.2","2","",""
"","html-keyboard-response","221","305681","0.0-221.0","31EUONYN2WPCA9AA3XUI0MBJVUCVOO","A2S6QOCFC3EAYH","382GHPVPHSDM8N0F9141EAH7F0K34Z","","null","<img src=""img/land3.png"" style=""width:200px; border:14px solid green;"">","null","","","","","","","","","",""
"","image-keyboard-response","222","306361","0.0-222.0","31EUONYN2WPCA9AA3XUI0MBJVUCVOO","A2S6QOCFC3EAYH","382GHPVPHSDM8N0F9141EAH7F0K34Z","","676","img/land3.png","76","679","3","1","1","2","0.8,0.2,0.2,0.2,0.8,0.2,0.2,0.2,0.8","0.2,0.2,0.8,0.8,0.2,0.2,0.2,0.8,0.2","2","",""
"","html-keyboard-response","223","306672","0.0-223.0","31EUONYN2WPCA9AA3XUI0MBJVUCVOO","A2S6QOCFC3EAYH","382GHPVPHSDM8N0F9141EAH7F0K34Z","","null","<img src=""img/land3.png"" style=""width:200px; border:14px solid green;"">","null","","","","","","","","","",""
"","image-keyboard-response","224","307657","0.0-224.0","31EUONYN2WPCA9AA3XUI0MBJVUCVOO","A2S6QOCFC3EAYH","382GHPVPHSDM8N0F9141EAH7F0K34Z","","980","img/land1.png","76","984","3","0","2","2","0.8,0.2,0.2,0.2,0.8,0.2,0.2,0.2,0.8","0.2,0.2,0.8,0.8,0.2,0.2,0.2,0.8,0.2","2","",""
"","html-keyboard-response","225","307965","0.0-225.0","31EUONYN2WPCA9AA3XUI0MBJVUCVOO","A2S6QOCFC3EAYH","382GHPVPHSDM8N0F9141EAH7F0K34Z","","null","<img src=""img/land1.png"" style=""width:200px;border:14px solid red;"">","null","","","","","","","","","",""
"","image-keyboard-response","226","308530","0.0-226.0","31EUONYN2WPCA9AA3XUI0MBJVUCVOO","A2S6QOCFC3EAYH","382GHPVPHSDM8N0F9141EAH7F0K34Z","","558","img/land5.png","74","563","1","0","3","2","0.8,0.2,0.2,0.2,0.8,0.2,0.2,0.2,0.8","0.2,0.2,0.8,0.8,0.2,0.2,0.2,0.8,0.2","2","",""
"","html-keyboard-response","227","308836","0.0-227.0","31EUONYN2WPCA9AA3XUI0MBJVUCVOO","A2S6QOCFC3EAYH","382GHPVPHSDM8N0F9141EAH7F0K34Z","","null","<img src=""img/land5.png"" style=""width:200px;border:14px solid red;"">","null","","","","","","","","","",""
"","image-keyboard-response","228","309698","0.0-228.0","31EUONYN2WPCA9AA3XUI0MBJVUCVOO","A2S6QOCFC3EAYH","382GHPVPHSDM8N0F9141EAH7F0K34Z","","856","img/land3.png","75","861","2","0","1","2","0.8,0.2,0.2,0.2,0.8,0.2,0.2,0.2,0.8","0.2,0.2,0.8,0.8,0.2,0.2,0.2,0.8,0.2","2","",""
"","html-keyboard-response","229","310006","0.0-229.0","31EUONYN2WPCA9AA3XUI0MBJVUCVOO","A2S6QOCFC3EAYH","382GHPVPHSDM8N0F9141EAH7F0K34Z","","null","<img src=""img/land3.png"" style=""width:200px;border:14px solid red;"">","null","","","","","","","","","",""
"","image-keyboard-response","230","310943","0.0-230.0","31EUONYN2WPCA9AA3XUI0MBJVUCVOO","A2S6QOCFC3EAYH","382GHPVPHSDM8N0F9141EAH7F0K34Z","","932","img/land5.png","74","935","1","0","3","2","0.8,0.2,0.2,0.2,0.8,0.2,0.2,0.2,0.8","0.2,0.2,0.8,0.8,0.2,0.2,0.2,0.8,0.2","2","",""
"","html-keyboard-response","231","311253","0.0-231.0","31EUONYN2WPCA9AA3XUI0MBJVUCVOO","A2S6QOCFC3EAYH","382GHPVPHSDM8N0F9141EAH7F0K34Z","","null","<img src=""img/land5.png"" style=""width:200px;border:14px solid red;"">","null","","","","","","","","","",""
"","image-keyboard-response","232","312108","0.0-232.0","31EUONYN2WPCA9AA3XUI0MBJVUCVOO","A2S6QOCFC3EAYH","382GHPVPHSDM8N0F9141EAH7F0K34Z","","849","img/land3.png","76","853","3","1","1","2","0.8,0.2,0.2,0.2,0.8,0.2,0.2,0.2,0.8","0.2,0.2,0.8,0.8,0.2,0.2,0.2,0.8,0.2","2","",""
"","html-keyboard-response","233","312414","0.0-233.0","31EUONYN2WPCA9AA3XUI0MBJVUCVOO","A2S6QOCFC3EAYH","382GHPVPHSDM8N0F9141EAH7F0K34Z","","null","<img src=""img/land3.png"" style=""width:200px; border:14px solid green;"">","null","","","","","","","","","",""
"","image-keyboard-response","234","313133","0.0-234.0","31EUONYN2WPCA9AA3XUI0MBJVUCVOO","A2S6QOCFC3EAYH","382GHPVPHSDM8N0F9141EAH7F0K34Z","","713","img/land5.png","76","717","3","0","3","2","0.8,0.2,0.2,0.2,0.8,0.2,0.2,0.2,0.8","0.2,0.2,0.8,0.8,0.2,0.2,0.2,0.8,0.2","2","",""
"","html-keyboard-response","235","313440","0.0-235.0","31EUONYN2WPCA9AA3XUI0MBJVUCVOO","A2S6QOCFC3EAYH","382GHPVPHSDM8N0F9141EAH7F0K34Z","","null","<img src=""img/land5.png"" style=""width:200px;border:14px solid red;"">","null","","","","","","","","","",""
"","image-keyboard-response","236","314159","0.0-236.0","31EUONYN2WPCA9AA3XUI0MBJVUCVOO","A2S6QOCFC3EAYH","382GHPVPHSDM8N0F9141EAH7F0K34Z","","712","img/land3.png","74","716","1","0","1","2","0.8,0.2,0.2,0.2,0.8,0.2,0.2,0.2,0.8","0.2,0.2,0.8,0.8,0.2,0.2,0.2,0.8,0.2","2","",""
"","html-keyboard-response","237","314465","0.0-237.0","31EUONYN2WPCA9AA3XUI0MBJVUCVOO","A2S6QOCFC3EAYH","382GHPVPHSDM8N0F9141EAH7F0K34Z","","null","<img src=""img/land3.png"" style=""width:200px;border:14px solid red;"">","null","","","","","","","","","",""
"","image-keyboard-response","238","315328","0.0-238.0","31EUONYN2WPCA9AA3XUI0MBJVUCVOO","A2S6QOCFC3EAYH","382GHPVPHSDM8N0F9141EAH7F0K34Z","","856","img/land5.png","75","861","2","1","3","2","0.8,0.2,0.2,0.2,0.8,0.2,0.2,0.2,0.8","0.2,0.2,0.8,0.8,0.2,0.2,0.2,0.8,0.2","2","",""
"","html-keyboard-response","239","315635","0.0-239.0","31EUONYN2WPCA9AA3XUI0MBJVUCVOO","A2S6QOCFC3EAYH","382GHPVPHSDM8N0F9141EAH7F0K34Z","","null","<img src=""img/land5.png"" style=""width:200px; border:14px solid green;"">","null","","","","","","","","","",""
"","image-keyboard-response","240","316313","0.0-240.0","31EUONYN2WPCA9AA3XUI0MBJVUCVOO","A2S6QOCFC3EAYH","382GHPVPHSDM8N0F9141EAH7F0K34Z","","673","img/land5.png","75","676","2","1","3","2","0.8,0.2,0.2,0.2,0.8,0.2,0.2,0.2,0.8","0.2,0.2,0.8,0.8,0.2,0.2,0.2,0.8,0.2","2","",""
"","html-keyboard-response","241","316620","0.0-241.0","31EUONYN2WPCA9AA3XUI0MBJVUCVOO","A2S6QOCFC3EAYH","382GHPVPHSDM8N0F9141EAH7F0K34Z","","null","<img src=""img/land5.png"" style=""width:200px; border:14px solid green;"">","null","","","","","","","","","",""
"","image-keyboard-response","242","317354","0.0-242.0","31EUONYN2WPCA9AA3XUI0MBJVUCVOO","A2S6QOCFC3EAYH","382GHPVPHSDM8N0F9141EAH7F0K34Z","","729","img/land5.png","75","732","2","1","3","2","0.8,0.2,0.2,0.2,0.8,0.2,0.2,0.2,0.8","0.2,0.2,0.8,0.8,0.2,0.2,0.2,0.8,0.2","2","",""
"","html-keyboard-response","243","317661","0.0-243.0","31EUONYN2WPCA9AA3XUI0MBJVUCVOO","A2S6QOCFC3EAYH","382GHPVPHSDM8N0F9141EAH7F0K34Z","","null","<img src=""img/land5.png"" style=""width:200px; border:14px solid green;"">","null","","","","","","","","","",""
"","image-keyboard-response","244","318700","0.0-244.0","31EUONYN2WPCA9AA3XUI0MBJVUCVOO","A2S6QOCFC3EAYH","382GHPVPHSDM8N0F9141EAH7F0K34Z","","1034","img/land3.png","76","1037","3","1","1","2","0.8,0.2,0.2,0.2,0.8,0.2,0.2,0.2,0.8","0.2,0.2,0.8,0.8,0.2,0.2,0.2,0.8,0.2","2","",""
"","html-keyboard-response","245","319006","0.0-245.0","31EUONYN2WPCA9AA3XUI0MBJVUCVOO","A2S6QOCFC3EAYH","382GHPVPHSDM8N0F9141EAH7F0K34Z","","null","<img src=""img/land3.png"" style=""width:200px; border:14px solid green;"">","null","","","","","","","","","",""
"","image-keyboard-response","246","320052","0.0-246.0","31EUONYN2WPCA9AA3XUI0MBJVUCVOO","A2S6QOCFC3EAYH","382GHPVPHSDM8N0F9141EAH7F0K34Z","","1040","img/land5.png","75","1044","2","0","3","2","0.8,0.2,0.2,0.2,0.8,0.2,0.2,0.2,0.8","0.2,0.2,0.8,0.8,0.2,0.2,0.2,0.8,0.2","2","",""
"","html-keyboard-response","247","320360","0.0-247.0","31EUONYN2WPCA9AA3XUI0MBJVUCVOO","A2S6QOCFC3EAYH","382GHPVPHSDM8N0F9141EAH7F0K34Z","","null","<img src=""img/land5.png"" style=""width:200px;border:14px solid red;"">","null","","","","","","","","","",""
"","image-keyboard-response","248","321239","0.0-248.0","31EUONYN2WPCA9AA3XUI0MBJVUCVOO","A2S6QOCFC3EAYH","382GHPVPHSDM8N0F9141EAH7F0K34Z","","873","img/land5.png","76","876","3","0","3","2","0.8,0.2,0.2,0.2,0.8,0.2,0.2,0.2,0.8","0.2,0.2,0.8,0.8,0.2,0.2,0.2,0.8,0.2","2","",""
"","html-keyboard-response","249","321546","0.0-249.0","31EUONYN2WPCA9AA3XUI0MBJVUCVOO","A2S6QOCFC3EAYH","382GHPVPHSDM8N0F9141EAH7F0K34Z","","null","<img src=""img/land5.png"" style=""width:200px;border:14px solid red;"">","null","","","","","","","","","",""
"","image-keyboard-response","250","322339","0.0-250.0","31EUONYN2WPCA9AA3XUI0MBJVUCVOO","A2S6QOCFC3EAYH","382GHPVPHSDM8N0F9141EAH7F0K34Z","","787","img/land3.png","74","791","1","1","1","2","0.8,0.2,0.2,0.2,0.8,0.2,0.2,0.2,0.8","0.2,0.2,0.8,0.8,0.2,0.2,0.2,0.8,0.2","2","",""
"","html-keyboard-response","251","322647","0.0-251.0","31EUONYN2WPCA9AA3XUI0MBJVUCVOO","A2S6QOCFC3EAYH","382GHPVPHSDM8N0F9141EAH7F0K34Z","","null","<img src=""img/land3.png"" style=""width:200px; border:14px solid green;"">","null","","","","","","","","","",""
"","image-keyboard-response","252","323263","0.0-252.0","31EUONYN2WPCA9AA3XUI0MBJVUCVOO","A2S6QOCFC3EAYH","382GHPVPHSDM8N0F9141EAH7F0K34Z","","610","img/land3.png","74","613","1","0","1","2","0.8,0.2,0.2,0.2,0.8,0.2,0.2,0.2,0.8","0.2,0.2,0.8,0.8,0.2,0.2,0.2,0.8,0.2","2","",""
"","html-keyboard-response","253","323571","0.0-253.0","31EUONYN2WPCA9AA3XUI0MBJVUCVOO","A2S6QOCFC3EAYH","382GHPVPHSDM8N0F9141EAH7F0K34Z","","null","<img src=""img/land3.png"" style=""width:200px;border:14px solid red;"">","null","","","","","","","","","",""
"","image-keyboard-response","254","324239","0.0-254.0","31EUONYN2WPCA9AA3XUI0MBJVUCVOO","A2S6QOCFC3EAYH","382GHPVPHSDM8N0F9141EAH7F0K34Z","","660","img/land5.png","75","666","2","0","3","2","0.8,0.2,0.2,0.2,0.8,0.2,0.2,0.2,0.8","0.2,0.2,0.8,0.8,0.2,0.2,0.2,0.8,0.2","2","",""
"","html-keyboard-response","255","324553","0.0-255.0","31EUONYN2WPCA9AA3XUI0MBJVUCVOO","A2S6QOCFC3EAYH","382GHPVPHSDM8N0F9141EAH7F0K34Z","","null","<img src=""img/land5.png"" style=""width:200px;border:14px solid red;"">","null","","","","","","","","","",""
"","image-keyboard-response","256","325246","0.0-256.0","31EUONYN2WPCA9AA3XUI0MBJVUCVOO","A2S6QOCFC3EAYH","382GHPVPHSDM8N0F9141EAH7F0K34Z","","685","img/land3.png","76","690","3","0","1","2","0.8,0.2,0.2,0.2,0.8,0.2,0.2,0.2,0.8","0.2,0.2,0.8,0.8,0.2,0.2,0.2,0.8,0.2","2","",""
"","html-keyboard-response","257","325553","0.0-257.0","31EUONYN2WPCA9AA3XUI0MBJVUCVOO","A2S6QOCFC3EAYH","382GHPVPHSDM8N0F9141EAH7F0K34Z","","null","<img src=""img/land3.png"" style=""width:200px;border:14px solid red;"">","null","","","","","","","","","",""
"","image-keyboard-response","258","326130","0.0-258.0","31EUONYN2WPCA9AA3XUI0MBJVUCVOO","A2S6QOCFC3EAYH","382GHPVPHSDM8N0F9141EAH7F0K34Z","","572","img/land3.png","74","576","1","0","1","2","0.8,0.2,0.2,0.2,0.8,0.2,0.2,0.2,0.8","0.2,0.2,0.8,0.8,0.2,0.2,0.2,0.8,0.2","2","",""
"","html-keyboard-response","259","326449","0.0-259.0","31EUONYN2WPCA9AA3XUI0MBJVUCVOO","A2S6QOCFC3EAYH","382GHPVPHSDM8N0F9141EAH7F0K34Z","","null","<img src=""img/land3.png"" style=""width:200px;border:14px solid red;"">","null","","","","","","","","","",""
"","image-keyboard-response","260","327259","0.0-260.0","31EUONYN2WPCA9AA3XUI0MBJVUCVOO","A2S6QOCFC3EAYH","382GHPVPHSDM8N0F9141EAH7F0K34Z","","804","img/land3.png","75","808","2","0","1","2","0.8,0.2,0.2,0.2,0.8,0.2,0.2,0.2,0.8","0.2,0.2,0.8,0.8,0.2,0.2,0.2,0.8,0.2","2","",""
"","html-keyboard-response","261","327566","0.0-261.0","31EUONYN2WPCA9AA3XUI0MBJVUCVOO","A2S6QOCFC3EAYH","382GHPVPHSDM8N0F9141EAH7F0K34Z","","null","<img src=""img/land3.png"" style=""width:200px;border:14px solid red;"">","null","","","","","","","","","",""
"","image-keyboard-response","262","328404","0.0-262.0","31EUONYN2WPCA9AA3XUI0MBJVUCVOO","A2S6QOCFC3EAYH","382GHPVPHSDM8N0F9141EAH7F0K34Z","","833","img/land3.png","76","837","3","1","1","2","0.8,0.2,0.2,0.2,0.8,0.2,0.2,0.2,0.8","0.2,0.2,0.8,0.8,0.2,0.2,0.2,0.8,0.2","2","",""
"","html-keyboard-response","263","328712","0.0-263.0","31EUONYN2WPCA9AA3XUI0MBJVUCVOO","A2S6QOCFC3EAYH","382GHPVPHSDM8N0F9141EAH7F0K34Z","","null","<img src=""img/land3.png"" style=""width:200px; border:14px solid green;"">","null","","","","","","","","","",""
"","image-keyboard-response","264","329341","0.0-264.0","31EUONYN2WPCA9AA3XUI0MBJVUCVOO","A2S6QOCFC3EAYH","382GHPVPHSDM8N0F9141EAH7F0K34Z","","623","img/land3.png","76","627","3","1","1","2","0.8,0.2,0.2,0.2,0.8,0.2,0.2,0.2,0.8","0.2,0.2,0.8,0.8,0.2,0.2,0.2,0.8,0.2","2","",""
"","html-keyboard-response","265","329648","0.0-265.0","31EUONYN2WPCA9AA3XUI0MBJVUCVOO","A2S6QOCFC3EAYH","382GHPVPHSDM8N0F9141EAH7F0K34Z","","null","<img src=""img/land3.png"" style=""width:200px; border:14px solid green;"">","null","","","","","","","","","",""
"","image-keyboard-response","266","330758","0.0-266.0","31EUONYN2WPCA9AA3XUI0MBJVUCVOO","A2S6QOCFC3EAYH","382GHPVPHSDM8N0F9141EAH7F0K34Z","","1104","img/land5.png","75","1109","2","1","3","2","0.8,0.2,0.2,0.2,0.8,0.2,0.2,0.2,0.8","0.2,0.2,0.8,0.8,0.2,0.2,0.2,0.8,0.2","2","",""
"","html-keyboard-response","267","331065","0.0-267.0","31EUONYN2WPCA9AA3XUI0MBJVUCVOO","A2S6QOCFC3EAYH","382GHPVPHSDM8N0F9141EAH7F0K34Z","","null","<img src=""img/land5.png"" style=""width:200px; border:14px solid green;"">","null","","","","","","","","","",""
"","image-keyboard-response","268","332159","0.0-268.0","31EUONYN2WPCA9AA3XUI0MBJVUCVOO","A2S6QOCFC3EAYH","382GHPVPHSDM8N0F9141EAH7F0K34Z","","1088","img/land1.png","74","1092","1","1","2","2","0.8,0.2,0.2,0.2,0.8,0.2,0.2,0.2,0.8","0.2,0.2,0.8,0.8,0.2,0.2,0.2,0.8,0.2","2","",""
"","html-keyboard-response","269","332469","0.0-269.0","31EUONYN2WPCA9AA3XUI0MBJVUCVOO","A2S6QOCFC3EAYH","382GHPVPHSDM8N0F9141EAH7F0K34Z","","null","<img src=""img/land1.png"" style=""width:200px; border:14px solid green;"">","null","","","","","","","","","",""
"","image-keyboard-response","270","333268","0.0-270.0","31EUONYN2WPCA9AA3XUI0MBJVUCVOO","A2S6QOCFC3EAYH","382GHPVPHSDM8N0F9141EAH7F0K34Z","","794","img/land3.png","75","796","2","0","1","2","0.8,0.2,0.2,0.2,0.8,0.2,0.2,0.2,0.8","0.2,0.2,0.8,0.8,0.2,0.2,0.2,0.8,0.2","2","",""
"","html-keyboard-response","271","333575","0.0-271.0","31EUONYN2WPCA9AA3XUI0MBJVUCVOO","A2S6QOCFC3EAYH","382GHPVPHSDM8N0F9141EAH7F0K34Z","","null","<img src=""img/land3.png"" style=""width:200px;border:14px solid red;"">","null","","","","","","","","","",""
"","image-keyboard-response","272","334497","0.0-272.0","31EUONYN2WPCA9AA3XUI0MBJVUCVOO","A2S6QOCFC3EAYH","382GHPVPHSDM8N0F9141EAH7F0K34Z","","915","img/land3.png","74","918","1","0","1","2","0.8,0.2,0.2,0.2,0.8,0.2,0.2,0.2,0.8","0.2,0.2,0.8,0.8,0.2,0.2,0.2,0.8,0.2","2","",""
"","html-keyboard-response","273","334839","0.0-273.0","31EUONYN2WPCA9AA3XUI0MBJVUCVOO","A2S6QOCFC3EAYH","382GHPVPHSDM8N0F9141EAH7F0K34Z","","null","<img src=""img/land3.png"" style=""width:200px;border:14px solid red;"">","null","","","","","","","","","",""
"","image-keyboard-response","274","335472","0.0-274.0","31EUONYN2WPCA9AA3XUI0MBJVUCVOO","A2S6QOCFC3EAYH","382GHPVPHSDM8N0F9141EAH7F0K34Z","","625","img/land1.png","76","630","3","1","2","2","0.8,0.2,0.2,0.2,0.8,0.2,0.2,0.2,0.8","0.2,0.2,0.8,0.8,0.2,0.2,0.2,0.8,0.2","2","",""
"","html-keyboard-response","275","335780","0.0-275.0","31EUONYN2WPCA9AA3XUI0MBJVUCVOO","A2S6QOCFC3EAYH","382GHPVPHSDM8N0F9141EAH7F0K34Z","","null","<img src=""img/land1.png"" style=""width:200px; border:14px solid green;"">","null","","","","","","","","","",""
"","image-keyboard-response","276","336604","0.0-276.0","31EUONYN2WPCA9AA3XUI0MBJVUCVOO","A2S6QOCFC3EAYH","382GHPVPHSDM8N0F9141EAH7F0K34Z","","817","img/land1.png","76","823","3","0","2","2","0.8,0.2,0.2,0.2,0.8,0.2,0.2,0.2,0.8","0.2,0.2,0.8,0.8,0.2,0.2,0.2,0.8,0.2","2","",""
"","html-keyboard-response","277","336917","0.0-277.0","31EUONYN2WPCA9AA3XUI0MBJVUCVOO","A2S6QOCFC3EAYH","382GHPVPHSDM8N0F9141EAH7F0K34Z","","null","<img src=""img/land1.png"" style=""width:200px;border:14px solid red;"">","null","","","","","","","","","",""
"","image-keyboard-response","278","337743","0.0-278.0","31EUONYN2WPCA9AA3XUI0MBJVUCVOO","A2S6QOCFC3EAYH","382GHPVPHSDM8N0F9141EAH7F0K34Z","","819","img/land3.png","74","825","1","0","1","2","0.8,0.2,0.2,0.2,0.8,0.2,0.2,0.2,0.8","0.2,0.2,0.8,0.8,0.2,0.2,0.2,0.8,0.2","2","",""
"","html-keyboard-response","279","338049","0.0-279.0","31EUONYN2WPCA9AA3XUI0MBJVUCVOO","A2S6QOCFC3EAYH","382GHPVPHSDM8N0F9141EAH7F0K34Z","","null","<img src=""img/land3.png"" style=""width:200px;border:14px solid red;"">","null","","","","","","","","","",""
"","image-keyboard-response","280","338923","0.0-280.0","31EUONYN2WPCA9AA3XUI0MBJVUCVOO","A2S6QOCFC3EAYH","382GHPVPHSDM8N0F9141EAH7F0K34Z","","869","img/land3.png","76","872","3","1","1","2","0.8,0.2,0.2,0.2,0.8,0.2,0.2,0.2,0.8","0.2,0.2,0.8,0.8,0.2,0.2,0.2,0.8,0.2","2","",""
"","html-keyboard-response","281","339230","0.0-281.0","31EUONYN2WPCA9AA3XUI0MBJVUCVOO","A2S6QOCFC3EAYH","382GHPVPHSDM8N0F9141EAH7F0K34Z","","null","<img src=""img/land3.png"" style=""width:200px; border:14px solid green;"">","null","","","","","","","","","",""
"","image-keyboard-response","282","339957","0.0-282.0","31EUONYN2WPCA9AA3XUI0MBJVUCVOO","A2S6QOCFC3EAYH","382GHPVPHSDM8N0F9141EAH7F0K34Z","","723","img/land3.png","76","726","3","1","1","2","0.8,0.2,0.2,0.2,0.8,0.2,0.2,0.2,0.8","0.2,0.2,0.8,0.8,0.2,0.2,0.2,0.8,0.2","2","",""
"","html-keyboard-response","283","340265","0.0-283.0","31EUONYN2WPCA9AA3XUI0MBJVUCVOO","A2S6QOCFC3EAYH","382GHPVPHSDM8N0F9141EAH7F0K34Z","","null","<img src=""img/land3.png"" style=""width:200px; border:14px solid green;"">","null","","","","","","","","","",""
"","image-keyboard-response","284","341402","0.0-284.0","31EUONYN2WPCA9AA3XUI0MBJVUCVOO","A2S6QOCFC3EAYH","382GHPVPHSDM8N0F9141EAH7F0K34Z","","1131","img/land3.png","76","1134","3","1","1","2","0.8,0.2,0.2,0.2,0.8,0.2,0.2,0.2,0.8","0.2,0.2,0.8,0.8,0.2,0.2,0.2,0.8,0.2","2","",""
"","html-keyboard-response","285","341709","0.0-285.0","31EUONYN2WPCA9AA3XUI0MBJVUCVOO","A2S6QOCFC3EAYH","382GHPVPHSDM8N0F9141EAH7F0K34Z","","null","<img src=""img/land3.png"" style=""width:200px; border:14px solid green;"">","null","","","","","","","","","",""
"","image-keyboard-response","286","342604","0.0-286.0","31EUONYN2WPCA9AA3XUI0MBJVUCVOO","A2S6QOCFC3EAYH","382GHPVPHSDM8N0F9141EAH7F0K34Z","","889","img/land3.png","76","893","3","0","1","2","0.8,0.2,0.2,0.2,0.8,0.2,0.2,0.2,0.8","0.2,0.2,0.8,0.8,0.2,0.2,0.2,0.8,0.2","2","",""
"","html-keyboard-response","287","342916","0.0-287.0","31EUONYN2WPCA9AA3XUI0MBJVUCVOO","A2S6QOCFC3EAYH","382GHPVPHSDM8N0F9141EAH7F0K34Z","","null","<img src=""img/land3.png"" style=""width:200px;border:14px solid red;"">","null","","","","","","","","","",""
"","image-keyboard-response","288","344120","0.0-288.0","31EUONYN2WPCA9AA3XUI0MBJVUCVOO","A2S6QOCFC3EAYH","382GHPVPHSDM8N0F9141EAH7F0K34Z","","1198","img/land3.png","75","1201","2","0","1","2","0.8,0.2,0.2,0.2,0.8,0.2,0.2,0.2,0.8","0.2,0.2,0.8,0.8,0.2,0.2,0.2,0.8,0.2","2","",""
"","html-keyboard-response","289","344426","0.0-289.0","31EUONYN2WPCA9AA3XUI0MBJVUCVOO","A2S6QOCFC3EAYH","382GHPVPHSDM8N0F9141EAH7F0K34Z","","null","<img src=""img/land3.png"" style=""width:200px;border:14px solid red;"">","null","","","","","","","","","",""
"","image-keyboard-response","290","345004","0.0-290.0","31EUONYN2WPCA9AA3XUI0MBJVUCVOO","A2S6QOCFC3EAYH","382GHPVPHSDM8N0F9141EAH7F0K34Z","","571","img/land3.png","74","575","1","0","1","2","0.8,0.2,0.2,0.2,0.8,0.2,0.2,0.2,0.8","0.2,0.2,0.8,0.8,0.2,0.2,0.2,0.8,0.2","2","",""
"","html-keyboard-response","291","345318","0.0-291.0","31EUONYN2WPCA9AA3XUI0MBJVUCVOO","A2S6QOCFC3EAYH","382GHPVPHSDM8N0F9141EAH7F0K34Z","","null","<img src=""img/land3.png"" style=""width:200px;border:14px solid red;"">","null","","","","","","","","","",""
"","image-keyboard-response","292","345861","0.0-292.0","31EUONYN2WPCA9AA3XUI0MBJVUCVOO","A2S6QOCFC3EAYH","382GHPVPHSDM8N0F9141EAH7F0K34Z","","537","img/land3.png","76","540","3","1","1","2","0.8,0.2,0.2,0.2,0.8,0.2,0.2,0.2,0.8","0.2,0.2,0.8,0.8,0.2,0.2,0.2,0.8,0.2","2","",""
"","html-keyboard-response","293","346169","0.0-293.0","31EUONYN2WPCA9AA3XUI0MBJVUCVOO","A2S6QOCFC3EAYH","382GHPVPHSDM8N0F9141EAH7F0K34Z","","null","<img src=""img/land3.png"" style=""width:200px; border:14px solid green;"">","null","","","","","","","","","",""
"","image-keyboard-response","294","346803","0.0-294.0","31EUONYN2WPCA9AA3XUI0MBJVUCVOO","A2S6QOCFC3EAYH","382GHPVPHSDM8N0F9141EAH7F0K34Z","","628","img/land3.png","76","632","3","1","1","2","0.8,0.2,0.2,0.2,0.8,0.2,0.2,0.2,0.8","0.2,0.2,0.8,0.8,0.2,0.2,0.2,0.8,0.2","2","",""
"","html-keyboard-response","295","347110","0.0-295.0","31EUONYN2WPCA9AA3XUI0MBJVUCVOO","A2S6QOCFC3EAYH","382GHPVPHSDM8N0F9141EAH7F0K34Z","","null","<img src=""img/land3.png"" style=""width:200px; border:14px solid green;"">","null","","","","","","","","","",""
"","image-keyboard-response","296","347724","0.0-296.0","31EUONYN2WPCA9AA3XUI0MBJVUCVOO","A2S6QOCFC3EAYH","382GHPVPHSDM8N0F9141EAH7F0K34Z","","605","img/land3.png","76","608","3","1","1","2","0.8,0.2,0.2,0.2,0.8,0.2,0.2,0.2,0.8","0.2,0.2,0.8,0.8,0.2,0.2,0.2,0.8,0.2","2","",""
"","html-keyboard-response","297","348033","0.0-297.0","31EUONYN2WPCA9AA3XUI0MBJVUCVOO","A2S6QOCFC3EAYH","382GHPVPHSDM8N0F9141EAH7F0K34Z","","null","<img src=""img/land3.png"" style=""width:200px; border:14px solid green;"">","null","","","","","","","","","",""
"","image-keyboard-response","298","348671","0.0-298.0","31EUONYN2WPCA9AA3XUI0MBJVUCVOO","A2S6QOCFC3EAYH","382GHPVPHSDM8N0F9141EAH7F0K34Z","","632","img/land3.png","76","637","3","1","1","2","0.8,0.2,0.2,0.2,0.8,0.2,0.2,0.2,0.8","0.2,0.2,0.8,0.8,0.2,0.2,0.2,0.8,0.2","2","",""
"","html-keyboard-response","299","348978","0.0-299.0","31EUONYN2WPCA9AA3XUI0MBJVUCVOO","A2S6QOCFC3EAYH","382GHPVPHSDM8N0F9141EAH7F0K34Z","","null","<img src=""img/land3.png"" style=""width:200px; border:14px solid green;"">","null","","","","","","","","","",""
"","image-keyboard-response","300","349784","0.0-300.0","31EUONYN2WPCA9AA3XUI0MBJVUCVOO","A2S6QOCFC3EAYH","382GHPVPHSDM8N0F9141EAH7F0K34Z","","801","img/land3.png","76","805","3","1","1","2","0.8,0.2,0.2,0.2,0.8,0.2,0.2,0.2,0.8","0.2,0.2,0.8,0.8,0.2,0.2,0.2,0.8,0.2","2","",""
"","html-keyboard-response","301","350090","0.0-301.0","31EUONYN2WPCA9AA3XUI0MBJVUCVOO","A2S6QOCFC3EAYH","382GHPVPHSDM8N0F9141EAH7F0K34Z","","null","<img src=""img/land3.png"" style=""width:200px; border:14px solid green;"">","null","","","","","","","","","",""
"","image-keyboard-response","302","351456","0.0-302.0","31EUONYN2WPCA9AA3XUI0MBJVUCVOO","A2S6QOCFC3EAYH","382GHPVPHSDM8N0F9141EAH7F0K34Z","","1360","img/land4.png","75","1364","2","0","1","1","0.8,0.2,0.2,0.2,0.8,0.2,0.2,0.2,0.8","0.8,0.2,0.2,0.2,0.8,0.2,0.2,0.2,0.8","1","",""
"","html-keyboard-response","303","351762","0.0-303.0","31EUONYN2WPCA9AA3XUI0MBJVUCVOO","A2S6QOCFC3EAYH","382GHPVPHSDM8N0F9141EAH7F0K34Z","","null","<img src=""img/land4.png"" style=""width:200px;border:14px solid red;"">","null","","","","","","","","","",""
"","image-keyboard-response","304","352632","0.0-304.0","31EUONYN2WPCA9AA3XUI0MBJVUCVOO","A2S6QOCFC3EAYH","382GHPVPHSDM8N0F9141EAH7F0K34Z","","864","img/land2.png","74","868","1","1","2","1","0.8,0.2,0.2,0.2,0.8,0.2,0.2,0.2,0.8","0.8,0.2,0.2,0.2,0.8,0.2,0.2,0.2,0.8","1","",""
"","html-keyboard-response","305","352940","0.0-305.0","31EUONYN2WPCA9AA3XUI0MBJVUCVOO","A2S6QOCFC3EAYH","382GHPVPHSDM8N0F9141EAH7F0K34Z","","null","<img src=""img/land2.png"" style=""width:200px; border:14px solid green;"">","null","","","","","","","","","",""
"","image-keyboard-response","306","353882","0.0-306.0","31EUONYN2WPCA9AA3XUI0MBJVUCVOO","A2S6QOCFC3EAYH","382GHPVPHSDM8N0F9141EAH7F0K34Z","","936","img/land4.png","75","941","2","0","1","1","0.8,0.2,0.2,0.2,0.8,0.2,0.2,0.2,0.8","0.8,0.2,0.2,0.2,0.8,0.2,0.2,0.2,0.8","1","",""
"","html-keyboard-response","307","354190","0.0-307.0","31EUONYN2WPCA9AA3XUI0MBJVUCVOO","A2S6QOCFC3EAYH","382GHPVPHSDM8N0F9141EAH7F0K34Z","","null","<img src=""img/land4.png"" style=""width:200px;border:14px solid red;"">","null","","","","","","","","","",""
"","image-keyboard-response","308","354812","0.0-308.0","31EUONYN2WPCA9AA3XUI0MBJVUCVOO","A2S6QOCFC3EAYH","382GHPVPHSDM8N0F9141EAH7F0K34Z","","617","img/land4.png","76","620","3","0","1","1","0.8,0.2,0.2,0.2,0.8,0.2,0.2,0.2,0.8","0.8,0.2,0.2,0.2,0.8,0.2,0.2,0.2,0.8","1","",""
"","html-keyboard-response","309","355119","0.0-309.0","31EUONYN2WPCA9AA3XUI0MBJVUCVOO","A2S6QOCFC3EAYH","382GHPVPHSDM8N0F9141EAH7F0K34Z","","null","<img src=""img/land4.png"" style=""width:200px;border:14px solid red;"">","null","","","","","","","","","",""
"","image-keyboard-response","310","356063","0.0-310.0","31EUONYN2WPCA9AA3XUI0MBJVUCVOO","A2S6QOCFC3EAYH","382GHPVPHSDM8N0F9141EAH7F0K34Z","","938","img/land6.png","74","942","1","1","3","1","0.8,0.2,0.2,0.2,0.8,0.2,0.2,0.2,0.8","0.8,0.2,0.2,0.2,0.8,0.2,0.2,0.2,0.8","1","",""
"","html-keyboard-response","311","356369","0.0-311.0","31EUONYN2WPCA9AA3XUI0MBJVUCVOO","A2S6QOCFC3EAYH","382GHPVPHSDM8N0F9141EAH7F0K34Z","","null","<img src=""img/land6.png"" style=""width:200px; border:14px solid green;"">","null","","","","","","","","","",""
"","image-keyboard-response","312","357504","0.0-312.0","31EUONYN2WPCA9AA3XUI0MBJVUCVOO","A2S6QOCFC3EAYH","382GHPVPHSDM8N0F9141EAH7F0K34Z","","1128","img/land4.png","75","1133","2","0","1","1","0.8,0.2,0.2,0.2,0.8,0.2,0.2,0.2,0.8","0.8,0.2,0.2,0.2,0.8,0.2,0.2,0.2,0.8","1","",""
"","html-keyboard-response","313","357810","0.0-313.0","31EUONYN2WPCA9AA3XUI0MBJVUCVOO","A2S6QOCFC3EAYH","382GHPVPHSDM8N0F9141EAH7F0K34Z","","null","<img src=""img/land4.png"" style=""width:200px;border:14px solid red;"">","null","","","","","","","","","",""
"","image-keyboard-response","314","358407","0.0-314.0","31EUONYN2WPCA9AA3XUI0MBJVUCVOO","A2S6QOCFC3EAYH","382GHPVPHSDM8N0F9141EAH7F0K34Z","","590","img/land4.png","74","594","1","1","1","1","0.8,0.2,0.2,0.2,0.8,0.2,0.2,0.2,0.8","0.8,0.2,0.2,0.2,0.8,0.2,0.2,0.2,0.8","1","",""
"","html-keyboard-response","315","358714","0.0-315.0","31EUONYN2WPCA9AA3XUI0MBJVUCVOO","A2S6QOCFC3EAYH","382GHPVPHSDM8N0F9141EAH7F0K34Z","","null","<img src=""img/land4.png"" style=""width:200px; border:14px solid green;"">","null","","","","","","","","","",""
"","image-keyboard-response","316","359467","0.0-316.0","31EUONYN2WPCA9AA3XUI0MBJVUCVOO","A2S6QOCFC3EAYH","382GHPVPHSDM8N0F9141EAH7F0K34Z","","746","img/land2.png","74","750","1","0","2","1","0.8,0.2,0.2,0.2,0.8,0.2,0.2,0.2,0.8","0.8,0.2,0.2,0.2,0.8,0.2,0.2,0.2,0.8","1","",""
"","html-keyboard-response","317","359773","0.0-317.0","31EUONYN2WPCA9AA3XUI0MBJVUCVOO","A2S6QOCFC3EAYH","382GHPVPHSDM8N0F9141EAH7F0K34Z","","null","<img src=""img/land2.png"" style=""width:200px;border:14px solid red;"">","null","","","","","","","","","",""
"","image-keyboard-response","318","360671","0.0-318.0","31EUONYN2WPCA9AA3XUI0MBJVUCVOO","A2S6QOCFC3EAYH","382GHPVPHSDM8N0F9141EAH7F0K34Z","","892","img/land6.png","76","896","3","0","3","1","0.8,0.2,0.2,0.2,0.8,0.2,0.2,0.2,0.8","0.8,0.2,0.2,0.2,0.8,0.2,0.2,0.2,0.8","1","",""
"","html-keyboard-response","319","360979","0.0-319.0","31EUONYN2WPCA9AA3XUI0MBJVUCVOO","A2S6QOCFC3EAYH","382GHPVPHSDM8N0F9141EAH7F0K34Z","","null","<img src=""img/land6.png"" style=""width:200px;border:14px solid red;"">","null","","","","","","","","","",""
"","image-keyboard-response","320","361515","0.0-320.0","31EUONYN2WPCA9AA3XUI0MBJVUCVOO","A2S6QOCFC3EAYH","382GHPVPHSDM8N0F9141EAH7F0K34Z","","529","img/land6.png","74","533","1","0","3","1","0.8,0.2,0.2,0.2,0.8,0.2,0.2,0.2,0.8","0.8,0.2,0.2,0.2,0.8,0.2,0.2,0.2,0.8","1","",""
"","html-keyboard-response","321","361823","0.0-321.0","31EUONYN2WPCA9AA3XUI0MBJVUCVOO","A2S6QOCFC3EAYH","382GHPVPHSDM8N0F9141EAH7F0K34Z","","null","<img src=""img/land6.png"" style=""width:200px;border:14px solid red;"">","null","","","","","","","","","",""
"","image-keyboard-response","322","362391","0.0-322.0","31EUONYN2WPCA9AA3XUI0MBJVUCVOO","A2S6QOCFC3EAYH","382GHPVPHSDM8N0F9141EAH7F0K34Z","","561","img/land4.png","75","566","2","0","1","1","0.8,0.2,0.2,0.2,0.8,0.2,0.2,0.2,0.8","0.8,0.2,0.2,0.2,0.8,0.2,0.2,0.2,0.8","1","",""
"","html-keyboard-response","323","362697","0.0-323.0","31EUONYN2WPCA9AA3XUI0MBJVUCVOO","A2S6QOCFC3EAYH","382GHPVPHSDM8N0F9141EAH7F0K34Z","","null","<img src=""img/land4.png"" style=""width:200px;border:14px solid red;"">","null","","","","","","","","","",""
"","image-keyboard-response","324","363285","0.0-324.0","31EUONYN2WPCA9AA3XUI0MBJVUCVOO","A2S6QOCFC3EAYH","382GHPVPHSDM8N0F9141EAH7F0K34Z","","581","img/land4.png","74","586","1","0","1","1","0.8,0.2,0.2,0.2,0.8,0.2,0.2,0.2,0.8","0.8,0.2,0.2,0.2,0.8,0.2,0.2,0.2,0.8","1","",""
"","html-keyboard-response","325","363591","0.0-325.0","31EUONYN2WPCA9AA3XUI0MBJVUCVOO","A2S6QOCFC3EAYH","382GHPVPHSDM8N0F9141EAH7F0K34Z","","null","<img src=""img/land4.png"" style=""width:200px;border:14px solid red;"">","null","","","","","","","","","",""
"","image-keyboard-response","326","364129","0.0-326.0","31EUONYN2WPCA9AA3XUI0MBJVUCVOO","A2S6QOCFC3EAYH","382GHPVPHSDM8N0F9141EAH7F0K34Z","","532","img/land6.png","76","536","3","1","3","1","0.8,0.2,0.2,0.2,0.8,0.2,0.2,0.2,0.8","0.8,0.2,0.2,0.2,0.8,0.2,0.2,0.2,0.8","1","",""
"","html-keyboard-response","327","364436","0.0-327.0","31EUONYN2WPCA9AA3XUI0MBJVUCVOO","A2S6QOCFC3EAYH","382GHPVPHSDM8N0F9141EAH7F0K34Z","","null","<img src=""img/land6.png"" style=""width:200px; border:14px solid green;"">","null","","","","","","","","","",""
"","image-keyboard-response","328","364982","0.0-328.0","31EUONYN2WPCA9AA3XUI0MBJVUCVOO","A2S6QOCFC3EAYH","382GHPVPHSDM8N0F9141EAH7F0K34Z","","542","img/land4.png","76","546","3","1","1","1","0.8,0.2,0.2,0.2,0.8,0.2,0.2,0.2,0.8","0.8,0.2,0.2,0.2,0.8,0.2,0.2,0.2,0.8","1","",""
"","html-keyboard-response","329","365290","0.0-329.0","31EUONYN2WPCA9AA3XUI0MBJVUCVOO","A2S6QOCFC3EAYH","382GHPVPHSDM8N0F9141EAH7F0K34Z","","null","<img src=""img/land4.png"" style=""width:200px; border:14px solid green;"">","null","","","","","","","","","",""
"","image-keyboard-response","330","365831","0.0-330.0","31EUONYN2WPCA9AA3XUI0MBJVUCVOO","A2S6QOCFC3EAYH","382GHPVPHSDM8N0F9141EAH7F0K34Z","","536","img/land4.png","76","539","3","0","1","1","0.8,0.2,0.2,0.2,0.8,0.2,0.2,0.2,0.8","0.8,0.2,0.2,0.2,0.8,0.2,0.2,0.2,0.8","1","",""
"","html-keyboard-response","331","366137","0.0-331.0","31EUONYN2WPCA9AA3XUI0MBJVUCVOO","A2S6QOCFC3EAYH","382GHPVPHSDM8N0F9141EAH7F0K34Z","","null","<img src=""img/land4.png"" style=""width:200px;border:14px solid red;"">","null","","","","","","","","","",""
"","image-keyboard-response","332","366706","0.0-332.0","31EUONYN2WPCA9AA3XUI0MBJVUCVOO","A2S6QOCFC3EAYH","382GHPVPHSDM8N0F9141EAH7F0K34Z","","562","img/land6.png","74","567","1","0","3","1","0.8,0.2,0.2,0.2,0.8,0.2,0.2,0.2,0.8","0.8,0.2,0.2,0.2,0.8,0.2,0.2,0.2,0.8","1","",""
"","html-keyboard-response","333","367014","0.0-333.0","31EUONYN2WPCA9AA3XUI0MBJVUCVOO","A2S6QOCFC3EAYH","382GHPVPHSDM8N0F9141EAH7F0K34Z","","null","<img src=""img/land6.png"" style=""width:200px;border:14px solid red;"">","null","","","","","","","","","",""
"","image-keyboard-response","334","367571","0.0-334.0","31EUONYN2WPCA9AA3XUI0MBJVUCVOO","A2S6QOCFC3EAYH","382GHPVPHSDM8N0F9141EAH7F0K34Z","","552","img/land6.png","75","554","2","0","3","1","0.8,0.2,0.2,0.2,0.8,0.2,0.2,0.2,0.8","0.8,0.2,0.2,0.2,0.8,0.2,0.2,0.2,0.8","1","",""
"","html-keyboard-response","335","367877","0.0-335.0","31EUONYN2WPCA9AA3XUI0MBJVUCVOO","A2S6QOCFC3EAYH","382GHPVPHSDM8N0F9141EAH7F0K34Z","","null","<img src=""img/land6.png"" style=""width:200px;border:14px solid red;"">","null","","","","","","","","","",""
"","image-keyboard-response","336","368353","0.0-336.0","31EUONYN2WPCA9AA3XUI0MBJVUCVOO","A2S6QOCFC3EAYH","382GHPVPHSDM8N0F9141EAH7F0K34Z","","471","img/land6.png","76","475","3","1","3","1","0.8,0.2,0.2,0.2,0.8,0.2,0.2,0.2,0.8","0.8,0.2,0.2,0.2,0.8,0.2,0.2,0.2,0.8","1","",""
"","html-keyboard-response","337","368659","0.0-337.0","31EUONYN2WPCA9AA3XUI0MBJVUCVOO","A2S6QOCFC3EAYH","382GHPVPHSDM8N0F9141EAH7F0K34Z","","null","<img src=""img/land6.png"" style=""width:200px; border:14px solid green;"">","null","","","","","","","","","",""
"","image-keyboard-response","338","369451","0.0-338.0","31EUONYN2WPCA9AA3XUI0MBJVUCVOO","A2S6QOCFC3EAYH","382GHPVPHSDM8N0F9141EAH7F0K34Z","","788","img/land6.png","76","791","3","1","3","1","0.8,0.2,0.2,0.2,0.8,0.2,0.2,0.2,0.8","0.8,0.2,0.2,0.2,0.8,0.2,0.2,0.2,0.8","1","",""
"","html-keyboard-response","339","369756","0.0-339.0","31EUONYN2WPCA9AA3XUI0MBJVUCVOO","A2S6QOCFC3EAYH","382GHPVPHSDM8N0F9141EAH7F0K34Z","","null","<img src=""img/land6.png"" style=""width:200px; border:14px solid green;"">","null","","","","","","","","","",""
"","image-keyboard-response","340","370857","0.0-340.0","31EUONYN2WPCA9AA3XUI0MBJVUCVOO","A2S6QOCFC3EAYH","382GHPVPHSDM8N0F9141EAH7F0K34Z","","1097","img/land4.png","76","1100","3","0","1","1","0.8,0.2,0.2,0.2,0.8,0.2,0.2,0.2,0.8","0.8,0.2,0.2,0.2,0.8,0.2,0.2,0.2,0.8","1","",""
"","html-keyboard-response","341","371164","0.0-341.0","31EUONYN2WPCA9AA3XUI0MBJVUCVOO","A2S6QOCFC3EAYH","382GHPVPHSDM8N0F9141EAH7F0K34Z","","null","<img src=""img/land4.png"" style=""width:200px;border:14px solid red;"">","null","","","","","","","","","",""
"","image-keyboard-response","342","371813","0.0-342.0","31EUONYN2WPCA9AA3XUI0MBJVUCVOO","A2S6QOCFC3EAYH","382GHPVPHSDM8N0F9141EAH7F0K34Z","","643","img/land4.png","75","648","2","0","1","1","0.8,0.2,0.2,0.2,0.8,0.2,0.2,0.2,0.8","0.8,0.2,0.2,0.2,0.8,0.2,0.2,0.2,0.8","1","",""
"","html-keyboard-response","343","372121","0.0-343.0","31EUONYN2WPCA9AA3XUI0MBJVUCVOO","A2S6QOCFC3EAYH","382GHPVPHSDM8N0F9141EAH7F0K34Z","","null","<img src=""img/land4.png"" style=""width:200px;border:14px solid red;"">","null","","","","","","","","","",""
"","image-keyboard-response","344","372901","0.0-344.0","31EUONYN2WPCA9AA3XUI0MBJVUCVOO","A2S6QOCFC3EAYH","382GHPVPHSDM8N0F9141EAH7F0K34Z","","776","img/land6.png","74","778","1","1","3","1","0.8,0.2,0.2,0.2,0.8,0.2,0.2,0.2,0.8","0.8,0.2,0.2,0.2,0.8,0.2,0.2,0.2,0.8","1","",""
"","html-keyboard-response","345","373209","0.0-345.0","31EUONYN2WPCA9AA3XUI0MBJVUCVOO","A2S6QOCFC3EAYH","382GHPVPHSDM8N0F9141EAH7F0K34Z","","null","<img src=""img/land6.png"" style=""width:200px; border:14px solid green;"">","null","","","","","","","","","",""
"","image-keyboard-response","346","373842","0.0-346.0","31EUONYN2WPCA9AA3XUI0MBJVUCVOO","A2S6QOCFC3EAYH","382GHPVPHSDM8N0F9141EAH7F0K34Z","","628","img/land4.png","74","631","1","0","1","1","0.8,0.2,0.2,0.2,0.8,0.2,0.2,0.2,0.8","0.8,0.2,0.2,0.2,0.8,0.2,0.2,0.2,0.8","1","",""
"","html-keyboard-response","347","374152","0.0-347.0","31EUONYN2WPCA9AA3XUI0MBJVUCVOO","A2S6QOCFC3EAYH","382GHPVPHSDM8N0F9141EAH7F0K34Z","","null","<img src=""img/land4.png"" style=""width:200px;border:14px solid red;"">","null","","","","","","","","","",""
"","image-keyboard-response","348","374746","0.0-348.0","31EUONYN2WPCA9AA3XUI0MBJVUCVOO","A2S6QOCFC3EAYH","382GHPVPHSDM8N0F9141EAH7F0K34Z","","588","img/land2.png","76","592","3","0","2","1","0.8,0.2,0.2,0.2,0.8,0.2,0.2,0.2,0.8","0.8,0.2,0.2,0.2,0.8,0.2,0.2,0.2,0.8","1","",""
"","html-keyboard-response","349","375053","0.0-349.0","31EUONYN2WPCA9AA3XUI0MBJVUCVOO","A2S6QOCFC3EAYH","382GHPVPHSDM8N0F9141EAH7F0K34Z","","null","<img src=""img/land2.png"" style=""width:200px;border:14px solid red;"">","null","","","","","","","","","",""
"","image-keyboard-response","350","375691","0.0-350.0","31EUONYN2WPCA9AA3XUI0MBJVUCVOO","A2S6QOCFC3EAYH","382GHPVPHSDM8N0F9141EAH7F0K34Z","","632","img/land4.png","75","635","2","0","1","1","0.8,0.2,0.2,0.2,0.8,0.2,0.2,0.2,0.8","0.8,0.2,0.2,0.2,0.8,0.2,0.2,0.2,0.8","1","",""
"","html-keyboard-response","351","375998","0.0-351.0","31EUONYN2WPCA9AA3XUI0MBJVUCVOO","A2S6QOCFC3EAYH","382GHPVPHSDM8N0F9141EAH7F0K34Z","","null","<img src=""img/land4.png"" style=""width:200px;border:14px solid red;"">","null","","","","","","","","","",""
"","image-keyboard-response","352","376757","0.0-352.0","31EUONYN2WPCA9AA3XUI0MBJVUCVOO","A2S6QOCFC3EAYH","382GHPVPHSDM8N0F9141EAH7F0K34Z","","752","img/land2.png","76","758","3","0","2","1","0.8,0.2,0.2,0.2,0.8,0.2,0.2,0.2,0.8","0.8,0.2,0.2,0.2,0.8,0.2,0.2,0.2,0.8","1","",""
"","html-keyboard-response","353","377065","0.0-353.0","31EUONYN2WPCA9AA3XUI0MBJVUCVOO","A2S6QOCFC3EAYH","382GHPVPHSDM8N0F9141EAH7F0K34Z","","null","<img src=""img/land2.png"" style=""width:200px;border:14px solid red;"">","null","","","","","","","","","",""
"","image-keyboard-response","354","377642","0.0-354.0","31EUONYN2WPCA9AA3XUI0MBJVUCVOO","A2S6QOCFC3EAYH","382GHPVPHSDM8N0F9141EAH7F0K34Z","","570","img/land6.png","74","574","1","1","3","1","0.8,0.2,0.2,0.2,0.8,0.2,0.2,0.2,0.8","0.8,0.2,0.2,0.2,0.8,0.2,0.2,0.2,0.8","1","",""
"","html-keyboard-response","355","377949","0.0-355.0","31EUONYN2WPCA9AA3XUI0MBJVUCVOO","A2S6QOCFC3EAYH","382GHPVPHSDM8N0F9141EAH7F0K34Z","","null","<img src=""img/land6.png"" style=""width:200px; border:14px solid green;"">","null","","","","","","","","","",""
"","image-keyboard-response","356","378581","0.0-356.0","31EUONYN2WPCA9AA3XUI0MBJVUCVOO","A2S6QOCFC3EAYH","382GHPVPHSDM8N0F9141EAH7F0K34Z","","625","img/land2.png","74","629","1","1","2","1","0.8,0.2,0.2,0.2,0.8,0.2,0.2,0.2,0.8","0.8,0.2,0.2,0.2,0.8,0.2,0.2,0.2,0.8","1","",""
"","html-keyboard-response","357","378887","0.0-357.0","31EUONYN2WPCA9AA3XUI0MBJVUCVOO","A2S6QOCFC3EAYH","382GHPVPHSDM8N0F9141EAH7F0K34Z","","null","<img src=""img/land2.png"" style=""width:200px; border:14px solid green;"">","null","","","","","","","","","",""
"","image-keyboard-response","358","379666","0.0-358.0","31EUONYN2WPCA9AA3XUI0MBJVUCVOO","A2S6QOCFC3EAYH","382GHPVPHSDM8N0F9141EAH7F0K34Z","","774","img/land6.png","74","777","1","0","3","1","0.8,0.2,0.2,0.2,0.8,0.2,0.2,0.2,0.8","0.8,0.2,0.2,0.2,0.8,0.2,0.2,0.2,0.8","1","",""
"","html-keyboard-response","359","379975","0.0-359.0","31EUONYN2WPCA9AA3XUI0MBJVUCVOO","A2S6QOCFC3EAYH","382GHPVPHSDM8N0F9141EAH7F0K34Z","","null","<img src=""img/land6.png"" style=""width:200px;border:14px solid red;"">","null","","","","","","","","","",""
"","image-keyboard-response","360","380613","0.0-360.0","31EUONYN2WPCA9AA3XUI0MBJVUCVOO","A2S6QOCFC3EAYH","382GHPVPHSDM8N0F9141EAH7F0K34Z","","631","img/land2.png","75","635","2","1","2","1","0.8,0.2,0.2,0.2,0.8,0.2,0.2,0.2,0.8","0.8,0.2,0.2,0.2,0.8,0.2,0.2,0.2,0.8","1","",""
"","html-keyboard-response","361","380920","0.0-361.0","31EUONYN2WPCA9AA3XUI0MBJVUCVOO","A2S6QOCFC3EAYH","382GHPVPHSDM8N0F9141EAH7F0K34Z","","null","<img src=""img/land2.png"" style=""width:200px; border:14px solid green;"">","null","","","","","","","","","",""
"","image-keyboard-response","362","381490","0.0-362.0","31EUONYN2WPCA9AA3XUI0MBJVUCVOO","A2S6QOCFC3EAYH","382GHPVPHSDM8N0F9141EAH7F0K34Z","","564","img/land4.png","74","568","1","1","1","1","0.8,0.2,0.2,0.2,0.8,0.2,0.2,0.2,0.8","0.8,0.2,0.2,0.2,0.8,0.2,0.2,0.2,0.8","1","",""
"","html-keyboard-response","363","381798","0.0-363.0","31EUONYN2WPCA9AA3XUI0MBJVUCVOO","A2S6QOCFC3EAYH","382GHPVPHSDM8N0F9141EAH7F0K34Z","","null","<img src=""img/land4.png"" style=""width:200px; border:14px solid green;"">","null","","","","","","","","","",""
"","image-keyboard-response","364","382416","0.0-364.0","31EUONYN2WPCA9AA3XUI0MBJVUCVOO","A2S6QOCFC3EAYH","382GHPVPHSDM8N0F9141EAH7F0K34Z","","612","img/land2.png","75","617","2","1","2","1","0.8,0.2,0.2,0.2,0.8,0.2,0.2,0.2,0.8","0.8,0.2,0.2,0.2,0.8,0.2,0.2,0.2,0.8","1","",""
"","html-keyboard-response","365","382724","0.0-365.0","31EUONYN2WPCA9AA3XUI0MBJVUCVOO","A2S6QOCFC3EAYH","382GHPVPHSDM8N0F9141EAH7F0K34Z","","null","<img src=""img/land2.png"" style=""width:200px; border:14px solid green;"">","null","","","","","","","","","",""
"","image-keyboard-response","366","383233","0.0-366.0","31EUONYN2WPCA9AA3XUI0MBJVUCVOO","A2S6QOCFC3EAYH","382GHPVPHSDM8N0F9141EAH7F0K34Z","","504","img/land6.png","74","508","1","0","3","1","0.8,0.2,0.2,0.2,0.8,0.2,0.2,0.2,0.8","0.8,0.2,0.2,0.2,0.8,0.2,0.2,0.2,0.8","1","",""
"","html-keyboard-response","367","383542","0.0-367.0","31EUONYN2WPCA9AA3XUI0MBJVUCVOO","A2S6QOCFC3EAYH","382GHPVPHSDM8N0F9141EAH7F0K34Z","","null","<img src=""img/land6.png"" style=""width:200px;border:14px solid red;"">","null","","","","","","","","","",""
"","image-keyboard-response","368","384420","0.0-368.0","31EUONYN2WPCA9AA3XUI0MBJVUCVOO","A2S6QOCFC3EAYH","382GHPVPHSDM8N0F9141EAH7F0K34Z","","872","img/land6.png","75","876","2","0","3","1","0.8,0.2,0.2,0.2,0.8,0.2,0.2,0.2,0.8","0.8,0.2,0.2,0.2,0.8,0.2,0.2,0.2,0.8","1","",""
