"success","trial_type","trial_index","time_elapsed","internal_node_id","assignmentID","mturkID","hitID","view_history","rt","stimulus","key_press","reactionTime","a","r","s","cond","reward_cond","reward_cond_actual","reward_matrix_idx","responses","question_order"
"true","fullscreen","0","4566","0.0-0.0","3J2UYBXQQMY6S23Q04KZYTZ2FZ160F","A2SKY4RRWII0BF","3MVY4USGB69K0BK9K576GJZ2CVDSII","","","","","","","","","","","","","",""
"","instructions","1","23678","0.0-1.0","3J2UYBXQQMY6S23Q04KZYTZ2FZ160F","A2SKY4RRWII0BF","3MVY4USGB69K0BK9K576GJZ2CVDSII","[{""page_index"":0,""viewing_time"":4902},{""page_index"":1,""viewing_time"":844},{""page_index"":2,""viewing_time"":530},{""page_index"":3,""viewing_time"":2788},{""page_index"":4,""viewing_time"":2110},{""page_index"":5,""viewing_time"":3318},{""page_index"":6,""viewing_time"":4618}]","19112","","","","","","","","","","","",""
"","image-keyboard-response","2","27975","0.0-2.0","3J2UYBXQQMY6S23Q04KZYTZ2FZ160F","A2SKY4RRWII0BF","3MVY4USGB69K0BK9K576GJZ2CVDSII","","4294","img/land2.png","74","4296","1","1","2","2","1,0.7,0.7,0.7,1,0.7,0.7,0.7,1","1,0.7,0.7,0.7,1,0.7,0.7,0.7,1","","",""
"","html-keyboard-response","3","28277","0.0-3.0","3J2UYBXQQMY6S23Q04KZYTZ2FZ160F","A2SKY4RRWII0BF","3MVY4USGB69K0BK9K576GJZ2CVDSII","","null","<img src=""img/land2.png"" style=""width:200px; border:14px solid green;"">","null","","","","","","","","","",""
"","image-keyboard-response","4","29527","0.0-4.0","3J2UYBXQQMY6S23Q04KZYTZ2FZ160F","A2SKY4RRWII0BF","3MVY4USGB69K0BK9K576GJZ2CVDSII","","1248","img/land3.png","75","1249","2","0","3","2","1,0.7,0.7,0.7,1,0.7,0.7,0.7,1","1,0.7,0.7,0.7,1,0.7,0.7,0.7,1","","",""
"","html-keyboard-response","5","29828","0.0-5.0","3J2UYBXQQMY6S23Q04KZYTZ2FZ160F","A2SKY4RRWII0BF","3MVY4USGB69K0BK9K576GJZ2CVDSII","","null","<img src=""img/land3.png"" style=""width:200px;border:14px solid red;"">","null","","","","","","","","","",""
"","image-keyboard-response","6","31295","0.0-6.0","3J2UYBXQQMY6S23Q04KZYTZ2FZ160F","A2SKY4RRWII0BF","3MVY4USGB69K0BK9K576GJZ2CVDSII","","1464","img/land1.png","76","1466","3","0","1","2","1,0.7,0.7,0.7,1,0.7,0.7,0.7,1","1,0.7,0.7,0.7,1,0.7,0.7,0.7,1","","",""
"","html-keyboard-response","7","31597","0.0-7.0","3J2UYBXQQMY6S23Q04KZYTZ2FZ160F","A2SKY4RRWII0BF","3MVY4USGB69K0BK9K576GJZ2CVDSII","","null","<img src=""img/land1.png"" style=""width:200px;border:14px solid red;"">","null","","","","","","","","","",""
"","image-keyboard-response","8","32798","0.0-8.0","3J2UYBXQQMY6S23Q04KZYTZ2FZ160F","A2SKY4RRWII0BF","3MVY4USGB69K0BK9K576GJZ2CVDSII","","1201","img/land1.png","75","1201","2","1","1","2","1,0.7,0.7,0.7,1,0.7,0.7,0.7,1","1,0.7,0.7,0.7,1,0.7,0.7,0.7,1","","",""
"","html-keyboard-response","9","33100","0.0-9.0","3J2UYBXQQMY6S23Q04KZYTZ2FZ160F","A2SKY4RRWII0BF","3MVY4USGB69K0BK9K576GJZ2CVDSII","","null","<img src=""img/land1.png"" style=""width:200px; border:14px solid green;"">","null","","","","","","","","","",""
"","image-keyboard-response","10","34183","0.0-10.0","3J2UYBXQQMY6S23Q04KZYTZ2FZ160F","A2SKY4RRWII0BF","3MVY4USGB69K0BK9K576GJZ2CVDSII","","1082","img/land2.png","74","1082","1","1","2","2","1,0.7,0.7,0.7,1,0.7,0.7,0.7,1","1,0.7,0.7,0.7,1,0.7,0.7,0.7,1","","",""
"","html-keyboard-response","11","34484","0.0-11.0","3J2UYBXQQMY6S23Q04KZYTZ2FZ160F","A2SKY4RRWII0BF","3MVY4USGB69K0BK9K576GJZ2CVDSII","","null","<img src=""img/land2.png"" style=""width:200px; border:14px solid green;"">","null","","","","","","","","","",""
"","image-keyboard-response","12","35311","0.0-12.0","3J2UYBXQQMY6S23Q04KZYTZ2FZ160F","A2SKY4RRWII0BF","3MVY4USGB69K0BK9K576GJZ2CVDSII","","825","img/land2.png","74","827","1","0","2","2","1,0.7,0.7,0.7,1,0.7,0.7,0.7,1","1,0.7,0.7,0.7,1,0.7,0.7,0.7,1","","",""
"","html-keyboard-response","13","35612","0.0-13.0","3J2UYBXQQMY6S23Q04KZYTZ2FZ160F","A2SKY4RRWII0BF","3MVY4USGB69K0BK9K576GJZ2CVDSII","","null","<img src=""img/land2.png"" style=""width:200px;border:14px solid red;"">","null","","","","","","","","","",""
"","image-keyboard-response","14","36982","0.0-14.0","3J2UYBXQQMY6S23Q04KZYTZ2FZ160F","A2SKY4RRWII0BF","3MVY4USGB69K0BK9K576GJZ2CVDSII","","1367","img/land1.png","75","1368","2","1","1","2","1,0.7,0.7,0.7,1,0.7,0.7,0.7,1","1,0.7,0.7,0.7,1,0.7,0.7,0.7,1","","",""
"","html-keyboard-response","15","37283","0.0-15.0","3J2UYBXQQMY6S23Q04KZYTZ2FZ160F","A2SKY4RRWII0BF","3MVY4USGB69K0BK9K576GJZ2CVDSII","","null","<img src=""img/land1.png"" style=""width:200px; border:14px solid green;"">","null","","","","","","","","","",""
"","image-keyboard-response","16","37839","0.0-16.0","3J2UYBXQQMY6S23Q04KZYTZ2FZ160F","A2SKY4RRWII0BF","3MVY4USGB69K0BK9K576GJZ2CVDSII","","554","img/land1.png","75","555","2","0","1","2","1,0.7,0.7,0.7,1,0.7,0.7,0.7,1","1,0.7,0.7,0.7,1,0.7,0.7,0.7,1","","",""
"","html-keyboard-response","17","38140","0.0-17.0","3J2UYBXQQMY6S23Q04KZYTZ2FZ160F","A2SKY4RRWII0BF","3MVY4USGB69K0BK9K576GJZ2CVDSII","","null","<img src=""img/land1.png"" style=""width:200px;border:14px solid red;"">","null","","","","","","","","","",""
"","image-keyboard-response","18","39487","0.0-18.0","3J2UYBXQQMY6S23Q04KZYTZ2FZ160F","A2SKY4RRWII0BF","3MVY4USGB69K0BK9K576GJZ2CVDSII","","1346","img/land3.png","76","1346","3","1","3","2","1,0.7,0.7,0.7,1,0.7,0.7,0.7,1","1,0.7,0.7,0.7,1,0.7,0.7,0.7,1","","",""
"","html-keyboard-response","19","39788","0.0-19.0","3J2UYBXQQMY6S23Q04KZYTZ2FZ160F","A2SKY4RRWII0BF","3MVY4USGB69K0BK9K576GJZ2CVDSII","","null","<img src=""img/land3.png"" style=""width:200px; border:14px solid green;"">","null","","","","","","","","","",""
"","image-keyboard-response","20","40990","0.0-20.0","3J2UYBXQQMY6S23Q04KZYTZ2FZ160F","A2SKY4RRWII0BF","3MVY4USGB69K0BK9K576GJZ2CVDSII","","1202","img/land2.png","74","1203","1","0","2","2","1,0.7,0.7,0.7,1,0.7,0.7,0.7,1","1,0.7,0.7,0.7,1,0.7,0.7,0.7,1","","",""
"","html-keyboard-response","21","41291","0.0-21.0","3J2UYBXQQMY6S23Q04KZYTZ2FZ160F","A2SKY4RRWII0BF","3MVY4USGB69K0BK9K576GJZ2CVDSII","","null","<img src=""img/land2.png"" style=""width:200px;border:14px solid red;"">","null","","","","","","","","","",""
"","image-keyboard-response","22","43254","0.0-22.0","3J2UYBXQQMY6S23Q04KZYTZ2FZ160F","A2SKY4RRWII0BF","3MVY4USGB69K0BK9K576GJZ2CVDSII","","1963","img/land1.png","74","1963","1","1","1","2","1,0.7,0.7,0.7,1,0.7,0.7,0.7,1","1,0.7,0.7,0.7,1,0.7,0.7,0.7,1","","",""
"","html-keyboard-response","23","43556","0.0-23.0","3J2UYBXQQMY6S23Q04KZYTZ2FZ160F","A2SKY4RRWII0BF","3MVY4USGB69K0BK9K576GJZ2CVDSII","","null","<img src=""img/land1.png"" style=""width:200px; border:14px solid green;"">","null","","","","","","","","","",""
"","image-keyboard-response","24","45423","0.0-24.0","3J2UYBXQQMY6S23Q04KZYTZ2FZ160F","A2SKY4RRWII0BF","3MVY4USGB69K0BK9K576GJZ2CVDSII","","1865","img/land3.png","76","1867","3","1","3","2","1,0.7,0.7,0.7,1,0.7,0.7,0.7,1","1,0.7,0.7,0.7,1,0.7,0.7,0.7,1","","",""
"","html-keyboard-response","25","45724","0.0-25.0","3J2UYBXQQMY6S23Q04KZYTZ2FZ160F","A2SKY4RRWII0BF","3MVY4USGB69K0BK9K576GJZ2CVDSII","","null","<img src=""img/land3.png"" style=""width:200px; border:14px solid green;"">","null","","","","","","","","","",""
"","image-keyboard-response","26","46326","0.0-26.0","3J2UYBXQQMY6S23Q04KZYTZ2FZ160F","A2SKY4RRWII0BF","3MVY4USGB69K0BK9K576GJZ2CVDSII","","601","img/land3.png","76","603","3","1","3","2","1,0.7,0.7,0.7,1,0.7,0.7,0.7,1","1,0.7,0.7,0.7,1,0.7,0.7,0.7,1","","",""
"","html-keyboard-response","27","46628","0.0-27.0","3J2UYBXQQMY6S23Q04KZYTZ2FZ160F","A2SKY4RRWII0BF","3MVY4USGB69K0BK9K576GJZ2CVDSII","","null","<img src=""img/land3.png"" style=""width:200px; border:14px solid green;"">","null","","","","","","","","","",""
"","image-keyboard-response","28","47734","0.0-28.0","3J2UYBXQQMY6S23Q04KZYTZ2FZ160F","A2SKY4RRWII0BF","3MVY4USGB69K0BK9K576GJZ2CVDSII","","1104","img/land1.png","74","1105","1","1","1","2","1,0.7,0.7,0.7,1,0.7,0.7,0.7,1","1,0.7,0.7,0.7,1,0.7,0.7,0.7,1","","",""
"","html-keyboard-response","29","48036","0.0-29.0","3J2UYBXQQMY6S23Q04KZYTZ2FZ160F","A2SKY4RRWII0BF","3MVY4USGB69K0BK9K576GJZ2CVDSII","","null","<img src=""img/land1.png"" style=""width:200px; border:14px solid green;"">","null","","","","","","","","","",""
"","image-keyboard-response","30","48958","0.0-30.0","3J2UYBXQQMY6S23Q04KZYTZ2FZ160F","A2SKY4RRWII0BF","3MVY4USGB69K0BK9K576GJZ2CVDSII","","922","img/land3.png","76","923","3","1","3","2","1,0.7,0.7,0.7,1,0.7,0.7,0.7,1","1,0.7,0.7,0.7,1,0.7,0.7,0.7,1","","",""
"","html-keyboard-response","31","49259","0.0-31.0","3J2UYBXQQMY6S23Q04KZYTZ2FZ160F","A2SKY4RRWII0BF","3MVY4USGB69K0BK9K576GJZ2CVDSII","","null","<img src=""img/land3.png"" style=""width:200px; border:14px solid green;"">","null","","","","","","","","","",""
"","image-keyboard-response","32","49735","0.0-32.0","3J2UYBXQQMY6S23Q04KZYTZ2FZ160F","A2SKY4RRWII0BF","3MVY4USGB69K0BK9K576GJZ2CVDSII","","473","img/land3.png","76","475","3","1","3","2","1,0.7,0.7,0.7,1,0.7,0.7,0.7,1","1,0.7,0.7,0.7,1,0.7,0.7,0.7,1","","",""
"","html-keyboard-response","33","50036","0.0-33.0","3J2UYBXQQMY6S23Q04KZYTZ2FZ160F","A2SKY4RRWII0BF","3MVY4USGB69K0BK9K576GJZ2CVDSII","","null","<img src=""img/land3.png"" style=""width:200px; border:14px solid green;"">","null","","","","","","","","","",""
"","image-keyboard-response","34","50734","0.0-34.0","3J2UYBXQQMY6S23Q04KZYTZ2FZ160F","A2SKY4RRWII0BF","3MVY4USGB69K0BK9K576GJZ2CVDSII","","697","img/land1.png","74","698","1","1","1","2","1,0.7,0.7,0.7,1,0.7,0.7,0.7,1","1,0.7,0.7,0.7,1,0.7,0.7,0.7,1","","",""
"","html-keyboard-response","35","51036","0.0-35.0","3J2UYBXQQMY6S23Q04KZYTZ2FZ160F","A2SKY4RRWII0BF","3MVY4USGB69K0BK9K576GJZ2CVDSII","","null","<img src=""img/land1.png"" style=""width:200px; border:14px solid green;"">","null","","","","","","","","","",""
"","image-keyboard-response","36","51615","0.0-36.0","3J2UYBXQQMY6S23Q04KZYTZ2FZ160F","A2SKY4RRWII0BF","3MVY4USGB69K0BK9K576GJZ2CVDSII","","578","img/land3.png","76","578","3","1","3","2","1,0.7,0.7,0.7,1,0.7,0.7,0.7,1","1,0.7,0.7,0.7,1,0.7,0.7,0.7,1","","",""
"","html-keyboard-response","37","51916","0.0-37.0","3J2UYBXQQMY6S23Q04KZYTZ2FZ160F","A2SKY4RRWII0BF","3MVY4USGB69K0BK9K576GJZ2CVDSII","","null","<img src=""img/land3.png"" style=""width:200px; border:14px solid green;"">","null","","","","","","","","","",""
"","image-keyboard-response","38","52559","0.0-38.0","3J2UYBXQQMY6S23Q04KZYTZ2FZ160F","A2SKY4RRWII0BF","3MVY4USGB69K0BK9K576GJZ2CVDSII","","642","img/land2.png","75","643","2","1","2","2","1,0.7,0.7,0.7,1,0.7,0.7,0.7,1","1,0.7,0.7,0.7,1,0.7,0.7,0.7,1","","",""
"","html-keyboard-response","39","52860","0.0-39.0","3J2UYBXQQMY6S23Q04KZYTZ2FZ160F","A2SKY4RRWII0BF","3MVY4USGB69K0BK9K576GJZ2CVDSII","","null","<img src=""img/land2.png"" style=""width:200px; border:14px solid green;"">","null","","","","","","","","","",""
"","image-keyboard-response","40","54095","0.0-40.0","3J2UYBXQQMY6S23Q04KZYTZ2FZ160F","A2SKY4RRWII0BF","3MVY4USGB69K0BK9K576GJZ2CVDSII","","1233","img/land3.png","76","1234","3","1","3","2","1,0.7,0.7,0.7,1,0.7,0.7,0.7,1","1,0.7,0.7,0.7,1,0.7,0.7,0.7,1","","",""
"","html-keyboard-response","41","54396","0.0-41.0","3J2UYBXQQMY6S23Q04KZYTZ2FZ160F","A2SKY4RRWII0BF","3MVY4USGB69K0BK9K576GJZ2CVDSII","","null","<img src=""img/land3.png"" style=""width:200px; border:14px solid green;"">","null","","","","","","","","","",""
"","image-keyboard-response","42","55151","0.0-42.0","3J2UYBXQQMY6S23Q04KZYTZ2FZ160F","A2SKY4RRWII0BF","3MVY4USGB69K0BK9K576GJZ2CVDSII","","754","img/land1.png","74","754","1","1","1","2","1,0.7,0.7,0.7,1,0.7,0.7,0.7,1","1,0.7,0.7,0.7,1,0.7,0.7,0.7,1","","",""
"","html-keyboard-response","43","55451","0.0-43.0","3J2UYBXQQMY6S23Q04KZYTZ2FZ160F","A2SKY4RRWII0BF","3MVY4USGB69K0BK9K576GJZ2CVDSII","","null","<img src=""img/land1.png"" style=""width:200px; border:14px solid green;"">","null","","","","","","","","","",""
"","image-keyboard-response","44","55991","0.0-44.0","3J2UYBXQQMY6S23Q04KZYTZ2FZ160F","A2SKY4RRWII0BF","3MVY4USGB69K0BK9K576GJZ2CVDSII","","538","img/land1.png","74","539","1","1","1","2","1,0.7,0.7,0.7,1,0.7,0.7,0.7,1","1,0.7,0.7,0.7,1,0.7,0.7,0.7,1","","",""
"","html-keyboard-response","45","56292","0.0-45.0","3J2UYBXQQMY6S23Q04KZYTZ2FZ160F","A2SKY4RRWII0BF","3MVY4USGB69K0BK9K576GJZ2CVDSII","","null","<img src=""img/land1.png"" style=""width:200px; border:14px solid green;"">","null","","","","","","","","","",""
"","image-keyboard-response","46","57055","0.0-46.0","3J2UYBXQQMY6S23Q04KZYTZ2FZ160F","A2SKY4RRWII0BF","3MVY4USGB69K0BK9K576GJZ2CVDSII","","763","img/land3.png","76","763","3","1","3","2","1,0.7,0.7,0.7,1,0.7,0.7,0.7,1","1,0.7,0.7,0.7,1,0.7,0.7,0.7,1","","",""
"","html-keyboard-response","47","57356","0.0-47.0","3J2UYBXQQMY6S23Q04KZYTZ2FZ160F","A2SKY4RRWII0BF","3MVY4USGB69K0BK9K576GJZ2CVDSII","","null","<img src=""img/land3.png"" style=""width:200px; border:14px solid green;"">","null","","","","","","","","","",""
"","image-keyboard-response","48","57919","0.0-48.0","3J2UYBXQQMY6S23Q04KZYTZ2FZ160F","A2SKY4RRWII0BF","3MVY4USGB69K0BK9K576GJZ2CVDSII","","562","img/land3.png","76","563","3","1","3","2","1,0.7,0.7,0.7,1,0.7,0.7,0.7,1","1,0.7,0.7,0.7,1,0.7,0.7,0.7,1","","",""
"","html-keyboard-response","49","58220","0.0-49.0","3J2UYBXQQMY6S23Q04KZYTZ2FZ160F","A2SKY4RRWII0BF","3MVY4USGB69K0BK9K576GJZ2CVDSII","","null","<img src=""img/land3.png"" style=""width:200px; border:14px solid green;"">","null","","","","","","","","","",""
"","image-keyboard-response","50","58927","0.0-50.0","3J2UYBXQQMY6S23Q04KZYTZ2FZ160F","A2SKY4RRWII0BF","3MVY4USGB69K0BK9K576GJZ2CVDSII","","704","img/land1.png","74","706","1","1","1","2","1,0.7,0.7,0.7,1,0.7,0.7,0.7,1","1,0.7,0.7,0.7,1,0.7,0.7,0.7,1","","",""
"","html-keyboard-response","51","59228","0.0-51.0","3J2UYBXQQMY6S23Q04KZYTZ2FZ160F","A2SKY4RRWII0BF","3MVY4USGB69K0BK9K576GJZ2CVDSII","","null","<img src=""img/land1.png"" style=""width:200px; border:14px solid green;"">","null","","","","","","","","","",""
"","image-keyboard-response","52","59679","0.0-52.0","3J2UYBXQQMY6S23Q04KZYTZ2FZ160F","A2SKY4RRWII0BF","3MVY4USGB69K0BK9K576GJZ2CVDSII","","448","img/land1.png","74","450","1","1","1","2","1,0.7,0.7,0.7,1,0.7,0.7,0.7,1","1,0.7,0.7,0.7,1,0.7,0.7,0.7,1","","",""
"","html-keyboard-response","53","59981","0.0-53.0","3J2UYBXQQMY6S23Q04KZYTZ2FZ160F","A2SKY4RRWII0BF","3MVY4USGB69K0BK9K576GJZ2CVDSII","","null","<img src=""img/land1.png"" style=""width:200px; border:14px solid green;"">","null","","","","","","","","","",""
"","image-keyboard-response","54","60646","0.0-54.0","3J2UYBXQQMY6S23Q04KZYTZ2FZ160F","A2SKY4RRWII0BF","3MVY4USGB69K0BK9K576GJZ2CVDSII","","665","img/land3.png","76","665","3","1","3","2","1,0.7,0.7,0.7,1,0.7,0.7,0.7,1","1,0.7,0.7,0.7,1,0.7,0.7,0.7,1","","",""
"","html-keyboard-response","55","60948","0.0-55.0","3J2UYBXQQMY6S23Q04KZYTZ2FZ160F","A2SKY4RRWII0BF","3MVY4USGB69K0BK9K576GJZ2CVDSII","","null","<img src=""img/land3.png"" style=""width:200px; border:14px solid green;"">","null","","","","","","","","","",""
"","image-keyboard-response","56","61903","0.0-56.0","3J2UYBXQQMY6S23Q04KZYTZ2FZ160F","A2SKY4RRWII0BF","3MVY4USGB69K0BK9K576GJZ2CVDSII","","954","img/land1.png","74","954","1","1","1","2","1,0.7,0.7,0.7,1,0.7,0.7,0.7,1","1,0.7,0.7,0.7,1,0.7,0.7,0.7,1","","",""
"","html-keyboard-response","57","62204","0.0-57.0","3J2UYBXQQMY6S23Q04KZYTZ2FZ160F","A2SKY4RRWII0BF","3MVY4USGB69K0BK9K576GJZ2CVDSII","","null","<img src=""img/land1.png"" style=""width:200px; border:14px solid green;"">","null","","","","","","","","","",""
"","image-keyboard-response","58","62718","0.0-58.0","3J2UYBXQQMY6S23Q04KZYTZ2FZ160F","A2SKY4RRWII0BF","3MVY4USGB69K0BK9K576GJZ2CVDSII","","513","img/land1.png","74","514","1","1","1","2","1,0.7,0.7,0.7,1,0.7,0.7,0.7,1","1,0.7,0.7,0.7,1,0.7,0.7,0.7,1","","",""
"","html-keyboard-response","59","63020","0.0-59.0","3J2UYBXQQMY6S23Q04KZYTZ2FZ160F","A2SKY4RRWII0BF","3MVY4USGB69K0BK9K576GJZ2CVDSII","","null","<img src=""img/land1.png"" style=""width:200px; border:14px solid green;"">","null","","","","","","","","","",""
"","image-keyboard-response","60","63903","0.0-60.0","3J2UYBXQQMY6S23Q04KZYTZ2FZ160F","A2SKY4RRWII0BF","3MVY4USGB69K0BK9K576GJZ2CVDSII","","882","img/land2.png","75","883","2","1","2","2","1,0.7,0.7,0.7,1,0.7,0.7,0.7,1","1,0.7,0.7,0.7,1,0.7,0.7,0.7,1","","",""
"","html-keyboard-response","61","64204","0.0-61.0","3J2UYBXQQMY6S23Q04KZYTZ2FZ160F","A2SKY4RRWII0BF","3MVY4USGB69K0BK9K576GJZ2CVDSII","","null","<img src=""img/land2.png"" style=""width:200px; border:14px solid green;"">","null","","","","","","","","","",""
"","image-keyboard-response","62","65127","0.0-62.0","3J2UYBXQQMY6S23Q04KZYTZ2FZ160F","A2SKY4RRWII0BF","3MVY4USGB69K0BK9K576GJZ2CVDSII","","920","img/land1.png","74","922","1","1","1","2","1,0.7,0.7,0.7,1,0.7,0.7,0.7,1","1,0.7,0.7,0.7,1,0.7,0.7,0.7,1","","",""
"","html-keyboard-response","63","65428","0.0-63.0","3J2UYBXQQMY6S23Q04KZYTZ2FZ160F","A2SKY4RRWII0BF","3MVY4USGB69K0BK9K576GJZ2CVDSII","","null","<img src=""img/land1.png"" style=""width:200px; border:14px solid green;"">","null","","","","","","","","","",""
"","image-keyboard-response","64","65975","0.0-64.0","3J2UYBXQQMY6S23Q04KZYTZ2FZ160F","A2SKY4RRWII0BF","3MVY4USGB69K0BK9K576GJZ2CVDSII","","544","img/land1.png","74","546","1","1","1","2","1,0.7,0.7,0.7,1,0.7,0.7,0.7,1","1,0.7,0.7,0.7,1,0.7,0.7,0.7,1","","",""
"","html-keyboard-response","65","66276","0.0-65.0","3J2UYBXQQMY6S23Q04KZYTZ2FZ160F","A2SKY4RRWII0BF","3MVY4USGB69K0BK9K576GJZ2CVDSII","","null","<img src=""img/land1.png"" style=""width:200px; border:14px solid green;"">","null","","","","","","","","","",""
"","image-keyboard-response","66","66935","0.0-66.0","3J2UYBXQQMY6S23Q04KZYTZ2FZ160F","A2SKY4RRWII0BF","3MVY4USGB69K0BK9K576GJZ2CVDSII","","657","img/land3.png","76","658","3","1","3","2","1,0.7,0.7,0.7,1,0.7,0.7,0.7,1","1,0.7,0.7,0.7,1,0.7,0.7,0.7,1","","",""
"","html-keyboard-response","67","67236","0.0-67.0","3J2UYBXQQMY6S23Q04KZYTZ2FZ160F","A2SKY4RRWII0BF","3MVY4USGB69K0BK9K576GJZ2CVDSII","","null","<img src=""img/land3.png"" style=""width:200px; border:14px solid green;"">","null","","","","","","","","","",""
"","image-keyboard-response","68","68398","0.0-68.0","3J2UYBXQQMY6S23Q04KZYTZ2FZ160F","A2SKY4RRWII0BF","3MVY4USGB69K0BK9K576GJZ2CVDSII","","1162","img/land2.png","74","1162","1","0","2","2","1,0.7,0.7,0.7,1,0.7,0.7,0.7,1","1,0.7,0.7,0.7,1,0.7,0.7,0.7,1","","",""
"","html-keyboard-response","69","68699","0.0-69.0","3J2UYBXQQMY6S23Q04KZYTZ2FZ160F","A2SKY4RRWII0BF","3MVY4USGB69K0BK9K576GJZ2CVDSII","","null","<img src=""img/land2.png"" style=""width:200px;border:14px solid red;"">","null","","","","","","","","","",""
"","image-keyboard-response","70","70007","0.0-70.0","3J2UYBXQQMY6S23Q04KZYTZ2FZ160F","A2SKY4RRWII0BF","3MVY4USGB69K0BK9K576GJZ2CVDSII","","1307","img/land1.png","74","1307","1","1","1","2","1,0.7,0.7,0.7,1,0.7,0.7,0.7,1","1,0.7,0.7,0.7,1,0.7,0.7,0.7,1","","",""
"","html-keyboard-response","71","70308","0.0-71.0","3J2UYBXQQMY6S23Q04KZYTZ2FZ160F","A2SKY4RRWII0BF","3MVY4USGB69K0BK9K576GJZ2CVDSII","","null","<img src=""img/land1.png"" style=""width:200px; border:14px solid green;"">","null","","","","","","","","","",""
"","image-keyboard-response","72","71087","0.0-72.0","3J2UYBXQQMY6S23Q04KZYTZ2FZ160F","A2SKY4RRWII0BF","3MVY4USGB69K0BK9K576GJZ2CVDSII","","777","img/land3.png","76","779","3","1","3","2","1,0.7,0.7,0.7,1,0.7,0.7,0.7,1","1,0.7,0.7,0.7,1,0.7,0.7,0.7,1","","",""
"","html-keyboard-response","73","71388","0.0-73.0","3J2UYBXQQMY6S23Q04KZYTZ2FZ160F","A2SKY4RRWII0BF","3MVY4USGB69K0BK9K576GJZ2CVDSII","","null","<img src=""img/land3.png"" style=""width:200px; border:14px solid green;"">","null","","","","","","","","","",""
"","image-keyboard-response","74","72358","0.0-74.0","3J2UYBXQQMY6S23Q04KZYTZ2FZ160F","A2SKY4RRWII0BF","3MVY4USGB69K0BK9K576GJZ2CVDSII","","969","img/land1.png","74","970","1","1","1","2","1,0.7,0.7,0.7,1,0.7,0.7,0.7,1","1,0.7,0.7,0.7,1,0.7,0.7,0.7,1","","",""
"","html-keyboard-response","75","72660","0.0-75.0","3J2UYBXQQMY6S23Q04KZYTZ2FZ160F","A2SKY4RRWII0BF","3MVY4USGB69K0BK9K576GJZ2CVDSII","","null","<img src=""img/land1.png"" style=""width:200px; border:14px solid green;"">","null","","","","","","","","","",""
"","image-keyboard-response","76","73158","0.0-76.0","3J2UYBXQQMY6S23Q04KZYTZ2FZ160F","A2SKY4RRWII0BF","3MVY4USGB69K0BK9K576GJZ2CVDSII","","498","img/land1.png","74","498","1","1","1","2","1,0.7,0.7,0.7,1,0.7,0.7,0.7,1","1,0.7,0.7,0.7,1,0.7,0.7,0.7,1","","",""
"","html-keyboard-response","77","73459","0.0-77.0","3J2UYBXQQMY6S23Q04KZYTZ2FZ160F","A2SKY4RRWII0BF","3MVY4USGB69K0BK9K576GJZ2CVDSII","","null","<img src=""img/land1.png"" style=""width:200px; border:14px solid green;"">","null","","","","","","","","","",""
"","image-keyboard-response","78","74038","0.0-78.0","3J2UYBXQQMY6S23Q04KZYTZ2FZ160F","A2SKY4RRWII0BF","3MVY4USGB69K0BK9K576GJZ2CVDSII","","578","img/land2.png","75","579","2","1","2","2","1,0.7,0.7,0.7,1,0.7,0.7,0.7,1","1,0.7,0.7,0.7,1,0.7,0.7,0.7,1","","",""
"","html-keyboard-response","79","74340","0.0-79.0","3J2UYBXQQMY6S23Q04KZYTZ2FZ160F","A2SKY4RRWII0BF","3MVY4USGB69K0BK9K576GJZ2CVDSII","","null","<img src=""img/land2.png"" style=""width:200px; border:14px solid green;"">","null","","","","","","","","","",""
"","image-keyboard-response","80","75095","0.0-80.0","3J2UYBXQQMY6S23Q04KZYTZ2FZ160F","A2SKY4RRWII0BF","3MVY4USGB69K0BK9K576GJZ2CVDSII","","753","img/land1.png","74","755","1","1","1","2","1,0.7,0.7,0.7,1,0.7,0.7,0.7,1","1,0.7,0.7,0.7,1,0.7,0.7,0.7,1","","",""
"","html-keyboard-response","81","75396","0.0-81.0","3J2UYBXQQMY6S23Q04KZYTZ2FZ160F","A2SKY4RRWII0BF","3MVY4USGB69K0BK9K576GJZ2CVDSII","","null","<img src=""img/land1.png"" style=""width:200px; border:14px solid green;"">","null","","","","","","","","","",""
"","image-keyboard-response","82","76111","0.0-82.0","3J2UYBXQQMY6S23Q04KZYTZ2FZ160F","A2SKY4RRWII0BF","3MVY4USGB69K0BK9K576GJZ2CVDSII","","714","img/land3.png","76","714","3","1","3","2","1,0.7,0.7,0.7,1,0.7,0.7,0.7,1","1,0.7,0.7,0.7,1,0.7,0.7,0.7,1","","",""
"","html-keyboard-response","83","76412","0.0-83.0","3J2UYBXQQMY6S23Q04KZYTZ2FZ160F","A2SKY4RRWII0BF","3MVY4USGB69K0BK9K576GJZ2CVDSII","","null","<img src=""img/land3.png"" style=""width:200px; border:14px solid green;"">","null","","","","","","","","","",""
"","image-keyboard-response","84","79127","0.0-84.0","3J2UYBXQQMY6S23Q04KZYTZ2FZ160F","A2SKY4RRWII0BF","3MVY4USGB69K0BK9K576GJZ2CVDSII","","2713","img/land2.png","74","2715","1","1","2","2","1,0.7,0.7,0.7,1,0.7,0.7,0.7,1","1,0.7,0.7,0.7,1,0.7,0.7,0.7,1","","",""
"","html-keyboard-response","85","79429","0.0-85.0","3J2UYBXQQMY6S23Q04KZYTZ2FZ160F","A2SKY4RRWII0BF","3MVY4USGB69K0BK9K576GJZ2CVDSII","","null","<img src=""img/land2.png"" style=""width:200px; border:14px solid green;"">","null","","","","","","","","","",""
"","image-keyboard-response","86","80790","0.0-86.0","3J2UYBXQQMY6S23Q04KZYTZ2FZ160F","A2SKY4RRWII0BF","3MVY4USGB69K0BK9K576GJZ2CVDSII","","1361","img/land1.png","74","1362","1","1","1","2","1,0.7,0.7,0.7,1,0.7,0.7,0.7,1","1,0.7,0.7,0.7,1,0.7,0.7,0.7,1","","",""
"","html-keyboard-response","87","81091","0.0-87.0","3J2UYBXQQMY6S23Q04KZYTZ2FZ160F","A2SKY4RRWII0BF","3MVY4USGB69K0BK9K576GJZ2CVDSII","","null","<img src=""img/land1.png"" style=""width:200px; border:14px solid green;"">","null","","","","","","","","","",""
"","image-keyboard-response","88","82231","0.0-88.0","3J2UYBXQQMY6S23Q04KZYTZ2FZ160F","A2SKY4RRWII0BF","3MVY4USGB69K0BK9K576GJZ2CVDSII","","1138","img/land3.png","75","1139","2","1","3","2","1,0.7,0.7,0.7,1,0.7,0.7,0.7,1","1,0.7,0.7,0.7,1,0.7,0.7,0.7,1","","",""
"","html-keyboard-response","89","82532","0.0-89.0","3J2UYBXQQMY6S23Q04KZYTZ2FZ160F","A2SKY4RRWII0BF","3MVY4USGB69K0BK9K576GJZ2CVDSII","","null","<img src=""img/land3.png"" style=""width:200px; border:14px solid green;"">","null","","","","","","","","","",""
"","image-keyboard-response","90","84319","0.0-90.0","3J2UYBXQQMY6S23Q04KZYTZ2FZ160F","A2SKY4RRWII0BF","3MVY4USGB69K0BK9K576GJZ2CVDSII","","1786","img/land2.png","75","1786","2","1","2","2","1,0.7,0.7,0.7,1,0.7,0.7,0.7,1","1,0.7,0.7,0.7,1,0.7,0.7,0.7,1","","",""
"","html-keyboard-response","91","84620","0.0-91.0","3J2UYBXQQMY6S23Q04KZYTZ2FZ160F","A2SKY4RRWII0BF","3MVY4USGB69K0BK9K576GJZ2CVDSII","","null","<img src=""img/land2.png"" style=""width:200px; border:14px solid green;"">","null","","","","","","","","","",""
"","image-keyboard-response","92","85927","0.0-92.0","3J2UYBXQQMY6S23Q04KZYTZ2FZ160F","A2SKY4RRWII0BF","3MVY4USGB69K0BK9K576GJZ2CVDSII","","1306","img/land1.png","74","1306","1","1","1","2","1,0.7,0.7,0.7,1,0.7,0.7,0.7,1","1,0.7,0.7,0.7,1,0.7,0.7,0.7,1","","",""
"","html-keyboard-response","93","86228","0.0-93.0","3J2UYBXQQMY6S23Q04KZYTZ2FZ160F","A2SKY4RRWII0BF","3MVY4USGB69K0BK9K576GJZ2CVDSII","","null","<img src=""img/land1.png"" style=""width:200px; border:14px solid green;"">","null","","","","","","","","","",""
"","image-keyboard-response","94","86767","0.0-94.0","3J2UYBXQQMY6S23Q04KZYTZ2FZ160F","A2SKY4RRWII0BF","3MVY4USGB69K0BK9K576GJZ2CVDSII","","538","img/land3.png","75","539","2","0","3","2","1,0.7,0.7,0.7,1,0.7,0.7,0.7,1","1,0.7,0.7,0.7,1,0.7,0.7,0.7,1","","",""
"","html-keyboard-response","95","87068","0.0-95.0","3J2UYBXQQMY6S23Q04KZYTZ2FZ160F","A2SKY4RRWII0BF","3MVY4USGB69K0BK9K576GJZ2CVDSII","","null","<img src=""img/land3.png"" style=""width:200px;border:14px solid red;"">","null","","","","","","","","","",""
"","image-keyboard-response","96","88919","0.0-96.0","3J2UYBXQQMY6S23Q04KZYTZ2FZ160F","A2SKY4RRWII0BF","3MVY4USGB69K0BK9K576GJZ2CVDSII","","1850","img/land1.png","74","1851","1","1","1","2","1,0.7,0.7,0.7,1,0.7,0.7,0.7,1","1,0.7,0.7,0.7,1,0.7,0.7,0.7,1","","",""
"","html-keyboard-response","97","89220","0.0-97.0","3J2UYBXQQMY6S23Q04KZYTZ2FZ160F","A2SKY4RRWII0BF","3MVY4USGB69K0BK9K576GJZ2CVDSII","","null","<img src=""img/land1.png"" style=""width:200px; border:14px solid green;"">","null","","","","","","","","","",""
"","image-keyboard-response","98","89719","0.0-98.0","3J2UYBXQQMY6S23Q04KZYTZ2FZ160F","A2SKY4RRWII0BF","3MVY4USGB69K0BK9K576GJZ2CVDSII","","498","img/land1.png","74","499","1","1","1","2","1,0.7,0.7,0.7,1,0.7,0.7,0.7,1","1,0.7,0.7,0.7,1,0.7,0.7,0.7,1","","",""
"","html-keyboard-response","99","90020","0.0-99.0","3J2UYBXQQMY6S23Q04KZYTZ2FZ160F","A2SKY4RRWII0BF","3MVY4USGB69K0BK9K576GJZ2CVDSII","","null","<img src=""img/land1.png"" style=""width:200px; border:14px solid green;"">","null","","","","","","","","","",""
"","image-keyboard-response","100","92167","0.0-100.0","3J2UYBXQQMY6S23Q04KZYTZ2FZ160F","A2SKY4RRWII0BF","3MVY4USGB69K0BK9K576GJZ2CVDSII","","2146","img/land2.png","75","2147","2","1","2","2","1,0.7,0.7,0.7,1,0.7,0.7,0.7,1","1,0.7,0.7,0.7,1,0.7,0.7,0.7,1","","",""
"","html-keyboard-response","101","92468","0.0-101.0","3J2UYBXQQMY6S23Q04KZYTZ2FZ160F","A2SKY4RRWII0BF","3MVY4USGB69K0BK9K576GJZ2CVDSII","","null","<img src=""img/land2.png"" style=""width:200px; border:14px solid green;"">","null","","","","","","","","","",""
"","image-keyboard-response","102","93279","0.0-102.0","3J2UYBXQQMY6S23Q04KZYTZ2FZ160F","A2SKY4RRWII0BF","3MVY4USGB69K0BK9K576GJZ2CVDSII","","809","img/land1.png","74","811","1","1","1","2","1,0.7,0.7,0.7,1,0.7,0.7,0.7,1","1,0.7,0.7,0.7,1,0.7,0.7,0.7,1","","",""
"","html-keyboard-response","103","93581","0.0-103.0","3J2UYBXQQMY6S23Q04KZYTZ2FZ160F","A2SKY4RRWII0BF","3MVY4USGB69K0BK9K576GJZ2CVDSII","","null","<img src=""img/land1.png"" style=""width:200px; border:14px solid green;"">","null","","","","","","","","","",""
"","image-keyboard-response","104","94263","0.0-104.0","3J2UYBXQQMY6S23Q04KZYTZ2FZ160F","A2SKY4RRWII0BF","3MVY4USGB69K0BK9K576GJZ2CVDSII","","681","img/land3.png","76","682","3","1","3","2","1,0.7,0.7,0.7,1,0.7,0.7,0.7,1","1,0.7,0.7,0.7,1,0.7,0.7,0.7,1","","",""
"","html-keyboard-response","105","94564","0.0-105.0","3J2UYBXQQMY6S23Q04KZYTZ2FZ160F","A2SKY4RRWII0BF","3MVY4USGB69K0BK9K576GJZ2CVDSII","","null","<img src=""img/land3.png"" style=""width:200px; border:14px solid green;"">","null","","","","","","","","","",""
"","image-keyboard-response","106","96127","0.0-106.0","3J2UYBXQQMY6S23Q04KZYTZ2FZ160F","A2SKY4RRWII0BF","3MVY4USGB69K0BK9K576GJZ2CVDSII","","1561","img/land2.png","75","1562","2","1","2","2","1,0.7,0.7,0.7,1,0.7,0.7,0.7,1","1,0.7,0.7,0.7,1,0.7,0.7,0.7,1","","",""
"","html-keyboard-response","107","96428","0.0-107.0","3J2UYBXQQMY6S23Q04KZYTZ2FZ160F","A2SKY4RRWII0BF","3MVY4USGB69K0BK9K576GJZ2CVDSII","","null","<img src=""img/land2.png"" style=""width:200px; border:14px solid green;"">","null","","","","","","","","","",""
"","image-keyboard-response","108","96999","0.0-108.0","3J2UYBXQQMY6S23Q04KZYTZ2FZ160F","A2SKY4RRWII0BF","3MVY4USGB69K0BK9K576GJZ2CVDSII","","570","img/land1.png","74","570","1","1","1","2","1,0.7,0.7,0.7,1,0.7,0.7,0.7,1","1,0.7,0.7,0.7,1,0.7,0.7,0.7,1","","",""
"","html-keyboard-response","109","97300","0.0-109.0","3J2UYBXQQMY6S23Q04KZYTZ2FZ160F","A2SKY4RRWII0BF","3MVY4USGB69K0BK9K576GJZ2CVDSII","","null","<img src=""img/land1.png"" style=""width:200px; border:14px solid green;"">","null","","","","","","","","","",""
"","image-keyboard-response","110","97991","0.0-110.0","3J2UYBXQQMY6S23Q04KZYTZ2FZ160F","A2SKY4RRWII0BF","3MVY4USGB69K0BK9K576GJZ2CVDSII","","690","img/land1.png","74","691","1","1","1","2","1,0.7,0.7,0.7,1,0.7,0.7,0.7,1","1,0.7,0.7,0.7,1,0.7,0.7,0.7,1","","",""
"","html-keyboard-response","111","98292","0.0-111.0","3J2UYBXQQMY6S23Q04KZYTZ2FZ160F","A2SKY4RRWII0BF","3MVY4USGB69K0BK9K576GJZ2CVDSII","","null","<img src=""img/land1.png"" style=""width:200px; border:14px solid green;"">","null","","","","","","","","","",""
"","image-keyboard-response","112","98663","0.0-112.0","3J2UYBXQQMY6S23Q04KZYTZ2FZ160F","A2SKY4RRWII0BF","3MVY4USGB69K0BK9K576GJZ2CVDSII","","369","img/land1.png","74","370","1","1","1","2","1,0.7,0.7,0.7,1,0.7,0.7,0.7,1","1,0.7,0.7,0.7,1,0.7,0.7,0.7,1","","",""
"","html-keyboard-response","113","98964","0.0-113.0","3J2UYBXQQMY6S23Q04KZYTZ2FZ160F","A2SKY4RRWII0BF","3MVY4USGB69K0BK9K576GJZ2CVDSII","","null","<img src=""img/land1.png"" style=""width:200px; border:14px solid green;"">","null","","","","","","","","","",""
"","image-keyboard-response","114","99303","0.0-114.0","3J2UYBXQQMY6S23Q04KZYTZ2FZ160F","A2SKY4RRWII0BF","3MVY4USGB69K0BK9K576GJZ2CVDSII","","338","img/land1.png","74","339","1","1","1","2","1,0.7,0.7,0.7,1,0.7,0.7,0.7,1","1,0.7,0.7,0.7,1,0.7,0.7,0.7,1","","",""
"","html-keyboard-response","115","99604","0.0-115.0","3J2UYBXQQMY6S23Q04KZYTZ2FZ160F","A2SKY4RRWII0BF","3MVY4USGB69K0BK9K576GJZ2CVDSII","","null","<img src=""img/land1.png"" style=""width:200px; border:14px solid green;"">","null","","","","","","","","","",""
"","image-keyboard-response","116","100535","0.0-116.0","3J2UYBXQQMY6S23Q04KZYTZ2FZ160F","A2SKY4RRWII0BF","3MVY4USGB69K0BK9K576GJZ2CVDSII","","930","img/land2.png","75","930","2","1","2","2","1,0.7,0.7,0.7,1,0.7,0.7,0.7,1","1,0.7,0.7,0.7,1,0.7,0.7,0.7,1","","",""
"","html-keyboard-response","117","100836","0.0-117.0","3J2UYBXQQMY6S23Q04KZYTZ2FZ160F","A2SKY4RRWII0BF","3MVY4USGB69K0BK9K576GJZ2CVDSII","","null","<img src=""img/land2.png"" style=""width:200px; border:14px solid green;"">","null","","","","","","","","","",""
"","image-keyboard-response","118","101519","0.0-118.0","3J2UYBXQQMY6S23Q04KZYTZ2FZ160F","A2SKY4RRWII0BF","3MVY4USGB69K0BK9K576GJZ2CVDSII","","681","img/land1.png","74","682","1","1","1","2","1,0.7,0.7,0.7,1,0.7,0.7,0.7,1","1,0.7,0.7,0.7,1,0.7,0.7,0.7,1","","",""
"","html-keyboard-response","119","101819","0.0-119.0","3J2UYBXQQMY6S23Q04KZYTZ2FZ160F","A2SKY4RRWII0BF","3MVY4USGB69K0BK9K576GJZ2CVDSII","","null","<img src=""img/land1.png"" style=""width:200px; border:14px solid green;"">","null","","","","","","","","","",""
"","image-keyboard-response","120","102199","0.0-120.0","3J2UYBXQQMY6S23Q04KZYTZ2FZ160F","A2SKY4RRWII0BF","3MVY4USGB69K0BK9K576GJZ2CVDSII","","378","img/land1.png","74","379","1","1","1","2","1,0.7,0.7,0.7,1,0.7,0.7,0.7,1","1,0.7,0.7,0.7,1,0.7,0.7,0.7,1","","",""
"","html-keyboard-response","121","102500","0.0-121.0","3J2UYBXQQMY6S23Q04KZYTZ2FZ160F","A2SKY4RRWII0BF","3MVY4USGB69K0BK9K576GJZ2CVDSII","","null","<img src=""img/land1.png"" style=""width:200px; border:14px solid green;"">","null","","","","","","","","","",""
"","image-keyboard-response","122","103343","0.0-122.0","3J2UYBXQQMY6S23Q04KZYTZ2FZ160F","A2SKY4RRWII0BF","3MVY4USGB69K0BK9K576GJZ2CVDSII","","841","img/land2.png","75","842","2","1","2","2","1,0.7,0.7,0.7,1,0.7,0.7,0.7,1","1,0.7,0.7,0.7,1,0.7,0.7,0.7,1","","",""
"","html-keyboard-response","123","103644","0.0-123.0","3J2UYBXQQMY6S23Q04KZYTZ2FZ160F","A2SKY4RRWII0BF","3MVY4USGB69K0BK9K576GJZ2CVDSII","","null","<img src=""img/land2.png"" style=""width:200px; border:14px solid green;"">","null","","","","","","","","","",""
"","image-keyboard-response","124","104143","0.0-124.0","3J2UYBXQQMY6S23Q04KZYTZ2FZ160F","A2SKY4RRWII0BF","3MVY4USGB69K0BK9K576GJZ2CVDSII","","497","img/land2.png","75","498","2","1","2","2","1,0.7,0.7,0.7,1,0.7,0.7,0.7,1","1,0.7,0.7,0.7,1,0.7,0.7,0.7,1","","",""
"","html-keyboard-response","125","104444","0.0-125.0","3J2UYBXQQMY6S23Q04KZYTZ2FZ160F","A2SKY4RRWII0BF","3MVY4USGB69K0BK9K576GJZ2CVDSII","","null","<img src=""img/land2.png"" style=""width:200px; border:14px solid green;"">","null","","","","","","","","","",""
"","image-keyboard-response","126","104871","0.0-126.0","3J2UYBXQQMY6S23Q04KZYTZ2FZ160F","A2SKY4RRWII0BF","3MVY4USGB69K0BK9K576GJZ2CVDSII","","426","img/land2.png","75","426","2","1","2","2","1,0.7,0.7,0.7,1,0.7,0.7,0.7,1","1,0.7,0.7,0.7,1,0.7,0.7,0.7,1","","",""
"","html-keyboard-response","127","105172","0.0-127.0","3J2UYBXQQMY6S23Q04KZYTZ2FZ160F","A2SKY4RRWII0BF","3MVY4USGB69K0BK9K576GJZ2CVDSII","","null","<img src=""img/land2.png"" style=""width:200px; border:14px solid green;"">","null","","","","","","","","","",""
"","image-keyboard-response","128","105735","0.0-128.0","3J2UYBXQQMY6S23Q04KZYTZ2FZ160F","A2SKY4RRWII0BF","3MVY4USGB69K0BK9K576GJZ2CVDSII","","562","img/land1.png","74","563","1","1","1","2","1,0.7,0.7,0.7,1,0.7,0.7,0.7,1","1,0.7,0.7,0.7,1,0.7,0.7,0.7,1","","",""
"","html-keyboard-response","129","106036","0.0-129.0","3J2UYBXQQMY6S23Q04KZYTZ2FZ160F","A2SKY4RRWII0BF","3MVY4USGB69K0BK9K576GJZ2CVDSII","","null","<img src=""img/land1.png"" style=""width:200px; border:14px solid green;"">","null","","","","","","","","","",""
"","image-keyboard-response","130","106463","0.0-130.0","3J2UYBXQQMY6S23Q04KZYTZ2FZ160F","A2SKY4RRWII0BF","3MVY4USGB69K0BK9K576GJZ2CVDSII","","426","img/land1.png","74","426","1","1","1","2","1,0.7,0.7,0.7,1,0.7,0.7,0.7,1","1,0.7,0.7,0.7,1,0.7,0.7,0.7,1","","",""
"","html-keyboard-response","131","106764","0.0-131.0","3J2UYBXQQMY6S23Q04KZYTZ2FZ160F","A2SKY4RRWII0BF","3MVY4USGB69K0BK9K576GJZ2CVDSII","","null","<img src=""img/land1.png"" style=""width:200px; border:14px solid green;"">","null","","","","","","","","","",""
"","image-keyboard-response","132","107143","0.0-132.0","3J2UYBXQQMY6S23Q04KZYTZ2FZ160F","A2SKY4RRWII0BF","3MVY4USGB69K0BK9K576GJZ2CVDSII","","378","img/land1.png","74","379","1","1","1","2","1,0.7,0.7,0.7,1,0.7,0.7,0.7,1","1,0.7,0.7,0.7,1,0.7,0.7,0.7,1","","",""
"","html-keyboard-response","133","107444","0.0-133.0","3J2UYBXQQMY6S23Q04KZYTZ2FZ160F","A2SKY4RRWII0BF","3MVY4USGB69K0BK9K576GJZ2CVDSII","","null","<img src=""img/land1.png"" style=""width:200px; border:14px solid green;"">","null","","","","","","","","","",""
"","image-keyboard-response","134","107839","0.0-134.0","3J2UYBXQQMY6S23Q04KZYTZ2FZ160F","A2SKY4RRWII0BF","3MVY4USGB69K0BK9K576GJZ2CVDSII","","393","img/land1.png","74","395","1","1","1","2","1,0.7,0.7,0.7,1,0.7,0.7,0.7,1","1,0.7,0.7,0.7,1,0.7,0.7,0.7,1","","",""
"","html-keyboard-response","135","108140","0.0-135.0","3J2UYBXQQMY6S23Q04KZYTZ2FZ160F","A2SKY4RRWII0BF","3MVY4USGB69K0BK9K576GJZ2CVDSII","","null","<img src=""img/land1.png"" style=""width:200px; border:14px solid green;"">","null","","","","","","","","","",""
"","image-keyboard-response","136","108511","0.0-136.0","3J2UYBXQQMY6S23Q04KZYTZ2FZ160F","A2SKY4RRWII0BF","3MVY4USGB69K0BK9K576GJZ2CVDSII","","370","img/land1.png","74","371","1","1","1","2","1,0.7,0.7,0.7,1,0.7,0.7,0.7,1","1,0.7,0.7,0.7,1,0.7,0.7,0.7,1","","",""
"","html-keyboard-response","137","108813","0.0-137.0","3J2UYBXQQMY6S23Q04KZYTZ2FZ160F","A2SKY4RRWII0BF","3MVY4USGB69K0BK9K576GJZ2CVDSII","","null","<img src=""img/land1.png"" style=""width:200px; border:14px solid green;"">","null","","","","","","","","","",""
"","image-keyboard-response","138","109462","0.0-138.0","3J2UYBXQQMY6S23Q04KZYTZ2FZ160F","A2SKY4RRWII0BF","3MVY4USGB69K0BK9K576GJZ2CVDSII","","648","img/land1.png","74","649","1","1","1","2","1,0.7,0.7,0.7,1,0.7,0.7,0.7,1","1,0.7,0.7,0.7,1,0.7,0.7,0.7,1","","",""
"","html-keyboard-response","139","109764","0.0-139.0","3J2UYBXQQMY6S23Q04KZYTZ2FZ160F","A2SKY4RRWII0BF","3MVY4USGB69K0BK9K576GJZ2CVDSII","","null","<img src=""img/land1.png"" style=""width:200px; border:14px solid green;"">","null","","","","","","","","","",""
"","image-keyboard-response","140","110775","0.0-140.0","3J2UYBXQQMY6S23Q04KZYTZ2FZ160F","A2SKY4RRWII0BF","3MVY4USGB69K0BK9K576GJZ2CVDSII","","1010","img/land2.png","75","1010","2","1","2","2","1,0.7,0.7,0.7,1,0.7,0.7,0.7,1","1,0.7,0.7,0.7,1,0.7,0.7,0.7,1","","",""
"","html-keyboard-response","141","111076","0.0-141.0","3J2UYBXQQMY6S23Q04KZYTZ2FZ160F","A2SKY4RRWII0BF","3MVY4USGB69K0BK9K576GJZ2CVDSII","","null","<img src=""img/land2.png"" style=""width:200px; border:14px solid green;"">","null","","","","","","","","","",""
"","image-keyboard-response","142","111655","0.0-142.0","3J2UYBXQQMY6S23Q04KZYTZ2FZ160F","A2SKY4RRWII0BF","3MVY4USGB69K0BK9K576GJZ2CVDSII","","578","img/land1.png","74","579","1","1","1","2","1,0.7,0.7,0.7,1,0.7,0.7,0.7,1","1,0.7,0.7,0.7,1,0.7,0.7,0.7,1","","",""
"","html-keyboard-response","143","111956","0.0-143.0","3J2UYBXQQMY6S23Q04KZYTZ2FZ160F","A2SKY4RRWII0BF","3MVY4USGB69K0BK9K576GJZ2CVDSII","","null","<img src=""img/land1.png"" style=""width:200px; border:14px solid green;"">","null","","","","","","","","","",""
"","image-keyboard-response","144","112319","0.0-144.0","3J2UYBXQQMY6S23Q04KZYTZ2FZ160F","A2SKY4RRWII0BF","3MVY4USGB69K0BK9K576GJZ2CVDSII","","362","img/land1.png","74","363","1","1","1","2","1,0.7,0.7,0.7,1,0.7,0.7,0.7,1","1,0.7,0.7,0.7,1,0.7,0.7,0.7,1","","",""
"","html-keyboard-response","145","112620","0.0-145.0","3J2UYBXQQMY6S23Q04KZYTZ2FZ160F","A2SKY4RRWII0BF","3MVY4USGB69K0BK9K576GJZ2CVDSII","","null","<img src=""img/land1.png"" style=""width:200px; border:14px solid green;"">","null","","","","","","","","","",""
"","image-keyboard-response","146","113143","0.0-146.0","3J2UYBXQQMY6S23Q04KZYTZ2FZ160F","A2SKY4RRWII0BF","3MVY4USGB69K0BK9K576GJZ2CVDSII","","521","img/land3.png","76","522","3","1","3","2","1,0.7,0.7,0.7,1,0.7,0.7,0.7,1","1,0.7,0.7,0.7,1,0.7,0.7,0.7,1","","",""
"","html-keyboard-response","147","113444","0.0-147.0","3J2UYBXQQMY6S23Q04KZYTZ2FZ160F","A2SKY4RRWII0BF","3MVY4USGB69K0BK9K576GJZ2CVDSII","","null","<img src=""img/land3.png"" style=""width:200px; border:14px solid green;"">","null","","","","","","","","","",""
"","image-keyboard-response","148","114343","0.0-148.0","3J2UYBXQQMY6S23Q04KZYTZ2FZ160F","A2SKY4RRWII0BF","3MVY4USGB69K0BK9K576GJZ2CVDSII","","897","img/land1.png","74","899","1","1","1","2","1,0.7,0.7,0.7,1,0.7,0.7,0.7,1","1,0.7,0.7,0.7,1,0.7,0.7,0.7,1","","",""
"","html-keyboard-response","149","114644","0.0-149.0","3J2UYBXQQMY6S23Q04KZYTZ2FZ160F","A2SKY4RRWII0BF","3MVY4USGB69K0BK9K576GJZ2CVDSII","","null","<img src=""img/land1.png"" style=""width:200px; border:14px solid green;"">","null","","","","","","","","","",""
"","image-keyboard-response","150","115103","0.0-150.0","3J2UYBXQQMY6S23Q04KZYTZ2FZ160F","A2SKY4RRWII0BF","3MVY4USGB69K0BK9K576GJZ2CVDSII","","457","img/land1.png","74","458","1","1","1","2","1,0.7,0.7,0.7,1,0.7,0.7,0.7,1","1,0.7,0.7,0.7,1,0.7,0.7,0.7,1","","",""
"","html-keyboard-response","151","115404","0.0-151.0","3J2UYBXQQMY6S23Q04KZYTZ2FZ160F","A2SKY4RRWII0BF","3MVY4USGB69K0BK9K576GJZ2CVDSII","","null","<img src=""img/land1.png"" style=""width:200px; border:14px solid green;"">","null","","","","","","","","","",""
"","image-keyboard-response","152","115911","0.0-152.0","3J2UYBXQQMY6S23Q04KZYTZ2FZ160F","A2SKY4RRWII0BF","3MVY4USGB69K0BK9K576GJZ2CVDSII","","506","img/land1.png","74","507","1","1","1","2","1,0.7,0.7,0.7,1,0.7,0.7,0.7,1","1,0.7,0.7,0.7,1,0.7,0.7,0.7,1","","",""
"","html-keyboard-response","153","116213","0.0-153.0","3J2UYBXQQMY6S23Q04KZYTZ2FZ160F","A2SKY4RRWII0BF","3MVY4USGB69K0BK9K576GJZ2CVDSII","","null","<img src=""img/land1.png"" style=""width:200px; border:14px solid green;"">","null","","","","","","","","","",""
"","image-keyboard-response","154","117063","0.0-154.0","3J2UYBXQQMY6S23Q04KZYTZ2FZ160F","A2SKY4RRWII0BF","3MVY4USGB69K0BK9K576GJZ2CVDSII","","849","img/land2.png","75","849","2","1","2","2","1,0.7,0.7,0.7,1,0.7,0.7,0.7,1","1,0.7,0.7,0.7,1,0.7,0.7,0.7,1","","",""
"","html-keyboard-response","155","117365","0.0-155.0","3J2UYBXQQMY6S23Q04KZYTZ2FZ160F","A2SKY4RRWII0BF","3MVY4USGB69K0BK9K576GJZ2CVDSII","","null","<img src=""img/land2.png"" style=""width:200px; border:14px solid green;"">","null","","","","","","","","","",""
"","image-keyboard-response","156","117791","0.0-156.0","3J2UYBXQQMY6S23Q04KZYTZ2FZ160F","A2SKY4RRWII0BF","3MVY4USGB69K0BK9K576GJZ2CVDSII","","424","img/land2.png","75","426","2","1","2","2","1,0.7,0.7,0.7,1,0.7,0.7,0.7,1","1,0.7,0.7,0.7,1,0.7,0.7,0.7,1","","",""
"","html-keyboard-response","157","118092","0.0-157.0","3J2UYBXQQMY6S23Q04KZYTZ2FZ160F","A2SKY4RRWII0BF","3MVY4USGB69K0BK9K576GJZ2CVDSII","","null","<img src=""img/land2.png"" style=""width:200px; border:14px solid green;"">","null","","","","","","","","","",""
"","image-keyboard-response","158","118486","0.0-158.0","3J2UYBXQQMY6S23Q04KZYTZ2FZ160F","A2SKY4RRWII0BF","3MVY4USGB69K0BK9K576GJZ2CVDSII","","394","img/land2.png","75","394","2","1","2","2","1,0.7,0.7,0.7,1,0.7,0.7,0.7,1","1,0.7,0.7,0.7,1,0.7,0.7,0.7,1","","",""
"","html-keyboard-response","159","118788","0.0-159.0","3J2UYBXQQMY6S23Q04KZYTZ2FZ160F","A2SKY4RRWII0BF","3MVY4USGB69K0BK9K576GJZ2CVDSII","","null","<img src=""img/land2.png"" style=""width:200px; border:14px solid green;"">","null","","","","","","","","","",""
"","image-keyboard-response","160","119231","0.0-160.0","3J2UYBXQQMY6S23Q04KZYTZ2FZ160F","A2SKY4RRWII0BF","3MVY4USGB69K0BK9K576GJZ2CVDSII","","442","img/land2.png","75","442","2","1","2","2","1,0.7,0.7,0.7,1,0.7,0.7,0.7,1","1,0.7,0.7,0.7,1,0.7,0.7,0.7,1","","",""
"","html-keyboard-response","161","119532","0.0-161.0","3J2UYBXQQMY6S23Q04KZYTZ2FZ160F","A2SKY4RRWII0BF","3MVY4USGB69K0BK9K576GJZ2CVDSII","","null","<img src=""img/land2.png"" style=""width:200px; border:14px solid green;"">","null","","","","","","","","","",""
"","image-keyboard-response","162","120095","0.0-162.0","3J2UYBXQQMY6S23Q04KZYTZ2FZ160F","A2SKY4RRWII0BF","3MVY4USGB69K0BK9K576GJZ2CVDSII","","562","img/land1.png","74","564","1","1","1","2","1,0.7,0.7,0.7,1,0.7,0.7,0.7,1","1,0.7,0.7,0.7,1,0.7,0.7,0.7,1","","",""
"","html-keyboard-response","163","120396","0.0-163.0","3J2UYBXQQMY6S23Q04KZYTZ2FZ160F","A2SKY4RRWII0BF","3MVY4USGB69K0BK9K576GJZ2CVDSII","","null","<img src=""img/land1.png"" style=""width:200px; border:14px solid green;"">","null","","","","","","","","","",""
"","image-keyboard-response","164","121015","0.0-164.0","3J2UYBXQQMY6S23Q04KZYTZ2FZ160F","A2SKY4RRWII0BF","3MVY4USGB69K0BK9K576GJZ2CVDSII","","617","img/land3.png","76","618","3","1","3","2","1,0.7,0.7,0.7,1,0.7,0.7,0.7,1","1,0.7,0.7,0.7,1,0.7,0.7,0.7,1","","",""
"","html-keyboard-response","165","121316","0.0-165.0","3J2UYBXQQMY6S23Q04KZYTZ2FZ160F","A2SKY4RRWII0BF","3MVY4USGB69K0BK9K576GJZ2CVDSII","","null","<img src=""img/land3.png"" style=""width:200px; border:14px solid green;"">","null","","","","","","","","","",""
"","image-keyboard-response","166","121903","0.0-166.0","3J2UYBXQQMY6S23Q04KZYTZ2FZ160F","A2SKY4RRWII0BF","3MVY4USGB69K0BK9K576GJZ2CVDSII","","587","img/land3.png","76","587","3","1","3","2","1,0.7,0.7,0.7,1,0.7,0.7,0.7,1","1,0.7,0.7,0.7,1,0.7,0.7,0.7,1","","",""
"","html-keyboard-response","167","122205","0.0-167.0","3J2UYBXQQMY6S23Q04KZYTZ2FZ160F","A2SKY4RRWII0BF","3MVY4USGB69K0BK9K576GJZ2CVDSII","","null","<img src=""img/land3.png"" style=""width:200px; border:14px solid green;"">","null","","","","","","","","","",""
"","image-keyboard-response","168","122647","0.0-168.0","3J2UYBXQQMY6S23Q04KZYTZ2FZ160F","A2SKY4RRWII0BF","3MVY4USGB69K0BK9K576GJZ2CVDSII","","441","img/land3.png","76","442","3","1","3","2","1,0.7,0.7,0.7,1,0.7,0.7,0.7,1","1,0.7,0.7,0.7,1,0.7,0.7,0.7,1","","",""
"","html-keyboard-response","169","122948","0.0-169.0","3J2UYBXQQMY6S23Q04KZYTZ2FZ160F","A2SKY4RRWII0BF","3MVY4USGB69K0BK9K576GJZ2CVDSII","","null","<img src=""img/land3.png"" style=""width:200px; border:14px solid green;"">","null","","","","","","","","","",""
"","html-keyboard-response","170","127767","0.0-170.0","3J2UYBXQQMY6S23Q04KZYTZ2FZ160F","A2SKY4RRWII0BF","3MVY4USGB69K0BK9K576GJZ2CVDSII","","","","","","","","","","","","","",""
"","image-keyboard-response","171","128783","0.0-171.0","3J2UYBXQQMY6S23Q04KZYTZ2FZ160F","A2SKY4RRWII0BF","3MVY4USGB69K0BK9K576GJZ2CVDSII","","1015","img/land4.png","75","1016","2","1","1","2","1,0.7,0.7,0.7,1,0.7,0.7,0.7,1","1,0.7,0.7,0.7,1,0.7,0.7,0.7,1","","",""
"","html-keyboard-response","172","129084","0.0-172.0","3J2UYBXQQMY6S23Q04KZYTZ2FZ160F","A2SKY4RRWII0BF","3MVY4USGB69K0BK9K576GJZ2CVDSII","","null","<img src=""img/land4.png"" style=""width:200px; border:14px solid green;"">","null","","","","","","","","","",""
"","image-keyboard-response","173","130175","0.0-173.0","3J2UYBXQQMY6S23Q04KZYTZ2FZ160F","A2SKY4RRWII0BF","3MVY4USGB69K0BK9K576GJZ2CVDSII","","1090","img/land6.png","76","1091","3","1","3","2","1,0.7,0.7,0.7,1,0.7,0.7,0.7,1","1,0.7,0.7,0.7,1,0.7,0.7,0.7,1","","",""
"","html-keyboard-response","174","130477","0.0-174.0","3J2UYBXQQMY6S23Q04KZYTZ2FZ160F","A2SKY4RRWII0BF","3MVY4USGB69K0BK9K576GJZ2CVDSII","","null","<img src=""img/land6.png"" style=""width:200px; border:14px solid green;"">","null","","","","","","","","","",""
"","image-keyboard-response","175","131711","0.0-175.0","3J2UYBXQQMY6S23Q04KZYTZ2FZ160F","A2SKY4RRWII0BF","3MVY4USGB69K0BK9K576GJZ2CVDSII","","1233","img/land5.png","74","1233","1","1","2","2","1,0.7,0.7,0.7,1,0.7,0.7,0.7,1","1,0.7,0.7,0.7,1,0.7,0.7,0.7,1","","",""
"","html-keyboard-response","176","132013","0.0-176.0","3J2UYBXQQMY6S23Q04KZYTZ2FZ160F","A2SKY4RRWII0BF","3MVY4USGB69K0BK9K576GJZ2CVDSII","","null","<img src=""img/land5.png"" style=""width:200px; border:14px solid green;"">","null","","","","","","","","","",""
"","image-keyboard-response","177","132871","0.0-177.0","3J2UYBXQQMY6S23Q04KZYTZ2FZ160F","A2SKY4RRWII0BF","3MVY4USGB69K0BK9K576GJZ2CVDSII","","858","img/land6.png","76","859","3","1","3","2","1,0.7,0.7,0.7,1,0.7,0.7,0.7,1","1,0.7,0.7,0.7,1,0.7,0.7,0.7,1","","",""
"","html-keyboard-response","178","133172","0.0-178.0","3J2UYBXQQMY6S23Q04KZYTZ2FZ160F","A2SKY4RRWII0BF","3MVY4USGB69K0BK9K576GJZ2CVDSII","","null","<img src=""img/land6.png"" style=""width:200px; border:14px solid green;"">","null","","","","","","","","","",""
"","image-keyboard-response","179","133751","0.0-179.0","3J2UYBXQQMY6S23Q04KZYTZ2FZ160F","A2SKY4RRWII0BF","3MVY4USGB69K0BK9K576GJZ2CVDSII","","577","img/land6.png","76","578","3","1","3","2","1,0.7,0.7,0.7,1,0.7,0.7,0.7,1","1,0.7,0.7,0.7,1,0.7,0.7,0.7,1","","",""
"","html-keyboard-response","180","134052","0.0-180.0","3J2UYBXQQMY6S23Q04KZYTZ2FZ160F","A2SKY4RRWII0BF","3MVY4USGB69K0BK9K576GJZ2CVDSII","","null","<img src=""img/land6.png"" style=""width:200px; border:14px solid green;"">","null","","","","","","","","","",""
"","image-keyboard-response","181","134831","0.0-181.0","3J2UYBXQQMY6S23Q04KZYTZ2FZ160F","A2SKY4RRWII0BF","3MVY4USGB69K0BK9K576GJZ2CVDSII","","778","img/land4.png","75","778","2","1","1","2","1,0.7,0.7,0.7,1,0.7,0.7,0.7,1","1,0.7,0.7,0.7,1,0.7,0.7,0.7,1","","",""
"","html-keyboard-response","182","135132","0.0-182.0","3J2UYBXQQMY6S23Q04KZYTZ2FZ160F","A2SKY4RRWII0BF","3MVY4USGB69K0BK9K576GJZ2CVDSII","","null","<img src=""img/land4.png"" style=""width:200px; border:14px solid green;"">","null","","","","","","","","","",""
"","image-keyboard-response","183","135623","0.0-183.0","3J2UYBXQQMY6S23Q04KZYTZ2FZ160F","A2SKY4RRWII0BF","3MVY4USGB69K0BK9K576GJZ2CVDSII","","490","img/land5.png","74","490","1","0","2","2","1,0.7,0.7,0.7,1,0.7,0.7,0.7,1","1,0.7,0.7,0.7,1,0.7,0.7,0.7,1","","",""
"","html-keyboard-response","184","135924","0.0-184.0","3J2UYBXQQMY6S23Q04KZYTZ2FZ160F","A2SKY4RRWII0BF","3MVY4USGB69K0BK9K576GJZ2CVDSII","","null","<img src=""img/land5.png"" style=""width:200px;border:14px solid red;"">","null","","","","","","","","","",""
"","image-keyboard-response","185","137383","0.0-185.0","3J2UYBXQQMY6S23Q04KZYTZ2FZ160F","A2SKY4RRWII0BF","3MVY4USGB69K0BK9K576GJZ2CVDSII","","1458","img/land5.png","75","1459","2","1","2","2","1,0.7,0.7,0.7,1,0.7,0.7,0.7,1","1,0.7,0.7,0.7,1,0.7,0.7,0.7,1","","",""
"","html-keyboard-response","186","137684","0.0-186.0","3J2UYBXQQMY6S23Q04KZYTZ2FZ160F","A2SKY4RRWII0BF","3MVY4USGB69K0BK9K576GJZ2CVDSII","","null","<img src=""img/land5.png"" style=""width:200px; border:14px solid green;"">","null","","","","","","","","","",""
"","image-keyboard-response","187","138871","0.0-187.0","3J2UYBXQQMY6S23Q04KZYTZ2FZ160F","A2SKY4RRWII0BF","3MVY4USGB69K0BK9K576GJZ2CVDSII","","1186","img/land4.png","75","1186","2","1","1","2","1,0.7,0.7,0.7,1,0.7,0.7,0.7,1","1,0.7,0.7,0.7,1,0.7,0.7,0.7,1","","",""
"","html-keyboard-response","188","139172","0.0-188.0","3J2UYBXQQMY6S23Q04KZYTZ2FZ160F","A2SKY4RRWII0BF","3MVY4USGB69K0BK9K576GJZ2CVDSII","","null","<img src=""img/land4.png"" style=""width:200px; border:14px solid green;"">","null","","","","","","","","","",""
"","image-keyboard-response","189","139967","0.0-189.0","3J2UYBXQQMY6S23Q04KZYTZ2FZ160F","A2SKY4RRWII0BF","3MVY4USGB69K0BK9K576GJZ2CVDSII","","792","img/land5.png","75","793","2","1","2","2","1,0.7,0.7,0.7,1,0.7,0.7,0.7,1","1,0.7,0.7,0.7,1,0.7,0.7,0.7,1","","",""
"","html-keyboard-response","190","140268","0.0-190.0","3J2UYBXQQMY6S23Q04KZYTZ2FZ160F","A2SKY4RRWII0BF","3MVY4USGB69K0BK9K576GJZ2CVDSII","","null","<img src=""img/land5.png"" style=""width:200px; border:14px solid green;"">","null","","","","","","","","","",""
"","image-keyboard-response","191","141159","0.0-191.0","3J2UYBXQQMY6S23Q04KZYTZ2FZ160F","A2SKY4RRWII0BF","3MVY4USGB69K0BK9K576GJZ2CVDSII","","890","img/land6.png","76","891","3","1","3","2","1,0.7,0.7,0.7,1,0.7,0.7,0.7,1","1,0.7,0.7,0.7,1,0.7,0.7,0.7,1","","",""
"","html-keyboard-response","192","141460","0.0-192.0","3J2UYBXQQMY6S23Q04KZYTZ2FZ160F","A2SKY4RRWII0BF","3MVY4USGB69K0BK9K576GJZ2CVDSII","","null","<img src=""img/land6.png"" style=""width:200px; border:14px solid green;"">","null","","","","","","","","","",""
"","image-keyboard-response","193","141975","0.0-193.0","3J2UYBXQQMY6S23Q04KZYTZ2FZ160F","A2SKY4RRWII0BF","3MVY4USGB69K0BK9K576GJZ2CVDSII","","513","img/land6.png","76","515","3","1","3","2","1,0.7,0.7,0.7,1,0.7,0.7,0.7,1","1,0.7,0.7,0.7,1,0.7,0.7,0.7,1","","",""
"","html-keyboard-response","194","142276","0.0-194.0","3J2UYBXQQMY6S23Q04KZYTZ2FZ160F","A2SKY4RRWII0BF","3MVY4USGB69K0BK9K576GJZ2CVDSII","","null","<img src=""img/land6.png"" style=""width:200px; border:14px solid green;"">","null","","","","","","","","","",""
"","image-keyboard-response","195","142783","0.0-195.0","3J2UYBXQQMY6S23Q04KZYTZ2FZ160F","A2SKY4RRWII0BF","3MVY4USGB69K0BK9K576GJZ2CVDSII","","506","img/land5.png","75","506","2","1","2","2","1,0.7,0.7,0.7,1,0.7,0.7,0.7,1","1,0.7,0.7,0.7,1,0.7,0.7,0.7,1","","",""
"","html-keyboard-response","196","143084","0.0-196.0","3J2UYBXQQMY6S23Q04KZYTZ2FZ160F","A2SKY4RRWII0BF","3MVY4USGB69K0BK9K576GJZ2CVDSII","","null","<img src=""img/land5.png"" style=""width:200px; border:14px solid green;"">","null","","","","","","","","","",""
"","image-keyboard-response","197","143551","0.0-197.0","3J2UYBXQQMY6S23Q04KZYTZ2FZ160F","A2SKY4RRWII0BF","3MVY4USGB69K0BK9K576GJZ2CVDSII","","466","img/land5.png","75","467","2","1","2","2","1,0.7,0.7,0.7,1,0.7,0.7,0.7,1","1,0.7,0.7,0.7,1,0.7,0.7,0.7,1","","",""
"","html-keyboard-response","198","143852","0.0-198.0","3J2UYBXQQMY6S23Q04KZYTZ2FZ160F","A2SKY4RRWII0BF","3MVY4USGB69K0BK9K576GJZ2CVDSII","","null","<img src=""img/land5.png"" style=""width:200px; border:14px solid green;"">","null","","","","","","","","","",""
"","image-keyboard-response","199","144551","0.0-199.0","3J2UYBXQQMY6S23Q04KZYTZ2FZ160F","A2SKY4RRWII0BF","3MVY4USGB69K0BK9K576GJZ2CVDSII","","697","img/land4.png","75","698","2","1","1","2","1,0.7,0.7,0.7,1,0.7,0.7,0.7,1","1,0.7,0.7,0.7,1,0.7,0.7,0.7,1","","",""
"","html-keyboard-response","200","144852","0.0-200.0","3J2UYBXQQMY6S23Q04KZYTZ2FZ160F","A2SKY4RRWII0BF","3MVY4USGB69K0BK9K576GJZ2CVDSII","","null","<img src=""img/land4.png"" style=""width:200px; border:14px solid green;"">","null","","","","","","","","","",""
"","image-keyboard-response","201","145503","0.0-201.0","3J2UYBXQQMY6S23Q04KZYTZ2FZ160F","A2SKY4RRWII0BF","3MVY4USGB69K0BK9K576GJZ2CVDSII","","649","img/land6.png","76","650","3","1","3","2","1,0.7,0.7,0.7,1,0.7,0.7,0.7,1","1,0.7,0.7,0.7,1,0.7,0.7,0.7,1","","",""
"","html-keyboard-response","202","145804","0.0-202.0","3J2UYBXQQMY6S23Q04KZYTZ2FZ160F","A2SKY4RRWII0BF","3MVY4USGB69K0BK9K576GJZ2CVDSII","","null","<img src=""img/land6.png"" style=""width:200px; border:14px solid green;"">","null","","","","","","","","","",""
"","image-keyboard-response","203","146559","0.0-203.0","3J2UYBXQQMY6S23Q04KZYTZ2FZ160F","A2SKY4RRWII0BF","3MVY4USGB69K0BK9K576GJZ2CVDSII","","754","img/land4.png","75","754","2","0","1","2","1,0.7,0.7,0.7,1,0.7,0.7,0.7,1","1,0.7,0.7,0.7,1,0.7,0.7,0.7,1","","",""
"","html-keyboard-response","204","146860","0.0-204.0","3J2UYBXQQMY6S23Q04KZYTZ2FZ160F","A2SKY4RRWII0BF","3MVY4USGB69K0BK9K576GJZ2CVDSII","","null","<img src=""img/land4.png"" style=""width:200px;border:14px solid red;"">","null","","","","","","","","","",""
"","image-keyboard-response","205","147727","0.0-205.0","3J2UYBXQQMY6S23Q04KZYTZ2FZ160F","A2SKY4RRWII0BF","3MVY4USGB69K0BK9K576GJZ2CVDSII","","866","img/land4.png","74","867","1","1","1","2","1,0.7,0.7,0.7,1,0.7,0.7,0.7,1","1,0.7,0.7,0.7,1,0.7,0.7,0.7,1","","",""
"","html-keyboard-response","206","148028","0.0-206.0","3J2UYBXQQMY6S23Q04KZYTZ2FZ160F","A2SKY4RRWII0BF","3MVY4USGB69K0BK9K576GJZ2CVDSII","","null","<img src=""img/land4.png"" style=""width:200px; border:14px solid green;"">","null","","","","","","","","","",""
"","image-keyboard-response","207","149303","0.0-207.0","3J2UYBXQQMY6S23Q04KZYTZ2FZ160F","A2SKY4RRWII0BF","3MVY4USGB69K0BK9K576GJZ2CVDSII","","1274","img/land6.png","75","1274","2","1","3","2","1,0.7,0.7,0.7,1,0.7,0.7,0.7,1","1,0.7,0.7,0.7,1,0.7,0.7,0.7,1","","",""
"","html-keyboard-response","208","149604","0.0-208.0","3J2UYBXQQMY6S23Q04KZYTZ2FZ160F","A2SKY4RRWII0BF","3MVY4USGB69K0BK9K576GJZ2CVDSII","","null","<img src=""img/land6.png"" style=""width:200px; border:14px solid green;"">","null","","","","","","","","","",""
"","image-keyboard-response","209","150471","0.0-209.0","3J2UYBXQQMY6S23Q04KZYTZ2FZ160F","A2SKY4RRWII0BF","3MVY4USGB69K0BK9K576GJZ2CVDSII","","866","img/land5.png","76","866","3","0","2","2","1,0.7,0.7,0.7,1,0.7,0.7,0.7,1","1,0.7,0.7,0.7,1,0.7,0.7,0.7,1","","",""
"","html-keyboard-response","210","150772","0.0-210.0","3J2UYBXQQMY6S23Q04KZYTZ2FZ160F","A2SKY4RRWII0BF","3MVY4USGB69K0BK9K576GJZ2CVDSII","","null","<img src=""img/land5.png"" style=""width:200px;border:14px solid red;"">","null","","","","","","","","","",""
"","image-keyboard-response","211","151999","0.0-211.0","3J2UYBXQQMY6S23Q04KZYTZ2FZ160F","A2SKY4RRWII0BF","3MVY4USGB69K0BK9K576GJZ2CVDSII","","1226","img/land4.png","75","1228","2","0","1","2","1,0.7,0.7,0.7,1,0.7,0.7,0.7,1","1,0.7,0.7,0.7,1,0.7,0.7,0.7,1","","",""
"","html-keyboard-response","212","152301","0.0-212.0","3J2UYBXQQMY6S23Q04KZYTZ2FZ160F","A2SKY4RRWII0BF","3MVY4USGB69K0BK9K576GJZ2CVDSII","","null","<img src=""img/land4.png"" style=""width:200px;border:14px solid red;"">","null","","","","","","","","","",""
"","image-keyboard-response","213","153527","0.0-213.0","3J2UYBXQQMY6S23Q04KZYTZ2FZ160F","A2SKY4RRWII0BF","3MVY4USGB69K0BK9K576GJZ2CVDSII","","1226","img/land6.png","76","1227","3","1","3","2","1,0.7,0.7,0.7,1,0.7,0.7,0.7,1","1,0.7,0.7,0.7,1,0.7,0.7,0.7,1","","",""
"","html-keyboard-response","214","153828","0.0-214.0","3J2UYBXQQMY6S23Q04KZYTZ2FZ160F","A2SKY4RRWII0BF","3MVY4USGB69K0BK9K576GJZ2CVDSII","","null","<img src=""img/land6.png"" style=""width:200px; border:14px solid green;"">","null","","","","","","","","","",""
"","image-keyboard-response","215","154959","0.0-215.0","3J2UYBXQQMY6S23Q04KZYTZ2FZ160F","A2SKY4RRWII0BF","3MVY4USGB69K0BK9K576GJZ2CVDSII","","1129","img/land5.png","74","1131","1","1","2","2","1,0.7,0.7,0.7,1,0.7,0.7,0.7,1","1,0.7,0.7,0.7,1,0.7,0.7,0.7,1","","",""
"","html-keyboard-response","216","155262","0.0-216.0","3J2UYBXQQMY6S23Q04KZYTZ2FZ160F","A2SKY4RRWII0BF","3MVY4USGB69K0BK9K576GJZ2CVDSII","","null","<img src=""img/land5.png"" style=""width:200px; border:14px solid green;"">","null","","","","","","","","","",""
"","image-keyboard-response","217","157512","0.0-217.0","3J2UYBXQQMY6S23Q04KZYTZ2FZ160F","A2SKY4RRWII0BF","3MVY4USGB69K0BK9K576GJZ2CVDSII","","2249","img/land4.png","76","2250","3","1","1","2","1,0.7,0.7,0.7,1,0.7,0.7,0.7,1","1,0.7,0.7,0.7,1,0.7,0.7,0.7,1","","",""
"","html-keyboard-response","218","157813","0.0-218.0","3J2UYBXQQMY6S23Q04KZYTZ2FZ160F","A2SKY4RRWII0BF","3MVY4USGB69K0BK9K576GJZ2CVDSII","","null","<img src=""img/land4.png"" style=""width:200px; border:14px solid green;"">","null","","","","","","","","","",""
"","image-keyboard-response","219","158463","0.0-219.0","3J2UYBXQQMY6S23Q04KZYTZ2FZ160F","A2SKY4RRWII0BF","3MVY4USGB69K0BK9K576GJZ2CVDSII","","648","img/land4.png","76","650","3","1","1","2","1,0.7,0.7,0.7,1,0.7,0.7,0.7,1","1,0.7,0.7,0.7,1,0.7,0.7,0.7,1","","",""
"","html-keyboard-response","220","158765","0.0-220.0","3J2UYBXQQMY6S23Q04KZYTZ2FZ160F","A2SKY4RRWII0BF","3MVY4USGB69K0BK9K576GJZ2CVDSII","","null","<img src=""img/land4.png"" style=""width:200px; border:14px solid green;"">","null","","","","","","","","","",""
"","image-keyboard-response","221","159151","0.0-221.0","3J2UYBXQQMY6S23Q04KZYTZ2FZ160F","A2SKY4RRWII0BF","3MVY4USGB69K0BK9K576GJZ2CVDSII","","385","img/land4.png","76","386","3","1","1","2","1,0.7,0.7,0.7,1,0.7,0.7,0.7,1","1,0.7,0.7,0.7,1,0.7,0.7,0.7,1","","",""
"","html-keyboard-response","222","159453","0.0-222.0","3J2UYBXQQMY6S23Q04KZYTZ2FZ160F","A2SKY4RRWII0BF","3MVY4USGB69K0BK9K576GJZ2CVDSII","","null","<img src=""img/land4.png"" style=""width:200px; border:14px solid green;"">","null","","","","","","","","","",""
"","image-keyboard-response","223","160591","0.0-223.0","3J2UYBXQQMY6S23Q04KZYTZ2FZ160F","A2SKY4RRWII0BF","3MVY4USGB69K0BK9K576GJZ2CVDSII","","1137","img/land6.png","75","1137","2","0","3","2","1,0.7,0.7,0.7,1,0.7,0.7,0.7,1","1,0.7,0.7,0.7,1,0.7,0.7,0.7,1","","",""
"","html-keyboard-response","224","160892","0.0-224.0","3J2UYBXQQMY6S23Q04KZYTZ2FZ160F","A2SKY4RRWII0BF","3MVY4USGB69K0BK9K576GJZ2CVDSII","","null","<img src=""img/land6.png"" style=""width:200px;border:14px solid red;"">","null","","","","","","","","","",""
"","image-keyboard-response","225","161631","0.0-225.0","3J2UYBXQQMY6S23Q04KZYTZ2FZ160F","A2SKY4RRWII0BF","3MVY4USGB69K0BK9K576GJZ2CVDSII","","737","img/land6.png","76","739","3","1","3","2","1,0.7,0.7,0.7,1,0.7,0.7,0.7,1","1,0.7,0.7,0.7,1,0.7,0.7,0.7,1","","",""
"","html-keyboard-response","226","161933","0.0-226.0","3J2UYBXQQMY6S23Q04KZYTZ2FZ160F","A2SKY4RRWII0BF","3MVY4USGB69K0BK9K576GJZ2CVDSII","","null","<img src=""img/land6.png"" style=""width:200px; border:14px solid green;"">","null","","","","","","","","","",""
"","image-keyboard-response","227","162599","0.0-227.0","3J2UYBXQQMY6S23Q04KZYTZ2FZ160F","A2SKY4RRWII0BF","3MVY4USGB69K0BK9K576GJZ2CVDSII","","665","img/land6.png","76","666","3","1","3","2","1,0.7,0.7,0.7,1,0.7,0.7,0.7,1","1,0.7,0.7,0.7,1,0.7,0.7,0.7,1","","",""
"","html-keyboard-response","228","162901","0.0-228.0","3J2UYBXQQMY6S23Q04KZYTZ2FZ160F","A2SKY4RRWII0BF","3MVY4USGB69K0BK9K576GJZ2CVDSII","","null","<img src=""img/land6.png"" style=""width:200px; border:14px solid green;"">","null","","","","","","","","","",""
"","image-keyboard-response","229","163807","0.0-229.0","3J2UYBXQQMY6S23Q04KZYTZ2FZ160F","A2SKY4RRWII0BF","3MVY4USGB69K0BK9K576GJZ2CVDSII","","905","img/land5.png","74","906","1","1","2","2","1,0.7,0.7,0.7,1,0.7,0.7,0.7,1","1,0.7,0.7,0.7,1,0.7,0.7,0.7,1","","",""
"","html-keyboard-response","230","164109","0.0-230.0","3J2UYBXQQMY6S23Q04KZYTZ2FZ160F","A2SKY4RRWII0BF","3MVY4USGB69K0BK9K576GJZ2CVDSII","","null","<img src=""img/land5.png"" style=""width:200px; border:14px solid green;"">","null","","","","","","","","","",""
"","image-keyboard-response","231","164680","0.0-231.0","3J2UYBXQQMY6S23Q04KZYTZ2FZ160F","A2SKY4RRWII0BF","3MVY4USGB69K0BK9K576GJZ2CVDSII","","570","img/land6.png","76","571","3","1","3","2","1,0.7,0.7,0.7,1,0.7,0.7,0.7,1","1,0.7,0.7,0.7,1,0.7,0.7,0.7,1","","",""
"","html-keyboard-response","232","164981","0.0-232.0","3J2UYBXQQMY6S23Q04KZYTZ2FZ160F","A2SKY4RRWII0BF","3MVY4USGB69K0BK9K576GJZ2CVDSII","","null","<img src=""img/land6.png"" style=""width:200px; border:14px solid green;"">","null","","","","","","","","","",""
"","image-keyboard-response","233","165399","0.0-233.0","3J2UYBXQQMY6S23Q04KZYTZ2FZ160F","A2SKY4RRWII0BF","3MVY4USGB69K0BK9K576GJZ2CVDSII","","417","img/land6.png","76","418","3","1","3","2","1,0.7,0.7,0.7,1,0.7,0.7,0.7,1","1,0.7,0.7,0.7,1,0.7,0.7,0.7,1","","",""
"","html-keyboard-response","234","165700","0.0-234.0","3J2UYBXQQMY6S23Q04KZYTZ2FZ160F","A2SKY4RRWII0BF","3MVY4USGB69K0BK9K576GJZ2CVDSII","","null","<img src=""img/land6.png"" style=""width:200px; border:14px solid green;"">","null","","","","","","","","","",""
"","image-keyboard-response","235","166839","0.0-235.0","3J2UYBXQQMY6S23Q04KZYTZ2FZ160F","A2SKY4RRWII0BF","3MVY4USGB69K0BK9K576GJZ2CVDSII","","1138","img/land4.png","76","1138","3","1","1","2","1,0.7,0.7,0.7,1,0.7,0.7,0.7,1","1,0.7,0.7,0.7,1,0.7,0.7,0.7,1","","",""
"","html-keyboard-response","236","167141","0.0-236.0","3J2UYBXQQMY6S23Q04KZYTZ2FZ160F","A2SKY4RRWII0BF","3MVY4USGB69K0BK9K576GJZ2CVDSII","","null","<img src=""img/land4.png"" style=""width:200px; border:14px solid green;"">","null","","","","","","","","","",""
"","image-keyboard-response","237","167951","0.0-237.0","3J2UYBXQQMY6S23Q04KZYTZ2FZ160F","A2SKY4RRWII0BF","3MVY4USGB69K0BK9K576GJZ2CVDSII","","809","img/land5.png","74","810","1","0","2","2","1,0.7,0.7,0.7,1,0.7,0.7,0.7,1","1,0.7,0.7,0.7,1,0.7,0.7,0.7,1","","",""
"","html-keyboard-response","238","168252","0.0-238.0","3J2UYBXQQMY6S23Q04KZYTZ2FZ160F","A2SKY4RRWII0BF","3MVY4USGB69K0BK9K576GJZ2CVDSII","","null","<img src=""img/land5.png"" style=""width:200px;border:14px solid red;"">","null","","","","","","","","","",""
"","image-keyboard-response","239","169583","0.0-239.0","3J2UYBXQQMY6S23Q04KZYTZ2FZ160F","A2SKY4RRWII0BF","3MVY4USGB69K0BK9K576GJZ2CVDSII","","1330","img/land5.png","75","1331","2","1","2","2","1,0.7,0.7,0.7,1,0.7,0.7,0.7,1","1,0.7,0.7,0.7,1,0.7,0.7,0.7,1","","",""
"","html-keyboard-response","240","169884","0.0-240.0","3J2UYBXQQMY6S23Q04KZYTZ2FZ160F","A2SKY4RRWII0BF","3MVY4USGB69K0BK9K576GJZ2CVDSII","","null","<img src=""img/land5.png"" style=""width:200px; border:14px solid green;"">","null","","","","","","","","","",""
"","image-keyboard-response","241","170727","0.0-241.0","3J2UYBXQQMY6S23Q04KZYTZ2FZ160F","A2SKY4RRWII0BF","3MVY4USGB69K0BK9K576GJZ2CVDSII","","842","img/land5.png","75","842","2","1","2","2","1,0.7,0.7,0.7,1,0.7,0.7,0.7,1","1,0.7,0.7,0.7,1,0.7,0.7,0.7,1","","",""
"","html-keyboard-response","242","171029","0.0-242.0","3J2UYBXQQMY6S23Q04KZYTZ2FZ160F","A2SKY4RRWII0BF","3MVY4USGB69K0BK9K576GJZ2CVDSII","","null","<img src=""img/land5.png"" style=""width:200px; border:14px solid green;"">","null","","","","","","","","","",""
"","image-keyboard-response","243","171455","0.0-243.0","3J2UYBXQQMY6S23Q04KZYTZ2FZ160F","A2SKY4RRWII0BF","3MVY4USGB69K0BK9K576GJZ2CVDSII","","425","img/land5.png","75","426","2","1","2","2","1,0.7,0.7,0.7,1,0.7,0.7,0.7,1","1,0.7,0.7,0.7,1,0.7,0.7,0.7,1","","",""
"","html-keyboard-response","244","171756","0.0-244.0","3J2UYBXQQMY6S23Q04KZYTZ2FZ160F","A2SKY4RRWII0BF","3MVY4USGB69K0BK9K576GJZ2CVDSII","","null","<img src=""img/land5.png"" style=""width:200px; border:14px solid green;"">","null","","","","","","","","","",""
"","image-keyboard-response","245","172151","0.0-245.0","3J2UYBXQQMY6S23Q04KZYTZ2FZ160F","A2SKY4RRWII0BF","3MVY4USGB69K0BK9K576GJZ2CVDSII","","394","img/land5.png","75","395","2","1","2","2","1,0.7,0.7,0.7,1,0.7,0.7,0.7,1","1,0.7,0.7,0.7,1,0.7,0.7,0.7,1","","",""
"","html-keyboard-response","246","172453","0.0-246.0","3J2UYBXQQMY6S23Q04KZYTZ2FZ160F","A2SKY4RRWII0BF","3MVY4USGB69K0BK9K576GJZ2CVDSII","","null","<img src=""img/land5.png"" style=""width:200px; border:14px solid green;"">","null","","","","","","","","","",""
"","image-keyboard-response","247","173336","0.0-247.0","3J2UYBXQQMY6S23Q04KZYTZ2FZ160F","A2SKY4RRWII0BF","3MVY4USGB69K0BK9K576GJZ2CVDSII","","882","img/land4.png","76","882","3","1","1","2","1,0.7,0.7,0.7,1,0.7,0.7,0.7,1","1,0.7,0.7,0.7,1,0.7,0.7,0.7,1","","",""
"","html-keyboard-response","248","173637","0.0-248.0","3J2UYBXQQMY6S23Q04KZYTZ2FZ160F","A2SKY4RRWII0BF","3MVY4USGB69K0BK9K576GJZ2CVDSII","","null","<img src=""img/land4.png"" style=""width:200px; border:14px solid green;"">","null","","","","","","","","","",""
"","image-keyboard-response","249","174327","0.0-249.0","3J2UYBXQQMY6S23Q04KZYTZ2FZ160F","A2SKY4RRWII0BF","3MVY4USGB69K0BK9K576GJZ2CVDSII","","690","img/land5.png","75","690","2","1","2","2","1,0.7,0.7,0.7,1,0.7,0.7,0.7,1","1,0.7,0.7,0.7,1,0.7,0.7,0.7,1","","",""
"","html-keyboard-response","250","174629","0.0-250.0","3J2UYBXQQMY6S23Q04KZYTZ2FZ160F","A2SKY4RRWII0BF","3MVY4USGB69K0BK9K576GJZ2CVDSII","","null","<img src=""img/land5.png"" style=""width:200px; border:14px solid green;"">","null","","","","","","","","","",""
"","image-keyboard-response","251","175087","0.0-251.0","3J2UYBXQQMY6S23Q04KZYTZ2FZ160F","A2SKY4RRWII0BF","3MVY4USGB69K0BK9K576GJZ2CVDSII","","456","img/land5.png","75","459","2","1","2","2","1,0.7,0.7,0.7,1,0.7,0.7,0.7,1","1,0.7,0.7,0.7,1,0.7,0.7,0.7,1","","",""
"","html-keyboard-response","252","175389","0.0-252.0","3J2UYBXQQMY6S23Q04KZYTZ2FZ160F","A2SKY4RRWII0BF","3MVY4USGB69K0BK9K576GJZ2CVDSII","","null","<img src=""img/land5.png"" style=""width:200px; border:14px solid green;"">","null","","","","","","","","","",""
"","image-keyboard-response","253","175935","0.0-253.0","3J2UYBXQQMY6S23Q04KZYTZ2FZ160F","A2SKY4RRWII0BF","3MVY4USGB69K0BK9K576GJZ2CVDSII","","545","img/land6.png","75","546","2","0","3","2","1,0.7,0.7,0.7,1,0.7,0.7,0.7,1","1,0.7,0.7,0.7,1,0.7,0.7,0.7,1","","",""
"","html-keyboard-response","254","176236","0.0-254.0","3J2UYBXQQMY6S23Q04KZYTZ2FZ160F","A2SKY4RRWII0BF","3MVY4USGB69K0BK9K576GJZ2CVDSII","","null","<img src=""img/land6.png"" style=""width:200px;border:14px solid red;"">","null","","","","","","","","","",""
"","image-keyboard-response","255","177912","0.0-255.0","3J2UYBXQQMY6S23Q04KZYTZ2FZ160F","A2SKY4RRWII0BF","3MVY4USGB69K0BK9K576GJZ2CVDSII","","1673","img/land4.png","76","1674","3","1","1","2","1,0.7,0.7,0.7,1,0.7,0.7,0.7,1","1,0.7,0.7,0.7,1,0.7,0.7,0.7,1","","",""
"","html-keyboard-response","256","178214","0.0-256.0","3J2UYBXQQMY6S23Q04KZYTZ2FZ160F","A2SKY4RRWII0BF","3MVY4USGB69K0BK9K576GJZ2CVDSII","","null","<img src=""img/land4.png"" style=""width:200px; border:14px solid green;"">","null","","","","","","","","","",""
"","image-keyboard-response","257","178624","0.0-257.0","3J2UYBXQQMY6S23Q04KZYTZ2FZ160F","A2SKY4RRWII0BF","3MVY4USGB69K0BK9K576GJZ2CVDSII","","408","img/land4.png","76","410","3","0","1","2","1,0.7,0.7,0.7,1,0.7,0.7,0.7,1","1,0.7,0.7,0.7,1,0.7,0.7,0.7,1","","",""
"","html-keyboard-response","258","178925","0.0-258.0","3J2UYBXQQMY6S23Q04KZYTZ2FZ160F","A2SKY4RRWII0BF","3MVY4USGB69K0BK9K576GJZ2CVDSII","","null","<img src=""img/land4.png"" style=""width:200px;border:14px solid red;"">","null","","","","","","","","","",""
"","image-keyboard-response","259","180248","0.0-259.0","3J2UYBXQQMY6S23Q04KZYTZ2FZ160F","A2SKY4RRWII0BF","3MVY4USGB69K0BK9K576GJZ2CVDSII","","1321","img/land6.png","74","1322","1","1","3","2","1,0.7,0.7,0.7,1,0.7,0.7,0.7,1","1,0.7,0.7,0.7,1,0.7,0.7,0.7,1","","",""
"","html-keyboard-response","260","180550","0.0-260.0","3J2UYBXQQMY6S23Q04KZYTZ2FZ160F","A2SKY4RRWII0BF","3MVY4USGB69K0BK9K576GJZ2CVDSII","","null","<img src=""img/land6.png"" style=""width:200px; border:14px solid green;"">","null","","","","","","","","","",""
"","image-keyboard-response","261","181855","0.0-261.0","3J2UYBXQQMY6S23Q04KZYTZ2FZ160F","A2SKY4RRWII0BF","3MVY4USGB69K0BK9K576GJZ2CVDSII","","1303","img/land5.png","75","1304","2","1","2","2","1,0.7,0.7,0.7,1,0.7,0.7,0.7,1","1,0.7,0.7,0.7,1,0.7,0.7,0.7,1","","",""
"","html-keyboard-response","262","182157","0.0-262.0","3J2UYBXQQMY6S23Q04KZYTZ2FZ160F","A2SKY4RRWII0BF","3MVY4USGB69K0BK9K576GJZ2CVDSII","","null","<img src=""img/land5.png"" style=""width:200px; border:14px solid green;"">","null","","","","","","","","","",""
"","image-keyboard-response","263","184040","0.0-263.0","3J2UYBXQQMY6S23Q04KZYTZ2FZ160F","A2SKY4RRWII0BF","3MVY4USGB69K0BK9K576GJZ2CVDSII","","1881","img/land4.png","76","1883","3","0","1","2","1,0.7,0.7,0.7,1,0.7,0.7,0.7,1","1,0.7,0.7,0.7,1,0.7,0.7,0.7,1","","",""
"","html-keyboard-response","264","184341","0.0-264.0","3J2UYBXQQMY6S23Q04KZYTZ2FZ160F","A2SKY4RRWII0BF","3MVY4USGB69K0BK9K576GJZ2CVDSII","","null","<img src=""img/land4.png"" style=""width:200px;border:14px solid red;"">","null","","","","","","","","","",""
"","image-keyboard-response","265","185375","0.0-265.0","3J2UYBXQQMY6S23Q04KZYTZ2FZ160F","A2SKY4RRWII0BF","3MVY4USGB69K0BK9K576GJZ2CVDSII","","1033","img/land6.png","75","1034","2","1","3","2","1,0.7,0.7,0.7,1,0.7,0.7,0.7,1","1,0.7,0.7,0.7,1,0.7,0.7,0.7,1","","",""
"","html-keyboard-response","266","185676","0.0-266.0","3J2UYBXQQMY6S23Q04KZYTZ2FZ160F","A2SKY4RRWII0BF","3MVY4USGB69K0BK9K576GJZ2CVDSII","","null","<img src=""img/land6.png"" style=""width:200px; border:14px solid green;"">","null","","","","","","","","","",""
"","image-keyboard-response","267","186944","0.0-267.0","3J2UYBXQQMY6S23Q04KZYTZ2FZ160F","A2SKY4RRWII0BF","3MVY4USGB69K0BK9K576GJZ2CVDSII","","1266","img/land5.png","74","1267","1","1","2","2","1,0.7,0.7,0.7,1,0.7,0.7,0.7,1","1,0.7,0.7,0.7,1,0.7,0.7,0.7,1","","",""
"","html-keyboard-response","268","187245","0.0-268.0","3J2UYBXQQMY6S23Q04KZYTZ2FZ160F","A2SKY4RRWII0BF","3MVY4USGB69K0BK9K576GJZ2CVDSII","","null","<img src=""img/land5.png"" style=""width:200px; border:14px solid green;"">","null","","","","","","","","","",""
"","image-keyboard-response","269","187759","0.0-269.0","3J2UYBXQQMY6S23Q04KZYTZ2FZ160F","A2SKY4RRWII0BF","3MVY4USGB69K0BK9K576GJZ2CVDSII","","513","img/land5.png","74","515","1","1","2","2","1,0.7,0.7,0.7,1,0.7,0.7,0.7,1","1,0.7,0.7,0.7,1,0.7,0.7,0.7,1","","",""
"","html-keyboard-response","270","188060","0.0-270.0","3J2UYBXQQMY6S23Q04KZYTZ2FZ160F","A2SKY4RRWII0BF","3MVY4USGB69K0BK9K576GJZ2CVDSII","","null","<img src=""img/land5.png"" style=""width:200px; border:14px solid green;"">","null","","","","","","","","","",""
"","image-keyboard-response","271","188463","0.0-271.0","3J2UYBXQQMY6S23Q04KZYTZ2FZ160F","A2SKY4RRWII0BF","3MVY4USGB69K0BK9K576GJZ2CVDSII","","402","img/land5.png","74","403","1","1","2","2","1,0.7,0.7,0.7,1,0.7,0.7,0.7,1","1,0.7,0.7,0.7,1,0.7,0.7,0.7,1","","",""
"","html-keyboard-response","272","188764","0.0-272.0","3J2UYBXQQMY6S23Q04KZYTZ2FZ160F","A2SKY4RRWII0BF","3MVY4USGB69K0BK9K576GJZ2CVDSII","","null","<img src=""img/land5.png"" style=""width:200px; border:14px solid green;"">","null","","","","","","","","","",""
"","image-keyboard-response","273","189567","0.0-273.0","3J2UYBXQQMY6S23Q04KZYTZ2FZ160F","A2SKY4RRWII0BF","3MVY4USGB69K0BK9K576GJZ2CVDSII","","801","img/land4.png","75","802","2","1","1","2","1,0.7,0.7,0.7,1,0.7,0.7,0.7,1","1,0.7,0.7,0.7,1,0.7,0.7,0.7,1","","",""
"","html-keyboard-response","274","189868","0.0-274.0","3J2UYBXQQMY6S23Q04KZYTZ2FZ160F","A2SKY4RRWII0BF","3MVY4USGB69K0BK9K576GJZ2CVDSII","","null","<img src=""img/land4.png"" style=""width:200px; border:14px solid green;"">","null","","","","","","","","","",""
"","image-keyboard-response","275","191103","0.0-275.0","3J2UYBXQQMY6S23Q04KZYTZ2FZ160F","A2SKY4RRWII0BF","3MVY4USGB69K0BK9K576GJZ2CVDSII","","1235","img/land6.png","76","1236","3","1","3","2","1,0.7,0.7,0.7,1,0.7,0.7,0.7,1","1,0.7,0.7,0.7,1,0.7,0.7,0.7,1","","",""
"","html-keyboard-response","276","191404","0.0-276.0","3J2UYBXQQMY6S23Q04KZYTZ2FZ160F","A2SKY4RRWII0BF","3MVY4USGB69K0BK9K576GJZ2CVDSII","","null","<img src=""img/land6.png"" style=""width:200px; border:14px solid green;"">","null","","","","","","","","","",""
"","image-keyboard-response","277","192887","0.0-277.0","3J2UYBXQQMY6S23Q04KZYTZ2FZ160F","A2SKY4RRWII0BF","3MVY4USGB69K0BK9K576GJZ2CVDSII","","1482","img/land5.png","75","1483","2","1","2","2","1,0.7,0.7,0.7,1,0.7,0.7,0.7,1","1,0.7,0.7,0.7,1,0.7,0.7,0.7,1","","",""
"","html-keyboard-response","278","193188","0.0-278.0","3J2UYBXQQMY6S23Q04KZYTZ2FZ160F","A2SKY4RRWII0BF","3MVY4USGB69K0BK9K576GJZ2CVDSII","","null","<img src=""img/land5.png"" style=""width:200px; border:14px solid green;"">","null","","","","","","","","","",""
"","image-keyboard-response","279","194224","0.0-279.0","3J2UYBXQQMY6S23Q04KZYTZ2FZ160F","A2SKY4RRWII0BF","3MVY4USGB69K0BK9K576GJZ2CVDSII","","1035","img/land4.png","74","1035","1","1","1","2","1,0.7,0.7,0.7,1,0.7,0.7,0.7,1","1,0.7,0.7,0.7,1,0.7,0.7,0.7,1","","",""
"","html-keyboard-response","280","194524","0.0-280.0","3J2UYBXQQMY6S23Q04KZYTZ2FZ160F","A2SKY4RRWII0BF","3MVY4USGB69K0BK9K576GJZ2CVDSII","","null","<img src=""img/land4.png"" style=""width:200px; border:14px solid green;"">","null","","","","","","","","","",""
"","image-keyboard-response","281","195527","0.0-281.0","3J2UYBXQQMY6S23Q04KZYTZ2FZ160F","A2SKY4RRWII0BF","3MVY4USGB69K0BK9K576GJZ2CVDSII","","1003","img/land6.png","75","1003","2","0","3","2","1,0.7,0.7,0.7,1,0.7,0.7,0.7,1","1,0.7,0.7,0.7,1,0.7,0.7,0.7,1","","",""
"","html-keyboard-response","282","195829","0.0-282.0","3J2UYBXQQMY6S23Q04KZYTZ2FZ160F","A2SKY4RRWII0BF","3MVY4USGB69K0BK9K576GJZ2CVDSII","","null","<img src=""img/land6.png"" style=""width:200px;border:14px solid red;"">","null","","","","","","","","","",""
"","image-keyboard-response","283","196391","0.0-283.0","3J2UYBXQQMY6S23Q04KZYTZ2FZ160F","A2SKY4RRWII0BF","3MVY4USGB69K0BK9K576GJZ2CVDSII","","561","img/land6.png","76","562","3","1","3","2","1,0.7,0.7,0.7,1,0.7,0.7,0.7,1","1,0.7,0.7,0.7,1,0.7,0.7,0.7,1","","",""
"","html-keyboard-response","284","196693","0.0-284.0","3J2UYBXQQMY6S23Q04KZYTZ2FZ160F","A2SKY4RRWII0BF","3MVY4USGB69K0BK9K576GJZ2CVDSII","","null","<img src=""img/land6.png"" style=""width:200px; border:14px solid green;"">","null","","","","","","","","","",""
"","image-keyboard-response","285","198991","0.0-285.0","3J2UYBXQQMY6S23Q04KZYTZ2FZ160F","A2SKY4RRWII0BF","3MVY4USGB69K0BK9K576GJZ2CVDSII","","2298","img/land5.png","75","2298","2","1","2","2","1,0.7,0.7,0.7,1,0.7,0.7,0.7,1","1,0.7,0.7,0.7,1,0.7,0.7,0.7,1","","",""
"","html-keyboard-response","286","199292","0.0-286.0","3J2UYBXQQMY6S23Q04KZYTZ2FZ160F","A2SKY4RRWII0BF","3MVY4USGB69K0BK9K576GJZ2CVDSII","","null","<img src=""img/land5.png"" style=""width:200px; border:14px solid green;"">","null","","","","","","","","","",""
"","image-keyboard-response","287","200304","0.0-287.0","3J2UYBXQQMY6S23Q04KZYTZ2FZ160F","A2SKY4RRWII0BF","3MVY4USGB69K0BK9K576GJZ2CVDSII","","1011","img/land4.png","74","1012","1","1","1","2","1,0.7,0.7,0.7,1,0.7,0.7,0.7,1","1,0.7,0.7,0.7,1,0.7,0.7,0.7,1","","",""
"","html-keyboard-response","288","200605","0.0-288.0","3J2UYBXQQMY6S23Q04KZYTZ2FZ160F","A2SKY4RRWII0BF","3MVY4USGB69K0BK9K576GJZ2CVDSII","","null","<img src=""img/land4.png"" style=""width:200px; border:14px solid green;"">","null","","","","","","","","","",""
"","image-keyboard-response","289","201423","0.0-289.0","3J2UYBXQQMY6S23Q04KZYTZ2FZ160F","A2SKY4RRWII0BF","3MVY4USGB69K0BK9K576GJZ2CVDSII","","818","img/land5.png","75","818","2","1","2","2","1,0.7,0.7,0.7,1,0.7,0.7,0.7,1","1,0.7,0.7,0.7,1,0.7,0.7,0.7,1","","",""
"","html-keyboard-response","290","201724","0.0-290.0","3J2UYBXQQMY6S23Q04KZYTZ2FZ160F","A2SKY4RRWII0BF","3MVY4USGB69K0BK9K576GJZ2CVDSII","","null","<img src=""img/land5.png"" style=""width:200px; border:14px solid green;"">","null","","","","","","","","","",""
"","image-keyboard-response","291","202336","0.0-291.0","3J2UYBXQQMY6S23Q04KZYTZ2FZ160F","A2SKY4RRWII0BF","3MVY4USGB69K0BK9K576GJZ2CVDSII","","611","img/land6.png","76","611","3","1","3","2","1,0.7,0.7,0.7,1,0.7,0.7,0.7,1","1,0.7,0.7,0.7,1,0.7,0.7,0.7,1","","",""
"","html-keyboard-response","292","202637","0.0-292.0","3J2UYBXQQMY6S23Q04KZYTZ2FZ160F","A2SKY4RRWII0BF","3MVY4USGB69K0BK9K576GJZ2CVDSII","","null","<img src=""img/land6.png"" style=""width:200px; border:14px solid green;"">","null","","","","","","","","","",""
"","image-keyboard-response","293","203423","0.0-293.0","3J2UYBXQQMY6S23Q04KZYTZ2FZ160F","A2SKY4RRWII0BF","3MVY4USGB69K0BK9K576GJZ2CVDSII","","785","img/land5.png","75","786","2","1","2","2","1,0.7,0.7,0.7,1,0.7,0.7,0.7,1","1,0.7,0.7,0.7,1,0.7,0.7,0.7,1","","",""
"","html-keyboard-response","294","203724","0.0-294.0","3J2UYBXQQMY6S23Q04KZYTZ2FZ160F","A2SKY4RRWII0BF","3MVY4USGB69K0BK9K576GJZ2CVDSII","","null","<img src=""img/land5.png"" style=""width:200px; border:14px solid green;"">","null","","","","","","","","","",""
"","image-keyboard-response","295","204368","0.0-295.0","3J2UYBXQQMY6S23Q04KZYTZ2FZ160F","A2SKY4RRWII0BF","3MVY4USGB69K0BK9K576GJZ2CVDSII","","642","img/land6.png","76","643","3","1","3","2","1,0.7,0.7,0.7,1,0.7,0.7,0.7,1","1,0.7,0.7,0.7,1,0.7,0.7,0.7,1","","",""
"","html-keyboard-response","296","204669","0.0-296.0","3J2UYBXQQMY6S23Q04KZYTZ2FZ160F","A2SKY4RRWII0BF","3MVY4USGB69K0BK9K576GJZ2CVDSII","","null","<img src=""img/land6.png"" style=""width:200px; border:14px solid green;"">","null","","","","","","","","","",""
"","image-keyboard-response","297","205151","0.0-297.0","3J2UYBXQQMY6S23Q04KZYTZ2FZ160F","A2SKY4RRWII0BF","3MVY4USGB69K0BK9K576GJZ2CVDSII","","480","img/land6.png","76","482","3","1","3","2","1,0.7,0.7,0.7,1,0.7,0.7,0.7,1","1,0.7,0.7,0.7,1,0.7,0.7,0.7,1","","",""
"","html-keyboard-response","298","205452","0.0-298.0","3J2UYBXQQMY6S23Q04KZYTZ2FZ160F","A2SKY4RRWII0BF","3MVY4USGB69K0BK9K576GJZ2CVDSII","","null","<img src=""img/land6.png"" style=""width:200px; border:14px solid green;"">","null","","","","","","","","","",""
"","image-keyboard-response","299","206392","0.0-299.0","3J2UYBXQQMY6S23Q04KZYTZ2FZ160F","A2SKY4RRWII0BF","3MVY4USGB69K0BK9K576GJZ2CVDSII","","938","img/land4.png","74","938","1","1","1","2","1,0.7,0.7,0.7,1,0.7,0.7,0.7,1","1,0.7,0.7,0.7,1,0.7,0.7,0.7,1","","",""
"","html-keyboard-response","300","206693","0.0-300.0","3J2UYBXQQMY6S23Q04KZYTZ2FZ160F","A2SKY4RRWII0BF","3MVY4USGB69K0BK9K576GJZ2CVDSII","","null","<img src=""img/land4.png"" style=""width:200px; border:14px solid green;"">","null","","","","","","","","","",""
"","image-keyboard-response","301","207392","0.0-301.0","3J2UYBXQQMY6S23Q04KZYTZ2FZ160F","A2SKY4RRWII0BF","3MVY4USGB69K0BK9K576GJZ2CVDSII","","697","img/land5.png","75","698","2","1","2","2","1,0.7,0.7,0.7,1,0.7,0.7,0.7,1","1,0.7,0.7,0.7,1,0.7,0.7,0.7,1","","",""
"","html-keyboard-response","302","207693","0.0-302.0","3J2UYBXQQMY6S23Q04KZYTZ2FZ160F","A2SKY4RRWII0BF","3MVY4USGB69K0BK9K576GJZ2CVDSII","","null","<img src=""img/land5.png"" style=""width:200px; border:14px solid green;"">","null","","","","","","","","","",""
"","image-keyboard-response","303","208191","0.0-303.0","3J2UYBXQQMY6S23Q04KZYTZ2FZ160F","A2SKY4RRWII0BF","3MVY4USGB69K0BK9K576GJZ2CVDSII","","497","img/land4.png","76","497","3","1","1","2","1,0.7,0.7,0.7,1,0.7,0.7,0.7,1","1,0.7,0.7,0.7,1,0.7,0.7,0.7,1","","",""
"","html-keyboard-response","304","208492","0.0-304.0","3J2UYBXQQMY6S23Q04KZYTZ2FZ160F","A2SKY4RRWII0BF","3MVY4USGB69K0BK9K576GJZ2CVDSII","","null","<img src=""img/land4.png"" style=""width:200px; border:14px solid green;"">","null","","","","","","","","","",""
"","image-keyboard-response","305","209135","0.0-305.0","3J2UYBXQQMY6S23Q04KZYTZ2FZ160F","A2SKY4RRWII0BF","3MVY4USGB69K0BK9K576GJZ2CVDSII","","642","img/land4.png","76","643","3","1","1","2","1,0.7,0.7,0.7,1,0.7,0.7,0.7,1","1,0.7,0.7,0.7,1,0.7,0.7,0.7,1","","",""
"","html-keyboard-response","306","209436","0.0-306.0","3J2UYBXQQMY6S23Q04KZYTZ2FZ160F","A2SKY4RRWII0BF","3MVY4USGB69K0BK9K576GJZ2CVDSII","","null","<img src=""img/land4.png"" style=""width:200px; border:14px solid green;"">","null","","","","","","","","","",""
"","image-keyboard-response","307","211671","0.0-307.0","3J2UYBXQQMY6S23Q04KZYTZ2FZ160F","A2SKY4RRWII0BF","3MVY4USGB69K0BK9K576GJZ2CVDSII","","2234","img/land6.png","75","2235","2","0","3","2","1,0.7,0.7,0.7,1,0.7,0.7,0.7,1","1,0.7,0.7,0.7,1,0.7,0.7,0.7,1","","",""
"","html-keyboard-response","308","211972","0.0-308.0","3J2UYBXQQMY6S23Q04KZYTZ2FZ160F","A2SKY4RRWII0BF","3MVY4USGB69K0BK9K576GJZ2CVDSII","","null","<img src=""img/land6.png"" style=""width:200px;border:14px solid red;"">","null","","","","","","","","","",""
"","image-keyboard-response","309","213136","0.0-309.0","3J2UYBXQQMY6S23Q04KZYTZ2FZ160F","A2SKY4RRWII0BF","3MVY4USGB69K0BK9K576GJZ2CVDSII","","1162","img/land5.png","76","1163","3","0","2","2","1,0.7,0.7,0.7,1,0.7,0.7,0.7,1","1,0.7,0.7,0.7,1,0.7,0.7,0.7,1","","",""
"","html-keyboard-response","310","213437","0.0-310.0","3J2UYBXQQMY6S23Q04KZYTZ2FZ160F","A2SKY4RRWII0BF","3MVY4USGB69K0BK9K576GJZ2CVDSII","","null","<img src=""img/land5.png"" style=""width:200px;border:14px solid red;"">","null","","","","","","","","","",""
"","image-keyboard-response","311","214824","0.0-311.0","3J2UYBXQQMY6S23Q04KZYTZ2FZ160F","A2SKY4RRWII0BF","3MVY4USGB69K0BK9K576GJZ2CVDSII","","1386","img/land4.png","76","1386","3","1","1","2","1,0.7,0.7,0.7,1,0.7,0.7,0.7,1","1,0.7,0.7,0.7,1,0.7,0.7,0.7,1","","",""
"","html-keyboard-response","312","215125","0.0-312.0","3J2UYBXQQMY6S23Q04KZYTZ2FZ160F","A2SKY4RRWII0BF","3MVY4USGB69K0BK9K576GJZ2CVDSII","","null","<img src=""img/land4.png"" style=""width:200px; border:14px solid green;"">","null","","","","","","","","","",""
"","image-keyboard-response","313","215991","0.0-313.0","3J2UYBXQQMY6S23Q04KZYTZ2FZ160F","A2SKY4RRWII0BF","3MVY4USGB69K0BK9K576GJZ2CVDSII","","866","img/land6.png","75","866","2","1","3","2","1,0.7,0.7,0.7,1,0.7,0.7,0.7,1","1,0.7,0.7,0.7,1,0.7,0.7,0.7,1","","",""
"","html-keyboard-response","314","216292","0.0-314.0","3J2UYBXQQMY6S23Q04KZYTZ2FZ160F","A2SKY4RRWII0BF","3MVY4USGB69K0BK9K576GJZ2CVDSII","","null","<img src=""img/land6.png"" style=""width:200px; border:14px solid green;"">","null","","","","","","","","","",""
"","image-keyboard-response","315","217447","0.0-315.0","3J2UYBXQQMY6S23Q04KZYTZ2FZ160F","A2SKY4RRWII0BF","3MVY4USGB69K0BK9K576GJZ2CVDSII","","1153","img/land4.png","76","1153","3","1","1","2","1,0.7,0.7,0.7,1,0.7,0.7,0.7,1","1,0.7,0.7,0.7,1,0.7,0.7,0.7,1","","",""
"","html-keyboard-response","316","217748","0.0-316.0","3J2UYBXQQMY6S23Q04KZYTZ2FZ160F","A2SKY4RRWII0BF","3MVY4USGB69K0BK9K576GJZ2CVDSII","","null","<img src=""img/land4.png"" style=""width:200px; border:14px solid green;"">","null","","","","","","","","","",""
"","image-keyboard-response","317","218375","0.0-317.0","3J2UYBXQQMY6S23Q04KZYTZ2FZ160F","A2SKY4RRWII0BF","3MVY4USGB69K0BK9K576GJZ2CVDSII","","626","img/land6.png","75","627","2","1","3","2","1,0.7,0.7,0.7,1,0.7,0.7,0.7,1","1,0.7,0.7,0.7,1,0.7,0.7,0.7,1","","",""
"","html-keyboard-response","318","218676","0.0-318.0","3J2UYBXQQMY6S23Q04KZYTZ2FZ160F","A2SKY4RRWII0BF","3MVY4USGB69K0BK9K576GJZ2CVDSII","","null","<img src=""img/land6.png"" style=""width:200px; border:14px solid green;"">","null","","","","","","","","","",""
"","image-keyboard-response","319","219575","0.0-319.0","3J2UYBXQQMY6S23Q04KZYTZ2FZ160F","A2SKY4RRWII0BF","3MVY4USGB69K0BK9K576GJZ2CVDSII","","897","img/land4.png","76","899","3","1","1","2","1,0.7,0.7,0.7,1,0.7,0.7,0.7,1","1,0.7,0.7,0.7,1,0.7,0.7,0.7,1","","",""
"","html-keyboard-response","320","219877","0.0-320.0","3J2UYBXQQMY6S23Q04KZYTZ2FZ160F","A2SKY4RRWII0BF","3MVY4USGB69K0BK9K576GJZ2CVDSII","","null","<img src=""img/land4.png"" style=""width:200px; border:14px solid green;"">","null","","","","","","","","","",""
"","image-keyboard-response","321","221055","0.0-321.0","3J2UYBXQQMY6S23Q04KZYTZ2FZ160F","A2SKY4RRWII0BF","3MVY4USGB69K0BK9K576GJZ2CVDSII","","1178","img/land5.png","75","1178","2","1","2","2","1,0.7,0.7,0.7,1,0.7,0.7,0.7,1","1,0.7,0.7,0.7,1,0.7,0.7,0.7,1","","",""
"","html-keyboard-response","322","221356","0.0-322.0","3J2UYBXQQMY6S23Q04KZYTZ2FZ160F","A2SKY4RRWII0BF","3MVY4USGB69K0BK9K576GJZ2CVDSII","","null","<img src=""img/land5.png"" style=""width:200px; border:14px solid green;"">","null","","","","","","","","","",""
"","image-keyboard-response","323","221928","0.0-323.0","3J2UYBXQQMY6S23Q04KZYTZ2FZ160F","A2SKY4RRWII0BF","3MVY4USGB69K0BK9K576GJZ2CVDSII","","571","img/land6.png","76","571","3","1","3","2","1,0.7,0.7,0.7,1,0.7,0.7,0.7,1","1,0.7,0.7,0.7,1,0.7,0.7,0.7,1","","",""
"","html-keyboard-response","324","222230","0.0-324.0","3J2UYBXQQMY6S23Q04KZYTZ2FZ160F","A2SKY4RRWII0BF","3MVY4USGB69K0BK9K576GJZ2CVDSII","","null","<img src=""img/land6.png"" style=""width:200px; border:14px solid green;"">","null","","","","","","","","","",""
"","image-keyboard-response","325","223328","0.0-325.0","3J2UYBXQQMY6S23Q04KZYTZ2FZ160F","A2SKY4RRWII0BF","3MVY4USGB69K0BK9K576GJZ2CVDSII","","1097","img/land5.png","75","1098","2","1","2","2","1,0.7,0.7,0.7,1,0.7,0.7,0.7,1","1,0.7,0.7,0.7,1,0.7,0.7,0.7,1","","",""
"","html-keyboard-response","326","223629","0.0-326.0","3J2UYBXQQMY6S23Q04KZYTZ2FZ160F","A2SKY4RRWII0BF","3MVY4USGB69K0BK9K576GJZ2CVDSII","","null","<img src=""img/land5.png"" style=""width:200px; border:14px solid green;"">","null","","","","","","","","","",""
"","image-keyboard-response","327","224735","0.0-327.0","3J2UYBXQQMY6S23Q04KZYTZ2FZ160F","A2SKY4RRWII0BF","3MVY4USGB69K0BK9K576GJZ2CVDSII","","1105","img/land4.png","75","1105","2","0","1","2","1,0.7,0.7,0.7,1,0.7,0.7,0.7,1","1,0.7,0.7,0.7,1,0.7,0.7,0.7,1","","",""
"","html-keyboard-response","328","225036","0.0-328.0","3J2UYBXQQMY6S23Q04KZYTZ2FZ160F","A2SKY4RRWII0BF","3MVY4USGB69K0BK9K576GJZ2CVDSII","","null","<img src=""img/land4.png"" style=""width:200px;border:14px solid red;"">","null","","","","","","","","","",""
"","image-keyboard-response","329","225504","0.0-329.0","3J2UYBXQQMY6S23Q04KZYTZ2FZ160F","A2SKY4RRWII0BF","3MVY4USGB69K0BK9K576GJZ2CVDSII","","466","img/land4.png","74","467","1","1","1","2","1,0.7,0.7,0.7,1,0.7,0.7,0.7,1","1,0.7,0.7,0.7,1,0.7,0.7,0.7,1","","",""
"","html-keyboard-response","330","225805","0.0-330.0","3J2UYBXQQMY6S23Q04KZYTZ2FZ160F","A2SKY4RRWII0BF","3MVY4USGB69K0BK9K576GJZ2CVDSII","","null","<img src=""img/land4.png"" style=""width:200px; border:14px solid green;"">","null","","","","","","","","","",""
"","image-keyboard-response","331","226447","0.0-331.0","3J2UYBXQQMY6S23Q04KZYTZ2FZ160F","A2SKY4RRWII0BF","3MVY4USGB69K0BK9K576GJZ2CVDSII","","641","img/land4.png","74","642","1","1","1","2","1,0.7,0.7,0.7,1,0.7,0.7,0.7,1","1,0.7,0.7,0.7,1,0.7,0.7,0.7,1","","",""
"","html-keyboard-response","332","226748","0.0-332.0","3J2UYBXQQMY6S23Q04KZYTZ2FZ160F","A2SKY4RRWII0BF","3MVY4USGB69K0BK9K576GJZ2CVDSII","","null","<img src=""img/land4.png"" style=""width:200px; border:14px solid green;"">","null","","","","","","","","","",""
"","image-keyboard-response","333","227623","0.0-333.0","3J2UYBXQQMY6S23Q04KZYTZ2FZ160F","A2SKY4RRWII0BF","3MVY4USGB69K0BK9K576GJZ2CVDSII","","874","img/land6.png","76","874","3","1","3","2","1,0.7,0.7,0.7,1,0.7,0.7,0.7,1","1,0.7,0.7,0.7,1,0.7,0.7,0.7,1","","",""
"","html-keyboard-response","334","227924","0.0-334.0","3J2UYBXQQMY6S23Q04KZYTZ2FZ160F","A2SKY4RRWII0BF","3MVY4USGB69K0BK9K576GJZ2CVDSII","","null","<img src=""img/land6.png"" style=""width:200px; border:14px solid green;"">","null","","","","","","","","","",""
"","image-keyboard-response","335","229000","0.0-335.0","3J2UYBXQQMY6S23Q04KZYTZ2FZ160F","A2SKY4RRWII0BF","3MVY4USGB69K0BK9K576GJZ2CVDSII","","1074","img/land4.png","74","1076","1","1","1","2","1,0.7,0.7,0.7,1,0.7,0.7,0.7,1","1,0.7,0.7,0.7,1,0.7,0.7,0.7,1","","",""
"","html-keyboard-response","336","229301","0.0-336.0","3J2UYBXQQMY6S23Q04KZYTZ2FZ160F","A2SKY4RRWII0BF","3MVY4USGB69K0BK9K576GJZ2CVDSII","","null","<img src=""img/land4.png"" style=""width:200px; border:14px solid green;"">","null","","","","","","","","","",""
"","image-keyboard-response","337","229887","0.0-337.0","3J2UYBXQQMY6S23Q04KZYTZ2FZ160F","A2SKY4RRWII0BF","3MVY4USGB69K0BK9K576GJZ2CVDSII","","584","img/land6.png","76","585","3","1","3","2","1,0.7,0.7,0.7,1,0.7,0.7,0.7,1","1,0.7,0.7,0.7,1,0.7,0.7,0.7,1","","",""
"","html-keyboard-response","338","230188","0.0-338.0","3J2UYBXQQMY6S23Q04KZYTZ2FZ160F","A2SKY4RRWII0BF","3MVY4USGB69K0BK9K576GJZ2CVDSII","","null","<img src=""img/land6.png"" style=""width:200px; border:14px solid green;"">","null","","","","","","","","","",""
"","instructions","339","234015","0.0-339.0","3J2UYBXQQMY6S23Q04KZYTZ2FZ160F","A2SKY4RRWII0BF","3MVY4USGB69K0BK9K576GJZ2CVDSII","[{""page_index"":0,""viewing_time"":3826}]","3826","","","","","","","","","","","",""
"","survey-text","340","237873","0.0-340.0-0.0","3J2UYBXQQMY6S23Q04KZYTZ2FZ160F","A2SKY4RRWII0BF","3MVY4USGB69K0BK9K576GJZ2CVDSII","","3854","","","","","","","","","","","{""Q0"":""56""}",""
"","survey-multi-choice","341","241528","0.0-340.0-1.0","3J2UYBXQQMY6S23Q04KZYTZ2FZ160F","A2SKY4RRWII0BF","3MVY4USGB69K0BK9K576GJZ2CVDSII","","3654","","","","","","","","","","","{""gender"":""M""}","[0]"
"","survey-text","342","250733","0.0-341.0","3J2UYBXQQMY6S23Q04KZYTZ2FZ160F","A2SKY4RRWII0BF","3MVY4USGB69K0BK9K576GJZ2CVDSII","","9202","","","","","","","","","","","{""Q0"":""A2SKY4RRWII0BF""}",""
