"success","trial_type","trial_index","time_elapsed","internal_node_id","assignmentID","mturkID","hitID","view_history","rt","stimulus","key_press","reactionTime","a","r","s","cond","reward_cond","reward_cond_actual","reward_matrix_idx","responses","question_order"
"true","fullscreen","0","3932","0.0-0.0","3SBEHTYCWOPJIHUCAD4XNOJR0N3IYI","A2T0STI1CPQBDR","38DCH97KHHO4I6P2AJ31XKZ17OGJQZ","","","","","","","","","","","","","",""
"","instructions","1","31182","0.0-1.0","3SBEHTYCWOPJIHUCAD4XNOJR0N3IYI","A2T0STI1CPQBDR","38DCH97KHHO4I6P2AJ31XKZ17OGJQZ","[{""page_index"":0,""viewing_time"":2741},{""page_index"":1,""viewing_time"":1935},{""page_index"":2,""viewing_time"":2277},{""page_index"":3,""viewing_time"":3439},{""page_index"":4,""viewing_time"":9846},{""page_index"":5,""viewing_time"":2279},{""page_index"":6,""viewing_time"":4727}]","27246","","","","","","","","","","","",""
"","image-keyboard-response","2","32331","0.0-2.0","3SBEHTYCWOPJIHUCAD4XNOJR0N3IYI","A2T0STI1CPQBDR","38DCH97KHHO4I6P2AJ31XKZ17OGJQZ","","1145","img/land6.png","74","1148","1","1","3","1","1,0.5,0.5,0.5,1,0.5,0.5,0.5,1","1,0.5,0.5,0.5,1,0.5,0.5,0.5,1","1","",""
"","html-keyboard-response","3","32638","0.0-3.0","3SBEHTYCWOPJIHUCAD4XNOJR0N3IYI","A2T0STI1CPQBDR","38DCH97KHHO4I6P2AJ31XKZ17OGJQZ","","null","<img src=""img/land6.png"" style=""width:200px; border:14px solid green;"">","null","","","","","","","","","",""
"","image-keyboard-response","4","32652","0.0-4.0","3SBEHTYCWOPJIHUCAD4XNOJR0N3IYI","A2T0STI1CPQBDR","38DCH97KHHO4I6P2AJ31XKZ17OGJQZ","","7","img/land6.png","75","11","2","0","3","1","1,0.5,0.5,0.5,1,0.5,0.5,0.5,1","1,0.5,0.5,0.5,1,0.5,0.5,0.5,1","1","",""
"","html-keyboard-response","5","32953","0.0-5.0","3SBEHTYCWOPJIHUCAD4XNOJR0N3IYI","A2T0STI1CPQBDR","38DCH97KHHO4I6P2AJ31XKZ17OGJQZ","","null","<img src=""img/land6.png"" style=""width:200px;border:14px solid red;"">","null","","","","","","","","","",""
"","image-keyboard-response","6","33029","0.0-6.0","3SBEHTYCWOPJIHUCAD4XNOJR0N3IYI","A2T0STI1CPQBDR","38DCH97KHHO4I6P2AJ31XKZ17OGJQZ","","73","img/land5.png","75","75","2","1","2","1","1,0.5,0.5,0.5,1,0.5,0.5,0.5,1","1,0.5,0.5,0.5,1,0.5,0.5,0.5,1","1","",""
"","html-keyboard-response","7","33331","0.0-7.0","3SBEHTYCWOPJIHUCAD4XNOJR0N3IYI","A2T0STI1CPQBDR","38DCH97KHHO4I6P2AJ31XKZ17OGJQZ","","null","<img src=""img/land5.png"" style=""width:200px; border:14px solid green;"">","null","","","","","","","","","",""
"","image-keyboard-response","8","33691","0.0-8.0","3SBEHTYCWOPJIHUCAD4XNOJR0N3IYI","A2T0STI1CPQBDR","38DCH97KHHO4I6P2AJ31XKZ17OGJQZ","","355","img/land5.png","76","359","3","1","2","1","1,0.5,0.5,0.5,1,0.5,0.5,0.5,1","1,0.5,0.5,0.5,1,0.5,0.5,0.5,1","1","",""
"","html-keyboard-response","9","33993","0.0-9.0","3SBEHTYCWOPJIHUCAD4XNOJR0N3IYI","A2T0STI1CPQBDR","38DCH97KHHO4I6P2AJ31XKZ17OGJQZ","","null","<img src=""img/land5.png"" style=""width:200px; border:14px solid green;"">","null","","","","","","","","","",""
"","image-keyboard-response","10","34113","0.0-10.0","3SBEHTYCWOPJIHUCAD4XNOJR0N3IYI","A2T0STI1CPQBDR","38DCH97KHHO4I6P2AJ31XKZ17OGJQZ","","117","img/land5.png","76","120","3","1","2","1","1,0.5,0.5,0.5,1,0.5,0.5,0.5,1","1,0.5,0.5,0.5,1,0.5,0.5,0.5,1","1","",""
"","html-keyboard-response","11","34421","0.0-11.0","3SBEHTYCWOPJIHUCAD4XNOJR0N3IYI","A2T0STI1CPQBDR","38DCH97KHHO4I6P2AJ31XKZ17OGJQZ","","null","<img src=""img/land5.png"" style=""width:200px; border:14px solid green;"">","null","","","","","","","","","",""
"","image-keyboard-response","12","34443","0.0-12.0","3SBEHTYCWOPJIHUCAD4XNOJR0N3IYI","A2T0STI1CPQBDR","38DCH97KHHO4I6P2AJ31XKZ17OGJQZ","","20","img/land3.png","76","21","3","0","1","1","1,0.5,0.5,0.5,1,0.5,0.5,0.5,1","1,0.5,0.5,0.5,1,0.5,0.5,0.5,1","1","",""
"","html-keyboard-response","13","34745","0.0-13.0","3SBEHTYCWOPJIHUCAD4XNOJR0N3IYI","A2T0STI1CPQBDR","38DCH97KHHO4I6P2AJ31XKZ17OGJQZ","","null","<img src=""img/land3.png"" style=""width:200px;border:14px solid red;"">","null","","","","","","","","","",""
"","image-keyboard-response","14","35109","0.0-14.0","3SBEHTYCWOPJIHUCAD4XNOJR0N3IYI","A2T0STI1CPQBDR","38DCH97KHHO4I6P2AJ31XKZ17OGJQZ","","361","img/land6.png","74","363","1","0","3","1","1,0.5,0.5,0.5,1,0.5,0.5,0.5,1","1,0.5,0.5,0.5,1,0.5,0.5,0.5,1","1","",""
"","html-keyboard-response","15","35414","0.0-15.0","3SBEHTYCWOPJIHUCAD4XNOJR0N3IYI","A2T0STI1CPQBDR","38DCH97KHHO4I6P2AJ31XKZ17OGJQZ","","null","<img src=""img/land6.png"" style=""width:200px;border:14px solid red;"">","null","","","","","","","","","",""
"","image-keyboard-response","16","35529","0.0-16.0","3SBEHTYCWOPJIHUCAD4XNOJR0N3IYI","A2T0STI1CPQBDR","38DCH97KHHO4I6P2AJ31XKZ17OGJQZ","","112","img/land6.png","74","114","1","1","3","1","1,0.5,0.5,0.5,1,0.5,0.5,0.5,1","1,0.5,0.5,0.5,1,0.5,0.5,0.5,1","1","",""
"","html-keyboard-response","17","35832","0.0-17.0","3SBEHTYCWOPJIHUCAD4XNOJR0N3IYI","A2T0STI1CPQBDR","38DCH97KHHO4I6P2AJ31XKZ17OGJQZ","","null","<img src=""img/land6.png"" style=""width:200px; border:14px solid green;"">","null","","","","","","","","","",""
"","image-keyboard-response","18","35967","0.0-18.0","3SBEHTYCWOPJIHUCAD4XNOJR0N3IYI","A2T0STI1CPQBDR","38DCH97KHHO4I6P2AJ31XKZ17OGJQZ","","134","img/land3.png","76","134","3","1","1","1","1,0.5,0.5,0.5,1,0.5,0.5,0.5,1","1,0.5,0.5,0.5,1,0.5,0.5,0.5,1","1","",""
"","html-keyboard-response","19","36270","0.0-19.0","3SBEHTYCWOPJIHUCAD4XNOJR0N3IYI","A2T0STI1CPQBDR","38DCH97KHHO4I6P2AJ31XKZ17OGJQZ","","null","<img src=""img/land3.png"" style=""width:200px; border:14px solid green;"">","null","","","","","","","","","",""
"","image-keyboard-response","20","36346","0.0-20.0","3SBEHTYCWOPJIHUCAD4XNOJR0N3IYI","A2T0STI1CPQBDR","38DCH97KHHO4I6P2AJ31XKZ17OGJQZ","","74","img/land3.png","74","75","1","1","1","1","1,0.5,0.5,0.5,1,0.5,0.5,0.5,1","1,0.5,0.5,0.5,1,0.5,0.5,0.5,1","1","",""
"","html-keyboard-response","21","36647","0.0-21.0","3SBEHTYCWOPJIHUCAD4XNOJR0N3IYI","A2T0STI1CPQBDR","38DCH97KHHO4I6P2AJ31XKZ17OGJQZ","","null","<img src=""img/land3.png"" style=""width:200px; border:14px solid green;"">","null","","","","","","","","","",""
"","image-keyboard-response","22","36768","0.0-22.0","3SBEHTYCWOPJIHUCAD4XNOJR0N3IYI","A2T0STI1CPQBDR","38DCH97KHHO4I6P2AJ31XKZ17OGJQZ","","120","img/land3.png","76","121","3","0","1","1","1,0.5,0.5,0.5,1,0.5,0.5,0.5,1","1,0.5,0.5,0.5,1,0.5,0.5,0.5,1","1","",""
"","html-keyboard-response","23","37071","0.0-23.0","3SBEHTYCWOPJIHUCAD4XNOJR0N3IYI","A2T0STI1CPQBDR","38DCH97KHHO4I6P2AJ31XKZ17OGJQZ","","null","<img src=""img/land3.png"" style=""width:200px;border:14px solid red;"">","null","","","","","","","","","",""
"","image-keyboard-response","24","37084","0.0-24.0","3SBEHTYCWOPJIHUCAD4XNOJR0N3IYI","A2T0STI1CPQBDR","38DCH97KHHO4I6P2AJ31XKZ17OGJQZ","","6","img/land6.png","74","8","1","0","3","1","1,0.5,0.5,0.5,1,0.5,0.5,0.5,1","1,0.5,0.5,0.5,1,0.5,0.5,0.5,1","1","",""
"","html-keyboard-response","25","37386","0.0-25.0","3SBEHTYCWOPJIHUCAD4XNOJR0N3IYI","A2T0STI1CPQBDR","38DCH97KHHO4I6P2AJ31XKZ17OGJQZ","","null","<img src=""img/land6.png"" style=""width:200px;border:14px solid red;"">","null","","","","","","","","","",""
"","image-keyboard-response","26","37477","0.0-26.0","3SBEHTYCWOPJIHUCAD4XNOJR0N3IYI","A2T0STI1CPQBDR","38DCH97KHHO4I6P2AJ31XKZ17OGJQZ","","88","img/land6.png","76","90","3","1","3","1","1,0.5,0.5,0.5,1,0.5,0.5,0.5,1","1,0.5,0.5,0.5,1,0.5,0.5,0.5,1","1","",""
"","html-keyboard-response","27","37780","0.0-27.0","3SBEHTYCWOPJIHUCAD4XNOJR0N3IYI","A2T0STI1CPQBDR","38DCH97KHHO4I6P2AJ31XKZ17OGJQZ","","null","<img src=""img/land6.png"" style=""width:200px; border:14px solid green;"">","null","","","","","","","","","",""
"","image-keyboard-response","28","37897","0.0-28.0","3SBEHTYCWOPJIHUCAD4XNOJR0N3IYI","A2T0STI1CPQBDR","38DCH97KHHO4I6P2AJ31XKZ17OGJQZ","","115","img/land3.png","74","116","1","1","1","1","1,0.5,0.5,0.5,1,0.5,0.5,0.5,1","1,0.5,0.5,0.5,1,0.5,0.5,0.5,1","1","",""
"","html-keyboard-response","29","38245","0.0-29.0","3SBEHTYCWOPJIHUCAD4XNOJR0N3IYI","A2T0STI1CPQBDR","38DCH97KHHO4I6P2AJ31XKZ17OGJQZ","","null","<img src=""img/land3.png"" style=""width:200px; border:14px solid green;"">","null","","","","","","","","","",""
"","image-keyboard-response","30","38259","0.0-30.0","3SBEHTYCWOPJIHUCAD4XNOJR0N3IYI","A2T0STI1CPQBDR","38DCH97KHHO4I6P2AJ31XKZ17OGJQZ","","13","img/land3.png","74","13","1","1","1","1","1,0.5,0.5,0.5,1,0.5,0.5,0.5,1","1,0.5,0.5,0.5,1,0.5,0.5,0.5,1","1","",""
"","html-keyboard-response","31","38562","0.0-31.0","3SBEHTYCWOPJIHUCAD4XNOJR0N3IYI","A2T0STI1CPQBDR","38DCH97KHHO4I6P2AJ31XKZ17OGJQZ","","null","<img src=""img/land3.png"" style=""width:200px; border:14px solid green;"">","null","","","","","","","","","",""
"","image-keyboard-response","32","38589","0.0-32.0","3SBEHTYCWOPJIHUCAD4XNOJR0N3IYI","A2T0STI1CPQBDR","38DCH97KHHO4I6P2AJ31XKZ17OGJQZ","","26","img/land3.png","76","28","3","1","1","1","1,0.5,0.5,0.5,1,0.5,0.5,0.5,1","1,0.5,0.5,0.5,1,0.5,0.5,0.5,1","1","",""
"","html-keyboard-response","33","38891","0.0-33.0","3SBEHTYCWOPJIHUCAD4XNOJR0N3IYI","A2T0STI1CPQBDR","38DCH97KHHO4I6P2AJ31XKZ17OGJQZ","","null","<img src=""img/land3.png"" style=""width:200px; border:14px solid green;"">","null","","","","","","","","","",""
"","image-keyboard-response","34","38905","0.0-34.0","3SBEHTYCWOPJIHUCAD4XNOJR0N3IYI","A2T0STI1CPQBDR","38DCH97KHHO4I6P2AJ31XKZ17OGJQZ","","13","img/land6.png","76","14","3","1","3","1","1,0.5,0.5,0.5,1,0.5,0.5,0.5,1","1,0.5,0.5,0.5,1,0.5,0.5,0.5,1","1","",""
"","html-keyboard-response","35","39206","0.0-35.0","3SBEHTYCWOPJIHUCAD4XNOJR0N3IYI","A2T0STI1CPQBDR","38DCH97KHHO4I6P2AJ31XKZ17OGJQZ","","null","<img src=""img/land6.png"" style=""width:200px; border:14px solid green;"">","null","","","","","","","","","",""
"","image-keyboard-response","36","39370","0.0-36.0","3SBEHTYCWOPJIHUCAD4XNOJR0N3IYI","A2T0STI1CPQBDR","38DCH97KHHO4I6P2AJ31XKZ17OGJQZ","","161","img/land6.png","74","163","1","1","3","1","1,0.5,0.5,0.5,1,0.5,0.5,0.5,1","1,0.5,0.5,0.5,1,0.5,0.5,0.5,1","1","",""
"","html-keyboard-response","37","39672","0.0-37.0","3SBEHTYCWOPJIHUCAD4XNOJR0N3IYI","A2T0STI1CPQBDR","38DCH97KHHO4I6P2AJ31XKZ17OGJQZ","","null","<img src=""img/land6.png"" style=""width:200px; border:14px solid green;"">","null","","","","","","","","","",""
"","image-keyboard-response","38","39753","0.0-38.0","3SBEHTYCWOPJIHUCAD4XNOJR0N3IYI","A2T0STI1CPQBDR","38DCH97KHHO4I6P2AJ31XKZ17OGJQZ","","80","img/land3.png","76","81","3","1","1","1","1,0.5,0.5,0.5,1,0.5,0.5,0.5,1","1,0.5,0.5,0.5,1,0.5,0.5,0.5,1","1","",""
"","html-keyboard-response","39","40056","0.0-39.0","3SBEHTYCWOPJIHUCAD4XNOJR0N3IYI","A2T0STI1CPQBDR","38DCH97KHHO4I6P2AJ31XKZ17OGJQZ","","null","<img src=""img/land3.png"" style=""width:200px; border:14px solid green;"">","null","","","","","","","","","",""
"","image-keyboard-response","40","40206","0.0-40.0","3SBEHTYCWOPJIHUCAD4XNOJR0N3IYI","A2T0STI1CPQBDR","38DCH97KHHO4I6P2AJ31XKZ17OGJQZ","","144","img/land3.png","74","147","1","1","1","1","1,0.5,0.5,0.5,1,0.5,0.5,0.5,1","1,0.5,0.5,0.5,1,0.5,0.5,0.5,1","1","",""
"","html-keyboard-response","41","40507","0.0-41.0","3SBEHTYCWOPJIHUCAD4XNOJR0N3IYI","A2T0STI1CPQBDR","38DCH97KHHO4I6P2AJ31XKZ17OGJQZ","","null","<img src=""img/land3.png"" style=""width:200px; border:14px solid green;"">","null","","","","","","","","","",""
"","image-keyboard-response","42","40648","0.0-42.0","3SBEHTYCWOPJIHUCAD4XNOJR0N3IYI","A2T0STI1CPQBDR","38DCH97KHHO4I6P2AJ31XKZ17OGJQZ","","137","img/land6.png","76","140","3","1","3","1","1,0.5,0.5,0.5,1,0.5,0.5,0.5,1","1,0.5,0.5,0.5,1,0.5,0.5,0.5,1","1","",""
"","html-keyboard-response","43","40951","0.0-43.0","3SBEHTYCWOPJIHUCAD4XNOJR0N3IYI","A2T0STI1CPQBDR","38DCH97KHHO4I6P2AJ31XKZ17OGJQZ","","null","<img src=""img/land6.png"" style=""width:200px; border:14px solid green;"">","null","","","","","","","","","",""
"","image-keyboard-response","44","41101","0.0-44.0","3SBEHTYCWOPJIHUCAD4XNOJR0N3IYI","A2T0STI1CPQBDR","38DCH97KHHO4I6P2AJ31XKZ17OGJQZ","","147","img/land5.png","74","149","1","0","2","1","1,0.5,0.5,0.5,1,0.5,0.5,0.5,1","1,0.5,0.5,0.5,1,0.5,0.5,0.5,1","1","",""
"","html-keyboard-response","45","41405","0.0-45.0","3SBEHTYCWOPJIHUCAD4XNOJR0N3IYI","A2T0STI1CPQBDR","38DCH97KHHO4I6P2AJ31XKZ17OGJQZ","","null","<img src=""img/land5.png"" style=""width:200px;border:14px solid red;"">","null","","","","","","","","","",""
"","image-keyboard-response","46","41474","0.0-46.0","3SBEHTYCWOPJIHUCAD4XNOJR0N3IYI","A2T0STI1CPQBDR","38DCH97KHHO4I6P2AJ31XKZ17OGJQZ","","66","img/land5.png","76","68","3","0","2","1","1,0.5,0.5,0.5,1,0.5,0.5,0.5,1","1,0.5,0.5,0.5,1,0.5,0.5,0.5,1","1","",""
"","html-keyboard-response","47","41776","0.0-47.0","3SBEHTYCWOPJIHUCAD4XNOJR0N3IYI","A2T0STI1CPQBDR","38DCH97KHHO4I6P2AJ31XKZ17OGJQZ","","null","<img src=""img/land5.png"" style=""width:200px;border:14px solid red;"">","null","","","","","","","","","",""
"","image-keyboard-response","48","41955","0.0-48.0","3SBEHTYCWOPJIHUCAD4XNOJR0N3IYI","A2T0STI1CPQBDR","38DCH97KHHO4I6P2AJ31XKZ17OGJQZ","","174","img/land5.png","74","176","1","1","2","1","1,0.5,0.5,0.5,1,0.5,0.5,0.5,1","1,0.5,0.5,0.5,1,0.5,0.5,0.5,1","1","",""
"","html-keyboard-response","49","42257","0.0-49.0","3SBEHTYCWOPJIHUCAD4XNOJR0N3IYI","A2T0STI1CPQBDR","38DCH97KHHO4I6P2AJ31XKZ17OGJQZ","","null","<img src=""img/land5.png"" style=""width:200px; border:14px solid green;"">","null","","","","","","","","","",""
"","image-keyboard-response","50","42322","0.0-50.0","3SBEHTYCWOPJIHUCAD4XNOJR0N3IYI","A2T0STI1CPQBDR","38DCH97KHHO4I6P2AJ31XKZ17OGJQZ","","63","img/land5.png","76","64","3","1","2","1","1,0.5,0.5,0.5,1,0.5,0.5,0.5,1","1,0.5,0.5,0.5,1,0.5,0.5,0.5,1","1","",""
"","html-keyboard-response","51","42623","0.0-51.0","3SBEHTYCWOPJIHUCAD4XNOJR0N3IYI","A2T0STI1CPQBDR","38DCH97KHHO4I6P2AJ31XKZ17OGJQZ","","null","<img src=""img/land5.png"" style=""width:200px; border:14px solid green;"">","null","","","","","","","","","",""
"","image-keyboard-response","52","42773","0.0-52.0","3SBEHTYCWOPJIHUCAD4XNOJR0N3IYI","A2T0STI1CPQBDR","38DCH97KHHO4I6P2AJ31XKZ17OGJQZ","","147","img/land3.png","74","149","1","1","1","1","1,0.5,0.5,0.5,1,0.5,0.5,0.5,1","1,0.5,0.5,0.5,1,0.5,0.5,0.5,1","1","",""
"","html-keyboard-response","53","43076","0.0-53.0","3SBEHTYCWOPJIHUCAD4XNOJR0N3IYI","A2T0STI1CPQBDR","38DCH97KHHO4I6P2AJ31XKZ17OGJQZ","","null","<img src=""img/land3.png"" style=""width:200px; border:14px solid green;"">","null","","","","","","","","","",""
"","image-keyboard-response","54","43099","0.0-54.0","3SBEHTYCWOPJIHUCAD4XNOJR0N3IYI","A2T0STI1CPQBDR","38DCH97KHHO4I6P2AJ31XKZ17OGJQZ","","21","img/land5.png","74","22","1","0","2","1","1,0.5,0.5,0.5,1,0.5,0.5,0.5,1","1,0.5,0.5,0.5,1,0.5,0.5,0.5,1","1","",""
"","html-keyboard-response","55","43404","0.0-55.0","3SBEHTYCWOPJIHUCAD4XNOJR0N3IYI","A2T0STI1CPQBDR","38DCH97KHHO4I6P2AJ31XKZ17OGJQZ","","null","<img src=""img/land5.png"" style=""width:200px;border:14px solid red;"">","null","","","","","","","","","",""
"","image-keyboard-response","56","43408","0.0-56.0","3SBEHTYCWOPJIHUCAD4XNOJR0N3IYI","A2T0STI1CPQBDR","38DCH97KHHO4I6P2AJ31XKZ17OGJQZ","","0","img/land6.png","74","3","1","1","3","1","1,0.5,0.5,0.5,1,0.5,0.5,0.5,1","1,0.5,0.5,0.5,1,0.5,0.5,0.5,1","1","",""
"","html-keyboard-response","57","43710","0.0-57.0","3SBEHTYCWOPJIHUCAD4XNOJR0N3IYI","A2T0STI1CPQBDR","38DCH97KHHO4I6P2AJ31XKZ17OGJQZ","","null","<img src=""img/land6.png"" style=""width:200px; border:14px solid green;"">","null","","","","","","","","","",""
"","image-keyboard-response","58","43793","0.0-58.0","3SBEHTYCWOPJIHUCAD4XNOJR0N3IYI","A2T0STI1CPQBDR","38DCH97KHHO4I6P2AJ31XKZ17OGJQZ","","81","img/land6.png","76","82","3","1","3","1","1,0.5,0.5,0.5,1,0.5,0.5,0.5,1","1,0.5,0.5,0.5,1,0.5,0.5,0.5,1","1","",""
"","html-keyboard-response","59","44095","0.0-59.0","3SBEHTYCWOPJIHUCAD4XNOJR0N3IYI","A2T0STI1CPQBDR","38DCH97KHHO4I6P2AJ31XKZ17OGJQZ","","null","<img src=""img/land6.png"" style=""width:200px; border:14px solid green;"">","null","","","","","","","","","",""
"","image-keyboard-response","60","44107","0.0-60.0","3SBEHTYCWOPJIHUCAD4XNOJR0N3IYI","A2T0STI1CPQBDR","38DCH97KHHO4I6P2AJ31XKZ17OGJQZ","","8","img/land5.png","76","11","3","1","2","1","1,0.5,0.5,0.5,1,0.5,0.5,0.5,1","1,0.5,0.5,0.5,1,0.5,0.5,0.5,1","1","",""
"","html-keyboard-response","61","44412","0.0-61.0","3SBEHTYCWOPJIHUCAD4XNOJR0N3IYI","A2T0STI1CPQBDR","38DCH97KHHO4I6P2AJ31XKZ17OGJQZ","","null","<img src=""img/land5.png"" style=""width:200px; border:14px solid green;"">","null","","","","","","","","","",""
"","image-keyboard-response","62","44420","0.0-62.0","3SBEHTYCWOPJIHUCAD4XNOJR0N3IYI","A2T0STI1CPQBDR","38DCH97KHHO4I6P2AJ31XKZ17OGJQZ","","7","img/land6.png","76","8","3","1","3","1","1,0.5,0.5,0.5,1,0.5,0.5,0.5,1","1,0.5,0.5,0.5,1,0.5,0.5,0.5,1","1","",""
"","html-keyboard-response","63","44723","0.0-63.0","3SBEHTYCWOPJIHUCAD4XNOJR0N3IYI","A2T0STI1CPQBDR","38DCH97KHHO4I6P2AJ31XKZ17OGJQZ","","null","<img src=""img/land6.png"" style=""width:200px; border:14px solid green;"">","null","","","","","","","","","",""
"","image-keyboard-response","64","44750","0.0-64.0","3SBEHTYCWOPJIHUCAD4XNOJR0N3IYI","A2T0STI1CPQBDR","38DCH97KHHO4I6P2AJ31XKZ17OGJQZ","","24","img/land5.png","76","26","3","1","2","1","1,0.5,0.5,0.5,1,0.5,0.5,0.5,1","1,0.5,0.5,0.5,1,0.5,0.5,0.5,1","1","",""
"","html-keyboard-response","65","45053","0.0-65.0","3SBEHTYCWOPJIHUCAD4XNOJR0N3IYI","A2T0STI1CPQBDR","38DCH97KHHO4I6P2AJ31XKZ17OGJQZ","","null","<img src=""img/land5.png"" style=""width:200px; border:14px solid green;"">","null","","","","","","","","","",""
"","image-keyboard-response","66","45202","0.0-66.0","3SBEHTYCWOPJIHUCAD4XNOJR0N3IYI","A2T0STI1CPQBDR","38DCH97KHHO4I6P2AJ31XKZ17OGJQZ","","146","img/land3.png","74","147","1","1","1","1","1,0.5,0.5,0.5,1,0.5,0.5,0.5,1","1,0.5,0.5,0.5,1,0.5,0.5,0.5,1","1","",""
"","html-keyboard-response","67","45505","0.0-67.0","3SBEHTYCWOPJIHUCAD4XNOJR0N3IYI","A2T0STI1CPQBDR","38DCH97KHHO4I6P2AJ31XKZ17OGJQZ","","null","<img src=""img/land3.png"" style=""width:200px; border:14px solid green;"">","null","","","","","","","","","",""
"","image-keyboard-response","68","45516","0.0-68.0","3SBEHTYCWOPJIHUCAD4XNOJR0N3IYI","A2T0STI1CPQBDR","38DCH97KHHO4I6P2AJ31XKZ17OGJQZ","","6","img/land6.png","75","9","2","0","3","1","1,0.5,0.5,0.5,1,0.5,0.5,0.5,1","1,0.5,0.5,0.5,1,0.5,0.5,0.5,1","1","",""
"","html-keyboard-response","69","45818","0.0-69.0","3SBEHTYCWOPJIHUCAD4XNOJR0N3IYI","A2T0STI1CPQBDR","38DCH97KHHO4I6P2AJ31XKZ17OGJQZ","","null","<img src=""img/land6.png"" style=""width:200px;border:14px solid red;"">","null","","","","","","","","","",""
"","image-keyboard-response","70","45835","0.0-70.0","3SBEHTYCWOPJIHUCAD4XNOJR0N3IYI","A2T0STI1CPQBDR","38DCH97KHHO4I6P2AJ31XKZ17OGJQZ","","15","img/land5.png","75","16","2","1","2","1","1,0.5,0.5,0.5,1,0.5,0.5,0.5,1","1,0.5,0.5,0.5,1,0.5,0.5,0.5,1","1","",""
"","html-keyboard-response","71","46138","0.0-71.0","3SBEHTYCWOPJIHUCAD4XNOJR0N3IYI","A2T0STI1CPQBDR","38DCH97KHHO4I6P2AJ31XKZ17OGJQZ","","null","<img src=""img/land5.png"" style=""width:200px; border:14px solid green;"">","null","","","","","","","","","",""
"","image-keyboard-response","72","46357","0.0-72.0","3SBEHTYCWOPJIHUCAD4XNOJR0N3IYI","A2T0STI1CPQBDR","38DCH97KHHO4I6P2AJ31XKZ17OGJQZ","","217","img/land3.png","74","218","1","1","1","1","1,0.5,0.5,0.5,1,0.5,0.5,0.5,1","1,0.5,0.5,0.5,1,0.5,0.5,0.5,1","1","",""
"","html-keyboard-response","73","46658","0.0-73.0","3SBEHTYCWOPJIHUCAD4XNOJR0N3IYI","A2T0STI1CPQBDR","38DCH97KHHO4I6P2AJ31XKZ17OGJQZ","","null","<img src=""img/land3.png"" style=""width:200px; border:14px solid green;"">","null","","","","","","","","","",""
"","image-keyboard-response","74","46723","0.0-74.0","3SBEHTYCWOPJIHUCAD4XNOJR0N3IYI","A2T0STI1CPQBDR","38DCH97KHHO4I6P2AJ31XKZ17OGJQZ","","64","img/land5.png","74","64","1","1","2","1","1,0.5,0.5,0.5,1,0.5,0.5,0.5,1","1,0.5,0.5,0.5,1,0.5,0.5,0.5,1","1","",""
"","html-keyboard-response","75","47025","0.0-75.0","3SBEHTYCWOPJIHUCAD4XNOJR0N3IYI","A2T0STI1CPQBDR","38DCH97KHHO4I6P2AJ31XKZ17OGJQZ","","null","<img src=""img/land5.png"" style=""width:200px; border:14px solid green;"">","null","","","","","","","","","",""
"","image-keyboard-response","76","47043","0.0-76.0","3SBEHTYCWOPJIHUCAD4XNOJR0N3IYI","A2T0STI1CPQBDR","38DCH97KHHO4I6P2AJ31XKZ17OGJQZ","","17","img/land5.png","74","18","1","1","2","1","1,0.5,0.5,0.5,1,0.5,0.5,0.5,1","1,0.5,0.5,0.5,1,0.5,0.5,0.5,1","1","",""
"","html-keyboard-response","77","47344","0.0-77.0","3SBEHTYCWOPJIHUCAD4XNOJR0N3IYI","A2T0STI1CPQBDR","38DCH97KHHO4I6P2AJ31XKZ17OGJQZ","","null","<img src=""img/land5.png"" style=""width:200px; border:14px solid green;"">","null","","","","","","","","","",""
"","image-keyboard-response","78","47435","0.0-78.0","3SBEHTYCWOPJIHUCAD4XNOJR0N3IYI","A2T0STI1CPQBDR","38DCH97KHHO4I6P2AJ31XKZ17OGJQZ","","89","img/land3.png","74","91","1","1","1","1","1,0.5,0.5,0.5,1,0.5,0.5,0.5,1","1,0.5,0.5,0.5,1,0.5,0.5,0.5,1","1","",""
"","html-keyboard-response","79","47739","0.0-79.0","3SBEHTYCWOPJIHUCAD4XNOJR0N3IYI","A2T0STI1CPQBDR","38DCH97KHHO4I6P2AJ31XKZ17OGJQZ","","null","<img src=""img/land3.png"" style=""width:200px; border:14px solid green;"">","null","","","","","","","","","",""
"","image-keyboard-response","80","47768","0.0-80.0","3SBEHTYCWOPJIHUCAD4XNOJR0N3IYI","A2T0STI1CPQBDR","38DCH97KHHO4I6P2AJ31XKZ17OGJQZ","","26","img/land3.png","74","28","1","1","1","1","1,0.5,0.5,0.5,1,0.5,0.5,0.5,1","1,0.5,0.5,0.5,1,0.5,0.5,0.5,1","1","",""
"","html-keyboard-response","81","48070","0.0-81.0","3SBEHTYCWOPJIHUCAD4XNOJR0N3IYI","A2T0STI1CPQBDR","38DCH97KHHO4I6P2AJ31XKZ17OGJQZ","","null","<img src=""img/land3.png"" style=""width:200px; border:14px solid green;"">","null","","","","","","","","","",""
"","image-keyboard-response","82","48193","0.0-82.0","3SBEHTYCWOPJIHUCAD4XNOJR0N3IYI","A2T0STI1CPQBDR","38DCH97KHHO4I6P2AJ31XKZ17OGJQZ","","121","img/land5.png","76","121","3","0","2","1","1,0.5,0.5,0.5,1,0.5,0.5,0.5,1","1,0.5,0.5,0.5,1,0.5,0.5,0.5,1","1","",""
"","html-keyboard-response","83","48494","0.0-83.0","3SBEHTYCWOPJIHUCAD4XNOJR0N3IYI","A2T0STI1CPQBDR","38DCH97KHHO4I6P2AJ31XKZ17OGJQZ","","null","<img src=""img/land5.png"" style=""width:200px;border:14px solid red;"">","null","","","","","","","","","",""
"","image-keyboard-response","84","48630","0.0-84.0","3SBEHTYCWOPJIHUCAD4XNOJR0N3IYI","A2T0STI1CPQBDR","38DCH97KHHO4I6P2AJ31XKZ17OGJQZ","","134","img/land5.png","74","136","1","0","2","1","1,0.5,0.5,0.5,1,0.5,0.5,0.5,1","1,0.5,0.5,0.5,1,0.5,0.5,0.5,1","1","",""
"","html-keyboard-response","85","48933","0.0-85.0","3SBEHTYCWOPJIHUCAD4XNOJR0N3IYI","A2T0STI1CPQBDR","38DCH97KHHO4I6P2AJ31XKZ17OGJQZ","","null","<img src=""img/land5.png"" style=""width:200px;border:14px solid red;"">","null","","","","","","","","","",""
"","image-keyboard-response","86","49292","0.0-86.0","3SBEHTYCWOPJIHUCAD4XNOJR0N3IYI","A2T0STI1CPQBDR","38DCH97KHHO4I6P2AJ31XKZ17OGJQZ","","356","img/land3.png","74","357","1","1","1","1","1,0.5,0.5,0.5,1,0.5,0.5,0.5,1","1,0.5,0.5,0.5,1,0.5,0.5,0.5,1","1","",""
"","html-keyboard-response","87","49594","0.0-87.0","3SBEHTYCWOPJIHUCAD4XNOJR0N3IYI","A2T0STI1CPQBDR","38DCH97KHHO4I6P2AJ31XKZ17OGJQZ","","null","<img src=""img/land3.png"" style=""width:200px; border:14px solid green;"">","null","","","","","","","","","",""
"","image-keyboard-response","88","49618","0.0-88.0","3SBEHTYCWOPJIHUCAD4XNOJR0N3IYI","A2T0STI1CPQBDR","38DCH97KHHO4I6P2AJ31XKZ17OGJQZ","","23","img/land6.png","74","24","1","0","3","1","1,0.5,0.5,0.5,1,0.5,0.5,0.5,1","1,0.5,0.5,0.5,1,0.5,0.5,0.5,1","1","",""
"","html-keyboard-response","89","49920","0.0-89.0","3SBEHTYCWOPJIHUCAD4XNOJR0N3IYI","A2T0STI1CPQBDR","38DCH97KHHO4I6P2AJ31XKZ17OGJQZ","","null","<img src=""img/land6.png"" style=""width:200px;border:14px solid red;"">","null","","","","","","","","","",""
"","image-keyboard-response","90","50035","0.0-90.0","3SBEHTYCWOPJIHUCAD4XNOJR0N3IYI","A2T0STI1CPQBDR","38DCH97KHHO4I6P2AJ31XKZ17OGJQZ","","112","img/land6.png","75","114","2","1","3","1","1,0.5,0.5,0.5,1,0.5,0.5,0.5,1","1,0.5,0.5,0.5,1,0.5,0.5,0.5,1","1","",""
"","html-keyboard-response","91","50375","0.0-91.0","3SBEHTYCWOPJIHUCAD4XNOJR0N3IYI","A2T0STI1CPQBDR","38DCH97KHHO4I6P2AJ31XKZ17OGJQZ","","null","<img src=""img/land6.png"" style=""width:200px; border:14px solid green;"">","null","","","","","","","","","",""
"","image-keyboard-response","92","50385","0.0-92.0","3SBEHTYCWOPJIHUCAD4XNOJR0N3IYI","A2T0STI1CPQBDR","38DCH97KHHO4I6P2AJ31XKZ17OGJQZ","","8","img/land5.png","76","9","3","1","2","1","1,0.5,0.5,0.5,1,0.5,0.5,0.5,1","1,0.5,0.5,0.5,1,0.5,0.5,0.5,1","1","",""
"","html-keyboard-response","93","50686","0.0-93.0","3SBEHTYCWOPJIHUCAD4XNOJR0N3IYI","A2T0STI1CPQBDR","38DCH97KHHO4I6P2AJ31XKZ17OGJQZ","","null","<img src=""img/land5.png"" style=""width:200px; border:14px solid green;"">","null","","","","","","","","","",""
"","image-keyboard-response","94","50902","0.0-94.0","3SBEHTYCWOPJIHUCAD4XNOJR0N3IYI","A2T0STI1CPQBDR","38DCH97KHHO4I6P2AJ31XKZ17OGJQZ","","212","img/land5.png","74","214","1","1","2","1","1,0.5,0.5,0.5,1,0.5,0.5,0.5,1","1,0.5,0.5,0.5,1,0.5,0.5,0.5,1","1","",""
"","html-keyboard-response","95","51214","0.0-95.0","3SBEHTYCWOPJIHUCAD4XNOJR0N3IYI","A2T0STI1CPQBDR","38DCH97KHHO4I6P2AJ31XKZ17OGJQZ","","null","<img src=""img/land5.png"" style=""width:200px; border:14px solid green;"">","null","","","","","","","","","",""
"","image-keyboard-response","96","51444","0.0-96.0","3SBEHTYCWOPJIHUCAD4XNOJR0N3IYI","A2T0STI1CPQBDR","38DCH97KHHO4I6P2AJ31XKZ17OGJQZ","","228","img/land3.png","74","229","1","1","1","1","1,0.5,0.5,0.5,1,0.5,0.5,0.5,1","1,0.5,0.5,0.5,1,0.5,0.5,0.5,1","1","",""
"","html-keyboard-response","97","51748","0.0-97.0","3SBEHTYCWOPJIHUCAD4XNOJR0N3IYI","A2T0STI1CPQBDR","38DCH97KHHO4I6P2AJ31XKZ17OGJQZ","","null","<img src=""img/land3.png"" style=""width:200px; border:14px solid green;"">","null","","","","","","","","","",""
"","image-keyboard-response","98","51880","0.0-98.0","3SBEHTYCWOPJIHUCAD4XNOJR0N3IYI","A2T0STI1CPQBDR","38DCH97KHHO4I6P2AJ31XKZ17OGJQZ","","125","img/land5.png","76","129","3","0","2","1","1,0.5,0.5,0.5,1,0.5,0.5,0.5,1","1,0.5,0.5,0.5,1,0.5,0.5,0.5,1","1","",""
"","html-keyboard-response","99","52185","0.0-99.0","3SBEHTYCWOPJIHUCAD4XNOJR0N3IYI","A2T0STI1CPQBDR","38DCH97KHHO4I6P2AJ31XKZ17OGJQZ","","null","<img src=""img/land5.png"" style=""width:200px;border:14px solid red;"">","null","","","","","","","","","",""
"","image-keyboard-response","100","52321","0.0-100.0","3SBEHTYCWOPJIHUCAD4XNOJR0N3IYI","A2T0STI1CPQBDR","38DCH97KHHO4I6P2AJ31XKZ17OGJQZ","","134","img/land6.png","74","135","1","1","3","1","1,0.5,0.5,0.5,1,0.5,0.5,0.5,1","1,0.5,0.5,0.5,1,0.5,0.5,0.5,1","1","",""
"","html-keyboard-response","101","52624","0.0-101.0","3SBEHTYCWOPJIHUCAD4XNOJR0N3IYI","A2T0STI1CPQBDR","38DCH97KHHO4I6P2AJ31XKZ17OGJQZ","","null","<img src=""img/land6.png"" style=""width:200px; border:14px solid green;"">","null","","","","","","","","","",""
"","image-keyboard-response","102","53115","0.0-102.0","3SBEHTYCWOPJIHUCAD4XNOJR0N3IYI","A2T0STI1CPQBDR","38DCH97KHHO4I6P2AJ31XKZ17OGJQZ","","491","img/land5.png","76","491","3","0","2","1","1,0.5,0.5,0.5,1,0.5,0.5,0.5,1","1,0.5,0.5,0.5,1,0.5,0.5,0.5,1","1","",""
"","html-keyboard-response","103","53417","0.0-103.0","3SBEHTYCWOPJIHUCAD4XNOJR0N3IYI","A2T0STI1CPQBDR","38DCH97KHHO4I6P2AJ31XKZ17OGJQZ","","null","<img src=""img/land5.png"" style=""width:200px;border:14px solid red;"">","null","","","","","","","","","",""
"","image-keyboard-response","104","53477","0.0-104.0","3SBEHTYCWOPJIHUCAD4XNOJR0N3IYI","A2T0STI1CPQBDR","38DCH97KHHO4I6P2AJ31XKZ17OGJQZ","","55","img/land3.png","74","57","1","1","1","1","1,0.5,0.5,0.5,1,0.5,0.5,0.5,1","1,0.5,0.5,0.5,1,0.5,0.5,0.5,1","1","",""
"","html-keyboard-response","105","53779","0.0-105.0","3SBEHTYCWOPJIHUCAD4XNOJR0N3IYI","A2T0STI1CPQBDR","38DCH97KHHO4I6P2AJ31XKZ17OGJQZ","","null","<img src=""img/land3.png"" style=""width:200px; border:14px solid green;"">","null","","","","","","","","","",""
"","image-keyboard-response","106","53796","0.0-106.0","3SBEHTYCWOPJIHUCAD4XNOJR0N3IYI","A2T0STI1CPQBDR","38DCH97KHHO4I6P2AJ31XKZ17OGJQZ","","14","img/land6.png","75","15","2","0","3","1","1,0.5,0.5,0.5,1,0.5,0.5,0.5,1","1,0.5,0.5,0.5,1,0.5,0.5,0.5,1","1","",""
"","html-keyboard-response","107","54100","0.0-107.0","3SBEHTYCWOPJIHUCAD4XNOJR0N3IYI","A2T0STI1CPQBDR","38DCH97KHHO4I6P2AJ31XKZ17OGJQZ","","null","<img src=""img/land6.png"" style=""width:200px;border:14px solid red;"">","null","","","","","","","","","",""
"","image-keyboard-response","108","54246","0.0-108.0","3SBEHTYCWOPJIHUCAD4XNOJR0N3IYI","A2T0STI1CPQBDR","38DCH97KHHO4I6P2AJ31XKZ17OGJQZ","","145","img/land6.png","76","145","3","1","3","1","1,0.5,0.5,0.5,1,0.5,0.5,0.5,1","1,0.5,0.5,0.5,1,0.5,0.5,0.5,1","1","",""
"","html-keyboard-response","109","54548","0.0-109.0","3SBEHTYCWOPJIHUCAD4XNOJR0N3IYI","A2T0STI1CPQBDR","38DCH97KHHO4I6P2AJ31XKZ17OGJQZ","","null","<img src=""img/land6.png"" style=""width:200px; border:14px solid green;"">","null","","","","","","","","","",""
"","image-keyboard-response","110","54691","0.0-110.0","3SBEHTYCWOPJIHUCAD4XNOJR0N3IYI","A2T0STI1CPQBDR","38DCH97KHHO4I6P2AJ31XKZ17OGJQZ","","141","img/land3.png","74","142","1","1","1","1","1,0.5,0.5,0.5,1,0.5,0.5,0.5,1","1,0.5,0.5,0.5,1,0.5,0.5,0.5,1","1","",""
"","html-keyboard-response","111","54994","0.0-111.0","3SBEHTYCWOPJIHUCAD4XNOJR0N3IYI","A2T0STI1CPQBDR","38DCH97KHHO4I6P2AJ31XKZ17OGJQZ","","null","<img src=""img/land3.png"" style=""width:200px; border:14px solid green;"">","null","","","","","","","","","",""
"","image-keyboard-response","112","55004","0.0-112.0","3SBEHTYCWOPJIHUCAD4XNOJR0N3IYI","A2T0STI1CPQBDR","38DCH97KHHO4I6P2AJ31XKZ17OGJQZ","","7","img/land6.png","75","10","2","1","3","1","1,0.5,0.5,0.5,1,0.5,0.5,0.5,1","1,0.5,0.5,0.5,1,0.5,0.5,0.5,1","1","",""
"","html-keyboard-response","113","55306","0.0-113.0","3SBEHTYCWOPJIHUCAD4XNOJR0N3IYI","A2T0STI1CPQBDR","38DCH97KHHO4I6P2AJ31XKZ17OGJQZ","","null","<img src=""img/land6.png"" style=""width:200px; border:14px solid green;"">","null","","","","","","","","","",""
"","image-keyboard-response","114","55328","0.0-114.0","3SBEHTYCWOPJIHUCAD4XNOJR0N3IYI","A2T0STI1CPQBDR","38DCH97KHHO4I6P2AJ31XKZ17OGJQZ","","18","img/land3.png","74","20","1","1","1","1","1,0.5,0.5,0.5,1,0.5,0.5,0.5,1","1,0.5,0.5,0.5,1,0.5,0.5,0.5,1","1","",""
"","html-keyboard-response","115","55631","0.0-115.0","3SBEHTYCWOPJIHUCAD4XNOJR0N3IYI","A2T0STI1CPQBDR","38DCH97KHHO4I6P2AJ31XKZ17OGJQZ","","null","<img src=""img/land3.png"" style=""width:200px; border:14px solid green;"">","null","","","","","","","","","",""
"","image-keyboard-response","116","55644","0.0-116.0","3SBEHTYCWOPJIHUCAD4XNOJR0N3IYI","A2T0STI1CPQBDR","38DCH97KHHO4I6P2AJ31XKZ17OGJQZ","","10","img/land6.png","75","11","2","0","3","1","1,0.5,0.5,0.5,1,0.5,0.5,0.5,1","1,0.5,0.5,0.5,1,0.5,0.5,0.5,1","1","",""
"","html-keyboard-response","117","55947","0.0-117.0","3SBEHTYCWOPJIHUCAD4XNOJR0N3IYI","A2T0STI1CPQBDR","38DCH97KHHO4I6P2AJ31XKZ17OGJQZ","","null","<img src=""img/land6.png"" style=""width:200px;border:14px solid red;"">","null","","","","","","","","","",""
"","image-keyboard-response","118","55966","0.0-118.0","3SBEHTYCWOPJIHUCAD4XNOJR0N3IYI","A2T0STI1CPQBDR","38DCH97KHHO4I6P2AJ31XKZ17OGJQZ","","16","img/land6.png","74","18","1","1","3","1","1,0.5,0.5,0.5,1,0.5,0.5,0.5,1","1,0.5,0.5,0.5,1,0.5,0.5,0.5,1","1","",""
"","html-keyboard-response","119","56274","0.0-119.0","3SBEHTYCWOPJIHUCAD4XNOJR0N3IYI","A2T0STI1CPQBDR","38DCH97KHHO4I6P2AJ31XKZ17OGJQZ","","null","<img src=""img/land6.png"" style=""width:200px; border:14px solid green;"">","null","","","","","","","","","",""
"","image-keyboard-response","120","56287","0.0-120.0","3SBEHTYCWOPJIHUCAD4XNOJR0N3IYI","A2T0STI1CPQBDR","38DCH97KHHO4I6P2AJ31XKZ17OGJQZ","","12","img/land5.png","74","13","1","0","2","1","1,0.5,0.5,0.5,1,0.5,0.5,0.5,1","1,0.5,0.5,0.5,1,0.5,0.5,0.5,1","1","",""
"","html-keyboard-response","121","56588","0.0-121.0","3SBEHTYCWOPJIHUCAD4XNOJR0N3IYI","A2T0STI1CPQBDR","38DCH97KHHO4I6P2AJ31XKZ17OGJQZ","","null","<img src=""img/land5.png"" style=""width:200px;border:14px solid red;"">","null","","","","","","","","","",""
"","image-keyboard-response","122","56676","0.0-122.0","3SBEHTYCWOPJIHUCAD4XNOJR0N3IYI","A2T0STI1CPQBDR","38DCH97KHHO4I6P2AJ31XKZ17OGJQZ","","86","img/land6.png","76","87","3","1","3","1","1,0.5,0.5,0.5,1,0.5,0.5,0.5,1","1,0.5,0.5,0.5,1,0.5,0.5,0.5,1","1","",""
"","html-keyboard-response","123","56978","0.0-123.0","3SBEHTYCWOPJIHUCAD4XNOJR0N3IYI","A2T0STI1CPQBDR","38DCH97KHHO4I6P2AJ31XKZ17OGJQZ","","null","<img src=""img/land6.png"" style=""width:200px; border:14px solid green;"">","null","","","","","","","","","",""
"","image-keyboard-response","124","56996","0.0-124.0","3SBEHTYCWOPJIHUCAD4XNOJR0N3IYI","A2T0STI1CPQBDR","38DCH97KHHO4I6P2AJ31XKZ17OGJQZ","","17","img/land3.png","76","18","3","1","1","1","1,0.5,0.5,0.5,1,0.5,0.5,0.5,1","1,0.5,0.5,0.5,1,0.5,0.5,0.5,1","1","",""
"","html-keyboard-response","125","57299","0.0-125.0","3SBEHTYCWOPJIHUCAD4XNOJR0N3IYI","A2T0STI1CPQBDR","38DCH97KHHO4I6P2AJ31XKZ17OGJQZ","","null","<img src=""img/land3.png"" style=""width:200px; border:14px solid green;"">","null","","","","","","","","","",""
"","image-keyboard-response","126","57321","0.0-126.0","3SBEHTYCWOPJIHUCAD4XNOJR0N3IYI","A2T0STI1CPQBDR","38DCH97KHHO4I6P2AJ31XKZ17OGJQZ","","20","img/land6.png","76","23","3","1","3","1","1,0.5,0.5,0.5,1,0.5,0.5,0.5,1","1,0.5,0.5,0.5,1,0.5,0.5,0.5,1","1","",""
"","html-keyboard-response","127","57622","0.0-127.0","3SBEHTYCWOPJIHUCAD4XNOJR0N3IYI","A2T0STI1CPQBDR","38DCH97KHHO4I6P2AJ31XKZ17OGJQZ","","null","<img src=""img/land6.png"" style=""width:200px; border:14px solid green;"">","null","","","","","","","","","",""
"","image-keyboard-response","128","57835","0.0-128.0","3SBEHTYCWOPJIHUCAD4XNOJR0N3IYI","A2T0STI1CPQBDR","38DCH97KHHO4I6P2AJ31XKZ17OGJQZ","","209","img/land3.png","74","210","1","1","1","1","1,0.5,0.5,0.5,1,0.5,0.5,0.5,1","1,0.5,0.5,0.5,1,0.5,0.5,0.5,1","1","",""
"","html-keyboard-response","129","58138","0.0-129.0","3SBEHTYCWOPJIHUCAD4XNOJR0N3IYI","A2T0STI1CPQBDR","38DCH97KHHO4I6P2AJ31XKZ17OGJQZ","","null","<img src=""img/land3.png"" style=""width:200px; border:14px solid green;"">","null","","","","","","","","","",""
"","image-keyboard-response","130","58163","0.0-130.0","3SBEHTYCWOPJIHUCAD4XNOJR0N3IYI","A2T0STI1CPQBDR","38DCH97KHHO4I6P2AJ31XKZ17OGJQZ","","21","img/land3.png","75","24","2","0","1","1","1,0.5,0.5,0.5,1,0.5,0.5,0.5,1","1,0.5,0.5,0.5,1,0.5,0.5,0.5,1","1","",""
"","html-keyboard-response","131","58465","0.0-131.0","3SBEHTYCWOPJIHUCAD4XNOJR0N3IYI","A2T0STI1CPQBDR","38DCH97KHHO4I6P2AJ31XKZ17OGJQZ","","null","<img src=""img/land3.png"" style=""width:200px;border:14px solid red;"">","null","","","","","","","","","",""
"","image-keyboard-response","132","58546","0.0-132.0","3SBEHTYCWOPJIHUCAD4XNOJR0N3IYI","A2T0STI1CPQBDR","38DCH97KHHO4I6P2AJ31XKZ17OGJQZ","","78","img/land6.png","75","79","2","0","3","1","1,0.5,0.5,0.5,1,0.5,0.5,0.5,1","1,0.5,0.5,0.5,1,0.5,0.5,0.5,1","1","",""
"","html-keyboard-response","133","58848","0.0-133.0","3SBEHTYCWOPJIHUCAD4XNOJR0N3IYI","A2T0STI1CPQBDR","38DCH97KHHO4I6P2AJ31XKZ17OGJQZ","","null","<img src=""img/land6.png"" style=""width:200px;border:14px solid red;"">","null","","","","","","","","","",""
"","image-keyboard-response","134","58914","0.0-134.0","3SBEHTYCWOPJIHUCAD4XNOJR0N3IYI","A2T0STI1CPQBDR","38DCH97KHHO4I6P2AJ31XKZ17OGJQZ","","64","img/land5.png","76","65","3","1","2","1","1,0.5,0.5,0.5,1,0.5,0.5,0.5,1","1,0.5,0.5,0.5,1,0.5,0.5,0.5,1","1","",""
"","html-keyboard-response","135","59216","0.0-135.0","3SBEHTYCWOPJIHUCAD4XNOJR0N3IYI","A2T0STI1CPQBDR","38DCH97KHHO4I6P2AJ31XKZ17OGJQZ","","null","<img src=""img/land5.png"" style=""width:200px; border:14px solid green;"">","null","","","","","","","","","",""
"","image-keyboard-response","136","59421","0.0-136.0","3SBEHTYCWOPJIHUCAD4XNOJR0N3IYI","A2T0STI1CPQBDR","38DCH97KHHO4I6P2AJ31XKZ17OGJQZ","","201","img/land3.png","74","203","1","1","1","1","1,0.5,0.5,0.5,1,0.5,0.5,0.5,1","1,0.5,0.5,0.5,1,0.5,0.5,0.5,1","1","",""
"","html-keyboard-response","137","59725","0.0-137.0","3SBEHTYCWOPJIHUCAD4XNOJR0N3IYI","A2T0STI1CPQBDR","38DCH97KHHO4I6P2AJ31XKZ17OGJQZ","","null","<img src=""img/land3.png"" style=""width:200px; border:14px solid green;"">","null","","","","","","","","","",""
"","image-keyboard-response","138","59747","0.0-138.0","3SBEHTYCWOPJIHUCAD4XNOJR0N3IYI","A2T0STI1CPQBDR","38DCH97KHHO4I6P2AJ31XKZ17OGJQZ","","18","img/land5.png","74","20","1","1","2","1","1,0.5,0.5,0.5,1,0.5,0.5,0.5,1","1,0.5,0.5,0.5,1,0.5,0.5,0.5,1","1","",""
"","html-keyboard-response","139","60049","0.0-139.0","3SBEHTYCWOPJIHUCAD4XNOJR0N3IYI","A2T0STI1CPQBDR","38DCH97KHHO4I6P2AJ31XKZ17OGJQZ","","null","<img src=""img/land5.png"" style=""width:200px; border:14px solid green;"">","null","","","","","","","","","",""
"","image-keyboard-response","140","60079","0.0-140.0","3SBEHTYCWOPJIHUCAD4XNOJR0N3IYI","A2T0STI1CPQBDR","38DCH97KHHO4I6P2AJ31XKZ17OGJQZ","","27","img/land3.png","75","29","2","1","1","1","1,0.5,0.5,0.5,1,0.5,0.5,0.5,1","1,0.5,0.5,0.5,1,0.5,0.5,0.5,1","1","",""
"","html-keyboard-response","141","60382","0.0-141.0","3SBEHTYCWOPJIHUCAD4XNOJR0N3IYI","A2T0STI1CPQBDR","38DCH97KHHO4I6P2AJ31XKZ17OGJQZ","","null","<img src=""img/land3.png"" style=""width:200px; border:14px solid green;"">","null","","","","","","","","","",""
"","image-keyboard-response","142","60386","0.0-142.0","3SBEHTYCWOPJIHUCAD4XNOJR0N3IYI","A2T0STI1CPQBDR","38DCH97KHHO4I6P2AJ31XKZ17OGJQZ","","1","img/land3.png","75","3","2","1","1","1","1,0.5,0.5,0.5,1,0.5,0.5,0.5,1","1,0.5,0.5,0.5,1,0.5,0.5,0.5,1","1","",""
"","html-keyboard-response","143","60688","0.0-143.0","3SBEHTYCWOPJIHUCAD4XNOJR0N3IYI","A2T0STI1CPQBDR","38DCH97KHHO4I6P2AJ31XKZ17OGJQZ","","null","<img src=""img/land3.png"" style=""width:200px; border:14px solid green;"">","null","","","","","","","","","",""
"","image-keyboard-response","144","60783","0.0-144.0","3SBEHTYCWOPJIHUCAD4XNOJR0N3IYI","A2T0STI1CPQBDR","38DCH97KHHO4I6P2AJ31XKZ17OGJQZ","","94","img/land5.png","76","95","3","0","2","1","1,0.5,0.5,0.5,1,0.5,0.5,0.5,1","1,0.5,0.5,0.5,1,0.5,0.5,0.5,1","1","",""
"","html-keyboard-response","145","61084","0.0-145.0","3SBEHTYCWOPJIHUCAD4XNOJR0N3IYI","A2T0STI1CPQBDR","38DCH97KHHO4I6P2AJ31XKZ17OGJQZ","","null","<img src=""img/land5.png"" style=""width:200px;border:14px solid red;"">","null","","","","","","","","","",""
"","image-keyboard-response","146","61173","0.0-146.0","3SBEHTYCWOPJIHUCAD4XNOJR0N3IYI","A2T0STI1CPQBDR","38DCH97KHHO4I6P2AJ31XKZ17OGJQZ","","87","img/land6.png","76","89","3","1","3","1","1,0.5,0.5,0.5,1,0.5,0.5,0.5,1","1,0.5,0.5,0.5,1,0.5,0.5,0.5,1","1","",""
"","html-keyboard-response","147","61476","0.0-147.0","3SBEHTYCWOPJIHUCAD4XNOJR0N3IYI","A2T0STI1CPQBDR","38DCH97KHHO4I6P2AJ31XKZ17OGJQZ","","null","<img src=""img/land6.png"" style=""width:200px; border:14px solid green;"">","null","","","","","","","","","",""
"","image-keyboard-response","148","61654","0.0-148.0","3SBEHTYCWOPJIHUCAD4XNOJR0N3IYI","A2T0STI1CPQBDR","38DCH97KHHO4I6P2AJ31XKZ17OGJQZ","","175","img/land5.png","74","176","1","1","2","1","1,0.5,0.5,0.5,1,0.5,0.5,0.5,1","1,0.5,0.5,0.5,1,0.5,0.5,0.5,1","1","",""
"","html-keyboard-response","149","61956","0.0-149.0","3SBEHTYCWOPJIHUCAD4XNOJR0N3IYI","A2T0STI1CPQBDR","38DCH97KHHO4I6P2AJ31XKZ17OGJQZ","","null","<img src=""img/land5.png"" style=""width:200px; border:14px solid green;"">","null","","","","","","","","","",""
"","image-keyboard-response","150","61972","0.0-150.0","3SBEHTYCWOPJIHUCAD4XNOJR0N3IYI","A2T0STI1CPQBDR","38DCH97KHHO4I6P2AJ31XKZ17OGJQZ","","12","img/land3.png","74","15","1","1","1","1","1,0.5,0.5,0.5,1,0.5,0.5,0.5,1","1,0.5,0.5,0.5,1,0.5,0.5,0.5,1","1","",""
"","html-keyboard-response","151","62274","0.0-151.0","3SBEHTYCWOPJIHUCAD4XNOJR0N3IYI","A2T0STI1CPQBDR","38DCH97KHHO4I6P2AJ31XKZ17OGJQZ","","null","<img src=""img/land3.png"" style=""width:200px; border:14px solid green;"">","null","","","","","","","","","",""
"","image-keyboard-response","152","62346","0.0-152.0","3SBEHTYCWOPJIHUCAD4XNOJR0N3IYI","A2T0STI1CPQBDR","38DCH97KHHO4I6P2AJ31XKZ17OGJQZ","","67","img/land3.png","76","70","3","1","1","1","1,0.5,0.5,0.5,1,0.5,0.5,0.5,1","1,0.5,0.5,0.5,1,0.5,0.5,0.5,1","1","",""
"","html-keyboard-response","153","62647","0.0-153.0","3SBEHTYCWOPJIHUCAD4XNOJR0N3IYI","A2T0STI1CPQBDR","38DCH97KHHO4I6P2AJ31XKZ17OGJQZ","","null","<img src=""img/land3.png"" style=""width:200px; border:14px solid green;"">","null","","","","","","","","","",""
"","image-keyboard-response","154","62653","0.0-154.0","3SBEHTYCWOPJIHUCAD4XNOJR0N3IYI","A2T0STI1CPQBDR","38DCH97KHHO4I6P2AJ31XKZ17OGJQZ","","2","img/land6.png","76","3","3","1","3","1","1,0.5,0.5,0.5,1,0.5,0.5,0.5,1","1,0.5,0.5,0.5,1,0.5,0.5,0.5,1","1","",""
"","html-keyboard-response","155","62956","0.0-155.0","3SBEHTYCWOPJIHUCAD4XNOJR0N3IYI","A2T0STI1CPQBDR","38DCH97KHHO4I6P2AJ31XKZ17OGJQZ","","null","<img src=""img/land6.png"" style=""width:200px; border:14px solid green;"">","null","","","","","","","","","",""
"","image-keyboard-response","156","62979","0.0-156.0","3SBEHTYCWOPJIHUCAD4XNOJR0N3IYI","A2T0STI1CPQBDR","38DCH97KHHO4I6P2AJ31XKZ17OGJQZ","","21","img/land5.png","76","22","3","0","2","1","1,0.5,0.5,0.5,1,0.5,0.5,0.5,1","1,0.5,0.5,0.5,1,0.5,0.5,0.5,1","1","",""
"","html-keyboard-response","157","63281","0.0-157.0","3SBEHTYCWOPJIHUCAD4XNOJR0N3IYI","A2T0STI1CPQBDR","38DCH97KHHO4I6P2AJ31XKZ17OGJQZ","","null","<img src=""img/land5.png"" style=""width:200px;border:14px solid red;"">","null","","","","","","","","","",""
"","image-keyboard-response","158","63767","0.0-158.0","3SBEHTYCWOPJIHUCAD4XNOJR0N3IYI","A2T0STI1CPQBDR","38DCH97KHHO4I6P2AJ31XKZ17OGJQZ","","482","img/land3.png","76","484","3","0","1","1","1,0.5,0.5,0.5,1,0.5,0.5,0.5,1","1,0.5,0.5,0.5,1,0.5,0.5,0.5,1","1","",""
"","html-keyboard-response","159","64069","0.0-159.0","3SBEHTYCWOPJIHUCAD4XNOJR0N3IYI","A2T0STI1CPQBDR","38DCH97KHHO4I6P2AJ31XKZ17OGJQZ","","null","<img src=""img/land3.png"" style=""width:200px;border:14px solid red;"">","null","","","","","","","","","",""
"","image-keyboard-response","160","64197","0.0-160.0","3SBEHTYCWOPJIHUCAD4XNOJR0N3IYI","A2T0STI1CPQBDR","38DCH97KHHO4I6P2AJ31XKZ17OGJQZ","","127","img/land5.png","76","127","3","0","2","1","1,0.5,0.5,0.5,1,0.5,0.5,0.5,1","1,0.5,0.5,0.5,1,0.5,0.5,0.5,1","1","",""
"","html-keyboard-response","161","64498","0.0-161.0","3SBEHTYCWOPJIHUCAD4XNOJR0N3IYI","A2T0STI1CPQBDR","38DCH97KHHO4I6P2AJ31XKZ17OGJQZ","","null","<img src=""img/land5.png"" style=""width:200px;border:14px solid red;"">","null","","","","","","","","","",""
"","image-keyboard-response","162","64965","0.0-162.0","3SBEHTYCWOPJIHUCAD4XNOJR0N3IYI","A2T0STI1CPQBDR","38DCH97KHHO4I6P2AJ31XKZ17OGJQZ","","466","img/land6.png","74","466","1","0","3","1","1,0.5,0.5,0.5,1,0.5,0.5,0.5,1","1,0.5,0.5,0.5,1,0.5,0.5,0.5,1","1","",""
"","html-keyboard-response","163","65266","0.0-163.0","3SBEHTYCWOPJIHUCAD4XNOJR0N3IYI","A2T0STI1CPQBDR","38DCH97KHHO4I6P2AJ31XKZ17OGJQZ","","null","<img src=""img/land6.png"" style=""width:200px;border:14px solid red;"">","null","","","","","","","","","",""
"","image-keyboard-response","164","65438","0.0-164.0","3SBEHTYCWOPJIHUCAD4XNOJR0N3IYI","A2T0STI1CPQBDR","38DCH97KHHO4I6P2AJ31XKZ17OGJQZ","","169","img/land3.png","74","171","1","1","1","1","1,0.5,0.5,0.5,1,0.5,0.5,0.5,1","1,0.5,0.5,0.5,1,0.5,0.5,0.5,1","1","",""
"","html-keyboard-response","165","65746","0.0-165.0","3SBEHTYCWOPJIHUCAD4XNOJR0N3IYI","A2T0STI1CPQBDR","38DCH97KHHO4I6P2AJ31XKZ17OGJQZ","","null","<img src=""img/land3.png"" style=""width:200px; border:14px solid green;"">","null","","","","","","","","","",""
"","image-keyboard-response","166","65852","0.0-166.0","3SBEHTYCWOPJIHUCAD4XNOJR0N3IYI","A2T0STI1CPQBDR","38DCH97KHHO4I6P2AJ31XKZ17OGJQZ","","104","img/land3.png","76","105","3","1","1","1","1,0.5,0.5,0.5,1,0.5,0.5,0.5,1","1,0.5,0.5,0.5,1,0.5,0.5,0.5,1","1","",""
"","html-keyboard-response","167","66154","0.0-167.0","3SBEHTYCWOPJIHUCAD4XNOJR0N3IYI","A2T0STI1CPQBDR","38DCH97KHHO4I6P2AJ31XKZ17OGJQZ","","null","<img src=""img/land3.png"" style=""width:200px; border:14px solid green;"">","null","","","","","","","","","",""
"","image-keyboard-response","168","66277","0.0-168.0","3SBEHTYCWOPJIHUCAD4XNOJR0N3IYI","A2T0STI1CPQBDR","38DCH97KHHO4I6P2AJ31XKZ17OGJQZ","","120","img/land6.png","74","122","1","1","3","1","1,0.5,0.5,0.5,1,0.5,0.5,0.5,1","1,0.5,0.5,0.5,1,0.5,0.5,0.5,1","1","",""
"","html-keyboard-response","169","66580","0.0-169.0","3SBEHTYCWOPJIHUCAD4XNOJR0N3IYI","A2T0STI1CPQBDR","38DCH97KHHO4I6P2AJ31XKZ17OGJQZ","","null","<img src=""img/land6.png"" style=""width:200px; border:14px solid green;"">","null","","","","","","","","","",""
"","image-keyboard-response","170","66687","0.0-170.0","3SBEHTYCWOPJIHUCAD4XNOJR0N3IYI","A2T0STI1CPQBDR","38DCH97KHHO4I6P2AJ31XKZ17OGJQZ","","103","img/land5.png","76","105","3","0","2","1","1,0.5,0.5,0.5,1,0.5,0.5,0.5,1","1,0.5,0.5,0.5,1,0.5,0.5,0.5,1","1","",""
"","html-keyboard-response","171","66990","0.0-171.0","3SBEHTYCWOPJIHUCAD4XNOJR0N3IYI","A2T0STI1CPQBDR","38DCH97KHHO4I6P2AJ31XKZ17OGJQZ","","null","<img src=""img/land5.png"" style=""width:200px;border:14px solid red;"">","null","","","","","","","","","",""
"","image-keyboard-response","172","67019","0.0-172.0","3SBEHTYCWOPJIHUCAD4XNOJR0N3IYI","A2T0STI1CPQBDR","38DCH97KHHO4I6P2AJ31XKZ17OGJQZ","","26","img/land6.png","76","27","3","1","3","1","1,0.5,0.5,0.5,1,0.5,0.5,0.5,1","1,0.5,0.5,0.5,1,0.5,0.5,0.5,1","1","",""
"","html-keyboard-response","173","67322","0.0-173.0","3SBEHTYCWOPJIHUCAD4XNOJR0N3IYI","A2T0STI1CPQBDR","38DCH97KHHO4I6P2AJ31XKZ17OGJQZ","","null","<img src=""img/land6.png"" style=""width:200px; border:14px solid green;"">","null","","","","","","","","","",""
"","image-keyboard-response","174","67493","0.0-174.0","3SBEHTYCWOPJIHUCAD4XNOJR0N3IYI","A2T0STI1CPQBDR","38DCH97KHHO4I6P2AJ31XKZ17OGJQZ","","167","img/land5.png","74","169","1","0","2","1","1,0.5,0.5,0.5,1,0.5,0.5,0.5,1","1,0.5,0.5,0.5,1,0.5,0.5,0.5,1","1","",""
"","html-keyboard-response","175","67795","0.0-175.0","3SBEHTYCWOPJIHUCAD4XNOJR0N3IYI","A2T0STI1CPQBDR","38DCH97KHHO4I6P2AJ31XKZ17OGJQZ","","null","<img src=""img/land5.png"" style=""width:200px;border:14px solid red;"">","null","","","","","","","","","",""
"","image-keyboard-response","176","67886","0.0-176.0","3SBEHTYCWOPJIHUCAD4XNOJR0N3IYI","A2T0STI1CPQBDR","38DCH97KHHO4I6P2AJ31XKZ17OGJQZ","","88","img/land6.png","74","90","1","1","3","1","1,0.5,0.5,0.5,1,0.5,0.5,0.5,1","1,0.5,0.5,0.5,1,0.5,0.5,0.5,1","1","",""
"","html-keyboard-response","177","68189","0.0-177.0","3SBEHTYCWOPJIHUCAD4XNOJR0N3IYI","A2T0STI1CPQBDR","38DCH97KHHO4I6P2AJ31XKZ17OGJQZ","","null","<img src=""img/land6.png"" style=""width:200px; border:14px solid green;"">","null","","","","","","","","","",""
"","image-keyboard-response","178","68320","0.0-178.0","3SBEHTYCWOPJIHUCAD4XNOJR0N3IYI","A2T0STI1CPQBDR","38DCH97KHHO4I6P2AJ31XKZ17OGJQZ","","126","img/land5.png","76","129","3","1","2","1","1,0.5,0.5,0.5,1,0.5,0.5,0.5,1","1,0.5,0.5,0.5,1,0.5,0.5,0.5,1","1","",""
"","html-keyboard-response","179","68622","0.0-179.0","3SBEHTYCWOPJIHUCAD4XNOJR0N3IYI","A2T0STI1CPQBDR","38DCH97KHHO4I6P2AJ31XKZ17OGJQZ","","null","<img src=""img/land5.png"" style=""width:200px; border:14px solid green;"">","null","","","","","","","","","",""
"","image-keyboard-response","180","68712","0.0-180.0","3SBEHTYCWOPJIHUCAD4XNOJR0N3IYI","A2T0STI1CPQBDR","38DCH97KHHO4I6P2AJ31XKZ17OGJQZ","","83","img/land5.png","74","85","1","0","2","1","1,0.5,0.5,0.5,1,0.5,0.5,0.5,1","1,0.5,0.5,0.5,1,0.5,0.5,0.5,1","1","",""
"","html-keyboard-response","181","69017","0.0-181.0","3SBEHTYCWOPJIHUCAD4XNOJR0N3IYI","A2T0STI1CPQBDR","38DCH97KHHO4I6P2AJ31XKZ17OGJQZ","","null","<img src=""img/land5.png"" style=""width:200px;border:14px solid red;"">","null","","","","","","","","","",""
"","html-keyboard-response","182","414265","0.0-182.0","3SBEHTYCWOPJIHUCAD4XNOJR0N3IYI","A2T0STI1CPQBDR","38DCH97KHHO4I6P2AJ31XKZ17OGJQZ","","","","","","","","","","","","","",""
"","image-keyboard-response","183","416274","0.0-183.0","3SBEHTYCWOPJIHUCAD4XNOJR0N3IYI","A2T0STI1CPQBDR","38DCH97KHHO4I6P2AJ31XKZ17OGJQZ","","","img/land2.png","","2008","-1","0","1","2","1,0.5,0.5,0.5,1,0.5,0.5,0.5,1","0.5,1,0.5,0.5,0.5,1,1,0.5,0.5","3","",""
"","html-keyboard-response","184","416582","0.0-184.0","3SBEHTYCWOPJIHUCAD4XNOJR0N3IYI","A2T0STI1CPQBDR","38DCH97KHHO4I6P2AJ31XKZ17OGJQZ","","null","<img src=""img/land2.png"" style=""width:200px;border:14px solid red;"">","null","","","","","","","","","",""
"","image-keyboard-response","185","416699","0.0-185.0","3SBEHTYCWOPJIHUCAD4XNOJR0N3IYI","A2T0STI1CPQBDR","38DCH97KHHO4I6P2AJ31XKZ17OGJQZ","","116","img/land1.png","74","117","1","1","3","2","1,0.5,0.5,0.5,1,0.5,0.5,0.5,1","0.5,1,0.5,0.5,0.5,1,1,0.5,0.5","3","",""
"","html-keyboard-response","186","417003","0.0-186.0","3SBEHTYCWOPJIHUCAD4XNOJR0N3IYI","A2T0STI1CPQBDR","38DCH97KHHO4I6P2AJ31XKZ17OGJQZ","","null","<img src=""img/land1.png"" style=""width:200px; border:14px solid green;"">","null","","","","","","","","","",""
"","image-keyboard-response","187","417207","0.0-187.0","3SBEHTYCWOPJIHUCAD4XNOJR0N3IYI","A2T0STI1CPQBDR","38DCH97KHHO4I6P2AJ31XKZ17OGJQZ","","201","img/land2.png","74","204","1","1","1","2","1,0.5,0.5,0.5,1,0.5,0.5,0.5,1","0.5,1,0.5,0.5,0.5,1,1,0.5,0.5","3","",""
"","html-keyboard-response","188","417510","0.0-188.0","3SBEHTYCWOPJIHUCAD4XNOJR0N3IYI","A2T0STI1CPQBDR","38DCH97KHHO4I6P2AJ31XKZ17OGJQZ","","null","<img src=""img/land2.png"" style=""width:200px; border:14px solid green;"">","null","","","","","","","","","",""
"","image-keyboard-response","189","417526","0.0-189.0","3SBEHTYCWOPJIHUCAD4XNOJR0N3IYI","A2T0STI1CPQBDR","38DCH97KHHO4I6P2AJ31XKZ17OGJQZ","","13","img/land1.png","74","15","1","1","3","2","1,0.5,0.5,0.5,1,0.5,0.5,0.5,1","0.5,1,0.5,0.5,0.5,1,1,0.5,0.5","3","",""
"","html-keyboard-response","190","417830","0.0-190.0","3SBEHTYCWOPJIHUCAD4XNOJR0N3IYI","A2T0STI1CPQBDR","38DCH97KHHO4I6P2AJ31XKZ17OGJQZ","","null","<img src=""img/land1.png"" style=""width:200px; border:14px solid green;"">","null","","","","","","","","","",""
"","image-keyboard-response","191","417844","0.0-191.0","3SBEHTYCWOPJIHUCAD4XNOJR0N3IYI","A2T0STI1CPQBDR","38DCH97KHHO4I6P2AJ31XKZ17OGJQZ","","10","img/land1.png","76","13","3","0","3","2","1,0.5,0.5,0.5,1,0.5,0.5,0.5,1","0.5,1,0.5,0.5,0.5,1,1,0.5,0.5","3","",""
"","html-keyboard-response","192","418147","0.0-192.0","3SBEHTYCWOPJIHUCAD4XNOJR0N3IYI","A2T0STI1CPQBDR","38DCH97KHHO4I6P2AJ31XKZ17OGJQZ","","null","<img src=""img/land1.png"" style=""width:200px;border:14px solid red;"">","null","","","","","","","","","",""
"","image-keyboard-response","193","418404","0.0-193.0","3SBEHTYCWOPJIHUCAD4XNOJR0N3IYI","A2T0STI1CPQBDR","38DCH97KHHO4I6P2AJ31XKZ17OGJQZ","","254","img/land1.png","74","256","1","1","3","2","1,0.5,0.5,0.5,1,0.5,0.5,0.5,1","0.5,1,0.5,0.5,0.5,1,1,0.5,0.5","3","",""
"","html-keyboard-response","194","418706","0.0-194.0","3SBEHTYCWOPJIHUCAD4XNOJR0N3IYI","A2T0STI1CPQBDR","38DCH97KHHO4I6P2AJ31XKZ17OGJQZ","","null","<img src=""img/land1.png"" style=""width:200px; border:14px solid green;"">","null","","","","","","","","","",""
"","image-keyboard-response","195","418859","0.0-195.0","3SBEHTYCWOPJIHUCAD4XNOJR0N3IYI","A2T0STI1CPQBDR","38DCH97KHHO4I6P2AJ31XKZ17OGJQZ","","151","img/land2.png","74","152","1","0","1","2","1,0.5,0.5,0.5,1,0.5,0.5,0.5,1","0.5,1,0.5,0.5,0.5,1,1,0.5,0.5","3","",""
"","html-keyboard-response","196","419161","0.0-196.0","3SBEHTYCWOPJIHUCAD4XNOJR0N3IYI","A2T0STI1CPQBDR","38DCH97KHHO4I6P2AJ31XKZ17OGJQZ","","null","<img src=""img/land2.png"" style=""width:200px;border:14px solid red;"">","null","","","","","","","","","",""
"","image-keyboard-response","197","419201","0.0-197.0","3SBEHTYCWOPJIHUCAD4XNOJR0N3IYI","A2T0STI1CPQBDR","38DCH97KHHO4I6P2AJ31XKZ17OGJQZ","","37","img/land1.png","76","39","3","1","3","2","1,0.5,0.5,0.5,1,0.5,0.5,0.5,1","0.5,1,0.5,0.5,0.5,1,1,0.5,0.5","3","",""
"","html-keyboard-response","198","419504","0.0-198.0","3SBEHTYCWOPJIHUCAD4XNOJR0N3IYI","A2T0STI1CPQBDR","38DCH97KHHO4I6P2AJ31XKZ17OGJQZ","","null","<img src=""img/land1.png"" style=""width:200px; border:14px solid green;"">","null","","","","","","","","","",""
"","image-keyboard-response","199","419645","0.0-199.0","3SBEHTYCWOPJIHUCAD4XNOJR0N3IYI","A2T0STI1CPQBDR","38DCH97KHHO4I6P2AJ31XKZ17OGJQZ","","138","img/land2.png","74","139","1","0","1","2","1,0.5,0.5,0.5,1,0.5,0.5,0.5,1","0.5,1,0.5,0.5,0.5,1,1,0.5,0.5","3","",""
"","html-keyboard-response","200","419948","0.0-200.0","3SBEHTYCWOPJIHUCAD4XNOJR0N3IYI","A2T0STI1CPQBDR","38DCH97KHHO4I6P2AJ31XKZ17OGJQZ","","null","<img src=""img/land2.png"" style=""width:200px;border:14px solid red;"">","null","","","","","","","","","",""
"","image-keyboard-response","201","420030","0.0-201.0","3SBEHTYCWOPJIHUCAD4XNOJR0N3IYI","A2T0STI1CPQBDR","38DCH97KHHO4I6P2AJ31XKZ17OGJQZ","","80","img/land4.png","76","81","3","1","2","2","1,0.5,0.5,0.5,1,0.5,0.5,0.5,1","0.5,1,0.5,0.5,0.5,1,1,0.5,0.5","3","",""
"","html-keyboard-response","202","420333","0.0-202.0","3SBEHTYCWOPJIHUCAD4XNOJR0N3IYI","A2T0STI1CPQBDR","38DCH97KHHO4I6P2AJ31XKZ17OGJQZ","","null","<img src=""img/land4.png"" style=""width:200px; border:14px solid green;"">","null","","","","","","","","","",""
"","image-keyboard-response","203","420572","0.0-203.0","3SBEHTYCWOPJIHUCAD4XNOJR0N3IYI","A2T0STI1CPQBDR","38DCH97KHHO4I6P2AJ31XKZ17OGJQZ","","238","img/land2.png","74","239","1","0","1","2","1,0.5,0.5,0.5,1,0.5,0.5,0.5,1","0.5,1,0.5,0.5,0.5,1,1,0.5,0.5","3","",""
"","html-keyboard-response","204","420875","0.0-204.0","3SBEHTYCWOPJIHUCAD4XNOJR0N3IYI","A2T0STI1CPQBDR","38DCH97KHHO4I6P2AJ31XKZ17OGJQZ","","null","<img src=""img/land2.png"" style=""width:200px;border:14px solid red;"">","null","","","","","","","","","",""
"","image-keyboard-response","205","421115","0.0-205.0","3SBEHTYCWOPJIHUCAD4XNOJR0N3IYI","A2T0STI1CPQBDR","38DCH97KHHO4I6P2AJ31XKZ17OGJQZ","","238","img/land4.png","74","239","1","1","2","2","1,0.5,0.5,0.5,1,0.5,0.5,0.5,1","0.5,1,0.5,0.5,0.5,1,1,0.5,0.5","3","",""
"","html-keyboard-response","206","421418","0.0-206.0","3SBEHTYCWOPJIHUCAD4XNOJR0N3IYI","A2T0STI1CPQBDR","38DCH97KHHO4I6P2AJ31XKZ17OGJQZ","","null","<img src=""img/land4.png"" style=""width:200px; border:14px solid green;"">","null","","","","","","","","","",""
"","image-keyboard-response","207","421551","0.0-207.0","3SBEHTYCWOPJIHUCAD4XNOJR0N3IYI","A2T0STI1CPQBDR","38DCH97KHHO4I6P2AJ31XKZ17OGJQZ","","129","img/land4.png","74","131","1","1","2","2","1,0.5,0.5,0.5,1,0.5,0.5,0.5,1","0.5,1,0.5,0.5,0.5,1,1,0.5,0.5","3","",""
"","html-keyboard-response","208","421853","0.0-208.0","3SBEHTYCWOPJIHUCAD4XNOJR0N3IYI","A2T0STI1CPQBDR","38DCH97KHHO4I6P2AJ31XKZ17OGJQZ","","null","<img src=""img/land4.png"" style=""width:200px; border:14px solid green;"">","null","","","","","","","","","",""
"","image-keyboard-response","209","421982","0.0-209.0","3SBEHTYCWOPJIHUCAD4XNOJR0N3IYI","A2T0STI1CPQBDR","38DCH97KHHO4I6P2AJ31XKZ17OGJQZ","","126","img/land2.png","76","127","3","0","1","2","1,0.5,0.5,0.5,1,0.5,0.5,0.5,1","0.5,1,0.5,0.5,0.5,1,1,0.5,0.5","3","",""
"","html-keyboard-response","210","422337","0.0-210.0","3SBEHTYCWOPJIHUCAD4XNOJR0N3IYI","A2T0STI1CPQBDR","38DCH97KHHO4I6P2AJ31XKZ17OGJQZ","","null","<img src=""img/land2.png"" style=""width:200px;border:14px solid red;"">","null","","","","","","","","","",""
"","image-keyboard-response","211","422341","0.0-211.0","3SBEHTYCWOPJIHUCAD4XNOJR0N3IYI","A2T0STI1CPQBDR","38DCH97KHHO4I6P2AJ31XKZ17OGJQZ","","3","img/land2.png","76","4","3","0","1","2","1,0.5,0.5,0.5,1,0.5,0.5,0.5,1","0.5,1,0.5,0.5,0.5,1,1,0.5,0.5","3","",""
"","html-keyboard-response","212","422644","0.0-212.0","3SBEHTYCWOPJIHUCAD4XNOJR0N3IYI","A2T0STI1CPQBDR","38DCH97KHHO4I6P2AJ31XKZ17OGJQZ","","null","<img src=""img/land2.png"" style=""width:200px;border:14px solid red;"">","null","","","","","","","","","",""
"","image-keyboard-response","213","422748","0.0-213.0","3SBEHTYCWOPJIHUCAD4XNOJR0N3IYI","A2T0STI1CPQBDR","38DCH97KHHO4I6P2AJ31XKZ17OGJQZ","","98","img/land2.png","74","100","1","0","1","2","1,0.5,0.5,0.5,1,0.5,0.5,0.5,1","0.5,1,0.5,0.5,0.5,1,1,0.5,0.5","3","",""
"","html-keyboard-response","214","423051","0.0-214.0","3SBEHTYCWOPJIHUCAD4XNOJR0N3IYI","A2T0STI1CPQBDR","38DCH97KHHO4I6P2AJ31XKZ17OGJQZ","","null","<img src=""img/land2.png"" style=""width:200px;border:14px solid red;"">","null","","","","","","","","","",""
"","image-keyboard-response","215","423056","0.0-215.0","3SBEHTYCWOPJIHUCAD4XNOJR0N3IYI","A2T0STI1CPQBDR","38DCH97KHHO4I6P2AJ31XKZ17OGJQZ","","3","img/land2.png","74","4","1","0","1","2","1,0.5,0.5,0.5,1,0.5,0.5,0.5,1","0.5,1,0.5,0.5,0.5,1,1,0.5,0.5","3","",""
"","html-keyboard-response","216","423358","0.0-216.0","3SBEHTYCWOPJIHUCAD4XNOJR0N3IYI","A2T0STI1CPQBDR","38DCH97KHHO4I6P2AJ31XKZ17OGJQZ","","null","<img src=""img/land2.png"" style=""width:200px;border:14px solid red;"">","null","","","","","","","","","",""
"","image-keyboard-response","217","423391","0.0-217.0","3SBEHTYCWOPJIHUCAD4XNOJR0N3IYI","A2T0STI1CPQBDR","38DCH97KHHO4I6P2AJ31XKZ17OGJQZ","","30","img/land2.png","74","32","1","0","1","2","1,0.5,0.5,0.5,1,0.5,0.5,0.5,1","0.5,1,0.5,0.5,0.5,1,1,0.5,0.5","3","",""
"","html-keyboard-response","218","423694","0.0-218.0","3SBEHTYCWOPJIHUCAD4XNOJR0N3IYI","A2T0STI1CPQBDR","38DCH97KHHO4I6P2AJ31XKZ17OGJQZ","","null","<img src=""img/land2.png"" style=""width:200px;border:14px solid red;"">","null","","","","","","","","","",""
"","image-keyboard-response","219","423822","0.0-219.0","3SBEHTYCWOPJIHUCAD4XNOJR0N3IYI","A2T0STI1CPQBDR","38DCH97KHHO4I6P2AJ31XKZ17OGJQZ","","127","img/land1.png","76","127","3","1","3","2","1,0.5,0.5,0.5,1,0.5,0.5,0.5,1","0.5,1,0.5,0.5,0.5,1,1,0.5,0.5","3","",""
"","html-keyboard-response","220","424126","0.0-220.0","3SBEHTYCWOPJIHUCAD4XNOJR0N3IYI","A2T0STI1CPQBDR","38DCH97KHHO4I6P2AJ31XKZ17OGJQZ","","null","<img src=""img/land1.png"" style=""width:200px; border:14px solid green;"">","null","","","","","","","","","",""
"","image-keyboard-response","221","424272","0.0-221.0","3SBEHTYCWOPJIHUCAD4XNOJR0N3IYI","A2T0STI1CPQBDR","38DCH97KHHO4I6P2AJ31XKZ17OGJQZ","","141","img/land2.png","74","144","1","1","1","2","1,0.5,0.5,0.5,1,0.5,0.5,0.5,1","0.5,1,0.5,0.5,0.5,1,1,0.5,0.5","3","",""
"","html-keyboard-response","222","424590","0.0-222.0","3SBEHTYCWOPJIHUCAD4XNOJR0N3IYI","A2T0STI1CPQBDR","38DCH97KHHO4I6P2AJ31XKZ17OGJQZ","","null","<img src=""img/land2.png"" style=""width:200px; border:14px solid green;"">","null","","","","","","","","","",""
"","image-keyboard-response","223","424603","0.0-223.0","3SBEHTYCWOPJIHUCAD4XNOJR0N3IYI","A2T0STI1CPQBDR","38DCH97KHHO4I6P2AJ31XKZ17OGJQZ","","10","img/land2.png","74","12","1","0","1","2","1,0.5,0.5,0.5,1,0.5,0.5,0.5,1","0.5,1,0.5,0.5,0.5,1,1,0.5,0.5","3","",""
"","html-keyboard-response","224","424903","0.0-224.0","3SBEHTYCWOPJIHUCAD4XNOJR0N3IYI","A2T0STI1CPQBDR","38DCH97KHHO4I6P2AJ31XKZ17OGJQZ","","null","<img src=""img/land2.png"" style=""width:200px;border:14px solid red;"">","null","","","","","","","","","",""
"","image-keyboard-response","225","425015","0.0-225.0","3SBEHTYCWOPJIHUCAD4XNOJR0N3IYI","A2T0STI1CPQBDR","38DCH97KHHO4I6P2AJ31XKZ17OGJQZ","","109","img/land2.png","76","111","3","1","1","2","1,0.5,0.5,0.5,1,0.5,0.5,0.5,1","0.5,1,0.5,0.5,0.5,1,1,0.5,0.5","3","",""
"","html-keyboard-response","226","425317","0.0-226.0","3SBEHTYCWOPJIHUCAD4XNOJR0N3IYI","A2T0STI1CPQBDR","38DCH97KHHO4I6P2AJ31XKZ17OGJQZ","","null","<img src=""img/land2.png"" style=""width:200px; border:14px solid green;"">","null","","","","","","","","","",""
"","image-keyboard-response","227","425449","0.0-227.0","3SBEHTYCWOPJIHUCAD4XNOJR0N3IYI","A2T0STI1CPQBDR","38DCH97KHHO4I6P2AJ31XKZ17OGJQZ","","129","img/land4.png","74","131","1","0","2","2","1,0.5,0.5,0.5,1,0.5,0.5,0.5,1","0.5,1,0.5,0.5,0.5,1,1,0.5,0.5","3","",""
"","html-keyboard-response","228","425751","0.0-228.0","3SBEHTYCWOPJIHUCAD4XNOJR0N3IYI","A2T0STI1CPQBDR","38DCH97KHHO4I6P2AJ31XKZ17OGJQZ","","null","<img src=""img/land4.png"" style=""width:200px;border:14px solid red;"">","null","","","","","","","","","",""
"","image-keyboard-response","229","425756","0.0-229.0","3SBEHTYCWOPJIHUCAD4XNOJR0N3IYI","A2T0STI1CPQBDR","38DCH97KHHO4I6P2AJ31XKZ17OGJQZ","","3","img/land2.png","75","4","2","1","1","2","1,0.5,0.5,0.5,1,0.5,0.5,0.5,1","0.5,1,0.5,0.5,0.5,1,1,0.5,0.5","3","",""
"","html-keyboard-response","230","426057","0.0-230.0","3SBEHTYCWOPJIHUCAD4XNOJR0N3IYI","A2T0STI1CPQBDR","38DCH97KHHO4I6P2AJ31XKZ17OGJQZ","","null","<img src=""img/land2.png"" style=""width:200px; border:14px solid green;"">","null","","","","","","","","","",""
"","image-keyboard-response","231","426086","0.0-231.0","3SBEHTYCWOPJIHUCAD4XNOJR0N3IYI","A2T0STI1CPQBDR","38DCH97KHHO4I6P2AJ31XKZ17OGJQZ","","26","img/land1.png","74","27","1","1","3","2","1,0.5,0.5,0.5,1,0.5,0.5,0.5,1","0.5,1,0.5,0.5,0.5,1,1,0.5,0.5","3","",""
"","html-keyboard-response","232","426388","0.0-232.0","3SBEHTYCWOPJIHUCAD4XNOJR0N3IYI","A2T0STI1CPQBDR","38DCH97KHHO4I6P2AJ31XKZ17OGJQZ","","null","<img src=""img/land1.png"" style=""width:200px; border:14px solid green;"">","null","","","","","","","","","",""
"","image-keyboard-response","233","426470","0.0-233.0","3SBEHTYCWOPJIHUCAD4XNOJR0N3IYI","A2T0STI1CPQBDR","38DCH97KHHO4I6P2AJ31XKZ17OGJQZ","","79","img/land2.png","74","80","1","1","1","2","1,0.5,0.5,0.5,1,0.5,0.5,0.5,1","0.5,1,0.5,0.5,0.5,1,1,0.5,0.5","3","",""
"","html-keyboard-response","234","426775","0.0-234.0","3SBEHTYCWOPJIHUCAD4XNOJR0N3IYI","A2T0STI1CPQBDR","38DCH97KHHO4I6P2AJ31XKZ17OGJQZ","","null","<img src=""img/land2.png"" style=""width:200px; border:14px solid green;"">","null","","","","","","","","","",""
"","image-keyboard-response","235","426815","0.0-235.0","3SBEHTYCWOPJIHUCAD4XNOJR0N3IYI","A2T0STI1CPQBDR","38DCH97KHHO4I6P2AJ31XKZ17OGJQZ","","38","img/land4.png","76","40","3","1","2","2","1,0.5,0.5,0.5,1,0.5,0.5,0.5,1","0.5,1,0.5,0.5,0.5,1,1,0.5,0.5","3","",""
"","html-keyboard-response","236","427119","0.0-236.0","3SBEHTYCWOPJIHUCAD4XNOJR0N3IYI","A2T0STI1CPQBDR","38DCH97KHHO4I6P2AJ31XKZ17OGJQZ","","null","<img src=""img/land4.png"" style=""width:200px; border:14px solid green;"">","null","","","","","","","","","",""
"","image-keyboard-response","237","427181","0.0-237.0","3SBEHTYCWOPJIHUCAD4XNOJR0N3IYI","A2T0STI1CPQBDR","38DCH97KHHO4I6P2AJ31XKZ17OGJQZ","","59","img/land2.png","74","61","1","1","1","2","1,0.5,0.5,0.5,1,0.5,0.5,0.5,1","0.5,1,0.5,0.5,0.5,1,1,0.5,0.5","3","",""
"","html-keyboard-response","238","427482","0.0-238.0","3SBEHTYCWOPJIHUCAD4XNOJR0N3IYI","A2T0STI1CPQBDR","38DCH97KHHO4I6P2AJ31XKZ17OGJQZ","","null","<img src=""img/land2.png"" style=""width:200px; border:14px solid green;"">","null","","","","","","","","","",""
"","image-keyboard-response","239","427526","0.0-239.0","3SBEHTYCWOPJIHUCAD4XNOJR0N3IYI","A2T0STI1CPQBDR","38DCH97KHHO4I6P2AJ31XKZ17OGJQZ","","43","img/land1.png","76","44","3","0","3","2","1,0.5,0.5,0.5,1,0.5,0.5,0.5,1","0.5,1,0.5,0.5,0.5,1,1,0.5,0.5","3","",""
"","html-keyboard-response","240","427832","0.0-240.0","3SBEHTYCWOPJIHUCAD4XNOJR0N3IYI","A2T0STI1CPQBDR","38DCH97KHHO4I6P2AJ31XKZ17OGJQZ","","null","<img src=""img/land1.png"" style=""width:200px;border:14px solid red;"">","null","","","","","","","","","",""
"","image-keyboard-response","241","427916","0.0-241.0","3SBEHTYCWOPJIHUCAD4XNOJR0N3IYI","A2T0STI1CPQBDR","38DCH97KHHO4I6P2AJ31XKZ17OGJQZ","","84","img/land4.png","74","84","1","0","2","2","1,0.5,0.5,0.5,1,0.5,0.5,0.5,1","0.5,1,0.5,0.5,0.5,1,1,0.5,0.5","3","",""
"","html-keyboard-response","242","428219","0.0-242.0","3SBEHTYCWOPJIHUCAD4XNOJR0N3IYI","A2T0STI1CPQBDR","38DCH97KHHO4I6P2AJ31XKZ17OGJQZ","","null","<img src=""img/land4.png"" style=""width:200px;border:14px solid red;"">","null","","","","","","","","","",""
"","image-keyboard-response","243","428270","0.0-243.0","3SBEHTYCWOPJIHUCAD4XNOJR0N3IYI","A2T0STI1CPQBDR","38DCH97KHHO4I6P2AJ31XKZ17OGJQZ","","44","img/land2.png","76","49","3","0","1","2","1,0.5,0.5,0.5,1,0.5,0.5,0.5,1","0.5,1,0.5,0.5,0.5,1,1,0.5,0.5","3","",""
"","html-keyboard-response","244","428574","0.0-244.0","3SBEHTYCWOPJIHUCAD4XNOJR0N3IYI","A2T0STI1CPQBDR","38DCH97KHHO4I6P2AJ31XKZ17OGJQZ","","null","<img src=""img/land2.png"" style=""width:200px;border:14px solid red;"">","null","","","","","","","","","",""
"","image-keyboard-response","245","428653","0.0-245.0","3SBEHTYCWOPJIHUCAD4XNOJR0N3IYI","A2T0STI1CPQBDR","38DCH97KHHO4I6P2AJ31XKZ17OGJQZ","","75","img/land2.png","74","78","1","1","1","2","1,0.5,0.5,0.5,1,0.5,0.5,0.5,1","0.5,1,0.5,0.5,0.5,1,1,0.5,0.5","3","",""
"","html-keyboard-response","246","428957","0.0-246.0","3SBEHTYCWOPJIHUCAD4XNOJR0N3IYI","A2T0STI1CPQBDR","38DCH97KHHO4I6P2AJ31XKZ17OGJQZ","","null","<img src=""img/land2.png"" style=""width:200px; border:14px solid green;"">","null","","","","","","","","","",""
"","image-keyboard-response","247","429025","0.0-247.0","3SBEHTYCWOPJIHUCAD4XNOJR0N3IYI","A2T0STI1CPQBDR","38DCH97KHHO4I6P2AJ31XKZ17OGJQZ","","65","img/land2.png","76","66","3","1","1","2","1,0.5,0.5,0.5,1,0.5,0.5,0.5,1","0.5,1,0.5,0.5,0.5,1,1,0.5,0.5","3","",""
"","html-keyboard-response","248","429328","0.0-248.0","3SBEHTYCWOPJIHUCAD4XNOJR0N3IYI","A2T0STI1CPQBDR","38DCH97KHHO4I6P2AJ31XKZ17OGJQZ","","null","<img src=""img/land2.png"" style=""width:200px; border:14px solid green;"">","null","","","","","","","","","",""
"","image-keyboard-response","249","429402","0.0-249.0","3SBEHTYCWOPJIHUCAD4XNOJR0N3IYI","A2T0STI1CPQBDR","38DCH97KHHO4I6P2AJ31XKZ17OGJQZ","","72","img/land2.png","74","74","1","0","1","2","1,0.5,0.5,0.5,1,0.5,0.5,0.5,1","0.5,1,0.5,0.5,0.5,1,1,0.5,0.5","3","",""
"","html-keyboard-response","250","429705","0.0-250.0","3SBEHTYCWOPJIHUCAD4XNOJR0N3IYI","A2T0STI1CPQBDR","38DCH97KHHO4I6P2AJ31XKZ17OGJQZ","","null","<img src=""img/land2.png"" style=""width:200px;border:14px solid red;"">","null","","","","","","","","","",""
"","image-keyboard-response","251","429823","0.0-251.0","3SBEHTYCWOPJIHUCAD4XNOJR0N3IYI","A2T0STI1CPQBDR","38DCH97KHHO4I6P2AJ31XKZ17OGJQZ","","116","img/land1.png","76","118","3","0","3","2","1,0.5,0.5,0.5,1,0.5,0.5,0.5,1","0.5,1,0.5,0.5,0.5,1,1,0.5,0.5","3","",""
"","html-keyboard-response","252","430127","0.0-252.0","3SBEHTYCWOPJIHUCAD4XNOJR0N3IYI","A2T0STI1CPQBDR","38DCH97KHHO4I6P2AJ31XKZ17OGJQZ","","null","<img src=""img/land1.png"" style=""width:200px;border:14px solid red;"">","null","","","","","","","","","",""
"","image-keyboard-response","253","430235","0.0-253.0","3SBEHTYCWOPJIHUCAD4XNOJR0N3IYI","A2T0STI1CPQBDR","38DCH97KHHO4I6P2AJ31XKZ17OGJQZ","","106","img/land4.png","74","107","1","1","2","2","1,0.5,0.5,0.5,1,0.5,0.5,0.5,1","0.5,1,0.5,0.5,0.5,1,1,0.5,0.5","3","",""
"","html-keyboard-response","254","430537","0.0-254.0","3SBEHTYCWOPJIHUCAD4XNOJR0N3IYI","A2T0STI1CPQBDR","38DCH97KHHO4I6P2AJ31XKZ17OGJQZ","","null","<img src=""img/land4.png"" style=""width:200px; border:14px solid green;"">","null","","","","","","","","","",""
"","image-keyboard-response","255","430589","0.0-255.0","3SBEHTYCWOPJIHUCAD4XNOJR0N3IYI","A2T0STI1CPQBDR","38DCH97KHHO4I6P2AJ31XKZ17OGJQZ","","50","img/land2.png","76","51","3","1","1","2","1,0.5,0.5,0.5,1,0.5,0.5,0.5,1","0.5,1,0.5,0.5,0.5,1,1,0.5,0.5","3","",""
"","html-keyboard-response","256","430892","0.0-256.0","3SBEHTYCWOPJIHUCAD4XNOJR0N3IYI","A2T0STI1CPQBDR","38DCH97KHHO4I6P2AJ31XKZ17OGJQZ","","null","<img src=""img/land2.png"" style=""width:200px; border:14px solid green;"">","null","","","","","","","","","",""
"","image-keyboard-response","257","431005","0.0-257.0","3SBEHTYCWOPJIHUCAD4XNOJR0N3IYI","A2T0STI1CPQBDR","38DCH97KHHO4I6P2AJ31XKZ17OGJQZ","","111","img/land1.png","74","112","1","1","3","2","1,0.5,0.5,0.5,1,0.5,0.5,0.5,1","0.5,1,0.5,0.5,0.5,1,1,0.5,0.5","3","",""
"","html-keyboard-response","258","431306","0.0-258.0","3SBEHTYCWOPJIHUCAD4XNOJR0N3IYI","A2T0STI1CPQBDR","38DCH97KHHO4I6P2AJ31XKZ17OGJQZ","","null","<img src=""img/land1.png"" style=""width:200px; border:14px solid green;"">","null","","","","","","","","","",""
"","image-keyboard-response","259","431349","0.0-259.0","3SBEHTYCWOPJIHUCAD4XNOJR0N3IYI","A2T0STI1CPQBDR","38DCH97KHHO4I6P2AJ31XKZ17OGJQZ","","42","img/land2.png","76","42","3","0","1","2","1,0.5,0.5,0.5,1,0.5,0.5,0.5,1","0.5,1,0.5,0.5,0.5,1,1,0.5,0.5","3","",""
"","html-keyboard-response","260","431650","0.0-260.0","3SBEHTYCWOPJIHUCAD4XNOJR0N3IYI","A2T0STI1CPQBDR","38DCH97KHHO4I6P2AJ31XKZ17OGJQZ","","null","<img src=""img/land2.png"" style=""width:200px;border:14px solid red;"">","null","","","","","","","","","",""
"","image-keyboard-response","261","431782","0.0-261.0","3SBEHTYCWOPJIHUCAD4XNOJR0N3IYI","A2T0STI1CPQBDR","38DCH97KHHO4I6P2AJ31XKZ17OGJQZ","","128","img/land2.png","74","131","1","1","1","2","1,0.5,0.5,0.5,1,0.5,0.5,0.5,1","0.5,1,0.5,0.5,0.5,1,1,0.5,0.5","3","",""
"","html-keyboard-response","262","432086","0.0-262.0","3SBEHTYCWOPJIHUCAD4XNOJR0N3IYI","A2T0STI1CPQBDR","38DCH97KHHO4I6P2AJ31XKZ17OGJQZ","","null","<img src=""img/land2.png"" style=""width:200px; border:14px solid green;"">","null","","","","","","","","","",""
"","image-keyboard-response","263","432173","0.0-263.0","3SBEHTYCWOPJIHUCAD4XNOJR0N3IYI","A2T0STI1CPQBDR","38DCH97KHHO4I6P2AJ31XKZ17OGJQZ","","86","img/land2.png","76","87","3","1","1","2","1,0.5,0.5,0.5,1,0.5,0.5,0.5,1","0.5,1,0.5,0.5,0.5,1,1,0.5,0.5","3","",""
"","html-keyboard-response","264","432476","0.0-264.0","3SBEHTYCWOPJIHUCAD4XNOJR0N3IYI","A2T0STI1CPQBDR","38DCH97KHHO4I6P2AJ31XKZ17OGJQZ","","null","<img src=""img/land2.png"" style=""width:200px; border:14px solid green;"">","null","","","","","","","","","",""
"","image-keyboard-response","265","432566","0.0-265.0","3SBEHTYCWOPJIHUCAD4XNOJR0N3IYI","A2T0STI1CPQBDR","38DCH97KHHO4I6P2AJ31XKZ17OGJQZ","","87","img/land4.png","74","89","1","0","2","2","1,0.5,0.5,0.5,1,0.5,0.5,0.5,1","0.5,1,0.5,0.5,0.5,1,1,0.5,0.5","3","",""
"","html-keyboard-response","266","432869","0.0-266.0","3SBEHTYCWOPJIHUCAD4XNOJR0N3IYI","A2T0STI1CPQBDR","38DCH97KHHO4I6P2AJ31XKZ17OGJQZ","","null","<img src=""img/land4.png"" style=""width:200px;border:14px solid red;"">","null","","","","","","","","","",""
"","image-keyboard-response","267","432886","0.0-267.0","3SBEHTYCWOPJIHUCAD4XNOJR0N3IYI","A2T0STI1CPQBDR","38DCH97KHHO4I6P2AJ31XKZ17OGJQZ","","15","img/land2.png","75","16","2","1","1","2","1,0.5,0.5,0.5,1,0.5,0.5,0.5,1","0.5,1,0.5,0.5,0.5,1,1,0.5,0.5","3","",""
"","html-keyboard-response","268","433187","0.0-268.0","3SBEHTYCWOPJIHUCAD4XNOJR0N3IYI","A2T0STI1CPQBDR","38DCH97KHHO4I6P2AJ31XKZ17OGJQZ","","null","<img src=""img/land2.png"" style=""width:200px; border:14px solid green;"">","null","","","","","","","","","",""
"","image-keyboard-response","269","433222","0.0-269.0","3SBEHTYCWOPJIHUCAD4XNOJR0N3IYI","A2T0STI1CPQBDR","38DCH97KHHO4I6P2AJ31XKZ17OGJQZ","","32","img/land4.png","75","33","2","0","2","2","1,0.5,0.5,0.5,1,0.5,0.5,0.5,1","0.5,1,0.5,0.5,0.5,1,1,0.5,0.5","3","",""
"","html-keyboard-response","270","433523","0.0-270.0","3SBEHTYCWOPJIHUCAD4XNOJR0N3IYI","A2T0STI1CPQBDR","38DCH97KHHO4I6P2AJ31XKZ17OGJQZ","","null","<img src=""img/land4.png"" style=""width:200px;border:14px solid red;"">","null","","","","","","","","","",""
"","image-keyboard-response","271","433627","0.0-271.0","3SBEHTYCWOPJIHUCAD4XNOJR0N3IYI","A2T0STI1CPQBDR","38DCH97KHHO4I6P2AJ31XKZ17OGJQZ","","101","img/land1.png","74","103","1","1","3","2","1,0.5,0.5,0.5,1,0.5,0.5,0.5,1","0.5,1,0.5,0.5,0.5,1,1,0.5,0.5","3","",""
"","html-keyboard-response","272","433930","0.0-272.0","3SBEHTYCWOPJIHUCAD4XNOJR0N3IYI","A2T0STI1CPQBDR","38DCH97KHHO4I6P2AJ31XKZ17OGJQZ","","null","<img src=""img/land1.png"" style=""width:200px; border:14px solid green;"">","null","","","","","","","","","",""
"","image-keyboard-response","273","433959","0.0-273.0","3SBEHTYCWOPJIHUCAD4XNOJR0N3IYI","A2T0STI1CPQBDR","38DCH97KHHO4I6P2AJ31XKZ17OGJQZ","","25","img/land2.png","76","27","3","1","1","2","1,0.5,0.5,0.5,1,0.5,0.5,0.5,1","0.5,1,0.5,0.5,0.5,1,1,0.5,0.5","3","",""
"","html-keyboard-response","274","434280","0.0-274.0","3SBEHTYCWOPJIHUCAD4XNOJR0N3IYI","A2T0STI1CPQBDR","38DCH97KHHO4I6P2AJ31XKZ17OGJQZ","","null","<img src=""img/land2.png"" style=""width:200px; border:14px solid green;"">","null","","","","","","","","","",""
"","image-keyboard-response","275","434318","0.0-275.0","3SBEHTYCWOPJIHUCAD4XNOJR0N3IYI","A2T0STI1CPQBDR","38DCH97KHHO4I6P2AJ31XKZ17OGJQZ","","36","img/land2.png","74","37","1","0","1","2","1,0.5,0.5,0.5,1,0.5,0.5,0.5,1","0.5,1,0.5,0.5,0.5,1,1,0.5,0.5","3","",""
"","html-keyboard-response","276","434621","0.0-276.0","3SBEHTYCWOPJIHUCAD4XNOJR0N3IYI","A2T0STI1CPQBDR","38DCH97KHHO4I6P2AJ31XKZ17OGJQZ","","null","<img src=""img/land2.png"" style=""width:200px;border:14px solid red;"">","null","","","","","","","","","",""
"","image-keyboard-response","277","434638","0.0-277.0","3SBEHTYCWOPJIHUCAD4XNOJR0N3IYI","A2T0STI1CPQBDR","38DCH97KHHO4I6P2AJ31XKZ17OGJQZ","","14","img/land2.png","75","16","2","1","1","2","1,0.5,0.5,0.5,1,0.5,0.5,0.5,1","0.5,1,0.5,0.5,0.5,1,1,0.5,0.5","3","",""
"","html-keyboard-response","278","434942","0.0-278.0","3SBEHTYCWOPJIHUCAD4XNOJR0N3IYI","A2T0STI1CPQBDR","38DCH97KHHO4I6P2AJ31XKZ17OGJQZ","","null","<img src=""img/land2.png"" style=""width:200px; border:14px solid green;"">","null","","","","","","","","","",""
"","image-keyboard-response","279","435054","0.0-279.0","3SBEHTYCWOPJIHUCAD4XNOJR0N3IYI","A2T0STI1CPQBDR","38DCH97KHHO4I6P2AJ31XKZ17OGJQZ","","107","img/land4.png","74","109","1","1","2","2","1,0.5,0.5,0.5,1,0.5,0.5,0.5,1","0.5,1,0.5,0.5,0.5,1,1,0.5,0.5","3","",""
"","html-keyboard-response","280","435356","0.0-280.0","3SBEHTYCWOPJIHUCAD4XNOJR0N3IYI","A2T0STI1CPQBDR","38DCH97KHHO4I6P2AJ31XKZ17OGJQZ","","null","<img src=""img/land4.png"" style=""width:200px; border:14px solid green;"">","null","","","","","","","","","",""
"","image-keyboard-response","281","435422","0.0-281.0","3SBEHTYCWOPJIHUCAD4XNOJR0N3IYI","A2T0STI1CPQBDR","38DCH97KHHO4I6P2AJ31XKZ17OGJQZ","","62","img/land4.png","76","64","3","1","2","2","1,0.5,0.5,0.5,1,0.5,0.5,0.5,1","0.5,1,0.5,0.5,0.5,1,1,0.5,0.5","3","",""
"","html-keyboard-response","282","435726","0.0-282.0","3SBEHTYCWOPJIHUCAD4XNOJR0N3IYI","A2T0STI1CPQBDR","38DCH97KHHO4I6P2AJ31XKZ17OGJQZ","","null","<img src=""img/land4.png"" style=""width:200px; border:14px solid green;"">","null","","","","","","","","","",""
"","image-keyboard-response","283","435832","0.0-283.0","3SBEHTYCWOPJIHUCAD4XNOJR0N3IYI","A2T0STI1CPQBDR","38DCH97KHHO4I6P2AJ31XKZ17OGJQZ","","104","img/land4.png","74","107","1","1","2","2","1,0.5,0.5,0.5,1,0.5,0.5,0.5,1","0.5,1,0.5,0.5,0.5,1,1,0.5,0.5","3","",""
"","html-keyboard-response","284","436134","0.0-284.0","3SBEHTYCWOPJIHUCAD4XNOJR0N3IYI","A2T0STI1CPQBDR","38DCH97KHHO4I6P2AJ31XKZ17OGJQZ","","null","<img src=""img/land4.png"" style=""width:200px; border:14px solid green;"">","null","","","","","","","","","",""
"","image-keyboard-response","285","436157","0.0-285.0","3SBEHTYCWOPJIHUCAD4XNOJR0N3IYI","A2T0STI1CPQBDR","38DCH97KHHO4I6P2AJ31XKZ17OGJQZ","","21","img/land2.png","76","22","3","0","1","2","1,0.5,0.5,0.5,1,0.5,0.5,0.5,1","0.5,1,0.5,0.5,0.5,1,1,0.5,0.5","3","",""
"","html-keyboard-response","286","436479","0.0-286.0","3SBEHTYCWOPJIHUCAD4XNOJR0N3IYI","A2T0STI1CPQBDR","38DCH97KHHO4I6P2AJ31XKZ17OGJQZ","","null","<img src=""img/land2.png"" style=""width:200px;border:14px solid red;"">","null","","","","","","","","","",""
"","image-keyboard-response","287","436596","0.0-287.0","3SBEHTYCWOPJIHUCAD4XNOJR0N3IYI","A2T0STI1CPQBDR","38DCH97KHHO4I6P2AJ31XKZ17OGJQZ","","115","img/land2.png","74","117","1","0","1","2","1,0.5,0.5,0.5,1,0.5,0.5,0.5,1","0.5,1,0.5,0.5,0.5,1,1,0.5,0.5","3","",""
"","html-keyboard-response","288","436899","0.0-288.0","3SBEHTYCWOPJIHUCAD4XNOJR0N3IYI","A2T0STI1CPQBDR","38DCH97KHHO4I6P2AJ31XKZ17OGJQZ","","null","<img src=""img/land2.png"" style=""width:200px;border:14px solid red;"">","null","","","","","","","","","",""
"","image-keyboard-response","289","436926","0.0-289.0","3SBEHTYCWOPJIHUCAD4XNOJR0N3IYI","A2T0STI1CPQBDR","38DCH97KHHO4I6P2AJ31XKZ17OGJQZ","","24","img/land2.png","74","26","1","1","1","2","1,0.5,0.5,0.5,1,0.5,0.5,0.5,1","0.5,1,0.5,0.5,0.5,1,1,0.5,0.5","3","",""
"","html-keyboard-response","290","437227","0.0-290.0","3SBEHTYCWOPJIHUCAD4XNOJR0N3IYI","A2T0STI1CPQBDR","38DCH97KHHO4I6P2AJ31XKZ17OGJQZ","","null","<img src=""img/land2.png"" style=""width:200px; border:14px solid green;"">","null","","","","","","","","","",""
"","image-keyboard-response","291","437338","0.0-291.0","3SBEHTYCWOPJIHUCAD4XNOJR0N3IYI","A2T0STI1CPQBDR","38DCH97KHHO4I6P2AJ31XKZ17OGJQZ","","110","img/land4.png","76","111","3","1","2","2","1,0.5,0.5,0.5,1,0.5,0.5,0.5,1","0.5,1,0.5,0.5,0.5,1,1,0.5,0.5","3","",""
"","html-keyboard-response","292","437641","0.0-292.0","3SBEHTYCWOPJIHUCAD4XNOJR0N3IYI","A2T0STI1CPQBDR","38DCH97KHHO4I6P2AJ31XKZ17OGJQZ","","null","<img src=""img/land4.png"" style=""width:200px; border:14px solid green;"">","null","","","","","","","","","",""
"","image-keyboard-response","293","437769","0.0-293.0","3SBEHTYCWOPJIHUCAD4XNOJR0N3IYI","A2T0STI1CPQBDR","38DCH97KHHO4I6P2AJ31XKZ17OGJQZ","","125","img/land2.png","74","127","1","1","1","2","1,0.5,0.5,0.5,1,0.5,0.5,0.5,1","0.5,1,0.5,0.5,0.5,1,1,0.5,0.5","3","",""
"","html-keyboard-response","294","438074","0.0-294.0","3SBEHTYCWOPJIHUCAD4XNOJR0N3IYI","A2T0STI1CPQBDR","38DCH97KHHO4I6P2AJ31XKZ17OGJQZ","","null","<img src=""img/land2.png"" style=""width:200px; border:14px solid green;"">","null","","","","","","","","","",""
"","image-keyboard-response","295","438101","0.0-295.0","3SBEHTYCWOPJIHUCAD4XNOJR0N3IYI","A2T0STI1CPQBDR","38DCH97KHHO4I6P2AJ31XKZ17OGJQZ","","21","img/land2.png","74","23","1","1","1","2","1,0.5,0.5,0.5,1,0.5,0.5,0.5,1","0.5,1,0.5,0.5,0.5,1,1,0.5,0.5","3","",""
"","html-keyboard-response","296","438403","0.0-296.0","3SBEHTYCWOPJIHUCAD4XNOJR0N3IYI","A2T0STI1CPQBDR","38DCH97KHHO4I6P2AJ31XKZ17OGJQZ","","null","<img src=""img/land2.png"" style=""width:200px; border:14px solid green;"">","null","","","","","","","","","",""
"","image-keyboard-response","297","438534","0.0-297.0","3SBEHTYCWOPJIHUCAD4XNOJR0N3IYI","A2T0STI1CPQBDR","38DCH97KHHO4I6P2AJ31XKZ17OGJQZ","","126","img/land2.png","76","128","3","0","1","2","1,0.5,0.5,0.5,1,0.5,0.5,0.5,1","0.5,1,0.5,0.5,0.5,1,1,0.5,0.5","3","",""
"","html-keyboard-response","298","438840","0.0-298.0","3SBEHTYCWOPJIHUCAD4XNOJR0N3IYI","A2T0STI1CPQBDR","38DCH97KHHO4I6P2AJ31XKZ17OGJQZ","","null","<img src=""img/land2.png"" style=""width:200px;border:14px solid red;"">","null","","","","","","","","","",""
"","image-keyboard-response","299","438977","0.0-299.0","3SBEHTYCWOPJIHUCAD4XNOJR0N3IYI","A2T0STI1CPQBDR","38DCH97KHHO4I6P2AJ31XKZ17OGJQZ","","134","img/land2.png","74","136","1","0","1","2","1,0.5,0.5,0.5,1,0.5,0.5,0.5,1","0.5,1,0.5,0.5,0.5,1,1,0.5,0.5","3","",""
"","html-keyboard-response","300","439282","0.0-300.0","3SBEHTYCWOPJIHUCAD4XNOJR0N3IYI","A2T0STI1CPQBDR","38DCH97KHHO4I6P2AJ31XKZ17OGJQZ","","null","<img src=""img/land2.png"" style=""width:200px;border:14px solid red;"">","null","","","","","","","","","",""
"","image-keyboard-response","301","439401","0.0-301.0","3SBEHTYCWOPJIHUCAD4XNOJR0N3IYI","A2T0STI1CPQBDR","38DCH97KHHO4I6P2AJ31XKZ17OGJQZ","","117","img/land2.png","74","118","1","0","1","2","1,0.5,0.5,0.5,1,0.5,0.5,0.5,1","0.5,1,0.5,0.5,0.5,1,1,0.5,0.5","3","",""
"","html-keyboard-response","302","439705","0.0-302.0","3SBEHTYCWOPJIHUCAD4XNOJR0N3IYI","A2T0STI1CPQBDR","38DCH97KHHO4I6P2AJ31XKZ17OGJQZ","","null","<img src=""img/land2.png"" style=""width:200px;border:14px solid red;"">","null","","","","","","","","","",""
"","image-keyboard-response","303","439833","0.0-303.0","3SBEHTYCWOPJIHUCAD4XNOJR0N3IYI","A2T0STI1CPQBDR","38DCH97KHHO4I6P2AJ31XKZ17OGJQZ","","126","img/land2.png","74","127","1","1","1","2","1,0.5,0.5,0.5,1,0.5,0.5,0.5,1","0.5,1,0.5,0.5,0.5,1,1,0.5,0.5","3","",""
"","html-keyboard-response","304","440136","0.0-304.0","3SBEHTYCWOPJIHUCAD4XNOJR0N3IYI","A2T0STI1CPQBDR","38DCH97KHHO4I6P2AJ31XKZ17OGJQZ","","null","<img src=""img/land2.png"" style=""width:200px; border:14px solid green;"">","null","","","","","","","","","",""
"","image-keyboard-response","305","440384","0.0-305.0","3SBEHTYCWOPJIHUCAD4XNOJR0N3IYI","A2T0STI1CPQBDR","38DCH97KHHO4I6P2AJ31XKZ17OGJQZ","","244","img/land2.png","74","247","1","1","1","2","1,0.5,0.5,0.5,1,0.5,0.5,0.5,1","0.5,1,0.5,0.5,0.5,1,1,0.5,0.5","3","",""
"","html-keyboard-response","306","440685","0.0-306.0","3SBEHTYCWOPJIHUCAD4XNOJR0N3IYI","A2T0STI1CPQBDR","38DCH97KHHO4I6P2AJ31XKZ17OGJQZ","","null","<img src=""img/land2.png"" style=""width:200px; border:14px solid green;"">","null","","","","","","","","","",""
"","image-keyboard-response","307","440812","0.0-307.0","3SBEHTYCWOPJIHUCAD4XNOJR0N3IYI","A2T0STI1CPQBDR","38DCH97KHHO4I6P2AJ31XKZ17OGJQZ","","125","img/land2.png","76","126","3","0","1","2","1,0.5,0.5,0.5,1,0.5,0.5,0.5,1","0.5,1,0.5,0.5,0.5,1,1,0.5,0.5","3","",""
"","html-keyboard-response","308","441115","0.0-308.0","3SBEHTYCWOPJIHUCAD4XNOJR0N3IYI","A2T0STI1CPQBDR","38DCH97KHHO4I6P2AJ31XKZ17OGJQZ","","null","<img src=""img/land2.png"" style=""width:200px;border:14px solid red;"">","null","","","","","","","","","",""
"","image-keyboard-response","309","441118","0.0-309.0","3SBEHTYCWOPJIHUCAD4XNOJR0N3IYI","A2T0STI1CPQBDR","38DCH97KHHO4I6P2AJ31XKZ17OGJQZ","","1","img/land2.png","76","2","3","1","1","2","1,0.5,0.5,0.5,1,0.5,0.5,0.5,1","0.5,1,0.5,0.5,0.5,1,1,0.5,0.5","3","",""
"","html-keyboard-response","310","441419","0.0-310.0","3SBEHTYCWOPJIHUCAD4XNOJR0N3IYI","A2T0STI1CPQBDR","38DCH97KHHO4I6P2AJ31XKZ17OGJQZ","","null","<img src=""img/land2.png"" style=""width:200px; border:14px solid green;"">","null","","","","","","","","","",""
"","image-keyboard-response","311","441812","0.0-311.0","3SBEHTYCWOPJIHUCAD4XNOJR0N3IYI","A2T0STI1CPQBDR","38DCH97KHHO4I6P2AJ31XKZ17OGJQZ","","388","img/land2.png","75","391","2","1","1","2","1,0.5,0.5,0.5,1,0.5,0.5,0.5,1","0.5,1,0.5,0.5,0.5,1,1,0.5,0.5","3","",""
"","html-keyboard-response","312","442115","0.0-312.0","3SBEHTYCWOPJIHUCAD4XNOJR0N3IYI","A2T0STI1CPQBDR","38DCH97KHHO4I6P2AJ31XKZ17OGJQZ","","null","<img src=""img/land2.png"" style=""width:200px; border:14px solid green;"">","null","","","","","","","","","",""
"","image-keyboard-response","313","442698","0.0-313.0","3SBEHTYCWOPJIHUCAD4XNOJR0N3IYI","A2T0STI1CPQBDR","38DCH97KHHO4I6P2AJ31XKZ17OGJQZ","","580","img/land1.png","74","582","1","1","3","2","1,0.5,0.5,0.5,1,0.5,0.5,0.5,1","0.5,1,0.5,0.5,0.5,1,1,0.5,0.5","3","",""
"","html-keyboard-response","314","443001","0.0-314.0","3SBEHTYCWOPJIHUCAD4XNOJR0N3IYI","A2T0STI1CPQBDR","38DCH97KHHO4I6P2AJ31XKZ17OGJQZ","","null","<img src=""img/land1.png"" style=""width:200px; border:14px solid green;"">","null","","","","","","","","","",""
"","image-keyboard-response","315","443039","0.0-315.0","3SBEHTYCWOPJIHUCAD4XNOJR0N3IYI","A2T0STI1CPQBDR","38DCH97KHHO4I6P2AJ31XKZ17OGJQZ","","34","img/land2.png","75","37","2","1","1","2","1,0.5,0.5,0.5,1,0.5,0.5,0.5,1","0.5,1,0.5,0.5,0.5,1,1,0.5,0.5","3","",""
"","html-keyboard-response","316","443344","0.0-316.0","3SBEHTYCWOPJIHUCAD4XNOJR0N3IYI","A2T0STI1CPQBDR","38DCH97KHHO4I6P2AJ31XKZ17OGJQZ","","null","<img src=""img/land2.png"" style=""width:200px; border:14px solid green;"">","null","","","","","","","","","",""
"","image-keyboard-response","317","443478","0.0-317.0","3SBEHTYCWOPJIHUCAD4XNOJR0N3IYI","A2T0STI1CPQBDR","38DCH97KHHO4I6P2AJ31XKZ17OGJQZ","","133","img/land2.png","74","135","1","0","1","2","1,0.5,0.5,0.5,1,0.5,0.5,0.5,1","0.5,1,0.5,0.5,0.5,1,1,0.5,0.5","3","",""
"","html-keyboard-response","318","443780","0.0-318.0","3SBEHTYCWOPJIHUCAD4XNOJR0N3IYI","A2T0STI1CPQBDR","38DCH97KHHO4I6P2AJ31XKZ17OGJQZ","","null","<img src=""img/land2.png"" style=""width:200px;border:14px solid red;"">","null","","","","","","","","","",""
"","image-keyboard-response","319","443968","0.0-319.0","3SBEHTYCWOPJIHUCAD4XNOJR0N3IYI","A2T0STI1CPQBDR","38DCH97KHHO4I6P2AJ31XKZ17OGJQZ","","185","img/land1.png","76","187","3","0","3","2","1,0.5,0.5,0.5,1,0.5,0.5,0.5,1","0.5,1,0.5,0.5,0.5,1,1,0.5,0.5","3","",""
"","html-keyboard-response","320","444270","0.0-320.0","3SBEHTYCWOPJIHUCAD4XNOJR0N3IYI","A2T0STI1CPQBDR","38DCH97KHHO4I6P2AJ31XKZ17OGJQZ","","null","<img src=""img/land1.png"" style=""width:200px;border:14px solid red;"">","null","","","","","","","","","",""
"","image-keyboard-response","321","444278","0.0-321.0","3SBEHTYCWOPJIHUCAD4XNOJR0N3IYI","A2T0STI1CPQBDR","38DCH97KHHO4I6P2AJ31XKZ17OGJQZ","","7","img/land2.png","75","7","2","1","1","2","1,0.5,0.5,0.5,1,0.5,0.5,0.5,1","0.5,1,0.5,0.5,0.5,1,1,0.5,0.5","3","",""
"","html-keyboard-response","322","444579","0.0-322.0","3SBEHTYCWOPJIHUCAD4XNOJR0N3IYI","A2T0STI1CPQBDR","38DCH97KHHO4I6P2AJ31XKZ17OGJQZ","","null","<img src=""img/land2.png"" style=""width:200px; border:14px solid green;"">","null","","","","","","","","","",""
"","image-keyboard-response","323","444623","0.0-323.0","3SBEHTYCWOPJIHUCAD4XNOJR0N3IYI","A2T0STI1CPQBDR","38DCH97KHHO4I6P2AJ31XKZ17OGJQZ","","40","img/land2.png","75","42","2","1","1","2","1,0.5,0.5,0.5,1,0.5,0.5,0.5,1","0.5,1,0.5,0.5,0.5,1,1,0.5,0.5","3","",""
"","html-keyboard-response","324","444925","0.0-324.0","3SBEHTYCWOPJIHUCAD4XNOJR0N3IYI","A2T0STI1CPQBDR","38DCH97KHHO4I6P2AJ31XKZ17OGJQZ","","null","<img src=""img/land2.png"" style=""width:200px; border:14px solid green;"">","null","","","","","","","","","",""
"","image-keyboard-response","325","444995","0.0-325.0","3SBEHTYCWOPJIHUCAD4XNOJR0N3IYI","A2T0STI1CPQBDR","38DCH97KHHO4I6P2AJ31XKZ17OGJQZ","","69","img/land2.png","76","70","3","0","1","2","1,0.5,0.5,0.5,1,0.5,0.5,0.5,1","0.5,1,0.5,0.5,0.5,1,1,0.5,0.5","3","",""
"","html-keyboard-response","326","445297","0.0-326.0","3SBEHTYCWOPJIHUCAD4XNOJR0N3IYI","A2T0STI1CPQBDR","38DCH97KHHO4I6P2AJ31XKZ17OGJQZ","","null","<img src=""img/land2.png"" style=""width:200px;border:14px solid red;"">","null","","","","","","","","","",""
"","image-keyboard-response","327","445324","0.0-327.0","3SBEHTYCWOPJIHUCAD4XNOJR0N3IYI","A2T0STI1CPQBDR","38DCH97KHHO4I6P2AJ31XKZ17OGJQZ","","24","img/land2.png","75","26","2","1","1","2","1,0.5,0.5,0.5,1,0.5,0.5,0.5,1","0.5,1,0.5,0.5,0.5,1,1,0.5,0.5","3","",""
"","html-keyboard-response","328","445626","0.0-328.0","3SBEHTYCWOPJIHUCAD4XNOJR0N3IYI","A2T0STI1CPQBDR","38DCH97KHHO4I6P2AJ31XKZ17OGJQZ","","null","<img src=""img/land2.png"" style=""width:200px; border:14px solid green;"">","null","","","","","","","","","",""
"","image-keyboard-response","329","445693","0.0-329.0","3SBEHTYCWOPJIHUCAD4XNOJR0N3IYI","A2T0STI1CPQBDR","38DCH97KHHO4I6P2AJ31XKZ17OGJQZ","","66","img/land1.png","75","66","2","1","3","2","1,0.5,0.5,0.5,1,0.5,0.5,0.5,1","0.5,1,0.5,0.5,0.5,1,1,0.5,0.5","3","",""
"","html-keyboard-response","330","445999","0.0-330.0","3SBEHTYCWOPJIHUCAD4XNOJR0N3IYI","A2T0STI1CPQBDR","38DCH97KHHO4I6P2AJ31XKZ17OGJQZ","","null","<img src=""img/land1.png"" style=""width:200px; border:14px solid green;"">","null","","","","","","","","","",""
"","image-keyboard-response","331","446302","0.0-331.0","3SBEHTYCWOPJIHUCAD4XNOJR0N3IYI","A2T0STI1CPQBDR","38DCH97KHHO4I6P2AJ31XKZ17OGJQZ","","300","img/land2.png","74","302","1","0","1","2","1,0.5,0.5,0.5,1,0.5,0.5,0.5,1","0.5,1,0.5,0.5,0.5,1,1,0.5,0.5","3","",""
"","html-keyboard-response","332","446604","0.0-332.0","3SBEHTYCWOPJIHUCAD4XNOJR0N3IYI","A2T0STI1CPQBDR","38DCH97KHHO4I6P2AJ31XKZ17OGJQZ","","null","<img src=""img/land2.png"" style=""width:200px;border:14px solid red;"">","null","","","","","","","","","",""
"","image-keyboard-response","333","446779","0.0-333.0","3SBEHTYCWOPJIHUCAD4XNOJR0N3IYI","A2T0STI1CPQBDR","38DCH97KHHO4I6P2AJ31XKZ17OGJQZ","","173","img/land4.png","74","175","1","0","2","2","1,0.5,0.5,0.5,1,0.5,0.5,0.5,1","0.5,1,0.5,0.5,0.5,1,1,0.5,0.5","3","",""
"","html-keyboard-response","334","447081","0.0-334.0","3SBEHTYCWOPJIHUCAD4XNOJR0N3IYI","A2T0STI1CPQBDR","38DCH97KHHO4I6P2AJ31XKZ17OGJQZ","","null","<img src=""img/land4.png"" style=""width:200px;border:14px solid red;"">","null","","","","","","","","","",""
"","image-keyboard-response","335","447100","0.0-335.0","3SBEHTYCWOPJIHUCAD4XNOJR0N3IYI","A2T0STI1CPQBDR","38DCH97KHHO4I6P2AJ31XKZ17OGJQZ","","18","img/land2.png","75","18","2","1","1","2","1,0.5,0.5,0.5,1,0.5,0.5,0.5,1","0.5,1,0.5,0.5,0.5,1,1,0.5,0.5","3","",""
"","html-keyboard-response","336","447403","0.0-336.0","3SBEHTYCWOPJIHUCAD4XNOJR0N3IYI","A2T0STI1CPQBDR","38DCH97KHHO4I6P2AJ31XKZ17OGJQZ","","null","<img src=""img/land2.png"" style=""width:200px; border:14px solid green;"">","null","","","","","","","","","",""
"","image-keyboard-response","337","447466","0.0-337.0","3SBEHTYCWOPJIHUCAD4XNOJR0N3IYI","A2T0STI1CPQBDR","38DCH97KHHO4I6P2AJ31XKZ17OGJQZ","","61","img/land2.png","76","63","3","1","1","2","1,0.5,0.5,0.5,1,0.5,0.5,0.5,1","0.5,1,0.5,0.5,0.5,1,1,0.5,0.5","3","",""
"","html-keyboard-response","338","447770","0.0-338.0","3SBEHTYCWOPJIHUCAD4XNOJR0N3IYI","A2T0STI1CPQBDR","38DCH97KHHO4I6P2AJ31XKZ17OGJQZ","","null","<img src=""img/land2.png"" style=""width:200px; border:14px solid green;"">","null","","","","","","","","","",""
"","image-keyboard-response","339","447806","0.0-339.0","3SBEHTYCWOPJIHUCAD4XNOJR0N3IYI","A2T0STI1CPQBDR","38DCH97KHHO4I6P2AJ31XKZ17OGJQZ","","34","img/land4.png","76","36","3","1","2","2","1,0.5,0.5,0.5,1,0.5,0.5,0.5,1","0.5,1,0.5,0.5,0.5,1,1,0.5,0.5","3","",""
"","html-keyboard-response","340","448111","0.0-340.0","3SBEHTYCWOPJIHUCAD4XNOJR0N3IYI","A2T0STI1CPQBDR","38DCH97KHHO4I6P2AJ31XKZ17OGJQZ","","null","<img src=""img/land4.png"" style=""width:200px; border:14px solid green;"">","null","","","","","","","","","",""
"","image-keyboard-response","341","448287","0.0-341.0","3SBEHTYCWOPJIHUCAD4XNOJR0N3IYI","A2T0STI1CPQBDR","38DCH97KHHO4I6P2AJ31XKZ17OGJQZ","","174","img/land1.png","74","175","1","1","3","2","1,0.5,0.5,0.5,1,0.5,0.5,0.5,1","0.5,1,0.5,0.5,0.5,1,1,0.5,0.5","3","",""
"","html-keyboard-response","342","448589","0.0-342.0","3SBEHTYCWOPJIHUCAD4XNOJR0N3IYI","A2T0STI1CPQBDR","38DCH97KHHO4I6P2AJ31XKZ17OGJQZ","","null","<img src=""img/land1.png"" style=""width:200px; border:14px solid green;"">","null","","","","","","","","","",""
"","image-keyboard-response","343","448607","0.0-343.0","3SBEHTYCWOPJIHUCAD4XNOJR0N3IYI","A2T0STI1CPQBDR","38DCH97KHHO4I6P2AJ31XKZ17OGJQZ","","17","img/land1.png","74","17","1","1","3","2","1,0.5,0.5,0.5,1,0.5,0.5,0.5,1","0.5,1,0.5,0.5,0.5,1,1,0.5,0.5","3","",""
"","html-keyboard-response","344","448909","0.0-344.0","3SBEHTYCWOPJIHUCAD4XNOJR0N3IYI","A2T0STI1CPQBDR","38DCH97KHHO4I6P2AJ31XKZ17OGJQZ","","null","<img src=""img/land1.png"" style=""width:200px; border:14px solid green;"">","null","","","","","","","","","",""
"","image-keyboard-response","345","448917","0.0-345.0","3SBEHTYCWOPJIHUCAD4XNOJR0N3IYI","A2T0STI1CPQBDR","38DCH97KHHO4I6P2AJ31XKZ17OGJQZ","","7","img/land2.png","75","7","2","1","1","2","1,0.5,0.5,0.5,1,0.5,0.5,0.5,1","0.5,1,0.5,0.5,0.5,1,1,0.5,0.5","3","",""
"","html-keyboard-response","346","449218","0.0-346.0","3SBEHTYCWOPJIHUCAD4XNOJR0N3IYI","A2T0STI1CPQBDR","38DCH97KHHO4I6P2AJ31XKZ17OGJQZ","","null","<img src=""img/land2.png"" style=""width:200px; border:14px solid green;"">","null","","","","","","","","","",""
"","image-keyboard-response","347","449284","0.0-347.0","3SBEHTYCWOPJIHUCAD4XNOJR0N3IYI","A2T0STI1CPQBDR","38DCH97KHHO4I6P2AJ31XKZ17OGJQZ","","64","img/land2.png","76","66","3","0","1","2","1,0.5,0.5,0.5,1,0.5,0.5,0.5,1","0.5,1,0.5,0.5,0.5,1,1,0.5,0.5","3","",""
"","html-keyboard-response","348","449587","0.0-348.0","3SBEHTYCWOPJIHUCAD4XNOJR0N3IYI","A2T0STI1CPQBDR","38DCH97KHHO4I6P2AJ31XKZ17OGJQZ","","null","<img src=""img/land2.png"" style=""width:200px;border:14px solid red;"">","null","","","","","","","","","",""
"","image-keyboard-response","349","449632","0.0-349.0","3SBEHTYCWOPJIHUCAD4XNOJR0N3IYI","A2T0STI1CPQBDR","38DCH97KHHO4I6P2AJ31XKZ17OGJQZ","","41","img/land2.png","76","43","3","1","1","2","1,0.5,0.5,0.5,1,0.5,0.5,0.5,1","0.5,1,0.5,0.5,0.5,1,1,0.5,0.5","3","",""
"","html-keyboard-response","350","449935","0.0-350.0","3SBEHTYCWOPJIHUCAD4XNOJR0N3IYI","A2T0STI1CPQBDR","38DCH97KHHO4I6P2AJ31XKZ17OGJQZ","","null","<img src=""img/land2.png"" style=""width:200px; border:14px solid green;"">","null","","","","","","","","","",""
"","image-keyboard-response","351","450143","0.0-351.0","3SBEHTYCWOPJIHUCAD4XNOJR0N3IYI","A2T0STI1CPQBDR","38DCH97KHHO4I6P2AJ31XKZ17OGJQZ","","205","img/land4.png","74","207","1","1","2","2","1,0.5,0.5,0.5,1,0.5,0.5,0.5,1","0.5,1,0.5,0.5,0.5,1,1,0.5,0.5","3","",""
"","html-keyboard-response","352","450446","0.0-352.0","3SBEHTYCWOPJIHUCAD4XNOJR0N3IYI","A2T0STI1CPQBDR","38DCH97KHHO4I6P2AJ31XKZ17OGJQZ","","null","<img src=""img/land4.png"" style=""width:200px; border:14px solid green;"">","null","","","","","","","","","",""
"","image-keyboard-response","353","450472","0.0-353.0","3SBEHTYCWOPJIHUCAD4XNOJR0N3IYI","A2T0STI1CPQBDR","38DCH97KHHO4I6P2AJ31XKZ17OGJQZ","","19","img/land2.png","74","24","1","1","1","2","1,0.5,0.5,0.5,1,0.5,0.5,0.5,1","0.5,1,0.5,0.5,0.5,1,1,0.5,0.5","3","",""
"","html-keyboard-response","354","450773","0.0-354.0","3SBEHTYCWOPJIHUCAD4XNOJR0N3IYI","A2T0STI1CPQBDR","38DCH97KHHO4I6P2AJ31XKZ17OGJQZ","","null","<img src=""img/land2.png"" style=""width:200px; border:14px solid green;"">","null","","","","","","","","","",""
"","image-keyboard-response","355","450789","0.0-355.0","3SBEHTYCWOPJIHUCAD4XNOJR0N3IYI","A2T0STI1CPQBDR","38DCH97KHHO4I6P2AJ31XKZ17OGJQZ","","11","img/land2.png","75","15","2","1","1","2","1,0.5,0.5,0.5,1,0.5,0.5,0.5,1","0.5,1,0.5,0.5,0.5,1,1,0.5,0.5","3","",""
"","html-keyboard-response","356","451091","0.0-356.0","3SBEHTYCWOPJIHUCAD4XNOJR0N3IYI","A2T0STI1CPQBDR","38DCH97KHHO4I6P2AJ31XKZ17OGJQZ","","null","<img src=""img/land2.png"" style=""width:200px; border:14px solid green;"">","null","","","","","","","","","",""
"","image-keyboard-response","357","451101","0.0-357.0","3SBEHTYCWOPJIHUCAD4XNOJR0N3IYI","A2T0STI1CPQBDR","38DCH97KHHO4I6P2AJ31XKZ17OGJQZ","","9","img/land4.png","75","10","2","1","2","2","1,0.5,0.5,0.5,1,0.5,0.5,0.5,1","0.5,1,0.5,0.5,0.5,1,1,0.5,0.5","3","",""
"","html-keyboard-response","358","451402","0.0-358.0","3SBEHTYCWOPJIHUCAD4XNOJR0N3IYI","A2T0STI1CPQBDR","38DCH97KHHO4I6P2AJ31XKZ17OGJQZ","","null","<img src=""img/land4.png"" style=""width:200px; border:14px solid green;"">","null","","","","","","","","","",""
"","image-keyboard-response","359","451445","0.0-359.0","3SBEHTYCWOPJIHUCAD4XNOJR0N3IYI","A2T0STI1CPQBDR","38DCH97KHHO4I6P2AJ31XKZ17OGJQZ","","40","img/land2.png","74","43","1","1","1","2","1,0.5,0.5,0.5,1,0.5,0.5,0.5,1","0.5,1,0.5,0.5,0.5,1,1,0.5,0.5","3","",""
"","html-keyboard-response","360","451749","0.0-360.0","3SBEHTYCWOPJIHUCAD4XNOJR0N3IYI","A2T0STI1CPQBDR","38DCH97KHHO4I6P2AJ31XKZ17OGJQZ","","null","<img src=""img/land2.png"" style=""width:200px; border:14px solid green;"">","null","","","","","","","","","",""
"","image-keyboard-response","361","451810","0.0-361.0","3SBEHTYCWOPJIHUCAD4XNOJR0N3IYI","A2T0STI1CPQBDR","38DCH97KHHO4I6P2AJ31XKZ17OGJQZ","","57","img/land2.png","74","60","1","1","1","2","1,0.5,0.5,0.5,1,0.5,0.5,0.5,1","0.5,1,0.5,0.5,0.5,1,1,0.5,0.5","3","",""
"","html-keyboard-response","362","452113","0.0-362.0","3SBEHTYCWOPJIHUCAD4XNOJR0N3IYI","A2T0STI1CPQBDR","38DCH97KHHO4I6P2AJ31XKZ17OGJQZ","","null","<img src=""img/land2.png"" style=""width:200px; border:14px solid green;"">","null","","","","","","","","","",""
"","image-keyboard-response","363","452139","0.0-363.0","3SBEHTYCWOPJIHUCAD4XNOJR0N3IYI","A2T0STI1CPQBDR","38DCH97KHHO4I6P2AJ31XKZ17OGJQZ","","25","img/land1.png","74","25","1","1","3","2","1,0.5,0.5,0.5,1,0.5,0.5,0.5,1","0.5,1,0.5,0.5,0.5,1,1,0.5,0.5","3","",""
"","html-keyboard-response","364","452442","0.0-364.0","3SBEHTYCWOPJIHUCAD4XNOJR0N3IYI","A2T0STI1CPQBDR","38DCH97KHHO4I6P2AJ31XKZ17OGJQZ","","null","<img src=""img/land1.png"" style=""width:200px; border:14px solid green;"">","null","","","","","","","","","",""
"","image-keyboard-response","365","452508","0.0-365.0","3SBEHTYCWOPJIHUCAD4XNOJR0N3IYI","A2T0STI1CPQBDR","38DCH97KHHO4I6P2AJ31XKZ17OGJQZ","","64","img/land2.png","76","65","3","0","1","2","1,0.5,0.5,0.5,1,0.5,0.5,0.5,1","0.5,1,0.5,0.5,0.5,1,1,0.5,0.5","3","",""
"","html-keyboard-response","366","452810","0.0-366.0","3SBEHTYCWOPJIHUCAD4XNOJR0N3IYI","A2T0STI1CPQBDR","38DCH97KHHO4I6P2AJ31XKZ17OGJQZ","","null","<img src=""img/land2.png"" style=""width:200px;border:14px solid red;"">","null","","","","","","","","","",""
"","image-keyboard-response","367","452838","0.0-367.0","3SBEHTYCWOPJIHUCAD4XNOJR0N3IYI","A2T0STI1CPQBDR","38DCH97KHHO4I6P2AJ31XKZ17OGJQZ","","25","img/land1.png","76","26","3","1","3","2","1,0.5,0.5,0.5,1,0.5,0.5,0.5,1","0.5,1,0.5,0.5,0.5,1,1,0.5,0.5","3","",""
"","html-keyboard-response","368","453140","0.0-368.0","3SBEHTYCWOPJIHUCAD4XNOJR0N3IYI","A2T0STI1CPQBDR","38DCH97KHHO4I6P2AJ31XKZ17OGJQZ","","null","<img src=""img/land1.png"" style=""width:200px; border:14px solid green;"">","null","","","","","","","","","",""
"","image-keyboard-response","369","453274","0.0-369.0","3SBEHTYCWOPJIHUCAD4XNOJR0N3IYI","A2T0STI1CPQBDR","38DCH97KHHO4I6P2AJ31XKZ17OGJQZ","","131","img/land1.png","76","134","3","0","3","2","1,0.5,0.5,0.5,1,0.5,0.5,0.5,1","0.5,1,0.5,0.5,0.5,1,1,0.5,0.5","3","",""
"","html-keyboard-response","370","453577","0.0-370.0","3SBEHTYCWOPJIHUCAD4XNOJR0N3IYI","A2T0STI1CPQBDR","38DCH97KHHO4I6P2AJ31XKZ17OGJQZ","","null","<img src=""img/land1.png"" style=""width:200px;border:14px solid red;"">","null","","","","","","","","","",""
"","image-keyboard-response","371","453707","0.0-371.0","3SBEHTYCWOPJIHUCAD4XNOJR0N3IYI","A2T0STI1CPQBDR","38DCH97KHHO4I6P2AJ31XKZ17OGJQZ","","124","img/land4.png","74","127","1","0","2","2","1,0.5,0.5,0.5,1,0.5,0.5,0.5,1","0.5,1,0.5,0.5,0.5,1,1,0.5,0.5","3","",""
"","html-keyboard-response","372","454008","0.0-372.0","3SBEHTYCWOPJIHUCAD4XNOJR0N3IYI","A2T0STI1CPQBDR","38DCH97KHHO4I6P2AJ31XKZ17OGJQZ","","null","<img src=""img/land4.png"" style=""width:200px;border:14px solid red;"">","null","","","","","","","","","",""
"","image-keyboard-response","373","454381","0.0-373.0","3SBEHTYCWOPJIHUCAD4XNOJR0N3IYI","A2T0STI1CPQBDR","38DCH97KHHO4I6P2AJ31XKZ17OGJQZ","","368","img/land2.png","76","370","3","1","1","2","1,0.5,0.5,0.5,1,0.5,0.5,0.5,1","0.5,1,0.5,0.5,0.5,1,1,0.5,0.5","3","",""
"","html-keyboard-response","374","454683","0.0-374.0","3SBEHTYCWOPJIHUCAD4XNOJR0N3IYI","A2T0STI1CPQBDR","38DCH97KHHO4I6P2AJ31XKZ17OGJQZ","","null","<img src=""img/land2.png"" style=""width:200px; border:14px solid green;"">","null","","","","","","","","","",""
"","image-keyboard-response","375","454700","0.0-375.0","3SBEHTYCWOPJIHUCAD4XNOJR0N3IYI","A2T0STI1CPQBDR","38DCH97KHHO4I6P2AJ31XKZ17OGJQZ","","15","img/land2.png","74","17","1","0","1","2","1,0.5,0.5,0.5,1,0.5,0.5,0.5,1","0.5,1,0.5,0.5,0.5,1,1,0.5,0.5","3","",""
"","html-keyboard-response","376","455003","0.0-376.0","3SBEHTYCWOPJIHUCAD4XNOJR0N3IYI","A2T0STI1CPQBDR","38DCH97KHHO4I6P2AJ31XKZ17OGJQZ","","null","<img src=""img/land2.png"" style=""width:200px;border:14px solid red;"">","null","","","","","","","","","",""
"","image-keyboard-response","377","455119","0.0-377.0","3SBEHTYCWOPJIHUCAD4XNOJR0N3IYI","A2T0STI1CPQBDR","38DCH97KHHO4I6P2AJ31XKZ17OGJQZ","","114","img/land2.png","76","116","3","0","1","2","1,0.5,0.5,0.5,1,0.5,0.5,0.5,1","0.5,1,0.5,0.5,0.5,1,1,0.5,0.5","3","",""
"","html-keyboard-response","378","455421","0.0-378.0","3SBEHTYCWOPJIHUCAD4XNOJR0N3IYI","A2T0STI1CPQBDR","38DCH97KHHO4I6P2AJ31XKZ17OGJQZ","","null","<img src=""img/land2.png"" style=""width:200px;border:14px solid red;"">","null","","","","","","","","","",""
"","image-keyboard-response","379","455564","0.0-379.0","3SBEHTYCWOPJIHUCAD4XNOJR0N3IYI","A2T0STI1CPQBDR","38DCH97KHHO4I6P2AJ31XKZ17OGJQZ","","140","img/land2.png","74","142","1","0","1","2","1,0.5,0.5,0.5,1,0.5,0.5,0.5,1","0.5,1,0.5,0.5,0.5,1,1,0.5,0.5","3","",""
