"success","trial_type","trial_index","time_elapsed","internal_node_id","assignmentID","mturkID","hitID","view_history","rt","stimulus","key_press","reactionTime","a","r","s","cond","reward_cond","reward_cond_actual","reward_matrix_idx","responses","question_order"
"true","fullscreen","0","5921","0.0-0.0","34HJIJKLP6I86G0SKDF9MO5EDGDV44","A2T1LNI80EPOQR","3IH9TRB0FBLK6RLF7MSMKICTMWW1I5","","","","","","","","","","","","","",""
"","instructions","1","27624","0.0-1.0","34HJIJKLP6I86G0SKDF9MO5EDGDV44","A2T1LNI80EPOQR","3IH9TRB0FBLK6RLF7MSMKICTMWW1I5","[{""page_index"":0,""viewing_time"":1959.8999999999069},{""page_index"":1,""viewing_time"":2731.2000000001863},{""page_index"":2,""viewing_time"":3582.899999999907},{""page_index"":3,""viewing_time"":4355.5},{""page_index"":4,""viewing_time"":2586.7999999998137},{""page_index"":5,""viewing_time"":3996.100000000093},{""page_index"":6,""viewing_time"":2489.5}]","21702.100000000093","","","","","","","","","","","",""
"","image-keyboard-response","2","28957","0.0-2.0","34HJIJKLP6I86G0SKDF9MO5EDGDV44","A2T1LNI80EPOQR","3IH9TRB0FBLK6RLF7MSMKICTMWW1I5","","1331.8999999999069","img/land3.png","74","1332.5","1","1","3","2","1,0.5,0.5,0.5,1,0.5,0.5,0.5,1","1,0.5,0.5,0.5,1,0.5,0.5,0.5,1","","",""
"","html-keyboard-response","3","29264","0.0-3.0","34HJIJKLP6I86G0SKDF9MO5EDGDV44","A2T1LNI80EPOQR","3IH9TRB0FBLK6RLF7MSMKICTMWW1I5","","null","<img src=""img/land3.png"" style=""width:200px; border:14px solid green;"">","null","","","","","","","","","",""
"","image-keyboard-response","4","30148","0.0-4.0","34HJIJKLP6I86G0SKDF9MO5EDGDV44","A2T1LNI80EPOQR","3IH9TRB0FBLK6RLF7MSMKICTMWW1I5","","883.6000000000931","img/land1.png","74","884","1","1","1","2","1,0.5,0.5,0.5,1,0.5,0.5,0.5,1","1,0.5,0.5,0.5,1,0.5,0.5,0.5,1","","",""
"","html-keyboard-response","5","30449","0.0-5.0","34HJIJKLP6I86G0SKDF9MO5EDGDV44","A2T1LNI80EPOQR","3IH9TRB0FBLK6RLF7MSMKICTMWW1I5","","null","<img src=""img/land1.png"" style=""width:200px; border:14px solid green;"">","null","","","","","","","","","",""
"","image-keyboard-response","6","31039","0.0-6.0","34HJIJKLP6I86G0SKDF9MO5EDGDV44","A2T1LNI80EPOQR","3IH9TRB0FBLK6RLF7MSMKICTMWW1I5","","589.1999999997206","img/land3.png","75","589.7000000001863","2","1","3","2","1,0.5,0.5,0.5,1,0.5,0.5,0.5,1","1,0.5,0.5,0.5,1,0.5,0.5,0.5,1","","",""
"","html-keyboard-response","7","31340","0.0-7.0","34HJIJKLP6I86G0SKDF9MO5EDGDV44","A2T1LNI80EPOQR","3IH9TRB0FBLK6RLF7MSMKICTMWW1I5","","null","<img src=""img/land3.png"" style=""width:200px; border:14px solid green;"">","null","","","","","","","","","",""
"","image-keyboard-response","8","31930","0.0-8.0","34HJIJKLP6I86G0SKDF9MO5EDGDV44","A2T1LNI80EPOQR","3IH9TRB0FBLK6RLF7MSMKICTMWW1I5","","589.7999999998137","img/land3.png","76","590.3000000002794","3","1","3","2","1,0.5,0.5,0.5,1,0.5,0.5,0.5,1","1,0.5,0.5,0.5,1,0.5,0.5,0.5,1","","",""
"","html-keyboard-response","9","32232","0.0-9.0","34HJIJKLP6I86G0SKDF9MO5EDGDV44","A2T1LNI80EPOQR","3IH9TRB0FBLK6RLF7MSMKICTMWW1I5","","null","<img src=""img/land3.png"" style=""width:200px; border:14px solid green;"">","null","","","","","","","","","",""
"","image-keyboard-response","10","32820","0.0-10.0","34HJIJKLP6I86G0SKDF9MO5EDGDV44","A2T1LNI80EPOQR","3IH9TRB0FBLK6RLF7MSMKICTMWW1I5","","587.6000000000931","img/land3.png","76","588.1999999997206","3","1","3","2","1,0.5,0.5,0.5,1,0.5,0.5,0.5,1","1,0.5,0.5,0.5,1,0.5,0.5,0.5,1","","",""
"","html-keyboard-response","11","33122","0.0-11.0","34HJIJKLP6I86G0SKDF9MO5EDGDV44","A2T1LNI80EPOQR","3IH9TRB0FBLK6RLF7MSMKICTMWW1I5","","null","<img src=""img/land3.png"" style=""width:200px; border:14px solid green;"">","null","","","","","","","","","",""
"","image-keyboard-response","12","33758","0.0-12.0","34HJIJKLP6I86G0SKDF9MO5EDGDV44","A2T1LNI80EPOQR","3IH9TRB0FBLK6RLF7MSMKICTMWW1I5","","635.3999999999069","img/land1.png","75","636","2","1","1","2","1,0.5,0.5,0.5,1,0.5,0.5,0.5,1","1,0.5,0.5,0.5,1,0.5,0.5,0.5,1","","",""
"","html-keyboard-response","13","34060","0.0-13.0","34HJIJKLP6I86G0SKDF9MO5EDGDV44","A2T1LNI80EPOQR","3IH9TRB0FBLK6RLF7MSMKICTMWW1I5","","null","<img src=""img/land1.png"" style=""width:200px; border:14px solid green;"">","null","","","","","","","","","",""
"","image-keyboard-response","14","34710","0.0-14.0","34HJIJKLP6I86G0SKDF9MO5EDGDV44","A2T1LNI80EPOQR","3IH9TRB0FBLK6RLF7MSMKICTMWW1I5","","649.8999999999069","img/land2.png","74","650.4000000003725","1","0","2","2","1,0.5,0.5,0.5,1,0.5,0.5,0.5,1","1,0.5,0.5,0.5,1,0.5,0.5,0.5,1","","",""
"","html-keyboard-response","15","35012","0.0-15.0","34HJIJKLP6I86G0SKDF9MO5EDGDV44","A2T1LNI80EPOQR","3IH9TRB0FBLK6RLF7MSMKICTMWW1I5","","null","<img src=""img/land2.png"" style=""width:200px;border:14px solid red;"">","null","","","","","","","","","",""
"","image-keyboard-response","16","35468","0.0-16.0","34HJIJKLP6I86G0SKDF9MO5EDGDV44","A2T1LNI80EPOQR","3IH9TRB0FBLK6RLF7MSMKICTMWW1I5","","455.59999999962747","img/land3.png","75","456.10000000009313","2","1","3","2","1,0.5,0.5,0.5,1,0.5,0.5,0.5,1","1,0.5,0.5,0.5,1,0.5,0.5,0.5,1","","",""
"","html-keyboard-response","17","35770","0.0-17.0","34HJIJKLP6I86G0SKDF9MO5EDGDV44","A2T1LNI80EPOQR","3IH9TRB0FBLK6RLF7MSMKICTMWW1I5","","null","<img src=""img/land3.png"" style=""width:200px; border:14px solid green;"">","null","","","","","","","","","",""
"","image-keyboard-response","18","36221","0.0-18.0","34HJIJKLP6I86G0SKDF9MO5EDGDV44","A2T1LNI80EPOQR","3IH9TRB0FBLK6RLF7MSMKICTMWW1I5","","450.39999999990687","img/land3.png","76","450.89999999990687","3","1","3","2","1,0.5,0.5,0.5,1,0.5,0.5,0.5,1","1,0.5,0.5,0.5,1,0.5,0.5,0.5,1","","",""
"","html-keyboard-response","19","36522","0.0-19.0","34HJIJKLP6I86G0SKDF9MO5EDGDV44","A2T1LNI80EPOQR","3IH9TRB0FBLK6RLF7MSMKICTMWW1I5","","null","<img src=""img/land3.png"" style=""width:200px; border:14px solid green;"">","null","","","","","","","","","",""
"","image-keyboard-response","20","37093","0.0-20.0","34HJIJKLP6I86G0SKDF9MO5EDGDV44","A2T1LNI80EPOQR","3IH9TRB0FBLK6RLF7MSMKICTMWW1I5","","570.6000000000931","img/land1.png","75","571.1000000000931","2","0","1","2","1,0.5,0.5,0.5,1,0.5,0.5,0.5,1","1,0.5,0.5,0.5,1,0.5,0.5,0.5,1","","",""
"","html-keyboard-response","21","37395","0.0-21.0","34HJIJKLP6I86G0SKDF9MO5EDGDV44","A2T1LNI80EPOQR","3IH9TRB0FBLK6RLF7MSMKICTMWW1I5","","null","<img src=""img/land1.png"" style=""width:200px;border:14px solid red;"">","null","","","","","","","","","",""
"","image-keyboard-response","22","37838","0.0-22.0","34HJIJKLP6I86G0SKDF9MO5EDGDV44","A2T1LNI80EPOQR","3IH9TRB0FBLK6RLF7MSMKICTMWW1I5","","441.89999999990687","img/land1.png","74","442.5","1","1","1","2","1,0.5,0.5,0.5,1,0.5,0.5,0.5,1","1,0.5,0.5,0.5,1,0.5,0.5,0.5,1","","",""
"","html-keyboard-response","23","38139","0.0-23.0","34HJIJKLP6I86G0SKDF9MO5EDGDV44","A2T1LNI80EPOQR","3IH9TRB0FBLK6RLF7MSMKICTMWW1I5","","null","<img src=""img/land1.png"" style=""width:200px; border:14px solid green;"">","null","","","","","","","","","",""
"","image-keyboard-response","24","38584","0.0-24.0","34HJIJKLP6I86G0SKDF9MO5EDGDV44","A2T1LNI80EPOQR","3IH9TRB0FBLK6RLF7MSMKICTMWW1I5","","444.1999999997206","img/land3.png","76","444.59999999962747","3","1","3","2","1,0.5,0.5,0.5,1,0.5,0.5,0.5,1","1,0.5,0.5,0.5,1,0.5,0.5,0.5,1","","",""
"","html-keyboard-response","25","38885","0.0-25.0","34HJIJKLP6I86G0SKDF9MO5EDGDV44","A2T1LNI80EPOQR","3IH9TRB0FBLK6RLF7MSMKICTMWW1I5","","null","<img src=""img/land3.png"" style=""width:200px; border:14px solid green;"">","null","","","","","","","","","",""
"","image-keyboard-response","26","39309","0.0-26.0","34HJIJKLP6I86G0SKDF9MO5EDGDV44","A2T1LNI80EPOQR","3IH9TRB0FBLK6RLF7MSMKICTMWW1I5","","424.10000000009313","img/land2.png","75","424.79999999981374","2","1","2","2","1,0.5,0.5,0.5,1,0.5,0.5,0.5,1","1,0.5,0.5,0.5,1,0.5,0.5,0.5,1","","",""
"","html-keyboard-response","27","39612","0.0-27.0","34HJIJKLP6I86G0SKDF9MO5EDGDV44","A2T1LNI80EPOQR","3IH9TRB0FBLK6RLF7MSMKICTMWW1I5","","null","<img src=""img/land2.png"" style=""width:200px; border:14px solid green;"">","null","","","","","","","","","",""
"","image-keyboard-response","28","39943","0.0-28.0","34HJIJKLP6I86G0SKDF9MO5EDGDV44","A2T1LNI80EPOQR","3IH9TRB0FBLK6RLF7MSMKICTMWW1I5","","330.60000000009313","img/land2.png","74","331.09999999962747","1","1","2","2","1,0.5,0.5,0.5,1,0.5,0.5,0.5,1","1,0.5,0.5,0.5,1,0.5,0.5,0.5,1","","",""
"","html-keyboard-response","29","40244","0.0-29.0","34HJIJKLP6I86G0SKDF9MO5EDGDV44","A2T1LNI80EPOQR","3IH9TRB0FBLK6RLF7MSMKICTMWW1I5","","null","<img src=""img/land2.png"" style=""width:200px; border:14px solid green;"">","null","","","","","","","","","",""
"","image-keyboard-response","30","40657","0.0-30.0","34HJIJKLP6I86G0SKDF9MO5EDGDV44","A2T1LNI80EPOQR","3IH9TRB0FBLK6RLF7MSMKICTMWW1I5","","412.40000000037253","img/land3.png","75","412.89999999990687","2","1","3","2","1,0.5,0.5,0.5,1,0.5,0.5,0.5,1","1,0.5,0.5,0.5,1,0.5,0.5,0.5,1","","",""
"","html-keyboard-response","31","40972","0.0-31.0","34HJIJKLP6I86G0SKDF9MO5EDGDV44","A2T1LNI80EPOQR","3IH9TRB0FBLK6RLF7MSMKICTMWW1I5","","null","<img src=""img/land3.png"" style=""width:200px; border:14px solid green;"">","null","","","","","","","","","",""
"","image-keyboard-response","32","41311","0.0-32.0","34HJIJKLP6I86G0SKDF9MO5EDGDV44","A2T1LNI80EPOQR","3IH9TRB0FBLK6RLF7MSMKICTMWW1I5","","338.39999999990687","img/land3.png","76","339","3","1","3","2","1,0.5,0.5,0.5,1,0.5,0.5,0.5,1","1,0.5,0.5,0.5,1,0.5,0.5,0.5,1","","",""
"","html-keyboard-response","33","41613","0.0-33.0","34HJIJKLP6I86G0SKDF9MO5EDGDV44","A2T1LNI80EPOQR","3IH9TRB0FBLK6RLF7MSMKICTMWW1I5","","null","<img src=""img/land3.png"" style=""width:200px; border:14px solid green;"">","null","","","","","","","","","",""
"","image-keyboard-response","34","41968","0.0-34.0","34HJIJKLP6I86G0SKDF9MO5EDGDV44","A2T1LNI80EPOQR","3IH9TRB0FBLK6RLF7MSMKICTMWW1I5","","354.6999999997206","img/land2.png","75","355.1999999997206","2","1","2","2","1,0.5,0.5,0.5,1,0.5,0.5,0.5,1","1,0.5,0.5,0.5,1,0.5,0.5,0.5,1","","",""
"","html-keyboard-response","35","42269","0.0-35.0","34HJIJKLP6I86G0SKDF9MO5EDGDV44","A2T1LNI80EPOQR","3IH9TRB0FBLK6RLF7MSMKICTMWW1I5","","null","<img src=""img/land2.png"" style=""width:200px; border:14px solid green;"">","null","","","","","","","","","",""
"","image-keyboard-response","36","42637","0.0-36.0","34HJIJKLP6I86G0SKDF9MO5EDGDV44","A2T1LNI80EPOQR","3IH9TRB0FBLK6RLF7MSMKICTMWW1I5","","367.20000000018626","img/land3.png","74","367.5","1","0","3","2","1,0.5,0.5,0.5,1,0.5,0.5,0.5,1","1,0.5,0.5,0.5,1,0.5,0.5,0.5,1","","",""
"","html-keyboard-response","37","42939","0.0-37.0","34HJIJKLP6I86G0SKDF9MO5EDGDV44","A2T1LNI80EPOQR","3IH9TRB0FBLK6RLF7MSMKICTMWW1I5","","null","<img src=""img/land3.png"" style=""width:200px;border:14px solid red;"">","null","","","","","","","","","",""
"","image-keyboard-response","38","43335","0.0-38.0","34HJIJKLP6I86G0SKDF9MO5EDGDV44","A2T1LNI80EPOQR","3IH9TRB0FBLK6RLF7MSMKICTMWW1I5","","395.10000000009313","img/land3.png","75","395.59999999962747","2","0","3","2","1,0.5,0.5,0.5,1,0.5,0.5,0.5,1","1,0.5,0.5,0.5,1,0.5,0.5,0.5,1","","",""
"","html-keyboard-response","39","43635","0.0-39.0","34HJIJKLP6I86G0SKDF9MO5EDGDV44","A2T1LNI80EPOQR","3IH9TRB0FBLK6RLF7MSMKICTMWW1I5","","null","<img src=""img/land3.png"" style=""width:200px;border:14px solid red;"">","null","","","","","","","","","",""
"","image-keyboard-response","40","44048","0.0-40.0","34HJIJKLP6I86G0SKDF9MO5EDGDV44","A2T1LNI80EPOQR","3IH9TRB0FBLK6RLF7MSMKICTMWW1I5","","411.90000000037253","img/land3.png","76","412.29999999981374","3","1","3","2","1,0.5,0.5,0.5,1,0.5,0.5,0.5,1","1,0.5,0.5,0.5,1,0.5,0.5,0.5,1","","",""
"","html-keyboard-response","41","44350","0.0-41.0","34HJIJKLP6I86G0SKDF9MO5EDGDV44","A2T1LNI80EPOQR","3IH9TRB0FBLK6RLF7MSMKICTMWW1I5","","null","<img src=""img/land3.png"" style=""width:200px; border:14px solid green;"">","null","","","","","","","","","",""
"","image-keyboard-response","42","44832","0.0-42.0","34HJIJKLP6I86G0SKDF9MO5EDGDV44","A2T1LNI80EPOQR","3IH9TRB0FBLK6RLF7MSMKICTMWW1I5","","481.70000000018626","img/land1.png","76","482.1999999997206","3","0","1","2","1,0.5,0.5,0.5,1,0.5,0.5,0.5,1","1,0.5,0.5,0.5,1,0.5,0.5,0.5,1","","",""
"","html-keyboard-response","43","45134","0.0-43.0","34HJIJKLP6I86G0SKDF9MO5EDGDV44","A2T1LNI80EPOQR","3IH9TRB0FBLK6RLF7MSMKICTMWW1I5","","null","<img src=""img/land1.png"" style=""width:200px;border:14px solid red;"">","null","","","","","","","","","",""
"","image-keyboard-response","44","45499","0.0-44.0","34HJIJKLP6I86G0SKDF9MO5EDGDV44","A2T1LNI80EPOQR","3IH9TRB0FBLK6RLF7MSMKICTMWW1I5","","364.10000000009313","img/land3.png","75","364.60000000009313","2","0","3","2","1,0.5,0.5,0.5,1,0.5,0.5,0.5,1","1,0.5,0.5,0.5,1,0.5,0.5,0.5,1","","",""
"","html-keyboard-response","45","45800","0.0-45.0","34HJIJKLP6I86G0SKDF9MO5EDGDV44","A2T1LNI80EPOQR","3IH9TRB0FBLK6RLF7MSMKICTMWW1I5","","null","<img src=""img/land3.png"" style=""width:200px;border:14px solid red;"">","null","","","","","","","","","",""
"","image-keyboard-response","46","46218","0.0-46.0","34HJIJKLP6I86G0SKDF9MO5EDGDV44","A2T1LNI80EPOQR","3IH9TRB0FBLK6RLF7MSMKICTMWW1I5","","417.70000000018626","img/land3.png","74","418.29999999981374","1","1","3","2","1,0.5,0.5,0.5,1,0.5,0.5,0.5,1","1,0.5,0.5,0.5,1,0.5,0.5,0.5,1","","",""
"","html-keyboard-response","47","46520","0.0-47.0","34HJIJKLP6I86G0SKDF9MO5EDGDV44","A2T1LNI80EPOQR","3IH9TRB0FBLK6RLF7MSMKICTMWW1I5","","null","<img src=""img/land3.png"" style=""width:200px; border:14px solid green;"">","null","","","","","","","","","",""
"","image-keyboard-response","48","46970","0.0-48.0","34HJIJKLP6I86G0SKDF9MO5EDGDV44","A2T1LNI80EPOQR","3IH9TRB0FBLK6RLF7MSMKICTMWW1I5","","450","img/land3.png","74","450.5","1","1","3","2","1,0.5,0.5,0.5,1,0.5,0.5,0.5,1","1,0.5,0.5,0.5,1,0.5,0.5,0.5,1","","",""
"","html-keyboard-response","49","47271","0.0-49.0","34HJIJKLP6I86G0SKDF9MO5EDGDV44","A2T1LNI80EPOQR","3IH9TRB0FBLK6RLF7MSMKICTMWW1I5","","null","<img src=""img/land3.png"" style=""width:200px; border:14px solid green;"">","null","","","","","","","","","",""
"","image-keyboard-response","50","47838","0.0-50.0","34HJIJKLP6I86G0SKDF9MO5EDGDV44","A2T1LNI80EPOQR","3IH9TRB0FBLK6RLF7MSMKICTMWW1I5","","565.8000000002794","img/land2.png","75","566.2000000001863","2","1","2","2","1,0.5,0.5,0.5,1,0.5,0.5,0.5,1","1,0.5,0.5,0.5,1,0.5,0.5,0.5,1","","",""
"","html-keyboard-response","51","48139","0.0-51.0","34HJIJKLP6I86G0SKDF9MO5EDGDV44","A2T1LNI80EPOQR","3IH9TRB0FBLK6RLF7MSMKICTMWW1I5","","null","<img src=""img/land2.png"" style=""width:200px; border:14px solid green;"">","null","","","","","","","","","",""
"","image-keyboard-response","52","49014","0.0-52.0","34HJIJKLP6I86G0SKDF9MO5EDGDV44","A2T1LNI80EPOQR","3IH9TRB0FBLK6RLF7MSMKICTMWW1I5","","873.7999999998137","img/land3.png","75","874.3999999999069","2","0","3","2","1,0.5,0.5,0.5,1,0.5,0.5,0.5,1","1,0.5,0.5,0.5,1,0.5,0.5,0.5,1","","",""
"","html-keyboard-response","53","49315","0.0-53.0","34HJIJKLP6I86G0SKDF9MO5EDGDV44","A2T1LNI80EPOQR","3IH9TRB0FBLK6RLF7MSMKICTMWW1I5","","null","<img src=""img/land3.png"" style=""width:200px;border:14px solid red;"">","null","","","","","","","","","",""
"","image-keyboard-response","54","50036","0.0-54.0","34HJIJKLP6I86G0SKDF9MO5EDGDV44","A2T1LNI80EPOQR","3IH9TRB0FBLK6RLF7MSMKICTMWW1I5","","720.2000000001863","img/land1.png","75","720.7000000001863","2","1","1","2","1,0.5,0.5,0.5,1,0.5,0.5,0.5,1","1,0.5,0.5,0.5,1,0.5,0.5,0.5,1","","",""
"","html-keyboard-response","55","50337","0.0-55.0","34HJIJKLP6I86G0SKDF9MO5EDGDV44","A2T1LNI80EPOQR","3IH9TRB0FBLK6RLF7MSMKICTMWW1I5","","null","<img src=""img/land1.png"" style=""width:200px; border:14px solid green;"">","null","","","","","","","","","",""
"","image-keyboard-response","56","51071","0.0-56.0","34HJIJKLP6I86G0SKDF9MO5EDGDV44","A2T1LNI80EPOQR","3IH9TRB0FBLK6RLF7MSMKICTMWW1I5","","733","img/land3.png","75","733.3999999999069","2","0","3","2","1,0.5,0.5,0.5,1,0.5,0.5,0.5,1","1,0.5,0.5,0.5,1,0.5,0.5,0.5,1","","",""
"","html-keyboard-response","57","51372","0.0-57.0","34HJIJKLP6I86G0SKDF9MO5EDGDV44","A2T1LNI80EPOQR","3IH9TRB0FBLK6RLF7MSMKICTMWW1I5","","null","<img src=""img/land3.png"" style=""width:200px;border:14px solid red;"">","null","","","","","","","","","",""
"","image-keyboard-response","58","51723","0.0-58.0","34HJIJKLP6I86G0SKDF9MO5EDGDV44","A2T1LNI80EPOQR","3IH9TRB0FBLK6RLF7MSMKICTMWW1I5","","350.60000000009313","img/land3.png","76","351","3","1","3","2","1,0.5,0.5,0.5,1,0.5,0.5,0.5,1","1,0.5,0.5,0.5,1,0.5,0.5,0.5,1","","",""
"","html-keyboard-response","59","52025","0.0-59.0","34HJIJKLP6I86G0SKDF9MO5EDGDV44","A2T1LNI80EPOQR","3IH9TRB0FBLK6RLF7MSMKICTMWW1I5","","null","<img src=""img/land3.png"" style=""width:200px; border:14px solid green;"">","null","","","","","","","","","",""
"","image-keyboard-response","60","52984","0.0-60.0","34HJIJKLP6I86G0SKDF9MO5EDGDV44","A2T1LNI80EPOQR","3IH9TRB0FBLK6RLF7MSMKICTMWW1I5","","958.8999999999069","img/land2.png","74","959.2999999998137","1","0","2","2","1,0.5,0.5,0.5,1,0.5,0.5,0.5,1","1,0.5,0.5,0.5,1,0.5,0.5,0.5,1","","",""
"","html-keyboard-response","61","53286","0.0-61.0","34HJIJKLP6I86G0SKDF9MO5EDGDV44","A2T1LNI80EPOQR","3IH9TRB0FBLK6RLF7MSMKICTMWW1I5","","null","<img src=""img/land2.png"" style=""width:200px;border:14px solid red;"">","null","","","","","","","","","",""
"","image-keyboard-response","62","53844","0.0-62.0","34HJIJKLP6I86G0SKDF9MO5EDGDV44","A2T1LNI80EPOQR","3IH9TRB0FBLK6RLF7MSMKICTMWW1I5","","557.7999999998137","img/land3.png","75","558.2999999998137","2","1","3","2","1,0.5,0.5,0.5,1,0.5,0.5,0.5,1","1,0.5,0.5,0.5,1,0.5,0.5,0.5,1","","",""
"","html-keyboard-response","63","54146","0.0-63.0","34HJIJKLP6I86G0SKDF9MO5EDGDV44","A2T1LNI80EPOQR","3IH9TRB0FBLK6RLF7MSMKICTMWW1I5","","null","<img src=""img/land3.png"" style=""width:200px; border:14px solid green;"">","null","","","","","","","","","",""
"","image-keyboard-response","64","54613","0.0-64.0","34HJIJKLP6I86G0SKDF9MO5EDGDV44","A2T1LNI80EPOQR","3IH9TRB0FBLK6RLF7MSMKICTMWW1I5","","466.6999999997206","img/land3.png","75","467.20000000018626","2","1","3","2","1,0.5,0.5,0.5,1,0.5,0.5,0.5,1","1,0.5,0.5,0.5,1,0.5,0.5,0.5,1","","",""
"","html-keyboard-response","65","54914","0.0-65.0","34HJIJKLP6I86G0SKDF9MO5EDGDV44","A2T1LNI80EPOQR","3IH9TRB0FBLK6RLF7MSMKICTMWW1I5","","null","<img src=""img/land3.png"" style=""width:200px; border:14px solid green;"">","null","","","","","","","","","",""
"","image-keyboard-response","66","55500","0.0-66.0","34HJIJKLP6I86G0SKDF9MO5EDGDV44","A2T1LNI80EPOQR","3IH9TRB0FBLK6RLF7MSMKICTMWW1I5","","584.8999999999069","img/land2.png","76","585.2999999998137","3","0","2","2","1,0.5,0.5,0.5,1,0.5,0.5,0.5,1","1,0.5,0.5,0.5,1,0.5,0.5,0.5,1","","",""
"","html-keyboard-response","67","55802","0.0-67.0","34HJIJKLP6I86G0SKDF9MO5EDGDV44","A2T1LNI80EPOQR","3IH9TRB0FBLK6RLF7MSMKICTMWW1I5","","null","<img src=""img/land2.png"" style=""width:200px;border:14px solid red;"">","null","","","","","","","","","",""
"","image-keyboard-response","68","56448","0.0-68.0","34HJIJKLP6I86G0SKDF9MO5EDGDV44","A2T1LNI80EPOQR","3IH9TRB0FBLK6RLF7MSMKICTMWW1I5","","645.3999999999069","img/land3.png","76","645.7999999998137","3","1","3","2","1,0.5,0.5,0.5,1,0.5,0.5,0.5,1","1,0.5,0.5,0.5,1,0.5,0.5,0.5,1","","",""
"","html-keyboard-response","69","56749","0.0-69.0","34HJIJKLP6I86G0SKDF9MO5EDGDV44","A2T1LNI80EPOQR","3IH9TRB0FBLK6RLF7MSMKICTMWW1I5","","null","<img src=""img/land3.png"" style=""width:200px; border:14px solid green;"">","null","","","","","","","","","",""
"","image-keyboard-response","70","57249","0.0-70.0","34HJIJKLP6I86G0SKDF9MO5EDGDV44","A2T1LNI80EPOQR","3IH9TRB0FBLK6RLF7MSMKICTMWW1I5","","499.6999999997206","img/land3.png","76","500.20000000018626","3","1","3","2","1,0.5,0.5,0.5,1,0.5,0.5,0.5,1","1,0.5,0.5,0.5,1,0.5,0.5,0.5,1","","",""
"","html-keyboard-response","71","57551","0.0-71.0","34HJIJKLP6I86G0SKDF9MO5EDGDV44","A2T1LNI80EPOQR","3IH9TRB0FBLK6RLF7MSMKICTMWW1I5","","null","<img src=""img/land3.png"" style=""width:200px; border:14px solid green;"">","null","","","","","","","","","",""
"","image-keyboard-response","72","58052","0.0-72.0","34HJIJKLP6I86G0SKDF9MO5EDGDV44","A2T1LNI80EPOQR","3IH9TRB0FBLK6RLF7MSMKICTMWW1I5","","500.70000000018626","img/land3.png","76","501.10000000009313","3","1","3","2","1,0.5,0.5,0.5,1,0.5,0.5,0.5,1","1,0.5,0.5,0.5,1,0.5,0.5,0.5,1","","",""
"","html-keyboard-response","73","58353","0.0-73.0","34HJIJKLP6I86G0SKDF9MO5EDGDV44","A2T1LNI80EPOQR","3IH9TRB0FBLK6RLF7MSMKICTMWW1I5","","null","<img src=""img/land3.png"" style=""width:200px; border:14px solid green;"">","null","","","","","","","","","",""
"","image-keyboard-response","74","58837","0.0-74.0","34HJIJKLP6I86G0SKDF9MO5EDGDV44","A2T1LNI80EPOQR","3IH9TRB0FBLK6RLF7MSMKICTMWW1I5","","482.6999999997206","img/land3.png","76","483.10000000009313","3","1","3","2","1,0.5,0.5,0.5,1,0.5,0.5,0.5,1","1,0.5,0.5,0.5,1,0.5,0.5,0.5,1","","",""
"","html-keyboard-response","75","59138","0.0-75.0","34HJIJKLP6I86G0SKDF9MO5EDGDV44","A2T1LNI80EPOQR","3IH9TRB0FBLK6RLF7MSMKICTMWW1I5","","null","<img src=""img/land3.png"" style=""width:200px; border:14px solid green;"">","null","","","","","","","","","",""
"","image-keyboard-response","76","59602","0.0-76.0","34HJIJKLP6I86G0SKDF9MO5EDGDV44","A2T1LNI80EPOQR","3IH9TRB0FBLK6RLF7MSMKICTMWW1I5","","463.6999999997206","img/land3.png","76","464.20000000018626","3","1","3","2","1,0.5,0.5,0.5,1,0.5,0.5,0.5,1","1,0.5,0.5,0.5,1,0.5,0.5,0.5,1","","",""
"","html-keyboard-response","77","59904","0.0-77.0","34HJIJKLP6I86G0SKDF9MO5EDGDV44","A2T1LNI80EPOQR","3IH9TRB0FBLK6RLF7MSMKICTMWW1I5","","null","<img src=""img/land3.png"" style=""width:200px; border:14px solid green;"">","null","","","","","","","","","",""
"","image-keyboard-response","78","60461","0.0-78.0","34HJIJKLP6I86G0SKDF9MO5EDGDV44","A2T1LNI80EPOQR","3IH9TRB0FBLK6RLF7MSMKICTMWW1I5","","556.4000000003725","img/land1.png","75","556.7999999998137","2","1","1","2","1,0.5,0.5,0.5,1,0.5,0.5,0.5,1","1,0.5,0.5,0.5,1,0.5,0.5,0.5,1","","",""
"","html-keyboard-response","79","60762","0.0-79.0","34HJIJKLP6I86G0SKDF9MO5EDGDV44","A2T1LNI80EPOQR","3IH9TRB0FBLK6RLF7MSMKICTMWW1I5","","null","<img src=""img/land1.png"" style=""width:200px; border:14px solid green;"">","null","","","","","","","","","",""
"","image-keyboard-response","80","61237","0.0-80.0","34HJIJKLP6I86G0SKDF9MO5EDGDV44","A2T1LNI80EPOQR","3IH9TRB0FBLK6RLF7MSMKICTMWW1I5","","473.60000000009313","img/land3.png","74","474.10000000009313","1","0","3","2","1,0.5,0.5,0.5,1,0.5,0.5,0.5,1","1,0.5,0.5,0.5,1,0.5,0.5,0.5,1","","",""
"","html-keyboard-response","81","61539","0.0-81.0","34HJIJKLP6I86G0SKDF9MO5EDGDV44","A2T1LNI80EPOQR","3IH9TRB0FBLK6RLF7MSMKICTMWW1I5","","null","<img src=""img/land3.png"" style=""width:200px;border:14px solid red;"">","null","","","","","","","","","",""
"","image-keyboard-response","82","61917","0.0-82.0","34HJIJKLP6I86G0SKDF9MO5EDGDV44","A2T1LNI80EPOQR","3IH9TRB0FBLK6RLF7MSMKICTMWW1I5","","377.20000000018626","img/land3.png","75","377.8000000002794","2","0","3","2","1,0.5,0.5,0.5,1,0.5,0.5,0.5,1","1,0.5,0.5,0.5,1,0.5,0.5,0.5,1","","",""
"","html-keyboard-response","83","62229","0.0-83.0","34HJIJKLP6I86G0SKDF9MO5EDGDV44","A2T1LNI80EPOQR","3IH9TRB0FBLK6RLF7MSMKICTMWW1I5","","null","<img src=""img/land3.png"" style=""width:200px;border:14px solid red;"">","null","","","","","","","","","",""
"","image-keyboard-response","84","62627","0.0-84.0","34HJIJKLP6I86G0SKDF9MO5EDGDV44","A2T1LNI80EPOQR","3IH9TRB0FBLK6RLF7MSMKICTMWW1I5","","397.6999999997206","img/land3.png","76","398.20000000018626","3","1","3","2","1,0.5,0.5,0.5,1,0.5,0.5,0.5,1","1,0.5,0.5,0.5,1,0.5,0.5,0.5,1","","",""
"","html-keyboard-response","85","62931","0.0-85.0","34HJIJKLP6I86G0SKDF9MO5EDGDV44","A2T1LNI80EPOQR","3IH9TRB0FBLK6RLF7MSMKICTMWW1I5","","null","<img src=""img/land3.png"" style=""width:200px; border:14px solid green;"">","null","","","","","","","","","",""
"","image-keyboard-response","86","63429","0.0-86.0","34HJIJKLP6I86G0SKDF9MO5EDGDV44","A2T1LNI80EPOQR","3IH9TRB0FBLK6RLF7MSMKICTMWW1I5","","496.90000000037253","img/land3.png","76","497.29999999981374","3","1","3","2","1,0.5,0.5,0.5,1,0.5,0.5,0.5,1","1,0.5,0.5,0.5,1,0.5,0.5,0.5,1","","",""
"","html-keyboard-response","87","63730","0.0-87.0","34HJIJKLP6I86G0SKDF9MO5EDGDV44","A2T1LNI80EPOQR","3IH9TRB0FBLK6RLF7MSMKICTMWW1I5","","null","<img src=""img/land3.png"" style=""width:200px; border:14px solid green;"">","null","","","","","","","","","",""
"","image-keyboard-response","88","64255","0.0-88.0","34HJIJKLP6I86G0SKDF9MO5EDGDV44","A2T1LNI80EPOQR","3IH9TRB0FBLK6RLF7MSMKICTMWW1I5","","524.2999999998137","img/land3.png","76","524.6999999997206","3","1","3","2","1,0.5,0.5,0.5,1,0.5,0.5,0.5,1","1,0.5,0.5,0.5,1,0.5,0.5,0.5,1","","",""
"","html-keyboard-response","89","64556","0.0-89.0","34HJIJKLP6I86G0SKDF9MO5EDGDV44","A2T1LNI80EPOQR","3IH9TRB0FBLK6RLF7MSMKICTMWW1I5","","null","<img src=""img/land3.png"" style=""width:200px; border:14px solid green;"">","null","","","","","","","","","",""
"","image-keyboard-response","90","65048","0.0-90.0","34HJIJKLP6I86G0SKDF9MO5EDGDV44","A2T1LNI80EPOQR","3IH9TRB0FBLK6RLF7MSMKICTMWW1I5","","491","img/land3.png","76","491.6999999997206","3","1","3","2","1,0.5,0.5,0.5,1,0.5,0.5,0.5,1","1,0.5,0.5,0.5,1,0.5,0.5,0.5,1","","",""
"","html-keyboard-response","91","65350","0.0-91.0","34HJIJKLP6I86G0SKDF9MO5EDGDV44","A2T1LNI80EPOQR","3IH9TRB0FBLK6RLF7MSMKICTMWW1I5","","null","<img src=""img/land3.png"" style=""width:200px; border:14px solid green;"">","null","","","","","","","","","",""
"","image-keyboard-response","92","65842","0.0-92.0","34HJIJKLP6I86G0SKDF9MO5EDGDV44","A2T1LNI80EPOQR","3IH9TRB0FBLK6RLF7MSMKICTMWW1I5","","491.20000000018626","img/land2.png","75","491.79999999981374","2","1","2","2","1,0.5,0.5,0.5,1,0.5,0.5,0.5,1","1,0.5,0.5,0.5,1,0.5,0.5,0.5,1","","",""
"","html-keyboard-response","93","66144","0.0-93.0","34HJIJKLP6I86G0SKDF9MO5EDGDV44","A2T1LNI80EPOQR","3IH9TRB0FBLK6RLF7MSMKICTMWW1I5","","null","<img src=""img/land2.png"" style=""width:200px; border:14px solid green;"">","null","","","","","","","","","",""
"","image-keyboard-response","94","66619","0.0-94.0","34HJIJKLP6I86G0SKDF9MO5EDGDV44","A2T1LNI80EPOQR","3IH9TRB0FBLK6RLF7MSMKICTMWW1I5","","473.89999999990687","img/land2.png","74","474.40000000037253","1","1","2","2","1,0.5,0.5,0.5,1,0.5,0.5,0.5,1","1,0.5,0.5,0.5,1,0.5,0.5,0.5,1","","",""
"","html-keyboard-response","95","66920","0.0-95.0","34HJIJKLP6I86G0SKDF9MO5EDGDV44","A2T1LNI80EPOQR","3IH9TRB0FBLK6RLF7MSMKICTMWW1I5","","null","<img src=""img/land2.png"" style=""width:200px; border:14px solid green;"">","null","","","","","","","","","",""
"","image-keyboard-response","96","67366","0.0-96.0","34HJIJKLP6I86G0SKDF9MO5EDGDV44","A2T1LNI80EPOQR","3IH9TRB0FBLK6RLF7MSMKICTMWW1I5","","445.8000000002794","img/land2.png","75","446.29999999981374","2","1","2","2","1,0.5,0.5,0.5,1,0.5,0.5,0.5,1","1,0.5,0.5,0.5,1,0.5,0.5,0.5,1","","",""
"","html-keyboard-response","97","67668","0.0-97.0","34HJIJKLP6I86G0SKDF9MO5EDGDV44","A2T1LNI80EPOQR","3IH9TRB0FBLK6RLF7MSMKICTMWW1I5","","null","<img src=""img/land2.png"" style=""width:200px; border:14px solid green;"">","null","","","","","","","","","",""
"","image-keyboard-response","98","68270","0.0-98.0","34HJIJKLP6I86G0SKDF9MO5EDGDV44","A2T1LNI80EPOQR","3IH9TRB0FBLK6RLF7MSMKICTMWW1I5","","601.3000000002794","img/land3.png","75","601.6999999997206","2","1","3","2","1,0.5,0.5,0.5,1,0.5,0.5,0.5,1","1,0.5,0.5,0.5,1,0.5,0.5,0.5,1","","",""
"","html-keyboard-response","99","68571","0.0-99.0","34HJIJKLP6I86G0SKDF9MO5EDGDV44","A2T1LNI80EPOQR","3IH9TRB0FBLK6RLF7MSMKICTMWW1I5","","null","<img src=""img/land3.png"" style=""width:200px; border:14px solid green;"">","null","","","","","","","","","",""
"","image-keyboard-response","100","69032","0.0-100.0","34HJIJKLP6I86G0SKDF9MO5EDGDV44","A2T1LNI80EPOQR","3IH9TRB0FBLK6RLF7MSMKICTMWW1I5","","459.70000000018626","img/land2.png","76","460.1999999997206","3","0","2","2","1,0.5,0.5,0.5,1,0.5,0.5,0.5,1","1,0.5,0.5,0.5,1,0.5,0.5,0.5,1","","",""
"","html-keyboard-response","101","69333","0.0-101.0","34HJIJKLP6I86G0SKDF9MO5EDGDV44","A2T1LNI80EPOQR","3IH9TRB0FBLK6RLF7MSMKICTMWW1I5","","null","<img src=""img/land2.png"" style=""width:200px;border:14px solid red;"">","null","","","","","","","","","",""
"","image-keyboard-response","102","69777","0.0-102.0","34HJIJKLP6I86G0SKDF9MO5EDGDV44","A2T1LNI80EPOQR","3IH9TRB0FBLK6RLF7MSMKICTMWW1I5","","442.70000000018626","img/land3.png","75","443.29999999981374","2","1","3","2","1,0.5,0.5,0.5,1,0.5,0.5,0.5,1","1,0.5,0.5,0.5,1,0.5,0.5,0.5,1","","",""
"","html-keyboard-response","103","70078","0.0-103.0","34HJIJKLP6I86G0SKDF9MO5EDGDV44","A2T1LNI80EPOQR","3IH9TRB0FBLK6RLF7MSMKICTMWW1I5","","null","<img src=""img/land3.png"" style=""width:200px; border:14px solid green;"">","null","","","","","","","","","",""
"","image-keyboard-response","104","70488","0.0-104.0","34HJIJKLP6I86G0SKDF9MO5EDGDV44","A2T1LNI80EPOQR","3IH9TRB0FBLK6RLF7MSMKICTMWW1I5","","409.5","img/land3.png","74","410","1","0","3","2","1,0.5,0.5,0.5,1,0.5,0.5,0.5,1","1,0.5,0.5,0.5,1,0.5,0.5,0.5,1","","",""
"","html-keyboard-response","105","70789","0.0-105.0","34HJIJKLP6I86G0SKDF9MO5EDGDV44","A2T1LNI80EPOQR","3IH9TRB0FBLK6RLF7MSMKICTMWW1I5","","null","<img src=""img/land3.png"" style=""width:200px;border:14px solid red;"">","null","","","","","","","","","",""
"","image-keyboard-response","106","71231","0.0-106.0","34HJIJKLP6I86G0SKDF9MO5EDGDV44","A2T1LNI80EPOQR","3IH9TRB0FBLK6RLF7MSMKICTMWW1I5","","441.79999999981374","img/land2.png","75","442.1999999997206","2","1","2","2","1,0.5,0.5,0.5,1,0.5,0.5,0.5,1","1,0.5,0.5,0.5,1,0.5,0.5,0.5,1","","",""
"","html-keyboard-response","107","71532","0.0-107.0","34HJIJKLP6I86G0SKDF9MO5EDGDV44","A2T1LNI80EPOQR","3IH9TRB0FBLK6RLF7MSMKICTMWW1I5","","null","<img src=""img/land2.png"" style=""width:200px; border:14px solid green;"">","null","","","","","","","","","",""
"","image-keyboard-response","108","72028","0.0-108.0","34HJIJKLP6I86G0SKDF9MO5EDGDV44","A2T1LNI80EPOQR","3IH9TRB0FBLK6RLF7MSMKICTMWW1I5","","494.8000000002794","img/land3.png","75","495.39999999990687","2","1","3","2","1,0.5,0.5,0.5,1,0.5,0.5,0.5,1","1,0.5,0.5,0.5,1,0.5,0.5,0.5,1","","",""
"","html-keyboard-response","109","72330","0.0-109.0","34HJIJKLP6I86G0SKDF9MO5EDGDV44","A2T1LNI80EPOQR","3IH9TRB0FBLK6RLF7MSMKICTMWW1I5","","null","<img src=""img/land3.png"" style=""width:200px; border:14px solid green;"">","null","","","","","","","","","",""
"","image-keyboard-response","110","72824","0.0-110.0","34HJIJKLP6I86G0SKDF9MO5EDGDV44","A2T1LNI80EPOQR","3IH9TRB0FBLK6RLF7MSMKICTMWW1I5","","494.1999999997206","img/land1.png","75","494.6999999997206","2","1","1","2","1,0.5,0.5,0.5,1,0.5,0.5,0.5,1","1,0.5,0.5,0.5,1,0.5,0.5,0.5,1","","",""
"","html-keyboard-response","111","73125","0.0-111.0","34HJIJKLP6I86G0SKDF9MO5EDGDV44","A2T1LNI80EPOQR","3IH9TRB0FBLK6RLF7MSMKICTMWW1I5","","null","<img src=""img/land1.png"" style=""width:200px; border:14px solid green;"">","null","","","","","","","","","",""
"","image-keyboard-response","112","73564","0.0-112.0","34HJIJKLP6I86G0SKDF9MO5EDGDV44","A2T1LNI80EPOQR","3IH9TRB0FBLK6RLF7MSMKICTMWW1I5","","438.60000000009313","img/land1.png","75","439.20000000018626","2","0","1","2","1,0.5,0.5,0.5,1,0.5,0.5,0.5,1","1,0.5,0.5,0.5,1,0.5,0.5,0.5,1","","",""
"","html-keyboard-response","113","73866","0.0-113.0","34HJIJKLP6I86G0SKDF9MO5EDGDV44","A2T1LNI80EPOQR","3IH9TRB0FBLK6RLF7MSMKICTMWW1I5","","null","<img src=""img/land1.png"" style=""width:200px;border:14px solid red;"">","null","","","","","","","","","",""
"","image-keyboard-response","114","74262","0.0-114.0","34HJIJKLP6I86G0SKDF9MO5EDGDV44","A2T1LNI80EPOQR","3IH9TRB0FBLK6RLF7MSMKICTMWW1I5","","395","img/land1.png","75","395.3000000002794","2","1","1","2","1,0.5,0.5,0.5,1,0.5,0.5,0.5,1","1,0.5,0.5,0.5,1,0.5,0.5,0.5,1","","",""
"","html-keyboard-response","115","74563","0.0-115.0","34HJIJKLP6I86G0SKDF9MO5EDGDV44","A2T1LNI80EPOQR","3IH9TRB0FBLK6RLF7MSMKICTMWW1I5","","null","<img src=""img/land1.png"" style=""width:200px; border:14px solid green;"">","null","","","","","","","","","",""
"","image-keyboard-response","116","75024","0.0-116.0","34HJIJKLP6I86G0SKDF9MO5EDGDV44","A2T1LNI80EPOQR","3IH9TRB0FBLK6RLF7MSMKICTMWW1I5","","460.8000000002794","img/land3.png","75","461.1999999997206","2","0","3","2","1,0.5,0.5,0.5,1,0.5,0.5,0.5,1","1,0.5,0.5,0.5,1,0.5,0.5,0.5,1","","",""
"","html-keyboard-response","117","75326","0.0-117.0","34HJIJKLP6I86G0SKDF9MO5EDGDV44","A2T1LNI80EPOQR","3IH9TRB0FBLK6RLF7MSMKICTMWW1I5","","null","<img src=""img/land3.png"" style=""width:200px;border:14px solid red;"">","null","","","","","","","","","",""
"","image-keyboard-response","118","75696","0.0-118.0","34HJIJKLP6I86G0SKDF9MO5EDGDV44","A2T1LNI80EPOQR","3IH9TRB0FBLK6RLF7MSMKICTMWW1I5","","369.5","img/land3.png","75","370.20000000018626","2","0","3","2","1,0.5,0.5,0.5,1,0.5,0.5,0.5,1","1,0.5,0.5,0.5,1,0.5,0.5,0.5,1","","",""
"","html-keyboard-response","119","75998","0.0-119.0","34HJIJKLP6I86G0SKDF9MO5EDGDV44","A2T1LNI80EPOQR","3IH9TRB0FBLK6RLF7MSMKICTMWW1I5","","null","<img src=""img/land3.png"" style=""width:200px;border:14px solid red;"">","null","","","","","","","","","",""
"","image-keyboard-response","120","76374","0.0-120.0","34HJIJKLP6I86G0SKDF9MO5EDGDV44","A2T1LNI80EPOQR","3IH9TRB0FBLK6RLF7MSMKICTMWW1I5","","376","img/land3.png","75","376.39999999990687","2","0","3","2","1,0.5,0.5,0.5,1,0.5,0.5,0.5,1","1,0.5,0.5,0.5,1,0.5,0.5,0.5,1","","",""
"","html-keyboard-response","121","76676","0.0-121.0","34HJIJKLP6I86G0SKDF9MO5EDGDV44","A2T1LNI80EPOQR","3IH9TRB0FBLK6RLF7MSMKICTMWW1I5","","null","<img src=""img/land3.png"" style=""width:200px;border:14px solid red;"">","null","","","","","","","","","",""
"","image-keyboard-response","122","77073","0.0-122.0","34HJIJKLP6I86G0SKDF9MO5EDGDV44","A2T1LNI80EPOQR","3IH9TRB0FBLK6RLF7MSMKICTMWW1I5","","396.60000000009313","img/land3.png","76","397.1999999997206","3","1","3","2","1,0.5,0.5,0.5,1,0.5,0.5,0.5,1","1,0.5,0.5,0.5,1,0.5,0.5,0.5,1","","",""
"","html-keyboard-response","123","77375","0.0-123.0","34HJIJKLP6I86G0SKDF9MO5EDGDV44","A2T1LNI80EPOQR","3IH9TRB0FBLK6RLF7MSMKICTMWW1I5","","null","<img src=""img/land3.png"" style=""width:200px; border:14px solid green;"">","null","","","","","","","","","",""
"","image-keyboard-response","124","77815","0.0-124.0","34HJIJKLP6I86G0SKDF9MO5EDGDV44","A2T1LNI80EPOQR","3IH9TRB0FBLK6RLF7MSMKICTMWW1I5","","438.79999999981374","img/land3.png","76","439.29999999981374","3","1","3","2","1,0.5,0.5,0.5,1,0.5,0.5,0.5,1","1,0.5,0.5,0.5,1,0.5,0.5,0.5,1","","",""
"","html-keyboard-response","125","78125","0.0-125.0","34HJIJKLP6I86G0SKDF9MO5EDGDV44","A2T1LNI80EPOQR","3IH9TRB0FBLK6RLF7MSMKICTMWW1I5","","null","<img src=""img/land3.png"" style=""width:200px; border:14px solid green;"">","null","","","","","","","","","",""
"","image-keyboard-response","126","78786","0.0-126.0","34HJIJKLP6I86G0SKDF9MO5EDGDV44","A2T1LNI80EPOQR","3IH9TRB0FBLK6RLF7MSMKICTMWW1I5","","660.5","img/land1.png","75","660.8999999999069","2","0","1","2","1,0.5,0.5,0.5,1,0.5,0.5,0.5,1","1,0.5,0.5,0.5,1,0.5,0.5,0.5,1","","",""
"","html-keyboard-response","127","79088","0.0-127.0","34HJIJKLP6I86G0SKDF9MO5EDGDV44","A2T1LNI80EPOQR","3IH9TRB0FBLK6RLF7MSMKICTMWW1I5","","null","<img src=""img/land1.png"" style=""width:200px;border:14px solid red;"">","null","","","","","","","","","",""
"","image-keyboard-response","128","79520","0.0-128.0","34HJIJKLP6I86G0SKDF9MO5EDGDV44","A2T1LNI80EPOQR","3IH9TRB0FBLK6RLF7MSMKICTMWW1I5","","431.39999999990687","img/land1.png","75","431.90000000037253","2","0","1","2","1,0.5,0.5,0.5,1,0.5,0.5,0.5,1","1,0.5,0.5,0.5,1,0.5,0.5,0.5,1","","",""
"","html-keyboard-response","129","79822","0.0-129.0","34HJIJKLP6I86G0SKDF9MO5EDGDV44","A2T1LNI80EPOQR","3IH9TRB0FBLK6RLF7MSMKICTMWW1I5","","null","<img src=""img/land1.png"" style=""width:200px;border:14px solid red;"">","null","","","","","","","","","",""
"","image-keyboard-response","130","80594","0.0-130.0","34HJIJKLP6I86G0SKDF9MO5EDGDV44","A2T1LNI80EPOQR","3IH9TRB0FBLK6RLF7MSMKICTMWW1I5","","771.7999999998137","img/land3.png","76","772.3000000002794","3","1","3","2","1,0.5,0.5,0.5,1,0.5,0.5,0.5,1","1,0.5,0.5,0.5,1,0.5,0.5,0.5,1","","",""
"","html-keyboard-response","131","80895","0.0-131.0","34HJIJKLP6I86G0SKDF9MO5EDGDV44","A2T1LNI80EPOQR","3IH9TRB0FBLK6RLF7MSMKICTMWW1I5","","null","<img src=""img/land3.png"" style=""width:200px; border:14px solid green;"">","null","","","","","","","","","",""
"","image-keyboard-response","132","81284","0.0-132.0","34HJIJKLP6I86G0SKDF9MO5EDGDV44","A2T1LNI80EPOQR","3IH9TRB0FBLK6RLF7MSMKICTMWW1I5","","388.79999999981374","img/land3.png","76","389.20000000018626","3","1","3","2","1,0.5,0.5,0.5,1,0.5,0.5,0.5,1","1,0.5,0.5,0.5,1,0.5,0.5,0.5,1","","",""
"","html-keyboard-response","133","81585","0.0-133.0","34HJIJKLP6I86G0SKDF9MO5EDGDV44","A2T1LNI80EPOQR","3IH9TRB0FBLK6RLF7MSMKICTMWW1I5","","null","<img src=""img/land3.png"" style=""width:200px; border:14px solid green;"">","null","","","","","","","","","",""
"","image-keyboard-response","134","82266","0.0-134.0","34HJIJKLP6I86G0SKDF9MO5EDGDV44","A2T1LNI80EPOQR","3IH9TRB0FBLK6RLF7MSMKICTMWW1I5","","679.5","img/land1.png","75","680","2","1","1","2","1,0.5,0.5,0.5,1,0.5,0.5,0.5,1","1,0.5,0.5,0.5,1,0.5,0.5,0.5,1","","",""
"","html-keyboard-response","135","82578","0.0-135.0","34HJIJKLP6I86G0SKDF9MO5EDGDV44","A2T1LNI80EPOQR","3IH9TRB0FBLK6RLF7MSMKICTMWW1I5","","null","<img src=""img/land1.png"" style=""width:200px; border:14px solid green;"">","null","","","","","","","","","",""
"","image-keyboard-response","136","83238","0.0-136.0","34HJIJKLP6I86G0SKDF9MO5EDGDV44","A2T1LNI80EPOQR","3IH9TRB0FBLK6RLF7MSMKICTMWW1I5","","659.3999999999069","img/land3.png","76","659.8999999999069","3","1","3","2","1,0.5,0.5,0.5,1,0.5,0.5,0.5,1","1,0.5,0.5,0.5,1,0.5,0.5,0.5,1","","",""
"","html-keyboard-response","137","83540","0.0-137.0","34HJIJKLP6I86G0SKDF9MO5EDGDV44","A2T1LNI80EPOQR","3IH9TRB0FBLK6RLF7MSMKICTMWW1I5","","null","<img src=""img/land3.png"" style=""width:200px; border:14px solid green;"">","null","","","","","","","","","",""
"","image-keyboard-response","138","83900","0.0-138.0","34HJIJKLP6I86G0SKDF9MO5EDGDV44","A2T1LNI80EPOQR","3IH9TRB0FBLK6RLF7MSMKICTMWW1I5","","358","img/land3.png","76","358.5","3","1","3","2","1,0.5,0.5,0.5,1,0.5,0.5,0.5,1","1,0.5,0.5,0.5,1,0.5,0.5,0.5,1","","",""
"","html-keyboard-response","139","84201","0.0-139.0","34HJIJKLP6I86G0SKDF9MO5EDGDV44","A2T1LNI80EPOQR","3IH9TRB0FBLK6RLF7MSMKICTMWW1I5","","null","<img src=""img/land3.png"" style=""width:200px; border:14px solid green;"">","null","","","","","","","","","",""
"","image-keyboard-response","140","84559","0.0-140.0","34HJIJKLP6I86G0SKDF9MO5EDGDV44","A2T1LNI80EPOQR","3IH9TRB0FBLK6RLF7MSMKICTMWW1I5","","356.89999999990687","img/land3.png","76","357.5","3","1","3","2","1,0.5,0.5,0.5,1,0.5,0.5,0.5,1","1,0.5,0.5,0.5,1,0.5,0.5,0.5,1","","",""
"","html-keyboard-response","141","84860","0.0-141.0","34HJIJKLP6I86G0SKDF9MO5EDGDV44","A2T1LNI80EPOQR","3IH9TRB0FBLK6RLF7MSMKICTMWW1I5","","null","<img src=""img/land3.png"" style=""width:200px; border:14px solid green;"">","null","","","","","","","","","",""
"","image-keyboard-response","142","85211","0.0-142.0","34HJIJKLP6I86G0SKDF9MO5EDGDV44","A2T1LNI80EPOQR","3IH9TRB0FBLK6RLF7MSMKICTMWW1I5","","350.89999999990687","img/land3.png","76","351.5","3","1","3","2","1,0.5,0.5,0.5,1,0.5,0.5,0.5,1","1,0.5,0.5,0.5,1,0.5,0.5,0.5,1","","",""
"","html-keyboard-response","143","85513","0.0-143.0","34HJIJKLP6I86G0SKDF9MO5EDGDV44","A2T1LNI80EPOQR","3IH9TRB0FBLK6RLF7MSMKICTMWW1I5","","null","<img src=""img/land3.png"" style=""width:200px; border:14px solid green;"">","null","","","","","","","","","",""
"","image-keyboard-response","144","85875","0.0-144.0","34HJIJKLP6I86G0SKDF9MO5EDGDV44","A2T1LNI80EPOQR","3IH9TRB0FBLK6RLF7MSMKICTMWW1I5","","362","img/land3.png","76","362.39999999990687","3","1","3","2","1,0.5,0.5,0.5,1,0.5,0.5,0.5,1","1,0.5,0.5,0.5,1,0.5,0.5,0.5,1","","",""
"","html-keyboard-response","145","86177","0.0-145.0","34HJIJKLP6I86G0SKDF9MO5EDGDV44","A2T1LNI80EPOQR","3IH9TRB0FBLK6RLF7MSMKICTMWW1I5","","null","<img src=""img/land3.png"" style=""width:200px; border:14px solid green;"">","null","","","","","","","","","",""
"","image-keyboard-response","146","86720","0.0-146.0","34HJIJKLP6I86G0SKDF9MO5EDGDV44","A2T1LNI80EPOQR","3IH9TRB0FBLK6RLF7MSMKICTMWW1I5","","542.7000000001863","img/land2.png","75","543.2999999998137","2","1","2","2","1,0.5,0.5,0.5,1,0.5,0.5,0.5,1","1,0.5,0.5,0.5,1,0.5,0.5,0.5,1","","",""
"","html-keyboard-response","147","87022","0.0-147.0","34HJIJKLP6I86G0SKDF9MO5EDGDV44","A2T1LNI80EPOQR","3IH9TRB0FBLK6RLF7MSMKICTMWW1I5","","null","<img src=""img/land2.png"" style=""width:200px; border:14px solid green;"">","null","","","","","","","","","",""
"","image-keyboard-response","148","88352","0.0-148.0","34HJIJKLP6I86G0SKDF9MO5EDGDV44","A2T1LNI80EPOQR","3IH9TRB0FBLK6RLF7MSMKICTMWW1I5","","1329.2000000001863","img/land3.png","75","1329.7000000001863","2","0","3","2","1,0.5,0.5,0.5,1,0.5,0.5,0.5,1","1,0.5,0.5,0.5,1,0.5,0.5,0.5,1","","",""
"","html-keyboard-response","149","88653","0.0-149.0","34HJIJKLP6I86G0SKDF9MO5EDGDV44","A2T1LNI80EPOQR","3IH9TRB0FBLK6RLF7MSMKICTMWW1I5","","null","<img src=""img/land3.png"" style=""width:200px;border:14px solid red;"">","null","","","","","","","","","",""
"","image-keyboard-response","150","88824","0.0-150.0","34HJIJKLP6I86G0SKDF9MO5EDGDV44","A2T1LNI80EPOQR","3IH9TRB0FBLK6RLF7MSMKICTMWW1I5","","170.29999999981374","img/land1.png","76","170.8000000002794","3","0","1","2","1,0.5,0.5,0.5,1,0.5,0.5,0.5,1","1,0.5,0.5,0.5,1,0.5,0.5,0.5,1","","",""
"","html-keyboard-response","151","89126","0.0-151.0","34HJIJKLP6I86G0SKDF9MO5EDGDV44","A2T1LNI80EPOQR","3IH9TRB0FBLK6RLF7MSMKICTMWW1I5","","null","<img src=""img/land1.png"" style=""width:200px;border:14px solid red;"">","null","","","","","","","","","",""
"","image-keyboard-response","152","89596","0.0-152.0","34HJIJKLP6I86G0SKDF9MO5EDGDV44","A2T1LNI80EPOQR","3IH9TRB0FBLK6RLF7MSMKICTMWW1I5","","469.79999999981374","img/land1.png","76","470.09999999962747","3","1","1","2","1,0.5,0.5,0.5,1,0.5,0.5,0.5,1","1,0.5,0.5,0.5,1,0.5,0.5,0.5,1","","",""
"","html-keyboard-response","153","89897","0.0-153.0","34HJIJKLP6I86G0SKDF9MO5EDGDV44","A2T1LNI80EPOQR","3IH9TRB0FBLK6RLF7MSMKICTMWW1I5","","null","<img src=""img/land1.png"" style=""width:200px; border:14px solid green;"">","null","","","","","","","","","",""
"","image-keyboard-response","154","90609","0.0-154.0","34HJIJKLP6I86G0SKDF9MO5EDGDV44","A2T1LNI80EPOQR","3IH9TRB0FBLK6RLF7MSMKICTMWW1I5","","711.2999999998137","img/land2.png","75","711.8000000002794","2","1","2","2","1,0.5,0.5,0.5,1,0.5,0.5,0.5,1","1,0.5,0.5,0.5,1,0.5,0.5,0.5,1","","",""
"","html-keyboard-response","155","90911","0.0-155.0","34HJIJKLP6I86G0SKDF9MO5EDGDV44","A2T1LNI80EPOQR","3IH9TRB0FBLK6RLF7MSMKICTMWW1I5","","null","<img src=""img/land2.png"" style=""width:200px; border:14px solid green;"">","null","","","","","","","","","",""
"","image-keyboard-response","156","91496","0.0-156.0","34HJIJKLP6I86G0SKDF9MO5EDGDV44","A2T1LNI80EPOQR","3IH9TRB0FBLK6RLF7MSMKICTMWW1I5","","584.3999999999069","img/land3.png","76","585","3","1","3","2","1,0.5,0.5,0.5,1,0.5,0.5,0.5,1","1,0.5,0.5,0.5,1,0.5,0.5,0.5,1","","",""
"","html-keyboard-response","157","91808","0.0-157.0","34HJIJKLP6I86G0SKDF9MO5EDGDV44","A2T1LNI80EPOQR","3IH9TRB0FBLK6RLF7MSMKICTMWW1I5","","null","<img src=""img/land3.png"" style=""width:200px; border:14px solid green;"">","null","","","","","","","","","",""
"","image-keyboard-response","158","92148","0.0-158.0","34HJIJKLP6I86G0SKDF9MO5EDGDV44","A2T1LNI80EPOQR","3IH9TRB0FBLK6RLF7MSMKICTMWW1I5","","339.5","img/land3.png","76","339.89999999990687","3","1","3","2","1,0.5,0.5,0.5,1,0.5,0.5,0.5,1","1,0.5,0.5,0.5,1,0.5,0.5,0.5,1","","",""
"","html-keyboard-response","159","92450","0.0-159.0","34HJIJKLP6I86G0SKDF9MO5EDGDV44","A2T1LNI80EPOQR","3IH9TRB0FBLK6RLF7MSMKICTMWW1I5","","null","<img src=""img/land3.png"" style=""width:200px; border:14px solid green;"">","null","","","","","","","","","",""
"","image-keyboard-response","160","92798","0.0-160.0","34HJIJKLP6I86G0SKDF9MO5EDGDV44","A2T1LNI80EPOQR","3IH9TRB0FBLK6RLF7MSMKICTMWW1I5","","347.5","img/land3.png","76","347.89999999990687","3","1","3","2","1,0.5,0.5,0.5,1,0.5,0.5,0.5,1","1,0.5,0.5,0.5,1,0.5,0.5,0.5,1","","",""
"","html-keyboard-response","161","93100","0.0-161.0","34HJIJKLP6I86G0SKDF9MO5EDGDV44","A2T1LNI80EPOQR","3IH9TRB0FBLK6RLF7MSMKICTMWW1I5","","null","<img src=""img/land3.png"" style=""width:200px; border:14px solid green;"">","null","","","","","","","","","",""
"","image-keyboard-response","162","93430","0.0-162.0","34HJIJKLP6I86G0SKDF9MO5EDGDV44","A2T1LNI80EPOQR","3IH9TRB0FBLK6RLF7MSMKICTMWW1I5","","329.70000000018626","img/land3.png","76","330.20000000018626","3","1","3","2","1,0.5,0.5,0.5,1,0.5,0.5,0.5,1","1,0.5,0.5,0.5,1,0.5,0.5,0.5,1","","",""
"","html-keyboard-response","163","93731","0.0-163.0","34HJIJKLP6I86G0SKDF9MO5EDGDV44","A2T1LNI80EPOQR","3IH9TRB0FBLK6RLF7MSMKICTMWW1I5","","null","<img src=""img/land3.png"" style=""width:200px; border:14px solid green;"">","null","","","","","","","","","",""
"","image-keyboard-response","164","94201","0.0-164.0","34HJIJKLP6I86G0SKDF9MO5EDGDV44","A2T1LNI80EPOQR","3IH9TRB0FBLK6RLF7MSMKICTMWW1I5","","469.40000000037253","img/land2.png","75","469.89999999990687","2","1","2","2","1,0.5,0.5,0.5,1,0.5,0.5,0.5,1","1,0.5,0.5,0.5,1,0.5,0.5,0.5,1","","",""
"","html-keyboard-response","165","94503","0.0-165.0","34HJIJKLP6I86G0SKDF9MO5EDGDV44","A2T1LNI80EPOQR","3IH9TRB0FBLK6RLF7MSMKICTMWW1I5","","null","<img src=""img/land2.png"" style=""width:200px; border:14px solid green;"">","null","","","","","","","","","",""
"","image-keyboard-response","166","95587","0.0-166.0","34HJIJKLP6I86G0SKDF9MO5EDGDV44","A2T1LNI80EPOQR","3IH9TRB0FBLK6RLF7MSMKICTMWW1I5","","1083.4000000003725","img/land1.png","75","1084","2","1","1","2","1,0.5,0.5,0.5,1,0.5,0.5,0.5,1","1,0.5,0.5,0.5,1,0.5,0.5,0.5,1","","",""
"","html-keyboard-response","167","95889","0.0-167.0","34HJIJKLP6I86G0SKDF9MO5EDGDV44","A2T1LNI80EPOQR","3IH9TRB0FBLK6RLF7MSMKICTMWW1I5","","null","<img src=""img/land1.png"" style=""width:200px; border:14px solid green;"">","null","","","","","","","","","",""
"","image-keyboard-response","168","96342","0.0-168.0","34HJIJKLP6I86G0SKDF9MO5EDGDV44","A2T1LNI80EPOQR","3IH9TRB0FBLK6RLF7MSMKICTMWW1I5","","452.29999999981374","img/land3.png","75","452.70000000018626","2","0","3","2","1,0.5,0.5,0.5,1,0.5,0.5,0.5,1","1,0.5,0.5,0.5,1,0.5,0.5,0.5,1","","",""
"","html-keyboard-response","169","96644","0.0-169.0","34HJIJKLP6I86G0SKDF9MO5EDGDV44","A2T1LNI80EPOQR","3IH9TRB0FBLK6RLF7MSMKICTMWW1I5","","null","<img src=""img/land3.png"" style=""width:200px;border:14px solid red;"">","null","","","","","","","","","",""
"","image-keyboard-response","170","96894","0.0-170.0","34HJIJKLP6I86G0SKDF9MO5EDGDV44","A2T1LNI80EPOQR","3IH9TRB0FBLK6RLF7MSMKICTMWW1I5","","249.70000000018626","img/land3.png","76","250.09999999962747","3","1","3","2","1,0.5,0.5,0.5,1,0.5,0.5,0.5,1","1,0.5,0.5,0.5,1,0.5,0.5,0.5,1","","",""
"","html-keyboard-response","171","97196","0.0-171.0","34HJIJKLP6I86G0SKDF9MO5EDGDV44","A2T1LNI80EPOQR","3IH9TRB0FBLK6RLF7MSMKICTMWW1I5","","null","<img src=""img/land3.png"" style=""width:200px; border:14px solid green;"">","null","","","","","","","","","",""
"","image-keyboard-response","172","97753","0.0-172.0","34HJIJKLP6I86G0SKDF9MO5EDGDV44","A2T1LNI80EPOQR","3IH9TRB0FBLK6RLF7MSMKICTMWW1I5","","556.6999999997206","img/land1.png","75","557.2999999998137","2","0","1","2","1,0.5,0.5,0.5,1,0.5,0.5,0.5,1","1,0.5,0.5,0.5,1,0.5,0.5,0.5,1","","",""
"","html-keyboard-response","173","98054","0.0-173.0","34HJIJKLP6I86G0SKDF9MO5EDGDV44","A2T1LNI80EPOQR","3IH9TRB0FBLK6RLF7MSMKICTMWW1I5","","null","<img src=""img/land1.png"" style=""width:200px;border:14px solid red;"">","null","","","","","","","","","",""
"","image-keyboard-response","174","98971","0.0-174.0","34HJIJKLP6I86G0SKDF9MO5EDGDV44","A2T1LNI80EPOQR","3IH9TRB0FBLK6RLF7MSMKICTMWW1I5","","915.9000000003725","img/land3.png","75","916.3999999999069","2","1","3","2","1,0.5,0.5,0.5,1,0.5,0.5,0.5,1","1,0.5,0.5,0.5,1,0.5,0.5,0.5,1","","",""
"","html-keyboard-response","175","99273","0.0-175.0","34HJIJKLP6I86G0SKDF9MO5EDGDV44","A2T1LNI80EPOQR","3IH9TRB0FBLK6RLF7MSMKICTMWW1I5","","null","<img src=""img/land3.png"" style=""width:200px; border:14px solid green;"">","null","","","","","","","","","",""
"","image-keyboard-response","176","99296","0.0-176.0","34HJIJKLP6I86G0SKDF9MO5EDGDV44","A2T1LNI80EPOQR","3IH9TRB0FBLK6RLF7MSMKICTMWW1I5","","23","img/land3.png","76","23.399999999906868","3","1","3","2","1,0.5,0.5,0.5,1,0.5,0.5,0.5,1","1,0.5,0.5,0.5,1,0.5,0.5,0.5,1","","",""
"","html-keyboard-response","177","99598","0.0-177.0","34HJIJKLP6I86G0SKDF9MO5EDGDV44","A2T1LNI80EPOQR","3IH9TRB0FBLK6RLF7MSMKICTMWW1I5","","null","<img src=""img/land3.png"" style=""width:200px; border:14px solid green;"">","null","","","","","","","","","",""
"","image-keyboard-response","178","100007","0.0-178.0","34HJIJKLP6I86G0SKDF9MO5EDGDV44","A2T1LNI80EPOQR","3IH9TRB0FBLK6RLF7MSMKICTMWW1I5","","408.8000000002794","img/land3.png","75","409.3000000002794","2","1","3","2","1,0.5,0.5,0.5,1,0.5,0.5,0.5,1","1,0.5,0.5,0.5,1,0.5,0.5,0.5,1","","",""
"","html-keyboard-response","179","100309","0.0-179.0","34HJIJKLP6I86G0SKDF9MO5EDGDV44","A2T1LNI80EPOQR","3IH9TRB0FBLK6RLF7MSMKICTMWW1I5","","null","<img src=""img/land3.png"" style=""width:200px; border:14px solid green;"">","null","","","","","","","","","",""
"","image-keyboard-response","180","101265","0.0-180.0","34HJIJKLP6I86G0SKDF9MO5EDGDV44","A2T1LNI80EPOQR","3IH9TRB0FBLK6RLF7MSMKICTMWW1I5","","956.2999999998137","img/land2.png","75","956.6999999997206","2","1","2","2","1,0.5,0.5,0.5,1,0.5,0.5,0.5,1","1,0.5,0.5,0.5,1,0.5,0.5,0.5,1","","",""
"","html-keyboard-response","181","101567","0.0-181.0","34HJIJKLP6I86G0SKDF9MO5EDGDV44","A2T1LNI80EPOQR","3IH9TRB0FBLK6RLF7MSMKICTMWW1I5","","null","<img src=""img/land2.png"" style=""width:200px; border:14px solid green;"">","null","","","","","","","","","",""
"","image-keyboard-response","182","101864","0.0-182.0","34HJIJKLP6I86G0SKDF9MO5EDGDV44","A2T1LNI80EPOQR","3IH9TRB0FBLK6RLF7MSMKICTMWW1I5","","296.79999999981374","img/land2.png","75","297.29999999981374","2","1","2","2","1,0.5,0.5,0.5,1,0.5,0.5,0.5,1","1,0.5,0.5,0.5,1,0.5,0.5,0.5,1","","",""
"","html-keyboard-response","183","102166","0.0-183.0","34HJIJKLP6I86G0SKDF9MO5EDGDV44","A2T1LNI80EPOQR","3IH9TRB0FBLK6RLF7MSMKICTMWW1I5","","null","<img src=""img/land2.png"" style=""width:200px; border:14px solid green;"">","null","","","","","","","","","",""
"","image-keyboard-response","184","102490","0.0-184.0","34HJIJKLP6I86G0SKDF9MO5EDGDV44","A2T1LNI80EPOQR","3IH9TRB0FBLK6RLF7MSMKICTMWW1I5","","324.1999999997206","img/land2.png","75","324.70000000018626","2","1","2","2","1,0.5,0.5,0.5,1,0.5,0.5,0.5,1","1,0.5,0.5,0.5,1,0.5,0.5,0.5,1","","",""
"","html-keyboard-response","185","102792","0.0-185.0","34HJIJKLP6I86G0SKDF9MO5EDGDV44","A2T1LNI80EPOQR","3IH9TRB0FBLK6RLF7MSMKICTMWW1I5","","null","<img src=""img/land2.png"" style=""width:200px; border:14px solid green;"">","null","","","","","","","","","",""
"","image-keyboard-response","186","103378","0.0-186.0","34HJIJKLP6I86G0SKDF9MO5EDGDV44","A2T1LNI80EPOQR","3IH9TRB0FBLK6RLF7MSMKICTMWW1I5","","586","img/land3.png","75","586.3999999999069","2","1","3","2","1,0.5,0.5,0.5,1,0.5,0.5,0.5,1","1,0.5,0.5,0.5,1,0.5,0.5,0.5,1","","",""
"","html-keyboard-response","187","103680","0.0-187.0","34HJIJKLP6I86G0SKDF9MO5EDGDV44","A2T1LNI80EPOQR","3IH9TRB0FBLK6RLF7MSMKICTMWW1I5","","null","<img src=""img/land3.png"" style=""width:200px; border:14px solid green;"">","null","","","","","","","","","",""
"","image-keyboard-response","188","104307","0.0-188.0","34HJIJKLP6I86G0SKDF9MO5EDGDV44","A2T1LNI80EPOQR","3IH9TRB0FBLK6RLF7MSMKICTMWW1I5","","626.6000000000931","img/land2.png","76","627","3","1","2","2","1,0.5,0.5,0.5,1,0.5,0.5,0.5,1","1,0.5,0.5,0.5,1,0.5,0.5,0.5,1","","",""
"","html-keyboard-response","189","104609","0.0-189.0","34HJIJKLP6I86G0SKDF9MO5EDGDV44","A2T1LNI80EPOQR","3IH9TRB0FBLK6RLF7MSMKICTMWW1I5","","null","<img src=""img/land2.png"" style=""width:200px; border:14px solid green;"">","null","","","","","","","","","",""
"","image-keyboard-response","190","105303","0.0-190.0","34HJIJKLP6I86G0SKDF9MO5EDGDV44","A2T1LNI80EPOQR","3IH9TRB0FBLK6RLF7MSMKICTMWW1I5","","693.1000000000931","img/land1.png","75","693.5","2","1","1","2","1,0.5,0.5,0.5,1,0.5,0.5,0.5,1","1,0.5,0.5,0.5,1,0.5,0.5,0.5,1","","",""
"","html-keyboard-response","191","105605","0.0-191.0","34HJIJKLP6I86G0SKDF9MO5EDGDV44","A2T1LNI80EPOQR","3IH9TRB0FBLK6RLF7MSMKICTMWW1I5","","null","<img src=""img/land1.png"" style=""width:200px; border:14px solid green;"">","null","","","","","","","","","",""
"","image-keyboard-response","192","106158","0.0-192.0","34HJIJKLP6I86G0SKDF9MO5EDGDV44","A2T1LNI80EPOQR","3IH9TRB0FBLK6RLF7MSMKICTMWW1I5","","552.6000000000931","img/land2.png","75","553.0999999996275","2","1","2","2","1,0.5,0.5,0.5,1,0.5,0.5,0.5,1","1,0.5,0.5,0.5,1,0.5,0.5,0.5,1","","",""
"","html-keyboard-response","193","106459","0.0-193.0","34HJIJKLP6I86G0SKDF9MO5EDGDV44","A2T1LNI80EPOQR","3IH9TRB0FBLK6RLF7MSMKICTMWW1I5","","null","<img src=""img/land2.png"" style=""width:200px; border:14px solid green;"">","null","","","","","","","","","",""
"","image-keyboard-response","194","106848","0.0-194.0","34HJIJKLP6I86G0SKDF9MO5EDGDV44","A2T1LNI80EPOQR","3IH9TRB0FBLK6RLF7MSMKICTMWW1I5","","387.89999999990687","img/land3.png","75","388.39999999990687","2","0","3","2","1,0.5,0.5,0.5,1,0.5,0.5,0.5,1","1,0.5,0.5,0.5,1,0.5,0.5,0.5,1","","",""
"","html-keyboard-response","195","107150","0.0-195.0","34HJIJKLP6I86G0SKDF9MO5EDGDV44","A2T1LNI80EPOQR","3IH9TRB0FBLK6RLF7MSMKICTMWW1I5","","null","<img src=""img/land3.png"" style=""width:200px;border:14px solid red;"">","null","","","","","","","","","",""
"","image-keyboard-response","196","107409","0.0-196.0","34HJIJKLP6I86G0SKDF9MO5EDGDV44","A2T1LNI80EPOQR","3IH9TRB0FBLK6RLF7MSMKICTMWW1I5","","259.10000000009313","img/land3.png","76","259.59999999962747","3","1","3","2","1,0.5,0.5,0.5,1,0.5,0.5,0.5,1","1,0.5,0.5,0.5,1,0.5,0.5,0.5,1","","",""
"","html-keyboard-response","197","107711","0.0-197.0","34HJIJKLP6I86G0SKDF9MO5EDGDV44","A2T1LNI80EPOQR","3IH9TRB0FBLK6RLF7MSMKICTMWW1I5","","null","<img src=""img/land3.png"" style=""width:200px; border:14px solid green;"">","null","","","","","","","","","",""
"","image-keyboard-response","198","107965","0.0-198.0","34HJIJKLP6I86G0SKDF9MO5EDGDV44","A2T1LNI80EPOQR","3IH9TRB0FBLK6RLF7MSMKICTMWW1I5","","252.8000000002794","img/land3.png","76","253.39999999990687","3","1","3","2","1,0.5,0.5,0.5,1,0.5,0.5,0.5,1","1,0.5,0.5,0.5,1,0.5,0.5,0.5,1","","",""
"","html-keyboard-response","199","108267","0.0-199.0","34HJIJKLP6I86G0SKDF9MO5EDGDV44","A2T1LNI80EPOQR","3IH9TRB0FBLK6RLF7MSMKICTMWW1I5","","null","<img src=""img/land3.png"" style=""width:200px; border:14px solid green;"">","null","","","","","","","","","",""
"","image-keyboard-response","200","108753","0.0-200.0","34HJIJKLP6I86G0SKDF9MO5EDGDV44","A2T1LNI80EPOQR","3IH9TRB0FBLK6RLF7MSMKICTMWW1I5","","485.3000000002794","img/land2.png","75","486","2","1","2","2","1,0.5,0.5,0.5,1,0.5,0.5,0.5,1","1,0.5,0.5,0.5,1,0.5,0.5,0.5,1","","",""
"","html-keyboard-response","201","109054","0.0-201.0","34HJIJKLP6I86G0SKDF9MO5EDGDV44","A2T1LNI80EPOQR","3IH9TRB0FBLK6RLF7MSMKICTMWW1I5","","null","<img src=""img/land2.png"" style=""width:200px; border:14px solid green;"">","null","","","","","","","","","",""
"","image-keyboard-response","202","109352","0.0-202.0","34HJIJKLP6I86G0SKDF9MO5EDGDV44","A2T1LNI80EPOQR","3IH9TRB0FBLK6RLF7MSMKICTMWW1I5","","297.5","img/land2.png","75","298.10000000009313","2","1","2","2","1,0.5,0.5,0.5,1,0.5,0.5,0.5,1","1,0.5,0.5,0.5,1,0.5,0.5,0.5,1","","",""
"","html-keyboard-response","203","109654","0.0-203.0","34HJIJKLP6I86G0SKDF9MO5EDGDV44","A2T1LNI80EPOQR","3IH9TRB0FBLK6RLF7MSMKICTMWW1I5","","null","<img src=""img/land2.png"" style=""width:200px; border:14px solid green;"">","null","","","","","","","","","",""
"","image-keyboard-response","204","110301","0.0-204.0","34HJIJKLP6I86G0SKDF9MO5EDGDV44","A2T1LNI80EPOQR","3IH9TRB0FBLK6RLF7MSMKICTMWW1I5","","646.3000000002794","img/land3.png","75","646.7999999998137","2","1","3","2","1,0.5,0.5,0.5,1,0.5,0.5,0.5,1","1,0.5,0.5,0.5,1,0.5,0.5,0.5,1","","",""
"","html-keyboard-response","205","110603","0.0-205.0","34HJIJKLP6I86G0SKDF9MO5EDGDV44","A2T1LNI80EPOQR","3IH9TRB0FBLK6RLF7MSMKICTMWW1I5","","null","<img src=""img/land3.png"" style=""width:200px; border:14px solid green;"">","null","","","","","","","","","",""
"","image-keyboard-response","206","111265","0.0-206.0","34HJIJKLP6I86G0SKDF9MO5EDGDV44","A2T1LNI80EPOQR","3IH9TRB0FBLK6RLF7MSMKICTMWW1I5","","661.1000000000931","img/land2.png","76","661.6000000000931","3","1","2","2","1,0.5,0.5,0.5,1,0.5,0.5,0.5,1","1,0.5,0.5,0.5,1,0.5,0.5,0.5,1","","",""
"","html-keyboard-response","207","111567","0.0-207.0","34HJIJKLP6I86G0SKDF9MO5EDGDV44","A2T1LNI80EPOQR","3IH9TRB0FBLK6RLF7MSMKICTMWW1I5","","null","<img src=""img/land2.png"" style=""width:200px; border:14px solid green;"">","null","","","","","","","","","",""
"","image-keyboard-response","208","112116","0.0-208.0","34HJIJKLP6I86G0SKDF9MO5EDGDV44","A2T1LNI80EPOQR","3IH9TRB0FBLK6RLF7MSMKICTMWW1I5","","548.8999999999069","img/land1.png","75","549.3000000002794","2","1","1","2","1,0.5,0.5,0.5,1,0.5,0.5,0.5,1","1,0.5,0.5,0.5,1,0.5,0.5,0.5,1","","",""
"","html-keyboard-response","209","112418","0.0-209.0","34HJIJKLP6I86G0SKDF9MO5EDGDV44","A2T1LNI80EPOQR","3IH9TRB0FBLK6RLF7MSMKICTMWW1I5","","null","<img src=""img/land1.png"" style=""width:200px; border:14px solid green;"">","null","","","","","","","","","",""
"","image-keyboard-response","210","112927","0.0-210.0","34HJIJKLP6I86G0SKDF9MO5EDGDV44","A2T1LNI80EPOQR","3IH9TRB0FBLK6RLF7MSMKICTMWW1I5","","508.60000000009313","img/land2.png","75","509.20000000018626","2","1","2","2","1,0.5,0.5,0.5,1,0.5,0.5,0.5,1","1,0.5,0.5,0.5,1,0.5,0.5,0.5,1","","",""
"","html-keyboard-response","211","113228","0.0-211.0","34HJIJKLP6I86G0SKDF9MO5EDGDV44","A2T1LNI80EPOQR","3IH9TRB0FBLK6RLF7MSMKICTMWW1I5","","null","<img src=""img/land2.png"" style=""width:200px; border:14px solid green;"">","null","","","","","","","","","",""
"","image-keyboard-response","212","113828","0.0-212.0","34HJIJKLP6I86G0SKDF9MO5EDGDV44","A2T1LNI80EPOQR","3IH9TRB0FBLK6RLF7MSMKICTMWW1I5","","598.5999999996275","img/land1.png","75","599.2999999998137","2","0","1","2","1,0.5,0.5,0.5,1,0.5,0.5,0.5,1","1,0.5,0.5,0.5,1,0.5,0.5,0.5,1","","",""
"","html-keyboard-response","213","114129","0.0-213.0","34HJIJKLP6I86G0SKDF9MO5EDGDV44","A2T1LNI80EPOQR","3IH9TRB0FBLK6RLF7MSMKICTMWW1I5","","null","<img src=""img/land1.png"" style=""width:200px;border:14px solid red;"">","null","","","","","","","","","",""
"","image-keyboard-response","214","114476","0.0-214.0","34HJIJKLP6I86G0SKDF9MO5EDGDV44","A2T1LNI80EPOQR","3IH9TRB0FBLK6RLF7MSMKICTMWW1I5","","345.8000000002794","img/land3.png","75","346.5","2","1","3","2","1,0.5,0.5,0.5,1,0.5,0.5,0.5,1","1,0.5,0.5,0.5,1,0.5,0.5,0.5,1","","",""
"","html-keyboard-response","215","114778","0.0-215.0","34HJIJKLP6I86G0SKDF9MO5EDGDV44","A2T1LNI80EPOQR","3IH9TRB0FBLK6RLF7MSMKICTMWW1I5","","null","<img src=""img/land3.png"" style=""width:200px; border:14px solid green;"">","null","","","","","","","","","",""
"","image-keyboard-response","216","115085","0.0-216.0","34HJIJKLP6I86G0SKDF9MO5EDGDV44","A2T1LNI80EPOQR","3IH9TRB0FBLK6RLF7MSMKICTMWW1I5","","306.6999999997206","img/land3.png","75","307.1999999997206","2","0","3","2","1,0.5,0.5,0.5,1,0.5,0.5,0.5,1","1,0.5,0.5,0.5,1,0.5,0.5,0.5,1","","",""
"","html-keyboard-response","217","115387","0.0-217.0","34HJIJKLP6I86G0SKDF9MO5EDGDV44","A2T1LNI80EPOQR","3IH9TRB0FBLK6RLF7MSMKICTMWW1I5","","null","<img src=""img/land3.png"" style=""width:200px;border:14px solid red;"">","null","","","","","","","","","",""
"","image-keyboard-response","218","115917","0.0-218.0","34HJIJKLP6I86G0SKDF9MO5EDGDV44","A2T1LNI80EPOQR","3IH9TRB0FBLK6RLF7MSMKICTMWW1I5","","529.1999999997206","img/land1.png","75","529.7000000001863","2","1","1","2","1,0.5,0.5,0.5,1,0.5,0.5,0.5,1","1,0.5,0.5,0.5,1,0.5,0.5,0.5,1","","",""
"","html-keyboard-response","219","116219","0.0-219.0","34HJIJKLP6I86G0SKDF9MO5EDGDV44","A2T1LNI80EPOQR","3IH9TRB0FBLK6RLF7MSMKICTMWW1I5","","null","<img src=""img/land1.png"" style=""width:200px; border:14px solid green;"">","null","","","","","","","","","",""
"","image-keyboard-response","220","116696","0.0-220.0","34HJIJKLP6I86G0SKDF9MO5EDGDV44","A2T1LNI80EPOQR","3IH9TRB0FBLK6RLF7MSMKICTMWW1I5","","476.5","img/land3.png","75","477.10000000009313","2","0","3","2","1,0.5,0.5,0.5,1,0.5,0.5,0.5,1","1,0.5,0.5,0.5,1,0.5,0.5,0.5,1","","",""
"","html-keyboard-response","221","116998","0.0-221.0","34HJIJKLP6I86G0SKDF9MO5EDGDV44","A2T1LNI80EPOQR","3IH9TRB0FBLK6RLF7MSMKICTMWW1I5","","null","<img src=""img/land3.png"" style=""width:200px;border:14px solid red;"">","null","","","","","","","","","",""
"","image-keyboard-response","222","117243","0.0-222.0","34HJIJKLP6I86G0SKDF9MO5EDGDV44","A2T1LNI80EPOQR","3IH9TRB0FBLK6RLF7MSMKICTMWW1I5","","244.5","img/land3.png","75","244.90000000037253","2","0","3","2","1,0.5,0.5,0.5,1,0.5,0.5,0.5,1","1,0.5,0.5,0.5,1,0.5,0.5,0.5,1","","",""
"","html-keyboard-response","223","117544","0.0-223.0","34HJIJKLP6I86G0SKDF9MO5EDGDV44","A2T1LNI80EPOQR","3IH9TRB0FBLK6RLF7MSMKICTMWW1I5","","null","<img src=""img/land3.png"" style=""width:200px;border:14px solid red;"">","null","","","","","","","","","",""
"","image-keyboard-response","224","117779","0.0-224.0","34HJIJKLP6I86G0SKDF9MO5EDGDV44","A2T1LNI80EPOQR","3IH9TRB0FBLK6RLF7MSMKICTMWW1I5","","234.89999999990687","img/land3.png","75","235.39999999990687","2","0","3","2","1,0.5,0.5,0.5,1,0.5,0.5,0.5,1","1,0.5,0.5,0.5,1,0.5,0.5,0.5,1","","",""
"","html-keyboard-response","225","118081","0.0-225.0","34HJIJKLP6I86G0SKDF9MO5EDGDV44","A2T1LNI80EPOQR","3IH9TRB0FBLK6RLF7MSMKICTMWW1I5","","null","<img src=""img/land3.png"" style=""width:200px;border:14px solid red;"">","null","","","","","","","","","",""
"","image-keyboard-response","226","118356","0.0-226.0","34HJIJKLP6I86G0SKDF9MO5EDGDV44","A2T1LNI80EPOQR","3IH9TRB0FBLK6RLF7MSMKICTMWW1I5","","275.10000000009313","img/land3.png","74","275.5","1","0","3","2","1,0.5,0.5,0.5,1,0.5,0.5,0.5,1","1,0.5,0.5,0.5,1,0.5,0.5,0.5,1","","",""
"","html-keyboard-response","227","118658","0.0-227.0","34HJIJKLP6I86G0SKDF9MO5EDGDV44","A2T1LNI80EPOQR","3IH9TRB0FBLK6RLF7MSMKICTMWW1I5","","null","<img src=""img/land3.png"" style=""width:200px;border:14px solid red;"">","null","","","","","","","","","",""
"","image-keyboard-response","228","118961","0.0-228.0","34HJIJKLP6I86G0SKDF9MO5EDGDV44","A2T1LNI80EPOQR","3IH9TRB0FBLK6RLF7MSMKICTMWW1I5","","303.1999999997206","img/land3.png","74","303.70000000018626","1","0","3","2","1,0.5,0.5,0.5,1,0.5,0.5,0.5,1","1,0.5,0.5,0.5,1,0.5,0.5,0.5,1","","",""
"","html-keyboard-response","229","119263","0.0-229.0","34HJIJKLP6I86G0SKDF9MO5EDGDV44","A2T1LNI80EPOQR","3IH9TRB0FBLK6RLF7MSMKICTMWW1I5","","null","<img src=""img/land3.png"" style=""width:200px;border:14px solid red;"">","null","","","","","","","","","",""
"","image-keyboard-response","230","119436","0.0-230.0","34HJIJKLP6I86G0SKDF9MO5EDGDV44","A2T1LNI80EPOQR","3IH9TRB0FBLK6RLF7MSMKICTMWW1I5","","173.1999999997206","img/land1.png","75","173.6999999997206","2","0","1","2","1,0.5,0.5,0.5,1,0.5,0.5,0.5,1","1,0.5,0.5,0.5,1,0.5,0.5,0.5,1","","",""
"","html-keyboard-response","231","119738","0.0-231.0","34HJIJKLP6I86G0SKDF9MO5EDGDV44","A2T1LNI80EPOQR","3IH9TRB0FBLK6RLF7MSMKICTMWW1I5","","null","<img src=""img/land1.png"" style=""width:200px;border:14px solid red;"">","null","","","","","","","","","",""
"","image-keyboard-response","232","120210","0.0-232.0","34HJIJKLP6I86G0SKDF9MO5EDGDV44","A2T1LNI80EPOQR","3IH9TRB0FBLK6RLF7MSMKICTMWW1I5","","471.3000000002794","img/land1.png","76","471.79999999981374","3","1","1","2","1,0.5,0.5,0.5,1,0.5,0.5,0.5,1","1,0.5,0.5,0.5,1,0.5,0.5,0.5,1","","",""
"","html-keyboard-response","233","120512","0.0-233.0","34HJIJKLP6I86G0SKDF9MO5EDGDV44","A2T1LNI80EPOQR","3IH9TRB0FBLK6RLF7MSMKICTMWW1I5","","null","<img src=""img/land1.png"" style=""width:200px; border:14px solid green;"">","null","","","","","","","","","",""
"","image-keyboard-response","234","120968","0.0-234.0","34HJIJKLP6I86G0SKDF9MO5EDGDV44","A2T1LNI80EPOQR","3IH9TRB0FBLK6RLF7MSMKICTMWW1I5","","455.10000000009313","img/land3.png","76","455.79999999981374","3","1","3","2","1,0.5,0.5,0.5,1,0.5,0.5,0.5,1","1,0.5,0.5,0.5,1,0.5,0.5,0.5,1","","",""
"","html-keyboard-response","235","121269","0.0-235.0","34HJIJKLP6I86G0SKDF9MO5EDGDV44","A2T1LNI80EPOQR","3IH9TRB0FBLK6RLF7MSMKICTMWW1I5","","null","<img src=""img/land3.png"" style=""width:200px; border:14px solid green;"">","null","","","","","","","","","",""
"","image-keyboard-response","236","121560","0.0-236.0","34HJIJKLP6I86G0SKDF9MO5EDGDV44","A2T1LNI80EPOQR","3IH9TRB0FBLK6RLF7MSMKICTMWW1I5","","290.60000000009313","img/land3.png","76","291","3","1","3","2","1,0.5,0.5,0.5,1,0.5,0.5,0.5,1","1,0.5,0.5,0.5,1,0.5,0.5,0.5,1","","",""
"","html-keyboard-response","237","121861","0.0-237.0","34HJIJKLP6I86G0SKDF9MO5EDGDV44","A2T1LNI80EPOQR","3IH9TRB0FBLK6RLF7MSMKICTMWW1I5","","null","<img src=""img/land3.png"" style=""width:200px; border:14px solid green;"">","null","","","","","","","","","",""
"","image-keyboard-response","238","122267","0.0-238.0","34HJIJKLP6I86G0SKDF9MO5EDGDV44","A2T1LNI80EPOQR","3IH9TRB0FBLK6RLF7MSMKICTMWW1I5","","405.10000000009313","img/land2.png","76","405.70000000018626","3","1","2","2","1,0.5,0.5,0.5,1,0.5,0.5,0.5,1","1,0.5,0.5,0.5,1,0.5,0.5,0.5,1","","",""
"","html-keyboard-response","239","122569","0.0-239.0","34HJIJKLP6I86G0SKDF9MO5EDGDV44","A2T1LNI80EPOQR","3IH9TRB0FBLK6RLF7MSMKICTMWW1I5","","null","<img src=""img/land2.png"" style=""width:200px; border:14px solid green;"">","null","","","","","","","","","",""
"","image-keyboard-response","240","122893","0.0-240.0","34HJIJKLP6I86G0SKDF9MO5EDGDV44","A2T1LNI80EPOQR","3IH9TRB0FBLK6RLF7MSMKICTMWW1I5","","323","img/land1.png","76","323.70000000018626","3","1","1","2","1,0.5,0.5,0.5,1,0.5,0.5,0.5,1","1,0.5,0.5,0.5,1,0.5,0.5,0.5,1","","",""
"","html-keyboard-response","241","123194","0.0-241.0","34HJIJKLP6I86G0SKDF9MO5EDGDV44","A2T1LNI80EPOQR","3IH9TRB0FBLK6RLF7MSMKICTMWW1I5","","null","<img src=""img/land1.png"" style=""width:200px; border:14px solid green;"">","null","","","","","","","","","",""
"","image-keyboard-response","242","123439","0.0-242.0","34HJIJKLP6I86G0SKDF9MO5EDGDV44","A2T1LNI80EPOQR","3IH9TRB0FBLK6RLF7MSMKICTMWW1I5","","244.59999999962747","img/land3.png","76","245.10000000009313","3","1","3","2","1,0.5,0.5,0.5,1,0.5,0.5,0.5,1","1,0.5,0.5,0.5,1,0.5,0.5,0.5,1","","",""
"","html-keyboard-response","243","123740","0.0-243.0","34HJIJKLP6I86G0SKDF9MO5EDGDV44","A2T1LNI80EPOQR","3IH9TRB0FBLK6RLF7MSMKICTMWW1I5","","null","<img src=""img/land3.png"" style=""width:200px; border:14px solid green;"">","null","","","","","","","","","",""
"","image-keyboard-response","244","123975","0.0-244.0","34HJIJKLP6I86G0SKDF9MO5EDGDV44","A2T1LNI80EPOQR","3IH9TRB0FBLK6RLF7MSMKICTMWW1I5","","234.70000000018626","img/land2.png","76","235.29999999981374","3","0","2","2","1,0.5,0.5,0.5,1,0.5,0.5,0.5,1","1,0.5,0.5,0.5,1,0.5,0.5,0.5,1","","",""
"","html-keyboard-response","245","124276","0.0-245.0","34HJIJKLP6I86G0SKDF9MO5EDGDV44","A2T1LNI80EPOQR","3IH9TRB0FBLK6RLF7MSMKICTMWW1I5","","null","<img src=""img/land2.png"" style=""width:200px;border:14px solid red;"">","null","","","","","","","","","",""
"","image-keyboard-response","246","124518","0.0-246.0","34HJIJKLP6I86G0SKDF9MO5EDGDV44","A2T1LNI80EPOQR","3IH9TRB0FBLK6RLF7MSMKICTMWW1I5","","241.10000000009313","img/land3.png","76","241.70000000018626","3","1","3","2","1,0.5,0.5,0.5,1,0.5,0.5,0.5,1","1,0.5,0.5,0.5,1,0.5,0.5,0.5,1","","",""
"","html-keyboard-response","247","124820","0.0-247.0","34HJIJKLP6I86G0SKDF9MO5EDGDV44","A2T1LNI80EPOQR","3IH9TRB0FBLK6RLF7MSMKICTMWW1I5","","null","<img src=""img/land3.png"" style=""width:200px; border:14px solid green;"">","null","","","","","","","","","",""
"","image-keyboard-response","248","125082","0.0-248.0","34HJIJKLP6I86G0SKDF9MO5EDGDV44","A2T1LNI80EPOQR","3IH9TRB0FBLK6RLF7MSMKICTMWW1I5","","261.29999999981374","img/land3.png","76","261.8000000002794","3","1","3","2","1,0.5,0.5,0.5,1,0.5,0.5,0.5,1","1,0.5,0.5,0.5,1,0.5,0.5,0.5,1","","",""
"","html-keyboard-response","249","125383","0.0-249.0","34HJIJKLP6I86G0SKDF9MO5EDGDV44","A2T1LNI80EPOQR","3IH9TRB0FBLK6RLF7MSMKICTMWW1I5","","null","<img src=""img/land3.png"" style=""width:200px; border:14px solid green;"">","null","","","","","","","","","",""
"","image-keyboard-response","250","125615","0.0-250.0","34HJIJKLP6I86G0SKDF9MO5EDGDV44","A2T1LNI80EPOQR","3IH9TRB0FBLK6RLF7MSMKICTMWW1I5","","231.70000000018626","img/land2.png","76","232.29999999981374","3","0","2","2","1,0.5,0.5,0.5,1,0.5,0.5,0.5,1","1,0.5,0.5,0.5,1,0.5,0.5,0.5,1","","",""
"","html-keyboard-response","251","125917","0.0-251.0","34HJIJKLP6I86G0SKDF9MO5EDGDV44","A2T1LNI80EPOQR","3IH9TRB0FBLK6RLF7MSMKICTMWW1I5","","null","<img src=""img/land2.png"" style=""width:200px;border:14px solid red;"">","null","","","","","","","","","",""
"","image-keyboard-response","252","126130","0.0-252.0","34HJIJKLP6I86G0SKDF9MO5EDGDV44","A2T1LNI80EPOQR","3IH9TRB0FBLK6RLF7MSMKICTMWW1I5","","212.79999999981374","img/land3.png","76","213.39999999990687","3","1","3","2","1,0.5,0.5,0.5,1,0.5,0.5,0.5,1","1,0.5,0.5,0.5,1,0.5,0.5,0.5,1","","",""
"","html-keyboard-response","253","126431","0.0-253.0","34HJIJKLP6I86G0SKDF9MO5EDGDV44","A2T1LNI80EPOQR","3IH9TRB0FBLK6RLF7MSMKICTMWW1I5","","null","<img src=""img/land3.png"" style=""width:200px; border:14px solid green;"">","null","","","","","","","","","",""
"","image-keyboard-response","254","126656","0.0-254.0","34HJIJKLP6I86G0SKDF9MO5EDGDV44","A2T1LNI80EPOQR","3IH9TRB0FBLK6RLF7MSMKICTMWW1I5","","224.29999999981374","img/land3.png","76","224.8000000002794","3","1","3","2","1,0.5,0.5,0.5,1,0.5,0.5,0.5,1","1,0.5,0.5,0.5,1,0.5,0.5,0.5,1","","",""
"","html-keyboard-response","255","126957","0.0-255.0","34HJIJKLP6I86G0SKDF9MO5EDGDV44","A2T1LNI80EPOQR","3IH9TRB0FBLK6RLF7MSMKICTMWW1I5","","null","<img src=""img/land3.png"" style=""width:200px; border:14px solid green;"">","null","","","","","","","","","",""
"","image-keyboard-response","256","127196","0.0-256.0","34HJIJKLP6I86G0SKDF9MO5EDGDV44","A2T1LNI80EPOQR","3IH9TRB0FBLK6RLF7MSMKICTMWW1I5","","237.70000000018626","img/land2.png","76","238.1999999997206","3","1","2","2","1,0.5,0.5,0.5,1,0.5,0.5,0.5,1","1,0.5,0.5,0.5,1,0.5,0.5,0.5,1","","",""
"","html-keyboard-response","257","127498","0.0-257.0","34HJIJKLP6I86G0SKDF9MO5EDGDV44","A2T1LNI80EPOQR","3IH9TRB0FBLK6RLF7MSMKICTMWW1I5","","null","<img src=""img/land2.png"" style=""width:200px; border:14px solid green;"">","null","","","","","","","","","",""
"","image-keyboard-response","258","127754","0.0-258.0","34HJIJKLP6I86G0SKDF9MO5EDGDV44","A2T1LNI80EPOQR","3IH9TRB0FBLK6RLF7MSMKICTMWW1I5","","256.10000000009313","img/land3.png","76","256.5","3","1","3","2","1,0.5,0.5,0.5,1,0.5,0.5,0.5,1","1,0.5,0.5,0.5,1,0.5,0.5,0.5,1","","",""
"","html-keyboard-response","259","128056","0.0-259.0","34HJIJKLP6I86G0SKDF9MO5EDGDV44","A2T1LNI80EPOQR","3IH9TRB0FBLK6RLF7MSMKICTMWW1I5","","null","<img src=""img/land3.png"" style=""width:200px; border:14px solid green;"">","null","","","","","","","","","",""
"","image-keyboard-response","260","128322","0.0-260.0","34HJIJKLP6I86G0SKDF9MO5EDGDV44","A2T1LNI80EPOQR","3IH9TRB0FBLK6RLF7MSMKICTMWW1I5","","266.1999999997206","img/land1.png","75","266.70000000018626","2","0","1","2","1,0.5,0.5,0.5,1,0.5,0.5,0.5,1","1,0.5,0.5,0.5,1,0.5,0.5,0.5,1","","",""
"","html-keyboard-response","261","128624","0.0-261.0","34HJIJKLP6I86G0SKDF9MO5EDGDV44","A2T1LNI80EPOQR","3IH9TRB0FBLK6RLF7MSMKICTMWW1I5","","null","<img src=""img/land1.png"" style=""width:200px;border:14px solid red;"">","null","","","","","","","","","",""
"","image-keyboard-response","262","128772","0.0-262.0","34HJIJKLP6I86G0SKDF9MO5EDGDV44","A2T1LNI80EPOQR","3IH9TRB0FBLK6RLF7MSMKICTMWW1I5","","147.60000000009313","img/land3.png","76","148.09999999962747","3","1","3","2","1,0.5,0.5,0.5,1,0.5,0.5,0.5,1","1,0.5,0.5,0.5,1,0.5,0.5,0.5,1","","",""
"","html-keyboard-response","263","129074","0.0-263.0","34HJIJKLP6I86G0SKDF9MO5EDGDV44","A2T1LNI80EPOQR","3IH9TRB0FBLK6RLF7MSMKICTMWW1I5","","null","<img src=""img/land3.png"" style=""width:200px; border:14px solid green;"">","null","","","","","","","","","",""
"","image-keyboard-response","264","129287","0.0-264.0","34HJIJKLP6I86G0SKDF9MO5EDGDV44","A2T1LNI80EPOQR","3IH9TRB0FBLK6RLF7MSMKICTMWW1I5","","213.1999999997206","img/land3.png","76","213.60000000009313","3","1","3","2","1,0.5,0.5,0.5,1,0.5,0.5,0.5,1","1,0.5,0.5,0.5,1,0.5,0.5,0.5,1","","",""
"","html-keyboard-response","265","129590","0.0-265.0","34HJIJKLP6I86G0SKDF9MO5EDGDV44","A2T1LNI80EPOQR","3IH9TRB0FBLK6RLF7MSMKICTMWW1I5","","null","<img src=""img/land3.png"" style=""width:200px; border:14px solid green;"">","null","","","","","","","","","",""
"","image-keyboard-response","266","129822","0.0-266.0","34HJIJKLP6I86G0SKDF9MO5EDGDV44","A2T1LNI80EPOQR","3IH9TRB0FBLK6RLF7MSMKICTMWW1I5","","231.29999999981374","img/land3.png","76","231.70000000018626","3","1","3","2","1,0.5,0.5,0.5,1,0.5,0.5,0.5,1","1,0.5,0.5,0.5,1,0.5,0.5,0.5,1","","",""
"","html-keyboard-response","267","130124","0.0-267.0","34HJIJKLP6I86G0SKDF9MO5EDGDV44","A2T1LNI80EPOQR","3IH9TRB0FBLK6RLF7MSMKICTMWW1I5","","null","<img src=""img/land3.png"" style=""width:200px; border:14px solid green;"">","null","","","","","","","","","",""
"","image-keyboard-response","268","130324","0.0-268.0","34HJIJKLP6I86G0SKDF9MO5EDGDV44","A2T1LNI80EPOQR","3IH9TRB0FBLK6RLF7MSMKICTMWW1I5","","199.60000000009313","img/land3.png","76","200","3","1","3","2","1,0.5,0.5,0.5,1,0.5,0.5,0.5,1","1,0.5,0.5,0.5,1,0.5,0.5,0.5,1","","",""
"","html-keyboard-response","269","130625","0.0-269.0","34HJIJKLP6I86G0SKDF9MO5EDGDV44","A2T1LNI80EPOQR","3IH9TRB0FBLK6RLF7MSMKICTMWW1I5","","null","<img src=""img/land3.png"" style=""width:200px; border:14px solid green;"">","null","","","","","","","","","",""
"","image-keyboard-response","270","130838","0.0-270.0","34HJIJKLP6I86G0SKDF9MO5EDGDV44","A2T1LNI80EPOQR","3IH9TRB0FBLK6RLF7MSMKICTMWW1I5","","212.60000000009313","img/land1.png","76","213","3","1","1","2","1,0.5,0.5,0.5,1,0.5,0.5,0.5,1","1,0.5,0.5,0.5,1,0.5,0.5,0.5,1","","",""
"","html-keyboard-response","271","131139","0.0-271.0","34HJIJKLP6I86G0SKDF9MO5EDGDV44","A2T1LNI80EPOQR","3IH9TRB0FBLK6RLF7MSMKICTMWW1I5","","null","<img src=""img/land1.png"" style=""width:200px; border:14px solid green;"">","null","","","","","","","","","",""
"","image-keyboard-response","272","131350","0.0-272.0","34HJIJKLP6I86G0SKDF9MO5EDGDV44","A2T1LNI80EPOQR","3IH9TRB0FBLK6RLF7MSMKICTMWW1I5","","209.70000000018626","img/land3.png","76","210.29999999981374","3","1","3","2","1,0.5,0.5,0.5,1,0.5,0.5,0.5,1","1,0.5,0.5,0.5,1,0.5,0.5,0.5,1","","",""
"","html-keyboard-response","273","131652","0.0-273.0","34HJIJKLP6I86G0SKDF9MO5EDGDV44","A2T1LNI80EPOQR","3IH9TRB0FBLK6RLF7MSMKICTMWW1I5","","null","<img src=""img/land3.png"" style=""width:200px; border:14px solid green;"">","null","","","","","","","","","",""
"","image-keyboard-response","274","131849","0.0-274.0","34HJIJKLP6I86G0SKDF9MO5EDGDV44","A2T1LNI80EPOQR","3IH9TRB0FBLK6RLF7MSMKICTMWW1I5","","196.6999999997206","img/land3.png","76","197.20000000018626","3","1","3","2","1,0.5,0.5,0.5,1,0.5,0.5,0.5,1","1,0.5,0.5,0.5,1,0.5,0.5,0.5,1","","",""
"","html-keyboard-response","275","132151","0.0-275.0","34HJIJKLP6I86G0SKDF9MO5EDGDV44","A2T1LNI80EPOQR","3IH9TRB0FBLK6RLF7MSMKICTMWW1I5","","null","<img src=""img/land3.png"" style=""width:200px; border:14px solid green;"">","null","","","","","","","","","",""
"","image-keyboard-response","276","132372","0.0-276.0","34HJIJKLP6I86G0SKDF9MO5EDGDV44","A2T1LNI80EPOQR","3IH9TRB0FBLK6RLF7MSMKICTMWW1I5","","221.1999999997206","img/land3.png","76","221.6999999997206","3","1","3","2","1,0.5,0.5,0.5,1,0.5,0.5,0.5,1","1,0.5,0.5,0.5,1,0.5,0.5,0.5,1","","",""
"","html-keyboard-response","277","132674","0.0-277.0","34HJIJKLP6I86G0SKDF9MO5EDGDV44","A2T1LNI80EPOQR","3IH9TRB0FBLK6RLF7MSMKICTMWW1I5","","null","<img src=""img/land3.png"" style=""width:200px; border:14px solid green;"">","null","","","","","","","","","",""
"","image-keyboard-response","278","132914","0.0-278.0","34HJIJKLP6I86G0SKDF9MO5EDGDV44","A2T1LNI80EPOQR","3IH9TRB0FBLK6RLF7MSMKICTMWW1I5","","239.29999999981374","img/land1.png","76","239.70000000018626","3","1","1","2","1,0.5,0.5,0.5,1,0.5,0.5,0.5,1","1,0.5,0.5,0.5,1,0.5,0.5,0.5,1","","",""
"","html-keyboard-response","279","133215","0.0-279.0","34HJIJKLP6I86G0SKDF9MO5EDGDV44","A2T1LNI80EPOQR","3IH9TRB0FBLK6RLF7MSMKICTMWW1I5","","null","<img src=""img/land1.png"" style=""width:200px; border:14px solid green;"">","null","","","","","","","","","",""
"","image-keyboard-response","280","133457","0.0-280.0","34HJIJKLP6I86G0SKDF9MO5EDGDV44","A2T1LNI80EPOQR","3IH9TRB0FBLK6RLF7MSMKICTMWW1I5","","241.20000000018626","img/land3.png","76","241.60000000009313","3","1","3","2","1,0.5,0.5,0.5,1,0.5,0.5,0.5,1","1,0.5,0.5,0.5,1,0.5,0.5,0.5,1","","",""
"","html-keyboard-response","281","133758","0.0-281.0","34HJIJKLP6I86G0SKDF9MO5EDGDV44","A2T1LNI80EPOQR","3IH9TRB0FBLK6RLF7MSMKICTMWW1I5","","null","<img src=""img/land3.png"" style=""width:200px; border:14px solid green;"">","null","","","","","","","","","",""
"","image-keyboard-response","282","134009","0.0-282.0","34HJIJKLP6I86G0SKDF9MO5EDGDV44","A2T1LNI80EPOQR","3IH9TRB0FBLK6RLF7MSMKICTMWW1I5","","250.20000000018626","img/land3.png","76","250.70000000018626","3","1","3","2","1,0.5,0.5,0.5,1,0.5,0.5,0.5,1","1,0.5,0.5,0.5,1,0.5,0.5,0.5,1","","",""
"","html-keyboard-response","283","134310","0.0-283.0","34HJIJKLP6I86G0SKDF9MO5EDGDV44","A2T1LNI80EPOQR","3IH9TRB0FBLK6RLF7MSMKICTMWW1I5","","null","<img src=""img/land3.png"" style=""width:200px; border:14px solid green;"">","null","","","","","","","","","",""
"","image-keyboard-response","284","134535","0.0-284.0","34HJIJKLP6I86G0SKDF9MO5EDGDV44","A2T1LNI80EPOQR","3IH9TRB0FBLK6RLF7MSMKICTMWW1I5","","224.90000000037253","img/land2.png","75","225.3000000002794","2","1","2","2","1,0.5,0.5,0.5,1,0.5,0.5,0.5,1","1,0.5,0.5,0.5,1,0.5,0.5,0.5,1","","",""
"","html-keyboard-response","285","134837","0.0-285.0","34HJIJKLP6I86G0SKDF9MO5EDGDV44","A2T1LNI80EPOQR","3IH9TRB0FBLK6RLF7MSMKICTMWW1I5","","null","<img src=""img/land2.png"" style=""width:200px; border:14px solid green;"">","null","","","","","","","","","",""
"","image-keyboard-response","286","135165","0.0-286.0","34HJIJKLP6I86G0SKDF9MO5EDGDV44","A2T1LNI80EPOQR","3IH9TRB0FBLK6RLF7MSMKICTMWW1I5","","327.20000000018626","img/land1.png","75","327.70000000018626","2","0","1","2","1,0.5,0.5,0.5,1,0.5,0.5,0.5,1","1,0.5,0.5,0.5,1,0.5,0.5,0.5,1","","",""
"","html-keyboard-response","287","135468","0.0-287.0","34HJIJKLP6I86G0SKDF9MO5EDGDV44","A2T1LNI80EPOQR","3IH9TRB0FBLK6RLF7MSMKICTMWW1I5","","null","<img src=""img/land1.png"" style=""width:200px;border:14px solid red;"">","null","","","","","","","","","",""
"","image-keyboard-response","288","135684","0.0-288.0","34HJIJKLP6I86G0SKDF9MO5EDGDV44","A2T1LNI80EPOQR","3IH9TRB0FBLK6RLF7MSMKICTMWW1I5","","215.29999999981374","img/land3.png","74","215.8000000002794","1","0","3","2","1,0.5,0.5,0.5,1,0.5,0.5,0.5,1","1,0.5,0.5,0.5,1,0.5,0.5,0.5,1","","",""
"","html-keyboard-response","289","135985","0.0-289.0","34HJIJKLP6I86G0SKDF9MO5EDGDV44","A2T1LNI80EPOQR","3IH9TRB0FBLK6RLF7MSMKICTMWW1I5","","null","<img src=""img/land3.png"" style=""width:200px;border:14px solid red;"">","null","","","","","","","","","",""
"","image-keyboard-response","290","136211","0.0-290.0","34HJIJKLP6I86G0SKDF9MO5EDGDV44","A2T1LNI80EPOQR","3IH9TRB0FBLK6RLF7MSMKICTMWW1I5","","225.10000000009313","img/land3.png","75","225.6999999997206","2","0","3","2","1,0.5,0.5,0.5,1,0.5,0.5,0.5,1","1,0.5,0.5,0.5,1,0.5,0.5,0.5,1","","",""
"","html-keyboard-response","291","136512","0.0-291.0","34HJIJKLP6I86G0SKDF9MO5EDGDV44","A2T1LNI80EPOQR","3IH9TRB0FBLK6RLF7MSMKICTMWW1I5","","null","<img src=""img/land3.png"" style=""width:200px;border:14px solid red;"">","null","","","","","","","","","",""
"","image-keyboard-response","292","136670","0.0-292.0","34HJIJKLP6I86G0SKDF9MO5EDGDV44","A2T1LNI80EPOQR","3IH9TRB0FBLK6RLF7MSMKICTMWW1I5","","157.39999999990687","img/land3.png","75","157.89999999990687","2","0","3","2","1,0.5,0.5,0.5,1,0.5,0.5,0.5,1","1,0.5,0.5,0.5,1,0.5,0.5,0.5,1","","",""
"","html-keyboard-response","293","136972","0.0-293.0","34HJIJKLP6I86G0SKDF9MO5EDGDV44","A2T1LNI80EPOQR","3IH9TRB0FBLK6RLF7MSMKICTMWW1I5","","null","<img src=""img/land3.png"" style=""width:200px;border:14px solid red;"">","null","","","","","","","","","",""
"","image-keyboard-response","294","137133","0.0-294.0","34HJIJKLP6I86G0SKDF9MO5EDGDV44","A2T1LNI80EPOQR","3IH9TRB0FBLK6RLF7MSMKICTMWW1I5","","160.89999999990687","img/land1.png","76","161.5","3","1","1","2","1,0.5,0.5,0.5,1,0.5,0.5,0.5,1","1,0.5,0.5,0.5,1,0.5,0.5,0.5,1","","",""
"","html-keyboard-response","295","137436","0.0-295.0","34HJIJKLP6I86G0SKDF9MO5EDGDV44","A2T1LNI80EPOQR","3IH9TRB0FBLK6RLF7MSMKICTMWW1I5","","null","<img src=""img/land1.png"" style=""width:200px; border:14px solid green;"">","null","","","","","","","","","",""
"","image-keyboard-response","296","137603","0.0-296.0","34HJIJKLP6I86G0SKDF9MO5EDGDV44","A2T1LNI80EPOQR","3IH9TRB0FBLK6RLF7MSMKICTMWW1I5","","166.8000000002794","img/land3.png","75","167.1999999997206","2","0","3","2","1,0.5,0.5,0.5,1,0.5,0.5,0.5,1","1,0.5,0.5,0.5,1,0.5,0.5,0.5,1","","",""
"","html-keyboard-response","297","137904","0.0-297.0","34HJIJKLP6I86G0SKDF9MO5EDGDV44","A2T1LNI80EPOQR","3IH9TRB0FBLK6RLF7MSMKICTMWW1I5","","null","<img src=""img/land3.png"" style=""width:200px;border:14px solid red;"">","null","","","","","","","","","",""
"","image-keyboard-response","298","138091","0.0-298.0","34HJIJKLP6I86G0SKDF9MO5EDGDV44","A2T1LNI80EPOQR","3IH9TRB0FBLK6RLF7MSMKICTMWW1I5","","185.90000000037253","img/land2.png","74","186.5","1","1","2","2","1,0.5,0.5,0.5,1,0.5,0.5,0.5,1","1,0.5,0.5,0.5,1,0.5,0.5,0.5,1","","",""
"","html-keyboard-response","299","138392","0.0-299.0","34HJIJKLP6I86G0SKDF9MO5EDGDV44","A2T1LNI80EPOQR","3IH9TRB0FBLK6RLF7MSMKICTMWW1I5","","null","<img src=""img/land2.png"" style=""width:200px; border:14px solid green;"">","null","","","","","","","","","",""
"","image-keyboard-response","300","138561","0.0-300.0","34HJIJKLP6I86G0SKDF9MO5EDGDV44","A2T1LNI80EPOQR","3IH9TRB0FBLK6RLF7MSMKICTMWW1I5","","167.79999999981374","img/land1.png","75","168.39999999990687","2","0","1","2","1,0.5,0.5,0.5,1,0.5,0.5,0.5,1","1,0.5,0.5,0.5,1,0.5,0.5,0.5,1","","",""
"","html-keyboard-response","301","138861","0.0-301.0","34HJIJKLP6I86G0SKDF9MO5EDGDV44","A2T1LNI80EPOQR","3IH9TRB0FBLK6RLF7MSMKICTMWW1I5","","null","<img src=""img/land1.png"" style=""width:200px;border:14px solid red;"">","null","","","","","","","","","",""
"","html-keyboard-response","302","141161","0.0-302.0","34HJIJKLP6I86G0SKDF9MO5EDGDV44","A2T1LNI80EPOQR","3IH9TRB0FBLK6RLF7MSMKICTMWW1I5","","","","","","","","","","","","","",""
"","image-keyboard-response","303","142318","0.0-303.0","34HJIJKLP6I86G0SKDF9MO5EDGDV44","A2T1LNI80EPOQR","3IH9TRB0FBLK6RLF7MSMKICTMWW1I5","","1156.2999999998137","img/land5.png","74","1156.7999999998137","1","1","2","2","1,0.5,0.5,0.5,1,0.5,0.5,0.5,1","1,0.5,0.5,0.5,1,0.5,0.5,0.5,1","","",""
"","html-keyboard-response","304","142620","0.0-304.0","34HJIJKLP6I86G0SKDF9MO5EDGDV44","A2T1LNI80EPOQR","3IH9TRB0FBLK6RLF7MSMKICTMWW1I5","","null","<img src=""img/land5.png"" style=""width:200px; border:14px solid green;"">","null","","","","","","","","","",""
"","image-keyboard-response","305","143330","0.0-305.0","34HJIJKLP6I86G0SKDF9MO5EDGDV44","A2T1LNI80EPOQR","3IH9TRB0FBLK6RLF7MSMKICTMWW1I5","","708.8999999999069","img/land6.png","74","709.7000000001863","1","1","3","2","1,0.5,0.5,0.5,1,0.5,0.5,0.5,1","1,0.5,0.5,0.5,1,0.5,0.5,0.5,1","","",""
"","html-keyboard-response","306","143631","0.0-306.0","34HJIJKLP6I86G0SKDF9MO5EDGDV44","A2T1LNI80EPOQR","3IH9TRB0FBLK6RLF7MSMKICTMWW1I5","","null","<img src=""img/land6.png"" style=""width:200px; border:14px solid green;"">","null","","","","","","","","","",""
"","image-keyboard-response","307","143743","0.0-307.0","34HJIJKLP6I86G0SKDF9MO5EDGDV44","A2T1LNI80EPOQR","3IH9TRB0FBLK6RLF7MSMKICTMWW1I5","","111","img/land5.png","75","111.70000000018626","2","1","2","2","1,0.5,0.5,0.5,1,0.5,0.5,0.5,1","1,0.5,0.5,0.5,1,0.5,0.5,0.5,1","","",""
"","html-keyboard-response","308","144044","0.0-308.0","34HJIJKLP6I86G0SKDF9MO5EDGDV44","A2T1LNI80EPOQR","3IH9TRB0FBLK6RLF7MSMKICTMWW1I5","","null","<img src=""img/land5.png"" style=""width:200px; border:14px solid green;"">","null","","","","","","","","","",""
"","image-keyboard-response","309","144495","0.0-309.0","34HJIJKLP6I86G0SKDF9MO5EDGDV44","A2T1LNI80EPOQR","3IH9TRB0FBLK6RLF7MSMKICTMWW1I5","","449.79999999981374","img/land4.png","76","450.60000000009313","3","0","1","2","1,0.5,0.5,0.5,1,0.5,0.5,0.5,1","1,0.5,0.5,0.5,1,0.5,0.5,0.5,1","","",""
"","html-keyboard-response","310","144796","0.0-310.0","34HJIJKLP6I86G0SKDF9MO5EDGDV44","A2T1LNI80EPOQR","3IH9TRB0FBLK6RLF7MSMKICTMWW1I5","","null","<img src=""img/land4.png"" style=""width:200px;border:14px solid red;"">","null","","","","","","","","","",""
"","image-keyboard-response","311","145183","0.0-311.0","34HJIJKLP6I86G0SKDF9MO5EDGDV44","A2T1LNI80EPOQR","3IH9TRB0FBLK6RLF7MSMKICTMWW1I5","","385.89999999990687","img/land6.png","75","386.39999999990687","2","1","3","2","1,0.5,0.5,0.5,1,0.5,0.5,0.5,1","1,0.5,0.5,0.5,1,0.5,0.5,0.5,1","","",""
"","html-keyboard-response","312","145485","0.0-312.0","34HJIJKLP6I86G0SKDF9MO5EDGDV44","A2T1LNI80EPOQR","3IH9TRB0FBLK6RLF7MSMKICTMWW1I5","","null","<img src=""img/land6.png"" style=""width:200px; border:14px solid green;"">","null","","","","","","","","","",""
"","image-keyboard-response","313","145770","0.0-313.0","34HJIJKLP6I86G0SKDF9MO5EDGDV44","A2T1LNI80EPOQR","3IH9TRB0FBLK6RLF7MSMKICTMWW1I5","","284.90000000037253","img/land4.png","74","285.60000000009313","1","1","1","2","1,0.5,0.5,0.5,1,0.5,0.5,0.5,1","1,0.5,0.5,0.5,1,0.5,0.5,0.5,1","","",""
"","html-keyboard-response","314","146072","0.0-314.0","34HJIJKLP6I86G0SKDF9MO5EDGDV44","A2T1LNI80EPOQR","3IH9TRB0FBLK6RLF7MSMKICTMWW1I5","","null","<img src=""img/land4.png"" style=""width:200px; border:14px solid green;"">","null","","","","","","","","","",""
"","image-keyboard-response","315","146299","0.0-315.0","34HJIJKLP6I86G0SKDF9MO5EDGDV44","A2T1LNI80EPOQR","3IH9TRB0FBLK6RLF7MSMKICTMWW1I5","","226.89999999990687","img/land6.png","74","227.3000000002794","1","0","3","2","1,0.5,0.5,0.5,1,0.5,0.5,0.5,1","1,0.5,0.5,0.5,1,0.5,0.5,0.5,1","","",""
"","html-keyboard-response","316","146602","0.0-316.0","34HJIJKLP6I86G0SKDF9MO5EDGDV44","A2T1LNI80EPOQR","3IH9TRB0FBLK6RLF7MSMKICTMWW1I5","","null","<img src=""img/land6.png"" style=""width:200px;border:14px solid red;"">","null","","","","","","","","","",""
"","image-keyboard-response","317","146862","0.0-317.0","34HJIJKLP6I86G0SKDF9MO5EDGDV44","A2T1LNI80EPOQR","3IH9TRB0FBLK6RLF7MSMKICTMWW1I5","","259.70000000018626","img/land6.png","75","260.1999999997206","2","1","3","2","1,0.5,0.5,0.5,1,0.5,0.5,0.5,1","1,0.5,0.5,0.5,1,0.5,0.5,0.5,1","","",""
"","html-keyboard-response","318","147164","0.0-318.0","34HJIJKLP6I86G0SKDF9MO5EDGDV44","A2T1LNI80EPOQR","3IH9TRB0FBLK6RLF7MSMKICTMWW1I5","","null","<img src=""img/land6.png"" style=""width:200px; border:14px solid green;"">","null","","","","","","","","","",""
"","image-keyboard-response","319","147395","0.0-319.0","34HJIJKLP6I86G0SKDF9MO5EDGDV44","A2T1LNI80EPOQR","3IH9TRB0FBLK6RLF7MSMKICTMWW1I5","","230.20000000018626","img/land4.png","75","230.70000000018626","2","1","1","2","1,0.5,0.5,0.5,1,0.5,0.5,0.5,1","1,0.5,0.5,0.5,1,0.5,0.5,0.5,1","","",""
"","html-keyboard-response","320","147696","0.0-320.0","34HJIJKLP6I86G0SKDF9MO5EDGDV44","A2T1LNI80EPOQR","3IH9TRB0FBLK6RLF7MSMKICTMWW1I5","","null","<img src=""img/land4.png"" style=""width:200px; border:14px solid green;"">","null","","","","","","","","","",""
"","image-keyboard-response","321","148029","0.0-321.0","34HJIJKLP6I86G0SKDF9MO5EDGDV44","A2T1LNI80EPOQR","3IH9TRB0FBLK6RLF7MSMKICTMWW1I5","","332.8000000002794","img/land4.png","75","333.5","2","1","1","2","1,0.5,0.5,0.5,1,0.5,0.5,0.5,1","1,0.5,0.5,0.5,1,0.5,0.5,0.5,1","","",""
"","html-keyboard-response","322","148331","0.0-322.0","34HJIJKLP6I86G0SKDF9MO5EDGDV44","A2T1LNI80EPOQR","3IH9TRB0FBLK6RLF7MSMKICTMWW1I5","","null","<img src=""img/land4.png"" style=""width:200px; border:14px solid green;"">","null","","","","","","","","","",""
"","image-keyboard-response","323","148830","0.0-323.0","34HJIJKLP6I86G0SKDF9MO5EDGDV44","A2T1LNI80EPOQR","3IH9TRB0FBLK6RLF7MSMKICTMWW1I5","","498.29999999981374","img/land6.png","76","498.8000000002794","3","1","3","2","1,0.5,0.5,0.5,1,0.5,0.5,0.5,1","1,0.5,0.5,0.5,1,0.5,0.5,0.5,1","","",""
"","html-keyboard-response","324","149132","0.0-324.0","34HJIJKLP6I86G0SKDF9MO5EDGDV44","A2T1LNI80EPOQR","3IH9TRB0FBLK6RLF7MSMKICTMWW1I5","","null","<img src=""img/land6.png"" style=""width:200px; border:14px solid green;"">","null","","","","","","","","","",""
"","image-keyboard-response","325","149401","0.0-325.0","34HJIJKLP6I86G0SKDF9MO5EDGDV44","A2T1LNI80EPOQR","3IH9TRB0FBLK6RLF7MSMKICTMWW1I5","","268.10000000009313","img/land5.png","76","268.8000000002794","3","1","2","2","1,0.5,0.5,0.5,1,0.5,0.5,0.5,1","1,0.5,0.5,0.5,1,0.5,0.5,0.5,1","","",""
"","html-keyboard-response","326","149703","0.0-326.0","34HJIJKLP6I86G0SKDF9MO5EDGDV44","A2T1LNI80EPOQR","3IH9TRB0FBLK6RLF7MSMKICTMWW1I5","","null","<img src=""img/land5.png"" style=""width:200px; border:14px solid green;"">","null","","","","","","","","","",""
"","image-keyboard-response","327","150114","0.0-327.0","34HJIJKLP6I86G0SKDF9MO5EDGDV44","A2T1LNI80EPOQR","3IH9TRB0FBLK6RLF7MSMKICTMWW1I5","","410.5","img/land4.png","75","411","2","1","1","2","1,0.5,0.5,0.5,1,0.5,0.5,0.5,1","1,0.5,0.5,0.5,1,0.5,0.5,0.5,1","","",""
"","html-keyboard-response","328","150415","0.0-328.0","34HJIJKLP6I86G0SKDF9MO5EDGDV44","A2T1LNI80EPOQR","3IH9TRB0FBLK6RLF7MSMKICTMWW1I5","","null","<img src=""img/land4.png"" style=""width:200px; border:14px solid green;"">","null","","","","","","","","","",""
"","image-keyboard-response","329","150658","0.0-329.0","34HJIJKLP6I86G0SKDF9MO5EDGDV44","A2T1LNI80EPOQR","3IH9TRB0FBLK6RLF7MSMKICTMWW1I5","","243.10000000009313","img/land5.png","75","243.5","2","1","2","2","1,0.5,0.5,0.5,1,0.5,0.5,0.5,1","1,0.5,0.5,0.5,1,0.5,0.5,0.5,1","","",""
"","html-keyboard-response","330","150960","0.0-330.0","34HJIJKLP6I86G0SKDF9MO5EDGDV44","A2T1LNI80EPOQR","3IH9TRB0FBLK6RLF7MSMKICTMWW1I5","","null","<img src=""img/land5.png"" style=""width:200px; border:14px solid green;"">","null","","","","","","","","","",""
"","image-keyboard-response","331","151107","0.0-331.0","34HJIJKLP6I86G0SKDF9MO5EDGDV44","A2T1LNI80EPOQR","3IH9TRB0FBLK6RLF7MSMKICTMWW1I5","","146.5","img/land4.png","74","147","1","1","1","2","1,0.5,0.5,0.5,1,0.5,0.5,0.5,1","1,0.5,0.5,0.5,1,0.5,0.5,0.5,1","","",""
"","html-keyboard-response","332","151408","0.0-332.0","34HJIJKLP6I86G0SKDF9MO5EDGDV44","A2T1LNI80EPOQR","3IH9TRB0FBLK6RLF7MSMKICTMWW1I5","","null","<img src=""img/land4.png"" style=""width:200px; border:14px solid green;"">","null","","","","","","","","","",""
"","image-keyboard-response","333","151649","0.0-333.0","34HJIJKLP6I86G0SKDF9MO5EDGDV44","A2T1LNI80EPOQR","3IH9TRB0FBLK6RLF7MSMKICTMWW1I5","","240.60000000009313","img/land4.png","75","241.1999999997206","2","1","1","2","1,0.5,0.5,0.5,1,0.5,0.5,0.5,1","1,0.5,0.5,0.5,1,0.5,0.5,0.5,1","","",""
"","html-keyboard-response","334","151951","0.0-334.0","34HJIJKLP6I86G0SKDF9MO5EDGDV44","A2T1LNI80EPOQR","3IH9TRB0FBLK6RLF7MSMKICTMWW1I5","","null","<img src=""img/land4.png"" style=""width:200px; border:14px solid green;"">","null","","","","","","","","","",""
"","image-keyboard-response","335","152167","0.0-335.0","34HJIJKLP6I86G0SKDF9MO5EDGDV44","A2T1LNI80EPOQR","3IH9TRB0FBLK6RLF7MSMKICTMWW1I5","","216","img/land6.png","75","216.39999999990687","2","0","3","2","1,0.5,0.5,0.5,1,0.5,0.5,0.5,1","1,0.5,0.5,0.5,1,0.5,0.5,0.5,1","","",""
"","html-keyboard-response","336","152470","0.0-336.0","34HJIJKLP6I86G0SKDF9MO5EDGDV44","A2T1LNI80EPOQR","3IH9TRB0FBLK6RLF7MSMKICTMWW1I5","","null","<img src=""img/land6.png"" style=""width:200px;border:14px solid red;"">","null","","","","","","","","","",""
"","image-keyboard-response","337","152622","0.0-337.0","34HJIJKLP6I86G0SKDF9MO5EDGDV44","A2T1LNI80EPOQR","3IH9TRB0FBLK6RLF7MSMKICTMWW1I5","","151.70000000018626","img/land5.png","76","152.3000000002794","3","1","2","2","1,0.5,0.5,0.5,1,0.5,0.5,0.5,1","1,0.5,0.5,0.5,1,0.5,0.5,0.5,1","","",""
"","html-keyboard-response","338","152924","0.0-338.0","34HJIJKLP6I86G0SKDF9MO5EDGDV44","A2T1LNI80EPOQR","3IH9TRB0FBLK6RLF7MSMKICTMWW1I5","","null","<img src=""img/land5.png"" style=""width:200px; border:14px solid green;"">","null","","","","","","","","","",""
"","image-keyboard-response","339","153136","0.0-339.0","34HJIJKLP6I86G0SKDF9MO5EDGDV44","A2T1LNI80EPOQR","3IH9TRB0FBLK6RLF7MSMKICTMWW1I5","","211.79999999981374","img/land6.png","76","212.39999999990687","3","1","3","2","1,0.5,0.5,0.5,1,0.5,0.5,0.5,1","1,0.5,0.5,0.5,1,0.5,0.5,0.5,1","","",""
"","html-keyboard-response","340","153449","0.0-340.0","34HJIJKLP6I86G0SKDF9MO5EDGDV44","A2T1LNI80EPOQR","3IH9TRB0FBLK6RLF7MSMKICTMWW1I5","","null","<img src=""img/land6.png"" style=""width:200px; border:14px solid green;"">","null","","","","","","","","","",""
"","image-keyboard-response","341","153641","0.0-341.0","34HJIJKLP6I86G0SKDF9MO5EDGDV44","A2T1LNI80EPOQR","3IH9TRB0FBLK6RLF7MSMKICTMWW1I5","","191.8000000002794","img/land5.png","75","192.3000000002794","2","1","2","2","1,0.5,0.5,0.5,1,0.5,0.5,0.5,1","1,0.5,0.5,0.5,1,0.5,0.5,0.5,1","","",""
"","html-keyboard-response","342","153943","0.0-342.0","34HJIJKLP6I86G0SKDF9MO5EDGDV44","A2T1LNI80EPOQR","3IH9TRB0FBLK6RLF7MSMKICTMWW1I5","","null","<img src=""img/land5.png"" style=""width:200px; border:14px solid green;"">","null","","","","","","","","","",""
"","image-keyboard-response","343","154190","0.0-343.0","34HJIJKLP6I86G0SKDF9MO5EDGDV44","A2T1LNI80EPOQR","3IH9TRB0FBLK6RLF7MSMKICTMWW1I5","","246.20000000018626","img/land4.png","74","246.89999999990687","1","1","1","2","1,0.5,0.5,0.5,1,0.5,0.5,0.5,1","1,0.5,0.5,0.5,1,0.5,0.5,0.5,1","","",""
"","html-keyboard-response","344","154492","0.0-344.0","34HJIJKLP6I86G0SKDF9MO5EDGDV44","A2T1LNI80EPOQR","3IH9TRB0FBLK6RLF7MSMKICTMWW1I5","","null","<img src=""img/land4.png"" style=""width:200px; border:14px solid green;"">","null","","","","","","","","","",""
"","image-keyboard-response","345","154638","0.0-345.0","34HJIJKLP6I86G0SKDF9MO5EDGDV44","A2T1LNI80EPOQR","3IH9TRB0FBLK6RLF7MSMKICTMWW1I5","","145.20000000018626","img/land5.png","75","145.79999999981374","2","1","2","2","1,0.5,0.5,0.5,1,0.5,0.5,0.5,1","1,0.5,0.5,0.5,1,0.5,0.5,0.5,1","","",""
"","html-keyboard-response","346","154939","0.0-346.0","34HJIJKLP6I86G0SKDF9MO5EDGDV44","A2T1LNI80EPOQR","3IH9TRB0FBLK6RLF7MSMKICTMWW1I5","","null","<img src=""img/land5.png"" style=""width:200px; border:14px solid green;"">","null","","","","","","","","","",""
"","image-keyboard-response","347","155117","0.0-347.0","34HJIJKLP6I86G0SKDF9MO5EDGDV44","A2T1LNI80EPOQR","3IH9TRB0FBLK6RLF7MSMKICTMWW1I5","","177.10000000009313","img/land4.png","76","177.79999999981374","3","0","1","2","1,0.5,0.5,0.5,1,0.5,0.5,0.5,1","1,0.5,0.5,0.5,1,0.5,0.5,0.5,1","","",""
"","html-keyboard-response","348","155419","0.0-348.0","34HJIJKLP6I86G0SKDF9MO5EDGDV44","A2T1LNI80EPOQR","3IH9TRB0FBLK6RLF7MSMKICTMWW1I5","","null","<img src=""img/land4.png"" style=""width:200px;border:14px solid red;"">","null","","","","","","","","","",""
"","image-keyboard-response","349","155594","0.0-349.0","34HJIJKLP6I86G0SKDF9MO5EDGDV44","A2T1LNI80EPOQR","3IH9TRB0FBLK6RLF7MSMKICTMWW1I5","","175.29999999981374","img/land6.png","75","175.70000000018626","2","0","3","2","1,0.5,0.5,0.5,1,0.5,0.5,0.5,1","1,0.5,0.5,0.5,1,0.5,0.5,0.5,1","","",""
"","html-keyboard-response","350","155896","0.0-350.0","34HJIJKLP6I86G0SKDF9MO5EDGDV44","A2T1LNI80EPOQR","3IH9TRB0FBLK6RLF7MSMKICTMWW1I5","","null","<img src=""img/land6.png"" style=""width:200px;border:14px solid red;"">","null","","","","","","","","","",""
"","image-keyboard-response","351","156099","0.0-351.0","34HJIJKLP6I86G0SKDF9MO5EDGDV44","A2T1LNI80EPOQR","3IH9TRB0FBLK6RLF7MSMKICTMWW1I5","","202","img/land6.png","74","202.5","1","1","3","2","1,0.5,0.5,0.5,1,0.5,0.5,0.5,1","1,0.5,0.5,0.5,1,0.5,0.5,0.5,1","","",""
"","html-keyboard-response","352","156399","0.0-352.0","34HJIJKLP6I86G0SKDF9MO5EDGDV44","A2T1LNI80EPOQR","3IH9TRB0FBLK6RLF7MSMKICTMWW1I5","","null","<img src=""img/land6.png"" style=""width:200px; border:14px solid green;"">","null","","","","","","","","","",""
"","image-keyboard-response","353","156572","0.0-353.0","34HJIJKLP6I86G0SKDF9MO5EDGDV44","A2T1LNI80EPOQR","3IH9TRB0FBLK6RLF7MSMKICTMWW1I5","","171.60000000009313","img/land4.png","74","172.10000000009313","1","1","1","2","1,0.5,0.5,0.5,1,0.5,0.5,0.5,1","1,0.5,0.5,0.5,1,0.5,0.5,0.5,1","","",""
"","html-keyboard-response","354","156873","0.0-354.0","34HJIJKLP6I86G0SKDF9MO5EDGDV44","A2T1LNI80EPOQR","3IH9TRB0FBLK6RLF7MSMKICTMWW1I5","","null","<img src=""img/land4.png"" style=""width:200px; border:14px solid green;"">","null","","","","","","","","","",""
"","image-keyboard-response","355","157019","0.0-355.0","34HJIJKLP6I86G0SKDF9MO5EDGDV44","A2T1LNI80EPOQR","3IH9TRB0FBLK6RLF7MSMKICTMWW1I5","","145.60000000009313","img/land6.png","75","146.10000000009313","2","0","3","2","1,0.5,0.5,0.5,1,0.5,0.5,0.5,1","1,0.5,0.5,0.5,1,0.5,0.5,0.5,1","","",""
"","html-keyboard-response","356","157320","0.0-356.0","34HJIJKLP6I86G0SKDF9MO5EDGDV44","A2T1LNI80EPOQR","3IH9TRB0FBLK6RLF7MSMKICTMWW1I5","","null","<img src=""img/land6.png"" style=""width:200px;border:14px solid red;"">","null","","","","","","","","","",""
"","image-keyboard-response","357","157501","0.0-357.0","34HJIJKLP6I86G0SKDF9MO5EDGDV44","A2T1LNI80EPOQR","3IH9TRB0FBLK6RLF7MSMKICTMWW1I5","","180.60000000009313","img/land6.png","76","181.10000000009313","3","1","3","2","1,0.5,0.5,0.5,1,0.5,0.5,0.5,1","1,0.5,0.5,0.5,1,0.5,0.5,0.5,1","","",""
"","html-keyboard-response","358","157804","0.0-358.0","34HJIJKLP6I86G0SKDF9MO5EDGDV44","A2T1LNI80EPOQR","3IH9TRB0FBLK6RLF7MSMKICTMWW1I5","","null","<img src=""img/land6.png"" style=""width:200px; border:14px solid green;"">","null","","","","","","","","","",""
"","image-keyboard-response","359","157958","0.0-359.0","34HJIJKLP6I86G0SKDF9MO5EDGDV44","A2T1LNI80EPOQR","3IH9TRB0FBLK6RLF7MSMKICTMWW1I5","","153.59999999962747","img/land6.png","75","154.10000000009313","2","1","3","2","1,0.5,0.5,0.5,1,0.5,0.5,0.5,1","1,0.5,0.5,0.5,1,0.5,0.5,0.5,1","","",""
"","html-keyboard-response","360","158260","0.0-360.0","34HJIJKLP6I86G0SKDF9MO5EDGDV44","A2T1LNI80EPOQR","3IH9TRB0FBLK6RLF7MSMKICTMWW1I5","","null","<img src=""img/land6.png"" style=""width:200px; border:14px solid green;"">","null","","","","","","","","","",""
"","image-keyboard-response","361","158409","0.0-361.0","34HJIJKLP6I86G0SKDF9MO5EDGDV44","A2T1LNI80EPOQR","3IH9TRB0FBLK6RLF7MSMKICTMWW1I5","","148.29999999981374","img/land4.png","75","148.79999999981374","2","0","1","2","1,0.5,0.5,0.5,1,0.5,0.5,0.5,1","1,0.5,0.5,0.5,1,0.5,0.5,0.5,1","","",""
"","html-keyboard-response","362","158710","0.0-362.0","34HJIJKLP6I86G0SKDF9MO5EDGDV44","A2T1LNI80EPOQR","3IH9TRB0FBLK6RLF7MSMKICTMWW1I5","","null","<img src=""img/land4.png"" style=""width:200px;border:14px solid red;"">","null","","","","","","","","","",""
