"success","trial_type","trial_index","time_elapsed","internal_node_id","assignmentID","mturkID","hitID","view_history","rt","stimulus","key_press","reactionTime","a","r","s","cond","reward_cond","reward_cond_actual","reward_matrix_idx","responses","question_order"
"true","fullscreen","0","43701","0.0-0.0","3W8CV64QJ3L4LLBKWJUWOVPLSEO9H3","A2T8U68Y44GPVD","3P7RGTLO6EZ76AO3386R8ZK9IWWKAW","","","","","","","","","","","","","",""
"","instructions","1","55960","0.0-1.0","3W8CV64QJ3L4LLBKWJUWOVPLSEO9H3","A2T8U68Y44GPVD","3P7RGTLO6EZ76AO3386R8ZK9IWWKAW","[{""page_index"":0,""viewing_time"":1873},{""page_index"":1,""viewing_time"":1848},{""page_index"":2,""viewing_time"":1226},{""page_index"":3,""viewing_time"":2020},{""page_index"":4,""viewing_time"":2496},{""page_index"":5,""viewing_time"":1535},{""page_index"":6,""viewing_time"":1260}]","12258","","","","","","","","","","","",""
"","image-keyboard-response","2","56784","0.0-2.0","3W8CV64QJ3L4LLBKWJUWOVPLSEO9H3","A2T8U68Y44GPVD","3P7RGTLO6EZ76AO3386R8ZK9IWWKAW","","821","img/land1.png","74","823","1","1","1","1","0.8,0.2,0.2,0.2,0.8,0.2,0.2,0.2,0.8","0.8,0.2,0.2,0.2,0.8,0.2,0.2,0.2,0.8","1","",""
"","html-keyboard-response","3","57085","0.0-3.0","3W8CV64QJ3L4LLBKWJUWOVPLSEO9H3","A2T8U68Y44GPVD","3P7RGTLO6EZ76AO3386R8ZK9IWWKAW","","null","<img src=""img/land1.png"" style=""width:200px; border:14px solid green;"">","null","","","","","","","","","",""
"","image-keyboard-response","4","57328","0.0-4.0","3W8CV64QJ3L4LLBKWJUWOVPLSEO9H3","A2T8U68Y44GPVD","3P7RGTLO6EZ76AO3386R8ZK9IWWKAW","","242","img/land1.png","75","243","2","0","1","1","0.8,0.2,0.2,0.2,0.8,0.2,0.2,0.2,0.8","0.8,0.2,0.2,0.2,0.8,0.2,0.2,0.2,0.8","1","",""
"","html-keyboard-response","5","57630","0.0-5.0","3W8CV64QJ3L4LLBKWJUWOVPLSEO9H3","A2T8U68Y44GPVD","3P7RGTLO6EZ76AO3386R8ZK9IWWKAW","","null","<img src=""img/land1.png"" style=""width:200px;border:14px solid red;"">","null","","","","","","","","","",""
"","image-keyboard-response","6","57764","0.0-6.0","3W8CV64QJ3L4LLBKWJUWOVPLSEO9H3","A2T8U68Y44GPVD","3P7RGTLO6EZ76AO3386R8ZK9IWWKAW","","133","img/land5.png","74","134","1","0","3","1","0.8,0.2,0.2,0.2,0.8,0.2,0.2,0.2,0.8","0.8,0.2,0.2,0.2,0.8,0.2,0.2,0.2,0.8","1","",""
"","html-keyboard-response","7","58067","0.0-7.0","3W8CV64QJ3L4LLBKWJUWOVPLSEO9H3","A2T8U68Y44GPVD","3P7RGTLO6EZ76AO3386R8ZK9IWWKAW","","null","<img src=""img/land5.png"" style=""width:200px;border:14px solid red;"">","null","","","","","","","","","",""
"","image-keyboard-response","8","58143","0.0-8.0","3W8CV64QJ3L4LLBKWJUWOVPLSEO9H3","A2T8U68Y44GPVD","3P7RGTLO6EZ76AO3386R8ZK9IWWKAW","","75","img/land4.png","74","76","1","1","2","1","0.8,0.2,0.2,0.2,0.8,0.2,0.2,0.2,0.8","0.8,0.2,0.2,0.2,0.8,0.2,0.2,0.2,0.8","1","",""
"","html-keyboard-response","9","58445","0.0-9.0","3W8CV64QJ3L4LLBKWJUWOVPLSEO9H3","A2T8U68Y44GPVD","3P7RGTLO6EZ76AO3386R8ZK9IWWKAW","","null","<img src=""img/land4.png"" style=""width:200px; border:14px solid green;"">","null","","","","","","","","","",""
"","image-keyboard-response","10","58647","0.0-10.0","3W8CV64QJ3L4LLBKWJUWOVPLSEO9H3","A2T8U68Y44GPVD","3P7RGTLO6EZ76AO3386R8ZK9IWWKAW","","201","img/land4.png","74","202","1","1","2","1","0.8,0.2,0.2,0.2,0.8,0.2,0.2,0.2,0.8","0.8,0.2,0.2,0.2,0.8,0.2,0.2,0.2,0.8","1","",""
"","html-keyboard-response","11","58949","0.0-11.0","3W8CV64QJ3L4LLBKWJUWOVPLSEO9H3","A2T8U68Y44GPVD","3P7RGTLO6EZ76AO3386R8ZK9IWWKAW","","null","<img src=""img/land4.png"" style=""width:200px; border:14px solid green;"">","null","","","","","","","","","",""
"","image-keyboard-response","12","59119","0.0-12.0","3W8CV64QJ3L4LLBKWJUWOVPLSEO9H3","A2T8U68Y44GPVD","3P7RGTLO6EZ76AO3386R8ZK9IWWKAW","","169","img/land5.png","75","170","2","0","3","1","0.8,0.2,0.2,0.2,0.8,0.2,0.2,0.2,0.8","0.8,0.2,0.2,0.2,0.8,0.2,0.2,0.2,0.8","1","",""
"","html-keyboard-response","13","59420","0.0-13.0","3W8CV64QJ3L4LLBKWJUWOVPLSEO9H3","A2T8U68Y44GPVD","3P7RGTLO6EZ76AO3386R8ZK9IWWKAW","","null","<img src=""img/land5.png"" style=""width:200px;border:14px solid red;"">","null","","","","","","","","","",""
"","image-keyboard-response","14","59511","0.0-14.0","3W8CV64QJ3L4LLBKWJUWOVPLSEO9H3","A2T8U68Y44GPVD","3P7RGTLO6EZ76AO3386R8ZK9IWWKAW","","90","img/land4.png","74","91","1","0","2","1","0.8,0.2,0.2,0.2,0.8,0.2,0.2,0.2,0.8","0.8,0.2,0.2,0.2,0.8,0.2,0.2,0.2,0.8","1","",""
"","html-keyboard-response","15","59877","0.0-15.0","3W8CV64QJ3L4LLBKWJUWOVPLSEO9H3","A2T8U68Y44GPVD","3P7RGTLO6EZ76AO3386R8ZK9IWWKAW","","null","<img src=""img/land4.png"" style=""width:200px;border:14px solid red;"">","null","","","","","","","","","",""
"","image-keyboard-response","16","59881","0.0-16.0","3W8CV64QJ3L4LLBKWJUWOVPLSEO9H3","A2T8U68Y44GPVD","3P7RGTLO6EZ76AO3386R8ZK9IWWKAW","","3","img/land5.png","76","4","3","1","3","1","0.8,0.2,0.2,0.2,0.8,0.2,0.2,0.2,0.8","0.8,0.2,0.2,0.2,0.8,0.2,0.2,0.2,0.8","1","",""
"","html-keyboard-response","17","60183","0.0-17.0","3W8CV64QJ3L4LLBKWJUWOVPLSEO9H3","A2T8U68Y44GPVD","3P7RGTLO6EZ76AO3386R8ZK9IWWKAW","","null","<img src=""img/land5.png"" style=""width:200px; border:14px solid green;"">","null","","","","","","","","","",""
"","image-keyboard-response","18","60271","0.0-18.0","3W8CV64QJ3L4LLBKWJUWOVPLSEO9H3","A2T8U68Y44GPVD","3P7RGTLO6EZ76AO3386R8ZK9IWWKAW","","87","img/land1.png","76","88","3","0","1","1","0.8,0.2,0.2,0.2,0.8,0.2,0.2,0.2,0.8","0.8,0.2,0.2,0.2,0.8,0.2,0.2,0.2,0.8","1","",""
"","html-keyboard-response","19","60572","0.0-19.0","3W8CV64QJ3L4LLBKWJUWOVPLSEO9H3","A2T8U68Y44GPVD","3P7RGTLO6EZ76AO3386R8ZK9IWWKAW","","null","<img src=""img/land1.png"" style=""width:200px;border:14px solid red;"">","null","","","","","","","","","",""
"","image-keyboard-response","20","60879","0.0-20.0","3W8CV64QJ3L4LLBKWJUWOVPLSEO9H3","A2T8U68Y44GPVD","3P7RGTLO6EZ76AO3386R8ZK9IWWKAW","","306","img/land1.png","74","307","1","0","1","1","0.8,0.2,0.2,0.2,0.8,0.2,0.2,0.2,0.8","0.8,0.2,0.2,0.2,0.8,0.2,0.2,0.2,0.8","1","",""
"","html-keyboard-response","21","61181","0.0-21.0","3W8CV64QJ3L4LLBKWJUWOVPLSEO9H3","A2T8U68Y44GPVD","3P7RGTLO6EZ76AO3386R8ZK9IWWKAW","","null","<img src=""img/land1.png"" style=""width:200px;border:14px solid red;"">","null","","","","","","","","","",""
"","image-keyboard-response","22","61200","0.0-22.0","3W8CV64QJ3L4LLBKWJUWOVPLSEO9H3","A2T8U68Y44GPVD","3P7RGTLO6EZ76AO3386R8ZK9IWWKAW","","18","img/land1.png","76","19","3","0","1","1","0.8,0.2,0.2,0.2,0.8,0.2,0.2,0.2,0.8","0.8,0.2,0.2,0.2,0.8,0.2,0.2,0.2,0.8","1","",""
"","html-keyboard-response","23","61643","0.0-23.0","3W8CV64QJ3L4LLBKWJUWOVPLSEO9H3","A2T8U68Y44GPVD","3P7RGTLO6EZ76AO3386R8ZK9IWWKAW","","null","<img src=""img/land1.png"" style=""width:200px;border:14px solid red;"">","null","","","","","","","","","",""
"","image-keyboard-response","24","61652","0.0-24.0","3W8CV64QJ3L4LLBKWJUWOVPLSEO9H3","A2T8U68Y44GPVD","3P7RGTLO6EZ76AO3386R8ZK9IWWKAW","","8","img/land5.png","74","8","1","0","3","1","0.8,0.2,0.2,0.2,0.8,0.2,0.2,0.2,0.8","0.8,0.2,0.2,0.2,0.8,0.2,0.2,0.2,0.8","1","",""
"","html-keyboard-response","25","61954","0.0-25.0","3W8CV64QJ3L4LLBKWJUWOVPLSEO9H3","A2T8U68Y44GPVD","3P7RGTLO6EZ76AO3386R8ZK9IWWKAW","","null","<img src=""img/land5.png"" style=""width:200px;border:14px solid red;"">","null","","","","","","","","","",""
"","image-keyboard-response","26","61975","0.0-26.0","3W8CV64QJ3L4LLBKWJUWOVPLSEO9H3","A2T8U68Y44GPVD","3P7RGTLO6EZ76AO3386R8ZK9IWWKAW","","20","img/land4.png","76","21","3","0","2","1","0.8,0.2,0.2,0.2,0.8,0.2,0.2,0.2,0.8","0.8,0.2,0.2,0.2,0.8,0.2,0.2,0.2,0.8","1","",""
"","html-keyboard-response","27","62278","0.0-27.0","3W8CV64QJ3L4LLBKWJUWOVPLSEO9H3","A2T8U68Y44GPVD","3P7RGTLO6EZ76AO3386R8ZK9IWWKAW","","null","<img src=""img/land4.png"" style=""width:200px;border:14px solid red;"">","null","","","","","","","","","",""
"","image-keyboard-response","28","62303","0.0-28.0","3W8CV64QJ3L4LLBKWJUWOVPLSEO9H3","A2T8U68Y44GPVD","3P7RGTLO6EZ76AO3386R8ZK9IWWKAW","","24","img/land1.png","75","26","2","0","1","1","0.8,0.2,0.2,0.2,0.8,0.2,0.2,0.2,0.8","0.8,0.2,0.2,0.2,0.8,0.2,0.2,0.2,0.8","1","",""
"","html-keyboard-response","29","62604","0.0-29.0","3W8CV64QJ3L4LLBKWJUWOVPLSEO9H3","A2T8U68Y44GPVD","3P7RGTLO6EZ76AO3386R8ZK9IWWKAW","","null","<img src=""img/land1.png"" style=""width:200px;border:14px solid red;"">","null","","","","","","","","","",""
"","image-keyboard-response","30","62759","0.0-30.0","3W8CV64QJ3L4LLBKWJUWOVPLSEO9H3","A2T8U68Y44GPVD","3P7RGTLO6EZ76AO3386R8ZK9IWWKAW","","155","img/land4.png","74","155","1","0","2","1","0.8,0.2,0.2,0.2,0.8,0.2,0.2,0.2,0.8","0.8,0.2,0.2,0.2,0.8,0.2,0.2,0.2,0.8","1","",""
"","html-keyboard-response","31","63060","0.0-31.0","3W8CV64QJ3L4LLBKWJUWOVPLSEO9H3","A2T8U68Y44GPVD","3P7RGTLO6EZ76AO3386R8ZK9IWWKAW","","null","<img src=""img/land4.png"" style=""width:200px;border:14px solid red;"">","null","","","","","","","","","",""
"","image-keyboard-response","32","63232","0.0-32.0","3W8CV64QJ3L4LLBKWJUWOVPLSEO9H3","A2T8U68Y44GPVD","3P7RGTLO6EZ76AO3386R8ZK9IWWKAW","","171","img/land5.png","74","172","1","1","3","1","0.8,0.2,0.2,0.2,0.8,0.2,0.2,0.2,0.8","0.8,0.2,0.2,0.2,0.8,0.2,0.2,0.2,0.8","1","",""
"","html-keyboard-response","33","63534","0.0-33.0","3W8CV64QJ3L4LLBKWJUWOVPLSEO9H3","A2T8U68Y44GPVD","3P7RGTLO6EZ76AO3386R8ZK9IWWKAW","","null","<img src=""img/land5.png"" style=""width:200px; border:14px solid green;"">","null","","","","","","","","","",""
"","image-keyboard-response","34","63648","0.0-34.0","3W8CV64QJ3L4LLBKWJUWOVPLSEO9H3","A2T8U68Y44GPVD","3P7RGTLO6EZ76AO3386R8ZK9IWWKAW","","114","img/land5.png","74","114","1","0","3","1","0.8,0.2,0.2,0.2,0.8,0.2,0.2,0.2,0.8","0.8,0.2,0.2,0.2,0.8,0.2,0.2,0.2,0.8","1","",""
"","html-keyboard-response","35","63951","0.0-35.0","3W8CV64QJ3L4LLBKWJUWOVPLSEO9H3","A2T8U68Y44GPVD","3P7RGTLO6EZ76AO3386R8ZK9IWWKAW","","null","<img src=""img/land5.png"" style=""width:200px;border:14px solid red;"">","null","","","","","","","","","",""
"","image-keyboard-response","36","64112","0.0-36.0","3W8CV64QJ3L4LLBKWJUWOVPLSEO9H3","A2T8U68Y44GPVD","3P7RGTLO6EZ76AO3386R8ZK9IWWKAW","","159","img/land4.png","74","160","1","0","2","1","0.8,0.2,0.2,0.2,0.8,0.2,0.2,0.2,0.8","0.8,0.2,0.2,0.2,0.8,0.2,0.2,0.2,0.8","1","",""
"","html-keyboard-response","37","64412","0.0-37.0","3W8CV64QJ3L4LLBKWJUWOVPLSEO9H3","A2T8U68Y44GPVD","3P7RGTLO6EZ76AO3386R8ZK9IWWKAW","","null","<img src=""img/land4.png"" style=""width:200px;border:14px solid red;"">","null","","","","","","","","","",""
"","image-keyboard-response","38","64520","0.0-38.0","3W8CV64QJ3L4LLBKWJUWOVPLSEO9H3","A2T8U68Y44GPVD","3P7RGTLO6EZ76AO3386R8ZK9IWWKAW","","106","img/land1.png","74","108","1","1","1","1","0.8,0.2,0.2,0.2,0.8,0.2,0.2,0.2,0.8","0.8,0.2,0.2,0.2,0.8,0.2,0.2,0.2,0.8","1","",""
"","html-keyboard-response","39","64821","0.0-39.0","3W8CV64QJ3L4LLBKWJUWOVPLSEO9H3","A2T8U68Y44GPVD","3P7RGTLO6EZ76AO3386R8ZK9IWWKAW","","null","<img src=""img/land1.png"" style=""width:200px; border:14px solid green;"">","null","","","","","","","","","",""
"","image-keyboard-response","40","64927","0.0-40.0","3W8CV64QJ3L4LLBKWJUWOVPLSEO9H3","A2T8U68Y44GPVD","3P7RGTLO6EZ76AO3386R8ZK9IWWKAW","","105","img/land5.png","74","106","1","0","3","1","0.8,0.2,0.2,0.2,0.8,0.2,0.2,0.2,0.8","0.8,0.2,0.2,0.2,0.8,0.2,0.2,0.2,0.8","1","",""
"","html-keyboard-response","41","65228","0.0-41.0","3W8CV64QJ3L4LLBKWJUWOVPLSEO9H3","A2T8U68Y44GPVD","3P7RGTLO6EZ76AO3386R8ZK9IWWKAW","","null","<img src=""img/land5.png"" style=""width:200px;border:14px solid red;"">","null","","","","","","","","","",""
"","image-keyboard-response","42","65408","0.0-42.0","3W8CV64QJ3L4LLBKWJUWOVPLSEO9H3","A2T8U68Y44GPVD","3P7RGTLO6EZ76AO3386R8ZK9IWWKAW","","179","img/land5.png","74","180","1","0","3","1","0.8,0.2,0.2,0.2,0.8,0.2,0.2,0.2,0.8","0.8,0.2,0.2,0.2,0.8,0.2,0.2,0.2,0.8","1","",""
"","html-keyboard-response","43","65710","0.0-43.0","3W8CV64QJ3L4LLBKWJUWOVPLSEO9H3","A2T8U68Y44GPVD","3P7RGTLO6EZ76AO3386R8ZK9IWWKAW","","null","<img src=""img/land5.png"" style=""width:200px;border:14px solid red;"">","null","","","","","","","","","",""
"","image-keyboard-response","44","65791","0.0-44.0","3W8CV64QJ3L4LLBKWJUWOVPLSEO9H3","A2T8U68Y44GPVD","3P7RGTLO6EZ76AO3386R8ZK9IWWKAW","","80","img/land1.png","74","81","1","1","1","1","0.8,0.2,0.2,0.2,0.8,0.2,0.2,0.2,0.8","0.8,0.2,0.2,0.2,0.8,0.2,0.2,0.2,0.8","1","",""
"","html-keyboard-response","45","66093","0.0-45.0","3W8CV64QJ3L4LLBKWJUWOVPLSEO9H3","A2T8U68Y44GPVD","3P7RGTLO6EZ76AO3386R8ZK9IWWKAW","","null","<img src=""img/land1.png"" style=""width:200px; border:14px solid green;"">","null","","","","","","","","","",""
"","image-keyboard-response","46","66322","0.0-46.0","3W8CV64QJ3L4LLBKWJUWOVPLSEO9H3","A2T8U68Y44GPVD","3P7RGTLO6EZ76AO3386R8ZK9IWWKAW","","229","img/land5.png","74","229","1","0","3","1","0.8,0.2,0.2,0.2,0.8,0.2,0.2,0.2,0.8","0.8,0.2,0.2,0.2,0.8,0.2,0.2,0.2,0.8","1","",""
"","html-keyboard-response","47","66624","0.0-47.0","3W8CV64QJ3L4LLBKWJUWOVPLSEO9H3","A2T8U68Y44GPVD","3P7RGTLO6EZ76AO3386R8ZK9IWWKAW","","null","<img src=""img/land5.png"" style=""width:200px;border:14px solid red;"">","null","","","","","","","","","",""
"","image-keyboard-response","48","66735","0.0-48.0","3W8CV64QJ3L4LLBKWJUWOVPLSEO9H3","A2T8U68Y44GPVD","3P7RGTLO6EZ76AO3386R8ZK9IWWKAW","","111","img/land1.png","74","111","1","0","1","1","0.8,0.2,0.2,0.2,0.8,0.2,0.2,0.2,0.8","0.8,0.2,0.2,0.2,0.8,0.2,0.2,0.2,0.8","1","",""
"","html-keyboard-response","49","67036","0.0-49.0","3W8CV64QJ3L4LLBKWJUWOVPLSEO9H3","A2T8U68Y44GPVD","3P7RGTLO6EZ76AO3386R8ZK9IWWKAW","","null","<img src=""img/land1.png"" style=""width:200px;border:14px solid red;"">","null","","","","","","","","","",""
"","image-keyboard-response","50","67064","0.0-50.0","3W8CV64QJ3L4LLBKWJUWOVPLSEO9H3","A2T8U68Y44GPVD","3P7RGTLO6EZ76AO3386R8ZK9IWWKAW","","27","img/land5.png","75","28","2","1","3","1","0.8,0.2,0.2,0.2,0.8,0.2,0.2,0.2,0.8","0.8,0.2,0.2,0.2,0.8,0.2,0.2,0.2,0.8","1","",""
"","html-keyboard-response","51","67365","0.0-51.0","3W8CV64QJ3L4LLBKWJUWOVPLSEO9H3","A2T8U68Y44GPVD","3P7RGTLO6EZ76AO3386R8ZK9IWWKAW","","null","<img src=""img/land5.png"" style=""width:200px; border:14px solid green;"">","null","","","","","","","","","",""
"","image-keyboard-response","52","67463","0.0-52.0","3W8CV64QJ3L4LLBKWJUWOVPLSEO9H3","A2T8U68Y44GPVD","3P7RGTLO6EZ76AO3386R8ZK9IWWKAW","","97","img/land4.png","74","97","1","0","2","1","0.8,0.2,0.2,0.2,0.8,0.2,0.2,0.2,0.8","0.8,0.2,0.2,0.2,0.8,0.2,0.2,0.2,0.8","1","",""
"","html-keyboard-response","53","67769","0.0-53.0","3W8CV64QJ3L4LLBKWJUWOVPLSEO9H3","A2T8U68Y44GPVD","3P7RGTLO6EZ76AO3386R8ZK9IWWKAW","","null","<img src=""img/land4.png"" style=""width:200px;border:14px solid red;"">","null","","","","","","","","","",""
"","image-keyboard-response","54","67772","0.0-54.0","3W8CV64QJ3L4LLBKWJUWOVPLSEO9H3","A2T8U68Y44GPVD","3P7RGTLO6EZ76AO3386R8ZK9IWWKAW","","1","img/land4.png","76","2","3","0","2","1","0.8,0.2,0.2,0.2,0.8,0.2,0.2,0.2,0.8","0.8,0.2,0.2,0.2,0.8,0.2,0.2,0.2,0.8","1","",""
"","html-keyboard-response","55","68073","0.0-55.0","3W8CV64QJ3L4LLBKWJUWOVPLSEO9H3","A2T8U68Y44GPVD","3P7RGTLO6EZ76AO3386R8ZK9IWWKAW","","null","<img src=""img/land4.png"" style=""width:200px;border:14px solid red;"">","null","","","","","","","","","",""
"","image-keyboard-response","56","68336","0.0-56.0","3W8CV64QJ3L4LLBKWJUWOVPLSEO9H3","A2T8U68Y44GPVD","3P7RGTLO6EZ76AO3386R8ZK9IWWKAW","","263","img/land4.png","76","263","3","0","2","1","0.8,0.2,0.2,0.2,0.8,0.2,0.2,0.2,0.8","0.8,0.2,0.2,0.2,0.8,0.2,0.2,0.2,0.8","1","",""
"","html-keyboard-response","57","68637","0.0-57.0","3W8CV64QJ3L4LLBKWJUWOVPLSEO9H3","A2T8U68Y44GPVD","3P7RGTLO6EZ76AO3386R8ZK9IWWKAW","","null","<img src=""img/land4.png"" style=""width:200px;border:14px solid red;"">","null","","","","","","","","","",""
"","image-keyboard-response","58","68991","0.0-58.0","3W8CV64QJ3L4LLBKWJUWOVPLSEO9H3","A2T8U68Y44GPVD","3P7RGTLO6EZ76AO3386R8ZK9IWWKAW","","353","img/land1.png","75","354","2","1","1","1","0.8,0.2,0.2,0.2,0.8,0.2,0.2,0.2,0.8","0.8,0.2,0.2,0.2,0.8,0.2,0.2,0.2,0.8","1","",""
"","html-keyboard-response","59","69292","0.0-59.0","3W8CV64QJ3L4LLBKWJUWOVPLSEO9H3","A2T8U68Y44GPVD","3P7RGTLO6EZ76AO3386R8ZK9IWWKAW","","null","<img src=""img/land1.png"" style=""width:200px; border:14px solid green;"">","null","","","","","","","","","",""
"","image-keyboard-response","60","69305","0.0-60.0","3W8CV64QJ3L4LLBKWJUWOVPLSEO9H3","A2T8U68Y44GPVD","3P7RGTLO6EZ76AO3386R8ZK9IWWKAW","","12","img/land5.png","76","12","3","1","3","1","0.8,0.2,0.2,0.2,0.8,0.2,0.2,0.2,0.8","0.8,0.2,0.2,0.2,0.8,0.2,0.2,0.2,0.8","1","",""
"","html-keyboard-response","61","69606","0.0-61.0","3W8CV64QJ3L4LLBKWJUWOVPLSEO9H3","A2T8U68Y44GPVD","3P7RGTLO6EZ76AO3386R8ZK9IWWKAW","","null","<img src=""img/land5.png"" style=""width:200px; border:14px solid green;"">","null","","","","","","","","","",""
"","image-keyboard-response","62","69881","0.0-62.0","3W8CV64QJ3L4LLBKWJUWOVPLSEO9H3","A2T8U68Y44GPVD","3P7RGTLO6EZ76AO3386R8ZK9IWWKAW","","274","img/land5.png","74","275","1","0","3","1","0.8,0.2,0.2,0.2,0.8,0.2,0.2,0.2,0.8","0.8,0.2,0.2,0.2,0.8,0.2,0.2,0.2,0.8","1","",""
"","html-keyboard-response","63","70182","0.0-63.0","3W8CV64QJ3L4LLBKWJUWOVPLSEO9H3","A2T8U68Y44GPVD","3P7RGTLO6EZ76AO3386R8ZK9IWWKAW","","null","<img src=""img/land5.png"" style=""width:200px;border:14px solid red;"">","null","","","","","","","","","",""
"","image-keyboard-response","64","70328","0.0-64.0","3W8CV64QJ3L4LLBKWJUWOVPLSEO9H3","A2T8U68Y44GPVD","3P7RGTLO6EZ76AO3386R8ZK9IWWKAW","","145","img/land5.png","74","146","1","0","3","1","0.8,0.2,0.2,0.2,0.8,0.2,0.2,0.2,0.8","0.8,0.2,0.2,0.2,0.8,0.2,0.2,0.2,0.8","1","",""
"","html-keyboard-response","65","70629","0.0-65.0","3W8CV64QJ3L4LLBKWJUWOVPLSEO9H3","A2T8U68Y44GPVD","3P7RGTLO6EZ76AO3386R8ZK9IWWKAW","","null","<img src=""img/land5.png"" style=""width:200px;border:14px solid red;"">","null","","","","","","","","","",""
"","image-keyboard-response","66","70704","0.0-66.0","3W8CV64QJ3L4LLBKWJUWOVPLSEO9H3","A2T8U68Y44GPVD","3P7RGTLO6EZ76AO3386R8ZK9IWWKAW","","75","img/land4.png","74","77","1","1","2","1","0.8,0.2,0.2,0.2,0.8,0.2,0.2,0.2,0.8","0.8,0.2,0.2,0.2,0.8,0.2,0.2,0.2,0.8","1","",""
"","html-keyboard-response","67","71006","0.0-67.0","3W8CV64QJ3L4LLBKWJUWOVPLSEO9H3","A2T8U68Y44GPVD","3P7RGTLO6EZ76AO3386R8ZK9IWWKAW","","null","<img src=""img/land4.png"" style=""width:200px; border:14px solid green;"">","null","","","","","","","","","",""
"","image-keyboard-response","68","71135","0.0-68.0","3W8CV64QJ3L4LLBKWJUWOVPLSEO9H3","A2T8U68Y44GPVD","3P7RGTLO6EZ76AO3386R8ZK9IWWKAW","","128","img/land1.png","74","129","1","1","1","1","0.8,0.2,0.2,0.2,0.8,0.2,0.2,0.2,0.8","0.8,0.2,0.2,0.2,0.8,0.2,0.2,0.2,0.8","1","",""
"","html-keyboard-response","69","71437","0.0-69.0","3W8CV64QJ3L4LLBKWJUWOVPLSEO9H3","A2T8U68Y44GPVD","3P7RGTLO6EZ76AO3386R8ZK9IWWKAW","","null","<img src=""img/land1.png"" style=""width:200px; border:14px solid green;"">","null","","","","","","","","","",""
"","image-keyboard-response","70","71543","0.0-70.0","3W8CV64QJ3L4LLBKWJUWOVPLSEO9H3","A2T8U68Y44GPVD","3P7RGTLO6EZ76AO3386R8ZK9IWWKAW","","105","img/land4.png","76","106","3","0","2","1","0.8,0.2,0.2,0.2,0.8,0.2,0.2,0.2,0.8","0.8,0.2,0.2,0.2,0.8,0.2,0.2,0.2,0.8","1","",""
"","html-keyboard-response","71","71875","0.0-71.0","3W8CV64QJ3L4LLBKWJUWOVPLSEO9H3","A2T8U68Y44GPVD","3P7RGTLO6EZ76AO3386R8ZK9IWWKAW","","null","<img src=""img/land4.png"" style=""width:200px;border:14px solid red;"">","null","","","","","","","","","",""
"","image-keyboard-response","72","72219","0.0-72.0","3W8CV64QJ3L4LLBKWJUWOVPLSEO9H3","A2T8U68Y44GPVD","3P7RGTLO6EZ76AO3386R8ZK9IWWKAW","","344","img/land1.png","75","344","2","0","1","1","0.8,0.2,0.2,0.2,0.8,0.2,0.2,0.2,0.8","0.8,0.2,0.2,0.2,0.8,0.2,0.2,0.2,0.8","1","",""
"","html-keyboard-response","73","72520","0.0-73.0","3W8CV64QJ3L4LLBKWJUWOVPLSEO9H3","A2T8U68Y44GPVD","3P7RGTLO6EZ76AO3386R8ZK9IWWKAW","","null","<img src=""img/land1.png"" style=""width:200px;border:14px solid red;"">","null","","","","","","","","","",""
"","image-keyboard-response","74","72559","0.0-74.0","3W8CV64QJ3L4LLBKWJUWOVPLSEO9H3","A2T8U68Y44GPVD","3P7RGTLO6EZ76AO3386R8ZK9IWWKAW","","39","img/land1.png","76","39","3","0","1","1","0.8,0.2,0.2,0.2,0.8,0.2,0.2,0.2,0.8","0.8,0.2,0.2,0.2,0.8,0.2,0.2,0.2,0.8","1","",""
"","html-keyboard-response","75","72860","0.0-75.0","3W8CV64QJ3L4LLBKWJUWOVPLSEO9H3","A2T8U68Y44GPVD","3P7RGTLO6EZ76AO3386R8ZK9IWWKAW","","null","<img src=""img/land1.png"" style=""width:200px;border:14px solid red;"">","null","","","","","","","","","",""
"","image-keyboard-response","76","72911","0.0-76.0","3W8CV64QJ3L4LLBKWJUWOVPLSEO9H3","A2T8U68Y44GPVD","3P7RGTLO6EZ76AO3386R8ZK9IWWKAW","","50","img/land5.png","76","51","3","1","3","1","0.8,0.2,0.2,0.2,0.8,0.2,0.2,0.2,0.8","0.8,0.2,0.2,0.2,0.8,0.2,0.2,0.2,0.8","1","",""
"","html-keyboard-response","77","73212","0.0-77.0","3W8CV64QJ3L4LLBKWJUWOVPLSEO9H3","A2T8U68Y44GPVD","3P7RGTLO6EZ76AO3386R8ZK9IWWKAW","","null","<img src=""img/land5.png"" style=""width:200px; border:14px solid green;"">","null","","","","","","","","","",""
"","image-keyboard-response","78","73287","0.0-78.0","3W8CV64QJ3L4LLBKWJUWOVPLSEO9H3","A2T8U68Y44GPVD","3P7RGTLO6EZ76AO3386R8ZK9IWWKAW","","74","img/land4.png","75","75","2","0","2","1","0.8,0.2,0.2,0.2,0.8,0.2,0.2,0.2,0.8","0.8,0.2,0.2,0.2,0.8,0.2,0.2,0.2,0.8","1","",""
"","html-keyboard-response","79","73588","0.0-79.0","3W8CV64QJ3L4LLBKWJUWOVPLSEO9H3","A2T8U68Y44GPVD","3P7RGTLO6EZ76AO3386R8ZK9IWWKAW","","null","<img src=""img/land4.png"" style=""width:200px;border:14px solid red;"">","null","","","","","","","","","",""
"","image-keyboard-response","80","73777","0.0-80.0","3W8CV64QJ3L4LLBKWJUWOVPLSEO9H3","A2T8U68Y44GPVD","3P7RGTLO6EZ76AO3386R8ZK9IWWKAW","","187","img/land4.png","75","187","2","1","2","1","0.8,0.2,0.2,0.2,0.8,0.2,0.2,0.2,0.8","0.8,0.2,0.2,0.2,0.8,0.2,0.2,0.2,0.8","1","",""
"","html-keyboard-response","81","74078","0.0-81.0","3W8CV64QJ3L4LLBKWJUWOVPLSEO9H3","A2T8U68Y44GPVD","3P7RGTLO6EZ76AO3386R8ZK9IWWKAW","","null","<img src=""img/land4.png"" style=""width:200px; border:14px solid green;"">","null","","","","","","","","","",""
"","image-keyboard-response","82","74127","0.0-82.0","3W8CV64QJ3L4LLBKWJUWOVPLSEO9H3","A2T8U68Y44GPVD","3P7RGTLO6EZ76AO3386R8ZK9IWWKAW","","48","img/land5.png","74","49","1","0","3","1","0.8,0.2,0.2,0.2,0.8,0.2,0.2,0.2,0.8","0.8,0.2,0.2,0.2,0.8,0.2,0.2,0.2,0.8","1","",""
"","html-keyboard-response","83","74428","0.0-83.0","3W8CV64QJ3L4LLBKWJUWOVPLSEO9H3","A2T8U68Y44GPVD","3P7RGTLO6EZ76AO3386R8ZK9IWWKAW","","null","<img src=""img/land5.png"" style=""width:200px;border:14px solid red;"">","null","","","","","","","","","",""
"","image-keyboard-response","84","74648","0.0-84.0","3W8CV64QJ3L4LLBKWJUWOVPLSEO9H3","A2T8U68Y44GPVD","3P7RGTLO6EZ76AO3386R8ZK9IWWKAW","","220","img/land1.png","74","220","1","1","1","1","0.8,0.2,0.2,0.2,0.8,0.2,0.2,0.2,0.8","0.8,0.2,0.2,0.2,0.8,0.2,0.2,0.2,0.8","1","",""
"","html-keyboard-response","85","74950","0.0-85.0","3W8CV64QJ3L4LLBKWJUWOVPLSEO9H3","A2T8U68Y44GPVD","3P7RGTLO6EZ76AO3386R8ZK9IWWKAW","","null","<img src=""img/land1.png"" style=""width:200px; border:14px solid green;"">","null","","","","","","","","","",""
"","image-keyboard-response","86","75167","0.0-86.0","3W8CV64QJ3L4LLBKWJUWOVPLSEO9H3","A2T8U68Y44GPVD","3P7RGTLO6EZ76AO3386R8ZK9IWWKAW","","217","img/land1.png","74","217","1","1","1","1","0.8,0.2,0.2,0.2,0.8,0.2,0.2,0.2,0.8","0.8,0.2,0.2,0.2,0.8,0.2,0.2,0.2,0.8","1","",""
"","html-keyboard-response","87","75468","0.0-87.0","3W8CV64QJ3L4LLBKWJUWOVPLSEO9H3","A2T8U68Y44GPVD","3P7RGTLO6EZ76AO3386R8ZK9IWWKAW","","null","<img src=""img/land1.png"" style=""width:200px; border:14px solid green;"">","null","","","","","","","","","",""
"","image-keyboard-response","88","75503","0.0-88.0","3W8CV64QJ3L4LLBKWJUWOVPLSEO9H3","A2T8U68Y44GPVD","3P7RGTLO6EZ76AO3386R8ZK9IWWKAW","","32","img/land5.png","74","34","1","1","3","1","0.8,0.2,0.2,0.2,0.8,0.2,0.2,0.2,0.8","0.8,0.2,0.2,0.2,0.8,0.2,0.2,0.2,0.8","1","",""
"","html-keyboard-response","89","75803","0.0-89.0","3W8CV64QJ3L4LLBKWJUWOVPLSEO9H3","A2T8U68Y44GPVD","3P7RGTLO6EZ76AO3386R8ZK9IWWKAW","","null","<img src=""img/land5.png"" style=""width:200px; border:14px solid green;"">","null","","","","","","","","","",""
"","image-keyboard-response","90","76002","0.0-90.0","3W8CV64QJ3L4LLBKWJUWOVPLSEO9H3","A2T8U68Y44GPVD","3P7RGTLO6EZ76AO3386R8ZK9IWWKAW","","198","img/land1.png","76","199","3","1","1","1","0.8,0.2,0.2,0.2,0.8,0.2,0.2,0.2,0.8","0.8,0.2,0.2,0.2,0.8,0.2,0.2,0.2,0.8","1","",""
"","html-keyboard-response","91","76303","0.0-91.0","3W8CV64QJ3L4LLBKWJUWOVPLSEO9H3","A2T8U68Y44GPVD","3P7RGTLO6EZ76AO3386R8ZK9IWWKAW","","null","<img src=""img/land1.png"" style=""width:200px; border:14px solid green;"">","null","","","","","","","","","",""
"","image-keyboard-response","92","76320","0.0-92.0","3W8CV64QJ3L4LLBKWJUWOVPLSEO9H3","A2T8U68Y44GPVD","3P7RGTLO6EZ76AO3386R8ZK9IWWKAW","","16","img/land1.png","76","17","3","0","1","1","0.8,0.2,0.2,0.2,0.8,0.2,0.2,0.2,0.8","0.8,0.2,0.2,0.2,0.8,0.2,0.2,0.2,0.8","1","",""
"","html-keyboard-response","93","76621","0.0-93.0","3W8CV64QJ3L4LLBKWJUWOVPLSEO9H3","A2T8U68Y44GPVD","3P7RGTLO6EZ76AO3386R8ZK9IWWKAW","","null","<img src=""img/land1.png"" style=""width:200px;border:14px solid red;"">","null","","","","","","","","","",""
"","image-keyboard-response","94","76663","0.0-94.0","3W8CV64QJ3L4LLBKWJUWOVPLSEO9H3","A2T8U68Y44GPVD","3P7RGTLO6EZ76AO3386R8ZK9IWWKAW","","40","img/land5.png","75","42","2","0","3","1","0.8,0.2,0.2,0.2,0.8,0.2,0.2,0.2,0.8","0.8,0.2,0.2,0.2,0.8,0.2,0.2,0.2,0.8","1","",""
"","html-keyboard-response","95","76964","0.0-95.0","3W8CV64QJ3L4LLBKWJUWOVPLSEO9H3","A2T8U68Y44GPVD","3P7RGTLO6EZ76AO3386R8ZK9IWWKAW","","null","<img src=""img/land5.png"" style=""width:200px;border:14px solid red;"">","null","","","","","","","","","",""
"","image-keyboard-response","96","77119","0.0-96.0","3W8CV64QJ3L4LLBKWJUWOVPLSEO9H3","A2T8U68Y44GPVD","3P7RGTLO6EZ76AO3386R8ZK9IWWKAW","","153","img/land5.png","74","155","1","0","3","1","0.8,0.2,0.2,0.2,0.8,0.2,0.2,0.2,0.8","0.8,0.2,0.2,0.2,0.8,0.2,0.2,0.2,0.8","1","",""
"","html-keyboard-response","97","77419","0.0-97.0","3W8CV64QJ3L4LLBKWJUWOVPLSEO9H3","A2T8U68Y44GPVD","3P7RGTLO6EZ76AO3386R8ZK9IWWKAW","","null","<img src=""img/land5.png"" style=""width:200px;border:14px solid red;"">","null","","","","","","","","","",""
"","image-keyboard-response","98","77534","0.0-98.0","3W8CV64QJ3L4LLBKWJUWOVPLSEO9H3","A2T8U68Y44GPVD","3P7RGTLO6EZ76AO3386R8ZK9IWWKAW","","115","img/land1.png","74","116","1","1","1","1","0.8,0.2,0.2,0.2,0.8,0.2,0.2,0.2,0.8","0.8,0.2,0.2,0.2,0.8,0.2,0.2,0.2,0.8","1","",""
"","html-keyboard-response","99","77835","0.0-99.0","3W8CV64QJ3L4LLBKWJUWOVPLSEO9H3","A2T8U68Y44GPVD","3P7RGTLO6EZ76AO3386R8ZK9IWWKAW","","null","<img src=""img/land1.png"" style=""width:200px; border:14px solid green;"">","null","","","","","","","","","",""
"","image-keyboard-response","100","77980","0.0-100.0","3W8CV64QJ3L4LLBKWJUWOVPLSEO9H3","A2T8U68Y44GPVD","3P7RGTLO6EZ76AO3386R8ZK9IWWKAW","","144","img/land5.png","74","145","1","0","3","1","0.8,0.2,0.2,0.2,0.8,0.2,0.2,0.2,0.8","0.8,0.2,0.2,0.2,0.8,0.2,0.2,0.2,0.8","1","",""
"","html-keyboard-response","101","78282","0.0-101.0","3W8CV64QJ3L4LLBKWJUWOVPLSEO9H3","A2T8U68Y44GPVD","3P7RGTLO6EZ76AO3386R8ZK9IWWKAW","","null","<img src=""img/land5.png"" style=""width:200px;border:14px solid red;"">","null","","","","","","","","","",""
"","image-keyboard-response","102","78374","0.0-102.0","3W8CV64QJ3L4LLBKWJUWOVPLSEO9H3","A2T8U68Y44GPVD","3P7RGTLO6EZ76AO3386R8ZK9IWWKAW","","91","img/land1.png","74","92","1","1","1","1","0.8,0.2,0.2,0.2,0.8,0.2,0.2,0.2,0.8","0.8,0.2,0.2,0.2,0.8,0.2,0.2,0.2,0.8","1","",""
"","html-keyboard-response","103","78675","0.0-103.0","3W8CV64QJ3L4LLBKWJUWOVPLSEO9H3","A2T8U68Y44GPVD","3P7RGTLO6EZ76AO3386R8ZK9IWWKAW","","null","<img src=""img/land1.png"" style=""width:200px; border:14px solid green;"">","null","","","","","","","","","",""
"","image-keyboard-response","104","78879","0.0-104.0","3W8CV64QJ3L4LLBKWJUWOVPLSEO9H3","A2T8U68Y44GPVD","3P7RGTLO6EZ76AO3386R8ZK9IWWKAW","","203","img/land5.png","74","204","1","1","3","1","0.8,0.2,0.2,0.2,0.8,0.2,0.2,0.2,0.8","0.8,0.2,0.2,0.2,0.8,0.2,0.2,0.2,0.8","1","",""
"","html-keyboard-response","105","79180","0.0-105.0","3W8CV64QJ3L4LLBKWJUWOVPLSEO9H3","A2T8U68Y44GPVD","3P7RGTLO6EZ76AO3386R8ZK9IWWKAW","","null","<img src=""img/land5.png"" style=""width:200px; border:14px solid green;"">","null","","","","","","","","","",""
"","image-keyboard-response","106","79215","0.0-106.0","3W8CV64QJ3L4LLBKWJUWOVPLSEO9H3","A2T8U68Y44GPVD","3P7RGTLO6EZ76AO3386R8ZK9IWWKAW","","34","img/land4.png","74","34","1","0","2","1","0.8,0.2,0.2,0.2,0.8,0.2,0.2,0.2,0.8","0.8,0.2,0.2,0.2,0.8,0.2,0.2,0.2,0.8","1","",""
"","html-keyboard-response","107","79515","0.0-107.0","3W8CV64QJ3L4LLBKWJUWOVPLSEO9H3","A2T8U68Y44GPVD","3P7RGTLO6EZ76AO3386R8ZK9IWWKAW","","null","<img src=""img/land4.png"" style=""width:200px;border:14px solid red;"">","null","","","","","","","","","",""
"","image-keyboard-response","108","79534","0.0-108.0","3W8CV64QJ3L4LLBKWJUWOVPLSEO9H3","A2T8U68Y44GPVD","3P7RGTLO6EZ76AO3386R8ZK9IWWKAW","","19","img/land4.png","76","19","3","0","2","1","0.8,0.2,0.2,0.2,0.8,0.2,0.2,0.2,0.8","0.8,0.2,0.2,0.2,0.8,0.2,0.2,0.2,0.8","1","",""
"","html-keyboard-response","109","79835","0.0-109.0","3W8CV64QJ3L4LLBKWJUWOVPLSEO9H3","A2T8U68Y44GPVD","3P7RGTLO6EZ76AO3386R8ZK9IWWKAW","","null","<img src=""img/land4.png"" style=""width:200px;border:14px solid red;"">","null","","","","","","","","","",""
"","image-keyboard-response","110","79863","0.0-110.0","3W8CV64QJ3L4LLBKWJUWOVPLSEO9H3","A2T8U68Y44GPVD","3P7RGTLO6EZ76AO3386R8ZK9IWWKAW","","28","img/land5.png","74","28","1","0","3","1","0.8,0.2,0.2,0.2,0.8,0.2,0.2,0.2,0.8","0.8,0.2,0.2,0.2,0.8,0.2,0.2,0.2,0.8","1","",""
"","html-keyboard-response","111","80163","0.0-111.0","3W8CV64QJ3L4LLBKWJUWOVPLSEO9H3","A2T8U68Y44GPVD","3P7RGTLO6EZ76AO3386R8ZK9IWWKAW","","null","<img src=""img/land5.png"" style=""width:200px;border:14px solid red;"">","null","","","","","","","","","",""
"","image-keyboard-response","112","80210","0.0-112.0","3W8CV64QJ3L4LLBKWJUWOVPLSEO9H3","A2T8U68Y44GPVD","3P7RGTLO6EZ76AO3386R8ZK9IWWKAW","","46","img/land4.png","74","47","1","1","2","1","0.8,0.2,0.2,0.2,0.8,0.2,0.2,0.2,0.8","0.8,0.2,0.2,0.2,0.8,0.2,0.2,0.2,0.8","1","",""
"","html-keyboard-response","113","80512","0.0-113.0","3W8CV64QJ3L4LLBKWJUWOVPLSEO9H3","A2T8U68Y44GPVD","3P7RGTLO6EZ76AO3386R8ZK9IWWKAW","","null","<img src=""img/land4.png"" style=""width:200px; border:14px solid green;"">","null","","","","","","","","","",""
"","image-keyboard-response","114","80688","0.0-114.0","3W8CV64QJ3L4LLBKWJUWOVPLSEO9H3","A2T8U68Y44GPVD","3P7RGTLO6EZ76AO3386R8ZK9IWWKAW","","174","img/land1.png","74","176","1","1","1","1","0.8,0.2,0.2,0.2,0.8,0.2,0.2,0.2,0.8","0.8,0.2,0.2,0.2,0.8,0.2,0.2,0.2,0.8","1","",""
"","html-keyboard-response","115","80989","0.0-115.0","3W8CV64QJ3L4LLBKWJUWOVPLSEO9H3","A2T8U68Y44GPVD","3P7RGTLO6EZ76AO3386R8ZK9IWWKAW","","null","<img src=""img/land1.png"" style=""width:200px; border:14px solid green;"">","null","","","","","","","","","",""
"","image-keyboard-response","116","81088","0.0-116.0","3W8CV64QJ3L4LLBKWJUWOVPLSEO9H3","A2T8U68Y44GPVD","3P7RGTLO6EZ76AO3386R8ZK9IWWKAW","","97","img/land4.png","74","98","1","0","2","1","0.8,0.2,0.2,0.2,0.8,0.2,0.2,0.2,0.8","0.8,0.2,0.2,0.2,0.8,0.2,0.2,0.2,0.8","1","",""
"","html-keyboard-response","117","81388","0.0-117.0","3W8CV64QJ3L4LLBKWJUWOVPLSEO9H3","A2T8U68Y44GPVD","3P7RGTLO6EZ76AO3386R8ZK9IWWKAW","","null","<img src=""img/land4.png"" style=""width:200px;border:14px solid red;"">","null","","","","","","","","","",""
"","image-keyboard-response","118","81599","0.0-118.0","3W8CV64QJ3L4LLBKWJUWOVPLSEO9H3","A2T8U68Y44GPVD","3P7RGTLO6EZ76AO3386R8ZK9IWWKAW","","211","img/land5.png","74","212","1","0","3","1","0.8,0.2,0.2,0.2,0.8,0.2,0.2,0.2,0.8","0.8,0.2,0.2,0.2,0.8,0.2,0.2,0.2,0.8","1","",""
"","html-keyboard-response","119","81902","0.0-119.0","3W8CV64QJ3L4LLBKWJUWOVPLSEO9H3","A2T8U68Y44GPVD","3P7RGTLO6EZ76AO3386R8ZK9IWWKAW","","null","<img src=""img/land5.png"" style=""width:200px;border:14px solid red;"">","null","","","","","","","","","",""
"","image-keyboard-response","120","81933","0.0-120.0","3W8CV64QJ3L4LLBKWJUWOVPLSEO9H3","A2T8U68Y44GPVD","3P7RGTLO6EZ76AO3386R8ZK9IWWKAW","","29","img/land4.png","75","30","2","1","2","1","0.8,0.2,0.2,0.2,0.8,0.2,0.2,0.2,0.8","0.8,0.2,0.2,0.2,0.8,0.2,0.2,0.2,0.8","1","",""
"","html-keyboard-response","121","82235","0.0-121.0","3W8CV64QJ3L4LLBKWJUWOVPLSEO9H3","A2T8U68Y44GPVD","3P7RGTLO6EZ76AO3386R8ZK9IWWKAW","","null","<img src=""img/land4.png"" style=""width:200px; border:14px solid green;"">","null","","","","","","","","","",""
"","image-keyboard-response","122","82440","0.0-122.0","3W8CV64QJ3L4LLBKWJUWOVPLSEO9H3","A2T8U68Y44GPVD","3P7RGTLO6EZ76AO3386R8ZK9IWWKAW","","205","img/land1.png","74","205","1","0","1","1","0.8,0.2,0.2,0.2,0.8,0.2,0.2,0.2,0.8","0.8,0.2,0.2,0.2,0.8,0.2,0.2,0.2,0.8","1","",""
"","html-keyboard-response","123","82742","0.0-123.0","3W8CV64QJ3L4LLBKWJUWOVPLSEO9H3","A2T8U68Y44GPVD","3P7RGTLO6EZ76AO3386R8ZK9IWWKAW","","null","<img src=""img/land1.png"" style=""width:200px;border:14px solid red;"">","null","","","","","","","","","",""
"","image-keyboard-response","124","82986","0.0-124.0","3W8CV64QJ3L4LLBKWJUWOVPLSEO9H3","A2T8U68Y44GPVD","3P7RGTLO6EZ76AO3386R8ZK9IWWKAW","","244","img/land5.png","75","244","2","0","3","1","0.8,0.2,0.2,0.2,0.8,0.2,0.2,0.2,0.8","0.8,0.2,0.2,0.2,0.8,0.2,0.2,0.2,0.8","1","",""
"","html-keyboard-response","125","83287","0.0-125.0","3W8CV64QJ3L4LLBKWJUWOVPLSEO9H3","A2T8U68Y44GPVD","3P7RGTLO6EZ76AO3386R8ZK9IWWKAW","","null","<img src=""img/land5.png"" style=""width:200px;border:14px solid red;"">","null","","","","","","","","","",""
"","image-keyboard-response","126","83464","0.0-126.0","3W8CV64QJ3L4LLBKWJUWOVPLSEO9H3","A2T8U68Y44GPVD","3P7RGTLO6EZ76AO3386R8ZK9IWWKAW","","175","img/land1.png","74","177","1","1","1","1","0.8,0.2,0.2,0.2,0.8,0.2,0.2,0.2,0.8","0.8,0.2,0.2,0.2,0.8,0.2,0.2,0.2,0.8","1","",""
"","html-keyboard-response","127","83774","0.0-127.0","3W8CV64QJ3L4LLBKWJUWOVPLSEO9H3","A2T8U68Y44GPVD","3P7RGTLO6EZ76AO3386R8ZK9IWWKAW","","null","<img src=""img/land1.png"" style=""width:200px; border:14px solid green;"">","null","","","","","","","","","",""
"","image-keyboard-response","128","83995","0.0-128.0","3W8CV64QJ3L4LLBKWJUWOVPLSEO9H3","A2T8U68Y44GPVD","3P7RGTLO6EZ76AO3386R8ZK9IWWKAW","","221","img/land5.png","74","221","1","0","3","1","0.8,0.2,0.2,0.2,0.8,0.2,0.2,0.2,0.8","0.8,0.2,0.2,0.2,0.8,0.2,0.2,0.2,0.8","1","",""
"","html-keyboard-response","129","84296","0.0-129.0","3W8CV64QJ3L4LLBKWJUWOVPLSEO9H3","A2T8U68Y44GPVD","3P7RGTLO6EZ76AO3386R8ZK9IWWKAW","","null","<img src=""img/land5.png"" style=""width:200px;border:14px solid red;"">","null","","","","","","","","","",""
"","image-keyboard-response","130","84367","0.0-130.0","3W8CV64QJ3L4LLBKWJUWOVPLSEO9H3","A2T8U68Y44GPVD","3P7RGTLO6EZ76AO3386R8ZK9IWWKAW","","70","img/land4.png","75","71","2","1","2","1","0.8,0.2,0.2,0.2,0.8,0.2,0.2,0.2,0.8","0.8,0.2,0.2,0.2,0.8,0.2,0.2,0.2,0.8","1","",""
"","html-keyboard-response","131","84668","0.0-131.0","3W8CV64QJ3L4LLBKWJUWOVPLSEO9H3","A2T8U68Y44GPVD","3P7RGTLO6EZ76AO3386R8ZK9IWWKAW","","null","<img src=""img/land4.png"" style=""width:200px; border:14px solid green;"">","null","","","","","","","","","",""
"","image-keyboard-response","132","84887","0.0-132.0","3W8CV64QJ3L4LLBKWJUWOVPLSEO9H3","A2T8U68Y44GPVD","3P7RGTLO6EZ76AO3386R8ZK9IWWKAW","","219","img/land5.png","74","219","1","0","3","1","0.8,0.2,0.2,0.2,0.8,0.2,0.2,0.2,0.8","0.8,0.2,0.2,0.2,0.8,0.2,0.2,0.2,0.8","1","",""
"","html-keyboard-response","133","85188","0.0-133.0","3W8CV64QJ3L4LLBKWJUWOVPLSEO9H3","A2T8U68Y44GPVD","3P7RGTLO6EZ76AO3386R8ZK9IWWKAW","","null","<img src=""img/land5.png"" style=""width:200px;border:14px solid red;"">","null","","","","","","","","","",""
"","image-keyboard-response","134","85311","0.0-134.0","3W8CV64QJ3L4LLBKWJUWOVPLSEO9H3","A2T8U68Y44GPVD","3P7RGTLO6EZ76AO3386R8ZK9IWWKAW","","122","img/land4.png","74","123","1","1","2","1","0.8,0.2,0.2,0.2,0.8,0.2,0.2,0.2,0.8","0.8,0.2,0.2,0.2,0.8,0.2,0.2,0.2,0.8","1","",""
"","html-keyboard-response","135","85613","0.0-135.0","3W8CV64QJ3L4LLBKWJUWOVPLSEO9H3","A2T8U68Y44GPVD","3P7RGTLO6EZ76AO3386R8ZK9IWWKAW","","null","<img src=""img/land4.png"" style=""width:200px; border:14px solid green;"">","null","","","","","","","","","",""
"","image-keyboard-response","136","85816","0.0-136.0","3W8CV64QJ3L4LLBKWJUWOVPLSEO9H3","A2T8U68Y44GPVD","3P7RGTLO6EZ76AO3386R8ZK9IWWKAW","","202","img/land1.png","74","204","1","1","1","1","0.8,0.2,0.2,0.2,0.8,0.2,0.2,0.2,0.8","0.8,0.2,0.2,0.2,0.8,0.2,0.2,0.2,0.8","1","",""
"","html-keyboard-response","137","86118","0.0-137.0","3W8CV64QJ3L4LLBKWJUWOVPLSEO9H3","A2T8U68Y44GPVD","3P7RGTLO6EZ76AO3386R8ZK9IWWKAW","","null","<img src=""img/land1.png"" style=""width:200px; border:14px solid green;"">","null","","","","","","","","","",""
"","image-keyboard-response","138","86336","0.0-138.0","3W8CV64QJ3L4LLBKWJUWOVPLSEO9H3","A2T8U68Y44GPVD","3P7RGTLO6EZ76AO3386R8ZK9IWWKAW","","218","img/land5.png","75","218","2","1","3","1","0.8,0.2,0.2,0.2,0.8,0.2,0.2,0.2,0.8","0.8,0.2,0.2,0.2,0.8,0.2,0.2,0.2,0.8","1","",""
"","html-keyboard-response","139","86637","0.0-139.0","3W8CV64QJ3L4LLBKWJUWOVPLSEO9H3","A2T8U68Y44GPVD","3P7RGTLO6EZ76AO3386R8ZK9IWWKAW","","null","<img src=""img/land5.png"" style=""width:200px; border:14px solid green;"">","null","","","","","","","","","",""
"","image-keyboard-response","140","86727","0.0-140.0","3W8CV64QJ3L4LLBKWJUWOVPLSEO9H3","A2T8U68Y44GPVD","3P7RGTLO6EZ76AO3386R8ZK9IWWKAW","","89","img/land1.png","75","90","2","0","1","1","0.8,0.2,0.2,0.2,0.8,0.2,0.2,0.2,0.8","0.8,0.2,0.2,0.2,0.8,0.2,0.2,0.2,0.8","1","",""
"","html-keyboard-response","141","87031","0.0-141.0","3W8CV64QJ3L4LLBKWJUWOVPLSEO9H3","A2T8U68Y44GPVD","3P7RGTLO6EZ76AO3386R8ZK9IWWKAW","","null","<img src=""img/land1.png"" style=""width:200px;border:14px solid red;"">","null","","","","","","","","","",""
"","image-keyboard-response","142","87040","0.0-142.0","3W8CV64QJ3L4LLBKWJUWOVPLSEO9H3","A2T8U68Y44GPVD","3P7RGTLO6EZ76AO3386R8ZK9IWWKAW","","2","img/land4.png","76","3","3","0","2","1","0.8,0.2,0.2,0.2,0.8,0.2,0.2,0.2,0.8","0.8,0.2,0.2,0.2,0.8,0.2,0.2,0.2,0.8","1","",""
"","html-keyboard-response","143","87385","0.0-143.0","3W8CV64QJ3L4LLBKWJUWOVPLSEO9H3","A2T8U68Y44GPVD","3P7RGTLO6EZ76AO3386R8ZK9IWWKAW","","null","<img src=""img/land4.png"" style=""width:200px;border:14px solid red;"">","null","","","","","","","","","",""
"","image-keyboard-response","144","87503","0.0-144.0","3W8CV64QJ3L4LLBKWJUWOVPLSEO9H3","A2T8U68Y44GPVD","3P7RGTLO6EZ76AO3386R8ZK9IWWKAW","","117","img/land1.png","75","117","2","0","1","1","0.8,0.2,0.2,0.2,0.8,0.2,0.2,0.2,0.8","0.8,0.2,0.2,0.2,0.8,0.2,0.2,0.2,0.8","1","",""
"","html-keyboard-response","145","87803","0.0-145.0","3W8CV64QJ3L4LLBKWJUWOVPLSEO9H3","A2T8U68Y44GPVD","3P7RGTLO6EZ76AO3386R8ZK9IWWKAW","","null","<img src=""img/land1.png"" style=""width:200px;border:14px solid red;"">","null","","","","","","","","","",""
"","image-keyboard-response","146","87960","0.0-146.0","3W8CV64QJ3L4LLBKWJUWOVPLSEO9H3","A2T8U68Y44GPVD","3P7RGTLO6EZ76AO3386R8ZK9IWWKAW","","157","img/land1.png","76","157","3","0","1","1","0.8,0.2,0.2,0.2,0.8,0.2,0.2,0.2,0.8","0.8,0.2,0.2,0.2,0.8,0.2,0.2,0.2,0.8","1","",""
"","html-keyboard-response","147","88262","0.0-147.0","3W8CV64QJ3L4LLBKWJUWOVPLSEO9H3","A2T8U68Y44GPVD","3P7RGTLO6EZ76AO3386R8ZK9IWWKAW","","null","<img src=""img/land1.png"" style=""width:200px;border:14px solid red;"">","null","","","","","","","","","",""
"","image-keyboard-response","148","88360","0.0-148.0","3W8CV64QJ3L4LLBKWJUWOVPLSEO9H3","A2T8U68Y44GPVD","3P7RGTLO6EZ76AO3386R8ZK9IWWKAW","","97","img/land4.png","76","98","3","1","2","1","0.8,0.2,0.2,0.2,0.8,0.2,0.2,0.2,0.8","0.8,0.2,0.2,0.2,0.8,0.2,0.2,0.2,0.8","1","",""
"","html-keyboard-response","149","88662","0.0-149.0","3W8CV64QJ3L4LLBKWJUWOVPLSEO9H3","A2T8U68Y44GPVD","3P7RGTLO6EZ76AO3386R8ZK9IWWKAW","","null","<img src=""img/land4.png"" style=""width:200px; border:14px solid green;"">","null","","","","","","","","","",""
"","image-keyboard-response","150","88776","0.0-150.0","3W8CV64QJ3L4LLBKWJUWOVPLSEO9H3","A2T8U68Y44GPVD","3P7RGTLO6EZ76AO3386R8ZK9IWWKAW","","113","img/land5.png","75","114","2","1","3","1","0.8,0.2,0.2,0.2,0.8,0.2,0.2,0.2,0.8","0.8,0.2,0.2,0.2,0.8,0.2,0.2,0.2,0.8","1","",""
"","html-keyboard-response","151","89077","0.0-151.0","3W8CV64QJ3L4LLBKWJUWOVPLSEO9H3","A2T8U68Y44GPVD","3P7RGTLO6EZ76AO3386R8ZK9IWWKAW","","null","<img src=""img/land5.png"" style=""width:200px; border:14px solid green;"">","null","","","","","","","","","",""
"","image-keyboard-response","152","89097","0.0-152.0","3W8CV64QJ3L4LLBKWJUWOVPLSEO9H3","A2T8U68Y44GPVD","3P7RGTLO6EZ76AO3386R8ZK9IWWKAW","","18","img/land4.png","75","20","2","0","2","1","0.8,0.2,0.2,0.2,0.8,0.2,0.2,0.2,0.8","0.8,0.2,0.2,0.2,0.8,0.2,0.2,0.2,0.8","1","",""
"","html-keyboard-response","153","89419","0.0-153.0","3W8CV64QJ3L4LLBKWJUWOVPLSEO9H3","A2T8U68Y44GPVD","3P7RGTLO6EZ76AO3386R8ZK9IWWKAW","","null","<img src=""img/land4.png"" style=""width:200px;border:14px solid red;"">","null","","","","","","","","","",""
"","image-keyboard-response","154","89421","0.0-154.0","3W8CV64QJ3L4LLBKWJUWOVPLSEO9H3","A2T8U68Y44GPVD","3P7RGTLO6EZ76AO3386R8ZK9IWWKAW","","1","img/land5.png","74","3","1","0","3","1","0.8,0.2,0.2,0.2,0.8,0.2,0.2,0.2,0.8","0.8,0.2,0.2,0.2,0.8,0.2,0.2,0.2,0.8","1","",""
"","html-keyboard-response","155","89722","0.0-155.0","3W8CV64QJ3L4LLBKWJUWOVPLSEO9H3","A2T8U68Y44GPVD","3P7RGTLO6EZ76AO3386R8ZK9IWWKAW","","null","<img src=""img/land5.png"" style=""width:200px;border:14px solid red;"">","null","","","","","","","","","",""
"","image-keyboard-response","156","89760","0.0-156.0","3W8CV64QJ3L4LLBKWJUWOVPLSEO9H3","A2T8U68Y44GPVD","3P7RGTLO6EZ76AO3386R8ZK9IWWKAW","","37","img/land4.png","74","38","1","0","2","1","0.8,0.2,0.2,0.2,0.8,0.2,0.2,0.2,0.8","0.8,0.2,0.2,0.2,0.8,0.2,0.2,0.2,0.8","1","",""
"","html-keyboard-response","157","90061","0.0-157.0","3W8CV64QJ3L4LLBKWJUWOVPLSEO9H3","A2T8U68Y44GPVD","3P7RGTLO6EZ76AO3386R8ZK9IWWKAW","","null","<img src=""img/land4.png"" style=""width:200px;border:14px solid red;"">","null","","","","","","","","","",""
"","image-keyboard-response","158","90257","0.0-158.0","3W8CV64QJ3L4LLBKWJUWOVPLSEO9H3","A2T8U68Y44GPVD","3P7RGTLO6EZ76AO3386R8ZK9IWWKAW","","194","img/land4.png","74","196","1","0","2","1","0.8,0.2,0.2,0.2,0.8,0.2,0.2,0.2,0.8","0.8,0.2,0.2,0.2,0.8,0.2,0.2,0.2,0.8","1","",""
"","html-keyboard-response","159","90558","0.0-159.0","3W8CV64QJ3L4LLBKWJUWOVPLSEO9H3","A2T8U68Y44GPVD","3P7RGTLO6EZ76AO3386R8ZK9IWWKAW","","null","<img src=""img/land4.png"" style=""width:200px;border:14px solid red;"">","null","","","","","","","","","",""
"","image-keyboard-response","160","90592","0.0-160.0","3W8CV64QJ3L4LLBKWJUWOVPLSEO9H3","A2T8U68Y44GPVD","3P7RGTLO6EZ76AO3386R8ZK9IWWKAW","","33","img/land4.png","74","34","1","0","2","1","0.8,0.2,0.2,0.2,0.8,0.2,0.2,0.2,0.8","0.8,0.2,0.2,0.2,0.8,0.2,0.2,0.2,0.8","1","",""
"","html-keyboard-response","161","90893","0.0-161.0","3W8CV64QJ3L4LLBKWJUWOVPLSEO9H3","A2T8U68Y44GPVD","3P7RGTLO6EZ76AO3386R8ZK9IWWKAW","","null","<img src=""img/land4.png"" style=""width:200px;border:14px solid red;"">","null","","","","","","","","","",""
"","image-keyboard-response","162","90936","0.0-162.0","3W8CV64QJ3L4LLBKWJUWOVPLSEO9H3","A2T8U68Y44GPVD","3P7RGTLO6EZ76AO3386R8ZK9IWWKAW","","42","img/land5.png","76","43","3","1","3","1","0.8,0.2,0.2,0.2,0.8,0.2,0.2,0.2,0.8","0.8,0.2,0.2,0.2,0.8,0.2,0.2,0.2,0.8","1","",""
"","html-keyboard-response","163","91280","0.0-163.0","3W8CV64QJ3L4LLBKWJUWOVPLSEO9H3","A2T8U68Y44GPVD","3P7RGTLO6EZ76AO3386R8ZK9IWWKAW","","null","<img src=""img/land5.png"" style=""width:200px; border:14px solid green;"">","null","","","","","","","","","",""
"","image-keyboard-response","164","91290","0.0-164.0","3W8CV64QJ3L4LLBKWJUWOVPLSEO9H3","A2T8U68Y44GPVD","3P7RGTLO6EZ76AO3386R8ZK9IWWKAW","","10","img/land5.png","74","10","1","0","3","1","0.8,0.2,0.2,0.2,0.8,0.2,0.2,0.2,0.8","0.8,0.2,0.2,0.2,0.8,0.2,0.2,0.2,0.8","1","",""
"","html-keyboard-response","165","91591","0.0-165.0","3W8CV64QJ3L4LLBKWJUWOVPLSEO9H3","A2T8U68Y44GPVD","3P7RGTLO6EZ76AO3386R8ZK9IWWKAW","","null","<img src=""img/land5.png"" style=""width:200px;border:14px solid red;"">","null","","","","","","","","","",""
"","image-keyboard-response","166","91601","0.0-166.0","3W8CV64QJ3L4LLBKWJUWOVPLSEO9H3","A2T8U68Y44GPVD","3P7RGTLO6EZ76AO3386R8ZK9IWWKAW","","9","img/land1.png","74","10","1","1","1","1","0.8,0.2,0.2,0.2,0.8,0.2,0.2,0.2,0.8","0.8,0.2,0.2,0.2,0.8,0.2,0.2,0.2,0.8","1","",""
"","html-keyboard-response","167","91904","0.0-167.0","3W8CV64QJ3L4LLBKWJUWOVPLSEO9H3","A2T8U68Y44GPVD","3P7RGTLO6EZ76AO3386R8ZK9IWWKAW","","null","<img src=""img/land1.png"" style=""width:200px; border:14px solid green;"">","null","","","","","","","","","",""
"","image-keyboard-response","168","92073","0.0-168.0","3W8CV64QJ3L4LLBKWJUWOVPLSEO9H3","A2T8U68Y44GPVD","3P7RGTLO6EZ76AO3386R8ZK9IWWKAW","","167","img/land1.png","74","169","1","1","1","1","0.8,0.2,0.2,0.2,0.8,0.2,0.2,0.2,0.8","0.8,0.2,0.2,0.2,0.8,0.2,0.2,0.2,0.8","1","",""
"","html-keyboard-response","169","92373","0.0-169.0","3W8CV64QJ3L4LLBKWJUWOVPLSEO9H3","A2T8U68Y44GPVD","3P7RGTLO6EZ76AO3386R8ZK9IWWKAW","","null","<img src=""img/land1.png"" style=""width:200px; border:14px solid green;"">","null","","","","","","","","","",""
"","image-keyboard-response","170","92512","0.0-170.0","3W8CV64QJ3L4LLBKWJUWOVPLSEO9H3","A2T8U68Y44GPVD","3P7RGTLO6EZ76AO3386R8ZK9IWWKAW","","138","img/land4.png","74","139","1","0","2","1","0.8,0.2,0.2,0.2,0.8,0.2,0.2,0.2,0.8","0.8,0.2,0.2,0.2,0.8,0.2,0.2,0.2,0.8","1","",""
"","html-keyboard-response","171","92813","0.0-171.0","3W8CV64QJ3L4LLBKWJUWOVPLSEO9H3","A2T8U68Y44GPVD","3P7RGTLO6EZ76AO3386R8ZK9IWWKAW","","null","<img src=""img/land4.png"" style=""width:200px;border:14px solid red;"">","null","","","","","","","","","",""
"","image-keyboard-response","172","92919","0.0-172.0","3W8CV64QJ3L4LLBKWJUWOVPLSEO9H3","A2T8U68Y44GPVD","3P7RGTLO6EZ76AO3386R8ZK9IWWKAW","","104","img/land4.png","74","105","1","0","2","1","0.8,0.2,0.2,0.2,0.8,0.2,0.2,0.2,0.8","0.8,0.2,0.2,0.2,0.8,0.2,0.2,0.2,0.8","1","",""
"","html-keyboard-response","173","93220","0.0-173.0","3W8CV64QJ3L4LLBKWJUWOVPLSEO9H3","A2T8U68Y44GPVD","3P7RGTLO6EZ76AO3386R8ZK9IWWKAW","","null","<img src=""img/land4.png"" style=""width:200px;border:14px solid red;"">","null","","","","","","","","","",""
"","image-keyboard-response","174","93256","0.0-174.0","3W8CV64QJ3L4LLBKWJUWOVPLSEO9H3","A2T8U68Y44GPVD","3P7RGTLO6EZ76AO3386R8ZK9IWWKAW","","35","img/land4.png","76","36","3","0","2","1","0.8,0.2,0.2,0.2,0.8,0.2,0.2,0.2,0.8","0.8,0.2,0.2,0.2,0.8,0.2,0.2,0.2,0.8","1","",""
"","html-keyboard-response","175","93658","0.0-175.0","3W8CV64QJ3L4LLBKWJUWOVPLSEO9H3","A2T8U68Y44GPVD","3P7RGTLO6EZ76AO3386R8ZK9IWWKAW","","null","<img src=""img/land4.png"" style=""width:200px;border:14px solid red;"">","null","","","","","","","","","",""
"","image-keyboard-response","176","93667","0.0-176.0","3W8CV64QJ3L4LLBKWJUWOVPLSEO9H3","A2T8U68Y44GPVD","3P7RGTLO6EZ76AO3386R8ZK9IWWKAW","","8","img/land4.png","74","9","1","0","2","1","0.8,0.2,0.2,0.2,0.8,0.2,0.2,0.2,0.8","0.8,0.2,0.2,0.2,0.8,0.2,0.2,0.2,0.8","1","",""
"","html-keyboard-response","177","93969","0.0-177.0","3W8CV64QJ3L4LLBKWJUWOVPLSEO9H3","A2T8U68Y44GPVD","3P7RGTLO6EZ76AO3386R8ZK9IWWKAW","","null","<img src=""img/land4.png"" style=""width:200px;border:14px solid red;"">","null","","","","","","","","","",""
"","image-keyboard-response","178","94032","0.0-178.0","3W8CV64QJ3L4LLBKWJUWOVPLSEO9H3","A2T8U68Y44GPVD","3P7RGTLO6EZ76AO3386R8ZK9IWWKAW","","62","img/land1.png","75","63","2","0","1","1","0.8,0.2,0.2,0.2,0.8,0.2,0.2,0.2,0.8","0.8,0.2,0.2,0.2,0.8,0.2,0.2,0.2,0.8","1","",""
"","html-keyboard-response","179","94332","0.0-179.0","3W8CV64QJ3L4LLBKWJUWOVPLSEO9H3","A2T8U68Y44GPVD","3P7RGTLO6EZ76AO3386R8ZK9IWWKAW","","null","<img src=""img/land1.png"" style=""width:200px;border:14px solid red;"">","null","","","","","","","","","",""
"","image-keyboard-response","180","94376","0.0-180.0","3W8CV64QJ3L4LLBKWJUWOVPLSEO9H3","A2T8U68Y44GPVD","3P7RGTLO6EZ76AO3386R8ZK9IWWKAW","","42","img/land1.png","75","44","2","0","1","1","0.8,0.2,0.2,0.2,0.8,0.2,0.2,0.2,0.8","0.8,0.2,0.2,0.2,0.8,0.2,0.2,0.2,0.8","1","",""
"","html-keyboard-response","181","94677","0.0-181.0","3W8CV64QJ3L4LLBKWJUWOVPLSEO9H3","A2T8U68Y44GPVD","3P7RGTLO6EZ76AO3386R8ZK9IWWKAW","","null","<img src=""img/land1.png"" style=""width:200px;border:14px solid red;"">","null","","","","","","","","","",""
"","html-keyboard-response","182","99624","0.0-182.0","3W8CV64QJ3L4LLBKWJUWOVPLSEO9H3","A2T8U68Y44GPVD","3P7RGTLO6EZ76AO3386R8ZK9IWWKAW","","","","","","","","","","","","","",""
"","image-keyboard-response","183","100537","0.0-183.0","3W8CV64QJ3L4LLBKWJUWOVPLSEO9H3","A2T8U68Y44GPVD","3P7RGTLO6EZ76AO3386R8ZK9IWWKAW","","910","img/land2.png","74","912","1","0","1","2","0.8,0.2,0.2,0.2,0.8,0.2,0.2,0.2,0.8","0.2,0.8,0.2,0.2,0.2,0.8,0.8,0.2,0.2","3","",""
"","html-keyboard-response","184","100838","0.0-184.0","3W8CV64QJ3L4LLBKWJUWOVPLSEO9H3","A2T8U68Y44GPVD","3P7RGTLO6EZ76AO3386R8ZK9IWWKAW","","null","<img src=""img/land2.png"" style=""width:200px;border:14px solid red;"">","null","","","","","","","","","",""
"","image-keyboard-response","185","100847","0.0-185.0","3W8CV64QJ3L4LLBKWJUWOVPLSEO9H3","A2T8U68Y44GPVD","3P7RGTLO6EZ76AO3386R8ZK9IWWKAW","","9","img/land2.png","74","10","1","0","1","2","0.8,0.2,0.2,0.2,0.8,0.2,0.2,0.2,0.8","0.2,0.8,0.2,0.2,0.2,0.8,0.8,0.2,0.2","3","",""
"","html-keyboard-response","186","101150","0.0-186.0","3W8CV64QJ3L4LLBKWJUWOVPLSEO9H3","A2T8U68Y44GPVD","3P7RGTLO6EZ76AO3386R8ZK9IWWKAW","","null","<img src=""img/land2.png"" style=""width:200px;border:14px solid red;"">","null","","","","","","","","","",""
"","image-keyboard-response","187","101224","0.0-187.0","3W8CV64QJ3L4LLBKWJUWOVPLSEO9H3","A2T8U68Y44GPVD","3P7RGTLO6EZ76AO3386R8ZK9IWWKAW","","72","img/land2.png","75","74","2","1","1","2","0.8,0.2,0.2,0.2,0.8,0.2,0.2,0.2,0.8","0.2,0.8,0.2,0.2,0.2,0.8,0.8,0.2,0.2","3","",""
"","html-keyboard-response","188","101524","0.0-188.0","3W8CV64QJ3L4LLBKWJUWOVPLSEO9H3","A2T8U68Y44GPVD","3P7RGTLO6EZ76AO3386R8ZK9IWWKAW","","null","<img src=""img/land2.png"" style=""width:200px; border:14px solid green;"">","null","","","","","","","","","",""
"","image-keyboard-response","189","101592","0.0-189.0","3W8CV64QJ3L4LLBKWJUWOVPLSEO9H3","A2T8U68Y44GPVD","3P7RGTLO6EZ76AO3386R8ZK9IWWKAW","","65","img/land2.png","74","68","1","0","1","2","0.8,0.2,0.2,0.2,0.8,0.2,0.2,0.2,0.8","0.2,0.8,0.2,0.2,0.2,0.8,0.8,0.2,0.2","3","",""
"","html-keyboard-response","190","101894","0.0-190.0","3W8CV64QJ3L4LLBKWJUWOVPLSEO9H3","A2T8U68Y44GPVD","3P7RGTLO6EZ76AO3386R8ZK9IWWKAW","","null","<img src=""img/land2.png"" style=""width:200px;border:14px solid red;"">","null","","","","","","","","","",""
"","image-keyboard-response","191","102010","0.0-191.0","3W8CV64QJ3L4LLBKWJUWOVPLSEO9H3","A2T8U68Y44GPVD","3P7RGTLO6EZ76AO3386R8ZK9IWWKAW","","115","img/land3.png","74","116","1","0","2","2","0.8,0.2,0.2,0.2,0.8,0.2,0.2,0.2,0.8","0.2,0.8,0.2,0.2,0.2,0.8,0.8,0.2,0.2","3","",""
"","html-keyboard-response","192","102310","0.0-192.0","3W8CV64QJ3L4LLBKWJUWOVPLSEO9H3","A2T8U68Y44GPVD","3P7RGTLO6EZ76AO3386R8ZK9IWWKAW","","null","<img src=""img/land3.png"" style=""width:200px;border:14px solid red;"">","null","","","","","","","","","",""
"","image-keyboard-response","193","102496","0.0-193.0","3W8CV64QJ3L4LLBKWJUWOVPLSEO9H3","A2T8U68Y44GPVD","3P7RGTLO6EZ76AO3386R8ZK9IWWKAW","","185","img/land3.png","74","186","1","1","2","2","0.8,0.2,0.2,0.2,0.8,0.2,0.2,0.2,0.8","0.2,0.8,0.2,0.2,0.2,0.8,0.8,0.2,0.2","3","",""
"","html-keyboard-response","194","102798","0.0-194.0","3W8CV64QJ3L4LLBKWJUWOVPLSEO9H3","A2T8U68Y44GPVD","3P7RGTLO6EZ76AO3386R8ZK9IWWKAW","","null","<img src=""img/land3.png"" style=""width:200px; border:14px solid green;"">","null","","","","","","","","","",""
"","image-keyboard-response","195","102816","0.0-195.0","3W8CV64QJ3L4LLBKWJUWOVPLSEO9H3","A2T8U68Y44GPVD","3P7RGTLO6EZ76AO3386R8ZK9IWWKAW","","18","img/land6.png","75","18","2","0","3","2","0.8,0.2,0.2,0.2,0.8,0.2,0.2,0.2,0.8","0.2,0.8,0.2,0.2,0.2,0.8,0.8,0.2,0.2","3","",""
"","html-keyboard-response","196","103118","0.0-196.0","3W8CV64QJ3L4LLBKWJUWOVPLSEO9H3","A2T8U68Y44GPVD","3P7RGTLO6EZ76AO3386R8ZK9IWWKAW","","null","<img src=""img/land6.png"" style=""width:200px;border:14px solid red;"">","null","","","","","","","","","",""
"","image-keyboard-response","197","103208","0.0-197.0","3W8CV64QJ3L4LLBKWJUWOVPLSEO9H3","A2T8U68Y44GPVD","3P7RGTLO6EZ76AO3386R8ZK9IWWKAW","","89","img/land3.png","74","90","1","0","2","2","0.8,0.2,0.2,0.2,0.8,0.2,0.2,0.2,0.8","0.2,0.8,0.2,0.2,0.2,0.8,0.8,0.2,0.2","3","",""
"","html-keyboard-response","198","103524","0.0-198.0","3W8CV64QJ3L4LLBKWJUWOVPLSEO9H3","A2T8U68Y44GPVD","3P7RGTLO6EZ76AO3386R8ZK9IWWKAW","","null","<img src=""img/land3.png"" style=""width:200px;border:14px solid red;"">","null","","","","","","","","","",""
"","image-keyboard-response","199","103579","0.0-199.0","3W8CV64QJ3L4LLBKWJUWOVPLSEO9H3","A2T8U68Y44GPVD","3P7RGTLO6EZ76AO3386R8ZK9IWWKAW","","55","img/land2.png","76","55","3","0","1","2","0.8,0.2,0.2,0.2,0.8,0.2,0.2,0.2,0.8","0.2,0.8,0.2,0.2,0.2,0.8,0.8,0.2,0.2","3","",""
"","html-keyboard-response","200","103881","0.0-200.0","3W8CV64QJ3L4LLBKWJUWOVPLSEO9H3","A2T8U68Y44GPVD","3P7RGTLO6EZ76AO3386R8ZK9IWWKAW","","null","<img src=""img/land2.png"" style=""width:200px;border:14px solid red;"">","null","","","","","","","","","",""
"","image-keyboard-response","201","103976","0.0-201.0","3W8CV64QJ3L4LLBKWJUWOVPLSEO9H3","A2T8U68Y44GPVD","3P7RGTLO6EZ76AO3386R8ZK9IWWKAW","","93","img/land2.png","76","94","3","0","1","2","0.8,0.2,0.2,0.2,0.8,0.2,0.2,0.2,0.8","0.2,0.8,0.2,0.2,0.2,0.8,0.8,0.2,0.2","3","",""
"","html-keyboard-response","202","104276","0.0-202.0","3W8CV64QJ3L4LLBKWJUWOVPLSEO9H3","A2T8U68Y44GPVD","3P7RGTLO6EZ76AO3386R8ZK9IWWKAW","","null","<img src=""img/land2.png"" style=""width:200px;border:14px solid red;"">","null","","","","","","","","","",""
"","image-keyboard-response","203","104368","0.0-203.0","3W8CV64QJ3L4LLBKWJUWOVPLSEO9H3","A2T8U68Y44GPVD","3P7RGTLO6EZ76AO3386R8ZK9IWWKAW","","90","img/land2.png","76","92","3","0","1","2","0.8,0.2,0.2,0.2,0.8,0.2,0.2,0.2,0.8","0.2,0.8,0.2,0.2,0.2,0.8,0.8,0.2,0.2","3","",""
"","html-keyboard-response","204","104669","0.0-204.0","3W8CV64QJ3L4LLBKWJUWOVPLSEO9H3","A2T8U68Y44GPVD","3P7RGTLO6EZ76AO3386R8ZK9IWWKAW","","null","<img src=""img/land2.png"" style=""width:200px;border:14px solid red;"">","null","","","","","","","","","",""
"","image-keyboard-response","205","104722","0.0-205.0","3W8CV64QJ3L4LLBKWJUWOVPLSEO9H3","A2T8U68Y44GPVD","3P7RGTLO6EZ76AO3386R8ZK9IWWKAW","","52","img/land2.png","75","53","2","1","1","2","0.8,0.2,0.2,0.2,0.8,0.2,0.2,0.2,0.8","0.2,0.8,0.2,0.2,0.2,0.8,0.8,0.2,0.2","3","",""
"","html-keyboard-response","206","105024","0.0-206.0","3W8CV64QJ3L4LLBKWJUWOVPLSEO9H3","A2T8U68Y44GPVD","3P7RGTLO6EZ76AO3386R8ZK9IWWKAW","","null","<img src=""img/land2.png"" style=""width:200px; border:14px solid green;"">","null","","","","","","","","","",""
"","image-keyboard-response","207","105088","0.0-207.0","3W8CV64QJ3L4LLBKWJUWOVPLSEO9H3","A2T8U68Y44GPVD","3P7RGTLO6EZ76AO3386R8ZK9IWWKAW","","64","img/land2.png","74","64","1","0","1","2","0.8,0.2,0.2,0.2,0.8,0.2,0.2,0.2,0.8","0.2,0.8,0.2,0.2,0.2,0.8,0.8,0.2,0.2","3","",""
"","html-keyboard-response","208","105389","0.0-208.0","3W8CV64QJ3L4LLBKWJUWOVPLSEO9H3","A2T8U68Y44GPVD","3P7RGTLO6EZ76AO3386R8ZK9IWWKAW","","null","<img src=""img/land2.png"" style=""width:200px;border:14px solid red;"">","null","","","","","","","","","",""
"","image-keyboard-response","209","105517","0.0-209.0","3W8CV64QJ3L4LLBKWJUWOVPLSEO9H3","A2T8U68Y44GPVD","3P7RGTLO6EZ76AO3386R8ZK9IWWKAW","","125","img/land2.png","74","127","1","0","1","2","0.8,0.2,0.2,0.2,0.8,0.2,0.2,0.2,0.8","0.2,0.8,0.2,0.2,0.2,0.8,0.8,0.2,0.2","3","",""
"","html-keyboard-response","210","105819","0.0-210.0","3W8CV64QJ3L4LLBKWJUWOVPLSEO9H3","A2T8U68Y44GPVD","3P7RGTLO6EZ76AO3386R8ZK9IWWKAW","","null","<img src=""img/land2.png"" style=""width:200px;border:14px solid red;"">","null","","","","","","","","","",""
"","image-keyboard-response","211","105920","0.0-211.0","3W8CV64QJ3L4LLBKWJUWOVPLSEO9H3","A2T8U68Y44GPVD","3P7RGTLO6EZ76AO3386R8ZK9IWWKAW","","100","img/land2.png","74","102","1","0","1","2","0.8,0.2,0.2,0.2,0.8,0.2,0.2,0.2,0.8","0.2,0.8,0.2,0.2,0.2,0.8,0.8,0.2,0.2","3","",""
"","html-keyboard-response","212","106222","0.0-212.0","3W8CV64QJ3L4LLBKWJUWOVPLSEO9H3","A2T8U68Y44GPVD","3P7RGTLO6EZ76AO3386R8ZK9IWWKAW","","null","<img src=""img/land2.png"" style=""width:200px;border:14px solid red;"">","null","","","","","","","","","",""
"","image-keyboard-response","213","106376","0.0-213.0","3W8CV64QJ3L4LLBKWJUWOVPLSEO9H3","A2T8U68Y44GPVD","3P7RGTLO6EZ76AO3386R8ZK9IWWKAW","","154","img/land2.png","75","154","2","1","1","2","0.8,0.2,0.2,0.2,0.8,0.2,0.2,0.2,0.8","0.2,0.8,0.2,0.2,0.2,0.8,0.8,0.2,0.2","3","",""
"","html-keyboard-response","214","106677","0.0-214.0","3W8CV64QJ3L4LLBKWJUWOVPLSEO9H3","A2T8U68Y44GPVD","3P7RGTLO6EZ76AO3386R8ZK9IWWKAW","","null","<img src=""img/land2.png"" style=""width:200px; border:14px solid green;"">","null","","","","","","","","","",""
"","image-keyboard-response","215","106689","0.0-215.0","3W8CV64QJ3L4LLBKWJUWOVPLSEO9H3","A2T8U68Y44GPVD","3P7RGTLO6EZ76AO3386R8ZK9IWWKAW","","11","img/land2.png","74","11","1","0","1","2","0.8,0.2,0.2,0.2,0.8,0.2,0.2,0.2,0.8","0.2,0.8,0.2,0.2,0.2,0.8,0.8,0.2,0.2","3","",""
"","html-keyboard-response","216","106991","0.0-216.0","3W8CV64QJ3L4LLBKWJUWOVPLSEO9H3","A2T8U68Y44GPVD","3P7RGTLO6EZ76AO3386R8ZK9IWWKAW","","null","<img src=""img/land2.png"" style=""width:200px;border:14px solid red;"">","null","","","","","","","","","",""
"","image-keyboard-response","217","107114","0.0-217.0","3W8CV64QJ3L4LLBKWJUWOVPLSEO9H3","A2T8U68Y44GPVD","3P7RGTLO6EZ76AO3386R8ZK9IWWKAW","","123","img/land2.png","74","124","1","0","1","2","0.8,0.2,0.2,0.2,0.8,0.2,0.2,0.2,0.8","0.2,0.8,0.2,0.2,0.2,0.8,0.8,0.2,0.2","3","",""
"","html-keyboard-response","218","107416","0.0-218.0","3W8CV64QJ3L4LLBKWJUWOVPLSEO9H3","A2T8U68Y44GPVD","3P7RGTLO6EZ76AO3386R8ZK9IWWKAW","","null","<img src=""img/land2.png"" style=""width:200px;border:14px solid red;"">","null","","","","","","","","","",""
"","image-keyboard-response","219","107536","0.0-219.0","3W8CV64QJ3L4LLBKWJUWOVPLSEO9H3","A2T8U68Y44GPVD","3P7RGTLO6EZ76AO3386R8ZK9IWWKAW","","119","img/land2.png","74","120","1","0","1","2","0.8,0.2,0.2,0.2,0.8,0.2,0.2,0.2,0.8","0.2,0.8,0.2,0.2,0.2,0.8,0.8,0.2,0.2","3","",""
"","html-keyboard-response","220","107837","0.0-220.0","3W8CV64QJ3L4LLBKWJUWOVPLSEO9H3","A2T8U68Y44GPVD","3P7RGTLO6EZ76AO3386R8ZK9IWWKAW","","null","<img src=""img/land2.png"" style=""width:200px;border:14px solid red;"">","null","","","","","","","","","",""
"","image-keyboard-response","221","107928","0.0-221.0","3W8CV64QJ3L4LLBKWJUWOVPLSEO9H3","A2T8U68Y44GPVD","3P7RGTLO6EZ76AO3386R8ZK9IWWKAW","","89","img/land3.png","74","90","1","0","2","2","0.8,0.2,0.2,0.2,0.8,0.2,0.2,0.2,0.8","0.2,0.8,0.2,0.2,0.2,0.8,0.8,0.2,0.2","3","",""
"","html-keyboard-response","222","108230","0.0-222.0","3W8CV64QJ3L4LLBKWJUWOVPLSEO9H3","A2T8U68Y44GPVD","3P7RGTLO6EZ76AO3386R8ZK9IWWKAW","","null","<img src=""img/land3.png"" style=""width:200px;border:14px solid red;"">","null","","","","","","","","","",""
"","image-keyboard-response","223","108360","0.0-223.0","3W8CV64QJ3L4LLBKWJUWOVPLSEO9H3","A2T8U68Y44GPVD","3P7RGTLO6EZ76AO3386R8ZK9IWWKAW","","129","img/land6.png","74","130","1","1","3","2","0.8,0.2,0.2,0.2,0.8,0.2,0.2,0.2,0.8","0.2,0.8,0.2,0.2,0.2,0.8,0.8,0.2,0.2","3","",""
"","html-keyboard-response","224","108661","0.0-224.0","3W8CV64QJ3L4LLBKWJUWOVPLSEO9H3","A2T8U68Y44GPVD","3P7RGTLO6EZ76AO3386R8ZK9IWWKAW","","null","<img src=""img/land6.png"" style=""width:200px; border:14px solid green;"">","null","","","","","","","","","",""
"","image-keyboard-response","225","108951","0.0-225.0","3W8CV64QJ3L4LLBKWJUWOVPLSEO9H3","A2T8U68Y44GPVD","3P7RGTLO6EZ76AO3386R8ZK9IWWKAW","","289","img/land6.png","74","290","1","1","3","2","0.8,0.2,0.2,0.2,0.8,0.2,0.2,0.2,0.8","0.2,0.8,0.2,0.2,0.2,0.8,0.8,0.2,0.2","3","",""
"","html-keyboard-response","226","109252","0.0-226.0","3W8CV64QJ3L4LLBKWJUWOVPLSEO9H3","A2T8U68Y44GPVD","3P7RGTLO6EZ76AO3386R8ZK9IWWKAW","","null","<img src=""img/land6.png"" style=""width:200px; border:14px solid green;"">","null","","","","","","","","","",""
"","image-keyboard-response","227","109384","0.0-227.0","3W8CV64QJ3L4LLBKWJUWOVPLSEO9H3","A2T8U68Y44GPVD","3P7RGTLO6EZ76AO3386R8ZK9IWWKAW","","130","img/land3.png","74","132","1","0","2","2","0.8,0.2,0.2,0.2,0.8,0.2,0.2,0.2,0.8","0.2,0.8,0.2,0.2,0.2,0.8,0.8,0.2,0.2","3","",""
"","html-keyboard-response","228","109712","0.0-228.0","3W8CV64QJ3L4LLBKWJUWOVPLSEO9H3","A2T8U68Y44GPVD","3P7RGTLO6EZ76AO3386R8ZK9IWWKAW","","null","<img src=""img/land3.png"" style=""width:200px;border:14px solid red;"">","null","","","","","","","","","",""
"","image-keyboard-response","229","109887","0.0-229.0","3W8CV64QJ3L4LLBKWJUWOVPLSEO9H3","A2T8U68Y44GPVD","3P7RGTLO6EZ76AO3386R8ZK9IWWKAW","","174","img/land2.png","74","175","1","1","1","2","0.8,0.2,0.2,0.2,0.8,0.2,0.2,0.2,0.8","0.2,0.8,0.2,0.2,0.2,0.8,0.8,0.2,0.2","3","",""
"","html-keyboard-response","230","110188","0.0-230.0","3W8CV64QJ3L4LLBKWJUWOVPLSEO9H3","A2T8U68Y44GPVD","3P7RGTLO6EZ76AO3386R8ZK9IWWKAW","","null","<img src=""img/land2.png"" style=""width:200px; border:14px solid green;"">","null","","","","","","","","","",""
"","image-keyboard-response","231","110360","0.0-231.0","3W8CV64QJ3L4LLBKWJUWOVPLSEO9H3","A2T8U68Y44GPVD","3P7RGTLO6EZ76AO3386R8ZK9IWWKAW","","171","img/land3.png","74","172","1","0","2","2","0.8,0.2,0.2,0.2,0.8,0.2,0.2,0.2,0.8","0.2,0.8,0.2,0.2,0.2,0.8,0.8,0.2,0.2","3","",""
"","html-keyboard-response","232","110661","0.0-232.0","3W8CV64QJ3L4LLBKWJUWOVPLSEO9H3","A2T8U68Y44GPVD","3P7RGTLO6EZ76AO3386R8ZK9IWWKAW","","null","<img src=""img/land3.png"" style=""width:200px;border:14px solid red;"">","null","","","","","","","","","",""
"","image-keyboard-response","233","110808","0.0-233.0","3W8CV64QJ3L4LLBKWJUWOVPLSEO9H3","A2T8U68Y44GPVD","3P7RGTLO6EZ76AO3386R8ZK9IWWKAW","","147","img/land2.png","74","147","1","0","1","2","0.8,0.2,0.2,0.2,0.8,0.2,0.2,0.2,0.8","0.2,0.8,0.2,0.2,0.2,0.8,0.8,0.2,0.2","3","",""
"","html-keyboard-response","234","111109","0.0-234.0","3W8CV64QJ3L4LLBKWJUWOVPLSEO9H3","A2T8U68Y44GPVD","3P7RGTLO6EZ76AO3386R8ZK9IWWKAW","","null","<img src=""img/land2.png"" style=""width:200px;border:14px solid red;"">","null","","","","","","","","","",""
"","image-keyboard-response","235","111226","0.0-235.0","3W8CV64QJ3L4LLBKWJUWOVPLSEO9H3","A2T8U68Y44GPVD","3P7RGTLO6EZ76AO3386R8ZK9IWWKAW","","116","img/land2.png","74","117","1","0","1","2","0.8,0.2,0.2,0.2,0.8,0.2,0.2,0.2,0.8","0.2,0.8,0.2,0.2,0.2,0.8,0.8,0.2,0.2","3","",""
"","html-keyboard-response","236","111529","0.0-236.0","3W8CV64QJ3L4LLBKWJUWOVPLSEO9H3","A2T8U68Y44GPVD","3P7RGTLO6EZ76AO3386R8ZK9IWWKAW","","null","<img src=""img/land2.png"" style=""width:200px;border:14px solid red;"">","null","","","","","","","","","",""
"","image-keyboard-response","237","111854","0.0-237.0","3W8CV64QJ3L4LLBKWJUWOVPLSEO9H3","A2T8U68Y44GPVD","3P7RGTLO6EZ76AO3386R8ZK9IWWKAW","","324","img/land3.png","74","325","1","0","2","2","0.8,0.2,0.2,0.2,0.8,0.2,0.2,0.2,0.8","0.2,0.8,0.2,0.2,0.2,0.8,0.8,0.2,0.2","3","",""
"","html-keyboard-response","238","112155","0.0-238.0","3W8CV64QJ3L4LLBKWJUWOVPLSEO9H3","A2T8U68Y44GPVD","3P7RGTLO6EZ76AO3386R8ZK9IWWKAW","","null","<img src=""img/land3.png"" style=""width:200px;border:14px solid red;"">","null","","","","","","","","","",""
"","image-keyboard-response","239","112199","0.0-239.0","3W8CV64QJ3L4LLBKWJUWOVPLSEO9H3","A2T8U68Y44GPVD","3P7RGTLO6EZ76AO3386R8ZK9IWWKAW","","43","img/land2.png","76","44","3","0","1","2","0.8,0.2,0.2,0.2,0.8,0.2,0.2,0.2,0.8","0.2,0.8,0.2,0.2,0.2,0.8,0.8,0.2,0.2","3","",""
"","html-keyboard-response","240","112501","0.0-240.0","3W8CV64QJ3L4LLBKWJUWOVPLSEO9H3","A2T8U68Y44GPVD","3P7RGTLO6EZ76AO3386R8ZK9IWWKAW","","null","<img src=""img/land2.png"" style=""width:200px;border:14px solid red;"">","null","","","","","","","","","",""
"","image-keyboard-response","241","112616","0.0-241.0","3W8CV64QJ3L4LLBKWJUWOVPLSEO9H3","A2T8U68Y44GPVD","3P7RGTLO6EZ76AO3386R8ZK9IWWKAW","","113","img/land2.png","75","115","2","0","1","2","0.8,0.2,0.2,0.2,0.8,0.2,0.2,0.2,0.8","0.2,0.8,0.2,0.2,0.2,0.8,0.8,0.2,0.2","3","",""
"","html-keyboard-response","242","112916","0.0-242.0","3W8CV64QJ3L4LLBKWJUWOVPLSEO9H3","A2T8U68Y44GPVD","3P7RGTLO6EZ76AO3386R8ZK9IWWKAW","","null","<img src=""img/land2.png"" style=""width:200px;border:14px solid red;"">","null","","","","","","","","","",""
"","image-keyboard-response","243","113002","0.0-243.0","3W8CV64QJ3L4LLBKWJUWOVPLSEO9H3","A2T8U68Y44GPVD","3P7RGTLO6EZ76AO3386R8ZK9IWWKAW","","84","img/land2.png","74","86","1","0","1","2","0.8,0.2,0.2,0.2,0.8,0.2,0.2,0.2,0.8","0.2,0.8,0.2,0.2,0.2,0.8,0.8,0.2,0.2","3","",""
"","html-keyboard-response","244","113303","0.0-244.0","3W8CV64QJ3L4LLBKWJUWOVPLSEO9H3","A2T8U68Y44GPVD","3P7RGTLO6EZ76AO3386R8ZK9IWWKAW","","null","<img src=""img/land2.png"" style=""width:200px;border:14px solid red;"">","null","","","","","","","","","",""
"","image-keyboard-response","245","113512","0.0-245.0","3W8CV64QJ3L4LLBKWJUWOVPLSEO9H3","A2T8U68Y44GPVD","3P7RGTLO6EZ76AO3386R8ZK9IWWKAW","","208","img/land3.png","75","209","2","0","2","2","0.8,0.2,0.2,0.2,0.8,0.2,0.2,0.2,0.8","0.2,0.8,0.2,0.2,0.2,0.8,0.8,0.2,0.2","3","",""
"","html-keyboard-response","246","113814","0.0-246.0","3W8CV64QJ3L4LLBKWJUWOVPLSEO9H3","A2T8U68Y44GPVD","3P7RGTLO6EZ76AO3386R8ZK9IWWKAW","","null","<img src=""img/land3.png"" style=""width:200px;border:14px solid red;"">","null","","","","","","","","","",""
"","image-keyboard-response","247","114142","0.0-247.0","3W8CV64QJ3L4LLBKWJUWOVPLSEO9H3","A2T8U68Y44GPVD","3P7RGTLO6EZ76AO3386R8ZK9IWWKAW","","327","img/land3.png","74","328","1","0","2","2","0.8,0.2,0.2,0.2,0.8,0.2,0.2,0.2,0.8","0.2,0.8,0.2,0.2,0.2,0.8,0.8,0.2,0.2","3","",""
"","html-keyboard-response","248","114444","0.0-248.0","3W8CV64QJ3L4LLBKWJUWOVPLSEO9H3","A2T8U68Y44GPVD","3P7RGTLO6EZ76AO3386R8ZK9IWWKAW","","null","<img src=""img/land3.png"" style=""width:200px;border:14px solid red;"">","null","","","","","","","","","",""
"","image-keyboard-response","249","114463","0.0-249.0","3W8CV64QJ3L4LLBKWJUWOVPLSEO9H3","A2T8U68Y44GPVD","3P7RGTLO6EZ76AO3386R8ZK9IWWKAW","","18","img/land3.png","75","19","2","0","2","2","0.8,0.2,0.2,0.2,0.8,0.2,0.2,0.2,0.8","0.2,0.8,0.2,0.2,0.2,0.8,0.8,0.2,0.2","3","",""
"","html-keyboard-response","250","114764","0.0-250.0","3W8CV64QJ3L4LLBKWJUWOVPLSEO9H3","A2T8U68Y44GPVD","3P7RGTLO6EZ76AO3386R8ZK9IWWKAW","","null","<img src=""img/land3.png"" style=""width:200px;border:14px solid red;"">","null","","","","","","","","","",""
"","image-keyboard-response","251","114799","0.0-251.0","3W8CV64QJ3L4LLBKWJUWOVPLSEO9H3","A2T8U68Y44GPVD","3P7RGTLO6EZ76AO3386R8ZK9IWWKAW","","34","img/land2.png","74","35","1","0","1","2","0.8,0.2,0.2,0.2,0.8,0.2,0.2,0.2,0.8","0.2,0.8,0.2,0.2,0.2,0.8,0.8,0.2,0.2","3","",""
"","html-keyboard-response","252","115100","0.0-252.0","3W8CV64QJ3L4LLBKWJUWOVPLSEO9H3","A2T8U68Y44GPVD","3P7RGTLO6EZ76AO3386R8ZK9IWWKAW","","null","<img src=""img/land2.png"" style=""width:200px;border:14px solid red;"">","null","","","","","","","","","",""
"","image-keyboard-response","253","115239","0.0-253.0","3W8CV64QJ3L4LLBKWJUWOVPLSEO9H3","A2T8U68Y44GPVD","3P7RGTLO6EZ76AO3386R8ZK9IWWKAW","","138","img/land3.png","74","139","1","0","2","2","0.8,0.2,0.2,0.2,0.8,0.2,0.2,0.2,0.8","0.2,0.8,0.2,0.2,0.2,0.8,0.8,0.2,0.2","3","",""
"","html-keyboard-response","254","115541","0.0-254.0","3W8CV64QJ3L4LLBKWJUWOVPLSEO9H3","A2T8U68Y44GPVD","3P7RGTLO6EZ76AO3386R8ZK9IWWKAW","","null","<img src=""img/land3.png"" style=""width:200px;border:14px solid red;"">","null","","","","","","","","","",""
"","image-keyboard-response","255","115608","0.0-255.0","3W8CV64QJ3L4LLBKWJUWOVPLSEO9H3","A2T8U68Y44GPVD","3P7RGTLO6EZ76AO3386R8ZK9IWWKAW","","64","img/land6.png","74","67","1","0","3","2","0.8,0.2,0.2,0.2,0.8,0.2,0.2,0.2,0.8","0.2,0.8,0.2,0.2,0.2,0.8,0.8,0.2,0.2","3","",""
"","html-keyboard-response","256","115909","0.0-256.0","3W8CV64QJ3L4LLBKWJUWOVPLSEO9H3","A2T8U68Y44GPVD","3P7RGTLO6EZ76AO3386R8ZK9IWWKAW","","null","<img src=""img/land6.png"" style=""width:200px;border:14px solid red;"">","null","","","","","","","","","",""
"","image-keyboard-response","257","115929","0.0-257.0","3W8CV64QJ3L4LLBKWJUWOVPLSEO9H3","A2T8U68Y44GPVD","3P7RGTLO6EZ76AO3386R8ZK9IWWKAW","","19","img/land2.png","74","19","1","0","1","2","0.8,0.2,0.2,0.2,0.8,0.2,0.2,0.2,0.8","0.2,0.8,0.2,0.2,0.2,0.8,0.8,0.2,0.2","3","",""
"","html-keyboard-response","258","116231","0.0-258.0","3W8CV64QJ3L4LLBKWJUWOVPLSEO9H3","A2T8U68Y44GPVD","3P7RGTLO6EZ76AO3386R8ZK9IWWKAW","","null","<img src=""img/land2.png"" style=""width:200px;border:14px solid red;"">","null","","","","","","","","","",""
"","image-keyboard-response","259","116376","0.0-259.0","3W8CV64QJ3L4LLBKWJUWOVPLSEO9H3","A2T8U68Y44GPVD","3P7RGTLO6EZ76AO3386R8ZK9IWWKAW","","144","img/land3.png","74","145","1","1","2","2","0.8,0.2,0.2,0.2,0.8,0.2,0.2,0.2,0.8","0.2,0.8,0.2,0.2,0.2,0.8,0.8,0.2,0.2","3","",""
"","html-keyboard-response","260","116676","0.0-260.0","3W8CV64QJ3L4LLBKWJUWOVPLSEO9H3","A2T8U68Y44GPVD","3P7RGTLO6EZ76AO3386R8ZK9IWWKAW","","null","<img src=""img/land3.png"" style=""width:200px; border:14px solid green;"">","null","","","","","","","","","",""
"","image-keyboard-response","261","116831","0.0-261.0","3W8CV64QJ3L4LLBKWJUWOVPLSEO9H3","A2T8U68Y44GPVD","3P7RGTLO6EZ76AO3386R8ZK9IWWKAW","","154","img/land2.png","74","155","1","0","1","2","0.8,0.2,0.2,0.2,0.8,0.2,0.2,0.2,0.8","0.2,0.8,0.2,0.2,0.2,0.8,0.8,0.2,0.2","3","",""
"","html-keyboard-response","262","117133","0.0-262.0","3W8CV64QJ3L4LLBKWJUWOVPLSEO9H3","A2T8U68Y44GPVD","3P7RGTLO6EZ76AO3386R8ZK9IWWKAW","","null","<img src=""img/land2.png"" style=""width:200px;border:14px solid red;"">","null","","","","","","","","","",""
"","image-keyboard-response","263","117401","0.0-263.0","3W8CV64QJ3L4LLBKWJUWOVPLSEO9H3","A2T8U68Y44GPVD","3P7RGTLO6EZ76AO3386R8ZK9IWWKAW","","267","img/land2.png","74","268","1","0","1","2","0.8,0.2,0.2,0.2,0.8,0.2,0.2,0.2,0.8","0.2,0.8,0.2,0.2,0.2,0.8,0.8,0.2,0.2","3","",""
"","html-keyboard-response","264","117762","0.0-264.0","3W8CV64QJ3L4LLBKWJUWOVPLSEO9H3","A2T8U68Y44GPVD","3P7RGTLO6EZ76AO3386R8ZK9IWWKAW","","null","<img src=""img/land2.png"" style=""width:200px;border:14px solid red;"">","null","","","","","","","","","",""
"","image-keyboard-response","265","117765","0.0-265.0","3W8CV64QJ3L4LLBKWJUWOVPLSEO9H3","A2T8U68Y44GPVD","3P7RGTLO6EZ76AO3386R8ZK9IWWKAW","","3","img/land2.png","76","3","3","0","1","2","0.8,0.2,0.2,0.2,0.8,0.2,0.2,0.2,0.8","0.2,0.8,0.2,0.2,0.2,0.8,0.8,0.2,0.2","3","",""
"","html-keyboard-response","266","118067","0.0-266.0","3W8CV64QJ3L4LLBKWJUWOVPLSEO9H3","A2T8U68Y44GPVD","3P7RGTLO6EZ76AO3386R8ZK9IWWKAW","","null","<img src=""img/land2.png"" style=""width:200px;border:14px solid red;"">","null","","","","","","","","","",""
"","image-keyboard-response","267","118224","0.0-267.0","3W8CV64QJ3L4LLBKWJUWOVPLSEO9H3","A2T8U68Y44GPVD","3P7RGTLO6EZ76AO3386R8ZK9IWWKAW","","155","img/land2.png","76","157","3","1","1","2","0.8,0.2,0.2,0.2,0.8,0.2,0.2,0.2,0.8","0.2,0.8,0.2,0.2,0.2,0.8,0.8,0.2,0.2","3","",""
"","html-keyboard-response","268","118524","0.0-268.0","3W8CV64QJ3L4LLBKWJUWOVPLSEO9H3","A2T8U68Y44GPVD","3P7RGTLO6EZ76AO3386R8ZK9IWWKAW","","null","<img src=""img/land2.png"" style=""width:200px; border:14px solid green;"">","null","","","","","","","","","",""
"","image-keyboard-response","269","118541","0.0-269.0","3W8CV64QJ3L4LLBKWJUWOVPLSEO9H3","A2T8U68Y44GPVD","3P7RGTLO6EZ76AO3386R8ZK9IWWKAW","","16","img/land3.png","75","17","2","0","2","2","0.8,0.2,0.2,0.2,0.8,0.2,0.2,0.2,0.8","0.2,0.8,0.2,0.2,0.2,0.8,0.8,0.2,0.2","3","",""
"","html-keyboard-response","270","118842","0.0-270.0","3W8CV64QJ3L4LLBKWJUWOVPLSEO9H3","A2T8U68Y44GPVD","3P7RGTLO6EZ76AO3386R8ZK9IWWKAW","","null","<img src=""img/land3.png"" style=""width:200px;border:14px solid red;"">","null","","","","","","","","","",""
"","image-keyboard-response","271","118911","0.0-271.0","3W8CV64QJ3L4LLBKWJUWOVPLSEO9H3","A2T8U68Y44GPVD","3P7RGTLO6EZ76AO3386R8ZK9IWWKAW","","68","img/land2.png","74","69","1","0","1","2","0.8,0.2,0.2,0.2,0.8,0.2,0.2,0.2,0.8","0.2,0.8,0.2,0.2,0.2,0.8,0.8,0.2,0.2","3","",""
"","html-keyboard-response","272","119212","0.0-272.0","3W8CV64QJ3L4LLBKWJUWOVPLSEO9H3","A2T8U68Y44GPVD","3P7RGTLO6EZ76AO3386R8ZK9IWWKAW","","null","<img src=""img/land2.png"" style=""width:200px;border:14px solid red;"">","null","","","","","","","","","",""
"","image-keyboard-response","273","119288","0.0-273.0","3W8CV64QJ3L4LLBKWJUWOVPLSEO9H3","A2T8U68Y44GPVD","3P7RGTLO6EZ76AO3386R8ZK9IWWKAW","","75","img/land3.png","74","76","1","0","2","2","0.8,0.2,0.2,0.2,0.8,0.2,0.2,0.2,0.8","0.2,0.8,0.2,0.2,0.2,0.8,0.8,0.2,0.2","3","",""
"","html-keyboard-response","274","119652","0.0-274.0","3W8CV64QJ3L4LLBKWJUWOVPLSEO9H3","A2T8U68Y44GPVD","3P7RGTLO6EZ76AO3386R8ZK9IWWKAW","","null","<img src=""img/land3.png"" style=""width:200px;border:14px solid red;"">","null","","","","","","","","","",""
"","image-keyboard-response","275","119762","0.0-275.0","3W8CV64QJ3L4LLBKWJUWOVPLSEO9H3","A2T8U68Y44GPVD","3P7RGTLO6EZ76AO3386R8ZK9IWWKAW","","109","img/land2.png","74","110","1","1","1","2","0.8,0.2,0.2,0.2,0.8,0.2,0.2,0.2,0.8","0.2,0.8,0.2,0.2,0.2,0.8,0.8,0.2,0.2","3","",""
"","html-keyboard-response","276","120063","0.0-276.0","3W8CV64QJ3L4LLBKWJUWOVPLSEO9H3","A2T8U68Y44GPVD","3P7RGTLO6EZ76AO3386R8ZK9IWWKAW","","null","<img src=""img/land2.png"" style=""width:200px; border:14px solid green;"">","null","","","","","","","","","",""
"","image-keyboard-response","277","120111","0.0-277.0","3W8CV64QJ3L4LLBKWJUWOVPLSEO9H3","A2T8U68Y44GPVD","3P7RGTLO6EZ76AO3386R8ZK9IWWKAW","","47","img/land2.png","74","48","1","1","1","2","0.8,0.2,0.2,0.2,0.8,0.2,0.2,0.2,0.8","0.2,0.8,0.2,0.2,0.2,0.8,0.8,0.2,0.2","3","",""
"","html-keyboard-response","278","120412","0.0-278.0","3W8CV64QJ3L4LLBKWJUWOVPLSEO9H3","A2T8U68Y44GPVD","3P7RGTLO6EZ76AO3386R8ZK9IWWKAW","","null","<img src=""img/land2.png"" style=""width:200px; border:14px solid green;"">","null","","","","","","","","","",""
"","image-keyboard-response","279","120527","0.0-279.0","3W8CV64QJ3L4LLBKWJUWOVPLSEO9H3","A2T8U68Y44GPVD","3P7RGTLO6EZ76AO3386R8ZK9IWWKAW","","114","img/land2.png","74","115","1","1","1","2","0.8,0.2,0.2,0.2,0.8,0.2,0.2,0.2,0.8","0.2,0.8,0.2,0.2,0.2,0.8,0.8,0.2,0.2","3","",""
"","html-keyboard-response","280","120829","0.0-280.0","3W8CV64QJ3L4LLBKWJUWOVPLSEO9H3","A2T8U68Y44GPVD","3P7RGTLO6EZ76AO3386R8ZK9IWWKAW","","null","<img src=""img/land2.png"" style=""width:200px; border:14px solid green;"">","null","","","","","","","","","",""
"","image-keyboard-response","281","121009","0.0-281.0","3W8CV64QJ3L4LLBKWJUWOVPLSEO9H3","A2T8U68Y44GPVD","3P7RGTLO6EZ76AO3386R8ZK9IWWKAW","","179","img/land6.png","74","180","1","1","3","2","0.8,0.2,0.2,0.2,0.8,0.2,0.2,0.2,0.8","0.2,0.8,0.2,0.2,0.2,0.8,0.8,0.2,0.2","3","",""
"","html-keyboard-response","282","121310","0.0-282.0","3W8CV64QJ3L4LLBKWJUWOVPLSEO9H3","A2T8U68Y44GPVD","3P7RGTLO6EZ76AO3386R8ZK9IWWKAW","","null","<img src=""img/land6.png"" style=""width:200px; border:14px solid green;"">","null","","","","","","","","","",""
"","image-keyboard-response","283","121431","0.0-283.0","3W8CV64QJ3L4LLBKWJUWOVPLSEO9H3","A2T8U68Y44GPVD","3P7RGTLO6EZ76AO3386R8ZK9IWWKAW","","120","img/land6.png","74","121","1","1","3","2","0.8,0.2,0.2,0.2,0.8,0.2,0.2,0.2,0.8","0.2,0.8,0.2,0.2,0.2,0.8,0.8,0.2,0.2","3","",""
"","html-keyboard-response","284","121732","0.0-284.0","3W8CV64QJ3L4LLBKWJUWOVPLSEO9H3","A2T8U68Y44GPVD","3P7RGTLO6EZ76AO3386R8ZK9IWWKAW","","null","<img src=""img/land6.png"" style=""width:200px; border:14px solid green;"">","null","","","","","","","","","",""
"","image-keyboard-response","285","121751","0.0-285.0","3W8CV64QJ3L4LLBKWJUWOVPLSEO9H3","A2T8U68Y44GPVD","3P7RGTLO6EZ76AO3386R8ZK9IWWKAW","","18","img/land6.png","74","19","1","1","3","2","0.8,0.2,0.2,0.2,0.8,0.2,0.2,0.2,0.8","0.2,0.8,0.2,0.2,0.2,0.8,0.8,0.2,0.2","3","",""
"","html-keyboard-response","286","122052","0.0-286.0","3W8CV64QJ3L4LLBKWJUWOVPLSEO9H3","A2T8U68Y44GPVD","3P7RGTLO6EZ76AO3386R8ZK9IWWKAW","","null","<img src=""img/land6.png"" style=""width:200px; border:14px solid green;"">","null","","","","","","","","","",""
"","image-keyboard-response","287","122192","0.0-287.0","3W8CV64QJ3L4LLBKWJUWOVPLSEO9H3","A2T8U68Y44GPVD","3P7RGTLO6EZ76AO3386R8ZK9IWWKAW","","140","img/land6.png","74","140","1","1","3","2","0.8,0.2,0.2,0.2,0.8,0.2,0.2,0.2,0.8","0.2,0.8,0.2,0.2,0.2,0.8,0.8,0.2,0.2","3","",""
"","html-keyboard-response","288","122493","0.0-288.0","3W8CV64QJ3L4LLBKWJUWOVPLSEO9H3","A2T8U68Y44GPVD","3P7RGTLO6EZ76AO3386R8ZK9IWWKAW","","null","<img src=""img/land6.png"" style=""width:200px; border:14px solid green;"">","null","","","","","","","","","",""
"","image-keyboard-response","289","122551","0.0-289.0","3W8CV64QJ3L4LLBKWJUWOVPLSEO9H3","A2T8U68Y44GPVD","3P7RGTLO6EZ76AO3386R8ZK9IWWKAW","","57","img/land2.png","74","58","1","0","1","2","0.8,0.2,0.2,0.2,0.8,0.2,0.2,0.2,0.8","0.2,0.8,0.2,0.2,0.2,0.8,0.8,0.2,0.2","3","",""
"","html-keyboard-response","290","122853","0.0-290.0","3W8CV64QJ3L4LLBKWJUWOVPLSEO9H3","A2T8U68Y44GPVD","3P7RGTLO6EZ76AO3386R8ZK9IWWKAW","","null","<img src=""img/land2.png"" style=""width:200px;border:14px solid red;"">","null","","","","","","","","","",""
"","image-keyboard-response","291","123048","0.0-291.0","3W8CV64QJ3L4LLBKWJUWOVPLSEO9H3","A2T8U68Y44GPVD","3P7RGTLO6EZ76AO3386R8ZK9IWWKAW","","195","img/land6.png","74","195","1","1","3","2","0.8,0.2,0.2,0.2,0.8,0.2,0.2,0.2,0.8","0.2,0.8,0.2,0.2,0.2,0.8,0.8,0.2,0.2","3","",""
"","html-keyboard-response","292","123350","0.0-292.0","3W8CV64QJ3L4LLBKWJUWOVPLSEO9H3","A2T8U68Y44GPVD","3P7RGTLO6EZ76AO3386R8ZK9IWWKAW","","null","<img src=""img/land6.png"" style=""width:200px; border:14px solid green;"">","null","","","","","","","","","",""
"","image-keyboard-response","293","123448","0.0-293.0","3W8CV64QJ3L4LLBKWJUWOVPLSEO9H3","A2T8U68Y44GPVD","3P7RGTLO6EZ76AO3386R8ZK9IWWKAW","","97","img/land3.png","74","98","1","0","2","2","0.8,0.2,0.2,0.2,0.8,0.2,0.2,0.2,0.8","0.2,0.8,0.2,0.2,0.2,0.8,0.8,0.2,0.2","3","",""
"","html-keyboard-response","294","123835","0.0-294.0","3W8CV64QJ3L4LLBKWJUWOVPLSEO9H3","A2T8U68Y44GPVD","3P7RGTLO6EZ76AO3386R8ZK9IWWKAW","","null","<img src=""img/land3.png"" style=""width:200px;border:14px solid red;"">","null","","","","","","","","","",""
"","image-keyboard-response","295","123845","0.0-295.0","3W8CV64QJ3L4LLBKWJUWOVPLSEO9H3","A2T8U68Y44GPVD","3P7RGTLO6EZ76AO3386R8ZK9IWWKAW","","9","img/land2.png","76","10","3","1","1","2","0.8,0.2,0.2,0.2,0.8,0.2,0.2,0.2,0.8","0.2,0.8,0.2,0.2,0.2,0.8,0.8,0.2,0.2","3","",""
"","html-keyboard-response","296","124145","0.0-296.0","3W8CV64QJ3L4LLBKWJUWOVPLSEO9H3","A2T8U68Y44GPVD","3P7RGTLO6EZ76AO3386R8ZK9IWWKAW","","null","<img src=""img/land2.png"" style=""width:200px; border:14px solid green;"">","null","","","","","","","","","",""
"","image-keyboard-response","297","124377","0.0-297.0","3W8CV64QJ3L4LLBKWJUWOVPLSEO9H3","A2T8U68Y44GPVD","3P7RGTLO6EZ76AO3386R8ZK9IWWKAW","","231","img/land6.png","74","231","1","1","3","2","0.8,0.2,0.2,0.2,0.8,0.2,0.2,0.2,0.8","0.2,0.8,0.2,0.2,0.2,0.8,0.8,0.2,0.2","3","",""
"","html-keyboard-response","298","124677","0.0-298.0","3W8CV64QJ3L4LLBKWJUWOVPLSEO9H3","A2T8U68Y44GPVD","3P7RGTLO6EZ76AO3386R8ZK9IWWKAW","","null","<img src=""img/land6.png"" style=""width:200px; border:14px solid green;"">","null","","","","","","","","","",""
"","image-keyboard-response","299","124815","0.0-299.0","3W8CV64QJ3L4LLBKWJUWOVPLSEO9H3","A2T8U68Y44GPVD","3P7RGTLO6EZ76AO3386R8ZK9IWWKAW","","137","img/land6.png","74","138","1","1","3","2","0.8,0.2,0.2,0.2,0.8,0.2,0.2,0.2,0.8","0.2,0.8,0.2,0.2,0.2,0.8,0.8,0.2,0.2","3","",""
"","html-keyboard-response","300","125116","0.0-300.0","3W8CV64QJ3L4LLBKWJUWOVPLSEO9H3","A2T8U68Y44GPVD","3P7RGTLO6EZ76AO3386R8ZK9IWWKAW","","null","<img src=""img/land6.png"" style=""width:200px; border:14px solid green;"">","null","","","","","","","","","",""
"","image-keyboard-response","301","125259","0.0-301.0","3W8CV64QJ3L4LLBKWJUWOVPLSEO9H3","A2T8U68Y44GPVD","3P7RGTLO6EZ76AO3386R8ZK9IWWKAW","","141","img/land2.png","74","143","1","0","1","2","0.8,0.2,0.2,0.2,0.8,0.2,0.2,0.2,0.8","0.2,0.8,0.2,0.2,0.2,0.8,0.8,0.2,0.2","3","",""
"","html-keyboard-response","302","125559","0.0-302.0","3W8CV64QJ3L4LLBKWJUWOVPLSEO9H3","A2T8U68Y44GPVD","3P7RGTLO6EZ76AO3386R8ZK9IWWKAW","","null","<img src=""img/land2.png"" style=""width:200px;border:14px solid red;"">","null","","","","","","","","","",""
"","image-keyboard-response","303","125640","0.0-303.0","3W8CV64QJ3L4LLBKWJUWOVPLSEO9H3","A2T8U68Y44GPVD","3P7RGTLO6EZ76AO3386R8ZK9IWWKAW","","79","img/land6.png","74","81","1","1","3","2","0.8,0.2,0.2,0.2,0.8,0.2,0.2,0.2,0.8","0.2,0.8,0.2,0.2,0.2,0.8,0.8,0.2,0.2","3","",""
"","html-keyboard-response","304","125940","0.0-304.0","3W8CV64QJ3L4LLBKWJUWOVPLSEO9H3","A2T8U68Y44GPVD","3P7RGTLO6EZ76AO3386R8ZK9IWWKAW","","null","<img src=""img/land6.png"" style=""width:200px; border:14px solid green;"">","null","","","","","","","","","",""
"","image-keyboard-response","305","126063","0.0-305.0","3W8CV64QJ3L4LLBKWJUWOVPLSEO9H3","A2T8U68Y44GPVD","3P7RGTLO6EZ76AO3386R8ZK9IWWKAW","","122","img/land2.png","75","123","2","1","1","2","0.8,0.2,0.2,0.2,0.8,0.2,0.2,0.2,0.8","0.2,0.8,0.2,0.2,0.2,0.8,0.8,0.2,0.2","3","",""
"","html-keyboard-response","306","126364","0.0-306.0","3W8CV64QJ3L4LLBKWJUWOVPLSEO9H3","A2T8U68Y44GPVD","3P7RGTLO6EZ76AO3386R8ZK9IWWKAW","","null","<img src=""img/land2.png"" style=""width:200px; border:14px solid green;"">","null","","","","","","","","","",""
"","image-keyboard-response","307","126399","0.0-307.0","3W8CV64QJ3L4LLBKWJUWOVPLSEO9H3","A2T8U68Y44GPVD","3P7RGTLO6EZ76AO3386R8ZK9IWWKAW","","34","img/land2.png","74","35","1","0","1","2","0.8,0.2,0.2,0.2,0.8,0.2,0.2,0.2,0.8","0.2,0.8,0.2,0.2,0.2,0.8,0.8,0.2,0.2","3","",""
"","html-keyboard-response","308","126701","0.0-308.0","3W8CV64QJ3L4LLBKWJUWOVPLSEO9H3","A2T8U68Y44GPVD","3P7RGTLO6EZ76AO3386R8ZK9IWWKAW","","null","<img src=""img/land2.png"" style=""width:200px;border:14px solid red;"">","null","","","","","","","","","",""
"","image-keyboard-response","309","126872","0.0-309.0","3W8CV64QJ3L4LLBKWJUWOVPLSEO9H3","A2T8U68Y44GPVD","3P7RGTLO6EZ76AO3386R8ZK9IWWKAW","","169","img/land6.png","74","171","1","0","3","2","0.8,0.2,0.2,0.2,0.8,0.2,0.2,0.2,0.8","0.2,0.8,0.2,0.2,0.2,0.8,0.8,0.2,0.2","3","",""
"","html-keyboard-response","310","127172","0.0-310.0","3W8CV64QJ3L4LLBKWJUWOVPLSEO9H3","A2T8U68Y44GPVD","3P7RGTLO6EZ76AO3386R8ZK9IWWKAW","","null","<img src=""img/land6.png"" style=""width:200px;border:14px solid red;"">","null","","","","","","","","","",""
"","image-keyboard-response","311","127240","0.0-311.0","3W8CV64QJ3L4LLBKWJUWOVPLSEO9H3","A2T8U68Y44GPVD","3P7RGTLO6EZ76AO3386R8ZK9IWWKAW","","67","img/land2.png","74","68","1","1","1","2","0.8,0.2,0.2,0.2,0.8,0.2,0.2,0.2,0.8","0.2,0.8,0.2,0.2,0.2,0.8,0.8,0.2,0.2","3","",""
"","html-keyboard-response","312","127541","0.0-312.0","3W8CV64QJ3L4LLBKWJUWOVPLSEO9H3","A2T8U68Y44GPVD","3P7RGTLO6EZ76AO3386R8ZK9IWWKAW","","null","<img src=""img/land2.png"" style=""width:200px; border:14px solid green;"">","null","","","","","","","","","",""
"","image-keyboard-response","313","127848","0.0-313.0","3W8CV64QJ3L4LLBKWJUWOVPLSEO9H3","A2T8U68Y44GPVD","3P7RGTLO6EZ76AO3386R8ZK9IWWKAW","","302","img/land2.png","74","306","1","0","1","2","0.8,0.2,0.2,0.2,0.8,0.2,0.2,0.2,0.8","0.2,0.8,0.2,0.2,0.2,0.8,0.8,0.2,0.2","3","",""
"","html-keyboard-response","314","128150","0.0-314.0","3W8CV64QJ3L4LLBKWJUWOVPLSEO9H3","A2T8U68Y44GPVD","3P7RGTLO6EZ76AO3386R8ZK9IWWKAW","","null","<img src=""img/land2.png"" style=""width:200px;border:14px solid red;"">","null","","","","","","","","","",""
"","image-keyboard-response","315","128304","0.0-315.0","3W8CV64QJ3L4LLBKWJUWOVPLSEO9H3","A2T8U68Y44GPVD","3P7RGTLO6EZ76AO3386R8ZK9IWWKAW","","153","img/land2.png","76","154","3","0","1","2","0.8,0.2,0.2,0.2,0.8,0.2,0.2,0.2,0.8","0.2,0.8,0.2,0.2,0.2,0.8,0.8,0.2,0.2","3","",""
"","html-keyboard-response","316","128606","0.0-316.0","3W8CV64QJ3L4LLBKWJUWOVPLSEO9H3","A2T8U68Y44GPVD","3P7RGTLO6EZ76AO3386R8ZK9IWWKAW","","null","<img src=""img/land2.png"" style=""width:200px;border:14px solid red;"">","null","","","","","","","","","",""
"","image-keyboard-response","317","128664","0.0-317.0","3W8CV64QJ3L4LLBKWJUWOVPLSEO9H3","A2T8U68Y44GPVD","3P7RGTLO6EZ76AO3386R8ZK9IWWKAW","","58","img/land6.png","76","58","3","0","3","2","0.8,0.2,0.2,0.2,0.8,0.2,0.2,0.2,0.8","0.2,0.8,0.2,0.2,0.2,0.8,0.8,0.2,0.2","3","",""
"","html-keyboard-response","318","128968","0.0-318.0","3W8CV64QJ3L4LLBKWJUWOVPLSEO9H3","A2T8U68Y44GPVD","3P7RGTLO6EZ76AO3386R8ZK9IWWKAW","","null","<img src=""img/land6.png"" style=""width:200px;border:14px solid red;"">","null","","","","","","","","","",""
"","image-keyboard-response","319","129040","0.0-319.0","3W8CV64QJ3L4LLBKWJUWOVPLSEO9H3","A2T8U68Y44GPVD","3P7RGTLO6EZ76AO3386R8ZK9IWWKAW","","71","img/land2.png","75","72","2","1","1","2","0.8,0.2,0.2,0.2,0.8,0.2,0.2,0.2,0.8","0.2,0.8,0.2,0.2,0.2,0.8,0.8,0.2,0.2","3","",""
"","html-keyboard-response","320","129342","0.0-320.0","3W8CV64QJ3L4LLBKWJUWOVPLSEO9H3","A2T8U68Y44GPVD","3P7RGTLO6EZ76AO3386R8ZK9IWWKAW","","null","<img src=""img/land2.png"" style=""width:200px; border:14px solid green;"">","null","","","","","","","","","",""
"","image-keyboard-response","321","129377","0.0-321.0","3W8CV64QJ3L4LLBKWJUWOVPLSEO9H3","A2T8U68Y44GPVD","3P7RGTLO6EZ76AO3386R8ZK9IWWKAW","","35","img/land2.png","74","35","1","0","1","2","0.8,0.2,0.2,0.2,0.8,0.2,0.2,0.2,0.8","0.2,0.8,0.2,0.2,0.2,0.8,0.8,0.2,0.2","3","",""
"","html-keyboard-response","322","129721","0.0-322.0","3W8CV64QJ3L4LLBKWJUWOVPLSEO9H3","A2T8U68Y44GPVD","3P7RGTLO6EZ76AO3386R8ZK9IWWKAW","","null","<img src=""img/land2.png"" style=""width:200px;border:14px solid red;"">","null","","","","","","","","","",""
"","image-keyboard-response","323","129808","0.0-323.0","3W8CV64QJ3L4LLBKWJUWOVPLSEO9H3","A2T8U68Y44GPVD","3P7RGTLO6EZ76AO3386R8ZK9IWWKAW","","87","img/land2.png","74","87","1","0","1","2","0.8,0.2,0.2,0.2,0.8,0.2,0.2,0.2,0.8","0.2,0.8,0.2,0.2,0.2,0.8,0.8,0.2,0.2","3","",""
"","html-keyboard-response","324","130109","0.0-324.0","3W8CV64QJ3L4LLBKWJUWOVPLSEO9H3","A2T8U68Y44GPVD","3P7RGTLO6EZ76AO3386R8ZK9IWWKAW","","null","<img src=""img/land2.png"" style=""width:200px;border:14px solid red;"">","null","","","","","","","","","",""
"","image-keyboard-response","325","130216","0.0-325.0","3W8CV64QJ3L4LLBKWJUWOVPLSEO9H3","A2T8U68Y44GPVD","3P7RGTLO6EZ76AO3386R8ZK9IWWKAW","","106","img/land2.png","74","108","1","0","1","2","0.8,0.2,0.2,0.2,0.8,0.2,0.2,0.2,0.8","0.2,0.8,0.2,0.2,0.2,0.8,0.8,0.2,0.2","3","",""
"","html-keyboard-response","326","130518","0.0-326.0","3W8CV64QJ3L4LLBKWJUWOVPLSEO9H3","A2T8U68Y44GPVD","3P7RGTLO6EZ76AO3386R8ZK9IWWKAW","","null","<img src=""img/land2.png"" style=""width:200px;border:14px solid red;"">","null","","","","","","","","","",""
"","image-keyboard-response","327","130657","0.0-327.0","3W8CV64QJ3L4LLBKWJUWOVPLSEO9H3","A2T8U68Y44GPVD","3P7RGTLO6EZ76AO3386R8ZK9IWWKAW","","138","img/land3.png","74","139","1","0","2","2","0.8,0.2,0.2,0.2,0.8,0.2,0.2,0.2,0.8","0.2,0.8,0.2,0.2,0.2,0.8,0.8,0.2,0.2","3","",""
"","html-keyboard-response","328","130958","0.0-328.0","3W8CV64QJ3L4LLBKWJUWOVPLSEO9H3","A2T8U68Y44GPVD","3P7RGTLO6EZ76AO3386R8ZK9IWWKAW","","null","<img src=""img/land3.png"" style=""width:200px;border:14px solid red;"">","null","","","","","","","","","",""
"","image-keyboard-response","329","131049","0.0-329.0","3W8CV64QJ3L4LLBKWJUWOVPLSEO9H3","A2T8U68Y44GPVD","3P7RGTLO6EZ76AO3386R8ZK9IWWKAW","","89","img/land6.png","74","91","1","0","3","2","0.8,0.2,0.2,0.2,0.8,0.2,0.2,0.2,0.8","0.2,0.8,0.2,0.2,0.2,0.8,0.8,0.2,0.2","3","",""
"","html-keyboard-response","330","131386","0.0-330.0","3W8CV64QJ3L4LLBKWJUWOVPLSEO9H3","A2T8U68Y44GPVD","3P7RGTLO6EZ76AO3386R8ZK9IWWKAW","","null","<img src=""img/land6.png"" style=""width:200px;border:14px solid red;"">","null","","","","","","","","","",""
"","image-keyboard-response","331","131534","0.0-331.0","3W8CV64QJ3L4LLBKWJUWOVPLSEO9H3","A2T8U68Y44GPVD","3P7RGTLO6EZ76AO3386R8ZK9IWWKAW","","147","img/land3.png","74","148","1","0","2","2","0.8,0.2,0.2,0.2,0.8,0.2,0.2,0.2,0.8","0.2,0.8,0.2,0.2,0.2,0.8,0.8,0.2,0.2","3","",""
"","html-keyboard-response","332","131836","0.0-332.0","3W8CV64QJ3L4LLBKWJUWOVPLSEO9H3","A2T8U68Y44GPVD","3P7RGTLO6EZ76AO3386R8ZK9IWWKAW","","null","<img src=""img/land3.png"" style=""width:200px;border:14px solid red;"">","null","","","","","","","","","",""
"","image-keyboard-response","333","131920","0.0-333.0","3W8CV64QJ3L4LLBKWJUWOVPLSEO9H3","A2T8U68Y44GPVD","3P7RGTLO6EZ76AO3386R8ZK9IWWKAW","","83","img/land2.png","74","85","1","0","1","2","0.8,0.2,0.2,0.2,0.8,0.2,0.2,0.2,0.8","0.2,0.8,0.2,0.2,0.2,0.8,0.8,0.2,0.2","3","",""
"","html-keyboard-response","334","132221","0.0-334.0","3W8CV64QJ3L4LLBKWJUWOVPLSEO9H3","A2T8U68Y44GPVD","3P7RGTLO6EZ76AO3386R8ZK9IWWKAW","","null","<img src=""img/land2.png"" style=""width:200px;border:14px solid red;"">","null","","","","","","","","","",""
"","image-keyboard-response","335","132304","0.0-335.0","3W8CV64QJ3L4LLBKWJUWOVPLSEO9H3","A2T8U68Y44GPVD","3P7RGTLO6EZ76AO3386R8ZK9IWWKAW","","82","img/land6.png","75","83","2","0","3","2","0.8,0.2,0.2,0.2,0.8,0.2,0.2,0.2,0.8","0.2,0.8,0.2,0.2,0.2,0.8,0.8,0.2,0.2","3","",""
"","html-keyboard-response","336","132605","0.0-336.0","3W8CV64QJ3L4LLBKWJUWOVPLSEO9H3","A2T8U68Y44GPVD","3P7RGTLO6EZ76AO3386R8ZK9IWWKAW","","null","<img src=""img/land6.png"" style=""width:200px;border:14px solid red;"">","null","","","","","","","","","",""
"","image-keyboard-response","337","132697","0.0-337.0","3W8CV64QJ3L4LLBKWJUWOVPLSEO9H3","A2T8U68Y44GPVD","3P7RGTLO6EZ76AO3386R8ZK9IWWKAW","","90","img/land3.png","74","92","1","0","2","2","0.8,0.2,0.2,0.2,0.8,0.2,0.2,0.2,0.8","0.2,0.8,0.2,0.2,0.2,0.8,0.8,0.2,0.2","3","",""
"","html-keyboard-response","338","132997","0.0-338.0","3W8CV64QJ3L4LLBKWJUWOVPLSEO9H3","A2T8U68Y44GPVD","3P7RGTLO6EZ76AO3386R8ZK9IWWKAW","","null","<img src=""img/land3.png"" style=""width:200px;border:14px solid red;"">","null","","","","","","","","","",""
"","image-keyboard-response","339","133121","0.0-339.0","3W8CV64QJ3L4LLBKWJUWOVPLSEO9H3","A2T8U68Y44GPVD","3P7RGTLO6EZ76AO3386R8ZK9IWWKAW","","123","img/land2.png","74","124","1","0","1","2","0.8,0.2,0.2,0.2,0.8,0.2,0.2,0.2,0.8","0.2,0.8,0.2,0.2,0.2,0.8,0.8,0.2,0.2","3","",""
"","html-keyboard-response","340","133422","0.0-340.0","3W8CV64QJ3L4LLBKWJUWOVPLSEO9H3","A2T8U68Y44GPVD","3P7RGTLO6EZ76AO3386R8ZK9IWWKAW","","null","<img src=""img/land2.png"" style=""width:200px;border:14px solid red;"">","null","","","","","","","","","",""
"","image-keyboard-response","341","133585","0.0-341.0","3W8CV64QJ3L4LLBKWJUWOVPLSEO9H3","A2T8U68Y44GPVD","3P7RGTLO6EZ76AO3386R8ZK9IWWKAW","","163","img/land2.png","75","163","2","1","1","2","0.8,0.2,0.2,0.2,0.8,0.2,0.2,0.2,0.8","0.2,0.8,0.2,0.2,0.2,0.8,0.8,0.2,0.2","3","",""
"","html-keyboard-response","342","133942","0.0-342.0","3W8CV64QJ3L4LLBKWJUWOVPLSEO9H3","A2T8U68Y44GPVD","3P7RGTLO6EZ76AO3386R8ZK9IWWKAW","","null","<img src=""img/land2.png"" style=""width:200px; border:14px solid green;"">","null","","","","","","","","","",""
"","image-keyboard-response","343","133978","0.0-343.0","3W8CV64QJ3L4LLBKWJUWOVPLSEO9H3","A2T8U68Y44GPVD","3P7RGTLO6EZ76AO3386R8ZK9IWWKAW","","35","img/land6.png","76","37","3","0","3","2","0.8,0.2,0.2,0.2,0.8,0.2,0.2,0.2,0.8","0.2,0.8,0.2,0.2,0.2,0.8,0.8,0.2,0.2","3","",""
"","html-keyboard-response","344","134282","0.0-344.0","3W8CV64QJ3L4LLBKWJUWOVPLSEO9H3","A2T8U68Y44GPVD","3P7RGTLO6EZ76AO3386R8ZK9IWWKAW","","null","<img src=""img/land6.png"" style=""width:200px;border:14px solid red;"">","null","","","","","","","","","",""
"","image-keyboard-response","345","134465","0.0-345.0","3W8CV64QJ3L4LLBKWJUWOVPLSEO9H3","A2T8U68Y44GPVD","3P7RGTLO6EZ76AO3386R8ZK9IWWKAW","","182","img/land3.png","74","182","1","0","2","2","0.8,0.2,0.2,0.2,0.8,0.2,0.2,0.2,0.8","0.2,0.8,0.2,0.2,0.2,0.8,0.8,0.2,0.2","3","",""
"","html-keyboard-response","346","134770","0.0-346.0","3W8CV64QJ3L4LLBKWJUWOVPLSEO9H3","A2T8U68Y44GPVD","3P7RGTLO6EZ76AO3386R8ZK9IWWKAW","","null","<img src=""img/land3.png"" style=""width:200px;border:14px solid red;"">","null","","","","","","","","","",""
"","image-keyboard-response","347","134784","0.0-347.0","3W8CV64QJ3L4LLBKWJUWOVPLSEO9H3","A2T8U68Y44GPVD","3P7RGTLO6EZ76AO3386R8ZK9IWWKAW","","13","img/land2.png","76","13","3","0","1","2","0.8,0.2,0.2,0.2,0.8,0.2,0.2,0.2,0.8","0.2,0.8,0.2,0.2,0.2,0.8,0.8,0.2,0.2","3","",""
"","html-keyboard-response","348","135088","0.0-348.0","3W8CV64QJ3L4LLBKWJUWOVPLSEO9H3","A2T8U68Y44GPVD","3P7RGTLO6EZ76AO3386R8ZK9IWWKAW","","null","<img src=""img/land2.png"" style=""width:200px;border:14px solid red;"">","null","","","","","","","","","",""
"","image-keyboard-response","349","135105","0.0-349.0","3W8CV64QJ3L4LLBKWJUWOVPLSEO9H3","A2T8U68Y44GPVD","3P7RGTLO6EZ76AO3386R8ZK9IWWKAW","","16","img/land3.png","76","16","3","1","2","2","0.8,0.2,0.2,0.2,0.8,0.2,0.2,0.2,0.8","0.2,0.8,0.2,0.2,0.2,0.8,0.8,0.2,0.2","3","",""
"","html-keyboard-response","350","135407","0.0-350.0","3W8CV64QJ3L4LLBKWJUWOVPLSEO9H3","A2T8U68Y44GPVD","3P7RGTLO6EZ76AO3386R8ZK9IWWKAW","","null","<img src=""img/land3.png"" style=""width:200px; border:14px solid green;"">","null","","","","","","","","","",""
"","image-keyboard-response","351","135790","0.0-351.0","3W8CV64QJ3L4LLBKWJUWOVPLSEO9H3","A2T8U68Y44GPVD","3P7RGTLO6EZ76AO3386R8ZK9IWWKAW","","382","img/land3.png","74","383","1","0","2","2","0.8,0.2,0.2,0.2,0.8,0.2,0.2,0.2,0.8","0.2,0.8,0.2,0.2,0.2,0.8,0.8,0.2,0.2","3","",""
"","html-keyboard-response","352","136091","0.0-352.0","3W8CV64QJ3L4LLBKWJUWOVPLSEO9H3","A2T8U68Y44GPVD","3P7RGTLO6EZ76AO3386R8ZK9IWWKAW","","null","<img src=""img/land3.png"" style=""width:200px;border:14px solid red;"">","null","","","","","","","","","",""
"","image-keyboard-response","353","136148","0.0-353.0","3W8CV64QJ3L4LLBKWJUWOVPLSEO9H3","A2T8U68Y44GPVD","3P7RGTLO6EZ76AO3386R8ZK9IWWKAW","","56","img/land2.png","74","58","1","0","1","2","0.8,0.2,0.2,0.2,0.8,0.2,0.2,0.2,0.8","0.2,0.8,0.2,0.2,0.2,0.8,0.8,0.2,0.2","3","",""
"","html-keyboard-response","354","136451","0.0-354.0","3W8CV64QJ3L4LLBKWJUWOVPLSEO9H3","A2T8U68Y44GPVD","3P7RGTLO6EZ76AO3386R8ZK9IWWKAW","","null","<img src=""img/land2.png"" style=""width:200px;border:14px solid red;"">","null","","","","","","","","","",""
"","image-keyboard-response","355","136465","0.0-355.0","3W8CV64QJ3L4LLBKWJUWOVPLSEO9H3","A2T8U68Y44GPVD","3P7RGTLO6EZ76AO3386R8ZK9IWWKAW","","13","img/land2.png","74","14","1","0","1","2","0.8,0.2,0.2,0.2,0.8,0.2,0.2,0.2,0.8","0.2,0.8,0.2,0.2,0.2,0.8,0.8,0.2,0.2","3","",""
"","html-keyboard-response","356","136766","0.0-356.0","3W8CV64QJ3L4LLBKWJUWOVPLSEO9H3","A2T8U68Y44GPVD","3P7RGTLO6EZ76AO3386R8ZK9IWWKAW","","null","<img src=""img/land2.png"" style=""width:200px;border:14px solid red;"">","null","","","","","","","","","",""
"","image-keyboard-response","357","136856","0.0-357.0","3W8CV64QJ3L4LLBKWJUWOVPLSEO9H3","A2T8U68Y44GPVD","3P7RGTLO6EZ76AO3386R8ZK9IWWKAW","","89","img/land2.png","76","90","3","0","1","2","0.8,0.2,0.2,0.2,0.8,0.2,0.2,0.2,0.8","0.2,0.8,0.2,0.2,0.2,0.8,0.8,0.2,0.2","3","",""
"","html-keyboard-response","358","137157","0.0-358.0","3W8CV64QJ3L4LLBKWJUWOVPLSEO9H3","A2T8U68Y44GPVD","3P7RGTLO6EZ76AO3386R8ZK9IWWKAW","","null","<img src=""img/land2.png"" style=""width:200px;border:14px solid red;"">","null","","","","","","","","","",""
"","image-keyboard-response","359","137217","0.0-359.0","3W8CV64QJ3L4LLBKWJUWOVPLSEO9H3","A2T8U68Y44GPVD","3P7RGTLO6EZ76AO3386R8ZK9IWWKAW","","58","img/land2.png","76","60","3","0","1","2","0.8,0.2,0.2,0.2,0.8,0.2,0.2,0.2,0.8","0.2,0.8,0.2,0.2,0.2,0.8,0.8,0.2,0.2","3","",""
"","html-keyboard-response","360","137518","0.0-360.0","3W8CV64QJ3L4LLBKWJUWOVPLSEO9H3","A2T8U68Y44GPVD","3P7RGTLO6EZ76AO3386R8ZK9IWWKAW","","null","<img src=""img/land2.png"" style=""width:200px;border:14px solid red;"">","null","","","","","","","","","",""
"","image-keyboard-response","361","137528","0.0-361.0","3W8CV64QJ3L4LLBKWJUWOVPLSEO9H3","A2T8U68Y44GPVD","3P7RGTLO6EZ76AO3386R8ZK9IWWKAW","","9","img/land2.png","75","11","2","1","1","2","0.8,0.2,0.2,0.2,0.8,0.2,0.2,0.2,0.8","0.2,0.8,0.2,0.2,0.2,0.8,0.8,0.2,0.2","3","",""
"","html-keyboard-response","362","138103","0.0-362.0","3W8CV64QJ3L4LLBKWJUWOVPLSEO9H3","A2T8U68Y44GPVD","3P7RGTLO6EZ76AO3386R8ZK9IWWKAW","","null","<img src=""img/land2.png"" style=""width:200px; border:14px solid green;"">","null","","","","","","","","","",""
"","image-keyboard-response","363","138133","0.0-363.0","3W8CV64QJ3L4LLBKWJUWOVPLSEO9H3","A2T8U68Y44GPVD","3P7RGTLO6EZ76AO3386R8ZK9IWWKAW","","30","img/land2.png","76","30","3","1","1","2","0.8,0.2,0.2,0.2,0.8,0.2,0.2,0.2,0.8","0.2,0.8,0.2,0.2,0.2,0.8,0.8,0.2,0.2","3","",""
"","html-keyboard-response","364","138434","0.0-364.0","3W8CV64QJ3L4LLBKWJUWOVPLSEO9H3","A2T8U68Y44GPVD","3P7RGTLO6EZ76AO3386R8ZK9IWWKAW","","null","<img src=""img/land2.png"" style=""width:200px; border:14px solid green;"">","null","","","","","","","","","",""
"","image-keyboard-response","365","138445","0.0-365.0","3W8CV64QJ3L4LLBKWJUWOVPLSEO9H3","A2T8U68Y44GPVD","3P7RGTLO6EZ76AO3386R8ZK9IWWKAW","","11","img/land2.png","75","11","2","1","1","2","0.8,0.2,0.2,0.2,0.8,0.2,0.2,0.2,0.8","0.2,0.8,0.2,0.2,0.2,0.8,0.8,0.2,0.2","3","",""
"","html-keyboard-response","366","138746","0.0-366.0","3W8CV64QJ3L4LLBKWJUWOVPLSEO9H3","A2T8U68Y44GPVD","3P7RGTLO6EZ76AO3386R8ZK9IWWKAW","","null","<img src=""img/land2.png"" style=""width:200px; border:14px solid green;"">","null","","","","","","","","","",""
"","image-keyboard-response","367","139026","0.0-367.0","3W8CV64QJ3L4LLBKWJUWOVPLSEO9H3","A2T8U68Y44GPVD","3P7RGTLO6EZ76AO3386R8ZK9IWWKAW","","279","img/land2.png","74","280","1","0","1","2","0.8,0.2,0.2,0.2,0.8,0.2,0.2,0.2,0.8","0.2,0.8,0.2,0.2,0.2,0.8,0.8,0.2,0.2","3","",""
"","html-keyboard-response","368","139327","0.0-368.0","3W8CV64QJ3L4LLBKWJUWOVPLSEO9H3","A2T8U68Y44GPVD","3P7RGTLO6EZ76AO3386R8ZK9IWWKAW","","null","<img src=""img/land2.png"" style=""width:200px;border:14px solid red;"">","null","","","","","","","","","",""
"","image-keyboard-response","369","139347","0.0-369.0","3W8CV64QJ3L4LLBKWJUWOVPLSEO9H3","A2T8U68Y44GPVD","3P7RGTLO6EZ76AO3386R8ZK9IWWKAW","","19","img/land2.png","76","20","3","0","1","2","0.8,0.2,0.2,0.2,0.8,0.2,0.2,0.2,0.8","0.2,0.8,0.2,0.2,0.2,0.8,0.8,0.2,0.2","3","",""
"","html-keyboard-response","370","139649","0.0-370.0","3W8CV64QJ3L4LLBKWJUWOVPLSEO9H3","A2T8U68Y44GPVD","3P7RGTLO6EZ76AO3386R8ZK9IWWKAW","","null","<img src=""img/land2.png"" style=""width:200px;border:14px solid red;"">","null","","","","","","","","","",""
"","image-keyboard-response","371","139672","0.0-371.0","3W8CV64QJ3L4LLBKWJUWOVPLSEO9H3","A2T8U68Y44GPVD","3P7RGTLO6EZ76AO3386R8ZK9IWWKAW","","22","img/land2.png","75","24","2","1","1","2","0.8,0.2,0.2,0.2,0.8,0.2,0.2,0.2,0.8","0.2,0.8,0.2,0.2,0.2,0.8,0.8,0.2,0.2","3","",""
