"success","trial_type","trial_index","time_elapsed","internal_node_id","assignmentID","mturkID","hitID","view_history","rt","stimulus","key_press","reactionTime","a","r","warning","s","reward_cond","responses","question_order"
"true","fullscreen","0","2493","0.0-0.0","3A1COHJ8NKH47GSARROIOZUA4TXH8F","A2TLN8489YGY81","3S829FDFT2NBOHQMM1CIOU0HZYXDXL","","","","","","","","","","","",""
"","instructions","1","34281","0.0-1.0","3A1COHJ8NKH47GSARROIOZUA4TXH8F","A2TLN8489YGY81","3S829FDFT2NBOHQMM1CIOU0HZYXDXL","[{""page_index"":0,""viewing_time"":11794.90000000596},{""page_index"":1,""viewing_time"":3876.6999999955297},{""page_index"":2,""viewing_time"":3255.7000000029802},{""page_index"":3,""viewing_time"":2397.10000000149},{""page_index"":4,""viewing_time"":5667.79999999702},{""page_index"":5,""viewing_time"":2495.89999999851},{""page_index"":6,""viewing_time"":1233.8000000044703},{""page_index"":7,""viewing_time"":1064.1999999955297}]","31787","","","","","","","","","",""
"","image-keyboard-response","2","35052","0.0-2.0","3A1COHJ8NKH47GSARROIOZUA4TXH8F","A2TLN8489YGY81","3S829FDFT2NBOHQMM1CIOU0HZYXDXL","","768.7000000029802","img/land9.png","74","770.1000000014901","1","1","false","2","0.8,0.8,0.2,0.2,0.8,0.8,0.8,0.2,0.8","",""
"","html-keyboard-response","3","35355","0.0-3.0","3A1COHJ8NKH47GSARROIOZUA4TXH8F","A2TLN8489YGY81","3S829FDFT2NBOHQMM1CIOU0HZYXDXL","","null","<img src=""img/land9.png"" style=""width:200px; border:14px solid green;"">","null","","","","","","","",""
"","image-keyboard-response","4","36058","0.0-5.0","3A1COHJ8NKH47GSARROIOZUA4TXH8F","A2TLN8489YGY81","3S829FDFT2NBOHQMM1CIOU0HZYXDXL","","702.3999999985099","img/land6.png","74","703.1999999955297","1","0","false","1","0.8,0.8,0.2,0.2,0.8,0.8,0.8,0.2,0.8","",""
"","html-keyboard-response","5","36361","0.0-6.0","3A1COHJ8NKH47GSARROIOZUA4TXH8F","A2TLN8489YGY81","3S829FDFT2NBOHQMM1CIOU0HZYXDXL","","null","<img src=""img/land6.png"" style=""width:200px;border:14px solid red;"">","null","","","","","","","",""
"","image-keyboard-response","6","37248","0.0-8.0","3A1COHJ8NKH47GSARROIOZUA4TXH8F","A2TLN8489YGY81","3S829FDFT2NBOHQMM1CIOU0HZYXDXL","","885.8000000044703","img/land9.png","75","886.8000000044703","2","1","false","2","0.8,0.8,0.2,0.2,0.8,0.8,0.8,0.2,0.8","",""
"","html-keyboard-response","7","37550","0.0-9.0","3A1COHJ8NKH47GSARROIOZUA4TXH8F","A2TLN8489YGY81","3S829FDFT2NBOHQMM1CIOU0HZYXDXL","","null","<img src=""img/land9.png"" style=""width:200px; border:14px solid green;"">","null","","","","","","","",""
"","image-keyboard-response","8","38552","0.0-11.0","3A1COHJ8NKH47GSARROIOZUA4TXH8F","A2TLN8489YGY81","3S829FDFT2NBOHQMM1CIOU0HZYXDXL","","","img/land8.png","","1001.9000000059605","-1","0","true","3","0.8,0.8,0.2,0.2,0.8,0.8,0.8,0.2,0.8","",""
"","html-keyboard-response","9","38854","0.0-12.0","3A1COHJ8NKH47GSARROIOZUA4TXH8F","A2TLN8489YGY81","3S829FDFT2NBOHQMM1CIOU0HZYXDXL","","null","<img src=""img/land8.png"" style=""width:200px;border:14px solid red;"">","null","","","","","","","",""
"","html-keyboard-response","10","41122","0.0-13.0-0.0","3A1COHJ8NKH47GSARROIOZUA4TXH8F","A2TLN8489YGY81","3S829FDFT2NBOHQMM1CIOU0HZYXDXL","","","","","","","","","","","",""
"","image-keyboard-response","11","41837","0.0-14.0","3A1COHJ8NKH47GSARROIOZUA4TXH8F","A2TLN8489YGY81","3S829FDFT2NBOHQMM1CIOU0HZYXDXL","","713.1000000014901","img/land8.png","76","714.2000000029802","3","1","false","3","0.8,0.8,0.2,0.2,0.8,0.8,0.8,0.2,0.8","",""
"","html-keyboard-response","12","42138","0.0-15.0","3A1COHJ8NKH47GSARROIOZUA4TXH8F","A2TLN8489YGY81","3S829FDFT2NBOHQMM1CIOU0HZYXDXL","","null","<img src=""img/land8.png"" style=""width:200px; border:14px solid green;"">","null","","","","","","","",""
"","image-keyboard-response","13","42694","0.0-17.0","3A1COHJ8NKH47GSARROIOZUA4TXH8F","A2TLN8489YGY81","3S829FDFT2NBOHQMM1CIOU0HZYXDXL","","554.6000000014901","img/land8.png","76","555.6999999955297","3","1","false","3","0.8,0.8,0.2,0.2,0.8,0.8,0.8,0.2,0.8","",""
"","html-keyboard-response","14","43011","0.0-18.0","3A1COHJ8NKH47GSARROIOZUA4TXH8F","A2TLN8489YGY81","3S829FDFT2NBOHQMM1CIOU0HZYXDXL","","null","<img src=""img/land8.png"" style=""width:200px; border:14px solid green;"">","null","","","","","","","",""
"","image-keyboard-response","15","43356","0.0-20.0","3A1COHJ8NKH47GSARROIOZUA4TXH8F","A2TLN8489YGY81","3S829FDFT2NBOHQMM1CIOU0HZYXDXL","","344.3999999985099","img/land8.png","76","345.5","3","0","false","3","0.8,0.8,0.2,0.2,0.8,0.8,0.8,0.2,0.8","",""
"","html-keyboard-response","16","43659","0.0-21.0","3A1COHJ8NKH47GSARROIOZUA4TXH8F","A2TLN8489YGY81","3S829FDFT2NBOHQMM1CIOU0HZYXDXL","","null","<img src=""img/land8.png"" style=""width:200px;border:14px solid red;"">","null","","","","","","","",""
"","image-keyboard-response","17","44433","0.0-23.0","3A1COHJ8NKH47GSARROIOZUA4TXH8F","A2TLN8489YGY81","3S829FDFT2NBOHQMM1CIOU0HZYXDXL","","773","img/land6.png","75","774","2","1","false","1","0.8,0.8,0.2,0.2,0.8,0.8,0.8,0.2,0.8","",""
"","html-keyboard-response","18","44734","0.0-24.0","3A1COHJ8NKH47GSARROIOZUA4TXH8F","A2TLN8489YGY81","3S829FDFT2NBOHQMM1CIOU0HZYXDXL","","null","<img src=""img/land6.png"" style=""width:200px; border:14px solid green;"">","null","","","","","","","",""
"","image-keyboard-response","19","45067","0.0-26.0","3A1COHJ8NKH47GSARROIOZUA4TXH8F","A2TLN8489YGY81","3S829FDFT2NBOHQMM1CIOU0HZYXDXL","","331.1000000014901","img/land6.png","75","332","2","1","false","1","0.8,0.8,0.2,0.2,0.8,0.8,0.8,0.2,0.8","",""
"","html-keyboard-response","20","45368","0.0-27.0","3A1COHJ8NKH47GSARROIOZUA4TXH8F","A2TLN8489YGY81","3S829FDFT2NBOHQMM1CIOU0HZYXDXL","","null","<img src=""img/land6.png"" style=""width:200px; border:14px solid green;"">","null","","","","","","","",""
"","image-keyboard-response","21","45725","0.0-29.0","3A1COHJ8NKH47GSARROIOZUA4TXH8F","A2TLN8489YGY81","3S829FDFT2NBOHQMM1CIOU0HZYXDXL","","355.1000000014901","img/land6.png","75","356.19999999552965","2","1","false","1","0.8,0.8,0.2,0.2,0.8,0.8,0.8,0.2,0.8","",""
"","html-keyboard-response","22","46029","0.0-30.0","3A1COHJ8NKH47GSARROIOZUA4TXH8F","A2TLN8489YGY81","3S829FDFT2NBOHQMM1CIOU0HZYXDXL","","null","<img src=""img/land6.png"" style=""width:200px; border:14px solid green;"">","null","","","","","","","",""
"","image-keyboard-response","23","47014","0.0-32.0","3A1COHJ8NKH47GSARROIOZUA4TXH8F","A2TLN8489YGY81","3S829FDFT2NBOHQMM1CIOU0HZYXDXL","","983.1000000014901","img/land9.png","75","984","2","1","false","2","0.8,0.8,0.2,0.2,0.8,0.8,0.8,0.2,0.8","",""
"","html-keyboard-response","24","47315","0.0-33.0","3A1COHJ8NKH47GSARROIOZUA4TXH8F","A2TLN8489YGY81","3S829FDFT2NBOHQMM1CIOU0HZYXDXL","","null","<img src=""img/land9.png"" style=""width:200px; border:14px solid green;"">","null","","","","","","","",""
"","image-keyboard-response","25","47659","0.0-35.0","3A1COHJ8NKH47GSARROIOZUA4TXH8F","A2TLN8489YGY81","3S829FDFT2NBOHQMM1CIOU0HZYXDXL","","342.70000000298023","img/land9.png","75","343.6000000014901","2","0","false","2","0.8,0.8,0.2,0.2,0.8,0.8,0.8,0.2,0.8","",""
"","html-keyboard-response","26","47965","0.0-36.0","3A1COHJ8NKH47GSARROIOZUA4TXH8F","A2TLN8489YGY81","3S829FDFT2NBOHQMM1CIOU0HZYXDXL","","null","<img src=""img/land9.png"" style=""width:200px;border:14px solid red;"">","null","","","","","","","",""
"","image-keyboard-response","27","48968","0.0-38.0","3A1COHJ8NKH47GSARROIOZUA4TXH8F","A2TLN8489YGY81","3S829FDFT2NBOHQMM1CIOU0HZYXDXL","","","img/land6.png","","1002.5","-1","0","true","1","0.8,0.8,0.2,0.2,0.8,0.8,0.8,0.2,0.8","",""
"","html-keyboard-response","28","49277","0.0-39.0","3A1COHJ8NKH47GSARROIOZUA4TXH8F","A2TLN8489YGY81","3S829FDFT2NBOHQMM1CIOU0HZYXDXL","","null","<img src=""img/land6.png"" style=""width:200px;border:14px solid red;"">","null","","","","","","","",""
"","html-keyboard-response","29","51290","0.0-40.0-0.0","3A1COHJ8NKH47GSARROIOZUA4TXH8F","A2TLN8489YGY81","3S829FDFT2NBOHQMM1CIOU0HZYXDXL","","","","","","","","","","","",""
"","image-keyboard-response","30","52193","0.0-41.0","3A1COHJ8NKH47GSARROIOZUA4TXH8F","A2TLN8489YGY81","3S829FDFT2NBOHQMM1CIOU0HZYXDXL","","901.7000000029802","img/land9.png","75","902.7999999970198","2","1","false","2","0.8,0.8,0.2,0.2,0.8,0.8,0.8,0.2,0.8","",""
"","html-keyboard-response","31","52495","0.0-42.0","3A1COHJ8NKH47GSARROIOZUA4TXH8F","A2TLN8489YGY81","3S829FDFT2NBOHQMM1CIOU0HZYXDXL","","null","<img src=""img/land9.png"" style=""width:200px; border:14px solid green;"">","null","","","","","","","",""
"","image-keyboard-response","32","52905","0.0-44.0","3A1COHJ8NKH47GSARROIOZUA4TXH8F","A2TLN8489YGY81","3S829FDFT2NBOHQMM1CIOU0HZYXDXL","","409.30000000447035","img/land9.png","75","410.20000000298023","2","1","false","2","0.8,0.8,0.2,0.2,0.8,0.8,0.8,0.2,0.8","",""
"","html-keyboard-response","33","53207","0.0-45.0","3A1COHJ8NKH47GSARROIOZUA4TXH8F","A2TLN8489YGY81","3S829FDFT2NBOHQMM1CIOU0HZYXDXL","","null","<img src=""img/land9.png"" style=""width:200px; border:14px solid green;"">","null","","","","","","","",""
"","image-keyboard-response","34","53729","0.0-47.0","3A1COHJ8NKH47GSARROIOZUA4TXH8F","A2TLN8489YGY81","3S829FDFT2NBOHQMM1CIOU0HZYXDXL","","520.6000000014901","img/land6.png","75","521.3999999985099","2","0","false","1","0.8,0.8,0.2,0.2,0.8,0.8,0.8,0.2,0.8","",""
"","html-keyboard-response","35","54031","0.0-48.0","3A1COHJ8NKH47GSARROIOZUA4TXH8F","A2TLN8489YGY81","3S829FDFT2NBOHQMM1CIOU0HZYXDXL","","null","<img src=""img/land6.png"" style=""width:200px;border:14px solid red;"">","null","","","","","","","",""
"","image-keyboard-response","36","54366","0.0-50.0","3A1COHJ8NKH47GSARROIOZUA4TXH8F","A2TLN8489YGY81","3S829FDFT2NBOHQMM1CIOU0HZYXDXL","","334.29999999701977","img/land6.png","74","335.1000000014901","1","1","false","1","0.8,0.8,0.2,0.2,0.8,0.8,0.8,0.2,0.8","",""
"","html-keyboard-response","37","54668","0.0-51.0","3A1COHJ8NKH47GSARROIOZUA4TXH8F","A2TLN8489YGY81","3S829FDFT2NBOHQMM1CIOU0HZYXDXL","","null","<img src=""img/land6.png"" style=""width:200px; border:14px solid green;"">","null","","","","","","","",""
"","image-keyboard-response","38","54954","0.0-53.0","3A1COHJ8NKH47GSARROIOZUA4TXH8F","A2TLN8489YGY81","3S829FDFT2NBOHQMM1CIOU0HZYXDXL","","284.69999999552965","img/land8.png","74","285.5","1","1","false","3","0.8,0.8,0.2,0.2,0.8,0.8,0.8,0.2,0.8","",""
"","html-keyboard-response","39","55256","0.0-54.0","3A1COHJ8NKH47GSARROIOZUA4TXH8F","A2TLN8489YGY81","3S829FDFT2NBOHQMM1CIOU0HZYXDXL","","null","<img src=""img/land8.png"" style=""width:200px; border:14px solid green;"">","null","","","","","","","",""
"","image-keyboard-response","40","55828","0.0-56.0","3A1COHJ8NKH47GSARROIOZUA4TXH8F","A2TLN8489YGY81","3S829FDFT2NBOHQMM1CIOU0HZYXDXL","","570.4000000059605","img/land6.png","75","571.2000000029802","2","1","false","1","0.8,0.8,0.2,0.2,0.8,0.8,0.8,0.2,0.8","",""
"","html-keyboard-response","41","56130","0.0-57.0","3A1COHJ8NKH47GSARROIOZUA4TXH8F","A2TLN8489YGY81","3S829FDFT2NBOHQMM1CIOU0HZYXDXL","","null","<img src=""img/land6.png"" style=""width:200px; border:14px solid green;"">","null","","","","","","","",""
"","image-keyboard-response","42","56403","0.0-59.0","3A1COHJ8NKH47GSARROIOZUA4TXH8F","A2TLN8489YGY81","3S829FDFT2NBOHQMM1CIOU0HZYXDXL","","271.5","img/land6.png","74","272.3999999985099","1","0","false","1","0.8,0.8,0.2,0.2,0.8,0.8,0.8,0.2,0.8","",""
"","html-keyboard-response","43","56704","0.0-60.0","3A1COHJ8NKH47GSARROIOZUA4TXH8F","A2TLN8489YGY81","3S829FDFT2NBOHQMM1CIOU0HZYXDXL","","null","<img src=""img/land6.png"" style=""width:200px;border:14px solid red;"">","null","","","","","","","",""
"","image-keyboard-response","44","57139","0.0-62.0","3A1COHJ8NKH47GSARROIOZUA4TXH8F","A2TLN8489YGY81","3S829FDFT2NBOHQMM1CIOU0HZYXDXL","","434.5","img/land8.png","75","435.29999999701977","2","1","false","3","0.8,0.8,0.2,0.2,0.8,0.8,0.8,0.2,0.8","",""
"","html-keyboard-response","45","57456","0.0-63.0","3A1COHJ8NKH47GSARROIOZUA4TXH8F","A2TLN8489YGY81","3S829FDFT2NBOHQMM1CIOU0HZYXDXL","","null","<img src=""img/land8.png"" style=""width:200px; border:14px solid green;"">","null","","","","","","","",""
"","image-keyboard-response","46","57781","0.0-65.0","3A1COHJ8NKH47GSARROIOZUA4TXH8F","A2TLN8489YGY81","3S829FDFT2NBOHQMM1CIOU0HZYXDXL","","323.5","img/land8.png","75","324.3999999985099","2","0","false","3","0.8,0.8,0.2,0.2,0.8,0.8,0.8,0.2,0.8","",""
"","html-keyboard-response","47","58083","0.0-66.0","3A1COHJ8NKH47GSARROIOZUA4TXH8F","A2TLN8489YGY81","3S829FDFT2NBOHQMM1CIOU0HZYXDXL","","null","<img src=""img/land8.png"" style=""width:200px;border:14px solid red;"">","null","","","","","","","",""
"","image-keyboard-response","48","58555","0.0-68.0","3A1COHJ8NKH47GSARROIOZUA4TXH8F","A2TLN8489YGY81","3S829FDFT2NBOHQMM1CIOU0HZYXDXL","","470.8999999985099","img/land6.png","76","471.80000000447035","3","1","false","1","0.8,0.8,0.2,0.2,0.8,0.8,0.8,0.2,0.8","",""
"","html-keyboard-response","49","58857","0.0-69.0","3A1COHJ8NKH47GSARROIOZUA4TXH8F","A2TLN8489YGY81","3S829FDFT2NBOHQMM1CIOU0HZYXDXL","","null","<img src=""img/land6.png"" style=""width:200px; border:14px solid green;"">","null","","","","","","","",""
"","image-keyboard-response","50","59172","0.0-71.0","3A1COHJ8NKH47GSARROIOZUA4TXH8F","A2TLN8489YGY81","3S829FDFT2NBOHQMM1CIOU0HZYXDXL","","314.1000000014901","img/land6.png","76","315","3","0","false","1","0.8,0.8,0.2,0.2,0.8,0.8,0.8,0.2,0.8","",""
"","html-keyboard-response","51","59474","0.0-72.0","3A1COHJ8NKH47GSARROIOZUA4TXH8F","A2TLN8489YGY81","3S829FDFT2NBOHQMM1CIOU0HZYXDXL","","null","<img src=""img/land6.png"" style=""width:200px;border:14px solid red;"">","null","","","","","","","",""
"","image-keyboard-response","52","59913","0.0-74.0","3A1COHJ8NKH47GSARROIOZUA4TXH8F","A2TLN8489YGY81","3S829FDFT2NBOHQMM1CIOU0HZYXDXL","","437.5","img/land6.png","75","438.30000000447035","2","1","false","1","0.8,0.8,0.2,0.2,0.8,0.8,0.8,0.2,0.8","",""
"","html-keyboard-response","53","60215","0.0-75.0","3A1COHJ8NKH47GSARROIOZUA4TXH8F","A2TLN8489YGY81","3S829FDFT2NBOHQMM1CIOU0HZYXDXL","","null","<img src=""img/land6.png"" style=""width:200px; border:14px solid green;"">","null","","","","","","","",""
"","image-keyboard-response","54","61089","0.0-77.0","3A1COHJ8NKH47GSARROIOZUA4TXH8F","A2TLN8489YGY81","3S829FDFT2NBOHQMM1CIOU0HZYXDXL","","873.1000000014901","img/land9.png","75","874","2","1","false","2","0.8,0.8,0.2,0.2,0.8,0.8,0.8,0.2,0.8","",""
"","html-keyboard-response","55","61392","0.0-78.0","3A1COHJ8NKH47GSARROIOZUA4TXH8F","A2TLN8489YGY81","3S829FDFT2NBOHQMM1CIOU0HZYXDXL","","null","<img src=""img/land9.png"" style=""width:200px; border:14px solid green;"">","null","","","","","","","",""
"","image-keyboard-response","56","62187","0.0-80.0","3A1COHJ8NKH47GSARROIOZUA4TXH8F","A2TLN8489YGY81","3S829FDFT2NBOHQMM1CIOU0HZYXDXL","","793.7999999970198","img/land8.png","76","794.7999999970198","3","1","false","3","0.8,0.8,0.2,0.2,0.8,0.8,0.8,0.2,0.8","",""
"","html-keyboard-response","57","62489","0.0-81.0","3A1COHJ8NKH47GSARROIOZUA4TXH8F","A2TLN8489YGY81","3S829FDFT2NBOHQMM1CIOU0HZYXDXL","","null","<img src=""img/land8.png"" style=""width:200px; border:14px solid green;"">","null","","","","","","","",""
"","image-keyboard-response","58","62828","0.0-83.0","3A1COHJ8NKH47GSARROIOZUA4TXH8F","A2TLN8489YGY81","3S829FDFT2NBOHQMM1CIOU0HZYXDXL","","338","img/land8.png","76","338.69999999552965","3","1","false","3","0.8,0.8,0.2,0.2,0.8,0.8,0.8,0.2,0.8","",""
"","html-keyboard-response","59","63130","0.0-84.0","3A1COHJ8NKH47GSARROIOZUA4TXH8F","A2TLN8489YGY81","3S829FDFT2NBOHQMM1CIOU0HZYXDXL","","null","<img src=""img/land8.png"" style=""width:200px; border:14px solid green;"">","null","","","","","","","",""
"","image-keyboard-response","60","63470","0.0-86.0","3A1COHJ8NKH47GSARROIOZUA4TXH8F","A2TLN8489YGY81","3S829FDFT2NBOHQMM1CIOU0HZYXDXL","","338.3999999985099","img/land8.png","76","339.29999999701977","3","1","false","3","0.8,0.8,0.2,0.2,0.8,0.8,0.8,0.2,0.8","",""
"","html-keyboard-response","61","63782","0.0-87.0","3A1COHJ8NKH47GSARROIOZUA4TXH8F","A2TLN8489YGY81","3S829FDFT2NBOHQMM1CIOU0HZYXDXL","","null","<img src=""img/land8.png"" style=""width:200px; border:14px solid green;"">","null","","","","","","","",""
"","image-keyboard-response","62","64485","0.0-89.0","3A1COHJ8NKH47GSARROIOZUA4TXH8F","A2TLN8489YGY81","3S829FDFT2NBOHQMM1CIOU0HZYXDXL","","701.7999999970198","img/land9.png","75","702.6999999955297","2","1","false","2","0.8,0.8,0.2,0.2,0.8,0.8,0.8,0.2,0.8","",""
"","html-keyboard-response","63","64787","0.0-90.0","3A1COHJ8NKH47GSARROIOZUA4TXH8F","A2TLN8489YGY81","3S829FDFT2NBOHQMM1CIOU0HZYXDXL","","null","<img src=""img/land9.png"" style=""width:200px; border:14px solid green;"">","null","","","","","","","",""
"","image-keyboard-response","64","65056","0.0-92.0","3A1COHJ8NKH47GSARROIOZUA4TXH8F","A2TLN8489YGY81","3S829FDFT2NBOHQMM1CIOU0HZYXDXL","","267.5","img/land8.png","75","268.3999999985099","2","0","false","3","0.8,0.8,0.2,0.2,0.8,0.8,0.8,0.2,0.8","",""
"","html-keyboard-response","65","65358","0.0-93.0","3A1COHJ8NKH47GSARROIOZUA4TXH8F","A2TLN8489YGY81","3S829FDFT2NBOHQMM1CIOU0HZYXDXL","","null","<img src=""img/land8.png"" style=""width:200px;border:14px solid red;"">","null","","","","","","","",""
"","image-keyboard-response","66","65797","0.0-95.0","3A1COHJ8NKH47GSARROIOZUA4TXH8F","A2TLN8489YGY81","3S829FDFT2NBOHQMM1CIOU0HZYXDXL","","438","img/land8.png","76","438.80000000447035","3","1","false","3","0.8,0.8,0.2,0.2,0.8,0.8,0.8,0.2,0.8","",""
"","html-keyboard-response","67","66098","0.0-96.0","3A1COHJ8NKH47GSARROIOZUA4TXH8F","A2TLN8489YGY81","3S829FDFT2NBOHQMM1CIOU0HZYXDXL","","null","<img src=""img/land8.png"" style=""width:200px; border:14px solid green;"">","null","","","","","","","",""
"","image-keyboard-response","68","66691","0.0-98.0","3A1COHJ8NKH47GSARROIOZUA4TXH8F","A2TLN8489YGY81","3S829FDFT2NBOHQMM1CIOU0HZYXDXL","","591.3999999985099","img/land9.png","75","592.0999999940395","2","1","false","2","0.8,0.8,0.2,0.2,0.8,0.8,0.8,0.2,0.8","",""
"","html-keyboard-response","69","66993","0.0-99.0","3A1COHJ8NKH47GSARROIOZUA4TXH8F","A2TLN8489YGY81","3S829FDFT2NBOHQMM1CIOU0HZYXDXL","","null","<img src=""img/land9.png"" style=""width:200px; border:14px solid green;"">","null","","","","","","","",""
"","image-keyboard-response","70","67432","0.0-101.0","3A1COHJ8NKH47GSARROIOZUA4TXH8F","A2TLN8489YGY81","3S829FDFT2NBOHQMM1CIOU0HZYXDXL","","437.8999999985099","img/land9.png","75","438.8999999985099","2","1","false","2","0.8,0.8,0.2,0.2,0.8,0.8,0.8,0.2,0.8","",""
"","html-keyboard-response","71","67733","0.0-102.0","3A1COHJ8NKH47GSARROIOZUA4TXH8F","A2TLN8489YGY81","3S829FDFT2NBOHQMM1CIOU0HZYXDXL","","null","<img src=""img/land9.png"" style=""width:200px; border:14px solid green;"">","null","","","","","","","",""
"","image-keyboard-response","72","68045","0.0-104.0","3A1COHJ8NKH47GSARROIOZUA4TXH8F","A2TLN8489YGY81","3S829FDFT2NBOHQMM1CIOU0HZYXDXL","","310.30000000447035","img/land9.png","75","311.20000000298023","2","1","false","2","0.8,0.8,0.2,0.2,0.8,0.8,0.8,0.2,0.8","",""
"","html-keyboard-response","73","68347","0.0-105.0","3A1COHJ8NKH47GSARROIOZUA4TXH8F","A2TLN8489YGY81","3S829FDFT2NBOHQMM1CIOU0HZYXDXL","","null","<img src=""img/land9.png"" style=""width:200px; border:14px solid green;"">","null","","","","","","","",""
"","image-keyboard-response","74","68976","0.0-107.0","3A1COHJ8NKH47GSARROIOZUA4TXH8F","A2TLN8489YGY81","3S829FDFT2NBOHQMM1CIOU0HZYXDXL","","627.6999999955297","img/land6.png","76","628.5","3","0","false","1","0.8,0.8,0.2,0.2,0.8,0.8,0.8,0.2,0.8","",""
"","html-keyboard-response","75","69278","0.0-108.0","3A1COHJ8NKH47GSARROIOZUA4TXH8F","A2TLN8489YGY81","3S829FDFT2NBOHQMM1CIOU0HZYXDXL","","null","<img src=""img/land6.png"" style=""width:200px;border:14px solid red;"">","null","","","","","","","",""
"","image-keyboard-response","76","69908","0.0-110.0","3A1COHJ8NKH47GSARROIOZUA4TXH8F","A2TLN8489YGY81","3S829FDFT2NBOHQMM1CIOU0HZYXDXL","","629.2999999970198","img/land9.png","75","630.2000000029802","2","0","false","2","0.8,0.8,0.2,0.2,0.8,0.8,0.8,0.2,0.8","",""
"","html-keyboard-response","77","70211","0.0-111.0","3A1COHJ8NKH47GSARROIOZUA4TXH8F","A2TLN8489YGY81","3S829FDFT2NBOHQMM1CIOU0HZYXDXL","","null","<img src=""img/land9.png"" style=""width:200px;border:14px solid red;"">","null","","","","","","","",""
"","image-keyboard-response","78","70649","0.0-113.0","3A1COHJ8NKH47GSARROIOZUA4TXH8F","A2TLN8489YGY81","3S829FDFT2NBOHQMM1CIOU0HZYXDXL","","436.70000000298023","img/land9.png","75","437.70000000298023","2","0","false","2","0.8,0.8,0.2,0.2,0.8,0.8,0.8,0.2,0.8","",""
"","html-keyboard-response","79","70951","0.0-114.0","3A1COHJ8NKH47GSARROIOZUA4TXH8F","A2TLN8489YGY81","3S829FDFT2NBOHQMM1CIOU0HZYXDXL","","null","<img src=""img/land9.png"" style=""width:200px;border:14px solid red;"">","null","","","","","","","",""
"","image-keyboard-response","80","71415","0.0-116.0","3A1COHJ8NKH47GSARROIOZUA4TXH8F","A2TLN8489YGY81","3S829FDFT2NBOHQMM1CIOU0HZYXDXL","","462.80000000447035","img/land9.png","75","463.70000000298023","2","1","false","2","0.8,0.8,0.2,0.2,0.8,0.8,0.8,0.2,0.8","",""
"","html-keyboard-response","81","71717","0.0-117.0","3A1COHJ8NKH47GSARROIOZUA4TXH8F","A2TLN8489YGY81","3S829FDFT2NBOHQMM1CIOU0HZYXDXL","","null","<img src=""img/land9.png"" style=""width:200px; border:14px solid green;"">","null","","","","","","","",""
"","image-keyboard-response","82","72372","0.0-119.0","3A1COHJ8NKH47GSARROIOZUA4TXH8F","A2TLN8489YGY81","3S829FDFT2NBOHQMM1CIOU0HZYXDXL","","653.5","img/land6.png","76","654.3999999985099","3","0","false","1","0.8,0.8,0.2,0.2,0.8,0.8,0.8,0.2,0.8","",""
"","html-keyboard-response","83","72673","0.0-120.0","3A1COHJ8NKH47GSARROIOZUA4TXH8F","A2TLN8489YGY81","3S829FDFT2NBOHQMM1CIOU0HZYXDXL","","null","<img src=""img/land6.png"" style=""width:200px;border:14px solid red;"">","null","","","","","","","",""
"","image-keyboard-response","84","73055","0.0-122.0","3A1COHJ8NKH47GSARROIOZUA4TXH8F","A2TLN8489YGY81","3S829FDFT2NBOHQMM1CIOU0HZYXDXL","","380.29999999701977","img/land6.png","75","381.19999999552965","2","1","false","1","0.8,0.8,0.2,0.2,0.8,0.8,0.8,0.2,0.8","",""
"","html-keyboard-response","85","73371","0.0-123.0","3A1COHJ8NKH47GSARROIOZUA4TXH8F","A2TLN8489YGY81","3S829FDFT2NBOHQMM1CIOU0HZYXDXL","","null","<img src=""img/land6.png"" style=""width:200px; border:14px solid green;"">","null","","","","","","","",""
"","image-keyboard-response","86","73605","0.0-125.0","3A1COHJ8NKH47GSARROIOZUA4TXH8F","A2TLN8489YGY81","3S829FDFT2NBOHQMM1CIOU0HZYXDXL","","233.10000000149012","img/land9.png","75","233.89999999850988","2","1","false","2","0.8,0.8,0.2,0.2,0.8,0.8,0.8,0.2,0.8","",""
"","html-keyboard-response","87","73907","0.0-126.0","3A1COHJ8NKH47GSARROIOZUA4TXH8F","A2TLN8489YGY81","3S829FDFT2NBOHQMM1CIOU0HZYXDXL","","null","<img src=""img/land9.png"" style=""width:200px; border:14px solid green;"">","null","","","","","","","",""
"","image-keyboard-response","88","74727","0.0-128.0","3A1COHJ8NKH47GSARROIOZUA4TXH8F","A2TLN8489YGY81","3S829FDFT2NBOHQMM1CIOU0HZYXDXL","","819.8000000044703","img/land8.png","76","820.7000000029802","3","1","false","3","0.8,0.8,0.2,0.2,0.8,0.8,0.8,0.2,0.8","",""
"","html-keyboard-response","89","75030","0.0-129.0","3A1COHJ8NKH47GSARROIOZUA4TXH8F","A2TLN8489YGY81","3S829FDFT2NBOHQMM1CIOU0HZYXDXL","","null","<img src=""img/land8.png"" style=""width:200px; border:14px solid green;"">","null","","","","","","","",""
"","image-keyboard-response","90","75406","0.0-131.0","3A1COHJ8NKH47GSARROIOZUA4TXH8F","A2TLN8489YGY81","3S829FDFT2NBOHQMM1CIOU0HZYXDXL","","375.19999999552965","img/land8.png","76","376.19999999552965","3","1","false","3","0.8,0.8,0.2,0.2,0.8,0.8,0.8,0.2,0.8","",""
"","html-keyboard-response","91","75708","0.0-132.0","3A1COHJ8NKH47GSARROIOZUA4TXH8F","A2TLN8489YGY81","3S829FDFT2NBOHQMM1CIOU0HZYXDXL","","null","<img src=""img/land8.png"" style=""width:200px; border:14px solid green;"">","null","","","","","","","",""
"","image-keyboard-response","92","76462","0.0-134.0","3A1COHJ8NKH47GSARROIOZUA4TXH8F","A2TLN8489YGY81","3S829FDFT2NBOHQMM1CIOU0HZYXDXL","","753.7000000029802","img/land6.png","75","754.6000000014901","2","1","false","1","0.8,0.8,0.2,0.2,0.8,0.8,0.8,0.2,0.8","",""
"","html-keyboard-response","93","76765","0.0-135.0","3A1COHJ8NKH47GSARROIOZUA4TXH8F","A2TLN8489YGY81","3S829FDFT2NBOHQMM1CIOU0HZYXDXL","","null","<img src=""img/land6.png"" style=""width:200px; border:14px solid green;"">","null","","","","","","","",""
"","image-keyboard-response","94","77432","0.0-137.0","3A1COHJ8NKH47GSARROIOZUA4TXH8F","A2TLN8489YGY81","3S829FDFT2NBOHQMM1CIOU0HZYXDXL","","665.6000000014901","img/land8.png","75","666.3999999985099","2","0","false","3","0.8,0.8,0.2,0.2,0.8,0.8,0.8,0.2,0.8","",""
"","html-keyboard-response","95","77734","0.0-138.0","3A1COHJ8NKH47GSARROIOZUA4TXH8F","A2TLN8489YGY81","3S829FDFT2NBOHQMM1CIOU0HZYXDXL","","null","<img src=""img/land8.png"" style=""width:200px;border:14px solid red;"">","null","","","","","","","",""
"","image-keyboard-response","96","78197","0.0-140.0","3A1COHJ8NKH47GSARROIOZUA4TXH8F","A2TLN8489YGY81","3S829FDFT2NBOHQMM1CIOU0HZYXDXL","","462.19999999552965","img/land9.png","75","463","2","1","false","2","0.8,0.8,0.2,0.2,0.8,0.8,0.8,0.2,0.8","",""
"","html-keyboard-response","97","78499","0.0-141.0","3A1COHJ8NKH47GSARROIOZUA4TXH8F","A2TLN8489YGY81","3S829FDFT2NBOHQMM1CIOU0HZYXDXL","","null","<img src=""img/land9.png"" style=""width:200px; border:14px solid green;"">","null","","","","","","","",""
"","image-keyboard-response","98","78926","0.0-143.0","3A1COHJ8NKH47GSARROIOZUA4TXH8F","A2TLN8489YGY81","3S829FDFT2NBOHQMM1CIOU0HZYXDXL","","424.6000000014901","img/land9.png","75","425.3999999985099","2","0","false","2","0.8,0.8,0.2,0.2,0.8,0.8,0.8,0.2,0.8","",""
"","html-keyboard-response","99","79229","0.0-144.0","3A1COHJ8NKH47GSARROIOZUA4TXH8F","A2TLN8489YGY81","3S829FDFT2NBOHQMM1CIOU0HZYXDXL","","null","<img src=""img/land9.png"" style=""width:200px;border:14px solid red;"">","null","","","","","","","",""
"","image-keyboard-response","100","79895","0.0-146.0","3A1COHJ8NKH47GSARROIOZUA4TXH8F","A2TLN8489YGY81","3S829FDFT2NBOHQMM1CIOU0HZYXDXL","","665.5","img/land6.png","76","666.2000000029802","3","0","false","1","0.8,0.8,0.2,0.2,0.8,0.8,0.8,0.2,0.8","",""
"","html-keyboard-response","101","80198","0.0-147.0","3A1COHJ8NKH47GSARROIOZUA4TXH8F","A2TLN8489YGY81","3S829FDFT2NBOHQMM1CIOU0HZYXDXL","","null","<img src=""img/land6.png"" style=""width:200px;border:14px solid red;"">","null","","","","","","","",""
"","image-keyboard-response","102","80918","0.0-149.0","3A1COHJ8NKH47GSARROIOZUA4TXH8F","A2TLN8489YGY81","3S829FDFT2NBOHQMM1CIOU0HZYXDXL","","719.5999999940395","img/land9.png","75","720.4000000059605","2","1","false","2","0.8,0.8,0.2,0.2,0.8,0.8,0.8,0.2,0.8","",""
"","html-keyboard-response","103","81220","0.0-150.0","3A1COHJ8NKH47GSARROIOZUA4TXH8F","A2TLN8489YGY81","3S829FDFT2NBOHQMM1CIOU0HZYXDXL","","null","<img src=""img/land9.png"" style=""width:200px; border:14px solid green;"">","null","","","","","","","",""
"","image-keyboard-response","104","81848","0.0-152.0","3A1COHJ8NKH47GSARROIOZUA4TXH8F","A2TLN8489YGY81","3S829FDFT2NBOHQMM1CIOU0HZYXDXL","","627.3000000044703","img/land6.png","74","628.1000000014901","1","1","false","1","0.8,0.8,0.2,0.2,0.8,0.8,0.8,0.2,0.8","",""
"","html-keyboard-response","105","82151","0.0-153.0","3A1COHJ8NKH47GSARROIOZUA4TXH8F","A2TLN8489YGY81","3S829FDFT2NBOHQMM1CIOU0HZYXDXL","","null","<img src=""img/land6.png"" style=""width:200px; border:14px solid green;"">","null","","","","","","","",""
"","image-keyboard-response","106","82569","0.0-155.0","3A1COHJ8NKH47GSARROIOZUA4TXH8F","A2TLN8489YGY81","3S829FDFT2NBOHQMM1CIOU0HZYXDXL","","416.69999999552965","img/land6.png","74","417.6000000014901","1","1","false","1","0.8,0.8,0.2,0.2,0.8,0.8,0.8,0.2,0.8","",""
"","html-keyboard-response","107","82871","0.0-156.0","3A1COHJ8NKH47GSARROIOZUA4TXH8F","A2TLN8489YGY81","3S829FDFT2NBOHQMM1CIOU0HZYXDXL","","null","<img src=""img/land6.png"" style=""width:200px; border:14px solid green;"">","null","","","","","","","",""
"","image-keyboard-response","108","83239","0.0-158.0","3A1COHJ8NKH47GSARROIOZUA4TXH8F","A2TLN8489YGY81","3S829FDFT2NBOHQMM1CIOU0HZYXDXL","","366.79999999701977","img/land6.png","74","367.5","1","1","false","1","0.8,0.8,0.2,0.2,0.8,0.8,0.8,0.2,0.8","",""
"","html-keyboard-response","109","83542","0.0-159.0","3A1COHJ8NKH47GSARROIOZUA4TXH8F","A2TLN8489YGY81","3S829FDFT2NBOHQMM1CIOU0HZYXDXL","","null","<img src=""img/land6.png"" style=""width:200px; border:14px solid green;"">","null","","","","","","","",""
"","image-keyboard-response","110","83897","0.0-161.0","3A1COHJ8NKH47GSARROIOZUA4TXH8F","A2TLN8489YGY81","3S829FDFT2NBOHQMM1CIOU0HZYXDXL","","354","img/land6.png","74","354.80000000447035","1","0","false","1","0.8,0.8,0.2,0.2,0.8,0.8,0.8,0.2,0.8","",""
"","html-keyboard-response","111","84199","0.0-162.0","3A1COHJ8NKH47GSARROIOZUA4TXH8F","A2TLN8489YGY81","3S829FDFT2NBOHQMM1CIOU0HZYXDXL","","null","<img src=""img/land6.png"" style=""width:200px;border:14px solid red;"">","null","","","","","","","",""
"","image-keyboard-response","112","84995","0.0-164.0","3A1COHJ8NKH47GSARROIOZUA4TXH8F","A2TLN8489YGY81","3S829FDFT2NBOHQMM1CIOU0HZYXDXL","","795","img/land8.png","76","796","3","1","false","3","0.8,0.8,0.2,0.2,0.8,0.8,0.8,0.2,0.8","",""
"","html-keyboard-response","113","85297","0.0-165.0","3A1COHJ8NKH47GSARROIOZUA4TXH8F","A2TLN8489YGY81","3S829FDFT2NBOHQMM1CIOU0HZYXDXL","","null","<img src=""img/land8.png"" style=""width:200px; border:14px solid green;"">","null","","","","","","","",""
"","image-keyboard-response","114","85865","0.0-167.0","3A1COHJ8NKH47GSARROIOZUA4TXH8F","A2TLN8489YGY81","3S829FDFT2NBOHQMM1CIOU0HZYXDXL","","566","img/land6.png","75","567","2","1","false","1","0.8,0.8,0.2,0.2,0.8,0.8,0.8,0.2,0.8","",""
"","html-keyboard-response","115","86166","0.0-168.0","3A1COHJ8NKH47GSARROIOZUA4TXH8F","A2TLN8489YGY81","3S829FDFT2NBOHQMM1CIOU0HZYXDXL","","null","<img src=""img/land6.png"" style=""width:200px; border:14px solid green;"">","null","","","","","","","",""
"","image-keyboard-response","116","86755","0.0-170.0","3A1COHJ8NKH47GSARROIOZUA4TXH8F","A2TLN8489YGY81","3S829FDFT2NBOHQMM1CIOU0HZYXDXL","","587.5","img/land9.png","75","588.2999999970198","2","1","false","2","0.8,0.8,0.2,0.2,0.8,0.8,0.8,0.2,0.8","",""
"","html-keyboard-response","117","87057","0.0-171.0","3A1COHJ8NKH47GSARROIOZUA4TXH8F","A2TLN8489YGY81","3S829FDFT2NBOHQMM1CIOU0HZYXDXL","","null","<img src=""img/land9.png"" style=""width:200px; border:14px solid green;"">","null","","","","","","","",""
"","image-keyboard-response","118","87479","0.0-173.0","3A1COHJ8NKH47GSARROIOZUA4TXH8F","A2TLN8489YGY81","3S829FDFT2NBOHQMM1CIOU0HZYXDXL","","421.1000000014901","img/land9.png","75","421.90000000596046","2","1","false","2","0.8,0.8,0.2,0.2,0.8,0.8,0.8,0.2,0.8","",""
"","html-keyboard-response","119","87781","0.0-174.0","3A1COHJ8NKH47GSARROIOZUA4TXH8F","A2TLN8489YGY81","3S829FDFT2NBOHQMM1CIOU0HZYXDXL","","null","<img src=""img/land9.png"" style=""width:200px; border:14px solid green;"">","null","","","","","","","",""
"","image-keyboard-response","120","88610","0.0-176.0","3A1COHJ8NKH47GSARROIOZUA4TXH8F","A2TLN8489YGY81","3S829FDFT2NBOHQMM1CIOU0HZYXDXL","","827.9000000059605","img/land8.png","76","829","3","0","false","3","0.8,0.8,0.2,0.2,0.8,0.8,0.8,0.2,0.8","",""
"","html-keyboard-response","121","88912","0.0-177.0","3A1COHJ8NKH47GSARROIOZUA4TXH8F","A2TLN8489YGY81","3S829FDFT2NBOHQMM1CIOU0HZYXDXL","","null","<img src=""img/land8.png"" style=""width:200px;border:14px solid red;"">","null","","","","","","","",""
"","image-keyboard-response","122","89218","0.0-179.0","3A1COHJ8NKH47GSARROIOZUA4TXH8F","A2TLN8489YGY81","3S829FDFT2NBOHQMM1CIOU0HZYXDXL","","305","img/land6.png","76","305.80000000447035","3","0","false","1","0.8,0.8,0.2,0.2,0.8,0.8,0.8,0.2,0.8","",""
"","html-keyboard-response","123","89520","0.0-180.0","3A1COHJ8NKH47GSARROIOZUA4TXH8F","A2TLN8489YGY81","3S829FDFT2NBOHQMM1CIOU0HZYXDXL","","null","<img src=""img/land6.png"" style=""width:200px;border:14px solid red;"">","null","","","","","","","",""
"","image-keyboard-response","124","89897","0.0-182.0","3A1COHJ8NKH47GSARROIOZUA4TXH8F","A2TLN8489YGY81","3S829FDFT2NBOHQMM1CIOU0HZYXDXL","","376.6000000014901","img/land6.png","75","377.40000000596046","2","1","false","1","0.8,0.8,0.2,0.2,0.8,0.8,0.8,0.2,0.8","",""
"","html-keyboard-response","125","90199","0.0-183.0","3A1COHJ8NKH47GSARROIOZUA4TXH8F","A2TLN8489YGY81","3S829FDFT2NBOHQMM1CIOU0HZYXDXL","","null","<img src=""img/land6.png"" style=""width:200px; border:14px solid green;"">","null","","","","","","","",""
"","image-keyboard-response","126","91120","0.0-185.0","3A1COHJ8NKH47GSARROIOZUA4TXH8F","A2TLN8489YGY81","3S829FDFT2NBOHQMM1CIOU0HZYXDXL","","919.5","img/land8.png","76","920.6000000014901","3","1","false","3","0.8,0.8,0.2,0.2,0.8,0.8,0.8,0.2,0.8","",""
"","html-keyboard-response","127","91421","0.0-186.0","3A1COHJ8NKH47GSARROIOZUA4TXH8F","A2TLN8489YGY81","3S829FDFT2NBOHQMM1CIOU0HZYXDXL","","null","<img src=""img/land8.png"" style=""width:200px; border:14px solid green;"">","null","","","","","","","",""
"","image-keyboard-response","128","91935","0.0-188.0","3A1COHJ8NKH47GSARROIOZUA4TXH8F","A2TLN8489YGY81","3S829FDFT2NBOHQMM1CIOU0HZYXDXL","","512.5999999940395","img/land9.png","74","513.6000000014901","1","0","false","2","0.8,0.8,0.2,0.2,0.8,0.8,0.8,0.2,0.8","",""
"","html-keyboard-response","129","92237","0.0-189.0","3A1COHJ8NKH47GSARROIOZUA4TXH8F","A2TLN8489YGY81","3S829FDFT2NBOHQMM1CIOU0HZYXDXL","","null","<img src=""img/land9.png"" style=""width:200px;border:14px solid red;"">","null","","","","","","","",""
"","image-keyboard-response","130","92946","0.0-191.0","3A1COHJ8NKH47GSARROIOZUA4TXH8F","A2TLN8489YGY81","3S829FDFT2NBOHQMM1CIOU0HZYXDXL","","707.3000000044703","img/land6.png","74","708.2000000029802","1","1","false","1","0.8,0.8,0.2,0.2,0.8,0.8,0.8,0.2,0.8","",""
"","html-keyboard-response","131","93248","0.0-192.0","3A1COHJ8NKH47GSARROIOZUA4TXH8F","A2TLN8489YGY81","3S829FDFT2NBOHQMM1CIOU0HZYXDXL","","null","<img src=""img/land6.png"" style=""width:200px; border:14px solid green;"">","null","","","","","","","",""
"","image-keyboard-response","132","93819","0.0-194.0","3A1COHJ8NKH47GSARROIOZUA4TXH8F","A2TLN8489YGY81","3S829FDFT2NBOHQMM1CIOU0HZYXDXL","","569.9000000059605","img/land9.png","75","570.7999999970198","2","0","false","2","0.8,0.8,0.2,0.2,0.8,0.8,0.8,0.2,0.8","",""
"","html-keyboard-response","133","94121","0.0-195.0","3A1COHJ8NKH47GSARROIOZUA4TXH8F","A2TLN8489YGY81","3S829FDFT2NBOHQMM1CIOU0HZYXDXL","","null","<img src=""img/land9.png"" style=""width:200px;border:14px solid red;"">","null","","","","","","","",""
"","image-keyboard-response","134","94896","0.0-197.0","3A1COHJ8NKH47GSARROIOZUA4TXH8F","A2TLN8489YGY81","3S829FDFT2NBOHQMM1CIOU0HZYXDXL","","774.3000000044703","img/land8.png","76","775.1000000014901","3","0","false","3","0.8,0.8,0.2,0.2,0.8,0.8,0.8,0.2,0.8","",""
"","html-keyboard-response","135","95197","0.0-198.0","3A1COHJ8NKH47GSARROIOZUA4TXH8F","A2TLN8489YGY81","3S829FDFT2NBOHQMM1CIOU0HZYXDXL","","null","<img src=""img/land8.png"" style=""width:200px;border:14px solid red;"">","null","","","","","","","",""
"","image-keyboard-response","136","95737","0.0-200.0","3A1COHJ8NKH47GSARROIOZUA4TXH8F","A2TLN8489YGY81","3S829FDFT2NBOHQMM1CIOU0HZYXDXL","","538.1999999955297","img/land9.png","75","538.8999999985099","2","1","false","2","0.8,0.8,0.2,0.2,0.8,0.8,0.8,0.2,0.8","",""
"","html-keyboard-response","137","96039","0.0-201.0","3A1COHJ8NKH47GSARROIOZUA4TXH8F","A2TLN8489YGY81","3S829FDFT2NBOHQMM1CIOU0HZYXDXL","","null","<img src=""img/land9.png"" style=""width:200px; border:14px solid green;"">","null","","","","","","","",""
"","image-keyboard-response","138","96532","0.0-203.0","3A1COHJ8NKH47GSARROIOZUA4TXH8F","A2TLN8489YGY81","3S829FDFT2NBOHQMM1CIOU0HZYXDXL","","492.1000000014901","img/land8.png","75","492.8999999985099","2","0","false","3","0.8,0.8,0.2,0.2,0.8,0.8,0.8,0.2,0.8","",""
"","html-keyboard-response","139","96834","0.0-204.0","3A1COHJ8NKH47GSARROIOZUA4TXH8F","A2TLN8489YGY81","3S829FDFT2NBOHQMM1CIOU0HZYXDXL","","null","<img src=""img/land8.png"" style=""width:200px;border:14px solid red;"">","null","","","","","","","",""
"","image-keyboard-response","140","97244","0.0-206.0","3A1COHJ8NKH47GSARROIOZUA4TXH8F","A2TLN8489YGY81","3S829FDFT2NBOHQMM1CIOU0HZYXDXL","","408.80000000447035","img/land8.png","76","409.80000000447035","3","0","false","3","0.8,0.8,0.2,0.2,0.8,0.8,0.8,0.2,0.8","",""
"","html-keyboard-response","141","97546","0.0-207.0","3A1COHJ8NKH47GSARROIOZUA4TXH8F","A2TLN8489YGY81","3S829FDFT2NBOHQMM1CIOU0HZYXDXL","","null","<img src=""img/land8.png"" style=""width:200px;border:14px solid red;"">","null","","","","","","","",""
"","image-keyboard-response","142","97860","0.0-209.0","3A1COHJ8NKH47GSARROIOZUA4TXH8F","A2TLN8489YGY81","3S829FDFT2NBOHQMM1CIOU0HZYXDXL","","313.3999999985099","img/land9.png","76","314.3999999985099","3","1","false","2","0.8,0.8,0.2,0.2,0.8,0.8,0.8,0.2,0.8","",""
"","html-keyboard-response","143","98163","0.0-210.0","3A1COHJ8NKH47GSARROIOZUA4TXH8F","A2TLN8489YGY81","3S829FDFT2NBOHQMM1CIOU0HZYXDXL","","null","<img src=""img/land9.png"" style=""width:200px; border:14px solid green;"">","null","","","","","","","",""
"","image-keyboard-response","144","98352","0.0-212.0","3A1COHJ8NKH47GSARROIOZUA4TXH8F","A2TLN8489YGY81","3S829FDFT2NBOHQMM1CIOU0HZYXDXL","","188.20000000298023","img/land8.png","75","189.20000000298023","2","0","false","3","0.8,0.8,0.2,0.2,0.8,0.8,0.8,0.2,0.8","",""
"","html-keyboard-response","145","98659","0.0-213.0","3A1COHJ8NKH47GSARROIOZUA4TXH8F","A2TLN8489YGY81","3S829FDFT2NBOHQMM1CIOU0HZYXDXL","","null","<img src=""img/land8.png"" style=""width:200px;border:14px solid red;"">","null","","","","","","","",""
"","image-keyboard-response","146","99201","0.0-215.0","3A1COHJ8NKH47GSARROIOZUA4TXH8F","A2TLN8489YGY81","3S829FDFT2NBOHQMM1CIOU0HZYXDXL","","541.1000000014901","img/land9.png","76","542.1000000014901","3","0","false","2","0.8,0.8,0.2,0.2,0.8,0.8,0.8,0.2,0.8","",""
"","html-keyboard-response","147","99503","0.0-216.0","3A1COHJ8NKH47GSARROIOZUA4TXH8F","A2TLN8489YGY81","3S829FDFT2NBOHQMM1CIOU0HZYXDXL","","null","<img src=""img/land9.png"" style=""width:200px;border:14px solid red;"">","null","","","","","","","",""
"","image-keyboard-response","148","99896","0.0-218.0","3A1COHJ8NKH47GSARROIOZUA4TXH8F","A2TLN8489YGY81","3S829FDFT2NBOHQMM1CIOU0HZYXDXL","","392.5","img/land9.png","75","393.40000000596046","2","1","false","2","0.8,0.8,0.2,0.2,0.8,0.8,0.8,0.2,0.8","",""
"","html-keyboard-response","149","100199","0.0-219.0","3A1COHJ8NKH47GSARROIOZUA4TXH8F","A2TLN8489YGY81","3S829FDFT2NBOHQMM1CIOU0HZYXDXL","","null","<img src=""img/land9.png"" style=""width:200px; border:14px solid green;"">","null","","","","","","","",""
"","image-keyboard-response","150","100874","0.0-221.0","3A1COHJ8NKH47GSARROIOZUA4TXH8F","A2TLN8489YGY81","3S829FDFT2NBOHQMM1CIOU0HZYXDXL","","674.3999999985099","img/land8.png","76","675.1999999955297","3","1","false","3","0.8,0.8,0.2,0.2,0.8,0.8,0.8,0.2,0.8","",""
"","html-keyboard-response","151","101177","0.0-222.0","3A1COHJ8NKH47GSARROIOZUA4TXH8F","A2TLN8489YGY81","3S829FDFT2NBOHQMM1CIOU0HZYXDXL","","null","<img src=""img/land8.png"" style=""width:200px; border:14px solid green;"">","null","","","","","","","",""
"","image-keyboard-response","152","101573","0.0-224.0","3A1COHJ8NKH47GSARROIOZUA4TXH8F","A2TLN8489YGY81","3S829FDFT2NBOHQMM1CIOU0HZYXDXL","","395.3999999985099","img/land8.png","76","396.5","3","1","false","3","0.8,0.8,0.2,0.2,0.8,0.8,0.8,0.2,0.8","",""
"","html-keyboard-response","153","101875","0.0-225.0","3A1COHJ8NKH47GSARROIOZUA4TXH8F","A2TLN8489YGY81","3S829FDFT2NBOHQMM1CIOU0HZYXDXL","","null","<img src=""img/land8.png"" style=""width:200px; border:14px solid green;"">","null","","","","","","","",""
"","image-keyboard-response","154","102468","0.0-227.0","3A1COHJ8NKH47GSARROIOZUA4TXH8F","A2TLN8489YGY81","3S829FDFT2NBOHQMM1CIOU0HZYXDXL","","592.2000000029802","img/land9.png","75","593.1000000014901","2","1","false","2","0.8,0.8,0.2,0.2,0.8,0.8,0.8,0.2,0.8","",""
"","html-keyboard-response","155","102770","0.0-228.0","3A1COHJ8NKH47GSARROIOZUA4TXH8F","A2TLN8489YGY81","3S829FDFT2NBOHQMM1CIOU0HZYXDXL","","null","<img src=""img/land9.png"" style=""width:200px; border:14px solid green;"">","null","","","","","","","",""
"","image-keyboard-response","156","103051","0.0-230.0","3A1COHJ8NKH47GSARROIOZUA4TXH8F","A2TLN8489YGY81","3S829FDFT2NBOHQMM1CIOU0HZYXDXL","","280.3999999985099","img/land9.png","75","281.29999999701977","2","1","false","2","0.8,0.8,0.2,0.2,0.8,0.8,0.8,0.2,0.8","",""
"","html-keyboard-response","157","103353","0.0-231.0","3A1COHJ8NKH47GSARROIOZUA4TXH8F","A2TLN8489YGY81","3S829FDFT2NBOHQMM1CIOU0HZYXDXL","","null","<img src=""img/land9.png"" style=""width:200px; border:14px solid green;"">","null","","","","","","","",""
"","image-keyboard-response","158","103601","0.0-233.0","3A1COHJ8NKH47GSARROIOZUA4TXH8F","A2TLN8489YGY81","3S829FDFT2NBOHQMM1CIOU0HZYXDXL","","246.60000000149012","img/land8.png","75","247.60000000149012","2","1","false","3","0.8,0.8,0.2,0.2,0.8,0.8,0.8,0.2,0.8","",""
"","html-keyboard-response","159","103903","0.0-234.0","3A1COHJ8NKH47GSARROIOZUA4TXH8F","A2TLN8489YGY81","3S829FDFT2NBOHQMM1CIOU0HZYXDXL","","null","<img src=""img/land8.png"" style=""width:200px; border:14px solid green;"">","null","","","","","","","",""
"","image-keyboard-response","160","104620","0.0-236.0","3A1COHJ8NKH47GSARROIOZUA4TXH8F","A2TLN8489YGY81","3S829FDFT2NBOHQMM1CIOU0HZYXDXL","","715.9000000059605","img/land6.png","75","716.8000000044703","2","1","false","1","0.8,0.8,0.2,0.2,0.8,0.8,0.8,0.2,0.8","",""
"","html-keyboard-response","161","104922","0.0-237.0","3A1COHJ8NKH47GSARROIOZUA4TXH8F","A2TLN8489YGY81","3S829FDFT2NBOHQMM1CIOU0HZYXDXL","","null","<img src=""img/land6.png"" style=""width:200px; border:14px solid green;"">","null","","","","","","","",""
"","image-keyboard-response","162","105863","0.0-239.0","3A1COHJ8NKH47GSARROIOZUA4TXH8F","A2TLN8489YGY81","3S829FDFT2NBOHQMM1CIOU0HZYXDXL","","939.6000000014901","img/land8.png","76","940.6000000014901","3","1","false","3","0.8,0.8,0.2,0.2,0.8,0.8,0.8,0.2,0.8","",""
"","html-keyboard-response","163","106168","0.0-240.0","3A1COHJ8NKH47GSARROIOZUA4TXH8F","A2TLN8489YGY81","3S829FDFT2NBOHQMM1CIOU0HZYXDXL","","null","<img src=""img/land8.png"" style=""width:200px; border:14px solid green;"">","null","","","","","","","",""
"","image-keyboard-response","164","106928","0.0-242.0","3A1COHJ8NKH47GSARROIOZUA4TXH8F","A2TLN8489YGY81","3S829FDFT2NBOHQMM1CIOU0HZYXDXL","","758.7999999970198","img/land6.png","75","759.7000000029802","2","1","false","1","0.8,0.8,0.2,0.2,0.8,0.8,0.8,0.2,0.8","",""
"","html-keyboard-response","165","107230","0.0-243.0","3A1COHJ8NKH47GSARROIOZUA4TXH8F","A2TLN8489YGY81","3S829FDFT2NBOHQMM1CIOU0HZYXDXL","","null","<img src=""img/land6.png"" style=""width:200px; border:14px solid green;"">","null","","","","","","","",""
"","image-keyboard-response","166","107855","0.0-245.0","3A1COHJ8NKH47GSARROIOZUA4TXH8F","A2TLN8489YGY81","3S829FDFT2NBOHQMM1CIOU0HZYXDXL","","623.8999999985099","img/land8.png","76","624.8999999985099","3","1","false","3","0.8,0.8,0.2,0.2,0.8,0.8,0.8,0.2,0.8","",""
"","html-keyboard-response","167","108158","0.0-246.0","3A1COHJ8NKH47GSARROIOZUA4TXH8F","A2TLN8489YGY81","3S829FDFT2NBOHQMM1CIOU0HZYXDXL","","null","<img src=""img/land8.png"" style=""width:200px; border:14px solid green;"">","null","","","","","","","",""
"","image-keyboard-response","168","108704","0.0-248.0","3A1COHJ8NKH47GSARROIOZUA4TXH8F","A2TLN8489YGY81","3S829FDFT2NBOHQMM1CIOU0HZYXDXL","","545","img/land6.png","74","546.1999999955297","1","1","false","1","0.8,0.8,0.2,0.2,0.8,0.8,0.8,0.2,0.8","",""
"","html-keyboard-response","169","109005","0.0-249.0","3A1COHJ8NKH47GSARROIOZUA4TXH8F","A2TLN8489YGY81","3S829FDFT2NBOHQMM1CIOU0HZYXDXL","","null","<img src=""img/land6.png"" style=""width:200px; border:14px solid green;"">","null","","","","","","","",""
"","image-keyboard-response","170","109748","0.0-251.0","3A1COHJ8NKH47GSARROIOZUA4TXH8F","A2TLN8489YGY81","3S829FDFT2NBOHQMM1CIOU0HZYXDXL","","741.3999999985099","img/land8.png","75","742.2000000029802","2","0","false","3","0.8,0.8,0.2,0.2,0.8,0.8,0.8,0.2,0.8","",""
"","html-keyboard-response","171","110049","0.0-252.0","3A1COHJ8NKH47GSARROIOZUA4TXH8F","A2TLN8489YGY81","3S829FDFT2NBOHQMM1CIOU0HZYXDXL","","null","<img src=""img/land8.png"" style=""width:200px;border:14px solid red;"">","null","","","","","","","",""
"","image-keyboard-response","172","110837","0.0-254.0","3A1COHJ8NKH47GSARROIOZUA4TXH8F","A2TLN8489YGY81","3S829FDFT2NBOHQMM1CIOU0HZYXDXL","","787.3000000044703","img/land6.png","76","788.1000000014901","3","0","false","1","0.8,0.8,0.2,0.2,0.8,0.8,0.8,0.2,0.8","",""
"","html-keyboard-response","173","111139","0.0-255.0","3A1COHJ8NKH47GSARROIOZUA4TXH8F","A2TLN8489YGY81","3S829FDFT2NBOHQMM1CIOU0HZYXDXL","","null","<img src=""img/land6.png"" style=""width:200px;border:14px solid red;"">","null","","","","","","","",""
"","image-keyboard-response","174","112134","0.0-257.0","3A1COHJ8NKH47GSARROIOZUA4TXH8F","A2TLN8489YGY81","3S829FDFT2NBOHQMM1CIOU0HZYXDXL","","993.8999999985099","img/land9.png","75","994.8000000044703","2","1","false","2","0.8,0.8,0.2,0.2,0.8,0.8,0.8,0.2,0.8","",""
"","html-keyboard-response","175","112437","0.0-258.0","3A1COHJ8NKH47GSARROIOZUA4TXH8F","A2TLN8489YGY81","3S829FDFT2NBOHQMM1CIOU0HZYXDXL","","null","<img src=""img/land9.png"" style=""width:200px; border:14px solid green;"">","null","","","","","","","",""
"","image-keyboard-response","176","112809","0.0-260.0","3A1COHJ8NKH47GSARROIOZUA4TXH8F","A2TLN8489YGY81","3S829FDFT2NBOHQMM1CIOU0HZYXDXL","","371.09999999403954","img/land9.png","75","371.90000000596046","2","0","false","2","0.8,0.8,0.2,0.2,0.8,0.8,0.8,0.2,0.8","",""
"","html-keyboard-response","177","113111","0.0-261.0","3A1COHJ8NKH47GSARROIOZUA4TXH8F","A2TLN8489YGY81","3S829FDFT2NBOHQMM1CIOU0HZYXDXL","","null","<img src=""img/land9.png"" style=""width:200px;border:14px solid red;"">","null","","","","","","","",""
"","image-keyboard-response","178","113985","0.0-263.0","3A1COHJ8NKH47GSARROIOZUA4TXH8F","A2TLN8489YGY81","3S829FDFT2NBOHQMM1CIOU0HZYXDXL","","872.5","img/land8.png","76","873.6000000014901","3","0","false","3","0.8,0.8,0.2,0.2,0.8,0.8,0.8,0.2,0.8","",""
"","html-keyboard-response","179","114287","0.0-264.0","3A1COHJ8NKH47GSARROIOZUA4TXH8F","A2TLN8489YGY81","3S829FDFT2NBOHQMM1CIOU0HZYXDXL","","null","<img src=""img/land8.png"" style=""width:200px;border:14px solid red;"">","null","","","","","","","",""
"","image-keyboard-response","180","114581","0.0-266.0","3A1COHJ8NKH47GSARROIOZUA4TXH8F","A2TLN8489YGY81","3S829FDFT2NBOHQMM1CIOU0HZYXDXL","","292.8999999985099","img/land8.png","76","293.6000000014901","3","1","false","3","0.8,0.8,0.2,0.2,0.8,0.8,0.8,0.2,0.8","",""
"","html-keyboard-response","181","114884","0.0-267.0","3A1COHJ8NKH47GSARROIOZUA4TXH8F","A2TLN8489YGY81","3S829FDFT2NBOHQMM1CIOU0HZYXDXL","","null","<img src=""img/land8.png"" style=""width:200px; border:14px solid green;"">","null","","","","","","","",""
"","image-keyboard-response","182","115570","0.0-269.0","3A1COHJ8NKH47GSARROIOZUA4TXH8F","A2TLN8489YGY81","3S829FDFT2NBOHQMM1CIOU0HZYXDXL","","685.7000000029802","img/land6.png","74","686.5","1","1","false","1","0.8,0.8,0.2,0.2,0.8,0.8,0.8,0.2,0.8","",""
"","html-keyboard-response","183","115874","0.0-270.0","3A1COHJ8NKH47GSARROIOZUA4TXH8F","A2TLN8489YGY81","3S829FDFT2NBOHQMM1CIOU0HZYXDXL","","null","<img src=""img/land6.png"" style=""width:200px; border:14px solid green;"">","null","","","","","","","",""
"","html-keyboard-response","184","117508","0.0-272.0","3A1COHJ8NKH47GSARROIOZUA4TXH8F","A2TLN8489YGY81","3S829FDFT2NBOHQMM1CIOU0HZYXDXL","","","","","","","","","","","",""
"","image-keyboard-response","185","118510","0.0-273.0","3A1COHJ8NKH47GSARROIOZUA4TXH8F","A2TLN8489YGY81","3S829FDFT2NBOHQMM1CIOU0HZYXDXL","","","img/land1.png","","1002","-1","0","true","2","0.8,0.2,0.2,0.2,0.8,0.2,0.2,0.2,0.8","",""
"","html-keyboard-response","186","118813","0.0-274.0","3A1COHJ8NKH47GSARROIOZUA4TXH8F","A2TLN8489YGY81","3S829FDFT2NBOHQMM1CIOU0HZYXDXL","","null","<img src=""img/land1.png"" style=""width:200px;border:14px solid red;"">","null","","","","","","","",""
"","html-keyboard-response","187","120440","0.0-275.0-0.0","3A1COHJ8NKH47GSARROIOZUA4TXH8F","A2TLN8489YGY81","3S829FDFT2NBOHQMM1CIOU0HZYXDXL","","","","","","","","","","","",""
"","image-keyboard-response","188","121230","0.0-276.0","3A1COHJ8NKH47GSARROIOZUA4TXH8F","A2TLN8489YGY81","3S829FDFT2NBOHQMM1CIOU0HZYXDXL","","788.6999999955297","img/land5.png","75","789.7000000029802","2","0","false","3","0.8,0.2,0.2,0.2,0.8,0.2,0.2,0.2,0.8","",""
"","html-keyboard-response","189","121533","0.0-277.0","3A1COHJ8NKH47GSARROIOZUA4TXH8F","A2TLN8489YGY81","3S829FDFT2NBOHQMM1CIOU0HZYXDXL","","null","<img src=""img/land5.png"" style=""width:200px;border:14px solid red;"">","null","","","","","","","",""
"","image-keyboard-response","190","121909","0.0-279.0","3A1COHJ8NKH47GSARROIOZUA4TXH8F","A2TLN8489YGY81","3S829FDFT2NBOHQMM1CIOU0HZYXDXL","","374.09999999403954","img/land5.png","74","375.1000000014901","1","0","false","3","0.8,0.2,0.2,0.2,0.8,0.2,0.2,0.2,0.8","",""
"","html-keyboard-response","191","122211","0.0-280.0","3A1COHJ8NKH47GSARROIOZUA4TXH8F","A2TLN8489YGY81","3S829FDFT2NBOHQMM1CIOU0HZYXDXL","","null","<img src=""img/land5.png"" style=""width:200px;border:14px solid red;"">","null","","","","","","","",""
"","image-keyboard-response","192","123114","0.0-282.0","3A1COHJ8NKH47GSARROIOZUA4TXH8F","A2TLN8489YGY81","3S829FDFT2NBOHQMM1CIOU0HZYXDXL","","902.1000000014901","img/land1.png","76","902.9000000059605","3","0","false","2","0.8,0.2,0.2,0.2,0.8,0.2,0.2,0.2,0.8","",""
"","html-keyboard-response","193","123416","0.0-283.0","3A1COHJ8NKH47GSARROIOZUA4TXH8F","A2TLN8489YGY81","3S829FDFT2NBOHQMM1CIOU0HZYXDXL","","null","<img src=""img/land1.png"" style=""width:200px;border:14px solid red;"">","null","","","","","","","",""
"","image-keyboard-response","194","123739","0.0-285.0","3A1COHJ8NKH47GSARROIOZUA4TXH8F","A2TLN8489YGY81","3S829FDFT2NBOHQMM1CIOU0HZYXDXL","","322.30000000447035","img/land1.png","75","323.30000000447035","2","1","false","2","0.8,0.2,0.2,0.2,0.8,0.2,0.2,0.2,0.8","",""
"","html-keyboard-response","195","124041","0.0-286.0","3A1COHJ8NKH47GSARROIOZUA4TXH8F","A2TLN8489YGY81","3S829FDFT2NBOHQMM1CIOU0HZYXDXL","","null","<img src=""img/land1.png"" style=""width:200px; border:14px solid green;"">","null","","","","","","","",""
"","image-keyboard-response","196","124513","0.0-288.0","3A1COHJ8NKH47GSARROIOZUA4TXH8F","A2TLN8489YGY81","3S829FDFT2NBOHQMM1CIOU0HZYXDXL","","470.79999999701977","img/land1.png","75","471.6000000014901","2","1","false","2","0.8,0.2,0.2,0.2,0.8,0.2,0.2,0.2,0.8","",""
"","html-keyboard-response","197","124816","0.0-289.0","3A1COHJ8NKH47GSARROIOZUA4TXH8F","A2TLN8489YGY81","3S829FDFT2NBOHQMM1CIOU0HZYXDXL","","null","<img src=""img/land1.png"" style=""width:200px; border:14px solid green;"">","null","","","","","","","",""
"","image-keyboard-response","198","125814","0.0-291.0","3A1COHJ8NKH47GSARROIOZUA4TXH8F","A2TLN8489YGY81","3S829FDFT2NBOHQMM1CIOU0HZYXDXL","","997.5","img/land7.png","74","998.2999999970198","1","1","false","1","0.8,0.2,0.2,0.2,0.8,0.2,0.2,0.2,0.8","",""
"","html-keyboard-response","199","126116","0.0-292.0","3A1COHJ8NKH47GSARROIOZUA4TXH8F","A2TLN8489YGY81","3S829FDFT2NBOHQMM1CIOU0HZYXDXL","","null","<img src=""img/land7.png"" style=""width:200px; border:14px solid green;"">","null","","","","","","","",""
"","image-keyboard-response","200","126398","0.0-294.0","3A1COHJ8NKH47GSARROIOZUA4TXH8F","A2TLN8489YGY81","3S829FDFT2NBOHQMM1CIOU0HZYXDXL","","281.1000000014901","img/land1.png","74","282","1","1","false","2","0.8,0.2,0.2,0.2,0.8,0.2,0.2,0.2,0.8","",""
"","html-keyboard-response","201","126701","0.0-295.0","3A1COHJ8NKH47GSARROIOZUA4TXH8F","A2TLN8489YGY81","3S829FDFT2NBOHQMM1CIOU0HZYXDXL","","null","<img src=""img/land1.png"" style=""width:200px; border:14px solid green;"">","null","","","","","","","",""
"","image-keyboard-response","202","127587","0.0-297.0","3A1COHJ8NKH47GSARROIOZUA4TXH8F","A2TLN8489YGY81","3S829FDFT2NBOHQMM1CIOU0HZYXDXL","","885.2999999970198","img/land7.png","74","886.1000000014901","1","1","false","1","0.8,0.2,0.2,0.2,0.8,0.2,0.2,0.2,0.8","",""
"","html-keyboard-response","203","127889","0.0-298.0","3A1COHJ8NKH47GSARROIOZUA4TXH8F","A2TLN8489YGY81","3S829FDFT2NBOHQMM1CIOU0HZYXDXL","","null","<img src=""img/land7.png"" style=""width:200px; border:14px solid green;"">","null","","","","","","","",""
"","image-keyboard-response","204","128316","0.0-300.0","3A1COHJ8NKH47GSARROIOZUA4TXH8F","A2TLN8489YGY81","3S829FDFT2NBOHQMM1CIOU0HZYXDXL","","425.79999999701977","img/land7.png","74","426.59999999403954","1","1","false","1","0.8,0.2,0.2,0.2,0.8,0.2,0.2,0.2,0.8","",""
"","html-keyboard-response","205","128617","0.0-301.0","3A1COHJ8NKH47GSARROIOZUA4TXH8F","A2TLN8489YGY81","3S829FDFT2NBOHQMM1CIOU0HZYXDXL","","null","<img src=""img/land7.png"" style=""width:200px; border:14px solid green;"">","null","","","","","","","",""
"","image-keyboard-response","206","128845","0.0-303.0","3A1COHJ8NKH47GSARROIOZUA4TXH8F","A2TLN8489YGY81","3S829FDFT2NBOHQMM1CIOU0HZYXDXL","","227","img/land1.png","74","227.80000000447035","1","1","false","2","0.8,0.2,0.2,0.2,0.8,0.2,0.2,0.2,0.8","",""
"","html-keyboard-response","207","129147","0.0-304.0","3A1COHJ8NKH47GSARROIOZUA4TXH8F","A2TLN8489YGY81","3S829FDFT2NBOHQMM1CIOU0HZYXDXL","","null","<img src=""img/land1.png"" style=""width:200px; border:14px solid green;"">","null","","","","","","","",""
"","image-keyboard-response","208","130076","0.0-306.0","3A1COHJ8NKH47GSARROIOZUA4TXH8F","A2TLN8489YGY81","3S829FDFT2NBOHQMM1CIOU0HZYXDXL","","927.7999999970198","img/land5.png","76","928.6999999955297","3","1","false","3","0.8,0.2,0.2,0.2,0.8,0.2,0.2,0.2,0.8","",""
"","html-keyboard-response","209","130378","0.0-307.0","3A1COHJ8NKH47GSARROIOZUA4TXH8F","A2TLN8489YGY81","3S829FDFT2NBOHQMM1CIOU0HZYXDXL","","null","<img src=""img/land5.png"" style=""width:200px; border:14px solid green;"">","null","","","","","","","",""
"","image-keyboard-response","210","130709","0.0-309.0","3A1COHJ8NKH47GSARROIOZUA4TXH8F","A2TLN8489YGY81","3S829FDFT2NBOHQMM1CIOU0HZYXDXL","","329.1000000014901","img/land5.png","76","330.20000000298023","3","0","false","3","0.8,0.2,0.2,0.2,0.8,0.2,0.2,0.2,0.8","",""
"","html-keyboard-response","211","131010","0.0-310.0","3A1COHJ8NKH47GSARROIOZUA4TXH8F","A2TLN8489YGY81","3S829FDFT2NBOHQMM1CIOU0HZYXDXL","","null","<img src=""img/land5.png"" style=""width:200px;border:14px solid red;"">","null","","","","","","","",""
"","image-keyboard-response","212","131732","0.0-312.0","3A1COHJ8NKH47GSARROIOZUA4TXH8F","A2TLN8489YGY81","3S829FDFT2NBOHQMM1CIOU0HZYXDXL","","720.3000000044703","img/land7.png","75","721.3000000044703","2","0","false","1","0.8,0.2,0.2,0.2,0.8,0.2,0.2,0.2,0.8","",""
"","html-keyboard-response","213","132034","0.0-313.0","3A1COHJ8NKH47GSARROIOZUA4TXH8F","A2TLN8489YGY81","3S829FDFT2NBOHQMM1CIOU0HZYXDXL","","null","<img src=""img/land7.png"" style=""width:200px;border:14px solid red;"">","null","","","","","","","",""
"","image-keyboard-response","214","132779","0.0-315.0","3A1COHJ8NKH47GSARROIOZUA4TXH8F","A2TLN8489YGY81","3S829FDFT2NBOHQMM1CIOU0HZYXDXL","","744.7999999970198","img/land5.png","76","745.5999999940395","3","1","false","3","0.8,0.2,0.2,0.2,0.8,0.2,0.2,0.2,0.8","",""
"","html-keyboard-response","215","133081","0.0-316.0","3A1COHJ8NKH47GSARROIOZUA4TXH8F","A2TLN8489YGY81","3S829FDFT2NBOHQMM1CIOU0HZYXDXL","","null","<img src=""img/land5.png"" style=""width:200px; border:14px solid green;"">","null","","","","","","","",""
"","image-keyboard-response","216","133712","0.0-318.0","3A1COHJ8NKH47GSARROIOZUA4TXH8F","A2TLN8489YGY81","3S829FDFT2NBOHQMM1CIOU0HZYXDXL","","629.2999999970198","img/land7.png","74","630.2999999970198","1","1","false","1","0.8,0.2,0.2,0.2,0.8,0.2,0.2,0.2,0.8","",""
"","html-keyboard-response","217","134029","0.0-319.0","3A1COHJ8NKH47GSARROIOZUA4TXH8F","A2TLN8489YGY81","3S829FDFT2NBOHQMM1CIOU0HZYXDXL","","null","<img src=""img/land7.png"" style=""width:200px; border:14px solid green;"">","null","","","","","","","",""
"","image-keyboard-response","218","134880","0.0-321.0","3A1COHJ8NKH47GSARROIOZUA4TXH8F","A2TLN8489YGY81","3S829FDFT2NBOHQMM1CIOU0HZYXDXL","","849.4000000059605","img/land5.png","76","850.5","3","1","false","3","0.8,0.2,0.2,0.2,0.8,0.2,0.2,0.2,0.8","",""
"","html-keyboard-response","219","135182","0.0-322.0","3A1COHJ8NKH47GSARROIOZUA4TXH8F","A2TLN8489YGY81","3S829FDFT2NBOHQMM1CIOU0HZYXDXL","","null","<img src=""img/land5.png"" style=""width:200px; border:14px solid green;"">","null","","","","","","","",""
"","image-keyboard-response","220","135654","0.0-324.0","3A1COHJ8NKH47GSARROIOZUA4TXH8F","A2TLN8489YGY81","3S829FDFT2NBOHQMM1CIOU0HZYXDXL","","470.8999999985099","img/land7.png","74","471.69999999552965","1","1","false","1","0.8,0.2,0.2,0.2,0.8,0.2,0.2,0.2,0.8","",""
"","html-keyboard-response","221","135956","0.0-325.0","3A1COHJ8NKH47GSARROIOZUA4TXH8F","A2TLN8489YGY81","3S829FDFT2NBOHQMM1CIOU0HZYXDXL","","null","<img src=""img/land7.png"" style=""width:200px; border:14px solid green;"">","null","","","","","","","",""
"","image-keyboard-response","222","136594","0.0-327.0","3A1COHJ8NKH47GSARROIOZUA4TXH8F","A2TLN8489YGY81","3S829FDFT2NBOHQMM1CIOU0HZYXDXL","","637","img/land7.png","74","638","1","1","false","1","0.8,0.2,0.2,0.2,0.8,0.2,0.2,0.2,0.8","",""
"","html-keyboard-response","223","136897","0.0-328.0","3A1COHJ8NKH47GSARROIOZUA4TXH8F","A2TLN8489YGY81","3S829FDFT2NBOHQMM1CIOU0HZYXDXL","","null","<img src=""img/land7.png"" style=""width:200px; border:14px solid green;"">","null","","","","","","","",""
"","image-keyboard-response","224","137526","0.0-330.0","3A1COHJ8NKH47GSARROIOZUA4TXH8F","A2TLN8489YGY81","3S829FDFT2NBOHQMM1CIOU0HZYXDXL","","628.1000000014901","img/land1.png","75","629.0999999940395","2","0","false","2","0.8,0.2,0.2,0.2,0.8,0.2,0.2,0.2,0.8","",""
"","html-keyboard-response","225","137828","0.0-331.0","3A1COHJ8NKH47GSARROIOZUA4TXH8F","A2TLN8489YGY81","3S829FDFT2NBOHQMM1CIOU0HZYXDXL","","null","<img src=""img/land1.png"" style=""width:200px;border:14px solid red;"">","null","","","","","","","",""
"","image-keyboard-response","226","138830","0.0-333.0","3A1COHJ8NKH47GSARROIOZUA4TXH8F","A2TLN8489YGY81","3S829FDFT2NBOHQMM1CIOU0HZYXDXL","","","img/land7.png","","1001.8999999985099","-1","0","true","1","0.8,0.2,0.2,0.2,0.8,0.2,0.2,0.2,0.8","",""
"","html-keyboard-response","227","139132","0.0-334.0","3A1COHJ8NKH47GSARROIOZUA4TXH8F","A2TLN8489YGY81","3S829FDFT2NBOHQMM1CIOU0HZYXDXL","","null","<img src=""img/land7.png"" style=""width:200px;border:14px solid red;"">","null","","","","","","","",""
"","html-keyboard-response","228","140006","0.0-335.0-0.0","3A1COHJ8NKH47GSARROIOZUA4TXH8F","A2TLN8489YGY81","3S829FDFT2NBOHQMM1CIOU0HZYXDXL","","","","","","","","","","","",""
"","image-keyboard-response","229","141009","0.0-336.0","3A1COHJ8NKH47GSARROIOZUA4TXH8F","A2TLN8489YGY81","3S829FDFT2NBOHQMM1CIOU0HZYXDXL","","","img/land5.png","","1002.5999999940395","-1","0","true","3","0.8,0.2,0.2,0.2,0.8,0.2,0.2,0.2,0.8","",""
"","html-keyboard-response","230","141312","0.0-337.0","3A1COHJ8NKH47GSARROIOZUA4TXH8F","A2TLN8489YGY81","3S829FDFT2NBOHQMM1CIOU0HZYXDXL","","null","<img src=""img/land5.png"" style=""width:200px;border:14px solid red;"">","null","","","","","","","",""
"","html-keyboard-response","231","143405","0.0-338.0-0.0","3A1COHJ8NKH47GSARROIOZUA4TXH8F","A2TLN8489YGY81","3S829FDFT2NBOHQMM1CIOU0HZYXDXL","","","","","","","","","","","",""
"","image-keyboard-response","232","144013","0.0-339.0","3A1COHJ8NKH47GSARROIOZUA4TXH8F","A2TLN8489YGY81","3S829FDFT2NBOHQMM1CIOU0HZYXDXL","","605.8000000044703","img/land5.png","76","607.2999999970198","3","0","false","3","0.8,0.2,0.2,0.2,0.8,0.2,0.2,0.2,0.8","",""
"","html-keyboard-response","233","144316","0.0-340.0","3A1COHJ8NKH47GSARROIOZUA4TXH8F","A2TLN8489YGY81","3S829FDFT2NBOHQMM1CIOU0HZYXDXL","","null","<img src=""img/land5.png"" style=""width:200px;border:14px solid red;"">","null","","","","","","","",""
"","image-keyboard-response","234","144753","0.0-342.0","3A1COHJ8NKH47GSARROIOZUA4TXH8F","A2TLN8489YGY81","3S829FDFT2NBOHQMM1CIOU0HZYXDXL","","436","img/land5.png","75","436.8999999985099","2","0","false","3","0.8,0.2,0.2,0.2,0.8,0.2,0.2,0.2,0.8","",""
"","html-keyboard-response","235","145055","0.0-343.0","3A1COHJ8NKH47GSARROIOZUA4TXH8F","A2TLN8489YGY81","3S829FDFT2NBOHQMM1CIOU0HZYXDXL","","null","<img src=""img/land5.png"" style=""width:200px;border:14px solid red;"">","null","","","","","","","",""
"","image-keyboard-response","236","145975","0.0-345.0","3A1COHJ8NKH47GSARROIOZUA4TXH8F","A2TLN8489YGY81","3S829FDFT2NBOHQMM1CIOU0HZYXDXL","","918.8000000044703","img/land7.png","74","919.8000000044703","1","1","false","1","0.8,0.2,0.2,0.2,0.8,0.2,0.2,0.2,0.8","",""
"","html-keyboard-response","237","146277","0.0-346.0","3A1COHJ8NKH47GSARROIOZUA4TXH8F","A2TLN8489YGY81","3S829FDFT2NBOHQMM1CIOU0HZYXDXL","","null","<img src=""img/land7.png"" style=""width:200px; border:14px solid green;"">","null","","","","","","","",""
"","image-keyboard-response","238","147247","0.0-348.0","3A1COHJ8NKH47GSARROIOZUA4TXH8F","A2TLN8489YGY81","3S829FDFT2NBOHQMM1CIOU0HZYXDXL","","968.5","img/land5.png","76","969.6999999955297","3","0","false","3","0.8,0.2,0.2,0.2,0.8,0.2,0.2,0.2,0.8","",""
"","html-keyboard-response","239","147549","0.0-349.0","3A1COHJ8NKH47GSARROIOZUA4TXH8F","A2TLN8489YGY81","3S829FDFT2NBOHQMM1CIOU0HZYXDXL","","null","<img src=""img/land5.png"" style=""width:200px;border:14px solid red;"">","null","","","","","","","",""
"","image-keyboard-response","240","148241","0.0-351.0","3A1COHJ8NKH47GSARROIOZUA4TXH8F","A2TLN8489YGY81","3S829FDFT2NBOHQMM1CIOU0HZYXDXL","","690.5","img/land1.png","75","691.6000000014901","2","1","false","2","0.8,0.2,0.2,0.2,0.8,0.2,0.2,0.2,0.8","",""
"","html-keyboard-response","241","148544","0.0-352.0","3A1COHJ8NKH47GSARROIOZUA4TXH8F","A2TLN8489YGY81","3S829FDFT2NBOHQMM1CIOU0HZYXDXL","","null","<img src=""img/land1.png"" style=""width:200px; border:14px solid green;"">","null","","","","","","","",""
"","image-keyboard-response","242","149306","0.0-354.0","3A1COHJ8NKH47GSARROIOZUA4TXH8F","A2TLN8489YGY81","3S829FDFT2NBOHQMM1CIOU0HZYXDXL","","760.6000000014901","img/land7.png","76","761.6000000014901","3","0","false","1","0.8,0.2,0.2,0.2,0.8,0.2,0.2,0.2,0.8","",""
"","html-keyboard-response","243","149607","0.0-355.0","3A1COHJ8NKH47GSARROIOZUA4TXH8F","A2TLN8489YGY81","3S829FDFT2NBOHQMM1CIOU0HZYXDXL","","null","<img src=""img/land7.png"" style=""width:200px;border:14px solid red;"">","null","","","","","","","",""
"","image-keyboard-response","244","150030","0.0-357.0","3A1COHJ8NKH47GSARROIOZUA4TXH8F","A2TLN8489YGY81","3S829FDFT2NBOHQMM1CIOU0HZYXDXL","","421.6000000014901","img/land7.png","75","422.5","2","0","false","1","0.8,0.2,0.2,0.2,0.8,0.2,0.2,0.2,0.8","",""
"","html-keyboard-response","245","150332","0.0-358.0","3A1COHJ8NKH47GSARROIOZUA4TXH8F","A2TLN8489YGY81","3S829FDFT2NBOHQMM1CIOU0HZYXDXL","","null","<img src=""img/land7.png"" style=""width:200px;border:14px solid red;"">","null","","","","","","","",""
"","image-keyboard-response","246","150539","0.0-360.0","3A1COHJ8NKH47GSARROIOZUA4TXH8F","A2TLN8489YGY81","3S829FDFT2NBOHQMM1CIOU0HZYXDXL","","206.10000000149012","img/land7.png","74","207","1","1","false","1","0.8,0.2,0.2,0.2,0.8,0.2,0.2,0.2,0.8","",""
"","html-keyboard-response","247","150841","0.0-361.0","3A1COHJ8NKH47GSARROIOZUA4TXH8F","A2TLN8489YGY81","3S829FDFT2NBOHQMM1CIOU0HZYXDXL","","null","<img src=""img/land7.png"" style=""width:200px; border:14px solid green;"">","null","","","","","","","",""
"","image-keyboard-response","248","151670","0.0-363.0","3A1COHJ8NKH47GSARROIOZUA4TXH8F","A2TLN8489YGY81","3S829FDFT2NBOHQMM1CIOU0HZYXDXL","","827.7999999970198","img/land1.png","75","829.5","2","1","false","2","0.8,0.2,0.2,0.2,0.8,0.2,0.2,0.2,0.8","",""
"","html-keyboard-response","249","151974","0.0-364.0","3A1COHJ8NKH47GSARROIOZUA4TXH8F","A2TLN8489YGY81","3S829FDFT2NBOHQMM1CIOU0HZYXDXL","","null","<img src=""img/land1.png"" style=""width:200px; border:14px solid green;"">","null","","","","","","","",""
"","image-keyboard-response","250","152900","0.0-366.0","3A1COHJ8NKH47GSARROIOZUA4TXH8F","A2TLN8489YGY81","3S829FDFT2NBOHQMM1CIOU0HZYXDXL","","925","img/land5.png","74","926.0999999940395","1","0","false","3","0.8,0.2,0.2,0.2,0.8,0.2,0.2,0.2,0.8","",""
"","html-keyboard-response","251","153203","0.0-367.0","3A1COHJ8NKH47GSARROIOZUA4TXH8F","A2TLN8489YGY81","3S829FDFT2NBOHQMM1CIOU0HZYXDXL","","null","<img src=""img/land5.png"" style=""width:200px;border:14px solid red;"">","null","","","","","","","",""
"","image-keyboard-response","252","153691","0.0-369.0","3A1COHJ8NKH47GSARROIOZUA4TXH8F","A2TLN8489YGY81","3S829FDFT2NBOHQMM1CIOU0HZYXDXL","","487.19999999552965","img/land5.png","76","488.20000000298023","3","0","false","3","0.8,0.2,0.2,0.2,0.8,0.2,0.2,0.2,0.8","",""
"","html-keyboard-response","253","153993","0.0-370.0","3A1COHJ8NKH47GSARROIOZUA4TXH8F","A2TLN8489YGY81","3S829FDFT2NBOHQMM1CIOU0HZYXDXL","","null","<img src=""img/land5.png"" style=""width:200px;border:14px solid red;"">","null","","","","","","","",""
"","image-keyboard-response","254","154777","0.0-372.0","3A1COHJ8NKH47GSARROIOZUA4TXH8F","A2TLN8489YGY81","3S829FDFT2NBOHQMM1CIOU0HZYXDXL","","783.2999999970198","img/land1.png","74","784.1999999955297","1","0","false","2","0.8,0.2,0.2,0.2,0.8,0.2,0.2,0.2,0.8","",""
"","html-keyboard-response","255","155095","0.0-373.0","3A1COHJ8NKH47GSARROIOZUA4TXH8F","A2TLN8489YGY81","3S829FDFT2NBOHQMM1CIOU0HZYXDXL","","null","<img src=""img/land1.png"" style=""width:200px;border:14px solid red;"">","null","","","","","","","",""
"","image-keyboard-response","256","155339","0.0-375.0","3A1COHJ8NKH47GSARROIOZUA4TXH8F","A2TLN8489YGY81","3S829FDFT2NBOHQMM1CIOU0HZYXDXL","","243.60000000149012","img/land5.png","75","244.5","2","0","false","3","0.8,0.2,0.2,0.2,0.8,0.2,0.2,0.2,0.8","",""
"","html-keyboard-response","257","155642","0.0-376.0","3A1COHJ8NKH47GSARROIOZUA4TXH8F","A2TLN8489YGY81","3S829FDFT2NBOHQMM1CIOU0HZYXDXL","","null","<img src=""img/land5.png"" style=""width:200px;border:14px solid red;"">","null","","","","","","","",""
"","image-keyboard-response","258","156151","0.0-378.0","3A1COHJ8NKH47GSARROIOZUA4TXH8F","A2TLN8489YGY81","3S829FDFT2NBOHQMM1CIOU0HZYXDXL","","507.8999999985099","img/land1.png","76","509","3","1","false","2","0.8,0.2,0.2,0.2,0.8,0.2,0.2,0.2,0.8","",""
"","html-keyboard-response","259","156454","0.0-379.0","3A1COHJ8NKH47GSARROIOZUA4TXH8F","A2TLN8489YGY81","3S829FDFT2NBOHQMM1CIOU0HZYXDXL","","null","<img src=""img/land1.png"" style=""width:200px; border:14px solid green;"">","null","","","","","","","",""
"","image-keyboard-response","260","157378","0.0-381.0","3A1COHJ8NKH47GSARROIOZUA4TXH8F","A2TLN8489YGY81","3S829FDFT2NBOHQMM1CIOU0HZYXDXL","","922.3999999985099","img/land7.png","74","923.5","1","1","false","1","0.8,0.2,0.2,0.2,0.8,0.2,0.2,0.2,0.8","",""
"","html-keyboard-response","261","157680","0.0-382.0","3A1COHJ8NKH47GSARROIOZUA4TXH8F","A2TLN8489YGY81","3S829FDFT2NBOHQMM1CIOU0HZYXDXL","","null","<img src=""img/land7.png"" style=""width:200px; border:14px solid green;"">","null","","","","","","","",""
"","image-keyboard-response","262","158459","0.0-384.0","3A1COHJ8NKH47GSARROIOZUA4TXH8F","A2TLN8489YGY81","3S829FDFT2NBOHQMM1CIOU0HZYXDXL","","777.6000000014901","img/land5.png","75","778.5","2","0","false","3","0.8,0.2,0.2,0.2,0.8,0.2,0.2,0.2,0.8","",""
"","html-keyboard-response","263","158761","0.0-385.0","3A1COHJ8NKH47GSARROIOZUA4TXH8F","A2TLN8489YGY81","3S829FDFT2NBOHQMM1CIOU0HZYXDXL","","null","<img src=""img/land5.png"" style=""width:200px;border:14px solid red;"">","null","","","","","","","",""
"","image-keyboard-response","264","159349","0.0-387.0","3A1COHJ8NKH47GSARROIOZUA4TXH8F","A2TLN8489YGY81","3S829FDFT2NBOHQMM1CIOU0HZYXDXL","","586.3999999985099","img/land1.png","76","587.3000000044703","3","1","false","2","0.8,0.2,0.2,0.2,0.8,0.2,0.2,0.2,0.8","",""
"","html-keyboard-response","265","159651","0.0-388.0","3A1COHJ8NKH47GSARROIOZUA4TXH8F","A2TLN8489YGY81","3S829FDFT2NBOHQMM1CIOU0HZYXDXL","","null","<img src=""img/land1.png"" style=""width:200px; border:14px solid green;"">","null","","","","","","","",""
"","image-keyboard-response","266","160140","0.0-390.0","3A1COHJ8NKH47GSARROIOZUA4TXH8F","A2TLN8489YGY81","3S829FDFT2NBOHQMM1CIOU0HZYXDXL","","487.6000000014901","img/land5.png","76","488.6000000014901","3","1","false","3","0.8,0.2,0.2,0.2,0.8,0.2,0.2,0.2,0.8","",""
"","html-keyboard-response","267","160442","0.0-391.0","3A1COHJ8NKH47GSARROIOZUA4TXH8F","A2TLN8489YGY81","3S829FDFT2NBOHQMM1CIOU0HZYXDXL","","null","<img src=""img/land5.png"" style=""width:200px; border:14px solid green;"">","null","","","","","","","",""
"","image-keyboard-response","268","161051","0.0-393.0","3A1COHJ8NKH47GSARROIOZUA4TXH8F","A2TLN8489YGY81","3S829FDFT2NBOHQMM1CIOU0HZYXDXL","","607.7999999970198","img/land1.png","76","608.7999999970198","3","0","false","2","0.8,0.2,0.2,0.2,0.8,0.2,0.2,0.2,0.8","",""
"","html-keyboard-response","269","161352","0.0-394.0","3A1COHJ8NKH47GSARROIOZUA4TXH8F","A2TLN8489YGY81","3S829FDFT2NBOHQMM1CIOU0HZYXDXL","","null","<img src=""img/land1.png"" style=""width:200px;border:14px solid red;"">","null","","","","","","","",""
"","image-keyboard-response","270","162144","0.0-396.0","3A1COHJ8NKH47GSARROIOZUA4TXH8F","A2TLN8489YGY81","3S829FDFT2NBOHQMM1CIOU0HZYXDXL","","791.1000000014901","img/land7.png","74","792.1000000014901","1","1","false","1","0.8,0.2,0.2,0.2,0.8,0.2,0.2,0.2,0.8","",""
"","html-keyboard-response","271","162447","0.0-397.0","3A1COHJ8NKH47GSARROIOZUA4TXH8F","A2TLN8489YGY81","3S829FDFT2NBOHQMM1CIOU0HZYXDXL","","null","<img src=""img/land7.png"" style=""width:200px; border:14px solid green;"">","null","","","","","","","",""
"","image-keyboard-response","272","162802","0.0-399.0","3A1COHJ8NKH47GSARROIOZUA4TXH8F","A2TLN8489YGY81","3S829FDFT2NBOHQMM1CIOU0HZYXDXL","","353.8999999985099","img/land7.png","74","355","1","1","false","1","0.8,0.2,0.2,0.2,0.8,0.2,0.2,0.2,0.8","",""
"","html-keyboard-response","273","163104","0.0-400.0","3A1COHJ8NKH47GSARROIOZUA4TXH8F","A2TLN8489YGY81","3S829FDFT2NBOHQMM1CIOU0HZYXDXL","","null","<img src=""img/land7.png"" style=""width:200px; border:14px solid green;"">","null","","","","","","","",""
"","image-keyboard-response","274","163838","0.0-402.0","3A1COHJ8NKH47GSARROIOZUA4TXH8F","A2TLN8489YGY81","3S829FDFT2NBOHQMM1CIOU0HZYXDXL","","732.5","img/land1.png","75","733.1999999955297","2","1","false","2","0.8,0.2,0.2,0.2,0.8,0.2,0.2,0.2,0.8","",""
"","html-keyboard-response","275","164152","0.0-403.0","3A1COHJ8NKH47GSARROIOZUA4TXH8F","A2TLN8489YGY81","3S829FDFT2NBOHQMM1CIOU0HZYXDXL","","null","<img src=""img/land1.png"" style=""width:200px; border:14px solid green;"">","null","","","","","","","",""
"","image-keyboard-response","276","165027","0.0-405.0","3A1COHJ8NKH47GSARROIOZUA4TXH8F","A2TLN8489YGY81","3S829FDFT2NBOHQMM1CIOU0HZYXDXL","","874.1000000014901","img/land5.png","76","874.8000000044703","3","1","false","3","0.8,0.2,0.2,0.2,0.8,0.2,0.2,0.2,0.8","",""
"","html-keyboard-response","277","165328","0.0-406.0","3A1COHJ8NKH47GSARROIOZUA4TXH8F","A2TLN8489YGY81","3S829FDFT2NBOHQMM1CIOU0HZYXDXL","","null","<img src=""img/land5.png"" style=""width:200px; border:14px solid green;"">","null","","","","","","","",""
"","image-keyboard-response","278","165668","0.0-408.0","3A1COHJ8NKH47GSARROIOZUA4TXH8F","A2TLN8489YGY81","3S829FDFT2NBOHQMM1CIOU0HZYXDXL","","338.70000000298023","img/land5.png","76","339.70000000298023","3","1","false","3","0.8,0.2,0.2,0.2,0.8,0.2,0.2,0.2,0.8","",""
"","html-keyboard-response","279","165970","0.0-409.0","3A1COHJ8NKH47GSARROIOZUA4TXH8F","A2TLN8489YGY81","3S829FDFT2NBOHQMM1CIOU0HZYXDXL","","null","<img src=""img/land5.png"" style=""width:200px; border:14px solid green;"">","null","","","","","","","",""
"","image-keyboard-response","280","166592","0.0-411.0","3A1COHJ8NKH47GSARROIOZUA4TXH8F","A2TLN8489YGY81","3S829FDFT2NBOHQMM1CIOU0HZYXDXL","","620.6000000014901","img/land7.png","74","621.5","1","0","false","1","0.8,0.2,0.2,0.2,0.8,0.2,0.2,0.2,0.8","",""
"","html-keyboard-response","281","166894","0.0-412.0","3A1COHJ8NKH47GSARROIOZUA4TXH8F","A2TLN8489YGY81","3S829FDFT2NBOHQMM1CIOU0HZYXDXL","","null","<img src=""img/land7.png"" style=""width:200px;border:14px solid red;"">","null","","","","","","","",""
"","image-keyboard-response","282","167191","0.0-414.0","3A1COHJ8NKH47GSARROIOZUA4TXH8F","A2TLN8489YGY81","3S829FDFT2NBOHQMM1CIOU0HZYXDXL","","295.8999999985099","img/land7.png","74","296.90000000596046","1","0","false","1","0.8,0.2,0.2,0.2,0.8,0.2,0.2,0.2,0.8","",""
"","html-keyboard-response","283","167494","0.0-415.0","3A1COHJ8NKH47GSARROIOZUA4TXH8F","A2TLN8489YGY81","3S829FDFT2NBOHQMM1CIOU0HZYXDXL","","null","<img src=""img/land7.png"" style=""width:200px;border:14px solid red;"">","null","","","","","","","",""
"","image-keyboard-response","284","167775","0.0-417.0","3A1COHJ8NKH47GSARROIOZUA4TXH8F","A2TLN8489YGY81","3S829FDFT2NBOHQMM1CIOU0HZYXDXL","","280.20000000298023","img/land7.png","74","281.19999999552965","1","1","false","1","0.8,0.2,0.2,0.2,0.8,0.2,0.2,0.2,0.8","",""
"","html-keyboard-response","285","168077","0.0-418.0","3A1COHJ8NKH47GSARROIOZUA4TXH8F","A2TLN8489YGY81","3S829FDFT2NBOHQMM1CIOU0HZYXDXL","","null","<img src=""img/land7.png"" style=""width:200px; border:14px solid green;"">","null","","","","","","","",""
"","image-keyboard-response","286","168483","0.0-420.0","3A1COHJ8NKH47GSARROIOZUA4TXH8F","A2TLN8489YGY81","3S829FDFT2NBOHQMM1CIOU0HZYXDXL","","404.20000000298023","img/land7.png","74","405.3999999985099","1","1","false","1","0.8,0.2,0.2,0.2,0.8,0.2,0.2,0.2,0.8","",""
"","html-keyboard-response","287","168785","0.0-421.0","3A1COHJ8NKH47GSARROIOZUA4TXH8F","A2TLN8489YGY81","3S829FDFT2NBOHQMM1CIOU0HZYXDXL","","null","<img src=""img/land7.png"" style=""width:200px; border:14px solid green;"">","null","","","","","","","",""
"","image-keyboard-response","288","169091","0.0-423.0","3A1COHJ8NKH47GSARROIOZUA4TXH8F","A2TLN8489YGY81","3S829FDFT2NBOHQMM1CIOU0HZYXDXL","","305.29999999701977","img/land7.png","74","306.30000000447035","1","1","false","1","0.8,0.2,0.2,0.2,0.8,0.2,0.2,0.2,0.8","",""
"","html-keyboard-response","289","169392","0.0-424.0","3A1COHJ8NKH47GSARROIOZUA4TXH8F","A2TLN8489YGY81","3S829FDFT2NBOHQMM1CIOU0HZYXDXL","","null","<img src=""img/land7.png"" style=""width:200px; border:14px solid green;"">","null","","","","","","","",""
"","image-keyboard-response","290","169683","0.0-426.0","3A1COHJ8NKH47GSARROIOZUA4TXH8F","A2TLN8489YGY81","3S829FDFT2NBOHQMM1CIOU0HZYXDXL","","289.3999999985099","img/land7.png","74","290.30000000447035","1","1","false","1","0.8,0.2,0.2,0.2,0.8,0.2,0.2,0.2,0.8","",""
"","html-keyboard-response","291","169985","0.0-427.0","3A1COHJ8NKH47GSARROIOZUA4TXH8F","A2TLN8489YGY81","3S829FDFT2NBOHQMM1CIOU0HZYXDXL","","null","<img src=""img/land7.png"" style=""width:200px; border:14px solid green;"">","null","","","","","","","",""
"","image-keyboard-response","292","170723","0.0-429.0","3A1COHJ8NKH47GSARROIOZUA4TXH8F","A2TLN8489YGY81","3S829FDFT2NBOHQMM1CIOU0HZYXDXL","","736.5","img/land1.png","75","737.3000000044703","2","1","false","2","0.8,0.2,0.2,0.2,0.8,0.2,0.2,0.2,0.8","",""
"","html-keyboard-response","293","171024","0.0-430.0","3A1COHJ8NKH47GSARROIOZUA4TXH8F","A2TLN8489YGY81","3S829FDFT2NBOHQMM1CIOU0HZYXDXL","","null","<img src=""img/land1.png"" style=""width:200px; border:14px solid green;"">","null","","","","","","","",""
"","image-keyboard-response","294","171360","0.0-432.0","3A1COHJ8NKH47GSARROIOZUA4TXH8F","A2TLN8489YGY81","3S829FDFT2NBOHQMM1CIOU0HZYXDXL","","335.20000000298023","img/land1.png","75","336.1000000014901","2","1","false","2","0.8,0.2,0.2,0.2,0.8,0.2,0.2,0.2,0.8","",""
"","html-keyboard-response","295","171662","0.0-433.0","3A1COHJ8NKH47GSARROIOZUA4TXH8F","A2TLN8489YGY81","3S829FDFT2NBOHQMM1CIOU0HZYXDXL","","null","<img src=""img/land1.png"" style=""width:200px; border:14px solid green;"">","null","","","","","","","",""
"","image-keyboard-response","296","171985","0.0-435.0","3A1COHJ8NKH47GSARROIOZUA4TXH8F","A2TLN8489YGY81","3S829FDFT2NBOHQMM1CIOU0HZYXDXL","","321.80000000447035","img/land1.png","75","322.70000000298023","2","1","false","2","0.8,0.2,0.2,0.2,0.8,0.2,0.2,0.2,0.8","",""
"","html-keyboard-response","297","172287","0.0-436.0","3A1COHJ8NKH47GSARROIOZUA4TXH8F","A2TLN8489YGY81","3S829FDFT2NBOHQMM1CIOU0HZYXDXL","","null","<img src=""img/land1.png"" style=""width:200px; border:14px solid green;"">","null","","","","","","","",""
"","image-keyboard-response","298","172527","0.0-438.0","3A1COHJ8NKH47GSARROIOZUA4TXH8F","A2TLN8489YGY81","3S829FDFT2NBOHQMM1CIOU0HZYXDXL","","238.20000000298023","img/land5.png","75","239.19999999552965","2","0","false","3","0.8,0.2,0.2,0.2,0.8,0.2,0.2,0.2,0.8","",""
"","html-keyboard-response","299","172828","0.0-439.0","3A1COHJ8NKH47GSARROIOZUA4TXH8F","A2TLN8489YGY81","3S829FDFT2NBOHQMM1CIOU0HZYXDXL","","null","<img src=""img/land5.png"" style=""width:200px;border:14px solid red;"">","null","","","","","","","",""
"","image-keyboard-response","300","173658","0.0-441.0","3A1COHJ8NKH47GSARROIOZUA4TXH8F","A2TLN8489YGY81","3S829FDFT2NBOHQMM1CIOU0HZYXDXL","","828.1000000014901","img/land7.png","74","829.1000000014901","1","1","false","1","0.8,0.2,0.2,0.2,0.8,0.2,0.2,0.2,0.8","",""
"","html-keyboard-response","301","173959","0.0-442.0","3A1COHJ8NKH47GSARROIOZUA4TXH8F","A2TLN8489YGY81","3S829FDFT2NBOHQMM1CIOU0HZYXDXL","","null","<img src=""img/land7.png"" style=""width:200px; border:14px solid green;"">","null","","","","","","","",""
"","image-keyboard-response","302","174531","0.0-444.0","3A1COHJ8NKH47GSARROIOZUA4TXH8F","A2TLN8489YGY81","3S829FDFT2NBOHQMM1CIOU0HZYXDXL","","570.7000000029802","img/land5.png","76","571.6000000014901","3","1","false","3","0.8,0.2,0.2,0.2,0.8,0.2,0.2,0.2,0.8","",""
"","html-keyboard-response","303","174834","0.0-445.0","3A1COHJ8NKH47GSARROIOZUA4TXH8F","A2TLN8489YGY81","3S829FDFT2NBOHQMM1CIOU0HZYXDXL","","null","<img src=""img/land5.png"" style=""width:200px; border:14px solid green;"">","null","","","","","","","",""
"","image-keyboard-response","304","175111","0.0-447.0","3A1COHJ8NKH47GSARROIOZUA4TXH8F","A2TLN8489YGY81","3S829FDFT2NBOHQMM1CIOU0HZYXDXL","","276","img/land5.png","76","276.90000000596046","3","1","false","3","0.8,0.2,0.2,0.2,0.8,0.2,0.2,0.2,0.8","",""
"","html-keyboard-response","305","175413","0.0-448.0","3A1COHJ8NKH47GSARROIOZUA4TXH8F","A2TLN8489YGY81","3S829FDFT2NBOHQMM1CIOU0HZYXDXL","","null","<img src=""img/land5.png"" style=""width:200px; border:14px solid green;"">","null","","","","","","","",""
"","image-keyboard-response","306","176084","0.0-450.0","3A1COHJ8NKH47GSARROIOZUA4TXH8F","A2TLN8489YGY81","3S829FDFT2NBOHQMM1CIOU0HZYXDXL","","669.7999999970198","img/land1.png","75","670.5","2","1","false","2","0.8,0.2,0.2,0.2,0.8,0.2,0.2,0.2,0.8","",""
"","html-keyboard-response","307","176386","0.0-451.0","3A1COHJ8NKH47GSARROIOZUA4TXH8F","A2TLN8489YGY81","3S829FDFT2NBOHQMM1CIOU0HZYXDXL","","null","<img src=""img/land1.png"" style=""width:200px; border:14px solid green;"">","null","","","","","","","",""
"","image-keyboard-response","308","176829","0.0-453.0","3A1COHJ8NKH47GSARROIOZUA4TXH8F","A2TLN8489YGY81","3S829FDFT2NBOHQMM1CIOU0HZYXDXL","","441.79999999701977","img/land1.png","75","442.79999999701977","2","1","false","2","0.8,0.2,0.2,0.2,0.8,0.2,0.2,0.2,0.8","",""
"","html-keyboard-response","309","177131","0.0-454.0","3A1COHJ8NKH47GSARROIOZUA4TXH8F","A2TLN8489YGY81","3S829FDFT2NBOHQMM1CIOU0HZYXDXL","","null","<img src=""img/land1.png"" style=""width:200px; border:14px solid green;"">","null","","","","","","","",""
"","image-keyboard-response","310","177425","0.0-456.0","3A1COHJ8NKH47GSARROIOZUA4TXH8F","A2TLN8489YGY81","3S829FDFT2NBOHQMM1CIOU0HZYXDXL","","293.1000000014901","img/land7.png","75","294","2","1","false","1","0.8,0.2,0.2,0.2,0.8,0.2,0.2,0.2,0.8","",""
"","html-keyboard-response","311","177727","0.0-457.0","3A1COHJ8NKH47GSARROIOZUA4TXH8F","A2TLN8489YGY81","3S829FDFT2NBOHQMM1CIOU0HZYXDXL","","null","<img src=""img/land7.png"" style=""width:200px; border:14px solid green;"">","null","","","","","","","",""
"","image-keyboard-response","312","178411","0.0-459.0","3A1COHJ8NKH47GSARROIOZUA4TXH8F","A2TLN8489YGY81","3S829FDFT2NBOHQMM1CIOU0HZYXDXL","","682.1999999955297","img/land1.png","75","683.2000000029802","2","1","false","2","0.8,0.2,0.2,0.2,0.8,0.2,0.2,0.2,0.8","",""
"","html-keyboard-response","313","178720","0.0-460.0","3A1COHJ8NKH47GSARROIOZUA4TXH8F","A2TLN8489YGY81","3S829FDFT2NBOHQMM1CIOU0HZYXDXL","","null","<img src=""img/land1.png"" style=""width:200px; border:14px solid green;"">","null","","","","","","","",""
"","image-keyboard-response","314","179492","0.0-462.0","3A1COHJ8NKH47GSARROIOZUA4TXH8F","A2TLN8489YGY81","3S829FDFT2NBOHQMM1CIOU0HZYXDXL","","771.3999999985099","img/land7.png","74","772.2999999970198","1","0","false","1","0.8,0.2,0.2,0.2,0.8,0.2,0.2,0.2,0.8","",""
"","html-keyboard-response","315","179795","0.0-463.0","3A1COHJ8NKH47GSARROIOZUA4TXH8F","A2TLN8489YGY81","3S829FDFT2NBOHQMM1CIOU0HZYXDXL","","null","<img src=""img/land7.png"" style=""width:200px;border:14px solid red;"">","null","","","","","","","",""
"","image-keyboard-response","316","180167","0.0-465.0","3A1COHJ8NKH47GSARROIOZUA4TXH8F","A2TLN8489YGY81","3S829FDFT2NBOHQMM1CIOU0HZYXDXL","","370.5","img/land1.png","74","371.3999999985099","1","0","false","2","0.8,0.2,0.2,0.2,0.8,0.2,0.2,0.2,0.8","",""
"","html-keyboard-response","317","180468","0.0-466.0","3A1COHJ8NKH47GSARROIOZUA4TXH8F","A2TLN8489YGY81","3S829FDFT2NBOHQMM1CIOU0HZYXDXL","","null","<img src=""img/land1.png"" style=""width:200px;border:14px solid red;"">","null","","","","","","","",""
"","image-keyboard-response","318","181206","0.0-468.0","3A1COHJ8NKH47GSARROIOZUA4TXH8F","A2TLN8489YGY81","3S829FDFT2NBOHQMM1CIOU0HZYXDXL","","737.2999999970198","img/land7.png","74","738.2000000029802","1","1","false","1","0.8,0.2,0.2,0.2,0.8,0.2,0.2,0.2,0.8","",""
"","html-keyboard-response","319","181509","0.0-469.0","3A1COHJ8NKH47GSARROIOZUA4TXH8F","A2TLN8489YGY81","3S829FDFT2NBOHQMM1CIOU0HZYXDXL","","null","<img src=""img/land7.png"" style=""width:200px; border:14px solid green;"">","null","","","","","","","",""
"","image-keyboard-response","320","182217","0.0-471.0","3A1COHJ8NKH47GSARROIOZUA4TXH8F","A2TLN8489YGY81","3S829FDFT2NBOHQMM1CIOU0HZYXDXL","","706.9000000059605","img/land5.png","76","708.1000000014901","3","0","false","3","0.8,0.2,0.2,0.2,0.8,0.2,0.2,0.2,0.8","",""
"","html-keyboard-response","321","182519","0.0-472.0","3A1COHJ8NKH47GSARROIOZUA4TXH8F","A2TLN8489YGY81","3S829FDFT2NBOHQMM1CIOU0HZYXDXL","","null","<img src=""img/land5.png"" style=""width:200px;border:14px solid red;"">","null","","","","","","","",""
"","image-keyboard-response","322","182867","0.0-474.0","3A1COHJ8NKH47GSARROIOZUA4TXH8F","A2TLN8489YGY81","3S829FDFT2NBOHQMM1CIOU0HZYXDXL","","346.6000000014901","img/land5.png","76","347.3999999985099","3","1","false","3","0.8,0.2,0.2,0.2,0.8,0.2,0.2,0.2,0.8","",""
"","html-keyboard-response","323","183168","0.0-475.0","3A1COHJ8NKH47GSARROIOZUA4TXH8F","A2TLN8489YGY81","3S829FDFT2NBOHQMM1CIOU0HZYXDXL","","null","<img src=""img/land5.png"" style=""width:200px; border:14px solid green;"">","null","","","","","","","",""
"","image-keyboard-response","324","183757","0.0-477.0","3A1COHJ8NKH47GSARROIOZUA4TXH8F","A2TLN8489YGY81","3S829FDFT2NBOHQMM1CIOU0HZYXDXL","","587.8000000044703","img/land7.png","75","588.6000000014901","2","0","false","1","0.8,0.2,0.2,0.2,0.8,0.2,0.2,0.2,0.8","",""
"","html-keyboard-response","325","184059","0.0-478.0","3A1COHJ8NKH47GSARROIOZUA4TXH8F","A2TLN8489YGY81","3S829FDFT2NBOHQMM1CIOU0HZYXDXL","","null","<img src=""img/land7.png"" style=""width:200px;border:14px solid red;"">","null","","","","","","","",""
"","image-keyboard-response","326","184917","0.0-480.0","3A1COHJ8NKH47GSARROIOZUA4TXH8F","A2TLN8489YGY81","3S829FDFT2NBOHQMM1CIOU0HZYXDXL","","857.2999999970198","img/land5.png","76","858.3999999985099","3","1","false","3","0.8,0.2,0.2,0.2,0.8,0.2,0.2,0.2,0.8","",""
"","html-keyboard-response","327","185218","0.0-481.0","3A1COHJ8NKH47GSARROIOZUA4TXH8F","A2TLN8489YGY81","3S829FDFT2NBOHQMM1CIOU0HZYXDXL","","null","<img src=""img/land5.png"" style=""width:200px; border:14px solid green;"">","null","","","","","","","",""
"","image-keyboard-response","328","185779","0.0-483.0","3A1COHJ8NKH47GSARROIOZUA4TXH8F","A2TLN8489YGY81","3S829FDFT2NBOHQMM1CIOU0HZYXDXL","","559.3999999985099","img/land7.png","74","560.2999999970198","1","1","false","1","0.8,0.2,0.2,0.2,0.8,0.2,0.2,0.2,0.8","",""
"","html-keyboard-response","329","186081","0.0-484.0","3A1COHJ8NKH47GSARROIOZUA4TXH8F","A2TLN8489YGY81","3S829FDFT2NBOHQMM1CIOU0HZYXDXL","","null","<img src=""img/land7.png"" style=""width:200px; border:14px solid green;"">","null","","","","","","","",""
"","image-keyboard-response","330","186756","0.0-486.0","3A1COHJ8NKH47GSARROIOZUA4TXH8F","A2TLN8489YGY81","3S829FDFT2NBOHQMM1CIOU0HZYXDXL","","674.2999999970198","img/land1.png","75","675.1999999955297","2","1","false","2","0.8,0.2,0.2,0.2,0.8,0.2,0.2,0.2,0.8","",""
"","html-keyboard-response","331","187059","0.0-487.0","3A1COHJ8NKH47GSARROIOZUA4TXH8F","A2TLN8489YGY81","3S829FDFT2NBOHQMM1CIOU0HZYXDXL","","null","<img src=""img/land1.png"" style=""width:200px; border:14px solid green;"">","null","","","","","","","",""
"","image-keyboard-response","332","187779","0.0-489.0","3A1COHJ8NKH47GSARROIOZUA4TXH8F","A2TLN8489YGY81","3S829FDFT2NBOHQMM1CIOU0HZYXDXL","","719.1000000014901","img/land7.png","74","720","1","1","false","1","0.8,0.2,0.2,0.2,0.8,0.2,0.2,0.2,0.8","",""
"","html-keyboard-response","333","188081","0.0-490.0","3A1COHJ8NKH47GSARROIOZUA4TXH8F","A2TLN8489YGY81","3S829FDFT2NBOHQMM1CIOU0HZYXDXL","","null","<img src=""img/land7.png"" style=""width:200px; border:14px solid green;"">","null","","","","","","","",""
"","image-keyboard-response","334","188823","0.0-492.0","3A1COHJ8NKH47GSARROIOZUA4TXH8F","A2TLN8489YGY81","3S829FDFT2NBOHQMM1CIOU0HZYXDXL","","740.3999999985099","img/land1.png","75","741.5","2","1","false","2","0.8,0.2,0.2,0.2,0.8,0.2,0.2,0.2,0.8","",""
"","html-keyboard-response","335","189125","0.0-493.0","3A1COHJ8NKH47GSARROIOZUA4TXH8F","A2TLN8489YGY81","3S829FDFT2NBOHQMM1CIOU0HZYXDXL","","null","<img src=""img/land1.png"" style=""width:200px; border:14px solid green;"">","null","","","","","","","",""
"","image-keyboard-response","336","190112","0.0-495.0","3A1COHJ8NKH47GSARROIOZUA4TXH8F","A2TLN8489YGY81","3S829FDFT2NBOHQMM1CIOU0HZYXDXL","","985.5","img/land5.png","76","986.7000000029802","3","0","false","3","0.8,0.2,0.2,0.2,0.8,0.2,0.2,0.2,0.8","",""
"","html-keyboard-response","337","190414","0.0-496.0","3A1COHJ8NKH47GSARROIOZUA4TXH8F","A2TLN8489YGY81","3S829FDFT2NBOHQMM1CIOU0HZYXDXL","","null","<img src=""img/land5.png"" style=""width:200px;border:14px solid red;"">","null","","","","","","","",""
"","image-keyboard-response","338","190994","0.0-498.0","3A1COHJ8NKH47GSARROIOZUA4TXH8F","A2TLN8489YGY81","3S829FDFT2NBOHQMM1CIOU0HZYXDXL","","578.6999999955297","img/land1.png","75","579.7999999970198","2","1","false","2","0.8,0.2,0.2,0.2,0.8,0.2,0.2,0.2,0.8","",""
"","html-keyboard-response","339","191296","0.0-499.0","3A1COHJ8NKH47GSARROIOZUA4TXH8F","A2TLN8489YGY81","3S829FDFT2NBOHQMM1CIOU0HZYXDXL","","null","<img src=""img/land1.png"" style=""width:200px; border:14px solid green;"">","null","","","","","","","",""
"","image-keyboard-response","340","191722","0.0-501.0","3A1COHJ8NKH47GSARROIOZUA4TXH8F","A2TLN8489YGY81","3S829FDFT2NBOHQMM1CIOU0HZYXDXL","","424.79999999701977","img/land1.png","75","425.79999999701977","2","1","false","2","0.8,0.2,0.2,0.2,0.8,0.2,0.2,0.2,0.8","",""
"","html-keyboard-response","341","192024","0.0-502.0","3A1COHJ8NKH47GSARROIOZUA4TXH8F","A2TLN8489YGY81","3S829FDFT2NBOHQMM1CIOU0HZYXDXL","","null","<img src=""img/land1.png"" style=""width:200px; border:14px solid green;"">","null","","","","","","","",""
"","image-keyboard-response","342","192998","0.0-504.0","3A1COHJ8NKH47GSARROIOZUA4TXH8F","A2TLN8489YGY81","3S829FDFT2NBOHQMM1CIOU0HZYXDXL","","973.1000000014901","img/land5.png","74","974","1","1","false","3","0.8,0.2,0.2,0.2,0.8,0.2,0.2,0.2,0.8","",""
"","html-keyboard-response","343","193300","0.0-505.0","3A1COHJ8NKH47GSARROIOZUA4TXH8F","A2TLN8489YGY81","3S829FDFT2NBOHQMM1CIOU0HZYXDXL","","null","<img src=""img/land5.png"" style=""width:200px; border:14px solid green;"">","null","","","","","","","",""
"","image-keyboard-response","344","194171","0.0-507.0","3A1COHJ8NKH47GSARROIOZUA4TXH8F","A2TLN8489YGY81","3S829FDFT2NBOHQMM1CIOU0HZYXDXL","","869.3000000044703","img/land1.png","75","870.2000000029802","2","1","false","2","0.8,0.2,0.2,0.2,0.8,0.2,0.2,0.2,0.8","",""
"","html-keyboard-response","345","194473","0.0-508.0","3A1COHJ8NKH47GSARROIOZUA4TXH8F","A2TLN8489YGY81","3S829FDFT2NBOHQMM1CIOU0HZYXDXL","","null","<img src=""img/land1.png"" style=""width:200px; border:14px solid green;"">","null","","","","","","","",""
"","image-keyboard-response","346","195219","0.0-510.0","3A1COHJ8NKH47GSARROIOZUA4TXH8F","A2TLN8489YGY81","3S829FDFT2NBOHQMM1CIOU0HZYXDXL","","744.7999999970198","img/land7.png","74","745.7999999970198","1","1","false","1","0.8,0.2,0.2,0.2,0.8,0.2,0.2,0.2,0.8","",""
"","html-keyboard-response","347","195521","0.0-511.0","3A1COHJ8NKH47GSARROIOZUA4TXH8F","A2TLN8489YGY81","3S829FDFT2NBOHQMM1CIOU0HZYXDXL","","null","<img src=""img/land7.png"" style=""width:200px; border:14px solid green;"">","null","","","","","","","",""
"","image-keyboard-response","348","196371","0.0-513.0","3A1COHJ8NKH47GSARROIOZUA4TXH8F","A2TLN8489YGY81","3S829FDFT2NBOHQMM1CIOU0HZYXDXL","","848.7000000029802","img/land5.png","76","849.7000000029802","3","1","false","3","0.8,0.2,0.2,0.2,0.8,0.2,0.2,0.2,0.8","",""
"","html-keyboard-response","349","196672","0.0-514.0","3A1COHJ8NKH47GSARROIOZUA4TXH8F","A2TLN8489YGY81","3S829FDFT2NBOHQMM1CIOU0HZYXDXL","","null","<img src=""img/land5.png"" style=""width:200px; border:14px solid green;"">","null","","","","","","","",""
"","image-keyboard-response","350","196979","0.0-516.0","3A1COHJ8NKH47GSARROIOZUA4TXH8F","A2TLN8489YGY81","3S829FDFT2NBOHQMM1CIOU0HZYXDXL","","304.8999999985099","img/land5.png","76","306","3","1","false","3","0.8,0.2,0.2,0.2,0.8,0.2,0.2,0.2,0.8","",""
"","html-keyboard-response","351","197280","0.0-517.0","3A1COHJ8NKH47GSARROIOZUA4TXH8F","A2TLN8489YGY81","3S829FDFT2NBOHQMM1CIOU0HZYXDXL","","null","<img src=""img/land5.png"" style=""width:200px; border:14px solid green;"">","null","","","","","","","",""
"","image-keyboard-response","352","197890","0.0-519.0","3A1COHJ8NKH47GSARROIOZUA4TXH8F","A2TLN8489YGY81","3S829FDFT2NBOHQMM1CIOU0HZYXDXL","","607.8999999985099","img/land1.png","75","609","2","1","false","2","0.8,0.2,0.2,0.2,0.8,0.2,0.2,0.2,0.8","",""
"","html-keyboard-response","353","198191","0.0-520.0","3A1COHJ8NKH47GSARROIOZUA4TXH8F","A2TLN8489YGY81","3S829FDFT2NBOHQMM1CIOU0HZYXDXL","","null","<img src=""img/land1.png"" style=""width:200px; border:14px solid green;"">","null","","","","","","","",""
"","image-keyboard-response","354","199193","0.0-522.0","3A1COHJ8NKH47GSARROIOZUA4TXH8F","A2TLN8489YGY81","3S829FDFT2NBOHQMM1CIOU0HZYXDXL","","","img/land5.png","","1001.2999999970198","-1","0","true","3","0.8,0.2,0.2,0.2,0.8,0.2,0.2,0.2,0.8","",""
"","html-keyboard-response","355","199496","0.0-523.0","3A1COHJ8NKH47GSARROIOZUA4TXH8F","A2TLN8489YGY81","3S829FDFT2NBOHQMM1CIOU0HZYXDXL","","null","<img src=""img/land5.png"" style=""width:200px;border:14px solid red;"">","null","","","","","","","",""
"","html-keyboard-response","356","201039","0.0-524.0-0.0","3A1COHJ8NKH47GSARROIOZUA4TXH8F","A2TLN8489YGY81","3S829FDFT2NBOHQMM1CIOU0HZYXDXL","","","","","","","","","","","",""
"","image-keyboard-response","357","202041","0.0-525.0","3A1COHJ8NKH47GSARROIOZUA4TXH8F","A2TLN8489YGY81","3S829FDFT2NBOHQMM1CIOU0HZYXDXL","","","img/land7.png","","1002.1000000014901","-1","0","true","1","0.8,0.2,0.2,0.2,0.8,0.2,0.2,0.2,0.8","",""
"","html-keyboard-response","358","202344","0.0-526.0","3A1COHJ8NKH47GSARROIOZUA4TXH8F","A2TLN8489YGY81","3S829FDFT2NBOHQMM1CIOU0HZYXDXL","","null","<img src=""img/land7.png"" style=""width:200px;border:14px solid red;"">","null","","","","","","","",""
"","html-keyboard-response","359","204421","0.0-527.0-0.0","3A1COHJ8NKH47GSARROIOZUA4TXH8F","A2TLN8489YGY81","3S829FDFT2NBOHQMM1CIOU0HZYXDXL","","","","","","","","","","","",""
"","image-keyboard-response","360","205061","0.0-528.0","3A1COHJ8NKH47GSARROIOZUA4TXH8F","A2TLN8489YGY81","3S829FDFT2NBOHQMM1CIOU0HZYXDXL","","638.8999999985099","img/land1.png","75","639.8999999985099","2","1","false","2","0.8,0.2,0.2,0.2,0.8,0.2,0.2,0.2,0.8","",""
"","html-keyboard-response","361","205364","0.0-529.0","3A1COHJ8NKH47GSARROIOZUA4TXH8F","A2TLN8489YGY81","3S829FDFT2NBOHQMM1CIOU0HZYXDXL","","null","<img src=""img/land1.png"" style=""width:200px; border:14px solid green;"">","null","","","","","","","",""
"","image-keyboard-response","362","205682","0.0-531.0","3A1COHJ8NKH47GSARROIOZUA4TXH8F","A2TLN8489YGY81","3S829FDFT2NBOHQMM1CIOU0HZYXDXL","","316.79999999701977","img/land1.png","75","318","2","1","false","2","0.8,0.2,0.2,0.2,0.8,0.2,0.2,0.2,0.8","",""
"","html-keyboard-response","363","205984","0.0-532.0","3A1COHJ8NKH47GSARROIOZUA4TXH8F","A2TLN8489YGY81","3S829FDFT2NBOHQMM1CIOU0HZYXDXL","","null","<img src=""img/land1.png"" style=""width:200px; border:14px solid green;"">","null","","","","","","","",""
"","image-keyboard-response","364","206556","0.0-534.0","3A1COHJ8NKH47GSARROIOZUA4TXH8F","A2TLN8489YGY81","3S829FDFT2NBOHQMM1CIOU0HZYXDXL","","570.6000000014901","img/land5.png","76","571.7000000029802","3","1","false","3","0.8,0.2,0.2,0.2,0.8,0.2,0.2,0.2,0.8","",""
"","html-keyboard-response","365","206858","0.0-535.0","3A1COHJ8NKH47GSARROIOZUA4TXH8F","A2TLN8489YGY81","3S829FDFT2NBOHQMM1CIOU0HZYXDXL","","null","<img src=""img/land5.png"" style=""width:200px; border:14px solid green;"">","null","","","","","","","",""
"","image-keyboard-response","366","207180","0.0-537.0","3A1COHJ8NKH47GSARROIOZUA4TXH8F","A2TLN8489YGY81","3S829FDFT2NBOHQMM1CIOU0HZYXDXL","","321.5","img/land5.png","76","322.30000000447035","3","1","false","3","0.8,0.2,0.2,0.2,0.8,0.2,0.2,0.2,0.8","",""
"","html-keyboard-response","367","207482","0.0-538.0","3A1COHJ8NKH47GSARROIOZUA4TXH8F","A2TLN8489YGY81","3S829FDFT2NBOHQMM1CIOU0HZYXDXL","","null","<img src=""img/land5.png"" style=""width:200px; border:14px solid green;"">","null","","","","","","","",""
"","image-keyboard-response","368","208046","0.0-540.0","3A1COHJ8NKH47GSARROIOZUA4TXH8F","A2TLN8489YGY81","3S829FDFT2NBOHQMM1CIOU0HZYXDXL","","562.9000000059605","img/land1.png","75","563.9000000059605","2","1","false","2","0.8,0.2,0.2,0.2,0.8,0.2,0.2,0.2,0.8","",""
"","html-keyboard-response","369","208349","0.0-541.0","3A1COHJ8NKH47GSARROIOZUA4TXH8F","A2TLN8489YGY81","3S829FDFT2NBOHQMM1CIOU0HZYXDXL","","null","<img src=""img/land1.png"" style=""width:200px; border:14px solid green;"">","null","","","","","","","",""
"","html-keyboard-response","370","210157","0.0-543.0","3A1COHJ8NKH47GSARROIOZUA4TXH8F","A2TLN8489YGY81","3S829FDFT2NBOHQMM1CIOU0HZYXDXL","","","","","","","","","","","",""
"","image-keyboard-response","371","210981","0.0-544.0","3A1COHJ8NKH47GSARROIOZUA4TXH8F","A2TLN8489YGY81","3S829FDFT2NBOHQMM1CIOU0HZYXDXL","","822.8999999985099","img/land3.png","74","824.2000000029802","1","0","false","2","0.6,0.6,0,0,0.6,0.6,0.6,0,0.6","",""
"","html-keyboard-response","372","211283","0.0-545.0","3A1COHJ8NKH47GSARROIOZUA4TXH8F","A2TLN8489YGY81","3S829FDFT2NBOHQMM1CIOU0HZYXDXL","","null","<img src=""img/land3.png"" style=""width:200px;border:14px solid red;"">","null","","","","","","","",""
"","image-keyboard-response","373","211660","0.0-547.0","3A1COHJ8NKH47GSARROIOZUA4TXH8F","A2TLN8489YGY81","3S829FDFT2NBOHQMM1CIOU0HZYXDXL","","375.59999999403954","img/land3.png","75","376.6000000014901","2","1","false","2","0.6,0.6,0,0,0.6,0.6,0.6,0,0.6","",""
"","html-keyboard-response","374","211963","0.0-548.0","3A1COHJ8NKH47GSARROIOZUA4TXH8F","A2TLN8489YGY81","3S829FDFT2NBOHQMM1CIOU0HZYXDXL","","null","<img src=""img/land3.png"" style=""width:200px; border:14px solid green;"">","null","","","","","","","",""
"","image-keyboard-response","375","212974","0.0-550.0","3A1COHJ8NKH47GSARROIOZUA4TXH8F","A2TLN8489YGY81","3S829FDFT2NBOHQMM1CIOU0HZYXDXL","","","img/land4.png","","1011.1000000014901","-1","0","true","1","0.6,0.6,0,0,0.6,0.6,0.6,0,0.6","",""
"","html-keyboard-response","376","213277","0.0-551.0","3A1COHJ8NKH47GSARROIOZUA4TXH8F","A2TLN8489YGY81","3S829FDFT2NBOHQMM1CIOU0HZYXDXL","","null","<img src=""img/land4.png"" style=""width:200px;border:14px solid red;"">","null","","","","","","","",""
"","html-keyboard-response","377","215103","0.0-552.0-0.0","3A1COHJ8NKH47GSARROIOZUA4TXH8F","A2TLN8489YGY81","3S829FDFT2NBOHQMM1CIOU0HZYXDXL","","","","","","","","","","","",""
"","image-keyboard-response","378","215909","0.0-553.0","3A1COHJ8NKH47GSARROIOZUA4TXH8F","A2TLN8489YGY81","3S829FDFT2NBOHQMM1CIOU0HZYXDXL","","804.6000000014901","img/land3.png","74","805.6999999955297","1","0","false","2","0.6,0.6,0,0,0.6,0.6,0.6,0,0.6","",""
"","html-keyboard-response","379","216210","0.0-554.0","3A1COHJ8NKH47GSARROIOZUA4TXH8F","A2TLN8489YGY81","3S829FDFT2NBOHQMM1CIOU0HZYXDXL","","null","<img src=""img/land3.png"" style=""width:200px;border:14px solid red;"">","null","","","","","","","",""
"","image-keyboard-response","380","217060","0.0-556.0","3A1COHJ8NKH47GSARROIOZUA4TXH8F","A2TLN8489YGY81","3S829FDFT2NBOHQMM1CIOU0HZYXDXL","","848.8999999985099","img/land4.png","75","850","2","0","false","1","0.6,0.6,0,0,0.6,0.6,0.6,0,0.6","",""
"","html-keyboard-response","381","217363","0.0-557.0","3A1COHJ8NKH47GSARROIOZUA4TXH8F","A2TLN8489YGY81","3S829FDFT2NBOHQMM1CIOU0HZYXDXL","","null","<img src=""img/land4.png"" style=""width:200px;border:14px solid red;"">","null","","","","","","","",""
"","image-keyboard-response","382","218258","0.0-559.0","3A1COHJ8NKH47GSARROIOZUA4TXH8F","A2TLN8489YGY81","3S829FDFT2NBOHQMM1CIOU0HZYXDXL","","893.7999999970198","img/land2.png","76","894.7999999970198","3","1","false","3","0.6,0.6,0,0,0.6,0.6,0.6,0,0.6","",""
"","html-keyboard-response","383","218561","0.0-560.0","3A1COHJ8NKH47GSARROIOZUA4TXH8F","A2TLN8489YGY81","3S829FDFT2NBOHQMM1CIOU0HZYXDXL","","null","<img src=""img/land2.png"" style=""width:200px; border:14px solid green;"">","null","","","","","","","",""
"","image-keyboard-response","384","218986","0.0-562.0","3A1COHJ8NKH47GSARROIOZUA4TXH8F","A2TLN8489YGY81","3S829FDFT2NBOHQMM1CIOU0HZYXDXL","","423.80000000447035","img/land2.png","76","424.80000000447035","3","0","false","3","0.6,0.6,0,0,0.6,0.6,0.6,0,0.6","",""
"","html-keyboard-response","385","219288","0.0-563.0","3A1COHJ8NKH47GSARROIOZUA4TXH8F","A2TLN8489YGY81","3S829FDFT2NBOHQMM1CIOU0HZYXDXL","","null","<img src=""img/land2.png"" style=""width:200px;border:14px solid red;"">","null","","","","","","","",""
"","image-keyboard-response","386","220258","0.0-565.0","3A1COHJ8NKH47GSARROIOZUA4TXH8F","A2TLN8489YGY81","3S829FDFT2NBOHQMM1CIOU0HZYXDXL","","968.6000000014901","img/land4.png","75","969.5","2","1","false","1","0.6,0.6,0,0,0.6,0.6,0.6,0,0.6","",""
"","html-keyboard-response","387","220560","0.0-566.0","3A1COHJ8NKH47GSARROIOZUA4TXH8F","A2TLN8489YGY81","3S829FDFT2NBOHQMM1CIOU0HZYXDXL","","null","<img src=""img/land4.png"" style=""width:200px; border:14px solid green;"">","null","","","","","","","",""
"","image-keyboard-response","388","220949","0.0-568.0","3A1COHJ8NKH47GSARROIOZUA4TXH8F","A2TLN8489YGY81","3S829FDFT2NBOHQMM1CIOU0HZYXDXL","","388","img/land4.png","75","388.8999999985099","2","0","false","1","0.6,0.6,0,0,0.6,0.6,0.6,0,0.6","",""
