"success","trial_type","trial_index","time_elapsed","internal_node_id","assignmentID","mturkID","hitID","view_history","rt","stimulus","key_press","reactionTime","a","r","s","cond","reward_cond","reward_cond_actual","reward_matrix_idx","responses","question_order"
"true","fullscreen","0","2563","0.0-0.0","3NQL1CS15SUO4NEC9K3G2D9L90BVYR","A2U4JCTILX14EC","3SA4EMRVJVOCGON1OYE6FAUV3KKP05","","","","","","","","","","","","","",""
"","instructions","1","10840","0.0-1.0","3NQL1CS15SUO4NEC9K3G2D9L90BVYR","A2U4JCTILX14EC","3SA4EMRVJVOCGON1OYE6FAUV3KKP05","[{""page_index"":0,""viewing_time"":2612.7999999523163},{""page_index"":1,""viewing_time"":1104.9000000953674},{""page_index"":2,""viewing_time"":180},{""page_index"":3,""viewing_time"":1006.0999999046326},{""page_index"":4,""viewing_time"":965.9000000953674},{""page_index"":5,""viewing_time"":772.7999999523163},{""page_index"":6,""viewing_time"":1632.3999998569489}]","8275.399999856949","","","","","","","","","","","",""
"","image-keyboard-response","2","11676","0.0-2.0","3NQL1CS15SUO4NEC9K3G2D9L90BVYR","A2U4JCTILX14EC","3SA4EMRVJVOCGON1OYE6FAUV3KKP05","","833.2999999523163","img/land2.png","75","834.7999999523163","2","0","3","1","0.8,0.2,0.2,0.2,0.8,0.2,0.2,0.2,0.8","0.8,0.2,0.2,0.2,0.8,0.2,0.2,0.2,0.8","1","",""
"","html-keyboard-response","3","11986","0.0-3.0","3NQL1CS15SUO4NEC9K3G2D9L90BVYR","A2U4JCTILX14EC","3SA4EMRVJVOCGON1OYE6FAUV3KKP05","","null","<img src=""img/land2.png"" style=""width:200px;border:14px solid red;"">","null","","","","","","","","","",""
"","image-keyboard-response","4","13883","0.0-4.0","3NQL1CS15SUO4NEC9K3G2D9L90BVYR","A2U4JCTILX14EC","3SA4EMRVJVOCGON1OYE6FAUV3KKP05","","1895.7999999523163","img/land6.png","75","1896.6999998092651","2","1","2","1","0.8,0.2,0.2,0.2,0.8,0.2,0.2,0.2,0.8","0.8,0.2,0.2,0.2,0.8,0.2,0.2,0.2,0.8","1","",""
"","html-keyboard-response","5","14185","0.0-5.0","3NQL1CS15SUO4NEC9K3G2D9L90BVYR","A2U4JCTILX14EC","3SA4EMRVJVOCGON1OYE6FAUV3KKP05","","null","<img src=""img/land6.png"" style=""width:200px; border:14px solid green;"">","null","","","","","","","","","",""
"","image-keyboard-response","6","14857","0.0-6.0","3NQL1CS15SUO4NEC9K3G2D9L90BVYR","A2U4JCTILX14EC","3SA4EMRVJVOCGON1OYE6FAUV3KKP05","","670.4000000953674","img/land1.png","75","671.3999998569489","2","0","1","1","0.8,0.2,0.2,0.2,0.8,0.2,0.2,0.2,0.8","0.8,0.2,0.2,0.2,0.8,0.2,0.2,0.2,0.8","1","",""
"","html-keyboard-response","7","15165","0.0-7.0","3NQL1CS15SUO4NEC9K3G2D9L90BVYR","A2U4JCTILX14EC","3SA4EMRVJVOCGON1OYE6FAUV3KKP05","","null","<img src=""img/land1.png"" style=""width:200px;border:14px solid red;"">","null","","","","","","","","","",""
"","image-keyboard-response","8","15738","0.0-8.0","3NQL1CS15SUO4NEC9K3G2D9L90BVYR","A2U4JCTILX14EC","3SA4EMRVJVOCGON1OYE6FAUV3KKP05","","571.2999999523163","img/land1.png","76","572.5","3","0","1","1","0.8,0.2,0.2,0.2,0.8,0.2,0.2,0.2,0.8","0.8,0.2,0.2,0.2,0.8,0.2,0.2,0.2,0.8","1","",""
"","html-keyboard-response","9","16054","0.0-9.0","3NQL1CS15SUO4NEC9K3G2D9L90BVYR","A2U4JCTILX14EC","3SA4EMRVJVOCGON1OYE6FAUV3KKP05","","null","<img src=""img/land1.png"" style=""width:200px;border:14px solid red;"">","null","","","","","","","","","",""
"","image-keyboard-response","10","16147","0.0-10.0","3NQL1CS15SUO4NEC9K3G2D9L90BVYR","A2U4JCTILX14EC","3SA4EMRVJVOCGON1OYE6FAUV3KKP05","","91.89999985694885","img/land6.png","74","93.09999990463257","1","0","2","1","0.8,0.2,0.2,0.2,0.8,0.2,0.2,0.2,0.8","0.8,0.2,0.2,0.2,0.8,0.2,0.2,0.2,0.8","1","",""
"","html-keyboard-response","11","16458","0.0-11.0","3NQL1CS15SUO4NEC9K3G2D9L90BVYR","A2U4JCTILX14EC","3SA4EMRVJVOCGON1OYE6FAUV3KKP05","","null","<img src=""img/land6.png"" style=""width:200px;border:14px solid red;"">","null","","","","","","","","","",""
"","image-keyboard-response","12","17293","0.0-12.0","3NQL1CS15SUO4NEC9K3G2D9L90BVYR","A2U4JCTILX14EC","3SA4EMRVJVOCGON1OYE6FAUV3KKP05","","833.5","img/land1.png","76","834.5","3","0","1","1","0.8,0.2,0.2,0.2,0.8,0.2,0.2,0.2,0.8","0.8,0.2,0.2,0.2,0.8,0.2,0.2,0.2,0.8","1","",""
"","html-keyboard-response","13","17598","0.0-13.0","3NQL1CS15SUO4NEC9K3G2D9L90BVYR","A2U4JCTILX14EC","3SA4EMRVJVOCGON1OYE6FAUV3KKP05","","null","<img src=""img/land1.png"" style=""width:200px;border:14px solid red;"">","null","","","","","","","","","",""
"","image-keyboard-response","14","17969","0.0-14.0","3NQL1CS15SUO4NEC9K3G2D9L90BVYR","A2U4JCTILX14EC","3SA4EMRVJVOCGON1OYE6FAUV3KKP05","","369.2000000476837","img/land1.png","74","370.19999980926514","1","1","1","1","0.8,0.2,0.2,0.2,0.8,0.2,0.2,0.2,0.8","0.8,0.2,0.2,0.2,0.8,0.2,0.2,0.2,0.8","1","",""
"","html-keyboard-response","15","18281","0.0-15.0","3NQL1CS15SUO4NEC9K3G2D9L90BVYR","A2U4JCTILX14EC","3SA4EMRVJVOCGON1OYE6FAUV3KKP05","","null","<img src=""img/land1.png"" style=""width:200px; border:14px solid green;"">","null","","","","","","","","","",""
"","image-keyboard-response","16","18805","0.0-16.0","3NQL1CS15SUO4NEC9K3G2D9L90BVYR","A2U4JCTILX14EC","3SA4EMRVJVOCGON1OYE6FAUV3KKP05","","523.2000000476837","img/land1.png","74","524.2000000476837","1","1","1","1","0.8,0.2,0.2,0.2,0.8,0.2,0.2,0.2,0.8","0.8,0.2,0.2,0.2,0.8,0.2,0.2,0.2,0.8","1","",""
"","html-keyboard-response","17","19121","0.0-17.0","3NQL1CS15SUO4NEC9K3G2D9L90BVYR","A2U4JCTILX14EC","3SA4EMRVJVOCGON1OYE6FAUV3KKP05","","null","<img src=""img/land1.png"" style=""width:200px; border:14px solid green;"">","null","","","","","","","","","",""
"","image-keyboard-response","18","19418","0.0-18.0","3NQL1CS15SUO4NEC9K3G2D9L90BVYR","A2U4JCTILX14EC","3SA4EMRVJVOCGON1OYE6FAUV3KKP05","","295.2999999523163","img/land1.png","74","296.39999985694885","1","1","1","1","0.8,0.2,0.2,0.2,0.8,0.2,0.2,0.2,0.8","0.8,0.2,0.2,0.2,0.8,0.2,0.2,0.2,0.8","1","",""
"","html-keyboard-response","19","19728","0.0-19.0","3NQL1CS15SUO4NEC9K3G2D9L90BVYR","A2U4JCTILX14EC","3SA4EMRVJVOCGON1OYE6FAUV3KKP05","","null","<img src=""img/land1.png"" style=""width:200px; border:14px solid green;"">","null","","","","","","","","","",""
"","image-keyboard-response","20","20355","0.0-20.0","3NQL1CS15SUO4NEC9K3G2D9L90BVYR","A2U4JCTILX14EC","3SA4EMRVJVOCGON1OYE6FAUV3KKP05","","624.8999998569489","img/land2.png","74","625.8999998569489","1","0","3","1","0.8,0.2,0.2,0.2,0.8,0.2,0.2,0.2,0.8","0.8,0.2,0.2,0.2,0.8,0.2,0.2,0.2,0.8","1","",""
"","html-keyboard-response","21","20660","0.0-21.0","3NQL1CS15SUO4NEC9K3G2D9L90BVYR","A2U4JCTILX14EC","3SA4EMRVJVOCGON1OYE6FAUV3KKP05","","null","<img src=""img/land2.png"" style=""width:200px;border:14px solid red;"">","null","","","","","","","","","",""
"","image-keyboard-response","22","21597","0.0-22.0","3NQL1CS15SUO4NEC9K3G2D9L90BVYR","A2U4JCTILX14EC","3SA4EMRVJVOCGON1OYE6FAUV3KKP05","","935.5","img/land6.png","74","936.5999999046326","1","0","2","1","0.8,0.2,0.2,0.2,0.8,0.2,0.2,0.2,0.8","0.8,0.2,0.2,0.2,0.8,0.2,0.2,0.2,0.8","1","",""
"","html-keyboard-response","23","21906","0.0-23.0","3NQL1CS15SUO4NEC9K3G2D9L90BVYR","A2U4JCTILX14EC","3SA4EMRVJVOCGON1OYE6FAUV3KKP05","","null","<img src=""img/land6.png"" style=""width:200px;border:14px solid red;"">","null","","","","","","","","","",""
"","image-keyboard-response","24","22362","0.0-24.0","3NQL1CS15SUO4NEC9K3G2D9L90BVYR","A2U4JCTILX14EC","3SA4EMRVJVOCGON1OYE6FAUV3KKP05","","454.60000014305115","img/land1.png","74","455.40000009536743","1","1","1","1","0.8,0.2,0.2,0.2,0.8,0.2,0.2,0.2,0.8","0.8,0.2,0.2,0.2,0.8,0.2,0.2,0.2,0.8","1","",""
"","html-keyboard-response","25","22671","0.0-25.0","3NQL1CS15SUO4NEC9K3G2D9L90BVYR","A2U4JCTILX14EC","3SA4EMRVJVOCGON1OYE6FAUV3KKP05","","null","<img src=""img/land1.png"" style=""width:200px; border:14px solid green;"">","null","","","","","","","","","",""
"","image-keyboard-response","26","23554","0.0-26.0","3NQL1CS15SUO4NEC9K3G2D9L90BVYR","A2U4JCTILX14EC","3SA4EMRVJVOCGON1OYE6FAUV3KKP05","","880.5","img/land6.png","75","881.5","2","1","2","1","0.8,0.2,0.2,0.2,0.8,0.2,0.2,0.2,0.8","0.8,0.2,0.2,0.2,0.8,0.2,0.2,0.2,0.8","1","",""
"","html-keyboard-response","27","23869","0.0-27.0","3NQL1CS15SUO4NEC9K3G2D9L90BVYR","A2U4JCTILX14EC","3SA4EMRVJVOCGON1OYE6FAUV3KKP05","","null","<img src=""img/land6.png"" style=""width:200px; border:14px solid green;"">","null","","","","","","","","","",""
"","image-keyboard-response","28","24244","0.0-28.0","3NQL1CS15SUO4NEC9K3G2D9L90BVYR","A2U4JCTILX14EC","3SA4EMRVJVOCGON1OYE6FAUV3KKP05","","373.2000000476837","img/land6.png","75","373.89999985694885","2","1","2","1","0.8,0.2,0.2,0.2,0.8,0.2,0.2,0.2,0.8","0.8,0.2,0.2,0.2,0.8,0.2,0.2,0.2,0.8","1","",""
"","html-keyboard-response","29","24552","0.0-29.0","3NQL1CS15SUO4NEC9K3G2D9L90BVYR","A2U4JCTILX14EC","3SA4EMRVJVOCGON1OYE6FAUV3KKP05","","null","<img src=""img/land6.png"" style=""width:200px; border:14px solid green;"">","null","","","","","","","","","",""
"","image-keyboard-response","30","24859","0.0-30.0","3NQL1CS15SUO4NEC9K3G2D9L90BVYR","A2U4JCTILX14EC","3SA4EMRVJVOCGON1OYE6FAUV3KKP05","","305.60000014305115","img/land6.png","75","306.59999990463257","2","1","2","1","0.8,0.2,0.2,0.2,0.8,0.2,0.2,0.2,0.8","0.8,0.2,0.2,0.2,0.8,0.2,0.2,0.2,0.8","1","",""
"","html-keyboard-response","31","25161","0.0-31.0","3NQL1CS15SUO4NEC9K3G2D9L90BVYR","A2U4JCTILX14EC","3SA4EMRVJVOCGON1OYE6FAUV3KKP05","","null","<img src=""img/land6.png"" style=""width:200px; border:14px solid green;"">","null","","","","","","","","","",""
"","image-keyboard-response","32","26219","0.0-32.0","3NQL1CS15SUO4NEC9K3G2D9L90BVYR","A2U4JCTILX14EC","3SA4EMRVJVOCGON1OYE6FAUV3KKP05","","1056","img/land2.png","74","1056.7999999523163","1","0","3","1","0.8,0.2,0.2,0.2,0.8,0.2,0.2,0.2,0.8","0.8,0.2,0.2,0.2,0.8,0.2,0.2,0.2,0.8","1","",""
"","html-keyboard-response","33","26520","0.0-33.0","3NQL1CS15SUO4NEC9K3G2D9L90BVYR","A2U4JCTILX14EC","3SA4EMRVJVOCGON1OYE6FAUV3KKP05","","null","<img src=""img/land2.png"" style=""width:200px;border:14px solid red;"">","null","","","","","","","","","",""
"","image-keyboard-response","34","27169","0.0-34.0","3NQL1CS15SUO4NEC9K3G2D9L90BVYR","A2U4JCTILX14EC","3SA4EMRVJVOCGON1OYE6FAUV3KKP05","","647.1000001430511","img/land6.png","75","648.2000000476837","2","0","2","1","0.8,0.2,0.2,0.2,0.8,0.2,0.2,0.2,0.8","0.8,0.2,0.2,0.2,0.8,0.2,0.2,0.2,0.8","1","",""
"","html-keyboard-response","35","27472","0.0-35.0","3NQL1CS15SUO4NEC9K3G2D9L90BVYR","A2U4JCTILX14EC","3SA4EMRVJVOCGON1OYE6FAUV3KKP05","","null","<img src=""img/land6.png"" style=""width:200px;border:14px solid red;"">","null","","","","","","","","","",""
"","image-keyboard-response","36","28430","0.0-36.0","3NQL1CS15SUO4NEC9K3G2D9L90BVYR","A2U4JCTILX14EC","3SA4EMRVJVOCGON1OYE6FAUV3KKP05","","956.5","img/land1.png","74","957.6000001430511","1","1","1","1","0.8,0.2,0.2,0.2,0.8,0.2,0.2,0.2,0.8","0.8,0.2,0.2,0.2,0.8,0.2,0.2,0.2,0.8","1","",""
"","html-keyboard-response","37","28733","0.0-37.0","3NQL1CS15SUO4NEC9K3G2D9L90BVYR","A2U4JCTILX14EC","3SA4EMRVJVOCGON1OYE6FAUV3KKP05","","null","<img src=""img/land1.png"" style=""width:200px; border:14px solid green;"">","null","","","","","","","","","",""
"","image-keyboard-response","38","29128","0.0-38.0","3NQL1CS15SUO4NEC9K3G2D9L90BVYR","A2U4JCTILX14EC","3SA4EMRVJVOCGON1OYE6FAUV3KKP05","","394.5","img/land1.png","74","395.2999999523163","1","1","1","1","0.8,0.2,0.2,0.2,0.8,0.2,0.2,0.2,0.8","0.8,0.2,0.2,0.2,0.8,0.2,0.2,0.2,0.8","1","",""
"","html-keyboard-response","39","29432","0.0-39.0","3NQL1CS15SUO4NEC9K3G2D9L90BVYR","A2U4JCTILX14EC","3SA4EMRVJVOCGON1OYE6FAUV3KKP05","","null","<img src=""img/land1.png"" style=""width:200px; border:14px solid green;"">","null","","","","","","","","","",""
"","image-keyboard-response","40","29718","0.0-40.0","3NQL1CS15SUO4NEC9K3G2D9L90BVYR","A2U4JCTILX14EC","3SA4EMRVJVOCGON1OYE6FAUV3KKP05","","283.89999985694885","img/land1.png","74","285","1","1","1","1","0.8,0.2,0.2,0.2,0.8,0.2,0.2,0.2,0.8","0.8,0.2,0.2,0.2,0.8,0.2,0.2,0.2,0.8","1","",""
"","html-keyboard-response","41","30019","0.0-41.0","3NQL1CS15SUO4NEC9K3G2D9L90BVYR","A2U4JCTILX14EC","3SA4EMRVJVOCGON1OYE6FAUV3KKP05","","null","<img src=""img/land1.png"" style=""width:200px; border:14px solid green;"">","null","","","","","","","","","",""
"","image-keyboard-response","42","30568","0.0-42.0","3NQL1CS15SUO4NEC9K3G2D9L90BVYR","A2U4JCTILX14EC","3SA4EMRVJVOCGON1OYE6FAUV3KKP05","","547.7999999523163","img/land2.png","75","548.8999998569489","2","0","3","1","0.8,0.2,0.2,0.2,0.8,0.2,0.2,0.2,0.8","0.8,0.2,0.2,0.2,0.8,0.2,0.2,0.2,0.8","1","",""
"","html-keyboard-response","43","30870","0.0-43.0","3NQL1CS15SUO4NEC9K3G2D9L90BVYR","A2U4JCTILX14EC","3SA4EMRVJVOCGON1OYE6FAUV3KKP05","","null","<img src=""img/land2.png"" style=""width:200px;border:14px solid red;"">","null","","","","","","","","","",""
"","image-keyboard-response","44","30942","0.0-44.0","3NQL1CS15SUO4NEC9K3G2D9L90BVYR","A2U4JCTILX14EC","3SA4EMRVJVOCGON1OYE6FAUV3KKP05","","70.29999995231628","img/land2.png","76","71.29999995231628","3","1","3","1","0.8,0.2,0.2,0.2,0.8,0.2,0.2,0.2,0.8","0.8,0.2,0.2,0.2,0.8,0.2,0.2,0.2,0.8","1","",""
"","html-keyboard-response","45","31244","0.0-45.0","3NQL1CS15SUO4NEC9K3G2D9L90BVYR","A2U4JCTILX14EC","3SA4EMRVJVOCGON1OYE6FAUV3KKP05","","null","<img src=""img/land2.png"" style=""width:200px; border:14px solid green;"">","null","","","","","","","","","",""
"","image-keyboard-response","46","31726","0.0-46.0","3NQL1CS15SUO4NEC9K3G2D9L90BVYR","A2U4JCTILX14EC","3SA4EMRVJVOCGON1OYE6FAUV3KKP05","","480.09999990463257","img/land1.png","76","480.7999999523163","3","1","1","1","0.8,0.2,0.2,0.2,0.8,0.2,0.2,0.2,0.8","0.8,0.2,0.2,0.2,0.8,0.2,0.2,0.2,0.8","1","",""
"","html-keyboard-response","47","32028","0.0-47.0","3NQL1CS15SUO4NEC9K3G2D9L90BVYR","A2U4JCTILX14EC","3SA4EMRVJVOCGON1OYE6FAUV3KKP05","","null","<img src=""img/land1.png"" style=""width:200px; border:14px solid green;"">","null","","","","","","","","","",""
"","image-keyboard-response","48","32412","0.0-48.0","3NQL1CS15SUO4NEC9K3G2D9L90BVYR","A2U4JCTILX14EC","3SA4EMRVJVOCGON1OYE6FAUV3KKP05","","382.5","img/land6.png","76","383.2999999523163","3","0","2","1","0.8,0.2,0.2,0.2,0.8,0.2,0.2,0.2,0.8","0.8,0.2,0.2,0.2,0.8,0.2,0.2,0.2,0.8","1","",""
"","html-keyboard-response","49","32713","0.0-49.0","3NQL1CS15SUO4NEC9K3G2D9L90BVYR","A2U4JCTILX14EC","3SA4EMRVJVOCGON1OYE6FAUV3KKP05","","null","<img src=""img/land6.png"" style=""width:200px;border:14px solid red;"">","null","","","","","","","","","",""
"","image-keyboard-response","50","32852","0.0-50.0","3NQL1CS15SUO4NEC9K3G2D9L90BVYR","A2U4JCTILX14EC","3SA4EMRVJVOCGON1OYE6FAUV3KKP05","","137.90000009536743","img/land6.png","74","138.79999995231628","1","0","2","1","0.8,0.2,0.2,0.2,0.8,0.2,0.2,0.2,0.8","0.8,0.2,0.2,0.2,0.8,0.2,0.2,0.2,0.8","1","",""
"","html-keyboard-response","51","33155","0.0-51.0","3NQL1CS15SUO4NEC9K3G2D9L90BVYR","A2U4JCTILX14EC","3SA4EMRVJVOCGON1OYE6FAUV3KKP05","","null","<img src=""img/land6.png"" style=""width:200px;border:14px solid red;"">","null","","","","","","","","","",""
"","image-keyboard-response","52","33235","0.0-52.0","3NQL1CS15SUO4NEC9K3G2D9L90BVYR","A2U4JCTILX14EC","3SA4EMRVJVOCGON1OYE6FAUV3KKP05","","78.40000009536743","img/land2.png","75","79.20000004768372","2","0","3","1","0.8,0.2,0.2,0.2,0.8,0.2,0.2,0.2,0.8","0.8,0.2,0.2,0.2,0.8,0.2,0.2,0.2,0.8","1","",""
"","html-keyboard-response","53","33537","0.0-53.0","3NQL1CS15SUO4NEC9K3G2D9L90BVYR","A2U4JCTILX14EC","3SA4EMRVJVOCGON1OYE6FAUV3KKP05","","null","<img src=""img/land2.png"" style=""width:200px;border:14px solid red;"">","null","","","","","","","","","",""
"","image-keyboard-response","54","33869","0.0-54.0","3NQL1CS15SUO4NEC9K3G2D9L90BVYR","A2U4JCTILX14EC","3SA4EMRVJVOCGON1OYE6FAUV3KKP05","","330.40000009536743","img/land1.png","75","331.40000009536743","2","1","1","1","0.8,0.2,0.2,0.2,0.8,0.2,0.2,0.2,0.8","0.8,0.2,0.2,0.2,0.8,0.2,0.2,0.2,0.8","1","",""
"","html-keyboard-response","55","34171","0.0-55.0","3NQL1CS15SUO4NEC9K3G2D9L90BVYR","A2U4JCTILX14EC","3SA4EMRVJVOCGON1OYE6FAUV3KKP05","","null","<img src=""img/land1.png"" style=""width:200px; border:14px solid green;"">","null","","","","","","","","","",""
"","image-keyboard-response","56","34579","0.0-56.0","3NQL1CS15SUO4NEC9K3G2D9L90BVYR","A2U4JCTILX14EC","3SA4EMRVJVOCGON1OYE6FAUV3KKP05","","407.2000000476837","img/land6.png","76","408.2999999523163","3","1","2","1","0.8,0.2,0.2,0.2,0.8,0.2,0.2,0.2,0.8","0.8,0.2,0.2,0.2,0.8,0.2,0.2,0.2,0.8","1","",""
"","html-keyboard-response","57","34881","0.0-57.0","3NQL1CS15SUO4NEC9K3G2D9L90BVYR","A2U4JCTILX14EC","3SA4EMRVJVOCGON1OYE6FAUV3KKP05","","null","<img src=""img/land6.png"" style=""width:200px; border:14px solid green;"">","null","","","","","","","","","",""
"","image-keyboard-response","58","35203","0.0-58.0","3NQL1CS15SUO4NEC9K3G2D9L90BVYR","A2U4JCTILX14EC","3SA4EMRVJVOCGON1OYE6FAUV3KKP05","","320.59999990463257","img/land1.png","74","321.7000000476837","1","1","1","1","0.8,0.2,0.2,0.2,0.8,0.2,0.2,0.2,0.8","0.8,0.2,0.2,0.2,0.8,0.2,0.2,0.2,0.8","1","",""
"","html-keyboard-response","59","35514","0.0-59.0","3NQL1CS15SUO4NEC9K3G2D9L90BVYR","A2U4JCTILX14EC","3SA4EMRVJVOCGON1OYE6FAUV3KKP05","","null","<img src=""img/land1.png"" style=""width:200px; border:14px solid green;"">","null","","","","","","","","","",""
"","image-keyboard-response","60","35789","0.0-60.0","3NQL1CS15SUO4NEC9K3G2D9L90BVYR","A2U4JCTILX14EC","3SA4EMRVJVOCGON1OYE6FAUV3KKP05","","272.7000000476837","img/land6.png","76","273.60000014305115","3","1","2","1","0.8,0.2,0.2,0.2,0.8,0.2,0.2,0.2,0.8","0.8,0.2,0.2,0.2,0.8,0.2,0.2,0.2,0.8","1","",""
"","html-keyboard-response","61","36091","0.0-61.0","3NQL1CS15SUO4NEC9K3G2D9L90BVYR","A2U4JCTILX14EC","3SA4EMRVJVOCGON1OYE6FAUV3KKP05","","null","<img src=""img/land6.png"" style=""width:200px; border:14px solid green;"">","null","","","","","","","","","",""
"","image-keyboard-response","62","36320","0.0-62.0","3NQL1CS15SUO4NEC9K3G2D9L90BVYR","A2U4JCTILX14EC","3SA4EMRVJVOCGON1OYE6FAUV3KKP05","","228.09999990463257","img/land1.png","75","229.10000014305115","2","0","1","1","0.8,0.2,0.2,0.2,0.8,0.2,0.2,0.2,0.8","0.8,0.2,0.2,0.2,0.8,0.2,0.2,0.2,0.8","1","",""
"","html-keyboard-response","63","36622","0.0-63.0","3NQL1CS15SUO4NEC9K3G2D9L90BVYR","A2U4JCTILX14EC","3SA4EMRVJVOCGON1OYE6FAUV3KKP05","","null","<img src=""img/land1.png"" style=""width:200px;border:14px solid red;"">","null","","","","","","","","","",""
"","image-keyboard-response","64","36764","0.0-64.0","3NQL1CS15SUO4NEC9K3G2D9L90BVYR","A2U4JCTILX14EC","3SA4EMRVJVOCGON1OYE6FAUV3KKP05","","141.40000009536743","img/land2.png","74","142.39999985694885","1","0","3","1","0.8,0.2,0.2,0.2,0.8,0.2,0.2,0.2,0.8","0.8,0.2,0.2,0.2,0.8,0.2,0.2,0.2,0.8","1","",""
"","html-keyboard-response","65","37066","0.0-65.0","3NQL1CS15SUO4NEC9K3G2D9L90BVYR","A2U4JCTILX14EC","3SA4EMRVJVOCGON1OYE6FAUV3KKP05","","null","<img src=""img/land2.png"" style=""width:200px;border:14px solid red;"">","null","","","","","","","","","",""
"","image-keyboard-response","66","37188","0.0-66.0","3NQL1CS15SUO4NEC9K3G2D9L90BVYR","A2U4JCTILX14EC","3SA4EMRVJVOCGON1OYE6FAUV3KKP05","","120.29999995231628","img/land2.png","76","121.5","3","1","3","1","0.8,0.2,0.2,0.2,0.8,0.2,0.2,0.2,0.8","0.8,0.2,0.2,0.2,0.8,0.2,0.2,0.2,0.8","1","",""
"","html-keyboard-response","67","37490","0.0-67.0","3NQL1CS15SUO4NEC9K3G2D9L90BVYR","A2U4JCTILX14EC","3SA4EMRVJVOCGON1OYE6FAUV3KKP05","","null","<img src=""img/land2.png"" style=""width:200px; border:14px solid green;"">","null","","","","","","","","","",""
"","image-keyboard-response","68","37791","0.0-68.0","3NQL1CS15SUO4NEC9K3G2D9L90BVYR","A2U4JCTILX14EC","3SA4EMRVJVOCGON1OYE6FAUV3KKP05","","299.2999999523163","img/land2.png","76","300.5","3","1","3","1","0.8,0.2,0.2,0.2,0.8,0.2,0.2,0.2,0.8","0.8,0.2,0.2,0.2,0.8,0.2,0.2,0.2,0.8","1","",""
"","html-keyboard-response","69","38092","0.0-69.0","3NQL1CS15SUO4NEC9K3G2D9L90BVYR","A2U4JCTILX14EC","3SA4EMRVJVOCGON1OYE6FAUV3KKP05","","null","<img src=""img/land2.png"" style=""width:200px; border:14px solid green;"">","null","","","","","","","","","",""
"","image-keyboard-response","70","38348","0.0-70.0","3NQL1CS15SUO4NEC9K3G2D9L90BVYR","A2U4JCTILX14EC","3SA4EMRVJVOCGON1OYE6FAUV3KKP05","","253.89999985694885","img/land2.png","76","255","3","0","3","1","0.8,0.2,0.2,0.2,0.8,0.2,0.2,0.2,0.8","0.8,0.2,0.2,0.2,0.8,0.2,0.2,0.2,0.8","1","",""
"","html-keyboard-response","71","38650","0.0-71.0","3NQL1CS15SUO4NEC9K3G2D9L90BVYR","A2U4JCTILX14EC","3SA4EMRVJVOCGON1OYE6FAUV3KKP05","","null","<img src=""img/land2.png"" style=""width:200px;border:14px solid red;"">","null","","","","","","","","","",""
"","image-keyboard-response","72","38860","0.0-72.0","3NQL1CS15SUO4NEC9K3G2D9L90BVYR","A2U4JCTILX14EC","3SA4EMRVJVOCGON1OYE6FAUV3KKP05","","208.5","img/land6.png","74","209.60000014305115","1","0","2","1","0.8,0.2,0.2,0.2,0.8,0.2,0.2,0.2,0.8","0.8,0.2,0.2,0.2,0.8,0.2,0.2,0.2,0.8","1","",""
"","html-keyboard-response","73","39161","0.0-73.0","3NQL1CS15SUO4NEC9K3G2D9L90BVYR","A2U4JCTILX14EC","3SA4EMRVJVOCGON1OYE6FAUV3KKP05","","null","<img src=""img/land6.png"" style=""width:200px;border:14px solid red;"">","null","","","","","","","","","",""
"","image-keyboard-response","74","39969","0.0-74.0","3NQL1CS15SUO4NEC9K3G2D9L90BVYR","A2U4JCTILX14EC","3SA4EMRVJVOCGON1OYE6FAUV3KKP05","","806.1000001430511","img/land1.png","75","807.0999999046326","2","0","1","1","0.8,0.2,0.2,0.2,0.8,0.2,0.2,0.2,0.8","0.8,0.2,0.2,0.2,0.8,0.2,0.2,0.2,0.8","1","",""
"","html-keyboard-response","75","40271","0.0-75.0","3NQL1CS15SUO4NEC9K3G2D9L90BVYR","A2U4JCTILX14EC","3SA4EMRVJVOCGON1OYE6FAUV3KKP05","","null","<img src=""img/land1.png"" style=""width:200px;border:14px solid red;"">","null","","","","","","","","","",""
"","image-keyboard-response","76","40738","0.0-76.0","3NQL1CS15SUO4NEC9K3G2D9L90BVYR","A2U4JCTILX14EC","3SA4EMRVJVOCGON1OYE6FAUV3KKP05","","464.19999980926514","img/land6.png","75","465.09999990463257","2","1","2","1","0.8,0.2,0.2,0.2,0.8,0.2,0.2,0.2,0.8","0.8,0.2,0.2,0.2,0.8,0.2,0.2,0.2,0.8","1","",""
"","html-keyboard-response","77","41040","0.0-77.0","3NQL1CS15SUO4NEC9K3G2D9L90BVYR","A2U4JCTILX14EC","3SA4EMRVJVOCGON1OYE6FAUV3KKP05","","null","<img src=""img/land6.png"" style=""width:200px; border:14px solid green;"">","null","","","","","","","","","",""
"","image-keyboard-response","78","41560","0.0-78.0","3NQL1CS15SUO4NEC9K3G2D9L90BVYR","A2U4JCTILX14EC","3SA4EMRVJVOCGON1OYE6FAUV3KKP05","","519","img/land1.png","75","519.9000000953674","2","0","1","1","0.8,0.2,0.2,0.2,0.8,0.2,0.2,0.2,0.8","0.8,0.2,0.2,0.2,0.8,0.2,0.2,0.2,0.8","1","",""
"","html-keyboard-response","79","41862","0.0-79.0","3NQL1CS15SUO4NEC9K3G2D9L90BVYR","A2U4JCTILX14EC","3SA4EMRVJVOCGON1OYE6FAUV3KKP05","","null","<img src=""img/land1.png"" style=""width:200px;border:14px solid red;"">","null","","","","","","","","","",""
"","image-keyboard-response","80","42580","0.0-80.0","3NQL1CS15SUO4NEC9K3G2D9L90BVYR","A2U4JCTILX14EC","3SA4EMRVJVOCGON1OYE6FAUV3KKP05","","716.7999999523163","img/land2.png","76","717.7999999523163","3","1","3","1","0.8,0.2,0.2,0.2,0.8,0.2,0.2,0.2,0.8","0.8,0.2,0.2,0.2,0.8,0.2,0.2,0.2,0.8","1","",""
"","html-keyboard-response","81","42882","0.0-81.0","3NQL1CS15SUO4NEC9K3G2D9L90BVYR","A2U4JCTILX14EC","3SA4EMRVJVOCGON1OYE6FAUV3KKP05","","null","<img src=""img/land2.png"" style=""width:200px; border:14px solid green;"">","null","","","","","","","","","",""
"","image-keyboard-response","82","43635","0.0-82.0","3NQL1CS15SUO4NEC9K3G2D9L90BVYR","A2U4JCTILX14EC","3SA4EMRVJVOCGON1OYE6FAUV3KKP05","","751.9000000953674","img/land1.png","75","752.8000001907349","2","0","1","1","0.8,0.2,0.2,0.2,0.8,0.2,0.2,0.2,0.8","0.8,0.2,0.2,0.2,0.8,0.2,0.2,0.2,0.8","1","",""
"","html-keyboard-response","83","43937","0.0-83.0","3NQL1CS15SUO4NEC9K3G2D9L90BVYR","A2U4JCTILX14EC","3SA4EMRVJVOCGON1OYE6FAUV3KKP05","","null","<img src=""img/land1.png"" style=""width:200px;border:14px solid red;"">","null","","","","","","","","","",""
"","image-keyboard-response","84","44494","0.0-84.0","3NQL1CS15SUO4NEC9K3G2D9L90BVYR","A2U4JCTILX14EC","3SA4EMRVJVOCGON1OYE6FAUV3KKP05","","555.6999998092651","img/land6.png","76","557.0999999046326","3","0","2","1","0.8,0.2,0.2,0.2,0.8,0.2,0.2,0.2,0.8","0.8,0.2,0.2,0.2,0.8,0.2,0.2,0.2,0.8","1","",""
"","html-keyboard-response","85","44796","0.0-85.0","3NQL1CS15SUO4NEC9K3G2D9L90BVYR","A2U4JCTILX14EC","3SA4EMRVJVOCGON1OYE6FAUV3KKP05","","null","<img src=""img/land6.png"" style=""width:200px;border:14px solid red;"">","null","","","","","","","","","",""
"","image-keyboard-response","86","44874","0.0-86.0","3NQL1CS15SUO4NEC9K3G2D9L90BVYR","A2U4JCTILX14EC","3SA4EMRVJVOCGON1OYE6FAUV3KKP05","","76.20000004768372","img/land1.png","75","77.30000019073486","2","0","1","1","0.8,0.2,0.2,0.2,0.8,0.2,0.2,0.2,0.8","0.8,0.2,0.2,0.2,0.8,0.2,0.2,0.2,0.8","1","",""
"","html-keyboard-response","87","45175","0.0-87.0","3NQL1CS15SUO4NEC9K3G2D9L90BVYR","A2U4JCTILX14EC","3SA4EMRVJVOCGON1OYE6FAUV3KKP05","","null","<img src=""img/land1.png"" style=""width:200px;border:14px solid red;"">","null","","","","","","","","","",""
"","image-keyboard-response","88","45594","0.0-88.0","3NQL1CS15SUO4NEC9K3G2D9L90BVYR","A2U4JCTILX14EC","3SA4EMRVJVOCGON1OYE6FAUV3KKP05","","417.59999990463257","img/land2.png","75","418.7999999523163","2","0","3","1","0.8,0.2,0.2,0.2,0.8,0.2,0.2,0.2,0.8","0.8,0.2,0.2,0.2,0.8,0.2,0.2,0.2,0.8","1","",""
"","html-keyboard-response","89","45897","0.0-89.0","3NQL1CS15SUO4NEC9K3G2D9L90BVYR","A2U4JCTILX14EC","3SA4EMRVJVOCGON1OYE6FAUV3KKP05","","null","<img src=""img/land2.png"" style=""width:200px;border:14px solid red;"">","null","","","","","","","","","",""
"","image-keyboard-response","90","45990","0.0-90.0","3NQL1CS15SUO4NEC9K3G2D9L90BVYR","A2U4JCTILX14EC","3SA4EMRVJVOCGON1OYE6FAUV3KKP05","","91.89999985694885","img/land6.png","74","92.90000009536743","1","0","2","1","0.8,0.2,0.2,0.2,0.8,0.2,0.2,0.2,0.8","0.8,0.2,0.2,0.2,0.8,0.2,0.2,0.2,0.8","1","",""
"","html-keyboard-response","91","46292","0.0-91.0","3NQL1CS15SUO4NEC9K3G2D9L90BVYR","A2U4JCTILX14EC","3SA4EMRVJVOCGON1OYE6FAUV3KKP05","","null","<img src=""img/land6.png"" style=""width:200px;border:14px solid red;"">","null","","","","","","","","","",""
"","image-keyboard-response","92","46381","0.0-92.0","3NQL1CS15SUO4NEC9K3G2D9L90BVYR","A2U4JCTILX14EC","3SA4EMRVJVOCGON1OYE6FAUV3KKP05","","87.30000019073486","img/land2.png","76","88.29999995231628","3","1","3","1","0.8,0.2,0.2,0.2,0.8,0.2,0.2,0.2,0.8","0.8,0.2,0.2,0.2,0.8,0.2,0.2,0.2,0.8","1","",""
"","html-keyboard-response","93","46683","0.0-93.0","3NQL1CS15SUO4NEC9K3G2D9L90BVYR","A2U4JCTILX14EC","3SA4EMRVJVOCGON1OYE6FAUV3KKP05","","null","<img src=""img/land2.png"" style=""width:200px; border:14px solid green;"">","null","","","","","","","","","",""
"","image-keyboard-response","94","48099","0.0-94.0","3NQL1CS15SUO4NEC9K3G2D9L90BVYR","A2U4JCTILX14EC","3SA4EMRVJVOCGON1OYE6FAUV3KKP05","","1414.5999999046326","img/land1.png","76","1415.5","3","1","1","1","0.8,0.2,0.2,0.2,0.8,0.2,0.2,0.2,0.8","0.8,0.2,0.2,0.2,0.8,0.2,0.2,0.2,0.8","1","",""
"","html-keyboard-response","95","48401","0.0-95.0","3NQL1CS15SUO4NEC9K3G2D9L90BVYR","A2U4JCTILX14EC","3SA4EMRVJVOCGON1OYE6FAUV3KKP05","","null","<img src=""img/land1.png"" style=""width:200px; border:14px solid green;"">","null","","","","","","","","","",""
"","image-keyboard-response","96","49160","0.0-96.0","3NQL1CS15SUO4NEC9K3G2D9L90BVYR","A2U4JCTILX14EC","3SA4EMRVJVOCGON1OYE6FAUV3KKP05","","757.8999998569489","img/land2.png","76","758.9000000953674","3","0","3","1","0.8,0.2,0.2,0.2,0.8,0.2,0.2,0.2,0.8","0.8,0.2,0.2,0.2,0.8,0.2,0.2,0.2,0.8","1","",""
"","html-keyboard-response","97","49462","0.0-97.0","3NQL1CS15SUO4NEC9K3G2D9L90BVYR","A2U4JCTILX14EC","3SA4EMRVJVOCGON1OYE6FAUV3KKP05","","null","<img src=""img/land2.png"" style=""width:200px;border:14px solid red;"">","null","","","","","","","","","",""
"","image-keyboard-response","98","49568","0.0-98.0","3NQL1CS15SUO4NEC9K3G2D9L90BVYR","A2U4JCTILX14EC","3SA4EMRVJVOCGON1OYE6FAUV3KKP05","","104","img/land1.png","74","105.09999990463257","1","1","1","1","0.8,0.2,0.2,0.2,0.8,0.2,0.2,0.2,0.8","0.8,0.2,0.2,0.2,0.8,0.2,0.2,0.2,0.8","1","",""
"","html-keyboard-response","99","49870","0.0-99.0","3NQL1CS15SUO4NEC9K3G2D9L90BVYR","A2U4JCTILX14EC","3SA4EMRVJVOCGON1OYE6FAUV3KKP05","","null","<img src=""img/land1.png"" style=""width:200px; border:14px solid green;"">","null","","","","","","","","","",""
"","image-keyboard-response","100","51102","0.0-100.0","3NQL1CS15SUO4NEC9K3G2D9L90BVYR","A2U4JCTILX14EC","3SA4EMRVJVOCGON1OYE6FAUV3KKP05","","1230.7000000476837","img/land2.png","76","1231.8999998569489","3","1","3","1","0.8,0.2,0.2,0.2,0.8,0.2,0.2,0.2,0.8","0.8,0.2,0.2,0.2,0.8,0.2,0.2,0.2,0.8","1","",""
"","html-keyboard-response","101","51404","0.0-101.0","3NQL1CS15SUO4NEC9K3G2D9L90BVYR","A2U4JCTILX14EC","3SA4EMRVJVOCGON1OYE6FAUV3KKP05","","null","<img src=""img/land2.png"" style=""width:200px; border:14px solid green;"">","null","","","","","","","","","",""
"","image-keyboard-response","102","52079","0.0-102.0","3NQL1CS15SUO4NEC9K3G2D9L90BVYR","A2U4JCTILX14EC","3SA4EMRVJVOCGON1OYE6FAUV3KKP05","","673.5999999046326","img/land6.png","75","674.5999999046326","2","1","2","1","0.8,0.2,0.2,0.2,0.8,0.2,0.2,0.2,0.8","0.8,0.2,0.2,0.2,0.8,0.2,0.2,0.2,0.8","1","",""
"","html-keyboard-response","103","52381","0.0-103.0","3NQL1CS15SUO4NEC9K3G2D9L90BVYR","A2U4JCTILX14EC","3SA4EMRVJVOCGON1OYE6FAUV3KKP05","","null","<img src=""img/land6.png"" style=""width:200px; border:14px solid green;"">","null","","","","","","","","","",""
"","image-keyboard-response","104","52866","0.0-104.0","3NQL1CS15SUO4NEC9K3G2D9L90BVYR","A2U4JCTILX14EC","3SA4EMRVJVOCGON1OYE6FAUV3KKP05","","483.7999999523163","img/land6.png","75","484.7999999523163","2","1","2","1","0.8,0.2,0.2,0.2,0.8,0.2,0.2,0.2,0.8","0.8,0.2,0.2,0.2,0.8,0.2,0.2,0.2,0.8","1","",""
"","html-keyboard-response","105","53169","0.0-105.0","3NQL1CS15SUO4NEC9K3G2D9L90BVYR","A2U4JCTILX14EC","3SA4EMRVJVOCGON1OYE6FAUV3KKP05","","null","<img src=""img/land6.png"" style=""width:200px; border:14px solid green;"">","null","","","","","","","","","",""
"","image-keyboard-response","106","53987","0.0-106.0","3NQL1CS15SUO4NEC9K3G2D9L90BVYR","A2U4JCTILX14EC","3SA4EMRVJVOCGON1OYE6FAUV3KKP05","","816.7000000476837","img/land2.png","76","817.7000000476837","3","1","3","1","0.8,0.2,0.2,0.2,0.8,0.2,0.2,0.2,0.8","0.8,0.2,0.2,0.2,0.8,0.2,0.2,0.2,0.8","1","",""
"","html-keyboard-response","107","54288","0.0-107.0","3NQL1CS15SUO4NEC9K3G2D9L90BVYR","A2U4JCTILX14EC","3SA4EMRVJVOCGON1OYE6FAUV3KKP05","","null","<img src=""img/land2.png"" style=""width:200px; border:14px solid green;"">","null","","","","","","","","","",""
"","image-keyboard-response","108","54645","0.0-108.0","3NQL1CS15SUO4NEC9K3G2D9L90BVYR","A2U4JCTILX14EC","3SA4EMRVJVOCGON1OYE6FAUV3KKP05","","355.60000014305115","img/land6.png","76","356.40000009536743","3","0","2","1","0.8,0.2,0.2,0.2,0.8,0.2,0.2,0.2,0.8","0.8,0.2,0.2,0.2,0.8,0.2,0.2,0.2,0.8","1","",""
"","html-keyboard-response","109","54948","0.0-109.0","3NQL1CS15SUO4NEC9K3G2D9L90BVYR","A2U4JCTILX14EC","3SA4EMRVJVOCGON1OYE6FAUV3KKP05","","null","<img src=""img/land6.png"" style=""width:200px;border:14px solid red;"">","null","","","","","","","","","",""
"","image-keyboard-response","110","55359","0.0-110.0","3NQL1CS15SUO4NEC9K3G2D9L90BVYR","A2U4JCTILX14EC","3SA4EMRVJVOCGON1OYE6FAUV3KKP05","","410.5","img/land2.png","76","411.2000000476837","3","1","3","1","0.8,0.2,0.2,0.2,0.8,0.2,0.2,0.2,0.8","0.8,0.2,0.2,0.2,0.8,0.2,0.2,0.2,0.8","1","",""
"","html-keyboard-response","111","55661","0.0-111.0","3NQL1CS15SUO4NEC9K3G2D9L90BVYR","A2U4JCTILX14EC","3SA4EMRVJVOCGON1OYE6FAUV3KKP05","","null","<img src=""img/land2.png"" style=""width:200px; border:14px solid green;"">","null","","","","","","","","","",""
"","image-keyboard-response","112","55774","0.0-112.0","3NQL1CS15SUO4NEC9K3G2D9L90BVYR","A2U4JCTILX14EC","3SA4EMRVJVOCGON1OYE6FAUV3KKP05","","109.5","img/land2.png","75","112.10000014305115","2","0","3","1","0.8,0.2,0.2,0.2,0.8,0.2,0.2,0.2,0.8","0.8,0.2,0.2,0.2,0.8,0.2,0.2,0.2,0.8","1","",""
"","html-keyboard-response","113","56076","0.0-113.0","3NQL1CS15SUO4NEC9K3G2D9L90BVYR","A2U4JCTILX14EC","3SA4EMRVJVOCGON1OYE6FAUV3KKP05","","null","<img src=""img/land2.png"" style=""width:200px;border:14px solid red;"">","null","","","","","","","","","",""
"","image-keyboard-response","114","56120","0.0-114.0","3NQL1CS15SUO4NEC9K3G2D9L90BVYR","A2U4JCTILX14EC","3SA4EMRVJVOCGON1OYE6FAUV3KKP05","","43","img/land2.png","74","43.700000047683716","1","0","3","1","0.8,0.2,0.2,0.2,0.8,0.2,0.2,0.2,0.8","0.8,0.2,0.2,0.2,0.8,0.2,0.2,0.2,0.8","1","",""
"","html-keyboard-response","115","56421","0.0-115.0","3NQL1CS15SUO4NEC9K3G2D9L90BVYR","A2U4JCTILX14EC","3SA4EMRVJVOCGON1OYE6FAUV3KKP05","","null","<img src=""img/land2.png"" style=""width:200px;border:14px solid red;"">","null","","","","","","","","","",""
"","image-keyboard-response","116","56554","0.0-116.0","3NQL1CS15SUO4NEC9K3G2D9L90BVYR","A2U4JCTILX14EC","3SA4EMRVJVOCGON1OYE6FAUV3KKP05","","130.89999985694885","img/land6.png","76","132.19999980926514","3","0","2","1","0.8,0.2,0.2,0.2,0.8,0.2,0.2,0.2,0.8","0.8,0.2,0.2,0.2,0.8,0.2,0.2,0.2,0.8","1","",""
"","html-keyboard-response","117","56854","0.0-117.0","3NQL1CS15SUO4NEC9K3G2D9L90BVYR","A2U4JCTILX14EC","3SA4EMRVJVOCGON1OYE6FAUV3KKP05","","null","<img src=""img/land6.png"" style=""width:200px;border:14px solid red;"">","null","","","","","","","","","",""
"","image-keyboard-response","118","57172","0.0-118.0","3NQL1CS15SUO4NEC9K3G2D9L90BVYR","A2U4JCTILX14EC","3SA4EMRVJVOCGON1OYE6FAUV3KKP05","","316.39999985694885","img/land2.png","74","317.09999990463257","1","0","3","1","0.8,0.2,0.2,0.2,0.8,0.2,0.2,0.2,0.8","0.8,0.2,0.2,0.2,0.8,0.2,0.2,0.2,0.8","1","",""
"","html-keyboard-response","119","57473","0.0-119.0","3NQL1CS15SUO4NEC9K3G2D9L90BVYR","A2U4JCTILX14EC","3SA4EMRVJVOCGON1OYE6FAUV3KKP05","","null","<img src=""img/land2.png"" style=""width:200px;border:14px solid red;"">","null","","","","","","","","","",""
"","image-keyboard-response","120","57624","0.0-120.0","3NQL1CS15SUO4NEC9K3G2D9L90BVYR","A2U4JCTILX14EC","3SA4EMRVJVOCGON1OYE6FAUV3KKP05","","149","img/land6.png","75","150","2","0","2","1","0.8,0.2,0.2,0.2,0.8,0.2,0.2,0.2,0.8","0.8,0.2,0.2,0.2,0.8,0.2,0.2,0.2,0.8","1","",""
"","html-keyboard-response","121","57925","0.0-121.0","3NQL1CS15SUO4NEC9K3G2D9L90BVYR","A2U4JCTILX14EC","3SA4EMRVJVOCGON1OYE6FAUV3KKP05","","null","<img src=""img/land6.png"" style=""width:200px;border:14px solid red;"">","null","","","","","","","","","",""
"","image-keyboard-response","122","58240","0.0-122.0","3NQL1CS15SUO4NEC9K3G2D9L90BVYR","A2U4JCTILX14EC","3SA4EMRVJVOCGON1OYE6FAUV3KKP05","","312.89999985694885","img/land1.png","76","314.10000014305115","3","0","1","1","0.8,0.2,0.2,0.2,0.8,0.2,0.2,0.2,0.8","0.8,0.2,0.2,0.2,0.8,0.2,0.2,0.2,0.8","1","",""
"","html-keyboard-response","123","58542","0.0-123.0","3NQL1CS15SUO4NEC9K3G2D9L90BVYR","A2U4JCTILX14EC","3SA4EMRVJVOCGON1OYE6FAUV3KKP05","","null","<img src=""img/land1.png"" style=""width:200px;border:14px solid red;"">","null","","","","","","","","","",""
"","image-keyboard-response","124","59000","0.0-124.0","3NQL1CS15SUO4NEC9K3G2D9L90BVYR","A2U4JCTILX14EC","3SA4EMRVJVOCGON1OYE6FAUV3KKP05","","456.60000014305115","img/land6.png","75","457.7000000476837","2","1","2","1","0.8,0.2,0.2,0.2,0.8,0.2,0.2,0.2,0.8","0.8,0.2,0.2,0.2,0.8,0.2,0.2,0.2,0.8","1","",""
"","html-keyboard-response","125","59302","0.0-125.0","3NQL1CS15SUO4NEC9K3G2D9L90BVYR","A2U4JCTILX14EC","3SA4EMRVJVOCGON1OYE6FAUV3KKP05","","null","<img src=""img/land6.png"" style=""width:200px; border:14px solid green;"">","null","","","","","","","","","",""
"","image-keyboard-response","126","59654","0.0-126.0","3NQL1CS15SUO4NEC9K3G2D9L90BVYR","A2U4JCTILX14EC","3SA4EMRVJVOCGON1OYE6FAUV3KKP05","","350.10000014305115","img/land6.png","75","350.90000009536743","2","1","2","1","0.8,0.2,0.2,0.2,0.8,0.2,0.2,0.2,0.8","0.8,0.2,0.2,0.2,0.8,0.2,0.2,0.2,0.8","1","",""
"","html-keyboard-response","127","59955","0.0-127.0","3NQL1CS15SUO4NEC9K3G2D9L90BVYR","A2U4JCTILX14EC","3SA4EMRVJVOCGON1OYE6FAUV3KKP05","","null","<img src=""img/land6.png"" style=""width:200px; border:14px solid green;"">","null","","","","","","","","","",""
"","image-keyboard-response","128","60256","0.0-128.0","3NQL1CS15SUO4NEC9K3G2D9L90BVYR","A2U4JCTILX14EC","3SA4EMRVJVOCGON1OYE6FAUV3KKP05","","298.89999985694885","img/land2.png","75","299.7999999523163","2","1","3","1","0.8,0.2,0.2,0.2,0.8,0.2,0.2,0.2,0.8","0.8,0.2,0.2,0.2,0.8,0.2,0.2,0.2,0.8","1","",""
"","html-keyboard-response","129","60559","0.0-129.0","3NQL1CS15SUO4NEC9K3G2D9L90BVYR","A2U4JCTILX14EC","3SA4EMRVJVOCGON1OYE6FAUV3KKP05","","null","<img src=""img/land2.png"" style=""width:200px; border:14px solid green;"">","null","","","","","","","","","",""
"","image-keyboard-response","130","61158","0.0-130.0","3NQL1CS15SUO4NEC9K3G2D9L90BVYR","A2U4JCTILX14EC","3SA4EMRVJVOCGON1OYE6FAUV3KKP05","","597.5","img/land6.png","76","598.5","3","0","2","1","0.8,0.2,0.2,0.2,0.8,0.2,0.2,0.2,0.8","0.8,0.2,0.2,0.2,0.8,0.2,0.2,0.2,0.8","1","",""
"","html-keyboard-response","131","61459","0.0-131.0","3NQL1CS15SUO4NEC9K3G2D9L90BVYR","A2U4JCTILX14EC","3SA4EMRVJVOCGON1OYE6FAUV3KKP05","","null","<img src=""img/land6.png"" style=""width:200px;border:14px solid red;"">","null","","","","","","","","","",""
"","image-keyboard-response","132","61755","0.0-132.0","3NQL1CS15SUO4NEC9K3G2D9L90BVYR","A2U4JCTILX14EC","3SA4EMRVJVOCGON1OYE6FAUV3KKP05","","295.09999990463257","img/land6.png","74","295.90000009536743","1","0","2","1","0.8,0.2,0.2,0.2,0.8,0.2,0.2,0.2,0.8","0.8,0.2,0.2,0.2,0.8,0.2,0.2,0.2,0.8","1","",""
"","html-keyboard-response","133","62057","0.0-133.0","3NQL1CS15SUO4NEC9K3G2D9L90BVYR","A2U4JCTILX14EC","3SA4EMRVJVOCGON1OYE6FAUV3KKP05","","null","<img src=""img/land6.png"" style=""width:200px;border:14px solid red;"">","null","","","","","","","","","",""
"","image-keyboard-response","134","62455","0.0-134.0","3NQL1CS15SUO4NEC9K3G2D9L90BVYR","A2U4JCTILX14EC","3SA4EMRVJVOCGON1OYE6FAUV3KKP05","","396","img/land2.png","76","397.09999990463257","3","1","3","1","0.8,0.2,0.2,0.2,0.8,0.2,0.2,0.2,0.8","0.8,0.2,0.2,0.2,0.8,0.2,0.2,0.2,0.8","1","",""
"","html-keyboard-response","135","62757","0.0-135.0","3NQL1CS15SUO4NEC9K3G2D9L90BVYR","A2U4JCTILX14EC","3SA4EMRVJVOCGON1OYE6FAUV3KKP05","","null","<img src=""img/land2.png"" style=""width:200px; border:14px solid green;"">","null","","","","","","","","","",""
"","image-keyboard-response","136","62773","0.0-136.0","3NQL1CS15SUO4NEC9K3G2D9L90BVYR","A2U4JCTILX14EC","3SA4EMRVJVOCGON1OYE6FAUV3KKP05","","14.899999856948853","img/land6.png","75","15.899999856948853","2","1","2","1","0.8,0.2,0.2,0.2,0.8,0.2,0.2,0.2,0.8","0.8,0.2,0.2,0.2,0.8,0.2,0.2,0.2,0.8","1","",""
"","html-keyboard-response","137","63075","0.0-137.0","3NQL1CS15SUO4NEC9K3G2D9L90BVYR","A2U4JCTILX14EC","3SA4EMRVJVOCGON1OYE6FAUV3KKP05","","null","<img src=""img/land6.png"" style=""width:200px; border:14px solid green;"">","null","","","","","","","","","",""
"","image-keyboard-response","138","63567","0.0-138.0","3NQL1CS15SUO4NEC9K3G2D9L90BVYR","A2U4JCTILX14EC","3SA4EMRVJVOCGON1OYE6FAUV3KKP05","","490.7000000476837","img/land2.png","76","491.5","3","0","3","1","0.8,0.2,0.2,0.2,0.8,0.2,0.2,0.2,0.8","0.8,0.2,0.2,0.2,0.8,0.2,0.2,0.2,0.8","1","",""
"","html-keyboard-response","139","63869","0.0-139.0","3NQL1CS15SUO4NEC9K3G2D9L90BVYR","A2U4JCTILX14EC","3SA4EMRVJVOCGON1OYE6FAUV3KKP05","","null","<img src=""img/land2.png"" style=""width:200px;border:14px solid red;"">","null","","","","","","","","","",""
"","image-keyboard-response","140","63904","0.0-140.0","3NQL1CS15SUO4NEC9K3G2D9L90BVYR","A2U4JCTILX14EC","3SA4EMRVJVOCGON1OYE6FAUV3KKP05","","33.5","img/land1.png","74","34.200000047683716","1","1","1","1","0.8,0.2,0.2,0.2,0.8,0.2,0.2,0.2,0.8","0.8,0.2,0.2,0.2,0.8,0.2,0.2,0.2,0.8","1","",""
"","html-keyboard-response","141","64205","0.0-141.0","3NQL1CS15SUO4NEC9K3G2D9L90BVYR","A2U4JCTILX14EC","3SA4EMRVJVOCGON1OYE6FAUV3KKP05","","null","<img src=""img/land1.png"" style=""width:200px; border:14px solid green;"">","null","","","","","","","","","",""
"","image-keyboard-response","142","64783","0.0-142.0","3NQL1CS15SUO4NEC9K3G2D9L90BVYR","A2U4JCTILX14EC","3SA4EMRVJVOCGON1OYE6FAUV3KKP05","","577.2000000476837","img/land2.png","76","577.9000000953674","3","1","3","1","0.8,0.2,0.2,0.2,0.8,0.2,0.2,0.2,0.8","0.8,0.2,0.2,0.2,0.8,0.2,0.2,0.2,0.8","1","",""
"","html-keyboard-response","143","65087","0.0-143.0","3NQL1CS15SUO4NEC9K3G2D9L90BVYR","A2U4JCTILX14EC","3SA4EMRVJVOCGON1OYE6FAUV3KKP05","","null","<img src=""img/land2.png"" style=""width:200px; border:14px solid green;"">","null","","","","","","","","","",""
"","image-keyboard-response","144","65822","0.0-144.0","3NQL1CS15SUO4NEC9K3G2D9L90BVYR","A2U4JCTILX14EC","3SA4EMRVJVOCGON1OYE6FAUV3KKP05","","734","img/land6.png","75","735.0999999046326","2","0","2","1","0.8,0.2,0.2,0.2,0.8,0.2,0.2,0.2,0.8","0.8,0.2,0.2,0.2,0.8,0.2,0.2,0.2,0.8","1","",""
"","html-keyboard-response","145","66124","0.0-145.0","3NQL1CS15SUO4NEC9K3G2D9L90BVYR","A2U4JCTILX14EC","3SA4EMRVJVOCGON1OYE6FAUV3KKP05","","null","<img src=""img/land6.png"" style=""width:200px;border:14px solid red;"">","null","","","","","","","","","",""
"","image-keyboard-response","146","66577","0.0-146.0","3NQL1CS15SUO4NEC9K3G2D9L90BVYR","A2U4JCTILX14EC","3SA4EMRVJVOCGON1OYE6FAUV3KKP05","","451.7000000476837","img/land6.png","75","452.7000000476837","2","1","2","1","0.8,0.2,0.2,0.2,0.8,0.2,0.2,0.2,0.8","0.8,0.2,0.2,0.2,0.8,0.2,0.2,0.2,0.8","1","",""
"","html-keyboard-response","147","66879","0.0-147.0","3NQL1CS15SUO4NEC9K3G2D9L90BVYR","A2U4JCTILX14EC","3SA4EMRVJVOCGON1OYE6FAUV3KKP05","","null","<img src=""img/land6.png"" style=""width:200px; border:14px solid green;"">","null","","","","","","","","","",""
"","image-keyboard-response","148","67113","0.0-148.0","3NQL1CS15SUO4NEC9K3G2D9L90BVYR","A2U4JCTILX14EC","3SA4EMRVJVOCGON1OYE6FAUV3KKP05","","232.59999990463257","img/land2.png","75","233.5","2","0","3","1","0.8,0.2,0.2,0.2,0.8,0.2,0.2,0.2,0.8","0.8,0.2,0.2,0.2,0.8,0.2,0.2,0.2,0.8","1","",""
"","html-keyboard-response","149","67415","0.0-149.0","3NQL1CS15SUO4NEC9K3G2D9L90BVYR","A2U4JCTILX14EC","3SA4EMRVJVOCGON1OYE6FAUV3KKP05","","null","<img src=""img/land2.png"" style=""width:200px;border:14px solid red;"">","null","","","","","","","","","",""
"","image-keyboard-response","150","67477","0.0-150.0","3NQL1CS15SUO4NEC9K3G2D9L90BVYR","A2U4JCTILX14EC","3SA4EMRVJVOCGON1OYE6FAUV3KKP05","","60.5","img/land1.png","76","61.40000009536743","3","0","1","1","0.8,0.2,0.2,0.2,0.8,0.2,0.2,0.2,0.8","0.8,0.2,0.2,0.2,0.8,0.2,0.2,0.2,0.8","1","",""
"","html-keyboard-response","151","67779","0.0-151.0","3NQL1CS15SUO4NEC9K3G2D9L90BVYR","A2U4JCTILX14EC","3SA4EMRVJVOCGON1OYE6FAUV3KKP05","","null","<img src=""img/land1.png"" style=""width:200px;border:14px solid red;"">","null","","","","","","","","","",""
"","image-keyboard-response","152","68431","0.0-152.0","3NQL1CS15SUO4NEC9K3G2D9L90BVYR","A2U4JCTILX14EC","3SA4EMRVJVOCGON1OYE6FAUV3KKP05","","650.2000000476837","img/land1.png","75","651.2999999523163","2","0","1","1","0.8,0.2,0.2,0.2,0.8,0.2,0.2,0.2,0.8","0.8,0.2,0.2,0.2,0.8,0.2,0.2,0.2,0.8","1","",""
"","html-keyboard-response","153","68732","0.0-153.0","3NQL1CS15SUO4NEC9K3G2D9L90BVYR","A2U4JCTILX14EC","3SA4EMRVJVOCGON1OYE6FAUV3KKP05","","null","<img src=""img/land1.png"" style=""width:200px;border:14px solid red;"">","null","","","","","","","","","",""
"","image-keyboard-response","154","69214","0.0-154.0","3NQL1CS15SUO4NEC9K3G2D9L90BVYR","A2U4JCTILX14EC","3SA4EMRVJVOCGON1OYE6FAUV3KKP05","","480.39999985694885","img/land1.png","75","481.2000000476837","2","0","1","1","0.8,0.2,0.2,0.2,0.8,0.2,0.2,0.2,0.8","0.8,0.2,0.2,0.2,0.8,0.2,0.2,0.2,0.8","1","",""
"","html-keyboard-response","155","69516","0.0-155.0","3NQL1CS15SUO4NEC9K3G2D9L90BVYR","A2U4JCTILX14EC","3SA4EMRVJVOCGON1OYE6FAUV3KKP05","","null","<img src=""img/land1.png"" style=""width:200px;border:14px solid red;"">","null","","","","","","","","","",""
"","image-keyboard-response","156","70022","0.0-156.0","3NQL1CS15SUO4NEC9K3G2D9L90BVYR","A2U4JCTILX14EC","3SA4EMRVJVOCGON1OYE6FAUV3KKP05","","504.40000009536743","img/land6.png","75","505.5","2","0","2","1","0.8,0.2,0.2,0.2,0.8,0.2,0.2,0.2,0.8","0.8,0.2,0.2,0.2,0.8,0.2,0.2,0.2,0.8","1","",""
"","html-keyboard-response","157","70324","0.0-157.0","3NQL1CS15SUO4NEC9K3G2D9L90BVYR","A2U4JCTILX14EC","3SA4EMRVJVOCGON1OYE6FAUV3KKP05","","null","<img src=""img/land6.png"" style=""width:200px;border:14px solid red;"">","null","","","","","","","","","",""
"","image-keyboard-response","158","70377","0.0-158.0","3NQL1CS15SUO4NEC9K3G2D9L90BVYR","A2U4JCTILX14EC","3SA4EMRVJVOCGON1OYE6FAUV3KKP05","","52.200000047683716","img/land2.png","76","53.09999990463257","3","1","3","1","0.8,0.2,0.2,0.2,0.8,0.2,0.2,0.2,0.8","0.8,0.2,0.2,0.2,0.8,0.2,0.2,0.2,0.8","1","",""
"","html-keyboard-response","159","70688","0.0-159.0","3NQL1CS15SUO4NEC9K3G2D9L90BVYR","A2U4JCTILX14EC","3SA4EMRVJVOCGON1OYE6FAUV3KKP05","","null","<img src=""img/land2.png"" style=""width:200px; border:14px solid green;"">","null","","","","","","","","","",""
"","image-keyboard-response","160","71946","0.0-160.0","3NQL1CS15SUO4NEC9K3G2D9L90BVYR","A2U4JCTILX14EC","3SA4EMRVJVOCGON1OYE6FAUV3KKP05","","1257.2999999523163","img/land1.png","76","1258.1000001430511","3","0","1","1","0.8,0.2,0.2,0.2,0.8,0.2,0.2,0.2,0.8","0.8,0.2,0.2,0.2,0.8,0.2,0.2,0.2,0.8","1","",""
"","html-keyboard-response","161","72249","0.0-161.0","3NQL1CS15SUO4NEC9K3G2D9L90BVYR","A2U4JCTILX14EC","3SA4EMRVJVOCGON1OYE6FAUV3KKP05","","null","<img src=""img/land1.png"" style=""width:200px;border:14px solid red;"">","null","","","","","","","","","",""
"","image-keyboard-response","162","72491","0.0-162.0","3NQL1CS15SUO4NEC9K3G2D9L90BVYR","A2U4JCTILX14EC","3SA4EMRVJVOCGON1OYE6FAUV3KKP05","","240.79999995231628","img/land1.png","76","242","3","1","1","1","0.8,0.2,0.2,0.2,0.8,0.2,0.2,0.2,0.8","0.8,0.2,0.2,0.2,0.8,0.2,0.2,0.2,0.8","1","",""
"","html-keyboard-response","163","72792","0.0-163.0","3NQL1CS15SUO4NEC9K3G2D9L90BVYR","A2U4JCTILX14EC","3SA4EMRVJVOCGON1OYE6FAUV3KKP05","","null","<img src=""img/land1.png"" style=""width:200px; border:14px solid green;"">","null","","","","","","","","","",""
"","image-keyboard-response","164","73445","0.0-164.0","3NQL1CS15SUO4NEC9K3G2D9L90BVYR","A2U4JCTILX14EC","3SA4EMRVJVOCGON1OYE6FAUV3KKP05","","651.2999999523163","img/land6.png","75","652.3999998569489","2","1","2","1","0.8,0.2,0.2,0.2,0.8,0.2,0.2,0.2,0.8","0.8,0.2,0.2,0.2,0.8,0.2,0.2,0.2,0.8","1","",""
"","html-keyboard-response","165","73747","0.0-165.0","3NQL1CS15SUO4NEC9K3G2D9L90BVYR","A2U4JCTILX14EC","3SA4EMRVJVOCGON1OYE6FAUV3KKP05","","null","<img src=""img/land6.png"" style=""width:200px; border:14px solid green;"">","null","","","","","","","","","",""
"","image-keyboard-response","166","74501","0.0-166.0","3NQL1CS15SUO4NEC9K3G2D9L90BVYR","A2U4JCTILX14EC","3SA4EMRVJVOCGON1OYE6FAUV3KKP05","","752.6999998092651","img/land1.png","75","753.5999999046326","2","0","1","1","0.8,0.2,0.2,0.2,0.8,0.2,0.2,0.2,0.8","0.8,0.2,0.2,0.2,0.8,0.2,0.2,0.2,0.8","1","",""
"","html-keyboard-response","167","74803","0.0-167.0","3NQL1CS15SUO4NEC9K3G2D9L90BVYR","A2U4JCTILX14EC","3SA4EMRVJVOCGON1OYE6FAUV3KKP05","","null","<img src=""img/land1.png"" style=""width:200px;border:14px solid red;"">","null","","","","","","","","","",""
"","image-keyboard-response","168","75567","0.0-168.0","3NQL1CS15SUO4NEC9K3G2D9L90BVYR","A2U4JCTILX14EC","3SA4EMRVJVOCGON1OYE6FAUV3KKP05","","762.8000001907349","img/land2.png","76","763.9000000953674","3","1","3","1","0.8,0.2,0.2,0.2,0.8,0.2,0.2,0.2,0.8","0.8,0.2,0.2,0.2,0.8,0.2,0.2,0.2,0.8","1","",""
"","html-keyboard-response","169","75869","0.0-169.0","3NQL1CS15SUO4NEC9K3G2D9L90BVYR","A2U4JCTILX14EC","3SA4EMRVJVOCGON1OYE6FAUV3KKP05","","null","<img src=""img/land2.png"" style=""width:200px; border:14px solid green;"">","null","","","","","","","","","",""
"","image-keyboard-response","170","76199","0.0-170.0","3NQL1CS15SUO4NEC9K3G2D9L90BVYR","A2U4JCTILX14EC","3SA4EMRVJVOCGON1OYE6FAUV3KKP05","","328.2999999523163","img/land2.png","76","329.5","3","1","3","1","0.8,0.2,0.2,0.2,0.8,0.2,0.2,0.2,0.8","0.8,0.2,0.2,0.2,0.8,0.2,0.2,0.2,0.8","1","",""
"","html-keyboard-response","171","76501","0.0-171.0","3NQL1CS15SUO4NEC9K3G2D9L90BVYR","A2U4JCTILX14EC","3SA4EMRVJVOCGON1OYE6FAUV3KKP05","","null","<img src=""img/land2.png"" style=""width:200px; border:14px solid green;"">","null","","","","","","","","","",""
"","image-keyboard-response","172","76804","0.0-172.0","3NQL1CS15SUO4NEC9K3G2D9L90BVYR","A2U4JCTILX14EC","3SA4EMRVJVOCGON1OYE6FAUV3KKP05","","301","img/land2.png","76","301.90000009536743","3","1","3","1","0.8,0.2,0.2,0.2,0.8,0.2,0.2,0.2,0.8","0.8,0.2,0.2,0.2,0.8,0.2,0.2,0.2,0.8","1","",""
"","html-keyboard-response","173","77106","0.0-173.0","3NQL1CS15SUO4NEC9K3G2D9L90BVYR","A2U4JCTILX14EC","3SA4EMRVJVOCGON1OYE6FAUV3KKP05","","null","<img src=""img/land2.png"" style=""width:200px; border:14px solid green;"">","null","","","","","","","","","",""
"","image-keyboard-response","174","78020","0.0-174.0","3NQL1CS15SUO4NEC9K3G2D9L90BVYR","A2U4JCTILX14EC","3SA4EMRVJVOCGON1OYE6FAUV3KKP05","","912.8999998569489","img/land1.png","76","913.8999998569489","3","0","1","1","0.8,0.2,0.2,0.2,0.8,0.2,0.2,0.2,0.8","0.8,0.2,0.2,0.2,0.8,0.2,0.2,0.2,0.8","1","",""
"","html-keyboard-response","175","78322","0.0-175.0","3NQL1CS15SUO4NEC9K3G2D9L90BVYR","A2U4JCTILX14EC","3SA4EMRVJVOCGON1OYE6FAUV3KKP05","","null","<img src=""img/land1.png"" style=""width:200px;border:14px solid red;"">","null","","","","","","","","","",""
"","image-keyboard-response","176","78540","0.0-176.0","3NQL1CS15SUO4NEC9K3G2D9L90BVYR","A2U4JCTILX14EC","3SA4EMRVJVOCGON1OYE6FAUV3KKP05","","215.70000004768372","img/land6.png","75","216.79999995231628","2","1","2","1","0.8,0.2,0.2,0.2,0.8,0.2,0.2,0.2,0.8","0.8,0.2,0.2,0.2,0.8,0.2,0.2,0.2,0.8","1","",""
"","html-keyboard-response","177","78841","0.0-177.0","3NQL1CS15SUO4NEC9K3G2D9L90BVYR","A2U4JCTILX14EC","3SA4EMRVJVOCGON1OYE6FAUV3KKP05","","null","<img src=""img/land6.png"" style=""width:200px; border:14px solid green;"">","null","","","","","","","","","",""
"","image-keyboard-response","178","79422","0.0-178.0","3NQL1CS15SUO4NEC9K3G2D9L90BVYR","A2U4JCTILX14EC","3SA4EMRVJVOCGON1OYE6FAUV3KKP05","","579.2999999523163","img/land2.png","74","580.2999999523163","1","0","3","1","0.8,0.2,0.2,0.2,0.8,0.2,0.2,0.2,0.8","0.8,0.2,0.2,0.2,0.8,0.2,0.2,0.2,0.8","1","",""
"","html-keyboard-response","179","79724","0.0-179.0","3NQL1CS15SUO4NEC9K3G2D9L90BVYR","A2U4JCTILX14EC","3SA4EMRVJVOCGON1OYE6FAUV3KKP05","","null","<img src=""img/land2.png"" style=""width:200px;border:14px solid red;"">","null","","","","","","","","","",""
"","image-keyboard-response","180","79953","0.0-180.0","3NQL1CS15SUO4NEC9K3G2D9L90BVYR","A2U4JCTILX14EC","3SA4EMRVJVOCGON1OYE6FAUV3KKP05","","227.20000004768372","img/land1.png","74","228.30000019073486","1","0","1","1","0.8,0.2,0.2,0.2,0.8,0.2,0.2,0.2,0.8","0.8,0.2,0.2,0.2,0.8,0.2,0.2,0.2,0.8","1","",""
"","html-keyboard-response","181","80254","0.0-181.0","3NQL1CS15SUO4NEC9K3G2D9L90BVYR","A2U4JCTILX14EC","3SA4EMRVJVOCGON1OYE6FAUV3KKP05","","null","<img src=""img/land1.png"" style=""width:200px;border:14px solid red;"">","null","","","","","","","","","",""
"","html-keyboard-response","182","96959","0.0-182.0","3NQL1CS15SUO4NEC9K3G2D9L90BVYR","A2U4JCTILX14EC","3SA4EMRVJVOCGON1OYE6FAUV3KKP05","","","","","","","","","","","","","",""
"","image-keyboard-response","183","98361","0.0-183.0","3NQL1CS15SUO4NEC9K3G2D9L90BVYR","A2U4JCTILX14EC","3SA4EMRVJVOCGON1OYE6FAUV3KKP05","","1400.4000000953674","img/land4.png","75","1401.5999999046326","2","0","1","2","0.8,0.2,0.2,0.2,0.8,0.2,0.2,0.2,0.8","0.2,0.2,0.8,0.8,0.2,0.2,0.2,0.8,0.2","2","",""
"","html-keyboard-response","184","98663","0.0-184.0","3NQL1CS15SUO4NEC9K3G2D9L90BVYR","A2U4JCTILX14EC","3SA4EMRVJVOCGON1OYE6FAUV3KKP05","","null","<img src=""img/land4.png"" style=""width:200px;border:14px solid red;"">","null","","","","","","","","","",""
"","image-keyboard-response","185","98768","0.0-185.0","3NQL1CS15SUO4NEC9K3G2D9L90BVYR","A2U4JCTILX14EC","3SA4EMRVJVOCGON1OYE6FAUV3KKP05","","103.29999995231628","img/land4.png","76","104.40000009536743","3","1","1","2","0.8,0.2,0.2,0.2,0.8,0.2,0.2,0.2,0.8","0.2,0.2,0.8,0.8,0.2,0.2,0.2,0.8,0.2","2","",""
"","html-keyboard-response","186","99069","0.0-186.0","3NQL1CS15SUO4NEC9K3G2D9L90BVYR","A2U4JCTILX14EC","3SA4EMRVJVOCGON1OYE6FAUV3KKP05","","null","<img src=""img/land4.png"" style=""width:200px; border:14px solid green;"">","null","","","","","","","","","",""
"","image-keyboard-response","187","99456","0.0-187.0","3NQL1CS15SUO4NEC9K3G2D9L90BVYR","A2U4JCTILX14EC","3SA4EMRVJVOCGON1OYE6FAUV3KKP05","","384.59999990463257","img/land4.png","76","385.59999990463257","3","1","1","2","0.8,0.2,0.2,0.2,0.8,0.2,0.2,0.2,0.8","0.2,0.2,0.8,0.8,0.2,0.2,0.2,0.8,0.2","2","",""
"","html-keyboard-response","188","99758","0.0-188.0","3NQL1CS15SUO4NEC9K3G2D9L90BVYR","A2U4JCTILX14EC","3SA4EMRVJVOCGON1OYE6FAUV3KKP05","","null","<img src=""img/land4.png"" style=""width:200px; border:14px solid green;"">","null","","","","","","","","","",""
"","image-keyboard-response","189","100464","0.0-189.0","3NQL1CS15SUO4NEC9K3G2D9L90BVYR","A2U4JCTILX14EC","3SA4EMRVJVOCGON1OYE6FAUV3KKP05","","704.8999998569489","img/land4.png","76","705.6999998092651","3","1","1","2","0.8,0.2,0.2,0.2,0.8,0.2,0.2,0.2,0.8","0.2,0.2,0.8,0.8,0.2,0.2,0.2,0.8,0.2","2","",""
"","html-keyboard-response","190","100766","0.0-190.0","3NQL1CS15SUO4NEC9K3G2D9L90BVYR","A2U4JCTILX14EC","3SA4EMRVJVOCGON1OYE6FAUV3KKP05","","null","<img src=""img/land4.png"" style=""width:200px; border:14px solid green;"">","null","","","","","","","","","",""
"","image-keyboard-response","191","101766","0.0-191.0","3NQL1CS15SUO4NEC9K3G2D9L90BVYR","A2U4JCTILX14EC","3SA4EMRVJVOCGON1OYE6FAUV3KKP05","","998.5","img/land3.png","74","999.3999998569489","1","0","3","2","0.8,0.2,0.2,0.2,0.8,0.2,0.2,0.2,0.8","0.2,0.2,0.8,0.8,0.2,0.2,0.2,0.8,0.2","2","",""
"","html-keyboard-response","192","102068","0.0-192.0","3NQL1CS15SUO4NEC9K3G2D9L90BVYR","A2U4JCTILX14EC","3SA4EMRVJVOCGON1OYE6FAUV3KKP05","","null","<img src=""img/land3.png"" style=""width:200px;border:14px solid red;"">","null","","","","","","","","","",""
"","image-keyboard-response","193","102315","0.0-193.0","3NQL1CS15SUO4NEC9K3G2D9L90BVYR","A2U4JCTILX14EC","3SA4EMRVJVOCGON1OYE6FAUV3KKP05","","246.10000014305115","img/land4.png","74","246.79999995231628","1","1","1","2","0.8,0.2,0.2,0.2,0.8,0.2,0.2,0.2,0.8","0.2,0.2,0.8,0.8,0.2,0.2,0.2,0.8,0.2","2","",""
"","html-keyboard-response","194","102617","0.0-194.0","3NQL1CS15SUO4NEC9K3G2D9L90BVYR","A2U4JCTILX14EC","3SA4EMRVJVOCGON1OYE6FAUV3KKP05","","null","<img src=""img/land4.png"" style=""width:200px; border:14px solid green;"">","null","","","","","","","","","",""
"","image-keyboard-response","195","103044","0.0-195.0","3NQL1CS15SUO4NEC9K3G2D9L90BVYR","A2U4JCTILX14EC","3SA4EMRVJVOCGON1OYE6FAUV3KKP05","","425.09999990463257","img/land4.png","74","426.2000000476837","1","0","1","2","0.8,0.2,0.2,0.2,0.8,0.2,0.2,0.2,0.8","0.2,0.2,0.8,0.8,0.2,0.2,0.2,0.8,0.2","2","",""
"","html-keyboard-response","196","103345","0.0-196.0","3NQL1CS15SUO4NEC9K3G2D9L90BVYR","A2U4JCTILX14EC","3SA4EMRVJVOCGON1OYE6FAUV3KKP05","","null","<img src=""img/land4.png"" style=""width:200px;border:14px solid red;"">","null","","","","","","","","","",""
"","image-keyboard-response","197","103422","0.0-197.0","3NQL1CS15SUO4NEC9K3G2D9L90BVYR","A2U4JCTILX14EC","3SA4EMRVJVOCGON1OYE6FAUV3KKP05","","74.5","img/land5.png","76","75.70000004768372","3","0","2","2","0.8,0.2,0.2,0.2,0.8,0.2,0.2,0.2,0.8","0.2,0.2,0.8,0.8,0.2,0.2,0.2,0.8,0.2","2","",""
"","html-keyboard-response","198","103724","0.0-198.0","3NQL1CS15SUO4NEC9K3G2D9L90BVYR","A2U4JCTILX14EC","3SA4EMRVJVOCGON1OYE6FAUV3KKP05","","null","<img src=""img/land5.png"" style=""width:200px;border:14px solid red;"">","null","","","","","","","","","",""
"","image-keyboard-response","199","104283","0.0-199.0","3NQL1CS15SUO4NEC9K3G2D9L90BVYR","A2U4JCTILX14EC","3SA4EMRVJVOCGON1OYE6FAUV3KKP05","","558","img/land4.png","76","559.1000001430511","3","1","1","2","0.8,0.2,0.2,0.2,0.8,0.2,0.2,0.2,0.8","0.2,0.2,0.8,0.8,0.2,0.2,0.2,0.8,0.2","2","",""
"","html-keyboard-response","200","104585","0.0-200.0","3NQL1CS15SUO4NEC9K3G2D9L90BVYR","A2U4JCTILX14EC","3SA4EMRVJVOCGON1OYE6FAUV3KKP05","","null","<img src=""img/land4.png"" style=""width:200px; border:14px solid green;"">","null","","","","","","","","","",""
"","image-keyboard-response","201","105193","0.0-201.0","3NQL1CS15SUO4NEC9K3G2D9L90BVYR","A2U4JCTILX14EC","3SA4EMRVJVOCGON1OYE6FAUV3KKP05","","606.2000000476837","img/land3.png","75","607.0999999046326","2","1","3","2","0.8,0.2,0.2,0.2,0.8,0.2,0.2,0.2,0.8","0.2,0.2,0.8,0.8,0.2,0.2,0.2,0.8,0.2","2","",""
"","html-keyboard-response","202","105494","0.0-202.0","3NQL1CS15SUO4NEC9K3G2D9L90BVYR","A2U4JCTILX14EC","3SA4EMRVJVOCGON1OYE6FAUV3KKP05","","null","<img src=""img/land3.png"" style=""width:200px; border:14px solid green;"">","null","","","","","","","","","",""
"","image-keyboard-response","203","105789","0.0-203.0","3NQL1CS15SUO4NEC9K3G2D9L90BVYR","A2U4JCTILX14EC","3SA4EMRVJVOCGON1OYE6FAUV3KKP05","","293","img/land3.png","75","293.90000009536743","2","1","3","2","0.8,0.2,0.2,0.2,0.8,0.2,0.2,0.2,0.8","0.2,0.2,0.8,0.8,0.2,0.2,0.2,0.8,0.2","2","",""
"","html-keyboard-response","204","106091","0.0-204.0","3NQL1CS15SUO4NEC9K3G2D9L90BVYR","A2U4JCTILX14EC","3SA4EMRVJVOCGON1OYE6FAUV3KKP05","","null","<img src=""img/land3.png"" style=""width:200px; border:14px solid green;"">","null","","","","","","","","","",""
"","image-keyboard-response","205","106792","0.0-205.0","3NQL1CS15SUO4NEC9K3G2D9L90BVYR","A2U4JCTILX14EC","3SA4EMRVJVOCGON1OYE6FAUV3KKP05","","699.2999999523163","img/land3.png","75","700.3000001907349","2","1","3","2","0.8,0.2,0.2,0.2,0.8,0.2,0.2,0.2,0.8","0.2,0.2,0.8,0.8,0.2,0.2,0.2,0.8,0.2","2","",""
"","html-keyboard-response","206","107094","0.0-206.0","3NQL1CS15SUO4NEC9K3G2D9L90BVYR","A2U4JCTILX14EC","3SA4EMRVJVOCGON1OYE6FAUV3KKP05","","null","<img src=""img/land3.png"" style=""width:200px; border:14px solid green;"">","null","","","","","","","","","",""
"","image-keyboard-response","207","107554","0.0-207.0","3NQL1CS15SUO4NEC9K3G2D9L90BVYR","A2U4JCTILX14EC","3SA4EMRVJVOCGON1OYE6FAUV3KKP05","","458.89999985694885","img/land4.png","76","459.89999985694885","3","1","1","2","0.8,0.2,0.2,0.2,0.8,0.2,0.2,0.2,0.8","0.2,0.2,0.8,0.8,0.2,0.2,0.2,0.8,0.2","2","",""
"","html-keyboard-response","208","107856","0.0-208.0","3NQL1CS15SUO4NEC9K3G2D9L90BVYR","A2U4JCTILX14EC","3SA4EMRVJVOCGON1OYE6FAUV3KKP05","","null","<img src=""img/land4.png"" style=""width:200px; border:14px solid green;"">","null","","","","","","","","","",""
"","image-keyboard-response","209","108168","0.0-209.0","3NQL1CS15SUO4NEC9K3G2D9L90BVYR","A2U4JCTILX14EC","3SA4EMRVJVOCGON1OYE6FAUV3KKP05","","311.10000014305115","img/land4.png","76","312.2000000476837","3","1","1","2","0.8,0.2,0.2,0.2,0.8,0.2,0.2,0.2,0.8","0.2,0.2,0.8,0.8,0.2,0.2,0.2,0.8,0.2","2","",""
"","html-keyboard-response","210","108470","0.0-210.0","3NQL1CS15SUO4NEC9K3G2D9L90BVYR","A2U4JCTILX14EC","3SA4EMRVJVOCGON1OYE6FAUV3KKP05","","null","<img src=""img/land4.png"" style=""width:200px; border:14px solid green;"">","null","","","","","","","","","",""
"","image-keyboard-response","211","108727","0.0-211.0","3NQL1CS15SUO4NEC9K3G2D9L90BVYR","A2U4JCTILX14EC","3SA4EMRVJVOCGON1OYE6FAUV3KKP05","","256.2999999523163","img/land4.png","76","257.30000019073486","3","1","1","2","0.8,0.2,0.2,0.2,0.8,0.2,0.2,0.2,0.8","0.2,0.2,0.8,0.8,0.2,0.2,0.2,0.8,0.2","2","",""
"","html-keyboard-response","212","109029","0.0-212.0","3NQL1CS15SUO4NEC9K3G2D9L90BVYR","A2U4JCTILX14EC","3SA4EMRVJVOCGON1OYE6FAUV3KKP05","","null","<img src=""img/land4.png"" style=""width:200px; border:14px solid green;"">","null","","","","","","","","","",""
"","image-keyboard-response","213","109318","0.0-213.0","3NQL1CS15SUO4NEC9K3G2D9L90BVYR","A2U4JCTILX14EC","3SA4EMRVJVOCGON1OYE6FAUV3KKP05","","287.2000000476837","img/land4.png","76","288.40000009536743","3","1","1","2","0.8,0.2,0.2,0.2,0.8,0.2,0.2,0.2,0.8","0.2,0.2,0.8,0.8,0.2,0.2,0.2,0.8,0.2","2","",""
"","html-keyboard-response","214","109620","0.0-214.0","3NQL1CS15SUO4NEC9K3G2D9L90BVYR","A2U4JCTILX14EC","3SA4EMRVJVOCGON1OYE6FAUV3KKP05","","null","<img src=""img/land4.png"" style=""width:200px; border:14px solid green;"">","null","","","","","","","","","",""
"","image-keyboard-response","215","109915","0.0-215.0","3NQL1CS15SUO4NEC9K3G2D9L90BVYR","A2U4JCTILX14EC","3SA4EMRVJVOCGON1OYE6FAUV3KKP05","","293.89999985694885","img/land4.png","76","294.90000009536743","3","1","1","2","0.8,0.2,0.2,0.2,0.8,0.2,0.2,0.2,0.8","0.2,0.2,0.8,0.8,0.2,0.2,0.2,0.8,0.2","2","",""
"","html-keyboard-response","216","110217","0.0-216.0","3NQL1CS15SUO4NEC9K3G2D9L90BVYR","A2U4JCTILX14EC","3SA4EMRVJVOCGON1OYE6FAUV3KKP05","","null","<img src=""img/land4.png"" style=""width:200px; border:14px solid green;"">","null","","","","","","","","","",""
"","image-keyboard-response","217","110499","0.0-217.0","3NQL1CS15SUO4NEC9K3G2D9L90BVYR","A2U4JCTILX14EC","3SA4EMRVJVOCGON1OYE6FAUV3KKP05","","280.7000000476837","img/land4.png","76","281.59999990463257","3","1","1","2","0.8,0.2,0.2,0.2,0.8,0.2,0.2,0.2,0.8","0.2,0.2,0.8,0.8,0.2,0.2,0.2,0.8,0.2","2","",""
"","html-keyboard-response","218","110801","0.0-218.0","3NQL1CS15SUO4NEC9K3G2D9L90BVYR","A2U4JCTILX14EC","3SA4EMRVJVOCGON1OYE6FAUV3KKP05","","null","<img src=""img/land4.png"" style=""width:200px; border:14px solid green;"">","null","","","","","","","","","",""
"","image-keyboard-response","219","111071","0.0-219.0","3NQL1CS15SUO4NEC9K3G2D9L90BVYR","A2U4JCTILX14EC","3SA4EMRVJVOCGON1OYE6FAUV3KKP05","","268.7999999523163","img/land4.png","76","269.60000014305115","3","1","1","2","0.8,0.2,0.2,0.2,0.8,0.2,0.2,0.2,0.8","0.2,0.2,0.8,0.8,0.2,0.2,0.2,0.8,0.2","2","",""
"","html-keyboard-response","220","111374","0.0-220.0","3NQL1CS15SUO4NEC9K3G2D9L90BVYR","A2U4JCTILX14EC","3SA4EMRVJVOCGON1OYE6FAUV3KKP05","","null","<img src=""img/land4.png"" style=""width:200px; border:14px solid green;"">","null","","","","","","","","","",""
"","image-keyboard-response","221","111640","0.0-221.0","3NQL1CS15SUO4NEC9K3G2D9L90BVYR","A2U4JCTILX14EC","3SA4EMRVJVOCGON1OYE6FAUV3KKP05","","264.89999985694885","img/land4.png","76","265.90000009536743","3","1","1","2","0.8,0.2,0.2,0.2,0.8,0.2,0.2,0.2,0.8","0.2,0.2,0.8,0.8,0.2,0.2,0.2,0.8,0.2","2","",""
"","html-keyboard-response","222","111941","0.0-222.0","3NQL1CS15SUO4NEC9K3G2D9L90BVYR","A2U4JCTILX14EC","3SA4EMRVJVOCGON1OYE6FAUV3KKP05","","null","<img src=""img/land4.png"" style=""width:200px; border:14px solid green;"">","null","","","","","","","","","",""
"","image-keyboard-response","223","112163","0.0-223.0","3NQL1CS15SUO4NEC9K3G2D9L90BVYR","A2U4JCTILX14EC","3SA4EMRVJVOCGON1OYE6FAUV3KKP05","","219.5","img/land3.png","76","221","3","0","3","2","0.8,0.2,0.2,0.2,0.8,0.2,0.2,0.2,0.8","0.2,0.2,0.8,0.8,0.2,0.2,0.2,0.8,0.2","2","",""
"","html-keyboard-response","224","112469","0.0-224.0","3NQL1CS15SUO4NEC9K3G2D9L90BVYR","A2U4JCTILX14EC","3SA4EMRVJVOCGON1OYE6FAUV3KKP05","","null","<img src=""img/land3.png"" style=""width:200px;border:14px solid red;"">","null","","","","","","","","","",""
"","image-keyboard-response","225","112488","0.0-225.0","3NQL1CS15SUO4NEC9K3G2D9L90BVYR","A2U4JCTILX14EC","3SA4EMRVJVOCGON1OYE6FAUV3KKP05","","18.200000047683716","img/land3.png","75","19","2","1","3","2","0.8,0.2,0.2,0.2,0.8,0.2,0.2,0.2,0.8","0.2,0.2,0.8,0.8,0.2,0.2,0.2,0.8,0.2","2","",""
"","html-keyboard-response","226","112790","0.0-226.0","3NQL1CS15SUO4NEC9K3G2D9L90BVYR","A2U4JCTILX14EC","3SA4EMRVJVOCGON1OYE6FAUV3KKP05","","null","<img src=""img/land3.png"" style=""width:200px; border:14px solid green;"">","null","","","","","","","","","",""
"","image-keyboard-response","227","112870","0.0-227.0","3NQL1CS15SUO4NEC9K3G2D9L90BVYR","A2U4JCTILX14EC","3SA4EMRVJVOCGON1OYE6FAUV3KKP05","","78.5","img/land4.png","75","79.39999985694885","2","0","1","2","0.8,0.2,0.2,0.2,0.8,0.2,0.2,0.2,0.8","0.2,0.2,0.8,0.8,0.2,0.2,0.2,0.8,0.2","2","",""
"","html-keyboard-response","228","113173","0.0-228.0","3NQL1CS15SUO4NEC9K3G2D9L90BVYR","A2U4JCTILX14EC","3SA4EMRVJVOCGON1OYE6FAUV3KKP05","","null","<img src=""img/land4.png"" style=""width:200px;border:14px solid red;"">","null","","","","","","","","","",""
"","image-keyboard-response","229","113335","0.0-229.0","3NQL1CS15SUO4NEC9K3G2D9L90BVYR","A2U4JCTILX14EC","3SA4EMRVJVOCGON1OYE6FAUV3KKP05","","160.79999995231628","img/land4.png","76","161.79999995231628","3","0","1","2","0.8,0.2,0.2,0.2,0.8,0.2,0.2,0.2,0.8","0.2,0.2,0.8,0.8,0.2,0.2,0.2,0.8,0.2","2","",""
"","html-keyboard-response","230","113638","0.0-230.0","3NQL1CS15SUO4NEC9K3G2D9L90BVYR","A2U4JCTILX14EC","3SA4EMRVJVOCGON1OYE6FAUV3KKP05","","null","<img src=""img/land4.png"" style=""width:200px;border:14px solid red;"">","null","","","","","","","","","",""
"","image-keyboard-response","231","114876","0.0-231.0","3NQL1CS15SUO4NEC9K3G2D9L90BVYR","A2U4JCTILX14EC","3SA4EMRVJVOCGON1OYE6FAUV3KKP05","","1236.6000001430511","img/land5.png","74","1237.6999998092651","1","0","2","2","0.8,0.2,0.2,0.2,0.8,0.2,0.2,0.2,0.8","0.2,0.2,0.8,0.8,0.2,0.2,0.2,0.8,0.2","2","",""
"","html-keyboard-response","232","115179","0.0-232.0","3NQL1CS15SUO4NEC9K3G2D9L90BVYR","A2U4JCTILX14EC","3SA4EMRVJVOCGON1OYE6FAUV3KKP05","","null","<img src=""img/land5.png"" style=""width:200px;border:14px solid red;"">","null","","","","","","","","","",""
"","image-keyboard-response","233","115305","0.0-233.0","3NQL1CS15SUO4NEC9K3G2D9L90BVYR","A2U4JCTILX14EC","3SA4EMRVJVOCGON1OYE6FAUV3KKP05","","124.70000004768372","img/land5.png","74","125.59999990463257","1","1","2","2","0.8,0.2,0.2,0.2,0.8,0.2,0.2,0.2,0.8","0.2,0.2,0.8,0.8,0.2,0.2,0.2,0.8,0.2","2","",""
"","html-keyboard-response","234","115607","0.0-234.0","3NQL1CS15SUO4NEC9K3G2D9L90BVYR","A2U4JCTILX14EC","3SA4EMRVJVOCGON1OYE6FAUV3KKP05","","null","<img src=""img/land5.png"" style=""width:200px; border:14px solid green;"">","null","","","","","","","","","",""
"","image-keyboard-response","235","117609","0.0-235.0","3NQL1CS15SUO4NEC9K3G2D9L90BVYR","A2U4JCTILX14EC","3SA4EMRVJVOCGON1OYE6FAUV3KKP05","","","img/land3.png","","2002","-1","0","3","2","0.8,0.2,0.2,0.2,0.8,0.2,0.2,0.2,0.8","0.2,0.2,0.8,0.8,0.2,0.2,0.2,0.8,0.2","2","",""
"","html-keyboard-response","236","117911","0.0-236.0","3NQL1CS15SUO4NEC9K3G2D9L90BVYR","A2U4JCTILX14EC","3SA4EMRVJVOCGON1OYE6FAUV3KKP05","","null","<img src=""img/land3.png"" style=""width:200px;border:14px solid red;"">","null","","","","","","","","","",""
"","image-keyboard-response","237","117983","0.0-237.0","3NQL1CS15SUO4NEC9K3G2D9L90BVYR","A2U4JCTILX14EC","3SA4EMRVJVOCGON1OYE6FAUV3KKP05","","70.5","img/land5.png","75","71.5","2","1","2","2","0.8,0.2,0.2,0.2,0.8,0.2,0.2,0.2,0.8","0.2,0.2,0.8,0.8,0.2,0.2,0.2,0.8,0.2","2","",""
"","html-keyboard-response","238","118287","0.0-238.0","3NQL1CS15SUO4NEC9K3G2D9L90BVYR","A2U4JCTILX14EC","3SA4EMRVJVOCGON1OYE6FAUV3KKP05","","null","<img src=""img/land5.png"" style=""width:200px; border:14px solid green;"">","null","","","","","","","","","",""
"","image-keyboard-response","239","118982","0.0-239.0","3NQL1CS15SUO4NEC9K3G2D9L90BVYR","A2U4JCTILX14EC","3SA4EMRVJVOCGON1OYE6FAUV3KKP05","","693.1000001430511","img/land3.png","75","694.2000000476837","2","1","3","2","0.8,0.2,0.2,0.2,0.8,0.2,0.2,0.2,0.8","0.2,0.2,0.8,0.8,0.2,0.2,0.2,0.8,0.2","2","",""
"","html-keyboard-response","240","119284","0.0-240.0","3NQL1CS15SUO4NEC9K3G2D9L90BVYR","A2U4JCTILX14EC","3SA4EMRVJVOCGON1OYE6FAUV3KKP05","","null","<img src=""img/land3.png"" style=""width:200px; border:14px solid green;"">","null","","","","","","","","","",""
"","image-keyboard-response","241","119567","0.0-241.0","3NQL1CS15SUO4NEC9K3G2D9L90BVYR","A2U4JCTILX14EC","3SA4EMRVJVOCGON1OYE6FAUV3KKP05","","281.39999985694885","img/land4.png","75","282.40000009536743","2","0","1","2","0.8,0.2,0.2,0.2,0.8,0.2,0.2,0.2,0.8","0.2,0.2,0.8,0.8,0.2,0.2,0.2,0.8,0.2","2","",""
"","html-keyboard-response","242","119870","0.0-242.0","3NQL1CS15SUO4NEC9K3G2D9L90BVYR","A2U4JCTILX14EC","3SA4EMRVJVOCGON1OYE6FAUV3KKP05","","null","<img src=""img/land4.png"" style=""width:200px;border:14px solid red;"">","null","","","","","","","","","",""
"","image-keyboard-response","243","120412","0.0-243.0","3NQL1CS15SUO4NEC9K3G2D9L90BVYR","A2U4JCTILX14EC","3SA4EMRVJVOCGON1OYE6FAUV3KKP05","","539.7999999523163","img/land3.png","76","540.6000001430511","3","0","3","2","0.8,0.2,0.2,0.2,0.8,0.2,0.2,0.2,0.8","0.2,0.2,0.8,0.8,0.2,0.2,0.2,0.8,0.2","2","",""
"","html-keyboard-response","244","120714","0.0-244.0","3NQL1CS15SUO4NEC9K3G2D9L90BVYR","A2U4JCTILX14EC","3SA4EMRVJVOCGON1OYE6FAUV3KKP05","","null","<img src=""img/land3.png"" style=""width:200px;border:14px solid red;"">","null","","","","","","","","","",""
"","image-keyboard-response","245","121407","0.0-245.0","3NQL1CS15SUO4NEC9K3G2D9L90BVYR","A2U4JCTILX14EC","3SA4EMRVJVOCGON1OYE6FAUV3KKP05","","691.8999998569489","img/land4.png","75","692.7999999523163","2","0","1","2","0.8,0.2,0.2,0.2,0.8,0.2,0.2,0.2,0.8","0.2,0.2,0.8,0.8,0.2,0.2,0.2,0.8,0.2","2","",""
"","html-keyboard-response","246","121722","0.0-246.0","3NQL1CS15SUO4NEC9K3G2D9L90BVYR","A2U4JCTILX14EC","3SA4EMRVJVOCGON1OYE6FAUV3KKP05","","null","<img src=""img/land4.png"" style=""width:200px;border:14px solid red;"">","null","","","","","","","","","",""
"","image-keyboard-response","247","122079","0.0-247.0","3NQL1CS15SUO4NEC9K3G2D9L90BVYR","A2U4JCTILX14EC","3SA4EMRVJVOCGON1OYE6FAUV3KKP05","","355.5","img/land4.png","76","356.59999990463257","3","0","1","2","0.8,0.2,0.2,0.2,0.8,0.2,0.2,0.2,0.8","0.2,0.2,0.8,0.8,0.2,0.2,0.2,0.8,0.2","2","",""
"","html-keyboard-response","248","122381","0.0-248.0","3NQL1CS15SUO4NEC9K3G2D9L90BVYR","A2U4JCTILX14EC","3SA4EMRVJVOCGON1OYE6FAUV3KKP05","","null","<img src=""img/land4.png"" style=""width:200px;border:14px solid red;"">","null","","","","","","","","","",""
"","image-keyboard-response","249","122671","0.0-249.0","3NQL1CS15SUO4NEC9K3G2D9L90BVYR","A2U4JCTILX14EC","3SA4EMRVJVOCGON1OYE6FAUV3KKP05","","288.5","img/land4.png","76","289.5","3","0","1","2","0.8,0.2,0.2,0.2,0.8,0.2,0.2,0.2,0.8","0.2,0.2,0.8,0.8,0.2,0.2,0.2,0.8,0.2","2","",""
"","html-keyboard-response","250","122974","0.0-250.0","3NQL1CS15SUO4NEC9K3G2D9L90BVYR","A2U4JCTILX14EC","3SA4EMRVJVOCGON1OYE6FAUV3KKP05","","null","<img src=""img/land4.png"" style=""width:200px;border:14px solid red;"">","null","","","","","","","","","",""
"","image-keyboard-response","251","124360","0.0-251.0","3NQL1CS15SUO4NEC9K3G2D9L90BVYR","A2U4JCTILX14EC","3SA4EMRVJVOCGON1OYE6FAUV3KKP05","","1384.5999999046326","img/land3.png","75","1385.5","2","1","3","2","0.8,0.2,0.2,0.2,0.8,0.2,0.2,0.2,0.8","0.2,0.2,0.8,0.8,0.2,0.2,0.2,0.8,0.2","2","",""
"","html-keyboard-response","252","124662","0.0-252.0","3NQL1CS15SUO4NEC9K3G2D9L90BVYR","A2U4JCTILX14EC","3SA4EMRVJVOCGON1OYE6FAUV3KKP05","","null","<img src=""img/land3.png"" style=""width:200px; border:14px solid green;"">","null","","","","","","","","","",""
"","image-keyboard-response","253","125245","0.0-253.0","3NQL1CS15SUO4NEC9K3G2D9L90BVYR","A2U4JCTILX14EC","3SA4EMRVJVOCGON1OYE6FAUV3KKP05","","582","img/land4.png","76","582.7999999523163","3","1","1","2","0.8,0.2,0.2,0.2,0.8,0.2,0.2,0.2,0.8","0.2,0.2,0.8,0.8,0.2,0.2,0.2,0.8,0.2","2","",""
"","html-keyboard-response","254","125547","0.0-254.0","3NQL1CS15SUO4NEC9K3G2D9L90BVYR","A2U4JCTILX14EC","3SA4EMRVJVOCGON1OYE6FAUV3KKP05","","null","<img src=""img/land4.png"" style=""width:200px; border:14px solid green;"">","null","","","","","","","","","",""
"","image-keyboard-response","255","125874","0.0-255.0","3NQL1CS15SUO4NEC9K3G2D9L90BVYR","A2U4JCTILX14EC","3SA4EMRVJVOCGON1OYE6FAUV3KKP05","","325.30000019073486","img/land4.png","76","326.2999999523163","3","1","1","2","0.8,0.2,0.2,0.2,0.8,0.2,0.2,0.2,0.8","0.2,0.2,0.8,0.8,0.2,0.2,0.2,0.8,0.2","2","",""
"","html-keyboard-response","256","126176","0.0-256.0","3NQL1CS15SUO4NEC9K3G2D9L90BVYR","A2U4JCTILX14EC","3SA4EMRVJVOCGON1OYE6FAUV3KKP05","","null","<img src=""img/land4.png"" style=""width:200px; border:14px solid green;"">","null","","","","","","","","","",""
"","image-keyboard-response","257","126499","0.0-257.0","3NQL1CS15SUO4NEC9K3G2D9L90BVYR","A2U4JCTILX14EC","3SA4EMRVJVOCGON1OYE6FAUV3KKP05","","320.60000014305115","img/land4.png","76","321.69999980926514","3","0","1","2","0.8,0.2,0.2,0.2,0.8,0.2,0.2,0.2,0.8","0.2,0.2,0.8,0.8,0.2,0.2,0.2,0.8,0.2","2","",""
"","html-keyboard-response","258","126801","0.0-258.0","3NQL1CS15SUO4NEC9K3G2D9L90BVYR","A2U4JCTILX14EC","3SA4EMRVJVOCGON1OYE6FAUV3KKP05","","null","<img src=""img/land4.png"" style=""width:200px;border:14px solid red;"">","null","","","","","","","","","",""
"","image-keyboard-response","259","127693","0.0-259.0","3NQL1CS15SUO4NEC9K3G2D9L90BVYR","A2U4JCTILX14EC","3SA4EMRVJVOCGON1OYE6FAUV3KKP05","","891.2000000476837","img/land5.png","74","892.2000000476837","1","0","2","2","0.8,0.2,0.2,0.2,0.8,0.2,0.2,0.2,0.8","0.2,0.2,0.8,0.8,0.2,0.2,0.2,0.8,0.2","2","",""
"","html-keyboard-response","260","127995","0.0-260.0","3NQL1CS15SUO4NEC9K3G2D9L90BVYR","A2U4JCTILX14EC","3SA4EMRVJVOCGON1OYE6FAUV3KKP05","","null","<img src=""img/land5.png"" style=""width:200px;border:14px solid red;"">","null","","","","","","","","","",""
"","image-keyboard-response","261","128611","0.0-261.0","3NQL1CS15SUO4NEC9K3G2D9L90BVYR","A2U4JCTILX14EC","3SA4EMRVJVOCGON1OYE6FAUV3KKP05","","613.7999999523163","img/land4.png","76","615.2999999523163","3","1","1","2","0.8,0.2,0.2,0.2,0.8,0.2,0.2,0.2,0.8","0.2,0.2,0.8,0.8,0.2,0.2,0.2,0.8,0.2","2","",""
"","html-keyboard-response","262","128913","0.0-262.0","3NQL1CS15SUO4NEC9K3G2D9L90BVYR","A2U4JCTILX14EC","3SA4EMRVJVOCGON1OYE6FAUV3KKP05","","null","<img src=""img/land4.png"" style=""width:200px; border:14px solid green;"">","null","","","","","","","","","",""
"","image-keyboard-response","263","129219","0.0-263.0","3NQL1CS15SUO4NEC9K3G2D9L90BVYR","A2U4JCTILX14EC","3SA4EMRVJVOCGON1OYE6FAUV3KKP05","","305.2000000476837","img/land4.png","76","306.09999990463257","3","1","1","2","0.8,0.2,0.2,0.2,0.8,0.2,0.2,0.2,0.8","0.2,0.2,0.8,0.8,0.2,0.2,0.2,0.8,0.2","2","",""
"","html-keyboard-response","264","129521","0.0-264.0","3NQL1CS15SUO4NEC9K3G2D9L90BVYR","A2U4JCTILX14EC","3SA4EMRVJVOCGON1OYE6FAUV3KKP05","","null","<img src=""img/land4.png"" style=""width:200px; border:14px solid green;"">","null","","","","","","","","","",""
"","image-keyboard-response","265","129812","0.0-265.0","3NQL1CS15SUO4NEC9K3G2D9L90BVYR","A2U4JCTILX14EC","3SA4EMRVJVOCGON1OYE6FAUV3KKP05","","289.90000009536743","img/land4.png","76","290.7000000476837","3","1","1","2","0.8,0.2,0.2,0.2,0.8,0.2,0.2,0.2,0.8","0.2,0.2,0.8,0.8,0.2,0.2,0.2,0.8,0.2","2","",""
"","html-keyboard-response","266","130114","0.0-266.0","3NQL1CS15SUO4NEC9K3G2D9L90BVYR","A2U4JCTILX14EC","3SA4EMRVJVOCGON1OYE6FAUV3KKP05","","null","<img src=""img/land4.png"" style=""width:200px; border:14px solid green;"">","null","","","","","","","","","",""
"","image-keyboard-response","267","130341","0.0-267.0","3NQL1CS15SUO4NEC9K3G2D9L90BVYR","A2U4JCTILX14EC","3SA4EMRVJVOCGON1OYE6FAUV3KKP05","","225.10000014305115","img/land4.png","76","226.09999990463257","3","1","1","2","0.8,0.2,0.2,0.2,0.8,0.2,0.2,0.2,0.8","0.2,0.2,0.8,0.8,0.2,0.2,0.2,0.8,0.2","2","",""
"","html-keyboard-response","268","130644","0.0-268.0","3NQL1CS15SUO4NEC9K3G2D9L90BVYR","A2U4JCTILX14EC","3SA4EMRVJVOCGON1OYE6FAUV3KKP05","","null","<img src=""img/land4.png"" style=""width:200px; border:14px solid green;"">","null","","","","","","","","","",""
"","image-keyboard-response","269","130885","0.0-269.0","3NQL1CS15SUO4NEC9K3G2D9L90BVYR","A2U4JCTILX14EC","3SA4EMRVJVOCGON1OYE6FAUV3KKP05","","239.29999995231628","img/land4.png","76","240.40000009536743","3","1","1","2","0.8,0.2,0.2,0.2,0.8,0.2,0.2,0.2,0.8","0.2,0.2,0.8,0.8,0.2,0.2,0.2,0.8,0.2","2","",""
"","html-keyboard-response","270","131187","0.0-270.0","3NQL1CS15SUO4NEC9K3G2D9L90BVYR","A2U4JCTILX14EC","3SA4EMRVJVOCGON1OYE6FAUV3KKP05","","null","<img src=""img/land4.png"" style=""width:200px; border:14px solid green;"">","null","","","","","","","","","",""
"","image-keyboard-response","271","131522","0.0-271.0","3NQL1CS15SUO4NEC9K3G2D9L90BVYR","A2U4JCTILX14EC","3SA4EMRVJVOCGON1OYE6FAUV3KKP05","","334.09999990463257","img/land4.png","76","335","3","1","1","2","0.8,0.2,0.2,0.2,0.8,0.2,0.2,0.2,0.8","0.2,0.2,0.8,0.8,0.2,0.2,0.2,0.8,0.2","2","",""
"","html-keyboard-response","272","131824","0.0-272.0","3NQL1CS15SUO4NEC9K3G2D9L90BVYR","A2U4JCTILX14EC","3SA4EMRVJVOCGON1OYE6FAUV3KKP05","","null","<img src=""img/land4.png"" style=""width:200px; border:14px solid green;"">","null","","","","","","","","","",""
"","image-keyboard-response","273","132089","0.0-273.0","3NQL1CS15SUO4NEC9K3G2D9L90BVYR","A2U4JCTILX14EC","3SA4EMRVJVOCGON1OYE6FAUV3KKP05","","263.39999985694885","img/land4.png","76","264.40000009536743","3","1","1","2","0.8,0.2,0.2,0.2,0.8,0.2,0.2,0.2,0.8","0.2,0.2,0.8,0.8,0.2,0.2,0.2,0.8,0.2","2","",""
"","html-keyboard-response","274","132391","0.0-274.0","3NQL1CS15SUO4NEC9K3G2D9L90BVYR","A2U4JCTILX14EC","3SA4EMRVJVOCGON1OYE6FAUV3KKP05","","null","<img src=""img/land4.png"" style=""width:200px; border:14px solid green;"">","null","","","","","","","","","",""
"","image-keyboard-response","275","133219","0.0-275.0","3NQL1CS15SUO4NEC9K3G2D9L90BVYR","A2U4JCTILX14EC","3SA4EMRVJVOCGON1OYE6FAUV3KKP05","","826.0999999046326","img/land5.png","74","827.2000000476837","1","1","2","2","0.8,0.2,0.2,0.2,0.8,0.2,0.2,0.2,0.8","0.2,0.2,0.8,0.8,0.2,0.2,0.2,0.8,0.2","2","",""
"","html-keyboard-response","276","133520","0.0-276.0","3NQL1CS15SUO4NEC9K3G2D9L90BVYR","A2U4JCTILX14EC","3SA4EMRVJVOCGON1OYE6FAUV3KKP05","","null","<img src=""img/land5.png"" style=""width:200px; border:14px solid green;"">","null","","","","","","","","","",""
"","image-keyboard-response","277","133841","0.0-277.0","3NQL1CS15SUO4NEC9K3G2D9L90BVYR","A2U4JCTILX14EC","3SA4EMRVJVOCGON1OYE6FAUV3KKP05","","319.2999999523163","img/land5.png","74","320.2000000476837","1","1","2","2","0.8,0.2,0.2,0.2,0.8,0.2,0.2,0.2,0.8","0.2,0.2,0.8,0.8,0.2,0.2,0.2,0.8,0.2","2","",""
"","html-keyboard-response","278","134142","0.0-278.0","3NQL1CS15SUO4NEC9K3G2D9L90BVYR","A2U4JCTILX14EC","3SA4EMRVJVOCGON1OYE6FAUV3KKP05","","null","<img src=""img/land5.png"" style=""width:200px; border:14px solid green;"">","null","","","","","","","","","",""
"","image-keyboard-response","279","134417","0.0-279.0","3NQL1CS15SUO4NEC9K3G2D9L90BVYR","A2U4JCTILX14EC","3SA4EMRVJVOCGON1OYE6FAUV3KKP05","","272.40000009536743","img/land5.png","74","273.7999999523163","1","1","2","2","0.8,0.2,0.2,0.2,0.8,0.2,0.2,0.2,0.8","0.2,0.2,0.8,0.8,0.2,0.2,0.2,0.8,0.2","2","",""
"","html-keyboard-response","280","134718","0.0-280.0","3NQL1CS15SUO4NEC9K3G2D9L90BVYR","A2U4JCTILX14EC","3SA4EMRVJVOCGON1OYE6FAUV3KKP05","","null","<img src=""img/land5.png"" style=""width:200px; border:14px solid green;"">","null","","","","","","","","","",""
"","image-keyboard-response","281","135293","0.0-281.0","3NQL1CS15SUO4NEC9K3G2D9L90BVYR","A2U4JCTILX14EC","3SA4EMRVJVOCGON1OYE6FAUV3KKP05","","573.0999999046326","img/land4.png","76","574.1000001430511","3","1","1","2","0.8,0.2,0.2,0.2,0.8,0.2,0.2,0.2,0.8","0.2,0.2,0.8,0.8,0.2,0.2,0.2,0.8,0.2","2","",""
"","html-keyboard-response","282","135603","0.0-282.0","3NQL1CS15SUO4NEC9K3G2D9L90BVYR","A2U4JCTILX14EC","3SA4EMRVJVOCGON1OYE6FAUV3KKP05","","null","<img src=""img/land4.png"" style=""width:200px; border:14px solid green;"">","null","","","","","","","","","",""
"","image-keyboard-response","283","135623","0.0-283.0","3NQL1CS15SUO4NEC9K3G2D9L90BVYR","A2U4JCTILX14EC","3SA4EMRVJVOCGON1OYE6FAUV3KKP05","","19.09999990463257","img/land3.png","76","19.899999856948853","3","0","3","2","0.8,0.2,0.2,0.2,0.8,0.2,0.2,0.2,0.8","0.2,0.2,0.8,0.8,0.2,0.2,0.2,0.8,0.2","2","",""
"","html-keyboard-response","284","135925","0.0-284.0","3NQL1CS15SUO4NEC9K3G2D9L90BVYR","A2U4JCTILX14EC","3SA4EMRVJVOCGON1OYE6FAUV3KKP05","","null","<img src=""img/land3.png"" style=""width:200px;border:14px solid red;"">","null","","","","","","","","","",""
"","image-keyboard-response","285","136206","0.0-285.0","3NQL1CS15SUO4NEC9K3G2D9L90BVYR","A2U4JCTILX14EC","3SA4EMRVJVOCGON1OYE6FAUV3KKP05","","279.5","img/land3.png","75","280.60000014305115","2","1","3","2","0.8,0.2,0.2,0.2,0.8,0.2,0.2,0.2,0.8","0.2,0.2,0.8,0.8,0.2,0.2,0.2,0.8,0.2","2","",""
"","html-keyboard-response","286","136508","0.0-286.0","3NQL1CS15SUO4NEC9K3G2D9L90BVYR","A2U4JCTILX14EC","3SA4EMRVJVOCGON1OYE6FAUV3KKP05","","null","<img src=""img/land3.png"" style=""width:200px; border:14px solid green;"">","null","","","","","","","","","",""
"","image-keyboard-response","287","136611","0.0-287.0","3NQL1CS15SUO4NEC9K3G2D9L90BVYR","A2U4JCTILX14EC","3SA4EMRVJVOCGON1OYE6FAUV3KKP05","","102","img/land5.png","75","102.79999995231628","2","1","2","2","0.8,0.2,0.2,0.2,0.8,0.2,0.2,0.2,0.8","0.2,0.2,0.8,0.8,0.2,0.2,0.2,0.8,0.2","2","",""
"","html-keyboard-response","288","136913","0.0-288.0","3NQL1CS15SUO4NEC9K3G2D9L90BVYR","A2U4JCTILX14EC","3SA4EMRVJVOCGON1OYE6FAUV3KKP05","","null","<img src=""img/land5.png"" style=""width:200px; border:14px solid green;"">","null","","","","","","","","","",""
"","image-keyboard-response","289","137757","0.0-289.0","3NQL1CS15SUO4NEC9K3G2D9L90BVYR","A2U4JCTILX14EC","3SA4EMRVJVOCGON1OYE6FAUV3KKP05","","842.2999999523163","img/land4.png","76","843.0999999046326","3","1","1","2","0.8,0.2,0.2,0.2,0.8,0.2,0.2,0.2,0.8","0.2,0.2,0.8,0.8,0.2,0.2,0.2,0.8,0.2","2","",""
"","html-keyboard-response","290","138058","0.0-290.0","3NQL1CS15SUO4NEC9K3G2D9L90BVYR","A2U4JCTILX14EC","3SA4EMRVJVOCGON1OYE6FAUV3KKP05","","null","<img src=""img/land4.png"" style=""width:200px; border:14px solid green;"">","null","","","","","","","","","",""
"","image-keyboard-response","291","138345","0.0-291.0","3NQL1CS15SUO4NEC9K3G2D9L90BVYR","A2U4JCTILX14EC","3SA4EMRVJVOCGON1OYE6FAUV3KKP05","","286","img/land4.png","76","286.7999999523163","3","1","1","2","0.8,0.2,0.2,0.2,0.8,0.2,0.2,0.2,0.8","0.2,0.2,0.8,0.8,0.2,0.2,0.2,0.8,0.2","2","",""
"","html-keyboard-response","292","138647","0.0-292.0","3NQL1CS15SUO4NEC9K3G2D9L90BVYR","A2U4JCTILX14EC","3SA4EMRVJVOCGON1OYE6FAUV3KKP05","","null","<img src=""img/land4.png"" style=""width:200px; border:14px solid green;"">","null","","","","","","","","","",""
"","image-keyboard-response","293","139247","0.0-293.0","3NQL1CS15SUO4NEC9K3G2D9L90BVYR","A2U4JCTILX14EC","3SA4EMRVJVOCGON1OYE6FAUV3KKP05","","598.5","img/land3.png","75","599.5999999046326","2","1","3","2","0.8,0.2,0.2,0.2,0.8,0.2,0.2,0.2,0.8","0.2,0.2,0.8,0.8,0.2,0.2,0.2,0.8,0.2","2","",""
"","html-keyboard-response","294","139549","0.0-294.0","3NQL1CS15SUO4NEC9K3G2D9L90BVYR","A2U4JCTILX14EC","3SA4EMRVJVOCGON1OYE6FAUV3KKP05","","null","<img src=""img/land3.png"" style=""width:200px; border:14px solid green;"">","null","","","","","","","","","",""
"","image-keyboard-response","295","140085","0.0-295.0","3NQL1CS15SUO4NEC9K3G2D9L90BVYR","A2U4JCTILX14EC","3SA4EMRVJVOCGON1OYE6FAUV3KKP05","","534.7999999523163","img/land4.png","76","535.7999999523163","3","0","1","2","0.8,0.2,0.2,0.2,0.8,0.2,0.2,0.2,0.8","0.2,0.2,0.8,0.8,0.2,0.2,0.2,0.8,0.2","2","",""
"","html-keyboard-response","296","140387","0.0-296.0","3NQL1CS15SUO4NEC9K3G2D9L90BVYR","A2U4JCTILX14EC","3SA4EMRVJVOCGON1OYE6FAUV3KKP05","","null","<img src=""img/land4.png"" style=""width:200px;border:14px solid red;"">","null","","","","","","","","","",""
"","image-keyboard-response","297","140676","0.0-297.0","3NQL1CS15SUO4NEC9K3G2D9L90BVYR","A2U4JCTILX14EC","3SA4EMRVJVOCGON1OYE6FAUV3KKP05","","287.90000009536743","img/land4.png","76","288.89999985694885","3","1","1","2","0.8,0.2,0.2,0.2,0.8,0.2,0.2,0.2,0.8","0.2,0.2,0.8,0.8,0.2,0.2,0.2,0.8,0.2","2","",""
"","html-keyboard-response","298","140978","0.0-298.0","3NQL1CS15SUO4NEC9K3G2D9L90BVYR","A2U4JCTILX14EC","3SA4EMRVJVOCGON1OYE6FAUV3KKP05","","null","<img src=""img/land4.png"" style=""width:200px; border:14px solid green;"">","null","","","","","","","","","",""
"","image-keyboard-response","299","141425","0.0-299.0","3NQL1CS15SUO4NEC9K3G2D9L90BVYR","A2U4JCTILX14EC","3SA4EMRVJVOCGON1OYE6FAUV3KKP05","","446.09999990463257","img/land3.png","75","446.89999985694885","2","0","3","2","0.8,0.2,0.2,0.2,0.8,0.2,0.2,0.2,0.8","0.2,0.2,0.8,0.8,0.2,0.2,0.2,0.8,0.2","2","",""
"","html-keyboard-response","300","141726","0.0-300.0","3NQL1CS15SUO4NEC9K3G2D9L90BVYR","A2U4JCTILX14EC","3SA4EMRVJVOCGON1OYE6FAUV3KKP05","","null","<img src=""img/land3.png"" style=""width:200px;border:14px solid red;"">","null","","","","","","","","","",""
"","image-keyboard-response","301","141769","0.0-301.0","3NQL1CS15SUO4NEC9K3G2D9L90BVYR","A2U4JCTILX14EC","3SA4EMRVJVOCGON1OYE6FAUV3KKP05","","41.200000047683716","img/land3.png","75","42.299999952316284","2","1","3","2","0.8,0.2,0.2,0.2,0.8,0.2,0.2,0.2,0.8","0.2,0.2,0.8,0.8,0.2,0.2,0.2,0.8,0.2","2","",""
"","html-keyboard-response","302","142071","0.0-302.0","3NQL1CS15SUO4NEC9K3G2D9L90BVYR","A2U4JCTILX14EC","3SA4EMRVJVOCGON1OYE6FAUV3KKP05","","null","<img src=""img/land3.png"" style=""width:200px; border:14px solid green;"">","null","","","","","","","","","",""
"","image-keyboard-response","303","142396","0.0-303.0","3NQL1CS15SUO4NEC9K3G2D9L90BVYR","A2U4JCTILX14EC","3SA4EMRVJVOCGON1OYE6FAUV3KKP05","","324.39999985694885","img/land3.png","75","325.5","2","0","3","2","0.8,0.2,0.2,0.2,0.8,0.2,0.2,0.2,0.8","0.2,0.2,0.8,0.8,0.2,0.2,0.2,0.8,0.2","2","",""
"","html-keyboard-response","304","142698","0.0-304.0","3NQL1CS15SUO4NEC9K3G2D9L90BVYR","A2U4JCTILX14EC","3SA4EMRVJVOCGON1OYE6FAUV3KKP05","","null","<img src=""img/land3.png"" style=""width:200px;border:14px solid red;"">","null","","","","","","","","","",""
"","image-keyboard-response","305","143085","0.0-305.0","3NQL1CS15SUO4NEC9K3G2D9L90BVYR","A2U4JCTILX14EC","3SA4EMRVJVOCGON1OYE6FAUV3KKP05","","384.69999980926514","img/land5.png","76","385.80000019073486","3","0","2","2","0.8,0.2,0.2,0.2,0.8,0.2,0.2,0.2,0.8","0.2,0.2,0.8,0.8,0.2,0.2,0.2,0.8,0.2","2","",""
"","html-keyboard-response","306","143386","0.0-306.0","3NQL1CS15SUO4NEC9K3G2D9L90BVYR","A2U4JCTILX14EC","3SA4EMRVJVOCGON1OYE6FAUV3KKP05","","null","<img src=""img/land5.png"" style=""width:200px;border:14px solid red;"">","null","","","","","","","","","",""
"","image-keyboard-response","307","143535","0.0-307.0","3NQL1CS15SUO4NEC9K3G2D9L90BVYR","A2U4JCTILX14EC","3SA4EMRVJVOCGON1OYE6FAUV3KKP05","","147.40000009536743","img/land5.png","74","148.29999995231628","1","1","2","2","0.8,0.2,0.2,0.2,0.8,0.2,0.2,0.2,0.8","0.2,0.2,0.8,0.8,0.2,0.2,0.2,0.8,0.2","2","",""
"","html-keyboard-response","308","143837","0.0-308.0","3NQL1CS15SUO4NEC9K3G2D9L90BVYR","A2U4JCTILX14EC","3SA4EMRVJVOCGON1OYE6FAUV3KKP05","","null","<img src=""img/land5.png"" style=""width:200px; border:14px solid green;"">","null","","","","","","","","","",""
"","image-keyboard-response","309","144311","0.0-309.0","3NQL1CS15SUO4NEC9K3G2D9L90BVYR","A2U4JCTILX14EC","3SA4EMRVJVOCGON1OYE6FAUV3KKP05","","472.40000009536743","img/land5.png","74","473.2999999523163","1","0","2","2","0.8,0.2,0.2,0.2,0.8,0.2,0.2,0.2,0.8","0.2,0.2,0.8,0.8,0.2,0.2,0.2,0.8,0.2","2","",""
"","html-keyboard-response","310","144624","0.0-310.0","3NQL1CS15SUO4NEC9K3G2D9L90BVYR","A2U4JCTILX14EC","3SA4EMRVJVOCGON1OYE6FAUV3KKP05","","null","<img src=""img/land5.png"" style=""width:200px;border:14px solid red;"">","null","","","","","","","","","",""
"","image-keyboard-response","311","145193","0.0-311.0","3NQL1CS15SUO4NEC9K3G2D9L90BVYR","A2U4JCTILX14EC","3SA4EMRVJVOCGON1OYE6FAUV3KKP05","","567.8999998569489","img/land4.png","76","568.9000000953674","3","1","1","2","0.8,0.2,0.2,0.2,0.8,0.2,0.2,0.2,0.8","0.2,0.2,0.8,0.8,0.2,0.2,0.2,0.8,0.2","2","",""
"","html-keyboard-response","312","145495","0.0-312.0","3NQL1CS15SUO4NEC9K3G2D9L90BVYR","A2U4JCTILX14EC","3SA4EMRVJVOCGON1OYE6FAUV3KKP05","","null","<img src=""img/land4.png"" style=""width:200px; border:14px solid green;"">","null","","","","","","","","","",""
"","image-keyboard-response","313","145570","0.0-313.0","3NQL1CS15SUO4NEC9K3G2D9L90BVYR","A2U4JCTILX14EC","3SA4EMRVJVOCGON1OYE6FAUV3KKP05","","73.19999980926514","img/land3.png","76","74.29999995231628","3","0","3","2","0.8,0.2,0.2,0.2,0.8,0.2,0.2,0.2,0.8","0.2,0.2,0.8,0.8,0.2,0.2,0.2,0.8,0.2","2","",""
"","html-keyboard-response","314","145871","0.0-314.0","3NQL1CS15SUO4NEC9K3G2D9L90BVYR","A2U4JCTILX14EC","3SA4EMRVJVOCGON1OYE6FAUV3KKP05","","null","<img src=""img/land3.png"" style=""width:200px;border:14px solid red;"">","null","","","","","","","","","",""
"","image-keyboard-response","315","146136","0.0-315.0","3NQL1CS15SUO4NEC9K3G2D9L90BVYR","A2U4JCTILX14EC","3SA4EMRVJVOCGON1OYE6FAUV3KKP05","","263.30000019073486","img/land5.png","75","264.2999999523163","2","0","2","2","0.8,0.2,0.2,0.2,0.8,0.2,0.2,0.2,0.8","0.2,0.2,0.8,0.8,0.2,0.2,0.2,0.8,0.2","2","",""
"","html-keyboard-response","316","146438","0.0-316.0","3NQL1CS15SUO4NEC9K3G2D9L90BVYR","A2U4JCTILX14EC","3SA4EMRVJVOCGON1OYE6FAUV3KKP05","","null","<img src=""img/land5.png"" style=""width:200px;border:14px solid red;"">","null","","","","","","","","","",""
"","image-keyboard-response","317","147148","0.0-317.0","3NQL1CS15SUO4NEC9K3G2D9L90BVYR","A2U4JCTILX14EC","3SA4EMRVJVOCGON1OYE6FAUV3KKP05","","708.4000000953674","img/land4.png","76","709.6999998092651","3","1","1","2","0.8,0.2,0.2,0.2,0.8,0.2,0.2,0.2,0.8","0.2,0.2,0.8,0.8,0.2,0.2,0.2,0.8,0.2","2","",""
"","html-keyboard-response","318","147450","0.0-318.0","3NQL1CS15SUO4NEC9K3G2D9L90BVYR","A2U4JCTILX14EC","3SA4EMRVJVOCGON1OYE6FAUV3KKP05","","null","<img src=""img/land4.png"" style=""width:200px; border:14px solid green;"">","null","","","","","","","","","",""
"","image-keyboard-response","319","148607","0.0-319.0","3NQL1CS15SUO4NEC9K3G2D9L90BVYR","A2U4JCTILX14EC","3SA4EMRVJVOCGON1OYE6FAUV3KKP05","","1156.5999999046326","img/land3.png","75","1157.3999998569489","2","1","3","2","0.8,0.2,0.2,0.2,0.8,0.2,0.2,0.2,0.8","0.2,0.2,0.8,0.8,0.2,0.2,0.2,0.8,0.2","2","",""
"","html-keyboard-response","320","148909","0.0-320.0","3NQL1CS15SUO4NEC9K3G2D9L90BVYR","A2U4JCTILX14EC","3SA4EMRVJVOCGON1OYE6FAUV3KKP05","","null","<img src=""img/land3.png"" style=""width:200px; border:14px solid green;"">","null","","","","","","","","","",""
"","image-keyboard-response","321","149382","0.0-321.0","3NQL1CS15SUO4NEC9K3G2D9L90BVYR","A2U4JCTILX14EC","3SA4EMRVJVOCGON1OYE6FAUV3KKP05","","471.2999999523163","img/land4.png","76","472.30000019073486","3","1","1","2","0.8,0.2,0.2,0.2,0.8,0.2,0.2,0.2,0.8","0.2,0.2,0.8,0.8,0.2,0.2,0.2,0.8,0.2","2","",""
"","html-keyboard-response","322","149683","0.0-322.0","3NQL1CS15SUO4NEC9K3G2D9L90BVYR","A2U4JCTILX14EC","3SA4EMRVJVOCGON1OYE6FAUV3KKP05","","null","<img src=""img/land4.png"" style=""width:200px; border:14px solid green;"">","null","","","","","","","","","",""
"","image-keyboard-response","323","149990","0.0-323.0","3NQL1CS15SUO4NEC9K3G2D9L90BVYR","A2U4JCTILX14EC","3SA4EMRVJVOCGON1OYE6FAUV3KKP05","","305.39999985694885","img/land4.png","75","306.5","2","0","1","2","0.8,0.2,0.2,0.2,0.8,0.2,0.2,0.2,0.8","0.2,0.2,0.8,0.8,0.2,0.2,0.2,0.8,0.2","2","",""
"","html-keyboard-response","324","150292","0.0-324.0","3NQL1CS15SUO4NEC9K3G2D9L90BVYR","A2U4JCTILX14EC","3SA4EMRVJVOCGON1OYE6FAUV3KKP05","","null","<img src=""img/land4.png"" style=""width:200px;border:14px solid red;"">","null","","","","","","","","","",""
"","image-keyboard-response","325","151058","0.0-325.0","3NQL1CS15SUO4NEC9K3G2D9L90BVYR","A2U4JCTILX14EC","3SA4EMRVJVOCGON1OYE6FAUV3KKP05","","764.9000000953674","img/land3.png","75","766","2","1","3","2","0.8,0.2,0.2,0.2,0.8,0.2,0.2,0.2,0.8","0.2,0.2,0.8,0.8,0.2,0.2,0.2,0.8,0.2","2","",""
"","html-keyboard-response","326","151360","0.0-326.0","3NQL1CS15SUO4NEC9K3G2D9L90BVYR","A2U4JCTILX14EC","3SA4EMRVJVOCGON1OYE6FAUV3KKP05","","null","<img src=""img/land3.png"" style=""width:200px; border:14px solid green;"">","null","","","","","","","","","",""
"","image-keyboard-response","327","151853","0.0-327.0","3NQL1CS15SUO4NEC9K3G2D9L90BVYR","A2U4JCTILX14EC","3SA4EMRVJVOCGON1OYE6FAUV3KKP05","","492.09999990463257","img/land4.png","76","493","3","1","1","2","0.8,0.2,0.2,0.2,0.8,0.2,0.2,0.2,0.8","0.2,0.2,0.8,0.8,0.2,0.2,0.2,0.8,0.2","2","",""
"","html-keyboard-response","328","152155","0.0-328.0","3NQL1CS15SUO4NEC9K3G2D9L90BVYR","A2U4JCTILX14EC","3SA4EMRVJVOCGON1OYE6FAUV3KKP05","","null","<img src=""img/land4.png"" style=""width:200px; border:14px solid green;"">","null","","","","","","","","","",""
"","image-keyboard-response","329","153444","0.0-329.0","3NQL1CS15SUO4NEC9K3G2D9L90BVYR","A2U4JCTILX14EC","3SA4EMRVJVOCGON1OYE6FAUV3KKP05","","1287.4000000953674","img/land5.png","74","1288.3000001907349","1","1","2","2","0.8,0.2,0.2,0.2,0.8,0.2,0.2,0.2,0.8","0.2,0.2,0.8,0.8,0.2,0.2,0.2,0.8,0.2","2","",""
"","html-keyboard-response","330","153746","0.0-330.0","3NQL1CS15SUO4NEC9K3G2D9L90BVYR","A2U4JCTILX14EC","3SA4EMRVJVOCGON1OYE6FAUV3KKP05","","null","<img src=""img/land5.png"" style=""width:200px; border:14px solid green;"">","null","","","","","","","","","",""
"","image-keyboard-response","331","154317","0.0-331.0","3NQL1CS15SUO4NEC9K3G2D9L90BVYR","A2U4JCTILX14EC","3SA4EMRVJVOCGON1OYE6FAUV3KKP05","","569.5999999046326","img/land4.png","76","570.7999999523163","3","1","1","2","0.8,0.2,0.2,0.2,0.8,0.2,0.2,0.2,0.8","0.2,0.2,0.8,0.8,0.2,0.2,0.2,0.8,0.2","2","",""
"","html-keyboard-response","332","154619","0.0-332.0","3NQL1CS15SUO4NEC9K3G2D9L90BVYR","A2U4JCTILX14EC","3SA4EMRVJVOCGON1OYE6FAUV3KKP05","","null","<img src=""img/land4.png"" style=""width:200px; border:14px solid green;"">","null","","","","","","","","","",""
"","image-keyboard-response","333","155485","0.0-333.0","3NQL1CS15SUO4NEC9K3G2D9L90BVYR","A2U4JCTILX14EC","3SA4EMRVJVOCGON1OYE6FAUV3KKP05","","865.2000000476837","img/land3.png","75","866.2000000476837","2","1","3","2","0.8,0.2,0.2,0.2,0.8,0.2,0.2,0.2,0.8","0.2,0.2,0.8,0.8,0.2,0.2,0.2,0.8,0.2","2","",""
"","html-keyboard-response","334","155787","0.0-334.0","3NQL1CS15SUO4NEC9K3G2D9L90BVYR","A2U4JCTILX14EC","3SA4EMRVJVOCGON1OYE6FAUV3KKP05","","null","<img src=""img/land3.png"" style=""width:200px; border:14px solid green;"">","null","","","","","","","","","",""
"","image-keyboard-response","335","156859","0.0-335.0","3NQL1CS15SUO4NEC9K3G2D9L90BVYR","A2U4JCTILX14EC","3SA4EMRVJVOCGON1OYE6FAUV3KKP05","","1070.0999999046326","img/land5.png","74","1071.1000001430511","1","1","2","2","0.8,0.2,0.2,0.2,0.8,0.2,0.2,0.2,0.8","0.2,0.2,0.8,0.8,0.2,0.2,0.2,0.8,0.2","2","",""
"","html-keyboard-response","336","157161","0.0-336.0","3NQL1CS15SUO4NEC9K3G2D9L90BVYR","A2U4JCTILX14EC","3SA4EMRVJVOCGON1OYE6FAUV3KKP05","","null","<img src=""img/land5.png"" style=""width:200px; border:14px solid green;"">","null","","","","","","","","","",""
"","image-keyboard-response","337","157749","0.0-337.0","3NQL1CS15SUO4NEC9K3G2D9L90BVYR","A2U4JCTILX14EC","3SA4EMRVJVOCGON1OYE6FAUV3KKP05","","586.2999999523163","img/land4.png","76","587.4000000953674","3","1","1","2","0.8,0.2,0.2,0.2,0.8,0.2,0.2,0.2,0.8","0.2,0.2,0.8,0.8,0.2,0.2,0.2,0.8,0.2","2","",""
"","html-keyboard-response","338","158051","0.0-338.0","3NQL1CS15SUO4NEC9K3G2D9L90BVYR","A2U4JCTILX14EC","3SA4EMRVJVOCGON1OYE6FAUV3KKP05","","null","<img src=""img/land4.png"" style=""width:200px; border:14px solid green;"">","null","","","","","","","","","",""
"","image-keyboard-response","339","158725","0.0-339.0","3NQL1CS15SUO4NEC9K3G2D9L90BVYR","A2U4JCTILX14EC","3SA4EMRVJVOCGON1OYE6FAUV3KKP05","","672.7000000476837","img/land5.png","76","673.7999999523163","3","0","2","2","0.8,0.2,0.2,0.2,0.8,0.2,0.2,0.2,0.8","0.2,0.2,0.8,0.8,0.2,0.2,0.2,0.8,0.2","2","",""
"","html-keyboard-response","340","159027","0.0-340.0","3NQL1CS15SUO4NEC9K3G2D9L90BVYR","A2U4JCTILX14EC","3SA4EMRVJVOCGON1OYE6FAUV3KKP05","","null","<img src=""img/land5.png"" style=""width:200px;border:14px solid red;"">","null","","","","","","","","","",""
"","image-keyboard-response","341","159234","0.0-341.0","3NQL1CS15SUO4NEC9K3G2D9L90BVYR","A2U4JCTILX14EC","3SA4EMRVJVOCGON1OYE6FAUV3KKP05","","205.90000009536743","img/land4.png","75","206.89999985694885","2","0","1","2","0.8,0.2,0.2,0.2,0.8,0.2,0.2,0.2,0.8","0.2,0.2,0.8,0.8,0.2,0.2,0.2,0.8,0.2","2","",""
"","html-keyboard-response","342","159536","0.0-342.0","3NQL1CS15SUO4NEC9K3G2D9L90BVYR","A2U4JCTILX14EC","3SA4EMRVJVOCGON1OYE6FAUV3KKP05","","null","<img src=""img/land4.png"" style=""width:200px;border:14px solid red;"">","null","","","","","","","","","",""
"","image-keyboard-response","343","159803","0.0-343.0","3NQL1CS15SUO4NEC9K3G2D9L90BVYR","A2U4JCTILX14EC","3SA4EMRVJVOCGON1OYE6FAUV3KKP05","","265","img/land4.png","76","266.2000000476837","3","1","1","2","0.8,0.2,0.2,0.2,0.8,0.2,0.2,0.2,0.8","0.2,0.2,0.8,0.8,0.2,0.2,0.2,0.8,0.2","2","",""
"","html-keyboard-response","344","160104","0.0-344.0","3NQL1CS15SUO4NEC9K3G2D9L90BVYR","A2U4JCTILX14EC","3SA4EMRVJVOCGON1OYE6FAUV3KKP05","","null","<img src=""img/land4.png"" style=""width:200px; border:14px solid green;"">","null","","","","","","","","","",""
"","image-keyboard-response","345","160573","0.0-345.0","3NQL1CS15SUO4NEC9K3G2D9L90BVYR","A2U4JCTILX14EC","3SA4EMRVJVOCGON1OYE6FAUV3KKP05","","467.30000019073486","img/land4.png","76","468.2999999523163","3","0","1","2","0.8,0.2,0.2,0.2,0.8,0.2,0.2,0.2,0.8","0.2,0.2,0.8,0.8,0.2,0.2,0.2,0.8,0.2","2","",""
"","html-keyboard-response","346","160880","0.0-346.0","3NQL1CS15SUO4NEC9K3G2D9L90BVYR","A2U4JCTILX14EC","3SA4EMRVJVOCGON1OYE6FAUV3KKP05","","null","<img src=""img/land4.png"" style=""width:200px;border:14px solid red;"">","null","","","","","","","","","",""
"","image-keyboard-response","347","161702","0.0-347.0","3NQL1CS15SUO4NEC9K3G2D9L90BVYR","A2U4JCTILX14EC","3SA4EMRVJVOCGON1OYE6FAUV3KKP05","","820.2000000476837","img/land5.png","75","821.1000001430511","2","0","2","2","0.8,0.2,0.2,0.2,0.8,0.2,0.2,0.2,0.8","0.2,0.2,0.8,0.8,0.2,0.2,0.2,0.8,0.2","2","",""
"","html-keyboard-response","348","162004","0.0-348.0","3NQL1CS15SUO4NEC9K3G2D9L90BVYR","A2U4JCTILX14EC","3SA4EMRVJVOCGON1OYE6FAUV3KKP05","","null","<img src=""img/land5.png"" style=""width:200px;border:14px solid red;"">","null","","","","","","","","","",""
"","image-keyboard-response","349","162034","0.0-349.0","3NQL1CS15SUO4NEC9K3G2D9L90BVYR","A2U4JCTILX14EC","3SA4EMRVJVOCGON1OYE6FAUV3KKP05","","27.299999952316284","img/land4.png","74","28.300000190734863","1","0","1","2","0.8,0.2,0.2,0.2,0.8,0.2,0.2,0.2,0.8","0.2,0.2,0.8,0.8,0.2,0.2,0.2,0.8,0.2","2","",""
"","html-keyboard-response","350","162336","0.0-350.0","3NQL1CS15SUO4NEC9K3G2D9L90BVYR","A2U4JCTILX14EC","3SA4EMRVJVOCGON1OYE6FAUV3KKP05","","null","<img src=""img/land4.png"" style=""width:200px;border:14px solid red;"">","null","","","","","","","","","",""
"","image-keyboard-response","351","162650","0.0-351.0","3NQL1CS15SUO4NEC9K3G2D9L90BVYR","A2U4JCTILX14EC","3SA4EMRVJVOCGON1OYE6FAUV3KKP05","","312.30000019073486","img/land4.png","76","313.39999985694885","3","1","1","2","0.8,0.2,0.2,0.2,0.8,0.2,0.2,0.2,0.8","0.2,0.2,0.8,0.8,0.2,0.2,0.2,0.8,0.2","2","",""
"","html-keyboard-response","352","162952","0.0-352.0","3NQL1CS15SUO4NEC9K3G2D9L90BVYR","A2U4JCTILX14EC","3SA4EMRVJVOCGON1OYE6FAUV3KKP05","","null","<img src=""img/land4.png"" style=""width:200px; border:14px solid green;"">","null","","","","","","","","","",""
"","image-keyboard-response","353","163339","0.0-353.0","3NQL1CS15SUO4NEC9K3G2D9L90BVYR","A2U4JCTILX14EC","3SA4EMRVJVOCGON1OYE6FAUV3KKP05","","385.2000000476837","img/land4.png","76","386.2000000476837","3","1","1","2","0.8,0.2,0.2,0.2,0.8,0.2,0.2,0.2,0.8","0.2,0.2,0.8,0.8,0.2,0.2,0.2,0.8,0.2","2","",""
"","html-keyboard-response","354","163641","0.0-354.0","3NQL1CS15SUO4NEC9K3G2D9L90BVYR","A2U4JCTILX14EC","3SA4EMRVJVOCGON1OYE6FAUV3KKP05","","null","<img src=""img/land4.png"" style=""width:200px; border:14px solid green;"">","null","","","","","","","","","",""
