"success","trial_type","trial_index","time_elapsed","internal_node_id","assignmentID","mturkID","hitID","view_history","rt","stimulus","key_press","reactionTime","a","r","s","cond","reward_cond","reward_cond_actual","reward_matrix_idx","responses","question_order"
"true","fullscreen","0","2720","0.0-0.0","3PXX5PX6LYK8ZRI3OXY0YFX73JOBAR","A2UKIUS36QADNI","37SDSEDIN9ORHL92Y0GV7TIFJ2X187","","","","","","","","","","","","","",""
"","instructions","1","16879","0.0-1.0","3PXX5PX6LYK8ZRI3OXY0YFX73JOBAR","A2UKIUS36QADNI","37SDSEDIN9ORHL92Y0GV7TIFJ2X187","[{""page_index"":0,""viewing_time"":1695.199999988079},{""page_index"":1,""viewing_time"":1493.8999999761581},{""page_index"":2,""viewing_time"":2350.199999988079},{""page_index"":3,""viewing_time"":3043.5},{""page_index"":4,""viewing_time"":2214.800000011921},{""page_index"":5,""viewing_time"":1577.4000000357628},{""page_index"":6,""viewing_time"":1781.3999999761581}]","14156.599999964237","","","","","","","","","","","",""
"","image-keyboard-response","2","18446","0.0-2.0","3PXX5PX6LYK8ZRI3OXY0YFX73JOBAR","A2UKIUS36QADNI","37SDSEDIN9ORHL92Y0GV7TIFJ2X187","","1566.5999999642372","img/land5.png","74","1567.699999988079","1","0","1","2","0.8,0.2,0.2,0.2,0.8,0.2,0.2,0.2,0.8","0.2,0.2,0.8,0.8,0.2,0.2,0.2,0.8,0.2","2","",""
"","html-keyboard-response","3","18757","0.0-3.0","3PXX5PX6LYK8ZRI3OXY0YFX73JOBAR","A2UKIUS36QADNI","37SDSEDIN9ORHL92Y0GV7TIFJ2X187","","null","<img src=""img/land5.png"" style=""width:200px;border:14px solid red;"">","null","","","","","","","","","",""
"","image-keyboard-response","4","19679","0.0-4.0","3PXX5PX6LYK8ZRI3OXY0YFX73JOBAR","A2UKIUS36QADNI","37SDSEDIN9ORHL92Y0GV7TIFJ2X187","","920.1999999880791","img/land3.png","75","921.1999999880791","2","1","2","2","0.8,0.2,0.2,0.2,0.8,0.2,0.2,0.2,0.8","0.2,0.2,0.8,0.8,0.2,0.2,0.2,0.8,0.2","2","",""
"","html-keyboard-response","5","19986","0.0-5.0","3PXX5PX6LYK8ZRI3OXY0YFX73JOBAR","A2UKIUS36QADNI","37SDSEDIN9ORHL92Y0GV7TIFJ2X187","","null","<img src=""img/land3.png"" style=""width:200px; border:14px solid green;"">","null","","","","","","","","","",""
"","image-keyboard-response","6","20976","0.0-6.0","3PXX5PX6LYK8ZRI3OXY0YFX73JOBAR","A2UKIUS36QADNI","37SDSEDIN9ORHL92Y0GV7TIFJ2X187","","988.1999999880791","img/land5.png","74","989.4000000357628","1","0","1","2","0.8,0.2,0.2,0.2,0.8,0.2,0.2,0.2,0.8","0.2,0.2,0.8,0.8,0.2,0.2,0.2,0.8,0.2","2","",""
"","html-keyboard-response","7","21281","0.0-7.0","3PXX5PX6LYK8ZRI3OXY0YFX73JOBAR","A2UKIUS36QADNI","37SDSEDIN9ORHL92Y0GV7TIFJ2X187","","null","<img src=""img/land5.png"" style=""width:200px;border:14px solid red;"">","null","","","","","","","","","",""
"","image-keyboard-response","8","22643","0.0-8.0","3PXX5PX6LYK8ZRI3OXY0YFX73JOBAR","A2UKIUS36QADNI","37SDSEDIN9ORHL92Y0GV7TIFJ2X187","","1361.300000011921","img/land3.png","74","1362","1","1","2","2","0.8,0.2,0.2,0.2,0.8,0.2,0.2,0.2,0.8","0.2,0.2,0.8,0.8,0.2,0.2,0.2,0.8,0.2","2","",""
"","html-keyboard-response","9","22950","0.0-9.0","3PXX5PX6LYK8ZRI3OXY0YFX73JOBAR","A2UKIUS36QADNI","37SDSEDIN9ORHL92Y0GV7TIFJ2X187","","null","<img src=""img/land3.png"" style=""width:200px; border:14px solid green;"">","null","","","","","","","","","",""
"","image-keyboard-response","10","24399","0.0-10.0","3PXX5PX6LYK8ZRI3OXY0YFX73JOBAR","A2UKIUS36QADNI","37SDSEDIN9ORHL92Y0GV7TIFJ2X187","","1447.9000000357628","img/land5.png","75","1448.699999988079","2","1","1","2","0.8,0.2,0.2,0.2,0.8,0.2,0.2,0.2,0.8","0.2,0.2,0.8,0.8,0.2,0.2,0.2,0.8,0.2","2","",""
"","html-keyboard-response","11","24701","0.0-11.0","3PXX5PX6LYK8ZRI3OXY0YFX73JOBAR","A2UKIUS36QADNI","37SDSEDIN9ORHL92Y0GV7TIFJ2X187","","null","<img src=""img/land5.png"" style=""width:200px; border:14px solid green;"">","null","","","","","","","","","",""
"","image-keyboard-response","12","25808","0.0-12.0","3PXX5PX6LYK8ZRI3OXY0YFX73JOBAR","A2UKIUS36QADNI","37SDSEDIN9ORHL92Y0GV7TIFJ2X187","","1104.8999999761581","img/land3.png","74","1106.5","1","0","2","2","0.8,0.2,0.2,0.2,0.8,0.2,0.2,0.2,0.8","0.2,0.2,0.8,0.8,0.2,0.2,0.2,0.8,0.2","2","",""
"","html-keyboard-response","13","26110","0.0-13.0","3PXX5PX6LYK8ZRI3OXY0YFX73JOBAR","A2UKIUS36QADNI","37SDSEDIN9ORHL92Y0GV7TIFJ2X187","","null","<img src=""img/land3.png"" style=""width:200px;border:14px solid red;"">","null","","","","","","","","","",""
"","image-keyboard-response","14","26435","0.0-14.0","3PXX5PX6LYK8ZRI3OXY0YFX73JOBAR","A2UKIUS36QADNI","37SDSEDIN9ORHL92Y0GV7TIFJ2X187","","323.80000001192093","img/land4.png","74","324.69999998807907","1","0","3","2","0.8,0.2,0.2,0.2,0.8,0.2,0.2,0.2,0.8","0.2,0.2,0.8,0.8,0.2,0.2,0.2,0.8,0.2","2","",""
"","html-keyboard-response","15","26752","0.0-15.0","3PXX5PX6LYK8ZRI3OXY0YFX73JOBAR","A2UKIUS36QADNI","37SDSEDIN9ORHL92Y0GV7TIFJ2X187","","null","<img src=""img/land4.png"" style=""width:200px;border:14px solid red;"">","null","","","","","","","","","",""
"","image-keyboard-response","16","28047","0.0-16.0","3PXX5PX6LYK8ZRI3OXY0YFX73JOBAR","A2UKIUS36QADNI","37SDSEDIN9ORHL92Y0GV7TIFJ2X187","","1293.9000000357628","img/land5.png","75","1295","2","1","1","2","0.8,0.2,0.2,0.2,0.8,0.2,0.2,0.2,0.8","0.2,0.2,0.8,0.8,0.2,0.2,0.2,0.8,0.2","2","",""
"","html-keyboard-response","17","28364","0.0-17.0","3PXX5PX6LYK8ZRI3OXY0YFX73JOBAR","A2UKIUS36QADNI","37SDSEDIN9ORHL92Y0GV7TIFJ2X187","","null","<img src=""img/land5.png"" style=""width:200px; border:14px solid green;"">","null","","","","","","","","","",""
"","image-keyboard-response","18","29080","0.0-18.0","3PXX5PX6LYK8ZRI3OXY0YFX73JOBAR","A2UKIUS36QADNI","37SDSEDIN9ORHL92Y0GV7TIFJ2X187","","714.0999999642372","img/land5.png","75","715.6999999880791","2","0","1","2","0.8,0.2,0.2,0.2,0.8,0.2,0.2,0.2,0.8","0.2,0.2,0.8,0.8,0.2,0.2,0.2,0.8,0.2","2","",""
"","html-keyboard-response","19","29393","0.0-19.0","3PXX5PX6LYK8ZRI3OXY0YFX73JOBAR","A2UKIUS36QADNI","37SDSEDIN9ORHL92Y0GV7TIFJ2X187","","null","<img src=""img/land5.png"" style=""width:200px;border:14px solid red;"">","null","","","","","","","","","",""
"","image-keyboard-response","20","29963","0.0-20.0","3PXX5PX6LYK8ZRI3OXY0YFX73JOBAR","A2UKIUS36QADNI","37SDSEDIN9ORHL92Y0GV7TIFJ2X187","","568","img/land5.png","74","569.6999999880791","1","0","1","2","0.8,0.2,0.2,0.2,0.8,0.2,0.2,0.2,0.8","0.2,0.2,0.8,0.8,0.2,0.2,0.2,0.8,0.2","2","",""
"","html-keyboard-response","21","30273","0.0-21.0","3PXX5PX6LYK8ZRI3OXY0YFX73JOBAR","A2UKIUS36QADNI","37SDSEDIN9ORHL92Y0GV7TIFJ2X187","","null","<img src=""img/land5.png"" style=""width:200px;border:14px solid red;"">","null","","","","","","","","","",""
"","image-keyboard-response","22","31274","0.0-22.0","3PXX5PX6LYK8ZRI3OXY0YFX73JOBAR","A2UKIUS36QADNI","37SDSEDIN9ORHL92Y0GV7TIFJ2X187","","1000.1000000238419","img/land4.png","76","1000.8000000119209","3","0","3","2","0.8,0.2,0.2,0.2,0.8,0.2,0.2,0.2,0.8","0.2,0.2,0.8,0.8,0.2,0.2,0.2,0.8,0.2","2","",""
"","html-keyboard-response","23","31576","0.0-23.0","3PXX5PX6LYK8ZRI3OXY0YFX73JOBAR","A2UKIUS36QADNI","37SDSEDIN9ORHL92Y0GV7TIFJ2X187","","null","<img src=""img/land4.png"" style=""width:200px;border:14px solid red;"">","null","","","","","","","","","",""
"","image-keyboard-response","24","32512","0.0-24.0","3PXX5PX6LYK8ZRI3OXY0YFX73JOBAR","A2UKIUS36QADNI","37SDSEDIN9ORHL92Y0GV7TIFJ2X187","","935.5999999642372","img/land5.png","75","936.5","2","0","1","2","0.8,0.2,0.2,0.2,0.8,0.2,0.2,0.2,0.8","0.2,0.2,0.8,0.8,0.2,0.2,0.2,0.8,0.2","2","",""
"","html-keyboard-response","25","32814","0.0-25.0","3PXX5PX6LYK8ZRI3OXY0YFX73JOBAR","A2UKIUS36QADNI","37SDSEDIN9ORHL92Y0GV7TIFJ2X187","","null","<img src=""img/land5.png"" style=""width:200px;border:14px solid red;"">","null","","","","","","","","","",""
"","image-keyboard-response","26","33112","0.0-26.0","3PXX5PX6LYK8ZRI3OXY0YFX73JOBAR","A2UKIUS36QADNI","37SDSEDIN9ORHL92Y0GV7TIFJ2X187","","296.69999998807907","img/land3.png","74","297.39999997615814","1","1","2","2","0.8,0.2,0.2,0.2,0.8,0.2,0.2,0.2,0.8","0.2,0.2,0.8,0.8,0.2,0.2,0.2,0.8,0.2","2","",""
"","html-keyboard-response","27","33414","0.0-27.0","3PXX5PX6LYK8ZRI3OXY0YFX73JOBAR","A2UKIUS36QADNI","37SDSEDIN9ORHL92Y0GV7TIFJ2X187","","null","<img src=""img/land3.png"" style=""width:200px; border:14px solid green;"">","null","","","","","","","","","",""
"","image-keyboard-response","28","34534","0.0-28.0","3PXX5PX6LYK8ZRI3OXY0YFX73JOBAR","A2UKIUS36QADNI","37SDSEDIN9ORHL92Y0GV7TIFJ2X187","","1119","img/land5.png","75","1120.1000000238419","2","1","1","2","0.8,0.2,0.2,0.2,0.8,0.2,0.2,0.2,0.8","0.2,0.2,0.8,0.8,0.2,0.2,0.2,0.8,0.2","2","",""
"","html-keyboard-response","29","34837","0.0-29.0","3PXX5PX6LYK8ZRI3OXY0YFX73JOBAR","A2UKIUS36QADNI","37SDSEDIN9ORHL92Y0GV7TIFJ2X187","","null","<img src=""img/land5.png"" style=""width:200px; border:14px solid green;"">","null","","","","","","","","","",""
"","image-keyboard-response","30","35768","0.0-30.0","3PXX5PX6LYK8ZRI3OXY0YFX73JOBAR","A2UKIUS36QADNI","37SDSEDIN9ORHL92Y0GV7TIFJ2X187","","930.5","img/land4.png","76","931.2000000476837","3","1","3","2","0.8,0.2,0.2,0.2,0.8,0.2,0.2,0.2,0.8","0.2,0.2,0.8,0.8,0.2,0.2,0.2,0.8,0.2","2","",""
"","html-keyboard-response","31","36071","0.0-31.0","3PXX5PX6LYK8ZRI3OXY0YFX73JOBAR","A2UKIUS36QADNI","37SDSEDIN9ORHL92Y0GV7TIFJ2X187","","null","<img src=""img/land4.png"" style=""width:200px; border:14px solid green;"">","null","","","","","","","","","",""
"","image-keyboard-response","32","36977","0.0-32.0","3PXX5PX6LYK8ZRI3OXY0YFX73JOBAR","A2UKIUS36QADNI","37SDSEDIN9ORHL92Y0GV7TIFJ2X187","","905.5","img/land5.png","75","906.4000000357628","2","0","1","2","0.8,0.2,0.2,0.2,0.8,0.2,0.2,0.2,0.8","0.2,0.2,0.8,0.8,0.2,0.2,0.2,0.8,0.2","2","",""
"","html-keyboard-response","33","37280","0.0-33.0","3PXX5PX6LYK8ZRI3OXY0YFX73JOBAR","A2UKIUS36QADNI","37SDSEDIN9ORHL92Y0GV7TIFJ2X187","","null","<img src=""img/land5.png"" style=""width:200px;border:14px solid red;"">","null","","","","","","","","","",""
"","image-keyboard-response","34","38260","0.0-34.0","3PXX5PX6LYK8ZRI3OXY0YFX73JOBAR","A2UKIUS36QADNI","37SDSEDIN9ORHL92Y0GV7TIFJ2X187","","978.3000000119209","img/land4.png","76","979.3999999761581","3","1","3","2","0.8,0.2,0.2,0.2,0.8,0.2,0.2,0.2,0.8","0.2,0.2,0.8,0.8,0.2,0.2,0.2,0.8,0.2","2","",""
"","html-keyboard-response","35","38562","0.0-35.0","3PXX5PX6LYK8ZRI3OXY0YFX73JOBAR","A2UKIUS36QADNI","37SDSEDIN9ORHL92Y0GV7TIFJ2X187","","null","<img src=""img/land4.png"" style=""width:200px; border:14px solid green;"">","null","","","","","","","","","",""
"","image-keyboard-response","36","39279","0.0-36.0","3PXX5PX6LYK8ZRI3OXY0YFX73JOBAR","A2UKIUS36QADNI","37SDSEDIN9ORHL92Y0GV7TIFJ2X187","","716.1999999880791","img/land5.png","75","717","2","0","1","2","0.8,0.2,0.2,0.2,0.8,0.2,0.2,0.2,0.8","0.2,0.2,0.8,0.8,0.2,0.2,0.2,0.8,0.2","2","",""
"","html-keyboard-response","37","39581","0.0-37.0","3PXX5PX6LYK8ZRI3OXY0YFX73JOBAR","A2UKIUS36QADNI","37SDSEDIN9ORHL92Y0GV7TIFJ2X187","","null","<img src=""img/land5.png"" style=""width:200px;border:14px solid red;"">","null","","","","","","","","","",""
"","image-keyboard-response","38","40071","0.0-38.0","3PXX5PX6LYK8ZRI3OXY0YFX73JOBAR","A2UKIUS36QADNI","37SDSEDIN9ORHL92Y0GV7TIFJ2X187","","488.30000001192093","img/land5.png","75","489","2","0","1","2","0.8,0.2,0.2,0.2,0.8,0.2,0.2,0.2,0.8","0.2,0.2,0.8,0.8,0.2,0.2,0.2,0.8,0.2","2","",""
"","html-keyboard-response","39","40372","0.0-39.0","3PXX5PX6LYK8ZRI3OXY0YFX73JOBAR","A2UKIUS36QADNI","37SDSEDIN9ORHL92Y0GV7TIFJ2X187","","null","<img src=""img/land5.png"" style=""width:200px;border:14px solid red;"">","null","","","","","","","","","",""
"","image-keyboard-response","40","41214","0.0-40.0","3PXX5PX6LYK8ZRI3OXY0YFX73JOBAR","A2UKIUS36QADNI","37SDSEDIN9ORHL92Y0GV7TIFJ2X187","","840.1000000238419","img/land3.png","74","841.2000000476837","1","1","2","2","0.8,0.2,0.2,0.2,0.8,0.2,0.2,0.2,0.8","0.2,0.2,0.8,0.8,0.2,0.2,0.2,0.8,0.2","2","",""
"","html-keyboard-response","41","41516","0.0-41.0","3PXX5PX6LYK8ZRI3OXY0YFX73JOBAR","A2UKIUS36QADNI","37SDSEDIN9ORHL92Y0GV7TIFJ2X187","","null","<img src=""img/land3.png"" style=""width:200px; border:14px solid green;"">","null","","","","","","","","","",""
"","image-keyboard-response","42","42250","0.0-42.0","3PXX5PX6LYK8ZRI3OXY0YFX73JOBAR","A2UKIUS36QADNI","37SDSEDIN9ORHL92Y0GV7TIFJ2X187","","733.3000000119209","img/land4.png","76","734","3","0","3","2","0.8,0.2,0.2,0.2,0.8,0.2,0.2,0.2,0.8","0.2,0.2,0.8,0.8,0.2,0.2,0.2,0.8,0.2","2","",""
"","html-keyboard-response","43","42552","0.0-43.0","3PXX5PX6LYK8ZRI3OXY0YFX73JOBAR","A2UKIUS36QADNI","37SDSEDIN9ORHL92Y0GV7TIFJ2X187","","null","<img src=""img/land4.png"" style=""width:200px;border:14px solid red;"">","null","","","","","","","","","",""
"","image-keyboard-response","44","43450","0.0-44.0","3PXX5PX6LYK8ZRI3OXY0YFX73JOBAR","A2UKIUS36QADNI","37SDSEDIN9ORHL92Y0GV7TIFJ2X187","","897.1999999880791","img/land3.png","74","897.6999999880791","1","1","2","2","0.8,0.2,0.2,0.2,0.8,0.2,0.2,0.2,0.8","0.2,0.2,0.8,0.8,0.2,0.2,0.2,0.8,0.2","2","",""
"","html-keyboard-response","45","43751","0.0-45.0","3PXX5PX6LYK8ZRI3OXY0YFX73JOBAR","A2UKIUS36QADNI","37SDSEDIN9ORHL92Y0GV7TIFJ2X187","","null","<img src=""img/land3.png"" style=""width:200px; border:14px solid green;"">","null","","","","","","","","","",""
"","image-keyboard-response","46","44436","0.0-46.0","3PXX5PX6LYK8ZRI3OXY0YFX73JOBAR","A2UKIUS36QADNI","37SDSEDIN9ORHL92Y0GV7TIFJ2X187","","682.6999999880791","img/land5.png","75","684","2","0","1","2","0.8,0.2,0.2,0.2,0.8,0.2,0.2,0.2,0.8","0.2,0.2,0.8,0.8,0.2,0.2,0.2,0.8,0.2","2","",""
"","html-keyboard-response","47","44739","0.0-47.0","3PXX5PX6LYK8ZRI3OXY0YFX73JOBAR","A2UKIUS36QADNI","37SDSEDIN9ORHL92Y0GV7TIFJ2X187","","null","<img src=""img/land5.png"" style=""width:200px;border:14px solid red;"">","null","","","","","","","","","",""
"","image-keyboard-response","48","45517","0.0-48.0","3PXX5PX6LYK8ZRI3OXY0YFX73JOBAR","A2UKIUS36QADNI","37SDSEDIN9ORHL92Y0GV7TIFJ2X187","","777","img/land3.png","74","778","1","1","2","2","0.8,0.2,0.2,0.2,0.8,0.2,0.2,0.2,0.8","0.2,0.2,0.8,0.8,0.2,0.2,0.2,0.8,0.2","2","",""
"","html-keyboard-response","49","45820","0.0-49.0","3PXX5PX6LYK8ZRI3OXY0YFX73JOBAR","A2UKIUS36QADNI","37SDSEDIN9ORHL92Y0GV7TIFJ2X187","","null","<img src=""img/land3.png"" style=""width:200px; border:14px solid green;"">","null","","","","","","","","","",""
"","image-keyboard-response","50","46501","0.0-50.0","3PXX5PX6LYK8ZRI3OXY0YFX73JOBAR","A2UKIUS36QADNI","37SDSEDIN9ORHL92Y0GV7TIFJ2X187","","680.1000000238419","img/land5.png","75","681.1999999880791","2","0","1","2","0.8,0.2,0.2,0.2,0.8,0.2,0.2,0.2,0.8","0.2,0.2,0.8,0.8,0.2,0.2,0.2,0.8,0.2","2","",""
"","html-keyboard-response","51","46804","0.0-51.0","3PXX5PX6LYK8ZRI3OXY0YFX73JOBAR","A2UKIUS36QADNI","37SDSEDIN9ORHL92Y0GV7TIFJ2X187","","null","<img src=""img/land5.png"" style=""width:200px;border:14px solid red;"">","null","","","","","","","","","",""
"","image-keyboard-response","52","47537","0.0-52.0","3PXX5PX6LYK8ZRI3OXY0YFX73JOBAR","A2UKIUS36QADNI","37SDSEDIN9ORHL92Y0GV7TIFJ2X187","","731.6000000238419","img/land4.png","76","732.8999999761581","3","1","3","2","0.8,0.2,0.2,0.2,0.8,0.2,0.2,0.2,0.8","0.2,0.2,0.8,0.8,0.2,0.2,0.2,0.8,0.2","2","",""
"","html-keyboard-response","53","47839","0.0-53.0","3PXX5PX6LYK8ZRI3OXY0YFX73JOBAR","A2UKIUS36QADNI","37SDSEDIN9ORHL92Y0GV7TIFJ2X187","","null","<img src=""img/land4.png"" style=""width:200px; border:14px solid green;"">","null","","","","","","","","","",""
"","image-keyboard-response","54","48501","0.0-54.0","3PXX5PX6LYK8ZRI3OXY0YFX73JOBAR","A2UKIUS36QADNI","37SDSEDIN9ORHL92Y0GV7TIFJ2X187","","660.2000000476837","img/land5.png","75","661.0999999642372","2","0","1","2","0.8,0.2,0.2,0.2,0.8,0.2,0.2,0.2,0.8","0.2,0.2,0.8,0.8,0.2,0.2,0.2,0.8,0.2","2","",""
"","html-keyboard-response","55","48802","0.0-55.0","3PXX5PX6LYK8ZRI3OXY0YFX73JOBAR","A2UKIUS36QADNI","37SDSEDIN9ORHL92Y0GV7TIFJ2X187","","null","<img src=""img/land5.png"" style=""width:200px;border:14px solid red;"">","null","","","","","","","","","",""
"","image-keyboard-response","56","49225","0.0-56.0","3PXX5PX6LYK8ZRI3OXY0YFX73JOBAR","A2UKIUS36QADNI","37SDSEDIN9ORHL92Y0GV7TIFJ2X187","","422.0999999642372","img/land5.png","75","423.0999999642372","2","0","1","2","0.8,0.2,0.2,0.2,0.8,0.2,0.2,0.2,0.8","0.2,0.2,0.8,0.8,0.2,0.2,0.2,0.8,0.2","2","",""
"","html-keyboard-response","57","49528","0.0-57.0","3PXX5PX6LYK8ZRI3OXY0YFX73JOBAR","A2UKIUS36QADNI","37SDSEDIN9ORHL92Y0GV7TIFJ2X187","","null","<img src=""img/land5.png"" style=""width:200px;border:14px solid red;"">","null","","","","","","","","","",""
"","image-keyboard-response","58","49784","0.0-58.0","3PXX5PX6LYK8ZRI3OXY0YFX73JOBAR","A2UKIUS36QADNI","37SDSEDIN9ORHL92Y0GV7TIFJ2X187","","254.60000002384186","img/land5.png","75","255.39999997615814","2","0","1","2","0.8,0.2,0.2,0.2,0.8,0.2,0.2,0.2,0.8","0.2,0.2,0.8,0.8,0.2,0.2,0.2,0.8,0.2","2","",""
"","html-keyboard-response","59","50086","0.0-59.0","3PXX5PX6LYK8ZRI3OXY0YFX73JOBAR","A2UKIUS36QADNI","37SDSEDIN9ORHL92Y0GV7TIFJ2X187","","null","<img src=""img/land5.png"" style=""width:200px;border:14px solid red;"">","null","","","","","","","","","",""
"","image-keyboard-response","60","50627","0.0-60.0","3PXX5PX6LYK8ZRI3OXY0YFX73JOBAR","A2UKIUS36QADNI","37SDSEDIN9ORHL92Y0GV7TIFJ2X187","","538.7000000476837","img/land5.png","74","540","1","0","1","2","0.8,0.2,0.2,0.2,0.8,0.2,0.2,0.2,0.8","0.2,0.2,0.8,0.8,0.2,0.2,0.2,0.8,0.2","2","",""
"","html-keyboard-response","61","50930","0.0-61.0","3PXX5PX6LYK8ZRI3OXY0YFX73JOBAR","A2UKIUS36QADNI","37SDSEDIN9ORHL92Y0GV7TIFJ2X187","","null","<img src=""img/land5.png"" style=""width:200px;border:14px solid red;"">","null","","","","","","","","","",""
"","image-keyboard-response","62","51272","0.0-62.0","3PXX5PX6LYK8ZRI3OXY0YFX73JOBAR","A2UKIUS36QADNI","37SDSEDIN9ORHL92Y0GV7TIFJ2X187","","339.30000001192093","img/land5.png","75","340.80000001192093","2","1","1","2","0.8,0.2,0.2,0.2,0.8,0.2,0.2,0.2,0.8","0.2,0.2,0.8,0.8,0.2,0.2,0.2,0.8,0.2","2","",""
"","html-keyboard-response","63","51573","0.0-63.0","3PXX5PX6LYK8ZRI3OXY0YFX73JOBAR","A2UKIUS36QADNI","37SDSEDIN9ORHL92Y0GV7TIFJ2X187","","null","<img src=""img/land5.png"" style=""width:200px; border:14px solid green;"">","null","","","","","","","","","",""
"","image-keyboard-response","64","52263","0.0-64.0","3PXX5PX6LYK8ZRI3OXY0YFX73JOBAR","A2UKIUS36QADNI","37SDSEDIN9ORHL92Y0GV7TIFJ2X187","","688.1000000238419","img/land5.png","75","689.3000000119209","2","0","1","2","0.8,0.2,0.2,0.2,0.8,0.2,0.2,0.2,0.8","0.2,0.2,0.8,0.8,0.2,0.2,0.2,0.8,0.2","2","",""
"","html-keyboard-response","65","52565","0.0-65.0","3PXX5PX6LYK8ZRI3OXY0YFX73JOBAR","A2UKIUS36QADNI","37SDSEDIN9ORHL92Y0GV7TIFJ2X187","","null","<img src=""img/land5.png"" style=""width:200px;border:14px solid red;"">","null","","","","","","","","","",""
"","image-keyboard-response","66","52920","0.0-66.0","3PXX5PX6LYK8ZRI3OXY0YFX73JOBAR","A2UKIUS36QADNI","37SDSEDIN9ORHL92Y0GV7TIFJ2X187","","353.5","img/land5.png","75","354.89999997615814","2","0","1","2","0.8,0.2,0.2,0.2,0.8,0.2,0.2,0.2,0.8","0.2,0.2,0.8,0.8,0.2,0.2,0.2,0.8,0.2","2","",""
"","html-keyboard-response","67","53221","0.0-67.0","3PXX5PX6LYK8ZRI3OXY0YFX73JOBAR","A2UKIUS36QADNI","37SDSEDIN9ORHL92Y0GV7TIFJ2X187","","null","<img src=""img/land5.png"" style=""width:200px;border:14px solid red;"">","null","","","","","","","","","",""
"","image-keyboard-response","68","53380","0.0-68.0","3PXX5PX6LYK8ZRI3OXY0YFX73JOBAR","A2UKIUS36QADNI","37SDSEDIN9ORHL92Y0GV7TIFJ2X187","","157.4000000357628","img/land3.png","75","158.0999999642372","2","0","2","2","0.8,0.2,0.2,0.2,0.8,0.2,0.2,0.2,0.8","0.2,0.2,0.8,0.8,0.2,0.2,0.2,0.8,0.2","2","",""
"","html-keyboard-response","69","53681","0.0-69.0","3PXX5PX6LYK8ZRI3OXY0YFX73JOBAR","A2UKIUS36QADNI","37SDSEDIN9ORHL92Y0GV7TIFJ2X187","","null","<img src=""img/land3.png"" style=""width:200px;border:14px solid red;"">","null","","","","","","","","","",""
"","image-keyboard-response","70","54322","0.0-70.0","3PXX5PX6LYK8ZRI3OXY0YFX73JOBAR","A2UKIUS36QADNI","37SDSEDIN9ORHL92Y0GV7TIFJ2X187","","639.8000000119209","img/land5.png","75","640.5","2","1","1","2","0.8,0.2,0.2,0.2,0.8,0.2,0.2,0.2,0.8","0.2,0.2,0.8,0.8,0.2,0.2,0.2,0.8,0.2","2","",""
"","html-keyboard-response","71","54623","0.0-71.0","3PXX5PX6LYK8ZRI3OXY0YFX73JOBAR","A2UKIUS36QADNI","37SDSEDIN9ORHL92Y0GV7TIFJ2X187","","null","<img src=""img/land5.png"" style=""width:200px; border:14px solid green;"">","null","","","","","","","","","",""
"","image-keyboard-response","72","55305","0.0-72.0","3PXX5PX6LYK8ZRI3OXY0YFX73JOBAR","A2UKIUS36QADNI","37SDSEDIN9ORHL92Y0GV7TIFJ2X187","","680.3999999761581","img/land4.png","76","681.3000000119209","3","1","3","2","0.8,0.2,0.2,0.2,0.8,0.2,0.2,0.2,0.8","0.2,0.2,0.8,0.8,0.2,0.2,0.2,0.8,0.2","2","",""
"","html-keyboard-response","73","55608","0.0-73.0","3PXX5PX6LYK8ZRI3OXY0YFX73JOBAR","A2UKIUS36QADNI","37SDSEDIN9ORHL92Y0GV7TIFJ2X187","","null","<img src=""img/land4.png"" style=""width:200px; border:14px solid green;"">","null","","","","","","","","","",""
"","image-keyboard-response","74","56522","0.0-74.0","3PXX5PX6LYK8ZRI3OXY0YFX73JOBAR","A2UKIUS36QADNI","37SDSEDIN9ORHL92Y0GV7TIFJ2X187","","912.8999999761581","img/land5.png","75","914.0999999642372","2","1","1","2","0.8,0.2,0.2,0.2,0.8,0.2,0.2,0.2,0.8","0.2,0.2,0.8,0.8,0.2,0.2,0.2,0.8,0.2","2","",""
"","html-keyboard-response","75","56824","0.0-75.0","3PXX5PX6LYK8ZRI3OXY0YFX73JOBAR","A2UKIUS36QADNI","37SDSEDIN9ORHL92Y0GV7TIFJ2X187","","null","<img src=""img/land5.png"" style=""width:200px; border:14px solid green;"">","null","","","","","","","","","",""
"","image-keyboard-response","76","57513","0.0-76.0","3PXX5PX6LYK8ZRI3OXY0YFX73JOBAR","A2UKIUS36QADNI","37SDSEDIN9ORHL92Y0GV7TIFJ2X187","","687.8000000119209","img/land3.png","74","688.8000000119209","1","1","2","2","0.8,0.2,0.2,0.2,0.8,0.2,0.2,0.2,0.8","0.2,0.2,0.8,0.8,0.2,0.2,0.2,0.8,0.2","2","",""
"","html-keyboard-response","77","57825","0.0-77.0","3PXX5PX6LYK8ZRI3OXY0YFX73JOBAR","A2UKIUS36QADNI","37SDSEDIN9ORHL92Y0GV7TIFJ2X187","","null","<img src=""img/land3.png"" style=""width:200px; border:14px solid green;"">","null","","","","","","","","","",""
"","image-keyboard-response","78","58295","0.0-78.0","3PXX5PX6LYK8ZRI3OXY0YFX73JOBAR","A2UKIUS36QADNI","37SDSEDIN9ORHL92Y0GV7TIFJ2X187","","469.69999998807907","img/land3.png","74","470.60000002384186","1","1","2","2","0.8,0.2,0.2,0.2,0.8,0.2,0.2,0.2,0.8","0.2,0.2,0.8,0.8,0.2,0.2,0.2,0.8,0.2","2","",""
"","html-keyboard-response","79","58597","0.0-79.0","3PXX5PX6LYK8ZRI3OXY0YFX73JOBAR","A2UKIUS36QADNI","37SDSEDIN9ORHL92Y0GV7TIFJ2X187","","null","<img src=""img/land3.png"" style=""width:200px; border:14px solid green;"">","null","","","","","","","","","",""
"","image-keyboard-response","80","59238","0.0-80.0","3PXX5PX6LYK8ZRI3OXY0YFX73JOBAR","A2UKIUS36QADNI","37SDSEDIN9ORHL92Y0GV7TIFJ2X187","","638.5999999642372","img/land5.png","75","640.5","2","0","1","2","0.8,0.2,0.2,0.2,0.8,0.2,0.2,0.2,0.8","0.2,0.2,0.8,0.8,0.2,0.2,0.2,0.8,0.2","2","",""
"","html-keyboard-response","81","59540","0.0-81.0","3PXX5PX6LYK8ZRI3OXY0YFX73JOBAR","A2UKIUS36QADNI","37SDSEDIN9ORHL92Y0GV7TIFJ2X187","","null","<img src=""img/land5.png"" style=""width:200px;border:14px solid red;"">","null","","","","","","","","","",""
"","image-keyboard-response","82","60199","0.0-82.0","3PXX5PX6LYK8ZRI3OXY0YFX73JOBAR","A2UKIUS36QADNI","37SDSEDIN9ORHL92Y0GV7TIFJ2X187","","658","img/land4.png","76","658.5999999642372","3","0","3","2","0.8,0.2,0.2,0.2,0.8,0.2,0.2,0.2,0.8","0.2,0.2,0.8,0.8,0.2,0.2,0.2,0.8,0.2","2","",""
"","html-keyboard-response","83","60501","0.0-83.0","3PXX5PX6LYK8ZRI3OXY0YFX73JOBAR","A2UKIUS36QADNI","37SDSEDIN9ORHL92Y0GV7TIFJ2X187","","null","<img src=""img/land4.png"" style=""width:200px;border:14px solid red;"">","null","","","","","","","","","",""
"","image-keyboard-response","84","61715","0.0-84.0","3PXX5PX6LYK8ZRI3OXY0YFX73JOBAR","A2UKIUS36QADNI","37SDSEDIN9ORHL92Y0GV7TIFJ2X187","","1212.9000000357628","img/land5.png","75","1213.8999999761581","2","1","1","2","0.8,0.2,0.2,0.2,0.8,0.2,0.2,0.2,0.8","0.2,0.2,0.8,0.8,0.2,0.2,0.2,0.8,0.2","2","",""
"","html-keyboard-response","85","62018","0.0-85.0","3PXX5PX6LYK8ZRI3OXY0YFX73JOBAR","A2UKIUS36QADNI","37SDSEDIN9ORHL92Y0GV7TIFJ2X187","","null","<img src=""img/land5.png"" style=""width:200px; border:14px solid green;"">","null","","","","","","","","","",""
"","image-keyboard-response","86","62793","0.0-86.0","3PXX5PX6LYK8ZRI3OXY0YFX73JOBAR","A2UKIUS36QADNI","37SDSEDIN9ORHL92Y0GV7TIFJ2X187","","773.8000000119209","img/land4.png","76","775","3","0","3","2","0.8,0.2,0.2,0.2,0.8,0.2,0.2,0.2,0.8","0.2,0.2,0.8,0.8,0.2,0.2,0.2,0.8,0.2","2","",""
"","html-keyboard-response","87","63101","0.0-87.0","3PXX5PX6LYK8ZRI3OXY0YFX73JOBAR","A2UKIUS36QADNI","37SDSEDIN9ORHL92Y0GV7TIFJ2X187","","null","<img src=""img/land4.png"" style=""width:200px;border:14px solid red;"">","null","","","","","","","","","",""
"","image-keyboard-response","88","63795","0.0-88.0","3PXX5PX6LYK8ZRI3OXY0YFX73JOBAR","A2UKIUS36QADNI","37SDSEDIN9ORHL92Y0GV7TIFJ2X187","","693.1999999880791","img/land5.png","74","694.0999999642372","1","0","1","2","0.8,0.2,0.2,0.2,0.8,0.2,0.2,0.2,0.8","0.2,0.2,0.8,0.8,0.2,0.2,0.2,0.8,0.2","2","",""
"","html-keyboard-response","89","64099","0.0-89.0","3PXX5PX6LYK8ZRI3OXY0YFX73JOBAR","A2UKIUS36QADNI","37SDSEDIN9ORHL92Y0GV7TIFJ2X187","","null","<img src=""img/land5.png"" style=""width:200px;border:14px solid red;"">","null","","","","","","","","","",""
"","image-keyboard-response","90","64652","0.0-90.0","3PXX5PX6LYK8ZRI3OXY0YFX73JOBAR","A2UKIUS36QADNI","37SDSEDIN9ORHL92Y0GV7TIFJ2X187","","552.5","img/land5.png","75","553.4000000357628","2","1","1","2","0.8,0.2,0.2,0.2,0.8,0.2,0.2,0.2,0.8","0.2,0.2,0.8,0.8,0.2,0.2,0.2,0.8,0.2","2","",""
"","html-keyboard-response","91","64954","0.0-91.0","3PXX5PX6LYK8ZRI3OXY0YFX73JOBAR","A2UKIUS36QADNI","37SDSEDIN9ORHL92Y0GV7TIFJ2X187","","null","<img src=""img/land5.png"" style=""width:200px; border:14px solid green;"">","null","","","","","","","","","",""
"","image-keyboard-response","92","65558","0.0-92.0","3PXX5PX6LYK8ZRI3OXY0YFX73JOBAR","A2UKIUS36QADNI","37SDSEDIN9ORHL92Y0GV7TIFJ2X187","","603","img/land5.png","75","603.7000000476837","2","0","1","2","0.8,0.2,0.2,0.2,0.8,0.2,0.2,0.2,0.8","0.2,0.2,0.8,0.8,0.2,0.2,0.2,0.8,0.2","2","",""
"","html-keyboard-response","93","65861","0.0-93.0","3PXX5PX6LYK8ZRI3OXY0YFX73JOBAR","A2UKIUS36QADNI","37SDSEDIN9ORHL92Y0GV7TIFJ2X187","","null","<img src=""img/land5.png"" style=""width:200px;border:14px solid red;"">","null","","","","","","","","","",""
"","image-keyboard-response","94","66109","0.0-94.0","3PXX5PX6LYK8ZRI3OXY0YFX73JOBAR","A2UKIUS36QADNI","37SDSEDIN9ORHL92Y0GV7TIFJ2X187","","246.70000004768372","img/land5.png","75","247.80000001192093","2","0","1","2","0.8,0.2,0.2,0.2,0.8,0.2,0.2,0.2,0.8","0.2,0.2,0.8,0.8,0.2,0.2,0.2,0.8,0.2","2","",""
"","html-keyboard-response","95","66421","0.0-95.0","3PXX5PX6LYK8ZRI3OXY0YFX73JOBAR","A2UKIUS36QADNI","37SDSEDIN9ORHL92Y0GV7TIFJ2X187","","null","<img src=""img/land5.png"" style=""width:200px;border:14px solid red;"">","null","","","","","","","","","",""
"","image-keyboard-response","96","66512","0.0-96.0","3PXX5PX6LYK8ZRI3OXY0YFX73JOBAR","A2UKIUS36QADNI","37SDSEDIN9ORHL92Y0GV7TIFJ2X187","","90","img/land5.png","75","91.19999998807907","2","0","1","2","0.8,0.2,0.2,0.2,0.8,0.2,0.2,0.2,0.8","0.2,0.2,0.8,0.8,0.2,0.2,0.2,0.8,0.2","2","",""
"","html-keyboard-response","97","66815","0.0-97.0","3PXX5PX6LYK8ZRI3OXY0YFX73JOBAR","A2UKIUS36QADNI","37SDSEDIN9ORHL92Y0GV7TIFJ2X187","","null","<img src=""img/land5.png"" style=""width:200px;border:14px solid red;"">","null","","","","","","","","","",""
"","image-keyboard-response","98","67540","0.0-98.0","3PXX5PX6LYK8ZRI3OXY0YFX73JOBAR","A2UKIUS36QADNI","37SDSEDIN9ORHL92Y0GV7TIFJ2X187","","723.6000000238419","img/land4.png","76","724.8999999761581","3","0","3","2","0.8,0.2,0.2,0.2,0.8,0.2,0.2,0.2,0.8","0.2,0.2,0.8,0.8,0.2,0.2,0.2,0.8,0.2","2","",""
"","html-keyboard-response","99","67842","0.0-99.0","3PXX5PX6LYK8ZRI3OXY0YFX73JOBAR","A2UKIUS36QADNI","37SDSEDIN9ORHL92Y0GV7TIFJ2X187","","null","<img src=""img/land4.png"" style=""width:200px;border:14px solid red;"">","null","","","","","","","","","",""
"","image-keyboard-response","100","68889","0.0-100.0","3PXX5PX6LYK8ZRI3OXY0YFX73JOBAR","A2UKIUS36QADNI","37SDSEDIN9ORHL92Y0GV7TIFJ2X187","","1046.4000000357628","img/land3.png","74","1047.300000011921","1","1","2","2","0.8,0.2,0.2,0.2,0.8,0.2,0.2,0.2,0.8","0.2,0.2,0.8,0.8,0.2,0.2,0.2,0.8,0.2","2","",""
"","html-keyboard-response","101","69192","0.0-101.0","3PXX5PX6LYK8ZRI3OXY0YFX73JOBAR","A2UKIUS36QADNI","37SDSEDIN9ORHL92Y0GV7TIFJ2X187","","null","<img src=""img/land3.png"" style=""width:200px; border:14px solid green;"">","null","","","","","","","","","",""
"","image-keyboard-response","102","70320","0.0-102.0","3PXX5PX6LYK8ZRI3OXY0YFX73JOBAR","A2UKIUS36QADNI","37SDSEDIN9ORHL92Y0GV7TIFJ2X187","","1126.5","img/land5.png","75","1127.6000000238419","2","0","1","2","0.8,0.2,0.2,0.2,0.8,0.2,0.2,0.2,0.8","0.2,0.2,0.8,0.8,0.2,0.2,0.2,0.8,0.2","2","",""
"","html-keyboard-response","103","70622","0.0-103.0","3PXX5PX6LYK8ZRI3OXY0YFX73JOBAR","A2UKIUS36QADNI","37SDSEDIN9ORHL92Y0GV7TIFJ2X187","","null","<img src=""img/land5.png"" style=""width:200px;border:14px solid red;"">","null","","","","","","","","","",""
"","image-keyboard-response","104","72069","0.0-104.0","3PXX5PX6LYK8ZRI3OXY0YFX73JOBAR","A2UKIUS36QADNI","37SDSEDIN9ORHL92Y0GV7TIFJ2X187","","1445.5","img/land4.png","76","1446.5999999642372","3","0","3","2","0.8,0.2,0.2,0.2,0.8,0.2,0.2,0.2,0.8","0.2,0.2,0.8,0.8,0.2,0.2,0.2,0.8,0.2","2","",""
"","html-keyboard-response","105","72372","0.0-105.0","3PXX5PX6LYK8ZRI3OXY0YFX73JOBAR","A2UKIUS36QADNI","37SDSEDIN9ORHL92Y0GV7TIFJ2X187","","null","<img src=""img/land4.png"" style=""width:200px;border:14px solid red;"">","null","","","","","","","","","",""
"","image-keyboard-response","106","73036","0.0-106.0","3PXX5PX6LYK8ZRI3OXY0YFX73JOBAR","A2UKIUS36QADNI","37SDSEDIN9ORHL92Y0GV7TIFJ2X187","","662.6999999880791","img/land5.png","74","663.8999999761581","1","0","1","2","0.8,0.2,0.2,0.2,0.8,0.2,0.2,0.2,0.8","0.2,0.2,0.8,0.8,0.2,0.2,0.2,0.8,0.2","2","",""
"","html-keyboard-response","107","73343","0.0-107.0","3PXX5PX6LYK8ZRI3OXY0YFX73JOBAR","A2UKIUS36QADNI","37SDSEDIN9ORHL92Y0GV7TIFJ2X187","","null","<img src=""img/land5.png"" style=""width:200px;border:14px solid red;"">","null","","","","","","","","","",""
"","image-keyboard-response","108","73803","0.0-108.0","3PXX5PX6LYK8ZRI3OXY0YFX73JOBAR","A2UKIUS36QADNI","37SDSEDIN9ORHL92Y0GV7TIFJ2X187","","459.30000001192093","img/land5.png","75","460.19999998807907","2","1","1","2","0.8,0.2,0.2,0.2,0.8,0.2,0.2,0.2,0.8","0.2,0.2,0.8,0.8,0.2,0.2,0.2,0.8,0.2","2","",""
"","html-keyboard-response","109","74105","0.0-109.0","3PXX5PX6LYK8ZRI3OXY0YFX73JOBAR","A2UKIUS36QADNI","37SDSEDIN9ORHL92Y0GV7TIFJ2X187","","null","<img src=""img/land5.png"" style=""width:200px; border:14px solid green;"">","null","","","","","","","","","",""
"","image-keyboard-response","110","74550","0.0-110.0","3PXX5PX6LYK8ZRI3OXY0YFX73JOBAR","A2UKIUS36QADNI","37SDSEDIN9ORHL92Y0GV7TIFJ2X187","","443.5","img/land5.png","76","444.19999998807907","3","1","1","2","0.8,0.2,0.2,0.2,0.8,0.2,0.2,0.2,0.8","0.2,0.2,0.8,0.8,0.2,0.2,0.2,0.8,0.2","2","",""
"","html-keyboard-response","111","74851","0.0-111.0","3PXX5PX6LYK8ZRI3OXY0YFX73JOBAR","A2UKIUS36QADNI","37SDSEDIN9ORHL92Y0GV7TIFJ2X187","","null","<img src=""img/land5.png"" style=""width:200px; border:14px solid green;"">","null","","","","","","","","","",""
"","image-keyboard-response","112","75165","0.0-112.0","3PXX5PX6LYK8ZRI3OXY0YFX73JOBAR","A2UKIUS36QADNI","37SDSEDIN9ORHL92Y0GV7TIFJ2X187","","313.2000000476837","img/land5.png","76","314.10000002384186","3","0","1","2","0.8,0.2,0.2,0.2,0.8,0.2,0.2,0.2,0.8","0.2,0.2,0.8,0.8,0.2,0.2,0.2,0.8,0.2","2","",""
"","html-keyboard-response","113","75467","0.0-113.0","3PXX5PX6LYK8ZRI3OXY0YFX73JOBAR","A2UKIUS36QADNI","37SDSEDIN9ORHL92Y0GV7TIFJ2X187","","null","<img src=""img/land5.png"" style=""width:200px;border:14px solid red;"">","null","","","","","","","","","",""
"","image-keyboard-response","114","75605","0.0-114.0","3PXX5PX6LYK8ZRI3OXY0YFX73JOBAR","A2UKIUS36QADNI","37SDSEDIN9ORHL92Y0GV7TIFJ2X187","","135.9000000357628","img/land5.png","75","137.30000001192093","2","0","1","2","0.8,0.2,0.2,0.2,0.8,0.2,0.2,0.2,0.8","0.2,0.2,0.8,0.8,0.2,0.2,0.2,0.8,0.2","2","",""
"","html-keyboard-response","115","75919","0.0-115.0","3PXX5PX6LYK8ZRI3OXY0YFX73JOBAR","A2UKIUS36QADNI","37SDSEDIN9ORHL92Y0GV7TIFJ2X187","","null","<img src=""img/land5.png"" style=""width:200px;border:14px solid red;"">","null","","","","","","","","","",""
"","image-keyboard-response","116","75955","0.0-116.0","3PXX5PX6LYK8ZRI3OXY0YFX73JOBAR","A2UKIUS36QADNI","37SDSEDIN9ORHL92Y0GV7TIFJ2X187","","35.39999997615814","img/land5.png","75","35.90000003576279","2","0","1","2","0.8,0.2,0.2,0.2,0.8,0.2,0.2,0.2,0.8","0.2,0.2,0.8,0.8,0.2,0.2,0.2,0.8,0.2","2","",""
"","html-keyboard-response","117","76256","0.0-117.0","3PXX5PX6LYK8ZRI3OXY0YFX73JOBAR","A2UKIUS36QADNI","37SDSEDIN9ORHL92Y0GV7TIFJ2X187","","null","<img src=""img/land5.png"" style=""width:200px;border:14px solid red;"">","null","","","","","","","","","",""
"","image-keyboard-response","118","76609","0.0-118.0","3PXX5PX6LYK8ZRI3OXY0YFX73JOBAR","A2UKIUS36QADNI","37SDSEDIN9ORHL92Y0GV7TIFJ2X187","","350.5","img/land5.png","75","352.39999997615814","2","0","1","2","0.8,0.2,0.2,0.2,0.8,0.2,0.2,0.2,0.8","0.2,0.2,0.8,0.8,0.2,0.2,0.2,0.8,0.2","2","",""
"","html-keyboard-response","119","76912","0.0-119.0","3PXX5PX6LYK8ZRI3OXY0YFX73JOBAR","A2UKIUS36QADNI","37SDSEDIN9ORHL92Y0GV7TIFJ2X187","","null","<img src=""img/land5.png"" style=""width:200px;border:14px solid red;"">","null","","","","","","","","","",""
"","image-keyboard-response","120","76954","0.0-120.0","3PXX5PX6LYK8ZRI3OXY0YFX73JOBAR","A2UKIUS36QADNI","37SDSEDIN9ORHL92Y0GV7TIFJ2X187","","41","img/land4.png","74","42.40000003576279","1","0","3","2","0.8,0.2,0.2,0.2,0.8,0.2,0.2,0.2,0.8","0.2,0.2,0.8,0.8,0.2,0.2,0.2,0.8,0.2","2","",""
"","html-keyboard-response","121","77256","0.0-121.0","3PXX5PX6LYK8ZRI3OXY0YFX73JOBAR","A2UKIUS36QADNI","37SDSEDIN9ORHL92Y0GV7TIFJ2X187","","null","<img src=""img/land4.png"" style=""width:200px;border:14px solid red;"">","null","","","","","","","","","",""
"","image-keyboard-response","122","77872","0.0-122.0","3PXX5PX6LYK8ZRI3OXY0YFX73JOBAR","A2UKIUS36QADNI","37SDSEDIN9ORHL92Y0GV7TIFJ2X187","","614.5","img/land5.png","74","615.6999999880791","1","1","1","2","0.8,0.2,0.2,0.2,0.8,0.2,0.2,0.2,0.8","0.2,0.2,0.8,0.8,0.2,0.2,0.2,0.8,0.2","2","",""
"","html-keyboard-response","123","78175","0.0-123.0","3PXX5PX6LYK8ZRI3OXY0YFX73JOBAR","A2UKIUS36QADNI","37SDSEDIN9ORHL92Y0GV7TIFJ2X187","","null","<img src=""img/land5.png"" style=""width:200px; border:14px solid green;"">","null","","","","","","","","","",""
"","image-keyboard-response","124","78642","0.0-124.0","3PXX5PX6LYK8ZRI3OXY0YFX73JOBAR","A2UKIUS36QADNI","37SDSEDIN9ORHL92Y0GV7TIFJ2X187","","465.5","img/land5.png","74","466.89999997615814","1","0","1","2","0.8,0.2,0.2,0.2,0.8,0.2,0.2,0.2,0.8","0.2,0.2,0.8,0.8,0.2,0.2,0.2,0.8,0.2","2","",""
"","html-keyboard-response","125","78943","0.0-125.0","3PXX5PX6LYK8ZRI3OXY0YFX73JOBAR","A2UKIUS36QADNI","37SDSEDIN9ORHL92Y0GV7TIFJ2X187","","null","<img src=""img/land5.png"" style=""width:200px;border:14px solid red;"">","null","","","","","","","","","",""
"","image-keyboard-response","126","79155","0.0-126.0","3PXX5PX6LYK8ZRI3OXY0YFX73JOBAR","A2UKIUS36QADNI","37SDSEDIN9ORHL92Y0GV7TIFJ2X187","","211.19999998807907","img/land4.png","75","212.19999998807907","2","0","3","2","0.8,0.2,0.2,0.2,0.8,0.2,0.2,0.2,0.8","0.2,0.2,0.8,0.8,0.2,0.2,0.2,0.8,0.2","2","",""
"","html-keyboard-response","127","79457","0.0-127.0","3PXX5PX6LYK8ZRI3OXY0YFX73JOBAR","A2UKIUS36QADNI","37SDSEDIN9ORHL92Y0GV7TIFJ2X187","","null","<img src=""img/land4.png"" style=""width:200px;border:14px solid red;"">","null","","","","","","","","","",""
"","image-keyboard-response","128","79978","0.0-128.0","3PXX5PX6LYK8ZRI3OXY0YFX73JOBAR","A2UKIUS36QADNI","37SDSEDIN9ORHL92Y0GV7TIFJ2X187","","518.5999999642372","img/land5.png","75","520.1000000238419","2","1","1","2","0.8,0.2,0.2,0.2,0.8,0.2,0.2,0.2,0.8","0.2,0.2,0.8,0.8,0.2,0.2,0.2,0.8,0.2","2","",""
"","html-keyboard-response","129","80279","0.0-129.0","3PXX5PX6LYK8ZRI3OXY0YFX73JOBAR","A2UKIUS36QADNI","37SDSEDIN9ORHL92Y0GV7TIFJ2X187","","null","<img src=""img/land5.png"" style=""width:200px; border:14px solid green;"">","null","","","","","","","","","",""
"","image-keyboard-response","130","80454","0.0-130.0","3PXX5PX6LYK8ZRI3OXY0YFX73JOBAR","A2UKIUS36QADNI","37SDSEDIN9ORHL92Y0GV7TIFJ2X187","","173.89999997615814","img/land3.png","76","174.5","3","0","2","2","0.8,0.2,0.2,0.2,0.8,0.2,0.2,0.2,0.8","0.2,0.2,0.8,0.8,0.2,0.2,0.2,0.8,0.2","2","",""
"","html-keyboard-response","131","80756","0.0-131.0","3PXX5PX6LYK8ZRI3OXY0YFX73JOBAR","A2UKIUS36QADNI","37SDSEDIN9ORHL92Y0GV7TIFJ2X187","","null","<img src=""img/land3.png"" style=""width:200px;border:14px solid red;"">","null","","","","","","","","","",""
"","image-keyboard-response","132","80887","0.0-132.0","3PXX5PX6LYK8ZRI3OXY0YFX73JOBAR","A2UKIUS36QADNI","37SDSEDIN9ORHL92Y0GV7TIFJ2X187","","129.69999998807907","img/land5.png","76","131.20000004768372","3","1","1","2","0.8,0.2,0.2,0.2,0.8,0.2,0.2,0.2,0.8","0.2,0.2,0.8,0.8,0.2,0.2,0.2,0.8,0.2","2","",""
"","html-keyboard-response","133","81189","0.0-133.0","3PXX5PX6LYK8ZRI3OXY0YFX73JOBAR","A2UKIUS36QADNI","37SDSEDIN9ORHL92Y0GV7TIFJ2X187","","null","<img src=""img/land5.png"" style=""width:200px; border:14px solid green;"">","null","","","","","","","","","",""
"","image-keyboard-response","134","81611","0.0-134.0","3PXX5PX6LYK8ZRI3OXY0YFX73JOBAR","A2UKIUS36QADNI","37SDSEDIN9ORHL92Y0GV7TIFJ2X187","","420.4000000357628","img/land4.png","74","421.69999998807907","1","1","3","2","0.8,0.2,0.2,0.2,0.8,0.2,0.2,0.2,0.8","0.2,0.2,0.8,0.8,0.2,0.2,0.2,0.8,0.2","2","",""
"","html-keyboard-response","135","81914","0.0-135.0","3PXX5PX6LYK8ZRI3OXY0YFX73JOBAR","A2UKIUS36QADNI","37SDSEDIN9ORHL92Y0GV7TIFJ2X187","","null","<img src=""img/land4.png"" style=""width:200px; border:14px solid green;"">","null","","","","","","","","","",""
"","image-keyboard-response","136","82412","0.0-136.0","3PXX5PX6LYK8ZRI3OXY0YFX73JOBAR","A2UKIUS36QADNI","37SDSEDIN9ORHL92Y0GV7TIFJ2X187","","496.30000001192093","img/land3.png","75","497.5","2","0","2","2","0.8,0.2,0.2,0.2,0.8,0.2,0.2,0.2,0.8","0.2,0.2,0.8,0.8,0.2,0.2,0.2,0.8,0.2","2","",""
"","html-keyboard-response","137","82714","0.0-137.0","3PXX5PX6LYK8ZRI3OXY0YFX73JOBAR","A2UKIUS36QADNI","37SDSEDIN9ORHL92Y0GV7TIFJ2X187","","null","<img src=""img/land3.png"" style=""width:200px;border:14px solid red;"">","null","","","","","","","","","",""
"","image-keyboard-response","138","82793","0.0-138.0","3PXX5PX6LYK8ZRI3OXY0YFX73JOBAR","A2UKIUS36QADNI","37SDSEDIN9ORHL92Y0GV7TIFJ2X187","","78.19999998807907","img/land5.png","76","79.39999997615814","3","0","1","2","0.8,0.2,0.2,0.2,0.8,0.2,0.2,0.2,0.8","0.2,0.2,0.8,0.8,0.2,0.2,0.2,0.8,0.2","2","",""
"","html-keyboard-response","139","83105","0.0-139.0","3PXX5PX6LYK8ZRI3OXY0YFX73JOBAR","A2UKIUS36QADNI","37SDSEDIN9ORHL92Y0GV7TIFJ2X187","","null","<img src=""img/land5.png"" style=""width:200px;border:14px solid red;"">","null","","","","","","","","","",""
"","image-keyboard-response","140","83377","0.0-140.0","3PXX5PX6LYK8ZRI3OXY0YFX73JOBAR","A2UKIUS36QADNI","37SDSEDIN9ORHL92Y0GV7TIFJ2X187","","270.30000001192093","img/land5.png","75","271.10000002384186","2","0","1","2","0.8,0.2,0.2,0.2,0.8,0.2,0.2,0.2,0.8","0.2,0.2,0.8,0.8,0.2,0.2,0.2,0.8,0.2","2","",""
"","html-keyboard-response","141","83679","0.0-141.0","3PXX5PX6LYK8ZRI3OXY0YFX73JOBAR","A2UKIUS36QADNI","37SDSEDIN9ORHL92Y0GV7TIFJ2X187","","null","<img src=""img/land5.png"" style=""width:200px;border:14px solid red;"">","null","","","","","","","","","",""
"","image-keyboard-response","142","83886","0.0-142.0","3PXX5PX6LYK8ZRI3OXY0YFX73JOBAR","A2UKIUS36QADNI","37SDSEDIN9ORHL92Y0GV7TIFJ2X187","","205.5","img/land5.png","75","206.80000001192093","2","0","1","2","0.8,0.2,0.2,0.2,0.8,0.2,0.2,0.2,0.8","0.2,0.2,0.8,0.8,0.2,0.2,0.2,0.8,0.2","2","",""
"","html-keyboard-response","143","84189","0.0-143.0","3PXX5PX6LYK8ZRI3OXY0YFX73JOBAR","A2UKIUS36QADNI","37SDSEDIN9ORHL92Y0GV7TIFJ2X187","","null","<img src=""img/land5.png"" style=""width:200px;border:14px solid red;"">","null","","","","","","","","","",""
"","image-keyboard-response","144","84482","0.0-144.0","3PXX5PX6LYK8ZRI3OXY0YFX73JOBAR","A2UKIUS36QADNI","37SDSEDIN9ORHL92Y0GV7TIFJ2X187","","293","img/land5.png","74","293.80000001192093","1","0","1","2","0.8,0.2,0.2,0.2,0.8,0.2,0.2,0.2,0.8","0.2,0.2,0.8,0.8,0.2,0.2,0.2,0.8,0.2","2","",""
"","html-keyboard-response","145","84785","0.0-145.0","3PXX5PX6LYK8ZRI3OXY0YFX73JOBAR","A2UKIUS36QADNI","37SDSEDIN9ORHL92Y0GV7TIFJ2X187","","null","<img src=""img/land5.png"" style=""width:200px;border:14px solid red;"">","null","","","","","","","","","",""
"","image-keyboard-response","146","85271","0.0-146.0","3PXX5PX6LYK8ZRI3OXY0YFX73JOBAR","A2UKIUS36QADNI","37SDSEDIN9ORHL92Y0GV7TIFJ2X187","","482.7000000476837","img/land4.png","74","483.9000000357628","1","0","3","2","0.8,0.2,0.2,0.2,0.8,0.2,0.2,0.2,0.8","0.2,0.2,0.8,0.8,0.2,0.2,0.2,0.8,0.2","2","",""
"","html-keyboard-response","147","85572","0.0-147.0","3PXX5PX6LYK8ZRI3OXY0YFX73JOBAR","A2UKIUS36QADNI","37SDSEDIN9ORHL92Y0GV7TIFJ2X187","","null","<img src=""img/land4.png"" style=""width:200px;border:14px solid red;"">","null","","","","","","","","","",""
"","image-keyboard-response","148","86181","0.0-148.0","3PXX5PX6LYK8ZRI3OXY0YFX73JOBAR","A2UKIUS36QADNI","37SDSEDIN9ORHL92Y0GV7TIFJ2X187","","607.8000000119209","img/land3.png","76","608.7999999523163","3","1","2","2","0.8,0.2,0.2,0.2,0.8,0.2,0.2,0.2,0.8","0.2,0.2,0.8,0.8,0.2,0.2,0.2,0.8,0.2","2","",""
"","html-keyboard-response","149","86484","0.0-149.0","3PXX5PX6LYK8ZRI3OXY0YFX73JOBAR","A2UKIUS36QADNI","37SDSEDIN9ORHL92Y0GV7TIFJ2X187","","null","<img src=""img/land3.png"" style=""width:200px; border:14px solid green;"">","null","","","","","","","","","",""
"","image-keyboard-response","150","86907","0.0-150.0","3PXX5PX6LYK8ZRI3OXY0YFX73JOBAR","A2UKIUS36QADNI","37SDSEDIN9ORHL92Y0GV7TIFJ2X187","","421.4000000357628","img/land5.png","75","422.60000002384186","2","0","1","2","0.8,0.2,0.2,0.2,0.8,0.2,0.2,0.2,0.8","0.2,0.2,0.8,0.8,0.2,0.2,0.2,0.8,0.2","2","",""
"","html-keyboard-response","151","87209","0.0-151.0","3PXX5PX6LYK8ZRI3OXY0YFX73JOBAR","A2UKIUS36QADNI","37SDSEDIN9ORHL92Y0GV7TIFJ2X187","","null","<img src=""img/land5.png"" style=""width:200px;border:14px solid red;"">","null","","","","","","","","","",""
"","image-keyboard-response","152","87372","0.0-152.0","3PXX5PX6LYK8ZRI3OXY0YFX73JOBAR","A2UKIUS36QADNI","37SDSEDIN9ORHL92Y0GV7TIFJ2X187","","162.60000002384186","img/land3.png","76","163.5","3","0","2","2","0.8,0.2,0.2,0.2,0.8,0.2,0.2,0.2,0.8","0.2,0.2,0.8,0.8,0.2,0.2,0.2,0.8,0.2","2","",""
"","html-keyboard-response","153","87675","0.0-153.0","3PXX5PX6LYK8ZRI3OXY0YFX73JOBAR","A2UKIUS36QADNI","37SDSEDIN9ORHL92Y0GV7TIFJ2X187","","null","<img src=""img/land3.png"" style=""width:200px;border:14px solid red;"">","null","","","","","","","","","",""
"","image-keyboard-response","154","88386","0.0-154.0","3PXX5PX6LYK8ZRI3OXY0YFX73JOBAR","A2UKIUS36QADNI","37SDSEDIN9ORHL92Y0GV7TIFJ2X187","","710.5","img/land5.png","76","711.5999999642372","3","0","1","2","0.8,0.2,0.2,0.2,0.8,0.2,0.2,0.2,0.8","0.2,0.2,0.8,0.8,0.2,0.2,0.2,0.8,0.2","2","",""
"","html-keyboard-response","155","88690","0.0-155.0","3PXX5PX6LYK8ZRI3OXY0YFX73JOBAR","A2UKIUS36QADNI","37SDSEDIN9ORHL92Y0GV7TIFJ2X187","","null","<img src=""img/land5.png"" style=""width:200px;border:14px solid red;"">","null","","","","","","","","","",""
"","image-keyboard-response","156","88989","0.0-156.0","3PXX5PX6LYK8ZRI3OXY0YFX73JOBAR","A2UKIUS36QADNI","37SDSEDIN9ORHL92Y0GV7TIFJ2X187","","297.5","img/land5.png","75","299.10000002384186","2","0","1","2","0.8,0.2,0.2,0.2,0.8,0.2,0.2,0.2,0.8","0.2,0.2,0.8,0.8,0.2,0.2,0.2,0.8,0.2","2","",""
"","html-keyboard-response","157","89291","0.0-157.0","3PXX5PX6LYK8ZRI3OXY0YFX73JOBAR","A2UKIUS36QADNI","37SDSEDIN9ORHL92Y0GV7TIFJ2X187","","null","<img src=""img/land5.png"" style=""width:200px;border:14px solid red;"">","null","","","","","","","","","",""
"","image-keyboard-response","158","89684","0.0-158.0","3PXX5PX6LYK8ZRI3OXY0YFX73JOBAR","A2UKIUS36QADNI","37SDSEDIN9ORHL92Y0GV7TIFJ2X187","","391.89999997615814","img/land5.png","74","393.0999999642372","1","1","1","2","0.8,0.2,0.2,0.2,0.8,0.2,0.2,0.2,0.8","0.2,0.2,0.8,0.8,0.2,0.2,0.2,0.8,0.2","2","",""
"","html-keyboard-response","159","89988","0.0-159.0","3PXX5PX6LYK8ZRI3OXY0YFX73JOBAR","A2UKIUS36QADNI","37SDSEDIN9ORHL92Y0GV7TIFJ2X187","","null","<img src=""img/land5.png"" style=""width:200px; border:14px solid green;"">","null","","","","","","","","","",""
"","image-keyboard-response","160","90113","0.0-160.0","3PXX5PX6LYK8ZRI3OXY0YFX73JOBAR","A2UKIUS36QADNI","37SDSEDIN9ORHL92Y0GV7TIFJ2X187","","123.69999998807907","img/land3.png","74","124.70000004768372","1","1","2","2","0.8,0.2,0.2,0.2,0.8,0.2,0.2,0.2,0.8","0.2,0.2,0.8,0.8,0.2,0.2,0.2,0.8,0.2","2","",""
"","html-keyboard-response","161","90415","0.0-161.0","3PXX5PX6LYK8ZRI3OXY0YFX73JOBAR","A2UKIUS36QADNI","37SDSEDIN9ORHL92Y0GV7TIFJ2X187","","null","<img src=""img/land3.png"" style=""width:200px; border:14px solid green;"">","null","","","","","","","","","",""
"","image-keyboard-response","162","90437","0.0-162.0","3PXX5PX6LYK8ZRI3OXY0YFX73JOBAR","A2UKIUS36QADNI","37SDSEDIN9ORHL92Y0GV7TIFJ2X187","","20.80000001192093","img/land3.png","75","21.30000001192093","2","0","2","2","0.8,0.2,0.2,0.2,0.8,0.2,0.2,0.2,0.8","0.2,0.2,0.8,0.8,0.2,0.2,0.2,0.8,0.2","2","",""
"","html-keyboard-response","163","90738","0.0-163.0","3PXX5PX6LYK8ZRI3OXY0YFX73JOBAR","A2UKIUS36QADNI","37SDSEDIN9ORHL92Y0GV7TIFJ2X187","","null","<img src=""img/land3.png"" style=""width:200px;border:14px solid red;"">","null","","","","","","","","","",""
"","image-keyboard-response","164","90855","0.0-164.0","3PXX5PX6LYK8ZRI3OXY0YFX73JOBAR","A2UKIUS36QADNI","37SDSEDIN9ORHL92Y0GV7TIFJ2X187","","114.69999998807907","img/land3.png","75","115.69999998807907","2","0","2","2","0.8,0.2,0.2,0.2,0.8,0.2,0.2,0.2,0.8","0.2,0.2,0.8,0.8,0.2,0.2,0.2,0.8,0.2","2","",""
"","html-keyboard-response","165","91157","0.0-165.0","3PXX5PX6LYK8ZRI3OXY0YFX73JOBAR","A2UKIUS36QADNI","37SDSEDIN9ORHL92Y0GV7TIFJ2X187","","null","<img src=""img/land3.png"" style=""width:200px;border:14px solid red;"">","null","","","","","","","","","",""
"","image-keyboard-response","166","91380","0.0-166.0","3PXX5PX6LYK8ZRI3OXY0YFX73JOBAR","A2UKIUS36QADNI","37SDSEDIN9ORHL92Y0GV7TIFJ2X187","","221.30000001192093","img/land5.png","74","222.30000001192093","1","0","1","2","0.8,0.2,0.2,0.2,0.8,0.2,0.2,0.2,0.8","0.2,0.2,0.8,0.8,0.2,0.2,0.2,0.8,0.2","2","",""
"","html-keyboard-response","167","91682","0.0-167.0","3PXX5PX6LYK8ZRI3OXY0YFX73JOBAR","A2UKIUS36QADNI","37SDSEDIN9ORHL92Y0GV7TIFJ2X187","","null","<img src=""img/land5.png"" style=""width:200px;border:14px solid red;"">","null","","","","","","","","","",""
"","image-keyboard-response","168","92468","0.0-168.0","3PXX5PX6LYK8ZRI3OXY0YFX73JOBAR","A2UKIUS36QADNI","37SDSEDIN9ORHL92Y0GV7TIFJ2X187","","785.3999999761581","img/land5.png","74","786.5","1","0","1","2","0.8,0.2,0.2,0.2,0.8,0.2,0.2,0.2,0.8","0.2,0.2,0.8,0.8,0.2,0.2,0.2,0.8,0.2","2","",""
"","html-keyboard-response","169","92770","0.0-169.0","3PXX5PX6LYK8ZRI3OXY0YFX73JOBAR","A2UKIUS36QADNI","37SDSEDIN9ORHL92Y0GV7TIFJ2X187","","null","<img src=""img/land5.png"" style=""width:200px;border:14px solid red;"">","null","","","","","","","","","",""
"","image-keyboard-response","170","93455","0.0-170.0","3PXX5PX6LYK8ZRI3OXY0YFX73JOBAR","A2UKIUS36QADNI","37SDSEDIN9ORHL92Y0GV7TIFJ2X187","","683.5","img/land4.png","75","684.3000000119209","2","1","3","2","0.8,0.2,0.2,0.2,0.8,0.2,0.2,0.2,0.8","0.2,0.2,0.8,0.8,0.2,0.2,0.2,0.8,0.2","2","",""
"","html-keyboard-response","171","93756","0.0-171.0","3PXX5PX6LYK8ZRI3OXY0YFX73JOBAR","A2UKIUS36QADNI","37SDSEDIN9ORHL92Y0GV7TIFJ2X187","","null","<img src=""img/land4.png"" style=""width:200px; border:14px solid green;"">","null","","","","","","","","","",""
"","image-keyboard-response","172","94297","0.0-172.0","3PXX5PX6LYK8ZRI3OXY0YFX73JOBAR","A2UKIUS36QADNI","37SDSEDIN9ORHL92Y0GV7TIFJ2X187","","539.5999999642372","img/land5.png","76","540.6000000238419","3","1","1","2","0.8,0.2,0.2,0.2,0.8,0.2,0.2,0.2,0.8","0.2,0.2,0.8,0.8,0.2,0.2,0.2,0.8,0.2","2","",""
"","html-keyboard-response","173","94598","0.0-173.0","3PXX5PX6LYK8ZRI3OXY0YFX73JOBAR","A2UKIUS36QADNI","37SDSEDIN9ORHL92Y0GV7TIFJ2X187","","null","<img src=""img/land5.png"" style=""width:200px; border:14px solid green;"">","null","","","","","","","","","",""
"","image-keyboard-response","174","95313","0.0-174.0","3PXX5PX6LYK8ZRI3OXY0YFX73JOBAR","A2UKIUS36QADNI","37SDSEDIN9ORHL92Y0GV7TIFJ2X187","","713.7000000476837","img/land4.png","74","714.4000000357628","1","1","3","2","0.8,0.2,0.2,0.2,0.8,0.2,0.2,0.2,0.8","0.2,0.2,0.8,0.8,0.2,0.2,0.2,0.8,0.2","2","",""
"","html-keyboard-response","175","95614","0.0-175.0","3PXX5PX6LYK8ZRI3OXY0YFX73JOBAR","A2UKIUS36QADNI","37SDSEDIN9ORHL92Y0GV7TIFJ2X187","","null","<img src=""img/land4.png"" style=""width:200px; border:14px solid green;"">","null","","","","","","","","","",""
"","image-keyboard-response","176","96782","0.0-176.0","3PXX5PX6LYK8ZRI3OXY0YFX73JOBAR","A2UKIUS36QADNI","37SDSEDIN9ORHL92Y0GV7TIFJ2X187","","1166.1000000238419","img/land5.png","75","1167.199999988079","2","0","1","2","0.8,0.2,0.2,0.2,0.8,0.2,0.2,0.2,0.8","0.2,0.2,0.8,0.8,0.2,0.2,0.2,0.8,0.2","2","",""
"","html-keyboard-response","177","97083","0.0-177.0","3PXX5PX6LYK8ZRI3OXY0YFX73JOBAR","A2UKIUS36QADNI","37SDSEDIN9ORHL92Y0GV7TIFJ2X187","","null","<img src=""img/land5.png"" style=""width:200px;border:14px solid red;"">","null","","","","","","","","","",""
"","image-keyboard-response","178","97483","0.0-178.0","3PXX5PX6LYK8ZRI3OXY0YFX73JOBAR","A2UKIUS36QADNI","37SDSEDIN9ORHL92Y0GV7TIFJ2X187","","397.80000001192093","img/land5.png","76","399","3","0","1","2","0.8,0.2,0.2,0.2,0.8,0.2,0.2,0.2,0.8","0.2,0.2,0.8,0.8,0.2,0.2,0.2,0.8,0.2","2","",""
"","html-keyboard-response","179","97784","0.0-179.0","3PXX5PX6LYK8ZRI3OXY0YFX73JOBAR","A2UKIUS36QADNI","37SDSEDIN9ORHL92Y0GV7TIFJ2X187","","null","<img src=""img/land5.png"" style=""width:200px;border:14px solid red;"">","null","","","","","","","","","",""
"","image-keyboard-response","180","98119","0.0-180.0","3PXX5PX6LYK8ZRI3OXY0YFX73JOBAR","A2UKIUS36QADNI","37SDSEDIN9ORHL92Y0GV7TIFJ2X187","","333.7000000476837","img/land5.png","76","334.80000001192093","3","1","1","2","0.8,0.2,0.2,0.2,0.8,0.2,0.2,0.2,0.8","0.2,0.2,0.8,0.8,0.2,0.2,0.2,0.8,0.2","2","",""
"","html-keyboard-response","181","98421","0.0-181.0","3PXX5PX6LYK8ZRI3OXY0YFX73JOBAR","A2UKIUS36QADNI","37SDSEDIN9ORHL92Y0GV7TIFJ2X187","","null","<img src=""img/land5.png"" style=""width:200px; border:14px solid green;"">","null","","","","","","","","","",""
"","image-keyboard-response","182","99171","0.0-182.0","3PXX5PX6LYK8ZRI3OXY0YFX73JOBAR","A2UKIUS36QADNI","37SDSEDIN9ORHL92Y0GV7TIFJ2X187","","748.6000000238419","img/land5.png","76","749.3999999761581","3","1","1","2","0.8,0.2,0.2,0.2,0.8,0.2,0.2,0.2,0.8","0.2,0.2,0.8,0.8,0.2,0.2,0.2,0.8,0.2","2","",""
"","html-keyboard-response","183","99473","0.0-183.0","3PXX5PX6LYK8ZRI3OXY0YFX73JOBAR","A2UKIUS36QADNI","37SDSEDIN9ORHL92Y0GV7TIFJ2X187","","null","<img src=""img/land5.png"" style=""width:200px; border:14px solid green;"">","null","","","","","","","","","",""
"","image-keyboard-response","184","99649","0.0-184.0","3PXX5PX6LYK8ZRI3OXY0YFX73JOBAR","A2UKIUS36QADNI","37SDSEDIN9ORHL92Y0GV7TIFJ2X187","","175.30000001192093","img/land4.png","76","175.9000000357628","3","0","3","2","0.8,0.2,0.2,0.2,0.8,0.2,0.2,0.2,0.8","0.2,0.2,0.8,0.8,0.2,0.2,0.2,0.8,0.2","2","",""
"","html-keyboard-response","185","99952","0.0-185.0","3PXX5PX6LYK8ZRI3OXY0YFX73JOBAR","A2UKIUS36QADNI","37SDSEDIN9ORHL92Y0GV7TIFJ2X187","","null","<img src=""img/land4.png"" style=""width:200px;border:14px solid red;"">","null","","","","","","","","","",""
"","image-keyboard-response","186","100451","0.0-186.0","3PXX5PX6LYK8ZRI3OXY0YFX73JOBAR","A2UKIUS36QADNI","37SDSEDIN9ORHL92Y0GV7TIFJ2X187","","498.0999999642372","img/land5.png","76","499.19999998807907","3","1","1","2","0.8,0.2,0.2,0.2,0.8,0.2,0.2,0.2,0.8","0.2,0.2,0.8,0.8,0.2,0.2,0.2,0.8,0.2","2","",""
"","html-keyboard-response","187","100753","0.0-187.0","3PXX5PX6LYK8ZRI3OXY0YFX73JOBAR","A2UKIUS36QADNI","37SDSEDIN9ORHL92Y0GV7TIFJ2X187","","null","<img src=""img/land5.png"" style=""width:200px; border:14px solid green;"">","null","","","","","","","","","",""
"","image-keyboard-response","188","101492","0.0-188.0","3PXX5PX6LYK8ZRI3OXY0YFX73JOBAR","A2UKIUS36QADNI","37SDSEDIN9ORHL92Y0GV7TIFJ2X187","","736.8000000119209","img/land3.png","74","738.3999999761581","1","1","2","2","0.8,0.2,0.2,0.2,0.8,0.2,0.2,0.2,0.8","0.2,0.2,0.8,0.8,0.2,0.2,0.2,0.8,0.2","2","",""
"","html-keyboard-response","189","101794","0.0-189.0","3PXX5PX6LYK8ZRI3OXY0YFX73JOBAR","A2UKIUS36QADNI","37SDSEDIN9ORHL92Y0GV7TIFJ2X187","","null","<img src=""img/land3.png"" style=""width:200px; border:14px solid green;"">","null","","","","","","","","","",""
"","image-keyboard-response","190","102509","0.0-190.0","3PXX5PX6LYK8ZRI3OXY0YFX73JOBAR","A2UKIUS36QADNI","37SDSEDIN9ORHL92Y0GV7TIFJ2X187","","713.1999999880791","img/land4.png","75","714.4000000357628","2","0","3","2","0.8,0.2,0.2,0.2,0.8,0.2,0.2,0.2,0.8","0.2,0.2,0.8,0.8,0.2,0.2,0.2,0.8,0.2","2","",""
"","html-keyboard-response","191","102810","0.0-191.0","3PXX5PX6LYK8ZRI3OXY0YFX73JOBAR","A2UKIUS36QADNI","37SDSEDIN9ORHL92Y0GV7TIFJ2X187","","null","<img src=""img/land4.png"" style=""width:200px;border:14px solid red;"">","null","","","","","","","","","",""
"","image-keyboard-response","192","102958","0.0-192.0","3PXX5PX6LYK8ZRI3OXY0YFX73JOBAR","A2UKIUS36QADNI","37SDSEDIN9ORHL92Y0GV7TIFJ2X187","","146","img/land5.png","75","147.39999997615814","2","0","1","2","0.8,0.2,0.2,0.2,0.8,0.2,0.2,0.2,0.8","0.2,0.2,0.8,0.8,0.2,0.2,0.2,0.8,0.2","2","",""
"","html-keyboard-response","193","103261","0.0-193.0","3PXX5PX6LYK8ZRI3OXY0YFX73JOBAR","A2UKIUS36QADNI","37SDSEDIN9ORHL92Y0GV7TIFJ2X187","","null","<img src=""img/land5.png"" style=""width:200px;border:14px solid red;"">","null","","","","","","","","","",""
"","image-keyboard-response","194","103702","0.0-194.0","3PXX5PX6LYK8ZRI3OXY0YFX73JOBAR","A2UKIUS36QADNI","37SDSEDIN9ORHL92Y0GV7TIFJ2X187","","440.5","img/land4.png","75","441.19999998807907","2","1","3","2","0.8,0.2,0.2,0.2,0.8,0.2,0.2,0.2,0.8","0.2,0.2,0.8,0.8,0.2,0.2,0.2,0.8,0.2","2","",""
"","html-keyboard-response","195","104004","0.0-195.0","3PXX5PX6LYK8ZRI3OXY0YFX73JOBAR","A2UKIUS36QADNI","37SDSEDIN9ORHL92Y0GV7TIFJ2X187","","null","<img src=""img/land4.png"" style=""width:200px; border:14px solid green;"">","null","","","","","","","","","",""
"","image-keyboard-response","196","104468","0.0-196.0","3PXX5PX6LYK8ZRI3OXY0YFX73JOBAR","A2UKIUS36QADNI","37SDSEDIN9ORHL92Y0GV7TIFJ2X187","","463.2000000476837","img/land5.png","76","463.9000000357628","3","1","1","2","0.8,0.2,0.2,0.2,0.8,0.2,0.2,0.2,0.8","0.2,0.2,0.8,0.8,0.2,0.2,0.2,0.8,0.2","2","",""
"","html-keyboard-response","197","104769","0.0-197.0","3PXX5PX6LYK8ZRI3OXY0YFX73JOBAR","A2UKIUS36QADNI","37SDSEDIN9ORHL92Y0GV7TIFJ2X187","","null","<img src=""img/land5.png"" style=""width:200px; border:14px solid green;"">","null","","","","","","","","","",""
"","image-keyboard-response","198","105259","0.0-198.0","3PXX5PX6LYK8ZRI3OXY0YFX73JOBAR","A2UKIUS36QADNI","37SDSEDIN9ORHL92Y0GV7TIFJ2X187","","489.19999998807907","img/land5.png","76","490.19999998807907","3","1","1","2","0.8,0.2,0.2,0.2,0.8,0.2,0.2,0.2,0.8","0.2,0.2,0.8,0.8,0.2,0.2,0.2,0.8,0.2","2","",""
"","html-keyboard-response","199","105560","0.0-199.0","3PXX5PX6LYK8ZRI3OXY0YFX73JOBAR","A2UKIUS36QADNI","37SDSEDIN9ORHL92Y0GV7TIFJ2X187","","null","<img src=""img/land5.png"" style=""width:200px; border:14px solid green;"">","null","","","","","","","","","",""
"","image-keyboard-response","200","105902","0.0-200.0","3PXX5PX6LYK8ZRI3OXY0YFX73JOBAR","A2UKIUS36QADNI","37SDSEDIN9ORHL92Y0GV7TIFJ2X187","","340.69999998807907","img/land5.png","76","341.30000001192093","3","0","1","2","0.8,0.2,0.2,0.2,0.8,0.2,0.2,0.2,0.8","0.2,0.2,0.8,0.8,0.2,0.2,0.2,0.8,0.2","2","",""
"","html-keyboard-response","201","106203","0.0-201.0","3PXX5PX6LYK8ZRI3OXY0YFX73JOBAR","A2UKIUS36QADNI","37SDSEDIN9ORHL92Y0GV7TIFJ2X187","","null","<img src=""img/land5.png"" style=""width:200px;border:14px solid red;"">","null","","","","","","","","","",""
"","image-keyboard-response","202","106483","0.0-202.0","3PXX5PX6LYK8ZRI3OXY0YFX73JOBAR","A2UKIUS36QADNI","37SDSEDIN9ORHL92Y0GV7TIFJ2X187","","279","img/land5.png","74","279.5999999642372","1","0","1","2","0.8,0.2,0.2,0.2,0.8,0.2,0.2,0.2,0.8","0.2,0.2,0.8,0.8,0.2,0.2,0.2,0.8,0.2","2","",""
"","html-keyboard-response","203","106785","0.0-203.0","3PXX5PX6LYK8ZRI3OXY0YFX73JOBAR","A2UKIUS36QADNI","37SDSEDIN9ORHL92Y0GV7TIFJ2X187","","null","<img src=""img/land5.png"" style=""width:200px;border:14px solid red;"">","null","","","","","","","","","",""
"","image-keyboard-response","204","106929","0.0-204.0","3PXX5PX6LYK8ZRI3OXY0YFX73JOBAR","A2UKIUS36QADNI","37SDSEDIN9ORHL92Y0GV7TIFJ2X187","","143","img/land5.png","74","144.30000001192093","1","0","1","2","0.8,0.2,0.2,0.2,0.8,0.2,0.2,0.2,0.8","0.2,0.2,0.8,0.8,0.2,0.2,0.2,0.8,0.2","2","",""
"","html-keyboard-response","205","107231","0.0-205.0","3PXX5PX6LYK8ZRI3OXY0YFX73JOBAR","A2UKIUS36QADNI","37SDSEDIN9ORHL92Y0GV7TIFJ2X187","","null","<img src=""img/land5.png"" style=""width:200px;border:14px solid red;"">","null","","","","","","","","","",""
"","image-keyboard-response","206","107587","0.0-206.0","3PXX5PX6LYK8ZRI3OXY0YFX73JOBAR","A2UKIUS36QADNI","37SDSEDIN9ORHL92Y0GV7TIFJ2X187","","354.9000000357628","img/land5.png","75","355.9000000357628","2","0","1","2","0.8,0.2,0.2,0.2,0.8,0.2,0.2,0.2,0.8","0.2,0.2,0.8,0.8,0.2,0.2,0.2,0.8,0.2","2","",""
"","html-keyboard-response","207","107889","0.0-207.0","3PXX5PX6LYK8ZRI3OXY0YFX73JOBAR","A2UKIUS36QADNI","37SDSEDIN9ORHL92Y0GV7TIFJ2X187","","null","<img src=""img/land5.png"" style=""width:200px;border:14px solid red;"">","null","","","","","","","","","",""
"","image-keyboard-response","208","108027","0.0-208.0","3PXX5PX6LYK8ZRI3OXY0YFX73JOBAR","A2UKIUS36QADNI","37SDSEDIN9ORHL92Y0GV7TIFJ2X187","","136.5","img/land5.png","75","137.69999998807907","2","1","1","2","0.8,0.2,0.2,0.2,0.8,0.2,0.2,0.2,0.8","0.2,0.2,0.8,0.8,0.2,0.2,0.2,0.8,0.2","2","",""
"","html-keyboard-response","209","108329","0.0-209.0","3PXX5PX6LYK8ZRI3OXY0YFX73JOBAR","A2UKIUS36QADNI","37SDSEDIN9ORHL92Y0GV7TIFJ2X187","","null","<img src=""img/land5.png"" style=""width:200px; border:14px solid green;"">","null","","","","","","","","","",""
"","image-keyboard-response","210","108848","0.0-210.0","3PXX5PX6LYK8ZRI3OXY0YFX73JOBAR","A2UKIUS36QADNI","37SDSEDIN9ORHL92Y0GV7TIFJ2X187","","517.8000000119209","img/land5.png","75","518.5999999642372","2","0","1","2","0.8,0.2,0.2,0.2,0.8,0.2,0.2,0.2,0.8","0.2,0.2,0.8,0.8,0.2,0.2,0.2,0.8,0.2","2","",""
"","html-keyboard-response","211","109151","0.0-211.0","3PXX5PX6LYK8ZRI3OXY0YFX73JOBAR","A2UKIUS36QADNI","37SDSEDIN9ORHL92Y0GV7TIFJ2X187","","null","<img src=""img/land5.png"" style=""width:200px;border:14px solid red;"">","null","","","","","","","","","",""
"","image-keyboard-response","212","109298","0.0-212.0","3PXX5PX6LYK8ZRI3OXY0YFX73JOBAR","A2UKIUS36QADNI","37SDSEDIN9ORHL92Y0GV7TIFJ2X187","","146.10000002384186","img/land3.png","75","147.30000001192093","2","0","2","2","0.8,0.2,0.2,0.2,0.8,0.2,0.2,0.2,0.8","0.2,0.2,0.8,0.8,0.2,0.2,0.2,0.8,0.2","2","",""
"","html-keyboard-response","213","109600","0.0-213.0","3PXX5PX6LYK8ZRI3OXY0YFX73JOBAR","A2UKIUS36QADNI","37SDSEDIN9ORHL92Y0GV7TIFJ2X187","","null","<img src=""img/land3.png"" style=""width:200px;border:14px solid red;"">","null","","","","","","","","","",""
"","image-keyboard-response","214","110366","0.0-214.0","3PXX5PX6LYK8ZRI3OXY0YFX73JOBAR","A2UKIUS36QADNI","37SDSEDIN9ORHL92Y0GV7TIFJ2X187","","764.0999999642372","img/land5.png","76","765.3999999761581","3","0","1","2","0.8,0.2,0.2,0.2,0.8,0.2,0.2,0.2,0.8","0.2,0.2,0.8,0.8,0.2,0.2,0.2,0.8,0.2","2","",""
"","html-keyboard-response","215","110667","0.0-215.0","3PXX5PX6LYK8ZRI3OXY0YFX73JOBAR","A2UKIUS36QADNI","37SDSEDIN9ORHL92Y0GV7TIFJ2X187","","null","<img src=""img/land5.png"" style=""width:200px;border:14px solid red;"">","null","","","","","","","","","",""
"","image-keyboard-response","216","110822","0.0-216.0","3PXX5PX6LYK8ZRI3OXY0YFX73JOBAR","A2UKIUS36QADNI","37SDSEDIN9ORHL92Y0GV7TIFJ2X187","","153.30000001192093","img/land5.png","76","154.19999998807907","3","0","1","2","0.8,0.2,0.2,0.2,0.8,0.2,0.2,0.2,0.8","0.2,0.2,0.8,0.8,0.2,0.2,0.2,0.8,0.2","2","",""
"","html-keyboard-response","217","111123","0.0-217.0","3PXX5PX6LYK8ZRI3OXY0YFX73JOBAR","A2UKIUS36QADNI","37SDSEDIN9ORHL92Y0GV7TIFJ2X187","","null","<img src=""img/land5.png"" style=""width:200px;border:14px solid red;"">","null","","","","","","","","","",""
"","image-keyboard-response","218","111698","0.0-218.0","3PXX5PX6LYK8ZRI3OXY0YFX73JOBAR","A2UKIUS36QADNI","37SDSEDIN9ORHL92Y0GV7TIFJ2X187","","573.8999999761581","img/land3.png","76","574.7000000476837","3","0","2","2","0.8,0.2,0.2,0.2,0.8,0.2,0.2,0.2,0.8","0.2,0.2,0.8,0.8,0.2,0.2,0.2,0.8,0.2","2","",""
"","html-keyboard-response","219","112000","0.0-219.0","3PXX5PX6LYK8ZRI3OXY0YFX73JOBAR","A2UKIUS36QADNI","37SDSEDIN9ORHL92Y0GV7TIFJ2X187","","null","<img src=""img/land3.png"" style=""width:200px;border:14px solid red;"">","null","","","","","","","","","",""
"","image-keyboard-response","220","112084","0.0-220.0","3PXX5PX6LYK8ZRI3OXY0YFX73JOBAR","A2UKIUS36QADNI","37SDSEDIN9ORHL92Y0GV7TIFJ2X187","","82.09999996423721","img/land4.png","76","83.10000002384186","3","0","3","2","0.8,0.2,0.2,0.2,0.8,0.2,0.2,0.2,0.8","0.2,0.2,0.8,0.8,0.2,0.2,0.2,0.8,0.2","2","",""
"","html-keyboard-response","221","112385","0.0-221.0","3PXX5PX6LYK8ZRI3OXY0YFX73JOBAR","A2UKIUS36QADNI","37SDSEDIN9ORHL92Y0GV7TIFJ2X187","","null","<img src=""img/land4.png"" style=""width:200px;border:14px solid red;"">","null","","","","","","","","","",""
"","image-keyboard-response","222","112717","0.0-222.0","3PXX5PX6LYK8ZRI3OXY0YFX73JOBAR","A2UKIUS36QADNI","37SDSEDIN9ORHL92Y0GV7TIFJ2X187","","331.2999999523163","img/land5.png","74","332.10000002384186","1","0","1","2","0.8,0.2,0.2,0.2,0.8,0.2,0.2,0.2,0.8","0.2,0.2,0.8,0.8,0.2,0.2,0.2,0.8,0.2","2","",""
"","html-keyboard-response","223","113018","0.0-223.0","3PXX5PX6LYK8ZRI3OXY0YFX73JOBAR","A2UKIUS36QADNI","37SDSEDIN9ORHL92Y0GV7TIFJ2X187","","null","<img src=""img/land5.png"" style=""width:200px;border:14px solid red;"">","null","","","","","","","","","",""
"","image-keyboard-response","224","113448","0.0-224.0","3PXX5PX6LYK8ZRI3OXY0YFX73JOBAR","A2UKIUS36QADNI","37SDSEDIN9ORHL92Y0GV7TIFJ2X187","","428.9000000357628","img/land3.png","74","430.5","1","1","2","2","0.8,0.2,0.2,0.2,0.8,0.2,0.2,0.2,0.8","0.2,0.2,0.8,0.8,0.2,0.2,0.2,0.8,0.2","2","",""
"","html-keyboard-response","225","113752","0.0-225.0","3PXX5PX6LYK8ZRI3OXY0YFX73JOBAR","A2UKIUS36QADNI","37SDSEDIN9ORHL92Y0GV7TIFJ2X187","","null","<img src=""img/land3.png"" style=""width:200px; border:14px solid green;"">","null","","","","","","","","","",""
"","image-keyboard-response","226","114388","0.0-226.0","3PXX5PX6LYK8ZRI3OXY0YFX73JOBAR","A2UKIUS36QADNI","37SDSEDIN9ORHL92Y0GV7TIFJ2X187","","634.7000000476837","img/land5.png","75","636.1000000238419","2","1","1","2","0.8,0.2,0.2,0.2,0.8,0.2,0.2,0.2,0.8","0.2,0.2,0.8,0.8,0.2,0.2,0.2,0.8,0.2","2","",""
"","html-keyboard-response","227","114690","0.0-227.0","3PXX5PX6LYK8ZRI3OXY0YFX73JOBAR","A2UKIUS36QADNI","37SDSEDIN9ORHL92Y0GV7TIFJ2X187","","null","<img src=""img/land5.png"" style=""width:200px; border:14px solid green;"">","null","","","","","","","","","",""
"","image-keyboard-response","228","115163","0.0-228.0","3PXX5PX6LYK8ZRI3OXY0YFX73JOBAR","A2UKIUS36QADNI","37SDSEDIN9ORHL92Y0GV7TIFJ2X187","","471.5999999642372","img/land5.png","75","472.80000001192093","2","0","1","2","0.8,0.2,0.2,0.2,0.8,0.2,0.2,0.2,0.8","0.2,0.2,0.8,0.8,0.2,0.2,0.2,0.8,0.2","2","",""
"","html-keyboard-response","229","115464","0.0-229.0","3PXX5PX6LYK8ZRI3OXY0YFX73JOBAR","A2UKIUS36QADNI","37SDSEDIN9ORHL92Y0GV7TIFJ2X187","","null","<img src=""img/land5.png"" style=""width:200px;border:14px solid red;"">","null","","","","","","","","","",""
"","image-keyboard-response","230","115716","0.0-230.0","3PXX5PX6LYK8ZRI3OXY0YFX73JOBAR","A2UKIUS36QADNI","37SDSEDIN9ORHL92Y0GV7TIFJ2X187","","251","img/land4.png","76","251.70000004768372","3","0","3","2","0.8,0.2,0.2,0.2,0.8,0.2,0.2,0.2,0.8","0.2,0.2,0.8,0.8,0.2,0.2,0.2,0.8,0.2","2","",""
"","html-keyboard-response","231","116019","0.0-231.0","3PXX5PX6LYK8ZRI3OXY0YFX73JOBAR","A2UKIUS36QADNI","37SDSEDIN9ORHL92Y0GV7TIFJ2X187","","null","<img src=""img/land4.png"" style=""width:200px;border:14px solid red;"">","null","","","","","","","","","",""
"","image-keyboard-response","232","116598","0.0-232.0","3PXX5PX6LYK8ZRI3OXY0YFX73JOBAR","A2UKIUS36QADNI","37SDSEDIN9ORHL92Y0GV7TIFJ2X187","","578.3000000119209","img/land3.png","76","579.1999999880791","3","1","2","2","0.8,0.2,0.2,0.2,0.8,0.2,0.2,0.2,0.8","0.2,0.2,0.8,0.8,0.2,0.2,0.2,0.8,0.2","2","",""
"","html-keyboard-response","233","116900","0.0-233.0","3PXX5PX6LYK8ZRI3OXY0YFX73JOBAR","A2UKIUS36QADNI","37SDSEDIN9ORHL92Y0GV7TIFJ2X187","","null","<img src=""img/land3.png"" style=""width:200px; border:14px solid green;"">","null","","","","","","","","","",""
"","image-keyboard-response","234","117509","0.0-234.0","3PXX5PX6LYK8ZRI3OXY0YFX73JOBAR","A2UKIUS36QADNI","37SDSEDIN9ORHL92Y0GV7TIFJ2X187","","607.3999999761581","img/land5.png","75","608.7000000476837","2","0","1","2","0.8,0.2,0.2,0.2,0.8,0.2,0.2,0.2,0.8","0.2,0.2,0.8,0.8,0.2,0.2,0.2,0.8,0.2","2","",""
"","html-keyboard-response","235","117811","0.0-235.0","3PXX5PX6LYK8ZRI3OXY0YFX73JOBAR","A2UKIUS36QADNI","37SDSEDIN9ORHL92Y0GV7TIFJ2X187","","null","<img src=""img/land5.png"" style=""width:200px;border:14px solid red;"">","null","","","","","","","","","",""
"","image-keyboard-response","236","118322","0.0-236.0","3PXX5PX6LYK8ZRI3OXY0YFX73JOBAR","A2UKIUS36QADNI","37SDSEDIN9ORHL92Y0GV7TIFJ2X187","","509.7999999523163","img/land4.png","74","510.69999998807907","1","0","3","2","0.8,0.2,0.2,0.2,0.8,0.2,0.2,0.2,0.8","0.2,0.2,0.8,0.8,0.2,0.2,0.2,0.8,0.2","2","",""
"","html-keyboard-response","237","118631","0.0-237.0","3PXX5PX6LYK8ZRI3OXY0YFX73JOBAR","A2UKIUS36QADNI","37SDSEDIN9ORHL92Y0GV7TIFJ2X187","","null","<img src=""img/land4.png"" style=""width:200px;border:14px solid red;"">","null","","","","","","","","","",""
"","image-keyboard-response","238","118938","0.0-238.0","3PXX5PX6LYK8ZRI3OXY0YFX73JOBAR","A2UKIUS36QADNI","37SDSEDIN9ORHL92Y0GV7TIFJ2X187","","306","img/land5.png","74","307.5","1","0","1","2","0.8,0.2,0.2,0.2,0.8,0.2,0.2,0.2,0.8","0.2,0.2,0.8,0.8,0.2,0.2,0.2,0.8,0.2","2","",""
"","html-keyboard-response","239","119241","0.0-239.0","3PXX5PX6LYK8ZRI3OXY0YFX73JOBAR","A2UKIUS36QADNI","37SDSEDIN9ORHL92Y0GV7TIFJ2X187","","null","<img src=""img/land5.png"" style=""width:200px;border:14px solid red;"">","null","","","","","","","","","",""
"","image-keyboard-response","240","119796","0.0-240.0","3PXX5PX6LYK8ZRI3OXY0YFX73JOBAR","A2UKIUS36QADNI","37SDSEDIN9ORHL92Y0GV7TIFJ2X187","","555","img/land4.png","74","555.8000000119209","1","0","3","2","0.8,0.2,0.2,0.2,0.8,0.2,0.2,0.2,0.8","0.2,0.2,0.8,0.8,0.2,0.2,0.2,0.8,0.2","2","",""
"","html-keyboard-response","241","120099","0.0-241.0","3PXX5PX6LYK8ZRI3OXY0YFX73JOBAR","A2UKIUS36QADNI","37SDSEDIN9ORHL92Y0GV7TIFJ2X187","","null","<img src=""img/land4.png"" style=""width:200px;border:14px solid red;"">","null","","","","","","","","","",""
"","image-keyboard-response","242","120282","0.0-242.0","3PXX5PX6LYK8ZRI3OXY0YFX73JOBAR","A2UKIUS36QADNI","37SDSEDIN9ORHL92Y0GV7TIFJ2X187","","181.9000000357628","img/land5.png","74","182.79999995231628","1","0","1","2","0.8,0.2,0.2,0.2,0.8,0.2,0.2,0.2,0.8","0.2,0.2,0.8,0.8,0.2,0.2,0.2,0.8,0.2","2","",""
"","html-keyboard-response","243","120584","0.0-243.0","3PXX5PX6LYK8ZRI3OXY0YFX73JOBAR","A2UKIUS36QADNI","37SDSEDIN9ORHL92Y0GV7TIFJ2X187","","null","<img src=""img/land5.png"" style=""width:200px;border:14px solid red;"">","null","","","","","","","","","",""
"","image-keyboard-response","244","120880","0.0-244.0","3PXX5PX6LYK8ZRI3OXY0YFX73JOBAR","A2UKIUS36QADNI","37SDSEDIN9ORHL92Y0GV7TIFJ2X187","","295.10000002384186","img/land5.png","74","296.30000001192093","1","0","1","2","0.8,0.2,0.2,0.2,0.8,0.2,0.2,0.2,0.8","0.2,0.2,0.8,0.8,0.2,0.2,0.2,0.8,0.2","2","",""
"","html-keyboard-response","245","121182","0.0-245.0","3PXX5PX6LYK8ZRI3OXY0YFX73JOBAR","A2UKIUS36QADNI","37SDSEDIN9ORHL92Y0GV7TIFJ2X187","","null","<img src=""img/land5.png"" style=""width:200px;border:14px solid red;"">","null","","","","","","","","","",""
"","image-keyboard-response","246","121447","0.0-246.0","3PXX5PX6LYK8ZRI3OXY0YFX73JOBAR","A2UKIUS36QADNI","37SDSEDIN9ORHL92Y0GV7TIFJ2X187","","264.5","img/land5.png","75","265.39999997615814","2","0","1","2","0.8,0.2,0.2,0.2,0.8,0.2,0.2,0.2,0.8","0.2,0.2,0.8,0.8,0.2,0.2,0.2,0.8,0.2","2","",""
"","html-keyboard-response","247","121749","0.0-247.0","3PXX5PX6LYK8ZRI3OXY0YFX73JOBAR","A2UKIUS36QADNI","37SDSEDIN9ORHL92Y0GV7TIFJ2X187","","null","<img src=""img/land5.png"" style=""width:200px;border:14px solid red;"">","null","","","","","","","","","",""
"","image-keyboard-response","248","122042","0.0-248.0","3PXX5PX6LYK8ZRI3OXY0YFX73JOBAR","A2UKIUS36QADNI","37SDSEDIN9ORHL92Y0GV7TIFJ2X187","","292.39999997615814","img/land5.png","75","293.19999998807907","2","0","1","2","0.8,0.2,0.2,0.2,0.8,0.2,0.2,0.2,0.8","0.2,0.2,0.8,0.8,0.2,0.2,0.2,0.8,0.2","2","",""
"","html-keyboard-response","249","122345","0.0-249.0","3PXX5PX6LYK8ZRI3OXY0YFX73JOBAR","A2UKIUS36QADNI","37SDSEDIN9ORHL92Y0GV7TIFJ2X187","","null","<img src=""img/land5.png"" style=""width:200px;border:14px solid red;"">","null","","","","","","","","","",""
"","image-keyboard-response","250","122900","0.0-250.0","3PXX5PX6LYK8ZRI3OXY0YFX73JOBAR","A2UKIUS36QADNI","37SDSEDIN9ORHL92Y0GV7TIFJ2X187","","553.8000000119209","img/land4.png","76","554.5999999642372","3","0","3","2","0.8,0.2,0.2,0.2,0.8,0.2,0.2,0.2,0.8","0.2,0.2,0.8,0.8,0.2,0.2,0.2,0.8,0.2","2","",""
"","html-keyboard-response","251","123202","0.0-251.0","3PXX5PX6LYK8ZRI3OXY0YFX73JOBAR","A2UKIUS36QADNI","37SDSEDIN9ORHL92Y0GV7TIFJ2X187","","null","<img src=""img/land4.png"" style=""width:200px;border:14px solid red;"">","null","","","","","","","","","",""
"","image-keyboard-response","252","123337","0.0-252.0","3PXX5PX6LYK8ZRI3OXY0YFX73JOBAR","A2UKIUS36QADNI","37SDSEDIN9ORHL92Y0GV7TIFJ2X187","","133.5","img/land5.png","76","134.69999998807907","3","0","1","2","0.8,0.2,0.2,0.2,0.8,0.2,0.2,0.2,0.8","0.2,0.2,0.8,0.8,0.2,0.2,0.2,0.8,0.2","2","",""
"","html-keyboard-response","253","123639","0.0-253.0","3PXX5PX6LYK8ZRI3OXY0YFX73JOBAR","A2UKIUS36QADNI","37SDSEDIN9ORHL92Y0GV7TIFJ2X187","","null","<img src=""img/land5.png"" style=""width:200px;border:14px solid red;"">","null","","","","","","","","","",""
"","image-keyboard-response","254","123671","0.0-254.0","3PXX5PX6LYK8ZRI3OXY0YFX73JOBAR","A2UKIUS36QADNI","37SDSEDIN9ORHL92Y0GV7TIFJ2X187","","30.69999998807907","img/land4.png","75","32.10000002384186","2","1","3","2","0.8,0.2,0.2,0.2,0.8,0.2,0.2,0.2,0.8","0.2,0.2,0.8,0.8,0.2,0.2,0.2,0.8,0.2","2","",""
"","html-keyboard-response","255","123973","0.0-255.0","3PXX5PX6LYK8ZRI3OXY0YFX73JOBAR","A2UKIUS36QADNI","37SDSEDIN9ORHL92Y0GV7TIFJ2X187","","null","<img src=""img/land4.png"" style=""width:200px; border:14px solid green;"">","null","","","","","","","","","",""
"","image-keyboard-response","256","123988","0.0-256.0","3PXX5PX6LYK8ZRI3OXY0YFX73JOBAR","A2UKIUS36QADNI","37SDSEDIN9ORHL92Y0GV7TIFJ2X187","","13.399999976158142","img/land5.png","74","14.599999964237213","1","0","1","2","0.8,0.2,0.2,0.2,0.8,0.2,0.2,0.2,0.8","0.2,0.2,0.8,0.8,0.2,0.2,0.2,0.8,0.2","2","",""
"","html-keyboard-response","257","124289","0.0-257.0","3PXX5PX6LYK8ZRI3OXY0YFX73JOBAR","A2UKIUS36QADNI","37SDSEDIN9ORHL92Y0GV7TIFJ2X187","","null","<img src=""img/land5.png"" style=""width:200px;border:14px solid red;"">","null","","","","","","","","","",""
"","image-keyboard-response","258","124316","0.0-258.0","3PXX5PX6LYK8ZRI3OXY0YFX73JOBAR","A2UKIUS36QADNI","37SDSEDIN9ORHL92Y0GV7TIFJ2X187","","25.19999998807907","img/land4.png","76","26.100000023841858","3","0","3","2","0.8,0.2,0.2,0.2,0.8,0.2,0.2,0.2,0.8","0.2,0.2,0.8,0.8,0.2,0.2,0.2,0.8,0.2","2","",""
"","html-keyboard-response","259","124618","0.0-259.0","3PXX5PX6LYK8ZRI3OXY0YFX73JOBAR","A2UKIUS36QADNI","37SDSEDIN9ORHL92Y0GV7TIFJ2X187","","null","<img src=""img/land4.png"" style=""width:200px;border:14px solid red;"">","null","","","","","","","","","",""
"","image-keyboard-response","260","124725","0.0-260.0","3PXX5PX6LYK8ZRI3OXY0YFX73JOBAR","A2UKIUS36QADNI","37SDSEDIN9ORHL92Y0GV7TIFJ2X187","","106.30000001192093","img/land4.png","76","107","3","0","3","2","0.8,0.2,0.2,0.2,0.8,0.2,0.2,0.2,0.8","0.2,0.2,0.8,0.8,0.2,0.2,0.2,0.8,0.2","2","",""
"","html-keyboard-response","261","125027","0.0-261.0","3PXX5PX6LYK8ZRI3OXY0YFX73JOBAR","A2UKIUS36QADNI","37SDSEDIN9ORHL92Y0GV7TIFJ2X187","","null","<img src=""img/land4.png"" style=""width:200px;border:14px solid red;"">","null","","","","","","","","","",""
"","image-keyboard-response","262","125129","0.0-262.0","3PXX5PX6LYK8ZRI3OXY0YFX73JOBAR","A2UKIUS36QADNI","37SDSEDIN9ORHL92Y0GV7TIFJ2X187","","101","img/land3.png","76","102.10000002384186","3","1","2","2","0.8,0.2,0.2,0.2,0.8,0.2,0.2,0.2,0.8","0.2,0.2,0.8,0.8,0.2,0.2,0.2,0.8,0.2","2","",""
"","html-keyboard-response","263","125430","0.0-263.0","3PXX5PX6LYK8ZRI3OXY0YFX73JOBAR","A2UKIUS36QADNI","37SDSEDIN9ORHL92Y0GV7TIFJ2X187","","null","<img src=""img/land3.png"" style=""width:200px; border:14px solid green;"">","null","","","","","","","","","",""
"","image-keyboard-response","264","125433","0.0-264.0","3PXX5PX6LYK8ZRI3OXY0YFX73JOBAR","A2UKIUS36QADNI","37SDSEDIN9ORHL92Y0GV7TIFJ2X187","","1.300000011920929","img/land5.png","74","2.199999988079071","1","0","1","2","0.8,0.2,0.2,0.2,0.8,0.2,0.2,0.2,0.8","0.2,0.2,0.8,0.8,0.2,0.2,0.2,0.8,0.2","2","",""
"","html-keyboard-response","265","125734","0.0-265.0","3PXX5PX6LYK8ZRI3OXY0YFX73JOBAR","A2UKIUS36QADNI","37SDSEDIN9ORHL92Y0GV7TIFJ2X187","","null","<img src=""img/land5.png"" style=""width:200px;border:14px solid red;"">","null","","","","","","","","","",""
"","image-keyboard-response","266","125764","0.0-266.0","3PXX5PX6LYK8ZRI3OXY0YFX73JOBAR","A2UKIUS36QADNI","37SDSEDIN9ORHL92Y0GV7TIFJ2X187","","28.100000023841858","img/land3.png","76","29.19999998807907","3","0","2","2","0.8,0.2,0.2,0.2,0.8,0.2,0.2,0.2,0.8","0.2,0.2,0.8,0.8,0.2,0.2,0.2,0.8,0.2","2","",""
"","html-keyboard-response","267","126066","0.0-267.0","3PXX5PX6LYK8ZRI3OXY0YFX73JOBAR","A2UKIUS36QADNI","37SDSEDIN9ORHL92Y0GV7TIFJ2X187","","null","<img src=""img/land3.png"" style=""width:200px;border:14px solid red;"">","null","","","","","","","","","",""
"","image-keyboard-response","268","126108","0.0-268.0","3PXX5PX6LYK8ZRI3OXY0YFX73JOBAR","A2UKIUS36QADNI","37SDSEDIN9ORHL92Y0GV7TIFJ2X187","","41","img/land3.png","75","42.19999998807907","2","1","2","2","0.8,0.2,0.2,0.2,0.8,0.2,0.2,0.2,0.8","0.2,0.2,0.8,0.8,0.2,0.2,0.2,0.8,0.2","2","",""
"","html-keyboard-response","269","126411","0.0-269.0","3PXX5PX6LYK8ZRI3OXY0YFX73JOBAR","A2UKIUS36QADNI","37SDSEDIN9ORHL92Y0GV7TIFJ2X187","","null","<img src=""img/land3.png"" style=""width:200px; border:14px solid green;"">","null","","","","","","","","","",""
"","image-keyboard-response","270","126418","0.0-270.0","3PXX5PX6LYK8ZRI3OXY0YFX73JOBAR","A2UKIUS36QADNI","37SDSEDIN9ORHL92Y0GV7TIFJ2X187","","6.100000023841858","img/land5.png","74","6.699999988079071","1","1","1","2","0.8,0.2,0.2,0.2,0.8,0.2,0.2,0.2,0.8","0.2,0.2,0.8,0.8,0.2,0.2,0.2,0.8,0.2","2","",""
"","html-keyboard-response","271","126720","0.0-271.0","3PXX5PX6LYK8ZRI3OXY0YFX73JOBAR","A2UKIUS36QADNI","37SDSEDIN9ORHL92Y0GV7TIFJ2X187","","null","<img src=""img/land5.png"" style=""width:200px; border:14px solid green;"">","null","","","","","","","","","",""
"","image-keyboard-response","272","126747","0.0-272.0","3PXX5PX6LYK8ZRI3OXY0YFX73JOBAR","A2UKIUS36QADNI","37SDSEDIN9ORHL92Y0GV7TIFJ2X187","","26.400000035762787","img/land5.png","76","27.099999964237213","3","1","1","2","0.8,0.2,0.2,0.2,0.8,0.2,0.2,0.2,0.8","0.2,0.2,0.8,0.8,0.2,0.2,0.2,0.8,0.2","2","",""
"","html-keyboard-response","273","127048","0.0-273.0","3PXX5PX6LYK8ZRI3OXY0YFX73JOBAR","A2UKIUS36QADNI","37SDSEDIN9ORHL92Y0GV7TIFJ2X187","","null","<img src=""img/land5.png"" style=""width:200px; border:14px solid green;"">","null","","","","","","","","","",""
"","image-keyboard-response","274","127168","0.0-274.0","3PXX5PX6LYK8ZRI3OXY0YFX73JOBAR","A2UKIUS36QADNI","37SDSEDIN9ORHL92Y0GV7TIFJ2X187","","118.09999996423721","img/land5.png","75","119.90000003576279","2","0","1","2","0.8,0.2,0.2,0.2,0.8,0.2,0.2,0.2,0.8","0.2,0.2,0.8,0.8,0.2,0.2,0.2,0.8,0.2","2","",""
"","html-keyboard-response","275","127471","0.0-275.0","3PXX5PX6LYK8ZRI3OXY0YFX73JOBAR","A2UKIUS36QADNI","37SDSEDIN9ORHL92Y0GV7TIFJ2X187","","null","<img src=""img/land5.png"" style=""width:200px;border:14px solid red;"">","null","","","","","","","","","",""
"","image-keyboard-response","276","127607","0.0-276.0","3PXX5PX6LYK8ZRI3OXY0YFX73JOBAR","A2UKIUS36QADNI","37SDSEDIN9ORHL92Y0GV7TIFJ2X187","","134.60000002384186","img/land4.png","75","135.69999998807907","2","1","3","2","0.8,0.2,0.2,0.2,0.8,0.2,0.2,0.2,0.8","0.2,0.2,0.8,0.8,0.2,0.2,0.2,0.8,0.2","2","",""
"","html-keyboard-response","277","127908","0.0-277.0","3PXX5PX6LYK8ZRI3OXY0YFX73JOBAR","A2UKIUS36QADNI","37SDSEDIN9ORHL92Y0GV7TIFJ2X187","","null","<img src=""img/land4.png"" style=""width:200px; border:14px solid green;"">","null","","","","","","","","","",""
"","image-keyboard-response","278","128014","0.0-278.0","3PXX5PX6LYK8ZRI3OXY0YFX73JOBAR","A2UKIUS36QADNI","37SDSEDIN9ORHL92Y0GV7TIFJ2X187","","105.60000002384186","img/land3.png","76","106.60000002384186","3","0","2","2","0.8,0.2,0.2,0.2,0.8,0.2,0.2,0.2,0.8","0.2,0.2,0.8,0.8,0.2,0.2,0.2,0.8,0.2","2","",""
"","html-keyboard-response","279","128329","0.0-279.0","3PXX5PX6LYK8ZRI3OXY0YFX73JOBAR","A2UKIUS36QADNI","37SDSEDIN9ORHL92Y0GV7TIFJ2X187","","null","<img src=""img/land3.png"" style=""width:200px;border:14px solid red;"">","null","","","","","","","","","",""
"","image-keyboard-response","280","128350","0.0-280.0","3PXX5PX6LYK8ZRI3OXY0YFX73JOBAR","A2UKIUS36QADNI","37SDSEDIN9ORHL92Y0GV7TIFJ2X187","","19.600000023841858","img/land3.png","74","20.69999998807907","1","1","2","2","0.8,0.2,0.2,0.2,0.8,0.2,0.2,0.2,0.8","0.2,0.2,0.8,0.8,0.2,0.2,0.2,0.8,0.2","2","",""
"","html-keyboard-response","281","128652","0.0-281.0","3PXX5PX6LYK8ZRI3OXY0YFX73JOBAR","A2UKIUS36QADNI","37SDSEDIN9ORHL92Y0GV7TIFJ2X187","","null","<img src=""img/land3.png"" style=""width:200px; border:14px solid green;"">","null","","","","","","","","","",""
"","image-keyboard-response","282","128717","0.0-282.0","3PXX5PX6LYK8ZRI3OXY0YFX73JOBAR","A2UKIUS36QADNI","37SDSEDIN9ORHL92Y0GV7TIFJ2X187","","63.69999998807907","img/land5.png","76","65.19999998807907","3","1","1","2","0.8,0.2,0.2,0.2,0.8,0.2,0.2,0.2,0.8","0.2,0.2,0.8,0.8,0.2,0.2,0.2,0.8,0.2","2","",""
"","html-keyboard-response","283","129020","0.0-283.0","3PXX5PX6LYK8ZRI3OXY0YFX73JOBAR","A2UKIUS36QADNI","37SDSEDIN9ORHL92Y0GV7TIFJ2X187","","null","<img src=""img/land5.png"" style=""width:200px; border:14px solid green;"">","null","","","","","","","","","",""
"","image-keyboard-response","284","129052","0.0-284.0","3PXX5PX6LYK8ZRI3OXY0YFX73JOBAR","A2UKIUS36QADNI","37SDSEDIN9ORHL92Y0GV7TIFJ2X187","","30.69999998807907","img/land4.png","74","31.80000001192093","1","0","3","2","0.8,0.2,0.2,0.2,0.8,0.2,0.2,0.2,0.8","0.2,0.2,0.8,0.8,0.2,0.2,0.2,0.8,0.2","2","",""
"","html-keyboard-response","285","129355","0.0-285.0","3PXX5PX6LYK8ZRI3OXY0YFX73JOBAR","A2UKIUS36QADNI","37SDSEDIN9ORHL92Y0GV7TIFJ2X187","","null","<img src=""img/land4.png"" style=""width:200px;border:14px solid red;"">","null","","","","","","","","","",""
"","image-keyboard-response","286","129411","0.0-286.0","3PXX5PX6LYK8ZRI3OXY0YFX73JOBAR","A2UKIUS36QADNI","37SDSEDIN9ORHL92Y0GV7TIFJ2X187","","54.5","img/land5.png","76","55.89999997615814","3","1","1","2","0.8,0.2,0.2,0.2,0.8,0.2,0.2,0.2,0.8","0.2,0.2,0.8,0.8,0.2,0.2,0.2,0.8,0.2","2","",""
"","html-keyboard-response","287","129713","0.0-287.0","3PXX5PX6LYK8ZRI3OXY0YFX73JOBAR","A2UKIUS36QADNI","37SDSEDIN9ORHL92Y0GV7TIFJ2X187","","null","<img src=""img/land5.png"" style=""width:200px; border:14px solid green;"">","null","","","","","","","","","",""
"","image-keyboard-response","288","129767","0.0-288.0","3PXX5PX6LYK8ZRI3OXY0YFX73JOBAR","A2UKIUS36QADNI","37SDSEDIN9ORHL92Y0GV7TIFJ2X187","","52.30000001192093","img/land3.png","74","53.40000003576279","1","1","2","2","0.8,0.2,0.2,0.2,0.8,0.2,0.2,0.2,0.8","0.2,0.2,0.8,0.8,0.2,0.2,0.2,0.8,0.2","2","",""
"","html-keyboard-response","289","130070","0.0-289.0","3PXX5PX6LYK8ZRI3OXY0YFX73JOBAR","A2UKIUS36QADNI","37SDSEDIN9ORHL92Y0GV7TIFJ2X187","","null","<img src=""img/land3.png"" style=""width:200px; border:14px solid green;"">","null","","","","","","","","","",""
"","image-keyboard-response","290","130123","0.0-290.0","3PXX5PX6LYK8ZRI3OXY0YFX73JOBAR","A2UKIUS36QADNI","37SDSEDIN9ORHL92Y0GV7TIFJ2X187","","51.39999997615814","img/land5.png","76","52.59999996423721","3","1","1","2","0.8,0.2,0.2,0.2,0.8,0.2,0.2,0.2,0.8","0.2,0.2,0.8,0.8,0.2,0.2,0.2,0.8,0.2","2","",""
"","html-keyboard-response","291","130424","0.0-291.0","3PXX5PX6LYK8ZRI3OXY0YFX73JOBAR","A2UKIUS36QADNI","37SDSEDIN9ORHL92Y0GV7TIFJ2X187","","null","<img src=""img/land5.png"" style=""width:200px; border:14px solid green;"">","null","","","","","","","","","",""
"","image-keyboard-response","292","130465","0.0-292.0","3PXX5PX6LYK8ZRI3OXY0YFX73JOBAR","A2UKIUS36QADNI","37SDSEDIN9ORHL92Y0GV7TIFJ2X187","","40.19999998807907","img/land5.png","74","41.19999998807907","1","1","1","2","0.8,0.2,0.2,0.2,0.8,0.2,0.2,0.2,0.8","0.2,0.2,0.8,0.8,0.2,0.2,0.2,0.8,0.2","2","",""
"","html-keyboard-response","293","130768","0.0-293.0","3PXX5PX6LYK8ZRI3OXY0YFX73JOBAR","A2UKIUS36QADNI","37SDSEDIN9ORHL92Y0GV7TIFJ2X187","","null","<img src=""img/land5.png"" style=""width:200px; border:14px solid green;"">","null","","","","","","","","","",""
"","image-keyboard-response","294","130844","0.0-294.0","3PXX5PX6LYK8ZRI3OXY0YFX73JOBAR","A2UKIUS36QADNI","37SDSEDIN9ORHL92Y0GV7TIFJ2X187","","75.60000002384186","img/land5.png","76","76.79999995231628","3","0","1","2","0.8,0.2,0.2,0.2,0.8,0.2,0.2,0.2,0.8","0.2,0.2,0.8,0.8,0.2,0.2,0.2,0.8,0.2","2","",""
"","html-keyboard-response","295","131146","0.0-295.0","3PXX5PX6LYK8ZRI3OXY0YFX73JOBAR","A2UKIUS36QADNI","37SDSEDIN9ORHL92Y0GV7TIFJ2X187","","null","<img src=""img/land5.png"" style=""width:200px;border:14px solid red;"">","null","","","","","","","","","",""
"","image-keyboard-response","296","131193","0.0-296.0","3PXX5PX6LYK8ZRI3OXY0YFX73JOBAR","A2UKIUS36QADNI","37SDSEDIN9ORHL92Y0GV7TIFJ2X187","","45.80000001192093","img/land5.png","74","46.69999998807907","1","0","1","2","0.8,0.2,0.2,0.2,0.8,0.2,0.2,0.2,0.8","0.2,0.2,0.8,0.8,0.2,0.2,0.2,0.8,0.2","2","",""
"","html-keyboard-response","297","131495","0.0-297.0","3PXX5PX6LYK8ZRI3OXY0YFX73JOBAR","A2UKIUS36QADNI","37SDSEDIN9ORHL92Y0GV7TIFJ2X187","","null","<img src=""img/land5.png"" style=""width:200px;border:14px solid red;"">","null","","","","","","","","","",""
"","image-keyboard-response","298","131599","0.0-298.0","3PXX5PX6LYK8ZRI3OXY0YFX73JOBAR","A2UKIUS36QADNI","37SDSEDIN9ORHL92Y0GV7TIFJ2X187","","103.09999996423721","img/land5.png","75","103.89999997615814","2","0","1","2","0.8,0.2,0.2,0.2,0.8,0.2,0.2,0.2,0.8","0.2,0.2,0.8,0.8,0.2,0.2,0.2,0.8,0.2","2","",""
"","html-keyboard-response","299","131900","0.0-299.0","3PXX5PX6LYK8ZRI3OXY0YFX73JOBAR","A2UKIUS36QADNI","37SDSEDIN9ORHL92Y0GV7TIFJ2X187","","null","<img src=""img/land5.png"" style=""width:200px;border:14px solid red;"">","null","","","","","","","","","",""
"","image-keyboard-response","300","132297","0.0-300.0","3PXX5PX6LYK8ZRI3OXY0YFX73JOBAR","A2UKIUS36QADNI","37SDSEDIN9ORHL92Y0GV7TIFJ2X187","","396.0999999642372","img/land3.png","76","396.89999997615814","3","1","2","2","0.8,0.2,0.2,0.2,0.8,0.2,0.2,0.2,0.8","0.2,0.2,0.8,0.8,0.2,0.2,0.2,0.8,0.2","2","",""
"","html-keyboard-response","301","132599","0.0-301.0","3PXX5PX6LYK8ZRI3OXY0YFX73JOBAR","A2UKIUS36QADNI","37SDSEDIN9ORHL92Y0GV7TIFJ2X187","","null","<img src=""img/land3.png"" style=""width:200px; border:14px solid green;"">","null","","","","","","","","","",""
"","image-keyboard-response","302","132745","0.0-302.0","3PXX5PX6LYK8ZRI3OXY0YFX73JOBAR","A2UKIUS36QADNI","37SDSEDIN9ORHL92Y0GV7TIFJ2X187","","145","img/land6.png","75","146","2","1","1","1","0.8,0.2,0.2,0.2,0.8,0.2,0.2,0.2,0.8","0.8,0.2,0.2,0.2,0.8,0.2,0.2,0.2,0.8","1","",""
"","html-keyboard-response","303","133052","0.0-303.0","3PXX5PX6LYK8ZRI3OXY0YFX73JOBAR","A2UKIUS36QADNI","37SDSEDIN9ORHL92Y0GV7TIFJ2X187","","null","<img src=""img/land6.png"" style=""width:200px; border:14px solid green;"">","null","","","","","","","","","",""
"","image-keyboard-response","304","133383","0.0-304.0","3PXX5PX6LYK8ZRI3OXY0YFX73JOBAR","A2UKIUS36QADNI","37SDSEDIN9ORHL92Y0GV7TIFJ2X187","","328.60000002384186","img/land6.png","74","330","1","1","1","1","0.8,0.2,0.2,0.2,0.8,0.2,0.2,0.2,0.8","0.8,0.2,0.2,0.2,0.8,0.2,0.2,0.2,0.8","1","",""
"","html-keyboard-response","305","133685","0.0-305.0","3PXX5PX6LYK8ZRI3OXY0YFX73JOBAR","A2UKIUS36QADNI","37SDSEDIN9ORHL92Y0GV7TIFJ2X187","","null","<img src=""img/land6.png"" style=""width:200px; border:14px solid green;"">","null","","","","","","","","","",""
"","image-keyboard-response","306","134088","0.0-306.0","3PXX5PX6LYK8ZRI3OXY0YFX73JOBAR","A2UKIUS36QADNI","37SDSEDIN9ORHL92Y0GV7TIFJ2X187","","401.10000002384186","img/land2.png","75","402.0999999642372","2","0","3","1","0.8,0.2,0.2,0.2,0.8,0.2,0.2,0.2,0.8","0.8,0.2,0.2,0.2,0.8,0.2,0.2,0.2,0.8","1","",""
"","html-keyboard-response","307","134391","0.0-307.0","3PXX5PX6LYK8ZRI3OXY0YFX73JOBAR","A2UKIUS36QADNI","37SDSEDIN9ORHL92Y0GV7TIFJ2X187","","null","<img src=""img/land2.png"" style=""width:200px;border:14px solid red;"">","null","","","","","","","","","",""
"","image-keyboard-response","308","134599","0.0-308.0","3PXX5PX6LYK8ZRI3OXY0YFX73JOBAR","A2UKIUS36QADNI","37SDSEDIN9ORHL92Y0GV7TIFJ2X187","","207.30000001192093","img/land6.png","76","207.9000000357628","3","0","1","1","0.8,0.2,0.2,0.2,0.8,0.2,0.2,0.2,0.8","0.8,0.2,0.2,0.2,0.8,0.2,0.2,0.2,0.8","1","",""
"","html-keyboard-response","309","134915","0.0-309.0","3PXX5PX6LYK8ZRI3OXY0YFX73JOBAR","A2UKIUS36QADNI","37SDSEDIN9ORHL92Y0GV7TIFJ2X187","","null","<img src=""img/land6.png"" style=""width:200px;border:14px solid red;"">","null","","","","","","","","","",""
"","image-keyboard-response","310","135101","0.0-310.0","3PXX5PX6LYK8ZRI3OXY0YFX73JOBAR","A2UKIUS36QADNI","37SDSEDIN9ORHL92Y0GV7TIFJ2X187","","184.30000001192093","img/land1.png","75","185.9000000357628","2","1","2","1","0.8,0.2,0.2,0.2,0.8,0.2,0.2,0.2,0.8","0.8,0.2,0.2,0.2,0.8,0.2,0.2,0.2,0.8","1","",""
"","html-keyboard-response","311","135404","0.0-311.0","3PXX5PX6LYK8ZRI3OXY0YFX73JOBAR","A2UKIUS36QADNI","37SDSEDIN9ORHL92Y0GV7TIFJ2X187","","null","<img src=""img/land1.png"" style=""width:200px; border:14px solid green;"">","null","","","","","","","","","",""
"","image-keyboard-response","312","136014","0.0-312.0","3PXX5PX6LYK8ZRI3OXY0YFX73JOBAR","A2UKIUS36QADNI","37SDSEDIN9ORHL92Y0GV7TIFJ2X187","","609.5","img/land6.png","74","610.3000000119209","1","1","1","1","0.8,0.2,0.2,0.2,0.8,0.2,0.2,0.2,0.8","0.8,0.2,0.2,0.2,0.8,0.2,0.2,0.2,0.8","1","",""
"","html-keyboard-response","313","136317","0.0-313.0","3PXX5PX6LYK8ZRI3OXY0YFX73JOBAR","A2UKIUS36QADNI","37SDSEDIN9ORHL92Y0GV7TIFJ2X187","","null","<img src=""img/land6.png"" style=""width:200px; border:14px solid green;"">","null","","","","","","","","","",""
"","image-keyboard-response","314","136711","0.0-314.0","3PXX5PX6LYK8ZRI3OXY0YFX73JOBAR","A2UKIUS36QADNI","37SDSEDIN9ORHL92Y0GV7TIFJ2X187","","392.80000001192093","img/land2.png","76","394.19999998807907","3","1","3","1","0.8,0.2,0.2,0.2,0.8,0.2,0.2,0.2,0.8","0.8,0.2,0.2,0.2,0.8,0.2,0.2,0.2,0.8","1","",""
"","html-keyboard-response","315","137014","0.0-315.0","3PXX5PX6LYK8ZRI3OXY0YFX73JOBAR","A2UKIUS36QADNI","37SDSEDIN9ORHL92Y0GV7TIFJ2X187","","null","<img src=""img/land2.png"" style=""width:200px; border:14px solid green;"">","null","","","","","","","","","",""
"","image-keyboard-response","316","137281","0.0-316.0","3PXX5PX6LYK8ZRI3OXY0YFX73JOBAR","A2UKIUS36QADNI","37SDSEDIN9ORHL92Y0GV7TIFJ2X187","","266","img/land2.png","75","267.30000001192093","2","0","3","1","0.8,0.2,0.2,0.2,0.8,0.2,0.2,0.2,0.8","0.8,0.2,0.2,0.2,0.8,0.2,0.2,0.2,0.8","1","",""
"","html-keyboard-response","317","137584","0.0-317.0","3PXX5PX6LYK8ZRI3OXY0YFX73JOBAR","A2UKIUS36QADNI","37SDSEDIN9ORHL92Y0GV7TIFJ2X187","","null","<img src=""img/land2.png"" style=""width:200px;border:14px solid red;"">","null","","","","","","","","","",""
"","image-keyboard-response","318","137841","0.0-318.0","3PXX5PX6LYK8ZRI3OXY0YFX73JOBAR","A2UKIUS36QADNI","37SDSEDIN9ORHL92Y0GV7TIFJ2X187","","255.79999995231628","img/land6.png","74","257","1","1","1","1","0.8,0.2,0.2,0.2,0.8,0.2,0.2,0.2,0.8","0.8,0.2,0.2,0.2,0.8,0.2,0.2,0.2,0.8","1","",""
"","html-keyboard-response","319","138142","0.0-319.0","3PXX5PX6LYK8ZRI3OXY0YFX73JOBAR","A2UKIUS36QADNI","37SDSEDIN9ORHL92Y0GV7TIFJ2X187","","null","<img src=""img/land6.png"" style=""width:200px; border:14px solid green;"">","null","","","","","","","","","",""
"","image-keyboard-response","320","138621","0.0-320.0","3PXX5PX6LYK8ZRI3OXY0YFX73JOBAR","A2UKIUS36QADNI","37SDSEDIN9ORHL92Y0GV7TIFJ2X187","","478","img/land2.png","76","478.89999997615814","3","1","3","1","0.8,0.2,0.2,0.2,0.8,0.2,0.2,0.2,0.8","0.8,0.2,0.2,0.2,0.8,0.2,0.2,0.2,0.8","1","",""
"","html-keyboard-response","321","138924","0.0-321.0","3PXX5PX6LYK8ZRI3OXY0YFX73JOBAR","A2UKIUS36QADNI","37SDSEDIN9ORHL92Y0GV7TIFJ2X187","","null","<img src=""img/land2.png"" style=""width:200px; border:14px solid green;"">","null","","","","","","","","","",""
"","image-keyboard-response","322","139480","0.0-322.0","3PXX5PX6LYK8ZRI3OXY0YFX73JOBAR","A2UKIUS36QADNI","37SDSEDIN9ORHL92Y0GV7TIFJ2X187","","555.5999999642372","img/land1.png","76","556.5","3","0","2","1","0.8,0.2,0.2,0.2,0.8,0.2,0.2,0.2,0.8","0.8,0.2,0.2,0.2,0.8,0.2,0.2,0.2,0.8","1","",""
"","html-keyboard-response","323","139783","0.0-323.0","3PXX5PX6LYK8ZRI3OXY0YFX73JOBAR","A2UKIUS36QADNI","37SDSEDIN9ORHL92Y0GV7TIFJ2X187","","null","<img src=""img/land1.png"" style=""width:200px;border:14px solid red;"">","null","","","","","","","","","",""
"","image-keyboard-response","324","140066","0.0-324.0","3PXX5PX6LYK8ZRI3OXY0YFX73JOBAR","A2UKIUS36QADNI","37SDSEDIN9ORHL92Y0GV7TIFJ2X187","","281.9000000357628","img/land2.png","75","283.10000002384186","2","0","3","1","0.8,0.2,0.2,0.2,0.8,0.2,0.2,0.2,0.8","0.8,0.2,0.2,0.2,0.8,0.2,0.2,0.2,0.8","1","",""
"","html-keyboard-response","325","140369","0.0-325.0","3PXX5PX6LYK8ZRI3OXY0YFX73JOBAR","A2UKIUS36QADNI","37SDSEDIN9ORHL92Y0GV7TIFJ2X187","","null","<img src=""img/land2.png"" style=""width:200px;border:14px solid red;"">","null","","","","","","","","","",""
"","image-keyboard-response","326","140590","0.0-326.0","3PXX5PX6LYK8ZRI3OXY0YFX73JOBAR","A2UKIUS36QADNI","37SDSEDIN9ORHL92Y0GV7TIFJ2X187","","219.5","img/land6.png","74","220.5999999642372","1","1","1","1","0.8,0.2,0.2,0.2,0.8,0.2,0.2,0.2,0.8","0.8,0.2,0.2,0.2,0.8,0.2,0.2,0.2,0.8","1","",""
"","html-keyboard-response","327","140891","0.0-327.0","3PXX5PX6LYK8ZRI3OXY0YFX73JOBAR","A2UKIUS36QADNI","37SDSEDIN9ORHL92Y0GV7TIFJ2X187","","null","<img src=""img/land6.png"" style=""width:200px; border:14px solid green;"">","null","","","","","","","","","",""
"","image-keyboard-response","328","141336","0.0-328.0","3PXX5PX6LYK8ZRI3OXY0YFX73JOBAR","A2UKIUS36QADNI","37SDSEDIN9ORHL92Y0GV7TIFJ2X187","","442.69999998807907","img/land2.png","74","443.89999997615814","1","0","3","1","0.8,0.2,0.2,0.2,0.8,0.2,0.2,0.2,0.8","0.8,0.2,0.2,0.2,0.8,0.2,0.2,0.2,0.8","1","",""
"","html-keyboard-response","329","141638","0.0-329.0","3PXX5PX6LYK8ZRI3OXY0YFX73JOBAR","A2UKIUS36QADNI","37SDSEDIN9ORHL92Y0GV7TIFJ2X187","","null","<img src=""img/land2.png"" style=""width:200px;border:14px solid red;"">","null","","","","","","","","","",""
"","image-keyboard-response","330","141798","0.0-330.0","3PXX5PX6LYK8ZRI3OXY0YFX73JOBAR","A2UKIUS36QADNI","37SDSEDIN9ORHL92Y0GV7TIFJ2X187","","159.4000000357628","img/land6.png","75","160.5","2","0","1","1","0.8,0.2,0.2,0.2,0.8,0.2,0.2,0.2,0.8","0.8,0.2,0.2,0.2,0.8,0.2,0.2,0.2,0.8","1","",""
"","html-keyboard-response","331","142100","0.0-331.0","3PXX5PX6LYK8ZRI3OXY0YFX73JOBAR","A2UKIUS36QADNI","37SDSEDIN9ORHL92Y0GV7TIFJ2X187","","null","<img src=""img/land6.png"" style=""width:200px;border:14px solid red;"">","null","","","","","","","","","",""
"","image-keyboard-response","332","142466","0.0-332.0","3PXX5PX6LYK8ZRI3OXY0YFX73JOBAR","A2UKIUS36QADNI","37SDSEDIN9ORHL92Y0GV7TIFJ2X187","","364.10000002384186","img/land2.png","76","364.89999997615814","3","1","3","1","0.8,0.2,0.2,0.2,0.8,0.2,0.2,0.2,0.8","0.8,0.2,0.2,0.2,0.8,0.2,0.2,0.2,0.8","1","",""
"","html-keyboard-response","333","142768","0.0-333.0","3PXX5PX6LYK8ZRI3OXY0YFX73JOBAR","A2UKIUS36QADNI","37SDSEDIN9ORHL92Y0GV7TIFJ2X187","","null","<img src=""img/land2.png"" style=""width:200px; border:14px solid green;"">","null","","","","","","","","","",""
"","image-keyboard-response","334","143245","0.0-334.0","3PXX5PX6LYK8ZRI3OXY0YFX73JOBAR","A2UKIUS36QADNI","37SDSEDIN9ORHL92Y0GV7TIFJ2X187","","475.89999997615814","img/land6.png","75","476.89999997615814","2","1","1","1","0.8,0.2,0.2,0.2,0.8,0.2,0.2,0.2,0.8","0.8,0.2,0.2,0.2,0.8,0.2,0.2,0.2,0.8","1","",""
"","html-keyboard-response","335","143548","0.0-335.0","3PXX5PX6LYK8ZRI3OXY0YFX73JOBAR","A2UKIUS36QADNI","37SDSEDIN9ORHL92Y0GV7TIFJ2X187","","null","<img src=""img/land6.png"" style=""width:200px; border:14px solid green;"">","null","","","","","","","","","",""
"","image-keyboard-response","336","143993","0.0-336.0","3PXX5PX6LYK8ZRI3OXY0YFX73JOBAR","A2UKIUS36QADNI","37SDSEDIN9ORHL92Y0GV7TIFJ2X187","","444.30000001192093","img/land6.png","75","445.19999998807907","2","0","1","1","0.8,0.2,0.2,0.2,0.8,0.2,0.2,0.2,0.8","0.8,0.2,0.2,0.2,0.8,0.2,0.2,0.2,0.8","1","",""
"","html-keyboard-response","337","144295","0.0-337.0","3PXX5PX6LYK8ZRI3OXY0YFX73JOBAR","A2UKIUS36QADNI","37SDSEDIN9ORHL92Y0GV7TIFJ2X187","","null","<img src=""img/land6.png"" style=""width:200px;border:14px solid red;"">","null","","","","","","","","","",""
"","image-keyboard-response","338","144648","0.0-338.0","3PXX5PX6LYK8ZRI3OXY0YFX73JOBAR","A2UKIUS36QADNI","37SDSEDIN9ORHL92Y0GV7TIFJ2X187","","351.5999999642372","img/land2.png","76","352.69999998807907","3","1","3","1","0.8,0.2,0.2,0.2,0.8,0.2,0.2,0.2,0.8","0.8,0.2,0.2,0.2,0.8,0.2,0.2,0.2,0.8","1","",""
"","html-keyboard-response","339","144949","0.0-339.0","3PXX5PX6LYK8ZRI3OXY0YFX73JOBAR","A2UKIUS36QADNI","37SDSEDIN9ORHL92Y0GV7TIFJ2X187","","null","<img src=""img/land2.png"" style=""width:200px; border:14px solid green;"">","null","","","","","","","","","",""
"","image-keyboard-response","340","145299","0.0-340.0","3PXX5PX6LYK8ZRI3OXY0YFX73JOBAR","A2UKIUS36QADNI","37SDSEDIN9ORHL92Y0GV7TIFJ2X187","","349.30000001192093","img/land1.png","76","350.0999999642372","3","0","2","1","0.8,0.2,0.2,0.2,0.8,0.2,0.2,0.2,0.8","0.8,0.2,0.2,0.2,0.8,0.2,0.2,0.2,0.8","1","",""
"","html-keyboard-response","341","145602","0.0-341.0","3PXX5PX6LYK8ZRI3OXY0YFX73JOBAR","A2UKIUS36QADNI","37SDSEDIN9ORHL92Y0GV7TIFJ2X187","","null","<img src=""img/land1.png"" style=""width:200px;border:14px solid red;"">","null","","","","","","","","","",""
"","image-keyboard-response","342","145879","0.0-342.0","3PXX5PX6LYK8ZRI3OXY0YFX73JOBAR","A2UKIUS36QADNI","37SDSEDIN9ORHL92Y0GV7TIFJ2X187","","276","img/land1.png","75","277.19999998807907","2","1","2","1","0.8,0.2,0.2,0.2,0.8,0.2,0.2,0.2,0.8","0.8,0.2,0.2,0.2,0.8,0.2,0.2,0.2,0.8","1","",""
"","html-keyboard-response","343","146181","0.0-343.0","3PXX5PX6LYK8ZRI3OXY0YFX73JOBAR","A2UKIUS36QADNI","37SDSEDIN9ORHL92Y0GV7TIFJ2X187","","null","<img src=""img/land1.png"" style=""width:200px; border:14px solid green;"">","null","","","","","","","","","",""
"","image-keyboard-response","344","146674","0.0-344.0","3PXX5PX6LYK8ZRI3OXY0YFX73JOBAR","A2UKIUS36QADNI","37SDSEDIN9ORHL92Y0GV7TIFJ2X187","","492.19999998807907","img/land2.png","75","493.30000001192093","2","0","3","1","0.8,0.2,0.2,0.2,0.8,0.2,0.2,0.2,0.8","0.8,0.2,0.2,0.2,0.8,0.2,0.2,0.2,0.8","1","",""
"","html-keyboard-response","345","146977","0.0-345.0","3PXX5PX6LYK8ZRI3OXY0YFX73JOBAR","A2UKIUS36QADNI","37SDSEDIN9ORHL92Y0GV7TIFJ2X187","","null","<img src=""img/land2.png"" style=""width:200px;border:14px solid red;"">","null","","","","","","","","","",""
"","image-keyboard-response","346","147212","0.0-346.0","3PXX5PX6LYK8ZRI3OXY0YFX73JOBAR","A2UKIUS36QADNI","37SDSEDIN9ORHL92Y0GV7TIFJ2X187","","234.0999999642372","img/land1.png","76","235.10000002384186","3","0","2","1","0.8,0.2,0.2,0.2,0.8,0.2,0.2,0.2,0.8","0.8,0.2,0.2,0.2,0.8,0.2,0.2,0.2,0.8","1","",""
"","html-keyboard-response","347","147514","0.0-347.0","3PXX5PX6LYK8ZRI3OXY0YFX73JOBAR","A2UKIUS36QADNI","37SDSEDIN9ORHL92Y0GV7TIFJ2X187","","null","<img src=""img/land1.png"" style=""width:200px;border:14px solid red;"">","null","","","","","","","","","",""
"","image-keyboard-response","348","147813","0.0-348.0","3PXX5PX6LYK8ZRI3OXY0YFX73JOBAR","A2UKIUS36QADNI","37SDSEDIN9ORHL92Y0GV7TIFJ2X187","","297.5999999642372","img/land1.png","74","298.39999997615814","1","0","2","1","0.8,0.2,0.2,0.2,0.8,0.2,0.2,0.2,0.8","0.8,0.2,0.2,0.2,0.8,0.2,0.2,0.2,0.8","1","",""
"","html-keyboard-response","349","148114","0.0-349.0","3PXX5PX6LYK8ZRI3OXY0YFX73JOBAR","A2UKIUS36QADNI","37SDSEDIN9ORHL92Y0GV7TIFJ2X187","","null","<img src=""img/land1.png"" style=""width:200px;border:14px solid red;"">","null","","","","","","","","","",""
"","image-keyboard-response","350","148774","0.0-350.0","3PXX5PX6LYK8ZRI3OXY0YFX73JOBAR","A2UKIUS36QADNI","37SDSEDIN9ORHL92Y0GV7TIFJ2X187","","659.5","img/land1.png","74","660.1999999880791","1","0","2","1","0.8,0.2,0.2,0.2,0.8,0.2,0.2,0.2,0.8","0.8,0.2,0.2,0.2,0.8,0.2,0.2,0.2,0.8","1","",""
"","html-keyboard-response","351","149078","0.0-351.0","3PXX5PX6LYK8ZRI3OXY0YFX73JOBAR","A2UKIUS36QADNI","37SDSEDIN9ORHL92Y0GV7TIFJ2X187","","null","<img src=""img/land1.png"" style=""width:200px;border:14px solid red;"">","null","","","","","","","","","",""
"","image-keyboard-response","352","149527","0.0-352.0","3PXX5PX6LYK8ZRI3OXY0YFX73JOBAR","A2UKIUS36QADNI","37SDSEDIN9ORHL92Y0GV7TIFJ2X187","","448.10000002384186","img/land1.png","76","449.30000001192093","3","0","2","1","0.8,0.2,0.2,0.2,0.8,0.2,0.2,0.2,0.8","0.8,0.2,0.2,0.2,0.8,0.2,0.2,0.2,0.8","1","",""
"","html-keyboard-response","353","149830","0.0-353.0","3PXX5PX6LYK8ZRI3OXY0YFX73JOBAR","A2UKIUS36QADNI","37SDSEDIN9ORHL92Y0GV7TIFJ2X187","","null","<img src=""img/land1.png"" style=""width:200px;border:14px solid red;"">","null","","","","","","","","","",""
"","image-keyboard-response","354","149947","0.0-354.0","3PXX5PX6LYK8ZRI3OXY0YFX73JOBAR","A2UKIUS36QADNI","37SDSEDIN9ORHL92Y0GV7TIFJ2X187","","115.19999998807907","img/land1.png","75","116.30000001192093","2","1","2","1","0.8,0.2,0.2,0.2,0.8,0.2,0.2,0.2,0.8","0.8,0.2,0.2,0.2,0.8,0.2,0.2,0.2,0.8","1","",""
