"success","trial_type","trial_index","time_elapsed","internal_node_id","assignmentID","mturkID","hitID","view_history","rt","stimulus","key_press","reactionTime","a","r","s","cond","reward_cond","reward_cond_actual","reward_matrix_idx","responses","question_order"
"true","fullscreen","0","9318","0.0-0.0","","","","","","","","","","","","","","","","",""
"","instructions","1","32175","0.0-1.0","","","","[{""page_index"":0,""viewing_time"":3226.2000000001863},{""page_index"":1,""viewing_time"":3033.2999999998137},{""page_index"":2,""viewing_time"":1664.7000000001863},{""page_index"":3,""viewing_time"":6954},{""page_index"":4,""viewing_time"":3419.5},{""page_index"":5,""viewing_time"":2439.2000000001863},{""page_index"":6,""viewing_time"":2116.399999999441}]","22853.900000000373","","","","","","","","","","","",""
"","image-keyboard-response","2","34184","0.0-2.0","","","","","","img/land1.png","","2009.0999999996275","-1","0","1","1","1,0,0,0.25,0.5,0.25,0.25,0.25,0.5","0,1,0,0.5,0.25,0.25,0.25,0.25,0.5","3","",""
"","html-keyboard-response","3","34495","0.0-3.0","","","","","null","<img src=""img/land1.png"" style=""width:200px;border:14px solid red;"">","null","","","","","","","","","",""
"","image-keyboard-response","4","36213","0.0-4.0","","","","","1714.800000000745","img/land1.png","74","1717.2999999998137","1","0","1","1","1,0,0,0.25,0.5,0.25,0.25,0.25,0.5","0,1,0,0.5,0.25,0.25,0.25,0.25,0.5","3","",""
"","html-keyboard-response","5","36519","0.0-5.0","","","","","null","<img src=""img/land1.png"" style=""width:200px;border:14px solid red;"">","null","","","","","","","","","",""
"","image-keyboard-response","6","37362","0.0-6.0","","","","","841.7999999998137","img/land1.png","74","843","1","0","1","1","1,0,0,0.25,0.5,0.25,0.25,0.25,0.5","0,1,0,0.5,0.25,0.25,0.25,0.25,0.5","3","",""
"","html-keyboard-response","7","37671","0.0-7.0","","","","","null","<img src=""img/land1.png"" style=""width:200px;border:14px solid red;"">","null","","","","","","","","","",""
"","image-keyboard-response","8","38443","0.0-8.0","","","","","770.7000000001863","img/land1.png","75","772","2","1","1","1","1,0,0,0.25,0.5,0.25,0.25,0.25,0.5","0,1,0,0.5,0.25,0.25,0.25,0.25,0.5","3","",""
"","html-keyboard-response","9","38747","0.0-9.0","","","","","null","<img src=""img/land1.png"" style=""width:200px; border:14px solid green;"">","null","","","","","","","","","",""
"","image-keyboard-response","10","39670","0.0-10.0","","","","","920.7000000001863","img/land3.png","75","922.2999999998137","2","1","3","1","1,0,0,0.25,0.5,0.25,0.25,0.25,0.5","0,1,0,0.5,0.25,0.25,0.25,0.25,0.5","3","",""
"","html-keyboard-response","11","39978","0.0-11.0","","","","","null","<img src=""img/land3.png"" style=""width:200px; border:14px solid green;"">","null","","","","","","","","","",""
"","image-keyboard-response","12","40855","0.0-12.0","","","","","873.2999999998137","img/land1.png","75","875.7999999998137","2","1","1","1","1,0,0,0.25,0.5,0.25,0.25,0.25,0.5","0,1,0,0.5,0.25,0.25,0.25,0.25,0.5","3","",""
"","html-keyboard-response","13","41163","0.0-13.0","","","","","null","<img src=""img/land1.png"" style=""width:200px; border:14px solid green;"">","null","","","","","","","","","",""
"","image-keyboard-response","14","42020","0.0-14.0","","","","","855","img/land1.png","75","856.7999999998137","2","1","1","1","1,0,0,0.25,0.5,0.25,0.25,0.25,0.5","0,1,0,0.5,0.25,0.25,0.25,0.25,0.5","3","",""
"","html-keyboard-response","15","42323","0.0-15.0","","","","","null","<img src=""img/land1.png"" style=""width:200px; border:14px solid green;"">","null","","","","","","","","","",""
"","image-keyboard-response","16","43306","0.0-16.0","","","","","980.5999999996275","img/land2.png","75","982.5999999996275","2","0","2","1","1,0,0,0.25,0.5,0.25,0.25,0.25,0.5","0,1,0,0.5,0.25,0.25,0.25,0.25,0.5","3","",""
"","html-keyboard-response","17","43610","0.0-17.0","","","","","null","<img src=""img/land2.png"" style=""width:200px;border:14px solid red;"">","null","","","","","","","","","",""
"","image-keyboard-response","18","44512","0.0-18.0","","","","","899.4000000003725","img/land3.png","76","902.2000000001863","3","0","3","1","1,0,0,0.25,0.5,0.25,0.25,0.25,0.5","0,1,0,0.5,0.25,0.25,0.25,0.25,0.5","3","",""
"","html-keyboard-response","19","44819","0.0-19.0","","","","","null","<img src=""img/land3.png"" style=""width:200px;border:14px solid red;"">","null","","","","","","","","","",""
"","image-keyboard-response","20","45399","0.0-20.0","","","","","576.7000000001863","img/land3.png","76","578.7999999998137","3","1","3","1","1,0,0,0.25,0.5,0.25,0.25,0.25,0.5","0,1,0,0.5,0.25,0.25,0.25,0.25,0.5","3","",""
"","html-keyboard-response","21","45705","0.0-21.0","","","","","null","<img src=""img/land3.png"" style=""width:200px; border:14px solid green;"">","null","","","","","","","","","",""
"","image-keyboard-response","22","46582","0.0-22.0","","","","","875.5999999996275","img/land3.png","76","877.2999999998137","3","1","3","1","1,0,0,0.25,0.5,0.25,0.25,0.25,0.5","0,1,0,0.5,0.25,0.25,0.25,0.25,0.5","3","",""
"","html-keyboard-response","23","46895","0.0-23.0","","","","","null","<img src=""img/land3.png"" style=""width:200px; border:14px solid green;"">","null","","","","","","","","","",""
"","image-keyboard-response","24","47585","0.0-24.0","","","","","689.5999999996275","img/land1.png","76","690.7000000001863","3","0","1","1","1,0,0,0.25,0.5,0.25,0.25,0.25,0.5","0,1,0,0.5,0.25,0.25,0.25,0.25,0.5","3","",""
"","html-keyboard-response","25","47889","0.0-25.0","","","","","null","<img src=""img/land1.png"" style=""width:200px;border:14px solid red;"">","null","","","","","","","","","",""
"","image-keyboard-response","26","48862","0.0-26.0","","","","","969.9000000003725","img/land1.png","74","972.2999999998137","1","0","1","1","1,0,0,0.25,0.5,0.25,0.25,0.25,0.5","0,1,0,0.5,0.25,0.25,0.25,0.25,0.5","3","",""
"","html-keyboard-response","27","49167","0.0-27.0","","","","","null","<img src=""img/land1.png"" style=""width:200px;border:14px solid red;"">","null","","","","","","","","","",""
"","image-keyboard-response","28","49773","0.0-28.0","","","","","603.1000000005588","img/land1.png","75","605.5","2","1","1","1","1,0,0,0.25,0.5,0.25,0.25,0.25,0.5","0,1,0,0.5,0.25,0.25,0.25,0.25,0.5","3","",""
"","html-keyboard-response","29","50080","0.0-29.0","","","","","null","<img src=""img/land1.png"" style=""width:200px; border:14px solid green;"">","null","","","","","","","","","",""
"","image-keyboard-response","30","50975","0.0-30.0","","","","","891.5","img/land2.png","75","893.8999999994412","2","1","2","1","1,0,0,0.25,0.5,0.25,0.25,0.25,0.5","0,1,0,0.5,0.25,0.25,0.25,0.25,0.5","3","",""
"","html-keyboard-response","31","51278","0.0-31.0","","","","","null","<img src=""img/land2.png"" style=""width:200px; border:14px solid green;"">","null","","","","","","","","","",""
"","image-keyboard-response","32","52162","0.0-32.0","","","","","882.1000000005588","img/land1.png","75","883.7999999998137","2","1","1","1","1,0,0,0.25,0.5,0.25,0.25,0.25,0.5","0,1,0,0.5,0.25,0.25,0.25,0.25,0.5","3","",""
"","html-keyboard-response","33","52477","0.0-33.0","","","","","null","<img src=""img/land1.png"" style=""width:200px; border:14px solid green;"">","null","","","","","","","","","",""
"","image-keyboard-response","34","53297","0.0-34.0","","","","","817.7000000001863","img/land1.png","76","819.6000000005588","3","0","1","1","1,0,0,0.25,0.5,0.25,0.25,0.25,0.5","0,1,0,0.5,0.25,0.25,0.25,0.25,0.5","3","",""
"","html-keyboard-response","35","53608","0.0-35.0","","","","","null","<img src=""img/land1.png"" style=""width:200px;border:14px solid red;"">","null","","","","","","","","","",""
"","image-keyboard-response","36","54303","0.0-36.0","","","","","692.7000000001863","img/land3.png","76","694.5999999996275","3","1","3","1","1,0,0,0.25,0.5,0.25,0.25,0.25,0.5","0,1,0,0.5,0.25,0.25,0.25,0.25,0.5","3","",""
"","html-keyboard-response","37","54609","0.0-37.0","","","","","null","<img src=""img/land3.png"" style=""width:200px; border:14px solid green;"">","null","","","","","","","","","",""
"","image-keyboard-response","38","55442","0.0-38.0","","","","","830.6999999992549","img/land3.png","76","832.5999999996275","3","0","3","1","1,0,0,0.25,0.5,0.25,0.25,0.25,0.5","0,1,0,0.5,0.25,0.25,0.25,0.25,0.5","3","",""
"","html-keyboard-response","39","55750","0.0-39.0","","","","","null","<img src=""img/land3.png"" style=""width:200px;border:14px solid red;"">","null","","","","","","","","","",""
"","image-keyboard-response","40","56753","0.0-40.0","","","","","1000.2000000001863","img/land2.png","75","1002","2","0","2","1","1,0,0,0.25,0.5,0.25,0.25,0.25,0.5","0,1,0,0.5,0.25,0.25,0.25,0.25,0.5","3","",""
"","html-keyboard-response","41","57060","0.0-41.0","","","","","null","<img src=""img/land2.png"" style=""width:200px;border:14px solid red;"">","null","","","","","","","","","",""
"","image-keyboard-response","42","58131","0.0-42.0","","","","","1069.0999999996275","img/land1.png","74","1071.3999999994412","1","0","1","1","1,0,0,0.25,0.5,0.25,0.25,0.25,0.5","0,1,0,0.5,0.25,0.25,0.25,0.25,0.5","3","",""
"","html-keyboard-response","43","58438","0.0-43.0","","","","","null","<img src=""img/land1.png"" style=""width:200px;border:14px solid red;"">","null","","","","","","","","","",""
"","image-keyboard-response","44","58939","0.0-44.0","","","","","498","img/land1.png","74","500.29999999981374","1","0","1","1","1,0,0,0.25,0.5,0.25,0.25,0.25,0.5","0,1,0,0.5,0.25,0.25,0.25,0.25,0.5","3","",""
"","html-keyboard-response","45","59248","0.0-45.0","","","","","null","<img src=""img/land1.png"" style=""width:200px;border:14px solid red;"">","null","","","","","","","","","",""
"","image-keyboard-response","46","60039","0.0-46.0","","","","","788.2999999998137","img/land3.png","75","790.6000000005588","2","0","3","1","1,0,0,0.25,0.5,0.25,0.25,0.25,0.5","0,1,0,0.5,0.25,0.25,0.25,0.25,0.5","3","",""
"","html-keyboard-response","47","60344","0.0-47.0","","","","","null","<img src=""img/land3.png"" style=""width:200px;border:14px solid red;"">","null","","","","","","","","","",""
"","image-keyboard-response","48","60813","0.0-48.0","","","","","466.79999999981374","img/land1.png","75","468.90000000037253","2","1","1","1","1,0,0,0.25,0.5,0.25,0.25,0.25,0.5","0,1,0,0.5,0.25,0.25,0.25,0.25,0.5","3","",""
"","html-keyboard-response","49","61118","0.0-49.0","","","","","null","<img src=""img/land1.png"" style=""width:200px; border:14px solid green;"">","null","","","","","","","","","",""
"","image-keyboard-response","50","61716","0.0-50.0","","","","","595.5999999996275","img/land1.png","75","597.7000000001863","2","1","1","1","1,0,0,0.25,0.5,0.25,0.25,0.25,0.5","0,1,0,0.5,0.25,0.25,0.25,0.25,0.5","3","",""
"","html-keyboard-response","51","62025","0.0-51.0","","","","","null","<img src=""img/land1.png"" style=""width:200px; border:14px solid green;"">","null","","","","","","","","","",""
"","image-keyboard-response","52","63040","0.0-52.0","","","","","1012.1000000005588","img/land3.png","76","1014.3999999994412","3","0","3","1","1,0,0,0.25,0.5,0.25,0.25,0.25,0.5","0,1,0,0.5,0.25,0.25,0.25,0.25,0.5","3","",""
"","html-keyboard-response","53","63345","0.0-53.0","","","","","null","<img src=""img/land3.png"" style=""width:200px;border:14px solid red;"">","null","","","","","","","","","",""
"","image-keyboard-response","54","64257","0.0-54.0","","","","","909","img/land1.png","75","911","2","1","1","1","1,0,0,0.25,0.5,0.25,0.25,0.25,0.5","0,1,0,0.5,0.25,0.25,0.25,0.25,0.5","3","",""
"","html-keyboard-response","55","64559","0.0-55.0","","","","","null","<img src=""img/land1.png"" style=""width:200px; border:14px solid green;"">","null","","","","","","","","","",""
"","image-keyboard-response","56","65335","0.0-56.0","","","","","773.8000000007451","img/land1.png","75","776.1000000005588","2","1","1","1","1,0,0,0.25,0.5,0.25,0.25,0.25,0.5","0,1,0,0.5,0.25,0.25,0.25,0.25,0.5","3","",""
"","html-keyboard-response","57","65643","0.0-57.0","","","","","null","<img src=""img/land1.png"" style=""width:200px; border:14px solid green;"">","null","","","","","","","","","",""
"","image-keyboard-response","58","66335","0.0-58.0","","","","","689.2999999998137","img/land1.png","75","691.7000000001863","2","1","1","1","1,0,0,0.25,0.5,0.25,0.25,0.25,0.5","0,1,0,0.5,0.25,0.25,0.25,0.25,0.5","3","",""
"","html-keyboard-response","59","66645","0.0-59.0","","","","","null","<img src=""img/land1.png"" style=""width:200px; border:14px solid green;"">","null","","","","","","","","","",""
"","image-keyboard-response","60","67289","0.0-60.0","","","","","640.3999999994412","img/land1.png","75","642.7999999998137","2","1","1","1","1,0,0,0.25,0.5,0.25,0.25,0.25,0.5","0,1,0,0.5,0.25,0.25,0.25,0.25,0.5","3","",""
"","html-keyboard-response","61","67603","0.0-61.0","","","","","null","<img src=""img/land1.png"" style=""width:200px; border:14px solid green;"">","null","","","","","","","","","",""
"","image-keyboard-response","62","68435","0.0-62.0","","","","","829.5","img/land1.png","75","831.2999999998137","2","1","1","1","1,0,0,0.25,0.5,0.25,0.25,0.25,0.5","0,1,0,0.5,0.25,0.25,0.25,0.25,0.5","3","",""
"","html-keyboard-response","63","68741","0.0-63.0","","","","","null","<img src=""img/land1.png"" style=""width:200px; border:14px solid green;"">","null","","","","","","","","","",""
"","image-keyboard-response","64","70753","0.0-64.0","","","","","","img/land1.png","","2010.5999999996275","-1","0","1","1","1,0,0,0.25,0.5,0.25,0.25,0.25,0.5","0,1,0,0.5,0.25,0.25,0.25,0.25,0.5","3","",""
"","html-keyboard-response","65","71056","0.0-65.0","","","","","null","<img src=""img/land1.png"" style=""width:200px;border:14px solid red;"">","null","","","","","","","","","",""
"","image-keyboard-response","66","72166","0.0-66.0","","","","","1106.5999999996275","img/land2.png","76","1109.1000000005588","3","0","2","1","1,0,0,0.25,0.5,0.25,0.25,0.25,0.5","0,1,0,0.5,0.25,0.25,0.25,0.25,0.5","3","",""
"","html-keyboard-response","67","72474","0.0-67.0","","","","","null","<img src=""img/land2.png"" style=""width:200px;border:14px solid red;"">","null","","","","","","","","","",""
"","image-keyboard-response","68","74110","0.0-68.0","","","","","1633.4000000003725","img/land3.png","74","1635.7000000001863","1","0","3","1","1,0,0,0.25,0.5,0.25,0.25,0.25,0.5","0,1,0,0.5,0.25,0.25,0.25,0.25,0.5","3","",""
"","html-keyboard-response","69","74418","0.0-69.0","","","","","null","<img src=""img/land3.png"" style=""width:200px;border:14px solid red;"">","null","","","","","","","","","",""
"","image-keyboard-response","70","75628","0.0-70.0","","","","","1207.699999999255","img/land2.png","76","1209.7999999998137","3","1","2","1","1,0,0,0.25,0.5,0.25,0.25,0.25,0.5","0,1,0,0.5,0.25,0.25,0.25,0.25,0.5","3","",""
"","html-keyboard-response","71","75931","0.0-71.0","","","","","null","<img src=""img/land2.png"" style=""width:200px; border:14px solid green;"">","null","","","","","","","","","",""
"","image-keyboard-response","72","77272","0.0-72.0","","","","","1339.2999999998137","img/land1.png","76","1341.2999999998137","3","0","1","1","1,0,0,0.25,0.5,0.25,0.25,0.25,0.5","0,1,0,0.5,0.25,0.25,0.25,0.25,0.5","3","",""
"","html-keyboard-response","73","77580","0.0-73.0","","","","","null","<img src=""img/land1.png"" style=""width:200px;border:14px solid red;"">","null","","","","","","","","","",""
"","image-keyboard-response","74","78410","0.0-74.0","","","","","826.7000000001863","img/land1.png","75","828.5","2","1","1","1","1,0,0,0.25,0.5,0.25,0.25,0.25,0.5","0,1,0,0.5,0.25,0.25,0.25,0.25,0.5","3","",""
"","html-keyboard-response","75","78714","0.0-75.0","","","","","null","<img src=""img/land1.png"" style=""width:200px; border:14px solid green;"">","null","","","","","","","","","",""
"","image-keyboard-response","76","80113","0.0-76.0","","","","","1395.7000000001863","img/land2.png","75","1398","2","0","2","1","1,0,0,0.25,0.5,0.25,0.25,0.25,0.5","0,1,0,0.5,0.25,0.25,0.25,0.25,0.5","3","",""
"","html-keyboard-response","77","80416","0.0-77.0","","","","","null","<img src=""img/land2.png"" style=""width:200px;border:14px solid red;"">","null","","","","","","","","","",""
"","image-keyboard-response","78","81836","0.0-78.0","","","","","1417","img/land1.png","75","1419.3999999994412","2","1","1","1","1,0,0,0.25,0.5,0.25,0.25,0.25,0.5","0,1,0,0.5,0.25,0.25,0.25,0.25,0.5","3","",""
"","html-keyboard-response","79","82144","0.0-79.0","","","","","null","<img src=""img/land1.png"" style=""width:200px; border:14px solid green;"">","null","","","","","","","","","",""
"","image-keyboard-response","80","83663","0.0-80.0","","","","","1516.5","img/land1.png","76","1518.7999999998137","3","0","1","1","1,0,0,0.25,0.5,0.25,0.25,0.25,0.5","0,1,0,0.5,0.25,0.25,0.25,0.25,0.5","3","",""
"","html-keyboard-response","81","83974","0.0-81.0","","","","","null","<img src=""img/land1.png"" style=""width:200px;border:14px solid red;"">","null","","","","","","","","","",""
"","image-keyboard-response","82","84771","0.0-82.0","","","","","794.6999999992549","img/land1.png","76","796.7000000001863","3","0","1","1","1,0,0,0.25,0.5,0.25,0.25,0.25,0.5","0,1,0,0.5,0.25,0.25,0.25,0.25,0.5","3","",""
"","html-keyboard-response","83","85074","0.0-83.0","","","","","null","<img src=""img/land1.png"" style=""width:200px;border:14px solid red;"">","null","","","","","","","","","",""
"","image-keyboard-response","84","85920","0.0-84.0","","","","","843.0999999996275","img/land1.png","75","844.8999999994412","2","1","1","1","1,0,0,0.25,0.5,0.25,0.25,0.25,0.5","0,1,0,0.5,0.25,0.25,0.25,0.25,0.5","3","",""
"","html-keyboard-response","85","86227","0.0-85.0","","","","","null","<img src=""img/land1.png"" style=""width:200px; border:14px solid green;"">","null","","","","","","","","","",""
"","image-keyboard-response","86","87110","0.0-86.0","","","","","880","img/land2.png","75","882.2000000001863","2","0","2","1","1,0,0,0.25,0.5,0.25,0.25,0.25,0.5","0,1,0,0.5,0.25,0.25,0.25,0.25,0.5","3","",""
"","html-keyboard-response","87","87414","0.0-87.0","","","","","null","<img src=""img/land2.png"" style=""width:200px;border:14px solid red;"">","null","","","","","","","","","",""
"","image-keyboard-response","88","88120","0.0-88.0","","","","","703.5999999996275","img/land1.png","75","705.2999999998137","2","1","1","1","1,0,0,0.25,0.5,0.25,0.25,0.25,0.5","0,1,0,0.5,0.25,0.25,0.25,0.25,0.5","3","",""
"","html-keyboard-response","89","88426","0.0-89.0","","","","","null","<img src=""img/land1.png"" style=""width:200px; border:14px solid green;"">","null","","","","","","","","","",""
"","image-keyboard-response","90","89552","0.0-90.0","","","","","1123.6000000005588","img/land1.png","75","1125.3999999994412","2","1","1","1","1,0,0,0.25,0.5,0.25,0.25,0.25,0.5","0,1,0,0.5,0.25,0.25,0.25,0.25,0.5","3","",""
"","html-keyboard-response","91","89861","0.0-91.0","","","","","null","<img src=""img/land1.png"" style=""width:200px; border:14px solid green;"">","null","","","","","","","","","",""
"","image-keyboard-response","92","90927","0.0-92.0","","","","","1063.5","img/land1.png","75","1065.5","2","1","1","1","1,0,0,0.25,0.5,0.25,0.25,0.25,0.5","0,1,0,0.5,0.25,0.25,0.25,0.25,0.5","3","",""
"","html-keyboard-response","93","91231","0.0-93.0","","","","","null","<img src=""img/land1.png"" style=""width:200px; border:14px solid green;"">","null","","","","","","","","","",""
"","image-keyboard-response","94","92041","0.0-94.0","","","","","808","img/land1.png","75","810.4000000003725","2","1","1","1","1,0,0,0.25,0.5,0.25,0.25,0.25,0.5","0,1,0,0.5,0.25,0.25,0.25,0.25,0.5","3","",""
"","html-keyboard-response","95","92348","0.0-95.0","","","","","null","<img src=""img/land1.png"" style=""width:200px; border:14px solid green;"">","null","","","","","","","","","",""
"","image-keyboard-response","96","93624","0.0-96.0","","","","","1273.8999999994412","img/land2.png","76","1275.7999999998137","3","0","2","1","1,0,0,0.25,0.5,0.25,0.25,0.25,0.5","0,1,0,0.5,0.25,0.25,0.25,0.25,0.5","3","",""
"","html-keyboard-response","97","93927","0.0-97.0","","","","","null","<img src=""img/land2.png"" style=""width:200px;border:14px solid red;"">","null","","","","","","","","","",""
"","image-keyboard-response","98","94581","0.0-98.0","","","","","651.5","img/land1.png","76","653.7000000001863","3","0","1","1","1,0,0,0.25,0.5,0.25,0.25,0.25,0.5","0,1,0,0.5,0.25,0.25,0.25,0.25,0.5","3","",""
"","html-keyboard-response","99","94887","0.0-99.0","","","","","null","<img src=""img/land1.png"" style=""width:200px;border:14px solid red;"">","null","","","","","","","","","",""
"","image-keyboard-response","100","95878","0.0-100.0","","","","","989.2000000001863","img/land1.png","75","990.8000000007451","2","1","1","1","1,0,0,0.25,0.5,0.25,0.25,0.25,0.5","0,1,0,0.5,0.25,0.25,0.25,0.25,0.5","3","",""
"","html-keyboard-response","101","96184","0.0-101.0","","","","","null","<img src=""img/land1.png"" style=""width:200px; border:14px solid green;"">","null","","","","","","","","","",""
"","image-keyboard-response","102","97131","0.0-102.0","","","","","943.5","img/land1.png","75","946.2000000001863","2","1","1","1","1,0,0,0.25,0.5,0.25,0.25,0.25,0.5","0,1,0,0.5,0.25,0.25,0.25,0.25,0.5","3","",""
"","html-keyboard-response","103","97434","0.0-103.0","","","","","null","<img src=""img/land1.png"" style=""width:200px; border:14px solid green;"">","null","","","","","","","","","",""
"","image-keyboard-response","104","98364","0.0-104.0","","","","","928.4000000003725","img/land2.png","75","930","2","0","2","1","1,0,0,0.25,0.5,0.25,0.25,0.25,0.5","0,1,0,0.5,0.25,0.25,0.25,0.25,0.5","3","",""
"","html-keyboard-response","105","98675","0.0-105.0","","","","","null","<img src=""img/land2.png"" style=""width:200px;border:14px solid red;"">","null","","","","","","","","","",""
"","image-keyboard-response","106","99496","0.0-106.0","","","","","818.7000000001863","img/land1.png","75","820.5999999996275","2","1","1","1","1,0,0,0.25,0.5,0.25,0.25,0.25,0.5","0,1,0,0.5,0.25,0.25,0.25,0.25,0.5","3","",""
"","html-keyboard-response","107","99803","0.0-107.0","","","","","null","<img src=""img/land1.png"" style=""width:200px; border:14px solid green;"">","null","","","","","","","","","",""
"","image-keyboard-response","108","101806","0.0-108.0","","","","","","img/land2.png","","2002.0999999996275","-1","0","2","1","1,0,0,0.25,0.5,0.25,0.25,0.25,0.5","0,1,0,0.5,0.25,0.25,0.25,0.25,0.5","3","",""
"","html-keyboard-response","109","102109","0.0-109.0","","","","","null","<img src=""img/land2.png"" style=""width:200px;border:14px solid red;"">","null","","","","","","","","","",""
"","image-keyboard-response","110","102430","0.0-110.0","","","","","317.6000000005588","img/land1.png","75","320.09999999962747","2","1","1","1","1,0,0,0.25,0.5,0.25,0.25,0.25,0.5","0,1,0,0.5,0.25,0.25,0.25,0.25,0.5","3","",""
"","html-keyboard-response","111","102735","0.0-111.0","","","","","null","<img src=""img/land1.png"" style=""width:200px; border:14px solid green;"">","null","","","","","","","","","",""
"","image-keyboard-response","112","103586","0.0-112.0","","","","","849.2999999998137","img/land3.png","75","851.2000000001863","2","0","3","1","1,0,0,0.25,0.5,0.25,0.25,0.25,0.5","0,1,0,0.5,0.25,0.25,0.25,0.25,0.5","3","",""
"","html-keyboard-response","113","103892","0.0-113.0","","","","","null","<img src=""img/land3.png"" style=""width:200px;border:14px solid red;"">","null","","","","","","","","","",""
"","image-keyboard-response","114","104568","0.0-114.0","","","","","673.2999999998137","img/land1.png","75","675.2999999998137","2","1","1","1","1,0,0,0.25,0.5,0.25,0.25,0.25,0.5","0,1,0,0.5,0.25,0.25,0.25,0.25,0.5","3","",""
"","html-keyboard-response","115","104870","0.0-115.0","","","","","null","<img src=""img/land1.png"" style=""width:200px; border:14px solid green;"">","null","","","","","","","","","",""
"","image-keyboard-response","116","105690","0.0-116.0","","","","","816.5999999996275","img/land1.png","74","820.0999999996275","1","0","1","1","1,0,0,0.25,0.5,0.25,0.25,0.25,0.5","0,1,0,0.5,0.25,0.25,0.25,0.25,0.5","3","",""
"","html-keyboard-response","117","105997","0.0-117.0","","","","","null","<img src=""img/land1.png"" style=""width:200px;border:14px solid red;"">","null","","","","","","","","","",""
"","image-keyboard-response","118","106556","0.0-118.0","","","","","557.5999999996275","img/land1.png","74","559.3999999994412","1","0","1","1","1,0,0,0.25,0.5,0.25,0.25,0.25,0.5","0,1,0,0.5,0.25,0.25,0.25,0.25,0.5","3","",""
"","html-keyboard-response","119","106865","0.0-119.0","","","","","null","<img src=""img/land1.png"" style=""width:200px;border:14px solid red;"">","null","","","","","","","","","",""
"","image-keyboard-response","120","107783","0.0-120.0","","","","","915.5","img/land1.png","75","917.2999999998137","2","1","1","1","1,0,0,0.25,0.5,0.25,0.25,0.25,0.5","0,1,0,0.5,0.25,0.25,0.25,0.25,0.5","3","",""
"","html-keyboard-response","121","108089","0.0-121.0","","","","","null","<img src=""img/land1.png"" style=""width:200px; border:14px solid green;"">","null","","","","","","","","","",""
"","image-keyboard-response","122","108897","0.0-122.0","","","","","806.5","img/land1.png","75","807.7999999998137","2","1","1","1","1,0,0,0.25,0.5,0.25,0.25,0.25,0.5","0,1,0,0.5,0.25,0.25,0.25,0.25,0.5","3","",""
"","html-keyboard-response","123","109204","0.0-123.0","","","","","null","<img src=""img/land1.png"" style=""width:200px; border:14px solid green;"">","null","","","","","","","","","",""
"","image-keyboard-response","124","110741","0.0-124.0","","","","","1533.1000000005588","img/land1.png","75","1536.5","2","1","1","1","1,0,0,0.25,0.5,0.25,0.25,0.25,0.5","0,1,0,0.5,0.25,0.25,0.25,0.25,0.5","3","",""
"","html-keyboard-response","125","111050","0.0-125.0","","","","","null","<img src=""img/land1.png"" style=""width:200px; border:14px solid green;"">","null","","","","","","","","","",""
"","image-keyboard-response","126","112954","0.0-126.0","","","","","1908.300000000745","img/land1.png","76","1910","3","0","1","1","1,0,0,0.25,0.5,0.25,0.25,0.25,0.5","0,1,0,0.5,0.25,0.25,0.25,0.25,0.5","3","",""
"","html-keyboard-response","127","113256","0.0-127.0","","","","","null","<img src=""img/land1.png"" style=""width:200px;border:14px solid red;"">","null","","","","","","","","","",""
"","image-keyboard-response","128","114605","0.0-128.0","","","","","1347.1000000005588","img/land3.png","76","1348.9000000003725","3","1","3","1","1,0,0,0.25,0.5,0.25,0.25,0.25,0.5","0,1,0,0.5,0.25,0.25,0.25,0.25,0.5","3","",""
"","html-keyboard-response","129","114914","0.0-129.0","","","","","null","<img src=""img/land3.png"" style=""width:200px; border:14px solid green;"">","null","","","","","","","","","",""
"","image-keyboard-response","130","116917","0.0-130.0","","","","","2002.199999999255","img/land1.png","75","2003.2999999998137","2","1","1","1","1,0,0,0.25,0.5,0.25,0.25,0.25,0.5","0,1,0,0.5,0.25,0.25,0.25,0.25,0.5","3","",""
"","html-keyboard-response","131","117225","0.0-131.0","","","","","null","<img src=""img/land1.png"" style=""width:200px; border:14px solid green;"">","null","","","","","","","","","",""
"","image-keyboard-response","132","119231","0.0-132.0","","","","","","img/land1.png","","2005.5999999996275","-1","0","1","1","1,0,0,0.25,0.5,0.25,0.25,0.25,0.5","0,1,0,0.5,0.25,0.25,0.25,0.25,0.5","3","",""
"","html-keyboard-response","133","119551","0.0-133.0","","","","","null","<img src=""img/land1.png"" style=""width:200px;border:14px solid red;"">","null","","","","","","","","","",""
"","image-keyboard-response","134","120159","0.0-134.0","","","","","606.5","img/land1.png","75","608.0999999996275","2","1","1","1","1,0,0,0.25,0.5,0.25,0.25,0.25,0.5","0,1,0,0.5,0.25,0.25,0.25,0.25,0.5","3","",""
"","html-keyboard-response","135","120465","0.0-135.0","","","","","null","<img src=""img/land1.png"" style=""width:200px; border:14px solid green;"">","null","","","","","","","","","",""
"","image-keyboard-response","136","122432","0.0-136.0","","","","","1963.5999999996275","img/land1.png","75","1966.199999999255","2","1","1","1","1,0,0,0.25,0.5,0.25,0.25,0.25,0.5","0,1,0,0.5,0.25,0.25,0.25,0.25,0.5","3","",""
"","html-keyboard-response","137","122739","0.0-137.0","","","","","null","<img src=""img/land1.png"" style=""width:200px; border:14px solid green;"">","null","","","","","","","","","",""
"","image-keyboard-response","138","124695","0.0-138.0","","","","","1953.5","img/land1.png","75","1955.9000000003725","2","1","1","1","1,0,0,0.25,0.5,0.25,0.25,0.25,0.5","0,1,0,0.5,0.25,0.25,0.25,0.25,0.5","3","",""
"","html-keyboard-response","139","125003","0.0-139.0","","","","","null","<img src=""img/land1.png"" style=""width:200px; border:14px solid green;"">","null","","","","","","","","","",""
"","image-keyboard-response","140","126601","0.0-140.0","","","","","1595.5","img/land2.png","76","1597.8999999994412","3","0","2","1","1,0,0,0.25,0.5,0.25,0.25,0.25,0.5","0,1,0,0.5,0.25,0.25,0.25,0.25,0.5","3","",""
"","html-keyboard-response","141","126905","0.0-141.0","","","","","null","<img src=""img/land2.png"" style=""width:200px;border:14px solid red;"">","null","","","","","","","","","",""
"","image-keyboard-response","142","127991","0.0-142.0","","","","","1085.2000000001863","img/land1.png","75","1086.6000000005588","2","1","1","1","1,0,0,0.25,0.5,0.25,0.25,0.25,0.5","0,1,0,0.5,0.25,0.25,0.25,0.25,0.5","3","",""
"","html-keyboard-response","143","128297","0.0-143.0","","","","","null","<img src=""img/land1.png"" style=""width:200px; border:14px solid green;"">","null","","","","","","","","","",""
"","image-keyboard-response","144","130301","0.0-144.0","","","","","","img/land1.png","","2003.6000000005588","-1","0","1","1","1,0,0,0.25,0.5,0.25,0.25,0.25,0.5","0,1,0,0.5,0.25,0.25,0.25,0.25,0.5","3","",""
"","html-keyboard-response","145","130604","0.0-145.0","","","","","null","<img src=""img/land1.png"" style=""width:200px;border:14px solid red;"">","null","","","","","","","","","",""
"","image-keyboard-response","146","131310","0.0-146.0","","","","","703.4000000003725","img/land1.png","76","705.0999999996275","3","0","1","1","1,0,0,0.25,0.5,0.25,0.25,0.25,0.5","0,1,0,0.5,0.25,0.25,0.25,0.25,0.5","3","",""
"","html-keyboard-response","147","131619","0.0-147.0","","","","","null","<img src=""img/land1.png"" style=""width:200px;border:14px solid red;"">","null","","","","","","","","","",""
"","image-keyboard-response","148","132222","0.0-148.0","","","","","601.5999999996275","img/land1.png","76","603.1000000005588","3","0","1","1","1,0,0,0.25,0.5,0.25,0.25,0.25,0.5","0,1,0,0.5,0.25,0.25,0.25,0.25,0.5","3","",""
"","html-keyboard-response","149","132528","0.0-149.0","","","","","null","<img src=""img/land1.png"" style=""width:200px;border:14px solid red;"">","null","","","","","","","","","",""
"","image-keyboard-response","150","133463","0.0-150.0","","","","","932.2999999998137","img/land2.png","76","934","3","1","2","1","1,0,0,0.25,0.5,0.25,0.25,0.25,0.5","0,1,0,0.5,0.25,0.25,0.25,0.25,0.5","3","",""
"","html-keyboard-response","151","133770","0.0-151.0","","","","","null","<img src=""img/land2.png"" style=""width:200px; border:14px solid green;"">","null","","","","","","","","","",""
"","image-keyboard-response","152","135505","0.0-152.0","","","","","1732.7000000001863","img/land1.png","75","1734.3999999994412","2","1","1","1","1,0,0,0.25,0.5,0.25,0.25,0.25,0.5","0,1,0,0.5,0.25,0.25,0.25,0.25,0.5","3","",""
"","html-keyboard-response","153","135813","0.0-153.0","","","","","null","<img src=""img/land1.png"" style=""width:200px; border:14px solid green;"">","null","","","","","","","","","",""
"","image-keyboard-response","154","137820","0.0-154.0","","","","","","img/land1.png","","2006.7000000001863","-1","0","1","1","1,0,0,0.25,0.5,0.25,0.25,0.25,0.5","0,1,0,0.5,0.25,0.25,0.25,0.25,0.5","3","",""
"","html-keyboard-response","155","138124","0.0-155.0","","","","","null","<img src=""img/land1.png"" style=""width:200px;border:14px solid red;"">","null","","","","","","","","","",""
"","image-keyboard-response","156","139179","0.0-156.0","","","","","1053.7000000001863","img/land3.png","76","1055.2999999998137","3","0","3","1","1,0,0,0.25,0.5,0.25,0.25,0.25,0.5","0,1,0,0.5,0.25,0.25,0.25,0.25,0.5","3","",""
"","html-keyboard-response","157","139484","0.0-157.0","","","","","null","<img src=""img/land3.png"" style=""width:200px;border:14px solid red;"">","null","","","","","","","","","",""
"","image-keyboard-response","158","140509","0.0-158.0","","","","","1023","img/land1.png","75","1024.7999999998137","2","1","1","1","1,0,0,0.25,0.5,0.25,0.25,0.25,0.5","0,1,0,0.5,0.25,0.25,0.25,0.25,0.5","3","",""
"","html-keyboard-response","159","140813","0.0-159.0","","","","","null","<img src=""img/land1.png"" style=""width:200px; border:14px solid green;"">","null","","","","","","","","","",""
"","image-keyboard-response","160","142816","0.0-160.0","","","","","","img/land2.png","","2003.800000000745","-1","0","2","1","1,0,0,0.25,0.5,0.25,0.25,0.25,0.5","0,1,0,0.5,0.25,0.25,0.25,0.25,0.5","3","",""
"","html-keyboard-response","161","143120","0.0-161.0","","","","","null","<img src=""img/land2.png"" style=""width:200px;border:14px solid red;"">","null","","","","","","","","","",""
"","image-keyboard-response","162","144502","0.0-162.0","","","","","1379.8999999994412","img/land1.png","75","1381.7999999998137","2","1","1","1","1,0,0,0.25,0.5,0.25,0.25,0.25,0.5","0,1,0,0.5,0.25,0.25,0.25,0.25,0.5","3","",""
"","html-keyboard-response","163","144810","0.0-163.0","","","","","null","<img src=""img/land1.png"" style=""width:200px; border:14px solid green;"">","null","","","","","","","","","",""
"","image-keyboard-response","164","146815","0.0-164.0","","","","","","img/land1.png","","2005.3999999994412","-1","0","1","1","1,0,0,0.25,0.5,0.25,0.25,0.25,0.5","0,1,0,0.5,0.25,0.25,0.25,0.25,0.5","3","",""
"","html-keyboard-response","165","147118","0.0-165.0","","","","","null","<img src=""img/land1.png"" style=""width:200px;border:14px solid red;"">","null","","","","","","","","","",""
"","image-keyboard-response","166","147781","0.0-166.0","","","","","662","img/land2.png","75","663.2000000001863","2","1","2","1","1,0,0,0.25,0.5,0.25,0.25,0.25,0.5","0,1,0,0.5,0.25,0.25,0.25,0.25,0.5","3","",""
"","html-keyboard-response","167","148091","0.0-167.0","","","","","null","<img src=""img/land2.png"" style=""width:200px; border:14px solid green;"">","null","","","","","","","","","",""
"","image-keyboard-response","168","150093","0.0-168.0","","","","","","img/land2.png","","2001.8999999994412","-1","0","2","1","1,0,0,0.25,0.5,0.25,0.25,0.25,0.5","0,1,0,0.5,0.25,0.25,0.25,0.25,0.5","3","",""
"","html-keyboard-response","169","150410","0.0-169.0","","","","","null","<img src=""img/land2.png"" style=""width:200px;border:14px solid red;"">","null","","","","","","","","","",""
"","image-keyboard-response","170","151201","0.0-170.0","","","","","789.5999999996275","img/land1.png","75","791.4000000003725","2","1","1","1","1,0,0,0.25,0.5,0.25,0.25,0.25,0.5","0,1,0,0.5,0.25,0.25,0.25,0.25,0.5","3","",""
"","html-keyboard-response","171","151506","0.0-171.0","","","","","null","<img src=""img/land1.png"" style=""width:200px; border:14px solid green;"">","null","","","","","","","","","",""
"","image-keyboard-response","172","152356","0.0-172.0","","","","","849.0999999996275","img/land2.png","75","850.5","2","0","2","1","1,0,0,0.25,0.5,0.25,0.25,0.25,0.5","0,1,0,0.5,0.25,0.25,0.25,0.25,0.5","3","",""
"","html-keyboard-response","173","152667","0.0-173.0","","","","","null","<img src=""img/land2.png"" style=""width:200px;border:14px solid red;"">","null","","","","","","","","","",""
"","image-keyboard-response","174","153658","0.0-174.0","","","","","988.2999999998137","img/land3.png","75","991.3000000007451","2","0","3","1","1,0,0,0.25,0.5,0.25,0.25,0.25,0.5","0,1,0,0.5,0.25,0.25,0.25,0.25,0.5","3","",""
"","html-keyboard-response","175","153972","0.0-175.0","","","","","null","<img src=""img/land3.png"" style=""width:200px;border:14px solid red;"">","null","","","","","","","","","",""
"","image-keyboard-response","176","154956","0.0-176.0","","","","","981.2999999998137","img/land2.png","75","983.5","2","0","2","1","1,0,0,0.25,0.5,0.25,0.25,0.25,0.5","0,1,0,0.5,0.25,0.25,0.25,0.25,0.5","3","",""
"","html-keyboard-response","177","155260","0.0-177.0","","","","","null","<img src=""img/land2.png"" style=""width:200px;border:14px solid red;"">","null","","","","","","","","","",""
"","image-keyboard-response","178","157266","0.0-178.0","","","","","","img/land3.png","","2005.7000000001863","-1","0","3","1","1,0,0,0.25,0.5,0.25,0.25,0.25,0.5","0,1,0,0.5,0.25,0.25,0.25,0.25,0.5","3","",""
"","html-keyboard-response","179","157571","0.0-179.0","","","","","null","<img src=""img/land3.png"" style=""width:200px;border:14px solid red;"">","null","","","","","","","","","",""
"","image-keyboard-response","180","158609","0.0-180.0","","","","","1035.7999999998137","img/land2.png","75","1037.5999999996275","2","0","2","1","1,0,0,0.25,0.5,0.25,0.25,0.25,0.5","0,1,0,0.5,0.25,0.25,0.25,0.25,0.5","3","",""
"","html-keyboard-response","181","158912","0.0-181.0","","","","","null","<img src=""img/land2.png"" style=""width:200px;border:14px solid red;"">","null","","","","","","","","","",""
"","image-keyboard-response","182","159375","0.0-182.0","","","","","461.59999999962747","img/land3.png","75","463.29999999981374","2","0","3","1","1,0,0,0.25,0.5,0.25,0.25,0.25,0.5","0,1,0,0.5,0.25,0.25,0.25,0.25,0.5","3","",""
"","html-keyboard-response","183","159685","0.0-183.0","","","","","null","<img src=""img/land3.png"" style=""width:200px;border:14px solid red;"">","null","","","","","","","","","",""
"","image-keyboard-response","184","160301","0.0-184.0","","","","","614.1000000005588","img/land1.png","76","615.2999999998137","3","0","1","1","1,0,0,0.25,0.5,0.25,0.25,0.25,0.5","0,1,0,0.5,0.25,0.25,0.25,0.25,0.5","3","",""
"","html-keyboard-response","185","160610","0.0-185.0","","","","","null","<img src=""img/land1.png"" style=""width:200px;border:14px solid red;"">","null","","","","","","","","","",""
"","image-keyboard-response","186","161080","0.0-186.0","","","","","467.90000000037253","img/land1.png","76","469.20000000018626","3","0","1","1","1,0,0,0.25,0.5,0.25,0.25,0.25,0.5","0,1,0,0.5,0.25,0.25,0.25,0.25,0.5","3","",""
"","html-keyboard-response","187","161388","0.0-187.0","","","","","null","<img src=""img/land1.png"" style=""width:200px;border:14px solid red;"">","null","","","","","","","","","",""
"","image-keyboard-response","188","161998","0.0-188.0","","","","","608.7000000001863","img/land3.png","74","610.2999999998137","1","0","3","1","1,0,0,0.25,0.5,0.25,0.25,0.25,0.5","0,1,0,0.5,0.25,0.25,0.25,0.25,0.5","3","",""
"","html-keyboard-response","189","162306","0.0-189.0","","","","","null","<img src=""img/land3.png"" style=""width:200px;border:14px solid red;"">","null","","","","","","","","","",""
"","image-keyboard-response","190","162836","0.0-190.0","","","","","527.5","img/land2.png","74","529.7999999998137","1","1","2","1","1,0,0,0.25,0.5,0.25,0.25,0.25,0.5","0,1,0,0.5,0.25,0.25,0.25,0.25,0.5","3","",""
"","html-keyboard-response","191","163140","0.0-191.0","","","","","null","<img src=""img/land2.png"" style=""width:200px; border:14px solid green;"">","null","","","","","","","","","",""
"","image-keyboard-response","192","164270","0.0-192.0","","","","","1128.5999999996275","img/land1.png","74","1129.699999999255","1","0","1","1","1,0,0,0.25,0.5,0.25,0.25,0.25,0.5","0,1,0,0.5,0.25,0.25,0.25,0.25,0.5","3","",""
"","html-keyboard-response","193","164573","0.0-193.0","","","","","null","<img src=""img/land1.png"" style=""width:200px;border:14px solid red;"">","null","","","","","","","","","",""
"","image-keyboard-response","194","165561","0.0-194.0","","","","","985.0999999996275","img/land3.png","74","986.9000000003725","1","0","3","1","1,0,0,0.25,0.5,0.25,0.25,0.25,0.5","0,1,0,0.5,0.25,0.25,0.25,0.25,0.5","3","",""
"","html-keyboard-response","195","165869","0.0-195.0","","","","","null","<img src=""img/land3.png"" style=""width:200px;border:14px solid red;"">","null","","","","","","","","","",""
"","image-keyboard-response","196","166794","0.0-196.0","","","","","923.2999999998137","img/land1.png","74","924.1999999992549","1","0","1","1","1,0,0,0.25,0.5,0.25,0.25,0.25,0.5","0,1,0,0.5,0.25,0.25,0.25,0.25,0.5","3","",""
"","html-keyboard-response","197","167103","0.0-197.0","","","","","null","<img src=""img/land1.png"" style=""width:200px;border:14px solid red;"">","null","","","","","","","","","",""
"","image-keyboard-response","198","167766","0.0-198.0","","","","","660.2000000001863","img/land1.png","76","662.7000000001863","3","0","1","1","1,0,0,0.25,0.5,0.25,0.25,0.25,0.5","0,1,0,0.5,0.25,0.25,0.25,0.25,0.5","3","",""
"","html-keyboard-response","199","168070","0.0-199.0","","","","","null","<img src=""img/land1.png"" style=""width:200px;border:14px solid red;"">","null","","","","","","","","","",""
"","image-keyboard-response","200","169437","0.0-200.0","","","","","1364.800000000745","img/land2.png","75","1367.2000000001863","2","0","2","1","1,0,0,0.25,0.5,0.25,0.25,0.25,0.5","0,1,0,0.5,0.25,0.25,0.25,0.25,0.5","3","",""
"","html-keyboard-response","201","169748","0.0-201.0","","","","","null","<img src=""img/land2.png"" style=""width:200px;border:14px solid red;"">","null","","","","","","","","","",""
"","image-keyboard-response","202","170854","0.0-202.0","","","","","1105.2999999998137","img/land2.png","75","1106.6000000005588","2","0","2","1","1,0,0,0.25,0.5,0.25,0.25,0.25,0.5","0,1,0,0.5,0.25,0.25,0.25,0.25,0.5","3","",""
"","html-keyboard-response","203","171158","0.0-203.0","","","","","null","<img src=""img/land2.png"" style=""width:200px;border:14px solid red;"">","null","","","","","","","","","",""
"","image-keyboard-response","204","171616","0.0-204.0","","","","","456.90000000037253","img/land1.png","75","458","2","1","1","1","1,0,0,0.25,0.5,0.25,0.25,0.25,0.5","0,1,0,0.5,0.25,0.25,0.25,0.25,0.5","3","",""
"","html-keyboard-response","205","171918","0.0-205.0","","","","","null","<img src=""img/land1.png"" style=""width:200px; border:14px solid green;"">","null","","","","","","","","","",""
"","image-keyboard-response","206","172400","0.0-206.0","","","","","480.79999999981374","img/land3.png","75","482","2","1","3","1","1,0,0,0.25,0.5,0.25,0.25,0.25,0.5","0,1,0,0.5,0.25,0.25,0.25,0.25,0.5","3","",""
"","html-keyboard-response","207","172704","0.0-207.0","","","","","null","<img src=""img/land3.png"" style=""width:200px; border:14px solid green;"">","null","","","","","","","","","",""
"","image-keyboard-response","208","173836","0.0-208.0","","","","","1128.2999999998137","img/land2.png","75","1130.2999999998137","2","1","2","1","1,0,0,0.25,0.5,0.25,0.25,0.25,0.5","0,1,0,0.5,0.25,0.25,0.25,0.25,0.5","3","",""
"","html-keyboard-response","209","174140","0.0-209.0","","","","","null","<img src=""img/land2.png"" style=""width:200px; border:14px solid green;"">","null","","","","","","","","","",""
"","image-keyboard-response","210","174980","0.0-210.0","","","","","837.2999999998137","img/land1.png","75","839.6000000005588","2","1","1","1","1,0,0,0.25,0.5,0.25,0.25,0.25,0.5","0,1,0,0.5,0.25,0.25,0.25,0.25,0.5","3","",""
"","html-keyboard-response","211","175287","0.0-211.0","","","","","null","<img src=""img/land1.png"" style=""width:200px; border:14px solid green;"">","null","","","","","","","","","",""
"","image-keyboard-response","212","176357","0.0-212.0","","","","","1066.8999999994412","img/land1.png","75","1069.1000000005588","2","1","1","1","1,0,0,0.25,0.5,0.25,0.25,0.25,0.5","0,1,0,0.5,0.25,0.25,0.25,0.25,0.5","3","",""
"","html-keyboard-response","213","176660","0.0-213.0","","","","","null","<img src=""img/land1.png"" style=""width:200px; border:14px solid green;"">","null","","","","","","","","","",""
"","image-keyboard-response","214","178066","0.0-214.0","","","","","1403.2000000001863","img/land1.png","75","1405.6000000005588","2","1","1","1","1,0,0,0.25,0.5,0.25,0.25,0.25,0.5","0,1,0,0.5,0.25,0.25,0.25,0.25,0.5","3","",""
"","html-keyboard-response","215","178369","0.0-215.0","","","","","null","<img src=""img/land1.png"" style=""width:200px; border:14px solid green;"">","null","","","","","","","","","",""
"","image-keyboard-response","216","180378","0.0-216.0","","","","","","img/land1.png","","2008.7999999998137","-1","0","1","1","1,0,0,0.25,0.5,0.25,0.25,0.25,0.5","0,1,0,0.5,0.25,0.25,0.25,0.25,0.5","3","",""
"","html-keyboard-response","217","180681","0.0-217.0","","","","","null","<img src=""img/land1.png"" style=""width:200px;border:14px solid red;"">","null","","","","","","","","","",""
"","image-keyboard-response","218","182692","0.0-218.0","","","","","","img/land1.png","","2010.3999999994412","-1","0","1","1","1,0,0,0.25,0.5,0.25,0.25,0.25,0.5","0,1,0,0.5,0.25,0.25,0.25,0.25,0.5","3","",""
"","html-keyboard-response","219","183002","0.0-219.0","","","","","null","<img src=""img/land1.png"" style=""width:200px;border:14px solid red;"">","null","","","","","","","","","",""
"","image-keyboard-response","220","184174","0.0-220.0","","","","","1168.6000000005588","img/land3.png","76","1171.5999999996275","3","0","3","1","1,0,0,0.25,0.5,0.25,0.25,0.25,0.5","0,1,0,0.5,0.25,0.25,0.25,0.25,0.5","3","",""
"","html-keyboard-response","221","184478","0.0-221.0","","","","","null","<img src=""img/land3.png"" style=""width:200px;border:14px solid red;"">","null","","","","","","","","","",""
"","image-keyboard-response","222","185624","0.0-222.0","","","","","1143.7000000001863","img/land2.png","75","1145.5999999996275","2","1","2","1","1,0,0,0.25,0.5,0.25,0.25,0.25,0.5","0,1,0,0.5,0.25,0.25,0.25,0.25,0.5","3","",""
"","html-keyboard-response","223","185929","0.0-223.0","","","","","null","<img src=""img/land2.png"" style=""width:200px; border:14px solid green;"">","null","","","","","","","","","",""
"","image-keyboard-response","224","186921","0.0-224.0","","","","","988.1999999992549","img/land3.png","76","990","3","1","3","1","1,0,0,0.25,0.5,0.25,0.25,0.25,0.5","0,1,0,0.5,0.25,0.25,0.25,0.25,0.5","3","",""
"","html-keyboard-response","225","187226","0.0-225.0","","","","","null","<img src=""img/land3.png"" style=""width:200px; border:14px solid green;"">","null","","","","","","","","","",""
"","image-keyboard-response","226","188969","0.0-226.0","","","","","1740.7000000001863","img/land3.png","75","1743.1000000005588","2","0","3","1","1,0,0,0.25,0.5,0.25,0.25,0.25,0.5","0,1,0,0.5,0.25,0.25,0.25,0.25,0.5","3","",""
"","html-keyboard-response","227","189277","0.0-227.0","","","","","null","<img src=""img/land3.png"" style=""width:200px;border:14px solid red;"">","null","","","","","","","","","",""
"","image-keyboard-response","228","190574","0.0-228.0","","","","","1294.800000000745","img/land2.png","75","1297.2000000001863","2","0","2","1","1,0,0,0.25,0.5,0.25,0.25,0.25,0.5","0,1,0,0.5,0.25,0.25,0.25,0.25,0.5","3","",""
"","html-keyboard-response","229","190883","0.0-229.0","","","","","null","<img src=""img/land2.png"" style=""width:200px;border:14px solid red;"">","null","","","","","","","","","",""
"","image-keyboard-response","230","192130","0.0-230.0","","","","","1245","img/land3.png","76","1246.699999999255","3","0","3","1","1,0,0,0.25,0.5,0.25,0.25,0.25,0.5","0,1,0,0.5,0.25,0.25,0.25,0.25,0.5","3","",""
"","html-keyboard-response","231","192435","0.0-231.0","","","","","null","<img src=""img/land3.png"" style=""width:200px;border:14px solid red;"">","null","","","","","","","","","",""
"","image-keyboard-response","232","193472","0.0-232.0","","","","","1032.7000000001863","img/land3.png","76","1036.2000000001863","3","0","3","1","1,0,0,0.25,0.5,0.25,0.25,0.25,0.5","0,1,0,0.5,0.25,0.25,0.25,0.25,0.5","3","",""
"","html-keyboard-response","233","193777","0.0-233.0","","","","","null","<img src=""img/land3.png"" style=""width:200px;border:14px solid red;"">","null","","","","","","","","","",""
"","image-keyboard-response","234","195040","0.0-234.0","","","","","1260.5999999996275","img/land1.png","74","1263","1","0","1","1","1,0,0,0.25,0.5,0.25,0.25,0.25,0.5","0,1,0,0.5,0.25,0.25,0.25,0.25,0.5","3","",""
"","html-keyboard-response","235","195346","0.0-235.0","","","","","null","<img src=""img/land1.png"" style=""width:200px;border:14px solid red;"">","null","","","","","","","","","",""
"","image-keyboard-response","236","196144","0.0-236.0","","","","","795.6999999992549","img/land3.png","75","798","2","1","3","1","1,0,0,0.25,0.5,0.25,0.25,0.25,0.5","0,1,0,0.5,0.25,0.25,0.25,0.25,0.5","3","",""
"","html-keyboard-response","237","196452","0.0-237.0","","","","","null","<img src=""img/land3.png"" style=""width:200px; border:14px solid green;"">","null","","","","","","","","","",""
"","image-keyboard-response","238","197447","0.0-238.0","","","","","991.4000000003725","img/land2.png","75","994.2000000001863","2","0","2","1","1,0,0,0.25,0.5,0.25,0.25,0.25,0.5","0,1,0,0.5,0.25,0.25,0.25,0.25,0.5","3","",""
"","html-keyboard-response","239","197750","0.0-239.0","","","","","null","<img src=""img/land2.png"" style=""width:200px;border:14px solid red;"">","null","","","","","","","","","",""
"","image-keyboard-response","240","198707","0.0-240.0","","","","","955","img/land1.png","75","956.7000000001863","2","1","1","1","1,0,0,0.25,0.5,0.25,0.25,0.25,0.5","0,1,0,0.5,0.25,0.25,0.25,0.25,0.5","3","",""
"","html-keyboard-response","241","199011","0.0-241.0","","","","","null","<img src=""img/land1.png"" style=""width:200px; border:14px solid green;"">","null","","","","","","","","","",""
"","image-keyboard-response","242","200106","0.0-242.0","","","","","1091.5","img/land1.png","75","1094","2","1","1","1","1,0,0,0.25,0.5,0.25,0.25,0.25,0.5","0,1,0,0.5,0.25,0.25,0.25,0.25,0.5","3","",""
"","html-keyboard-response","243","200410","0.0-243.0","","","","","null","<img src=""img/land1.png"" style=""width:200px; border:14px solid green;"">","null","","","","","","","","","",""
"","image-keyboard-response","244","201785","0.0-244.0","","","","","1373.7999999998137","img/land1.png","75","1375.5","2","1","1","1","1,0,0,0.25,0.5,0.25,0.25,0.25,0.5","0,1,0,0.5,0.25,0.25,0.25,0.25,0.5","3","",""
"","html-keyboard-response","245","202092","0.0-245.0","","","","","null","<img src=""img/land1.png"" style=""width:200px; border:14px solid green;"">","null","","","","","","","","","",""
"","image-keyboard-response","246","203320","0.0-246.0","","","","","1225.7000000001863","img/land2.png","75","1227.4000000003725","2","0","2","1","1,0,0,0.25,0.5,0.25,0.25,0.25,0.5","0,1,0,0.5,0.25,0.25,0.25,0.25,0.5","3","",""
"","html-keyboard-response","247","203625","0.0-247.0","","","","","null","<img src=""img/land2.png"" style=""width:200px;border:14px solid red;"">","null","","","","","","","","","",""
"","image-keyboard-response","248","204922","0.0-248.0","","","","","1295.8999999994412","img/land1.png","75","1296.9000000003725","2","1","1","1","1,0,0,0.25,0.5,0.25,0.25,0.25,0.5","0,1,0,0.5,0.25,0.25,0.25,0.25,0.5","3","",""
"","html-keyboard-response","249","205226","0.0-249.0","","","","","null","<img src=""img/land1.png"" style=""width:200px; border:14px solid green;"">","null","","","","","","","","","",""
"","image-keyboard-response","250","206213","0.0-250.0","","","","","984.5","img/land1.png","75","986.2999999998137","2","1","1","1","1,0,0,0.25,0.5,0.25,0.25,0.25,0.5","0,1,0,0.5,0.25,0.25,0.25,0.25,0.5","3","",""
"","html-keyboard-response","251","206519","0.0-251.0","","","","","null","<img src=""img/land1.png"" style=""width:200px; border:14px solid green;"">","null","","","","","","","","","",""
"","image-keyboard-response","252","208527","0.0-252.0","","","","","","img/land1.png","","2007.7999999998137","-1","0","1","1","1,0,0,0.25,0.5,0.25,0.25,0.25,0.5","0,1,0,0.5,0.25,0.25,0.25,0.25,0.5","3","",""
"","html-keyboard-response","253","208830","0.0-253.0","","","","","null","<img src=""img/land1.png"" style=""width:200px;border:14px solid red;"">","null","","","","","","","","","",""
"","image-keyboard-response","254","210838","0.0-254.0","","","","","","img/land1.png","","2007.0999999996275","-1","0","1","1","1,0,0,0.25,0.5,0.25,0.25,0.25,0.5","0,1,0,0.5,0.25,0.25,0.25,0.25,0.5","3","",""
"","html-keyboard-response","255","211141","0.0-255.0","","","","","null","<img src=""img/land1.png"" style=""width:200px;border:14px solid red;"">","null","","","","","","","","","",""
"","image-keyboard-response","256","211740","0.0-256.0","","","","","596.7000000001863","img/land1.png","75","598.2999999998137","2","1","1","1","1,0,0,0.25,0.5,0.25,0.25,0.25,0.5","0,1,0,0.5,0.25,0.25,0.25,0.25,0.5","3","",""
"","html-keyboard-response","257","212046","0.0-257.0","","","","","null","<img src=""img/land1.png"" style=""width:200px; border:14px solid green;"">","null","","","","","","","","","",""
"","image-keyboard-response","258","212949","0.0-258.0","","","","","900.5","img/land1.png","75","902.7000000001863","2","1","1","1","1,0,0,0.25,0.5,0.25,0.25,0.25,0.5","0,1,0,0.5,0.25,0.25,0.25,0.25,0.5","3","",""
"","html-keyboard-response","259","213255","0.0-259.0","","","","","null","<img src=""img/land1.png"" style=""width:200px; border:14px solid green;"">","null","","","","","","","","","",""
"","image-keyboard-response","260","214390","0.0-260.0","","","","","1132.7999999998137","img/land1.png","75","1134.7000000001863","2","1","1","1","1,0,0,0.25,0.5,0.25,0.25,0.25,0.5","0,1,0,0.5,0.25,0.25,0.25,0.25,0.5","3","",""
"","html-keyboard-response","261","214692","0.0-261.0","","","","","null","<img src=""img/land1.png"" style=""width:200px; border:14px solid green;"">","null","","","","","","","","","",""
"","image-keyboard-response","262","216700","0.0-262.0","","","","","","img/land3.png","","2006.6000000005588","-1","0","3","1","1,0,0,0.25,0.5,0.25,0.25,0.25,0.5","0,1,0,0.5,0.25,0.25,0.25,0.25,0.5","3","",""
"","html-keyboard-response","263","217003","0.0-263.0","","","","","null","<img src=""img/land3.png"" style=""width:200px;border:14px solid red;"">","null","","","","","","","","","",""
"","image-keyboard-response","264","218002","0.0-264.0","","","","","997.8000000007451","img/land2.png","75","999.5999999996275","2","0","2","1","1,0,0,0.25,0.5,0.25,0.25,0.25,0.5","0,1,0,0.5,0.25,0.25,0.25,0.25,0.5","3","",""
"","html-keyboard-response","265","218311","0.0-265.0","","","","","null","<img src=""img/land2.png"" style=""width:200px;border:14px solid red;"">","null","","","","","","","","","",""
"","image-keyboard-response","266","219385","0.0-266.0","","","","","1071.6000000005588","img/land1.png","75","1073.6000000005588","2","1","1","1","1,0,0,0.25,0.5,0.25,0.25,0.25,0.5","0,1,0,0.5,0.25,0.25,0.25,0.25,0.5","3","",""
"","html-keyboard-response","267","219687","0.0-267.0","","","","","null","<img src=""img/land1.png"" style=""width:200px; border:14px solid green;"">","null","","","","","","","","","",""
"","image-keyboard-response","268","220586","0.0-268.0","","","","","895.8000000007451","img/land1.png","75","898.2000000001863","2","1","1","1","1,0,0,0.25,0.5,0.25,0.25,0.25,0.5","0,1,0,0.5,0.25,0.25,0.25,0.25,0.5","3","",""
"","html-keyboard-response","269","220893","0.0-269.0","","","","","null","<img src=""img/land1.png"" style=""width:200px; border:14px solid green;"">","null","","","","","","","","","",""
"","image-keyboard-response","270","222900","0.0-270.0","","","","","","img/land1.png","","2007.3999999994412","-1","0","1","1","1,0,0,0.25,0.5,0.25,0.25,0.25,0.5","0,1,0,0.5,0.25,0.25,0.25,0.25,0.5","3","",""
"","html-keyboard-response","271","223203","0.0-271.0","","","","","null","<img src=""img/land1.png"" style=""width:200px;border:14px solid red;"">","null","","","","","","","","","",""
"","image-keyboard-response","272","224159","0.0-272.0","","","","","953.5","img/land2.png","75","956.2000000001863","2","0","2","1","1,0,0,0.25,0.5,0.25,0.25,0.25,0.5","0,1,0,0.5,0.25,0.25,0.25,0.25,0.5","3","",""
"","html-keyboard-response","273","224469","0.0-273.0","","","","","null","<img src=""img/land2.png"" style=""width:200px;border:14px solid red;"">","null","","","","","","","","","",""
"","image-keyboard-response","274","226474","0.0-274.0","","","","","","img/land2.png","","2004.0999999996275","-1","0","2","1","1,0,0,0.25,0.5,0.25,0.25,0.25,0.5","0,1,0,0.5,0.25,0.25,0.25,0.25,0.5","3","",""
"","html-keyboard-response","275","226779","0.0-275.0","","","","","null","<img src=""img/land2.png"" style=""width:200px;border:14px solid red;"">","null","","","","","","","","","",""
"","image-keyboard-response","276","227084","0.0-276.0","","","","","302.79999999981374","img/land3.png","75","305.20000000018626","2","1","3","1","1,0,0,0.25,0.5,0.25,0.25,0.25,0.5","0,1,0,0.5,0.25,0.25,0.25,0.25,0.5","3","",""
"","html-keyboard-response","277","227394","0.0-277.0","","","","","null","<img src=""img/land3.png"" style=""width:200px; border:14px solid green;"">","null","","","","","","","","","",""
"","image-keyboard-response","278","228545","0.0-278.0","","","","","1147.800000000745","img/land1.png","75","1150.2000000001863","2","1","1","1","1,0,0,0.25,0.5,0.25,0.25,0.25,0.5","0,1,0,0.5,0.25,0.25,0.25,0.25,0.5","3","",""
"","html-keyboard-response","279","228855","0.0-279.0","","","","","null","<img src=""img/land1.png"" style=""width:200px; border:14px solid green;"">","null","","","","","","","","","",""
"","image-keyboard-response","280","229829","0.0-280.0","","","","","971.9000000003725","img/land1.png","75","973.8000000007451","2","1","1","1","1,0,0,0.25,0.5,0.25,0.25,0.25,0.5","0,1,0,0.5,0.25,0.25,0.25,0.25,0.5","3","",""
"","html-keyboard-response","281","230136","0.0-281.0","","","","","null","<img src=""img/land1.png"" style=""width:200px; border:14px solid green;"">","null","","","","","","","","","",""
"","image-keyboard-response","282","231073","0.0-282.0","","","","","934.6000000005588","img/land2.png","75","936.7000000001863","2","0","2","1","1,0,0,0.25,0.5,0.25,0.25,0.25,0.5","0,1,0,0.5,0.25,0.25,0.25,0.25,0.5","3","",""
"","html-keyboard-response","283","231382","0.0-283.0","","","","","null","<img src=""img/land2.png"" style=""width:200px;border:14px solid red;"">","null","","","","","","","","","",""
"","image-keyboard-response","284","232211","0.0-284.0","","","","","827.2000000001863","img/land3.png","75","828.8000000007451","2","0","3","1","1,0,0,0.25,0.5,0.25,0.25,0.25,0.5","0,1,0,0.5,0.25,0.25,0.25,0.25,0.5","3","",""
"","html-keyboard-response","285","232519","0.0-285.0","","","","","null","<img src=""img/land3.png"" style=""width:200px;border:14px solid red;"">","null","","","","","","","","","",""
"","image-keyboard-response","286","233486","0.0-286.0","","","","","966.0999999996275","img/land1.png","75","967.2000000001863","2","1","1","1","1,0,0,0.25,0.5,0.25,0.25,0.25,0.5","0,1,0,0.5,0.25,0.25,0.25,0.25,0.5","3","",""
"","html-keyboard-response","287","233792","0.0-287.0","","","","","null","<img src=""img/land1.png"" style=""width:200px; border:14px solid green;"">","null","","","","","","","","","",""
"","image-keyboard-response","288","234844","0.0-288.0","","","","","1047.9000000003725","img/land1.png","75","1050.4000000003725","2","1","1","1","1,0,0,0.25,0.5,0.25,0.25,0.25,0.5","0,1,0,0.5,0.25,0.25,0.25,0.25,0.5","3","",""
"","html-keyboard-response","289","235150","0.0-289.0","","","","","null","<img src=""img/land1.png"" style=""width:200px; border:14px solid green;"">","null","","","","","","","","","",""
"","image-keyboard-response","290","236151","0.0-290.0","","","","","998.5","img/land1.png","75","1000.9000000003725","2","1","1","1","1,0,0,0.25,0.5,0.25,0.25,0.25,0.5","0,1,0,0.5,0.25,0.25,0.25,0.25,0.5","3","",""
"","html-keyboard-response","291","236454","0.0-291.0","","","","","null","<img src=""img/land1.png"" style=""width:200px; border:14px solid green;"">","null","","","","","","","","","",""
"","image-keyboard-response","292","237500","0.0-292.0","","","","","1043.7999999998137","img/land3.png","75","1045.5999999996275","2","0","3","1","1,0,0,0.25,0.5,0.25,0.25,0.25,0.5","0,1,0,0.5,0.25,0.25,0.25,0.25,0.5","3","",""
"","html-keyboard-response","293","237806","0.0-293.0","","","","","null","<img src=""img/land3.png"" style=""width:200px;border:14px solid red;"">","null","","","","","","","","","",""
"","image-keyboard-response","294","238710","0.0-294.0","","","","","901.5","img/land3.png","75","903","2","0","3","1","1,0,0,0.25,0.5,0.25,0.25,0.25,0.5","0,1,0,0.5,0.25,0.25,0.25,0.25,0.5","3","",""
"","html-keyboard-response","295","239017","0.0-295.0","","","","","null","<img src=""img/land3.png"" style=""width:200px;border:14px solid red;"">","null","","","","","","","","","",""
"","image-keyboard-response","296","239887","0.0-296.0","","","","","867.5","img/land1.png","76","869.8999999994412","3","0","1","1","1,0,0,0.25,0.5,0.25,0.25,0.25,0.5","0,1,0,0.5,0.25,0.25,0.25,0.25,0.5","3","",""
"","html-keyboard-response","297","240197","0.0-297.0","","","","","null","<img src=""img/land1.png"" style=""width:200px;border:14px solid red;"">","null","","","","","","","","","",""
"","image-keyboard-response","298","241072","0.0-298.0","","","","","871.8999999994412","img/land3.png","75","874.2999999998137","2","0","3","1","1,0,0,0.25,0.5,0.25,0.25,0.25,0.5","0,1,0,0.5,0.25,0.25,0.25,0.25,0.5","3","",""
"","html-keyboard-response","299","241378","0.0-299.0","","","","","null","<img src=""img/land3.png"" style=""width:200px;border:14px solid red;"">","null","","","","","","","","","",""
"","image-keyboard-response","300","242077","0.0-300.0","","","","","696.5","img/land1.png","75","698.4000000003725","2","1","1","1","1,0,0,0.25,0.5,0.25,0.25,0.25,0.5","0,1,0,0.5,0.25,0.25,0.25,0.25,0.5","3","",""
"","html-keyboard-response","301","242385","0.0-301.0","","","","","null","<img src=""img/land1.png"" style=""width:200px; border:14px solid green;"">","null","","","","","","","","","",""
"","html-keyboard-response","302","244855","0.0-302.0","","","","","","","","","","","","","","","","",""
"","image-keyboard-response","303","246860","0.0-303.0","","","","","","img/land6.png","","2004.8999999994412","-1","0","3","2","1,0,0,0.25,0.5,0.25,0.25,0.25,0.5","0,0,1,0.25,0.5,0.25,0.5,0.25,0.25","2","",""
"","html-keyboard-response","304","247165","0.0-304.0","","","","","null","<img src=""img/land6.png"" style=""width:200px;border:14px solid red;"">","null","","","","","","","","","",""
"","image-keyboard-response","305","247774","0.0-305.0","","","","","606.5","img/land4.png","75","608.7999999998137","2","0","1","2","1,0,0,0.25,0.5,0.25,0.25,0.25,0.5","0,0,1,0.25,0.5,0.25,0.5,0.25,0.25","2","",""
"","html-keyboard-response","306","248079","0.0-306.0","","","","","null","<img src=""img/land4.png"" style=""width:200px;border:14px solid red;"">","null","","","","","","","","","",""
"","image-keyboard-response","307","248680","0.0-307.0","","","","","597.6999999992549","img/land4.png","75","600.3999999994412","2","0","1","2","1,0,0,0.25,0.5,0.25,0.25,0.25,0.5","0,0,1,0.25,0.5,0.25,0.5,0.25,0.25","2","",""
"","html-keyboard-response","308","248991","0.0-308.0","","","","","null","<img src=""img/land4.png"" style=""width:200px;border:14px solid red;"">","null","","","","","","","","","",""
"","image-keyboard-response","309","249685","0.0-309.0","","","","","691.7999999998137","img/land5.png","76","693.5999999996275","3","0","2","2","1,0,0,0.25,0.5,0.25,0.25,0.25,0.5","0,0,1,0.25,0.5,0.25,0.5,0.25,0.25","2","",""
"","html-keyboard-response","310","249993","0.0-310.0","","","","","null","<img src=""img/land5.png"" style=""width:200px;border:14px solid red;"">","null","","","","","","","","","",""
"","image-keyboard-response","311","250621","0.0-311.0","","","","","625.9000000003725","img/land5.png","76","627.7999999998137","3","0","2","2","1,0,0,0.25,0.5,0.25,0.25,0.25,0.5","0,0,1,0.25,0.5,0.25,0.5,0.25,0.25","2","",""
"","html-keyboard-response","312","250931","0.0-312.0","","","","","null","<img src=""img/land5.png"" style=""width:200px;border:14px solid red;"">","null","","","","","","","","","",""
"","image-keyboard-response","313","251649","0.0-313.0","","","","","715.5999999996275","img/land4.png","76","717.5999999996275","3","1","1","2","1,0,0,0.25,0.5,0.25,0.25,0.25,0.5","0,0,1,0.25,0.5,0.25,0.5,0.25,0.25","2","",""
"","html-keyboard-response","314","251958","0.0-314.0","","","","","null","<img src=""img/land4.png"" style=""width:200px; border:14px solid green;"">","null","","","","","","","","","",""
"","image-keyboard-response","315","253251","0.0-315.0","","","","","1290.6000000005588","img/land5.png","76","1293.1000000005588","3","0","2","2","1,0,0,0.25,0.5,0.25,0.25,0.25,0.5","0,0,1,0.25,0.5,0.25,0.5,0.25,0.25","2","",""
"","html-keyboard-response","316","253579","0.0-316.0","","","","","null","<img src=""img/land5.png"" style=""width:200px;border:14px solid red;"">","null","","","","","","","","","",""
"","image-keyboard-response","317","254404","0.0-317.0","","","","","822.6999999992549","img/land6.png","76","825.4000000003725","3","0","3","2","1,0,0,0.25,0.5,0.25,0.25,0.25,0.5","0,0,1,0.25,0.5,0.25,0.5,0.25,0.25","2","",""
"","html-keyboard-response","318","254710","0.0-318.0","","","","","null","<img src=""img/land6.png"" style=""width:200px;border:14px solid red;"">","null","","","","","","","","","",""
"","image-keyboard-response","319","255756","0.0-319.0","","","","","1043.7999999998137","img/land4.png","74","1046.2999999998137","1","0","1","2","1,0,0,0.25,0.5,0.25,0.25,0.25,0.5","0,0,1,0.25,0.5,0.25,0.5,0.25,0.25","2","",""
"","html-keyboard-response","320","256061","0.0-320.0","","","","","null","<img src=""img/land4.png"" style=""width:200px;border:14px solid red;"">","null","","","","","","","","","",""
"","image-keyboard-response","321","256715","0.0-321.0","","","","","650.8999999994412","img/land4.png","75","653.4000000003725","2","0","1","2","1,0,0,0.25,0.5,0.25,0.25,0.25,0.5","0,0,1,0.25,0.5,0.25,0.5,0.25,0.25","2","",""
"","html-keyboard-response","322","257020","0.0-322.0","","","","","null","<img src=""img/land4.png"" style=""width:200px;border:14px solid red;"">","null","","","","","","","","","",""
"","image-keyboard-response","323","258161","0.0-323.0","","","","","1138","img/land5.png","74","1140.6000000005588","1","0","2","2","1,0,0,0.25,0.5,0.25,0.25,0.25,0.5","0,0,1,0.25,0.5,0.25,0.5,0.25,0.25","2","",""
"","html-keyboard-response","324","258468","0.0-324.0","","","","","null","<img src=""img/land5.png"" style=""width:200px;border:14px solid red;"">","null","","","","","","","","","",""
"","image-keyboard-response","325","259528","0.0-325.0","","","","","1058","img/land6.png","76","1059.9000000003725","3","0","3","2","1,0,0,0.25,0.5,0.25,0.25,0.25,0.5","0,0,1,0.25,0.5,0.25,0.5,0.25,0.25","2","",""
"","html-keyboard-response","326","259837","0.0-326.0","","","","","null","<img src=""img/land6.png"" style=""width:200px;border:14px solid red;"">","null","","","","","","","","","",""
"","image-keyboard-response","327","260434","0.0-327.0","","","","","594.1000000005588","img/land4.png","76","596.5999999996275","3","1","1","2","1,0,0,0.25,0.5,0.25,0.25,0.25,0.5","0,0,1,0.25,0.5,0.25,0.5,0.25,0.25","2","",""
"","html-keyboard-response","328","260740","0.0-328.0","","","","","null","<img src=""img/land4.png"" style=""width:200px; border:14px solid green;"">","null","","","","","","","","","",""
"","image-keyboard-response","329","262082","0.0-329.0","","","","","1338.5","img/land4.png","76","1341","3","1","1","2","1,0,0,0.25,0.5,0.25,0.25,0.25,0.5","0,0,1,0.25,0.5,0.25,0.5,0.25,0.25","2","",""
"","html-keyboard-response","330","262386","0.0-330.0","","","","","null","<img src=""img/land4.png"" style=""width:200px; border:14px solid green;"">","null","","","","","","","","","",""
"","image-keyboard-response","331","263186","0.0-331.0","","","","","797.9000000003725","img/land5.png","76","799.2000000001863","3","1","2","2","1,0,0,0.25,0.5,0.25,0.25,0.25,0.5","0,0,1,0.25,0.5,0.25,0.5,0.25,0.25","2","",""
"","html-keyboard-response","332","263489","0.0-332.0","","","","","null","<img src=""img/land5.png"" style=""width:200px; border:14px solid green;"">","null","","","","","","","","","",""
"","image-keyboard-response","333","264637","0.0-333.0","","","","","1145.7999999998137","img/land5.png","76","1147.6000000005588","3","0","2","2","1,0,0,0.25,0.5,0.25,0.25,0.25,0.5","0,0,1,0.25,0.5,0.25,0.5,0.25,0.25","2","",""
"","html-keyboard-response","334","264948","0.0-334.0","","","","","null","<img src=""img/land5.png"" style=""width:200px;border:14px solid red;"">","null","","","","","","","","","",""
"","image-keyboard-response","335","265947","0.0-335.0","","","","","996.7000000001863","img/land5.png","76","999.0999999996275","3","0","2","2","1,0,0,0.25,0.5,0.25,0.25,0.25,0.5","0,0,1,0.25,0.5,0.25,0.5,0.25,0.25","2","",""
"","html-keyboard-response","336","266257","0.0-336.0","","","","","null","<img src=""img/land5.png"" style=""width:200px;border:14px solid red;"">","null","","","","","","","","","",""
"","image-keyboard-response","337","267301","0.0-337.0","","","","","1042.7999999998137","img/land5.png","76","1043.7999999998137","3","0","2","2","1,0,0,0.25,0.5,0.25,0.25,0.25,0.5","0,0,1,0.25,0.5,0.25,0.5,0.25,0.25","2","",""
"","html-keyboard-response","338","267607","0.0-338.0","","","","","null","<img src=""img/land5.png"" style=""width:200px;border:14px solid red;"">","null","","","","","","","","","",""
"","image-keyboard-response","339","268955","0.0-339.0","","","","","1346.3999999994412","img/land5.png","75","1348.2000000001863","2","1","2","2","1,0,0,0.25,0.5,0.25,0.25,0.25,0.5","0,0,1,0.25,0.5,0.25,0.5,0.25,0.25","2","",""
"","html-keyboard-response","340","269260","0.0-340.0","","","","","null","<img src=""img/land5.png"" style=""width:200px; border:14px solid green;"">","null","","","","","","","","","",""
"","image-keyboard-response","341","270795","0.0-341.0","","","","","1533","img/land4.png","76","1534.7999999998137","3","1","1","2","1,0,0,0.25,0.5,0.25,0.25,0.25,0.5","0,0,1,0.25,0.5,0.25,0.5,0.25,0.25","2","",""
"","html-keyboard-response","342","271100","0.0-342.0","","","","","null","<img src=""img/land4.png"" style=""width:200px; border:14px solid green;"">","null","","","","","","","","","",""
"","image-keyboard-response","343","272611","0.0-343.0","","","","","1507.9000000003725","img/land6.png","75","1510.2999999998137","2","0","3","2","1,0,0,0.25,0.5,0.25,0.25,0.25,0.5","0,0,1,0.25,0.5,0.25,0.5,0.25,0.25","2","",""
"","html-keyboard-response","344","272920","0.0-344.0","","","","","null","<img src=""img/land6.png"" style=""width:200px;border:14px solid red;"">","null","","","","","","","","","",""
"","image-keyboard-response","345","274196","0.0-345.0","","","","","1274.5","img/land6.png","74","1276.7000000001863","1","1","3","2","1,0,0,0.25,0.5,0.25,0.25,0.25,0.5","0,0,1,0.25,0.5,0.25,0.5,0.25,0.25","2","",""
"","html-keyboard-response","346","274500","0.0-346.0","","","","","null","<img src=""img/land6.png"" style=""width:200px; border:14px solid green;"">","null","","","","","","","","","",""
"","image-keyboard-response","347","276139","0.0-347.0","","","","","1636.3999999994412","img/land4.png","76","1639.199999999255","3","1","1","2","1,0,0,0.25,0.5,0.25,0.25,0.25,0.5","0,0,1,0.25,0.5,0.25,0.5,0.25,0.25","2","",""
"","html-keyboard-response","348","276443","0.0-348.0","","","","","null","<img src=""img/land4.png"" style=""width:200px; border:14px solid green;"">","null","","","","","","","","","",""
"","image-keyboard-response","349","277536","0.0-349.0","","","","","1090.2000000001863","img/land5.png","75","1091.9000000003725","2","1","2","2","1,0,0,0.25,0.5,0.25,0.25,0.25,0.5","0,0,1,0.25,0.5,0.25,0.5,0.25,0.25","2","",""
"","html-keyboard-response","350","277843","0.0-350.0","","","","","null","<img src=""img/land5.png"" style=""width:200px; border:14px solid green;"">","null","","","","","","","","","",""
"","image-keyboard-response","351","278877","0.0-351.0","","","","","1031.1000000005588","img/land4.png","76","1032.7999999998137","3","1","1","2","1,0,0,0.25,0.5,0.25,0.25,0.25,0.5","0,0,1,0.25,0.5,0.25,0.5,0.25,0.25","2","",""
"","html-keyboard-response","352","279182","0.0-352.0","","","","","null","<img src=""img/land4.png"" style=""width:200px; border:14px solid green;"">","null","","","","","","","","","",""
"","image-keyboard-response","353","280260","0.0-353.0","","","","","1076.2000000001863","img/land5.png","75","1078","2","1","2","2","1,0,0,0.25,0.5,0.25,0.25,0.25,0.5","0,0,1,0.25,0.5,0.25,0.5,0.25,0.25","2","",""
"","html-keyboard-response","354","280567","0.0-354.0","","","","","null","<img src=""img/land5.png"" style=""width:200px; border:14px solid green;"">","null","","","","","","","","","",""
"","image-keyboard-response","355","281688","0.0-355.0","","","","","1118.7999999998137","img/land4.png","76","1120.7999999998137","3","1","1","2","1,0,0,0.25,0.5,0.25,0.25,0.25,0.5","0,0,1,0.25,0.5,0.25,0.5,0.25,0.25","2","",""
"","html-keyboard-response","356","281997","0.0-356.0","","","","","null","<img src=""img/land4.png"" style=""width:200px; border:14px solid green;"">","null","","","","","","","","","",""
"","image-keyboard-response","357","283071","0.0-357.0","","","","","1070.7000000001863","img/land6.png","74","1073","1","0","3","2","1,0,0,0.25,0.5,0.25,0.25,0.25,0.5","0,0,1,0.25,0.5,0.25,0.5,0.25,0.25","2","",""
"","html-keyboard-response","358","283374","0.0-358.0","","","","","null","<img src=""img/land6.png"" style=""width:200px;border:14px solid red;"">","null","","","","","","","","","",""
"","image-keyboard-response","359","284349","0.0-359.0","","","","","972.7999999998137","img/land6.png","75","975.1999999992549","2","0","3","2","1,0,0,0.25,0.5,0.25,0.25,0.25,0.5","0,0,1,0.25,0.5,0.25,0.5,0.25,0.25","2","",""
"","html-keyboard-response","360","284654","0.0-360.0","","","","","null","<img src=""img/land6.png"" style=""width:200px;border:14px solid red;"">","null","","","","","","","","","",""
"","image-keyboard-response","361","286284","0.0-361.0","","","","","1626.5999999996275","img/land4.png","76","1629.2000000001863","3","1","1","2","1,0,0,0.25,0.5,0.25,0.25,0.25,0.5","0,0,1,0.25,0.5,0.25,0.5,0.25,0.25","2","",""
"","html-keyboard-response","362","286634","0.0-362.0","","","","","null","<img src=""img/land4.png"" style=""width:200px; border:14px solid green;"">","null","","","","","","","","","",""
"","image-keyboard-response","363","288008","0.0-363.0","","","","","1372","img/land5.png","75","1373.7999999998137","2","0","2","2","1,0,0,0.25,0.5,0.25,0.25,0.25,0.5","0,0,1,0.25,0.5,0.25,0.5,0.25,0.25","2","",""
"","html-keyboard-response","364","288319","0.0-364.0","","","","","null","<img src=""img/land5.png"" style=""width:200px;border:14px solid red;"">","null","","","","","","","","","",""
"","image-keyboard-response","365","289906","0.0-365.0","","","","","1585.7000000001863","img/land4.png","76","1586.7000000001863","3","1","1","2","1,0,0,0.25,0.5,0.25,0.25,0.25,0.5","0,0,1,0.25,0.5,0.25,0.5,0.25,0.25","2","",""
"","html-keyboard-response","366","290212","0.0-366.0","","","","","null","<img src=""img/land4.png"" style=""width:200px; border:14px solid green;"">","null","","","","","","","","","",""
"","image-keyboard-response","367","291658","0.0-367.0","","","","","1443.2999999998137","img/land4.png","76","1445.5999999996275","3","1","1","2","1,0,0,0.25,0.5,0.25,0.25,0.25,0.5","0,0,1,0.25,0.5,0.25,0.5,0.25,0.25","2","",""
"","html-keyboard-response","368","291965","0.0-368.0","","","","","null","<img src=""img/land4.png"" style=""width:200px; border:14px solid green;"">","null","","","","","","","","","",""
"","image-keyboard-response","369","292930","0.0-369.0","","","","","961.9000000003725","img/land4.png","76","964.3000000007451","3","1","1","2","1,0,0,0.25,0.5,0.25,0.25,0.25,0.5","0,0,1,0.25,0.5,0.25,0.5,0.25,0.25","2","",""
"","html-keyboard-response","370","293233","0.0-370.0","","","","","null","<img src=""img/land4.png"" style=""width:200px; border:14px solid green;"">","null","","","","","","","","","",""
"","image-keyboard-response","371","293820","0.0-371.0","","","","","584.2999999998137","img/land4.png","76","586.2000000001863","3","1","1","2","1,0,0,0.25,0.5,0.25,0.25,0.25,0.5","0,0,1,0.25,0.5,0.25,0.5,0.25,0.25","2","",""
"","html-keyboard-response","372","294124","0.0-372.0","","","","","null","<img src=""img/land4.png"" style=""width:200px; border:14px solid green;"">","null","","","","","","","","","",""
"","image-keyboard-response","373","295389","0.0-373.0","","","","","1263.199999999255","img/land6.png","74","1265.8999999994412","1","0","3","2","1,0,0,0.25,0.5,0.25,0.25,0.25,0.5","0,0,1,0.25,0.5,0.25,0.5,0.25,0.25","2","",""
"","html-keyboard-response","374","295696","0.0-374.0","","","","","null","<img src=""img/land6.png"" style=""width:200px;border:14px solid red;"">","null","","","","","","","","","",""
"","image-keyboard-response","375","296794","0.0-375.0","","","","","1093.9000000003725","img/land6.png","75","1096.7000000001863","2","1","3","2","1,0,0,0.25,0.5,0.25,0.25,0.25,0.5","0,0,1,0.25,0.5,0.25,0.5,0.25,0.25","2","",""
"","html-keyboard-response","376","297100","0.0-376.0","","","","","null","<img src=""img/land6.png"" style=""width:200px; border:14px solid green;"">","null","","","","","","","","","",""
"","image-keyboard-response","377","298969","0.0-377.0","","","","","1865.9000000003725","img/land6.png","76","1868.4000000003725","3","0","3","2","1,0,0,0.25,0.5,0.25,0.25,0.25,0.5","0,0,1,0.25,0.5,0.25,0.5,0.25,0.25","2","",""
"","html-keyboard-response","378","299275","0.0-378.0","","","","","null","<img src=""img/land6.png"" style=""width:200px;border:14px solid red;"">","null","","","","","","","","","",""
"","image-keyboard-response","379","300283","0.0-379.0","","","","","1004.7000000001863","img/land5.png","75","1006.9000000003725","2","0","2","2","1,0,0,0.25,0.5,0.25,0.25,0.25,0.5","0,0,1,0.25,0.5,0.25,0.5,0.25,0.25","2","",""
"","html-keyboard-response","380","300588","0.0-380.0","","","","","null","<img src=""img/land5.png"" style=""width:200px;border:14px solid red;"">","null","","","","","","","","","",""
"","image-keyboard-response","381","301680","0.0-381.0","","","","","1089.2999999998137","img/land6.png","74","1091.4000000003725","1","1","3","2","1,0,0,0.25,0.5,0.25,0.25,0.25,0.5","0,0,1,0.25,0.5,0.25,0.5,0.25,0.25","2","",""
"","html-keyboard-response","382","301986","0.0-382.0","","","","","null","<img src=""img/land6.png"" style=""width:200px; border:14px solid green;"">","null","","","","","","","","","",""
"","image-keyboard-response","383","302784","0.0-383.0","","","","","794.3000000007451","img/land5.png","75","797.1000000005588","2","1","2","2","1,0,0,0.25,0.5,0.25,0.25,0.25,0.5","0,0,1,0.25,0.5,0.25,0.5,0.25,0.25","2","",""
"","html-keyboard-response","384","303088","0.0-384.0","","","","","null","<img src=""img/land5.png"" style=""width:200px; border:14px solid green;"">","null","","","","","","","","","",""
"","image-keyboard-response","385","304413","0.0-385.0","","","","","1322.7000000001863","img/land6.png","74","1324.6000000005588","1","0","3","2","1,0,0,0.25,0.5,0.25,0.25,0.25,0.5","0,0,1,0.25,0.5,0.25,0.5,0.25,0.25","2","",""
"","html-keyboard-response","386","304717","0.0-386.0","","","","","null","<img src=""img/land6.png"" style=""width:200px;border:14px solid red;"">","null","","","","","","","","","",""
"","image-keyboard-response","387","305831","0.0-387.0","","","","","1111","img/land4.png","76","1113.7000000001863","3","1","1","2","1,0,0,0.25,0.5,0.25,0.25,0.25,0.5","0,0,1,0.25,0.5,0.25,0.5,0.25,0.25","2","",""
"","html-keyboard-response","388","306136","0.0-388.0","","","","","null","<img src=""img/land4.png"" style=""width:200px; border:14px solid green;"">","null","","","","","","","","","",""
"","image-keyboard-response","389","307170","0.0-389.0","","","","","1030.8999999994412","img/land6.png","75","1033.4000000003725","2","0","3","2","1,0,0,0.25,0.5,0.25,0.25,0.25,0.5","0,0,1,0.25,0.5,0.25,0.5,0.25,0.25","2","",""
"","html-keyboard-response","390","307475","0.0-390.0","","","","","null","<img src=""img/land6.png"" style=""width:200px;border:14px solid red;"">","null","","","","","","","","","",""
"","image-keyboard-response","391","308608","0.0-391.0","","","","","1131.2000000001863","img/land4.png","76","1133.2000000001863","3","1","1","2","1,0,0,0.25,0.5,0.25,0.25,0.25,0.5","0,0,1,0.25,0.5,0.25,0.5,0.25,0.25","2","",""
"","html-keyboard-response","392","308919","0.0-392.0","","","","","null","<img src=""img/land4.png"" style=""width:200px; border:14px solid green;"">","null","","","","","","","","","",""
"","image-keyboard-response","393","309791","0.0-393.0","","","","","870.3000000007451","img/land6.png","74","872.0999999996275","1","0","3","2","1,0,0,0.25,0.5,0.25,0.25,0.25,0.5","0,0,1,0.25,0.5,0.25,0.5,0.25,0.25","2","",""
"","html-keyboard-response","394","310094","0.0-394.0","","","","","null","<img src=""img/land6.png"" style=""width:200px;border:14px solid red;"">","null","","","","","","","","","",""
"","image-keyboard-response","395","311445","0.0-395.0","","","","","1348.5","img/land6.png","76","1350.4000000003725","3","1","3","2","1,0,0,0.25,0.5,0.25,0.25,0.25,0.5","0,0,1,0.25,0.5,0.25,0.5,0.25,0.25","2","",""
"","html-keyboard-response","396","311751","0.0-396.0","","","","","null","<img src=""img/land6.png"" style=""width:200px; border:14px solid green;"">","null","","","","","","","","","",""
"","image-keyboard-response","397","312584","0.0-397.0","","","","","830.2999999998137","img/land4.png","76","832.9000000003725","3","1","1","2","1,0,0,0.25,0.5,0.25,0.25,0.25,0.5","0,0,1,0.25,0.5,0.25,0.5,0.25,0.25","2","",""
"","html-keyboard-response","398","312888","0.0-398.0","","","","","null","<img src=""img/land4.png"" style=""width:200px; border:14px solid green;"">","null","","","","","","","","","",""
"","image-keyboard-response","399","313628","0.0-399.0","","","","","738.2000000001863","img/land5.png","76","739.5","3","1","2","2","1,0,0,0.25,0.5,0.25,0.25,0.25,0.5","0,0,1,0.25,0.5,0.25,0.5,0.25,0.25","2","",""
"","html-keyboard-response","400","313931","0.0-400.0","","","","","null","<img src=""img/land5.png"" style=""width:200px; border:14px solid green;"">","null","","","","","","","","","",""
"","image-keyboard-response","401","314413","0.0-401.0","","","","","478.8999999994412","img/land5.png","76","485.40000000037253","3","0","2","2","1,0,0,0.25,0.5,0.25,0.25,0.25,0.5","0,0,1,0.25,0.5,0.25,0.5,0.25,0.25","2","",""
"","html-keyboard-response","402","314720","0.0-402.0","","","","","null","<img src=""img/land5.png"" style=""width:200px;border:14px solid red;"">","null","","","","","","","","","",""
"","image-keyboard-response","403","315478","0.0-403.0","","","","","754.8999999994412","img/land5.png","76","756.7000000001863","3","0","2","2","1,0,0,0.25,0.5,0.25,0.25,0.25,0.5","0,0,1,0.25,0.5,0.25,0.5,0.25,0.25","2","",""
"","html-keyboard-response","404","315781","0.0-404.0","","","","","null","<img src=""img/land5.png"" style=""width:200px;border:14px solid red;"">","null","","","","","","","","","",""
"","image-keyboard-response","405","316188","0.0-405.0","","","","","403.29999999981374","img/land6.png","76","406.29999999981374","3","0","3","2","1,0,0,0.25,0.5,0.25,0.25,0.25,0.5","0,0,1,0.25,0.5,0.25,0.5,0.25,0.25","2","",""
"","html-keyboard-response","406","316493","0.0-406.0","","","","","null","<img src=""img/land6.png"" style=""width:200px;border:14px solid red;"">","null","","","","","","","","","",""
"","image-keyboard-response","407","317008","0.0-407.0","","","","","512.6000000005588","img/land5.png","76","515.1000000005588","3","1","2","2","1,0,0,0.25,0.5,0.25,0.25,0.25,0.5","0,0,1,0.25,0.5,0.25,0.5,0.25,0.25","2","",""
"","html-keyboard-response","408","317319","0.0-408.0","","","","","null","<img src=""img/land5.png"" style=""width:200px; border:14px solid green;"">","null","","","","","","","","","",""
"","image-keyboard-response","409","317886","0.0-409.0","","","","","563.8999999994412","img/land6.png","76","565.9000000003725","3","0","3","2","1,0,0,0.25,0.5,0.25,0.25,0.25,0.5","0,0,1,0.25,0.5,0.25,0.5,0.25,0.25","2","",""
"","html-keyboard-response","410","318194","0.0-410.0","","","","","null","<img src=""img/land6.png"" style=""width:200px;border:14px solid red;"">","null","","","","","","","","","",""
"","image-keyboard-response","411","320201","0.0-411.0","","","","","","img/land4.png","","2005.9000000003725","-1","0","1","2","1,0,0,0.25,0.5,0.25,0.25,0.25,0.5","0,0,1,0.25,0.5,0.25,0.5,0.25,0.25","2","",""
"","html-keyboard-response","412","320504","0.0-412.0","","","","","null","<img src=""img/land4.png"" style=""width:200px;border:14px solid red;"">","null","","","","","","","","","",""
"","image-keyboard-response","413","320962","0.0-413.0","","","","","455.1000000005588","img/land4.png","76","457.59999999962747","3","1","1","2","1,0,0,0.25,0.5,0.25,0.25,0.25,0.5","0,0,1,0.25,0.5,0.25,0.5,0.25,0.25","2","",""
"","html-keyboard-response","414","321269","0.0-414.0","","","","","null","<img src=""img/land4.png"" style=""width:200px; border:14px solid green;"">","null","","","","","","","","","",""
"","image-keyboard-response","415","322176","0.0-415.0","","","","","904","img/land6.png","76","906.5","3","0","3","2","1,0,0,0.25,0.5,0.25,0.25,0.25,0.5","0,0,1,0.25,0.5,0.25,0.5,0.25,0.25","2","",""
"","html-keyboard-response","416","322481","0.0-416.0","","","","","null","<img src=""img/land6.png"" style=""width:200px;border:14px solid red;"">","null","","","","","","","","","",""
"","image-keyboard-response","417","323228","0.0-417.0","","","","","744.3000000007451","img/land6.png","75","746.7000000001863","2","0","3","2","1,0,0,0.25,0.5,0.25,0.25,0.25,0.5","0,0,1,0.25,0.5,0.25,0.5,0.25,0.25","2","",""
"","html-keyboard-response","418","323533","0.0-418.0","","","","","null","<img src=""img/land6.png"" style=""width:200px;border:14px solid red;"">","null","","","","","","","","","",""
"","image-keyboard-response","419","324631","0.0-419.0","","","","","1096.6000000005588","img/land5.png","74","1098.5","1","0","2","2","1,0,0,0.25,0.5,0.25,0.25,0.25,0.5","0,0,1,0.25,0.5,0.25,0.5,0.25,0.25","2","",""
"","html-keyboard-response","420","324937","0.0-420.0","","","","","null","<img src=""img/land5.png"" style=""width:200px;border:14px solid red;"">","null","","","","","","","","","",""
"","image-keyboard-response","421","326304","0.0-421.0","","","","","1363.9000000003725","img/land4.png","76","1365.7999999998137","3","1","1","2","1,0,0,0.25,0.5,0.25,0.25,0.25,0.5","0,0,1,0.25,0.5,0.25,0.5,0.25,0.25","2","",""
"","html-keyboard-response","422","326608","0.0-422.0","","","","","null","<img src=""img/land4.png"" style=""width:200px; border:14px solid green;"">","null","","","","","","","","","",""
"","image-keyboard-response","423","327669","0.0-423.0","","","","","1058.5999999996275","img/land6.png","74","1060.5","1","0","3","2","1,0,0,0.25,0.5,0.25,0.25,0.25,0.5","0,0,1,0.25,0.5,0.25,0.5,0.25,0.25","2","",""
"","html-keyboard-response","424","327974","0.0-424.0","","","","","null","<img src=""img/land6.png"" style=""width:200px;border:14px solid red;"">","null","","","","","","","","","",""
"","image-keyboard-response","425","328823","0.0-425.0","","","","","845.5999999996275","img/land4.png","76","848.9000000003725","3","1","1","2","1,0,0,0.25,0.5,0.25,0.25,0.25,0.5","0,0,1,0.25,0.5,0.25,0.5,0.25,0.25","2","",""
"","html-keyboard-response","426","329128","0.0-426.0","","","","","null","<img src=""img/land4.png"" style=""width:200px; border:14px solid green;"">","null","","","","","","","","","",""
"","image-keyboard-response","427","330115","0.0-427.0","","","","","984","img/land5.png","75","986.5","2","1","2","2","1,0,0,0.25,0.5,0.25,0.25,0.25,0.5","0,0,1,0.25,0.5,0.25,0.5,0.25,0.25","2","",""
"","html-keyboard-response","428","330420","0.0-428.0","","","","","null","<img src=""img/land5.png"" style=""width:200px; border:14px solid green;"">","null","","","","","","","","","",""
"","image-keyboard-response","429","331540","0.0-429.0","","","","","1117.7999999998137","img/land4.png","76","1119.699999999255","3","1","1","2","1,0,0,0.25,0.5,0.25,0.25,0.25,0.5","0,0,1,0.25,0.5,0.25,0.5,0.25,0.25","2","",""
"","html-keyboard-response","430","331848","0.0-430.0","","","","","null","<img src=""img/land4.png"" style=""width:200px; border:14px solid green;"">","null","","","","","","","","","",""
"","image-keyboard-response","431","332946","0.0-431.0","","","","","1096.1000000005588","img/land6.png","75","1098","2","1","3","2","1,0,0,0.25,0.5,0.25,0.25,0.25,0.5","0,0,1,0.25,0.5,0.25,0.5,0.25,0.25","2","",""
"","html-keyboard-response","432","333255","0.0-432.0","","","","","null","<img src=""img/land6.png"" style=""width:200px; border:14px solid green;"">","null","","","","","","","","","",""
"","image-keyboard-response","433","334698","0.0-433.0","","","","","1440.2000000001863","img/land6.png","75","1442.9000000003725","2","0","3","2","1,0,0,0.25,0.5,0.25,0.25,0.25,0.5","0,0,1,0.25,0.5,0.25,0.5,0.25,0.25","2","",""
"","html-keyboard-response","434","335001","0.0-434.0","","","","","null","<img src=""img/land6.png"" style=""width:200px;border:14px solid red;"">","null","","","","","","","","","",""
"","image-keyboard-response","435","336184","0.0-435.0","","","","","1179.7000000001863","img/land4.png","76","1182.199999999255","3","1","1","2","1,0,0,0.25,0.5,0.25,0.25,0.25,0.5","0,0,1,0.25,0.5,0.25,0.5,0.25,0.25","2","",""
"","html-keyboard-response","436","336487","0.0-436.0","","","","","null","<img src=""img/land4.png"" style=""width:200px; border:14px solid green;"">","null","","","","","","","","","",""
"","image-keyboard-response","437","338498","0.0-437.0","","","","","","img/land5.png","","2010.6000000005588","-1","0","2","2","1,0,0,0.25,0.5,0.25,0.25,0.25,0.5","0,0,1,0.25,0.5,0.25,0.5,0.25,0.25","2","",""
"","html-keyboard-response","438","338805","0.0-438.0","","","","","null","<img src=""img/land5.png"" style=""width:200px;border:14px solid red;"">","null","","","","","","","","","",""
"","image-keyboard-response","439","339279","0.0-439.0","","","","","471.70000000018626","img/land5.png","75","473.29999999981374","2","1","2","2","1,0,0,0.25,0.5,0.25,0.25,0.25,0.5","0,0,1,0.25,0.5,0.25,0.5,0.25,0.25","2","",""
"","html-keyboard-response","440","339589","0.0-440.0","","","","","null","<img src=""img/land5.png"" style=""width:200px; border:14px solid green;"">","null","","","","","","","","","",""
"","image-keyboard-response","441","340451","0.0-441.0","","","","","860.7999999998137","img/land4.png","76","862.6999999992549","3","1","1","2","1,0,0,0.25,0.5,0.25,0.25,0.25,0.5","0,0,1,0.25,0.5,0.25,0.5,0.25,0.25","2","",""
"","html-keyboard-response","442","340759","0.0-442.0","","","","","null","<img src=""img/land4.png"" style=""width:200px; border:14px solid green;"">","null","","","","","","","","","",""
"","image-keyboard-response","443","342373","0.0-443.0","","","","","1610.8999999994412","img/land5.png","74","1612.7999999998137","1","0","2","2","1,0,0,0.25,0.5,0.25,0.25,0.25,0.5","0,0,1,0.25,0.5,0.25,0.5,0.25,0.25","2","",""
"","html-keyboard-response","444","342675","0.0-444.0","","","","","null","<img src=""img/land5.png"" style=""width:200px;border:14px solid red;"">","null","","","","","","","","","",""
"","image-keyboard-response","445","343822","0.0-445.0","","","","","1144.1000000005588","img/land4.png","75","1146.5","2","0","1","2","1,0,0,0.25,0.5,0.25,0.25,0.25,0.5","0,0,1,0.25,0.5,0.25,0.5,0.25,0.25","2","",""
"","html-keyboard-response","446","344128","0.0-446.0","","","","","null","<img src=""img/land4.png"" style=""width:200px;border:14px solid red;"">","null","","","","","","","","","",""
"","image-keyboard-response","447","344922","0.0-447.0","","","","","791.7999999998137","img/land5.png","75","793.5999999996275","2","0","2","2","1,0,0,0.25,0.5,0.25,0.25,0.25,0.5","0,0,1,0.25,0.5,0.25,0.5,0.25,0.25","2","",""
"","html-keyboard-response","448","345228","0.0-448.0","","","","","null","<img src=""img/land5.png"" style=""width:200px;border:14px solid red;"">","null","","","","","","","","","",""
"","image-keyboard-response","449","346129","0.0-449.0","","","","","897.9000000003725","img/land5.png","76","900.5","3","0","2","2","1,0,0,0.25,0.5,0.25,0.25,0.25,0.5","0,0,1,0.25,0.5,0.25,0.5,0.25,0.25","2","",""
"","html-keyboard-response","450","346437","0.0-450.0","","","","","null","<img src=""img/land5.png"" style=""width:200px;border:14px solid red;"">","null","","","","","","","","","",""
"","image-keyboard-response","451","347069","0.0-451.0","","","","","629.7000000001863","img/land5.png","76","631.7999999998137","3","0","2","2","1,0,0,0.25,0.5,0.25,0.25,0.25,0.5","0,0,1,0.25,0.5,0.25,0.5,0.25,0.25","2","",""
"","html-keyboard-response","452","347377","0.0-452.0","","","","","null","<img src=""img/land5.png"" style=""width:200px;border:14px solid red;"">","null","","","","","","","","","",""
"","image-keyboard-response","453","348287","0.0-453.0","","","","","907.2000000001863","img/land5.png","75","909.2000000001863","2","0","2","2","1,0,0,0.25,0.5,0.25,0.25,0.25,0.5","0,0,1,0.25,0.5,0.25,0.5,0.25,0.25","2","",""
"","html-keyboard-response","454","348592","0.0-454.0","","","","","null","<img src=""img/land5.png"" style=""width:200px;border:14px solid red;"">","null","","","","","","","","","",""
"","image-keyboard-response","455","349005","0.0-455.0","","","","","409.09999999962747","img/land5.png","75","411.8999999994412","2","1","2","2","1,0,0,0.25,0.5,0.25,0.25,0.25,0.5","0,0,1,0.25,0.5,0.25,0.5,0.25,0.25","2","",""
"","html-keyboard-response","456","349315","0.0-456.0","","","","","null","<img src=""img/land5.png"" style=""width:200px; border:14px solid green;"">","null","","","","","","","","","",""
"","image-keyboard-response","457","350241","0.0-457.0","","","","","923.2000000001863","img/land6.png","74","925.1000000005588","1","1","3","2","1,0,0,0.25,0.5,0.25,0.25,0.25,0.5","0,0,1,0.25,0.5,0.25,0.5,0.25,0.25","2","",""
"","html-keyboard-response","458","350549","0.0-458.0","","","","","null","<img src=""img/land6.png"" style=""width:200px; border:14px solid green;"">","null","","","","","","","","","",""
"","image-keyboard-response","459","351232","0.0-459.0","","","","","680","img/land6.png","74","682.3999999994412","1","1","3","2","1,0,0,0.25,0.5,0.25,0.25,0.25,0.5","0,0,1,0.25,0.5,0.25,0.5,0.25,0.25","2","",""
"","html-keyboard-response","460","351546","0.0-460.0","","","","","null","<img src=""img/land6.png"" style=""width:200px; border:14px solid green;"">","null","","","","","","","","","",""
"","image-keyboard-response","461","353080","0.0-461.0","","","","","1532.0999999996275","img/land4.png","76","1533.7999999998137","3","1","1","2","1,0,0,0.25,0.5,0.25,0.25,0.25,0.5","0,0,1,0.25,0.5,0.25,0.5,0.25,0.25","2","",""
"","html-keyboard-response","462","353388","0.0-462.0","","","","","null","<img src=""img/land4.png"" style=""width:200px; border:14px solid green;"">","null","","","","","","","","","",""
"","image-keyboard-response","463","354416","0.0-463.0","","","","","1026.1000000005588","img/land6.png","74","1027.9000000003725","1","1","3","2","1,0,0,0.25,0.5,0.25,0.25,0.25,0.5","0,0,1,0.25,0.5,0.25,0.5,0.25,0.25","2","",""
"","html-keyboard-response","464","354724","0.0-464.0","","","","","null","<img src=""img/land6.png"" style=""width:200px; border:14px solid green;"">","null","","","","","","","","","",""
"","image-keyboard-response","465","355674","0.0-465.0","","","","","946.2999999998137","img/land6.png","74","948.5","1","0","3","2","1,0,0,0.25,0.5,0.25,0.25,0.25,0.5","0,0,1,0.25,0.5,0.25,0.5,0.25,0.25","2","",""
"","html-keyboard-response","466","355981","0.0-466.0","","","","","null","<img src=""img/land6.png"" style=""width:200px;border:14px solid red;"">","null","","","","","","","","","",""
"","image-keyboard-response","467","357197","0.0-467.0","","","","","1212.8999999994412","img/land4.png","76","1215.300000000745","3","1","1","2","1,0,0,0.25,0.5,0.25,0.25,0.25,0.5","0,0,1,0.25,0.5,0.25,0.5,0.25,0.25","2","",""
"","html-keyboard-response","468","357505","0.0-468.0","","","","","null","<img src=""img/land4.png"" style=""width:200px; border:14px solid green;"">","null","","","","","","","","","",""
"","image-keyboard-response","469","358740","0.0-469.0","","","","","1232.9000000003725","img/land6.png","74","1234.9000000003725","1","1","3","2","1,0,0,0.25,0.5,0.25,0.25,0.25,0.5","0,0,1,0.25,0.5,0.25,0.5,0.25,0.25","2","",""
"","html-keyboard-response","470","359045","0.0-470.0","","","","","null","<img src=""img/land6.png"" style=""width:200px; border:14px solid green;"">","null","","","","","","","","","",""
"","image-keyboard-response","471","360893","0.0-471.0","","","","","1845.7999999998137","img/land6.png","74","1847.7999999998137","1","0","3","2","1,0,0,0.25,0.5,0.25,0.25,0.25,0.5","0,0,1,0.25,0.5,0.25,0.5,0.25,0.25","2","",""
"","html-keyboard-response","472","361197","0.0-472.0","","","","","null","<img src=""img/land6.png"" style=""width:200px;border:14px solid red;"">","null","","","","","","","","","",""
"","image-keyboard-response","473","362677","0.0-473.0","","","","","1475.2999999998137","img/land5.png","75","1478.6000000005588","2","0","2","2","1,0,0,0.25,0.5,0.25,0.25,0.25,0.5","0,0,1,0.25,0.5,0.25,0.5,0.25,0.25","2","",""
"","html-keyboard-response","474","362981","0.0-474.0","","","","","null","<img src=""img/land5.png"" style=""width:200px;border:14px solid red;"">","null","","","","","","","","","",""
"","image-keyboard-response","475","364388","0.0-475.0","","","","","1403.0999999996275","img/land6.png","74","1405.2000000001863","1","0","3","2","1,0,0,0.25,0.5,0.25,0.25,0.25,0.5","0,0,1,0.25,0.5,0.25,0.5,0.25,0.25","2","",""
"","html-keyboard-response","476","364695","0.0-476.0","","","","","null","<img src=""img/land6.png"" style=""width:200px;border:14px solid red;"">","null","","","","","","","","","",""
"","image-keyboard-response","477","366409","0.0-477.0","","","","","1711.800000000745","img/land5.png","75","1713.699999999255","2","0","2","2","1,0,0,0.25,0.5,0.25,0.25,0.25,0.5","0,0,1,0.25,0.5,0.25,0.5,0.25,0.25","2","",""
"","html-keyboard-response","478","366715","0.0-478.0","","","","","null","<img src=""img/land5.png"" style=""width:200px;border:14px solid red;"">","null","","","","","","","","","",""
"","image-keyboard-response","479","367506","0.0-479.0","","","","","788","img/land4.png","76","789.8999999994412","3","1","1","2","1,0,0,0.25,0.5,0.25,0.25,0.25,0.5","0,0,1,0.25,0.5,0.25,0.5,0.25,0.25","2","",""
"","html-keyboard-response","480","367813","0.0-480.0","","","","","null","<img src=""img/land4.png"" style=""width:200px; border:14px solid green;"">","null","","","","","","","","","",""
"","image-keyboard-response","481","369288","0.0-481.0","","","","","1471.4000000003725","img/land6.png","75","1474","2","0","3","2","1,0,0,0.25,0.5,0.25,0.25,0.25,0.5","0,0,1,0.25,0.5,0.25,0.5,0.25,0.25","2","",""
"","html-keyboard-response","482","369598","0.0-482.0","","","","","null","<img src=""img/land6.png"" style=""width:200px;border:14px solid red;"">","null","","","","","","","","","",""
"","instructions","483","372529","0.0-483.0","","","","[{""page_index"":0,""viewing_time"":2929.899999999441}]","2930.399999999441","","","","","","","","","","","",""
"","survey-text","484","379538","0.0-484.0-0.0","","","","","6998.5999999996275","","","","","","","","","","","{""Q0"":""29""}",""
"","survey-multi-choice","485","385169","0.0-484.0-1.0","","","","","5626.5999999996275","","","","","","","","","","","{""gender"":""F""}","[0]"
"","survey-text","486","397506","0.0-485.0","","","","","12332.200000000186","","","","","","","","","","","{""Q0"":""A2VFCWCKU97RNK""}",""
