"success","trial_type","trial_index","time_elapsed","internal_node_id","assignmentID","mturkID","hitID","view_history","rt","stimulus","key_press","reactionTime","a","r","s","cond","reward_cond","reward_cond_actual","reward_matrix_idx","responses","question_order"
"true","fullscreen","0","5615","0.0-0.0","3DHE4R9OCXXFL5VAR4XZT856781G2J","A2YCMO8KFFQAJ9","3MXX6RQ9EVRTFC527Z18RDK8KW6P4R","","","","","","","","","","","","","",""
"","instructions","1","103666","0.0-1.0","3DHE4R9OCXXFL5VAR4XZT856781G2J","A2YCMO8KFFQAJ9","3MXX6RQ9EVRTFC527Z18RDK8KW6P4R","[{""page_index"":0,""viewing_time"":13691.300000011921},{""page_index"":1,""viewing_time"":5869.199999988079},{""page_index"":2,""viewing_time"":44858},{""page_index"":3,""viewing_time"":13357.90000000596},{""page_index"":4,""viewing_time"":4665.5},{""page_index"":5,""viewing_time"":4694.9000000059605},{""page_index"":6,""viewing_time"":10910.90000000596}]","98048.90000000596","","","","","","","","","","","",""
"","image-keyboard-response","2","105177","0.0-2.0","3DHE4R9OCXXFL5VAR4XZT856781G2J","A2YCMO8KFFQAJ9","3MXX6RQ9EVRTFC527Z18RDK8KW6P4R","","1507.4000000059605","img/land4.png","76","1509.699999988079","3","0","1","2","0.8,0.2,0.2,0.2,0.8,0.2,0.2,0.2,0.8","0.8,0.2,0.2,0.2,0.8,0.2,0.2,0.2,0.8","1","",""
"","html-keyboard-response","3","105486","0.0-3.0","3DHE4R9OCXXFL5VAR4XZT856781G2J","A2YCMO8KFFQAJ9","3MXX6RQ9EVRTFC527Z18RDK8KW6P4R","","null","<img src=""img/land4.png"" style=""width:200px;border:14px solid red;"">","null","","","","","","","","","",""
"","image-keyboard-response","4","106492","0.0-4.0","3DHE4R9OCXXFL5VAR4XZT856781G2J","A2YCMO8KFFQAJ9","3MXX6RQ9EVRTFC527Z18RDK8KW6P4R","","1004","img/land4.png","76","1005.5","3","1","1","2","0.8,0.2,0.2,0.2,0.8,0.2,0.2,0.2,0.8","0.8,0.2,0.2,0.2,0.8,0.2,0.2,0.2,0.8","1","",""
"","html-keyboard-response","5","106798","0.0-5.0","3DHE4R9OCXXFL5VAR4XZT856781G2J","A2YCMO8KFFQAJ9","3MXX6RQ9EVRTFC527Z18RDK8KW6P4R","","null","<img src=""img/land4.png"" style=""width:200px; border:14px solid green;"">","null","","","","","","","","","",""
"","image-keyboard-response","6","107202","0.0-6.0","3DHE4R9OCXXFL5VAR4XZT856781G2J","A2YCMO8KFFQAJ9","3MXX6RQ9EVRTFC527Z18RDK8KW6P4R","","401.7999999821186","img/land2.png","76","403.2999999821186","3","0","2","2","0.8,0.2,0.2,0.2,0.8,0.2,0.2,0.2,0.8","0.8,0.2,0.2,0.2,0.8,0.2,0.2,0.2,0.8","1","",""
"","html-keyboard-response","7","107510","0.0-7.0","3DHE4R9OCXXFL5VAR4XZT856781G2J","A2YCMO8KFFQAJ9","3MXX6RQ9EVRTFC527Z18RDK8KW6P4R","","null","<img src=""img/land2.png"" style=""width:200px;border:14px solid red;"">","null","","","","","","","","","",""
"","image-keyboard-response","8","107946","0.0-8.0","3DHE4R9OCXXFL5VAR4XZT856781G2J","A2YCMO8KFFQAJ9","3MXX6RQ9EVRTFC527Z18RDK8KW6P4R","","433.60000002384186","img/land2.png","75","435.2000000178814","2","0","2","2","0.8,0.2,0.2,0.2,0.8,0.2,0.2,0.2,0.8","0.8,0.2,0.2,0.2,0.8,0.2,0.2,0.2,0.8","1","",""
"","html-keyboard-response","9","108254","0.0-9.0","3DHE4R9OCXXFL5VAR4XZT856781G2J","A2YCMO8KFFQAJ9","3MXX6RQ9EVRTFC527Z18RDK8KW6P4R","","null","<img src=""img/land2.png"" style=""width:200px;border:14px solid red;"">","null","","","","","","","","","",""
"","image-keyboard-response","10","108995","0.0-10.0","3DHE4R9OCXXFL5VAR4XZT856781G2J","A2YCMO8KFFQAJ9","3MXX6RQ9EVRTFC527Z18RDK8KW6P4R","","740","img/land4.png","74","741.1999999880791","1","1","1","2","0.8,0.2,0.2,0.2,0.8,0.2,0.2,0.2,0.8","0.8,0.2,0.2,0.2,0.8,0.2,0.2,0.2,0.8","1","",""
"","html-keyboard-response","11","109302","0.0-11.0","3DHE4R9OCXXFL5VAR4XZT856781G2J","A2YCMO8KFFQAJ9","3MXX6RQ9EVRTFC527Z18RDK8KW6P4R","","null","<img src=""img/land4.png"" style=""width:200px; border:14px solid green;"">","null","","","","","","","","","",""
"","image-keyboard-response","12","109735","0.0-12.0","3DHE4R9OCXXFL5VAR4XZT856781G2J","A2YCMO8KFFQAJ9","3MXX6RQ9EVRTFC527Z18RDK8KW6P4R","","431.5","img/land4.png","74","432.80000001192093","1","1","1","2","0.8,0.2,0.2,0.2,0.8,0.2,0.2,0.2,0.8","0.8,0.2,0.2,0.2,0.8,0.2,0.2,0.2,0.8","1","",""
"","html-keyboard-response","13","110038","0.0-13.0","3DHE4R9OCXXFL5VAR4XZT856781G2J","A2YCMO8KFFQAJ9","3MXX6RQ9EVRTFC527Z18RDK8KW6P4R","","null","<img src=""img/land4.png"" style=""width:200px; border:14px solid green;"">","null","","","","","","","","","",""
"","image-keyboard-response","14","110502","0.0-14.0","3DHE4R9OCXXFL5VAR4XZT856781G2J","A2YCMO8KFFQAJ9","3MXX6RQ9EVRTFC527Z18RDK8KW6P4R","","462.09999999403954","img/land1.png","74","463.5","1","0","3","2","0.8,0.2,0.2,0.2,0.8,0.2,0.2,0.2,0.8","0.8,0.2,0.2,0.2,0.8,0.2,0.2,0.2,0.8","1","",""
"","html-keyboard-response","15","110806","0.0-15.0","3DHE4R9OCXXFL5VAR4XZT856781G2J","A2YCMO8KFFQAJ9","3MXX6RQ9EVRTFC527Z18RDK8KW6P4R","","null","<img src=""img/land1.png"" style=""width:200px;border:14px solid red;"">","null","","","","","","","","","",""
"","image-keyboard-response","16","111440","0.0-16.0","3DHE4R9OCXXFL5VAR4XZT856781G2J","A2YCMO8KFFQAJ9","3MXX6RQ9EVRTFC527Z18RDK8KW6P4R","","632.5","img/land4.png","75","634","2","1","1","2","0.8,0.2,0.2,0.2,0.8,0.2,0.2,0.2,0.8","0.8,0.2,0.2,0.2,0.8,0.2,0.2,0.2,0.8","1","",""
"","html-keyboard-response","17","111742","0.0-17.0","3DHE4R9OCXXFL5VAR4XZT856781G2J","A2YCMO8KFFQAJ9","3MXX6RQ9EVRTFC527Z18RDK8KW6P4R","","null","<img src=""img/land4.png"" style=""width:200px; border:14px solid green;"">","null","","","","","","","","","",""
"","image-keyboard-response","18","112136","0.0-18.0","3DHE4R9OCXXFL5VAR4XZT856781G2J","A2YCMO8KFFQAJ9","3MXX6RQ9EVRTFC527Z18RDK8KW6P4R","","392.5","img/land1.png","75","393.7999999821186","2","0","3","2","0.8,0.2,0.2,0.2,0.8,0.2,0.2,0.2,0.8","0.8,0.2,0.2,0.2,0.8,0.2,0.2,0.2,0.8","1","",""
"","html-keyboard-response","19","112438","0.0-19.0","3DHE4R9OCXXFL5VAR4XZT856781G2J","A2YCMO8KFFQAJ9","3MXX6RQ9EVRTFC527Z18RDK8KW6P4R","","null","<img src=""img/land1.png"" style=""width:200px;border:14px solid red;"">","null","","","","","","","","","",""
"","image-keyboard-response","20","112856","0.0-20.0","3DHE4R9OCXXFL5VAR4XZT856781G2J","A2YCMO8KFFQAJ9","3MXX6RQ9EVRTFC527Z18RDK8KW6P4R","","416.30000001192093","img/land4.png","76","417.69999998807907","3","0","1","2","0.8,0.2,0.2,0.2,0.8,0.2,0.2,0.2,0.8","0.8,0.2,0.2,0.2,0.8,0.2,0.2,0.2,0.8","1","",""
"","html-keyboard-response","21","113158","0.0-21.0","3DHE4R9OCXXFL5VAR4XZT856781G2J","A2YCMO8KFFQAJ9","3MXX6RQ9EVRTFC527Z18RDK8KW6P4R","","null","<img src=""img/land4.png"" style=""width:200px;border:14px solid red;"">","null","","","","","","","","","",""
"","image-keyboard-response","22","114207","0.0-22.0","3DHE4R9OCXXFL5VAR4XZT856781G2J","A2YCMO8KFFQAJ9","3MXX6RQ9EVRTFC527Z18RDK8KW6P4R","","1047.7999999821186","img/land4.png","74","1048.9000000059605","1","0","1","2","0.8,0.2,0.2,0.2,0.8,0.2,0.2,0.2,0.8","0.8,0.2,0.2,0.2,0.8,0.2,0.2,0.2,0.8","1","",""
"","html-keyboard-response","23","114510","0.0-23.0","3DHE4R9OCXXFL5VAR4XZT856781G2J","A2YCMO8KFFQAJ9","3MXX6RQ9EVRTFC527Z18RDK8KW6P4R","","null","<img src=""img/land4.png"" style=""width:200px;border:14px solid red;"">","null","","","","","","","","","",""
"","image-keyboard-response","24","114866","0.0-24.0","3DHE4R9OCXXFL5VAR4XZT856781G2J","A2YCMO8KFFQAJ9","3MXX6RQ9EVRTFC527Z18RDK8KW6P4R","","354.7000000178814","img/land4.png","75","355.90000000596046","2","0","1","2","0.8,0.2,0.2,0.2,0.8,0.2,0.2,0.2,0.8","0.8,0.2,0.2,0.2,0.8,0.2,0.2,0.2,0.8","1","",""
"","html-keyboard-response","25","115174","0.0-25.0","3DHE4R9OCXXFL5VAR4XZT856781G2J","A2YCMO8KFFQAJ9","3MXX6RQ9EVRTFC527Z18RDK8KW6P4R","","null","<img src=""img/land4.png"" style=""width:200px;border:14px solid red;"">","null","","","","","","","","","",""
"","image-keyboard-response","26","115894","0.0-26.0","3DHE4R9OCXXFL5VAR4XZT856781G2J","A2YCMO8KFFQAJ9","3MXX6RQ9EVRTFC527Z18RDK8KW6P4R","","719.3000000119209","img/land4.png","74","720.3999999761581","1","1","1","2","0.8,0.2,0.2,0.2,0.8,0.2,0.2,0.2,0.8","0.8,0.2,0.2,0.2,0.8,0.2,0.2,0.2,0.8","1","",""
"","html-keyboard-response","27","116198","0.0-27.0","3DHE4R9OCXXFL5VAR4XZT856781G2J","A2YCMO8KFFQAJ9","3MXX6RQ9EVRTFC527Z18RDK8KW6P4R","","null","<img src=""img/land4.png"" style=""width:200px; border:14px solid green;"">","null","","","","","","","","","",""
"","image-keyboard-response","28","116540","0.0-28.0","3DHE4R9OCXXFL5VAR4XZT856781G2J","A2YCMO8KFFQAJ9","3MXX6RQ9EVRTFC527Z18RDK8KW6P4R","","341","img/land4.png","74","342.2000000178814","1","1","1","2","0.8,0.2,0.2,0.2,0.8,0.2,0.2,0.2,0.8","0.8,0.2,0.2,0.2,0.8,0.2,0.2,0.2,0.8","1","",""
"","html-keyboard-response","29","116846","0.0-29.0","3DHE4R9OCXXFL5VAR4XZT856781G2J","A2YCMO8KFFQAJ9","3MXX6RQ9EVRTFC527Z18RDK8KW6P4R","","null","<img src=""img/land4.png"" style=""width:200px; border:14px solid green;"">","null","","","","","","","","","",""
"","image-keyboard-response","30","117365","0.0-30.0","3DHE4R9OCXXFL5VAR4XZT856781G2J","A2YCMO8KFFQAJ9","3MXX6RQ9EVRTFC527Z18RDK8KW6P4R","","517.2999999821186","img/land4.png","74","518.4000000059605","1","0","1","2","0.8,0.2,0.2,0.2,0.8,0.2,0.2,0.2,0.8","0.8,0.2,0.2,0.2,0.8,0.2,0.2,0.2,0.8","1","",""
"","html-keyboard-response","31","117670","0.0-31.0","3DHE4R9OCXXFL5VAR4XZT856781G2J","A2YCMO8KFFQAJ9","3MXX6RQ9EVRTFC527Z18RDK8KW6P4R","","null","<img src=""img/land4.png"" style=""width:200px;border:14px solid red;"">","null","","","","","","","","","",""
"","image-keyboard-response","32","118182","0.0-32.0","3DHE4R9OCXXFL5VAR4XZT856781G2J","A2YCMO8KFFQAJ9","3MXX6RQ9EVRTFC527Z18RDK8KW6P4R","","510.90000000596046","img/land4.png","75","512.1000000238419","2","0","1","2","0.8,0.2,0.2,0.2,0.8,0.2,0.2,0.2,0.8","0.8,0.2,0.2,0.2,0.8,0.2,0.2,0.2,0.8","1","",""
"","html-keyboard-response","33","118486","0.0-33.0","3DHE4R9OCXXFL5VAR4XZT856781G2J","A2YCMO8KFFQAJ9","3MXX6RQ9EVRTFC527Z18RDK8KW6P4R","","null","<img src=""img/land4.png"" style=""width:200px;border:14px solid red;"">","null","","","","","","","","","",""
"","image-keyboard-response","34","119051","0.0-34.0","3DHE4R9OCXXFL5VAR4XZT856781G2J","A2YCMO8KFFQAJ9","3MXX6RQ9EVRTFC527Z18RDK8KW6P4R","","563.5999999940395","img/land2.png","76","564.7999999821186","3","0","2","2","0.8,0.2,0.2,0.2,0.8,0.2,0.2,0.2,0.8","0.8,0.2,0.2,0.2,0.8,0.2,0.2,0.2,0.8","1","",""
"","html-keyboard-response","35","119358","0.0-35.0","3DHE4R9OCXXFL5VAR4XZT856781G2J","A2YCMO8KFFQAJ9","3MXX6RQ9EVRTFC527Z18RDK8KW6P4R","","null","<img src=""img/land2.png"" style=""width:200px;border:14px solid red;"">","null","","","","","","","","","",""
"","image-keyboard-response","36","119596","0.0-36.0","3DHE4R9OCXXFL5VAR4XZT856781G2J","A2YCMO8KFFQAJ9","3MXX6RQ9EVRTFC527Z18RDK8KW6P4R","","236.5","img/land2.png","76","237.80000001192093","3","0","2","2","0.8,0.2,0.2,0.2,0.8,0.2,0.2,0.2,0.8","0.8,0.2,0.2,0.2,0.8,0.2,0.2,0.2,0.8","1","",""
"","html-keyboard-response","37","119902","0.0-37.0","3DHE4R9OCXXFL5VAR4XZT856781G2J","A2YCMO8KFFQAJ9","3MXX6RQ9EVRTFC527Z18RDK8KW6P4R","","null","<img src=""img/land2.png"" style=""width:200px;border:14px solid red;"">","null","","","","","","","","","",""
"","image-keyboard-response","38","120348","0.0-38.0","3DHE4R9OCXXFL5VAR4XZT856781G2J","A2YCMO8KFFQAJ9","3MXX6RQ9EVRTFC527Z18RDK8KW6P4R","","444.19999998807907","img/land4.png","75","445.59999999403954","2","0","1","2","0.8,0.2,0.2,0.2,0.8,0.2,0.2,0.2,0.8","0.8,0.2,0.2,0.2,0.8,0.2,0.2,0.2,0.8","1","",""
"","html-keyboard-response","39","120654","0.0-39.0","3DHE4R9OCXXFL5VAR4XZT856781G2J","A2YCMO8KFFQAJ9","3MXX6RQ9EVRTFC527Z18RDK8KW6P4R","","null","<img src=""img/land4.png"" style=""width:200px;border:14px solid red;"">","null","","","","","","","","","",""
"","image-keyboard-response","40","121792","0.0-40.0","3DHE4R9OCXXFL5VAR4XZT856781G2J","A2YCMO8KFFQAJ9","3MXX6RQ9EVRTFC527Z18RDK8KW6P4R","","1136.0999999940395","img/land2.png","74","1137.2000000178814","1","1","2","2","0.8,0.2,0.2,0.2,0.8,0.2,0.2,0.2,0.8","0.8,0.2,0.2,0.2,0.8,0.2,0.2,0.2,0.8","1","",""
"","html-keyboard-response","41","122094","0.0-41.0","3DHE4R9OCXXFL5VAR4XZT856781G2J","A2YCMO8KFFQAJ9","3MXX6RQ9EVRTFC527Z18RDK8KW6P4R","","null","<img src=""img/land2.png"" style=""width:200px; border:14px solid green;"">","null","","","","","","","","","",""
"","image-keyboard-response","42","122740","0.0-42.0","3DHE4R9OCXXFL5VAR4XZT856781G2J","A2YCMO8KFFQAJ9","3MXX6RQ9EVRTFC527Z18RDK8KW6P4R","","644.5","img/land4.png","74","645.9000000059605","1","1","1","2","0.8,0.2,0.2,0.2,0.8,0.2,0.2,0.2,0.8","0.8,0.2,0.2,0.2,0.8,0.2,0.2,0.2,0.8","1","",""
"","html-keyboard-response","43","123046","0.0-43.0","3DHE4R9OCXXFL5VAR4XZT856781G2J","A2YCMO8KFFQAJ9","3MXX6RQ9EVRTFC527Z18RDK8KW6P4R","","null","<img src=""img/land4.png"" style=""width:200px; border:14px solid green;"">","null","","","","","","","","","",""
"","image-keyboard-response","44","124043","0.0-44.0","3DHE4R9OCXXFL5VAR4XZT856781G2J","A2YCMO8KFFQAJ9","3MXX6RQ9EVRTFC527Z18RDK8KW6P4R","","995.8999999761581","img/land4.png","75","997.1999999880791","2","0","1","2","0.8,0.2,0.2,0.2,0.8,0.2,0.2,0.2,0.8","0.8,0.2,0.2,0.2,0.8,0.2,0.2,0.2,0.8","1","",""
"","html-keyboard-response","45","124350","0.0-45.0","3DHE4R9OCXXFL5VAR4XZT856781G2J","A2YCMO8KFFQAJ9","3MXX6RQ9EVRTFC527Z18RDK8KW6P4R","","null","<img src=""img/land4.png"" style=""width:200px;border:14px solid red;"">","null","","","","","","","","","",""
"","image-keyboard-response","46","124770","0.0-46.0","3DHE4R9OCXXFL5VAR4XZT856781G2J","A2YCMO8KFFQAJ9","3MXX6RQ9EVRTFC527Z18RDK8KW6P4R","","418.80000001192093","img/land2.png","74","420","1","0","2","2","0.8,0.2,0.2,0.2,0.8,0.2,0.2,0.2,0.8","0.8,0.2,0.2,0.2,0.8,0.2,0.2,0.2,0.8","1","",""
"","html-keyboard-response","47","125078","0.0-47.0","3DHE4R9OCXXFL5VAR4XZT856781G2J","A2YCMO8KFFQAJ9","3MXX6RQ9EVRTFC527Z18RDK8KW6P4R","","null","<img src=""img/land2.png"" style=""width:200px;border:14px solid red;"">","null","","","","","","","","","",""
"","image-keyboard-response","48","125692","0.0-48.0","3DHE4R9OCXXFL5VAR4XZT856781G2J","A2YCMO8KFFQAJ9","3MXX6RQ9EVRTFC527Z18RDK8KW6P4R","","612.9000000059605","img/land4.png","76","614","3","0","1","2","0.8,0.2,0.2,0.2,0.8,0.2,0.2,0.2,0.8","0.8,0.2,0.2,0.2,0.8,0.2,0.2,0.2,0.8","1","",""
"","html-keyboard-response","49","125998","0.0-49.0","3DHE4R9OCXXFL5VAR4XZT856781G2J","A2YCMO8KFFQAJ9","3MXX6RQ9EVRTFC527Z18RDK8KW6P4R","","null","<img src=""img/land4.png"" style=""width:200px;border:14px solid red;"">","null","","","","","","","","","",""
"","image-keyboard-response","50","126498","0.0-50.0","3DHE4R9OCXXFL5VAR4XZT856781G2J","A2YCMO8KFFQAJ9","3MXX6RQ9EVRTFC527Z18RDK8KW6P4R","","498","img/land1.png","76","499.40000000596046","3","0","3","2","0.8,0.2,0.2,0.2,0.8,0.2,0.2,0.2,0.8","0.8,0.2,0.2,0.2,0.8,0.2,0.2,0.2,0.8","1","",""
"","html-keyboard-response","51","126806","0.0-51.0","3DHE4R9OCXXFL5VAR4XZT856781G2J","A2YCMO8KFFQAJ9","3MXX6RQ9EVRTFC527Z18RDK8KW6P4R","","null","<img src=""img/land1.png"" style=""width:200px;border:14px solid red;"">","null","","","","","","","","","",""
"","image-keyboard-response","52","126974","0.0-52.0","3DHE4R9OCXXFL5VAR4XZT856781G2J","A2YCMO8KFFQAJ9","3MXX6RQ9EVRTFC527Z18RDK8KW6P4R","","166.30000001192093","img/land1.png","75","167.5","2","1","3","2","0.8,0.2,0.2,0.2,0.8,0.2,0.2,0.2,0.8","0.8,0.2,0.2,0.2,0.8,0.2,0.2,0.2,0.8","1","",""
"","html-keyboard-response","53","127278","0.0-53.0","3DHE4R9OCXXFL5VAR4XZT856781G2J","A2YCMO8KFFQAJ9","3MXX6RQ9EVRTFC527Z18RDK8KW6P4R","","null","<img src=""img/land1.png"" style=""width:200px; border:14px solid green;"">","null","","","","","","","","","",""
"","image-keyboard-response","54","127474","0.0-54.0","3DHE4R9OCXXFL5VAR4XZT856781G2J","A2YCMO8KFFQAJ9","3MXX6RQ9EVRTFC527Z18RDK8KW6P4R","","195","img/land4.png","75","196.2000000178814","2","0","1","2","0.8,0.2,0.2,0.2,0.8,0.2,0.2,0.2,0.8","0.8,0.2,0.2,0.2,0.8,0.2,0.2,0.2,0.8","1","",""
"","html-keyboard-response","55","127782","0.0-55.0","3DHE4R9OCXXFL5VAR4XZT856781G2J","A2YCMO8KFFQAJ9","3MXX6RQ9EVRTFC527Z18RDK8KW6P4R","","null","<img src=""img/land4.png"" style=""width:200px;border:14px solid red;"">","null","","","","","","","","","",""
"","image-keyboard-response","56","128280","0.0-56.0","3DHE4R9OCXXFL5VAR4XZT856781G2J","A2YCMO8KFFQAJ9","3MXX6RQ9EVRTFC527Z18RDK8KW6P4R","","496.90000000596046","img/land4.png","74","497.90000000596046","1","1","1","2","0.8,0.2,0.2,0.2,0.8,0.2,0.2,0.2,0.8","0.8,0.2,0.2,0.2,0.8,0.2,0.2,0.2,0.8","1","",""
"","html-keyboard-response","57","128582","0.0-57.0","3DHE4R9OCXXFL5VAR4XZT856781G2J","A2YCMO8KFFQAJ9","3MXX6RQ9EVRTFC527Z18RDK8KW6P4R","","null","<img src=""img/land4.png"" style=""width:200px; border:14px solid green;"">","null","","","","","","","","","",""
"","image-keyboard-response","58","128972","0.0-58.0","3DHE4R9OCXXFL5VAR4XZT856781G2J","A2YCMO8KFFQAJ9","3MXX6RQ9EVRTFC527Z18RDK8KW6P4R","","388.2999999821186","img/land4.png","74","389.59999999403954","1","1","1","2","0.8,0.2,0.2,0.2,0.8,0.2,0.2,0.2,0.8","0.8,0.2,0.2,0.2,0.8,0.2,0.2,0.2,0.8","1","",""
"","html-keyboard-response","59","129278","0.0-59.0","3DHE4R9OCXXFL5VAR4XZT856781G2J","A2YCMO8KFFQAJ9","3MXX6RQ9EVRTFC527Z18RDK8KW6P4R","","null","<img src=""img/land4.png"" style=""width:200px; border:14px solid green;"">","null","","","","","","","","","",""
"","image-keyboard-response","60","129846","0.0-60.0","3DHE4R9OCXXFL5VAR4XZT856781G2J","A2YCMO8KFFQAJ9","3MXX6RQ9EVRTFC527Z18RDK8KW6P4R","","566.1999999880791","img/land4.png","74","567.5999999940395","1","0","1","2","0.8,0.2,0.2,0.2,0.8,0.2,0.2,0.2,0.8","0.8,0.2,0.2,0.2,0.8,0.2,0.2,0.2,0.8","1","",""
"","html-keyboard-response","61","130150","0.0-61.0","3DHE4R9OCXXFL5VAR4XZT856781G2J","A2YCMO8KFFQAJ9","3MXX6RQ9EVRTFC527Z18RDK8KW6P4R","","null","<img src=""img/land4.png"" style=""width:200px;border:14px solid red;"">","null","","","","","","","","","",""
"","image-keyboard-response","62","130318","0.0-62.0","3DHE4R9OCXXFL5VAR4XZT856781G2J","A2YCMO8KFFQAJ9","3MXX6RQ9EVRTFC527Z18RDK8KW6P4R","","166.5","img/land1.png","75","167.89999997615814","2","0","3","2","0.8,0.2,0.2,0.2,0.8,0.2,0.2,0.2,0.8","0.8,0.2,0.2,0.2,0.8,0.2,0.2,0.2,0.8","1","",""
"","html-keyboard-response","63","130622","0.0-63.0","3DHE4R9OCXXFL5VAR4XZT856781G2J","A2YCMO8KFFQAJ9","3MXX6RQ9EVRTFC527Z18RDK8KW6P4R","","null","<img src=""img/land1.png"" style=""width:200px;border:14px solid red;"">","null","","","","","","","","","",""
"","image-keyboard-response","64","130788","0.0-64.0","3DHE4R9OCXXFL5VAR4XZT856781G2J","A2YCMO8KFFQAJ9","3MXX6RQ9EVRTFC527Z18RDK8KW6P4R","","164.69999998807907","img/land4.png","75","166.19999998807907","2","1","1","2","0.8,0.2,0.2,0.2,0.8,0.2,0.2,0.2,0.8","0.8,0.2,0.2,0.2,0.8,0.2,0.2,0.2,0.8","1","",""
"","html-keyboard-response","65","131094","0.0-65.0","3DHE4R9OCXXFL5VAR4XZT856781G2J","A2YCMO8KFFQAJ9","3MXX6RQ9EVRTFC527Z18RDK8KW6P4R","","null","<img src=""img/land4.png"" style=""width:200px; border:14px solid green;"">","null","","","","","","","","","",""
"","image-keyboard-response","66","131276","0.0-66.0","3DHE4R9OCXXFL5VAR4XZT856781G2J","A2YCMO8KFFQAJ9","3MXX6RQ9EVRTFC527Z18RDK8KW6P4R","","181","img/land2.png","75","182.09999999403954","2","1","2","2","0.8,0.2,0.2,0.2,0.8,0.2,0.2,0.2,0.8","0.8,0.2,0.2,0.2,0.8,0.2,0.2,0.2,0.8","1","",""
"","html-keyboard-response","67","131582","0.0-67.0","3DHE4R9OCXXFL5VAR4XZT856781G2J","A2YCMO8KFFQAJ9","3MXX6RQ9EVRTFC527Z18RDK8KW6P4R","","null","<img src=""img/land2.png"" style=""width:200px; border:14px solid green;"">","null","","","","","","","","","",""
"","image-keyboard-response","68","132173","0.0-68.0","3DHE4R9OCXXFL5VAR4XZT856781G2J","A2YCMO8KFFQAJ9","3MXX6RQ9EVRTFC527Z18RDK8KW6P4R","","589.6999999880791","img/land4.png","75","591.0999999940395","2","0","1","2","0.8,0.2,0.2,0.2,0.8,0.2,0.2,0.2,0.8","0.8,0.2,0.2,0.2,0.8,0.2,0.2,0.2,0.8","1","",""
"","html-keyboard-response","69","132478","0.0-69.0","3DHE4R9OCXXFL5VAR4XZT856781G2J","A2YCMO8KFFQAJ9","3MXX6RQ9EVRTFC527Z18RDK8KW6P4R","","null","<img src=""img/land4.png"" style=""width:200px;border:14px solid red;"">","null","","","","","","","","","",""
"","image-keyboard-response","70","132978","0.0-70.0","3DHE4R9OCXXFL5VAR4XZT856781G2J","A2YCMO8KFFQAJ9","3MXX6RQ9EVRTFC527Z18RDK8KW6P4R","","499.09999999403954","img/land4.png","76","500.39999997615814","3","0","1","2","0.8,0.2,0.2,0.2,0.8,0.2,0.2,0.2,0.8","0.8,0.2,0.2,0.2,0.8,0.2,0.2,0.2,0.8","1","",""
"","html-keyboard-response","71","133286","0.0-71.0","3DHE4R9OCXXFL5VAR4XZT856781G2J","A2YCMO8KFFQAJ9","3MXX6RQ9EVRTFC527Z18RDK8KW6P4R","","null","<img src=""img/land4.png"" style=""width:200px;border:14px solid red;"">","null","","","","","","","","","",""
"","image-keyboard-response","72","133994","0.0-72.0","3DHE4R9OCXXFL5VAR4XZT856781G2J","A2YCMO8KFFQAJ9","3MXX6RQ9EVRTFC527Z18RDK8KW6P4R","","706.6999999880791","img/land4.png","75","708","2","0","1","2","0.8,0.2,0.2,0.2,0.8,0.2,0.2,0.2,0.8","0.8,0.2,0.2,0.2,0.8,0.2,0.2,0.2,0.8","1","",""
"","html-keyboard-response","73","134302","0.0-73.0","3DHE4R9OCXXFL5VAR4XZT856781G2J","A2YCMO8KFFQAJ9","3MXX6RQ9EVRTFC527Z18RDK8KW6P4R","","null","<img src=""img/land4.png"" style=""width:200px;border:14px solid red;"">","null","","","","","","","","","",""
"","image-keyboard-response","74","134485","0.0-74.0","3DHE4R9OCXXFL5VAR4XZT856781G2J","A2YCMO8KFFQAJ9","3MXX6RQ9EVRTFC527Z18RDK8KW6P4R","","181.5","img/land4.png","74","182.80000001192093","1","1","1","2","0.8,0.2,0.2,0.2,0.8,0.2,0.2,0.2,0.8","0.8,0.2,0.2,0.2,0.8,0.2,0.2,0.2,0.8","1","",""
"","html-keyboard-response","75","134790","0.0-75.0","3DHE4R9OCXXFL5VAR4XZT856781G2J","A2YCMO8KFFQAJ9","3MXX6RQ9EVRTFC527Z18RDK8KW6P4R","","null","<img src=""img/land4.png"" style=""width:200px; border:14px solid green;"">","null","","","","","","","","","",""
"","image-keyboard-response","76","135021","0.0-76.0","3DHE4R9OCXXFL5VAR4XZT856781G2J","A2YCMO8KFFQAJ9","3MXX6RQ9EVRTFC527Z18RDK8KW6P4R","","229.30000001192093","img/land4.png","74","230.40000000596046","1","1","1","2","0.8,0.2,0.2,0.2,0.8,0.2,0.2,0.2,0.8","0.8,0.2,0.2,0.2,0.8,0.2,0.2,0.2,0.8","1","",""
"","html-keyboard-response","77","135326","0.0-77.0","3DHE4R9OCXXFL5VAR4XZT856781G2J","A2YCMO8KFFQAJ9","3MXX6RQ9EVRTFC527Z18RDK8KW6P4R","","null","<img src=""img/land4.png"" style=""width:200px; border:14px solid green;"">","null","","","","","","","","","",""
"","image-keyboard-response","78","137334","0.0-78.0","3DHE4R9OCXXFL5VAR4XZT856781G2J","A2YCMO8KFFQAJ9","3MXX6RQ9EVRTFC527Z18RDK8KW6P4R","","","img/land4.png","","2007.7999999821186","-1","0","1","2","0.8,0.2,0.2,0.2,0.8,0.2,0.2,0.2,0.8","0.8,0.2,0.2,0.2,0.8,0.2,0.2,0.2,0.8","1","",""
"","html-keyboard-response","79","137638","0.0-79.0","3DHE4R9OCXXFL5VAR4XZT856781G2J","A2YCMO8KFFQAJ9","3MXX6RQ9EVRTFC527Z18RDK8KW6P4R","","null","<img src=""img/land4.png"" style=""width:200px;border:14px solid red;"">","null","","","","","","","","","",""
"","image-keyboard-response","80","138180","0.0-80.0","3DHE4R9OCXXFL5VAR4XZT856781G2J","A2YCMO8KFFQAJ9","3MXX6RQ9EVRTFC527Z18RDK8KW6P4R","","540.6999999880791","img/land4.png","76","542","3","0","1","2","0.8,0.2,0.2,0.2,0.8,0.2,0.2,0.2,0.8","0.8,0.2,0.2,0.2,0.8,0.2,0.2,0.2,0.8","1","",""
"","html-keyboard-response","81","138486","0.0-81.0","3DHE4R9OCXXFL5VAR4XZT856781G2J","A2YCMO8KFFQAJ9","3MXX6RQ9EVRTFC527Z18RDK8KW6P4R","","null","<img src=""img/land4.png"" style=""width:200px;border:14px solid red;"">","null","","","","","","","","","",""
"","image-keyboard-response","82","138759","0.0-82.0","3DHE4R9OCXXFL5VAR4XZT856781G2J","A2YCMO8KFFQAJ9","3MXX6RQ9EVRTFC527Z18RDK8KW6P4R","","271.59999999403954","img/land2.png","75","273","2","1","2","2","0.8,0.2,0.2,0.2,0.8,0.2,0.2,0.2,0.8","0.8,0.2,0.2,0.2,0.8,0.2,0.2,0.2,0.8","1","",""
"","html-keyboard-response","83","139062","0.0-83.0","3DHE4R9OCXXFL5VAR4XZT856781G2J","A2YCMO8KFFQAJ9","3MXX6RQ9EVRTFC527Z18RDK8KW6P4R","","null","<img src=""img/land2.png"" style=""width:200px; border:14px solid green;"">","null","","","","","","","","","",""
"","image-keyboard-response","84","139288","0.0-84.0","3DHE4R9OCXXFL5VAR4XZT856781G2J","A2YCMO8KFFQAJ9","3MXX6RQ9EVRTFC527Z18RDK8KW6P4R","","224.5","img/land1.png","75","226","2","0","3","2","0.8,0.2,0.2,0.2,0.8,0.2,0.2,0.2,0.8","0.8,0.2,0.2,0.2,0.8,0.2,0.2,0.2,0.8","1","",""
"","html-keyboard-response","85","139590","0.0-85.0","3DHE4R9OCXXFL5VAR4XZT856781G2J","A2YCMO8KFFQAJ9","3MXX6RQ9EVRTFC527Z18RDK8KW6P4R","","null","<img src=""img/land1.png"" style=""width:200px;border:14px solid red;"">","null","","","","","","","","","",""
"","image-keyboard-response","86","139807","0.0-86.0","3DHE4R9OCXXFL5VAR4XZT856781G2J","A2YCMO8KFFQAJ9","3MXX6RQ9EVRTFC527Z18RDK8KW6P4R","","215.19999998807907","img/land4.png","75","216.30000001192093","2","0","1","2","0.8,0.2,0.2,0.2,0.8,0.2,0.2,0.2,0.8","0.8,0.2,0.2,0.2,0.8,0.2,0.2,0.2,0.8","1","",""
"","html-keyboard-response","87","140110","0.0-87.0","3DHE4R9OCXXFL5VAR4XZT856781G2J","A2YCMO8KFFQAJ9","3MXX6RQ9EVRTFC527Z18RDK8KW6P4R","","null","<img src=""img/land4.png"" style=""width:200px;border:14px solid red;"">","null","","","","","","","","","",""
"","image-keyboard-response","88","140396","0.0-88.0","3DHE4R9OCXXFL5VAR4XZT856781G2J","A2YCMO8KFFQAJ9","3MXX6RQ9EVRTFC527Z18RDK8KW6P4R","","284","img/land4.png","74","285.2000000178814","1","1","1","2","0.8,0.2,0.2,0.2,0.8,0.2,0.2,0.2,0.8","0.8,0.2,0.2,0.2,0.8,0.2,0.2,0.2,0.8","1","",""
"","html-keyboard-response","89","140702","0.0-89.0","3DHE4R9OCXXFL5VAR4XZT856781G2J","A2YCMO8KFFQAJ9","3MXX6RQ9EVRTFC527Z18RDK8KW6P4R","","null","<img src=""img/land4.png"" style=""width:200px; border:14px solid green;"">","null","","","","","","","","","",""
"","image-keyboard-response","90","140957","0.0-90.0","3DHE4R9OCXXFL5VAR4XZT856781G2J","A2YCMO8KFFQAJ9","3MXX6RQ9EVRTFC527Z18RDK8KW6P4R","","253.59999999403954","img/land2.png","75","255","2","0","2","2","0.8,0.2,0.2,0.2,0.8,0.2,0.2,0.2,0.8","0.8,0.2,0.2,0.2,0.8,0.2,0.2,0.2,0.8","1","",""
"","html-keyboard-response","91","141262","0.0-91.0","3DHE4R9OCXXFL5VAR4XZT856781G2J","A2YCMO8KFFQAJ9","3MXX6RQ9EVRTFC527Z18RDK8KW6P4R","","null","<img src=""img/land2.png"" style=""width:200px;border:14px solid red;"">","null","","","","","","","","","",""
"","image-keyboard-response","92","141649","0.0-92.0","3DHE4R9OCXXFL5VAR4XZT856781G2J","A2YCMO8KFFQAJ9","3MXX6RQ9EVRTFC527Z18RDK8KW6P4R","","385.69999998807907","img/land4.png","74","386.90000000596046","1","1","1","2","0.8,0.2,0.2,0.2,0.8,0.2,0.2,0.2,0.8","0.8,0.2,0.2,0.2,0.8,0.2,0.2,0.2,0.8","1","",""
"","html-keyboard-response","93","141958","0.0-93.0","3DHE4R9OCXXFL5VAR4XZT856781G2J","A2YCMO8KFFQAJ9","3MXX6RQ9EVRTFC527Z18RDK8KW6P4R","","null","<img src=""img/land4.png"" style=""width:200px; border:14px solid green;"">","null","","","","","","","","","",""
"","image-keyboard-response","94","142025","0.0-94.0","3DHE4R9OCXXFL5VAR4XZT856781G2J","A2YCMO8KFFQAJ9","3MXX6RQ9EVRTFC527Z18RDK8KW6P4R","","65.40000000596046","img/land4.png","74","66.40000000596046","1","1","1","2","0.8,0.2,0.2,0.2,0.8,0.2,0.2,0.2,0.8","0.8,0.2,0.2,0.2,0.8,0.2,0.2,0.2,0.8","1","",""
"","html-keyboard-response","95","142334","0.0-95.0","3DHE4R9OCXXFL5VAR4XZT856781G2J","A2YCMO8KFFQAJ9","3MXX6RQ9EVRTFC527Z18RDK8KW6P4R","","null","<img src=""img/land4.png"" style=""width:200px; border:14px solid green;"">","null","","","","","","","","","",""
"","image-keyboard-response","96","142512","0.0-96.0","3DHE4R9OCXXFL5VAR4XZT856781G2J","A2YCMO8KFFQAJ9","3MXX6RQ9EVRTFC527Z18RDK8KW6P4R","","176.60000002384186","img/land1.png","74","178","1","1","3","2","0.8,0.2,0.2,0.2,0.8,0.2,0.2,0.2,0.8","0.8,0.2,0.2,0.2,0.8,0.2,0.2,0.2,0.8","1","",""
"","html-keyboard-response","97","142814","0.0-97.0","3DHE4R9OCXXFL5VAR4XZT856781G2J","A2YCMO8KFFQAJ9","3MXX6RQ9EVRTFC527Z18RDK8KW6P4R","","null","<img src=""img/land1.png"" style=""width:200px; border:14px solid green;"">","null","","","","","","","","","",""
"","image-keyboard-response","98","143221","0.0-98.0","3DHE4R9OCXXFL5VAR4XZT856781G2J","A2YCMO8KFFQAJ9","3MXX6RQ9EVRTFC527Z18RDK8KW6P4R","","405.40000000596046","img/land2.png","74","406.59999999403954","1","0","2","2","0.8,0.2,0.2,0.2,0.8,0.2,0.2,0.2,0.8","0.8,0.2,0.2,0.2,0.8,0.2,0.2,0.2,0.8","1","",""
"","html-keyboard-response","99","143526","0.0-99.0","3DHE4R9OCXXFL5VAR4XZT856781G2J","A2YCMO8KFFQAJ9","3MXX6RQ9EVRTFC527Z18RDK8KW6P4R","","null","<img src=""img/land2.png"" style=""width:200px;border:14px solid red;"">","null","","","","","","","","","",""
"","image-keyboard-response","100","143755","0.0-100.0","3DHE4R9OCXXFL5VAR4XZT856781G2J","A2YCMO8KFFQAJ9","3MXX6RQ9EVRTFC527Z18RDK8KW6P4R","","227.69999998807907","img/land2.png","75","229","2","1","2","2","0.8,0.2,0.2,0.2,0.8,0.2,0.2,0.2,0.8","0.8,0.2,0.2,0.2,0.8,0.2,0.2,0.2,0.8","1","",""
"","html-keyboard-response","101","144062","0.0-101.0","3DHE4R9OCXXFL5VAR4XZT856781G2J","A2YCMO8KFFQAJ9","3MXX6RQ9EVRTFC527Z18RDK8KW6P4R","","null","<img src=""img/land2.png"" style=""width:200px; border:14px solid green;"">","null","","","","","","","","","",""
"","image-keyboard-response","102","144264","0.0-102.0","3DHE4R9OCXXFL5VAR4XZT856781G2J","A2YCMO8KFFQAJ9","3MXX6RQ9EVRTFC527Z18RDK8KW6P4R","","200.19999998807907","img/land2.png","75","201.59999999403954","2","1","2","2","0.8,0.2,0.2,0.2,0.8,0.2,0.2,0.2,0.8","0.8,0.2,0.2,0.2,0.8,0.2,0.2,0.2,0.8","1","",""
"","html-keyboard-response","103","144566","0.0-103.0","3DHE4R9OCXXFL5VAR4XZT856781G2J","A2YCMO8KFFQAJ9","3MXX6RQ9EVRTFC527Z18RDK8KW6P4R","","null","<img src=""img/land2.png"" style=""width:200px; border:14px solid green;"">","null","","","","","","","","","",""
"","image-keyboard-response","104","144841","0.0-104.0","3DHE4R9OCXXFL5VAR4XZT856781G2J","A2YCMO8KFFQAJ9","3MXX6RQ9EVRTFC527Z18RDK8KW6P4R","","273.89999997615814","img/land2.png","75","275","2","1","2","2","0.8,0.2,0.2,0.2,0.8,0.2,0.2,0.2,0.8","0.8,0.2,0.2,0.2,0.8,0.2,0.2,0.2,0.8","1","",""
"","html-keyboard-response","105","145150","0.0-105.0","3DHE4R9OCXXFL5VAR4XZT856781G2J","A2YCMO8KFFQAJ9","3MXX6RQ9EVRTFC527Z18RDK8KW6P4R","","null","<img src=""img/land2.png"" style=""width:200px; border:14px solid green;"">","null","","","","","","","","","",""
"","image-keyboard-response","106","146375","0.0-106.0","3DHE4R9OCXXFL5VAR4XZT856781G2J","A2YCMO8KFFQAJ9","3MXX6RQ9EVRTFC527Z18RDK8KW6P4R","","1224.2000000178814","img/land4.png","76","1225.0999999940395","3","0","1","2","0.8,0.2,0.2,0.2,0.8,0.2,0.2,0.2,0.8","0.8,0.2,0.2,0.2,0.8,0.2,0.2,0.2,0.8","1","",""
"","html-keyboard-response","107","146678","0.0-107.0","3DHE4R9OCXXFL5VAR4XZT856781G2J","A2YCMO8KFFQAJ9","3MXX6RQ9EVRTFC527Z18RDK8KW6P4R","","null","<img src=""img/land4.png"" style=""width:200px;border:14px solid red;"">","null","","","","","","","","","",""
"","image-keyboard-response","108","146941","0.0-108.0","3DHE4R9OCXXFL5VAR4XZT856781G2J","A2YCMO8KFFQAJ9","3MXX6RQ9EVRTFC527Z18RDK8KW6P4R","","261.09999999403954","img/land2.png","75","262.40000000596046","2","1","2","2","0.8,0.2,0.2,0.2,0.8,0.2,0.2,0.2,0.8","0.8,0.2,0.2,0.2,0.8,0.2,0.2,0.2,0.8","1","",""
"","html-keyboard-response","109","147246","0.0-109.0","3DHE4R9OCXXFL5VAR4XZT856781G2J","A2YCMO8KFFQAJ9","3MXX6RQ9EVRTFC527Z18RDK8KW6P4R","","null","<img src=""img/land2.png"" style=""width:200px; border:14px solid green;"">","null","","","","","","","","","",""
"","image-keyboard-response","110","147357","0.0-110.0","3DHE4R9OCXXFL5VAR4XZT856781G2J","A2YCMO8KFFQAJ9","3MXX6RQ9EVRTFC527Z18RDK8KW6P4R","","109.2999999821186","img/land4.png","75","110.69999998807907","2","0","1","2","0.8,0.2,0.2,0.2,0.8,0.2,0.2,0.2,0.8","0.8,0.2,0.2,0.2,0.8,0.2,0.2,0.2,0.8","1","",""
"","html-keyboard-response","111","147662","0.0-111.0","3DHE4R9OCXXFL5VAR4XZT856781G2J","A2YCMO8KFFQAJ9","3MXX6RQ9EVRTFC527Z18RDK8KW6P4R","","null","<img src=""img/land4.png"" style=""width:200px;border:14px solid red;"">","null","","","","","","","","","",""
"","image-keyboard-response","112","148166","0.0-112.0","3DHE4R9OCXXFL5VAR4XZT856781G2J","A2YCMO8KFFQAJ9","3MXX6RQ9EVRTFC527Z18RDK8KW6P4R","","502.59999999403954","img/land2.png","74","503.5","1","0","2","2","0.8,0.2,0.2,0.2,0.8,0.2,0.2,0.2,0.8","0.8,0.2,0.2,0.2,0.8,0.2,0.2,0.2,0.8","1","",""
"","html-keyboard-response","113","148467","0.0-113.0","3DHE4R9OCXXFL5VAR4XZT856781G2J","A2YCMO8KFFQAJ9","3MXX6RQ9EVRTFC527Z18RDK8KW6P4R","","null","<img src=""img/land2.png"" style=""width:200px;border:14px solid red;"">","null","","","","","","","","","",""
"","image-keyboard-response","114","149217","0.0-114.0","3DHE4R9OCXXFL5VAR4XZT856781G2J","A2YCMO8KFFQAJ9","3MXX6RQ9EVRTFC527Z18RDK8KW6P4R","","748.5","img/land4.png","74","749.6999999880791","1","0","1","2","0.8,0.2,0.2,0.2,0.8,0.2,0.2,0.2,0.8","0.8,0.2,0.2,0.2,0.8,0.2,0.2,0.2,0.8","1","",""
"","html-keyboard-response","115","149526","0.0-115.0","3DHE4R9OCXXFL5VAR4XZT856781G2J","A2YCMO8KFFQAJ9","3MXX6RQ9EVRTFC527Z18RDK8KW6P4R","","null","<img src=""img/land4.png"" style=""width:200px;border:14px solid red;"">","null","","","","","","","","","",""
"","image-keyboard-response","116","149638","0.0-116.0","3DHE4R9OCXXFL5VAR4XZT856781G2J","A2YCMO8KFFQAJ9","3MXX6RQ9EVRTFC527Z18RDK8KW6P4R","","110.09999999403954","img/land4.png","74","111.40000000596046","1","1","1","2","0.8,0.2,0.2,0.2,0.8,0.2,0.2,0.2,0.8","0.8,0.2,0.2,0.2,0.8,0.2,0.2,0.2,0.8","1","",""
"","html-keyboard-response","117","149942","0.0-117.0","3DHE4R9OCXXFL5VAR4XZT856781G2J","A2YCMO8KFFQAJ9","3MXX6RQ9EVRTFC527Z18RDK8KW6P4R","","null","<img src=""img/land4.png"" style=""width:200px; border:14px solid green;"">","null","","","","","","","","","",""
"","image-keyboard-response","118","150491","0.0-118.0","3DHE4R9OCXXFL5VAR4XZT856781G2J","A2YCMO8KFFQAJ9","3MXX6RQ9EVRTFC527Z18RDK8KW6P4R","","547.2000000178814","img/land4.png","74","548.5","1","1","1","2","0.8,0.2,0.2,0.2,0.8,0.2,0.2,0.2,0.8","0.8,0.2,0.2,0.2,0.8,0.2,0.2,0.2,0.8","1","",""
"","html-keyboard-response","119","150798","0.0-119.0","3DHE4R9OCXXFL5VAR4XZT856781G2J","A2YCMO8KFFQAJ9","3MXX6RQ9EVRTFC527Z18RDK8KW6P4R","","null","<img src=""img/land4.png"" style=""width:200px; border:14px solid green;"">","null","","","","","","","","","",""
"","image-keyboard-response","120","151565","0.0-120.0","3DHE4R9OCXXFL5VAR4XZT856781G2J","A2YCMO8KFFQAJ9","3MXX6RQ9EVRTFC527Z18RDK8KW6P4R","","766.0999999940395","img/land4.png","74","767.4000000059605","1","1","1","2","0.8,0.2,0.2,0.2,0.8,0.2,0.2,0.2,0.8","0.8,0.2,0.2,0.2,0.8,0.2,0.2,0.2,0.8","1","",""
"","html-keyboard-response","121","151870","0.0-121.0","3DHE4R9OCXXFL5VAR4XZT856781G2J","A2YCMO8KFFQAJ9","3MXX6RQ9EVRTFC527Z18RDK8KW6P4R","","null","<img src=""img/land4.png"" style=""width:200px; border:14px solid green;"">","null","","","","","","","","","",""
"","image-keyboard-response","122","152038","0.0-122.0","3DHE4R9OCXXFL5VAR4XZT856781G2J","A2YCMO8KFFQAJ9","3MXX6RQ9EVRTFC527Z18RDK8KW6P4R","","168","img/land4.png","74","168.69999998807907","1","0","1","2","0.8,0.2,0.2,0.2,0.8,0.2,0.2,0.2,0.8","0.8,0.2,0.2,0.2,0.8,0.2,0.2,0.2,0.8","1","",""
"","html-keyboard-response","123","152342","0.0-123.0","3DHE4R9OCXXFL5VAR4XZT856781G2J","A2YCMO8KFFQAJ9","3MXX6RQ9EVRTFC527Z18RDK8KW6P4R","","null","<img src=""img/land4.png"" style=""width:200px;border:14px solid red;"">","null","","","","","","","","","",""
"","image-keyboard-response","124","152681","0.0-124.0","3DHE4R9OCXXFL5VAR4XZT856781G2J","A2YCMO8KFFQAJ9","3MXX6RQ9EVRTFC527Z18RDK8KW6P4R","","337.09999999403954","img/land4.png","75","338.5","2","0","1","2","0.8,0.2,0.2,0.2,0.8,0.2,0.2,0.2,0.8","0.8,0.2,0.2,0.2,0.8,0.2,0.2,0.2,0.8","1","",""
"","html-keyboard-response","125","152990","0.0-125.0","3DHE4R9OCXXFL5VAR4XZT856781G2J","A2YCMO8KFFQAJ9","3MXX6RQ9EVRTFC527Z18RDK8KW6P4R","","null","<img src=""img/land4.png"" style=""width:200px;border:14px solid red;"">","null","","","","","","","","","",""
"","image-keyboard-response","126","153238","0.0-126.0","3DHE4R9OCXXFL5VAR4XZT856781G2J","A2YCMO8KFFQAJ9","3MXX6RQ9EVRTFC527Z18RDK8KW6P4R","","246.80000001192093","img/land2.png","76","248","3","0","2","2","0.8,0.2,0.2,0.2,0.8,0.2,0.2,0.2,0.8","0.8,0.2,0.2,0.2,0.8,0.2,0.2,0.2,0.8","1","",""
"","html-keyboard-response","127","153542","0.0-127.0","3DHE4R9OCXXFL5VAR4XZT856781G2J","A2YCMO8KFFQAJ9","3MXX6RQ9EVRTFC527Z18RDK8KW6P4R","","null","<img src=""img/land2.png"" style=""width:200px;border:14px solid red;"">","null","","","","","","","","","",""
"","image-keyboard-response","128","153837","0.0-128.0","3DHE4R9OCXXFL5VAR4XZT856781G2J","A2YCMO8KFFQAJ9","3MXX6RQ9EVRTFC527Z18RDK8KW6P4R","","293.40000000596046","img/land4.png","76","294.69999998807907","3","0","1","2","0.8,0.2,0.2,0.2,0.8,0.2,0.2,0.2,0.8","0.8,0.2,0.2,0.2,0.8,0.2,0.2,0.2,0.8","1","",""
"","html-keyboard-response","129","154142","0.0-129.0","3DHE4R9OCXXFL5VAR4XZT856781G2J","A2YCMO8KFFQAJ9","3MXX6RQ9EVRTFC527Z18RDK8KW6P4R","","null","<img src=""img/land4.png"" style=""width:200px;border:14px solid red;"">","null","","","","","","","","","",""
"","image-keyboard-response","130","154203","0.0-130.0","3DHE4R9OCXXFL5VAR4XZT856781G2J","A2YCMO8KFFQAJ9","3MXX6RQ9EVRTFC527Z18RDK8KW6P4R","","59.80000001192093","img/land2.png","75","61.10000002384186","2","0","2","2","0.8,0.2,0.2,0.2,0.8,0.2,0.2,0.2,0.8","0.8,0.2,0.2,0.2,0.8,0.2,0.2,0.2,0.8","1","",""
"","html-keyboard-response","131","154510","0.0-131.0","3DHE4R9OCXXFL5VAR4XZT856781G2J","A2YCMO8KFFQAJ9","3MXX6RQ9EVRTFC527Z18RDK8KW6P4R","","null","<img src=""img/land2.png"" style=""width:200px;border:14px solid red;"">","null","","","","","","","","","",""
"","image-keyboard-response","132","154593","0.0-132.0","3DHE4R9OCXXFL5VAR4XZT856781G2J","A2YCMO8KFFQAJ9","3MXX6RQ9EVRTFC527Z18RDK8KW6P4R","","81.7000000178814","img/land1.png","75","82.90000000596046","2","0","3","2","0.8,0.2,0.2,0.2,0.8,0.2,0.2,0.2,0.8","0.8,0.2,0.2,0.2,0.8,0.2,0.2,0.2,0.8","1","",""
"","html-keyboard-response","133","154902","0.0-133.0","3DHE4R9OCXXFL5VAR4XZT856781G2J","A2YCMO8KFFQAJ9","3MXX6RQ9EVRTFC527Z18RDK8KW6P4R","","null","<img src=""img/land1.png"" style=""width:200px;border:14px solid red;"">","null","","","","","","","","","",""
"","image-keyboard-response","134","154953","0.0-134.0","3DHE4R9OCXXFL5VAR4XZT856781G2J","A2YCMO8KFFQAJ9","3MXX6RQ9EVRTFC527Z18RDK8KW6P4R","","49.80000001192093","img/land1.png","74","51.099999994039536","1","0","3","2","0.8,0.2,0.2,0.2,0.8,0.2,0.2,0.2,0.8","0.8,0.2,0.2,0.2,0.8,0.2,0.2,0.2,0.8","1","",""
"","html-keyboard-response","135","155262","0.0-135.0","3DHE4R9OCXXFL5VAR4XZT856781G2J","A2YCMO8KFFQAJ9","3MXX6RQ9EVRTFC527Z18RDK8KW6P4R","","null","<img src=""img/land1.png"" style=""width:200px;border:14px solid red;"">","null","","","","","","","","","",""
"","image-keyboard-response","136","155760","0.0-136.0","3DHE4R9OCXXFL5VAR4XZT856781G2J","A2YCMO8KFFQAJ9","3MXX6RQ9EVRTFC527Z18RDK8KW6P4R","","497.10000002384186","img/land4.png","74","498.39999997615814","1","0","1","2","0.8,0.2,0.2,0.2,0.8,0.2,0.2,0.2,0.8","0.8,0.2,0.2,0.2,0.8,0.2,0.2,0.2,0.8","1","",""
"","html-keyboard-response","137","156070","0.0-137.0","3DHE4R9OCXXFL5VAR4XZT856781G2J","A2YCMO8KFFQAJ9","3MXX6RQ9EVRTFC527Z18RDK8KW6P4R","","null","<img src=""img/land4.png"" style=""width:200px;border:14px solid red;"">","null","","","","","","","","","",""
"","image-keyboard-response","138","156868","0.0-138.0","3DHE4R9OCXXFL5VAR4XZT856781G2J","A2YCMO8KFFQAJ9","3MXX6RQ9EVRTFC527Z18RDK8KW6P4R","","796.3000000119209","img/land1.png","74","797.8000000119209","1","1","3","2","0.8,0.2,0.2,0.2,0.8,0.2,0.2,0.2,0.8","0.8,0.2,0.2,0.2,0.8,0.2,0.2,0.2,0.8","1","",""
"","html-keyboard-response","139","157174","0.0-139.0","3DHE4R9OCXXFL5VAR4XZT856781G2J","A2YCMO8KFFQAJ9","3MXX6RQ9EVRTFC527Z18RDK8KW6P4R","","null","<img src=""img/land1.png"" style=""width:200px; border:14px solid green;"">","null","","","","","","","","","",""
"","image-keyboard-response","140","157518","0.0-140.0","3DHE4R9OCXXFL5VAR4XZT856781G2J","A2YCMO8KFFQAJ9","3MXX6RQ9EVRTFC527Z18RDK8KW6P4R","","342.59999999403954","img/land1.png","74","343.90000000596046","1","0","3","2","0.8,0.2,0.2,0.2,0.8,0.2,0.2,0.2,0.8","0.8,0.2,0.2,0.2,0.8,0.2,0.2,0.2,0.8","1","",""
"","html-keyboard-response","141","157822","0.0-141.0","3DHE4R9OCXXFL5VAR4XZT856781G2J","A2YCMO8KFFQAJ9","3MXX6RQ9EVRTFC527Z18RDK8KW6P4R","","null","<img src=""img/land1.png"" style=""width:200px;border:14px solid red;"">","null","","","","","","","","","",""
"","image-keyboard-response","142","158487","0.0-142.0","3DHE4R9OCXXFL5VAR4XZT856781G2J","A2YCMO8KFFQAJ9","3MXX6RQ9EVRTFC527Z18RDK8KW6P4R","","663.9000000059605","img/land1.png","75","665.1000000238419","2","0","3","2","0.8,0.2,0.2,0.2,0.8,0.2,0.2,0.2,0.8","0.8,0.2,0.2,0.2,0.8,0.2,0.2,0.2,0.8","1","",""
"","html-keyboard-response","143","158790","0.0-143.0","3DHE4R9OCXXFL5VAR4XZT856781G2J","A2YCMO8KFFQAJ9","3MXX6RQ9EVRTFC527Z18RDK8KW6P4R","","null","<img src=""img/land1.png"" style=""width:200px;border:14px solid red;"">","null","","","","","","","","","",""
"","image-keyboard-response","144","159439","0.0-144.0","3DHE4R9OCXXFL5VAR4XZT856781G2J","A2YCMO8KFFQAJ9","3MXX6RQ9EVRTFC527Z18RDK8KW6P4R","","647.4000000059605","img/land2.png","76","648.5","3","0","2","2","0.8,0.2,0.2,0.2,0.8,0.2,0.2,0.2,0.8","0.8,0.2,0.2,0.2,0.8,0.2,0.2,0.2,0.8","1","",""
"","html-keyboard-response","145","159742","0.0-145.0","3DHE4R9OCXXFL5VAR4XZT856781G2J","A2YCMO8KFFQAJ9","3MXX6RQ9EVRTFC527Z18RDK8KW6P4R","","null","<img src=""img/land2.png"" style=""width:200px;border:14px solid red;"">","null","","","","","","","","","",""
"","image-keyboard-response","146","161123","0.0-146.0","3DHE4R9OCXXFL5VAR4XZT856781G2J","A2YCMO8KFFQAJ9","3MXX6RQ9EVRTFC527Z18RDK8KW6P4R","","1379.8999999761581","img/land2.png","76","1381.0999999940395","3","0","2","2","0.8,0.2,0.2,0.2,0.8,0.2,0.2,0.2,0.8","0.8,0.2,0.2,0.2,0.8,0.2,0.2,0.2,0.8","1","",""
"","html-keyboard-response","147","161430","0.0-147.0","3DHE4R9OCXXFL5VAR4XZT856781G2J","A2YCMO8KFFQAJ9","3MXX6RQ9EVRTFC527Z18RDK8KW6P4R","","null","<img src=""img/land2.png"" style=""width:200px;border:14px solid red;"">","null","","","","","","","","","",""
"","image-keyboard-response","148","161652","0.0-148.0","3DHE4R9OCXXFL5VAR4XZT856781G2J","A2YCMO8KFFQAJ9","3MXX6RQ9EVRTFC527Z18RDK8KW6P4R","","220.7000000178814","img/land2.png","76","222","3","0","2","2","0.8,0.2,0.2,0.2,0.8,0.2,0.2,0.2,0.8","0.8,0.2,0.2,0.2,0.8,0.2,0.2,0.2,0.8","1","",""
"","html-keyboard-response","149","161958","0.0-149.0","3DHE4R9OCXXFL5VAR4XZT856781G2J","A2YCMO8KFFQAJ9","3MXX6RQ9EVRTFC527Z18RDK8KW6P4R","","null","<img src=""img/land2.png"" style=""width:200px;border:14px solid red;"">","null","","","","","","","","","",""
"","image-keyboard-response","150","162319","0.0-150.0","3DHE4R9OCXXFL5VAR4XZT856781G2J","A2YCMO8KFFQAJ9","3MXX6RQ9EVRTFC527Z18RDK8KW6P4R","","360.2000000178814","img/land2.png","75","361","2","0","2","2","0.8,0.2,0.2,0.2,0.8,0.2,0.2,0.2,0.8","0.8,0.2,0.2,0.2,0.8,0.2,0.2,0.2,0.8","1","",""
"","html-keyboard-response","151","162622","0.0-151.0","3DHE4R9OCXXFL5VAR4XZT856781G2J","A2YCMO8KFFQAJ9","3MXX6RQ9EVRTFC527Z18RDK8KW6P4R","","null","<img src=""img/land2.png"" style=""width:200px;border:14px solid red;"">","null","","","","","","","","","",""
"","image-keyboard-response","152","163189","0.0-152.0","3DHE4R9OCXXFL5VAR4XZT856781G2J","A2YCMO8KFFQAJ9","3MXX6RQ9EVRTFC527Z18RDK8KW6P4R","","565.5","img/land4.png","75","566.7999999821186","2","1","1","2","0.8,0.2,0.2,0.2,0.8,0.2,0.2,0.2,0.8","0.8,0.2,0.2,0.2,0.8,0.2,0.2,0.2,0.8","1","",""
"","html-keyboard-response","153","163494","0.0-153.0","3DHE4R9OCXXFL5VAR4XZT856781G2J","A2YCMO8KFFQAJ9","3MXX6RQ9EVRTFC527Z18RDK8KW6P4R","","null","<img src=""img/land4.png"" style=""width:200px; border:14px solid green;"">","null","","","","","","","","","",""
"","image-keyboard-response","154","163768","0.0-154.0","3DHE4R9OCXXFL5VAR4XZT856781G2J","A2YCMO8KFFQAJ9","3MXX6RQ9EVRTFC527Z18RDK8KW6P4R","","271.19999998807907","img/land2.png","75","272.30000001192093","2","0","2","2","0.8,0.2,0.2,0.2,0.8,0.2,0.2,0.2,0.8","0.8,0.2,0.2,0.2,0.8,0.2,0.2,0.2,0.8","1","",""
"","html-keyboard-response","155","164070","0.0-155.0","3DHE4R9OCXXFL5VAR4XZT856781G2J","A2YCMO8KFFQAJ9","3MXX6RQ9EVRTFC527Z18RDK8KW6P4R","","null","<img src=""img/land2.png"" style=""width:200px;border:14px solid red;"">","null","","","","","","","","","",""
"","image-keyboard-response","156","164585","0.0-156.0","3DHE4R9OCXXFL5VAR4XZT856781G2J","A2YCMO8KFFQAJ9","3MXX6RQ9EVRTFC527Z18RDK8KW6P4R","","514.0999999940395","img/land2.png","74","515.3000000119209","1","1","2","2","0.8,0.2,0.2,0.2,0.8,0.2,0.2,0.2,0.8","0.8,0.2,0.2,0.2,0.8,0.2,0.2,0.2,0.8","1","",""
"","html-keyboard-response","157","164894","0.0-157.0","3DHE4R9OCXXFL5VAR4XZT856781G2J","A2YCMO8KFFQAJ9","3MXX6RQ9EVRTFC527Z18RDK8KW6P4R","","null","<img src=""img/land2.png"" style=""width:200px; border:14px solid green;"">","null","","","","","","","","","",""
"","image-keyboard-response","158","165220","0.0-158.0","3DHE4R9OCXXFL5VAR4XZT856781G2J","A2YCMO8KFFQAJ9","3MXX6RQ9EVRTFC527Z18RDK8KW6P4R","","325.09999999403954","img/land1.png","74","326.40000000596046","1","0","3","2","0.8,0.2,0.2,0.2,0.8,0.2,0.2,0.2,0.8","0.8,0.2,0.2,0.2,0.8,0.2,0.2,0.2,0.8","1","",""
"","html-keyboard-response","159","165526","0.0-159.0","3DHE4R9OCXXFL5VAR4XZT856781G2J","A2YCMO8KFFQAJ9","3MXX6RQ9EVRTFC527Z18RDK8KW6P4R","","null","<img src=""img/land1.png"" style=""width:200px;border:14px solid red;"">","null","","","","","","","","","",""
"","image-keyboard-response","160","166055","0.0-160.0","3DHE4R9OCXXFL5VAR4XZT856781G2J","A2YCMO8KFFQAJ9","3MXX6RQ9EVRTFC527Z18RDK8KW6P4R","","528","img/land1.png","75","529.0999999940395","2","0","3","2","0.8,0.2,0.2,0.2,0.8,0.2,0.2,0.2,0.8","0.8,0.2,0.2,0.2,0.8,0.2,0.2,0.2,0.8","1","",""
"","html-keyboard-response","161","166358","0.0-161.0","3DHE4R9OCXXFL5VAR4XZT856781G2J","A2YCMO8KFFQAJ9","3MXX6RQ9EVRTFC527Z18RDK8KW6P4R","","null","<img src=""img/land1.png"" style=""width:200px;border:14px solid red;"">","null","","","","","","","","","",""
"","image-keyboard-response","162","166757","0.0-162.0","3DHE4R9OCXXFL5VAR4XZT856781G2J","A2YCMO8KFFQAJ9","3MXX6RQ9EVRTFC527Z18RDK8KW6P4R","","397.30000001192093","img/land4.png","76","398.59999999403954","3","0","1","2","0.8,0.2,0.2,0.2,0.8,0.2,0.2,0.2,0.8","0.8,0.2,0.2,0.2,0.8,0.2,0.2,0.2,0.8","1","",""
"","html-keyboard-response","163","167062","0.0-163.0","3DHE4R9OCXXFL5VAR4XZT856781G2J","A2YCMO8KFFQAJ9","3MXX6RQ9EVRTFC527Z18RDK8KW6P4R","","null","<img src=""img/land4.png"" style=""width:200px;border:14px solid red;"">","null","","","","","","","","","",""
"","image-keyboard-response","164","167966","0.0-164.0","3DHE4R9OCXXFL5VAR4XZT856781G2J","A2YCMO8KFFQAJ9","3MXX6RQ9EVRTFC527Z18RDK8KW6P4R","","903.0999999940395","img/land2.png","76","904.4000000059605","3","0","2","2","0.8,0.2,0.2,0.2,0.8,0.2,0.2,0.2,0.8","0.8,0.2,0.2,0.2,0.8,0.2,0.2,0.2,0.8","1","",""
"","html-keyboard-response","165","168270","0.0-165.0","3DHE4R9OCXXFL5VAR4XZT856781G2J","A2YCMO8KFFQAJ9","3MXX6RQ9EVRTFC527Z18RDK8KW6P4R","","null","<img src=""img/land2.png"" style=""width:200px;border:14px solid red;"">","null","","","","","","","","","",""
"","image-keyboard-response","166","169045","0.0-166.0","3DHE4R9OCXXFL5VAR4XZT856781G2J","A2YCMO8KFFQAJ9","3MXX6RQ9EVRTFC527Z18RDK8KW6P4R","","773.2000000178814","img/land4.png","76","774.5","3","1","1","2","0.8,0.2,0.2,0.2,0.8,0.2,0.2,0.2,0.8","0.8,0.2,0.2,0.2,0.8,0.2,0.2,0.2,0.8","1","",""
"","html-keyboard-response","167","169350","0.0-167.0","3DHE4R9OCXXFL5VAR4XZT856781G2J","A2YCMO8KFFQAJ9","3MXX6RQ9EVRTFC527Z18RDK8KW6P4R","","null","<img src=""img/land4.png"" style=""width:200px; border:14px solid green;"">","null","","","","","","","","","",""
"","image-keyboard-response","168","169614","0.0-168.0","3DHE4R9OCXXFL5VAR4XZT856781G2J","A2YCMO8KFFQAJ9","3MXX6RQ9EVRTFC527Z18RDK8KW6P4R","","263.09999999403954","img/land4.png","76","264.30000001192093","3","1","1","2","0.8,0.2,0.2,0.2,0.8,0.2,0.2,0.2,0.8","0.8,0.2,0.2,0.2,0.8,0.2,0.2,0.2,0.8","1","",""
"","html-keyboard-response","169","169918","0.0-169.0","3DHE4R9OCXXFL5VAR4XZT856781G2J","A2YCMO8KFFQAJ9","3MXX6RQ9EVRTFC527Z18RDK8KW6P4R","","null","<img src=""img/land4.png"" style=""width:200px; border:14px solid green;"">","null","","","","","","","","","",""
"","image-keyboard-response","170","170374","0.0-170.0","3DHE4R9OCXXFL5VAR4XZT856781G2J","A2YCMO8KFFQAJ9","3MXX6RQ9EVRTFC527Z18RDK8KW6P4R","","455","img/land1.png","76","456.2999999821186","3","1","3","2","0.8,0.2,0.2,0.2,0.8,0.2,0.2,0.2,0.8","0.8,0.2,0.2,0.2,0.8,0.2,0.2,0.2,0.8","1","",""
"","html-keyboard-response","171","170678","0.0-171.0","3DHE4R9OCXXFL5VAR4XZT856781G2J","A2YCMO8KFFQAJ9","3MXX6RQ9EVRTFC527Z18RDK8KW6P4R","","null","<img src=""img/land1.png"" style=""width:200px; border:14px solid green;"">","null","","","","","","","","","",""
"","image-keyboard-response","172","170856","0.0-172.0","3DHE4R9OCXXFL5VAR4XZT856781G2J","A2YCMO8KFFQAJ9","3MXX6RQ9EVRTFC527Z18RDK8KW6P4R","","176.09999999403954","img/land2.png","76","177.5","3","0","2","2","0.8,0.2,0.2,0.2,0.8,0.2,0.2,0.2,0.8","0.8,0.2,0.2,0.2,0.8,0.2,0.2,0.2,0.8","1","",""
"","html-keyboard-response","173","171158","0.0-173.0","3DHE4R9OCXXFL5VAR4XZT856781G2J","A2YCMO8KFFQAJ9","3MXX6RQ9EVRTFC527Z18RDK8KW6P4R","","null","<img src=""img/land2.png"" style=""width:200px;border:14px solid red;"">","null","","","","","","","","","",""
"","image-keyboard-response","174","171719","0.0-174.0","3DHE4R9OCXXFL5VAR4XZT856781G2J","A2YCMO8KFFQAJ9","3MXX6RQ9EVRTFC527Z18RDK8KW6P4R","","559.5","img/land4.png","75","560.8000000119209","2","1","1","2","0.8,0.2,0.2,0.2,0.8,0.2,0.2,0.2,0.8","0.8,0.2,0.2,0.2,0.8,0.2,0.2,0.2,0.8","1","",""
"","html-keyboard-response","175","172022","0.0-175.0","3DHE4R9OCXXFL5VAR4XZT856781G2J","A2YCMO8KFFQAJ9","3MXX6RQ9EVRTFC527Z18RDK8KW6P4R","","null","<img src=""img/land4.png"" style=""width:200px; border:14px solid green;"">","null","","","","","","","","","",""
"","image-keyboard-response","176","172268","0.0-176.0","3DHE4R9OCXXFL5VAR4XZT856781G2J","A2YCMO8KFFQAJ9","3MXX6RQ9EVRTFC527Z18RDK8KW6P4R","","244","img/land1.png","75","245.40000000596046","2","1","3","2","0.8,0.2,0.2,0.2,0.8,0.2,0.2,0.2,0.8","0.8,0.2,0.2,0.2,0.8,0.2,0.2,0.2,0.8","1","",""
"","html-keyboard-response","177","172574","0.0-177.0","3DHE4R9OCXXFL5VAR4XZT856781G2J","A2YCMO8KFFQAJ9","3MXX6RQ9EVRTFC527Z18RDK8KW6P4R","","null","<img src=""img/land1.png"" style=""width:200px; border:14px solid green;"">","null","","","","","","","","","",""
"","image-keyboard-response","178","172959","0.0-178.0","3DHE4R9OCXXFL5VAR4XZT856781G2J","A2YCMO8KFFQAJ9","3MXX6RQ9EVRTFC527Z18RDK8KW6P4R","","383.30000001192093","img/land4.png","75","384.60000002384186","2","0","1","2","0.8,0.2,0.2,0.2,0.8,0.2,0.2,0.2,0.8","0.8,0.2,0.2,0.2,0.8,0.2,0.2,0.2,0.8","1","",""
"","html-keyboard-response","179","173262","0.0-179.0","3DHE4R9OCXXFL5VAR4XZT856781G2J","A2YCMO8KFFQAJ9","3MXX6RQ9EVRTFC527Z18RDK8KW6P4R","","null","<img src=""img/land4.png"" style=""width:200px;border:14px solid red;"">","null","","","","","","","","","",""
"","image-keyboard-response","180","173594","0.0-180.0","3DHE4R9OCXXFL5VAR4XZT856781G2J","A2YCMO8KFFQAJ9","3MXX6RQ9EVRTFC527Z18RDK8KW6P4R","","331.2000000178814","img/land2.png","76","332.39999997615814","3","0","2","2","0.8,0.2,0.2,0.2,0.8,0.2,0.2,0.2,0.8","0.8,0.2,0.2,0.2,0.8,0.2,0.2,0.2,0.8","1","",""
"","html-keyboard-response","181","173902","0.0-181.0","3DHE4R9OCXXFL5VAR4XZT856781G2J","A2YCMO8KFFQAJ9","3MXX6RQ9EVRTFC527Z18RDK8KW6P4R","","null","<img src=""img/land2.png"" style=""width:200px;border:14px solid red;"">","null","","","","","","","","","",""
"","image-keyboard-response","182","174534","0.0-182.0","3DHE4R9OCXXFL5VAR4XZT856781G2J","A2YCMO8KFFQAJ9","3MXX6RQ9EVRTFC527Z18RDK8KW6P4R","","630.2999999821186","img/land4.png","74","631.5999999940395","1","0","1","2","0.8,0.2,0.2,0.2,0.8,0.2,0.2,0.2,0.8","0.8,0.2,0.2,0.2,0.8,0.2,0.2,0.2,0.8","1","",""
"","html-keyboard-response","183","174838","0.0-183.0","3DHE4R9OCXXFL5VAR4XZT856781G2J","A2YCMO8KFFQAJ9","3MXX6RQ9EVRTFC527Z18RDK8KW6P4R","","null","<img src=""img/land4.png"" style=""width:200px;border:14px solid red;"">","null","","","","","","","","","",""
"","image-keyboard-response","184","175196","0.0-184.0","3DHE4R9OCXXFL5VAR4XZT856781G2J","A2YCMO8KFFQAJ9","3MXX6RQ9EVRTFC527Z18RDK8KW6P4R","","356.40000000596046","img/land4.png","75","357.59999999403954","2","1","1","2","0.8,0.2,0.2,0.2,0.8,0.2,0.2,0.2,0.8","0.8,0.2,0.2,0.2,0.8,0.2,0.2,0.2,0.8","1","",""
"","html-keyboard-response","185","175502","0.0-185.0","3DHE4R9OCXXFL5VAR4XZT856781G2J","A2YCMO8KFFQAJ9","3MXX6RQ9EVRTFC527Z18RDK8KW6P4R","","null","<img src=""img/land4.png"" style=""width:200px; border:14px solid green;"">","null","","","","","","","","","",""
"","image-keyboard-response","186","175903","0.0-186.0","3DHE4R9OCXXFL5VAR4XZT856781G2J","A2YCMO8KFFQAJ9","3MXX6RQ9EVRTFC527Z18RDK8KW6P4R","","399.2000000178814","img/land4.png","75","400.40000000596046","2","0","1","2","0.8,0.2,0.2,0.2,0.8,0.2,0.2,0.2,0.8","0.8,0.2,0.2,0.2,0.8,0.2,0.2,0.2,0.8","1","",""
"","html-keyboard-response","187","176206","0.0-187.0","3DHE4R9OCXXFL5VAR4XZT856781G2J","A2YCMO8KFFQAJ9","3MXX6RQ9EVRTFC527Z18RDK8KW6P4R","","null","<img src=""img/land4.png"" style=""width:200px;border:14px solid red;"">","null","","","","","","","","","",""
"","image-keyboard-response","188","176940","0.0-188.0","3DHE4R9OCXXFL5VAR4XZT856781G2J","A2YCMO8KFFQAJ9","3MXX6RQ9EVRTFC527Z18RDK8KW6P4R","","733.2000000178814","img/land4.png","76","734.6000000238419","3","1","1","2","0.8,0.2,0.2,0.2,0.8,0.2,0.2,0.2,0.8","0.8,0.2,0.2,0.2,0.8,0.2,0.2,0.2,0.8","1","",""
"","html-keyboard-response","189","177246","0.0-189.0","3DHE4R9OCXXFL5VAR4XZT856781G2J","A2YCMO8KFFQAJ9","3MXX6RQ9EVRTFC527Z18RDK8KW6P4R","","null","<img src=""img/land4.png"" style=""width:200px; border:14px solid green;"">","null","","","","","","","","","",""
"","image-keyboard-response","190","177351","0.0-190.0","3DHE4R9OCXXFL5VAR4XZT856781G2J","A2YCMO8KFFQAJ9","3MXX6RQ9EVRTFC527Z18RDK8KW6P4R","","104.10000002384186","img/land1.png","76","105.5","3","1","3","2","0.8,0.2,0.2,0.2,0.8,0.2,0.2,0.2,0.8","0.8,0.2,0.2,0.2,0.8,0.2,0.2,0.2,0.8","1","",""
"","html-keyboard-response","191","177654","0.0-191.0","3DHE4R9OCXXFL5VAR4XZT856781G2J","A2YCMO8KFFQAJ9","3MXX6RQ9EVRTFC527Z18RDK8KW6P4R","","null","<img src=""img/land1.png"" style=""width:200px; border:14px solid green;"">","null","","","","","","","","","",""
"","image-keyboard-response","192","178420","0.0-192.0","3DHE4R9OCXXFL5VAR4XZT856781G2J","A2YCMO8KFFQAJ9","3MXX6RQ9EVRTFC527Z18RDK8KW6P4R","","764.3999999761581","img/land1.png","75","765.5999999940395","2","1","3","2","0.8,0.2,0.2,0.2,0.8,0.2,0.2,0.2,0.8","0.8,0.2,0.2,0.2,0.8,0.2,0.2,0.2,0.8","1","",""
"","html-keyboard-response","193","178726","0.0-193.0","3DHE4R9OCXXFL5VAR4XZT856781G2J","A2YCMO8KFFQAJ9","3MXX6RQ9EVRTFC527Z18RDK8KW6P4R","","null","<img src=""img/land1.png"" style=""width:200px; border:14px solid green;"">","null","","","","","","","","","",""
"","image-keyboard-response","194","179291","0.0-194.0","3DHE4R9OCXXFL5VAR4XZT856781G2J","A2YCMO8KFFQAJ9","3MXX6RQ9EVRTFC527Z18RDK8KW6P4R","","563.3999999761581","img/land4.png","76","564.5999999940395","3","0","1","2","0.8,0.2,0.2,0.2,0.8,0.2,0.2,0.2,0.8","0.8,0.2,0.2,0.2,0.8,0.2,0.2,0.2,0.8","1","",""
"","html-keyboard-response","195","179598","0.0-195.0","3DHE4R9OCXXFL5VAR4XZT856781G2J","A2YCMO8KFFQAJ9","3MXX6RQ9EVRTFC527Z18RDK8KW6P4R","","null","<img src=""img/land4.png"" style=""width:200px;border:14px solid red;"">","null","","","","","","","","","",""
"","image-keyboard-response","196","179740","0.0-196.0","3DHE4R9OCXXFL5VAR4XZT856781G2J","A2YCMO8KFFQAJ9","3MXX6RQ9EVRTFC527Z18RDK8KW6P4R","","140.5","img/land4.png","75","141.69999998807907","2","0","1","2","0.8,0.2,0.2,0.2,0.8,0.2,0.2,0.2,0.8","0.8,0.2,0.2,0.2,0.8,0.2,0.2,0.2,0.8","1","",""
"","html-keyboard-response","197","180046","0.0-197.0","3DHE4R9OCXXFL5VAR4XZT856781G2J","A2YCMO8KFFQAJ9","3MXX6RQ9EVRTFC527Z18RDK8KW6P4R","","null","<img src=""img/land4.png"" style=""width:200px;border:14px solid red;"">","null","","","","","","","","","",""
"","image-keyboard-response","198","180079","0.0-198.0","3DHE4R9OCXXFL5VAR4XZT856781G2J","A2YCMO8KFFQAJ9","3MXX6RQ9EVRTFC527Z18RDK8KW6P4R","","31.600000023841858","img/land4.png","74","32.89999997615814","1","1","1","2","0.8,0.2,0.2,0.2,0.8,0.2,0.2,0.2,0.8","0.8,0.2,0.2,0.2,0.8,0.2,0.2,0.2,0.8","1","",""
"","html-keyboard-response","199","180382","0.0-199.0","3DHE4R9OCXXFL5VAR4XZT856781G2J","A2YCMO8KFFQAJ9","3MXX6RQ9EVRTFC527Z18RDK8KW6P4R","","null","<img src=""img/land4.png"" style=""width:200px; border:14px solid green;"">","null","","","","","","","","","",""
"","image-keyboard-response","200","180767","0.0-200.0","3DHE4R9OCXXFL5VAR4XZT856781G2J","A2YCMO8KFFQAJ9","3MXX6RQ9EVRTFC527Z18RDK8KW6P4R","","383.80000001192093","img/land4.png","74","385","1","1","1","2","0.8,0.2,0.2,0.2,0.8,0.2,0.2,0.2,0.8","0.8,0.2,0.2,0.2,0.8,0.2,0.2,0.2,0.8","1","",""
"","html-keyboard-response","201","181070","0.0-201.0","3DHE4R9OCXXFL5VAR4XZT856781G2J","A2YCMO8KFFQAJ9","3MXX6RQ9EVRTFC527Z18RDK8KW6P4R","","null","<img src=""img/land4.png"" style=""width:200px; border:14px solid green;"">","null","","","","","","","","","",""
"","image-keyboard-response","202","181602","0.0-202.0","3DHE4R9OCXXFL5VAR4XZT856781G2J","A2YCMO8KFFQAJ9","3MXX6RQ9EVRTFC527Z18RDK8KW6P4R","","531.3000000119209","img/land4.png","74","532.5","1","0","1","2","0.8,0.2,0.2,0.2,0.8,0.2,0.2,0.2,0.8","0.8,0.2,0.2,0.2,0.8,0.2,0.2,0.2,0.8","1","",""
"","html-keyboard-response","203","181910","0.0-203.0","3DHE4R9OCXXFL5VAR4XZT856781G2J","A2YCMO8KFFQAJ9","3MXX6RQ9EVRTFC527Z18RDK8KW6P4R","","null","<img src=""img/land4.png"" style=""width:200px;border:14px solid red;"">","null","","","","","","","","","",""
"","image-keyboard-response","204","182022","0.0-204.0","3DHE4R9OCXXFL5VAR4XZT856781G2J","A2YCMO8KFFQAJ9","3MXX6RQ9EVRTFC527Z18RDK8KW6P4R","","110.89999997615814","img/land1.png","75","112.19999998807907","2","0","3","2","0.8,0.2,0.2,0.2,0.8,0.2,0.2,0.2,0.8","0.8,0.2,0.2,0.2,0.8,0.2,0.2,0.2,0.8","1","",""
"","html-keyboard-response","205","182326","0.0-205.0","3DHE4R9OCXXFL5VAR4XZT856781G2J","A2YCMO8KFFQAJ9","3MXX6RQ9EVRTFC527Z18RDK8KW6P4R","","null","<img src=""img/land1.png"" style=""width:200px;border:14px solid red;"">","null","","","","","","","","","",""
"","image-keyboard-response","206","182909","0.0-206.0","3DHE4R9OCXXFL5VAR4XZT856781G2J","A2YCMO8KFFQAJ9","3MXX6RQ9EVRTFC527Z18RDK8KW6P4R","","581.8000000119209","img/land4.png","76","582.7999999821186","3","0","1","2","0.8,0.2,0.2,0.2,0.8,0.2,0.2,0.2,0.8","0.8,0.2,0.2,0.2,0.8,0.2,0.2,0.2,0.8","1","",""
"","html-keyboard-response","207","183213","0.0-207.0","3DHE4R9OCXXFL5VAR4XZT856781G2J","A2YCMO8KFFQAJ9","3MXX6RQ9EVRTFC527Z18RDK8KW6P4R","","null","<img src=""img/land4.png"" style=""width:200px;border:14px solid red;"">","null","","","","","","","","","",""
"","image-keyboard-response","208","183251","0.0-208.0","3DHE4R9OCXXFL5VAR4XZT856781G2J","A2YCMO8KFFQAJ9","3MXX6RQ9EVRTFC527Z18RDK8KW6P4R","","37.10000002384186","img/land2.png","76","37.599999994039536","3","1","2","2","0.8,0.2,0.2,0.2,0.8,0.2,0.2,0.2,0.8","0.8,0.2,0.2,0.2,0.8,0.2,0.2,0.2,0.8","1","",""
"","html-keyboard-response","209","183558","0.0-209.0","3DHE4R9OCXXFL5VAR4XZT856781G2J","A2YCMO8KFFQAJ9","3MXX6RQ9EVRTFC527Z18RDK8KW6P4R","","null","<img src=""img/land2.png"" style=""width:200px; border:14px solid green;"">","null","","","","","","","","","",""
"","image-keyboard-response","210","183841","0.0-210.0","3DHE4R9OCXXFL5VAR4XZT856781G2J","A2YCMO8KFFQAJ9","3MXX6RQ9EVRTFC527Z18RDK8KW6P4R","","281.90000000596046","img/land4.png","76","283.10000002384186","3","0","1","2","0.8,0.2,0.2,0.2,0.8,0.2,0.2,0.2,0.8","0.8,0.2,0.2,0.2,0.8,0.2,0.2,0.2,0.8","1","",""
"","html-keyboard-response","211","184149","0.0-211.0","3DHE4R9OCXXFL5VAR4XZT856781G2J","A2YCMO8KFFQAJ9","3MXX6RQ9EVRTFC527Z18RDK8KW6P4R","","null","<img src=""img/land4.png"" style=""width:200px;border:14px solid red;"">","null","","","","","","","","","",""
"","image-keyboard-response","212","184509","0.0-212.0","3DHE4R9OCXXFL5VAR4XZT856781G2J","A2YCMO8KFFQAJ9","3MXX6RQ9EVRTFC527Z18RDK8KW6P4R","","358.19999998807907","img/land4.png","75","359.09999999403954","2","0","1","2","0.8,0.2,0.2,0.2,0.8,0.2,0.2,0.2,0.8","0.8,0.2,0.2,0.2,0.8,0.2,0.2,0.2,0.8","1","",""
"","html-keyboard-response","213","184814","0.0-213.0","3DHE4R9OCXXFL5VAR4XZT856781G2J","A2YCMO8KFFQAJ9","3MXX6RQ9EVRTFC527Z18RDK8KW6P4R","","null","<img src=""img/land4.png"" style=""width:200px;border:14px solid red;"">","null","","","","","","","","","",""
"","image-keyboard-response","214","185249","0.0-214.0","3DHE4R9OCXXFL5VAR4XZT856781G2J","A2YCMO8KFFQAJ9","3MXX6RQ9EVRTFC527Z18RDK8KW6P4R","","433.5","img/land4.png","74","434.69999998807907","1","1","1","2","0.8,0.2,0.2,0.2,0.8,0.2,0.2,0.2,0.8","0.8,0.2,0.2,0.2,0.8,0.2,0.2,0.2,0.8","1","",""
"","html-keyboard-response","215","185558","0.0-215.0","3DHE4R9OCXXFL5VAR4XZT856781G2J","A2YCMO8KFFQAJ9","3MXX6RQ9EVRTFC527Z18RDK8KW6P4R","","null","<img src=""img/land4.png"" style=""width:200px; border:14px solid green;"">","null","","","","","","","","","",""
"","image-keyboard-response","216","185788","0.0-216.0","3DHE4R9OCXXFL5VAR4XZT856781G2J","A2YCMO8KFFQAJ9","3MXX6RQ9EVRTFC527Z18RDK8KW6P4R","","228.60000002384186","img/land4.png","74","229.89999997615814","1","1","1","2","0.8,0.2,0.2,0.2,0.8,0.2,0.2,0.2,0.8","0.8,0.2,0.2,0.2,0.8,0.2,0.2,0.2,0.8","1","",""
"","html-keyboard-response","217","186094","0.0-217.0","3DHE4R9OCXXFL5VAR4XZT856781G2J","A2YCMO8KFFQAJ9","3MXX6RQ9EVRTFC527Z18RDK8KW6P4R","","null","<img src=""img/land4.png"" style=""width:200px; border:14px solid green;"">","null","","","","","","","","","",""
"","image-keyboard-response","218","186169","0.0-218.0","3DHE4R9OCXXFL5VAR4XZT856781G2J","A2YCMO8KFFQAJ9","3MXX6RQ9EVRTFC527Z18RDK8KW6P4R","","74.19999998807907","img/land1.png","74","75.40000000596046","1","0","3","2","0.8,0.2,0.2,0.2,0.8,0.2,0.2,0.2,0.8","0.8,0.2,0.2,0.2,0.8,0.2,0.2,0.2,0.8","1","",""
"","html-keyboard-response","219","186478","0.0-219.0","3DHE4R9OCXXFL5VAR4XZT856781G2J","A2YCMO8KFFQAJ9","3MXX6RQ9EVRTFC527Z18RDK8KW6P4R","","null","<img src=""img/land1.png"" style=""width:200px;border:14px solid red;"">","null","","","","","","","","","",""
"","image-keyboard-response","220","186884","0.0-220.0","3DHE4R9OCXXFL5VAR4XZT856781G2J","A2YCMO8KFFQAJ9","3MXX6RQ9EVRTFC527Z18RDK8KW6P4R","","405.30000001192093","img/land4.png","75","406.5","2","0","1","2","0.8,0.2,0.2,0.2,0.8,0.2,0.2,0.2,0.8","0.8,0.2,0.2,0.2,0.8,0.2,0.2,0.2,0.8","1","",""
"","html-keyboard-response","221","187190","0.0-221.0","3DHE4R9OCXXFL5VAR4XZT856781G2J","A2YCMO8KFFQAJ9","3MXX6RQ9EVRTFC527Z18RDK8KW6P4R","","null","<img src=""img/land4.png"" style=""width:200px;border:14px solid red;"">","null","","","","","","","","","",""
"","image-keyboard-response","222","187930","0.0-222.0","3DHE4R9OCXXFL5VAR4XZT856781G2J","A2YCMO8KFFQAJ9","3MXX6RQ9EVRTFC527Z18RDK8KW6P4R","","738.3000000119209","img/land4.png","75","739.5999999940395","2","1","1","2","0.8,0.2,0.2,0.2,0.8,0.2,0.2,0.2,0.8","0.8,0.2,0.2,0.2,0.8,0.2,0.2,0.2,0.8","1","",""
"","html-keyboard-response","223","188238","0.0-223.0","3DHE4R9OCXXFL5VAR4XZT856781G2J","A2YCMO8KFFQAJ9","3MXX6RQ9EVRTFC527Z18RDK8KW6P4R","","null","<img src=""img/land4.png"" style=""width:200px; border:14px solid green;"">","null","","","","","","","","","",""
"","image-keyboard-response","224","188561","0.0-224.0","3DHE4R9OCXXFL5VAR4XZT856781G2J","A2YCMO8KFFQAJ9","3MXX6RQ9EVRTFC527Z18RDK8KW6P4R","","321.5","img/land4.png","75","322.80000001192093","2","0","1","2","0.8,0.2,0.2,0.2,0.8,0.2,0.2,0.2,0.8","0.8,0.2,0.2,0.2,0.8,0.2,0.2,0.2,0.8","1","",""
"","html-keyboard-response","225","188870","0.0-225.0","3DHE4R9OCXXFL5VAR4XZT856781G2J","A2YCMO8KFFQAJ9","3MXX6RQ9EVRTFC527Z18RDK8KW6P4R","","null","<img src=""img/land4.png"" style=""width:200px;border:14px solid red;"">","null","","","","","","","","","",""
"","image-keyboard-response","226","189759","0.0-226.0","3DHE4R9OCXXFL5VAR4XZT856781G2J","A2YCMO8KFFQAJ9","3MXX6RQ9EVRTFC527Z18RDK8KW6P4R","","887.0999999940395","img/land4.png","76","888.5999999940395","3","0","1","2","0.8,0.2,0.2,0.2,0.8,0.2,0.2,0.2,0.8","0.8,0.2,0.2,0.2,0.8,0.2,0.2,0.2,0.8","1","",""
"","html-keyboard-response","227","190062","0.0-227.0","3DHE4R9OCXXFL5VAR4XZT856781G2J","A2YCMO8KFFQAJ9","3MXX6RQ9EVRTFC527Z18RDK8KW6P4R","","null","<img src=""img/land4.png"" style=""width:200px;border:14px solid red;"">","null","","","","","","","","","",""
"","image-keyboard-response","228","190500","0.0-228.0","3DHE4R9OCXXFL5VAR4XZT856781G2J","A2YCMO8KFFQAJ9","3MXX6RQ9EVRTFC527Z18RDK8KW6P4R","","436.69999998807907","img/land4.png","76","438","3","0","1","2","0.8,0.2,0.2,0.2,0.8,0.2,0.2,0.2,0.8","0.8,0.2,0.2,0.2,0.8,0.2,0.2,0.2,0.8","1","",""
"","html-keyboard-response","229","190806","0.0-229.0","3DHE4R9OCXXFL5VAR4XZT856781G2J","A2YCMO8KFFQAJ9","3MXX6RQ9EVRTFC527Z18RDK8KW6P4R","","null","<img src=""img/land4.png"" style=""width:200px;border:14px solid red;"">","null","","","","","","","","","",""
"","image-keyboard-response","230","191300","0.0-230.0","3DHE4R9OCXXFL5VAR4XZT856781G2J","A2YCMO8KFFQAJ9","3MXX6RQ9EVRTFC527Z18RDK8KW6P4R","","492.59999999403954","img/land1.png","75","493.7000000178814","2","1","3","2","0.8,0.2,0.2,0.2,0.8,0.2,0.2,0.2,0.8","0.8,0.2,0.2,0.2,0.8,0.2,0.2,0.2,0.8","1","",""
"","html-keyboard-response","231","191606","0.0-231.0","3DHE4R9OCXXFL5VAR4XZT856781G2J","A2YCMO8KFFQAJ9","3MXX6RQ9EVRTFC527Z18RDK8KW6P4R","","null","<img src=""img/land1.png"" style=""width:200px; border:14px solid green;"">","null","","","","","","","","","",""
"","image-keyboard-response","232","191891","0.0-232.0","3DHE4R9OCXXFL5VAR4XZT856781G2J","A2YCMO8KFFQAJ9","3MXX6RQ9EVRTFC527Z18RDK8KW6P4R","","283.90000000596046","img/land4.png","75","285.30000001192093","2","0","1","2","0.8,0.2,0.2,0.2,0.8,0.2,0.2,0.2,0.8","0.8,0.2,0.2,0.2,0.8,0.2,0.2,0.2,0.8","1","",""
"","html-keyboard-response","233","192198","0.0-233.0","3DHE4R9OCXXFL5VAR4XZT856781G2J","A2YCMO8KFFQAJ9","3MXX6RQ9EVRTFC527Z18RDK8KW6P4R","","null","<img src=""img/land4.png"" style=""width:200px;border:14px solid red;"">","null","","","","","","","","","",""
"","image-keyboard-response","234","192747","0.0-234.0","3DHE4R9OCXXFL5VAR4XZT856781G2J","A2YCMO8KFFQAJ9","3MXX6RQ9EVRTFC527Z18RDK8KW6P4R","","548.3000000119209","img/land4.png","76","549.5","3","0","1","2","0.8,0.2,0.2,0.2,0.8,0.2,0.2,0.2,0.8","0.8,0.2,0.2,0.2,0.8,0.2,0.2,0.2,0.8","1","",""
"","html-keyboard-response","235","193053","0.0-235.0","3DHE4R9OCXXFL5VAR4XZT856781G2J","A2YCMO8KFFQAJ9","3MXX6RQ9EVRTFC527Z18RDK8KW6P4R","","null","<img src=""img/land4.png"" style=""width:200px;border:14px solid red;"">","null","","","","","","","","","",""
"","image-keyboard-response","236","193655","0.0-236.0","3DHE4R9OCXXFL5VAR4XZT856781G2J","A2YCMO8KFFQAJ9","3MXX6RQ9EVRTFC527Z18RDK8KW6P4R","","600.8000000119209","img/land1.png","75","601.5","2","1","3","2","0.8,0.2,0.2,0.2,0.8,0.2,0.2,0.2,0.8","0.8,0.2,0.2,0.2,0.8,0.2,0.2,0.2,0.8","1","",""
"","html-keyboard-response","237","193958","0.0-237.0","3DHE4R9OCXXFL5VAR4XZT856781G2J","A2YCMO8KFFQAJ9","3MXX6RQ9EVRTFC527Z18RDK8KW6P4R","","null","<img src=""img/land1.png"" style=""width:200px; border:14px solid green;"">","null","","","","","","","","","",""
"","image-keyboard-response","238","194748","0.0-238.0","3DHE4R9OCXXFL5VAR4XZT856781G2J","A2YCMO8KFFQAJ9","3MXX6RQ9EVRTFC527Z18RDK8KW6P4R","","788.1999999880791","img/land4.png","75","789.6000000238419","2","1","1","2","0.8,0.2,0.2,0.2,0.8,0.2,0.2,0.2,0.8","0.8,0.2,0.2,0.2,0.8,0.2,0.2,0.2,0.8","1","",""
"","html-keyboard-response","239","195054","0.0-239.0","3DHE4R9OCXXFL5VAR4XZT856781G2J","A2YCMO8KFFQAJ9","3MXX6RQ9EVRTFC527Z18RDK8KW6P4R","","null","<img src=""img/land4.png"" style=""width:200px; border:14px solid green;"">","null","","","","","","","","","",""
"","image-keyboard-response","240","195404","0.0-240.0","3DHE4R9OCXXFL5VAR4XZT856781G2J","A2YCMO8KFFQAJ9","3MXX6RQ9EVRTFC527Z18RDK8KW6P4R","","349.2000000178814","img/land4.png","75","350.60000002384186","2","0","1","2","0.8,0.2,0.2,0.2,0.8,0.2,0.2,0.2,0.8","0.8,0.2,0.2,0.2,0.8,0.2,0.2,0.2,0.8","1","",""
"","html-keyboard-response","241","195710","0.0-241.0","3DHE4R9OCXXFL5VAR4XZT856781G2J","A2YCMO8KFFQAJ9","3MXX6RQ9EVRTFC527Z18RDK8KW6P4R","","null","<img src=""img/land4.png"" style=""width:200px;border:14px solid red;"">","null","","","","","","","","","",""
"","image-keyboard-response","242","196609","0.0-242.0","3DHE4R9OCXXFL5VAR4XZT856781G2J","A2YCMO8KFFQAJ9","3MXX6RQ9EVRTFC527Z18RDK8KW6P4R","","898.0999999940395","img/land4.png","74","899.3000000119209","1","1","1","2","0.8,0.2,0.2,0.2,0.8,0.2,0.2,0.2,0.8","0.8,0.2,0.2,0.2,0.8,0.2,0.2,0.2,0.8","1","",""
"","html-keyboard-response","243","196918","0.0-243.0","3DHE4R9OCXXFL5VAR4XZT856781G2J","A2YCMO8KFFQAJ9","3MXX6RQ9EVRTFC527Z18RDK8KW6P4R","","null","<img src=""img/land4.png"" style=""width:200px; border:14px solid green;"">","null","","","","","","","","","",""
"","image-keyboard-response","244","197564","0.0-244.0","3DHE4R9OCXXFL5VAR4XZT856781G2J","A2YCMO8KFFQAJ9","3MXX6RQ9EVRTFC527Z18RDK8KW6P4R","","644.1999999880791","img/land1.png","74","645.5","1","1","3","2","0.8,0.2,0.2,0.2,0.8,0.2,0.2,0.2,0.8","0.8,0.2,0.2,0.2,0.8,0.2,0.2,0.2,0.8","1","",""
"","html-keyboard-response","245","197870","0.0-245.0","3DHE4R9OCXXFL5VAR4XZT856781G2J","A2YCMO8KFFQAJ9","3MXX6RQ9EVRTFC527Z18RDK8KW6P4R","","null","<img src=""img/land1.png"" style=""width:200px; border:14px solid green;"">","null","","","","","","","","","",""
"","image-keyboard-response","246","198107","0.0-246.0","3DHE4R9OCXXFL5VAR4XZT856781G2J","A2YCMO8KFFQAJ9","3MXX6RQ9EVRTFC527Z18RDK8KW6P4R","","235.5","img/land4.png","74","236.59999999403954","1","1","1","2","0.8,0.2,0.2,0.2,0.8,0.2,0.2,0.2,0.8","0.8,0.2,0.2,0.2,0.8,0.2,0.2,0.2,0.8","1","",""
"","html-keyboard-response","247","198414","0.0-247.0","3DHE4R9OCXXFL5VAR4XZT856781G2J","A2YCMO8KFFQAJ9","3MXX6RQ9EVRTFC527Z18RDK8KW6P4R","","null","<img src=""img/land4.png"" style=""width:200px; border:14px solid green;"">","null","","","","","","","","","",""
"","image-keyboard-response","248","198739","0.0-248.0","3DHE4R9OCXXFL5VAR4XZT856781G2J","A2YCMO8KFFQAJ9","3MXX6RQ9EVRTFC527Z18RDK8KW6P4R","","323.2999999821186","img/land4.png","74","324.69999998807907","1","1","1","2","0.8,0.2,0.2,0.2,0.8,0.2,0.2,0.2,0.8","0.8,0.2,0.2,0.2,0.8,0.2,0.2,0.2,0.8","1","",""
"","html-keyboard-response","249","199046","0.0-249.0","3DHE4R9OCXXFL5VAR4XZT856781G2J","A2YCMO8KFFQAJ9","3MXX6RQ9EVRTFC527Z18RDK8KW6P4R","","null","<img src=""img/land4.png"" style=""width:200px; border:14px solid green;"">","null","","","","","","","","","",""
"","image-keyboard-response","250","199348","0.0-250.0","3DHE4R9OCXXFL5VAR4XZT856781G2J","A2YCMO8KFFQAJ9","3MXX6RQ9EVRTFC527Z18RDK8KW6P4R","","300.90000000596046","img/land4.png","74","302.10000002384186","1","0","1","2","0.8,0.2,0.2,0.2,0.8,0.2,0.2,0.2,0.8","0.8,0.2,0.2,0.2,0.8,0.2,0.2,0.2,0.8","1","",""
"","html-keyboard-response","251","199654","0.0-251.0","3DHE4R9OCXXFL5VAR4XZT856781G2J","A2YCMO8KFFQAJ9","3MXX6RQ9EVRTFC527Z18RDK8KW6P4R","","null","<img src=""img/land4.png"" style=""width:200px;border:14px solid red;"">","null","","","","","","","","","",""
"","image-keyboard-response","252","200047","0.0-252.0","3DHE4R9OCXXFL5VAR4XZT856781G2J","A2YCMO8KFFQAJ9","3MXX6RQ9EVRTFC527Z18RDK8KW6P4R","","392.40000000596046","img/land4.png","75","393.60000002384186","2","0","1","2","0.8,0.2,0.2,0.2,0.8,0.2,0.2,0.2,0.8","0.8,0.2,0.2,0.2,0.8,0.2,0.2,0.2,0.8","1","",""
"","html-keyboard-response","253","200350","0.0-253.0","3DHE4R9OCXXFL5VAR4XZT856781G2J","A2YCMO8KFFQAJ9","3MXX6RQ9EVRTFC527Z18RDK8KW6P4R","","null","<img src=""img/land4.png"" style=""width:200px;border:14px solid red;"">","null","","","","","","","","","",""
"","image-keyboard-response","254","200775","0.0-254.0","3DHE4R9OCXXFL5VAR4XZT856781G2J","A2YCMO8KFFQAJ9","3MXX6RQ9EVRTFC527Z18RDK8KW6P4R","","423.39999997615814","img/land4.png","76","424.59999999403954","3","0","1","2","0.8,0.2,0.2,0.2,0.8,0.2,0.2,0.2,0.8","0.8,0.2,0.2,0.2,0.8,0.2,0.2,0.2,0.8","1","",""
"","html-keyboard-response","255","201078","0.0-255.0","3DHE4R9OCXXFL5VAR4XZT856781G2J","A2YCMO8KFFQAJ9","3MXX6RQ9EVRTFC527Z18RDK8KW6P4R","","null","<img src=""img/land4.png"" style=""width:200px;border:14px solid red;"">","null","","","","","","","","","",""
"","image-keyboard-response","256","201529","0.0-256.0","3DHE4R9OCXXFL5VAR4XZT856781G2J","A2YCMO8KFFQAJ9","3MXX6RQ9EVRTFC527Z18RDK8KW6P4R","","450.09999999403954","img/land1.png","76","451.19999998807907","3","1","3","2","0.8,0.2,0.2,0.2,0.8,0.2,0.2,0.2,0.8","0.8,0.2,0.2,0.2,0.8,0.2,0.2,0.2,0.8","1","",""
"","html-keyboard-response","257","201838","0.0-257.0","3DHE4R9OCXXFL5VAR4XZT856781G2J","A2YCMO8KFFQAJ9","3MXX6RQ9EVRTFC527Z18RDK8KW6P4R","","null","<img src=""img/land1.png"" style=""width:200px; border:14px solid green;"">","null","","","","","","","","","",""
"","image-keyboard-response","258","202007","0.0-258.0","3DHE4R9OCXXFL5VAR4XZT856781G2J","A2YCMO8KFFQAJ9","3MXX6RQ9EVRTFC527Z18RDK8KW6P4R","","167.09999999403954","img/land1.png","76","168.5","3","0","3","2","0.8,0.2,0.2,0.2,0.8,0.2,0.2,0.2,0.8","0.8,0.2,0.2,0.2,0.8,0.2,0.2,0.2,0.8","1","",""
"","html-keyboard-response","259","202310","0.0-259.0","3DHE4R9OCXXFL5VAR4XZT856781G2J","A2YCMO8KFFQAJ9","3MXX6RQ9EVRTFC527Z18RDK8KW6P4R","","null","<img src=""img/land1.png"" style=""width:200px;border:14px solid red;"">","null","","","","","","","","","",""
"","image-keyboard-response","260","202859","0.0-260.0","3DHE4R9OCXXFL5VAR4XZT856781G2J","A2YCMO8KFFQAJ9","3MXX6RQ9EVRTFC527Z18RDK8KW6P4R","","548","img/land1.png","75","549.2999999821186","2","0","3","2","0.8,0.2,0.2,0.2,0.8,0.2,0.2,0.2,0.8","0.8,0.2,0.2,0.2,0.8,0.2,0.2,0.2,0.8","1","",""
"","html-keyboard-response","261","203166","0.0-261.0","3DHE4R9OCXXFL5VAR4XZT856781G2J","A2YCMO8KFFQAJ9","3MXX6RQ9EVRTFC527Z18RDK8KW6P4R","","null","<img src=""img/land1.png"" style=""width:200px;border:14px solid red;"">","null","","","","","","","","","",""
"","image-keyboard-response","262","203418","0.0-262.0","3DHE4R9OCXXFL5VAR4XZT856781G2J","A2YCMO8KFFQAJ9","3MXX6RQ9EVRTFC527Z18RDK8KW6P4R","","251","img/land4.png","75","252.2000000178814","2","0","1","2","0.8,0.2,0.2,0.2,0.8,0.2,0.2,0.2,0.8","0.8,0.2,0.2,0.2,0.8,0.2,0.2,0.2,0.8","1","",""
"","html-keyboard-response","263","203726","0.0-263.0","3DHE4R9OCXXFL5VAR4XZT856781G2J","A2YCMO8KFFQAJ9","3MXX6RQ9EVRTFC527Z18RDK8KW6P4R","","null","<img src=""img/land4.png"" style=""width:200px;border:14px solid red;"">","null","","","","","","","","","",""
"","image-keyboard-response","264","204894","0.0-264.0","3DHE4R9OCXXFL5VAR4XZT856781G2J","A2YCMO8KFFQAJ9","3MXX6RQ9EVRTFC527Z18RDK8KW6P4R","","1166.9000000059605","img/land4.png","74","1168","1","1","1","2","0.8,0.2,0.2,0.2,0.8,0.2,0.2,0.2,0.8","0.8,0.2,0.2,0.2,0.8,0.2,0.2,0.2,0.8","1","",""
"","html-keyboard-response","265","205198","0.0-265.0","3DHE4R9OCXXFL5VAR4XZT856781G2J","A2YCMO8KFFQAJ9","3MXX6RQ9EVRTFC527Z18RDK8KW6P4R","","null","<img src=""img/land4.png"" style=""width:200px; border:14px solid green;"">","null","","","","","","","","","",""
"","image-keyboard-response","266","205516","0.0-266.0","3DHE4R9OCXXFL5VAR4XZT856781G2J","A2YCMO8KFFQAJ9","3MXX6RQ9EVRTFC527Z18RDK8KW6P4R","","316.59999999403954","img/land4.png","74","317.69999998807907","1","1","1","2","0.8,0.2,0.2,0.2,0.8,0.2,0.2,0.2,0.8","0.8,0.2,0.2,0.2,0.8,0.2,0.2,0.2,0.8","1","",""
"","html-keyboard-response","267","205822","0.0-267.0","3DHE4R9OCXXFL5VAR4XZT856781G2J","A2YCMO8KFFQAJ9","3MXX6RQ9EVRTFC527Z18RDK8KW6P4R","","null","<img src=""img/land4.png"" style=""width:200px; border:14px solid green;"">","null","","","","","","","","","",""
"","image-keyboard-response","268","206125","0.0-268.0","3DHE4R9OCXXFL5VAR4XZT856781G2J","A2YCMO8KFFQAJ9","3MXX6RQ9EVRTFC527Z18RDK8KW6P4R","","301.80000001192093","img/land4.png","74","303","1","1","1","2","0.8,0.2,0.2,0.2,0.8,0.2,0.2,0.2,0.8","0.8,0.2,0.2,0.2,0.8,0.2,0.2,0.2,0.8","1","",""
"","html-keyboard-response","269","206430","0.0-269.0","3DHE4R9OCXXFL5VAR4XZT856781G2J","A2YCMO8KFFQAJ9","3MXX6RQ9EVRTFC527Z18RDK8KW6P4R","","null","<img src=""img/land4.png"" style=""width:200px; border:14px solid green;"">","null","","","","","","","","","",""
"","image-keyboard-response","270","207154","0.0-270.0","3DHE4R9OCXXFL5VAR4XZT856781G2J","A2YCMO8KFFQAJ9","3MXX6RQ9EVRTFC527Z18RDK8KW6P4R","","722.8000000119209","img/land2.png","75","724","2","0","2","2","0.8,0.2,0.2,0.2,0.8,0.2,0.2,0.2,0.8","0.8,0.2,0.2,0.2,0.8,0.2,0.2,0.2,0.8","1","",""
"","html-keyboard-response","271","207462","0.0-271.0","3DHE4R9OCXXFL5VAR4XZT856781G2J","A2YCMO8KFFQAJ9","3MXX6RQ9EVRTFC527Z18RDK8KW6P4R","","null","<img src=""img/land2.png"" style=""width:200px;border:14px solid red;"">","null","","","","","","","","","",""
"","image-keyboard-response","272","207568","0.0-272.0","3DHE4R9OCXXFL5VAR4XZT856781G2J","A2YCMO8KFFQAJ9","3MXX6RQ9EVRTFC527Z18RDK8KW6P4R","","105.2000000178814","img/land4.png","75","106.5","2","0","1","2","0.8,0.2,0.2,0.2,0.8,0.2,0.2,0.2,0.8","0.8,0.2,0.2,0.2,0.8,0.2,0.2,0.2,0.8","1","",""
"","html-keyboard-response","273","207878","0.0-273.0","3DHE4R9OCXXFL5VAR4XZT856781G2J","A2YCMO8KFFQAJ9","3MXX6RQ9EVRTFC527Z18RDK8KW6P4R","","null","<img src=""img/land4.png"" style=""width:200px;border:14px solid red;"">","null","","","","","","","","","",""
"","image-keyboard-response","274","208502","0.0-274.0","3DHE4R9OCXXFL5VAR4XZT856781G2J","A2YCMO8KFFQAJ9","3MXX6RQ9EVRTFC527Z18RDK8KW6P4R","","623.1000000238419","img/land1.png","76","624.2999999821186","3","1","3","2","0.8,0.2,0.2,0.2,0.8,0.2,0.2,0.2,0.8","0.8,0.2,0.2,0.2,0.8,0.2,0.2,0.2,0.8","1","",""
"","html-keyboard-response","275","208806","0.0-275.0","3DHE4R9OCXXFL5VAR4XZT856781G2J","A2YCMO8KFFQAJ9","3MXX6RQ9EVRTFC527Z18RDK8KW6P4R","","null","<img src=""img/land1.png"" style=""width:200px; border:14px solid green;"">","null","","","","","","","","","",""
"","image-keyboard-response","276","209027","0.0-276.0","3DHE4R9OCXXFL5VAR4XZT856781G2J","A2YCMO8KFFQAJ9","3MXX6RQ9EVRTFC527Z18RDK8KW6P4R","","219.80000001192093","img/land4.png","76","220.90000000596046","3","1","1","2","0.8,0.2,0.2,0.2,0.8,0.2,0.2,0.2,0.8","0.8,0.2,0.2,0.2,0.8,0.2,0.2,0.2,0.8","1","",""
"","html-keyboard-response","277","209334","0.0-277.0","3DHE4R9OCXXFL5VAR4XZT856781G2J","A2YCMO8KFFQAJ9","3MXX6RQ9EVRTFC527Z18RDK8KW6P4R","","null","<img src=""img/land4.png"" style=""width:200px; border:14px solid green;"">","null","","","","","","","","","",""
"","image-keyboard-response","278","209520","0.0-278.0","3DHE4R9OCXXFL5VAR4XZT856781G2J","A2YCMO8KFFQAJ9","3MXX6RQ9EVRTFC527Z18RDK8KW6P4R","","184.09999999403954","img/land4.png","76","185.30000001192093","3","0","1","2","0.8,0.2,0.2,0.2,0.8,0.2,0.2,0.2,0.8","0.8,0.2,0.2,0.2,0.8,0.2,0.2,0.2,0.8","1","",""
"","html-keyboard-response","279","209822","0.0-279.0","3DHE4R9OCXXFL5VAR4XZT856781G2J","A2YCMO8KFFQAJ9","3MXX6RQ9EVRTFC527Z18RDK8KW6P4R","","null","<img src=""img/land4.png"" style=""width:200px;border:14px solid red;"">","null","","","","","","","","","",""
"","image-keyboard-response","280","209937","0.0-280.0","3DHE4R9OCXXFL5VAR4XZT856781G2J","A2YCMO8KFFQAJ9","3MXX6RQ9EVRTFC527Z18RDK8KW6P4R","","113.59999999403954","img/land4.png","76","114.90000000596046","3","0","1","2","0.8,0.2,0.2,0.2,0.8,0.2,0.2,0.2,0.8","0.8,0.2,0.2,0.2,0.8,0.2,0.2,0.2,0.8","1","",""
"","html-keyboard-response","281","210246","0.0-281.0","3DHE4R9OCXXFL5VAR4XZT856781G2J","A2YCMO8KFFQAJ9","3MXX6RQ9EVRTFC527Z18RDK8KW6P4R","","null","<img src=""img/land4.png"" style=""width:200px;border:14px solid red;"">","null","","","","","","","","","",""
"","image-keyboard-response","282","210318","0.0-282.0","3DHE4R9OCXXFL5VAR4XZT856781G2J","A2YCMO8KFFQAJ9","3MXX6RQ9EVRTFC527Z18RDK8KW6P4R","","70.30000001192093","img/land4.png","75","71.60000002384186","2","0","1","2","0.8,0.2,0.2,0.2,0.8,0.2,0.2,0.2,0.8","0.8,0.2,0.2,0.2,0.8,0.2,0.2,0.2,0.8","1","",""
"","html-keyboard-response","283","210622","0.0-283.0","3DHE4R9OCXXFL5VAR4XZT856781G2J","A2YCMO8KFFQAJ9","3MXX6RQ9EVRTFC527Z18RDK8KW6P4R","","null","<img src=""img/land4.png"" style=""width:200px;border:14px solid red;"">","null","","","","","","","","","",""
"","image-keyboard-response","284","210656","0.0-284.0","3DHE4R9OCXXFL5VAR4XZT856781G2J","A2YCMO8KFFQAJ9","3MXX6RQ9EVRTFC527Z18RDK8KW6P4R","","32.80000001192093","img/land2.png","75","33.900000005960464","2","1","2","2","0.8,0.2,0.2,0.2,0.8,0.2,0.2,0.2,0.8","0.8,0.2,0.2,0.2,0.8,0.2,0.2,0.2,0.8","1","",""
"","html-keyboard-response","285","210958","0.0-285.0","3DHE4R9OCXXFL5VAR4XZT856781G2J","A2YCMO8KFFQAJ9","3MXX6RQ9EVRTFC527Z18RDK8KW6P4R","","null","<img src=""img/land2.png"" style=""width:200px; border:14px solid green;"">","null","","","","","","","","","",""
"","image-keyboard-response","286","211050","0.0-286.0","3DHE4R9OCXXFL5VAR4XZT856781G2J","A2YCMO8KFFQAJ9","3MXX6RQ9EVRTFC527Z18RDK8KW6P4R","","91.10000002384186","img/land4.png","75","92.19999998807907","2","0","1","2","0.8,0.2,0.2,0.2,0.8,0.2,0.2,0.2,0.8","0.8,0.2,0.2,0.2,0.8,0.2,0.2,0.2,0.8","1","",""
"","html-keyboard-response","287","211358","0.0-287.0","3DHE4R9OCXXFL5VAR4XZT856781G2J","A2YCMO8KFFQAJ9","3MXX6RQ9EVRTFC527Z18RDK8KW6P4R","","null","<img src=""img/land4.png"" style=""width:200px;border:14px solid red;"">","null","","","","","","","","","",""
"","image-keyboard-response","288","211500","0.0-288.0","3DHE4R9OCXXFL5VAR4XZT856781G2J","A2YCMO8KFFQAJ9","3MXX6RQ9EVRTFC527Z18RDK8KW6P4R","","141.2000000178814","img/land4.png","75","142.39999997615814","2","0","1","2","0.8,0.2,0.2,0.2,0.8,0.2,0.2,0.2,0.8","0.8,0.2,0.2,0.2,0.8,0.2,0.2,0.2,0.8","1","",""
"","html-keyboard-response","289","211806","0.0-289.0","3DHE4R9OCXXFL5VAR4XZT856781G2J","A2YCMO8KFFQAJ9","3MXX6RQ9EVRTFC527Z18RDK8KW6P4R","","null","<img src=""img/land4.png"" style=""width:200px;border:14px solid red;"">","null","","","","","","","","","",""
"","image-keyboard-response","290","211922","0.0-290.0","3DHE4R9OCXXFL5VAR4XZT856781G2J","A2YCMO8KFFQAJ9","3MXX6RQ9EVRTFC527Z18RDK8KW6P4R","","115","img/land1.png","76","116.2000000178814","3","0","3","2","0.8,0.2,0.2,0.2,0.8,0.2,0.2,0.2,0.8","0.8,0.2,0.2,0.2,0.8,0.2,0.2,0.2,0.8","1","",""
"","html-keyboard-response","291","212230","0.0-291.0","3DHE4R9OCXXFL5VAR4XZT856781G2J","A2YCMO8KFFQAJ9","3MXX6RQ9EVRTFC527Z18RDK8KW6P4R","","null","<img src=""img/land1.png"" style=""width:200px;border:14px solid red;"">","null","","","","","","","","","",""
"","image-keyboard-response","292","212523","0.0-292.0","3DHE4R9OCXXFL5VAR4XZT856781G2J","A2YCMO8KFFQAJ9","3MXX6RQ9EVRTFC527Z18RDK8KW6P4R","","291.40000000596046","img/land1.png","75","292.80000001192093","2","0","3","2","0.8,0.2,0.2,0.2,0.8,0.2,0.2,0.2,0.8","0.8,0.2,0.2,0.2,0.8,0.2,0.2,0.2,0.8","1","",""
"","html-keyboard-response","293","212830","0.0-293.0","3DHE4R9OCXXFL5VAR4XZT856781G2J","A2YCMO8KFFQAJ9","3MXX6RQ9EVRTFC527Z18RDK8KW6P4R","","null","<img src=""img/land1.png"" style=""width:200px;border:14px solid red;"">","null","","","","","","","","","",""
"","image-keyboard-response","294","212897","0.0-294.0","3DHE4R9OCXXFL5VAR4XZT856781G2J","A2YCMO8KFFQAJ9","3MXX6RQ9EVRTFC527Z18RDK8KW6P4R","","65.5","img/land2.png","74","66.7999999821186","1","0","2","2","0.8,0.2,0.2,0.2,0.8,0.2,0.2,0.2,0.8","0.8,0.2,0.2,0.2,0.8,0.2,0.2,0.2,0.8","1","",""
"","html-keyboard-response","295","213206","0.0-295.0","3DHE4R9OCXXFL5VAR4XZT856781G2J","A2YCMO8KFFQAJ9","3MXX6RQ9EVRTFC527Z18RDK8KW6P4R","","null","<img src=""img/land2.png"" style=""width:200px;border:14px solid red;"">","null","","","","","","","","","",""
"","image-keyboard-response","296","213633","0.0-296.0","3DHE4R9OCXXFL5VAR4XZT856781G2J","A2YCMO8KFFQAJ9","3MXX6RQ9EVRTFC527Z18RDK8KW6P4R","","425.59999999403954","img/land4.png","74","426.80000001192093","1","1","1","2","0.8,0.2,0.2,0.2,0.8,0.2,0.2,0.2,0.8","0.8,0.2,0.2,0.2,0.8,0.2,0.2,0.2,0.8","1","",""
"","html-keyboard-response","297","213942","0.0-297.0","3DHE4R9OCXXFL5VAR4XZT856781G2J","A2YCMO8KFFQAJ9","3MXX6RQ9EVRTFC527Z18RDK8KW6P4R","","null","<img src=""img/land4.png"" style=""width:200px; border:14px solid green;"">","null","","","","","","","","","",""
"","image-keyboard-response","298","214019","0.0-298.0","3DHE4R9OCXXFL5VAR4XZT856781G2J","A2YCMO8KFFQAJ9","3MXX6RQ9EVRTFC527Z18RDK8KW6P4R","","75","img/land4.png","74","76.5","1","0","1","2","0.8,0.2,0.2,0.2,0.8,0.2,0.2,0.2,0.8","0.8,0.2,0.2,0.2,0.8,0.2,0.2,0.2,0.8","1","",""
"","html-keyboard-response","299","214326","0.0-299.0","3DHE4R9OCXXFL5VAR4XZT856781G2J","A2YCMO8KFFQAJ9","3MXX6RQ9EVRTFC527Z18RDK8KW6P4R","","null","<img src=""img/land4.png"" style=""width:200px;border:14px solid red;"">","null","","","","","","","","","",""
"","image-keyboard-response","300","214992","0.0-300.0","3DHE4R9OCXXFL5VAR4XZT856781G2J","A2YCMO8KFFQAJ9","3MXX6RQ9EVRTFC527Z18RDK8KW6P4R","","664.5999999940395","img/land1.png","74","665.8000000119209","1","0","3","2","0.8,0.2,0.2,0.2,0.8,0.2,0.2,0.2,0.8","0.8,0.2,0.2,0.2,0.8,0.2,0.2,0.2,0.8","1","",""
"","html-keyboard-response","301","215294","0.0-301.0","3DHE4R9OCXXFL5VAR4XZT856781G2J","A2YCMO8KFFQAJ9","3MXX6RQ9EVRTFC527Z18RDK8KW6P4R","","null","<img src=""img/land1.png"" style=""width:200px;border:14px solid red;"">","null","","","","","","","","","",""
"","image-keyboard-response","302","216350","0.0-302.0","3DHE4R9OCXXFL5VAR4XZT856781G2J","A2YCMO8KFFQAJ9","3MXX6RQ9EVRTFC527Z18RDK8KW6P4R","","1054.7000000178814","img/land6.png","74","1056.0999999940395","1","1","1","1","0.8,0.2,0.2,0.2,0.8,0.2,0.2,0.2,0.8","0.8,0.2,0.2,0.2,0.8,0.2,0.2,0.2,0.8","1","",""
"","html-keyboard-response","303","216654","0.0-303.0","3DHE4R9OCXXFL5VAR4XZT856781G2J","A2YCMO8KFFQAJ9","3MXX6RQ9EVRTFC527Z18RDK8KW6P4R","","null","<img src=""img/land6.png"" style=""width:200px; border:14px solid green;"">","null","","","","","","","","","",""
"","image-keyboard-response","304","216837","0.0-304.0","3DHE4R9OCXXFL5VAR4XZT856781G2J","A2YCMO8KFFQAJ9","3MXX6RQ9EVRTFC527Z18RDK8KW6P4R","","181.90000000596046","img/land6.png","74","182.7999999821186","1","1","1","1","0.8,0.2,0.2,0.2,0.8,0.2,0.2,0.2,0.8","0.8,0.2,0.2,0.2,0.8,0.2,0.2,0.2,0.8","1","",""
"","html-keyboard-response","305","217142","0.0-305.0","3DHE4R9OCXXFL5VAR4XZT856781G2J","A2YCMO8KFFQAJ9","3MXX6RQ9EVRTFC527Z18RDK8KW6P4R","","null","<img src=""img/land6.png"" style=""width:200px; border:14px solid green;"">","null","","","","","","","","","",""
"","image-keyboard-response","306","217674","0.0-306.0","3DHE4R9OCXXFL5VAR4XZT856781G2J","A2YCMO8KFFQAJ9","3MXX6RQ9EVRTFC527Z18RDK8KW6P4R","","530.8000000119209","img/land6.png","75","531.9000000059605","2","0","1","1","0.8,0.2,0.2,0.2,0.8,0.2,0.2,0.2,0.8","0.8,0.2,0.2,0.2,0.8,0.2,0.2,0.2,0.8","1","",""
"","html-keyboard-response","307","217982","0.0-307.0","3DHE4R9OCXXFL5VAR4XZT856781G2J","A2YCMO8KFFQAJ9","3MXX6RQ9EVRTFC527Z18RDK8KW6P4R","","null","<img src=""img/land6.png"" style=""width:200px;border:14px solid red;"">","null","","","","","","","","","",""
"","image-keyboard-response","308","218541","0.0-308.0","3DHE4R9OCXXFL5VAR4XZT856781G2J","A2YCMO8KFFQAJ9","3MXX6RQ9EVRTFC527Z18RDK8KW6P4R","","558.2999999821186","img/land5.png","76","559.4000000059605","3","0","3","1","0.8,0.2,0.2,0.2,0.8,0.2,0.2,0.2,0.8","0.8,0.2,0.2,0.2,0.8,0.2,0.2,0.2,0.8","1","",""
"","html-keyboard-response","309","218846","0.0-309.0","3DHE4R9OCXXFL5VAR4XZT856781G2J","A2YCMO8KFFQAJ9","3MXX6RQ9EVRTFC527Z18RDK8KW6P4R","","null","<img src=""img/land5.png"" style=""width:200px;border:14px solid red;"">","null","","","","","","","","","",""
"","image-keyboard-response","310","219267","0.0-310.0","3DHE4R9OCXXFL5VAR4XZT856781G2J","A2YCMO8KFFQAJ9","3MXX6RQ9EVRTFC527Z18RDK8KW6P4R","","419.59999999403954","img/land5.png","76","420.7999999821186","3","1","3","1","0.8,0.2,0.2,0.2,0.8,0.2,0.2,0.2,0.8","0.8,0.2,0.2,0.2,0.8,0.2,0.2,0.2,0.8","1","",""
"","html-keyboard-response","311","219574","0.0-311.0","3DHE4R9OCXXFL5VAR4XZT856781G2J","A2YCMO8KFFQAJ9","3MXX6RQ9EVRTFC527Z18RDK8KW6P4R","","null","<img src=""img/land5.png"" style=""width:200px; border:14px solid green;"">","null","","","","","","","","","",""
"","image-keyboard-response","312","219761","0.0-312.0","3DHE4R9OCXXFL5VAR4XZT856781G2J","A2YCMO8KFFQAJ9","3MXX6RQ9EVRTFC527Z18RDK8KW6P4R","","185.80000001192093","img/land6.png","76","187.09999999403954","3","1","1","1","0.8,0.2,0.2,0.2,0.8,0.2,0.2,0.2,0.8","0.8,0.2,0.2,0.2,0.8,0.2,0.2,0.2,0.8","1","",""
"","html-keyboard-response","313","220070","0.0-313.0","3DHE4R9OCXXFL5VAR4XZT856781G2J","A2YCMO8KFFQAJ9","3MXX6RQ9EVRTFC527Z18RDK8KW6P4R","","null","<img src=""img/land6.png"" style=""width:200px; border:14px solid green;"">","null","","","","","","","","","",""
"","image-keyboard-response","314","220757","0.0-314.0","3DHE4R9OCXXFL5VAR4XZT856781G2J","A2YCMO8KFFQAJ9","3MXX6RQ9EVRTFC527Z18RDK8KW6P4R","","686.0999999940395","img/land3.png","76","687.3999999761581","3","0","2","1","0.8,0.2,0.2,0.2,0.8,0.2,0.2,0.2,0.8","0.8,0.2,0.2,0.2,0.8,0.2,0.2,0.2,0.8","1","",""
"","html-keyboard-response","315","221062","0.0-315.0","3DHE4R9OCXXFL5VAR4XZT856781G2J","A2YCMO8KFFQAJ9","3MXX6RQ9EVRTFC527Z18RDK8KW6P4R","","null","<img src=""img/land3.png"" style=""width:200px;border:14px solid red;"">","null","","","","","","","","","",""
"","image-keyboard-response","316","221206","0.0-316.0","3DHE4R9OCXXFL5VAR4XZT856781G2J","A2YCMO8KFFQAJ9","3MXX6RQ9EVRTFC527Z18RDK8KW6P4R","","142.69999998807907","img/land3.png","75","143.80000001192093","2","1","2","1","0.8,0.2,0.2,0.2,0.8,0.2,0.2,0.2,0.8","0.8,0.2,0.2,0.2,0.8,0.2,0.2,0.2,0.8","1","",""
"","html-keyboard-response","317","221510","0.0-317.0","3DHE4R9OCXXFL5VAR4XZT856781G2J","A2YCMO8KFFQAJ9","3MXX6RQ9EVRTFC527Z18RDK8KW6P4R","","null","<img src=""img/land3.png"" style=""width:200px; border:14px solid green;"">","null","","","","","","","","","",""
"","image-keyboard-response","318","221616","0.0-318.0","3DHE4R9OCXXFL5VAR4XZT856781G2J","A2YCMO8KFFQAJ9","3MXX6RQ9EVRTFC527Z18RDK8KW6P4R","","104.80000001192093","img/land5.png","75","106.10000002384186","2","1","3","1","0.8,0.2,0.2,0.2,0.8,0.2,0.2,0.2,0.8","0.8,0.2,0.2,0.2,0.8,0.2,0.2,0.2,0.8","1","",""
"","html-keyboard-response","319","221918","0.0-319.0","3DHE4R9OCXXFL5VAR4XZT856781G2J","A2YCMO8KFFQAJ9","3MXX6RQ9EVRTFC527Z18RDK8KW6P4R","","null","<img src=""img/land5.png"" style=""width:200px; border:14px solid green;"">","null","","","","","","","","","",""
"","image-keyboard-response","320","222486","0.0-320.0","3DHE4R9OCXXFL5VAR4XZT856781G2J","A2YCMO8KFFQAJ9","3MXX6RQ9EVRTFC527Z18RDK8KW6P4R","","567.0999999940395","img/land3.png","75","568.2999999821186","2","1","2","1","0.8,0.2,0.2,0.2,0.8,0.2,0.2,0.2,0.8","0.8,0.2,0.2,0.2,0.8,0.2,0.2,0.2,0.8","1","",""
"","html-keyboard-response","321","222790","0.0-321.0","3DHE4R9OCXXFL5VAR4XZT856781G2J","A2YCMO8KFFQAJ9","3MXX6RQ9EVRTFC527Z18RDK8KW6P4R","","null","<img src=""img/land3.png"" style=""width:200px; border:14px solid green;"">","null","","","","","","","","","",""
"","image-keyboard-response","322","222984","0.0-322.0","3DHE4R9OCXXFL5VAR4XZT856781G2J","A2YCMO8KFFQAJ9","3MXX6RQ9EVRTFC527Z18RDK8KW6P4R","","192.59999999403954","img/land5.png","74","193.69999998807907","1","1","3","1","0.8,0.2,0.2,0.2,0.8,0.2,0.2,0.2,0.8","0.8,0.2,0.2,0.2,0.8,0.2,0.2,0.2,0.8","1","",""
"","html-keyboard-response","323","223286","0.0-323.0","3DHE4R9OCXXFL5VAR4XZT856781G2J","A2YCMO8KFFQAJ9","3MXX6RQ9EVRTFC527Z18RDK8KW6P4R","","null","<img src=""img/land5.png"" style=""width:200px; border:14px solid green;"">","null","","","","","","","","","",""
"","image-keyboard-response","324","223966","0.0-324.0","3DHE4R9OCXXFL5VAR4XZT856781G2J","A2YCMO8KFFQAJ9","3MXX6RQ9EVRTFC527Z18RDK8KW6P4R","","679.1999999880791","img/land3.png","75","680.2999999821186","2","1","2","1","0.8,0.2,0.2,0.2,0.8,0.2,0.2,0.2,0.8","0.8,0.2,0.2,0.2,0.8,0.2,0.2,0.2,0.8","1","",""
"","html-keyboard-response","325","224270","0.0-325.0","3DHE4R9OCXXFL5VAR4XZT856781G2J","A2YCMO8KFFQAJ9","3MXX6RQ9EVRTFC527Z18RDK8KW6P4R","","null","<img src=""img/land3.png"" style=""width:200px; border:14px solid green;"">","null","","","","","","","","","",""
"","image-keyboard-response","326","224309","0.0-326.0","3DHE4R9OCXXFL5VAR4XZT856781G2J","A2YCMO8KFFQAJ9","3MXX6RQ9EVRTFC527Z18RDK8KW6P4R","","37.70000001788139","img/land5.png","74","39","1","0","3","1","0.8,0.2,0.2,0.2,0.8,0.2,0.2,0.2,0.8","0.8,0.2,0.2,0.2,0.8,0.2,0.2,0.2,0.8","1","",""
"","html-keyboard-response","327","224614","0.0-327.0","3DHE4R9OCXXFL5VAR4XZT856781G2J","A2YCMO8KFFQAJ9","3MXX6RQ9EVRTFC527Z18RDK8KW6P4R","","null","<img src=""img/land5.png"" style=""width:200px;border:14px solid red;"">","null","","","","","","","","","",""
"","image-keyboard-response","328","225499","0.0-328.0","3DHE4R9OCXXFL5VAR4XZT856781G2J","A2YCMO8KFFQAJ9","3MXX6RQ9EVRTFC527Z18RDK8KW6P4R","","883.7999999821186","img/land6.png","75","885.0999999940395","2","1","1","1","0.8,0.2,0.2,0.2,0.8,0.2,0.2,0.2,0.8","0.8,0.2,0.2,0.2,0.8,0.2,0.2,0.2,0.8","1","",""
"","html-keyboard-response","329","225806","0.0-329.0","3DHE4R9OCXXFL5VAR4XZT856781G2J","A2YCMO8KFFQAJ9","3MXX6RQ9EVRTFC527Z18RDK8KW6P4R","","null","<img src=""img/land6.png"" style=""width:200px; border:14px solid green;"">","null","","","","","","","","","",""
"","image-keyboard-response","330","226340","0.0-330.0","3DHE4R9OCXXFL5VAR4XZT856781G2J","A2YCMO8KFFQAJ9","3MXX6RQ9EVRTFC527Z18RDK8KW6P4R","","532.9000000059605","img/land5.png","75","534","2","0","3","1","0.8,0.2,0.2,0.2,0.8,0.2,0.2,0.2,0.8","0.8,0.2,0.2,0.2,0.8,0.2,0.2,0.2,0.8","1","",""
"","html-keyboard-response","331","226646","0.0-331.0","3DHE4R9OCXXFL5VAR4XZT856781G2J","A2YCMO8KFFQAJ9","3MXX6RQ9EVRTFC527Z18RDK8KW6P4R","","null","<img src=""img/land5.png"" style=""width:200px;border:14px solid red;"">","null","","","","","","","","","",""
"","image-keyboard-response","332","227201","0.0-332.0","3DHE4R9OCXXFL5VAR4XZT856781G2J","A2YCMO8KFFQAJ9","3MXX6RQ9EVRTFC527Z18RDK8KW6P4R","","553.2999999821186","img/land3.png","75","554.5","2","1","2","1","0.8,0.2,0.2,0.2,0.8,0.2,0.2,0.2,0.8","0.8,0.2,0.2,0.2,0.8,0.2,0.2,0.2,0.8","1","",""
"","html-keyboard-response","333","227510","0.0-333.0","3DHE4R9OCXXFL5VAR4XZT856781G2J","A2YCMO8KFFQAJ9","3MXX6RQ9EVRTFC527Z18RDK8KW6P4R","","null","<img src=""img/land3.png"" style=""width:200px; border:14px solid green;"">","null","","","","","","","","","",""
"","image-keyboard-response","334","228196","0.0-334.0","3DHE4R9OCXXFL5VAR4XZT856781G2J","A2YCMO8KFFQAJ9","3MXX6RQ9EVRTFC527Z18RDK8KW6P4R","","684.6000000238419","img/land5.png","75","685.6999999880791","2","0","3","1","0.8,0.2,0.2,0.2,0.8,0.2,0.2,0.2,0.8","0.8,0.2,0.2,0.2,0.8,0.2,0.2,0.2,0.8","1","",""
"","html-keyboard-response","335","228502","0.0-335.0","3DHE4R9OCXXFL5VAR4XZT856781G2J","A2YCMO8KFFQAJ9","3MXX6RQ9EVRTFC527Z18RDK8KW6P4R","","null","<img src=""img/land5.png"" style=""width:200px;border:14px solid red;"">","null","","","","","","","","","",""
"","image-keyboard-response","336","230405","0.0-336.0","3DHE4R9OCXXFL5VAR4XZT856781G2J","A2YCMO8KFFQAJ9","3MXX6RQ9EVRTFC527Z18RDK8KW6P4R","","1901.5999999940395","img/land5.png","76","1902.9000000059605","3","0","3","1","0.8,0.2,0.2,0.2,0.8,0.2,0.2,0.2,0.8","0.8,0.2,0.2,0.2,0.8,0.2,0.2,0.2,0.8","1","",""
"","html-keyboard-response","337","230710","0.0-337.0","3DHE4R9OCXXFL5VAR4XZT856781G2J","A2YCMO8KFFQAJ9","3MXX6RQ9EVRTFC527Z18RDK8KW6P4R","","null","<img src=""img/land5.png"" style=""width:200px;border:14px solid red;"">","null","","","","","","","","","",""
"","image-keyboard-response","338","231192","0.0-338.0","3DHE4R9OCXXFL5VAR4XZT856781G2J","A2YCMO8KFFQAJ9","3MXX6RQ9EVRTFC527Z18RDK8KW6P4R","","480.89999997615814","img/land3.png","75","482.39999997615814","2","1","2","1","0.8,0.2,0.2,0.2,0.8,0.2,0.2,0.2,0.8","0.8,0.2,0.2,0.2,0.8,0.2,0.2,0.2,0.8","1","",""
"","html-keyboard-response","339","231502","0.0-339.0","3DHE4R9OCXXFL5VAR4XZT856781G2J","A2YCMO8KFFQAJ9","3MXX6RQ9EVRTFC527Z18RDK8KW6P4R","","null","<img src=""img/land3.png"" style=""width:200px; border:14px solid green;"">","null","","","","","","","","","",""
"","image-keyboard-response","340","231625","0.0-340.0","3DHE4R9OCXXFL5VAR4XZT856781G2J","A2YCMO8KFFQAJ9","3MXX6RQ9EVRTFC527Z18RDK8KW6P4R","","121.7000000178814","img/land5.png","74","122.90000000596046","1","0","3","1","0.8,0.2,0.2,0.2,0.8,0.2,0.2,0.2,0.8","0.8,0.2,0.2,0.2,0.8,0.2,0.2,0.2,0.8","1","",""
"","html-keyboard-response","341","231934","0.0-341.0","3DHE4R9OCXXFL5VAR4XZT856781G2J","A2YCMO8KFFQAJ9","3MXX6RQ9EVRTFC527Z18RDK8KW6P4R","","null","<img src=""img/land5.png"" style=""width:200px;border:14px solid red;"">","null","","","","","","","","","",""
"","image-keyboard-response","342","232419","0.0-342.0","3DHE4R9OCXXFL5VAR4XZT856781G2J","A2YCMO8KFFQAJ9","3MXX6RQ9EVRTFC527Z18RDK8KW6P4R","","483.2999999821186","img/land5.png","75","484.59999999403954","2","0","3","1","0.8,0.2,0.2,0.2,0.8,0.2,0.2,0.2,0.8","0.8,0.2,0.2,0.2,0.8,0.2,0.2,0.2,0.8","1","",""
"","html-keyboard-response","343","232726","0.0-343.0","3DHE4R9OCXXFL5VAR4XZT856781G2J","A2YCMO8KFFQAJ9","3MXX6RQ9EVRTFC527Z18RDK8KW6P4R","","null","<img src=""img/land5.png"" style=""width:200px;border:14px solid red;"">","null","","","","","","","","","",""
"","image-keyboard-response","344","232757","0.0-344.0","3DHE4R9OCXXFL5VAR4XZT856781G2J","A2YCMO8KFFQAJ9","3MXX6RQ9EVRTFC527Z18RDK8KW6P4R","","30.099999994039536","img/land6.png","75","31.400000005960464","2","0","1","1","0.8,0.2,0.2,0.2,0.8,0.2,0.2,0.2,0.8","0.8,0.2,0.2,0.2,0.8,0.2,0.2,0.2,0.8","1","",""
"","html-keyboard-response","345","233062","0.0-345.0","3DHE4R9OCXXFL5VAR4XZT856781G2J","A2YCMO8KFFQAJ9","3MXX6RQ9EVRTFC527Z18RDK8KW6P4R","","null","<img src=""img/land6.png"" style=""width:200px;border:14px solid red;"">","null","","","","","","","","","",""
"","image-keyboard-response","346","233170","0.0-346.0","3DHE4R9OCXXFL5VAR4XZT856781G2J","A2YCMO8KFFQAJ9","3MXX6RQ9EVRTFC527Z18RDK8KW6P4R","","106.40000000596046","img/land3.png","76","107.80000001192093","3","0","2","1","0.8,0.2,0.2,0.2,0.8,0.2,0.2,0.2,0.8","0.8,0.2,0.2,0.2,0.8,0.2,0.2,0.2,0.8","1","",""
"","html-keyboard-response","347","233478","0.0-347.0","3DHE4R9OCXXFL5VAR4XZT856781G2J","A2YCMO8KFFQAJ9","3MXX6RQ9EVRTFC527Z18RDK8KW6P4R","","null","<img src=""img/land3.png"" style=""width:200px;border:14px solid red;"">","null","","","","","","","","","",""
"","image-keyboard-response","348","233676","0.0-348.0","3DHE4R9OCXXFL5VAR4XZT856781G2J","A2YCMO8KFFQAJ9","3MXX6RQ9EVRTFC527Z18RDK8KW6P4R","","196.40000000596046","img/land6.png","75","197.7999999821186","2","0","1","1","0.8,0.2,0.2,0.2,0.8,0.2,0.2,0.2,0.8","0.8,0.2,0.2,0.2,0.8,0.2,0.2,0.2,0.8","1","",""
"","html-keyboard-response","349","233982","0.0-349.0","3DHE4R9OCXXFL5VAR4XZT856781G2J","A2YCMO8KFFQAJ9","3MXX6RQ9EVRTFC527Z18RDK8KW6P4R","","null","<img src=""img/land6.png"" style=""width:200px;border:14px solid red;"">","null","","","","","","","","","",""
"","image-keyboard-response","350","234800","0.0-350.0","3DHE4R9OCXXFL5VAR4XZT856781G2J","A2YCMO8KFFQAJ9","3MXX6RQ9EVRTFC527Z18RDK8KW6P4R","","817","img/land3.png","75","818.1999999880791","2","1","2","1","0.8,0.2,0.2,0.2,0.8,0.2,0.2,0.2,0.8","0.8,0.2,0.2,0.2,0.8,0.2,0.2,0.2,0.8","1","",""
"","html-keyboard-response","351","235102","0.0-351.0","3DHE4R9OCXXFL5VAR4XZT856781G2J","A2YCMO8KFFQAJ9","3MXX6RQ9EVRTFC527Z18RDK8KW6P4R","","null","<img src=""img/land3.png"" style=""width:200px; border:14px solid green;"">","null","","","","","","","","","",""
"","image-keyboard-response","352","236360","0.0-352.0","3DHE4R9OCXXFL5VAR4XZT856781G2J","A2YCMO8KFFQAJ9","3MXX6RQ9EVRTFC527Z18RDK8KW6P4R","","1257.199999988079","img/land3.png","76","1258.300000011921","3","0","2","1","0.8,0.2,0.2,0.2,0.8,0.2,0.2,0.2,0.8","0.8,0.2,0.2,0.2,0.8,0.2,0.2,0.2,0.8","1","",""
"","html-keyboard-response","353","236662","0.0-353.0","3DHE4R9OCXXFL5VAR4XZT856781G2J","A2YCMO8KFFQAJ9","3MXX6RQ9EVRTFC527Z18RDK8KW6P4R","","null","<img src=""img/land3.png"" style=""width:200px;border:14px solid red;"">","null","","","","","","","","","",""
"","image-keyboard-response","354","236755","0.0-354.0","3DHE4R9OCXXFL5VAR4XZT856781G2J","A2YCMO8KFFQAJ9","3MXX6RQ9EVRTFC527Z18RDK8KW6P4R","","91.7999999821186","img/land3.png","75","93.09999999403954","2","0","2","1","0.8,0.2,0.2,0.2,0.8,0.2,0.2,0.2,0.8","0.8,0.2,0.2,0.2,0.8,0.2,0.2,0.2,0.8","1","",""
