"success","trial_type","trial_index","time_elapsed","internal_node_id","assignmentID","mturkID","hitID","view_history","rt","stimulus","key_press","reactionTime","a","r","s","cond","reward_cond","reward_cond_actual","reward_matrix_idx","responses","question_order"
"true","fullscreen","0","3276","0.0-0.0","37FMASSAYDDN59110LQDFDLQGMCIBB","A2YC6PEMIRSOAA","3UDTAB6HH6LRO17U79I9TKUGYFV09C","","","","","","","","","","","","","",""
"","instructions","1","10651","0.0-1.0","37FMASSAYDDN59110LQDFDLQGMCIBB","A2YC6PEMIRSOAA","3UDTAB6HH6LRO17U79I9TKUGYFV09C","[{""page_index"":0,""viewing_time"":1281.6999999955297},{""page_index"":1,""viewing_time"":804.1000000014901},{""page_index"":2,""viewing_time"":614.2000000029802},{""page_index"":3,""viewing_time"":1393.8999999985099},{""page_index"":4,""viewing_time"":1425},{""page_index"":5,""viewing_time"":1031.7999999970198},{""page_index"":6,""viewing_time"":822.7000000029802}]","7373.69999999553","","","","","","","","","","","",""
"","image-keyboard-response","2","12044","0.0-2.0","37FMASSAYDDN59110LQDFDLQGMCIBB","A2YC6PEMIRSOAA","3UDTAB6HH6LRO17U79I9TKUGYFV09C","","1391.5","img/land6.png","75","1392.5","2","0","2","2","0.8,0.2,0.2,0.2,0.8,0.2,0.2,0.2,0.8","0.2,0.8,0.2,0.2,0.2,0.8,0.8,0.2,0.2","3","",""
"","html-keyboard-response","3","12366","0.0-3.0","37FMASSAYDDN59110LQDFDLQGMCIBB","A2YC6PEMIRSOAA","3UDTAB6HH6LRO17U79I9TKUGYFV09C","","null","<img src=""img/land6.png"" style=""width:200px;border:14px solid red;"">","null","","","","","","","","","",""
"","image-keyboard-response","4","12701","0.0-4.0","37FMASSAYDDN59110LQDFDLQGMCIBB","A2YC6PEMIRSOAA","3UDTAB6HH6LRO17U79I9TKUGYFV09C","","334.20000000298023","img/land6.png","76","335","3","0","2","2","0.8,0.2,0.2,0.2,0.8,0.2,0.2,0.2,0.8","0.2,0.8,0.2,0.2,0.2,0.8,0.8,0.2,0.2","3","",""
"","html-keyboard-response","5","13016","0.0-5.0","37FMASSAYDDN59110LQDFDLQGMCIBB","A2YC6PEMIRSOAA","3UDTAB6HH6LRO17U79I9TKUGYFV09C","","null","<img src=""img/land6.png"" style=""width:200px;border:14px solid red;"">","null","","","","","","","","","",""
"","image-keyboard-response","6","13316","0.0-6.0","37FMASSAYDDN59110LQDFDLQGMCIBB","A2YC6PEMIRSOAA","3UDTAB6HH6LRO17U79I9TKUGYFV09C","","299.30000000447035","img/land6.png","74","300.20000000298023","1","0","2","2","0.8,0.2,0.2,0.2,0.8,0.2,0.2,0.2,0.8","0.2,0.8,0.2,0.2,0.2,0.8,0.8,0.2,0.2","3","",""
"","html-keyboard-response","7","13636","0.0-7.0","37FMASSAYDDN59110LQDFDLQGMCIBB","A2YC6PEMIRSOAA","3UDTAB6HH6LRO17U79I9TKUGYFV09C","","null","<img src=""img/land6.png"" style=""width:200px;border:14px solid red;"">","null","","","","","","","","","",""
"","image-keyboard-response","8","14385","0.0-8.0","37FMASSAYDDN59110LQDFDLQGMCIBB","A2YC6PEMIRSOAA","3UDTAB6HH6LRO17U79I9TKUGYFV09C","","747.7999999970198","img/land1.png","75","748.6000000014901","2","1","1","2","0.8,0.2,0.2,0.2,0.8,0.2,0.2,0.2,0.8","0.2,0.8,0.2,0.2,0.2,0.8,0.8,0.2,0.2","3","",""
"","html-keyboard-response","9","14696","0.0-9.0","37FMASSAYDDN59110LQDFDLQGMCIBB","A2YC6PEMIRSOAA","3UDTAB6HH6LRO17U79I9TKUGYFV09C","","null","<img src=""img/land1.png"" style=""width:200px; border:14px solid green;"">","null","","","","","","","","","",""
"","image-keyboard-response","10","14969","0.0-10.0","37FMASSAYDDN59110LQDFDLQGMCIBB","A2YC6PEMIRSOAA","3UDTAB6HH6LRO17U79I9TKUGYFV09C","","272.1000000014901","img/land1.png","75","272.70000000298023","2","1","1","2","0.8,0.2,0.2,0.2,0.8,0.2,0.2,0.2,0.8","0.2,0.8,0.2,0.2,0.2,0.8,0.8,0.2,0.2","3","",""
"","html-keyboard-response","11","15286","0.0-11.0","37FMASSAYDDN59110LQDFDLQGMCIBB","A2YC6PEMIRSOAA","3UDTAB6HH6LRO17U79I9TKUGYFV09C","","null","<img src=""img/land1.png"" style=""width:200px; border:14px solid green;"">","null","","","","","","","","","",""
"","image-keyboard-response","12","15657","0.0-12.0","37FMASSAYDDN59110LQDFDLQGMCIBB","A2YC6PEMIRSOAA","3UDTAB6HH6LRO17U79I9TKUGYFV09C","","370.70000000298023","img/land1.png","75","371.5","2","1","1","2","0.8,0.2,0.2,0.2,0.8,0.2,0.2,0.2,0.8","0.2,0.8,0.2,0.2,0.2,0.8,0.8,0.2,0.2","3","",""
"","html-keyboard-response","13","15966","0.0-13.0","37FMASSAYDDN59110LQDFDLQGMCIBB","A2YC6PEMIRSOAA","3UDTAB6HH6LRO17U79I9TKUGYFV09C","","null","<img src=""img/land1.png"" style=""width:200px; border:14px solid green;"">","null","","","","","","","","","",""
"","image-keyboard-response","14","16601","0.0-14.0","37FMASSAYDDN59110LQDFDLQGMCIBB","A2YC6PEMIRSOAA","3UDTAB6HH6LRO17U79I9TKUGYFV09C","","634.5999999940395","img/land6.png","76","635.1000000014901","3","1","2","2","0.8,0.2,0.2,0.2,0.8,0.2,0.2,0.2,0.8","0.2,0.8,0.2,0.2,0.2,0.8,0.8,0.2,0.2","3","",""
"","html-keyboard-response","15","16911","0.0-15.0","37FMASSAYDDN59110LQDFDLQGMCIBB","A2YC6PEMIRSOAA","3UDTAB6HH6LRO17U79I9TKUGYFV09C","","null","<img src=""img/land6.png"" style=""width:200px; border:14px solid green;"">","null","","","","","","","","","",""
"","image-keyboard-response","16","17215","0.0-16.0","37FMASSAYDDN59110LQDFDLQGMCIBB","A2YC6PEMIRSOAA","3UDTAB6HH6LRO17U79I9TKUGYFV09C","","302.8999999985099","img/land6.png","76","303.8999999985099","3","1","2","2","0.8,0.2,0.2,0.2,0.8,0.2,0.2,0.2,0.8","0.2,0.8,0.2,0.2,0.2,0.8,0.8,0.2,0.2","3","",""
"","html-keyboard-response","17","17536","0.0-17.0","37FMASSAYDDN59110LQDFDLQGMCIBB","A2YC6PEMIRSOAA","3UDTAB6HH6LRO17U79I9TKUGYFV09C","","null","<img src=""img/land6.png"" style=""width:200px; border:14px solid green;"">","null","","","","","","","","","",""
"","image-keyboard-response","18","17805","0.0-18.0","37FMASSAYDDN59110LQDFDLQGMCIBB","A2YC6PEMIRSOAA","3UDTAB6HH6LRO17U79I9TKUGYFV09C","","269","img/land1.png","76","269.80000000447035","3","0","1","2","0.8,0.2,0.2,0.2,0.8,0.2,0.2,0.2,0.8","0.2,0.8,0.2,0.2,0.2,0.8,0.8,0.2,0.2","3","",""
"","html-keyboard-response","19","18113","0.0-19.0","37FMASSAYDDN59110LQDFDLQGMCIBB","A2YC6PEMIRSOAA","3UDTAB6HH6LRO17U79I9TKUGYFV09C","","null","<img src=""img/land1.png"" style=""width:200px;border:14px solid red;"">","null","","","","","","","","","",""
"","image-keyboard-response","20","18710","0.0-20.0","37FMASSAYDDN59110LQDFDLQGMCIBB","A2YC6PEMIRSOAA","3UDTAB6HH6LRO17U79I9TKUGYFV09C","","596.5","img/land1.png","74","597.3000000044703","1","0","1","2","0.8,0.2,0.2,0.2,0.8,0.2,0.2,0.2,0.8","0.2,0.8,0.2,0.2,0.2,0.8,0.8,0.2,0.2","3","",""
"","html-keyboard-response","21","19014","0.0-21.0","37FMASSAYDDN59110LQDFDLQGMCIBB","A2YC6PEMIRSOAA","3UDTAB6HH6LRO17U79I9TKUGYFV09C","","null","<img src=""img/land1.png"" style=""width:200px;border:14px solid red;"">","null","","","","","","","","","",""
"","image-keyboard-response","22","19681","0.0-22.0","37FMASSAYDDN59110LQDFDLQGMCIBB","A2YC6PEMIRSOAA","3UDTAB6HH6LRO17U79I9TKUGYFV09C","","666.2000000029802","img/land1.png","75","666.8999999985099","2","1","1","2","0.8,0.2,0.2,0.2,0.8,0.2,0.2,0.2,0.8","0.2,0.8,0.2,0.2,0.2,0.8,0.8,0.2,0.2","3","",""
"","html-keyboard-response","23","19996","0.0-23.0","37FMASSAYDDN59110LQDFDLQGMCIBB","A2YC6PEMIRSOAA","3UDTAB6HH6LRO17U79I9TKUGYFV09C","","null","<img src=""img/land1.png"" style=""width:200px; border:14px solid green;"">","null","","","","","","","","","",""
"","image-keyboard-response","24","20406","0.0-24.0","37FMASSAYDDN59110LQDFDLQGMCIBB","A2YC6PEMIRSOAA","3UDTAB6HH6LRO17U79I9TKUGYFV09C","","409.3999999985099","img/land1.png","75","409.90000000596046","2","1","1","2","0.8,0.2,0.2,0.2,0.8,0.2,0.2,0.2,0.8","0.2,0.8,0.2,0.2,0.2,0.8,0.8,0.2,0.2","3","",""
"","html-keyboard-response","25","20715","0.0-25.0","37FMASSAYDDN59110LQDFDLQGMCIBB","A2YC6PEMIRSOAA","3UDTAB6HH6LRO17U79I9TKUGYFV09C","","null","<img src=""img/land1.png"" style=""width:200px; border:14px solid green;"">","null","","","","","","","","","",""
"","image-keyboard-response","26","21435","0.0-26.0","37FMASSAYDDN59110LQDFDLQGMCIBB","A2YC6PEMIRSOAA","3UDTAB6HH6LRO17U79I9TKUGYFV09C","","718.5","img/land6.png","76","719.1999999955297","3","1","2","2","0.8,0.2,0.2,0.2,0.8,0.2,0.2,0.2,0.8","0.2,0.8,0.2,0.2,0.2,0.8,0.8,0.2,0.2","3","",""
"","html-keyboard-response","27","21746","0.0-27.0","37FMASSAYDDN59110LQDFDLQGMCIBB","A2YC6PEMIRSOAA","3UDTAB6HH6LRO17U79I9TKUGYFV09C","","null","<img src=""img/land6.png"" style=""width:200px; border:14px solid green;"">","null","","","","","","","","","",""
"","image-keyboard-response","28","22397","0.0-28.0","37FMASSAYDDN59110LQDFDLQGMCIBB","A2YC6PEMIRSOAA","3UDTAB6HH6LRO17U79I9TKUGYFV09C","","651","img/land1.png","75","651.6000000014901","2","1","1","2","0.8,0.2,0.2,0.2,0.8,0.2,0.2,0.2,0.8","0.2,0.8,0.2,0.2,0.2,0.8,0.8,0.2,0.2","3","",""
"","html-keyboard-response","29","22716","0.0-29.0","37FMASSAYDDN59110LQDFDLQGMCIBB","A2YC6PEMIRSOAA","3UDTAB6HH6LRO17U79I9TKUGYFV09C","","null","<img src=""img/land1.png"" style=""width:200px; border:14px solid green;"">","null","","","","","","","","","",""
"","image-keyboard-response","30","23092","0.0-30.0","37FMASSAYDDN59110LQDFDLQGMCIBB","A2YC6PEMIRSOAA","3UDTAB6HH6LRO17U79I9TKUGYFV09C","","375.09999999403954","img/land1.png","75","375.70000000298023","2","1","1","2","0.8,0.2,0.2,0.2,0.8,0.2,0.2,0.2,0.8","0.2,0.8,0.2,0.2,0.2,0.8,0.8,0.2,0.2","3","",""
"","html-keyboard-response","31","23395","0.0-31.0","37FMASSAYDDN59110LQDFDLQGMCIBB","A2YC6PEMIRSOAA","3UDTAB6HH6LRO17U79I9TKUGYFV09C","","null","<img src=""img/land1.png"" style=""width:200px; border:14px solid green;"">","null","","","","","","","","","",""
"","image-keyboard-response","32","24129","0.0-32.0","37FMASSAYDDN59110LQDFDLQGMCIBB","A2YC6PEMIRSOAA","3UDTAB6HH6LRO17U79I9TKUGYFV09C","","733.2000000029802","img/land6.png","76","733.7999999970198","3","1","2","2","0.8,0.2,0.2,0.2,0.8,0.2,0.2,0.2,0.8","0.2,0.8,0.2,0.2,0.2,0.8,0.8,0.2,0.2","3","",""
"","html-keyboard-response","33","24446","0.0-33.0","37FMASSAYDDN59110LQDFDLQGMCIBB","A2YC6PEMIRSOAA","3UDTAB6HH6LRO17U79I9TKUGYFV09C","","null","<img src=""img/land6.png"" style=""width:200px; border:14px solid green;"">","null","","","","","","","","","",""
"","image-keyboard-response","34","24836","0.0-34.0","37FMASSAYDDN59110LQDFDLQGMCIBB","A2YC6PEMIRSOAA","3UDTAB6HH6LRO17U79I9TKUGYFV09C","","389.79999999701977","img/land6.png","76","390.40000000596046","3","1","2","2","0.8,0.2,0.2,0.2,0.8,0.2,0.2,0.2,0.8","0.2,0.8,0.2,0.2,0.2,0.8,0.8,0.2,0.2","3","",""
"","html-keyboard-response","35","25145","0.0-35.0","37FMASSAYDDN59110LQDFDLQGMCIBB","A2YC6PEMIRSOAA","3UDTAB6HH6LRO17U79I9TKUGYFV09C","","null","<img src=""img/land6.png"" style=""width:200px; border:14px solid green;"">","null","","","","","","","","","",""
"","image-keyboard-response","36","25639","0.0-36.0","37FMASSAYDDN59110LQDFDLQGMCIBB","A2YC6PEMIRSOAA","3UDTAB6HH6LRO17U79I9TKUGYFV09C","","492.6000000014901","img/land3.png","75","493.19999999552965","2","0","3","2","0.8,0.2,0.2,0.2,0.8,0.2,0.2,0.2,0.8","0.2,0.8,0.2,0.2,0.2,0.8,0.8,0.2,0.2","3","",""
"","html-keyboard-response","37","25945","0.0-37.0","37FMASSAYDDN59110LQDFDLQGMCIBB","A2YC6PEMIRSOAA","3UDTAB6HH6LRO17U79I9TKUGYFV09C","","null","<img src=""img/land3.png"" style=""width:200px;border:14px solid red;"">","null","","","","","","","","","",""
"","image-keyboard-response","38","26936","0.0-38.0","37FMASSAYDDN59110LQDFDLQGMCIBB","A2YC6PEMIRSOAA","3UDTAB6HH6LRO17U79I9TKUGYFV09C","","989.7000000029802","img/land1.png","75","990.5","2","1","1","2","0.8,0.2,0.2,0.2,0.8,0.2,0.2,0.2,0.8","0.2,0.8,0.2,0.2,0.2,0.8,0.8,0.2,0.2","3","",""
"","html-keyboard-response","39","27246","0.0-39.0","37FMASSAYDDN59110LQDFDLQGMCIBB","A2YC6PEMIRSOAA","3UDTAB6HH6LRO17U79I9TKUGYFV09C","","null","<img src=""img/land1.png"" style=""width:200px; border:14px solid green;"">","null","","","","","","","","","",""
"","image-keyboard-response","40","27481","0.0-40.0","37FMASSAYDDN59110LQDFDLQGMCIBB","A2YC6PEMIRSOAA","3UDTAB6HH6LRO17U79I9TKUGYFV09C","","234.5","img/land3.png","75","235.19999999552965","2","0","3","2","0.8,0.2,0.2,0.2,0.8,0.2,0.2,0.2,0.8","0.2,0.8,0.2,0.2,0.2,0.8,0.8,0.2,0.2","3","",""
"","html-keyboard-response","41","27795","0.0-41.0","37FMASSAYDDN59110LQDFDLQGMCIBB","A2YC6PEMIRSOAA","3UDTAB6HH6LRO17U79I9TKUGYFV09C","","null","<img src=""img/land3.png"" style=""width:200px;border:14px solid red;"">","null","","","","","","","","","",""
"","image-keyboard-response","42","28867","0.0-42.0","37FMASSAYDDN59110LQDFDLQGMCIBB","A2YC6PEMIRSOAA","3UDTAB6HH6LRO17U79I9TKUGYFV09C","","1071.1999999955297","img/land1.png","75","1072","2","1","1","2","0.8,0.2,0.2,0.2,0.8,0.2,0.2,0.2,0.8","0.2,0.8,0.2,0.2,0.2,0.8,0.8,0.2,0.2","3","",""
"","html-keyboard-response","43","29175","0.0-43.0","37FMASSAYDDN59110LQDFDLQGMCIBB","A2YC6PEMIRSOAA","3UDTAB6HH6LRO17U79I9TKUGYFV09C","","null","<img src=""img/land1.png"" style=""width:200px; border:14px solid green;"">","null","","","","","","","","","",""
"","image-keyboard-response","44","29863","0.0-44.0","37FMASSAYDDN59110LQDFDLQGMCIBB","A2YC6PEMIRSOAA","3UDTAB6HH6LRO17U79I9TKUGYFV09C","","687","img/land6.png","76","687.7000000029802","3","1","2","2","0.8,0.2,0.2,0.2,0.8,0.2,0.2,0.2,0.8","0.2,0.8,0.2,0.2,0.2,0.8,0.8,0.2,0.2","3","",""
"","html-keyboard-response","45","30164","0.0-45.0","37FMASSAYDDN59110LQDFDLQGMCIBB","A2YC6PEMIRSOAA","3UDTAB6HH6LRO17U79I9TKUGYFV09C","","null","<img src=""img/land6.png"" style=""width:200px; border:14px solid green;"">","null","","","","","","","","","",""
"","image-keyboard-response","46","31061","0.0-46.0","37FMASSAYDDN59110LQDFDLQGMCIBB","A2YC6PEMIRSOAA","3UDTAB6HH6LRO17U79I9TKUGYFV09C","","896.6000000014901","img/land3.png","74","897.2000000029802","1","1","3","2","0.8,0.2,0.2,0.2,0.8,0.2,0.2,0.2,0.8","0.2,0.8,0.2,0.2,0.2,0.8,0.8,0.2,0.2","3","",""
"","html-keyboard-response","47","31362","0.0-47.0","37FMASSAYDDN59110LQDFDLQGMCIBB","A2YC6PEMIRSOAA","3UDTAB6HH6LRO17U79I9TKUGYFV09C","","null","<img src=""img/land3.png"" style=""width:200px; border:14px solid green;"">","null","","","","","","","","","",""
"","image-keyboard-response","48","32030","0.0-48.0","37FMASSAYDDN59110LQDFDLQGMCIBB","A2YC6PEMIRSOAA","3UDTAB6HH6LRO17U79I9TKUGYFV09C","","667.1000000014901","img/land6.png","75","667.7999999970198","2","0","2","2","0.8,0.2,0.2,0.2,0.8,0.2,0.2,0.2,0.8","0.2,0.8,0.2,0.2,0.2,0.8,0.8,0.2,0.2","3","",""
"","html-keyboard-response","49","32331","0.0-49.0","37FMASSAYDDN59110LQDFDLQGMCIBB","A2YC6PEMIRSOAA","3UDTAB6HH6LRO17U79I9TKUGYFV09C","","null","<img src=""img/land6.png"" style=""width:200px;border:14px solid red;"">","null","","","","","","","","","",""
"","image-keyboard-response","50","33140","0.0-50.0","37FMASSAYDDN59110LQDFDLQGMCIBB","A2YC6PEMIRSOAA","3UDTAB6HH6LRO17U79I9TKUGYFV09C","","807.8000000044703","img/land1.png","75","808.2999999970198","2","0","1","2","0.8,0.2,0.2,0.2,0.8,0.2,0.2,0.2,0.8","0.2,0.8,0.2,0.2,0.2,0.8,0.8,0.2,0.2","3","",""
"","html-keyboard-response","51","33441","0.0-51.0","37FMASSAYDDN59110LQDFDLQGMCIBB","A2YC6PEMIRSOAA","3UDTAB6HH6LRO17U79I9TKUGYFV09C","","null","<img src=""img/land1.png"" style=""width:200px;border:14px solid red;"">","null","","","","","","","","","",""
"","image-keyboard-response","52","34292","0.0-52.0","37FMASSAYDDN59110LQDFDLQGMCIBB","A2YC6PEMIRSOAA","3UDTAB6HH6LRO17U79I9TKUGYFV09C","","849.3999999985099","img/land3.png","74","850","1","1","3","2","0.8,0.2,0.2,0.2,0.8,0.2,0.2,0.2,0.8","0.2,0.8,0.2,0.2,0.2,0.8,0.8,0.2,0.2","3","",""
"","html-keyboard-response","53","34593","0.0-53.0","37FMASSAYDDN59110LQDFDLQGMCIBB","A2YC6PEMIRSOAA","3UDTAB6HH6LRO17U79I9TKUGYFV09C","","null","<img src=""img/land3.png"" style=""width:200px; border:14px solid green;"">","null","","","","","","","","","",""
"","image-keyboard-response","54","35583","0.0-54.0","37FMASSAYDDN59110LQDFDLQGMCIBB","A2YC6PEMIRSOAA","3UDTAB6HH6LRO17U79I9TKUGYFV09C","","989.5999999940395","img/land1.png","75","990.2000000029802","2","1","1","2","0.8,0.2,0.2,0.2,0.8,0.2,0.2,0.2,0.8","0.2,0.8,0.2,0.2,0.2,0.8,0.8,0.2,0.2","3","",""
"","html-keyboard-response","55","35884","0.0-55.0","37FMASSAYDDN59110LQDFDLQGMCIBB","A2YC6PEMIRSOAA","3UDTAB6HH6LRO17U79I9TKUGYFV09C","","null","<img src=""img/land1.png"" style=""width:200px; border:14px solid green;"">","null","","","","","","","","","",""
"","image-keyboard-response","56","36304","0.0-56.0","37FMASSAYDDN59110LQDFDLQGMCIBB","A2YC6PEMIRSOAA","3UDTAB6HH6LRO17U79I9TKUGYFV09C","","420","img/land1.png","75","420.6000000014901","2","1","1","2","0.8,0.2,0.2,0.2,0.8,0.2,0.2,0.2,0.8","0.2,0.8,0.2,0.2,0.2,0.8,0.8,0.2,0.2","3","",""
"","html-keyboard-response","57","36605","0.0-57.0","37FMASSAYDDN59110LQDFDLQGMCIBB","A2YC6PEMIRSOAA","3UDTAB6HH6LRO17U79I9TKUGYFV09C","","null","<img src=""img/land1.png"" style=""width:200px; border:14px solid green;"">","null","","","","","","","","","",""
"","image-keyboard-response","58","36905","0.0-58.0","37FMASSAYDDN59110LQDFDLQGMCIBB","A2YC6PEMIRSOAA","3UDTAB6HH6LRO17U79I9TKUGYFV09C","","298.70000000298023","img/land1.png","75","299.29999999701977","2","1","1","2","0.8,0.2,0.2,0.2,0.8,0.2,0.2,0.2,0.8","0.2,0.8,0.2,0.2,0.2,0.8,0.8,0.2,0.2","3","",""
"","html-keyboard-response","59","37206","0.0-59.0","37FMASSAYDDN59110LQDFDLQGMCIBB","A2YC6PEMIRSOAA","3UDTAB6HH6LRO17U79I9TKUGYFV09C","","null","<img src=""img/land1.png"" style=""width:200px; border:14px solid green;"">","null","","","","","","","","","",""
"","image-keyboard-response","60","37771","0.0-60.0","37FMASSAYDDN59110LQDFDLQGMCIBB","A2YC6PEMIRSOAA","3UDTAB6HH6LRO17U79I9TKUGYFV09C","","563.6999999955297","img/land6.png","76","564.3000000044703","3","1","2","2","0.8,0.2,0.2,0.2,0.8,0.2,0.2,0.2,0.8","0.2,0.8,0.2,0.2,0.2,0.8,0.8,0.2,0.2","3","",""
"","html-keyboard-response","61","38072","0.0-61.0","37FMASSAYDDN59110LQDFDLQGMCIBB","A2YC6PEMIRSOAA","3UDTAB6HH6LRO17U79I9TKUGYFV09C","","null","<img src=""img/land6.png"" style=""width:200px; border:14px solid green;"">","null","","","","","","","","","",""
"","image-keyboard-response","62","38359","0.0-62.0","37FMASSAYDDN59110LQDFDLQGMCIBB","A2YC6PEMIRSOAA","3UDTAB6HH6LRO17U79I9TKUGYFV09C","","287.1000000014901","img/land1.png","76","287.70000000298023","3","0","1","2","0.8,0.2,0.2,0.2,0.8,0.2,0.2,0.2,0.8","0.2,0.8,0.2,0.2,0.2,0.8,0.8,0.2,0.2","3","",""
"","html-keyboard-response","63","38661","0.0-63.0","37FMASSAYDDN59110LQDFDLQGMCIBB","A2YC6PEMIRSOAA","3UDTAB6HH6LRO17U79I9TKUGYFV09C","","null","<img src=""img/land1.png"" style=""width:200px;border:14px solid red;"">","null","","","","","","","","","",""
"","image-keyboard-response","64","39243","0.0-64.0","37FMASSAYDDN59110LQDFDLQGMCIBB","A2YC6PEMIRSOAA","3UDTAB6HH6LRO17U79I9TKUGYFV09C","","581.2999999970198","img/land1.png","75","582.1000000014901","2","0","1","2","0.8,0.2,0.2,0.2,0.8,0.2,0.2,0.2,0.8","0.2,0.8,0.2,0.2,0.2,0.8,0.8,0.2,0.2","3","",""
"","html-keyboard-response","65","39544","0.0-65.0","37FMASSAYDDN59110LQDFDLQGMCIBB","A2YC6PEMIRSOAA","3UDTAB6HH6LRO17U79I9TKUGYFV09C","","null","<img src=""img/land1.png"" style=""width:200px;border:14px solid red;"">","null","","","","","","","","","",""
"","image-keyboard-response","66","40011","0.0-66.0","37FMASSAYDDN59110LQDFDLQGMCIBB","A2YC6PEMIRSOAA","3UDTAB6HH6LRO17U79I9TKUGYFV09C","","465.29999999701977","img/land1.png","74","466","1","0","1","2","0.8,0.2,0.2,0.2,0.8,0.2,0.2,0.2,0.8","0.2,0.8,0.2,0.2,0.2,0.8,0.8,0.2,0.2","3","",""
"","html-keyboard-response","67","40312","0.0-67.0","37FMASSAYDDN59110LQDFDLQGMCIBB","A2YC6PEMIRSOAA","3UDTAB6HH6LRO17U79I9TKUGYFV09C","","null","<img src=""img/land1.png"" style=""width:200px;border:14px solid red;"">","null","","","","","","","","","",""
"","image-keyboard-response","68","40468","0.0-68.0","37FMASSAYDDN59110LQDFDLQGMCIBB","A2YC6PEMIRSOAA","3UDTAB6HH6LRO17U79I9TKUGYFV09C","","156.09999999403954","img/land3.png","76","156.60000000149012","3","0","3","2","0.8,0.2,0.2,0.2,0.8,0.2,0.2,0.2,0.8","0.2,0.8,0.2,0.2,0.2,0.8,0.8,0.2,0.2","3","",""
"","html-keyboard-response","69","40770","0.0-69.0","37FMASSAYDDN59110LQDFDLQGMCIBB","A2YC6PEMIRSOAA","3UDTAB6HH6LRO17U79I9TKUGYFV09C","","null","<img src=""img/land3.png"" style=""width:200px;border:14px solid red;"">","null","","","","","","","","","",""
"","image-keyboard-response","70","41189","0.0-70.0","37FMASSAYDDN59110LQDFDLQGMCIBB","A2YC6PEMIRSOAA","3UDTAB6HH6LRO17U79I9TKUGYFV09C","","417.6000000014901","img/land1.png","74","418.29999999701977","1","0","1","2","0.8,0.2,0.2,0.2,0.8,0.2,0.2,0.2,0.8","0.2,0.8,0.2,0.2,0.2,0.8,0.8,0.2,0.2","3","",""
"","html-keyboard-response","71","41490","0.0-71.0","37FMASSAYDDN59110LQDFDLQGMCIBB","A2YC6PEMIRSOAA","3UDTAB6HH6LRO17U79I9TKUGYFV09C","","null","<img src=""img/land1.png"" style=""width:200px;border:14px solid red;"">","null","","","","","","","","","",""
"","image-keyboard-response","72","42184","0.0-72.0","37FMASSAYDDN59110LQDFDLQGMCIBB","A2YC6PEMIRSOAA","3UDTAB6HH6LRO17U79I9TKUGYFV09C","","693.3999999985099","img/land3.png","74","694.1000000014901","1","0","3","2","0.8,0.2,0.2,0.2,0.8,0.2,0.2,0.2,0.8","0.2,0.8,0.2,0.2,0.2,0.8,0.8,0.2,0.2","3","",""
"","html-keyboard-response","73","42486","0.0-73.0","37FMASSAYDDN59110LQDFDLQGMCIBB","A2YC6PEMIRSOAA","3UDTAB6HH6LRO17U79I9TKUGYFV09C","","null","<img src=""img/land3.png"" style=""width:200px;border:14px solid red;"">","null","","","","","","","","","",""
"","image-keyboard-response","74","42731","0.0-74.0","37FMASSAYDDN59110LQDFDLQGMCIBB","A2YC6PEMIRSOAA","3UDTAB6HH6LRO17U79I9TKUGYFV09C","","244.39999999850988","img/land1.png","75","245.10000000149012","2","1","1","2","0.8,0.2,0.2,0.2,0.8,0.2,0.2,0.2,0.8","0.2,0.8,0.2,0.2,0.2,0.8,0.8,0.2,0.2","3","",""
"","html-keyboard-response","75","43032","0.0-75.0","37FMASSAYDDN59110LQDFDLQGMCIBB","A2YC6PEMIRSOAA","3UDTAB6HH6LRO17U79I9TKUGYFV09C","","null","<img src=""img/land1.png"" style=""width:200px; border:14px solid green;"">","null","","","","","","","","","",""
"","image-keyboard-response","76","43363","0.0-76.0","37FMASSAYDDN59110LQDFDLQGMCIBB","A2YC6PEMIRSOAA","3UDTAB6HH6LRO17U79I9TKUGYFV09C","","330.5","img/land1.png","75","331.1000000014901","2","1","1","2","0.8,0.2,0.2,0.2,0.8,0.2,0.2,0.2,0.8","0.2,0.8,0.2,0.2,0.2,0.8,0.8,0.2,0.2","3","",""
"","html-keyboard-response","77","43665","0.0-77.0","37FMASSAYDDN59110LQDFDLQGMCIBB","A2YC6PEMIRSOAA","3UDTAB6HH6LRO17U79I9TKUGYFV09C","","null","<img src=""img/land1.png"" style=""width:200px; border:14px solid green;"">","null","","","","","","","","","",""
"","image-keyboard-response","78","44522","0.0-78.0","37FMASSAYDDN59110LQDFDLQGMCIBB","A2YC6PEMIRSOAA","3UDTAB6HH6LRO17U79I9TKUGYFV09C","","856.2000000029802","img/land3.png","76","856.8999999985099","3","0","3","2","0.8,0.2,0.2,0.2,0.8,0.2,0.2,0.2,0.8","0.2,0.8,0.2,0.2,0.2,0.8,0.8,0.2,0.2","3","",""
"","html-keyboard-response","79","44823","0.0-79.0","37FMASSAYDDN59110LQDFDLQGMCIBB","A2YC6PEMIRSOAA","3UDTAB6HH6LRO17U79I9TKUGYFV09C","","null","<img src=""img/land3.png"" style=""width:200px;border:14px solid red;"">","null","","","","","","","","","",""
"","image-keyboard-response","80","45307","0.0-80.0","37FMASSAYDDN59110LQDFDLQGMCIBB","A2YC6PEMIRSOAA","3UDTAB6HH6LRO17U79I9TKUGYFV09C","","483.6000000014901","img/land1.png","74","484.29999999701977","1","1","1","2","0.8,0.2,0.2,0.2,0.8,0.2,0.2,0.2,0.8","0.2,0.8,0.2,0.2,0.2,0.8,0.8,0.2,0.2","3","",""
"","html-keyboard-response","81","45610","0.0-81.0","37FMASSAYDDN59110LQDFDLQGMCIBB","A2YC6PEMIRSOAA","3UDTAB6HH6LRO17U79I9TKUGYFV09C","","null","<img src=""img/land1.png"" style=""width:200px; border:14px solid green;"">","null","","","","","","","","","",""
"","image-keyboard-response","82","45968","0.0-82.0","37FMASSAYDDN59110LQDFDLQGMCIBB","A2YC6PEMIRSOAA","3UDTAB6HH6LRO17U79I9TKUGYFV09C","","357.29999999701977","img/land1.png","74","357.90000000596046","1","1","1","2","0.8,0.2,0.2,0.2,0.8,0.2,0.2,0.2,0.8","0.2,0.8,0.2,0.2,0.2,0.8,0.8,0.2,0.2","3","",""
"","html-keyboard-response","83","46269","0.0-83.0","37FMASSAYDDN59110LQDFDLQGMCIBB","A2YC6PEMIRSOAA","3UDTAB6HH6LRO17U79I9TKUGYFV09C","","null","<img src=""img/land1.png"" style=""width:200px; border:14px solid green;"">","null","","","","","","","","","",""
"","image-keyboard-response","84","46618","0.0-84.0","37FMASSAYDDN59110LQDFDLQGMCIBB","A2YC6PEMIRSOAA","3UDTAB6HH6LRO17U79I9TKUGYFV09C","","348.09999999403954","img/land1.png","74","348.6000000014901","1","1","1","2","0.8,0.2,0.2,0.2,0.8,0.2,0.2,0.2,0.8","0.2,0.8,0.2,0.2,0.2,0.8,0.8,0.2,0.2","3","",""
"","html-keyboard-response","85","46920","0.0-85.0","37FMASSAYDDN59110LQDFDLQGMCIBB","A2YC6PEMIRSOAA","3UDTAB6HH6LRO17U79I9TKUGYFV09C","","null","<img src=""img/land1.png"" style=""width:200px; border:14px solid green;"">","null","","","","","","","","","",""
"","image-keyboard-response","86","47213","0.0-86.0","37FMASSAYDDN59110LQDFDLQGMCIBB","A2YC6PEMIRSOAA","3UDTAB6HH6LRO17U79I9TKUGYFV09C","","292.69999999552965","img/land1.png","74","293.20000000298023","1","0","1","2","0.8,0.2,0.2,0.2,0.8,0.2,0.2,0.2,0.8","0.2,0.8,0.2,0.2,0.2,0.8,0.8,0.2,0.2","3","",""
"","html-keyboard-response","87","47514","0.0-87.0","37FMASSAYDDN59110LQDFDLQGMCIBB","A2YC6PEMIRSOAA","3UDTAB6HH6LRO17U79I9TKUGYFV09C","","null","<img src=""img/land1.png"" style=""width:200px;border:14px solid red;"">","null","","","","","","","","","",""
"","image-keyboard-response","88","47954","0.0-88.0","37FMASSAYDDN59110LQDFDLQGMCIBB","A2YC6PEMIRSOAA","3UDTAB6HH6LRO17U79I9TKUGYFV09C","","439.29999999701977","img/land1.png","75","439.90000000596046","2","1","1","2","0.8,0.2,0.2,0.2,0.8,0.2,0.2,0.2,0.8","0.2,0.8,0.2,0.2,0.2,0.8,0.8,0.2,0.2","3","",""
"","html-keyboard-response","89","48256","0.0-89.0","37FMASSAYDDN59110LQDFDLQGMCIBB","A2YC6PEMIRSOAA","3UDTAB6HH6LRO17U79I9TKUGYFV09C","","null","<img src=""img/land1.png"" style=""width:200px; border:14px solid green;"">","null","","","","","","","","","",""
"","image-keyboard-response","90","48757","0.0-90.0","37FMASSAYDDN59110LQDFDLQGMCIBB","A2YC6PEMIRSOAA","3UDTAB6HH6LRO17U79I9TKUGYFV09C","","500.09999999403954","img/land1.png","75","500.70000000298023","2","1","1","2","0.8,0.2,0.2,0.2,0.8,0.2,0.2,0.2,0.8","0.2,0.8,0.2,0.2,0.2,0.8,0.8,0.2,0.2","3","",""
"","html-keyboard-response","91","49058","0.0-91.0","37FMASSAYDDN59110LQDFDLQGMCIBB","A2YC6PEMIRSOAA","3UDTAB6HH6LRO17U79I9TKUGYFV09C","","null","<img src=""img/land1.png"" style=""width:200px; border:14px solid green;"">","null","","","","","","","","","",""
"","image-keyboard-response","92","49362","0.0-92.0","37FMASSAYDDN59110LQDFDLQGMCIBB","A2YC6PEMIRSOAA","3UDTAB6HH6LRO17U79I9TKUGYFV09C","","302.8999999985099","img/land1.png","75","303.59999999403954","2","1","1","2","0.8,0.2,0.2,0.2,0.8,0.2,0.2,0.2,0.8","0.2,0.8,0.2,0.2,0.2,0.8,0.8,0.2,0.2","3","",""
"","html-keyboard-response","93","49663","0.0-93.0","37FMASSAYDDN59110LQDFDLQGMCIBB","A2YC6PEMIRSOAA","3UDTAB6HH6LRO17U79I9TKUGYFV09C","","null","<img src=""img/land1.png"" style=""width:200px; border:14px solid green;"">","null","","","","","","","","","",""
"","image-keyboard-response","94","50290","0.0-94.0","37FMASSAYDDN59110LQDFDLQGMCIBB","A2YC6PEMIRSOAA","3UDTAB6HH6LRO17U79I9TKUGYFV09C","","625.2999999970198","img/land6.png","76","626","3","1","2","2","0.8,0.2,0.2,0.2,0.8,0.2,0.2,0.2,0.8","0.2,0.8,0.2,0.2,0.2,0.8,0.8,0.2,0.2","3","",""
"","html-keyboard-response","95","50591","0.0-95.0","37FMASSAYDDN59110LQDFDLQGMCIBB","A2YC6PEMIRSOAA","3UDTAB6HH6LRO17U79I9TKUGYFV09C","","null","<img src=""img/land6.png"" style=""width:200px; border:14px solid green;"">","null","","","","","","","","","",""
"","image-keyboard-response","96","50828","0.0-96.0","37FMASSAYDDN59110LQDFDLQGMCIBB","A2YC6PEMIRSOAA","3UDTAB6HH6LRO17U79I9TKUGYFV09C","","236.39999999850988","img/land1.png","76","237.10000000149012","3","0","1","2","0.8,0.2,0.2,0.2,0.8,0.2,0.2,0.2,0.8","0.2,0.8,0.2,0.2,0.2,0.8,0.8,0.2,0.2","3","",""
"","html-keyboard-response","97","51130","0.0-97.0","37FMASSAYDDN59110LQDFDLQGMCIBB","A2YC6PEMIRSOAA","3UDTAB6HH6LRO17U79I9TKUGYFV09C","","null","<img src=""img/land1.png"" style=""width:200px;border:14px solid red;"">","null","","","","","","","","","",""
"","image-keyboard-response","98","51365","0.0-98.0","37FMASSAYDDN59110LQDFDLQGMCIBB","A2YC6PEMIRSOAA","3UDTAB6HH6LRO17U79I9TKUGYFV09C","","234.89999999850988","img/land1.png","75","235.39999999850988","2","0","1","2","0.8,0.2,0.2,0.2,0.8,0.2,0.2,0.2,0.8","0.2,0.8,0.2,0.2,0.2,0.8,0.8,0.2,0.2","3","",""
"","html-keyboard-response","99","51666","0.0-99.0","37FMASSAYDDN59110LQDFDLQGMCIBB","A2YC6PEMIRSOAA","3UDTAB6HH6LRO17U79I9TKUGYFV09C","","null","<img src=""img/land1.png"" style=""width:200px;border:14px solid red;"">","null","","","","","","","","","",""
"","image-keyboard-response","100","52204","0.0-100.0","37FMASSAYDDN59110LQDFDLQGMCIBB","A2YC6PEMIRSOAA","3UDTAB6HH6LRO17U79I9TKUGYFV09C","","537","img/land1.png","74","537.7000000029802","1","0","1","2","0.8,0.2,0.2,0.2,0.8,0.2,0.2,0.2,0.8","0.2,0.8,0.2,0.2,0.2,0.8,0.8,0.2,0.2","3","",""
"","html-keyboard-response","101","52506","0.0-101.0","37FMASSAYDDN59110LQDFDLQGMCIBB","A2YC6PEMIRSOAA","3UDTAB6HH6LRO17U79I9TKUGYFV09C","","null","<img src=""img/land1.png"" style=""width:200px;border:14px solid red;"">","null","","","","","","","","","",""
"","image-keyboard-response","102","52789","0.0-102.0","37FMASSAYDDN59110LQDFDLQGMCIBB","A2YC6PEMIRSOAA","3UDTAB6HH6LRO17U79I9TKUGYFV09C","","282.29999999701977","img/land1.png","76","282.90000000596046","3","0","1","2","0.8,0.2,0.2,0.2,0.8,0.2,0.2,0.2,0.8","0.2,0.8,0.2,0.2,0.2,0.8,0.8,0.2,0.2","3","",""
"","html-keyboard-response","103","53105","0.0-103.0","37FMASSAYDDN59110LQDFDLQGMCIBB","A2YC6PEMIRSOAA","3UDTAB6HH6LRO17U79I9TKUGYFV09C","","null","<img src=""img/land1.png"" style=""width:200px;border:14px solid red;"">","null","","","","","","","","","",""
"","image-keyboard-response","104","53258","0.0-104.0","37FMASSAYDDN59110LQDFDLQGMCIBB","A2YC6PEMIRSOAA","3UDTAB6HH6LRO17U79I9TKUGYFV09C","","152.39999999850988","img/land1.png","74","153.20000000298023","1","0","1","2","0.8,0.2,0.2,0.2,0.8,0.2,0.2,0.2,0.8","0.2,0.8,0.2,0.2,0.2,0.8,0.8,0.2,0.2","3","",""
"","html-keyboard-response","105","53571","0.0-105.0","37FMASSAYDDN59110LQDFDLQGMCIBB","A2YC6PEMIRSOAA","3UDTAB6HH6LRO17U79I9TKUGYFV09C","","null","<img src=""img/land1.png"" style=""width:200px;border:14px solid red;"">","null","","","","","","","","","",""
"","image-keyboard-response","106","53606","0.0-106.0","37FMASSAYDDN59110LQDFDLQGMCIBB","A2YC6PEMIRSOAA","3UDTAB6HH6LRO17U79I9TKUGYFV09C","","34.30000000447035","img/land1.png","75","34.899999998509884","2","1","1","2","0.8,0.2,0.2,0.2,0.8,0.2,0.2,0.2,0.8","0.2,0.8,0.2,0.2,0.2,0.8,0.8,0.2,0.2","3","",""
"","html-keyboard-response","107","53907","0.0-107.0","37FMASSAYDDN59110LQDFDLQGMCIBB","A2YC6PEMIRSOAA","3UDTAB6HH6LRO17U79I9TKUGYFV09C","","null","<img src=""img/land1.png"" style=""width:200px; border:14px solid green;"">","null","","","","","","","","","",""
"","image-keyboard-response","108","54169","0.0-108.0","37FMASSAYDDN59110LQDFDLQGMCIBB","A2YC6PEMIRSOAA","3UDTAB6HH6LRO17U79I9TKUGYFV09C","","261.09999999403954","img/land1.png","75","261.70000000298023","2","1","1","2","0.8,0.2,0.2,0.2,0.8,0.2,0.2,0.2,0.8","0.2,0.8,0.2,0.2,0.2,0.8,0.8,0.2,0.2","3","",""
"","html-keyboard-response","109","54470","0.0-109.0","37FMASSAYDDN59110LQDFDLQGMCIBB","A2YC6PEMIRSOAA","3UDTAB6HH6LRO17U79I9TKUGYFV09C","","null","<img src=""img/land1.png"" style=""width:200px; border:14px solid green;"">","null","","","","","","","","","",""
"","image-keyboard-response","110","54655","0.0-110.0","37FMASSAYDDN59110LQDFDLQGMCIBB","A2YC6PEMIRSOAA","3UDTAB6HH6LRO17U79I9TKUGYFV09C","","183.70000000298023","img/land1.png","75","184.29999999701977","2","1","1","2","0.8,0.2,0.2,0.2,0.8,0.2,0.2,0.2,0.8","0.2,0.8,0.2,0.2,0.2,0.8,0.8,0.2,0.2","3","",""
"","html-keyboard-response","111","54956","0.0-111.0","37FMASSAYDDN59110LQDFDLQGMCIBB","A2YC6PEMIRSOAA","3UDTAB6HH6LRO17U79I9TKUGYFV09C","","null","<img src=""img/land1.png"" style=""width:200px; border:14px solid green;"">","null","","","","","","","","","",""
"","image-keyboard-response","112","55053","0.0-112.0","37FMASSAYDDN59110LQDFDLQGMCIBB","A2YC6PEMIRSOAA","3UDTAB6HH6LRO17U79I9TKUGYFV09C","","96.20000000298023","img/land1.png","75","96.89999999850988","2","0","1","2","0.8,0.2,0.2,0.2,0.8,0.2,0.2,0.2,0.8","0.2,0.8,0.2,0.2,0.2,0.8,0.8,0.2,0.2","3","",""
"","html-keyboard-response","113","55354","0.0-113.0","37FMASSAYDDN59110LQDFDLQGMCIBB","A2YC6PEMIRSOAA","3UDTAB6HH6LRO17U79I9TKUGYFV09C","","null","<img src=""img/land1.png"" style=""width:200px;border:14px solid red;"">","null","","","","","","","","","",""
"","image-keyboard-response","114","55970","0.0-114.0","37FMASSAYDDN59110LQDFDLQGMCIBB","A2YC6PEMIRSOAA","3UDTAB6HH6LRO17U79I9TKUGYFV09C","","615.3999999985099","img/land1.png","74","616","1","0","1","2","0.8,0.2,0.2,0.2,0.8,0.2,0.2,0.2,0.8","0.2,0.8,0.2,0.2,0.2,0.8,0.8,0.2,0.2","3","",""
"","html-keyboard-response","115","56271","0.0-115.0","37FMASSAYDDN59110LQDFDLQGMCIBB","A2YC6PEMIRSOAA","3UDTAB6HH6LRO17U79I9TKUGYFV09C","","null","<img src=""img/land1.png"" style=""width:200px;border:14px solid red;"">","null","","","","","","","","","",""
"","image-keyboard-response","116","56526","0.0-116.0","37FMASSAYDDN59110LQDFDLQGMCIBB","A2YC6PEMIRSOAA","3UDTAB6HH6LRO17U79I9TKUGYFV09C","","253.89999999850988","img/land1.png","76","254.60000000149012","3","1","1","2","0.8,0.2,0.2,0.2,0.8,0.2,0.2,0.2,0.8","0.2,0.8,0.2,0.2,0.2,0.8,0.8,0.2,0.2","3","",""
"","html-keyboard-response","117","56827","0.0-117.0","37FMASSAYDDN59110LQDFDLQGMCIBB","A2YC6PEMIRSOAA","3UDTAB6HH6LRO17U79I9TKUGYFV09C","","null","<img src=""img/land1.png"" style=""width:200px; border:14px solid green;"">","null","","","","","","","","","",""
"","image-keyboard-response","118","57238","0.0-118.0","37FMASSAYDDN59110LQDFDLQGMCIBB","A2YC6PEMIRSOAA","3UDTAB6HH6LRO17U79I9TKUGYFV09C","","409.8999999985099","img/land1.png","76","410.3999999985099","3","0","1","2","0.8,0.2,0.2,0.2,0.8,0.2,0.2,0.2,0.8","0.2,0.8,0.2,0.2,0.2,0.8,0.8,0.2,0.2","3","",""
"","html-keyboard-response","119","57540","0.0-119.0","37FMASSAYDDN59110LQDFDLQGMCIBB","A2YC6PEMIRSOAA","3UDTAB6HH6LRO17U79I9TKUGYFV09C","","null","<img src=""img/land1.png"" style=""width:200px;border:14px solid red;"">","null","","","","","","","","","",""
"","image-keyboard-response","120","57900","0.0-120.0","37FMASSAYDDN59110LQDFDLQGMCIBB","A2YC6PEMIRSOAA","3UDTAB6HH6LRO17U79I9TKUGYFV09C","","359.79999999701977","img/land1.png","75","360.3999999985099","2","1","1","2","0.8,0.2,0.2,0.2,0.8,0.2,0.2,0.2,0.8","0.2,0.8,0.2,0.2,0.2,0.8,0.8,0.2,0.2","3","",""
"","html-keyboard-response","121","58201","0.0-121.0","37FMASSAYDDN59110LQDFDLQGMCIBB","A2YC6PEMIRSOAA","3UDTAB6HH6LRO17U79I9TKUGYFV09C","","null","<img src=""img/land1.png"" style=""width:200px; border:14px solid green;"">","null","","","","","","","","","",""
"","image-keyboard-response","122","58723","0.0-122.0","37FMASSAYDDN59110LQDFDLQGMCIBB","A2YC6PEMIRSOAA","3UDTAB6HH6LRO17U79I9TKUGYFV09C","","521","img/land1.png","75","521.5","2","1","1","2","0.8,0.2,0.2,0.2,0.8,0.2,0.2,0.2,0.8","0.2,0.8,0.2,0.2,0.2,0.8,0.8,0.2,0.2","3","",""
"","html-keyboard-response","123","59026","0.0-123.0","37FMASSAYDDN59110LQDFDLQGMCIBB","A2YC6PEMIRSOAA","3UDTAB6HH6LRO17U79I9TKUGYFV09C","","null","<img src=""img/land1.png"" style=""width:200px; border:14px solid green;"">","null","","","","","","","","","",""
"","image-keyboard-response","124","59278","0.0-124.0","37FMASSAYDDN59110LQDFDLQGMCIBB","A2YC6PEMIRSOAA","3UDTAB6HH6LRO17U79I9TKUGYFV09C","","251.10000000149012","img/land3.png","75","251.70000000298023","2","0","3","2","0.8,0.2,0.2,0.2,0.8,0.2,0.2,0.2,0.8","0.2,0.8,0.2,0.2,0.2,0.8,0.8,0.2,0.2","3","",""
"","html-keyboard-response","125","59579","0.0-125.0","37FMASSAYDDN59110LQDFDLQGMCIBB","A2YC6PEMIRSOAA","3UDTAB6HH6LRO17U79I9TKUGYFV09C","","null","<img src=""img/land3.png"" style=""width:200px;border:14px solid red;"">","null","","","","","","","","","",""
"","image-keyboard-response","126","59979","0.0-126.0","37FMASSAYDDN59110LQDFDLQGMCIBB","A2YC6PEMIRSOAA","3UDTAB6HH6LRO17U79I9TKUGYFV09C","","398.29999999701977","img/land3.png","74","398.90000000596046","1","0","3","2","0.8,0.2,0.2,0.2,0.8,0.2,0.2,0.2,0.8","0.2,0.8,0.2,0.2,0.2,0.8,0.8,0.2,0.2","3","",""
"","html-keyboard-response","127","60287","0.0-127.0","37FMASSAYDDN59110LQDFDLQGMCIBB","A2YC6PEMIRSOAA","3UDTAB6HH6LRO17U79I9TKUGYFV09C","","null","<img src=""img/land3.png"" style=""width:200px;border:14px solid red;"">","null","","","","","","","","","",""
"","image-keyboard-response","128","60584","0.0-128.0","37FMASSAYDDN59110LQDFDLQGMCIBB","A2YC6PEMIRSOAA","3UDTAB6HH6LRO17U79I9TKUGYFV09C","","295.5","img/land1.png","74","296.29999999701977","1","0","1","2","0.8,0.2,0.2,0.2,0.8,0.2,0.2,0.2,0.8","0.2,0.8,0.2,0.2,0.2,0.8,0.8,0.2,0.2","3","",""
"","html-keyboard-response","129","60885","0.0-129.0","37FMASSAYDDN59110LQDFDLQGMCIBB","A2YC6PEMIRSOAA","3UDTAB6HH6LRO17U79I9TKUGYFV09C","","null","<img src=""img/land1.png"" style=""width:200px;border:14px solid red;"">","null","","","","","","","","","",""
"","image-keyboard-response","130","61290","0.0-130.0","37FMASSAYDDN59110LQDFDLQGMCIBB","A2YC6PEMIRSOAA","3UDTAB6HH6LRO17U79I9TKUGYFV09C","","403.69999999552965","img/land1.png","75","404.3999999985099","2","1","1","2","0.8,0.2,0.2,0.2,0.8,0.2,0.2,0.2,0.8","0.2,0.8,0.2,0.2,0.2,0.8,0.8,0.2,0.2","3","",""
"","html-keyboard-response","131","61591","0.0-131.0","37FMASSAYDDN59110LQDFDLQGMCIBB","A2YC6PEMIRSOAA","3UDTAB6HH6LRO17U79I9TKUGYFV09C","","null","<img src=""img/land1.png"" style=""width:200px; border:14px solid green;"">","null","","","","","","","","","",""
"","image-keyboard-response","132","61993","0.0-132.0","37FMASSAYDDN59110LQDFDLQGMCIBB","A2YC6PEMIRSOAA","3UDTAB6HH6LRO17U79I9TKUGYFV09C","","401.20000000298023","img/land1.png","75","401.79999999701977","2","1","1","2","0.8,0.2,0.2,0.2,0.8,0.2,0.2,0.2,0.8","0.2,0.8,0.2,0.2,0.2,0.8,0.8,0.2,0.2","3","",""
"","html-keyboard-response","133","62294","0.0-133.0","37FMASSAYDDN59110LQDFDLQGMCIBB","A2YC6PEMIRSOAA","3UDTAB6HH6LRO17U79I9TKUGYFV09C","","null","<img src=""img/land1.png"" style=""width:200px; border:14px solid green;"">","null","","","","","","","","","",""
"","image-keyboard-response","134","62632","0.0-134.0","37FMASSAYDDN59110LQDFDLQGMCIBB","A2YC6PEMIRSOAA","3UDTAB6HH6LRO17U79I9TKUGYFV09C","","336.79999999701977","img/land1.png","75","337.40000000596046","2","0","1","2","0.8,0.2,0.2,0.2,0.8,0.2,0.2,0.2,0.8","0.2,0.8,0.2,0.2,0.2,0.8,0.8,0.2,0.2","3","",""
"","html-keyboard-response","135","62933","0.0-135.0","37FMASSAYDDN59110LQDFDLQGMCIBB","A2YC6PEMIRSOAA","3UDTAB6HH6LRO17U79I9TKUGYFV09C","","null","<img src=""img/land1.png"" style=""width:200px;border:14px solid red;"">","null","","","","","","","","","",""
"","image-keyboard-response","136","63486","0.0-136.0","37FMASSAYDDN59110LQDFDLQGMCIBB","A2YC6PEMIRSOAA","3UDTAB6HH6LRO17U79I9TKUGYFV09C","","552.3999999985099","img/land6.png","76","553","3","1","2","2","0.8,0.2,0.2,0.2,0.8,0.2,0.2,0.2,0.8","0.2,0.8,0.2,0.2,0.2,0.8,0.8,0.2,0.2","3","",""
"","html-keyboard-response","137","63788","0.0-137.0","37FMASSAYDDN59110LQDFDLQGMCIBB","A2YC6PEMIRSOAA","3UDTAB6HH6LRO17U79I9TKUGYFV09C","","null","<img src=""img/land6.png"" style=""width:200px; border:14px solid green;"">","null","","","","","","","","","",""
"","image-keyboard-response","138","64246","0.0-138.0","37FMASSAYDDN59110LQDFDLQGMCIBB","A2YC6PEMIRSOAA","3UDTAB6HH6LRO17U79I9TKUGYFV09C","","457.5","img/land1.png","76","458","3","0","1","2","0.8,0.2,0.2,0.2,0.8,0.2,0.2,0.2,0.8","0.2,0.8,0.2,0.2,0.2,0.8,0.8,0.2,0.2","3","",""
"","html-keyboard-response","139","64548","0.0-139.0","37FMASSAYDDN59110LQDFDLQGMCIBB","A2YC6PEMIRSOAA","3UDTAB6HH6LRO17U79I9TKUGYFV09C","","null","<img src=""img/land1.png"" style=""width:200px;border:14px solid red;"">","null","","","","","","","","","",""
"","image-keyboard-response","140","64898","0.0-140.0","37FMASSAYDDN59110LQDFDLQGMCIBB","A2YC6PEMIRSOAA","3UDTAB6HH6LRO17U79I9TKUGYFV09C","","349.3999999985099","img/land1.png","75","350.09999999403954","2","1","1","2","0.8,0.2,0.2,0.2,0.8,0.2,0.2,0.2,0.8","0.2,0.8,0.2,0.2,0.2,0.8,0.8,0.2,0.2","3","",""
"","html-keyboard-response","141","65199","0.0-141.0","37FMASSAYDDN59110LQDFDLQGMCIBB","A2YC6PEMIRSOAA","3UDTAB6HH6LRO17U79I9TKUGYFV09C","","null","<img src=""img/land1.png"" style=""width:200px; border:14px solid green;"">","null","","","","","","","","","",""
"","image-keyboard-response","142","65956","0.0-142.0","37FMASSAYDDN59110LQDFDLQGMCIBB","A2YC6PEMIRSOAA","3UDTAB6HH6LRO17U79I9TKUGYFV09C","","755.5","img/land3.png","74","756.1000000014901","1","1","3","2","0.8,0.2,0.2,0.2,0.8,0.2,0.2,0.2,0.8","0.2,0.8,0.2,0.2,0.2,0.8,0.8,0.2,0.2","3","",""
"","html-keyboard-response","143","66257","0.0-143.0","37FMASSAYDDN59110LQDFDLQGMCIBB","A2YC6PEMIRSOAA","3UDTAB6HH6LRO17U79I9TKUGYFV09C","","null","<img src=""img/land3.png"" style=""width:200px; border:14px solid green;"">","null","","","","","","","","","",""
"","image-keyboard-response","144","66723","0.0-144.0","37FMASSAYDDN59110LQDFDLQGMCIBB","A2YC6PEMIRSOAA","3UDTAB6HH6LRO17U79I9TKUGYFV09C","","465.40000000596046","img/land3.png","74","466.1000000014901","1","1","3","2","0.8,0.2,0.2,0.2,0.8,0.2,0.2,0.2,0.8","0.2,0.8,0.2,0.2,0.2,0.8,0.8,0.2,0.2","3","",""
"","html-keyboard-response","145","67024","0.0-145.0","37FMASSAYDDN59110LQDFDLQGMCIBB","A2YC6PEMIRSOAA","3UDTAB6HH6LRO17U79I9TKUGYFV09C","","null","<img src=""img/land3.png"" style=""width:200px; border:14px solid green;"">","null","","","","","","","","","",""
"","image-keyboard-response","146","67280","0.0-146.0","37FMASSAYDDN59110LQDFDLQGMCIBB","A2YC6PEMIRSOAA","3UDTAB6HH6LRO17U79I9TKUGYFV09C","","255.39999999850988","img/land6.png","74","256","1","1","2","2","0.8,0.2,0.2,0.2,0.8,0.2,0.2,0.2,0.8","0.2,0.8,0.2,0.2,0.2,0.8,0.8,0.2,0.2","3","",""
"","html-keyboard-response","147","67581","0.0-147.0","37FMASSAYDDN59110LQDFDLQGMCIBB","A2YC6PEMIRSOAA","3UDTAB6HH6LRO17U79I9TKUGYFV09C","","null","<img src=""img/land6.png"" style=""width:200px; border:14px solid green;"">","null","","","","","","","","","",""
"","image-keyboard-response","148","68582","0.0-148.0","37FMASSAYDDN59110LQDFDLQGMCIBB","A2YC6PEMIRSOAA","3UDTAB6HH6LRO17U79I9TKUGYFV09C","","1000.7000000029802","img/land6.png","74","1001.1999999955297","1","0","2","2","0.8,0.2,0.2,0.2,0.8,0.2,0.2,0.2,0.8","0.2,0.8,0.2,0.2,0.2,0.8,0.8,0.2,0.2","3","",""
"","html-keyboard-response","149","68883","0.0-149.0","37FMASSAYDDN59110LQDFDLQGMCIBB","A2YC6PEMIRSOAA","3UDTAB6HH6LRO17U79I9TKUGYFV09C","","null","<img src=""img/land6.png"" style=""width:200px;border:14px solid red;"">","null","","","","","","","","","",""
"","image-keyboard-response","150","69271","0.0-150.0","37FMASSAYDDN59110LQDFDLQGMCIBB","A2YC6PEMIRSOAA","3UDTAB6HH6LRO17U79I9TKUGYFV09C","","387.30000000447035","img/land1.png","75","388.20000000298023","2","0","1","2","0.8,0.2,0.2,0.2,0.8,0.2,0.2,0.2,0.8","0.2,0.8,0.2,0.2,0.2,0.8,0.8,0.2,0.2","3","",""
"","html-keyboard-response","151","69574","0.0-151.0","37FMASSAYDDN59110LQDFDLQGMCIBB","A2YC6PEMIRSOAA","3UDTAB6HH6LRO17U79I9TKUGYFV09C","","null","<img src=""img/land1.png"" style=""width:200px;border:14px solid red;"">","null","","","","","","","","","",""
"","image-keyboard-response","152","70172","0.0-152.0","37FMASSAYDDN59110LQDFDLQGMCIBB","A2YC6PEMIRSOAA","3UDTAB6HH6LRO17U79I9TKUGYFV09C","","597.6000000014901","img/land1.png","76","598.3000000044703","3","0","1","2","0.8,0.2,0.2,0.2,0.8,0.2,0.2,0.2,0.8","0.2,0.8,0.2,0.2,0.2,0.8,0.8,0.2,0.2","3","",""
"","html-keyboard-response","153","70474","0.0-153.0","37FMASSAYDDN59110LQDFDLQGMCIBB","A2YC6PEMIRSOAA","3UDTAB6HH6LRO17U79I9TKUGYFV09C","","null","<img src=""img/land1.png"" style=""width:200px;border:14px solid red;"">","null","","","","","","","","","",""
"","image-keyboard-response","154","70777","0.0-154.0","37FMASSAYDDN59110LQDFDLQGMCIBB","A2YC6PEMIRSOAA","3UDTAB6HH6LRO17U79I9TKUGYFV09C","","301.59999999403954","img/land1.png","74","302.20000000298023","1","0","1","2","0.8,0.2,0.2,0.2,0.8,0.2,0.2,0.2,0.8","0.2,0.8,0.2,0.2,0.2,0.8,0.8,0.2,0.2","3","",""
"","html-keyboard-response","155","71077","0.0-155.0","37FMASSAYDDN59110LQDFDLQGMCIBB","A2YC6PEMIRSOAA","3UDTAB6HH6LRO17U79I9TKUGYFV09C","","null","<img src=""img/land1.png"" style=""width:200px;border:14px solid red;"">","null","","","","","","","","","",""
"","image-keyboard-response","156","71226","0.0-156.0","37FMASSAYDDN59110LQDFDLQGMCIBB","A2YC6PEMIRSOAA","3UDTAB6HH6LRO17U79I9TKUGYFV09C","","147.69999999552965","img/land1.png","75","148.60000000149012","2","0","1","2","0.8,0.2,0.2,0.2,0.8,0.2,0.2,0.2,0.8","0.2,0.8,0.2,0.2,0.2,0.8,0.8,0.2,0.2","3","",""
"","html-keyboard-response","157","71527","0.0-157.0","37FMASSAYDDN59110LQDFDLQGMCIBB","A2YC6PEMIRSOAA","3UDTAB6HH6LRO17U79I9TKUGYFV09C","","null","<img src=""img/land1.png"" style=""width:200px;border:14px solid red;"">","null","","","","","","","","","",""
"","image-keyboard-response","158","72195","0.0-158.0","37FMASSAYDDN59110LQDFDLQGMCIBB","A2YC6PEMIRSOAA","3UDTAB6HH6LRO17U79I9TKUGYFV09C","","666.5","img/land3.png","74","667.1999999955297","1","0","3","2","0.8,0.2,0.2,0.2,0.8,0.2,0.2,0.2,0.8","0.2,0.8,0.2,0.2,0.2,0.8,0.8,0.2,0.2","3","",""
"","html-keyboard-response","159","72496","0.0-159.0","37FMASSAYDDN59110LQDFDLQGMCIBB","A2YC6PEMIRSOAA","3UDTAB6HH6LRO17U79I9TKUGYFV09C","","null","<img src=""img/land3.png"" style=""width:200px;border:14px solid red;"">","null","","","","","","","","","",""
"","image-keyboard-response","160","72741","0.0-160.0","37FMASSAYDDN59110LQDFDLQGMCIBB","A2YC6PEMIRSOAA","3UDTAB6HH6LRO17U79I9TKUGYFV09C","","244.70000000298023","img/land1.png","76","245.09999999403954","3","1","1","2","0.8,0.2,0.2,0.2,0.8,0.2,0.2,0.2,0.8","0.2,0.8,0.2,0.2,0.2,0.8,0.8,0.2,0.2","3","",""
"","html-keyboard-response","161","73043","0.0-161.0","37FMASSAYDDN59110LQDFDLQGMCIBB","A2YC6PEMIRSOAA","3UDTAB6HH6LRO17U79I9TKUGYFV09C","","null","<img src=""img/land1.png"" style=""width:200px; border:14px solid green;"">","null","","","","","","","","","",""
"","image-keyboard-response","162","73405","0.0-162.0","37FMASSAYDDN59110LQDFDLQGMCIBB","A2YC6PEMIRSOAA","3UDTAB6HH6LRO17U79I9TKUGYFV09C","","361.6000000014901","img/land1.png","76","362.8999999985099","3","0","1","2","0.8,0.2,0.2,0.2,0.8,0.2,0.2,0.2,0.8","0.2,0.8,0.2,0.2,0.2,0.8,0.8,0.2,0.2","3","",""
"","html-keyboard-response","163","73707","0.0-163.0","37FMASSAYDDN59110LQDFDLQGMCIBB","A2YC6PEMIRSOAA","3UDTAB6HH6LRO17U79I9TKUGYFV09C","","null","<img src=""img/land1.png"" style=""width:200px;border:14px solid red;"">","null","","","","","","","","","",""
"","image-keyboard-response","164","74197","0.0-164.0","37FMASSAYDDN59110LQDFDLQGMCIBB","A2YC6PEMIRSOAA","3UDTAB6HH6LRO17U79I9TKUGYFV09C","","489.3999999985099","img/land6.png","75","490.1000000014901","2","1","2","2","0.8,0.2,0.2,0.2,0.8,0.2,0.2,0.2,0.8","0.2,0.8,0.2,0.2,0.2,0.8,0.8,0.2,0.2","3","",""
"","html-keyboard-response","165","74498","0.0-165.0","37FMASSAYDDN59110LQDFDLQGMCIBB","A2YC6PEMIRSOAA","3UDTAB6HH6LRO17U79I9TKUGYFV09C","","null","<img src=""img/land6.png"" style=""width:200px; border:14px solid green;"">","null","","","","","","","","","",""
"","image-keyboard-response","166","74842","0.0-166.0","37FMASSAYDDN59110LQDFDLQGMCIBB","A2YC6PEMIRSOAA","3UDTAB6HH6LRO17U79I9TKUGYFV09C","","342.6000000014901","img/land1.png","75","343.19999999552965","2","1","1","2","0.8,0.2,0.2,0.2,0.8,0.2,0.2,0.2,0.8","0.2,0.8,0.2,0.2,0.2,0.8,0.8,0.2,0.2","3","",""
"","html-keyboard-response","167","75143","0.0-167.0","37FMASSAYDDN59110LQDFDLQGMCIBB","A2YC6PEMIRSOAA","3UDTAB6HH6LRO17U79I9TKUGYFV09C","","null","<img src=""img/land1.png"" style=""width:200px; border:14px solid green;"">","null","","","","","","","","","",""
"","image-keyboard-response","168","75633","0.0-168.0","37FMASSAYDDN59110LQDFDLQGMCIBB","A2YC6PEMIRSOAA","3UDTAB6HH6LRO17U79I9TKUGYFV09C","","489.5","img/land3.png","75","490.1000000014901","2","0","3","2","0.8,0.2,0.2,0.2,0.8,0.2,0.2,0.2,0.8","0.2,0.8,0.2,0.2,0.2,0.8,0.8,0.2,0.2","3","",""
"","html-keyboard-response","169","75935","0.0-169.0","37FMASSAYDDN59110LQDFDLQGMCIBB","A2YC6PEMIRSOAA","3UDTAB6HH6LRO17U79I9TKUGYFV09C","","null","<img src=""img/land3.png"" style=""width:200px;border:14px solid red;"">","null","","","","","","","","","",""
"","image-keyboard-response","170","76317","0.0-170.0","37FMASSAYDDN59110LQDFDLQGMCIBB","A2YC6PEMIRSOAA","3UDTAB6HH6LRO17U79I9TKUGYFV09C","","381.79999999701977","img/land1.png","74","382.6000000014901","1","0","1","2","0.8,0.2,0.2,0.2,0.8,0.2,0.2,0.2,0.8","0.2,0.8,0.2,0.2,0.2,0.8,0.8,0.2,0.2","3","",""
"","html-keyboard-response","171","76620","0.0-171.0","37FMASSAYDDN59110LQDFDLQGMCIBB","A2YC6PEMIRSOAA","3UDTAB6HH6LRO17U79I9TKUGYFV09C","","null","<img src=""img/land1.png"" style=""width:200px;border:14px solid red;"">","null","","","","","","","","","",""
"","image-keyboard-response","172","77241","0.0-172.0","37FMASSAYDDN59110LQDFDLQGMCIBB","A2YC6PEMIRSOAA","3UDTAB6HH6LRO17U79I9TKUGYFV09C","","620.1999999955297","img/land3.png","75","620.7999999970198","2","0","3","2","0.8,0.2,0.2,0.2,0.8,0.2,0.2,0.2,0.8","0.2,0.8,0.2,0.2,0.2,0.8,0.8,0.2,0.2","3","",""
"","html-keyboard-response","173","77542","0.0-173.0","37FMASSAYDDN59110LQDFDLQGMCIBB","A2YC6PEMIRSOAA","3UDTAB6HH6LRO17U79I9TKUGYFV09C","","null","<img src=""img/land3.png"" style=""width:200px;border:14px solid red;"">","null","","","","","","","","","",""
"","image-keyboard-response","174","78198","0.0-174.0","37FMASSAYDDN59110LQDFDLQGMCIBB","A2YC6PEMIRSOAA","3UDTAB6HH6LRO17U79I9TKUGYFV09C","","655.0999999940395","img/land1.png","75","655.7000000029802","2","1","1","2","0.8,0.2,0.2,0.2,0.8,0.2,0.2,0.2,0.8","0.2,0.8,0.2,0.2,0.2,0.8,0.8,0.2,0.2","3","",""
"","html-keyboard-response","175","78500","0.0-175.0","37FMASSAYDDN59110LQDFDLQGMCIBB","A2YC6PEMIRSOAA","3UDTAB6HH6LRO17U79I9TKUGYFV09C","","null","<img src=""img/land1.png"" style=""width:200px; border:14px solid green;"">","null","","","","","","","","","",""
"","image-keyboard-response","176","78787","0.0-176.0","37FMASSAYDDN59110LQDFDLQGMCIBB","A2YC6PEMIRSOAA","3UDTAB6HH6LRO17U79I9TKUGYFV09C","","286.79999999701977","img/land1.png","75","287.5","2","1","1","2","0.8,0.2,0.2,0.2,0.8,0.2,0.2,0.2,0.8","0.2,0.8,0.2,0.2,0.2,0.8,0.8,0.2,0.2","3","",""
"","html-keyboard-response","177","79088","0.0-177.0","37FMASSAYDDN59110LQDFDLQGMCIBB","A2YC6PEMIRSOAA","3UDTAB6HH6LRO17U79I9TKUGYFV09C","","null","<img src=""img/land1.png"" style=""width:200px; border:14px solid green;"">","null","","","","","","","","","",""
"","image-keyboard-response","178","79367","0.0-178.0","37FMASSAYDDN59110LQDFDLQGMCIBB","A2YC6PEMIRSOAA","3UDTAB6HH6LRO17U79I9TKUGYFV09C","","278.6000000014901","img/land1.png","75","279","2","1","1","2","0.8,0.2,0.2,0.2,0.8,0.2,0.2,0.2,0.8","0.2,0.8,0.2,0.2,0.2,0.8,0.8,0.2,0.2","3","",""
"","html-keyboard-response","179","79670","0.0-179.0","37FMASSAYDDN59110LQDFDLQGMCIBB","A2YC6PEMIRSOAA","3UDTAB6HH6LRO17U79I9TKUGYFV09C","","null","<img src=""img/land1.png"" style=""width:200px; border:14px solid green;"">","null","","","","","","","","","",""
"","image-keyboard-response","180","79940","0.0-180.0","37FMASSAYDDN59110LQDFDLQGMCIBB","A2YC6PEMIRSOAA","3UDTAB6HH6LRO17U79I9TKUGYFV09C","","269.70000000298023","img/land1.png","75","270.29999999701977","2","1","1","2","0.8,0.2,0.2,0.2,0.8,0.2,0.2,0.2,0.8","0.2,0.8,0.2,0.2,0.2,0.8,0.8,0.2,0.2","3","",""
"","html-keyboard-response","181","80242","0.0-181.0","37FMASSAYDDN59110LQDFDLQGMCIBB","A2YC6PEMIRSOAA","3UDTAB6HH6LRO17U79I9TKUGYFV09C","","null","<img src=""img/land1.png"" style=""width:200px; border:14px solid green;"">","null","","","","","","","","","",""
"","image-keyboard-response","182","80452","0.0-182.0","37FMASSAYDDN59110LQDFDLQGMCIBB","A2YC6PEMIRSOAA","3UDTAB6HH6LRO17U79I9TKUGYFV09C","","209.40000000596046","img/land1.png","75","209.89999999850988","2","1","1","2","0.8,0.2,0.2,0.2,0.8,0.2,0.2,0.2,0.8","0.2,0.8,0.2,0.2,0.2,0.8,0.8,0.2,0.2","3","",""
"","html-keyboard-response","183","80754","0.0-183.0","37FMASSAYDDN59110LQDFDLQGMCIBB","A2YC6PEMIRSOAA","3UDTAB6HH6LRO17U79I9TKUGYFV09C","","null","<img src=""img/land1.png"" style=""width:200px; border:14px solid green;"">","null","","","","","","","","","",""
"","image-keyboard-response","184","80977","0.0-184.0","37FMASSAYDDN59110LQDFDLQGMCIBB","A2YC6PEMIRSOAA","3UDTAB6HH6LRO17U79I9TKUGYFV09C","","222.20000000298023","img/land3.png","75","222.79999999701977","2","0","3","2","0.8,0.2,0.2,0.2,0.8,0.2,0.2,0.2,0.8","0.2,0.8,0.2,0.2,0.2,0.8,0.8,0.2,0.2","3","",""
"","html-keyboard-response","185","81278","0.0-185.0","37FMASSAYDDN59110LQDFDLQGMCIBB","A2YC6PEMIRSOAA","3UDTAB6HH6LRO17U79I9TKUGYFV09C","","null","<img src=""img/land3.png"" style=""width:200px;border:14px solid red;"">","null","","","","","","","","","",""
"","image-keyboard-response","186","82176","0.0-186.0","37FMASSAYDDN59110LQDFDLQGMCIBB","A2YC6PEMIRSOAA","3UDTAB6HH6LRO17U79I9TKUGYFV09C","","897.1999999955297","img/land1.png","75","897.8000000044703","2","0","1","2","0.8,0.2,0.2,0.2,0.8,0.2,0.2,0.2,0.8","0.2,0.8,0.2,0.2,0.2,0.8,0.8,0.2,0.2","3","",""
"","html-keyboard-response","187","82477","0.0-187.0","37FMASSAYDDN59110LQDFDLQGMCIBB","A2YC6PEMIRSOAA","3UDTAB6HH6LRO17U79I9TKUGYFV09C","","null","<img src=""img/land1.png"" style=""width:200px;border:14px solid red;"">","null","","","","","","","","","",""
"","image-keyboard-response","188","83355","0.0-188.0","37FMASSAYDDN59110LQDFDLQGMCIBB","A2YC6PEMIRSOAA","3UDTAB6HH6LRO17U79I9TKUGYFV09C","","877","img/land3.png","74","877.7000000029802","1","1","3","2","0.8,0.2,0.2,0.2,0.8,0.2,0.2,0.2,0.8","0.2,0.8,0.2,0.2,0.2,0.8,0.8,0.2,0.2","3","",""
"","html-keyboard-response","189","83661","0.0-189.0","37FMASSAYDDN59110LQDFDLQGMCIBB","A2YC6PEMIRSOAA","3UDTAB6HH6LRO17U79I9TKUGYFV09C","","null","<img src=""img/land3.png"" style=""width:200px; border:14px solid green;"">","null","","","","","","","","","",""
"","image-keyboard-response","190","83938","0.0-190.0","37FMASSAYDDN59110LQDFDLQGMCIBB","A2YC6PEMIRSOAA","3UDTAB6HH6LRO17U79I9TKUGYFV09C","","276.5","img/land1.png","74","277.1000000014901","1","1","1","2","0.8,0.2,0.2,0.2,0.8,0.2,0.2,0.2,0.8","0.2,0.8,0.2,0.2,0.2,0.8,0.8,0.2,0.2","3","",""
"","html-keyboard-response","191","84240","0.0-191.0","37FMASSAYDDN59110LQDFDLQGMCIBB","A2YC6PEMIRSOAA","3UDTAB6HH6LRO17U79I9TKUGYFV09C","","null","<img src=""img/land1.png"" style=""width:200px; border:14px solid green;"">","null","","","","","","","","","",""
"","image-keyboard-response","192","84637","0.0-192.0","37FMASSAYDDN59110LQDFDLQGMCIBB","A2YC6PEMIRSOAA","3UDTAB6HH6LRO17U79I9TKUGYFV09C","","395.6000000014901","img/land1.png","75","396.29999999701977","2","1","1","2","0.8,0.2,0.2,0.2,0.8,0.2,0.2,0.2,0.8","0.2,0.8,0.2,0.2,0.2,0.8,0.8,0.2,0.2","3","",""
"","html-keyboard-response","193","84938","0.0-193.0","37FMASSAYDDN59110LQDFDLQGMCIBB","A2YC6PEMIRSOAA","3UDTAB6HH6LRO17U79I9TKUGYFV09C","","null","<img src=""img/land1.png"" style=""width:200px; border:14px solid green;"">","null","","","","","","","","","",""
"","image-keyboard-response","194","85544","0.0-194.0","37FMASSAYDDN59110LQDFDLQGMCIBB","A2YC6PEMIRSOAA","3UDTAB6HH6LRO17U79I9TKUGYFV09C","","605.1000000014901","img/land3.png","75","605.8000000044703","2","1","3","2","0.8,0.2,0.2,0.2,0.8,0.2,0.2,0.2,0.8","0.2,0.8,0.2,0.2,0.2,0.8,0.8,0.2,0.2","3","",""
"","html-keyboard-response","195","85845","0.0-195.0","37FMASSAYDDN59110LQDFDLQGMCIBB","A2YC6PEMIRSOAA","3UDTAB6HH6LRO17U79I9TKUGYFV09C","","null","<img src=""img/land3.png"" style=""width:200px; border:14px solid green;"">","null","","","","","","","","","",""
"","image-keyboard-response","196","86711","0.0-196.0","37FMASSAYDDN59110LQDFDLQGMCIBB","A2YC6PEMIRSOAA","3UDTAB6HH6LRO17U79I9TKUGYFV09C","","865.3999999985099","img/land6.png","76","866.1999999955297","3","0","2","2","0.8,0.2,0.2,0.2,0.8,0.2,0.2,0.2,0.8","0.2,0.8,0.2,0.2,0.2,0.8,0.8,0.2,0.2","3","",""
"","html-keyboard-response","197","87012","0.0-197.0","37FMASSAYDDN59110LQDFDLQGMCIBB","A2YC6PEMIRSOAA","3UDTAB6HH6LRO17U79I9TKUGYFV09C","","null","<img src=""img/land6.png"" style=""width:200px;border:14px solid red;"">","null","","","","","","","","","",""
"","image-keyboard-response","198","87450","0.0-198.0","37FMASSAYDDN59110LQDFDLQGMCIBB","A2YC6PEMIRSOAA","3UDTAB6HH6LRO17U79I9TKUGYFV09C","","436.79999999701977","img/land3.png","75","437.6000000014901","2","0","3","2","0.8,0.2,0.2,0.2,0.8,0.2,0.2,0.2,0.8","0.2,0.8,0.2,0.2,0.2,0.8,0.8,0.2,0.2","3","",""
"","html-keyboard-response","199","87752","0.0-199.0","37FMASSAYDDN59110LQDFDLQGMCIBB","A2YC6PEMIRSOAA","3UDTAB6HH6LRO17U79I9TKUGYFV09C","","null","<img src=""img/land3.png"" style=""width:200px;border:14px solid red;"">","null","","","","","","","","","",""
"","image-keyboard-response","200","87983","0.0-200.0","37FMASSAYDDN59110LQDFDLQGMCIBB","A2YC6PEMIRSOAA","3UDTAB6HH6LRO17U79I9TKUGYFV09C","","230.20000000298023","img/land6.png","74","230.79999999701977","1","0","2","2","0.8,0.2,0.2,0.2,0.8,0.2,0.2,0.2,0.8","0.2,0.8,0.2,0.2,0.2,0.8,0.8,0.2,0.2","3","",""
"","html-keyboard-response","201","88284","0.0-201.0","37FMASSAYDDN59110LQDFDLQGMCIBB","A2YC6PEMIRSOAA","3UDTAB6HH6LRO17U79I9TKUGYFV09C","","null","<img src=""img/land6.png"" style=""width:200px;border:14px solid red;"">","null","","","","","","","","","",""
"","image-keyboard-response","202","88783","0.0-202.0","37FMASSAYDDN59110LQDFDLQGMCIBB","A2YC6PEMIRSOAA","3UDTAB6HH6LRO17U79I9TKUGYFV09C","","498.5","img/land6.png","76","499","3","1","2","2","0.8,0.2,0.2,0.2,0.8,0.2,0.2,0.2,0.8","0.2,0.8,0.2,0.2,0.2,0.8,0.8,0.2,0.2","3","",""
"","html-keyboard-response","203","89084","0.0-203.0","37FMASSAYDDN59110LQDFDLQGMCIBB","A2YC6PEMIRSOAA","3UDTAB6HH6LRO17U79I9TKUGYFV09C","","null","<img src=""img/land6.png"" style=""width:200px; border:14px solid green;"">","null","","","","","","","","","",""
"","image-keyboard-response","204","89514","0.0-204.0","37FMASSAYDDN59110LQDFDLQGMCIBB","A2YC6PEMIRSOAA","3UDTAB6HH6LRO17U79I9TKUGYFV09C","","429.19999999552965","img/land1.png","76","429.70000000298023","3","0","1","2","0.8,0.2,0.2,0.2,0.8,0.2,0.2,0.2,0.8","0.2,0.8,0.2,0.2,0.2,0.8,0.8,0.2,0.2","3","",""
"","html-keyboard-response","205","89816","0.0-205.0","37FMASSAYDDN59110LQDFDLQGMCIBB","A2YC6PEMIRSOAA","3UDTAB6HH6LRO17U79I9TKUGYFV09C","","null","<img src=""img/land1.png"" style=""width:200px;border:14px solid red;"">","null","","","","","","","","","",""
"","image-keyboard-response","206","90114","0.0-206.0","37FMASSAYDDN59110LQDFDLQGMCIBB","A2YC6PEMIRSOAA","3UDTAB6HH6LRO17U79I9TKUGYFV09C","","297","img/land6.png","75","297.6000000014901","2","0","2","2","0.8,0.2,0.2,0.2,0.8,0.2,0.2,0.2,0.8","0.2,0.8,0.2,0.2,0.2,0.8,0.8,0.2,0.2","3","",""
"","html-keyboard-response","207","90415","0.0-207.0","37FMASSAYDDN59110LQDFDLQGMCIBB","A2YC6PEMIRSOAA","3UDTAB6HH6LRO17U79I9TKUGYFV09C","","null","<img src=""img/land6.png"" style=""width:200px;border:14px solid red;"">","null","","","","","","","","","",""
"","image-keyboard-response","208","91314","0.0-208.0","37FMASSAYDDN59110LQDFDLQGMCIBB","A2YC6PEMIRSOAA","3UDTAB6HH6LRO17U79I9TKUGYFV09C","","898.4000000059605","img/land1.png","75","899","2","1","1","2","0.8,0.2,0.2,0.2,0.8,0.2,0.2,0.2,0.8","0.2,0.8,0.2,0.2,0.2,0.8,0.8,0.2,0.2","3","",""
"","html-keyboard-response","209","91616","0.0-209.0","37FMASSAYDDN59110LQDFDLQGMCIBB","A2YC6PEMIRSOAA","3UDTAB6HH6LRO17U79I9TKUGYFV09C","","null","<img src=""img/land1.png"" style=""width:200px; border:14px solid green;"">","null","","","","","","","","","",""
"","image-keyboard-response","210","92281","0.0-210.0","37FMASSAYDDN59110LQDFDLQGMCIBB","A2YC6PEMIRSOAA","3UDTAB6HH6LRO17U79I9TKUGYFV09C","","664.5","img/land6.png","76","665.1000000014901","3","0","2","2","0.8,0.2,0.2,0.2,0.8,0.2,0.2,0.2,0.8","0.2,0.8,0.2,0.2,0.2,0.8,0.8,0.2,0.2","3","",""
"","html-keyboard-response","211","92582","0.0-211.0","37FMASSAYDDN59110LQDFDLQGMCIBB","A2YC6PEMIRSOAA","3UDTAB6HH6LRO17U79I9TKUGYFV09C","","null","<img src=""img/land6.png"" style=""width:200px;border:14px solid red;"">","null","","","","","","","","","",""
"","image-keyboard-response","212","92863","0.0-212.0","37FMASSAYDDN59110LQDFDLQGMCIBB","A2YC6PEMIRSOAA","3UDTAB6HH6LRO17U79I9TKUGYFV09C","","280.6000000014901","img/land1.png","75","281.29999999701977","2","0","1","2","0.8,0.2,0.2,0.2,0.8,0.2,0.2,0.2,0.8","0.2,0.8,0.2,0.2,0.2,0.8,0.8,0.2,0.2","3","",""
"","html-keyboard-response","213","93164","0.0-213.0","37FMASSAYDDN59110LQDFDLQGMCIBB","A2YC6PEMIRSOAA","3UDTAB6HH6LRO17U79I9TKUGYFV09C","","null","<img src=""img/land1.png"" style=""width:200px;border:14px solid red;"">","null","","","","","","","","","",""
"","image-keyboard-response","214","93739","0.0-214.0","37FMASSAYDDN59110LQDFDLQGMCIBB","A2YC6PEMIRSOAA","3UDTAB6HH6LRO17U79I9TKUGYFV09C","","573.3999999985099","img/land3.png","74","573.9000000059605","1","1","3","2","0.8,0.2,0.2,0.2,0.8,0.2,0.2,0.2,0.8","0.2,0.8,0.2,0.2,0.2,0.8,0.8,0.2,0.2","3","",""
"","html-keyboard-response","215","94040","0.0-215.0","37FMASSAYDDN59110LQDFDLQGMCIBB","A2YC6PEMIRSOAA","3UDTAB6HH6LRO17U79I9TKUGYFV09C","","null","<img src=""img/land3.png"" style=""width:200px; border:14px solid green;"">","null","","","","","","","","","",""
"","image-keyboard-response","216","94445","0.0-216.0","37FMASSAYDDN59110LQDFDLQGMCIBB","A2YC6PEMIRSOAA","3UDTAB6HH6LRO17U79I9TKUGYFV09C","","403.69999999552965","img/land3.png","74","404.30000000447035","1","1","3","2","0.8,0.2,0.2,0.2,0.8,0.2,0.2,0.2,0.8","0.2,0.8,0.2,0.2,0.2,0.8,0.8,0.2,0.2","3","",""
"","html-keyboard-response","217","94746","0.0-217.0","37FMASSAYDDN59110LQDFDLQGMCIBB","A2YC6PEMIRSOAA","3UDTAB6HH6LRO17U79I9TKUGYFV09C","","null","<img src=""img/land3.png"" style=""width:200px; border:14px solid green;"">","null","","","","","","","","","",""
"","image-keyboard-response","218","95027","0.0-218.0","37FMASSAYDDN59110LQDFDLQGMCIBB","A2YC6PEMIRSOAA","3UDTAB6HH6LRO17U79I9TKUGYFV09C","","279.5","img/land1.png","74","280.09999999403954","1","0","1","2","0.8,0.2,0.2,0.2,0.8,0.2,0.2,0.2,0.8","0.2,0.8,0.2,0.2,0.2,0.8,0.8,0.2,0.2","3","",""
"","html-keyboard-response","219","95328","0.0-219.0","37FMASSAYDDN59110LQDFDLQGMCIBB","A2YC6PEMIRSOAA","3UDTAB6HH6LRO17U79I9TKUGYFV09C","","null","<img src=""img/land1.png"" style=""width:200px;border:14px solid red;"">","null","","","","","","","","","",""
"","image-keyboard-response","220","95704","0.0-220.0","37FMASSAYDDN59110LQDFDLQGMCIBB","A2YC6PEMIRSOAA","3UDTAB6HH6LRO17U79I9TKUGYFV09C","","375.5","img/land6.png","75","376.20000000298023","2","0","2","2","0.8,0.2,0.2,0.2,0.8,0.2,0.2,0.2,0.8","0.2,0.8,0.2,0.2,0.2,0.8,0.8,0.2,0.2","3","",""
"","html-keyboard-response","221","96006","0.0-221.0","37FMASSAYDDN59110LQDFDLQGMCIBB","A2YC6PEMIRSOAA","3UDTAB6HH6LRO17U79I9TKUGYFV09C","","null","<img src=""img/land6.png"" style=""width:200px;border:14px solid red;"">","null","","","","","","","","","",""
"","image-keyboard-response","222","96395","0.0-222.0","37FMASSAYDDN59110LQDFDLQGMCIBB","A2YC6PEMIRSOAA","3UDTAB6HH6LRO17U79I9TKUGYFV09C","","388","img/land6.png","76","388.69999999552965","3","1","2","2","0.8,0.2,0.2,0.2,0.8,0.2,0.2,0.2,0.8","0.2,0.8,0.2,0.2,0.2,0.8,0.8,0.2,0.2","3","",""
"","html-keyboard-response","223","96696","0.0-223.0","37FMASSAYDDN59110LQDFDLQGMCIBB","A2YC6PEMIRSOAA","3UDTAB6HH6LRO17U79I9TKUGYFV09C","","null","<img src=""img/land6.png"" style=""width:200px; border:14px solid green;"">","null","","","","","","","","","",""
"","image-keyboard-response","224","97609","0.0-224.0","37FMASSAYDDN59110LQDFDLQGMCIBB","A2YC6PEMIRSOAA","3UDTAB6HH6LRO17U79I9TKUGYFV09C","","911.8999999985099","img/land1.png","75","912.5","2","0","1","2","0.8,0.2,0.2,0.2,0.8,0.2,0.2,0.2,0.8","0.2,0.8,0.2,0.2,0.2,0.8,0.8,0.2,0.2","3","",""
"","html-keyboard-response","225","97910","0.0-225.0","37FMASSAYDDN59110LQDFDLQGMCIBB","A2YC6PEMIRSOAA","3UDTAB6HH6LRO17U79I9TKUGYFV09C","","null","<img src=""img/land1.png"" style=""width:200px;border:14px solid red;"">","null","","","","","","","","","",""
"","image-keyboard-response","226","98458","0.0-226.0","37FMASSAYDDN59110LQDFDLQGMCIBB","A2YC6PEMIRSOAA","3UDTAB6HH6LRO17U79I9TKUGYFV09C","","546.6999999955297","img/land6.png","76","547.5","3","1","2","2","0.8,0.2,0.2,0.2,0.8,0.2,0.2,0.2,0.8","0.2,0.8,0.2,0.2,0.2,0.8,0.8,0.2,0.2","3","",""
"","html-keyboard-response","227","98759","0.0-227.0","37FMASSAYDDN59110LQDFDLQGMCIBB","A2YC6PEMIRSOAA","3UDTAB6HH6LRO17U79I9TKUGYFV09C","","null","<img src=""img/land6.png"" style=""width:200px; border:14px solid green;"">","null","","","","","","","","","",""
"","image-keyboard-response","228","99131","0.0-228.0","37FMASSAYDDN59110LQDFDLQGMCIBB","A2YC6PEMIRSOAA","3UDTAB6HH6LRO17U79I9TKUGYFV09C","","370.8999999985099","img/land1.png","76","371.5","3","1","1","2","0.8,0.2,0.2,0.2,0.8,0.2,0.2,0.2,0.8","0.2,0.8,0.2,0.2,0.2,0.8,0.8,0.2,0.2","3","",""
"","html-keyboard-response","229","99432","0.0-229.0","37FMASSAYDDN59110LQDFDLQGMCIBB","A2YC6PEMIRSOAA","3UDTAB6HH6LRO17U79I9TKUGYFV09C","","null","<img src=""img/land1.png"" style=""width:200px; border:14px solid green;"">","null","","","","","","","","","",""
"","image-keyboard-response","230","100590","0.0-230.0","37FMASSAYDDN59110LQDFDLQGMCIBB","A2YC6PEMIRSOAA","3UDTAB6HH6LRO17U79I9TKUGYFV09C","","1157.2000000029802","img/land3.png","74","1157.8999999985099","1","1","3","2","0.8,0.2,0.2,0.2,0.8,0.2,0.2,0.2,0.8","0.2,0.8,0.2,0.2,0.2,0.8,0.8,0.2,0.2","3","",""
"","html-keyboard-response","231","100892","0.0-231.0","37FMASSAYDDN59110LQDFDLQGMCIBB","A2YC6PEMIRSOAA","3UDTAB6HH6LRO17U79I9TKUGYFV09C","","null","<img src=""img/land3.png"" style=""width:200px; border:14px solid green;"">","null","","","","","","","","","",""
"","image-keyboard-response","232","101787","0.0-232.0","37FMASSAYDDN59110LQDFDLQGMCIBB","A2YC6PEMIRSOAA","3UDTAB6HH6LRO17U79I9TKUGYFV09C","","893.5999999940395","img/land1.png","75","894.3000000044703","2","1","1","2","0.8,0.2,0.2,0.2,0.8,0.2,0.2,0.2,0.8","0.2,0.8,0.2,0.2,0.2,0.8,0.8,0.2,0.2","3","",""
"","html-keyboard-response","233","102088","0.0-233.0","37FMASSAYDDN59110LQDFDLQGMCIBB","A2YC6PEMIRSOAA","3UDTAB6HH6LRO17U79I9TKUGYFV09C","","null","<img src=""img/land1.png"" style=""width:200px; border:14px solid green;"">","null","","","","","","","","","",""
"","image-keyboard-response","234","102535","0.0-234.0","37FMASSAYDDN59110LQDFDLQGMCIBB","A2YC6PEMIRSOAA","3UDTAB6HH6LRO17U79I9TKUGYFV09C","","446.8999999985099","img/land1.png","75","447.5","2","0","1","2","0.8,0.2,0.2,0.2,0.8,0.2,0.2,0.2,0.8","0.2,0.8,0.2,0.2,0.2,0.8,0.8,0.2,0.2","3","",""
"","html-keyboard-response","235","102837","0.0-235.0","37FMASSAYDDN59110LQDFDLQGMCIBB","A2YC6PEMIRSOAA","3UDTAB6HH6LRO17U79I9TKUGYFV09C","","null","<img src=""img/land1.png"" style=""width:200px;border:14px solid red;"">","null","","","","","","","","","",""
"","image-keyboard-response","236","103493","0.0-236.0","37FMASSAYDDN59110LQDFDLQGMCIBB","A2YC6PEMIRSOAA","3UDTAB6HH6LRO17U79I9TKUGYFV09C","","655.1000000014901","img/land6.png","76","655.8999999985099","3","1","2","2","0.8,0.2,0.2,0.2,0.8,0.2,0.2,0.2,0.8","0.2,0.8,0.2,0.2,0.2,0.8,0.8,0.2,0.2","3","",""
"","html-keyboard-response","237","103794","0.0-237.0","37FMASSAYDDN59110LQDFDLQGMCIBB","A2YC6PEMIRSOAA","3UDTAB6HH6LRO17U79I9TKUGYFV09C","","null","<img src=""img/land6.png"" style=""width:200px; border:14px solid green;"">","null","","","","","","","","","",""
"","image-keyboard-response","238","103985","0.0-238.0","37FMASSAYDDN59110LQDFDLQGMCIBB","A2YC6PEMIRSOAA","3UDTAB6HH6LRO17U79I9TKUGYFV09C","","189.39999999850988","img/land1.png","76","189.89999999850988","3","0","1","2","0.8,0.2,0.2,0.2,0.8,0.2,0.2,0.2,0.8","0.2,0.8,0.2,0.2,0.2,0.8,0.8,0.2,0.2","3","",""
"","html-keyboard-response","239","104297","0.0-239.0","37FMASSAYDDN59110LQDFDLQGMCIBB","A2YC6PEMIRSOAA","3UDTAB6HH6LRO17U79I9TKUGYFV09C","","null","<img src=""img/land1.png"" style=""width:200px;border:14px solid red;"">","null","","","","","","","","","",""
"","image-keyboard-response","240","104822","0.0-240.0","37FMASSAYDDN59110LQDFDLQGMCIBB","A2YC6PEMIRSOAA","3UDTAB6HH6LRO17U79I9TKUGYFV09C","","523.7999999970198","img/land1.png","75","524.5","2","1","1","2","0.8,0.2,0.2,0.2,0.8,0.2,0.2,0.2,0.8","0.2,0.8,0.2,0.2,0.2,0.8,0.8,0.2,0.2","3","",""
"","html-keyboard-response","241","105123","0.0-241.0","37FMASSAYDDN59110LQDFDLQGMCIBB","A2YC6PEMIRSOAA","3UDTAB6HH6LRO17U79I9TKUGYFV09C","","null","<img src=""img/land1.png"" style=""width:200px; border:14px solid green;"">","null","","","","","","","","","",""
"","image-keyboard-response","242","106062","0.0-242.0","37FMASSAYDDN59110LQDFDLQGMCIBB","A2YC6PEMIRSOAA","3UDTAB6HH6LRO17U79I9TKUGYFV09C","","938.1999999955297","img/land6.png","76","938.7999999970198","3","1","2","2","0.8,0.2,0.2,0.2,0.8,0.2,0.2,0.2,0.8","0.2,0.8,0.2,0.2,0.2,0.8,0.8,0.2,0.2","3","",""
"","html-keyboard-response","243","106363","0.0-243.0","37FMASSAYDDN59110LQDFDLQGMCIBB","A2YC6PEMIRSOAA","3UDTAB6HH6LRO17U79I9TKUGYFV09C","","null","<img src=""img/land6.png"" style=""width:200px; border:14px solid green;"">","null","","","","","","","","","",""
"","image-keyboard-response","244","106843","0.0-244.0","37FMASSAYDDN59110LQDFDLQGMCIBB","A2YC6PEMIRSOAA","3UDTAB6HH6LRO17U79I9TKUGYFV09C","","478.5","img/land3.png","75","479.1000000014901","2","0","3","2","0.8,0.2,0.2,0.2,0.8,0.2,0.2,0.2,0.8","0.2,0.8,0.2,0.2,0.2,0.8,0.8,0.2,0.2","3","",""
"","html-keyboard-response","245","107143","0.0-245.0","37FMASSAYDDN59110LQDFDLQGMCIBB","A2YC6PEMIRSOAA","3UDTAB6HH6LRO17U79I9TKUGYFV09C","","null","<img src=""img/land3.png"" style=""width:200px;border:14px solid red;"">","null","","","","","","","","","",""
"","image-keyboard-response","246","107843","0.0-246.0","37FMASSAYDDN59110LQDFDLQGMCIBB","A2YC6PEMIRSOAA","3UDTAB6HH6LRO17U79I9TKUGYFV09C","","698.6000000014901","img/land1.png","76","699.2999999970198","3","0","1","2","0.8,0.2,0.2,0.2,0.8,0.2,0.2,0.2,0.8","0.2,0.8,0.2,0.2,0.2,0.8,0.8,0.2,0.2","3","",""
"","html-keyboard-response","247","108145","0.0-247.0","37FMASSAYDDN59110LQDFDLQGMCIBB","A2YC6PEMIRSOAA","3UDTAB6HH6LRO17U79I9TKUGYFV09C","","null","<img src=""img/land1.png"" style=""width:200px;border:14px solid red;"">","null","","","","","","","","","",""
"","image-keyboard-response","248","108671","0.0-248.0","37FMASSAYDDN59110LQDFDLQGMCIBB","A2YC6PEMIRSOAA","3UDTAB6HH6LRO17U79I9TKUGYFV09C","","525.9000000059605","img/land3.png","74","526.5","1","1","3","2","0.8,0.2,0.2,0.2,0.8,0.2,0.2,0.2,0.8","0.2,0.8,0.2,0.2,0.2,0.8,0.8,0.2,0.2","3","",""
"","html-keyboard-response","249","108973","0.0-249.0","37FMASSAYDDN59110LQDFDLQGMCIBB","A2YC6PEMIRSOAA","3UDTAB6HH6LRO17U79I9TKUGYFV09C","","null","<img src=""img/land3.png"" style=""width:200px; border:14px solid green;"">","null","","","","","","","","","",""
"","image-keyboard-response","250","109744","0.0-250.0","37FMASSAYDDN59110LQDFDLQGMCIBB","A2YC6PEMIRSOAA","3UDTAB6HH6LRO17U79I9TKUGYFV09C","","770.6000000014901","img/land1.png","75","771.3999999985099","2","1","1","2","0.8,0.2,0.2,0.2,0.8,0.2,0.2,0.2,0.8","0.2,0.8,0.2,0.2,0.2,0.8,0.8,0.2,0.2","3","",""
"","html-keyboard-response","251","110045","0.0-251.0","37FMASSAYDDN59110LQDFDLQGMCIBB","A2YC6PEMIRSOAA","3UDTAB6HH6LRO17U79I9TKUGYFV09C","","null","<img src=""img/land1.png"" style=""width:200px; border:14px solid green;"">","null","","","","","","","","","",""
"","image-keyboard-response","252","110573","0.0-252.0","37FMASSAYDDN59110LQDFDLQGMCIBB","A2YC6PEMIRSOAA","3UDTAB6HH6LRO17U79I9TKUGYFV09C","","526.7000000029802","img/land3.png","74","527.3999999985099","1","1","3","2","0.8,0.2,0.2,0.2,0.8,0.2,0.2,0.2,0.8","0.2,0.8,0.2,0.2,0.2,0.8,0.8,0.2,0.2","3","",""
"","html-keyboard-response","253","110874","0.0-253.0","37FMASSAYDDN59110LQDFDLQGMCIBB","A2YC6PEMIRSOAA","3UDTAB6HH6LRO17U79I9TKUGYFV09C","","null","<img src=""img/land3.png"" style=""width:200px; border:14px solid green;"">","null","","","","","","","","","",""
"","image-keyboard-response","254","111438","0.0-254.0","37FMASSAYDDN59110LQDFDLQGMCIBB","A2YC6PEMIRSOAA","3UDTAB6HH6LRO17U79I9TKUGYFV09C","","563.9000000059605","img/land3.png","74","564.7000000029802","1","1","3","2","0.8,0.2,0.2,0.2,0.8,0.2,0.2,0.2,0.8","0.2,0.8,0.2,0.2,0.2,0.8,0.8,0.2,0.2","3","",""
"","html-keyboard-response","255","111740","0.0-255.0","37FMASSAYDDN59110LQDFDLQGMCIBB","A2YC6PEMIRSOAA","3UDTAB6HH6LRO17U79I9TKUGYFV09C","","null","<img src=""img/land3.png"" style=""width:200px; border:14px solid green;"">","null","","","","","","","","","",""
"","image-keyboard-response","256","112006","0.0-256.0","37FMASSAYDDN59110LQDFDLQGMCIBB","A2YC6PEMIRSOAA","3UDTAB6HH6LRO17U79I9TKUGYFV09C","","265.20000000298023","img/land6.png","74","265.79999999701977","1","0","2","2","0.8,0.2,0.2,0.2,0.8,0.2,0.2,0.2,0.8","0.2,0.8,0.2,0.2,0.2,0.8,0.8,0.2,0.2","3","",""
"","html-keyboard-response","257","112307","0.0-257.0","37FMASSAYDDN59110LQDFDLQGMCIBB","A2YC6PEMIRSOAA","3UDTAB6HH6LRO17U79I9TKUGYFV09C","","null","<img src=""img/land6.png"" style=""width:200px;border:14px solid red;"">","null","","","","","","","","","",""
"","image-keyboard-response","258","112990","0.0-258.0","37FMASSAYDDN59110LQDFDLQGMCIBB","A2YC6PEMIRSOAA","3UDTAB6HH6LRO17U79I9TKUGYFV09C","","682.1999999955297","img/land1.png","76","682.8000000044703","3","1","1","2","0.8,0.2,0.2,0.2,0.8,0.2,0.2,0.2,0.8","0.2,0.8,0.2,0.2,0.2,0.8,0.8,0.2,0.2","3","",""
"","html-keyboard-response","259","113291","0.0-259.0","37FMASSAYDDN59110LQDFDLQGMCIBB","A2YC6PEMIRSOAA","3UDTAB6HH6LRO17U79I9TKUGYFV09C","","null","<img src=""img/land1.png"" style=""width:200px; border:14px solid green;"">","null","","","","","","","","","",""
"","image-keyboard-response","260","113683","0.0-260.0","37FMASSAYDDN59110LQDFDLQGMCIBB","A2YC6PEMIRSOAA","3UDTAB6HH6LRO17U79I9TKUGYFV09C","","390.3999999985099","img/land1.png","76","391","3","0","1","2","0.8,0.2,0.2,0.2,0.8,0.2,0.2,0.2,0.8","0.2,0.8,0.2,0.2,0.2,0.8,0.8,0.2,0.2","3","",""
"","html-keyboard-response","261","113984","0.0-261.0","37FMASSAYDDN59110LQDFDLQGMCIBB","A2YC6PEMIRSOAA","3UDTAB6HH6LRO17U79I9TKUGYFV09C","","null","<img src=""img/land1.png"" style=""width:200px;border:14px solid red;"">","null","","","","","","","","","",""
"","image-keyboard-response","262","114498","0.0-262.0","37FMASSAYDDN59110LQDFDLQGMCIBB","A2YC6PEMIRSOAA","3UDTAB6HH6LRO17U79I9TKUGYFV09C","","513.2000000029802","img/land3.png","75","513.7999999970198","2","0","3","2","0.8,0.2,0.2,0.2,0.8,0.2,0.2,0.2,0.8","0.2,0.8,0.2,0.2,0.2,0.8,0.8,0.2,0.2","3","",""
"","html-keyboard-response","263","114799","0.0-263.0","37FMASSAYDDN59110LQDFDLQGMCIBB","A2YC6PEMIRSOAA","3UDTAB6HH6LRO17U79I9TKUGYFV09C","","null","<img src=""img/land3.png"" style=""width:200px;border:14px solid red;"">","null","","","","","","","","","",""
"","image-keyboard-response","264","115056","0.0-264.0","37FMASSAYDDN59110LQDFDLQGMCIBB","A2YC6PEMIRSOAA","3UDTAB6HH6LRO17U79I9TKUGYFV09C","","255.89999999850988","img/land6.png","74","256.3999999985099","1","0","2","2","0.8,0.2,0.2,0.2,0.8,0.2,0.2,0.2,0.8","0.2,0.8,0.2,0.2,0.2,0.8,0.8,0.2,0.2","3","",""
"","html-keyboard-response","265","115358","0.0-265.0","37FMASSAYDDN59110LQDFDLQGMCIBB","A2YC6PEMIRSOAA","3UDTAB6HH6LRO17U79I9TKUGYFV09C","","null","<img src=""img/land6.png"" style=""width:200px;border:14px solid red;"">","null","","","","","","","","","",""
"","image-keyboard-response","266","116165","0.0-266.0","37FMASSAYDDN59110LQDFDLQGMCIBB","A2YC6PEMIRSOAA","3UDTAB6HH6LRO17U79I9TKUGYFV09C","","806.2999999970198","img/land1.png","75","806.9000000059605","2","0","1","2","0.8,0.2,0.2,0.2,0.8,0.2,0.2,0.2,0.8","0.2,0.8,0.2,0.2,0.2,0.8,0.8,0.2,0.2","3","",""
"","html-keyboard-response","267","116466","0.0-267.0","37FMASSAYDDN59110LQDFDLQGMCIBB","A2YC6PEMIRSOAA","3UDTAB6HH6LRO17U79I9TKUGYFV09C","","null","<img src=""img/land1.png"" style=""width:200px;border:14px solid red;"">","null","","","","","","","","","",""
"","image-keyboard-response","268","116794","0.0-268.0","37FMASSAYDDN59110LQDFDLQGMCIBB","A2YC6PEMIRSOAA","3UDTAB6HH6LRO17U79I9TKUGYFV09C","","327.20000000298023","img/land3.png","76","327.8999999985099","3","0","3","2","0.8,0.2,0.2,0.2,0.8,0.2,0.2,0.2,0.8","0.2,0.8,0.2,0.2,0.2,0.8,0.8,0.2,0.2","3","",""
"","html-keyboard-response","269","117095","0.0-269.0","37FMASSAYDDN59110LQDFDLQGMCIBB","A2YC6PEMIRSOAA","3UDTAB6HH6LRO17U79I9TKUGYFV09C","","null","<img src=""img/land3.png"" style=""width:200px;border:14px solid red;"">","null","","","","","","","","","",""
"","image-keyboard-response","270","117659","0.0-270.0","37FMASSAYDDN59110LQDFDLQGMCIBB","A2YC6PEMIRSOAA","3UDTAB6HH6LRO17U79I9TKUGYFV09C","","563.1000000014901","img/land1.png","74","563.7000000029802","1","0","1","2","0.8,0.2,0.2,0.2,0.8,0.2,0.2,0.2,0.8","0.2,0.8,0.2,0.2,0.2,0.8,0.8,0.2,0.2","3","",""
"","html-keyboard-response","271","117960","0.0-271.0","37FMASSAYDDN59110LQDFDLQGMCIBB","A2YC6PEMIRSOAA","3UDTAB6HH6LRO17U79I9TKUGYFV09C","","null","<img src=""img/land1.png"" style=""width:200px;border:14px solid red;"">","null","","","","","","","","","",""
"","image-keyboard-response","272","118386","0.0-272.0","37FMASSAYDDN59110LQDFDLQGMCIBB","A2YC6PEMIRSOAA","3UDTAB6HH6LRO17U79I9TKUGYFV09C","","425","img/land1.png","74","425.79999999701977","1","0","1","2","0.8,0.2,0.2,0.2,0.8,0.2,0.2,0.2,0.8","0.2,0.8,0.2,0.2,0.2,0.8,0.8,0.2,0.2","3","",""
"","html-keyboard-response","273","118687","0.0-273.0","37FMASSAYDDN59110LQDFDLQGMCIBB","A2YC6PEMIRSOAA","3UDTAB6HH6LRO17U79I9TKUGYFV09C","","null","<img src=""img/land1.png"" style=""width:200px;border:14px solid red;"">","null","","","","","","","","","",""
"","image-keyboard-response","274","118856","0.0-274.0","37FMASSAYDDN59110LQDFDLQGMCIBB","A2YC6PEMIRSOAA","3UDTAB6HH6LRO17U79I9TKUGYFV09C","","168.10000000149012","img/land1.png","75","168.79999999701977","2","1","1","2","0.8,0.2,0.2,0.2,0.8,0.2,0.2,0.2,0.8","0.2,0.8,0.2,0.2,0.2,0.8,0.8,0.2,0.2","3","",""
"","html-keyboard-response","275","119157","0.0-275.0","37FMASSAYDDN59110LQDFDLQGMCIBB","A2YC6PEMIRSOAA","3UDTAB6HH6LRO17U79I9TKUGYFV09C","","null","<img src=""img/land1.png"" style=""width:200px; border:14px solid green;"">","null","","","","","","","","","",""
"","image-keyboard-response","276","119631","0.0-276.0","37FMASSAYDDN59110LQDFDLQGMCIBB","A2YC6PEMIRSOAA","3UDTAB6HH6LRO17U79I9TKUGYFV09C","","473.20000000298023","img/land1.png","75","473.90000000596046","2","1","1","2","0.8,0.2,0.2,0.2,0.8,0.2,0.2,0.2,0.8","0.2,0.8,0.2,0.2,0.2,0.8,0.8,0.2,0.2","3","",""
"","html-keyboard-response","277","119932","0.0-277.0","37FMASSAYDDN59110LQDFDLQGMCIBB","A2YC6PEMIRSOAA","3UDTAB6HH6LRO17U79I9TKUGYFV09C","","null","<img src=""img/land1.png"" style=""width:200px; border:14px solid green;"">","null","","","","","","","","","",""
"","image-keyboard-response","278","120225","0.0-278.0","37FMASSAYDDN59110LQDFDLQGMCIBB","A2YC6PEMIRSOAA","3UDTAB6HH6LRO17U79I9TKUGYFV09C","","292.1000000014901","img/land1.png","75","292.6000000014901","2","1","1","2","0.8,0.2,0.2,0.2,0.8,0.2,0.2,0.2,0.8","0.2,0.8,0.2,0.2,0.2,0.8,0.8,0.2,0.2","3","",""
"","html-keyboard-response","279","120526","0.0-279.0","37FMASSAYDDN59110LQDFDLQGMCIBB","A2YC6PEMIRSOAA","3UDTAB6HH6LRO17U79I9TKUGYFV09C","","null","<img src=""img/land1.png"" style=""width:200px; border:14px solid green;"">","null","","","","","","","","","",""
"","image-keyboard-response","280","120836","0.0-280.0","37FMASSAYDDN59110LQDFDLQGMCIBB","A2YC6PEMIRSOAA","3UDTAB6HH6LRO17U79I9TKUGYFV09C","","309.29999999701977","img/land1.png","75","310","2","1","1","2","0.8,0.2,0.2,0.2,0.8,0.2,0.2,0.2,0.8","0.2,0.8,0.2,0.2,0.2,0.8,0.8,0.2,0.2","3","",""
"","html-keyboard-response","281","121137","0.0-281.0","37FMASSAYDDN59110LQDFDLQGMCIBB","A2YC6PEMIRSOAA","3UDTAB6HH6LRO17U79I9TKUGYFV09C","","null","<img src=""img/land1.png"" style=""width:200px; border:14px solid green;"">","null","","","","","","","","","",""
"","image-keyboard-response","282","121424","0.0-282.0","37FMASSAYDDN59110LQDFDLQGMCIBB","A2YC6PEMIRSOAA","3UDTAB6HH6LRO17U79I9TKUGYFV09C","","286.30000000447035","img/land1.png","75","286.8999999985099","2","1","1","2","0.8,0.2,0.2,0.2,0.8,0.2,0.2,0.2,0.8","0.2,0.8,0.2,0.2,0.2,0.8,0.8,0.2,0.2","3","",""
"","html-keyboard-response","283","121726","0.0-283.0","37FMASSAYDDN59110LQDFDLQGMCIBB","A2YC6PEMIRSOAA","3UDTAB6HH6LRO17U79I9TKUGYFV09C","","null","<img src=""img/land1.png"" style=""width:200px; border:14px solid green;"">","null","","","","","","","","","",""
"","image-keyboard-response","284","122440","0.0-284.0","37FMASSAYDDN59110LQDFDLQGMCIBB","A2YC6PEMIRSOAA","3UDTAB6HH6LRO17U79I9TKUGYFV09C","","713.7999999970198","img/land6.png","76","714.3000000044703","3","1","2","2","0.8,0.2,0.2,0.2,0.8,0.2,0.2,0.2,0.8","0.2,0.8,0.2,0.2,0.2,0.8,0.8,0.2,0.2","3","",""
"","html-keyboard-response","285","122741","0.0-285.0","37FMASSAYDDN59110LQDFDLQGMCIBB","A2YC6PEMIRSOAA","3UDTAB6HH6LRO17U79I9TKUGYFV09C","","null","<img src=""img/land6.png"" style=""width:200px; border:14px solid green;"">","null","","","","","","","","","",""
"","image-keyboard-response","286","123066","0.0-286.0","37FMASSAYDDN59110LQDFDLQGMCIBB","A2YC6PEMIRSOAA","3UDTAB6HH6LRO17U79I9TKUGYFV09C","","324.20000000298023","img/land1.png","76","324.8999999985099","3","0","1","2","0.8,0.2,0.2,0.2,0.8,0.2,0.2,0.2,0.8","0.2,0.8,0.2,0.2,0.2,0.8,0.8,0.2,0.2","3","",""
"","html-keyboard-response","287","123368","0.0-287.0","37FMASSAYDDN59110LQDFDLQGMCIBB","A2YC6PEMIRSOAA","3UDTAB6HH6LRO17U79I9TKUGYFV09C","","null","<img src=""img/land1.png"" style=""width:200px;border:14px solid red;"">","null","","","","","","","","","",""
"","image-keyboard-response","288","124351","0.0-288.0","37FMASSAYDDN59110LQDFDLQGMCIBB","A2YC6PEMIRSOAA","3UDTAB6HH6LRO17U79I9TKUGYFV09C","","982.3000000044703","img/land1.png","75","983.1000000014901","2","1","1","2","0.8,0.2,0.2,0.2,0.8,0.2,0.2,0.2,0.8","0.2,0.8,0.2,0.2,0.2,0.8,0.8,0.2,0.2","3","",""
"","html-keyboard-response","289","124653","0.0-289.0","37FMASSAYDDN59110LQDFDLQGMCIBB","A2YC6PEMIRSOAA","3UDTAB6HH6LRO17U79I9TKUGYFV09C","","null","<img src=""img/land1.png"" style=""width:200px; border:14px solid green;"">","null","","","","","","","","","",""
"","image-keyboard-response","290","124982","0.0-290.0","37FMASSAYDDN59110LQDFDLQGMCIBB","A2YC6PEMIRSOAA","3UDTAB6HH6LRO17U79I9TKUGYFV09C","","328.5","img/land3.png","75","329.1000000014901","2","0","3","2","0.8,0.2,0.2,0.2,0.8,0.2,0.2,0.2,0.8","0.2,0.8,0.2,0.2,0.2,0.8,0.8,0.2,0.2","3","",""
"","html-keyboard-response","291","125283","0.0-291.0","37FMASSAYDDN59110LQDFDLQGMCIBB","A2YC6PEMIRSOAA","3UDTAB6HH6LRO17U79I9TKUGYFV09C","","null","<img src=""img/land3.png"" style=""width:200px;border:14px solid red;"">","null","","","","","","","","","",""
"","image-keyboard-response","292","125578","0.0-292.0","37FMASSAYDDN59110LQDFDLQGMCIBB","A2YC6PEMIRSOAA","3UDTAB6HH6LRO17U79I9TKUGYFV09C","","294.1000000014901","img/land3.png","74","294.80000000447035","1","1","3","2","0.8,0.2,0.2,0.2,0.8,0.2,0.2,0.2,0.8","0.2,0.8,0.2,0.2,0.2,0.8,0.8,0.2,0.2","3","",""
"","html-keyboard-response","293","125880","0.0-293.0","37FMASSAYDDN59110LQDFDLQGMCIBB","A2YC6PEMIRSOAA","3UDTAB6HH6LRO17U79I9TKUGYFV09C","","null","<img src=""img/land3.png"" style=""width:200px; border:14px solid green;"">","null","","","","","","","","","",""
"","image-keyboard-response","294","126098","0.0-294.0","37FMASSAYDDN59110LQDFDLQGMCIBB","A2YC6PEMIRSOAA","3UDTAB6HH6LRO17U79I9TKUGYFV09C","","217.5","img/land1.png","74","218.10000000149012","1","0","1","2","0.8,0.2,0.2,0.2,0.8,0.2,0.2,0.2,0.8","0.2,0.8,0.2,0.2,0.2,0.8,0.8,0.2,0.2","3","",""
"","html-keyboard-response","295","126399","0.0-295.0","37FMASSAYDDN59110LQDFDLQGMCIBB","A2YC6PEMIRSOAA","3UDTAB6HH6LRO17U79I9TKUGYFV09C","","null","<img src=""img/land1.png"" style=""width:200px;border:14px solid red;"">","null","","","","","","","","","",""
"","image-keyboard-response","296","126833","0.0-296.0","37FMASSAYDDN59110LQDFDLQGMCIBB","A2YC6PEMIRSOAA","3UDTAB6HH6LRO17U79I9TKUGYFV09C","","432.79999999701977","img/land1.png","75","433.3999999985099","2","1","1","2","0.8,0.2,0.2,0.2,0.8,0.2,0.2,0.2,0.8","0.2,0.8,0.2,0.2,0.2,0.8,0.8,0.2,0.2","3","",""
"","html-keyboard-response","297","127134","0.0-297.0","37FMASSAYDDN59110LQDFDLQGMCIBB","A2YC6PEMIRSOAA","3UDTAB6HH6LRO17U79I9TKUGYFV09C","","null","<img src=""img/land1.png"" style=""width:200px; border:14px solid green;"">","null","","","","","","","","","",""
"","image-keyboard-response","298","127719","0.0-298.0","37FMASSAYDDN59110LQDFDLQGMCIBB","A2YC6PEMIRSOAA","3UDTAB6HH6LRO17U79I9TKUGYFV09C","","583.7999999970198","img/land3.png","75","584.4000000059605","2","1","3","2","0.8,0.2,0.2,0.2,0.8,0.2,0.2,0.2,0.8","0.2,0.8,0.2,0.2,0.2,0.8,0.8,0.2,0.2","3","",""
"","html-keyboard-response","299","128019","0.0-299.0","37FMASSAYDDN59110LQDFDLQGMCIBB","A2YC6PEMIRSOAA","3UDTAB6HH6LRO17U79I9TKUGYFV09C","","null","<img src=""img/land3.png"" style=""width:200px; border:14px solid green;"">","null","","","","","","","","","",""
"","image-keyboard-response","300","128158","0.0-300.0","37FMASSAYDDN59110LQDFDLQGMCIBB","A2YC6PEMIRSOAA","3UDTAB6HH6LRO17U79I9TKUGYFV09C","","137.39999999850988","img/land6.png","75","138","2","0","2","2","0.8,0.2,0.2,0.2,0.8,0.2,0.2,0.2,0.8","0.2,0.8,0.2,0.2,0.2,0.8,0.8,0.2,0.2","3","",""
"","html-keyboard-response","301","128471","0.0-301.0","37FMASSAYDDN59110LQDFDLQGMCIBB","A2YC6PEMIRSOAA","3UDTAB6HH6LRO17U79I9TKUGYFV09C","","null","<img src=""img/land6.png"" style=""width:200px;border:14px solid red;"">","null","","","","","","","","","",""
"","image-keyboard-response","302","129058","0.0-302.0","37FMASSAYDDN59110LQDFDLQGMCIBB","A2YC6PEMIRSOAA","3UDTAB6HH6LRO17U79I9TKUGYFV09C","","585.8999999985099","img/land5.png","74","586.5999999940395","1","0","3","1","0.8,0.2,0.2,0.2,0.8,0.2,0.2,0.2,0.8","0.8,0.2,0.2,0.2,0.8,0.2,0.2,0.2,0.8","1","",""
"","html-keyboard-response","303","129359","0.0-303.0","37FMASSAYDDN59110LQDFDLQGMCIBB","A2YC6PEMIRSOAA","3UDTAB6HH6LRO17U79I9TKUGYFV09C","","null","<img src=""img/land5.png"" style=""width:200px;border:14px solid red;"">","null","","","","","","","","","",""
"","image-keyboard-response","304","129819","0.0-304.0","37FMASSAYDDN59110LQDFDLQGMCIBB","A2YC6PEMIRSOAA","3UDTAB6HH6LRO17U79I9TKUGYFV09C","","458.8999999985099","img/land2.png","76","459.6000000014901","3","0","1","1","0.8,0.2,0.2,0.2,0.8,0.2,0.2,0.2,0.8","0.8,0.2,0.2,0.2,0.8,0.2,0.2,0.2,0.8","1","",""
"","html-keyboard-response","305","130120","0.0-305.0","37FMASSAYDDN59110LQDFDLQGMCIBB","A2YC6PEMIRSOAA","3UDTAB6HH6LRO17U79I9TKUGYFV09C","","null","<img src=""img/land2.png"" style=""width:200px;border:14px solid red;"">","null","","","","","","","","","",""
"","image-keyboard-response","306","131001","0.0-306.0","37FMASSAYDDN59110LQDFDLQGMCIBB","A2YC6PEMIRSOAA","3UDTAB6HH6LRO17U79I9TKUGYFV09C","","880.4000000059605","img/land4.png","75","880.8999999985099","2","1","2","1","0.8,0.2,0.2,0.2,0.8,0.2,0.2,0.2,0.8","0.8,0.2,0.2,0.2,0.8,0.2,0.2,0.2,0.8","1","",""
"","html-keyboard-response","307","131303","0.0-307.0","37FMASSAYDDN59110LQDFDLQGMCIBB","A2YC6PEMIRSOAA","3UDTAB6HH6LRO17U79I9TKUGYFV09C","","null","<img src=""img/land4.png"" style=""width:200px; border:14px solid green;"">","null","","","","","","","","","",""
"","image-keyboard-response","308","132261","0.0-308.0","37FMASSAYDDN59110LQDFDLQGMCIBB","A2YC6PEMIRSOAA","3UDTAB6HH6LRO17U79I9TKUGYFV09C","","958.0999999940395","img/land2.png","75","958.5","2","0","1","1","0.8,0.2,0.2,0.2,0.8,0.2,0.2,0.2,0.8","0.8,0.2,0.2,0.2,0.8,0.2,0.2,0.2,0.8","1","",""
"","html-keyboard-response","309","132563","0.0-309.0","37FMASSAYDDN59110LQDFDLQGMCIBB","A2YC6PEMIRSOAA","3UDTAB6HH6LRO17U79I9TKUGYFV09C","","null","<img src=""img/land2.png"" style=""width:200px;border:14px solid red;"">","null","","","","","","","","","",""
"","image-keyboard-response","310","133451","0.0-310.0","37FMASSAYDDN59110LQDFDLQGMCIBB","A2YC6PEMIRSOAA","3UDTAB6HH6LRO17U79I9TKUGYFV09C","","887.1000000014901","img/land5.png","74","887.7000000029802","1","1","3","1","0.8,0.2,0.2,0.2,0.8,0.2,0.2,0.2,0.8","0.8,0.2,0.2,0.2,0.8,0.2,0.2,0.2,0.8","1","",""
"","html-keyboard-response","311","133752","0.0-311.0","37FMASSAYDDN59110LQDFDLQGMCIBB","A2YC6PEMIRSOAA","3UDTAB6HH6LRO17U79I9TKUGYFV09C","","null","<img src=""img/land5.png"" style=""width:200px; border:14px solid green;"">","null","","","","","","","","","",""
"","image-keyboard-response","312","134109","0.0-312.0","37FMASSAYDDN59110LQDFDLQGMCIBB","A2YC6PEMIRSOAA","3UDTAB6HH6LRO17U79I9TKUGYFV09C","","355.8999999985099","img/land4.png","74","356.29999999701977","1","0","2","1","0.8,0.2,0.2,0.2,0.8,0.2,0.2,0.2,0.8","0.8,0.2,0.2,0.2,0.8,0.2,0.2,0.2,0.8","1","",""
"","html-keyboard-response","313","134409","0.0-313.0","37FMASSAYDDN59110LQDFDLQGMCIBB","A2YC6PEMIRSOAA","3UDTAB6HH6LRO17U79I9TKUGYFV09C","","null","<img src=""img/land4.png"" style=""width:200px;border:14px solid red;"">","null","","","","","","","","","",""
"","image-keyboard-response","314","134940","0.0-314.0","37FMASSAYDDN59110LQDFDLQGMCIBB","A2YC6PEMIRSOAA","3UDTAB6HH6LRO17U79I9TKUGYFV09C","","529.6000000014901","img/land5.png","74","530.2999999970198","1","0","3","1","0.8,0.2,0.2,0.2,0.8,0.2,0.2,0.2,0.8","0.8,0.2,0.2,0.2,0.8,0.2,0.2,0.2,0.8","1","",""
"","html-keyboard-response","315","135242","0.0-315.0","37FMASSAYDDN59110LQDFDLQGMCIBB","A2YC6PEMIRSOAA","3UDTAB6HH6LRO17U79I9TKUGYFV09C","","null","<img src=""img/land5.png"" style=""width:200px;border:14px solid red;"">","null","","","","","","","","","",""
"","image-keyboard-response","316","135714","0.0-316.0","37FMASSAYDDN59110LQDFDLQGMCIBB","A2YC6PEMIRSOAA","3UDTAB6HH6LRO17U79I9TKUGYFV09C","","471.20000000298023","img/land5.png","75","471.79999999701977","2","1","3","1","0.8,0.2,0.2,0.2,0.8,0.2,0.2,0.2,0.8","0.8,0.2,0.2,0.2,0.8,0.2,0.2,0.2,0.8","1","",""
"","html-keyboard-response","317","136015","0.0-317.0","37FMASSAYDDN59110LQDFDLQGMCIBB","A2YC6PEMIRSOAA","3UDTAB6HH6LRO17U79I9TKUGYFV09C","","null","<img src=""img/land5.png"" style=""width:200px; border:14px solid green;"">","null","","","","","","","","","",""
"","image-keyboard-response","318","136468","0.0-318.0","37FMASSAYDDN59110LQDFDLQGMCIBB","A2YC6PEMIRSOAA","3UDTAB6HH6LRO17U79I9TKUGYFV09C","","452.79999999701977","img/land5.png","75","453.30000000447035","2","0","3","1","0.8,0.2,0.2,0.2,0.8,0.2,0.2,0.2,0.8","0.8,0.2,0.2,0.2,0.8,0.2,0.2,0.2,0.8","1","",""
"","html-keyboard-response","319","136770","0.0-319.0","37FMASSAYDDN59110LQDFDLQGMCIBB","A2YC6PEMIRSOAA","3UDTAB6HH6LRO17U79I9TKUGYFV09C","","null","<img src=""img/land5.png"" style=""width:200px;border:14px solid red;"">","null","","","","","","","","","",""
"","image-keyboard-response","320","137177","0.0-320.0","37FMASSAYDDN59110LQDFDLQGMCIBB","A2YC6PEMIRSOAA","3UDTAB6HH6LRO17U79I9TKUGYFV09C","","406.1000000014901","img/land5.png","76","406.79999999701977","3","1","3","1","0.8,0.2,0.2,0.2,0.8,0.2,0.2,0.2,0.8","0.8,0.2,0.2,0.2,0.8,0.2,0.2,0.2,0.8","1","",""
"","html-keyboard-response","321","137479","0.0-321.0","37FMASSAYDDN59110LQDFDLQGMCIBB","A2YC6PEMIRSOAA","3UDTAB6HH6LRO17U79I9TKUGYFV09C","","null","<img src=""img/land5.png"" style=""width:200px; border:14px solid green;"">","null","","","","","","","","","",""
"","image-keyboard-response","322","138466","0.0-322.0","37FMASSAYDDN59110LQDFDLQGMCIBB","A2YC6PEMIRSOAA","3UDTAB6HH6LRO17U79I9TKUGYFV09C","","987","img/land5.png","76","987.7999999970198","3","0","3","1","0.8,0.2,0.2,0.2,0.8,0.2,0.2,0.2,0.8","0.8,0.2,0.2,0.2,0.8,0.2,0.2,0.2,0.8","1","",""
"","html-keyboard-response","323","138769","0.0-323.0","37FMASSAYDDN59110LQDFDLQGMCIBB","A2YC6PEMIRSOAA","3UDTAB6HH6LRO17U79I9TKUGYFV09C","","null","<img src=""img/land5.png"" style=""width:200px;border:14px solid red;"">","null","","","","","","","","","",""
"","image-keyboard-response","324","138972","0.0-324.0","37FMASSAYDDN59110LQDFDLQGMCIBB","A2YC6PEMIRSOAA","3UDTAB6HH6LRO17U79I9TKUGYFV09C","","202.39999999850988","img/land2.png","75","203.19999999552965","2","1","1","1","0.8,0.2,0.2,0.2,0.8,0.2,0.2,0.2,0.8","0.8,0.2,0.2,0.2,0.8,0.2,0.2,0.2,0.8","1","",""
"","html-keyboard-response","325","139274","0.0-325.0","37FMASSAYDDN59110LQDFDLQGMCIBB","A2YC6PEMIRSOAA","3UDTAB6HH6LRO17U79I9TKUGYFV09C","","null","<img src=""img/land2.png"" style=""width:200px; border:14px solid green;"">","null","","","","","","","","","",""
"","image-keyboard-response","326","139576","0.0-326.0","37FMASSAYDDN59110LQDFDLQGMCIBB","A2YC6PEMIRSOAA","3UDTAB6HH6LRO17U79I9TKUGYFV09C","","302.19999999552965","img/land2.png","75","302.6000000014901","2","0","1","1","0.8,0.2,0.2,0.2,0.8,0.2,0.2,0.2,0.8","0.8,0.2,0.2,0.2,0.8,0.2,0.2,0.2,0.8","1","",""
"","html-keyboard-response","327","139879","0.0-327.0","37FMASSAYDDN59110LQDFDLQGMCIBB","A2YC6PEMIRSOAA","3UDTAB6HH6LRO17U79I9TKUGYFV09C","","null","<img src=""img/land2.png"" style=""width:200px;border:14px solid red;"">","null","","","","","","","","","",""
"","image-keyboard-response","328","140251","0.0-328.0","37FMASSAYDDN59110LQDFDLQGMCIBB","A2YC6PEMIRSOAA","3UDTAB6HH6LRO17U79I9TKUGYFV09C","","371.09999999403954","img/land4.png","74","371.70000000298023","1","0","2","1","0.8,0.2,0.2,0.2,0.8,0.2,0.2,0.2,0.8","0.8,0.2,0.2,0.2,0.8,0.2,0.2,0.2,0.8","1","",""
"","html-keyboard-response","329","140552","0.0-329.0","37FMASSAYDDN59110LQDFDLQGMCIBB","A2YC6PEMIRSOAA","3UDTAB6HH6LRO17U79I9TKUGYFV09C","","null","<img src=""img/land4.png"" style=""width:200px;border:14px solid red;"">","null","","","","","","","","","",""
"","image-keyboard-response","330","140936","0.0-330.0","37FMASSAYDDN59110LQDFDLQGMCIBB","A2YC6PEMIRSOAA","3UDTAB6HH6LRO17U79I9TKUGYFV09C","","382.19999999552965","img/land2.png","76","382.8999999985099","3","0","1","1","0.8,0.2,0.2,0.2,0.8,0.2,0.2,0.2,0.8","0.8,0.2,0.2,0.2,0.8,0.2,0.2,0.2,0.8","1","",""
"","html-keyboard-response","331","141237","0.0-331.0","37FMASSAYDDN59110LQDFDLQGMCIBB","A2YC6PEMIRSOAA","3UDTAB6HH6LRO17U79I9TKUGYFV09C","","null","<img src=""img/land2.png"" style=""width:200px;border:14px solid red;"">","null","","","","","","","","","",""
"","image-keyboard-response","332","141478","0.0-332.0","37FMASSAYDDN59110LQDFDLQGMCIBB","A2YC6PEMIRSOAA","3UDTAB6HH6LRO17U79I9TKUGYFV09C","","239.60000000149012","img/land4.png","75","240.29999999701977","2","1","2","1","0.8,0.2,0.2,0.2,0.8,0.2,0.2,0.2,0.8","0.8,0.2,0.2,0.2,0.8,0.2,0.2,0.2,0.8","1","",""
"","html-keyboard-response","333","141779","0.0-333.0","37FMASSAYDDN59110LQDFDLQGMCIBB","A2YC6PEMIRSOAA","3UDTAB6HH6LRO17U79I9TKUGYFV09C","","null","<img src=""img/land4.png"" style=""width:200px; border:14px solid green;"">","null","","","","","","","","","",""
"","image-keyboard-response","334","142198","0.0-334.0","37FMASSAYDDN59110LQDFDLQGMCIBB","A2YC6PEMIRSOAA","3UDTAB6HH6LRO17U79I9TKUGYFV09C","","418.29999999701977","img/land2.png","75","418.80000000447035","2","0","1","1","0.8,0.2,0.2,0.2,0.8,0.2,0.2,0.2,0.8","0.8,0.2,0.2,0.2,0.8,0.2,0.2,0.2,0.8","1","",""
"","html-keyboard-response","335","142499","0.0-335.0","37FMASSAYDDN59110LQDFDLQGMCIBB","A2YC6PEMIRSOAA","3UDTAB6HH6LRO17U79I9TKUGYFV09C","","null","<img src=""img/land2.png"" style=""width:200px;border:14px solid red;"">","null","","","","","","","","","",""
"","image-keyboard-response","336","143011","0.0-336.0","37FMASSAYDDN59110LQDFDLQGMCIBB","A2YC6PEMIRSOAA","3UDTAB6HH6LRO17U79I9TKUGYFV09C","","510.69999999552965","img/land4.png","74","511.3999999985099","1","0","2","1","0.8,0.2,0.2,0.2,0.8,0.2,0.2,0.2,0.8","0.8,0.2,0.2,0.2,0.8,0.2,0.2,0.2,0.8","1","",""
"","html-keyboard-response","337","143312","0.0-337.0","37FMASSAYDDN59110LQDFDLQGMCIBB","A2YC6PEMIRSOAA","3UDTAB6HH6LRO17U79I9TKUGYFV09C","","null","<img src=""img/land4.png"" style=""width:200px;border:14px solid red;"">","null","","","","","","","","","",""
"","image-keyboard-response","338","144948","0.0-338.0","37FMASSAYDDN59110LQDFDLQGMCIBB","A2YC6PEMIRSOAA","3UDTAB6HH6LRO17U79I9TKUGYFV09C","","1635.4000000059605","img/land5.png","74","1636.1000000014901","1","0","3","1","0.8,0.2,0.2,0.2,0.8,0.2,0.2,0.2,0.8","0.8,0.2,0.2,0.2,0.8,0.2,0.2,0.2,0.8","1","",""
"","html-keyboard-response","339","145250","0.0-339.0","37FMASSAYDDN59110LQDFDLQGMCIBB","A2YC6PEMIRSOAA","3UDTAB6HH6LRO17U79I9TKUGYFV09C","","null","<img src=""img/land5.png"" style=""width:200px;border:14px solid red;"">","null","","","","","","","","","",""
"","image-keyboard-response","340","145845","0.0-340.0","37FMASSAYDDN59110LQDFDLQGMCIBB","A2YC6PEMIRSOAA","3UDTAB6HH6LRO17U79I9TKUGYFV09C","","594.1000000014901","img/land5.png","76","594.5999999940395","3","0","3","1","0.8,0.2,0.2,0.2,0.8,0.2,0.2,0.2,0.8","0.8,0.2,0.2,0.2,0.8,0.2,0.2,0.2,0.8","1","",""
"","html-keyboard-response","341","146146","0.0-341.0","37FMASSAYDDN59110LQDFDLQGMCIBB","A2YC6PEMIRSOAA","3UDTAB6HH6LRO17U79I9TKUGYFV09C","","null","<img src=""img/land5.png"" style=""width:200px;border:14px solid red;"">","null","","","","","","","","","",""
"","image-keyboard-response","342","146418","0.0-342.0","37FMASSAYDDN59110LQDFDLQGMCIBB","A2YC6PEMIRSOAA","3UDTAB6HH6LRO17U79I9TKUGYFV09C","","271.8999999985099","img/land5.png","75","272.6000000014901","2","1","3","1","0.8,0.2,0.2,0.2,0.8,0.2,0.2,0.2,0.8","0.8,0.2,0.2,0.2,0.8,0.2,0.2,0.2,0.8","1","",""
"","html-keyboard-response","343","146719","0.0-343.0","37FMASSAYDDN59110LQDFDLQGMCIBB","A2YC6PEMIRSOAA","3UDTAB6HH6LRO17U79I9TKUGYFV09C","","null","<img src=""img/land5.png"" style=""width:200px; border:14px solid green;"">","null","","","","","","","","","",""
"","image-keyboard-response","344","147976","0.0-344.0","37FMASSAYDDN59110LQDFDLQGMCIBB","A2YC6PEMIRSOAA","3UDTAB6HH6LRO17U79I9TKUGYFV09C","","1255.6000000014901","img/land2.png","76","1256.2000000029802","3","0","1","1","0.8,0.2,0.2,0.2,0.8,0.2,0.2,0.2,0.8","0.8,0.2,0.2,0.2,0.8,0.2,0.2,0.2,0.8","1","",""
"","html-keyboard-response","345","148277","0.0-345.0","37FMASSAYDDN59110LQDFDLQGMCIBB","A2YC6PEMIRSOAA","3UDTAB6HH6LRO17U79I9TKUGYFV09C","","null","<img src=""img/land2.png"" style=""width:200px;border:14px solid red;"">","null","","","","","","","","","",""
"","image-keyboard-response","346","148723","0.0-346.0","37FMASSAYDDN59110LQDFDLQGMCIBB","A2YC6PEMIRSOAA","3UDTAB6HH6LRO17U79I9TKUGYFV09C","","445.29999999701977","img/land5.png","74","445.8999999985099","1","1","3","1","0.8,0.2,0.2,0.2,0.8,0.2,0.2,0.2,0.8","0.8,0.2,0.2,0.2,0.8,0.2,0.2,0.2,0.8","1","",""
"","html-keyboard-response","347","149025","0.0-347.0","37FMASSAYDDN59110LQDFDLQGMCIBB","A2YC6PEMIRSOAA","3UDTAB6HH6LRO17U79I9TKUGYFV09C","","null","<img src=""img/land5.png"" style=""width:200px; border:14px solid green;"">","null","","","","","","","","","",""
"","image-keyboard-response","348","149545","0.0-348.0","37FMASSAYDDN59110LQDFDLQGMCIBB","A2YC6PEMIRSOAA","3UDTAB6HH6LRO17U79I9TKUGYFV09C","","519.5","img/land4.png","74","520.2000000029802","1","0","2","1","0.8,0.2,0.2,0.2,0.8,0.2,0.2,0.2,0.8","0.8,0.2,0.2,0.2,0.8,0.2,0.2,0.2,0.8","1","",""
"","html-keyboard-response","349","149847","0.0-349.0","37FMASSAYDDN59110LQDFDLQGMCIBB","A2YC6PEMIRSOAA","3UDTAB6HH6LRO17U79I9TKUGYFV09C","","null","<img src=""img/land4.png"" style=""width:200px;border:14px solid red;"">","null","","","","","","","","","",""
"","image-keyboard-response","350","150279","0.0-350.0","37FMASSAYDDN59110LQDFDLQGMCIBB","A2YC6PEMIRSOAA","3UDTAB6HH6LRO17U79I9TKUGYFV09C","","431.59999999403954","img/land4.png","75","432.20000000298023","2","1","2","1","0.8,0.2,0.2,0.2,0.8,0.2,0.2,0.2,0.8","0.8,0.2,0.2,0.2,0.8,0.2,0.2,0.2,0.8","1","",""
"","html-keyboard-response","351","150580","0.0-351.0","37FMASSAYDDN59110LQDFDLQGMCIBB","A2YC6PEMIRSOAA","3UDTAB6HH6LRO17U79I9TKUGYFV09C","","null","<img src=""img/land4.png"" style=""width:200px; border:14px solid green;"">","null","","","","","","","","","",""
"","image-keyboard-response","352","151062","0.0-352.0","37FMASSAYDDN59110LQDFDLQGMCIBB","A2YC6PEMIRSOAA","3UDTAB6HH6LRO17U79I9TKUGYFV09C","","480.59999999403954","img/land4.png","75","481.1000000014901","2","0","2","1","0.8,0.2,0.2,0.2,0.8,0.2,0.2,0.2,0.8","0.8,0.2,0.2,0.2,0.8,0.2,0.2,0.2,0.8","1","",""
"","html-keyboard-response","353","151363","0.0-353.0","37FMASSAYDDN59110LQDFDLQGMCIBB","A2YC6PEMIRSOAA","3UDTAB6HH6LRO17U79I9TKUGYFV09C","","null","<img src=""img/land4.png"" style=""width:200px;border:14px solid red;"">","null","","","","","","","","","",""
"","image-keyboard-response","354","151819","0.0-354.0","37FMASSAYDDN59110LQDFDLQGMCIBB","A2YC6PEMIRSOAA","3UDTAB6HH6LRO17U79I9TKUGYFV09C","","455.3999999985099","img/land4.png","74","456.1000000014901","1","0","2","1","0.8,0.2,0.2,0.2,0.8,0.2,0.2,0.2,0.8","0.8,0.2,0.2,0.2,0.8,0.2,0.2,0.2,0.8","1","",""
