"success","trial_type","trial_index","time_elapsed","internal_node_id","assignmentID","mturkID","hitID","view_history","rt","stimulus","key_press","reactionTime","a","r","s","cond","reward_cond","reward_cond_actual","reward_matrix_idx","responses","question_order"
"true","fullscreen","0","61752","0.0-0.0","3LWJHTCVCD8QZO10IVHI753XLHCFQT","A2Z6NL0CTXY0ZB","3JGHED38EDDK7DFM0KVY7GXUF1ZY7A","","","","","","","","","","","","","",""
"","instructions","1","72546","0.0-1.0","3LWJHTCVCD8QZO10IVHI753XLHCFQT","A2Z6NL0CTXY0ZB","3JGHED38EDDK7DFM0KVY7GXUF1ZY7A","[{""page_index"":0,""viewing_time"":1495},{""page_index"":1,""viewing_time"":897},{""page_index"":2,""viewing_time"":547},{""page_index"":3,""viewing_time"":2323},{""page_index"":4,""viewing_time"":2189},{""page_index"":5,""viewing_time"":1859},{""page_index"":6,""viewing_time"":1477}]","10789","","","","","","","","","","","",""
"","image-keyboard-response","2","73134","0.0-2.0","3LWJHTCVCD8QZO10IVHI753XLHCFQT","A2Z6NL0CTXY0ZB","3JGHED38EDDK7DFM0KVY7GXUF1ZY7A","","583","img/land1.png","74","587","1","1","1","2","1,0,0,0.25,0.5,0.25,0.25,0.25,0.5","1,0,0,0.25,0.5,0.25,0.25,0.25,0.5","1","",""
"","html-keyboard-response","3","73496","0.0-3.0","3LWJHTCVCD8QZO10IVHI753XLHCFQT","A2Z6NL0CTXY0ZB","3JGHED38EDDK7DFM0KVY7GXUF1ZY7A","","null","<img src=""img/land1.png"" style=""width:200px; border:14px solid green;"">","null","","","","","","","","","",""
"","image-keyboard-response","4","74685","0.0-4.0","3LWJHTCVCD8QZO10IVHI753XLHCFQT","A2Z6NL0CTXY0ZB","3JGHED38EDDK7DFM0KVY7GXUF1ZY7A","","1187","img/land1.png","74","1188","1","1","1","2","1,0,0,0.25,0.5,0.25,0.25,0.25,0.5","1,0,0,0.25,0.5,0.25,0.25,0.25,0.5","1","",""
"","html-keyboard-response","5","75081","0.0-5.0","3LWJHTCVCD8QZO10IVHI753XLHCFQT","A2Z6NL0CTXY0ZB","3JGHED38EDDK7DFM0KVY7GXUF1ZY7A","","null","<img src=""img/land1.png"" style=""width:200px; border:14px solid green;"">","null","","","","","","","","","",""
"","image-keyboard-response","6","75918","0.0-6.0","3LWJHTCVCD8QZO10IVHI753XLHCFQT","A2Z6NL0CTXY0ZB","3JGHED38EDDK7DFM0KVY7GXUF1ZY7A","","835","img/land1.png","74","837","1","1","1","2","1,0,0,0.25,0.5,0.25,0.25,0.25,0.5","1,0,0,0.25,0.5,0.25,0.25,0.25,0.5","1","",""
"","html-keyboard-response","7","76281","0.0-7.0","3LWJHTCVCD8QZO10IVHI753XLHCFQT","A2Z6NL0CTXY0ZB","3JGHED38EDDK7DFM0KVY7GXUF1ZY7A","","null","<img src=""img/land1.png"" style=""width:200px; border:14px solid green;"">","null","","","","","","","","","",""
"","image-keyboard-response","8","77055","0.0-8.0","3LWJHTCVCD8QZO10IVHI753XLHCFQT","A2Z6NL0CTXY0ZB","3JGHED38EDDK7DFM0KVY7GXUF1ZY7A","","772","img/land1.png","74","774","1","1","1","2","1,0,0,0.25,0.5,0.25,0.25,0.25,0.5","1,0,0,0.25,0.5,0.25,0.25,0.25,0.5","1","",""
"","html-keyboard-response","9","77394","0.0-9.0","3LWJHTCVCD8QZO10IVHI753XLHCFQT","A2Z6NL0CTXY0ZB","3JGHED38EDDK7DFM0KVY7GXUF1ZY7A","","null","<img src=""img/land1.png"" style=""width:200px; border:14px solid green;"">","null","","","","","","","","","",""
"","image-keyboard-response","10","78277","0.0-10.0","3LWJHTCVCD8QZO10IVHI753XLHCFQT","A2Z6NL0CTXY0ZB","3JGHED38EDDK7DFM0KVY7GXUF1ZY7A","","881","img/land2.png","75","883","2","1","2","2","1,0,0,0.25,0.5,0.25,0.25,0.25,0.5","1,0,0,0.25,0.5,0.25,0.25,0.25,0.5","1","",""
"","html-keyboard-response","11","78578","0.0-11.0","3LWJHTCVCD8QZO10IVHI753XLHCFQT","A2Z6NL0CTXY0ZB","3JGHED38EDDK7DFM0KVY7GXUF1ZY7A","","null","<img src=""img/land2.png"" style=""width:200px; border:14px solid green;"">","null","","","","","","","","","",""
"","image-keyboard-response","12","79285","0.0-12.0","3LWJHTCVCD8QZO10IVHI753XLHCFQT","A2Z6NL0CTXY0ZB","3JGHED38EDDK7DFM0KVY7GXUF1ZY7A","","703","img/land3.png","76","706","3","0","3","2","1,0,0,0.25,0.5,0.25,0.25,0.25,0.5","1,0,0,0.25,0.5,0.25,0.25,0.25,0.5","1","",""
"","html-keyboard-response","13","79587","0.0-13.0","3LWJHTCVCD8QZO10IVHI753XLHCFQT","A2Z6NL0CTXY0ZB","3JGHED38EDDK7DFM0KVY7GXUF1ZY7A","","null","<img src=""img/land3.png"" style=""width:200px;border:14px solid red;"">","null","","","","","","","","","",""
"","image-keyboard-response","14","80613","0.0-14.0","3LWJHTCVCD8QZO10IVHI753XLHCFQT","A2Z6NL0CTXY0ZB","3JGHED38EDDK7DFM0KVY7GXUF1ZY7A","","1024","img/land1.png","74","1026","1","1","1","2","1,0,0,0.25,0.5,0.25,0.25,0.25,0.5","1,0,0,0.25,0.5,0.25,0.25,0.25,0.5","1","",""
"","html-keyboard-response","15","80916","0.0-15.0","3LWJHTCVCD8QZO10IVHI753XLHCFQT","A2Z6NL0CTXY0ZB","3JGHED38EDDK7DFM0KVY7GXUF1ZY7A","","null","<img src=""img/land1.png"" style=""width:200px; border:14px solid green;"">","null","","","","","","","","","",""
"","image-keyboard-response","16","81600","0.0-16.0","3LWJHTCVCD8QZO10IVHI753XLHCFQT","A2Z6NL0CTXY0ZB","3JGHED38EDDK7DFM0KVY7GXUF1ZY7A","","683","img/land1.png","74","684","1","1","1","2","1,0,0,0.25,0.5,0.25,0.25,0.25,0.5","1,0,0,0.25,0.5,0.25,0.25,0.25,0.5","1","",""
"","html-keyboard-response","17","81909","0.0-17.0","3LWJHTCVCD8QZO10IVHI753XLHCFQT","A2Z6NL0CTXY0ZB","3JGHED38EDDK7DFM0KVY7GXUF1ZY7A","","null","<img src=""img/land1.png"" style=""width:200px; border:14px solid green;"">","null","","","","","","","","","",""
"","image-keyboard-response","18","82364","0.0-18.0","3LWJHTCVCD8QZO10IVHI753XLHCFQT","A2Z6NL0CTXY0ZB","3JGHED38EDDK7DFM0KVY7GXUF1ZY7A","","454","img/land1.png","74","455","1","1","1","2","1,0,0,0.25,0.5,0.25,0.25,0.25,0.5","1,0,0,0.25,0.5,0.25,0.25,0.25,0.5","1","",""
"","html-keyboard-response","19","82668","0.0-19.0","3LWJHTCVCD8QZO10IVHI753XLHCFQT","A2Z6NL0CTXY0ZB","3JGHED38EDDK7DFM0KVY7GXUF1ZY7A","","null","<img src=""img/land1.png"" style=""width:200px; border:14px solid green;"">","null","","","","","","","","","",""
"","image-keyboard-response","20","83485","0.0-20.0","3LWJHTCVCD8QZO10IVHI753XLHCFQT","A2Z6NL0CTXY0ZB","3JGHED38EDDK7DFM0KVY7GXUF1ZY7A","","815","img/land3.png","75","817","2","0","3","2","1,0,0,0.25,0.5,0.25,0.25,0.25,0.5","1,0,0,0.25,0.5,0.25,0.25,0.25,0.5","1","",""
"","html-keyboard-response","21","83786","0.0-21.0","3LWJHTCVCD8QZO10IVHI753XLHCFQT","A2Z6NL0CTXY0ZB","3JGHED38EDDK7DFM0KVY7GXUF1ZY7A","","null","<img src=""img/land3.png"" style=""width:200px;border:14px solid red;"">","null","","","","","","","","","",""
"","image-keyboard-response","22","84309","0.0-22.0","3LWJHTCVCD8QZO10IVHI753XLHCFQT","A2Z6NL0CTXY0ZB","3JGHED38EDDK7DFM0KVY7GXUF1ZY7A","","519","img/land3.png","76","523","3","0","3","2","1,0,0,0.25,0.5,0.25,0.25,0.25,0.5","1,0,0,0.25,0.5,0.25,0.25,0.25,0.5","1","",""
"","html-keyboard-response","23","84610","0.0-23.0","3LWJHTCVCD8QZO10IVHI753XLHCFQT","A2Z6NL0CTXY0ZB","3JGHED38EDDK7DFM0KVY7GXUF1ZY7A","","null","<img src=""img/land3.png"" style=""width:200px;border:14px solid red;"">","null","","","","","","","","","",""
"","image-keyboard-response","24","85246","0.0-24.0","3LWJHTCVCD8QZO10IVHI753XLHCFQT","A2Z6NL0CTXY0ZB","3JGHED38EDDK7DFM0KVY7GXUF1ZY7A","","634","img/land1.png","74","636","1","1","1","2","1,0,0,0.25,0.5,0.25,0.25,0.25,0.5","1,0,0,0.25,0.5,0.25,0.25,0.25,0.5","1","",""
"","html-keyboard-response","25","85547","0.0-25.0","3LWJHTCVCD8QZO10IVHI753XLHCFQT","A2Z6NL0CTXY0ZB","3JGHED38EDDK7DFM0KVY7GXUF1ZY7A","","null","<img src=""img/land1.png"" style=""width:200px; border:14px solid green;"">","null","","","","","","","","","",""
"","image-keyboard-response","26","86324","0.0-26.0","3LWJHTCVCD8QZO10IVHI753XLHCFQT","A2Z6NL0CTXY0ZB","3JGHED38EDDK7DFM0KVY7GXUF1ZY7A","","776","img/land2.png","75","777","2","0","2","2","1,0,0,0.25,0.5,0.25,0.25,0.25,0.5","1,0,0,0.25,0.5,0.25,0.25,0.25,0.5","1","",""
"","html-keyboard-response","27","86627","0.0-27.0","3LWJHTCVCD8QZO10IVHI753XLHCFQT","A2Z6NL0CTXY0ZB","3JGHED38EDDK7DFM0KVY7GXUF1ZY7A","","null","<img src=""img/land2.png"" style=""width:200px;border:14px solid red;"">","null","","","","","","","","","",""
"","image-keyboard-response","28","87244","0.0-28.0","3LWJHTCVCD8QZO10IVHI753XLHCFQT","A2Z6NL0CTXY0ZB","3JGHED38EDDK7DFM0KVY7GXUF1ZY7A","","616","img/land3.png","76","618","3","0","3","2","1,0,0,0.25,0.5,0.25,0.25,0.25,0.5","1,0,0,0.25,0.5,0.25,0.25,0.25,0.5","1","",""
"","html-keyboard-response","29","87545","0.0-29.0","3LWJHTCVCD8QZO10IVHI753XLHCFQT","A2Z6NL0CTXY0ZB","3JGHED38EDDK7DFM0KVY7GXUF1ZY7A","","null","<img src=""img/land3.png"" style=""width:200px;border:14px solid red;"">","null","","","","","","","","","",""
"","image-keyboard-response","30","88229","0.0-30.0","3LWJHTCVCD8QZO10IVHI753XLHCFQT","A2Z6NL0CTXY0ZB","3JGHED38EDDK7DFM0KVY7GXUF1ZY7A","","683","img/land1.png","74","684","1","1","1","2","1,0,0,0.25,0.5,0.25,0.25,0.25,0.5","1,0,0,0.25,0.5,0.25,0.25,0.25,0.5","1","",""
"","html-keyboard-response","31","88530","0.0-31.0","3LWJHTCVCD8QZO10IVHI753XLHCFQT","A2Z6NL0CTXY0ZB","3JGHED38EDDK7DFM0KVY7GXUF1ZY7A","","null","<img src=""img/land1.png"" style=""width:200px; border:14px solid green;"">","null","","","","","","","","","",""
"","image-keyboard-response","32","89317","0.0-32.0","3LWJHTCVCD8QZO10IVHI753XLHCFQT","A2Z6NL0CTXY0ZB","3JGHED38EDDK7DFM0KVY7GXUF1ZY7A","","785","img/land2.png","74","787","1","0","2","2","1,0,0,0.25,0.5,0.25,0.25,0.25,0.5","1,0,0,0.25,0.5,0.25,0.25,0.25,0.5","1","",""
"","html-keyboard-response","33","89618","0.0-33.0","3LWJHTCVCD8QZO10IVHI753XLHCFQT","A2Z6NL0CTXY0ZB","3JGHED38EDDK7DFM0KVY7GXUF1ZY7A","","null","<img src=""img/land2.png"" style=""width:200px;border:14px solid red;"">","null","","","","","","","","","",""
"","image-keyboard-response","34","90166","0.0-34.0","3LWJHTCVCD8QZO10IVHI753XLHCFQT","A2Z6NL0CTXY0ZB","3JGHED38EDDK7DFM0KVY7GXUF1ZY7A","","546","img/land1.png","76","548","3","0","1","2","1,0,0,0.25,0.5,0.25,0.25,0.25,0.5","1,0,0,0.25,0.5,0.25,0.25,0.25,0.5","1","",""
"","html-keyboard-response","35","90471","0.0-35.0","3LWJHTCVCD8QZO10IVHI753XLHCFQT","A2Z6NL0CTXY0ZB","3JGHED38EDDK7DFM0KVY7GXUF1ZY7A","","null","<img src=""img/land1.png"" style=""width:200px;border:14px solid red;"">","null","","","","","","","","","",""
"","image-keyboard-response","36","91336","0.0-36.0","3LWJHTCVCD8QZO10IVHI753XLHCFQT","A2Z6NL0CTXY0ZB","3JGHED38EDDK7DFM0KVY7GXUF1ZY7A","","863","img/land3.png","76","864","3","1","3","2","1,0,0,0.25,0.5,0.25,0.25,0.25,0.5","1,0,0,0.25,0.5,0.25,0.25,0.25,0.5","1","",""
"","html-keyboard-response","37","91718","0.0-37.0","3LWJHTCVCD8QZO10IVHI753XLHCFQT","A2Z6NL0CTXY0ZB","3JGHED38EDDK7DFM0KVY7GXUF1ZY7A","","null","<img src=""img/land3.png"" style=""width:200px; border:14px solid green;"">","null","","","","","","","","","",""
"","image-keyboard-response","38","92523","0.0-38.0","3LWJHTCVCD8QZO10IVHI753XLHCFQT","A2Z6NL0CTXY0ZB","3JGHED38EDDK7DFM0KVY7GXUF1ZY7A","","803","img/land1.png","76","804","3","0","1","2","1,0,0,0.25,0.5,0.25,0.25,0.25,0.5","1,0,0,0.25,0.5,0.25,0.25,0.25,0.5","1","",""
"","html-keyboard-response","39","92933","0.0-39.0","3LWJHTCVCD8QZO10IVHI753XLHCFQT","A2Z6NL0CTXY0ZB","3JGHED38EDDK7DFM0KVY7GXUF1ZY7A","","null","<img src=""img/land1.png"" style=""width:200px;border:14px solid red;"">","null","","","","","","","","","",""
"","image-keyboard-response","40","93781","0.0-40.0","3LWJHTCVCD8QZO10IVHI753XLHCFQT","A2Z6NL0CTXY0ZB","3JGHED38EDDK7DFM0KVY7GXUF1ZY7A","","847","img/land2.png","76","848","3","0","2","2","1,0,0,0.25,0.5,0.25,0.25,0.25,0.5","1,0,0,0.25,0.5,0.25,0.25,0.25,0.5","1","",""
"","html-keyboard-response","41","94107","0.0-41.0","3LWJHTCVCD8QZO10IVHI753XLHCFQT","A2Z6NL0CTXY0ZB","3JGHED38EDDK7DFM0KVY7GXUF1ZY7A","","null","<img src=""img/land2.png"" style=""width:200px;border:14px solid red;"">","null","","","","","","","","","",""
"","image-keyboard-response","42","94749","0.0-42.0","3LWJHTCVCD8QZO10IVHI753XLHCFQT","A2Z6NL0CTXY0ZB","3JGHED38EDDK7DFM0KVY7GXUF1ZY7A","","641","img/land2.png","75","642","2","0","2","2","1,0,0,0.25,0.5,0.25,0.25,0.25,0.5","1,0,0,0.25,0.5,0.25,0.25,0.25,0.5","1","",""
"","html-keyboard-response","43","95096","0.0-43.0","3LWJHTCVCD8QZO10IVHI753XLHCFQT","A2Z6NL0CTXY0ZB","3JGHED38EDDK7DFM0KVY7GXUF1ZY7A","","null","<img src=""img/land2.png"" style=""width:200px;border:14px solid red;"">","null","","","","","","","","","",""
"","image-keyboard-response","44","95973","0.0-44.0","3LWJHTCVCD8QZO10IVHI753XLHCFQT","A2Z6NL0CTXY0ZB","3JGHED38EDDK7DFM0KVY7GXUF1ZY7A","","876","img/land2.png","74","877","1","0","2","2","1,0,0,0.25,0.5,0.25,0.25,0.25,0.5","1,0,0,0.25,0.5,0.25,0.25,0.25,0.5","1","",""
"","html-keyboard-response","45","96275","0.0-45.0","3LWJHTCVCD8QZO10IVHI753XLHCFQT","A2Z6NL0CTXY0ZB","3JGHED38EDDK7DFM0KVY7GXUF1ZY7A","","null","<img src=""img/land2.png"" style=""width:200px;border:14px solid red;"">","null","","","","","","","","","",""
"","image-keyboard-response","46","96766","0.0-46.0","3LWJHTCVCD8QZO10IVHI753XLHCFQT","A2Z6NL0CTXY0ZB","3JGHED38EDDK7DFM0KVY7GXUF1ZY7A","","489","img/land1.png","74","490","1","1","1","2","1,0,0,0.25,0.5,0.25,0.25,0.25,0.5","1,0,0,0.25,0.5,0.25,0.25,0.25,0.5","1","",""
"","html-keyboard-response","47","97067","0.0-47.0","3LWJHTCVCD8QZO10IVHI753XLHCFQT","A2Z6NL0CTXY0ZB","3JGHED38EDDK7DFM0KVY7GXUF1ZY7A","","null","<img src=""img/land1.png"" style=""width:200px; border:14px solid green;"">","null","","","","","","","","","",""
"","image-keyboard-response","48","97465","0.0-48.0","3LWJHTCVCD8QZO10IVHI753XLHCFQT","A2Z6NL0CTXY0ZB","3JGHED38EDDK7DFM0KVY7GXUF1ZY7A","","397","img/land1.png","74","398","1","1","1","2","1,0,0,0.25,0.5,0.25,0.25,0.25,0.5","1,0,0,0.25,0.5,0.25,0.25,0.25,0.5","1","",""
"","html-keyboard-response","49","97767","0.0-49.0","3LWJHTCVCD8QZO10IVHI753XLHCFQT","A2Z6NL0CTXY0ZB","3JGHED38EDDK7DFM0KVY7GXUF1ZY7A","","null","<img src=""img/land1.png"" style=""width:200px; border:14px solid green;"">","null","","","","","","","","","",""
"","image-keyboard-response","50","99589","0.0-50.0","3LWJHTCVCD8QZO10IVHI753XLHCFQT","A2Z6NL0CTXY0ZB","3JGHED38EDDK7DFM0KVY7GXUF1ZY7A","","1820","img/land3.png","75","1822","2","0","3","2","1,0,0,0.25,0.5,0.25,0.25,0.25,0.5","1,0,0,0.25,0.5,0.25,0.25,0.25,0.5","1","",""
"","html-keyboard-response","51","99976","0.0-51.0","3LWJHTCVCD8QZO10IVHI753XLHCFQT","A2Z6NL0CTXY0ZB","3JGHED38EDDK7DFM0KVY7GXUF1ZY7A","","null","<img src=""img/land3.png"" style=""width:200px;border:14px solid red;"">","null","","","","","","","","","",""
"","image-keyboard-response","52","100591","0.0-52.0","3LWJHTCVCD8QZO10IVHI753XLHCFQT","A2Z6NL0CTXY0ZB","3JGHED38EDDK7DFM0KVY7GXUF1ZY7A","","614","img/land1.png","74","615","1","1","1","2","1,0,0,0.25,0.5,0.25,0.25,0.25,0.5","1,0,0,0.25,0.5,0.25,0.25,0.25,0.5","1","",""
"","html-keyboard-response","53","100892","0.0-53.0","3LWJHTCVCD8QZO10IVHI753XLHCFQT","A2Z6NL0CTXY0ZB","3JGHED38EDDK7DFM0KVY7GXUF1ZY7A","","null","<img src=""img/land1.png"" style=""width:200px; border:14px solid green;"">","null","","","","","","","","","",""
"","image-keyboard-response","54","101397","0.0-54.0","3LWJHTCVCD8QZO10IVHI753XLHCFQT","A2Z6NL0CTXY0ZB","3JGHED38EDDK7DFM0KVY7GXUF1ZY7A","","503","img/land3.png","76","505","3","1","3","2","1,0,0,0.25,0.5,0.25,0.25,0.25,0.5","1,0,0,0.25,0.5,0.25,0.25,0.25,0.5","1","",""
"","html-keyboard-response","55","101879","0.0-55.0","3LWJHTCVCD8QZO10IVHI753XLHCFQT","A2Z6NL0CTXY0ZB","3JGHED38EDDK7DFM0KVY7GXUF1ZY7A","","null","<img src=""img/land3.png"" style=""width:200px; border:14px solid green;"">","null","","","","","","","","","",""
"","image-keyboard-response","56","103189","0.0-56.0","3LWJHTCVCD8QZO10IVHI753XLHCFQT","A2Z6NL0CTXY0ZB","3JGHED38EDDK7DFM0KVY7GXUF1ZY7A","","1308","img/land2.png","76","1309","3","0","2","2","1,0,0,0.25,0.5,0.25,0.25,0.25,0.5","1,0,0,0.25,0.5,0.25,0.25,0.25,0.5","1","",""
"","html-keyboard-response","57","103560","0.0-57.0","3LWJHTCVCD8QZO10IVHI753XLHCFQT","A2Z6NL0CTXY0ZB","3JGHED38EDDK7DFM0KVY7GXUF1ZY7A","","null","<img src=""img/land2.png"" style=""width:200px;border:14px solid red;"">","null","","","","","","","","","",""
"","image-keyboard-response","58","104256","0.0-58.0","3LWJHTCVCD8QZO10IVHI753XLHCFQT","A2Z6NL0CTXY0ZB","3JGHED38EDDK7DFM0KVY7GXUF1ZY7A","","694","img/land1.png","74","695","1","1","1","2","1,0,0,0.25,0.5,0.25,0.25,0.25,0.5","1,0,0,0.25,0.5,0.25,0.25,0.25,0.5","1","",""
"","html-keyboard-response","59","104561","0.0-59.0","3LWJHTCVCD8QZO10IVHI753XLHCFQT","A2Z6NL0CTXY0ZB","3JGHED38EDDK7DFM0KVY7GXUF1ZY7A","","null","<img src=""img/land1.png"" style=""width:200px; border:14px solid green;"">","null","","","","","","","","","",""
"","image-keyboard-response","60","105121","0.0-60.0","3LWJHTCVCD8QZO10IVHI753XLHCFQT","A2Z6NL0CTXY0ZB","3JGHED38EDDK7DFM0KVY7GXUF1ZY7A","","558","img/land2.png","76","560","3","0","2","2","1,0,0,0.25,0.5,0.25,0.25,0.25,0.5","1,0,0,0.25,0.5,0.25,0.25,0.25,0.5","1","",""
"","html-keyboard-response","61","105449","0.0-61.0","3LWJHTCVCD8QZO10IVHI753XLHCFQT","A2Z6NL0CTXY0ZB","3JGHED38EDDK7DFM0KVY7GXUF1ZY7A","","null","<img src=""img/land2.png"" style=""width:200px;border:14px solid red;"">","null","","","","","","","","","",""
"","image-keyboard-response","62","105957","0.0-62.0","3LWJHTCVCD8QZO10IVHI753XLHCFQT","A2Z6NL0CTXY0ZB","3JGHED38EDDK7DFM0KVY7GXUF1ZY7A","","506","img/land1.png","74","508","1","1","1","2","1,0,0,0.25,0.5,0.25,0.25,0.25,0.5","1,0,0,0.25,0.5,0.25,0.25,0.25,0.5","1","",""
"","html-keyboard-response","63","106390","0.0-63.0","3LWJHTCVCD8QZO10IVHI753XLHCFQT","A2Z6NL0CTXY0ZB","3JGHED38EDDK7DFM0KVY7GXUF1ZY7A","","null","<img src=""img/land1.png"" style=""width:200px; border:14px solid green;"">","null","","","","","","","","","",""
"","image-keyboard-response","64","107104","0.0-64.0","3LWJHTCVCD8QZO10IVHI753XLHCFQT","A2Z6NL0CTXY0ZB","3JGHED38EDDK7DFM0KVY7GXUF1ZY7A","","712","img/land2.png","75","720","2","0","2","2","1,0,0,0.25,0.5,0.25,0.25,0.25,0.5","1,0,0,0.25,0.5,0.25,0.25,0.25,0.5","1","",""
"","html-keyboard-response","65","107530","0.0-65.0","3LWJHTCVCD8QZO10IVHI753XLHCFQT","A2Z6NL0CTXY0ZB","3JGHED38EDDK7DFM0KVY7GXUF1ZY7A","","null","<img src=""img/land2.png"" style=""width:200px;border:14px solid red;"">","null","","","","","","","","","",""
"","image-keyboard-response","66","108385","0.0-66.0","3LWJHTCVCD8QZO10IVHI753XLHCFQT","A2Z6NL0CTXY0ZB","3JGHED38EDDK7DFM0KVY7GXUF1ZY7A","","846","img/land3.png","76","855","3","0","3","2","1,0,0,0.25,0.5,0.25,0.25,0.25,0.5","1,0,0,0.25,0.5,0.25,0.25,0.25,0.5","1","",""
"","html-keyboard-response","67","108720","0.0-67.0","3LWJHTCVCD8QZO10IVHI753XLHCFQT","A2Z6NL0CTXY0ZB","3JGHED38EDDK7DFM0KVY7GXUF1ZY7A","","null","<img src=""img/land3.png"" style=""width:200px;border:14px solid red;"">","null","","","","","","","","","",""
"","image-keyboard-response","68","109287","0.0-68.0","3LWJHTCVCD8QZO10IVHI753XLHCFQT","A2Z6NL0CTXY0ZB","3JGHED38EDDK7DFM0KVY7GXUF1ZY7A","","564","img/land3.png","75","566","2","0","3","2","1,0,0,0.25,0.5,0.25,0.25,0.25,0.5","1,0,0,0.25,0.5,0.25,0.25,0.25,0.5","1","",""
"","html-keyboard-response","69","109606","0.0-69.0","3LWJHTCVCD8QZO10IVHI753XLHCFQT","A2Z6NL0CTXY0ZB","3JGHED38EDDK7DFM0KVY7GXUF1ZY7A","","null","<img src=""img/land3.png"" style=""width:200px;border:14px solid red;"">","null","","","","","","","","","",""
"","image-keyboard-response","70","110188","0.0-70.0","3LWJHTCVCD8QZO10IVHI753XLHCFQT","A2Z6NL0CTXY0ZB","3JGHED38EDDK7DFM0KVY7GXUF1ZY7A","","581","img/land1.png","74","582","1","1","1","2","1,0,0,0.25,0.5,0.25,0.25,0.25,0.5","1,0,0,0.25,0.5,0.25,0.25,0.25,0.5","1","",""
"","html-keyboard-response","71","110490","0.0-71.0","3LWJHTCVCD8QZO10IVHI753XLHCFQT","A2Z6NL0CTXY0ZB","3JGHED38EDDK7DFM0KVY7GXUF1ZY7A","","null","<img src=""img/land1.png"" style=""width:200px; border:14px solid green;"">","null","","","","","","","","","",""
"","image-keyboard-response","72","111045","0.0-72.0","3LWJHTCVCD8QZO10IVHI753XLHCFQT","A2Z6NL0CTXY0ZB","3JGHED38EDDK7DFM0KVY7GXUF1ZY7A","","549","img/land1.png","74","555","1","1","1","2","1,0,0,0.25,0.5,0.25,0.25,0.25,0.5","1,0,0,0.25,0.5,0.25,0.25,0.25,0.5","1","",""
"","html-keyboard-response","73","111346","0.0-73.0","3LWJHTCVCD8QZO10IVHI753XLHCFQT","A2Z6NL0CTXY0ZB","3JGHED38EDDK7DFM0KVY7GXUF1ZY7A","","null","<img src=""img/land1.png"" style=""width:200px; border:14px solid green;"">","null","","","","","","","","","",""
"","image-keyboard-response","74","111855","0.0-74.0","3LWJHTCVCD8QZO10IVHI753XLHCFQT","A2Z6NL0CTXY0ZB","3JGHED38EDDK7DFM0KVY7GXUF1ZY7A","","507","img/land1.png","74","509","1","1","1","2","1,0,0,0.25,0.5,0.25,0.25,0.25,0.5","1,0,0,0.25,0.5,0.25,0.25,0.25,0.5","1","",""
"","html-keyboard-response","75","112156","0.0-75.0","3LWJHTCVCD8QZO10IVHI753XLHCFQT","A2Z6NL0CTXY0ZB","3JGHED38EDDK7DFM0KVY7GXUF1ZY7A","","null","<img src=""img/land1.png"" style=""width:200px; border:14px solid green;"">","null","","","","","","","","","",""
"","image-keyboard-response","76","112882","0.0-76.0","3LWJHTCVCD8QZO10IVHI753XLHCFQT","A2Z6NL0CTXY0ZB","3JGHED38EDDK7DFM0KVY7GXUF1ZY7A","","724","img/land3.png","74","726","1","1","3","2","1,0,0,0.25,0.5,0.25,0.25,0.25,0.5","1,0,0,0.25,0.5,0.25,0.25,0.25,0.5","1","",""
"","html-keyboard-response","77","113198","0.0-77.0","3LWJHTCVCD8QZO10IVHI753XLHCFQT","A2Z6NL0CTXY0ZB","3JGHED38EDDK7DFM0KVY7GXUF1ZY7A","","null","<img src=""img/land3.png"" style=""width:200px; border:14px solid green;"">","null","","","","","","","","","",""
"","image-keyboard-response","78","113837","0.0-78.0","3LWJHTCVCD8QZO10IVHI753XLHCFQT","A2Z6NL0CTXY0ZB","3JGHED38EDDK7DFM0KVY7GXUF1ZY7A","","637","img/land1.png","74","639","1","1","1","2","1,0,0,0.25,0.5,0.25,0.25,0.25,0.5","1,0,0,0.25,0.5,0.25,0.25,0.25,0.5","1","",""
"","html-keyboard-response","79","114290","0.0-79.0","3LWJHTCVCD8QZO10IVHI753XLHCFQT","A2Z6NL0CTXY0ZB","3JGHED38EDDK7DFM0KVY7GXUF1ZY7A","","null","<img src=""img/land1.png"" style=""width:200px; border:14px solid green;"">","null","","","","","","","","","",""
"","image-keyboard-response","80","114669","0.0-80.0","3LWJHTCVCD8QZO10IVHI753XLHCFQT","A2Z6NL0CTXY0ZB","3JGHED38EDDK7DFM0KVY7GXUF1ZY7A","","377","img/land1.png","74","379","1","1","1","2","1,0,0,0.25,0.5,0.25,0.25,0.25,0.5","1,0,0,0.25,0.5,0.25,0.25,0.25,0.5","1","",""
"","html-keyboard-response","81","114971","0.0-81.0","3LWJHTCVCD8QZO10IVHI753XLHCFQT","A2Z6NL0CTXY0ZB","3JGHED38EDDK7DFM0KVY7GXUF1ZY7A","","null","<img src=""img/land1.png"" style=""width:200px; border:14px solid green;"">","null","","","","","","","","","",""
"","image-keyboard-response","82","115317","0.0-82.0","3LWJHTCVCD8QZO10IVHI753XLHCFQT","A2Z6NL0CTXY0ZB","3JGHED38EDDK7DFM0KVY7GXUF1ZY7A","","344","img/land1.png","74","345","1","1","1","2","1,0,0,0.25,0.5,0.25,0.25,0.25,0.5","1,0,0,0.25,0.5,0.25,0.25,0.25,0.5","1","",""
"","html-keyboard-response","83","115618","0.0-83.0","3LWJHTCVCD8QZO10IVHI753XLHCFQT","A2Z6NL0CTXY0ZB","3JGHED38EDDK7DFM0KVY7GXUF1ZY7A","","null","<img src=""img/land1.png"" style=""width:200px; border:14px solid green;"">","null","","","","","","","","","",""
"","image-keyboard-response","84","116094","0.0-84.0","3LWJHTCVCD8QZO10IVHI753XLHCFQT","A2Z6NL0CTXY0ZB","3JGHED38EDDK7DFM0KVY7GXUF1ZY7A","","474","img/land1.png","74","476","1","1","1","2","1,0,0,0.25,0.5,0.25,0.25,0.25,0.5","1,0,0,0.25,0.5,0.25,0.25,0.25,0.5","1","",""
"","html-keyboard-response","85","116395","0.0-85.0","3LWJHTCVCD8QZO10IVHI753XLHCFQT","A2Z6NL0CTXY0ZB","3JGHED38EDDK7DFM0KVY7GXUF1ZY7A","","null","<img src=""img/land1.png"" style=""width:200px; border:14px solid green;"">","null","","","","","","","","","",""
"","image-keyboard-response","86","116773","0.0-86.0","3LWJHTCVCD8QZO10IVHI753XLHCFQT","A2Z6NL0CTXY0ZB","3JGHED38EDDK7DFM0KVY7GXUF1ZY7A","","377","img/land1.png","74","377","1","1","1","2","1,0,0,0.25,0.5,0.25,0.25,0.25,0.5","1,0,0,0.25,0.5,0.25,0.25,0.25,0.5","1","",""
"","html-keyboard-response","87","117075","0.0-87.0","3LWJHTCVCD8QZO10IVHI753XLHCFQT","A2Z6NL0CTXY0ZB","3JGHED38EDDK7DFM0KVY7GXUF1ZY7A","","null","<img src=""img/land1.png"" style=""width:200px; border:14px solid green;"">","null","","","","","","","","","",""
"","image-keyboard-response","88","117526","0.0-88.0","3LWJHTCVCD8QZO10IVHI753XLHCFQT","A2Z6NL0CTXY0ZB","3JGHED38EDDK7DFM0KVY7GXUF1ZY7A","","449","img/land3.png","74","451","1","0","3","2","1,0,0,0.25,0.5,0.25,0.25,0.25,0.5","1,0,0,0.25,0.5,0.25,0.25,0.25,0.5","1","",""
"","html-keyboard-response","89","117854","0.0-89.0","3LWJHTCVCD8QZO10IVHI753XLHCFQT","A2Z6NL0CTXY0ZB","3JGHED38EDDK7DFM0KVY7GXUF1ZY7A","","null","<img src=""img/land3.png"" style=""width:200px;border:14px solid red;"">","null","","","","","","","","","",""
"","image-keyboard-response","90","118687","0.0-90.0","3LWJHTCVCD8QZO10IVHI753XLHCFQT","A2Z6NL0CTXY0ZB","3JGHED38EDDK7DFM0KVY7GXUF1ZY7A","","832","img/land1.png","74","833","1","1","1","2","1,0,0,0.25,0.5,0.25,0.25,0.25,0.5","1,0,0,0.25,0.5,0.25,0.25,0.25,0.5","1","",""
"","html-keyboard-response","91","118988","0.0-91.0","3LWJHTCVCD8QZO10IVHI753XLHCFQT","A2Z6NL0CTXY0ZB","3JGHED38EDDK7DFM0KVY7GXUF1ZY7A","","null","<img src=""img/land1.png"" style=""width:200px; border:14px solid green;"">","null","","","","","","","","","",""
"","image-keyboard-response","92","119309","0.0-92.0","3LWJHTCVCD8QZO10IVHI753XLHCFQT","A2Z6NL0CTXY0ZB","3JGHED38EDDK7DFM0KVY7GXUF1ZY7A","","319","img/land1.png","74","321","1","1","1","2","1,0,0,0.25,0.5,0.25,0.25,0.25,0.5","1,0,0,0.25,0.5,0.25,0.25,0.25,0.5","1","",""
"","html-keyboard-response","93","119609","0.0-93.0","3LWJHTCVCD8QZO10IVHI753XLHCFQT","A2Z6NL0CTXY0ZB","3JGHED38EDDK7DFM0KVY7GXUF1ZY7A","","null","<img src=""img/land1.png"" style=""width:200px; border:14px solid green;"">","null","","","","","","","","","",""
"","image-keyboard-response","94","119933","0.0-94.0","3LWJHTCVCD8QZO10IVHI753XLHCFQT","A2Z6NL0CTXY0ZB","3JGHED38EDDK7DFM0KVY7GXUF1ZY7A","","322","img/land1.png","74","324","1","1","1","2","1,0,0,0.25,0.5,0.25,0.25,0.25,0.5","1,0,0,0.25,0.5,0.25,0.25,0.25,0.5","1","",""
"","html-keyboard-response","95","120293","0.0-95.0","3LWJHTCVCD8QZO10IVHI753XLHCFQT","A2Z6NL0CTXY0ZB","3JGHED38EDDK7DFM0KVY7GXUF1ZY7A","","null","<img src=""img/land1.png"" style=""width:200px; border:14px solid green;"">","null","","","","","","","","","",""
"","image-keyboard-response","96","120915","0.0-96.0","3LWJHTCVCD8QZO10IVHI753XLHCFQT","A2Z6NL0CTXY0ZB","3JGHED38EDDK7DFM0KVY7GXUF1ZY7A","","620","img/land3.png","75","622","2","0","3","2","1,0,0,0.25,0.5,0.25,0.25,0.25,0.5","1,0,0,0.25,0.5,0.25,0.25,0.25,0.5","1","",""
"","html-keyboard-response","97","121216","0.0-97.0","3LWJHTCVCD8QZO10IVHI753XLHCFQT","A2Z6NL0CTXY0ZB","3JGHED38EDDK7DFM0KVY7GXUF1ZY7A","","null","<img src=""img/land3.png"" style=""width:200px;border:14px solid red;"">","null","","","","","","","","","",""
"","image-keyboard-response","98","121951","0.0-98.0","3LWJHTCVCD8QZO10IVHI753XLHCFQT","A2Z6NL0CTXY0ZB","3JGHED38EDDK7DFM0KVY7GXUF1ZY7A","","733","img/land2.png","76","735","3","0","2","2","1,0,0,0.25,0.5,0.25,0.25,0.25,0.5","1,0,0,0.25,0.5,0.25,0.25,0.25,0.5","1","",""
"","html-keyboard-response","99","122254","0.0-99.0","3LWJHTCVCD8QZO10IVHI753XLHCFQT","A2Z6NL0CTXY0ZB","3JGHED38EDDK7DFM0KVY7GXUF1ZY7A","","null","<img src=""img/land2.png"" style=""width:200px;border:14px solid red;"">","null","","","","","","","","","",""
"","image-keyboard-response","100","123005","0.0-100.0","3LWJHTCVCD8QZO10IVHI753XLHCFQT","A2Z6NL0CTXY0ZB","3JGHED38EDDK7DFM0KVY7GXUF1ZY7A","","749","img/land1.png","74","751","1","1","1","2","1,0,0,0.25,0.5,0.25,0.25,0.25,0.5","1,0,0,0.25,0.5,0.25,0.25,0.25,0.5","1","",""
"","html-keyboard-response","101","123317","0.0-101.0","3LWJHTCVCD8QZO10IVHI753XLHCFQT","A2Z6NL0CTXY0ZB","3JGHED38EDDK7DFM0KVY7GXUF1ZY7A","","null","<img src=""img/land1.png"" style=""width:200px; border:14px solid green;"">","null","","","","","","","","","",""
"","image-keyboard-response","102","124326","0.0-102.0","3LWJHTCVCD8QZO10IVHI753XLHCFQT","A2Z6NL0CTXY0ZB","3JGHED38EDDK7DFM0KVY7GXUF1ZY7A","","1008","img/land2.png","75","1008","2","1","2","2","1,0,0,0.25,0.5,0.25,0.25,0.25,0.5","1,0,0,0.25,0.5,0.25,0.25,0.25,0.5","1","",""
"","html-keyboard-response","103","124672","0.0-103.0","3LWJHTCVCD8QZO10IVHI753XLHCFQT","A2Z6NL0CTXY0ZB","3JGHED38EDDK7DFM0KVY7GXUF1ZY7A","","null","<img src=""img/land2.png"" style=""width:200px; border:14px solid green;"">","null","","","","","","","","","",""
"","image-keyboard-response","104","125709","0.0-104.0","3LWJHTCVCD8QZO10IVHI753XLHCFQT","A2Z6NL0CTXY0ZB","3JGHED38EDDK7DFM0KVY7GXUF1ZY7A","","1035","img/land3.png","74","1037","1","0","3","2","1,0,0,0.25,0.5,0.25,0.25,0.25,0.5","1,0,0,0.25,0.5,0.25,0.25,0.25,0.5","1","",""
"","html-keyboard-response","105","126009","0.0-105.0","3LWJHTCVCD8QZO10IVHI753XLHCFQT","A2Z6NL0CTXY0ZB","3JGHED38EDDK7DFM0KVY7GXUF1ZY7A","","null","<img src=""img/land3.png"" style=""width:200px;border:14px solid red;"">","null","","","","","","","","","",""
"","image-keyboard-response","106","126813","0.0-106.0","3LWJHTCVCD8QZO10IVHI753XLHCFQT","A2Z6NL0CTXY0ZB","3JGHED38EDDK7DFM0KVY7GXUF1ZY7A","","802","img/land1.png","74","804","1","1","1","2","1,0,0,0.25,0.5,0.25,0.25,0.25,0.5","1,0,0,0.25,0.5,0.25,0.25,0.25,0.5","1","",""
"","html-keyboard-response","107","127114","0.0-107.0","3LWJHTCVCD8QZO10IVHI753XLHCFQT","A2Z6NL0CTXY0ZB","3JGHED38EDDK7DFM0KVY7GXUF1ZY7A","","null","<img src=""img/land1.png"" style=""width:200px; border:14px solid green;"">","null","","","","","","","","","",""
"","image-keyboard-response","108","127501","0.0-108.0","3LWJHTCVCD8QZO10IVHI753XLHCFQT","A2Z6NL0CTXY0ZB","3JGHED38EDDK7DFM0KVY7GXUF1ZY7A","","385","img/land1.png","74","387","1","1","1","2","1,0,0,0.25,0.5,0.25,0.25,0.25,0.5","1,0,0,0.25,0.5,0.25,0.25,0.25,0.5","1","",""
"","html-keyboard-response","109","127803","0.0-109.0","3LWJHTCVCD8QZO10IVHI753XLHCFQT","A2Z6NL0CTXY0ZB","3JGHED38EDDK7DFM0KVY7GXUF1ZY7A","","null","<img src=""img/land1.png"" style=""width:200px; border:14px solid green;"">","null","","","","","","","","","",""
"","image-keyboard-response","110","128157","0.0-110.0","3LWJHTCVCD8QZO10IVHI753XLHCFQT","A2Z6NL0CTXY0ZB","3JGHED38EDDK7DFM0KVY7GXUF1ZY7A","","353","img/land1.png","74","353","1","1","1","2","1,0,0,0.25,0.5,0.25,0.25,0.25,0.5","1,0,0,0.25,0.5,0.25,0.25,0.25,0.5","1","",""
"","html-keyboard-response","111","128569","0.0-111.0","3LWJHTCVCD8QZO10IVHI753XLHCFQT","A2Z6NL0CTXY0ZB","3JGHED38EDDK7DFM0KVY7GXUF1ZY7A","","null","<img src=""img/land1.png"" style=""width:200px; border:14px solid green;"">","null","","","","","","","","","",""
"","image-keyboard-response","112","129453","0.0-112.0","3LWJHTCVCD8QZO10IVHI753XLHCFQT","A2Z6NL0CTXY0ZB","3JGHED38EDDK7DFM0KVY7GXUF1ZY7A","","883","img/land2.png","76","884","3","1","2","2","1,0,0,0.25,0.5,0.25,0.25,0.25,0.5","1,0,0,0.25,0.5,0.25,0.25,0.25,0.5","1","",""
"","html-keyboard-response","113","129754","0.0-113.0","3LWJHTCVCD8QZO10IVHI753XLHCFQT","A2Z6NL0CTXY0ZB","3JGHED38EDDK7DFM0KVY7GXUF1ZY7A","","null","<img src=""img/land2.png"" style=""width:200px; border:14px solid green;"">","null","","","","","","","","","",""
"","image-keyboard-response","114","130412","0.0-114.0","3LWJHTCVCD8QZO10IVHI753XLHCFQT","A2Z6NL0CTXY0ZB","3JGHED38EDDK7DFM0KVY7GXUF1ZY7A","","657","img/land1.png","74","658","1","1","1","2","1,0,0,0.25,0.5,0.25,0.25,0.25,0.5","1,0,0,0.25,0.5,0.25,0.25,0.25,0.5","1","",""
"","html-keyboard-response","115","130713","0.0-115.0","3LWJHTCVCD8QZO10IVHI753XLHCFQT","A2Z6NL0CTXY0ZB","3JGHED38EDDK7DFM0KVY7GXUF1ZY7A","","null","<img src=""img/land1.png"" style=""width:200px; border:14px solid green;"">","null","","","","","","","","","",""
"","image-keyboard-response","116","132133","0.0-116.0","3LWJHTCVCD8QZO10IVHI753XLHCFQT","A2Z6NL0CTXY0ZB","3JGHED38EDDK7DFM0KVY7GXUF1ZY7A","","1419","img/land2.png","75","1420","2","0","2","2","1,0,0,0.25,0.5,0.25,0.25,0.25,0.5","1,0,0,0.25,0.5,0.25,0.25,0.25,0.5","1","",""
"","html-keyboard-response","117","132435","0.0-117.0","3LWJHTCVCD8QZO10IVHI753XLHCFQT","A2Z6NL0CTXY0ZB","3JGHED38EDDK7DFM0KVY7GXUF1ZY7A","","null","<img src=""img/land2.png"" style=""width:200px;border:14px solid red;"">","null","","","","","","","","","",""
"","image-keyboard-response","118","133045","0.0-118.0","3LWJHTCVCD8QZO10IVHI753XLHCFQT","A2Z6NL0CTXY0ZB","3JGHED38EDDK7DFM0KVY7GXUF1ZY7A","","608","img/land2.png","76","610","3","1","2","2","1,0,0,0.25,0.5,0.25,0.25,0.25,0.5","1,0,0,0.25,0.5,0.25,0.25,0.25,0.5","1","",""
"","html-keyboard-response","119","133351","0.0-119.0","3LWJHTCVCD8QZO10IVHI753XLHCFQT","A2Z6NL0CTXY0ZB","3JGHED38EDDK7DFM0KVY7GXUF1ZY7A","","null","<img src=""img/land2.png"" style=""width:200px; border:14px solid green;"">","null","","","","","","","","","",""
"","image-keyboard-response","120","134077","0.0-120.0","3LWJHTCVCD8QZO10IVHI753XLHCFQT","A2Z6NL0CTXY0ZB","3JGHED38EDDK7DFM0KVY7GXUF1ZY7A","","725","img/land2.png","75","726","2","0","2","2","1,0,0,0.25,0.5,0.25,0.25,0.25,0.5","1,0,0,0.25,0.5,0.25,0.25,0.25,0.5","1","",""
"","html-keyboard-response","121","134383","0.0-121.0","3LWJHTCVCD8QZO10IVHI753XLHCFQT","A2Z6NL0CTXY0ZB","3JGHED38EDDK7DFM0KVY7GXUF1ZY7A","","null","<img src=""img/land2.png"" style=""width:200px;border:14px solid red;"">","null","","","","","","","","","",""
"","image-keyboard-response","122","134965","0.0-122.0","3LWJHTCVCD8QZO10IVHI753XLHCFQT","A2Z6NL0CTXY0ZB","3JGHED38EDDK7DFM0KVY7GXUF1ZY7A","","580","img/land3.png","74","582","1","0","3","2","1,0,0,0.25,0.5,0.25,0.25,0.25,0.5","1,0,0,0.25,0.5,0.25,0.25,0.25,0.5","1","",""
"","html-keyboard-response","123","135265","0.0-123.0","3LWJHTCVCD8QZO10IVHI753XLHCFQT","A2Z6NL0CTXY0ZB","3JGHED38EDDK7DFM0KVY7GXUF1ZY7A","","null","<img src=""img/land3.png"" style=""width:200px;border:14px solid red;"">","null","","","","","","","","","",""
"","image-keyboard-response","124","136181","0.0-124.0","3LWJHTCVCD8QZO10IVHI753XLHCFQT","A2Z6NL0CTXY0ZB","3JGHED38EDDK7DFM0KVY7GXUF1ZY7A","","913","img/land2.png","76","916","3","1","2","2","1,0,0,0.25,0.5,0.25,0.25,0.25,0.5","1,0,0,0.25,0.5,0.25,0.25,0.25,0.5","1","",""
"","html-keyboard-response","125","136483","0.0-125.0","3LWJHTCVCD8QZO10IVHI753XLHCFQT","A2Z6NL0CTXY0ZB","3JGHED38EDDK7DFM0KVY7GXUF1ZY7A","","null","<img src=""img/land2.png"" style=""width:200px; border:14px solid green;"">","null","","","","","","","","","",""
"","image-keyboard-response","126","137365","0.0-126.0","3LWJHTCVCD8QZO10IVHI753XLHCFQT","A2Z6NL0CTXY0ZB","3JGHED38EDDK7DFM0KVY7GXUF1ZY7A","","880","img/land3.png","76","882","3","1","3","2","1,0,0,0.25,0.5,0.25,0.25,0.25,0.5","1,0,0,0.25,0.5,0.25,0.25,0.25,0.5","1","",""
"","html-keyboard-response","127","137667","0.0-127.0","3LWJHTCVCD8QZO10IVHI753XLHCFQT","A2Z6NL0CTXY0ZB","3JGHED38EDDK7DFM0KVY7GXUF1ZY7A","","null","<img src=""img/land3.png"" style=""width:200px; border:14px solid green;"">","null","","","","","","","","","",""
"","image-keyboard-response","128","138334","0.0-128.0","3LWJHTCVCD8QZO10IVHI753XLHCFQT","A2Z6NL0CTXY0ZB","3JGHED38EDDK7DFM0KVY7GXUF1ZY7A","","666","img/land1.png","74","667","1","1","1","2","1,0,0,0.25,0.5,0.25,0.25,0.25,0.5","1,0,0,0.25,0.5,0.25,0.25,0.25,0.5","1","",""
"","html-keyboard-response","129","138636","0.0-129.0","3LWJHTCVCD8QZO10IVHI753XLHCFQT","A2Z6NL0CTXY0ZB","3JGHED38EDDK7DFM0KVY7GXUF1ZY7A","","null","<img src=""img/land1.png"" style=""width:200px; border:14px solid green;"">","null","","","","","","","","","",""
"","image-keyboard-response","130","139661","0.0-130.0","3LWJHTCVCD8QZO10IVHI753XLHCFQT","A2Z6NL0CTXY0ZB","3JGHED38EDDK7DFM0KVY7GXUF1ZY7A","","1023","img/land2.png","76","1025","3","1","2","2","1,0,0,0.25,0.5,0.25,0.25,0.25,0.5","1,0,0,0.25,0.5,0.25,0.25,0.25,0.5","1","",""
"","html-keyboard-response","131","139963","0.0-131.0","3LWJHTCVCD8QZO10IVHI753XLHCFQT","A2Z6NL0CTXY0ZB","3JGHED38EDDK7DFM0KVY7GXUF1ZY7A","","null","<img src=""img/land2.png"" style=""width:200px; border:14px solid green;"">","null","","","","","","","","","",""
"","image-keyboard-response","132","140631","0.0-132.0","3LWJHTCVCD8QZO10IVHI753XLHCFQT","A2Z6NL0CTXY0ZB","3JGHED38EDDK7DFM0KVY7GXUF1ZY7A","","666","img/land1.png","74","667","1","1","1","2","1,0,0,0.25,0.5,0.25,0.25,0.25,0.5","1,0,0,0.25,0.5,0.25,0.25,0.25,0.5","1","",""
"","html-keyboard-response","133","140933","0.0-133.0","3LWJHTCVCD8QZO10IVHI753XLHCFQT","A2Z6NL0CTXY0ZB","3JGHED38EDDK7DFM0KVY7GXUF1ZY7A","","null","<img src=""img/land1.png"" style=""width:200px; border:14px solid green;"">","null","","","","","","","","","",""
"","image-keyboard-response","134","141536","0.0-134.0","3LWJHTCVCD8QZO10IVHI753XLHCFQT","A2Z6NL0CTXY0ZB","3JGHED38EDDK7DFM0KVY7GXUF1ZY7A","","601","img/land1.png","74","603","1","1","1","2","1,0,0,0.25,0.5,0.25,0.25,0.25,0.5","1,0,0,0.25,0.5,0.25,0.25,0.25,0.5","1","",""
"","html-keyboard-response","135","141859","0.0-135.0","3LWJHTCVCD8QZO10IVHI753XLHCFQT","A2Z6NL0CTXY0ZB","3JGHED38EDDK7DFM0KVY7GXUF1ZY7A","","null","<img src=""img/land1.png"" style=""width:200px; border:14px solid green;"">","null","","","","","","","","","",""
"","image-keyboard-response","136","142685","0.0-136.0","3LWJHTCVCD8QZO10IVHI753XLHCFQT","A2Z6NL0CTXY0ZB","3JGHED38EDDK7DFM0KVY7GXUF1ZY7A","","825","img/land3.png","76","826","3","1","3","2","1,0,0,0.25,0.5,0.25,0.25,0.25,0.5","1,0,0,0.25,0.5,0.25,0.25,0.25,0.5","1","",""
"","html-keyboard-response","137","143006","0.0-137.0","3LWJHTCVCD8QZO10IVHI753XLHCFQT","A2Z6NL0CTXY0ZB","3JGHED38EDDK7DFM0KVY7GXUF1ZY7A","","null","<img src=""img/land3.png"" style=""width:200px; border:14px solid green;"">","null","","","","","","","","","",""
"","image-keyboard-response","138","143740","0.0-138.0","3LWJHTCVCD8QZO10IVHI753XLHCFQT","A2Z6NL0CTXY0ZB","3JGHED38EDDK7DFM0KVY7GXUF1ZY7A","","733","img/land2.png","76","734","3","1","2","2","1,0,0,0.25,0.5,0.25,0.25,0.25,0.5","1,0,0,0.25,0.5,0.25,0.25,0.25,0.5","1","",""
"","html-keyboard-response","139","144041","0.0-139.0","3LWJHTCVCD8QZO10IVHI753XLHCFQT","A2Z6NL0CTXY0ZB","3JGHED38EDDK7DFM0KVY7GXUF1ZY7A","","null","<img src=""img/land2.png"" style=""width:200px; border:14px solid green;"">","null","","","","","","","","","",""
"","image-keyboard-response","140","144485","0.0-140.0","3LWJHTCVCD8QZO10IVHI753XLHCFQT","A2Z6NL0CTXY0ZB","3JGHED38EDDK7DFM0KVY7GXUF1ZY7A","","442","img/land1.png","74","444","1","1","1","2","1,0,0,0.25,0.5,0.25,0.25,0.25,0.5","1,0,0,0.25,0.5,0.25,0.25,0.25,0.5","1","",""
"","html-keyboard-response","141","144788","0.0-141.0","3LWJHTCVCD8QZO10IVHI753XLHCFQT","A2Z6NL0CTXY0ZB","3JGHED38EDDK7DFM0KVY7GXUF1ZY7A","","null","<img src=""img/land1.png"" style=""width:200px; border:14px solid green;"">","null","","","","","","","","","",""
"","image-keyboard-response","142","145223","0.0-142.0","3LWJHTCVCD8QZO10IVHI753XLHCFQT","A2Z6NL0CTXY0ZB","3JGHED38EDDK7DFM0KVY7GXUF1ZY7A","","434","img/land1.png","74","435","1","1","1","2","1,0,0,0.25,0.5,0.25,0.25,0.25,0.5","1,0,0,0.25,0.5,0.25,0.25,0.25,0.5","1","",""
"","html-keyboard-response","143","145524","0.0-143.0","3LWJHTCVCD8QZO10IVHI753XLHCFQT","A2Z6NL0CTXY0ZB","3JGHED38EDDK7DFM0KVY7GXUF1ZY7A","","null","<img src=""img/land1.png"" style=""width:200px; border:14px solid green;"">","null","","","","","","","","","",""
"","image-keyboard-response","144","145885","0.0-144.0","3LWJHTCVCD8QZO10IVHI753XLHCFQT","A2Z6NL0CTXY0ZB","3JGHED38EDDK7DFM0KVY7GXUF1ZY7A","","360","img/land1.png","74","361","1","1","1","2","1,0,0,0.25,0.5,0.25,0.25,0.25,0.5","1,0,0,0.25,0.5,0.25,0.25,0.25,0.5","1","",""
"","html-keyboard-response","145","146188","0.0-145.0","3LWJHTCVCD8QZO10IVHI753XLHCFQT","A2Z6NL0CTXY0ZB","3JGHED38EDDK7DFM0KVY7GXUF1ZY7A","","null","<img src=""img/land1.png"" style=""width:200px; border:14px solid green;"">","null","","","","","","","","","",""
"","image-keyboard-response","146","146525","0.0-146.0","3LWJHTCVCD8QZO10IVHI753XLHCFQT","A2Z6NL0CTXY0ZB","3JGHED38EDDK7DFM0KVY7GXUF1ZY7A","","335","img/land1.png","74","337","1","1","1","2","1,0,0,0.25,0.5,0.25,0.25,0.25,0.5","1,0,0,0.25,0.5,0.25,0.25,0.25,0.5","1","",""
"","html-keyboard-response","147","146829","0.0-147.0","3LWJHTCVCD8QZO10IVHI753XLHCFQT","A2Z6NL0CTXY0ZB","3JGHED38EDDK7DFM0KVY7GXUF1ZY7A","","null","<img src=""img/land1.png"" style=""width:200px; border:14px solid green;"">","null","","","","","","","","","",""
"","image-keyboard-response","148","147148","0.0-148.0","3LWJHTCVCD8QZO10IVHI753XLHCFQT","A2Z6NL0CTXY0ZB","3JGHED38EDDK7DFM0KVY7GXUF1ZY7A","","318","img/land1.png","74","320","1","1","1","2","1,0,0,0.25,0.5,0.25,0.25,0.25,0.5","1,0,0,0.25,0.5,0.25,0.25,0.25,0.5","1","",""
"","html-keyboard-response","149","147455","0.0-149.0","3LWJHTCVCD8QZO10IVHI753XLHCFQT","A2Z6NL0CTXY0ZB","3JGHED38EDDK7DFM0KVY7GXUF1ZY7A","","null","<img src=""img/land1.png"" style=""width:200px; border:14px solid green;"">","null","","","","","","","","","",""
"","image-keyboard-response","150","147801","0.0-150.0","3LWJHTCVCD8QZO10IVHI753XLHCFQT","A2Z6NL0CTXY0ZB","3JGHED38EDDK7DFM0KVY7GXUF1ZY7A","","345","img/land1.png","74","345","1","1","1","2","1,0,0,0.25,0.5,0.25,0.25,0.25,0.5","1,0,0,0.25,0.5,0.25,0.25,0.25,0.5","1","",""
"","html-keyboard-response","151","148102","0.0-151.0","3LWJHTCVCD8QZO10IVHI753XLHCFQT","A2Z6NL0CTXY0ZB","3JGHED38EDDK7DFM0KVY7GXUF1ZY7A","","null","<img src=""img/land1.png"" style=""width:200px; border:14px solid green;"">","null","","","","","","","","","",""
"","image-keyboard-response","152","148437","0.0-152.0","3LWJHTCVCD8QZO10IVHI753XLHCFQT","A2Z6NL0CTXY0ZB","3JGHED38EDDK7DFM0KVY7GXUF1ZY7A","","333","img/land1.png","74","335","1","1","1","2","1,0,0,0.25,0.5,0.25,0.25,0.25,0.5","1,0,0,0.25,0.5,0.25,0.25,0.25,0.5","1","",""
"","html-keyboard-response","153","148737","0.0-153.0","3LWJHTCVCD8QZO10IVHI753XLHCFQT","A2Z6NL0CTXY0ZB","3JGHED38EDDK7DFM0KVY7GXUF1ZY7A","","null","<img src=""img/land1.png"" style=""width:200px; border:14px solid green;"">","null","","","","","","","","","",""
"","image-keyboard-response","154","149445","0.0-154.0","3LWJHTCVCD8QZO10IVHI753XLHCFQT","A2Z6NL0CTXY0ZB","3JGHED38EDDK7DFM0KVY7GXUF1ZY7A","","706","img/land2.png","76","708","3","0","2","2","1,0,0,0.25,0.5,0.25,0.25,0.25,0.5","1,0,0,0.25,0.5,0.25,0.25,0.25,0.5","1","",""
"","html-keyboard-response","155","149894","0.0-155.0","3LWJHTCVCD8QZO10IVHI753XLHCFQT","A2Z6NL0CTXY0ZB","3JGHED38EDDK7DFM0KVY7GXUF1ZY7A","","null","<img src=""img/land2.png"" style=""width:200px;border:14px solid red;"">","null","","","","","","","","","",""
"","image-keyboard-response","156","150597","0.0-156.0","3LWJHTCVCD8QZO10IVHI753XLHCFQT","A2Z6NL0CTXY0ZB","3JGHED38EDDK7DFM0KVY7GXUF1ZY7A","","702","img/land1.png","74","703","1","1","1","2","1,0,0,0.25,0.5,0.25,0.25,0.25,0.5","1,0,0,0.25,0.5,0.25,0.25,0.25,0.5","1","",""
"","html-keyboard-response","157","150915","0.0-157.0","3LWJHTCVCD8QZO10IVHI753XLHCFQT","A2Z6NL0CTXY0ZB","3JGHED38EDDK7DFM0KVY7GXUF1ZY7A","","null","<img src=""img/land1.png"" style=""width:200px; border:14px solid green;"">","null","","","","","","","","","",""
"","image-keyboard-response","158","151613","0.0-158.0","3LWJHTCVCD8QZO10IVHI753XLHCFQT","A2Z6NL0CTXY0ZB","3JGHED38EDDK7DFM0KVY7GXUF1ZY7A","","696","img/land1.png","74","698","1","1","1","2","1,0,0,0.25,0.5,0.25,0.25,0.25,0.5","1,0,0,0.25,0.5,0.25,0.25,0.25,0.5","1","",""
"","html-keyboard-response","159","151916","0.0-159.0","3LWJHTCVCD8QZO10IVHI753XLHCFQT","A2Z6NL0CTXY0ZB","3JGHED38EDDK7DFM0KVY7GXUF1ZY7A","","null","<img src=""img/land1.png"" style=""width:200px; border:14px solid green;"">","null","","","","","","","","","",""
"","image-keyboard-response","160","152256","0.0-160.0","3LWJHTCVCD8QZO10IVHI753XLHCFQT","A2Z6NL0CTXY0ZB","3JGHED38EDDK7DFM0KVY7GXUF1ZY7A","","338","img/land1.png","74","340","1","1","1","2","1,0,0,0.25,0.5,0.25,0.25,0.25,0.5","1,0,0,0.25,0.5,0.25,0.25,0.25,0.5","1","",""
"","html-keyboard-response","161","152659","0.0-161.0","3LWJHTCVCD8QZO10IVHI753XLHCFQT","A2Z6NL0CTXY0ZB","3JGHED38EDDK7DFM0KVY7GXUF1ZY7A","","null","<img src=""img/land1.png"" style=""width:200px; border:14px solid green;"">","null","","","","","","","","","",""
"","image-keyboard-response","162","152751","0.0-162.0","3LWJHTCVCD8QZO10IVHI753XLHCFQT","A2Z6NL0CTXY0ZB","3JGHED38EDDK7DFM0KVY7GXUF1ZY7A","","90","img/land2.png","74","92","1","0","2","2","1,0,0,0.25,0.5,0.25,0.25,0.25,0.5","1,0,0,0.25,0.5,0.25,0.25,0.25,0.5","1","",""
"","html-keyboard-response","163","153054","0.0-163.0","3LWJHTCVCD8QZO10IVHI753XLHCFQT","A2Z6NL0CTXY0ZB","3JGHED38EDDK7DFM0KVY7GXUF1ZY7A","","null","<img src=""img/land2.png"" style=""width:200px;border:14px solid red;"">","null","","","","","","","","","",""
"","image-keyboard-response","164","153836","0.0-164.0","3LWJHTCVCD8QZO10IVHI753XLHCFQT","A2Z6NL0CTXY0ZB","3JGHED38EDDK7DFM0KVY7GXUF1ZY7A","","781","img/land1.png","74","782","1","1","1","2","1,0,0,0.25,0.5,0.25,0.25,0.25,0.5","1,0,0,0.25,0.5,0.25,0.25,0.25,0.5","1","",""
"","html-keyboard-response","165","154138","0.0-165.0","3LWJHTCVCD8QZO10IVHI753XLHCFQT","A2Z6NL0CTXY0ZB","3JGHED38EDDK7DFM0KVY7GXUF1ZY7A","","null","<img src=""img/land1.png"" style=""width:200px; border:14px solid green;"">","null","","","","","","","","","",""
"","image-keyboard-response","166","154836","0.0-166.0","3LWJHTCVCD8QZO10IVHI753XLHCFQT","A2Z6NL0CTXY0ZB","3JGHED38EDDK7DFM0KVY7GXUF1ZY7A","","697","img/land3.png","76","698","3","0","3","2","1,0,0,0.25,0.5,0.25,0.25,0.25,0.5","1,0,0,0.25,0.5,0.25,0.25,0.25,0.5","1","",""
"","html-keyboard-response","167","155137","0.0-167.0","3LWJHTCVCD8QZO10IVHI753XLHCFQT","A2Z6NL0CTXY0ZB","3JGHED38EDDK7DFM0KVY7GXUF1ZY7A","","null","<img src=""img/land3.png"" style=""width:200px;border:14px solid red;"">","null","","","","","","","","","",""
"","image-keyboard-response","168","155614","0.0-168.0","3LWJHTCVCD8QZO10IVHI753XLHCFQT","A2Z6NL0CTXY0ZB","3JGHED38EDDK7DFM0KVY7GXUF1ZY7A","","476","img/land3.png","75","477","2","0","3","2","1,0,0,0.25,0.5,0.25,0.25,0.25,0.5","1,0,0,0.25,0.5,0.25,0.25,0.25,0.5","1","",""
"","html-keyboard-response","169","155915","0.0-169.0","3LWJHTCVCD8QZO10IVHI753XLHCFQT","A2Z6NL0CTXY0ZB","3JGHED38EDDK7DFM0KVY7GXUF1ZY7A","","null","<img src=""img/land3.png"" style=""width:200px;border:14px solid red;"">","null","","","","","","","","","",""
"","image-keyboard-response","170","156599","0.0-170.0","3LWJHTCVCD8QZO10IVHI753XLHCFQT","A2Z6NL0CTXY0ZB","3JGHED38EDDK7DFM0KVY7GXUF1ZY7A","","683","img/land3.png","74","684","1","0","3","2","1,0,0,0.25,0.5,0.25,0.25,0.25,0.5","1,0,0,0.25,0.5,0.25,0.25,0.25,0.5","1","",""
"","html-keyboard-response","171","156900","0.0-171.0","3LWJHTCVCD8QZO10IVHI753XLHCFQT","A2Z6NL0CTXY0ZB","3JGHED38EDDK7DFM0KVY7GXUF1ZY7A","","null","<img src=""img/land3.png"" style=""width:200px;border:14px solid red;"">","null","","","","","","","","","",""
"","image-keyboard-response","172","157877","0.0-172.0","3LWJHTCVCD8QZO10IVHI753XLHCFQT","A2Z6NL0CTXY0ZB","3JGHED38EDDK7DFM0KVY7GXUF1ZY7A","","975","img/land3.png","76","977","3","0","3","2","1,0,0,0.25,0.5,0.25,0.25,0.25,0.5","1,0,0,0.25,0.5,0.25,0.25,0.25,0.5","1","",""
"","html-keyboard-response","173","158226","0.0-173.0","3LWJHTCVCD8QZO10IVHI753XLHCFQT","A2Z6NL0CTXY0ZB","3JGHED38EDDK7DFM0KVY7GXUF1ZY7A","","null","<img src=""img/land3.png"" style=""width:200px;border:14px solid red;"">","null","","","","","","","","","",""
"","image-keyboard-response","174","159069","0.0-174.0","3LWJHTCVCD8QZO10IVHI753XLHCFQT","A2Z6NL0CTXY0ZB","3JGHED38EDDK7DFM0KVY7GXUF1ZY7A","","832","img/land1.png","74","842","1","1","1","2","1,0,0,0.25,0.5,0.25,0.25,0.25,0.5","1,0,0,0.25,0.5,0.25,0.25,0.25,0.5","1","",""
"","html-keyboard-response","175","159371","0.0-175.0","3LWJHTCVCD8QZO10IVHI753XLHCFQT","A2Z6NL0CTXY0ZB","3JGHED38EDDK7DFM0KVY7GXUF1ZY7A","","null","<img src=""img/land1.png"" style=""width:200px; border:14px solid green;"">","null","","","","","","","","","",""
"","image-keyboard-response","176","160253","0.0-176.0","3LWJHTCVCD8QZO10IVHI753XLHCFQT","A2Z6NL0CTXY0ZB","3JGHED38EDDK7DFM0KVY7GXUF1ZY7A","","880","img/land1.png","74","882","1","1","1","2","1,0,0,0.25,0.5,0.25,0.25,0.25,0.5","1,0,0,0.25,0.5,0.25,0.25,0.25,0.5","1","",""
"","html-keyboard-response","177","160581","0.0-177.0","3LWJHTCVCD8QZO10IVHI753XLHCFQT","A2Z6NL0CTXY0ZB","3JGHED38EDDK7DFM0KVY7GXUF1ZY7A","","null","<img src=""img/land1.png"" style=""width:200px; border:14px solid green;"">","null","","","","","","","","","",""
"","image-keyboard-response","178","160901","0.0-178.0","3LWJHTCVCD8QZO10IVHI753XLHCFQT","A2Z6NL0CTXY0ZB","3JGHED38EDDK7DFM0KVY7GXUF1ZY7A","","318","img/land1.png","74","320","1","1","1","2","1,0,0,0.25,0.5,0.25,0.25,0.25,0.5","1,0,0,0.25,0.5,0.25,0.25,0.25,0.5","1","",""
"","html-keyboard-response","179","161203","0.0-179.0","3LWJHTCVCD8QZO10IVHI753XLHCFQT","A2Z6NL0CTXY0ZB","3JGHED38EDDK7DFM0KVY7GXUF1ZY7A","","null","<img src=""img/land1.png"" style=""width:200px; border:14px solid green;"">","null","","","","","","","","","",""
"","image-keyboard-response","180","161381","0.0-180.0","3LWJHTCVCD8QZO10IVHI753XLHCFQT","A2Z6NL0CTXY0ZB","3JGHED38EDDK7DFM0KVY7GXUF1ZY7A","","176","img/land1.png","74","178","1","1","1","2","1,0,0,0.25,0.5,0.25,0.25,0.25,0.5","1,0,0,0.25,0.5,0.25,0.25,0.25,0.5","1","",""
"","html-keyboard-response","181","161682","0.0-181.0","3LWJHTCVCD8QZO10IVHI753XLHCFQT","A2Z6NL0CTXY0ZB","3JGHED38EDDK7DFM0KVY7GXUF1ZY7A","","null","<img src=""img/land1.png"" style=""width:200px; border:14px solid green;"">","null","","","","","","","","","",""
"","image-keyboard-response","182","161780","0.0-182.0","3LWJHTCVCD8QZO10IVHI753XLHCFQT","A2Z6NL0CTXY0ZB","3JGHED38EDDK7DFM0KVY7GXUF1ZY7A","","97","img/land2.png","74","98","1","0","2","2","1,0,0,0.25,0.5,0.25,0.25,0.25,0.5","1,0,0,0.25,0.5,0.25,0.25,0.25,0.5","1","",""
"","html-keyboard-response","183","162153","0.0-183.0","3LWJHTCVCD8QZO10IVHI753XLHCFQT","A2Z6NL0CTXY0ZB","3JGHED38EDDK7DFM0KVY7GXUF1ZY7A","","null","<img src=""img/land2.png"" style=""width:200px;border:14px solid red;"">","null","","","","","","","","","",""
"","image-keyboard-response","184","163109","0.0-184.0","3LWJHTCVCD8QZO10IVHI753XLHCFQT","A2Z6NL0CTXY0ZB","3JGHED38EDDK7DFM0KVY7GXUF1ZY7A","","956","img/land3.png","75","956","2","0","3","2","1,0,0,0.25,0.5,0.25,0.25,0.25,0.5","1,0,0,0.25,0.5,0.25,0.25,0.25,0.5","1","",""
"","html-keyboard-response","185","163418","0.0-185.0","3LWJHTCVCD8QZO10IVHI753XLHCFQT","A2Z6NL0CTXY0ZB","3JGHED38EDDK7DFM0KVY7GXUF1ZY7A","","null","<img src=""img/land3.png"" style=""width:200px;border:14px solid red;"">","null","","","","","","","","","",""
"","image-keyboard-response","186","164109","0.0-186.0","3LWJHTCVCD8QZO10IVHI753XLHCFQT","A2Z6NL0CTXY0ZB","3JGHED38EDDK7DFM0KVY7GXUF1ZY7A","","689","img/land1.png","74","690","1","1","1","2","1,0,0,0.25,0.5,0.25,0.25,0.25,0.5","1,0,0,0.25,0.5,0.25,0.25,0.25,0.5","1","",""
"","html-keyboard-response","187","164410","0.0-187.0","3LWJHTCVCD8QZO10IVHI753XLHCFQT","A2Z6NL0CTXY0ZB","3JGHED38EDDK7DFM0KVY7GXUF1ZY7A","","null","<img src=""img/land1.png"" style=""width:200px; border:14px solid green;"">","null","","","","","","","","","",""
"","image-keyboard-response","188","165038","0.0-188.0","3LWJHTCVCD8QZO10IVHI753XLHCFQT","A2Z6NL0CTXY0ZB","3JGHED38EDDK7DFM0KVY7GXUF1ZY7A","","626","img/land1.png","74","628","1","1","1","2","1,0,0,0.25,0.5,0.25,0.25,0.25,0.5","1,0,0,0.25,0.5,0.25,0.25,0.25,0.5","1","",""
"","html-keyboard-response","189","165340","0.0-189.0","3LWJHTCVCD8QZO10IVHI753XLHCFQT","A2Z6NL0CTXY0ZB","3JGHED38EDDK7DFM0KVY7GXUF1ZY7A","","null","<img src=""img/land1.png"" style=""width:200px; border:14px solid green;"">","null","","","","","","","","","",""
"","image-keyboard-response","190","165886","0.0-190.0","3LWJHTCVCD8QZO10IVHI753XLHCFQT","A2Z6NL0CTXY0ZB","3JGHED38EDDK7DFM0KVY7GXUF1ZY7A","","545","img/land2.png","76","546","3","0","2","2","1,0,0,0.25,0.5,0.25,0.25,0.25,0.5","1,0,0,0.25,0.5,0.25,0.25,0.25,0.5","1","",""
"","html-keyboard-response","191","166266","0.0-191.0","3LWJHTCVCD8QZO10IVHI753XLHCFQT","A2Z6NL0CTXY0ZB","3JGHED38EDDK7DFM0KVY7GXUF1ZY7A","","null","<img src=""img/land2.png"" style=""width:200px;border:14px solid red;"">","null","","","","","","","","","",""
"","image-keyboard-response","192","166869","0.0-192.0","3LWJHTCVCD8QZO10IVHI753XLHCFQT","A2Z6NL0CTXY0ZB","3JGHED38EDDK7DFM0KVY7GXUF1ZY7A","","601","img/land1.png","74","603","1","1","1","2","1,0,0,0.25,0.5,0.25,0.25,0.25,0.5","1,0,0,0.25,0.5,0.25,0.25,0.25,0.5","1","",""
"","html-keyboard-response","193","167176","0.0-193.0","3LWJHTCVCD8QZO10IVHI753XLHCFQT","A2Z6NL0CTXY0ZB","3JGHED38EDDK7DFM0KVY7GXUF1ZY7A","","null","<img src=""img/land1.png"" style=""width:200px; border:14px solid green;"">","null","","","","","","","","","",""
"","image-keyboard-response","194","167668","0.0-194.0","3LWJHTCVCD8QZO10IVHI753XLHCFQT","A2Z6NL0CTXY0ZB","3JGHED38EDDK7DFM0KVY7GXUF1ZY7A","","491","img/land1.png","76","492","3","0","1","2","1,0,0,0.25,0.5,0.25,0.25,0.25,0.5","1,0,0,0.25,0.5,0.25,0.25,0.25,0.5","1","",""
"","html-keyboard-response","195","167969","0.0-195.0","3LWJHTCVCD8QZO10IVHI753XLHCFQT","A2Z6NL0CTXY0ZB","3JGHED38EDDK7DFM0KVY7GXUF1ZY7A","","null","<img src=""img/land1.png"" style=""width:200px;border:14px solid red;"">","null","","","","","","","","","",""
"","image-keyboard-response","196","168223","0.0-196.0","3LWJHTCVCD8QZO10IVHI753XLHCFQT","A2Z6NL0CTXY0ZB","3JGHED38EDDK7DFM0KVY7GXUF1ZY7A","","252","img/land2.png","74","254","1","0","2","2","1,0,0,0.25,0.5,0.25,0.25,0.25,0.5","1,0,0,0.25,0.5,0.25,0.25,0.25,0.5","1","",""
"","html-keyboard-response","197","168524","0.0-197.0","3LWJHTCVCD8QZO10IVHI753XLHCFQT","A2Z6NL0CTXY0ZB","3JGHED38EDDK7DFM0KVY7GXUF1ZY7A","","null","<img src=""img/land2.png"" style=""width:200px;border:14px solid red;"">","null","","","","","","","","","",""
"","image-keyboard-response","198","169293","0.0-198.0","3LWJHTCVCD8QZO10IVHI753XLHCFQT","A2Z6NL0CTXY0ZB","3JGHED38EDDK7DFM0KVY7GXUF1ZY7A","","767","img/land1.png","74","770","1","1","1","2","1,0,0,0.25,0.5,0.25,0.25,0.25,0.5","1,0,0,0.25,0.5,0.25,0.25,0.25,0.5","1","",""
"","html-keyboard-response","199","169599","0.0-199.0","3LWJHTCVCD8QZO10IVHI753XLHCFQT","A2Z6NL0CTXY0ZB","3JGHED38EDDK7DFM0KVY7GXUF1ZY7A","","null","<img src=""img/land1.png"" style=""width:200px; border:14px solid green;"">","null","","","","","","","","","",""
"","image-keyboard-response","200","170170","0.0-200.0","3LWJHTCVCD8QZO10IVHI753XLHCFQT","A2Z6NL0CTXY0ZB","3JGHED38EDDK7DFM0KVY7GXUF1ZY7A","","568","img/land1.png","74","570","1","1","1","2","1,0,0,0.25,0.5,0.25,0.25,0.25,0.5","1,0,0,0.25,0.5,0.25,0.25,0.25,0.5","1","",""
"","html-keyboard-response","201","170502","0.0-201.0","3LWJHTCVCD8QZO10IVHI753XLHCFQT","A2Z6NL0CTXY0ZB","3JGHED38EDDK7DFM0KVY7GXUF1ZY7A","","null","<img src=""img/land1.png"" style=""width:200px; border:14px solid green;"">","null","","","","","","","","","",""
"","image-keyboard-response","202","170901","0.0-202.0","3LWJHTCVCD8QZO10IVHI753XLHCFQT","A2Z6NL0CTXY0ZB","3JGHED38EDDK7DFM0KVY7GXUF1ZY7A","","390","img/land1.png","74","399","1","1","1","2","1,0,0,0.25,0.5,0.25,0.25,0.25,0.5","1,0,0,0.25,0.5,0.25,0.25,0.25,0.5","1","",""
"","html-keyboard-response","203","171203","0.0-203.0","3LWJHTCVCD8QZO10IVHI753XLHCFQT","A2Z6NL0CTXY0ZB","3JGHED38EDDK7DFM0KVY7GXUF1ZY7A","","null","<img src=""img/land1.png"" style=""width:200px; border:14px solid green;"">","null","","","","","","","","","",""
"","image-keyboard-response","204","171716","0.0-204.0","3LWJHTCVCD8QZO10IVHI753XLHCFQT","A2Z6NL0CTXY0ZB","3JGHED38EDDK7DFM0KVY7GXUF1ZY7A","","512","img/land1.png","74","512","1","1","1","2","1,0,0,0.25,0.5,0.25,0.25,0.25,0.5","1,0,0,0.25,0.5,0.25,0.25,0.25,0.5","1","",""
"","html-keyboard-response","205","172021","0.0-205.0","3LWJHTCVCD8QZO10IVHI753XLHCFQT","A2Z6NL0CTXY0ZB","3JGHED38EDDK7DFM0KVY7GXUF1ZY7A","","null","<img src=""img/land1.png"" style=""width:200px; border:14px solid green;"">","null","","","","","","","","","",""
"","image-keyboard-response","206","172780","0.0-206.0","3LWJHTCVCD8QZO10IVHI753XLHCFQT","A2Z6NL0CTXY0ZB","3JGHED38EDDK7DFM0KVY7GXUF1ZY7A","","758","img/land3.png","76","759","3","0","3","2","1,0,0,0.25,0.5,0.25,0.25,0.25,0.5","1,0,0,0.25,0.5,0.25,0.25,0.25,0.5","1","",""
"","html-keyboard-response","207","173081","0.0-207.0","3LWJHTCVCD8QZO10IVHI753XLHCFQT","A2Z6NL0CTXY0ZB","3JGHED38EDDK7DFM0KVY7GXUF1ZY7A","","null","<img src=""img/land3.png"" style=""width:200px;border:14px solid red;"">","null","","","","","","","","","",""
"","image-keyboard-response","208","173837","0.0-208.0","3LWJHTCVCD8QZO10IVHI753XLHCFQT","A2Z6NL0CTXY0ZB","3JGHED38EDDK7DFM0KVY7GXUF1ZY7A","","754","img/land1.png","74","756","1","1","1","2","1,0,0,0.25,0.5,0.25,0.25,0.25,0.5","1,0,0,0.25,0.5,0.25,0.25,0.25,0.5","1","",""
"","html-keyboard-response","209","174138","0.0-209.0","3LWJHTCVCD8QZO10IVHI753XLHCFQT","A2Z6NL0CTXY0ZB","3JGHED38EDDK7DFM0KVY7GXUF1ZY7A","","null","<img src=""img/land1.png"" style=""width:200px; border:14px solid green;"">","null","","","","","","","","","",""
"","image-keyboard-response","210","174429","0.0-210.0","3LWJHTCVCD8QZO10IVHI753XLHCFQT","A2Z6NL0CTXY0ZB","3JGHED38EDDK7DFM0KVY7GXUF1ZY7A","","290","img/land3.png","75","291","2","0","3","2","1,0,0,0.25,0.5,0.25,0.25,0.25,0.5","1,0,0,0.25,0.5,0.25,0.25,0.25,0.5","1","",""
"","html-keyboard-response","211","174732","0.0-211.0","3LWJHTCVCD8QZO10IVHI753XLHCFQT","A2Z6NL0CTXY0ZB","3JGHED38EDDK7DFM0KVY7GXUF1ZY7A","","null","<img src=""img/land3.png"" style=""width:200px;border:14px solid red;"">","null","","","","","","","","","",""
"","image-keyboard-response","212","175389","0.0-212.0","3LWJHTCVCD8QZO10IVHI753XLHCFQT","A2Z6NL0CTXY0ZB","3JGHED38EDDK7DFM0KVY7GXUF1ZY7A","","655","img/land2.png","74","657","1","0","2","2","1,0,0,0.25,0.5,0.25,0.25,0.25,0.5","1,0,0,0.25,0.5,0.25,0.25,0.25,0.5","1","",""
"","html-keyboard-response","213","175691","0.0-213.0","3LWJHTCVCD8QZO10IVHI753XLHCFQT","A2Z6NL0CTXY0ZB","3JGHED38EDDK7DFM0KVY7GXUF1ZY7A","","null","<img src=""img/land2.png"" style=""width:200px;border:14px solid red;"">","null","","","","","","","","","",""
"","image-keyboard-response","214","176647","0.0-214.0","3LWJHTCVCD8QZO10IVHI753XLHCFQT","A2Z6NL0CTXY0ZB","3JGHED38EDDK7DFM0KVY7GXUF1ZY7A","","954","img/land1.png","74","956","1","1","1","2","1,0,0,0.25,0.5,0.25,0.25,0.25,0.5","1,0,0,0.25,0.5,0.25,0.25,0.25,0.5","1","",""
"","html-keyboard-response","215","176951","0.0-215.0","3LWJHTCVCD8QZO10IVHI753XLHCFQT","A2Z6NL0CTXY0ZB","3JGHED38EDDK7DFM0KVY7GXUF1ZY7A","","null","<img src=""img/land1.png"" style=""width:200px; border:14px solid green;"">","null","","","","","","","","","",""
"","image-keyboard-response","216","177373","0.0-216.0","3LWJHTCVCD8QZO10IVHI753XLHCFQT","A2Z6NL0CTXY0ZB","3JGHED38EDDK7DFM0KVY7GXUF1ZY7A","","420","img/land1.png","74","422","1","1","1","2","1,0,0,0.25,0.5,0.25,0.25,0.25,0.5","1,0,0,0.25,0.5,0.25,0.25,0.25,0.5","1","",""
"","html-keyboard-response","217","177674","0.0-217.0","3LWJHTCVCD8QZO10IVHI753XLHCFQT","A2Z6NL0CTXY0ZB","3JGHED38EDDK7DFM0KVY7GXUF1ZY7A","","null","<img src=""img/land1.png"" style=""width:200px; border:14px solid green;"">","null","","","","","","","","","",""
"","image-keyboard-response","218","178020","0.0-218.0","3LWJHTCVCD8QZO10IVHI753XLHCFQT","A2Z6NL0CTXY0ZB","3JGHED38EDDK7DFM0KVY7GXUF1ZY7A","","345","img/land1.png","74","345","1","1","1","2","1,0,0,0.25,0.5,0.25,0.25,0.25,0.5","1,0,0,0.25,0.5,0.25,0.25,0.25,0.5","1","",""
"","html-keyboard-response","219","178321","0.0-219.0","3LWJHTCVCD8QZO10IVHI753XLHCFQT","A2Z6NL0CTXY0ZB","3JGHED38EDDK7DFM0KVY7GXUF1ZY7A","","null","<img src=""img/land1.png"" style=""width:200px; border:14px solid green;"">","null","","","","","","","","","",""
"","image-keyboard-response","220","178693","0.0-220.0","3LWJHTCVCD8QZO10IVHI753XLHCFQT","A2Z6NL0CTXY0ZB","3JGHED38EDDK7DFM0KVY7GXUF1ZY7A","","368","img/land1.png","74","370","1","1","1","2","1,0,0,0.25,0.5,0.25,0.25,0.25,0.5","1,0,0,0.25,0.5,0.25,0.25,0.25,0.5","1","",""
"","html-keyboard-response","221","178994","0.0-221.0","3LWJHTCVCD8QZO10IVHI753XLHCFQT","A2Z6NL0CTXY0ZB","3JGHED38EDDK7DFM0KVY7GXUF1ZY7A","","null","<img src=""img/land1.png"" style=""width:200px; border:14px solid green;"">","null","","","","","","","","","",""
"","image-keyboard-response","222","179365","0.0-222.0","3LWJHTCVCD8QZO10IVHI753XLHCFQT","A2Z6NL0CTXY0ZB","3JGHED38EDDK7DFM0KVY7GXUF1ZY7A","","369","img/land1.png","74","371","1","1","1","2","1,0,0,0.25,0.5,0.25,0.25,0.25,0.5","1,0,0,0.25,0.5,0.25,0.25,0.25,0.5","1","",""
"","html-keyboard-response","223","179666","0.0-223.0","3LWJHTCVCD8QZO10IVHI753XLHCFQT","A2Z6NL0CTXY0ZB","3JGHED38EDDK7DFM0KVY7GXUF1ZY7A","","null","<img src=""img/land1.png"" style=""width:200px; border:14px solid green;"">","null","","","","","","","","","",""
"","image-keyboard-response","224","180045","0.0-224.0","3LWJHTCVCD8QZO10IVHI753XLHCFQT","A2Z6NL0CTXY0ZB","3JGHED38EDDK7DFM0KVY7GXUF1ZY7A","","377","img/land1.png","74","379","1","1","1","2","1,0,0,0.25,0.5,0.25,0.25,0.25,0.5","1,0,0,0.25,0.5,0.25,0.25,0.25,0.5","1","",""
"","html-keyboard-response","225","180348","0.0-225.0","3LWJHTCVCD8QZO10IVHI753XLHCFQT","A2Z6NL0CTXY0ZB","3JGHED38EDDK7DFM0KVY7GXUF1ZY7A","","null","<img src=""img/land1.png"" style=""width:200px; border:14px solid green;"">","null","","","","","","","","","",""
"","image-keyboard-response","226","180717","0.0-226.0","3LWJHTCVCD8QZO10IVHI753XLHCFQT","A2Z6NL0CTXY0ZB","3JGHED38EDDK7DFM0KVY7GXUF1ZY7A","","365","img/land1.png","74","366","1","1","1","2","1,0,0,0.25,0.5,0.25,0.25,0.25,0.5","1,0,0,0.25,0.5,0.25,0.25,0.25,0.5","1","",""
"","html-keyboard-response","227","181018","0.0-227.0","3LWJHTCVCD8QZO10IVHI753XLHCFQT","A2Z6NL0CTXY0ZB","3JGHED38EDDK7DFM0KVY7GXUF1ZY7A","","null","<img src=""img/land1.png"" style=""width:200px; border:14px solid green;"">","null","","","","","","","","","",""
"","image-keyboard-response","228","181537","0.0-228.0","3LWJHTCVCD8QZO10IVHI753XLHCFQT","A2Z6NL0CTXY0ZB","3JGHED38EDDK7DFM0KVY7GXUF1ZY7A","","516","img/land2.png","76","518","3","0","2","2","1,0,0,0.25,0.5,0.25,0.25,0.25,0.5","1,0,0,0.25,0.5,0.25,0.25,0.25,0.5","1","",""
"","html-keyboard-response","229","181839","0.0-229.0","3LWJHTCVCD8QZO10IVHI753XLHCFQT","A2Z6NL0CTXY0ZB","3JGHED38EDDK7DFM0KVY7GXUF1ZY7A","","null","<img src=""img/land2.png"" style=""width:200px;border:14px solid red;"">","null","","","","","","","","","",""
"","image-keyboard-response","230","182477","0.0-230.0","3LWJHTCVCD8QZO10IVHI753XLHCFQT","A2Z6NL0CTXY0ZB","3JGHED38EDDK7DFM0KVY7GXUF1ZY7A","","636","img/land1.png","74","638","1","1","1","2","1,0,0,0.25,0.5,0.25,0.25,0.25,0.5","1,0,0,0.25,0.5,0.25,0.25,0.25,0.5","1","",""
"","html-keyboard-response","231","182800","0.0-231.0","3LWJHTCVCD8QZO10IVHI753XLHCFQT","A2Z6NL0CTXY0ZB","3JGHED38EDDK7DFM0KVY7GXUF1ZY7A","","null","<img src=""img/land1.png"" style=""width:200px; border:14px solid green;"">","null","","","","","","","","","",""
"","image-keyboard-response","232","183325","0.0-232.0","3LWJHTCVCD8QZO10IVHI753XLHCFQT","A2Z6NL0CTXY0ZB","3JGHED38EDDK7DFM0KVY7GXUF1ZY7A","","523","img/land1.png","74","525","1","1","1","2","1,0,0,0.25,0.5,0.25,0.25,0.25,0.5","1,0,0,0.25,0.5,0.25,0.25,0.25,0.5","1","",""
"","html-keyboard-response","233","183626","0.0-233.0","3LWJHTCVCD8QZO10IVHI753XLHCFQT","A2Z6NL0CTXY0ZB","3JGHED38EDDK7DFM0KVY7GXUF1ZY7A","","null","<img src=""img/land1.png"" style=""width:200px; border:14px solid green;"">","null","","","","","","","","","",""
"","image-keyboard-response","234","184733","0.0-234.0","3LWJHTCVCD8QZO10IVHI753XLHCFQT","A2Z6NL0CTXY0ZB","3JGHED38EDDK7DFM0KVY7GXUF1ZY7A","","1106","img/land3.png","76","1107","3","1","3","2","1,0,0,0.25,0.5,0.25,0.25,0.25,0.5","1,0,0,0.25,0.5,0.25,0.25,0.25,0.5","1","",""
"","html-keyboard-response","235","185036","0.0-235.0","3LWJHTCVCD8QZO10IVHI753XLHCFQT","A2Z6NL0CTXY0ZB","3JGHED38EDDK7DFM0KVY7GXUF1ZY7A","","null","<img src=""img/land3.png"" style=""width:200px; border:14px solid green;"">","null","","","","","","","","","",""
"","image-keyboard-response","236","185669","0.0-236.0","3LWJHTCVCD8QZO10IVHI753XLHCFQT","A2Z6NL0CTXY0ZB","3JGHED38EDDK7DFM0KVY7GXUF1ZY7A","","632","img/land1.png","74","633","1","1","1","2","1,0,0,0.25,0.5,0.25,0.25,0.25,0.5","1,0,0,0.25,0.5,0.25,0.25,0.25,0.5","1","",""
"","html-keyboard-response","237","185970","0.0-237.0","3LWJHTCVCD8QZO10IVHI753XLHCFQT","A2Z6NL0CTXY0ZB","3JGHED38EDDK7DFM0KVY7GXUF1ZY7A","","null","<img src=""img/land1.png"" style=""width:200px; border:14px solid green;"">","null","","","","","","","","","",""
"","image-keyboard-response","238","186380","0.0-238.0","3LWJHTCVCD8QZO10IVHI753XLHCFQT","A2Z6NL0CTXY0ZB","3JGHED38EDDK7DFM0KVY7GXUF1ZY7A","","405","img/land1.png","74","409","1","1","1","2","1,0,0,0.25,0.5,0.25,0.25,0.25,0.5","1,0,0,0.25,0.5,0.25,0.25,0.25,0.5","1","",""
"","html-keyboard-response","239","186694","0.0-239.0","3LWJHTCVCD8QZO10IVHI753XLHCFQT","A2Z6NL0CTXY0ZB","3JGHED38EDDK7DFM0KVY7GXUF1ZY7A","","null","<img src=""img/land1.png"" style=""width:200px; border:14px solid green;"">","null","","","","","","","","","",""
"","image-keyboard-response","240","186877","0.0-240.0","3LWJHTCVCD8QZO10IVHI753XLHCFQT","A2Z6NL0CTXY0ZB","3JGHED38EDDK7DFM0KVY7GXUF1ZY7A","","182","img/land3.png","74","182","1","1","3","2","1,0,0,0.25,0.5,0.25,0.25,0.25,0.5","1,0,0,0.25,0.5,0.25,0.25,0.25,0.5","1","",""
"","html-keyboard-response","241","187181","0.0-241.0","3LWJHTCVCD8QZO10IVHI753XLHCFQT","A2Z6NL0CTXY0ZB","3JGHED38EDDK7DFM0KVY7GXUF1ZY7A","","null","<img src=""img/land3.png"" style=""width:200px; border:14px solid green;"">","null","","","","","","","","","",""
"","image-keyboard-response","242","188047","0.0-242.0","3LWJHTCVCD8QZO10IVHI753XLHCFQT","A2Z6NL0CTXY0ZB","3JGHED38EDDK7DFM0KVY7GXUF1ZY7A","","863","img/land1.png","74","866","1","1","1","2","1,0,0,0.25,0.5,0.25,0.25,0.25,0.5","1,0,0,0.25,0.5,0.25,0.25,0.25,0.5","1","",""
"","html-keyboard-response","243","188348","0.0-243.0","3LWJHTCVCD8QZO10IVHI753XLHCFQT","A2Z6NL0CTXY0ZB","3JGHED38EDDK7DFM0KVY7GXUF1ZY7A","","null","<img src=""img/land1.png"" style=""width:200px; border:14px solid green;"">","null","","","","","","","","","",""
"","image-keyboard-response","244","189949","0.0-244.0","3LWJHTCVCD8QZO10IVHI753XLHCFQT","A2Z6NL0CTXY0ZB","3JGHED38EDDK7DFM0KVY7GXUF1ZY7A","","1598","img/land2.png","76","1601","3","0","2","2","1,0,0,0.25,0.5,0.25,0.25,0.25,0.5","1,0,0,0.25,0.5,0.25,0.25,0.25,0.5","1","",""
"","html-keyboard-response","245","190251","0.0-245.0","3LWJHTCVCD8QZO10IVHI753XLHCFQT","A2Z6NL0CTXY0ZB","3JGHED38EDDK7DFM0KVY7GXUF1ZY7A","","null","<img src=""img/land2.png"" style=""width:200px;border:14px solid red;"">","null","","","","","","","","","",""
"","image-keyboard-response","246","191021","0.0-246.0","3LWJHTCVCD8QZO10IVHI753XLHCFQT","A2Z6NL0CTXY0ZB","3JGHED38EDDK7DFM0KVY7GXUF1ZY7A","","768","img/land2.png","75","770","2","0","2","2","1,0,0,0.25,0.5,0.25,0.25,0.25,0.5","1,0,0,0.25,0.5,0.25,0.25,0.25,0.5","1","",""
"","html-keyboard-response","247","191323","0.0-247.0","3LWJHTCVCD8QZO10IVHI753XLHCFQT","A2Z6NL0CTXY0ZB","3JGHED38EDDK7DFM0KVY7GXUF1ZY7A","","null","<img src=""img/land2.png"" style=""width:200px;border:14px solid red;"">","null","","","","","","","","","",""
"","image-keyboard-response","248","191829","0.0-248.0","3LWJHTCVCD8QZO10IVHI753XLHCFQT","A2Z6NL0CTXY0ZB","3JGHED38EDDK7DFM0KVY7GXUF1ZY7A","","504","img/land2.png","74","506","1","0","2","2","1,0,0,0.25,0.5,0.25,0.25,0.25,0.5","1,0,0,0.25,0.5,0.25,0.25,0.25,0.5","1","",""
"","html-keyboard-response","249","192129","0.0-249.0","3LWJHTCVCD8QZO10IVHI753XLHCFQT","A2Z6NL0CTXY0ZB","3JGHED38EDDK7DFM0KVY7GXUF1ZY7A","","null","<img src=""img/land2.png"" style=""width:200px;border:14px solid red;"">","null","","","","","","","","","",""
"","image-keyboard-response","250","192861","0.0-250.0","3LWJHTCVCD8QZO10IVHI753XLHCFQT","A2Z6NL0CTXY0ZB","3JGHED38EDDK7DFM0KVY7GXUF1ZY7A","","730","img/land1.png","76","732","3","0","1","2","1,0,0,0.25,0.5,0.25,0.25,0.25,0.5","1,0,0,0.25,0.5,0.25,0.25,0.25,0.5","1","",""
"","html-keyboard-response","251","193163","0.0-251.0","3LWJHTCVCD8QZO10IVHI753XLHCFQT","A2Z6NL0CTXY0ZB","3JGHED38EDDK7DFM0KVY7GXUF1ZY7A","","null","<img src=""img/land1.png"" style=""width:200px;border:14px solid red;"">","null","","","","","","","","","",""
"","image-keyboard-response","252","193588","0.0-252.0","3LWJHTCVCD8QZO10IVHI753XLHCFQT","A2Z6NL0CTXY0ZB","3JGHED38EDDK7DFM0KVY7GXUF1ZY7A","","424","img/land1.png","74","425","1","1","1","2","1,0,0,0.25,0.5,0.25,0.25,0.25,0.5","1,0,0,0.25,0.5,0.25,0.25,0.25,0.5","1","",""
"","html-keyboard-response","253","193889","0.0-253.0","3LWJHTCVCD8QZO10IVHI753XLHCFQT","A2Z6NL0CTXY0ZB","3JGHED38EDDK7DFM0KVY7GXUF1ZY7A","","null","<img src=""img/land1.png"" style=""width:200px; border:14px solid green;"">","null","","","","","","","","","",""
"","image-keyboard-response","254","194221","0.0-254.0","3LWJHTCVCD8QZO10IVHI753XLHCFQT","A2Z6NL0CTXY0ZB","3JGHED38EDDK7DFM0KVY7GXUF1ZY7A","","330","img/land1.png","74","332","1","1","1","2","1,0,0,0.25,0.5,0.25,0.25,0.25,0.5","1,0,0,0.25,0.5,0.25,0.25,0.25,0.5","1","",""
"","html-keyboard-response","255","194582","0.0-255.0","3LWJHTCVCD8QZO10IVHI753XLHCFQT","A2Z6NL0CTXY0ZB","3JGHED38EDDK7DFM0KVY7GXUF1ZY7A","","null","<img src=""img/land1.png"" style=""width:200px; border:14px solid green;"">","null","","","","","","","","","",""
"","image-keyboard-response","256","194911","0.0-256.0","3LWJHTCVCD8QZO10IVHI753XLHCFQT","A2Z6NL0CTXY0ZB","3JGHED38EDDK7DFM0KVY7GXUF1ZY7A","","326","img/land1.png","74","328","1","1","1","2","1,0,0,0.25,0.5,0.25,0.25,0.25,0.5","1,0,0,0.25,0.5,0.25,0.25,0.25,0.5","1","",""
"","html-keyboard-response","257","195213","0.0-257.0","3LWJHTCVCD8QZO10IVHI753XLHCFQT","A2Z6NL0CTXY0ZB","3JGHED38EDDK7DFM0KVY7GXUF1ZY7A","","null","<img src=""img/land1.png"" style=""width:200px; border:14px solid green;"">","null","","","","","","","","","",""
"","image-keyboard-response","258","196236","0.0-258.0","3LWJHTCVCD8QZO10IVHI753XLHCFQT","A2Z6NL0CTXY0ZB","3JGHED38EDDK7DFM0KVY7GXUF1ZY7A","","1022","img/land3.png","74","1023","1","0","3","2","1,0,0,0.25,0.5,0.25,0.25,0.25,0.5","1,0,0,0.25,0.5,0.25,0.25,0.25,0.5","1","",""
"","html-keyboard-response","259","196540","0.0-259.0","3LWJHTCVCD8QZO10IVHI753XLHCFQT","A2Z6NL0CTXY0ZB","3JGHED38EDDK7DFM0KVY7GXUF1ZY7A","","null","<img src=""img/land3.png"" style=""width:200px;border:14px solid red;"">","null","","","","","","","","","",""
"","image-keyboard-response","260","197064","0.0-260.0","3LWJHTCVCD8QZO10IVHI753XLHCFQT","A2Z6NL0CTXY0ZB","3JGHED38EDDK7DFM0KVY7GXUF1ZY7A","","522","img/land1.png","74","523","1","1","1","2","1,0,0,0.25,0.5,0.25,0.25,0.25,0.5","1,0,0,0.25,0.5,0.25,0.25,0.25,0.5","1","",""
"","html-keyboard-response","261","197365","0.0-261.0","3LWJHTCVCD8QZO10IVHI753XLHCFQT","A2Z6NL0CTXY0ZB","3JGHED38EDDK7DFM0KVY7GXUF1ZY7A","","null","<img src=""img/land1.png"" style=""width:200px; border:14px solid green;"">","null","","","","","","","","","",""
"","image-keyboard-response","262","197790","0.0-262.0","3LWJHTCVCD8QZO10IVHI753XLHCFQT","A2Z6NL0CTXY0ZB","3JGHED38EDDK7DFM0KVY7GXUF1ZY7A","","423","img/land1.png","74","425","1","1","1","2","1,0,0,0.25,0.5,0.25,0.25,0.25,0.5","1,0,0,0.25,0.5,0.25,0.25,0.25,0.5","1","",""
"","html-keyboard-response","263","198096","0.0-263.0","3LWJHTCVCD8QZO10IVHI753XLHCFQT","A2Z6NL0CTXY0ZB","3JGHED38EDDK7DFM0KVY7GXUF1ZY7A","","null","<img src=""img/land1.png"" style=""width:200px; border:14px solid green;"">","null","","","","","","","","","",""
"","image-keyboard-response","264","198261","0.0-264.0","3LWJHTCVCD8QZO10IVHI753XLHCFQT","A2Z6NL0CTXY0ZB","3JGHED38EDDK7DFM0KVY7GXUF1ZY7A","","163","img/land1.png","74","165","1","1","1","2","1,0,0,0.25,0.5,0.25,0.25,0.25,0.5","1,0,0,0.25,0.5,0.25,0.25,0.25,0.5","1","",""
"","html-keyboard-response","265","198562","0.0-265.0","3LWJHTCVCD8QZO10IVHI753XLHCFQT","A2Z6NL0CTXY0ZB","3JGHED38EDDK7DFM0KVY7GXUF1ZY7A","","null","<img src=""img/land1.png"" style=""width:200px; border:14px solid green;"">","null","","","","","","","","","",""
"","image-keyboard-response","266","198916","0.0-266.0","3LWJHTCVCD8QZO10IVHI753XLHCFQT","A2Z6NL0CTXY0ZB","3JGHED38EDDK7DFM0KVY7GXUF1ZY7A","","353","img/land1.png","74","354","1","1","1","2","1,0,0,0.25,0.5,0.25,0.25,0.25,0.5","1,0,0,0.25,0.5,0.25,0.25,0.25,0.5","1","",""
"","html-keyboard-response","267","199221","0.0-267.0","3LWJHTCVCD8QZO10IVHI753XLHCFQT","A2Z6NL0CTXY0ZB","3JGHED38EDDK7DFM0KVY7GXUF1ZY7A","","null","<img src=""img/land1.png"" style=""width:200px; border:14px solid green;"">","null","","","","","","","","","",""
"","image-keyboard-response","268","199676","0.0-268.0","3LWJHTCVCD8QZO10IVHI753XLHCFQT","A2Z6NL0CTXY0ZB","3JGHED38EDDK7DFM0KVY7GXUF1ZY7A","","454","img/land1.png","74","455","1","1","1","2","1,0,0,0.25,0.5,0.25,0.25,0.25,0.5","1,0,0,0.25,0.5,0.25,0.25,0.25,0.5","1","",""
"","html-keyboard-response","269","199977","0.0-269.0","3LWJHTCVCD8QZO10IVHI753XLHCFQT","A2Z6NL0CTXY0ZB","3JGHED38EDDK7DFM0KVY7GXUF1ZY7A","","null","<img src=""img/land1.png"" style=""width:200px; border:14px solid green;"">","null","","","","","","","","","",""
"","image-keyboard-response","270","200349","0.0-270.0","3LWJHTCVCD8QZO10IVHI753XLHCFQT","A2Z6NL0CTXY0ZB","3JGHED38EDDK7DFM0KVY7GXUF1ZY7A","","371","img/land1.png","74","372","1","1","1","2","1,0,0,0.25,0.5,0.25,0.25,0.25,0.5","1,0,0,0.25,0.5,0.25,0.25,0.25,0.5","1","",""
"","html-keyboard-response","271","200650","0.0-271.0","3LWJHTCVCD8QZO10IVHI753XLHCFQT","A2Z6NL0CTXY0ZB","3JGHED38EDDK7DFM0KVY7GXUF1ZY7A","","null","<img src=""img/land1.png"" style=""width:200px; border:14px solid green;"">","null","","","","","","","","","",""
"","image-keyboard-response","272","201045","0.0-272.0","3LWJHTCVCD8QZO10IVHI753XLHCFQT","A2Z6NL0CTXY0ZB","3JGHED38EDDK7DFM0KVY7GXUF1ZY7A","","394","img/land1.png","74","395","1","1","1","2","1,0,0,0.25,0.5,0.25,0.25,0.25,0.5","1,0,0,0.25,0.5,0.25,0.25,0.25,0.5","1","",""
"","html-keyboard-response","273","201347","0.0-273.0","3LWJHTCVCD8QZO10IVHI753XLHCFQT","A2Z6NL0CTXY0ZB","3JGHED38EDDK7DFM0KVY7GXUF1ZY7A","","null","<img src=""img/land1.png"" style=""width:200px; border:14px solid green;"">","null","","","","","","","","","",""
"","image-keyboard-response","274","201871","0.0-274.0","3LWJHTCVCD8QZO10IVHI753XLHCFQT","A2Z6NL0CTXY0ZB","3JGHED38EDDK7DFM0KVY7GXUF1ZY7A","","522","img/land3.png","76","524","3","0","3","2","1,0,0,0.25,0.5,0.25,0.25,0.25,0.5","1,0,0,0.25,0.5,0.25,0.25,0.25,0.5","1","",""
"","html-keyboard-response","275","202227","0.0-275.0","3LWJHTCVCD8QZO10IVHI753XLHCFQT","A2Z6NL0CTXY0ZB","3JGHED38EDDK7DFM0KVY7GXUF1ZY7A","","null","<img src=""img/land3.png"" style=""width:200px;border:14px solid red;"">","null","","","","","","","","","",""
"","image-keyboard-response","276","202805","0.0-276.0","3LWJHTCVCD8QZO10IVHI753XLHCFQT","A2Z6NL0CTXY0ZB","3JGHED38EDDK7DFM0KVY7GXUF1ZY7A","","576","img/land1.png","74","578","1","1","1","2","1,0,0,0.25,0.5,0.25,0.25,0.25,0.5","1,0,0,0.25,0.5,0.25,0.25,0.25,0.5","1","",""
"","html-keyboard-response","277","203107","0.0-277.0","3LWJHTCVCD8QZO10IVHI753XLHCFQT","A2Z6NL0CTXY0ZB","3JGHED38EDDK7DFM0KVY7GXUF1ZY7A","","null","<img src=""img/land1.png"" style=""width:200px; border:14px solid green;"">","null","","","","","","","","","",""
"","image-keyboard-response","278","203586","0.0-278.0","3LWJHTCVCD8QZO10IVHI753XLHCFQT","A2Z6NL0CTXY0ZB","3JGHED38EDDK7DFM0KVY7GXUF1ZY7A","","477","img/land3.png","74","479","1","0","3","2","1,0,0,0.25,0.5,0.25,0.25,0.25,0.5","1,0,0,0.25,0.5,0.25,0.25,0.25,0.5","1","",""
"","html-keyboard-response","279","203888","0.0-279.0","3LWJHTCVCD8QZO10IVHI753XLHCFQT","A2Z6NL0CTXY0ZB","3JGHED38EDDK7DFM0KVY7GXUF1ZY7A","","null","<img src=""img/land3.png"" style=""width:200px;border:14px solid red;"">","null","","","","","","","","","",""
"","image-keyboard-response","280","204879","0.0-280.0","3LWJHTCVCD8QZO10IVHI753XLHCFQT","A2Z6NL0CTXY0ZB","3JGHED38EDDK7DFM0KVY7GXUF1ZY7A","","989","img/land1.png","74","991","1","1","1","2","1,0,0,0.25,0.5,0.25,0.25,0.25,0.5","1,0,0,0.25,0.5,0.25,0.25,0.25,0.5","1","",""
"","html-keyboard-response","281","205180","0.0-281.0","3LWJHTCVCD8QZO10IVHI753XLHCFQT","A2Z6NL0CTXY0ZB","3JGHED38EDDK7DFM0KVY7GXUF1ZY7A","","null","<img src=""img/land1.png"" style=""width:200px; border:14px solid green;"">","null","","","","","","","","","",""
"","image-keyboard-response","282","205525","0.0-282.0","3LWJHTCVCD8QZO10IVHI753XLHCFQT","A2Z6NL0CTXY0ZB","3JGHED38EDDK7DFM0KVY7GXUF1ZY7A","","344","img/land1.png","75","345","2","0","1","2","1,0,0,0.25,0.5,0.25,0.25,0.25,0.5","1,0,0,0.25,0.5,0.25,0.25,0.25,0.5","1","",""
"","html-keyboard-response","283","205827","0.0-283.0","3LWJHTCVCD8QZO10IVHI753XLHCFQT","A2Z6NL0CTXY0ZB","3JGHED38EDDK7DFM0KVY7GXUF1ZY7A","","null","<img src=""img/land1.png"" style=""width:200px;border:14px solid red;"">","null","","","","","","","","","",""
"","image-keyboard-response","284","206046","0.0-284.0","3LWJHTCVCD8QZO10IVHI753XLHCFQT","A2Z6NL0CTXY0ZB","3JGHED38EDDK7DFM0KVY7GXUF1ZY7A","","217","img/land2.png","74","219","1","0","2","2","1,0,0,0.25,0.5,0.25,0.25,0.25,0.5","1,0,0,0.25,0.5,0.25,0.25,0.25,0.5","1","",""
"","html-keyboard-response","285","206391","0.0-285.0","3LWJHTCVCD8QZO10IVHI753XLHCFQT","A2Z6NL0CTXY0ZB","3JGHED38EDDK7DFM0KVY7GXUF1ZY7A","","null","<img src=""img/land2.png"" style=""width:200px;border:14px solid red;"">","null","","","","","","","","","",""
"","image-keyboard-response","286","206944","0.0-286.0","3LWJHTCVCD8QZO10IVHI753XLHCFQT","A2Z6NL0CTXY0ZB","3JGHED38EDDK7DFM0KVY7GXUF1ZY7A","","549","img/land3.png","76","552","3","0","3","2","1,0,0,0.25,0.5,0.25,0.25,0.25,0.5","1,0,0,0.25,0.5,0.25,0.25,0.25,0.5","1","",""
"","html-keyboard-response","287","207246","0.0-287.0","3LWJHTCVCD8QZO10IVHI753XLHCFQT","A2Z6NL0CTXY0ZB","3JGHED38EDDK7DFM0KVY7GXUF1ZY7A","","null","<img src=""img/land3.png"" style=""width:200px;border:14px solid red;"">","null","","","","","","","","","",""
"","image-keyboard-response","288","207989","0.0-288.0","3LWJHTCVCD8QZO10IVHI753XLHCFQT","A2Z6NL0CTXY0ZB","3JGHED38EDDK7DFM0KVY7GXUF1ZY7A","","741","img/land1.png","74","743","1","1","1","2","1,0,0,0.25,0.5,0.25,0.25,0.25,0.5","1,0,0,0.25,0.5,0.25,0.25,0.25,0.5","1","",""
"","html-keyboard-response","289","208291","0.0-289.0","3LWJHTCVCD8QZO10IVHI753XLHCFQT","A2Z6NL0CTXY0ZB","3JGHED38EDDK7DFM0KVY7GXUF1ZY7A","","null","<img src=""img/land1.png"" style=""width:200px; border:14px solid green;"">","null","","","","","","","","","",""
"","image-keyboard-response","290","208685","0.0-290.0","3LWJHTCVCD8QZO10IVHI753XLHCFQT","A2Z6NL0CTXY0ZB","3JGHED38EDDK7DFM0KVY7GXUF1ZY7A","","392","img/land1.png","74","393","1","1","1","2","1,0,0,0.25,0.5,0.25,0.25,0.25,0.5","1,0,0,0.25,0.5,0.25,0.25,0.25,0.5","1","",""
"","html-keyboard-response","291","208987","0.0-291.0","3LWJHTCVCD8QZO10IVHI753XLHCFQT","A2Z6NL0CTXY0ZB","3JGHED38EDDK7DFM0KVY7GXUF1ZY7A","","null","<img src=""img/land1.png"" style=""width:200px; border:14px solid green;"">","null","","","","","","","","","",""
"","image-keyboard-response","292","209733","0.0-292.0","3LWJHTCVCD8QZO10IVHI753XLHCFQT","A2Z6NL0CTXY0ZB","3JGHED38EDDK7DFM0KVY7GXUF1ZY7A","","743","img/land3.png","76","745","3","0","3","2","1,0,0,0.25,0.5,0.25,0.25,0.25,0.5","1,0,0,0.25,0.5,0.25,0.25,0.25,0.5","1","",""
"","html-keyboard-response","293","210034","0.0-293.0","3LWJHTCVCD8QZO10IVHI753XLHCFQT","A2Z6NL0CTXY0ZB","3JGHED38EDDK7DFM0KVY7GXUF1ZY7A","","null","<img src=""img/land3.png"" style=""width:200px;border:14px solid red;"">","null","","","","","","","","","",""
"","image-keyboard-response","294","210429","0.0-294.0","3LWJHTCVCD8QZO10IVHI753XLHCFQT","A2Z6NL0CTXY0ZB","3JGHED38EDDK7DFM0KVY7GXUF1ZY7A","","394","img/land1.png","74","395","1","1","1","2","1,0,0,0.25,0.5,0.25,0.25,0.25,0.5","1,0,0,0.25,0.5,0.25,0.25,0.25,0.5","1","",""
"","html-keyboard-response","295","210731","0.0-295.0","3LWJHTCVCD8QZO10IVHI753XLHCFQT","A2Z6NL0CTXY0ZB","3JGHED38EDDK7DFM0KVY7GXUF1ZY7A","","null","<img src=""img/land1.png"" style=""width:200px; border:14px solid green;"">","null","","","","","","","","","",""
"","image-keyboard-response","296","211069","0.0-296.0","3LWJHTCVCD8QZO10IVHI753XLHCFQT","A2Z6NL0CTXY0ZB","3JGHED38EDDK7DFM0KVY7GXUF1ZY7A","","337","img/land1.png","74","339","1","1","1","2","1,0,0,0.25,0.5,0.25,0.25,0.25,0.5","1,0,0,0.25,0.5,0.25,0.25,0.25,0.5","1","",""
"","html-keyboard-response","297","211415","0.0-297.0","3LWJHTCVCD8QZO10IVHI753XLHCFQT","A2Z6NL0CTXY0ZB","3JGHED38EDDK7DFM0KVY7GXUF1ZY7A","","null","<img src=""img/land1.png"" style=""width:200px; border:14px solid green;"">","null","","","","","","","","","",""
"","image-keyboard-response","298","211597","0.0-298.0","3LWJHTCVCD8QZO10IVHI753XLHCFQT","A2Z6NL0CTXY0ZB","3JGHED38EDDK7DFM0KVY7GXUF1ZY7A","","181","img/land1.png","74","182","1","1","1","2","1,0,0,0.25,0.5,0.25,0.25,0.25,0.5","1,0,0,0.25,0.5,0.25,0.25,0.25,0.5","1","",""
"","html-keyboard-response","299","211898","0.0-299.0","3LWJHTCVCD8QZO10IVHI753XLHCFQT","A2Z6NL0CTXY0ZB","3JGHED38EDDK7DFM0KVY7GXUF1ZY7A","","null","<img src=""img/land1.png"" style=""width:200px; border:14px solid green;"">","null","","","","","","","","","",""
"","image-keyboard-response","300","212733","0.0-300.0","3LWJHTCVCD8QZO10IVHI753XLHCFQT","A2Z6NL0CTXY0ZB","3JGHED38EDDK7DFM0KVY7GXUF1ZY7A","","832","img/land2.png","76","834","3","0","2","2","1,0,0,0.25,0.5,0.25,0.25,0.25,0.5","1,0,0,0.25,0.5,0.25,0.25,0.25,0.5","1","",""
"","html-keyboard-response","301","213034","0.0-301.0","3LWJHTCVCD8QZO10IVHI753XLHCFQT","A2Z6NL0CTXY0ZB","3JGHED38EDDK7DFM0KVY7GXUF1ZY7A","","null","<img src=""img/land2.png"" style=""width:200px;border:14px solid red;"">","null","","","","","","","","","",""
"","image-keyboard-response","302","214429","0.0-302.0","3LWJHTCVCD8QZO10IVHI753XLHCFQT","A2Z6NL0CTXY0ZB","3JGHED38EDDK7DFM0KVY7GXUF1ZY7A","","1393","img/land6.png","75","1394","2","0","3","1","1,0,0,0.25,0.5,0.25,0.25,0.25,0.5","0,0,1,0.25,0.5,0.25,0.5,0.25,0.25","2","",""
"","html-keyboard-response","303","214730","0.0-303.0","3LWJHTCVCD8QZO10IVHI753XLHCFQT","A2Z6NL0CTXY0ZB","3JGHED38EDDK7DFM0KVY7GXUF1ZY7A","","null","<img src=""img/land6.png"" style=""width:200px;border:14px solid red;"">","null","","","","","","","","","",""
"","image-keyboard-response","304","215597","0.0-304.0","3LWJHTCVCD8QZO10IVHI753XLHCFQT","A2Z6NL0CTXY0ZB","3JGHED38EDDK7DFM0KVY7GXUF1ZY7A","","865","img/land5.png","76","867","3","0","2","1","1,0,0,0.25,0.5,0.25,0.25,0.25,0.5","0,0,1,0.25,0.5,0.25,0.5,0.25,0.25","2","",""
"","html-keyboard-response","305","215899","0.0-305.0","3LWJHTCVCD8QZO10IVHI753XLHCFQT","A2Z6NL0CTXY0ZB","3JGHED38EDDK7DFM0KVY7GXUF1ZY7A","","null","<img src=""img/land5.png"" style=""width:200px;border:14px solid red;"">","null","","","","","","","","","",""
"","image-keyboard-response","306","216477","0.0-306.0","3LWJHTCVCD8QZO10IVHI753XLHCFQT","A2Z6NL0CTXY0ZB","3JGHED38EDDK7DFM0KVY7GXUF1ZY7A","","577","img/land5.png","74","578","1","1","2","1","1,0,0,0.25,0.5,0.25,0.25,0.25,0.5","0,0,1,0.25,0.5,0.25,0.5,0.25,0.25","2","",""
"","html-keyboard-response","307","216779","0.0-307.0","3LWJHTCVCD8QZO10IVHI753XLHCFQT","A2Z6NL0CTXY0ZB","3JGHED38EDDK7DFM0KVY7GXUF1ZY7A","","null","<img src=""img/land5.png"" style=""width:200px; border:14px solid green;"">","null","","","","","","","","","",""
"","image-keyboard-response","308","217610","0.0-308.0","3LWJHTCVCD8QZO10IVHI753XLHCFQT","A2Z6NL0CTXY0ZB","3JGHED38EDDK7DFM0KVY7GXUF1ZY7A","","830","img/land6.png","74","830","1","1","3","1","1,0,0,0.25,0.5,0.25,0.25,0.25,0.5","0,0,1,0.25,0.5,0.25,0.5,0.25,0.25","2","",""
"","html-keyboard-response","309","217911","0.0-309.0","3LWJHTCVCD8QZO10IVHI753XLHCFQT","A2Z6NL0CTXY0ZB","3JGHED38EDDK7DFM0KVY7GXUF1ZY7A","","null","<img src=""img/land6.png"" style=""width:200px; border:14px solid green;"">","null","","","","","","","","","",""
"","image-keyboard-response","310","218845","0.0-310.0","3LWJHTCVCD8QZO10IVHI753XLHCFQT","A2Z6NL0CTXY0ZB","3JGHED38EDDK7DFM0KVY7GXUF1ZY7A","","933","img/land4.png","76","934","3","1","1","1","1,0,0,0.25,0.5,0.25,0.25,0.25,0.5","0,0,1,0.25,0.5,0.25,0.5,0.25,0.25","2","",""
"","html-keyboard-response","311","219146","0.0-311.0","3LWJHTCVCD8QZO10IVHI753XLHCFQT","A2Z6NL0CTXY0ZB","3JGHED38EDDK7DFM0KVY7GXUF1ZY7A","","null","<img src=""img/land4.png"" style=""width:200px; border:14px solid green;"">","null","","","","","","","","","",""
"","image-keyboard-response","312","219749","0.0-312.0","3LWJHTCVCD8QZO10IVHI753XLHCFQT","A2Z6NL0CTXY0ZB","3JGHED38EDDK7DFM0KVY7GXUF1ZY7A","","601","img/land6.png","74","603","1","1","3","1","1,0,0,0.25,0.5,0.25,0.25,0.25,0.5","0,0,1,0.25,0.5,0.25,0.5,0.25,0.25","2","",""
"","html-keyboard-response","313","220050","0.0-313.0","3LWJHTCVCD8QZO10IVHI753XLHCFQT","A2Z6NL0CTXY0ZB","3JGHED38EDDK7DFM0KVY7GXUF1ZY7A","","null","<img src=""img/land6.png"" style=""width:200px; border:14px solid green;"">","null","","","","","","","","","",""
"","image-keyboard-response","314","220677","0.0-314.0","3LWJHTCVCD8QZO10IVHI753XLHCFQT","A2Z6NL0CTXY0ZB","3JGHED38EDDK7DFM0KVY7GXUF1ZY7A","","625","img/land5.png","75","627","2","0","2","1","1,0,0,0.25,0.5,0.25,0.25,0.25,0.5","0,0,1,0.25,0.5,0.25,0.5,0.25,0.25","2","",""
"","html-keyboard-response","315","220987","0.0-315.0","3LWJHTCVCD8QZO10IVHI753XLHCFQT","A2Z6NL0CTXY0ZB","3JGHED38EDDK7DFM0KVY7GXUF1ZY7A","","null","<img src=""img/land5.png"" style=""width:200px;border:14px solid red;"">","null","","","","","","","","","",""
"","image-keyboard-response","316","221532","0.0-316.0","3LWJHTCVCD8QZO10IVHI753XLHCFQT","A2Z6NL0CTXY0ZB","3JGHED38EDDK7DFM0KVY7GXUF1ZY7A","","544","img/land5.png","76","545","3","0","2","1","1,0,0,0.25,0.5,0.25,0.25,0.25,0.5","0,0,1,0.25,0.5,0.25,0.5,0.25,0.25","2","",""
"","html-keyboard-response","317","221835","0.0-317.0","3LWJHTCVCD8QZO10IVHI753XLHCFQT","A2Z6NL0CTXY0ZB","3JGHED38EDDK7DFM0KVY7GXUF1ZY7A","","null","<img src=""img/land5.png"" style=""width:200px;border:14px solid red;"">","null","","","","","","","","","",""
"","image-keyboard-response","318","222307","0.0-318.0","3LWJHTCVCD8QZO10IVHI753XLHCFQT","A2Z6NL0CTXY0ZB","3JGHED38EDDK7DFM0KVY7GXUF1ZY7A","","470","img/land4.png","74","471","1","0","1","1","1,0,0,0.25,0.5,0.25,0.25,0.25,0.5","0,0,1,0.25,0.5,0.25,0.5,0.25,0.25","2","",""
"","html-keyboard-response","319","222639","0.0-319.0","3LWJHTCVCD8QZO10IVHI753XLHCFQT","A2Z6NL0CTXY0ZB","3JGHED38EDDK7DFM0KVY7GXUF1ZY7A","","null","<img src=""img/land4.png"" style=""width:200px;border:14px solid red;"">","null","","","","","","","","","",""
"","image-keyboard-response","320","223381","0.0-320.0","3LWJHTCVCD8QZO10IVHI753XLHCFQT","A2Z6NL0CTXY0ZB","3JGHED38EDDK7DFM0KVY7GXUF1ZY7A","","740","img/land6.png","74","741","1","1","3","1","1,0,0,0.25,0.5,0.25,0.25,0.25,0.5","0,0,1,0.25,0.5,0.25,0.5,0.25,0.25","2","",""
"","html-keyboard-response","321","223682","0.0-321.0","3LWJHTCVCD8QZO10IVHI753XLHCFQT","A2Z6NL0CTXY0ZB","3JGHED38EDDK7DFM0KVY7GXUF1ZY7A","","null","<img src=""img/land6.png"" style=""width:200px; border:14px solid green;"">","null","","","","","","","","","",""
"","image-keyboard-response","322","224581","0.0-322.0","3LWJHTCVCD8QZO10IVHI753XLHCFQT","A2Z6NL0CTXY0ZB","3JGHED38EDDK7DFM0KVY7GXUF1ZY7A","","897","img/land4.png","76","899","3","1","1","1","1,0,0,0.25,0.5,0.25,0.25,0.25,0.5","0,0,1,0.25,0.5,0.25,0.5,0.25,0.25","2","",""
"","html-keyboard-response","323","224927","0.0-323.0","3LWJHTCVCD8QZO10IVHI753XLHCFQT","A2Z6NL0CTXY0ZB","3JGHED38EDDK7DFM0KVY7GXUF1ZY7A","","null","<img src=""img/land4.png"" style=""width:200px; border:14px solid green;"">","null","","","","","","","","","",""
"","image-keyboard-response","324","225462","0.0-324.0","3LWJHTCVCD8QZO10IVHI753XLHCFQT","A2Z6NL0CTXY0ZB","3JGHED38EDDK7DFM0KVY7GXUF1ZY7A","","533","img/land6.png","74","535","1","1","3","1","1,0,0,0.25,0.5,0.25,0.25,0.25,0.5","0,0,1,0.25,0.5,0.25,0.5,0.25,0.25","2","",""
"","html-keyboard-response","325","225764","0.0-325.0","3LWJHTCVCD8QZO10IVHI753XLHCFQT","A2Z6NL0CTXY0ZB","3JGHED38EDDK7DFM0KVY7GXUF1ZY7A","","null","<img src=""img/land6.png"" style=""width:200px; border:14px solid green;"">","null","","","","","","","","","",""
"","image-keyboard-response","326","226933","0.0-326.0","3LWJHTCVCD8QZO10IVHI753XLHCFQT","A2Z6NL0CTXY0ZB","3JGHED38EDDK7DFM0KVY7GXUF1ZY7A","","1168","img/land5.png","75","1169","2","1","2","1","1,0,0,0.25,0.5,0.25,0.25,0.25,0.5","0,0,1,0.25,0.5,0.25,0.5,0.25,0.25","2","",""
"","html-keyboard-response","327","227330","0.0-327.0","3LWJHTCVCD8QZO10IVHI753XLHCFQT","A2Z6NL0CTXY0ZB","3JGHED38EDDK7DFM0KVY7GXUF1ZY7A","","null","<img src=""img/land5.png"" style=""width:200px; border:14px solid green;"">","null","","","","","","","","","",""
"","image-keyboard-response","328","227933","0.0-328.0","3LWJHTCVCD8QZO10IVHI753XLHCFQT","A2Z6NL0CTXY0ZB","3JGHED38EDDK7DFM0KVY7GXUF1ZY7A","","601","img/land6.png","74","603","1","0","3","1","1,0,0,0.25,0.5,0.25,0.25,0.25,0.5","0,0,1,0.25,0.5,0.25,0.5,0.25,0.25","2","",""
"","html-keyboard-response","329","228235","0.0-329.0","3LWJHTCVCD8QZO10IVHI753XLHCFQT","A2Z6NL0CTXY0ZB","3JGHED38EDDK7DFM0KVY7GXUF1ZY7A","","null","<img src=""img/land6.png"" style=""width:200px;border:14px solid red;"">","null","","","","","","","","","",""
"","image-keyboard-response","330","229300","0.0-330.0","3LWJHTCVCD8QZO10IVHI753XLHCFQT","A2Z6NL0CTXY0ZB","3JGHED38EDDK7DFM0KVY7GXUF1ZY7A","","1063","img/land5.png","75","1064","2","1","2","1","1,0,0,0.25,0.5,0.25,0.25,0.25,0.5","0,0,1,0.25,0.5,0.25,0.5,0.25,0.25","2","",""
"","html-keyboard-response","331","229601","0.0-331.0","3LWJHTCVCD8QZO10IVHI753XLHCFQT","A2Z6NL0CTXY0ZB","3JGHED38EDDK7DFM0KVY7GXUF1ZY7A","","null","<img src=""img/land5.png"" style=""width:200px; border:14px solid green;"">","null","","","","","","","","","",""
"","image-keyboard-response","332","230205","0.0-332.0","3LWJHTCVCD8QZO10IVHI753XLHCFQT","A2Z6NL0CTXY0ZB","3JGHED38EDDK7DFM0KVY7GXUF1ZY7A","","602","img/land5.png","75","603","2","0","2","1","1,0,0,0.25,0.5,0.25,0.25,0.25,0.5","0,0,1,0.25,0.5,0.25,0.5,0.25,0.25","2","",""
"","html-keyboard-response","333","230508","0.0-333.0","3LWJHTCVCD8QZO10IVHI753XLHCFQT","A2Z6NL0CTXY0ZB","3JGHED38EDDK7DFM0KVY7GXUF1ZY7A","","null","<img src=""img/land5.png"" style=""width:200px;border:14px solid red;"">","null","","","","","","","","","",""
"","image-keyboard-response","334","231141","0.0-334.0","3LWJHTCVCD8QZO10IVHI753XLHCFQT","A2Z6NL0CTXY0ZB","3JGHED38EDDK7DFM0KVY7GXUF1ZY7A","","632","img/land6.png","76","633","3","0","3","1","1,0,0,0.25,0.5,0.25,0.25,0.25,0.5","0,0,1,0.25,0.5,0.25,0.5,0.25,0.25","2","",""
"","html-keyboard-response","335","231441","0.0-335.0","3LWJHTCVCD8QZO10IVHI753XLHCFQT","A2Z6NL0CTXY0ZB","3JGHED38EDDK7DFM0KVY7GXUF1ZY7A","","null","<img src=""img/land6.png"" style=""width:200px;border:14px solid red;"">","null","","","","","","","","","",""
"","image-keyboard-response","336","232325","0.0-336.0","3LWJHTCVCD8QZO10IVHI753XLHCFQT","A2Z6NL0CTXY0ZB","3JGHED38EDDK7DFM0KVY7GXUF1ZY7A","","883","img/land4.png","74","884","1","0","1","1","1,0,0,0.25,0.5,0.25,0.25,0.25,0.5","0,0,1,0.25,0.5,0.25,0.5,0.25,0.25","2","",""
"","html-keyboard-response","337","232662","0.0-337.0","3LWJHTCVCD8QZO10IVHI753XLHCFQT","A2Z6NL0CTXY0ZB","3JGHED38EDDK7DFM0KVY7GXUF1ZY7A","","null","<img src=""img/land4.png"" style=""width:200px;border:14px solid red;"">","null","","","","","","","","","",""
"","image-keyboard-response","338","233196","0.0-338.0","3LWJHTCVCD8QZO10IVHI753XLHCFQT","A2Z6NL0CTXY0ZB","3JGHED38EDDK7DFM0KVY7GXUF1ZY7A","","533","img/land6.png","74","534","1","1","3","1","1,0,0,0.25,0.5,0.25,0.25,0.25,0.5","0,0,1,0.25,0.5,0.25,0.5,0.25,0.25","2","",""
"","html-keyboard-response","339","233497","0.0-339.0","3LWJHTCVCD8QZO10IVHI753XLHCFQT","A2Z6NL0CTXY0ZB","3JGHED38EDDK7DFM0KVY7GXUF1ZY7A","","null","<img src=""img/land6.png"" style=""width:200px; border:14px solid green;"">","null","","","","","","","","","",""
"","image-keyboard-response","340","234374","0.0-340.0","3LWJHTCVCD8QZO10IVHI753XLHCFQT","A2Z6NL0CTXY0ZB","3JGHED38EDDK7DFM0KVY7GXUF1ZY7A","","874","img/land4.png","75","876","2","0","1","1","1,0,0,0.25,0.5,0.25,0.25,0.25,0.5","0,0,1,0.25,0.5,0.25,0.5,0.25,0.25","2","",""
"","html-keyboard-response","341","234675","0.0-341.0","3LWJHTCVCD8QZO10IVHI753XLHCFQT","A2Z6NL0CTXY0ZB","3JGHED38EDDK7DFM0KVY7GXUF1ZY7A","","null","<img src=""img/land4.png"" style=""width:200px;border:14px solid red;"">","null","","","","","","","","","",""
"","image-keyboard-response","342","235263","0.0-342.0","3LWJHTCVCD8QZO10IVHI753XLHCFQT","A2Z6NL0CTXY0ZB","3JGHED38EDDK7DFM0KVY7GXUF1ZY7A","","586","img/land6.png","74","588","1","1","3","1","1,0,0,0.25,0.5,0.25,0.25,0.25,0.5","0,0,1,0.25,0.5,0.25,0.5,0.25,0.25","2","",""
"","html-keyboard-response","343","235566","0.0-343.0","3LWJHTCVCD8QZO10IVHI753XLHCFQT","A2Z6NL0CTXY0ZB","3JGHED38EDDK7DFM0KVY7GXUF1ZY7A","","null","<img src=""img/land6.png"" style=""width:200px; border:14px solid green;"">","null","","","","","","","","","",""
"","image-keyboard-response","344","235997","0.0-344.0","3LWJHTCVCD8QZO10IVHI753XLHCFQT","A2Z6NL0CTXY0ZB","3JGHED38EDDK7DFM0KVY7GXUF1ZY7A","","426","img/land4.png","76","431","3","1","1","1","1,0,0,0.25,0.5,0.25,0.25,0.25,0.5","0,0,1,0.25,0.5,0.25,0.5,0.25,0.25","2","",""
"","html-keyboard-response","345","236299","0.0-345.0","3LWJHTCVCD8QZO10IVHI753XLHCFQT","A2Z6NL0CTXY0ZB","3JGHED38EDDK7DFM0KVY7GXUF1ZY7A","","null","<img src=""img/land4.png"" style=""width:200px; border:14px solid green;"">","null","","","","","","","","","",""
"","image-keyboard-response","346","236919","0.0-346.0","3LWJHTCVCD8QZO10IVHI753XLHCFQT","A2Z6NL0CTXY0ZB","3JGHED38EDDK7DFM0KVY7GXUF1ZY7A","","618","img/land4.png","76","620","3","1","1","1","1,0,0,0.25,0.5,0.25,0.25,0.25,0.5","0,0,1,0.25,0.5,0.25,0.5,0.25,0.25","2","",""
"","html-keyboard-response","347","237222","0.0-347.0","3LWJHTCVCD8QZO10IVHI753XLHCFQT","A2Z6NL0CTXY0ZB","3JGHED38EDDK7DFM0KVY7GXUF1ZY7A","","null","<img src=""img/land4.png"" style=""width:200px; border:14px solid green;"">","null","","","","","","","","","",""
"","image-keyboard-response","348","237613","0.0-348.0","3LWJHTCVCD8QZO10IVHI753XLHCFQT","A2Z6NL0CTXY0ZB","3JGHED38EDDK7DFM0KVY7GXUF1ZY7A","","390","img/land4.png","76","391","3","1","1","1","1,0,0,0.25,0.5,0.25,0.25,0.25,0.5","0,0,1,0.25,0.5,0.25,0.5,0.25,0.25","2","",""
"","html-keyboard-response","349","237915","0.0-349.0","3LWJHTCVCD8QZO10IVHI753XLHCFQT","A2Z6NL0CTXY0ZB","3JGHED38EDDK7DFM0KVY7GXUF1ZY7A","","null","<img src=""img/land4.png"" style=""width:200px; border:14px solid green;"">","null","","","","","","","","","",""
"","image-keyboard-response","350","238717","0.0-350.0","3LWJHTCVCD8QZO10IVHI753XLHCFQT","A2Z6NL0CTXY0ZB","3JGHED38EDDK7DFM0KVY7GXUF1ZY7A","","800","img/land4.png","76","802","3","1","1","1","1,0,0,0.25,0.5,0.25,0.25,0.25,0.5","0,0,1,0.25,0.5,0.25,0.5,0.25,0.25","2","",""
"","html-keyboard-response","351","239020","0.0-351.0","3LWJHTCVCD8QZO10IVHI753XLHCFQT","A2Z6NL0CTXY0ZB","3JGHED38EDDK7DFM0KVY7GXUF1ZY7A","","null","<img src=""img/land4.png"" style=""width:200px; border:14px solid green;"">","null","","","","","","","","","",""
"","image-keyboard-response","352","239412","0.0-352.0","3LWJHTCVCD8QZO10IVHI753XLHCFQT","A2Z6NL0CTXY0ZB","3JGHED38EDDK7DFM0KVY7GXUF1ZY7A","","390","img/land4.png","76","392","3","1","1","1","1,0,0,0.25,0.5,0.25,0.25,0.25,0.5","0,0,1,0.25,0.5,0.25,0.5,0.25,0.25","2","",""
"","html-keyboard-response","353","239713","0.0-353.0","3LWJHTCVCD8QZO10IVHI753XLHCFQT","A2Z6NL0CTXY0ZB","3JGHED38EDDK7DFM0KVY7GXUF1ZY7A","","null","<img src=""img/land4.png"" style=""width:200px; border:14px solid green;"">","null","","","","","","","","","",""
"","image-keyboard-response","354","240903","0.0-354.0","3LWJHTCVCD8QZO10IVHI753XLHCFQT","A2Z6NL0CTXY0ZB","3JGHED38EDDK7DFM0KVY7GXUF1ZY7A","","1188","img/land5.png","76","1190","3","0","2","1","1,0,0,0.25,0.5,0.25,0.25,0.25,0.5","0,0,1,0.25,0.5,0.25,0.5,0.25,0.25","2","",""
"","html-keyboard-response","355","241205","0.0-355.0","3LWJHTCVCD8QZO10IVHI753XLHCFQT","A2Z6NL0CTXY0ZB","3JGHED38EDDK7DFM0KVY7GXUF1ZY7A","","null","<img src=""img/land5.png"" style=""width:200px;border:14px solid red;"">","null","","","","","","","","","",""
"","image-keyboard-response","356","241925","0.0-356.0","3LWJHTCVCD8QZO10IVHI753XLHCFQT","A2Z6NL0CTXY0ZB","3JGHED38EDDK7DFM0KVY7GXUF1ZY7A","","719","img/land6.png","74","720","1","0","3","1","1,0,0,0.25,0.5,0.25,0.25,0.25,0.5","0,0,1,0.25,0.5,0.25,0.5,0.25,0.25","2","",""
"","html-keyboard-response","357","242231","0.0-357.0","3LWJHTCVCD8QZO10IVHI753XLHCFQT","A2Z6NL0CTXY0ZB","3JGHED38EDDK7DFM0KVY7GXUF1ZY7A","","null","<img src=""img/land6.png"" style=""width:200px;border:14px solid red;"">","null","","","","","","","","","",""
"","image-keyboard-response","358","242925","0.0-358.0","3LWJHTCVCD8QZO10IVHI753XLHCFQT","A2Z6NL0CTXY0ZB","3JGHED38EDDK7DFM0KVY7GXUF1ZY7A","","693","img/land4.png","75","694","2","0","1","1","1,0,0,0.25,0.5,0.25,0.25,0.25,0.5","0,0,1,0.25,0.5,0.25,0.5,0.25,0.25","2","",""
"","html-keyboard-response","359","243226","0.0-359.0","3LWJHTCVCD8QZO10IVHI753XLHCFQT","A2Z6NL0CTXY0ZB","3JGHED38EDDK7DFM0KVY7GXUF1ZY7A","","null","<img src=""img/land4.png"" style=""width:200px;border:14px solid red;"">","null","","","","","","","","","",""
"","image-keyboard-response","360","243972","0.0-360.0","3LWJHTCVCD8QZO10IVHI753XLHCFQT","A2Z6NL0CTXY0ZB","3JGHED38EDDK7DFM0KVY7GXUF1ZY7A","","745","img/land5.png","74","747","1","1","2","1","1,0,0,0.25,0.5,0.25,0.25,0.25,0.5","0,0,1,0.25,0.5,0.25,0.5,0.25,0.25","2","",""
"","html-keyboard-response","361","244274","0.0-361.0","3LWJHTCVCD8QZO10IVHI753XLHCFQT","A2Z6NL0CTXY0ZB","3JGHED38EDDK7DFM0KVY7GXUF1ZY7A","","null","<img src=""img/land5.png"" style=""width:200px; border:14px solid green;"">","null","","","","","","","","","",""
"","image-keyboard-response","362","245276","0.0-362.0","3LWJHTCVCD8QZO10IVHI753XLHCFQT","A2Z6NL0CTXY0ZB","3JGHED38EDDK7DFM0KVY7GXUF1ZY7A","","1001","img/land5.png","74","1003","1","0","2","1","1,0,0,0.25,0.5,0.25,0.25,0.25,0.5","0,0,1,0.25,0.5,0.25,0.5,0.25,0.25","2","",""
"","html-keyboard-response","363","245578","0.0-363.0","3LWJHTCVCD8QZO10IVHI753XLHCFQT","A2Z6NL0CTXY0ZB","3JGHED38EDDK7DFM0KVY7GXUF1ZY7A","","null","<img src=""img/land5.png"" style=""width:200px;border:14px solid red;"">","null","","","","","","","","","",""
"","image-keyboard-response","364","246269","0.0-364.0","3LWJHTCVCD8QZO10IVHI753XLHCFQT","A2Z6NL0CTXY0ZB","3JGHED38EDDK7DFM0KVY7GXUF1ZY7A","","690","img/land5.png","76","690","3","1","2","1","1,0,0,0.25,0.5,0.25,0.25,0.25,0.5","0,0,1,0.25,0.5,0.25,0.5,0.25,0.25","2","",""
"","html-keyboard-response","365","246571","0.0-365.0","3LWJHTCVCD8QZO10IVHI753XLHCFQT","A2Z6NL0CTXY0ZB","3JGHED38EDDK7DFM0KVY7GXUF1ZY7A","","null","<img src=""img/land5.png"" style=""width:200px; border:14px solid green;"">","null","","","","","","","","","",""
"","image-keyboard-response","366","247709","0.0-366.0","3LWJHTCVCD8QZO10IVHI753XLHCFQT","A2Z6NL0CTXY0ZB","3JGHED38EDDK7DFM0KVY7GXUF1ZY7A","","1136","img/land4.png","75","1138","2","0","1","1","1,0,0,0.25,0.5,0.25,0.25,0.25,0.5","0,0,1,0.25,0.5,0.25,0.5,0.25,0.25","2","",""
"","html-keyboard-response","367","248010","0.0-367.0","3LWJHTCVCD8QZO10IVHI753XLHCFQT","A2Z6NL0CTXY0ZB","3JGHED38EDDK7DFM0KVY7GXUF1ZY7A","","null","<img src=""img/land4.png"" style=""width:200px;border:14px solid red;"">","null","","","","","","","","","",""
"","image-keyboard-response","368","248766","0.0-368.0","3LWJHTCVCD8QZO10IVHI753XLHCFQT","A2Z6NL0CTXY0ZB","3JGHED38EDDK7DFM0KVY7GXUF1ZY7A","","754","img/land6.png","74","756","1","1","3","1","1,0,0,0.25,0.5,0.25,0.25,0.25,0.5","0,0,1,0.25,0.5,0.25,0.5,0.25,0.25","2","",""
"","html-keyboard-response","369","249066","0.0-369.0","3LWJHTCVCD8QZO10IVHI753XLHCFQT","A2Z6NL0CTXY0ZB","3JGHED38EDDK7DFM0KVY7GXUF1ZY7A","","null","<img src=""img/land6.png"" style=""width:200px; border:14px solid green;"">","null","","","","","","","","","",""
"","image-keyboard-response","370","249509","0.0-370.0","3LWJHTCVCD8QZO10IVHI753XLHCFQT","A2Z6NL0CTXY0ZB","3JGHED38EDDK7DFM0KVY7GXUF1ZY7A","","442","img/land6.png","74","443","1","1","3","1","1,0,0,0.25,0.5,0.25,0.25,0.25,0.5","0,0,1,0.25,0.5,0.25,0.5,0.25,0.25","2","",""
"","html-keyboard-response","371","249811","0.0-371.0","3LWJHTCVCD8QZO10IVHI753XLHCFQT","A2Z6NL0CTXY0ZB","3JGHED38EDDK7DFM0KVY7GXUF1ZY7A","","null","<img src=""img/land6.png"" style=""width:200px; border:14px solid green;"">","null","","","","","","","","","",""
"","image-keyboard-response","372","250085","0.0-372.0","3LWJHTCVCD8QZO10IVHI753XLHCFQT","A2Z6NL0CTXY0ZB","3JGHED38EDDK7DFM0KVY7GXUF1ZY7A","","272","img/land6.png","76","274","3","0","3","1","1,0,0,0.25,0.5,0.25,0.25,0.25,0.5","0,0,1,0.25,0.5,0.25,0.5,0.25,0.25","2","",""
