"success","trial_type","trial_index","time_elapsed","internal_node_id","assignmentID","mturkID","hitID","view_history","rt","stimulus","key_press","reactionTime","a","r","warning","s","reward_cond","responses","question_order"
"true","fullscreen","0","1908","0.0-0.0","3PJ71Z61R5OTHAQ6UURBW89E8QP19S","A2ZDEERVRN5AMC","3UAU495MIIEABANG75FBFHDC9WUUOI","","","","","","","","","","","",""
"","instructions","1","18753","0.0-1.0","3PJ71Z61R5OTHAQ6UURBW89E8QP19S","A2ZDEERVRN5AMC","3UAU495MIIEABANG75FBFHDC9WUUOI","[{""page_index"":0,""viewing_time"":10889.599999904633},{""page_index"":1,""viewing_time"":631.7000000476837},{""page_index"":2,""viewing_time"":279.7999999523163},{""page_index"":3,""viewing_time"":272.10000014305115},{""page_index"":4,""viewing_time"":976},{""page_index"":5,""viewing_time"":1400},{""page_index"":6,""viewing_time"":1023.5999999046326},{""page_index"":7,""viewing_time"":1368.2999999523163}]","16842.299999952316","","","","","","","","","",""
"","image-keyboard-response","2","19291","0.0-2.0","3PJ71Z61R5OTHAQ6UURBW89E8QP19S","A2ZDEERVRN5AMC","3UAU495MIIEABANG75FBFHDC9WUUOI","","535","img/land3.png","75","537","2","0","false","1","1,0.5,0.5,0.5,1,0.5,0.5,0.5,1","",""
"","html-keyboard-response","3","19599","0.0-3.0","3PJ71Z61R5OTHAQ6UURBW89E8QP19S","A2ZDEERVRN5AMC","3UAU495MIIEABANG75FBFHDC9WUUOI","","null","<img src=""img/land3.png"" style=""width:200px;border:14px solid red;"">","null","","","","","","","",""
"","image-keyboard-response","4","19977","0.0-5.0","3PJ71Z61R5OTHAQ6UURBW89E8QP19S","A2ZDEERVRN5AMC","3UAU495MIIEABANG75FBFHDC9WUUOI","","375.5","img/land5.png","74","376.90000009536743","1","0","false","2","1,0.5,0.5,0.5,1,0.5,0.5,0.5,1","",""
"","html-keyboard-response","5","20293","0.0-6.0","3PJ71Z61R5OTHAQ6UURBW89E8QP19S","A2ZDEERVRN5AMC","3UAU495MIIEABANG75FBFHDC9WUUOI","","null","<img src=""img/land5.png"" style=""width:200px;border:14px solid red;"">","null","","","","","","","",""
"","image-keyboard-response","6","20561","0.0-8.0","3PJ71Z61R5OTHAQ6UURBW89E8QP19S","A2ZDEERVRN5AMC","3UAU495MIIEABANG75FBFHDC9WUUOI","","266.89999985694885","img/land5.png","76","268.10000014305115","3","1","false","2","1,0.5,0.5,0.5,1,0.5,0.5,0.5,1","",""
"","html-keyboard-response","7","20877","0.0-9.0","3PJ71Z61R5OTHAQ6UURBW89E8QP19S","A2ZDEERVRN5AMC","3UAU495MIIEABANG75FBFHDC9WUUOI","","null","<img src=""img/land5.png"" style=""width:200px; border:14px solid green;"">","null","","","","","","","",""
"","image-keyboard-response","8","21282","0.0-11.0","3PJ71Z61R5OTHAQ6UURBW89E8QP19S","A2ZDEERVRN5AMC","3UAU495MIIEABANG75FBFHDC9WUUOI","","403.10000014305115","img/land2.png","74","404.30000019073486","1","0","false","3","1,0.5,0.5,0.5,1,0.5,0.5,0.5,1","",""
"","html-keyboard-response","9","21597","0.0-12.0","3PJ71Z61R5OTHAQ6UURBW89E8QP19S","A2ZDEERVRN5AMC","3UAU495MIIEABANG75FBFHDC9WUUOI","","null","<img src=""img/land2.png"" style=""width:200px;border:14px solid red;"">","null","","","","","","","",""
"","image-keyboard-response","10","21898","0.0-14.0","3PJ71Z61R5OTHAQ6UURBW89E8QP19S","A2ZDEERVRN5AMC","3UAU495MIIEABANG75FBFHDC9WUUOI","","298.39999985694885","img/land5.png","75","300.09999990463257","2","1","false","2","1,0.5,0.5,0.5,1,0.5,0.5,0.5,1","",""
"","html-keyboard-response","11","22210","0.0-15.0","3PJ71Z61R5OTHAQ6UURBW89E8QP19S","A2ZDEERVRN5AMC","3UAU495MIIEABANG75FBFHDC9WUUOI","","null","<img src=""img/land5.png"" style=""width:200px; border:14px solid green;"">","null","","","","","","","",""
"","image-keyboard-response","12","22450","0.0-17.0","3PJ71Z61R5OTHAQ6UURBW89E8QP19S","A2ZDEERVRN5AMC","3UAU495MIIEABANG75FBFHDC9WUUOI","","238.20000004768372","img/land2.png","76","239.39999985694885","3","1","false","3","1,0.5,0.5,0.5,1,0.5,0.5,0.5,1","",""
"","html-keyboard-response","13","22760","0.0-18.0","3PJ71Z61R5OTHAQ6UURBW89E8QP19S","A2ZDEERVRN5AMC","3UAU495MIIEABANG75FBFHDC9WUUOI","","null","<img src=""img/land2.png"" style=""width:200px; border:14px solid green;"">","null","","","","","","","",""
"","image-keyboard-response","14","23050","0.0-20.0","3PJ71Z61R5OTHAQ6UURBW89E8QP19S","A2ZDEERVRN5AMC","3UAU495MIIEABANG75FBFHDC9WUUOI","","288.59999990463257","img/land3.png","76","289.80000019073486","3","1","false","1","1,0.5,0.5,0.5,1,0.5,0.5,0.5,1","",""
"","html-keyboard-response","15","23360","0.0-21.0","3PJ71Z61R5OTHAQ6UURBW89E8QP19S","A2ZDEERVRN5AMC","3UAU495MIIEABANG75FBFHDC9WUUOI","","null","<img src=""img/land3.png"" style=""width:200px; border:14px solid green;"">","null","","","","","","","",""
"","image-keyboard-response","16","23633","0.0-23.0","3PJ71Z61R5OTHAQ6UURBW89E8QP19S","A2ZDEERVRN5AMC","3UAU495MIIEABANG75FBFHDC9WUUOI","","271.89999985694885","img/land2.png","76","272.89999985694885","3","1","false","3","1,0.5,0.5,0.5,1,0.5,0.5,0.5,1","",""
"","html-keyboard-response","17","23958","0.0-24.0","3PJ71Z61R5OTHAQ6UURBW89E8QP19S","A2ZDEERVRN5AMC","3UAU495MIIEABANG75FBFHDC9WUUOI","","null","<img src=""img/land2.png"" style=""width:200px; border:14px solid green;"">","null","","","","","","","",""
"","image-keyboard-response","18","24162","0.0-26.0","3PJ71Z61R5OTHAQ6UURBW89E8QP19S","A2ZDEERVRN5AMC","3UAU495MIIEABANG75FBFHDC9WUUOI","","202.10000014305115","img/land5.png","74","203.20000004768372","1","0","false","2","1,0.5,0.5,0.5,1,0.5,0.5,0.5,1","",""
"","html-keyboard-response","19","24477","0.0-27.0","3PJ71Z61R5OTHAQ6UURBW89E8QP19S","A2ZDEERVRN5AMC","3UAU495MIIEABANG75FBFHDC9WUUOI","","null","<img src=""img/land5.png"" style=""width:200px;border:14px solid red;"">","null","","","","","","","",""
"","image-keyboard-response","20","24689","0.0-29.0","3PJ71Z61R5OTHAQ6UURBW89E8QP19S","A2ZDEERVRN5AMC","3UAU495MIIEABANG75FBFHDC9WUUOI","","211","img/land2.png","76","212","3","1","false","3","1,0.5,0.5,0.5,1,0.5,0.5,0.5,1","",""
"","html-keyboard-response","21","25006","0.0-30.0","3PJ71Z61R5OTHAQ6UURBW89E8QP19S","A2ZDEERVRN5AMC","3UAU495MIIEABANG75FBFHDC9WUUOI","","null","<img src=""img/land2.png"" style=""width:200px; border:14px solid green;"">","null","","","","","","","",""
"","image-keyboard-response","22","25313","0.0-32.0","3PJ71Z61R5OTHAQ6UURBW89E8QP19S","A2ZDEERVRN5AMC","3UAU495MIIEABANG75FBFHDC9WUUOI","","306.10000014305115","img/land3.png","75","307.10000014305115","2","0","false","1","1,0.5,0.5,0.5,1,0.5,0.5,0.5,1","",""
"","html-keyboard-response","23","25629","0.0-33.0","3PJ71Z61R5OTHAQ6UURBW89E8QP19S","A2ZDEERVRN5AMC","3UAU495MIIEABANG75FBFHDC9WUUOI","","null","<img src=""img/land3.png"" style=""width:200px;border:14px solid red;"">","null","","","","","","","",""
"","image-keyboard-response","24","25849","0.0-35.0","3PJ71Z61R5OTHAQ6UURBW89E8QP19S","A2ZDEERVRN5AMC","3UAU495MIIEABANG75FBFHDC9WUUOI","","219.70000004768372","img/land3.png","74","220.60000014305115","1","1","false","1","1,0.5,0.5,0.5,1,0.5,0.5,0.5,1","",""
"","html-keyboard-response","25","26160","0.0-36.0","3PJ71Z61R5OTHAQ6UURBW89E8QP19S","A2ZDEERVRN5AMC","3UAU495MIIEABANG75FBFHDC9WUUOI","","null","<img src=""img/land3.png"" style=""width:200px; border:14px solid green;"">","null","","","","","","","",""
"","image-keyboard-response","26","26378","0.0-38.0","3PJ71Z61R5OTHAQ6UURBW89E8QP19S","A2ZDEERVRN5AMC","3UAU495MIIEABANG75FBFHDC9WUUOI","","216.20000004768372","img/land3.png","76","217.5","3","1","false","1","1,0.5,0.5,0.5,1,0.5,0.5,0.5,1","",""
"","html-keyboard-response","27","26694","0.0-39.0","3PJ71Z61R5OTHAQ6UURBW89E8QP19S","A2ZDEERVRN5AMC","3UAU495MIIEABANG75FBFHDC9WUUOI","","null","<img src=""img/land3.png"" style=""width:200px; border:14px solid green;"">","null","","","","","","","",""
"","image-keyboard-response","28","26874","0.0-41.0","3PJ71Z61R5OTHAQ6UURBW89E8QP19S","A2ZDEERVRN5AMC","3UAU495MIIEABANG75FBFHDC9WUUOI","","178.79999995231628","img/land3.png","76","179.5","3","1","false","1","1,0.5,0.5,0.5,1,0.5,0.5,0.5,1","",""
"","html-keyboard-response","29","27187","0.0-42.0","3PJ71Z61R5OTHAQ6UURBW89E8QP19S","A2ZDEERVRN5AMC","3UAU495MIIEABANG75FBFHDC9WUUOI","","null","<img src=""img/land3.png"" style=""width:200px; border:14px solid green;"">","null","","","","","","","",""
"","image-keyboard-response","30","27337","0.0-44.0","3PJ71Z61R5OTHAQ6UURBW89E8QP19S","A2ZDEERVRN5AMC","3UAU495MIIEABANG75FBFHDC9WUUOI","","149.09999990463257","img/land2.png","76","150.40000009536743","3","1","false","3","1,0.5,0.5,0.5,1,0.5,0.5,0.5,1","",""
"","html-keyboard-response","31","27647","0.0-45.0","3PJ71Z61R5OTHAQ6UURBW89E8QP19S","A2ZDEERVRN5AMC","3UAU495MIIEABANG75FBFHDC9WUUOI","","null","<img src=""img/land2.png"" style=""width:200px; border:14px solid green;"">","null","","","","","","","",""
"","image-keyboard-response","32","27873","0.0-47.0","3PJ71Z61R5OTHAQ6UURBW89E8QP19S","A2ZDEERVRN5AMC","3UAU495MIIEABANG75FBFHDC9WUUOI","","224.69999980926514","img/land3.png","76","225.80000019073486","3","0","false","1","1,0.5,0.5,0.5,1,0.5,0.5,0.5,1","",""
"","html-keyboard-response","33","28187","0.0-48.0","3PJ71Z61R5OTHAQ6UURBW89E8QP19S","A2ZDEERVRN5AMC","3UAU495MIIEABANG75FBFHDC9WUUOI","","null","<img src=""img/land3.png"" style=""width:200px;border:14px solid red;"">","null","","","","","","","",""
"","image-keyboard-response","34","28329","0.0-50.0","3PJ71Z61R5OTHAQ6UURBW89E8QP19S","A2ZDEERVRN5AMC","3UAU495MIIEABANG75FBFHDC9WUUOI","","141.5","img/land3.png","74","142.20000004768372","1","1","false","1","1,0.5,0.5,0.5,1,0.5,0.5,0.5,1","",""
"","html-keyboard-response","35","28644","0.0-51.0","3PJ71Z61R5OTHAQ6UURBW89E8QP19S","A2ZDEERVRN5AMC","3UAU495MIIEABANG75FBFHDC9WUUOI","","null","<img src=""img/land3.png"" style=""width:200px; border:14px solid green;"">","null","","","","","","","",""
"","image-keyboard-response","36","28825","0.0-53.0","3PJ71Z61R5OTHAQ6UURBW89E8QP19S","A2ZDEERVRN5AMC","3UAU495MIIEABANG75FBFHDC9WUUOI","","180","img/land3.png","74","181.20000004768372","1","1","false","1","1,0.5,0.5,0.5,1,0.5,0.5,0.5,1","",""
"","html-keyboard-response","37","29134","0.0-54.0","3PJ71Z61R5OTHAQ6UURBW89E8QP19S","A2ZDEERVRN5AMC","3UAU495MIIEABANG75FBFHDC9WUUOI","","null","<img src=""img/land3.png"" style=""width:200px; border:14px solid green;"">","null","","","","","","","",""
"","image-keyboard-response","38","29265","0.0-56.0","3PJ71Z61R5OTHAQ6UURBW89E8QP19S","A2ZDEERVRN5AMC","3UAU495MIIEABANG75FBFHDC9WUUOI","","129.89999985694885","img/land2.png","74","131.20000004768372","1","1","false","3","1,0.5,0.5,0.5,1,0.5,0.5,0.5,1","",""
"","html-keyboard-response","39","29574","0.0-57.0","3PJ71Z61R5OTHAQ6UURBW89E8QP19S","A2ZDEERVRN5AMC","3UAU495MIIEABANG75FBFHDC9WUUOI","","null","<img src=""img/land2.png"" style=""width:200px; border:14px solid green;"">","null","","","","","","","",""
"","image-keyboard-response","40","29865","0.0-59.0","3PJ71Z61R5OTHAQ6UURBW89E8QP19S","A2ZDEERVRN5AMC","3UAU495MIIEABANG75FBFHDC9WUUOI","","290.2999999523163","img/land5.png","74","291.2999999523163","1","1","false","2","1,0.5,0.5,0.5,1,0.5,0.5,0.5,1","",""
"","html-keyboard-response","41","30174","0.0-60.0","3PJ71Z61R5OTHAQ6UURBW89E8QP19S","A2ZDEERVRN5AMC","3UAU495MIIEABANG75FBFHDC9WUUOI","","null","<img src=""img/land5.png"" style=""width:200px; border:14px solid green;"">","null","","","","","","","",""
"","image-keyboard-response","42","30441","0.0-62.0","3PJ71Z61R5OTHAQ6UURBW89E8QP19S","A2ZDEERVRN5AMC","3UAU495MIIEABANG75FBFHDC9WUUOI","","265.90000009536743","img/land2.png","74","267.39999985694885","1","1","false","3","1,0.5,0.5,0.5,1,0.5,0.5,0.5,1","",""
"","html-keyboard-response","43","30750","0.0-63.0","3PJ71Z61R5OTHAQ6UURBW89E8QP19S","A2ZDEERVRN5AMC","3UAU495MIIEABANG75FBFHDC9WUUOI","","null","<img src=""img/land2.png"" style=""width:200px; border:14px solid green;"">","null","","","","","","","",""
"","image-keyboard-response","44","30961","0.0-65.0","3PJ71Z61R5OTHAQ6UURBW89E8QP19S","A2ZDEERVRN5AMC","3UAU495MIIEABANG75FBFHDC9WUUOI","","210.40000009536743","img/land2.png","74","211.20000004768372","1","0","false","3","1,0.5,0.5,0.5,1,0.5,0.5,0.5,1","",""
"","html-keyboard-response","45","31270","0.0-66.0","3PJ71Z61R5OTHAQ6UURBW89E8QP19S","A2ZDEERVRN5AMC","3UAU495MIIEABANG75FBFHDC9WUUOI","","null","<img src=""img/land2.png"" style=""width:200px;border:14px solid red;"">","null","","","","","","","",""
"","image-keyboard-response","46","31545","0.0-68.0","3PJ71Z61R5OTHAQ6UURBW89E8QP19S","A2ZDEERVRN5AMC","3UAU495MIIEABANG75FBFHDC9WUUOI","","274","img/land5.png","76","275.19999980926514","3","1","false","2","1,0.5,0.5,0.5,1,0.5,0.5,0.5,1","",""
"","html-keyboard-response","47","31854","0.0-69.0","3PJ71Z61R5OTHAQ6UURBW89E8QP19S","A2ZDEERVRN5AMC","3UAU495MIIEABANG75FBFHDC9WUUOI","","null","<img src=""img/land5.png"" style=""width:200px; border:14px solid green;"">","null","","","","","","","",""
"","image-keyboard-response","48","32017","0.0-71.0","3PJ71Z61R5OTHAQ6UURBW89E8QP19S","A2ZDEERVRN5AMC","3UAU495MIIEABANG75FBFHDC9WUUOI","","162.60000014305115","img/land3.png","76","163.5","3","1","false","1","1,0.5,0.5,0.5,1,0.5,0.5,0.5,1","",""
"","html-keyboard-response","49","32326","0.0-72.0","3PJ71Z61R5OTHAQ6UURBW89E8QP19S","A2ZDEERVRN5AMC","3UAU495MIIEABANG75FBFHDC9WUUOI","","null","<img src=""img/land3.png"" style=""width:200px; border:14px solid green;"">","null","","","","","","","",""
"","image-keyboard-response","50","32625","0.0-74.0","3PJ71Z61R5OTHAQ6UURBW89E8QP19S","A2ZDEERVRN5AMC","3UAU495MIIEABANG75FBFHDC9WUUOI","","297.7999999523163","img/land5.png","76","298.89999985694885","3","1","false","2","1,0.5,0.5,0.5,1,0.5,0.5,0.5,1","",""
"","html-keyboard-response","51","32934","0.0-75.0","3PJ71Z61R5OTHAQ6UURBW89E8QP19S","A2ZDEERVRN5AMC","3UAU495MIIEABANG75FBFHDC9WUUOI","","null","<img src=""img/land5.png"" style=""width:200px; border:14px solid green;"">","null","","","","","","","",""
"","image-keyboard-response","52","33162","0.0-77.0","3PJ71Z61R5OTHAQ6UURBW89E8QP19S","A2ZDEERVRN5AMC","3UAU495MIIEABANG75FBFHDC9WUUOI","","226.5","img/land5.png","76","227.69999980926514","3","1","false","2","1,0.5,0.5,0.5,1,0.5,0.5,0.5,1","",""
"","html-keyboard-response","53","33470","0.0-78.0","3PJ71Z61R5OTHAQ6UURBW89E8QP19S","A2ZDEERVRN5AMC","3UAU495MIIEABANG75FBFHDC9WUUOI","","null","<img src=""img/land5.png"" style=""width:200px; border:14px solid green;"">","null","","","","","","","",""
"","image-keyboard-response","54","33633","0.0-80.0","3PJ71Z61R5OTHAQ6UURBW89E8QP19S","A2ZDEERVRN5AMC","3UAU495MIIEABANG75FBFHDC9WUUOI","","161.5","img/land5.png","76","162.59999990463257","3","0","false","2","1,0.5,0.5,0.5,1,0.5,0.5,0.5,1","",""
"","html-keyboard-response","55","33942","0.0-81.0","3PJ71Z61R5OTHAQ6UURBW89E8QP19S","A2ZDEERVRN5AMC","3UAU495MIIEABANG75FBFHDC9WUUOI","","null","<img src=""img/land5.png"" style=""width:200px;border:14px solid red;"">","null","","","","","","","",""
"","image-keyboard-response","56","34041","0.0-83.0","3PJ71Z61R5OTHAQ6UURBW89E8QP19S","A2ZDEERVRN5AMC","3UAU495MIIEABANG75FBFHDC9WUUOI","","97.79999995231628","img/land2.png","74","99","1","0","false","3","1,0.5,0.5,0.5,1,0.5,0.5,0.5,1","",""
"","html-keyboard-response","57","34350","0.0-84.0","3PJ71Z61R5OTHAQ6UURBW89E8QP19S","A2ZDEERVRN5AMC","3UAU495MIIEABANG75FBFHDC9WUUOI","","null","<img src=""img/land2.png"" style=""width:200px;border:14px solid red;"">","null","","","","","","","",""
"","image-keyboard-response","58","34529","0.0-86.0","3PJ71Z61R5OTHAQ6UURBW89E8QP19S","A2ZDEERVRN5AMC","3UAU495MIIEABANG75FBFHDC9WUUOI","","177.70000004768372","img/land2.png","74","178.79999995231628","1","1","false","3","1,0.5,0.5,0.5,1,0.5,0.5,0.5,1","",""
"","html-keyboard-response","59","34838","0.0-87.0","3PJ71Z61R5OTHAQ6UURBW89E8QP19S","A2ZDEERVRN5AMC","3UAU495MIIEABANG75FBFHDC9WUUOI","","null","<img src=""img/land2.png"" style=""width:200px; border:14px solid green;"">","null","","","","","","","",""
"","image-keyboard-response","60","35033","0.0-89.0","3PJ71Z61R5OTHAQ6UURBW89E8QP19S","A2ZDEERVRN5AMC","3UAU495MIIEABANG75FBFHDC9WUUOI","","193.29999995231628","img/land5.png","74","194.90000009536743","1","0","false","2","1,0.5,0.5,0.5,1,0.5,0.5,0.5,1","",""
"","html-keyboard-response","61","35342","0.0-90.0","3PJ71Z61R5OTHAQ6UURBW89E8QP19S","A2ZDEERVRN5AMC","3UAU495MIIEABANG75FBFHDC9WUUOI","","null","<img src=""img/land5.png"" style=""width:200px;border:14px solid red;"">","null","","","","","","","",""
"","image-keyboard-response","62","35489","0.0-92.0","3PJ71Z61R5OTHAQ6UURBW89E8QP19S","A2ZDEERVRN5AMC","3UAU495MIIEABANG75FBFHDC9WUUOI","","145.59999990463257","img/land5.png","76","146.90000009536743","3","0","false","2","1,0.5,0.5,0.5,1,0.5,0.5,0.5,1","",""
"","html-keyboard-response","63","35797","0.0-93.0","3PJ71Z61R5OTHAQ6UURBW89E8QP19S","A2ZDEERVRN5AMC","3UAU495MIIEABANG75FBFHDC9WUUOI","","null","<img src=""img/land5.png"" style=""width:200px;border:14px solid red;"">","null","","","","","","","",""
"","image-keyboard-response","64","36073","0.0-95.0","3PJ71Z61R5OTHAQ6UURBW89E8QP19S","A2ZDEERVRN5AMC","3UAU495MIIEABANG75FBFHDC9WUUOI","","274.69999980926514","img/land3.png","75","275.59999990463257","2","0","false","1","1,0.5,0.5,0.5,1,0.5,0.5,0.5,1","",""
"","html-keyboard-response","65","36382","0.0-96.0","3PJ71Z61R5OTHAQ6UURBW89E8QP19S","A2ZDEERVRN5AMC","3UAU495MIIEABANG75FBFHDC9WUUOI","","null","<img src=""img/land3.png"" style=""width:200px;border:14px solid red;"">","null","","","","","","","",""
"","image-keyboard-response","66","36617","0.0-98.0","3PJ71Z61R5OTHAQ6UURBW89E8QP19S","A2ZDEERVRN5AMC","3UAU495MIIEABANG75FBFHDC9WUUOI","","233.90000009536743","img/land3.png","74","234.89999985694885","1","1","false","1","1,0.5,0.5,0.5,1,0.5,0.5,0.5,1","",""
"","html-keyboard-response","67","36926","0.0-99.0","3PJ71Z61R5OTHAQ6UURBW89E8QP19S","A2ZDEERVRN5AMC","3UAU495MIIEABANG75FBFHDC9WUUOI","","null","<img src=""img/land3.png"" style=""width:200px; border:14px solid green;"">","null","","","","","","","",""
"","image-keyboard-response","68","37177","0.0-101.0","3PJ71Z61R5OTHAQ6UURBW89E8QP19S","A2ZDEERVRN5AMC","3UAU495MIIEABANG75FBFHDC9WUUOI","","250.5","img/land3.png","74","251.40000009536743","1","1","false","1","1,0.5,0.5,0.5,1,0.5,0.5,0.5,1","",""
"","html-keyboard-response","69","37486","0.0-102.0","3PJ71Z61R5OTHAQ6UURBW89E8QP19S","A2ZDEERVRN5AMC","3UAU495MIIEABANG75FBFHDC9WUUOI","","null","<img src=""img/land3.png"" style=""width:200px; border:14px solid green;"">","null","","","","","","","",""
"","image-keyboard-response","70","37889","0.0-104.0","3PJ71Z61R5OTHAQ6UURBW89E8QP19S","A2ZDEERVRN5AMC","3UAU495MIIEABANG75FBFHDC9WUUOI","","401.59999990463257","img/land2.png","74","402.59999990463257","1","1","false","3","1,0.5,0.5,0.5,1,0.5,0.5,0.5,1","",""
"","html-keyboard-response","71","38198","0.0-105.0","3PJ71Z61R5OTHAQ6UURBW89E8QP19S","A2ZDEERVRN5AMC","3UAU495MIIEABANG75FBFHDC9WUUOI","","null","<img src=""img/land2.png"" style=""width:200px; border:14px solid green;"">","null","","","","","","","",""
"","image-keyboard-response","72","38257","0.0-107.0","3PJ71Z61R5OTHAQ6UURBW89E8QP19S","A2ZDEERVRN5AMC","3UAU495MIIEABANG75FBFHDC9WUUOI","","58.299999952316284","img/land2.png","76","59.09999990463257","3","1","false","3","1,0.5,0.5,0.5,1,0.5,0.5,0.5,1","",""
"","html-keyboard-response","73","38566","0.0-108.0","3PJ71Z61R5OTHAQ6UURBW89E8QP19S","A2ZDEERVRN5AMC","3UAU495MIIEABANG75FBFHDC9WUUOI","","null","<img src=""img/land2.png"" style=""width:200px; border:14px solid green;"">","null","","","","","","","",""
"","image-keyboard-response","74","38721","0.0-110.0","3PJ71Z61R5OTHAQ6UURBW89E8QP19S","A2ZDEERVRN5AMC","3UAU495MIIEABANG75FBFHDC9WUUOI","","153.60000014305115","img/land5.png","76","154.70000004768372","3","0","false","2","1,0.5,0.5,0.5,1,0.5,0.5,0.5,1","",""
"","html-keyboard-response","75","39030","0.0-111.0","3PJ71Z61R5OTHAQ6UURBW89E8QP19S","A2ZDEERVRN5AMC","3UAU495MIIEABANG75FBFHDC9WUUOI","","null","<img src=""img/land5.png"" style=""width:200px;border:14px solid red;"">","null","","","","","","","",""
"","image-keyboard-response","76","39121","0.0-113.0","3PJ71Z61R5OTHAQ6UURBW89E8QP19S","A2ZDEERVRN5AMC","3UAU495MIIEABANG75FBFHDC9WUUOI","","89.69999980926514","img/land3.png","74","90.70000004768372","1","1","false","1","1,0.5,0.5,0.5,1,0.5,0.5,0.5,1","",""
"","html-keyboard-response","77","39430","0.0-114.0","3PJ71Z61R5OTHAQ6UURBW89E8QP19S","A2ZDEERVRN5AMC","3UAU495MIIEABANG75FBFHDC9WUUOI","","null","<img src=""img/land3.png"" style=""width:200px; border:14px solid green;"">","null","","","","","","","",""
"","image-keyboard-response","78","39713","0.0-116.0","3PJ71Z61R5OTHAQ6UURBW89E8QP19S","A2ZDEERVRN5AMC","3UAU495MIIEABANG75FBFHDC9WUUOI","","281.2000000476837","img/land3.png","74","282.5","1","1","false","1","1,0.5,0.5,0.5,1,0.5,0.5,0.5,1","",""
"","html-keyboard-response","79","40022","0.0-117.0","3PJ71Z61R5OTHAQ6UURBW89E8QP19S","A2ZDEERVRN5AMC","3UAU495MIIEABANG75FBFHDC9WUUOI","","null","<img src=""img/land3.png"" style=""width:200px; border:14px solid green;"">","null","","","","","","","",""
"","image-keyboard-response","80","40129","0.0-119.0","3PJ71Z61R5OTHAQ6UURBW89E8QP19S","A2ZDEERVRN5AMC","3UAU495MIIEABANG75FBFHDC9WUUOI","","106","img/land3.png","74","107.10000014305115","1","1","false","1","1,0.5,0.5,0.5,1,0.5,0.5,0.5,1","",""
"","html-keyboard-response","81","40438","0.0-120.0","3PJ71Z61R5OTHAQ6UURBW89E8QP19S","A2ZDEERVRN5AMC","3UAU495MIIEABANG75FBFHDC9WUUOI","","null","<img src=""img/land3.png"" style=""width:200px; border:14px solid green;"">","null","","","","","","","",""
"","image-keyboard-response","82","40625","0.0-122.0","3PJ71Z61R5OTHAQ6UURBW89E8QP19S","A2ZDEERVRN5AMC","3UAU495MIIEABANG75FBFHDC9WUUOI","","185.40000009536743","img/land5.png","76","186.40000009536743","3","0","false","2","1,0.5,0.5,0.5,1,0.5,0.5,0.5,1","",""
"","html-keyboard-response","83","40934","0.0-123.0","3PJ71Z61R5OTHAQ6UURBW89E8QP19S","A2ZDEERVRN5AMC","3UAU495MIIEABANG75FBFHDC9WUUOI","","null","<img src=""img/land5.png"" style=""width:200px;border:14px solid red;"">","null","","","","","","","",""
"","image-keyboard-response","84","41009","0.0-125.0","3PJ71Z61R5OTHAQ6UURBW89E8QP19S","A2ZDEERVRN5AMC","3UAU495MIIEABANG75FBFHDC9WUUOI","","73.59999990463257","img/land3.png","75","74.70000004768372","2","0","false","1","1,0.5,0.5,0.5,1,0.5,0.5,0.5,1","",""
"","html-keyboard-response","85","41318","0.0-126.0","3PJ71Z61R5OTHAQ6UURBW89E8QP19S","A2ZDEERVRN5AMC","3UAU495MIIEABANG75FBFHDC9WUUOI","","null","<img src=""img/land3.png"" style=""width:200px;border:14px solid red;"">","null","","","","","","","",""
"","image-keyboard-response","86","41753","0.0-128.0","3PJ71Z61R5OTHAQ6UURBW89E8QP19S","A2ZDEERVRN5AMC","3UAU495MIIEABANG75FBFHDC9WUUOI","","433.5","img/land2.png","74","434.59999990463257","1","0","false","3","1,0.5,0.5,0.5,1,0.5,0.5,0.5,1","",""
"","html-keyboard-response","87","42062","0.0-129.0","3PJ71Z61R5OTHAQ6UURBW89E8QP19S","A2ZDEERVRN5AMC","3UAU495MIIEABANG75FBFHDC9WUUOI","","null","<img src=""img/land2.png"" style=""width:200px;border:14px solid red;"">","null","","","","","","","",""
"","image-keyboard-response","88","42281","0.0-131.0","3PJ71Z61R5OTHAQ6UURBW89E8QP19S","A2ZDEERVRN5AMC","3UAU495MIIEABANG75FBFHDC9WUUOI","","218.09999990463257","img/land3.png","76","219.20000004768372","3","1","false","1","1,0.5,0.5,0.5,1,0.5,0.5,0.5,1","",""
"","html-keyboard-response","89","42590","0.0-132.0","3PJ71Z61R5OTHAQ6UURBW89E8QP19S","A2ZDEERVRN5AMC","3UAU495MIIEABANG75FBFHDC9WUUOI","","null","<img src=""img/land3.png"" style=""width:200px; border:14px solid green;"">","null","","","","","","","",""
"","image-keyboard-response","90","42841","0.0-134.0","3PJ71Z61R5OTHAQ6UURBW89E8QP19S","A2ZDEERVRN5AMC","3UAU495MIIEABANG75FBFHDC9WUUOI","","250.59999990463257","img/land3.png","76","251.40000009536743","3","1","false","1","1,0.5,0.5,0.5,1,0.5,0.5,0.5,1","",""
"","html-keyboard-response","91","43150","0.0-135.0","3PJ71Z61R5OTHAQ6UURBW89E8QP19S","A2ZDEERVRN5AMC","3UAU495MIIEABANG75FBFHDC9WUUOI","","null","<img src=""img/land3.png"" style=""width:200px; border:14px solid green;"">","null","","","","","","","",""
"","image-keyboard-response","92","43466","0.0-137.0","3PJ71Z61R5OTHAQ6UURBW89E8QP19S","A2ZDEERVRN5AMC","3UAU495MIIEABANG75FBFHDC9WUUOI","","314.60000014305115","img/land5.png","76","315.7999999523163","3","1","false","2","1,0.5,0.5,0.5,1,0.5,0.5,0.5,1","",""
"","html-keyboard-response","93","43773","0.0-138.0","3PJ71Z61R5OTHAQ6UURBW89E8QP19S","A2ZDEERVRN5AMC","3UAU495MIIEABANG75FBFHDC9WUUOI","","null","<img src=""img/land5.png"" style=""width:200px; border:14px solid green;"">","null","","","","","","","",""
"","image-keyboard-response","94","44353","0.0-140.0","3PJ71Z61R5OTHAQ6UURBW89E8QP19S","A2ZDEERVRN5AMC","3UAU495MIIEABANG75FBFHDC9WUUOI","","578.2999999523163","img/land2.png","76","579.3999998569489","3","1","false","3","1,0.5,0.5,0.5,1,0.5,0.5,0.5,1","",""
"","html-keyboard-response","95","44661","0.0-141.0","3PJ71Z61R5OTHAQ6UURBW89E8QP19S","A2ZDEERVRN5AMC","3UAU495MIIEABANG75FBFHDC9WUUOI","","null","<img src=""img/land2.png"" style=""width:200px; border:14px solid green;"">","null","","","","","","","",""
"","image-keyboard-response","96","44817","0.0-143.0","3PJ71Z61R5OTHAQ6UURBW89E8QP19S","A2ZDEERVRN5AMC","3UAU495MIIEABANG75FBFHDC9WUUOI","","154.70000004768372","img/land2.png","76","155.70000004768372","3","1","false","3","1,0.5,0.5,0.5,1,0.5,0.5,0.5,1","",""
"","html-keyboard-response","97","45125","0.0-144.0","3PJ71Z61R5OTHAQ6UURBW89E8QP19S","A2ZDEERVRN5AMC","3UAU495MIIEABANG75FBFHDC9WUUOI","","null","<img src=""img/land2.png"" style=""width:200px; border:14px solid green;"">","null","","","","","","","",""
"","image-keyboard-response","98","45513","0.0-146.0","3PJ71Z61R5OTHAQ6UURBW89E8QP19S","A2ZDEERVRN5AMC","3UAU495MIIEABANG75FBFHDC9WUUOI","","386.10000014305115","img/land5.png","75","387.2999999523163","2","1","false","2","1,0.5,0.5,0.5,1,0.5,0.5,0.5,1","",""
"","html-keyboard-response","99","45822","0.0-147.0","3PJ71Z61R5OTHAQ6UURBW89E8QP19S","A2ZDEERVRN5AMC","3UAU495MIIEABANG75FBFHDC9WUUOI","","null","<img src=""img/land5.png"" style=""width:200px; border:14px solid green;"">","null","","","","","","","",""
"","image-keyboard-response","100","45833","0.0-149.0","3PJ71Z61R5OTHAQ6UURBW89E8QP19S","A2ZDEERVRN5AMC","3UAU495MIIEABANG75FBFHDC9WUUOI","","9.400000095367432","img/land5.png","75","10.700000047683716","2","1","false","2","1,0.5,0.5,0.5,1,0.5,0.5,0.5,1","",""
"","html-keyboard-response","101","46142","0.0-150.0","3PJ71Z61R5OTHAQ6UURBW89E8QP19S","A2ZDEERVRN5AMC","3UAU495MIIEABANG75FBFHDC9WUUOI","","null","<img src=""img/land5.png"" style=""width:200px; border:14px solid green;"">","null","","","","","","","",""
"","image-keyboard-response","102","46433","0.0-152.0","3PJ71Z61R5OTHAQ6UURBW89E8QP19S","A2ZDEERVRN5AMC","3UAU495MIIEABANG75FBFHDC9WUUOI","","289.40000009536743","img/land2.png","75","290.60000014305115","2","1","false","3","1,0.5,0.5,0.5,1,0.5,0.5,0.5,1","",""
"","html-keyboard-response","103","46742","0.0-153.0","3PJ71Z61R5OTHAQ6UURBW89E8QP19S","A2ZDEERVRN5AMC","3UAU495MIIEABANG75FBFHDC9WUUOI","","null","<img src=""img/land2.png"" style=""width:200px; border:14px solid green;"">","null","","","","","","","",""
"","image-keyboard-response","104","46929","0.0-155.0","3PJ71Z61R5OTHAQ6UURBW89E8QP19S","A2ZDEERVRN5AMC","3UAU495MIIEABANG75FBFHDC9WUUOI","","185.70000004768372","img/land5.png","76","186.79999995231628","3","0","false","2","1,0.5,0.5,0.5,1,0.5,0.5,0.5,1","",""
"","html-keyboard-response","105","47238","0.0-156.0","3PJ71Z61R5OTHAQ6UURBW89E8QP19S","A2ZDEERVRN5AMC","3UAU495MIIEABANG75FBFHDC9WUUOI","","null","<img src=""img/land5.png"" style=""width:200px;border:14px solid red;"">","null","","","","","","","",""
"","image-keyboard-response","106","47680","0.0-158.0","3PJ71Z61R5OTHAQ6UURBW89E8QP19S","A2ZDEERVRN5AMC","3UAU495MIIEABANG75FBFHDC9WUUOI","","441","img/land3.png","75","441.7999999523163","2","1","false","1","1,0.5,0.5,0.5,1,0.5,0.5,0.5,1","",""
"","html-keyboard-response","107","47990","0.0-159.0","3PJ71Z61R5OTHAQ6UURBW89E8QP19S","A2ZDEERVRN5AMC","3UAU495MIIEABANG75FBFHDC9WUUOI","","null","<img src=""img/land3.png"" style=""width:200px; border:14px solid green;"">","null","","","","","","","",""
"","image-keyboard-response","108","48313","0.0-161.0","3PJ71Z61R5OTHAQ6UURBW89E8QP19S","A2ZDEERVRN5AMC","3UAU495MIIEABANG75FBFHDC9WUUOI","","321.80000019073486","img/land3.png","76","322.60000014305115","3","1","false","1","1,0.5,0.5,0.5,1,0.5,0.5,0.5,1","",""
"","html-keyboard-response","109","48622","0.0-162.0","3PJ71Z61R5OTHAQ6UURBW89E8QP19S","A2ZDEERVRN5AMC","3UAU495MIIEABANG75FBFHDC9WUUOI","","null","<img src=""img/land3.png"" style=""width:200px; border:14px solid green;"">","null","","","","","","","",""
"","image-keyboard-response","110","48809","0.0-164.0","3PJ71Z61R5OTHAQ6UURBW89E8QP19S","A2ZDEERVRN5AMC","3UAU495MIIEABANG75FBFHDC9WUUOI","","186","img/land5.png","74","186.79999995231628","1","1","false","2","1,0.5,0.5,0.5,1,0.5,0.5,0.5,1","",""
"","html-keyboard-response","111","49117","0.0-165.0","3PJ71Z61R5OTHAQ6UURBW89E8QP19S","A2ZDEERVRN5AMC","3UAU495MIIEABANG75FBFHDC9WUUOI","","null","<img src=""img/land5.png"" style=""width:200px; border:14px solid green;"">","null","","","","","","","",""
"","image-keyboard-response","112","49321","0.0-167.0","3PJ71Z61R5OTHAQ6UURBW89E8QP19S","A2ZDEERVRN5AMC","3UAU495MIIEABANG75FBFHDC9WUUOI","","202.29999995231628","img/land2.png","75","203.5","2","1","false","3","1,0.5,0.5,0.5,1,0.5,0.5,0.5,1","",""
"","html-keyboard-response","113","49629","0.0-168.0","3PJ71Z61R5OTHAQ6UURBW89E8QP19S","A2ZDEERVRN5AMC","3UAU495MIIEABANG75FBFHDC9WUUOI","","null","<img src=""img/land2.png"" style=""width:200px; border:14px solid green;"">","null","","","","","","","",""
"","image-keyboard-response","114","50025","0.0-170.0","3PJ71Z61R5OTHAQ6UURBW89E8QP19S","A2ZDEERVRN5AMC","3UAU495MIIEABANG75FBFHDC9WUUOI","","394","img/land2.png","75","395.10000014305115","2","1","false","3","1,0.5,0.5,0.5,1,0.5,0.5,0.5,1","",""
"","html-keyboard-response","115","50333","0.0-171.0","3PJ71Z61R5OTHAQ6UURBW89E8QP19S","A2ZDEERVRN5AMC","3UAU495MIIEABANG75FBFHDC9WUUOI","","null","<img src=""img/land2.png"" style=""width:200px; border:14px solid green;"">","null","","","","","","","",""
"","image-keyboard-response","116","50425","0.0-173.0","3PJ71Z61R5OTHAQ6UURBW89E8QP19S","A2ZDEERVRN5AMC","3UAU495MIIEABANG75FBFHDC9WUUOI","","90","img/land3.png","74","91.20000004768372","1","1","false","1","1,0.5,0.5,0.5,1,0.5,0.5,0.5,1","",""
"","html-keyboard-response","117","50734","0.0-174.0","3PJ71Z61R5OTHAQ6UURBW89E8QP19S","A2ZDEERVRN5AMC","3UAU495MIIEABANG75FBFHDC9WUUOI","","null","<img src=""img/land3.png"" style=""width:200px; border:14px solid green;"">","null","","","","","","","",""
"","image-keyboard-response","118","51089","0.0-176.0","3PJ71Z61R5OTHAQ6UURBW89E8QP19S","A2ZDEERVRN5AMC","3UAU495MIIEABANG75FBFHDC9WUUOI","","353.59999990463257","img/land3.png","74","354.69999980926514","1","1","false","1","1,0.5,0.5,0.5,1,0.5,0.5,0.5,1","",""
"","html-keyboard-response","119","51397","0.0-177.0","3PJ71Z61R5OTHAQ6UURBW89E8QP19S","A2ZDEERVRN5AMC","3UAU495MIIEABANG75FBFHDC9WUUOI","","null","<img src=""img/land3.png"" style=""width:200px; border:14px solid green;"">","null","","","","","","","",""
"","image-keyboard-response","120","51597","0.0-179.0","3PJ71Z61R5OTHAQ6UURBW89E8QP19S","A2ZDEERVRN5AMC","3UAU495MIIEABANG75FBFHDC9WUUOI","","198.10000014305115","img/land5.png","74","199.29999995231628","1","0","false","2","1,0.5,0.5,0.5,1,0.5,0.5,0.5,1","",""
"","html-keyboard-response","121","51902","0.0-180.0","3PJ71Z61R5OTHAQ6UURBW89E8QP19S","A2ZDEERVRN5AMC","3UAU495MIIEABANG75FBFHDC9WUUOI","","null","<img src=""img/land5.png"" style=""width:200px;border:14px solid red;"">","null","","","","","","","",""
"","image-keyboard-response","122","52473","0.0-182.0","3PJ71Z61R5OTHAQ6UURBW89E8QP19S","A2ZDEERVRN5AMC","3UAU495MIIEABANG75FBFHDC9WUUOI","","570.1000001430511","img/land3.png","76","571","3","1","false","1","1,0.5,0.5,0.5,1,0.5,0.5,0.5,1","",""
"","html-keyboard-response","123","52782","0.0-183.0","3PJ71Z61R5OTHAQ6UURBW89E8QP19S","A2ZDEERVRN5AMC","3UAU495MIIEABANG75FBFHDC9WUUOI","","null","<img src=""img/land3.png"" style=""width:200px; border:14px solid green;"">","null","","","","","","","",""
"","image-keyboard-response","124","53001","0.0-185.0","3PJ71Z61R5OTHAQ6UURBW89E8QP19S","A2ZDEERVRN5AMC","3UAU495MIIEABANG75FBFHDC9WUUOI","","217.79999995231628","img/land5.png","76","218.69999980926514","3","0","false","2","1,0.5,0.5,0.5,1,0.5,0.5,0.5,1","",""
"","html-keyboard-response","125","53310","0.0-186.0","3PJ71Z61R5OTHAQ6UURBW89E8QP19S","A2ZDEERVRN5AMC","3UAU495MIIEABANG75FBFHDC9WUUOI","","null","<img src=""img/land5.png"" style=""width:200px;border:14px solid red;"">","null","","","","","","","",""
"","image-keyboard-response","126","53537","0.0-188.0","3PJ71Z61R5OTHAQ6UURBW89E8QP19S","A2ZDEERVRN5AMC","3UAU495MIIEABANG75FBFHDC9WUUOI","","225.79999995231628","img/land2.png","75","226.79999995231628","2","1","false","3","1,0.5,0.5,0.5,1,0.5,0.5,0.5,1","",""
"","html-keyboard-response","127","53845","0.0-189.0","3PJ71Z61R5OTHAQ6UURBW89E8QP19S","A2ZDEERVRN5AMC","3UAU495MIIEABANG75FBFHDC9WUUOI","","null","<img src=""img/land2.png"" style=""width:200px; border:14px solid green;"">","null","","","","","","","",""
"","image-keyboard-response","128","54105","0.0-191.0","3PJ71Z61R5OTHAQ6UURBW89E8QP19S","A2ZDEERVRN5AMC","3UAU495MIIEABANG75FBFHDC9WUUOI","","258.2000000476837","img/land3.png","74","259.39999985694885","1","1","false","1","1,0.5,0.5,0.5,1,0.5,0.5,0.5,1","",""
"","html-keyboard-response","129","54413","0.0-192.0","3PJ71Z61R5OTHAQ6UURBW89E8QP19S","A2ZDEERVRN5AMC","3UAU495MIIEABANG75FBFHDC9WUUOI","","null","<img src=""img/land3.png"" style=""width:200px; border:14px solid green;"">","null","","","","","","","",""
"","image-keyboard-response","130","54657","0.0-194.0","3PJ71Z61R5OTHAQ6UURBW89E8QP19S","A2ZDEERVRN5AMC","3UAU495MIIEABANG75FBFHDC9WUUOI","","241.69999980926514","img/land2.png","74","243.20000004768372","1","0","false","3","1,0.5,0.5,0.5,1,0.5,0.5,0.5,1","",""
"","html-keyboard-response","131","54965","0.0-195.0","3PJ71Z61R5OTHAQ6UURBW89E8QP19S","A2ZDEERVRN5AMC","3UAU495MIIEABANG75FBFHDC9WUUOI","","null","<img src=""img/land2.png"" style=""width:200px;border:14px solid red;"">","null","","","","","","","",""
"","image-keyboard-response","132","55337","0.0-197.0","3PJ71Z61R5OTHAQ6UURBW89E8QP19S","A2ZDEERVRN5AMC","3UAU495MIIEABANG75FBFHDC9WUUOI","","370.10000014305115","img/land5.png","76","371.2999999523163","3","0","false","2","1,0.5,0.5,0.5,1,0.5,0.5,0.5,1","",""
"","html-keyboard-response","133","55645","0.0-198.0","3PJ71Z61R5OTHAQ6UURBW89E8QP19S","A2ZDEERVRN5AMC","3UAU495MIIEABANG75FBFHDC9WUUOI","","null","<img src=""img/land5.png"" style=""width:200px;border:14px solid red;"">","null","","","","","","","",""
"","image-keyboard-response","134","55977","0.0-200.0","3PJ71Z61R5OTHAQ6UURBW89E8QP19S","A2ZDEERVRN5AMC","3UAU495MIIEABANG75FBFHDC9WUUOI","","330.7000000476837","img/land5.png","75","331.5","2","1","false","2","1,0.5,0.5,0.5,1,0.5,0.5,0.5,1","",""
"","html-keyboard-response","135","56285","0.0-201.0","3PJ71Z61R5OTHAQ6UURBW89E8QP19S","A2ZDEERVRN5AMC","3UAU495MIIEABANG75FBFHDC9WUUOI","","null","<img src=""img/land5.png"" style=""width:200px; border:14px solid green;"">","null","","","","","","","",""
"","image-keyboard-response","136","56481","0.0-203.0","3PJ71Z61R5OTHAQ6UURBW89E8QP19S","A2ZDEERVRN5AMC","3UAU495MIIEABANG75FBFHDC9WUUOI","","193.69999980926514","img/land2.png","75","195","2","0","false","3","1,0.5,0.5,0.5,1,0.5,0.5,0.5,1","",""
"","html-keyboard-response","137","56789","0.0-204.0","3PJ71Z61R5OTHAQ6UURBW89E8QP19S","A2ZDEERVRN5AMC","3UAU495MIIEABANG75FBFHDC9WUUOI","","null","<img src=""img/land2.png"" style=""width:200px;border:14px solid red;"">","null","","","","","","","",""
"","image-keyboard-response","138","56977","0.0-206.0","3PJ71Z61R5OTHAQ6UURBW89E8QP19S","A2ZDEERVRN5AMC","3UAU495MIIEABANG75FBFHDC9WUUOI","","186.09999990463257","img/land5.png","76","187.09999990463257","3","1","false","2","1,0.5,0.5,0.5,1,0.5,0.5,0.5,1","",""
"","html-keyboard-response","139","57285","0.0-207.0","3PJ71Z61R5OTHAQ6UURBW89E8QP19S","A2ZDEERVRN5AMC","3UAU495MIIEABANG75FBFHDC9WUUOI","","null","<img src=""img/land5.png"" style=""width:200px; border:14px solid green;"">","null","","","","","","","",""
"","image-keyboard-response","140","57433","0.0-209.0","3PJ71Z61R5OTHAQ6UURBW89E8QP19S","A2ZDEERVRN5AMC","3UAU495MIIEABANG75FBFHDC9WUUOI","","145.90000009536743","img/land3.png","75","147.19999980926514","2","0","false","1","1,0.5,0.5,0.5,1,0.5,0.5,0.5,1","",""
"","html-keyboard-response","141","57742","0.0-210.0","3PJ71Z61R5OTHAQ6UURBW89E8QP19S","A2ZDEERVRN5AMC","3UAU495MIIEABANG75FBFHDC9WUUOI","","null","<img src=""img/land3.png"" style=""width:200px;border:14px solid red;"">","null","","","","","","","",""
"","image-keyboard-response","142","58097","0.0-212.0","3PJ71Z61R5OTHAQ6UURBW89E8QP19S","A2ZDEERVRN5AMC","3UAU495MIIEABANG75FBFHDC9WUUOI","","353.40000009536743","img/land3.png","76","354.39999985694885","3","1","false","1","1,0.5,0.5,0.5,1,0.5,0.5,0.5,1","",""
"","html-keyboard-response","143","58405","0.0-213.0","3PJ71Z61R5OTHAQ6UURBW89E8QP19S","A2ZDEERVRN5AMC","3UAU495MIIEABANG75FBFHDC9WUUOI","","null","<img src=""img/land3.png"" style=""width:200px; border:14px solid green;"">","null","","","","","","","",""
"","image-keyboard-response","144","58729","0.0-215.0","3PJ71Z61R5OTHAQ6UURBW89E8QP19S","A2ZDEERVRN5AMC","3UAU495MIIEABANG75FBFHDC9WUUOI","","321.80000019073486","img/land2.png","75","322.90000009536743","2","1","false","3","1,0.5,0.5,0.5,1,0.5,0.5,0.5,1","",""
"","html-keyboard-response","145","59038","0.0-216.0","3PJ71Z61R5OTHAQ6UURBW89E8QP19S","A2ZDEERVRN5AMC","3UAU495MIIEABANG75FBFHDC9WUUOI","","null","<img src=""img/land2.png"" style=""width:200px; border:14px solid green;"">","null","","","","","","","",""
"","image-keyboard-response","146","59474","0.0-218.0","3PJ71Z61R5OTHAQ6UURBW89E8QP19S","A2ZDEERVRN5AMC","3UAU495MIIEABANG75FBFHDC9WUUOI","","434.2999999523163","img/land5.png","76","435.2999999523163","3","0","false","2","1,0.5,0.5,0.5,1,0.5,0.5,0.5,1","",""
"","html-keyboard-response","147","59782","0.0-219.0","3PJ71Z61R5OTHAQ6UURBW89E8QP19S","A2ZDEERVRN5AMC","3UAU495MIIEABANG75FBFHDC9WUUOI","","null","<img src=""img/land5.png"" style=""width:200px;border:14px solid red;"">","null","","","","","","","",""
"","image-keyboard-response","148","59873","0.0-221.0","3PJ71Z61R5OTHAQ6UURBW89E8QP19S","A2ZDEERVRN5AMC","3UAU495MIIEABANG75FBFHDC9WUUOI","","90.40000009536743","img/land3.png","75","91.20000004768372","2","1","false","1","1,0.5,0.5,0.5,1,0.5,0.5,0.5,1","",""
"","html-keyboard-response","149","60182","0.0-222.0","3PJ71Z61R5OTHAQ6UURBW89E8QP19S","A2ZDEERVRN5AMC","3UAU495MIIEABANG75FBFHDC9WUUOI","","null","<img src=""img/land3.png"" style=""width:200px; border:14px solid green;"">","null","","","","","","","",""
"","image-keyboard-response","150","60890","0.0-224.0","3PJ71Z61R5OTHAQ6UURBW89E8QP19S","A2ZDEERVRN5AMC","3UAU495MIIEABANG75FBFHDC9WUUOI","","706","img/land2.png","74","707.0999999046326","1","0","false","3","1,0.5,0.5,0.5,1,0.5,0.5,0.5,1","",""
"","html-keyboard-response","151","61199","0.0-225.0","3PJ71Z61R5OTHAQ6UURBW89E8QP19S","A2ZDEERVRN5AMC","3UAU495MIIEABANG75FBFHDC9WUUOI","","null","<img src=""img/land2.png"" style=""width:200px;border:14px solid red;"">","null","","","","","","","",""
"","image-keyboard-response","152","61441","0.0-227.0","3PJ71Z61R5OTHAQ6UURBW89E8QP19S","A2ZDEERVRN5AMC","3UAU495MIIEABANG75FBFHDC9WUUOI","","241.5","img/land5.png","74","242.40000009536743","1","1","false","2","1,0.5,0.5,0.5,1,0.5,0.5,0.5,1","",""
"","html-keyboard-response","153","61751","0.0-228.0","3PJ71Z61R5OTHAQ6UURBW89E8QP19S","A2ZDEERVRN5AMC","3UAU495MIIEABANG75FBFHDC9WUUOI","","null","<img src=""img/land5.png"" style=""width:200px; border:14px solid green;"">","null","","","","","","","",""
"","image-keyboard-response","154","62018","0.0-230.0","3PJ71Z61R5OTHAQ6UURBW89E8QP19S","A2ZDEERVRN5AMC","3UAU495MIIEABANG75FBFHDC9WUUOI","","265.5","img/land2.png","74","266.40000009536743","1","1","false","3","1,0.5,0.5,0.5,1,0.5,0.5,0.5,1","",""
"","html-keyboard-response","155","62326","0.0-231.0","3PJ71Z61R5OTHAQ6UURBW89E8QP19S","A2ZDEERVRN5AMC","3UAU495MIIEABANG75FBFHDC9WUUOI","","null","<img src=""img/land2.png"" style=""width:200px; border:14px solid green;"">","null","","","","","","","",""
"","image-keyboard-response","156","62777","0.0-233.0","3PJ71Z61R5OTHAQ6UURBW89E8QP19S","A2ZDEERVRN5AMC","3UAU495MIIEABANG75FBFHDC9WUUOI","","449.7000000476837","img/land3.png","76","450.7000000476837","3","1","false","1","1,0.5,0.5,0.5,1,0.5,0.5,0.5,1","",""
"","html-keyboard-response","157","63086","0.0-234.0","3PJ71Z61R5OTHAQ6UURBW89E8QP19S","A2ZDEERVRN5AMC","3UAU495MIIEABANG75FBFHDC9WUUOI","","null","<img src=""img/land3.png"" style=""width:200px; border:14px solid green;"">","null","","","","","","","",""
"","image-keyboard-response","158","63290","0.0-236.0","3PJ71Z61R5OTHAQ6UURBW89E8QP19S","A2ZDEERVRN5AMC","3UAU495MIIEABANG75FBFHDC9WUUOI","","202.5","img/land2.png","75","203.20000004768372","2","1","false","3","1,0.5,0.5,0.5,1,0.5,0.5,0.5,1","",""
"","html-keyboard-response","159","63598","0.0-237.0","3PJ71Z61R5OTHAQ6UURBW89E8QP19S","A2ZDEERVRN5AMC","3UAU495MIIEABANG75FBFHDC9WUUOI","","null","<img src=""img/land2.png"" style=""width:200px; border:14px solid green;"">","null","","","","","","","",""
"","image-keyboard-response","160","63938","0.0-239.0","3PJ71Z61R5OTHAQ6UURBW89E8QP19S","A2ZDEERVRN5AMC","3UAU495MIIEABANG75FBFHDC9WUUOI","","337.89999985694885","img/land2.png","74","338.89999985694885","1","0","false","3","1,0.5,0.5,0.5,1,0.5,0.5,0.5,1","",""
"","html-keyboard-response","161","64246","0.0-240.0","3PJ71Z61R5OTHAQ6UURBW89E8QP19S","A2ZDEERVRN5AMC","3UAU495MIIEABANG75FBFHDC9WUUOI","","null","<img src=""img/land2.png"" style=""width:200px;border:14px solid red;"">","null","","","","","","","",""
"","image-keyboard-response","162","64673","0.0-242.0","3PJ71Z61R5OTHAQ6UURBW89E8QP19S","A2ZDEERVRN5AMC","3UAU495MIIEABANG75FBFHDC9WUUOI","","425.59999990463257","img/land5.png","75","426.59999990463257","2","1","false","2","1,0.5,0.5,0.5,1,0.5,0.5,0.5,1","",""
"","html-keyboard-response","163","64982","0.0-243.0","3PJ71Z61R5OTHAQ6UURBW89E8QP19S","A2ZDEERVRN5AMC","3UAU495MIIEABANG75FBFHDC9WUUOI","","null","<img src=""img/land5.png"" style=""width:200px; border:14px solid green;"">","null","","","","","","","",""
"","image-keyboard-response","164","65154","0.0-245.0","3PJ71Z61R5OTHAQ6UURBW89E8QP19S","A2ZDEERVRN5AMC","3UAU495MIIEABANG75FBFHDC9WUUOI","","169.79999995231628","img/land2.png","75","170.90000009536743","2","1","false","3","1,0.5,0.5,0.5,1,0.5,0.5,0.5,1","",""
"","html-keyboard-response","165","65462","0.0-246.0","3PJ71Z61R5OTHAQ6UURBW89E8QP19S","A2ZDEERVRN5AMC","3UAU495MIIEABANG75FBFHDC9WUUOI","","null","<img src=""img/land2.png"" style=""width:200px; border:14px solid green;"">","null","","","","","","","",""
"","image-keyboard-response","166","65833","0.0-248.0","3PJ71Z61R5OTHAQ6UURBW89E8QP19S","A2ZDEERVRN5AMC","3UAU495MIIEABANG75FBFHDC9WUUOI","","369.59999990463257","img/land5.png","76","370.59999990463257","3","0","false","2","1,0.5,0.5,0.5,1,0.5,0.5,0.5,1","",""
"","html-keyboard-response","167","66142","0.0-249.0","3PJ71Z61R5OTHAQ6UURBW89E8QP19S","A2ZDEERVRN5AMC","3UAU495MIIEABANG75FBFHDC9WUUOI","","null","<img src=""img/land5.png"" style=""width:200px;border:14px solid red;"">","null","","","","","","","",""
"","image-keyboard-response","168","66346","0.0-251.0","3PJ71Z61R5OTHAQ6UURBW89E8QP19S","A2ZDEERVRN5AMC","3UAU495MIIEABANG75FBFHDC9WUUOI","","202.09999990463257","img/land3.png","75","203","2","1","false","1","1,0.5,0.5,0.5,1,0.5,0.5,0.5,1","",""
"","html-keyboard-response","169","66654","0.0-252.0","3PJ71Z61R5OTHAQ6UURBW89E8QP19S","A2ZDEERVRN5AMC","3UAU495MIIEABANG75FBFHDC9WUUOI","","null","<img src=""img/land3.png"" style=""width:200px; border:14px solid green;"">","null","","","","","","","",""
"","image-keyboard-response","170","67258","0.0-254.0","3PJ71Z61R5OTHAQ6UURBW89E8QP19S","A2ZDEERVRN5AMC","3UAU495MIIEABANG75FBFHDC9WUUOI","","602.2000000476837","img/land5.png","75","603","2","1","false","2","1,0.5,0.5,0.5,1,0.5,0.5,0.5,1","",""
"","html-keyboard-response","171","67567","0.0-255.0","3PJ71Z61R5OTHAQ6UURBW89E8QP19S","A2ZDEERVRN5AMC","3UAU495MIIEABANG75FBFHDC9WUUOI","","null","<img src=""img/land5.png"" style=""width:200px; border:14px solid green;"">","null","","","","","","","",""
"","image-keyboard-response","172","67913","0.0-257.0","3PJ71Z61R5OTHAQ6UURBW89E8QP19S","A2ZDEERVRN5AMC","3UAU495MIIEABANG75FBFHDC9WUUOI","","345.7000000476837","img/land5.png","75","346.59999990463257","2","1","false","2","1,0.5,0.5,0.5,1,0.5,0.5,0.5,1","",""
"","html-keyboard-response","173","68223","0.0-258.0","3PJ71Z61R5OTHAQ6UURBW89E8QP19S","A2ZDEERVRN5AMC","3UAU495MIIEABANG75FBFHDC9WUUOI","","null","<img src=""img/land5.png"" style=""width:200px; border:14px solid green;"">","null","","","","","","","",""
"","image-keyboard-response","174","68737","0.0-260.0","3PJ71Z61R5OTHAQ6UURBW89E8QP19S","A2ZDEERVRN5AMC","3UAU495MIIEABANG75FBFHDC9WUUOI","","513.0999999046326","img/land2.png","74","514.0999999046326","1","1","false","3","1,0.5,0.5,0.5,1,0.5,0.5,0.5,1","",""
"","html-keyboard-response","175","69040","0.0-261.0","3PJ71Z61R5OTHAQ6UURBW89E8QP19S","A2ZDEERVRN5AMC","3UAU495MIIEABANG75FBFHDC9WUUOI","","null","<img src=""img/land2.png"" style=""width:200px; border:14px solid green;"">","null","","","","","","","",""
"","image-keyboard-response","176","69337","0.0-263.0","3PJ71Z61R5OTHAQ6UURBW89E8QP19S","A2ZDEERVRN5AMC","3UAU495MIIEABANG75FBFHDC9WUUOI","","296.30000019073486","img/land2.png","74","297.2000000476837","1","1","false","3","1,0.5,0.5,0.5,1,0.5,0.5,0.5,1","",""
"","html-keyboard-response","177","69647","0.0-264.0","3PJ71Z61R5OTHAQ6UURBW89E8QP19S","A2ZDEERVRN5AMC","3UAU495MIIEABANG75FBFHDC9WUUOI","","null","<img src=""img/land2.png"" style=""width:200px; border:14px solid green;"">","null","","","","","","","",""
"","image-keyboard-response","178","69945","0.0-266.0","3PJ71Z61R5OTHAQ6UURBW89E8QP19S","A2ZDEERVRN5AMC","3UAU495MIIEABANG75FBFHDC9WUUOI","","297.5","img/land2.png","74","298.2999999523163","1","0","false","3","1,0.5,0.5,0.5,1,0.5,0.5,0.5,1","",""
"","html-keyboard-response","179","70255","0.0-267.0","3PJ71Z61R5OTHAQ6UURBW89E8QP19S","A2ZDEERVRN5AMC","3UAU495MIIEABANG75FBFHDC9WUUOI","","null","<img src=""img/land2.png"" style=""width:200px;border:14px solid red;"">","null","","","","","","","",""
"","image-keyboard-response","180","70644","0.0-269.0","3PJ71Z61R5OTHAQ6UURBW89E8QP19S","A2ZDEERVRN5AMC","3UAU495MIIEABANG75FBFHDC9WUUOI","","387.2000000476837","img/land5.png","76","388.2999999523163","3","1","false","2","1,0.5,0.5,0.5,1,0.5,0.5,0.5,1","",""
"","html-keyboard-response","181","70950","0.0-270.0","3PJ71Z61R5OTHAQ6UURBW89E8QP19S","A2ZDEERVRN5AMC","3UAU495MIIEABANG75FBFHDC9WUUOI","","null","<img src=""img/land5.png"" style=""width:200px; border:14px solid green;"">","null","","","","","","","",""
"","html-keyboard-response","182","73128","0.0-272.0","3PJ71Z61R5OTHAQ6UURBW89E8QP19S","A2ZDEERVRN5AMC","3UAU495MIIEABANG75FBFHDC9WUUOI","","","","","","","","","","","",""
"","image-keyboard-response","183","73625","0.0-273.0","3PJ71Z61R5OTHAQ6UURBW89E8QP19S","A2ZDEERVRN5AMC","3UAU495MIIEABANG75FBFHDC9WUUOI","","495.7000000476837","img/land1.png","74","497.2999999523163","1","0","false","2","1,1,0,0,1,1,1,0,1","",""
"","html-keyboard-response","184","73934","0.0-274.0","3PJ71Z61R5OTHAQ6UURBW89E8QP19S","A2ZDEERVRN5AMC","3UAU495MIIEABANG75FBFHDC9WUUOI","","null","<img src=""img/land1.png"" style=""width:200px;border:14px solid red;"">","null","","","","","","","",""
"","image-keyboard-response","185","74338","0.0-276.0","3PJ71Z61R5OTHAQ6UURBW89E8QP19S","A2ZDEERVRN5AMC","3UAU495MIIEABANG75FBFHDC9WUUOI","","401.7000000476837","img/land4.png","76","402.7999999523163","3","1","false","3","1,1,0,0,1,1,1,0,1","",""
"","html-keyboard-response","186","74646","0.0-277.0","3PJ71Z61R5OTHAQ6UURBW89E8QP19S","A2ZDEERVRN5AMC","3UAU495MIIEABANG75FBFHDC9WUUOI","","null","<img src=""img/land4.png"" style=""width:200px; border:14px solid green;"">","null","","","","","","","",""
"","image-keyboard-response","187","74897","0.0-279.0","3PJ71Z61R5OTHAQ6UURBW89E8QP19S","A2ZDEERVRN5AMC","3UAU495MIIEABANG75FBFHDC9WUUOI","","249.70000004768372","img/land4.png","75","250.69999980926514","2","0","false","3","1,1,0,0,1,1,1,0,1","",""
"","html-keyboard-response","188","75207","0.0-280.0","3PJ71Z61R5OTHAQ6UURBW89E8QP19S","A2ZDEERVRN5AMC","3UAU495MIIEABANG75FBFHDC9WUUOI","","null","<img src=""img/land4.png"" style=""width:200px;border:14px solid red;"">","null","","","","","","","",""
"","image-keyboard-response","189","75505","0.0-282.0","3PJ71Z61R5OTHAQ6UURBW89E8QP19S","A2ZDEERVRN5AMC","3UAU495MIIEABANG75FBFHDC9WUUOI","","297.40000009536743","img/land4.png","74","298.39999985694885","1","1","false","3","1,1,0,0,1,1,1,0,1","",""
"","html-keyboard-response","190","75814","0.0-283.0","3PJ71Z61R5OTHAQ6UURBW89E8QP19S","A2ZDEERVRN5AMC","3UAU495MIIEABANG75FBFHDC9WUUOI","","null","<img src=""img/land4.png"" style=""width:200px; border:14px solid green;"">","null","","","","","","","",""
"","image-keyboard-response","191","76041","0.0-285.0","3PJ71Z61R5OTHAQ6UURBW89E8QP19S","A2ZDEERVRN5AMC","3UAU495MIIEABANG75FBFHDC9WUUOI","","225.5","img/land4.png","74","226.90000009536743","1","1","false","3","1,1,0,0,1,1,1,0,1","",""
"","html-keyboard-response","192","76350","0.0-286.0","3PJ71Z61R5OTHAQ6UURBW89E8QP19S","A2ZDEERVRN5AMC","3UAU495MIIEABANG75FBFHDC9WUUOI","","null","<img src=""img/land4.png"" style=""width:200px; border:14px solid green;"">","null","","","","","","","",""
"","image-keyboard-response","193","76514","0.0-288.0","3PJ71Z61R5OTHAQ6UURBW89E8QP19S","A2ZDEERVRN5AMC","3UAU495MIIEABANG75FBFHDC9WUUOI","","161.60000014305115","img/land4.png","76","163.10000014305115","3","1","false","3","1,1,0,0,1,1,1,0,1","",""
"","html-keyboard-response","194","76822","0.0-289.0","3PJ71Z61R5OTHAQ6UURBW89E8QP19S","A2ZDEERVRN5AMC","3UAU495MIIEABANG75FBFHDC9WUUOI","","null","<img src=""img/land4.png"" style=""width:200px; border:14px solid green;"">","null","","","","","","","",""
"","image-keyboard-response","195","76953","0.0-291.0","3PJ71Z61R5OTHAQ6UURBW89E8QP19S","A2ZDEERVRN5AMC","3UAU495MIIEABANG75FBFHDC9WUUOI","","130.20000004768372","img/land1.png","74","131.09999990463257","1","0","false","2","1,1,0,0,1,1,1,0,1","",""
"","html-keyboard-response","196","77262","0.0-292.0","3PJ71Z61R5OTHAQ6UURBW89E8QP19S","A2ZDEERVRN5AMC","3UAU495MIIEABANG75FBFHDC9WUUOI","","null","<img src=""img/land1.png"" style=""width:200px;border:14px solid red;"">","null","","","","","","","",""
"","image-keyboard-response","197","77545","0.0-294.0","3PJ71Z61R5OTHAQ6UURBW89E8QP19S","A2ZDEERVRN5AMC","3UAU495MIIEABANG75FBFHDC9WUUOI","","281.59999990463257","img/land1.png","75","282.90000009536743","2","1","false","2","1,1,0,0,1,1,1,0,1","",""
"","html-keyboard-response","198","77854","0.0-295.0","3PJ71Z61R5OTHAQ6UURBW89E8QP19S","A2ZDEERVRN5AMC","3UAU495MIIEABANG75FBFHDC9WUUOI","","null","<img src=""img/land1.png"" style=""width:200px; border:14px solid green;"">","null","","","","","","","",""
"","image-keyboard-response","199","78042","0.0-297.0","3PJ71Z61R5OTHAQ6UURBW89E8QP19S","A2ZDEERVRN5AMC","3UAU495MIIEABANG75FBFHDC9WUUOI","","186.29999995231628","img/land6.png","75","187.09999990463257","2","1","false","1","1,1,0,0,1,1,1,0,1","",""
"","html-keyboard-response","200","78350","0.0-298.0","3PJ71Z61R5OTHAQ6UURBW89E8QP19S","A2ZDEERVRN5AMC","3UAU495MIIEABANG75FBFHDC9WUUOI","","null","<img src=""img/land6.png"" style=""width:200px; border:14px solid green;"">","null","","","","","","","",""
"","image-keyboard-response","201","78761","0.0-300.0","3PJ71Z61R5OTHAQ6UURBW89E8QP19S","A2ZDEERVRN5AMC","3UAU495MIIEABANG75FBFHDC9WUUOI","","409.2999999523163","img/land4.png","75","410.5","2","0","false","3","1,1,0,0,1,1,1,0,1","",""
"","html-keyboard-response","202","79070","0.0-301.0","3PJ71Z61R5OTHAQ6UURBW89E8QP19S","A2ZDEERVRN5AMC","3UAU495MIIEABANG75FBFHDC9WUUOI","","null","<img src=""img/land4.png"" style=""width:200px;border:14px solid red;"">","null","","","","","","","",""
"","image-keyboard-response","203","79425","0.0-303.0","3PJ71Z61R5OTHAQ6UURBW89E8QP19S","A2ZDEERVRN5AMC","3UAU495MIIEABANG75FBFHDC9WUUOI","","353.39999985694885","img/land4.png","74","354.60000014305115","1","1","false","3","1,1,0,0,1,1,1,0,1","",""
"","html-keyboard-response","204","79734","0.0-304.0","3PJ71Z61R5OTHAQ6UURBW89E8QP19S","A2ZDEERVRN5AMC","3UAU495MIIEABANG75FBFHDC9WUUOI","","null","<img src=""img/land4.png"" style=""width:200px; border:14px solid green;"">","null","","","","","","","",""
"","image-keyboard-response","205","80001","0.0-306.0","3PJ71Z61R5OTHAQ6UURBW89E8QP19S","A2ZDEERVRN5AMC","3UAU495MIIEABANG75FBFHDC9WUUOI","","265.19999980926514","img/land6.png","76","266.40000009536743","3","0","false","1","1,1,0,0,1,1,1,0,1","",""
"","html-keyboard-response","206","80311","0.0-307.0","3PJ71Z61R5OTHAQ6UURBW89E8QP19S","A2ZDEERVRN5AMC","3UAU495MIIEABANG75FBFHDC9WUUOI","","null","<img src=""img/land6.png"" style=""width:200px;border:14px solid red;"">","null","","","","","","","",""
"","image-keyboard-response","207","80713","0.0-309.0","3PJ71Z61R5OTHAQ6UURBW89E8QP19S","A2ZDEERVRN5AMC","3UAU495MIIEABANG75FBFHDC9WUUOI","","401.09999990463257","img/land1.png","75","402.19999980926514","2","1","false","2","1,1,0,0,1,1,1,0,1","",""
"","html-keyboard-response","208","81023","0.0-310.0","3PJ71Z61R5OTHAQ6UURBW89E8QP19S","A2ZDEERVRN5AMC","3UAU495MIIEABANG75FBFHDC9WUUOI","","null","<img src=""img/land1.png"" style=""width:200px; border:14px solid green;"">","null","","","","","","","",""
"","image-keyboard-response","209","81353","0.0-312.0","3PJ71Z61R5OTHAQ6UURBW89E8QP19S","A2ZDEERVRN5AMC","3UAU495MIIEABANG75FBFHDC9WUUOI","","328.7999999523163","img/land1.png","76","330.09999990463257","3","1","false","2","1,1,0,0,1,1,1,0,1","",""
"","html-keyboard-response","210","81663","0.0-313.0","3PJ71Z61R5OTHAQ6UURBW89E8QP19S","A2ZDEERVRN5AMC","3UAU495MIIEABANG75FBFHDC9WUUOI","","null","<img src=""img/land1.png"" style=""width:200px; border:14px solid green;"">","null","","","","","","","",""
"","image-keyboard-response","211","81937","0.0-315.0","3PJ71Z61R5OTHAQ6UURBW89E8QP19S","A2ZDEERVRN5AMC","3UAU495MIIEABANG75FBFHDC9WUUOI","","273.2000000476837","img/land1.png","74","274.10000014305115","1","0","false","2","1,1,0,0,1,1,1,0,1","",""
"","html-keyboard-response","212","82246","0.0-316.0","3PJ71Z61R5OTHAQ6UURBW89E8QP19S","A2ZDEERVRN5AMC","3UAU495MIIEABANG75FBFHDC9WUUOI","","null","<img src=""img/land1.png"" style=""width:200px;border:14px solid red;"">","null","","","","","","","",""
"","image-keyboard-response","213","82409","0.0-318.0","3PJ71Z61R5OTHAQ6UURBW89E8QP19S","A2ZDEERVRN5AMC","3UAU495MIIEABANG75FBFHDC9WUUOI","","161.19999980926514","img/land1.png","76","162.40000009536743","3","1","false","2","1,1,0,0,1,1,1,0,1","",""
"","html-keyboard-response","214","82718","0.0-319.0","3PJ71Z61R5OTHAQ6UURBW89E8QP19S","A2ZDEERVRN5AMC","3UAU495MIIEABANG75FBFHDC9WUUOI","","null","<img src=""img/land1.png"" style=""width:200px; border:14px solid green;"">","null","","","","","","","",""
"","image-keyboard-response","215","83017","0.0-321.0","3PJ71Z61R5OTHAQ6UURBW89E8QP19S","A2ZDEERVRN5AMC","3UAU495MIIEABANG75FBFHDC9WUUOI","","297.10000014305115","img/land1.png","76","298.5","3","1","false","2","1,1,0,0,1,1,1,0,1","",""
"","html-keyboard-response","216","83326","0.0-322.0","3PJ71Z61R5OTHAQ6UURBW89E8QP19S","A2ZDEERVRN5AMC","3UAU495MIIEABANG75FBFHDC9WUUOI","","null","<img src=""img/land1.png"" style=""width:200px; border:14px solid green;"">","null","","","","","","","",""
"","image-keyboard-response","217","83393","0.0-324.0","3PJ71Z61R5OTHAQ6UURBW89E8QP19S","A2ZDEERVRN5AMC","3UAU495MIIEABANG75FBFHDC9WUUOI","","65.09999990463257","img/land4.png","75","66.20000004768372","2","0","false","3","1,1,0,0,1,1,1,0,1","",""
"","html-keyboard-response","218","83702","0.0-325.0","3PJ71Z61R5OTHAQ6UURBW89E8QP19S","A2ZDEERVRN5AMC","3UAU495MIIEABANG75FBFHDC9WUUOI","","null","<img src=""img/land4.png"" style=""width:200px;border:14px solid red;"">","null","","","","","","","",""
"","image-keyboard-response","219","84209","0.0-327.0","3PJ71Z61R5OTHAQ6UURBW89E8QP19S","A2ZDEERVRN5AMC","3UAU495MIIEABANG75FBFHDC9WUUOI","","505.09999990463257","img/land4.png","74","506.2999999523163","1","1","false","3","1,1,0,0,1,1,1,0,1","",""
"","html-keyboard-response","220","84518","0.0-328.0","3PJ71Z61R5OTHAQ6UURBW89E8QP19S","A2ZDEERVRN5AMC","3UAU495MIIEABANG75FBFHDC9WUUOI","","null","<img src=""img/land4.png"" style=""width:200px; border:14px solid green;"">","null","","","","","","","",""
"","image-keyboard-response","221","84874","0.0-330.0","3PJ71Z61R5OTHAQ6UURBW89E8QP19S","A2ZDEERVRN5AMC","3UAU495MIIEABANG75FBFHDC9WUUOI","","354.2000000476837","img/land6.png","76","355.40000009536743","3","0","false","1","1,1,0,0,1,1,1,0,1","",""
"","html-keyboard-response","222","85183","0.0-331.0","3PJ71Z61R5OTHAQ6UURBW89E8QP19S","A2ZDEERVRN5AMC","3UAU495MIIEABANG75FBFHDC9WUUOI","","null","<img src=""img/land6.png"" style=""width:200px;border:14px solid red;"">","null","","","","","","","",""
"","image-keyboard-response","223","85457","0.0-333.0","3PJ71Z61R5OTHAQ6UURBW89E8QP19S","A2ZDEERVRN5AMC","3UAU495MIIEABANG75FBFHDC9WUUOI","","272.59999990463257","img/land4.png","75","273.90000009536743","2","0","false","3","1,1,0,0,1,1,1,0,1","",""
"","html-keyboard-response","224","85766","0.0-334.0","3PJ71Z61R5OTHAQ6UURBW89E8QP19S","A2ZDEERVRN5AMC","3UAU495MIIEABANG75FBFHDC9WUUOI","","null","<img src=""img/land4.png"" style=""width:200px;border:14px solid red;"">","null","","","","","","","",""
"","image-keyboard-response","225","86249","0.0-336.0","3PJ71Z61R5OTHAQ6UURBW89E8QP19S","A2ZDEERVRN5AMC","3UAU495MIIEABANG75FBFHDC9WUUOI","","481.10000014305115","img/land4.png","74","482.39999985694885","1","1","false","3","1,1,0,0,1,1,1,0,1","",""
"","html-keyboard-response","226","86559","0.0-337.0","3PJ71Z61R5OTHAQ6UURBW89E8QP19S","A2ZDEERVRN5AMC","3UAU495MIIEABANG75FBFHDC9WUUOI","","null","<img src=""img/land4.png"" style=""width:200px; border:14px solid green;"">","null","","","","","","","",""
"","image-keyboard-response","227","86921","0.0-339.0","3PJ71Z61R5OTHAQ6UURBW89E8QP19S","A2ZDEERVRN5AMC","3UAU495MIIEABANG75FBFHDC9WUUOI","","361","img/land6.png","74","362.2999999523163","1","1","false","1","1,1,0,0,1,1,1,0,1","",""
"","html-keyboard-response","228","87231","0.0-340.0","3PJ71Z61R5OTHAQ6UURBW89E8QP19S","A2ZDEERVRN5AMC","3UAU495MIIEABANG75FBFHDC9WUUOI","","null","<img src=""img/land6.png"" style=""width:200px; border:14px solid green;"">","null","","","","","","","",""
"","image-keyboard-response","229","87546","0.0-342.0","3PJ71Z61R5OTHAQ6UURBW89E8QP19S","A2ZDEERVRN5AMC","3UAU495MIIEABANG75FBFHDC9WUUOI","","313.10000014305115","img/land6.png","74","315.10000014305115","1","1","false","1","1,1,0,0,1,1,1,0,1","",""
"","html-keyboard-response","230","87855","0.0-343.0","3PJ71Z61R5OTHAQ6UURBW89E8QP19S","A2ZDEERVRN5AMC","3UAU495MIIEABANG75FBFHDC9WUUOI","","null","<img src=""img/land6.png"" style=""width:200px; border:14px solid green;"">","null","","","","","","","",""
"","image-keyboard-response","231","88209","0.0-345.0","3PJ71Z61R5OTHAQ6UURBW89E8QP19S","A2ZDEERVRN5AMC","3UAU495MIIEABANG75FBFHDC9WUUOI","","352.90000009536743","img/land1.png","76","354.2000000476837","3","1","false","2","1,1,0,0,1,1,1,0,1","",""
"","html-keyboard-response","232","88519","0.0-346.0","3PJ71Z61R5OTHAQ6UURBW89E8QP19S","A2ZDEERVRN5AMC","3UAU495MIIEABANG75FBFHDC9WUUOI","","null","<img src=""img/land1.png"" style=""width:200px; border:14px solid green;"">","null","","","","","","","",""
"","image-keyboard-response","233","88809","0.0-348.0","3PJ71Z61R5OTHAQ6UURBW89E8QP19S","A2ZDEERVRN5AMC","3UAU495MIIEABANG75FBFHDC9WUUOI","","288.7999999523163","img/land1.png","76","290.09999990463257","3","1","false","2","1,1,0,0,1,1,1,0,1","",""
"","html-keyboard-response","234","89119","0.0-349.0","3PJ71Z61R5OTHAQ6UURBW89E8QP19S","A2ZDEERVRN5AMC","3UAU495MIIEABANG75FBFHDC9WUUOI","","null","<img src=""img/land1.png"" style=""width:200px; border:14px solid green;"">","null","","","","","","","",""
"","image-keyboard-response","235","89577","0.0-351.0","3PJ71Z61R5OTHAQ6UURBW89E8QP19S","A2ZDEERVRN5AMC","3UAU495MIIEABANG75FBFHDC9WUUOI","","456.7000000476837","img/land6.png","74","457.89999985694885","1","1","false","1","1,1,0,0,1,1,1,0,1","",""
"","html-keyboard-response","236","89879","0.0-352.0","3PJ71Z61R5OTHAQ6UURBW89E8QP19S","A2ZDEERVRN5AMC","3UAU495MIIEABANG75FBFHDC9WUUOI","","null","<img src=""img/land6.png"" style=""width:200px; border:14px solid green;"">","null","","","","","","","",""
"","image-keyboard-response","237","90185","0.0-354.0","3PJ71Z61R5OTHAQ6UURBW89E8QP19S","A2ZDEERVRN5AMC","3UAU495MIIEABANG75FBFHDC9WUUOI","","304.7999999523163","img/land6.png","75","306.09999990463257","2","1","false","1","1,1,0,0,1,1,1,0,1","",""
"","html-keyboard-response","238","90495","0.0-355.0","3PJ71Z61R5OTHAQ6UURBW89E8QP19S","A2ZDEERVRN5AMC","3UAU495MIIEABANG75FBFHDC9WUUOI","","null","<img src=""img/land6.png"" style=""width:200px; border:14px solid green;"">","null","","","","","","","",""
"","image-keyboard-response","239","90777","0.0-357.0","3PJ71Z61R5OTHAQ6UURBW89E8QP19S","A2ZDEERVRN5AMC","3UAU495MIIEABANG75FBFHDC9WUUOI","","280.7999999523163","img/land1.png","76","281.90000009536743","3","1","false","2","1,1,0,0,1,1,1,0,1","",""
"","html-keyboard-response","240","91087","0.0-358.0","3PJ71Z61R5OTHAQ6UURBW89E8QP19S","A2ZDEERVRN5AMC","3UAU495MIIEABANG75FBFHDC9WUUOI","","null","<img src=""img/land1.png"" style=""width:200px; border:14px solid green;"">","null","","","","","","","",""
"","image-keyboard-response","241","91337","0.0-360.0","3PJ71Z61R5OTHAQ6UURBW89E8QP19S","A2ZDEERVRN5AMC","3UAU495MIIEABANG75FBFHDC9WUUOI","","248.70000004768372","img/land6.png","74","250","1","1","false","1","1,1,0,0,1,1,1,0,1","",""
"","html-keyboard-response","242","91647","0.0-361.0","3PJ71Z61R5OTHAQ6UURBW89E8QP19S","A2ZDEERVRN5AMC","3UAU495MIIEABANG75FBFHDC9WUUOI","","null","<img src=""img/land6.png"" style=""width:200px; border:14px solid green;"">","null","","","","","","","",""
"","image-keyboard-response","243","92265","0.0-363.0","3PJ71Z61R5OTHAQ6UURBW89E8QP19S","A2ZDEERVRN5AMC","3UAU495MIIEABANG75FBFHDC9WUUOI","","617.1000001430511","img/land1.png","74","618.2999999523163","1","0","false","2","1,1,0,0,1,1,1,0,1","",""
"","html-keyboard-response","244","92574","0.0-364.0","3PJ71Z61R5OTHAQ6UURBW89E8QP19S","A2ZDEERVRN5AMC","3UAU495MIIEABANG75FBFHDC9WUUOI","","null","<img src=""img/land1.png"" style=""width:200px;border:14px solid red;"">","null","","","","","","","",""
"","image-keyboard-response","245","92809","0.0-366.0","3PJ71Z61R5OTHAQ6UURBW89E8QP19S","A2ZDEERVRN5AMC","3UAU495MIIEABANG75FBFHDC9WUUOI","","233.70000004768372","img/land6.png","76","234.70000004768372","3","0","false","1","1,1,0,0,1,1,1,0,1","",""
"","html-keyboard-response","246","93118","0.0-367.0","3PJ71Z61R5OTHAQ6UURBW89E8QP19S","A2ZDEERVRN5AMC","3UAU495MIIEABANG75FBFHDC9WUUOI","","null","<img src=""img/land6.png"" style=""width:200px;border:14px solid red;"">","null","","","","","","","",""
"","image-keyboard-response","247","93561","0.0-369.0","3PJ71Z61R5OTHAQ6UURBW89E8QP19S","A2ZDEERVRN5AMC","3UAU495MIIEABANG75FBFHDC9WUUOI","","441.09999990463257","img/land1.png","75","442.5","2","1","false","2","1,1,0,0,1,1,1,0,1","",""
"","html-keyboard-response","248","93871","0.0-370.0","3PJ71Z61R5OTHAQ6UURBW89E8QP19S","A2ZDEERVRN5AMC","3UAU495MIIEABANG75FBFHDC9WUUOI","","null","<img src=""img/land1.png"" style=""width:200px; border:14px solid green;"">","null","","","","","","","",""
"","image-keyboard-response","249","94409","0.0-372.0","3PJ71Z61R5OTHAQ6UURBW89E8QP19S","A2ZDEERVRN5AMC","3UAU495MIIEABANG75FBFHDC9WUUOI","","536.7999999523163","img/land4.png","74","538","1","1","false","3","1,1,0,0,1,1,1,0,1","",""
"","html-keyboard-response","250","94719","0.0-373.0","3PJ71Z61R5OTHAQ6UURBW89E8QP19S","A2ZDEERVRN5AMC","3UAU495MIIEABANG75FBFHDC9WUUOI","","null","<img src=""img/land4.png"" style=""width:200px; border:14px solid green;"">","null","","","","","","","",""
"","image-keyboard-response","251","94961","0.0-375.0","3PJ71Z61R5OTHAQ6UURBW89E8QP19S","A2ZDEERVRN5AMC","3UAU495MIIEABANG75FBFHDC9WUUOI","","241.70000004768372","img/land6.png","76","242.60000014305115","3","0","false","1","1,1,0,0,1,1,1,0,1","",""
"","html-keyboard-response","252","95263","0.0-376.0","3PJ71Z61R5OTHAQ6UURBW89E8QP19S","A2ZDEERVRN5AMC","3UAU495MIIEABANG75FBFHDC9WUUOI","","null","<img src=""img/land6.png"" style=""width:200px;border:14px solid red;"">","null","","","","","","","",""
"","image-keyboard-response","253","95553","0.0-378.0","3PJ71Z61R5OTHAQ6UURBW89E8QP19S","A2ZDEERVRN5AMC","3UAU495MIIEABANG75FBFHDC9WUUOI","","288.2999999523163","img/land6.png","75","289.80000019073486","2","1","false","1","1,1,0,0,1,1,1,0,1","",""
"","html-keyboard-response","254","95862","0.0-379.0","3PJ71Z61R5OTHAQ6UURBW89E8QP19S","A2ZDEERVRN5AMC","3UAU495MIIEABANG75FBFHDC9WUUOI","","null","<img src=""img/land6.png"" style=""width:200px; border:14px solid green;"">","null","","","","","","","",""
"","image-keyboard-response","255","96233","0.0-381.0","3PJ71Z61R5OTHAQ6UURBW89E8QP19S","A2ZDEERVRN5AMC","3UAU495MIIEABANG75FBFHDC9WUUOI","","368.7000000476837","img/land1.png","75","370","2","1","false","2","1,1,0,0,1,1,1,0,1","",""
"","html-keyboard-response","256","96543","0.0-382.0","3PJ71Z61R5OTHAQ6UURBW89E8QP19S","A2ZDEERVRN5AMC","3UAU495MIIEABANG75FBFHDC9WUUOI","","null","<img src=""img/land1.png"" style=""width:200px; border:14px solid green;"">","null","","","","","","","",""
"","image-keyboard-response","257","96897","0.0-384.0","3PJ71Z61R5OTHAQ6UURBW89E8QP19S","A2ZDEERVRN5AMC","3UAU495MIIEABANG75FBFHDC9WUUOI","","352.7999999523163","img/land1.png","75","353.90000009536743","2","1","false","2","1,1,0,0,1,1,1,0,1","",""
"","html-keyboard-response","258","97199","0.0-385.0","3PJ71Z61R5OTHAQ6UURBW89E8QP19S","A2ZDEERVRN5AMC","3UAU495MIIEABANG75FBFHDC9WUUOI","","null","<img src=""img/land1.png"" style=""width:200px; border:14px solid green;"">","null","","","","","","","",""
"","image-keyboard-response","259","97393","0.0-387.0","3PJ71Z61R5OTHAQ6UURBW89E8QP19S","A2ZDEERVRN5AMC","3UAU495MIIEABANG75FBFHDC9WUUOI","","192.5","img/land1.png","74","193.80000019073486","1","0","false","2","1,1,0,0,1,1,1,0,1","",""
"","html-keyboard-response","260","97695","0.0-388.0","3PJ71Z61R5OTHAQ6UURBW89E8QP19S","A2ZDEERVRN5AMC","3UAU495MIIEABANG75FBFHDC9WUUOI","","null","<img src=""img/land1.png"" style=""width:200px;border:14px solid red;"">","null","","","","","","","",""
"","image-keyboard-response","261","97913","0.0-390.0","3PJ71Z61R5OTHAQ6UURBW89E8QP19S","A2ZDEERVRN5AMC","3UAU495MIIEABANG75FBFHDC9WUUOI","","216.40000009536743","img/land1.png","75","217.59999990463257","2","1","false","2","1,1,0,0,1,1,1,0,1","",""
"","html-keyboard-response","262","98215","0.0-391.0","3PJ71Z61R5OTHAQ6UURBW89E8QP19S","A2ZDEERVRN5AMC","3UAU495MIIEABANG75FBFHDC9WUUOI","","null","<img src=""img/land1.png"" style=""width:200px; border:14px solid green;"">","null","","","","","","","",""
"","image-keyboard-response","263","98409","0.0-393.0","3PJ71Z61R5OTHAQ6UURBW89E8QP19S","A2ZDEERVRN5AMC","3UAU495MIIEABANG75FBFHDC9WUUOI","","192.59999990463257","img/land1.png","75","194.10000014305115","2","1","false","2","1,1,0,0,1,1,1,0,1","",""
"","html-keyboard-response","264","98718","0.0-394.0","3PJ71Z61R5OTHAQ6UURBW89E8QP19S","A2ZDEERVRN5AMC","3UAU495MIIEABANG75FBFHDC9WUUOI","","null","<img src=""img/land1.png"" style=""width:200px; border:14px solid green;"">","null","","","","","","","",""
"","image-keyboard-response","265","99113","0.0-396.0","3PJ71Z61R5OTHAQ6UURBW89E8QP19S","A2ZDEERVRN5AMC","3UAU495MIIEABANG75FBFHDC9WUUOI","","393.2999999523163","img/land4.png","76","394.2999999523163","3","1","false","3","1,1,0,0,1,1,1,0,1","",""
"","html-keyboard-response","266","99422","0.0-397.0","3PJ71Z61R5OTHAQ6UURBW89E8QP19S","A2ZDEERVRN5AMC","3UAU495MIIEABANG75FBFHDC9WUUOI","","null","<img src=""img/land4.png"" style=""width:200px; border:14px solid green;"">","null","","","","","","","",""
"","image-keyboard-response","267","99689","0.0-399.0","3PJ71Z61R5OTHAQ6UURBW89E8QP19S","A2ZDEERVRN5AMC","3UAU495MIIEABANG75FBFHDC9WUUOI","","264.5","img/land6.png","75","265.7000000476837","2","1","false","1","1,1,0,0,1,1,1,0,1","",""
"","html-keyboard-response","268","99991","0.0-400.0","3PJ71Z61R5OTHAQ6UURBW89E8QP19S","A2ZDEERVRN5AMC","3UAU495MIIEABANG75FBFHDC9WUUOI","","null","<img src=""img/land6.png"" style=""width:200px; border:14px solid green;"">","null","","","","","","","",""
"","image-keyboard-response","269","100153","0.0-402.0","3PJ71Z61R5OTHAQ6UURBW89E8QP19S","A2ZDEERVRN5AMC","3UAU495MIIEABANG75FBFHDC9WUUOI","","160.5","img/land6.png","75","161.79999995231628","2","1","false","1","1,1,0,0,1,1,1,0,1","",""
"","html-keyboard-response","270","100463","0.0-403.0","3PJ71Z61R5OTHAQ6UURBW89E8QP19S","A2ZDEERVRN5AMC","3UAU495MIIEABANG75FBFHDC9WUUOI","","null","<img src=""img/land6.png"" style=""width:200px; border:14px solid green;"">","null","","","","","","","",""
"","image-keyboard-response","271","100665","0.0-405.0","3PJ71Z61R5OTHAQ6UURBW89E8QP19S","A2ZDEERVRN5AMC","3UAU495MIIEABANG75FBFHDC9WUUOI","","200.5","img/land4.png","75","201.79999995231628","2","0","false","3","1,1,0,0,1,1,1,0,1","",""
"","html-keyboard-response","272","100975","0.0-406.0","3PJ71Z61R5OTHAQ6UURBW89E8QP19S","A2ZDEERVRN5AMC","3UAU495MIIEABANG75FBFHDC9WUUOI","","null","<img src=""img/land4.png"" style=""width:200px;border:14px solid red;"">","null","","","","","","","",""
"","image-keyboard-response","273","101233","0.0-408.0","3PJ71Z61R5OTHAQ6UURBW89E8QP19S","A2ZDEERVRN5AMC","3UAU495MIIEABANG75FBFHDC9WUUOI","","256.40000009536743","img/land1.png","76","257.59999990463257","3","1","false","2","1,1,0,0,1,1,1,0,1","",""
"","html-keyboard-response","274","101543","0.0-409.0","3PJ71Z61R5OTHAQ6UURBW89E8QP19S","A2ZDEERVRN5AMC","3UAU495MIIEABANG75FBFHDC9WUUOI","","null","<img src=""img/land1.png"" style=""width:200px; border:14px solid green;"">","null","","","","","","","",""
"","image-keyboard-response","275","101945","0.0-411.0","3PJ71Z61R5OTHAQ6UURBW89E8QP19S","A2ZDEERVRN5AMC","3UAU495MIIEABANG75FBFHDC9WUUOI","","400.5","img/land4.png","74","401.59999990463257","1","1","false","3","1,1,0,0,1,1,1,0,1","",""
"","html-keyboard-response","276","102247","0.0-412.0","3PJ71Z61R5OTHAQ6UURBW89E8QP19S","A2ZDEERVRN5AMC","3UAU495MIIEABANG75FBFHDC9WUUOI","","null","<img src=""img/land4.png"" style=""width:200px; border:14px solid green;"">","null","","","","","","","",""
"","image-keyboard-response","277","102576","0.0-414.0","3PJ71Z61R5OTHAQ6UURBW89E8QP19S","A2ZDEERVRN5AMC","3UAU495MIIEABANG75FBFHDC9WUUOI","","328.09999990463257","img/land4.png","74","329.2000000476837","1","1","false","3","1,1,0,0,1,1,1,0,1","",""
"","html-keyboard-response","278","102879","0.0-415.0","3PJ71Z61R5OTHAQ6UURBW89E8QP19S","A2ZDEERVRN5AMC","3UAU495MIIEABANG75FBFHDC9WUUOI","","null","<img src=""img/land4.png"" style=""width:200px; border:14px solid green;"">","null","","","","","","","",""
"","image-keyboard-response","279","103193","0.0-417.0","3PJ71Z61R5OTHAQ6UURBW89E8QP19S","A2ZDEERVRN5AMC","3UAU495MIIEABANG75FBFHDC9WUUOI","","312.59999990463257","img/land4.png","74","313.7999999523163","1","1","false","3","1,1,0,0,1,1,1,0,1","",""
"","html-keyboard-response","280","103503","0.0-418.0","3PJ71Z61R5OTHAQ6UURBW89E8QP19S","A2ZDEERVRN5AMC","3UAU495MIIEABANG75FBFHDC9WUUOI","","null","<img src=""img/land4.png"" style=""width:200px; border:14px solid green;"">","null","","","","","","","",""
"","image-keyboard-response","281","104001","0.0-420.0","3PJ71Z61R5OTHAQ6UURBW89E8QP19S","A2ZDEERVRN5AMC","3UAU495MIIEABANG75FBFHDC9WUUOI","","496.39999985694885","img/land6.png","76","497.60000014305115","3","0","false","1","1,1,0,0,1,1,1,0,1","",""
"","html-keyboard-response","282","104311","0.0-421.0","3PJ71Z61R5OTHAQ6UURBW89E8QP19S","A2ZDEERVRN5AMC","3UAU495MIIEABANG75FBFHDC9WUUOI","","null","<img src=""img/land6.png"" style=""width:200px;border:14px solid red;"">","null","","","","","","","",""
"","image-keyboard-response","283","104560","0.0-423.0","3PJ71Z61R5OTHAQ6UURBW89E8QP19S","A2ZDEERVRN5AMC","3UAU495MIIEABANG75FBFHDC9WUUOI","","248.40000009536743","img/land4.png","75","249.5","2","0","false","3","1,1,0,0,1,1,1,0,1","",""
"","html-keyboard-response","284","104862","0.0-424.0","3PJ71Z61R5OTHAQ6UURBW89E8QP19S","A2ZDEERVRN5AMC","3UAU495MIIEABANG75FBFHDC9WUUOI","","null","<img src=""img/land4.png"" style=""width:200px;border:14px solid red;"">","null","","","","","","","",""
"","image-keyboard-response","285","105049","0.0-426.0","3PJ71Z61R5OTHAQ6UURBW89E8QP19S","A2ZDEERVRN5AMC","3UAU495MIIEABANG75FBFHDC9WUUOI","","169.70000004768372","img/land4.png","74","186.29999995231628","1","1","false","3","1,1,0,0,1,1,1,0,1","",""
"","html-keyboard-response","286","105359","0.0-427.0","3PJ71Z61R5OTHAQ6UURBW89E8QP19S","A2ZDEERVRN5AMC","3UAU495MIIEABANG75FBFHDC9WUUOI","","null","<img src=""img/land4.png"" style=""width:200px; border:14px solid green;"">","null","","","","","","","",""
"","image-keyboard-response","287","105632","0.0-429.0","3PJ71Z61R5OTHAQ6UURBW89E8QP19S","A2ZDEERVRN5AMC","3UAU495MIIEABANG75FBFHDC9WUUOI","","272.2000000476837","img/land4.png","74","273.40000009536743","1","1","false","3","1,1,0,0,1,1,1,0,1","",""
"","html-keyboard-response","288","105935","0.0-430.0","3PJ71Z61R5OTHAQ6UURBW89E8QP19S","A2ZDEERVRN5AMC","3UAU495MIIEABANG75FBFHDC9WUUOI","","null","<img src=""img/land4.png"" style=""width:200px; border:14px solid green;"">","null","","","","","","","",""
"","image-keyboard-response","289","106521","0.0-432.0","3PJ71Z61R5OTHAQ6UURBW89E8QP19S","A2ZDEERVRN5AMC","3UAU495MIIEABANG75FBFHDC9WUUOI","","584.3000001907349","img/land6.png","75","585.5","2","1","false","1","1,1,0,0,1,1,1,0,1","",""
"","html-keyboard-response","290","106823","0.0-433.0","3PJ71Z61R5OTHAQ6UURBW89E8QP19S","A2ZDEERVRN5AMC","3UAU495MIIEABANG75FBFHDC9WUUOI","","null","<img src=""img/land6.png"" style=""width:200px; border:14px solid green;"">","null","","","","","","","",""
"","image-keyboard-response","291","107097","0.0-435.0","3PJ71Z61R5OTHAQ6UURBW89E8QP19S","A2ZDEERVRN5AMC","3UAU495MIIEABANG75FBFHDC9WUUOI","","272.90000009536743","img/land6.png","75","274","2","1","false","1","1,1,0,0,1,1,1,0,1","",""
"","html-keyboard-response","292","107407","0.0-436.0","3PJ71Z61R5OTHAQ6UURBW89E8QP19S","A2ZDEERVRN5AMC","3UAU495MIIEABANG75FBFHDC9WUUOI","","null","<img src=""img/land6.png"" style=""width:200px; border:14px solid green;"">","null","","","","","","","",""
"","image-keyboard-response","293","107632","0.0-438.0","3PJ71Z61R5OTHAQ6UURBW89E8QP19S","A2ZDEERVRN5AMC","3UAU495MIIEABANG75FBFHDC9WUUOI","","223.79999995231628","img/land1.png","74","225.09999990463257","1","0","false","2","1,1,0,0,1,1,1,0,1","",""
"","html-keyboard-response","294","107934","0.0-439.0","3PJ71Z61R5OTHAQ6UURBW89E8QP19S","A2ZDEERVRN5AMC","3UAU495MIIEABANG75FBFHDC9WUUOI","","null","<img src=""img/land1.png"" style=""width:200px;border:14px solid red;"">","null","","","","","","","",""
"","image-keyboard-response","295","108129","0.0-441.0","3PJ71Z61R5OTHAQ6UURBW89E8QP19S","A2ZDEERVRN5AMC","3UAU495MIIEABANG75FBFHDC9WUUOI","","192.79999995231628","img/land4.png","76","194.09999990463257","3","1","false","3","1,1,0,0,1,1,1,0,1","",""
"","html-keyboard-response","296","108438","0.0-442.0","3PJ71Z61R5OTHAQ6UURBW89E8QP19S","A2ZDEERVRN5AMC","3UAU495MIIEABANG75FBFHDC9WUUOI","","null","<img src=""img/land4.png"" style=""width:200px; border:14px solid green;"">","null","","","","","","","",""
"","image-keyboard-response","297","108624","0.0-444.0","3PJ71Z61R5OTHAQ6UURBW89E8QP19S","A2ZDEERVRN5AMC","3UAU495MIIEABANG75FBFHDC9WUUOI","","184.60000014305115","img/land4.png","76","185.70000004768372","3","1","false","3","1,1,0,0,1,1,1,0,1","",""
"","html-keyboard-response","298","108926","0.0-445.0","3PJ71Z61R5OTHAQ6UURBW89E8QP19S","A2ZDEERVRN5AMC","3UAU495MIIEABANG75FBFHDC9WUUOI","","null","<img src=""img/land4.png"" style=""width:200px; border:14px solid green;"">","null","","","","","","","",""
"","image-keyboard-response","299","109153","0.0-447.0","3PJ71Z61R5OTHAQ6UURBW89E8QP19S","A2ZDEERVRN5AMC","3UAU495MIIEABANG75FBFHDC9WUUOI","","225.20000004768372","img/land6.png","76","226.19999980926514","3","0","false","1","1,1,0,0,1,1,1,0,1","",""
"","html-keyboard-response","300","109454","0.0-448.0","3PJ71Z61R5OTHAQ6UURBW89E8QP19S","A2ZDEERVRN5AMC","3UAU495MIIEABANG75FBFHDC9WUUOI","","null","<img src=""img/land6.png"" style=""width:200px;border:14px solid red;"">","null","","","","","","","",""
"","image-keyboard-response","301","109696","0.0-450.0","3PJ71Z61R5OTHAQ6UURBW89E8QP19S","A2ZDEERVRN5AMC","3UAU495MIIEABANG75FBFHDC9WUUOI","","240.59999990463257","img/land4.png","75","241.60000014305115","2","0","false","3","1,1,0,0,1,1,1,0,1","",""
"","html-keyboard-response","302","109998","0.0-451.0","3PJ71Z61R5OTHAQ6UURBW89E8QP19S","A2ZDEERVRN5AMC","3UAU495MIIEABANG75FBFHDC9WUUOI","","null","<img src=""img/land4.png"" style=""width:200px;border:14px solid red;"">","null","","","","","","","",""
"","image-keyboard-response","303","110393","0.0-453.0","3PJ71Z61R5OTHAQ6UURBW89E8QP19S","A2ZDEERVRN5AMC","3UAU495MIIEABANG75FBFHDC9WUUOI","","392.7000000476837","img/land4.png","74","394","1","1","false","3","1,1,0,0,1,1,1,0,1","",""
"","html-keyboard-response","304","110703","0.0-454.0","3PJ71Z61R5OTHAQ6UURBW89E8QP19S","A2ZDEERVRN5AMC","3UAU495MIIEABANG75FBFHDC9WUUOI","","null","<img src=""img/land4.png"" style=""width:200px; border:14px solid green;"">","null","","","","","","","",""
"","image-keyboard-response","305","110953","0.0-456.0","3PJ71Z61R5OTHAQ6UURBW89E8QP19S","A2ZDEERVRN5AMC","3UAU495MIIEABANG75FBFHDC9WUUOI","","248.20000004768372","img/land1.png","74","249.39999985694885","1","0","false","2","1,1,0,0,1,1,1,0,1","",""
"","html-keyboard-response","306","111262","0.0-457.0","3PJ71Z61R5OTHAQ6UURBW89E8QP19S","A2ZDEERVRN5AMC","3UAU495MIIEABANG75FBFHDC9WUUOI","","null","<img src=""img/land1.png"" style=""width:200px;border:14px solid red;"">","null","","","","","","","",""
"","image-keyboard-response","307","111449","0.0-459.0","3PJ71Z61R5OTHAQ6UURBW89E8QP19S","A2ZDEERVRN5AMC","3UAU495MIIEABANG75FBFHDC9WUUOI","","184.89999985694885","img/land6.png","75","186.09999990463257","2","1","false","1","1,1,0,0,1,1,1,0,1","",""
"","html-keyboard-response","308","111758","0.0-460.0","3PJ71Z61R5OTHAQ6UURBW89E8QP19S","A2ZDEERVRN5AMC","3UAU495MIIEABANG75FBFHDC9WUUOI","","null","<img src=""img/land6.png"" style=""width:200px; border:14px solid green;"">","null","","","","","","","",""
"","image-keyboard-response","309","111928","0.0-462.0","3PJ71Z61R5OTHAQ6UURBW89E8QP19S","A2ZDEERVRN5AMC","3UAU495MIIEABANG75FBFHDC9WUUOI","","168.59999990463257","img/land1.png","75","169.70000004768372","2","1","false","2","1,1,0,0,1,1,1,0,1","",""
"","html-keyboard-response","310","112233","0.0-463.0","3PJ71Z61R5OTHAQ6UURBW89E8QP19S","A2ZDEERVRN5AMC","3UAU495MIIEABANG75FBFHDC9WUUOI","","null","<img src=""img/land1.png"" style=""width:200px; border:14px solid green;"">","null","","","","","","","",""
"","image-keyboard-response","311","112568","0.0-465.0","3PJ71Z61R5OTHAQ6UURBW89E8QP19S","A2ZDEERVRN5AMC","3UAU495MIIEABANG75FBFHDC9WUUOI","","333.80000019073486","img/land6.png","75","334.90000009536743","2","1","false","1","1,1,0,0,1,1,1,0,1","",""
"","html-keyboard-response","312","112871","0.0-466.0","3PJ71Z61R5OTHAQ6UURBW89E8QP19S","A2ZDEERVRN5AMC","3UAU495MIIEABANG75FBFHDC9WUUOI","","null","<img src=""img/land6.png"" style=""width:200px; border:14px solid green;"">","null","","","","","","","",""
"","image-keyboard-response","313","113233","0.0-468.0","3PJ71Z61R5OTHAQ6UURBW89E8QP19S","A2ZDEERVRN5AMC","3UAU495MIIEABANG75FBFHDC9WUUOI","","360.2999999523163","img/land1.png","75","361.39999985694885","2","1","false","2","1,1,0,0,1,1,1,0,1","",""
"","html-keyboard-response","314","113543","0.0-469.0","3PJ71Z61R5OTHAQ6UURBW89E8QP19S","A2ZDEERVRN5AMC","3UAU495MIIEABANG75FBFHDC9WUUOI","","null","<img src=""img/land1.png"" style=""width:200px; border:14px solid green;"">","null","","","","","","","",""
"","image-keyboard-response","315","113793","0.0-471.0","3PJ71Z61R5OTHAQ6UURBW89E8QP19S","A2ZDEERVRN5AMC","3UAU495MIIEABANG75FBFHDC9WUUOI","","248.39999985694885","img/land6.png","75","249.40000009536743","2","1","false","1","1,1,0,0,1,1,1,0,1","",""
"","html-keyboard-response","316","114102","0.0-472.0","3PJ71Z61R5OTHAQ6UURBW89E8QP19S","A2ZDEERVRN5AMC","3UAU495MIIEABANG75FBFHDC9WUUOI","","null","<img src=""img/land6.png"" style=""width:200px; border:14px solid green;"">","null","","","","","","","",""
"","image-keyboard-response","317","114385","0.0-474.0","3PJ71Z61R5OTHAQ6UURBW89E8QP19S","A2ZDEERVRN5AMC","3UAU495MIIEABANG75FBFHDC9WUUOI","","280.7000000476837","img/land1.png","75","282","2","1","false","2","1,1,0,0,1,1,1,0,1","",""
"","html-keyboard-response","318","114686","0.0-475.0","3PJ71Z61R5OTHAQ6UURBW89E8QP19S","A2ZDEERVRN5AMC","3UAU495MIIEABANG75FBFHDC9WUUOI","","null","<img src=""img/land1.png"" style=""width:200px; border:14px solid green;"">","null","","","","","","","",""
"","image-keyboard-response","319","114969","0.0-477.0","3PJ71Z61R5OTHAQ6UURBW89E8QP19S","A2ZDEERVRN5AMC","3UAU495MIIEABANG75FBFHDC9WUUOI","","281.09999990463257","img/land4.png","76","282.09999990463257","3","1","false","3","1,1,0,0,1,1,1,0,1","",""
"","html-keyboard-response","320","115278","0.0-478.0","3PJ71Z61R5OTHAQ6UURBW89E8QP19S","A2ZDEERVRN5AMC","3UAU495MIIEABANG75FBFHDC9WUUOI","","null","<img src=""img/land4.png"" style=""width:200px; border:14px solid green;"">","null","","","","","","","",""
"","image-keyboard-response","321","115568","0.0-480.0","3PJ71Z61R5OTHAQ6UURBW89E8QP19S","A2ZDEERVRN5AMC","3UAU495MIIEABANG75FBFHDC9WUUOI","","288.5","img/land4.png","76","289.7000000476837","3","1","false","3","1,1,0,0,1,1,1,0,1","",""
"","html-keyboard-response","322","115870","0.0-481.0","3PJ71Z61R5OTHAQ6UURBW89E8QP19S","A2ZDEERVRN5AMC","3UAU495MIIEABANG75FBFHDC9WUUOI","","null","<img src=""img/land4.png"" style=""width:200px; border:14px solid green;"">","null","","","","","","","",""
"","image-keyboard-response","323","116144","0.0-483.0","3PJ71Z61R5OTHAQ6UURBW89E8QP19S","A2ZDEERVRN5AMC","3UAU495MIIEABANG75FBFHDC9WUUOI","","272.7999999523163","img/land6.png","76","273.89999985694885","3","0","false","1","1,1,0,0,1,1,1,0,1","",""
"","html-keyboard-response","324","116446","0.0-484.0","3PJ71Z61R5OTHAQ6UURBW89E8QP19S","A2ZDEERVRN5AMC","3UAU495MIIEABANG75FBFHDC9WUUOI","","null","<img src=""img/land6.png"" style=""width:200px;border:14px solid red;"">","null","","","","","","","",""
"","image-keyboard-response","325","116648","0.0-486.0","3PJ71Z61R5OTHAQ6UURBW89E8QP19S","A2ZDEERVRN5AMC","3UAU495MIIEABANG75FBFHDC9WUUOI","","200.40000009536743","img/land1.png","74","201.5","1","0","false","2","1,1,0,0,1,1,1,0,1","",""
"","html-keyboard-response","326","116951","0.0-487.0","3PJ71Z61R5OTHAQ6UURBW89E8QP19S","A2ZDEERVRN5AMC","3UAU495MIIEABANG75FBFHDC9WUUOI","","null","<img src=""img/land1.png"" style=""width:200px;border:14px solid red;"">","null","","","","","","","",""
"","image-keyboard-response","327","117185","0.0-489.0","3PJ71Z61R5OTHAQ6UURBW89E8QP19S","A2ZDEERVRN5AMC","3UAU495MIIEABANG75FBFHDC9WUUOI","","232.5","img/land6.png","75","233.40000009536743","2","1","false","1","1,1,0,0,1,1,1,0,1","",""
"","html-keyboard-response","328","117495","0.0-490.0","3PJ71Z61R5OTHAQ6UURBW89E8QP19S","A2ZDEERVRN5AMC","3UAU495MIIEABANG75FBFHDC9WUUOI","","null","<img src=""img/land6.png"" style=""width:200px; border:14px solid green;"">","null","","","","","","","",""
"","image-keyboard-response","329","117752","0.0-492.0","3PJ71Z61R5OTHAQ6UURBW89E8QP19S","A2ZDEERVRN5AMC","3UAU495MIIEABANG75FBFHDC9WUUOI","","255.89999985694885","img/land6.png","75","257","2","1","false","1","1,1,0,0,1,1,1,0,1","",""
"","html-keyboard-response","330","118055","0.0-493.0","3PJ71Z61R5OTHAQ6UURBW89E8QP19S","A2ZDEERVRN5AMC","3UAU495MIIEABANG75FBFHDC9WUUOI","","null","<img src=""img/land6.png"" style=""width:200px; border:14px solid green;"">","null","","","","","","","",""
"","image-keyboard-response","331","118361","0.0-495.0","3PJ71Z61R5OTHAQ6UURBW89E8QP19S","A2ZDEERVRN5AMC","3UAU495MIIEABANG75FBFHDC9WUUOI","","304.5","img/land1.png","75","305.5","2","1","false","2","1,1,0,0,1,1,1,0,1","",""
"","html-keyboard-response","332","118673","0.0-496.0","3PJ71Z61R5OTHAQ6UURBW89E8QP19S","A2ZDEERVRN5AMC","3UAU495MIIEABANG75FBFHDC9WUUOI","","null","<img src=""img/land1.png"" style=""width:200px; border:14px solid green;"">","null","","","","","","","",""
"","image-keyboard-response","333","118978","0.0-498.0","3PJ71Z61R5OTHAQ6UURBW89E8QP19S","A2ZDEERVRN5AMC","3UAU495MIIEABANG75FBFHDC9WUUOI","","301.59999990463257","img/land6.png","75","302.59999990463257","2","1","false","1","1,1,0,0,1,1,1,0,1","",""
"","html-keyboard-response","334","119280","0.0-499.0","3PJ71Z61R5OTHAQ6UURBW89E8QP19S","A2ZDEERVRN5AMC","3UAU495MIIEABANG75FBFHDC9WUUOI","","null","<img src=""img/land6.png"" style=""width:200px; border:14px solid green;"">","null","","","","","","","",""
"","image-keyboard-response","335","119579","0.0-501.0","3PJ71Z61R5OTHAQ6UURBW89E8QP19S","A2ZDEERVRN5AMC","3UAU495MIIEABANG75FBFHDC9WUUOI","","296.5","img/land1.png","75","298.5","2","1","false","2","1,1,0,0,1,1,1,0,1","",""
"","html-keyboard-response","336","119888","0.0-502.0","3PJ71Z61R5OTHAQ6UURBW89E8QP19S","A2ZDEERVRN5AMC","3UAU495MIIEABANG75FBFHDC9WUUOI","","null","<img src=""img/land1.png"" style=""width:200px; border:14px solid green;"">","null","","","","","","","",""
"","image-keyboard-response","337","120194","0.0-504.0","3PJ71Z61R5OTHAQ6UURBW89E8QP19S","A2ZDEERVRN5AMC","3UAU495MIIEABANG75FBFHDC9WUUOI","","304.7000000476837","img/land6.png","75","305.7000000476837","2","1","false","1","1,1,0,0,1,1,1,0,1","",""
"","html-keyboard-response","338","120504","0.0-505.0","3PJ71Z61R5OTHAQ6UURBW89E8QP19S","A2ZDEERVRN5AMC","3UAU495MIIEABANG75FBFHDC9WUUOI","","null","<img src=""img/land6.png"" style=""width:200px; border:14px solid green;"">","null","","","","","","","",""
"","image-keyboard-response","339","120676","0.0-507.0","3PJ71Z61R5OTHAQ6UURBW89E8QP19S","A2ZDEERVRN5AMC","3UAU495MIIEABANG75FBFHDC9WUUOI","","170.39999985694885","img/land4.png","76","171.59999990463257","3","1","false","3","1,1,0,0,1,1,1,0,1","",""
"","html-keyboard-response","340","120984","0.0-508.0","3PJ71Z61R5OTHAQ6UURBW89E8QP19S","A2ZDEERVRN5AMC","3UAU495MIIEABANG75FBFHDC9WUUOI","","null","<img src=""img/land4.png"" style=""width:200px; border:14px solid green;"">","null","","","","","","","",""
"","image-keyboard-response","341","121258","0.0-510.0","3PJ71Z61R5OTHAQ6UURBW89E8QP19S","A2ZDEERVRN5AMC","3UAU495MIIEABANG75FBFHDC9WUUOI","","272.2999999523163","img/land4.png","74","273.60000014305115","1","1","false","3","1,1,0,0,1,1,1,0,1","",""
"","html-keyboard-response","342","121568","0.0-511.0","3PJ71Z61R5OTHAQ6UURBW89E8QP19S","A2ZDEERVRN5AMC","3UAU495MIIEABANG75FBFHDC9WUUOI","","null","<img src=""img/land4.png"" style=""width:200px; border:14px solid green;"">","null","","","","","","","",""
"","image-keyboard-response","343","121825","0.0-513.0","3PJ71Z61R5OTHAQ6UURBW89E8QP19S","A2ZDEERVRN5AMC","3UAU495MIIEABANG75FBFHDC9WUUOI","","256.2000000476837","img/land6.png","74","257","1","1","false","1","1,1,0,0,1,1,1,0,1","",""
"","html-keyboard-response","344","122128","0.0-514.0","3PJ71Z61R5OTHAQ6UURBW89E8QP19S","A2ZDEERVRN5AMC","3UAU495MIIEABANG75FBFHDC9WUUOI","","null","<img src=""img/land6.png"" style=""width:200px; border:14px solid green;"">","null","","","","","","","",""
"","image-keyboard-response","345","122426","0.0-516.0","3PJ71Z61R5OTHAQ6UURBW89E8QP19S","A2ZDEERVRN5AMC","3UAU495MIIEABANG75FBFHDC9WUUOI","","296.30000019073486","img/land1.png","74","297.59999990463257","1","0","false","2","1,1,0,0,1,1,1,0,1","",""
"","html-keyboard-response","346","122728","0.0-517.0","3PJ71Z61R5OTHAQ6UURBW89E8QP19S","A2ZDEERVRN5AMC","3UAU495MIIEABANG75FBFHDC9WUUOI","","null","<img src=""img/land1.png"" style=""width:200px;border:14px solid red;"">","null","","","","","","","",""
"","image-keyboard-response","347","122985","0.0-519.0","3PJ71Z61R5OTHAQ6UURBW89E8QP19S","A2ZDEERVRN5AMC","3UAU495MIIEABANG75FBFHDC9WUUOI","","256.7000000476837","img/land1.png","76","257.69999980926514","3","1","false","2","1,1,0,0,1,1,1,0,1","",""
"","html-keyboard-response","348","123288","0.0-520.0","3PJ71Z61R5OTHAQ6UURBW89E8QP19S","A2ZDEERVRN5AMC","3UAU495MIIEABANG75FBFHDC9WUUOI","","null","<img src=""img/land1.png"" style=""width:200px; border:14px solid green;"">","null","","","","","","","",""
"","image-keyboard-response","349","123578","0.0-522.0","3PJ71Z61R5OTHAQ6UURBW89E8QP19S","A2ZDEERVRN5AMC","3UAU495MIIEABANG75FBFHDC9WUUOI","","288.09999990463257","img/land1.png","76","289.39999985694885","3","1","false","2","1,1,0,0,1,1,1,0,1","",""
"","html-keyboard-response","350","123880","0.0-523.0","3PJ71Z61R5OTHAQ6UURBW89E8QP19S","A2ZDEERVRN5AMC","3UAU495MIIEABANG75FBFHDC9WUUOI","","null","<img src=""img/land1.png"" style=""width:200px; border:14px solid green;"">","null","","","","","","","",""
"","image-keyboard-response","351","124209","0.0-525.0","3PJ71Z61R5OTHAQ6UURBW89E8QP19S","A2ZDEERVRN5AMC","3UAU495MIIEABANG75FBFHDC9WUUOI","","328.60000014305115","img/land6.png","75","329.5","2","1","false","1","1,1,0,0,1,1,1,0,1","",""
"","html-keyboard-response","352","124512","0.0-526.0","3PJ71Z61R5OTHAQ6UURBW89E8QP19S","A2ZDEERVRN5AMC","3UAU495MIIEABANG75FBFHDC9WUUOI","","null","<img src=""img/land6.png"" style=""width:200px; border:14px solid green;"">","null","","","","","","","",""
"","image-keyboard-response","353","124793","0.0-528.0","3PJ71Z61R5OTHAQ6UURBW89E8QP19S","A2ZDEERVRN5AMC","3UAU495MIIEABANG75FBFHDC9WUUOI","","279.7999999523163","img/land6.png","75","280.90000009536743","2","1","false","1","1,1,0,0,1,1,1,0,1","",""
"","html-keyboard-response","354","125096","0.0-529.0","3PJ71Z61R5OTHAQ6UURBW89E8QP19S","A2ZDEERVRN5AMC","3UAU495MIIEABANG75FBFHDC9WUUOI","","null","<img src=""img/land6.png"" style=""width:200px; border:14px solid green;"">","null","","","","","","","",""
"","image-keyboard-response","355","125370","0.0-531.0","3PJ71Z61R5OTHAQ6UURBW89E8QP19S","A2ZDEERVRN5AMC","3UAU495MIIEABANG75FBFHDC9WUUOI","","271.89999985694885","img/land4.png","75","273.2999999523163","2","0","false","3","1,1,0,0,1,1,1,0,1","",""
"","html-keyboard-response","356","125672","0.0-532.0","3PJ71Z61R5OTHAQ6UURBW89E8QP19S","A2ZDEERVRN5AMC","3UAU495MIIEABANG75FBFHDC9WUUOI","","null","<img src=""img/land4.png"" style=""width:200px;border:14px solid red;"">","null","","","","","","","",""
"","image-keyboard-response","357","125850","0.0-534.0","3PJ71Z61R5OTHAQ6UURBW89E8QP19S","A2ZDEERVRN5AMC","3UAU495MIIEABANG75FBFHDC9WUUOI","","176.70000004768372","img/land4.png","76","177.69999980926514","3","1","false","3","1,1,0,0,1,1,1,0,1","",""
"","html-keyboard-response","358","126160","0.0-535.0","3PJ71Z61R5OTHAQ6UURBW89E8QP19S","A2ZDEERVRN5AMC","3UAU495MIIEABANG75FBFHDC9WUUOI","","null","<img src=""img/land4.png"" style=""width:200px; border:14px solid green;"">","null","","","","","","","",""
"","image-keyboard-response","359","126386","0.0-537.0","3PJ71Z61R5OTHAQ6UURBW89E8QP19S","A2ZDEERVRN5AMC","3UAU495MIIEABANG75FBFHDC9WUUOI","","223.80000019073486","img/land6.png","76","225.09999990463257","3","0","false","1","1,1,0,0,1,1,1,0,1","",""
"","html-keyboard-response","360","126688","0.0-538.0","3PJ71Z61R5OTHAQ6UURBW89E8QP19S","A2ZDEERVRN5AMC","3UAU495MIIEABANG75FBFHDC9WUUOI","","null","<img src=""img/land6.png"" style=""width:200px;border:14px solid red;"">","null","","","","","","","",""
"","image-keyboard-response","361","126890","0.0-540.0","3PJ71Z61R5OTHAQ6UURBW89E8QP19S","A2ZDEERVRN5AMC","3UAU495MIIEABANG75FBFHDC9WUUOI","","200.10000014305115","img/land6.png","74","200.89999985694885","1","1","false","1","1,1,0,0,1,1,1,0,1","",""
"","html-keyboard-response","362","127191","0.0-541.0","3PJ71Z61R5OTHAQ6UURBW89E8QP19S","A2ZDEERVRN5AMC","3UAU495MIIEABANG75FBFHDC9WUUOI","","null","<img src=""img/land6.png"" style=""width:200px; border:14px solid green;"">","null","","","","","","","",""
"","instructions","363","129344","0.0-543.0","3PJ71Z61R5OTHAQ6UURBW89E8QP19S","A2ZDEERVRN5AMC","3UAU495MIIEABANG75FBFHDC9WUUOI","[{""page_index"":0,""viewing_time"":2151}]","2151.5","","","","","","","","","",""
"","survey-text","364","131552","0.0-544.0-0.0","3PJ71Z61R5OTHAQ6UURBW89E8QP19S","A2ZDEERVRN5AMC","3UAU495MIIEABANG75FBFHDC9WUUOI","","2203.899999856949","","","","","","","","","{""Q0"":""31""}",""
"","survey-multi-choice","365","136345","0.0-544.0-1.0","3PJ71Z61R5OTHAQ6UURBW89E8QP19S","A2ZDEERVRN5AMC","3UAU495MIIEABANG75FBFHDC9WUUOI","","4790.900000095367","","","","","","","","","{""gender"":""M""}","[0]"
"","survey-text","366","139912","0.0-545.0","3PJ71Z61R5OTHAQ6UURBW89E8QP19S","A2ZDEERVRN5AMC","3UAU495MIIEABANG75FBFHDC9WUUOI","","3561","","","","","","","","","{""Q0"":""A2ZDEERVRN5AMC""}",""
