"success","trial_type","trial_index","time_elapsed","internal_node_id","assignmentID","mturkID","hitID","view_history","rt","stimulus","key_press","reactionTime","a","r","s","cond","reward_cond","reward_cond_actual","reward_matrix_idx","responses","question_order"
"true","fullscreen","0","2339","0.0-0.0","3AZHRG4CU567VJG8H2M1RQNI58S03W","A2ZSL0EDN3H4AT","32XN26MTXZ5MP383W6LZYTLBY7P0LI","","","","","","","","","","","","","",""
"","instructions","1","15395","0.0-1.0","3AZHRG4CU567VJG8H2M1RQNI58S03W","A2ZSL0EDN3H4AT","32XN26MTXZ5MP383W6LZYTLBY7P0LI","[{""page_index"":0,""viewing_time"":2667.1999999997206},{""page_index"":1,""viewing_time"":1264},{""page_index"":2,""viewing_time"":792.7000000001863},{""page_index"":3,""viewing_time"":1487.3999999999069},{""page_index"":4,""viewing_time"":1537.6000000000931},{""page_index"":5,""viewing_time"":3087},{""page_index"":6,""viewing_time"":2219.2999999998137}]","13055.799999999814","","","","","","","","","","","",""
"","image-keyboard-response","2","16814","0.0-2.0","3AZHRG4CU567VJG8H2M1RQNI58S03W","A2ZSL0EDN3H4AT","32XN26MTXZ5MP383W6LZYTLBY7P0LI","","1417.2999999998137","img/land1.png","75","1418.4000000003725","2","0","1","1","1,0.7,0.7,0.7,1,0.7,0.7,0.7,1","1,0.7,0.7,0.7,1,0.7,0.7,0.7,1","","",""
"","html-keyboard-response","3","17124","0.0-3.0","3AZHRG4CU567VJG8H2M1RQNI58S03W","A2ZSL0EDN3H4AT","32XN26MTXZ5MP383W6LZYTLBY7P0LI","","null","<img src=""img/land1.png"" style=""width:200px;border:14px solid red;"">","null","","","","","","","","","",""
"","image-keyboard-response","4","17629","0.0-4.0","3AZHRG4CU567VJG8H2M1RQNI58S03W","A2ZSL0EDN3H4AT","32XN26MTXZ5MP383W6LZYTLBY7P0LI","","502.10000000009313","img/land3.png","74","504","1","0","3","1","1,0.7,0.7,0.7,1,0.7,0.7,0.7,1","1,0.7,0.7,0.7,1,0.7,0.7,0.7,1","","",""
"","html-keyboard-response","5","17936","0.0-5.0","3AZHRG4CU567VJG8H2M1RQNI58S03W","A2ZSL0EDN3H4AT","32XN26MTXZ5MP383W6LZYTLBY7P0LI","","null","<img src=""img/land3.png"" style=""width:200px;border:14px solid red;"">","null","","","","","","","","","",""
"","image-keyboard-response","6","18218","0.0-6.0","3AZHRG4CU567VJG8H2M1RQNI58S03W","A2ZSL0EDN3H4AT","32XN26MTXZ5MP383W6LZYTLBY7P0LI","","281","img/land1.png","76","281.8000000002794","3","1","1","1","1,0.7,0.7,0.7,1,0.7,0.7,0.7,1","1,0.7,0.7,0.7,1,0.7,0.7,0.7,1","","",""
"","html-keyboard-response","7","18525","0.0-7.0","3AZHRG4CU567VJG8H2M1RQNI58S03W","A2ZSL0EDN3H4AT","32XN26MTXZ5MP383W6LZYTLBY7P0LI","","null","<img src=""img/land1.png"" style=""width:200px; border:14px solid green;"">","null","","","","","","","","","",""
"","image-keyboard-response","8","19322","0.0-8.0","3AZHRG4CU567VJG8H2M1RQNI58S03W","A2ZSL0EDN3H4AT","32XN26MTXZ5MP383W6LZYTLBY7P0LI","","796.1999999997206","img/land3.png","74","796.6000000000931","1","0","3","1","1,0.7,0.7,0.7,1,0.7,0.7,0.7,1","1,0.7,0.7,0.7,1,0.7,0.7,0.7,1","","",""
"","html-keyboard-response","9","19629","0.0-9.0","3AZHRG4CU567VJG8H2M1RQNI58S03W","A2ZSL0EDN3H4AT","32XN26MTXZ5MP383W6LZYTLBY7P0LI","","null","<img src=""img/land3.png"" style=""width:200px;border:14px solid red;"">","null","","","","","","","","","",""
"","image-keyboard-response","10","20029","0.0-10.0","3AZHRG4CU567VJG8H2M1RQNI58S03W","A2ZSL0EDN3H4AT","32XN26MTXZ5MP383W6LZYTLBY7P0LI","","399.10000000009313","img/land3.png","75","399.79999999981374","2","1","3","1","1,0.7,0.7,0.7,1,0.7,0.7,0.7,1","1,0.7,0.7,0.7,1,0.7,0.7,0.7,1","","",""
"","html-keyboard-response","11","20339","0.0-11.0","3AZHRG4CU567VJG8H2M1RQNI58S03W","A2ZSL0EDN3H4AT","32XN26MTXZ5MP383W6LZYTLBY7P0LI","","null","<img src=""img/land3.png"" style=""width:200px; border:14px solid green;"">","null","","","","","","","","","",""
"","image-keyboard-response","12","21009","0.0-12.0","3AZHRG4CU567VJG8H2M1RQNI58S03W","A2ZSL0EDN3H4AT","32XN26MTXZ5MP383W6LZYTLBY7P0LI","","670.2000000001863","img/land1.png","76","670.4000000003725","3","1","1","1","1,0.7,0.7,0.7,1,0.7,0.7,0.7,1","1,0.7,0.7,0.7,1,0.7,0.7,0.7,1","","",""
"","html-keyboard-response","13","21317","0.0-13.0","3AZHRG4CU567VJG8H2M1RQNI58S03W","A2ZSL0EDN3H4AT","32XN26MTXZ5MP383W6LZYTLBY7P0LI","","null","<img src=""img/land1.png"" style=""width:200px; border:14px solid green;"">","null","","","","","","","","","",""
"","image-keyboard-response","14","21773","0.0-14.0","3AZHRG4CU567VJG8H2M1RQNI58S03W","A2ZSL0EDN3H4AT","32XN26MTXZ5MP383W6LZYTLBY7P0LI","","455","img/land1.png","76","456.20000000018626","3","1","1","1","1,0.7,0.7,0.7,1,0.7,0.7,0.7,1","1,0.7,0.7,0.7,1,0.7,0.7,0.7,1","","",""
"","html-keyboard-response","15","22084","0.0-15.0","3AZHRG4CU567VJG8H2M1RQNI58S03W","A2ZSL0EDN3H4AT","32XN26MTXZ5MP383W6LZYTLBY7P0LI","","null","<img src=""img/land1.png"" style=""width:200px; border:14px solid green;"">","null","","","","","","","","","",""
"","image-keyboard-response","16","22615","0.0-16.0","3AZHRG4CU567VJG8H2M1RQNI58S03W","A2ZSL0EDN3H4AT","32XN26MTXZ5MP383W6LZYTLBY7P0LI","","528.8000000002794","img/land3.png","75","530.0999999996275","2","0","3","1","1,0.7,0.7,0.7,1,0.7,0.7,0.7,1","1,0.7,0.7,0.7,1,0.7,0.7,0.7,1","","",""
"","html-keyboard-response","17","22920","0.0-17.0","3AZHRG4CU567VJG8H2M1RQNI58S03W","A2ZSL0EDN3H4AT","32XN26MTXZ5MP383W6LZYTLBY7P0LI","","null","<img src=""img/land3.png"" style=""width:200px;border:14px solid red;"">","null","","","","","","","","","",""
"","image-keyboard-response","18","23450","0.0-18.0","3AZHRG4CU567VJG8H2M1RQNI58S03W","A2ZSL0EDN3H4AT","32XN26MTXZ5MP383W6LZYTLBY7P0LI","","529.7000000001863","img/land1.png","74","530","1","1","1","1","1,0.7,0.7,0.7,1,0.7,0.7,0.7,1","1,0.7,0.7,0.7,1,0.7,0.7,0.7,1","","",""
"","html-keyboard-response","19","23756","0.0-19.0","3AZHRG4CU567VJG8H2M1RQNI58S03W","A2ZSL0EDN3H4AT","32XN26MTXZ5MP383W6LZYTLBY7P0LI","","null","<img src=""img/land1.png"" style=""width:200px; border:14px solid green;"">","null","","","","","","","","","",""
"","image-keyboard-response","20","24585","0.0-20.0","3AZHRG4CU567VJG8H2M1RQNI58S03W","A2ZSL0EDN3H4AT","32XN26MTXZ5MP383W6LZYTLBY7P0LI","","828.6000000000931","img/land3.png","76","828.8999999999069","3","1","3","1","1,0.7,0.7,0.7,1,0.7,0.7,0.7,1","1,0.7,0.7,0.7,1,0.7,0.7,0.7,1","","",""
"","html-keyboard-response","21","24892","0.0-21.0","3AZHRG4CU567VJG8H2M1RQNI58S03W","A2ZSL0EDN3H4AT","32XN26MTXZ5MP383W6LZYTLBY7P0LI","","null","<img src=""img/land3.png"" style=""width:200px; border:14px solid green;"">","null","","","","","","","","","",""
"","image-keyboard-response","22","25539","0.0-22.0","3AZHRG4CU567VJG8H2M1RQNI58S03W","A2ZSL0EDN3H4AT","32XN26MTXZ5MP383W6LZYTLBY7P0LI","","646.1000000000931","img/land1.png","74","646.4000000003725","1","1","1","1","1,0.7,0.7,0.7,1,0.7,0.7,0.7,1","1,0.7,0.7,0.7,1,0.7,0.7,0.7,1","","",""
"","html-keyboard-response","23","25851","0.0-23.0","3AZHRG4CU567VJG8H2M1RQNI58S03W","A2ZSL0EDN3H4AT","32XN26MTXZ5MP383W6LZYTLBY7P0LI","","null","<img src=""img/land1.png"" style=""width:200px; border:14px solid green;"">","null","","","","","","","","","",""
"","image-keyboard-response","24","26526","0.0-24.0","3AZHRG4CU567VJG8H2M1RQNI58S03W","A2ZSL0EDN3H4AT","32XN26MTXZ5MP383W6LZYTLBY7P0LI","","674.8000000002794","img/land2.png","75","675.3000000002794","2","1","2","1","1,0.7,0.7,0.7,1,0.7,0.7,0.7,1","1,0.7,0.7,0.7,1,0.7,0.7,0.7,1","","",""
"","html-keyboard-response","25","26833","0.0-25.0","3AZHRG4CU567VJG8H2M1RQNI58S03W","A2ZSL0EDN3H4AT","32XN26MTXZ5MP383W6LZYTLBY7P0LI","","null","<img src=""img/land2.png"" style=""width:200px; border:14px solid green;"">","null","","","","","","","","","",""
"","image-keyboard-response","26","27470","0.0-26.0","3AZHRG4CU567VJG8H2M1RQNI58S03W","A2ZSL0EDN3H4AT","32XN26MTXZ5MP383W6LZYTLBY7P0LI","","635.7000000001863","img/land1.png","74","636.8999999999069","1","1","1","1","1,0.7,0.7,0.7,1,0.7,0.7,0.7,1","1,0.7,0.7,0.7,1,0.7,0.7,0.7,1","","",""
"","html-keyboard-response","27","27776","0.0-27.0","3AZHRG4CU567VJG8H2M1RQNI58S03W","A2ZSL0EDN3H4AT","32XN26MTXZ5MP383W6LZYTLBY7P0LI","","null","<img src=""img/land1.png"" style=""width:200px; border:14px solid green;"">","null","","","","","","","","","",""
"","image-keyboard-response","28","28446","0.0-28.0","3AZHRG4CU567VJG8H2M1RQNI58S03W","A2ZSL0EDN3H4AT","32XN26MTXZ5MP383W6LZYTLBY7P0LI","","669.7000000001863","img/land1.png","74","669.8999999999069","1","1","1","1","1,0.7,0.7,0.7,1,0.7,0.7,0.7,1","1,0.7,0.7,0.7,1,0.7,0.7,0.7,1","","",""
"","html-keyboard-response","29","28747","0.0-29.0","3AZHRG4CU567VJG8H2M1RQNI58S03W","A2ZSL0EDN3H4AT","32XN26MTXZ5MP383W6LZYTLBY7P0LI","","null","<img src=""img/land1.png"" style=""width:200px; border:14px solid green;"">","null","","","","","","","","","",""
"","image-keyboard-response","30","29364","0.0-30.0","3AZHRG4CU567VJG8H2M1RQNI58S03W","A2ZSL0EDN3H4AT","32XN26MTXZ5MP383W6LZYTLBY7P0LI","","616.8999999999069","img/land2.png","76","617.2999999998137","3","1","2","1","1,0.7,0.7,0.7,1,0.7,0.7,0.7,1","1,0.7,0.7,0.7,1,0.7,0.7,0.7,1","","",""
"","html-keyboard-response","31","29676","0.0-31.0","3AZHRG4CU567VJG8H2M1RQNI58S03W","A2ZSL0EDN3H4AT","32XN26MTXZ5MP383W6LZYTLBY7P0LI","","null","<img src=""img/land2.png"" style=""width:200px; border:14px solid green;"">","null","","","","","","","","","",""
"","image-keyboard-response","32","30355","0.0-32.0","3AZHRG4CU567VJG8H2M1RQNI58S03W","A2ZSL0EDN3H4AT","32XN26MTXZ5MP383W6LZYTLBY7P0LI","","678.6000000000931","img/land3.png","75","679.0999999996275","2","1","3","1","1,0.7,0.7,0.7,1,0.7,0.7,0.7,1","1,0.7,0.7,0.7,1,0.7,0.7,0.7,1","","",""
"","html-keyboard-response","33","30664","0.0-33.0","3AZHRG4CU567VJG8H2M1RQNI58S03W","A2ZSL0EDN3H4AT","32XN26MTXZ5MP383W6LZYTLBY7P0LI","","null","<img src=""img/land3.png"" style=""width:200px; border:14px solid green;"">","null","","","","","","","","","",""
"","image-keyboard-response","34","31379","0.0-34.0","3AZHRG4CU567VJG8H2M1RQNI58S03W","A2ZSL0EDN3H4AT","32XN26MTXZ5MP383W6LZYTLBY7P0LI","","713.7999999998137","img/land1.png","74","714.8000000002794","1","1","1","1","1,0.7,0.7,0.7,1,0.7,0.7,0.7,1","1,0.7,0.7,0.7,1,0.7,0.7,0.7,1","","",""
"","html-keyboard-response","35","31693","0.0-35.0","3AZHRG4CU567VJG8H2M1RQNI58S03W","A2ZSL0EDN3H4AT","32XN26MTXZ5MP383W6LZYTLBY7P0LI","","null","<img src=""img/land1.png"" style=""width:200px; border:14px solid green;"">","null","","","","","","","","","",""
"","image-keyboard-response","36","32360","0.0-36.0","3AZHRG4CU567VJG8H2M1RQNI58S03W","A2ZSL0EDN3H4AT","32XN26MTXZ5MP383W6LZYTLBY7P0LI","","666.3999999999069","img/land3.png","75","666.8999999999069","2","1","3","1","1,0.7,0.7,0.7,1,0.7,0.7,0.7,1","1,0.7,0.7,0.7,1,0.7,0.7,0.7,1","","",""
"","html-keyboard-response","37","32667","0.0-37.0","3AZHRG4CU567VJG8H2M1RQNI58S03W","A2ZSL0EDN3H4AT","32XN26MTXZ5MP383W6LZYTLBY7P0LI","","null","<img src=""img/land3.png"" style=""width:200px; border:14px solid green;"">","null","","","","","","","","","",""
"","image-keyboard-response","38","33359","0.0-38.0","3AZHRG4CU567VJG8H2M1RQNI58S03W","A2ZSL0EDN3H4AT","32XN26MTXZ5MP383W6LZYTLBY7P0LI","","691.5","img/land1.png","74","691.7999999998137","1","1","1","1","1,0.7,0.7,0.7,1,0.7,0.7,0.7,1","1,0.7,0.7,0.7,1,0.7,0.7,0.7,1","","",""
"","html-keyboard-response","39","33664","0.0-39.0","3AZHRG4CU567VJG8H2M1RQNI58S03W","A2ZSL0EDN3H4AT","32XN26MTXZ5MP383W6LZYTLBY7P0LI","","null","<img src=""img/land1.png"" style=""width:200px; border:14px solid green;"">","null","","","","","","","","","",""
"","image-keyboard-response","40","34448","0.0-40.0","3AZHRG4CU567VJG8H2M1RQNI58S03W","A2ZSL0EDN3H4AT","32XN26MTXZ5MP383W6LZYTLBY7P0LI","","783.5","img/land2.png","76","784","3","1","2","1","1,0.7,0.7,0.7,1,0.7,0.7,0.7,1","1,0.7,0.7,0.7,1,0.7,0.7,0.7,1","","",""
"","html-keyboard-response","41","34752","0.0-41.0","3AZHRG4CU567VJG8H2M1RQNI58S03W","A2ZSL0EDN3H4AT","32XN26MTXZ5MP383W6LZYTLBY7P0LI","","null","<img src=""img/land2.png"" style=""width:200px; border:14px solid green;"">","null","","","","","","","","","",""
"","image-keyboard-response","42","35367","0.0-42.0","3AZHRG4CU567VJG8H2M1RQNI58S03W","A2ZSL0EDN3H4AT","32XN26MTXZ5MP383W6LZYTLBY7P0LI","","614.6000000000931","img/land1.png","74","615.3000000002794","1","1","1","1","1,0.7,0.7,0.7,1,0.7,0.7,0.7,1","1,0.7,0.7,0.7,1,0.7,0.7,0.7,1","","",""
"","html-keyboard-response","43","35673","0.0-43.0","3AZHRG4CU567VJG8H2M1RQNI58S03W","A2ZSL0EDN3H4AT","32XN26MTXZ5MP383W6LZYTLBY7P0LI","","null","<img src=""img/land1.png"" style=""width:200px; border:14px solid green;"">","null","","","","","","","","","",""
"","image-keyboard-response","44","36626","0.0-44.0","3AZHRG4CU567VJG8H2M1RQNI58S03W","A2ZSL0EDN3H4AT","32XN26MTXZ5MP383W6LZYTLBY7P0LI","","952.3000000002794","img/land2.png","76","952.7999999998137","3","1","2","1","1,0.7,0.7,0.7,1,0.7,0.7,0.7,1","1,0.7,0.7,0.7,1,0.7,0.7,0.7,1","","",""
"","html-keyboard-response","45","36930","0.0-45.0","3AZHRG4CU567VJG8H2M1RQNI58S03W","A2ZSL0EDN3H4AT","32XN26MTXZ5MP383W6LZYTLBY7P0LI","","null","<img src=""img/land2.png"" style=""width:200px; border:14px solid green;"">","null","","","","","","","","","",""
"","image-keyboard-response","46","37631","0.0-46.0","3AZHRG4CU567VJG8H2M1RQNI58S03W","A2ZSL0EDN3H4AT","32XN26MTXZ5MP383W6LZYTLBY7P0LI","","700.7000000001863","img/land3.png","75","701.1000000000931","2","0","3","1","1,0.7,0.7,0.7,1,0.7,0.7,0.7,1","1,0.7,0.7,0.7,1,0.7,0.7,0.7,1","","",""
"","html-keyboard-response","47","37939","0.0-47.0","3AZHRG4CU567VJG8H2M1RQNI58S03W","A2ZSL0EDN3H4AT","32XN26MTXZ5MP383W6LZYTLBY7P0LI","","null","<img src=""img/land3.png"" style=""width:200px;border:14px solid red;"">","null","","","","","","","","","",""
"","image-keyboard-response","48","38713","0.0-48.0","3AZHRG4CU567VJG8H2M1RQNI58S03W","A2ZSL0EDN3H4AT","32XN26MTXZ5MP383W6LZYTLBY7P0LI","","773","img/land1.png","74","773.5","1","1","1","1","1,0.7,0.7,0.7,1,0.7,0.7,0.7,1","1,0.7,0.7,0.7,1,0.7,0.7,0.7,1","","",""
"","html-keyboard-response","49","39020","0.0-49.0","3AZHRG4CU567VJG8H2M1RQNI58S03W","A2ZSL0EDN3H4AT","32XN26MTXZ5MP383W6LZYTLBY7P0LI","","null","<img src=""img/land1.png"" style=""width:200px; border:14px solid green;"">","null","","","","","","","","","",""
"","image-keyboard-response","50","39610","0.0-50.0","3AZHRG4CU567VJG8H2M1RQNI58S03W","A2ZSL0EDN3H4AT","32XN26MTXZ5MP383W6LZYTLBY7P0LI","","588.8000000002794","img/land3.png","76","589.6000000000931","3","1","3","1","1,0.7,0.7,0.7,1,0.7,0.7,0.7,1","1,0.7,0.7,0.7,1,0.7,0.7,0.7,1","","",""
"","html-keyboard-response","51","39920","0.0-51.0","3AZHRG4CU567VJG8H2M1RQNI58S03W","A2ZSL0EDN3H4AT","32XN26MTXZ5MP383W6LZYTLBY7P0LI","","null","<img src=""img/land3.png"" style=""width:200px; border:14px solid green;"">","null","","","","","","","","","",""
"","image-keyboard-response","52","40410","0.0-52.0","3AZHRG4CU567VJG8H2M1RQNI58S03W","A2ZSL0EDN3H4AT","32XN26MTXZ5MP383W6LZYTLBY7P0LI","","489.29999999981374","img/land3.png","76","490.5","3","1","3","1","1,0.7,0.7,0.7,1,0.7,0.7,0.7,1","1,0.7,0.7,0.7,1,0.7,0.7,0.7,1","","",""
"","html-keyboard-response","53","40724","0.0-53.0","3AZHRG4CU567VJG8H2M1RQNI58S03W","A2ZSL0EDN3H4AT","32XN26MTXZ5MP383W6LZYTLBY7P0LI","","null","<img src=""img/land3.png"" style=""width:200px; border:14px solid green;"">","null","","","","","","","","","",""
"","image-keyboard-response","54","41150","0.0-54.0","3AZHRG4CU567VJG8H2M1RQNI58S03W","A2ZSL0EDN3H4AT","32XN26MTXZ5MP383W6LZYTLBY7P0LI","","425.89999999990687","img/land3.png","76","426.20000000018626","3","1","3","1","1,0.7,0.7,0.7,1,0.7,0.7,0.7,1","1,0.7,0.7,0.7,1,0.7,0.7,0.7,1","","",""
"","html-keyboard-response","55","41458","0.0-55.0","3AZHRG4CU567VJG8H2M1RQNI58S03W","A2ZSL0EDN3H4AT","32XN26MTXZ5MP383W6LZYTLBY7P0LI","","null","<img src=""img/land3.png"" style=""width:200px; border:14px solid green;"">","null","","","","","","","","","",""
"","image-keyboard-response","56","41995","0.0-56.0","3AZHRG4CU567VJG8H2M1RQNI58S03W","A2ZSL0EDN3H4AT","32XN26MTXZ5MP383W6LZYTLBY7P0LI","","537.0999999996275","img/land1.png","74","537.6000000000931","1","1","1","1","1,0.7,0.7,0.7,1,0.7,0.7,0.7,1","1,0.7,0.7,0.7,1,0.7,0.7,0.7,1","","",""
"","html-keyboard-response","57","42307","0.0-57.0","3AZHRG4CU567VJG8H2M1RQNI58S03W","A2ZSL0EDN3H4AT","32XN26MTXZ5MP383W6LZYTLBY7P0LI","","null","<img src=""img/land1.png"" style=""width:200px; border:14px solid green;"">","null","","","","","","","","","",""
"","image-keyboard-response","58","43108","0.0-58.0","3AZHRG4CU567VJG8H2M1RQNI58S03W","A2ZSL0EDN3H4AT","32XN26MTXZ5MP383W6LZYTLBY7P0LI","","799.7999999998137","img/land3.png","76","800.3999999999069","3","1","3","1","1,0.7,0.7,0.7,1,0.7,0.7,0.7,1","1,0.7,0.7,0.7,1,0.7,0.7,0.7,1","","",""
"","html-keyboard-response","59","43419","0.0-59.0","3AZHRG4CU567VJG8H2M1RQNI58S03W","A2ZSL0EDN3H4AT","32XN26MTXZ5MP383W6LZYTLBY7P0LI","","null","<img src=""img/land3.png"" style=""width:200px; border:14px solid green;"">","null","","","","","","","","","",""
"","image-keyboard-response","60","44140","0.0-60.0","3AZHRG4CU567VJG8H2M1RQNI58S03W","A2ZSL0EDN3H4AT","32XN26MTXZ5MP383W6LZYTLBY7P0LI","","720.2999999998137","img/land1.png","74","721.1000000000931","1","1","1","1","1,0.7,0.7,0.7,1,0.7,0.7,0.7,1","1,0.7,0.7,0.7,1,0.7,0.7,0.7,1","","",""
"","html-keyboard-response","61","44452","0.0-61.0","3AZHRG4CU567VJG8H2M1RQNI58S03W","A2ZSL0EDN3H4AT","32XN26MTXZ5MP383W6LZYTLBY7P0LI","","null","<img src=""img/land1.png"" style=""width:200px; border:14px solid green;"">","null","","","","","","","","","",""
"","image-keyboard-response","62","44919","0.0-62.0","3AZHRG4CU567VJG8H2M1RQNI58S03W","A2ZSL0EDN3H4AT","32XN26MTXZ5MP383W6LZYTLBY7P0LI","","465.10000000009313","img/land1.png","74","466.70000000018626","1","1","1","1","1,0.7,0.7,0.7,1,0.7,0.7,0.7,1","1,0.7,0.7,0.7,1,0.7,0.7,0.7,1","","",""
"","html-keyboard-response","63","45225","0.0-63.0","3AZHRG4CU567VJG8H2M1RQNI58S03W","A2ZSL0EDN3H4AT","32XN26MTXZ5MP383W6LZYTLBY7P0LI","","null","<img src=""img/land1.png"" style=""width:200px; border:14px solid green;"">","null","","","","","","","","","",""
"","image-keyboard-response","64","45968","0.0-64.0","3AZHRG4CU567VJG8H2M1RQNI58S03W","A2ZSL0EDN3H4AT","32XN26MTXZ5MP383W6LZYTLBY7P0LI","","741.7999999998137","img/land2.png","75","742.3000000002794","2","1","2","1","1,0.7,0.7,0.7,1,0.7,0.7,0.7,1","1,0.7,0.7,0.7,1,0.7,0.7,0.7,1","","",""
"","html-keyboard-response","65","46275","0.0-65.0","3AZHRG4CU567VJG8H2M1RQNI58S03W","A2ZSL0EDN3H4AT","32XN26MTXZ5MP383W6LZYTLBY7P0LI","","null","<img src=""img/land2.png"" style=""width:200px; border:14px solid green;"">","null","","","","","","","","","",""
"","image-keyboard-response","66","47035","0.0-66.0","3AZHRG4CU567VJG8H2M1RQNI58S03W","A2ZSL0EDN3H4AT","32XN26MTXZ5MP383W6LZYTLBY7P0LI","","759.7999999998137","img/land3.png","74","760.1999999997206","1","1","3","1","1,0.7,0.7,0.7,1,0.7,0.7,0.7,1","1,0.7,0.7,0.7,1,0.7,0.7,0.7,1","","",""
"","html-keyboard-response","67","47347","0.0-67.0","3AZHRG4CU567VJG8H2M1RQNI58S03W","A2ZSL0EDN3H4AT","32XN26MTXZ5MP383W6LZYTLBY7P0LI","","null","<img src=""img/land3.png"" style=""width:200px; border:14px solid green;"">","null","","","","","","","","","",""
"","image-keyboard-response","68","48331","0.0-68.0","3AZHRG4CU567VJG8H2M1RQNI58S03W","A2ZSL0EDN3H4AT","32XN26MTXZ5MP383W6LZYTLBY7P0LI","","983.5","img/land2.png","75","984","2","1","2","1","1,0.7,0.7,0.7,1,0.7,0.7,0.7,1","1,0.7,0.7,0.7,1,0.7,0.7,0.7,1","","",""
"","html-keyboard-response","69","48643","0.0-69.0","3AZHRG4CU567VJG8H2M1RQNI58S03W","A2ZSL0EDN3H4AT","32XN26MTXZ5MP383W6LZYTLBY7P0LI","","null","<img src=""img/land2.png"" style=""width:200px; border:14px solid green;"">","null","","","","","","","","","",""
"","image-keyboard-response","70","49172","0.0-70.0","3AZHRG4CU567VJG8H2M1RQNI58S03W","A2ZSL0EDN3H4AT","32XN26MTXZ5MP383W6LZYTLBY7P0LI","","527.8000000002794","img/land2.png","75","528.6999999997206","2","1","2","1","1,0.7,0.7,0.7,1,0.7,0.7,0.7,1","1,0.7,0.7,0.7,1,0.7,0.7,0.7,1","","",""
"","html-keyboard-response","71","49484","0.0-71.0","3AZHRG4CU567VJG8H2M1RQNI58S03W","A2ZSL0EDN3H4AT","32XN26MTXZ5MP383W6LZYTLBY7P0LI","","null","<img src=""img/land2.png"" style=""width:200px; border:14px solid green;"">","null","","","","","","","","","",""
"","image-keyboard-response","72","50325","0.0-72.0","3AZHRG4CU567VJG8H2M1RQNI58S03W","A2ZSL0EDN3H4AT","32XN26MTXZ5MP383W6LZYTLBY7P0LI","","839.6999999997206","img/land1.png","74","841","1","1","1","1","1,0.7,0.7,0.7,1,0.7,0.7,0.7,1","1,0.7,0.7,0.7,1,0.7,0.7,0.7,1","","",""
"","html-keyboard-response","73","50631","0.0-73.0","3AZHRG4CU567VJG8H2M1RQNI58S03W","A2ZSL0EDN3H4AT","32XN26MTXZ5MP383W6LZYTLBY7P0LI","","null","<img src=""img/land1.png"" style=""width:200px; border:14px solid green;"">","null","","","","","","","","","",""
"","image-keyboard-response","74","51703","0.0-74.0","3AZHRG4CU567VJG8H2M1RQNI58S03W","A2ZSL0EDN3H4AT","32XN26MTXZ5MP383W6LZYTLBY7P0LI","","1071.5","img/land3.png","75","1072.1000000000931","2","1","3","1","1,0.7,0.7,0.7,1,0.7,0.7,0.7,1","1,0.7,0.7,0.7,1,0.7,0.7,0.7,1","","",""
"","html-keyboard-response","75","52007","0.0-75.0","3AZHRG4CU567VJG8H2M1RQNI58S03W","A2ZSL0EDN3H4AT","32XN26MTXZ5MP383W6LZYTLBY7P0LI","","null","<img src=""img/land3.png"" style=""width:200px; border:14px solid green;"">","null","","","","","","","","","",""
"","image-keyboard-response","76","52823","0.0-76.0","3AZHRG4CU567VJG8H2M1RQNI58S03W","A2ZSL0EDN3H4AT","32XN26MTXZ5MP383W6LZYTLBY7P0LI","","815","img/land2.png","74","815.6000000000931","1","1","2","1","1,0.7,0.7,0.7,1,0.7,0.7,0.7,1","1,0.7,0.7,0.7,1,0.7,0.7,0.7,1","","",""
"","html-keyboard-response","77","53128","0.0-77.0","3AZHRG4CU567VJG8H2M1RQNI58S03W","A2ZSL0EDN3H4AT","32XN26MTXZ5MP383W6LZYTLBY7P0LI","","null","<img src=""img/land2.png"" style=""width:200px; border:14px solid green;"">","null","","","","","","","","","",""
"","image-keyboard-response","78","53961","0.0-78.0","3AZHRG4CU567VJG8H2M1RQNI58S03W","A2ZSL0EDN3H4AT","32XN26MTXZ5MP383W6LZYTLBY7P0LI","","832.1999999997206","img/land3.png","75","832.7000000001863","2","1","3","1","1,0.7,0.7,0.7,1,0.7,0.7,0.7,1","1,0.7,0.7,0.7,1,0.7,0.7,0.7,1","","",""
"","html-keyboard-response","79","54268","0.0-79.0","3AZHRG4CU567VJG8H2M1RQNI58S03W","A2ZSL0EDN3H4AT","32XN26MTXZ5MP383W6LZYTLBY7P0LI","","null","<img src=""img/land3.png"" style=""width:200px; border:14px solid green;"">","null","","","","","","","","","",""
"","image-keyboard-response","80","54987","0.0-80.0","3AZHRG4CU567VJG8H2M1RQNI58S03W","A2ZSL0EDN3H4AT","32XN26MTXZ5MP383W6LZYTLBY7P0LI","","717.1000000000931","img/land2.png","76","718.6999999997206","3","1","2","1","1,0.7,0.7,0.7,1,0.7,0.7,0.7,1","1,0.7,0.7,0.7,1,0.7,0.7,0.7,1","","",""
"","html-keyboard-response","81","55299","0.0-81.0","3AZHRG4CU567VJG8H2M1RQNI58S03W","A2ZSL0EDN3H4AT","32XN26MTXZ5MP383W6LZYTLBY7P0LI","","null","<img src=""img/land2.png"" style=""width:200px; border:14px solid green;"">","null","","","","","","","","","",""
"","image-keyboard-response","82","56286","0.0-82.0","3AZHRG4CU567VJG8H2M1RQNI58S03W","A2ZSL0EDN3H4AT","32XN26MTXZ5MP383W6LZYTLBY7P0LI","","984.6999999997206","img/land1.png","74","986","1","1","1","1","1,0.7,0.7,0.7,1,0.7,0.7,0.7,1","1,0.7,0.7,0.7,1,0.7,0.7,0.7,1","","",""
"","html-keyboard-response","83","56592","0.0-83.0","3AZHRG4CU567VJG8H2M1RQNI58S03W","A2ZSL0EDN3H4AT","32XN26MTXZ5MP383W6LZYTLBY7P0LI","","null","<img src=""img/land1.png"" style=""width:200px; border:14px solid green;"">","null","","","","","","","","","",""
"","image-keyboard-response","84","57440","0.0-84.0","3AZHRG4CU567VJG8H2M1RQNI58S03W","A2ZSL0EDN3H4AT","32XN26MTXZ5MP383W6LZYTLBY7P0LI","","847.8999999999069","img/land2.png","76","848.3999999999069","3","0","2","1","1,0.7,0.7,0.7,1,0.7,0.7,0.7,1","1,0.7,0.7,0.7,1,0.7,0.7,0.7,1","","",""
"","html-keyboard-response","85","57747","0.0-85.0","3AZHRG4CU567VJG8H2M1RQNI58S03W","A2ZSL0EDN3H4AT","32XN26MTXZ5MP383W6LZYTLBY7P0LI","","null","<img src=""img/land2.png"" style=""width:200px;border:14px solid red;"">","null","","","","","","","","","",""
"","image-keyboard-response","86","58172","0.0-86.0","3AZHRG4CU567VJG8H2M1RQNI58S03W","A2ZSL0EDN3H4AT","32XN26MTXZ5MP383W6LZYTLBY7P0LI","","424.5","img/land2.png","74","425","1","1","2","1","1,0.7,0.7,0.7,1,0.7,0.7,0.7,1","1,0.7,0.7,0.7,1,0.7,0.7,0.7,1","","",""
"","html-keyboard-response","87","58482","0.0-87.0","3AZHRG4CU567VJG8H2M1RQNI58S03W","A2ZSL0EDN3H4AT","32XN26MTXZ5MP383W6LZYTLBY7P0LI","","null","<img src=""img/land2.png"" style=""width:200px; border:14px solid green;"">","null","","","","","","","","","",""
"","image-keyboard-response","88","59197","0.0-88.0","3AZHRG4CU567VJG8H2M1RQNI58S03W","A2ZSL0EDN3H4AT","32XN26MTXZ5MP383W6LZYTLBY7P0LI","","714.1000000000931","img/land2.png","74","715.1000000000931","1","0","2","1","1,0.7,0.7,0.7,1,0.7,0.7,0.7,1","1,0.7,0.7,0.7,1,0.7,0.7,0.7,1","","",""
"","html-keyboard-response","89","59507","0.0-89.0","3AZHRG4CU567VJG8H2M1RQNI58S03W","A2ZSL0EDN3H4AT","32XN26MTXZ5MP383W6LZYTLBY7P0LI","","null","<img src=""img/land2.png"" style=""width:200px;border:14px solid red;"">","null","","","","","","","","","",""
"","image-keyboard-response","90","60515","0.0-90.0","3AZHRG4CU567VJG8H2M1RQNI58S03W","A2ZSL0EDN3H4AT","32XN26MTXZ5MP383W6LZYTLBY7P0LI","","1006.1000000000931","img/land1.png","74","1007.7000000001863","1","1","1","1","1,0.7,0.7,0.7,1,0.7,0.7,0.7,1","1,0.7,0.7,0.7,1,0.7,0.7,0.7,1","","",""
"","html-keyboard-response","91","60827","0.0-91.0","3AZHRG4CU567VJG8H2M1RQNI58S03W","A2ZSL0EDN3H4AT","32XN26MTXZ5MP383W6LZYTLBY7P0LI","","null","<img src=""img/land1.png"" style=""width:200px; border:14px solid green;"">","null","","","","","","","","","",""
"","image-keyboard-response","92","61429","0.0-92.0","3AZHRG4CU567VJG8H2M1RQNI58S03W","A2ZSL0EDN3H4AT","32XN26MTXZ5MP383W6LZYTLBY7P0LI","","602.3000000002794","img/land1.png","74","602.7000000001863","1","1","1","1","1,0.7,0.7,0.7,1,0.7,0.7,0.7,1","1,0.7,0.7,0.7,1,0.7,0.7,0.7,1","","",""
"","html-keyboard-response","93","61739","0.0-93.0","3AZHRG4CU567VJG8H2M1RQNI58S03W","A2ZSL0EDN3H4AT","32XN26MTXZ5MP383W6LZYTLBY7P0LI","","null","<img src=""img/land1.png"" style=""width:200px; border:14px solid green;"">","null","","","","","","","","","",""
"","image-keyboard-response","94","62236","0.0-94.0","3AZHRG4CU567VJG8H2M1RQNI58S03W","A2ZSL0EDN3H4AT","32XN26MTXZ5MP383W6LZYTLBY7P0LI","","495.6999999997206","img/land1.png","74","496.10000000009313","1","1","1","1","1,0.7,0.7,0.7,1,0.7,0.7,0.7,1","1,0.7,0.7,0.7,1,0.7,0.7,0.7,1","","",""
"","html-keyboard-response","95","62538","0.0-95.0","3AZHRG4CU567VJG8H2M1RQNI58S03W","A2ZSL0EDN3H4AT","32XN26MTXZ5MP383W6LZYTLBY7P0LI","","null","<img src=""img/land1.png"" style=""width:200px; border:14px solid green;"">","null","","","","","","","","","",""
"","image-keyboard-response","96","63261","0.0-96.0","3AZHRG4CU567VJG8H2M1RQNI58S03W","A2ZSL0EDN3H4AT","32XN26MTXZ5MP383W6LZYTLBY7P0LI","","723.1000000000931","img/land2.png","76","723.6000000000931","3","1","2","1","1,0.7,0.7,0.7,1,0.7,0.7,0.7,1","1,0.7,0.7,0.7,1,0.7,0.7,0.7,1","","",""
"","html-keyboard-response","97","63572","0.0-97.0","3AZHRG4CU567VJG8H2M1RQNI58S03W","A2ZSL0EDN3H4AT","32XN26MTXZ5MP383W6LZYTLBY7P0LI","","null","<img src=""img/land2.png"" style=""width:200px; border:14px solid green;"">","null","","","","","","","","","",""
"","image-keyboard-response","98","64408","0.0-98.0","3AZHRG4CU567VJG8H2M1RQNI58S03W","A2ZSL0EDN3H4AT","32XN26MTXZ5MP383W6LZYTLBY7P0LI","","835.3999999999069","img/land3.png","75","836.8000000002794","2","1","3","1","1,0.7,0.7,0.7,1,0.7,0.7,0.7,1","1,0.7,0.7,0.7,1,0.7,0.7,0.7,1","","",""
"","html-keyboard-response","99","64723","0.0-99.0","3AZHRG4CU567VJG8H2M1RQNI58S03W","A2ZSL0EDN3H4AT","32XN26MTXZ5MP383W6LZYTLBY7P0LI","","null","<img src=""img/land3.png"" style=""width:200px; border:14px solid green;"">","null","","","","","","","","","",""
"","image-keyboard-response","100","65383","0.0-100.0","3AZHRG4CU567VJG8H2M1RQNI58S03W","A2ZSL0EDN3H4AT","32XN26MTXZ5MP383W6LZYTLBY7P0LI","","658.1999999997206","img/land1.png","74","659.5","1","1","1","1","1,0.7,0.7,0.7,1,0.7,0.7,0.7,1","1,0.7,0.7,0.7,1,0.7,0.7,0.7,1","","",""
"","html-keyboard-response","101","65687","0.0-101.0","3AZHRG4CU567VJG8H2M1RQNI58S03W","A2ZSL0EDN3H4AT","32XN26MTXZ5MP383W6LZYTLBY7P0LI","","null","<img src=""img/land1.png"" style=""width:200px; border:14px solid green;"">","null","","","","","","","","","",""
"","image-keyboard-response","102","66300","0.0-102.0","3AZHRG4CU567VJG8H2M1RQNI58S03W","A2ZSL0EDN3H4AT","32XN26MTXZ5MP383W6LZYTLBY7P0LI","","612.5","img/land1.png","74","612.8999999999069","1","1","1","1","1,0.7,0.7,0.7,1,0.7,0.7,0.7,1","1,0.7,0.7,0.7,1,0.7,0.7,0.7,1","","",""
"","html-keyboard-response","103","66610","0.0-103.0","3AZHRG4CU567VJG8H2M1RQNI58S03W","A2ZSL0EDN3H4AT","32XN26MTXZ5MP383W6LZYTLBY7P0LI","","null","<img src=""img/land1.png"" style=""width:200px; border:14px solid green;"">","null","","","","","","","","","",""
"","image-keyboard-response","104","67166","0.0-104.0","3AZHRG4CU567VJG8H2M1RQNI58S03W","A2ZSL0EDN3H4AT","32XN26MTXZ5MP383W6LZYTLBY7P0LI","","555.1000000000931","img/land3.png","75","555.6000000000931","2","0","3","1","1,0.7,0.7,0.7,1,0.7,0.7,0.7,1","1,0.7,0.7,0.7,1,0.7,0.7,0.7,1","","",""
"","html-keyboard-response","105","67475","0.0-105.0","3AZHRG4CU567VJG8H2M1RQNI58S03W","A2ZSL0EDN3H4AT","32XN26MTXZ5MP383W6LZYTLBY7P0LI","","null","<img src=""img/land3.png"" style=""width:200px;border:14px solid red;"">","null","","","","","","","","","",""
"","image-keyboard-response","106","67901","0.0-106.0","3AZHRG4CU567VJG8H2M1RQNI58S03W","A2ZSL0EDN3H4AT","32XN26MTXZ5MP383W6LZYTLBY7P0LI","","425","img/land2.png","76","425.29999999981374","3","1","2","1","1,0.7,0.7,0.7,1,0.7,0.7,0.7,1","1,0.7,0.7,0.7,1,0.7,0.7,0.7,1","","",""
"","html-keyboard-response","107","68211","0.0-107.0","3AZHRG4CU567VJG8H2M1RQNI58S03W","A2ZSL0EDN3H4AT","32XN26MTXZ5MP383W6LZYTLBY7P0LI","","null","<img src=""img/land2.png"" style=""width:200px; border:14px solid green;"">","null","","","","","","","","","",""
"","image-keyboard-response","108","68844","0.0-108.0","3AZHRG4CU567VJG8H2M1RQNI58S03W","A2ZSL0EDN3H4AT","32XN26MTXZ5MP383W6LZYTLBY7P0LI","","632.0999999996275","img/land2.png","76","633","3","1","2","1","1,0.7,0.7,0.7,1,0.7,0.7,0.7,1","1,0.7,0.7,0.7,1,0.7,0.7,0.7,1","","",""
"","html-keyboard-response","109","69155","0.0-109.0","3AZHRG4CU567VJG8H2M1RQNI58S03W","A2ZSL0EDN3H4AT","32XN26MTXZ5MP383W6LZYTLBY7P0LI","","null","<img src=""img/land2.png"" style=""width:200px; border:14px solid green;"">","null","","","","","","","","","",""
"","image-keyboard-response","110","69758","0.0-110.0","3AZHRG4CU567VJG8H2M1RQNI58S03W","A2ZSL0EDN3H4AT","32XN26MTXZ5MP383W6LZYTLBY7P0LI","","600.8000000002794","img/land1.png","74","602.0999999996275","1","1","1","1","1,0.7,0.7,0.7,1,0.7,0.7,0.7,1","1,0.7,0.7,0.7,1,0.7,0.7,0.7,1","","",""
"","html-keyboard-response","111","70065","0.0-111.0","3AZHRG4CU567VJG8H2M1RQNI58S03W","A2ZSL0EDN3H4AT","32XN26MTXZ5MP383W6LZYTLBY7P0LI","","null","<img src=""img/land1.png"" style=""width:200px; border:14px solid green;"">","null","","","","","","","","","",""
"","image-keyboard-response","112","71041","0.0-112.0","3AZHRG4CU567VJG8H2M1RQNI58S03W","A2ZSL0EDN3H4AT","32XN26MTXZ5MP383W6LZYTLBY7P0LI","","975.7000000001863","img/land2.png","76","976.3000000002794","3","1","2","1","1,0.7,0.7,0.7,1,0.7,0.7,0.7,1","1,0.7,0.7,0.7,1,0.7,0.7,0.7,1","","",""
"","html-keyboard-response","113","71354","0.0-113.0","3AZHRG4CU567VJG8H2M1RQNI58S03W","A2ZSL0EDN3H4AT","32XN26MTXZ5MP383W6LZYTLBY7P0LI","","null","<img src=""img/land2.png"" style=""width:200px; border:14px solid green;"">","null","","","","","","","","","",""
"","image-keyboard-response","114","72216","0.0-114.0","3AZHRG4CU567VJG8H2M1RQNI58S03W","A2ZSL0EDN3H4AT","32XN26MTXZ5MP383W6LZYTLBY7P0LI","","860.6999999997206","img/land3.png","75","861.1000000000931","2","1","3","1","1,0.7,0.7,0.7,1,0.7,0.7,0.7,1","1,0.7,0.7,0.7,1,0.7,0.7,0.7,1","","",""
"","html-keyboard-response","115","72523","0.0-115.0","3AZHRG4CU567VJG8H2M1RQNI58S03W","A2ZSL0EDN3H4AT","32XN26MTXZ5MP383W6LZYTLBY7P0LI","","null","<img src=""img/land3.png"" style=""width:200px; border:14px solid green;"">","null","","","","","","","","","",""
"","image-keyboard-response","116","73032","0.0-116.0","3AZHRG4CU567VJG8H2M1RQNI58S03W","A2ZSL0EDN3H4AT","32XN26MTXZ5MP383W6LZYTLBY7P0LI","","508.10000000009313","img/land3.png","75","508.60000000009313","2","1","3","1","1,0.7,0.7,0.7,1,0.7,0.7,0.7,1","1,0.7,0.7,0.7,1,0.7,0.7,0.7,1","","",""
"","html-keyboard-response","117","73338","0.0-117.0","3AZHRG4CU567VJG8H2M1RQNI58S03W","A2ZSL0EDN3H4AT","32XN26MTXZ5MP383W6LZYTLBY7P0LI","","null","<img src=""img/land3.png"" style=""width:200px; border:14px solid green;"">","null","","","","","","","","","",""
"","image-keyboard-response","118","74285","0.0-118.0","3AZHRG4CU567VJG8H2M1RQNI58S03W","A2ZSL0EDN3H4AT","32XN26MTXZ5MP383W6LZYTLBY7P0LI","","946.2000000001863","img/land2.png","76","947","3","0","2","1","1,0.7,0.7,0.7,1,0.7,0.7,0.7,1","1,0.7,0.7,0.7,1,0.7,0.7,0.7,1","","",""
"","html-keyboard-response","119","74594","0.0-119.0","3AZHRG4CU567VJG8H2M1RQNI58S03W","A2ZSL0EDN3H4AT","32XN26MTXZ5MP383W6LZYTLBY7P0LI","","null","<img src=""img/land2.png"" style=""width:200px;border:14px solid red;"">","null","","","","","","","","","",""
"","image-keyboard-response","120","75369","0.0-120.0","3AZHRG4CU567VJG8H2M1RQNI58S03W","A2ZSL0EDN3H4AT","32XN26MTXZ5MP383W6LZYTLBY7P0LI","","774.1000000000931","img/land2.png","74","774.6000000000931","1","0","2","1","1,0.7,0.7,0.7,1,0.7,0.7,0.7,1","1,0.7,0.7,0.7,1,0.7,0.7,0.7,1","","",""
"","html-keyboard-response","121","75680","0.0-121.0","3AZHRG4CU567VJG8H2M1RQNI58S03W","A2ZSL0EDN3H4AT","32XN26MTXZ5MP383W6LZYTLBY7P0LI","","null","<img src=""img/land2.png"" style=""width:200px;border:14px solid red;"">","null","","","","","","","","","",""
"","image-keyboard-response","122","76292","0.0-122.0","3AZHRG4CU567VJG8H2M1RQNI58S03W","A2ZSL0EDN3H4AT","32XN26MTXZ5MP383W6LZYTLBY7P0LI","","612.2999999998137","img/land3.png","75","612.6000000000931","2","0","3","1","1,0.7,0.7,0.7,1,0.7,0.7,0.7,1","1,0.7,0.7,0.7,1,0.7,0.7,0.7,1","","",""
"","html-keyboard-response","123","76599","0.0-123.0","3AZHRG4CU567VJG8H2M1RQNI58S03W","A2ZSL0EDN3H4AT","32XN26MTXZ5MP383W6LZYTLBY7P0LI","","null","<img src=""img/land3.png"" style=""width:200px;border:14px solid red;"">","null","","","","","","","","","",""
"","image-keyboard-response","124","77149","0.0-124.0","3AZHRG4CU567VJG8H2M1RQNI58S03W","A2ZSL0EDN3H4AT","32XN26MTXZ5MP383W6LZYTLBY7P0LI","","548.2999999998137","img/land2.png","76","549.1000000000931","3","1","2","1","1,0.7,0.7,0.7,1,0.7,0.7,0.7,1","1,0.7,0.7,0.7,1,0.7,0.7,0.7,1","","",""
"","html-keyboard-response","125","77456","0.0-125.0","3AZHRG4CU567VJG8H2M1RQNI58S03W","A2ZSL0EDN3H4AT","32XN26MTXZ5MP383W6LZYTLBY7P0LI","","null","<img src=""img/land2.png"" style=""width:200px; border:14px solid green;"">","null","","","","","","","","","",""
"","image-keyboard-response","126","77986","0.0-126.0","3AZHRG4CU567VJG8H2M1RQNI58S03W","A2ZSL0EDN3H4AT","32XN26MTXZ5MP383W6LZYTLBY7P0LI","","528.2999999998137","img/land2.png","76","530.2000000001863","3","1","2","1","1,0.7,0.7,0.7,1,0.7,0.7,0.7,1","1,0.7,0.7,0.7,1,0.7,0.7,0.7,1","","",""
"","html-keyboard-response","127","78297","0.0-127.0","3AZHRG4CU567VJG8H2M1RQNI58S03W","A2ZSL0EDN3H4AT","32XN26MTXZ5MP383W6LZYTLBY7P0LI","","null","<img src=""img/land2.png"" style=""width:200px; border:14px solid green;"">","null","","","","","","","","","",""
"","image-keyboard-response","128","78960","0.0-128.0","3AZHRG4CU567VJG8H2M1RQNI58S03W","A2ZSL0EDN3H4AT","32XN26MTXZ5MP383W6LZYTLBY7P0LI","","662.7000000001863","img/land1.png","74","663.1999999997206","1","1","1","1","1,0.7,0.7,0.7,1,0.7,0.7,0.7,1","1,0.7,0.7,0.7,1,0.7,0.7,0.7,1","","",""
"","html-keyboard-response","129","79265","0.0-129.0","3AZHRG4CU567VJG8H2M1RQNI58S03W","A2ZSL0EDN3H4AT","32XN26MTXZ5MP383W6LZYTLBY7P0LI","","null","<img src=""img/land1.png"" style=""width:200px; border:14px solid green;"">","null","","","","","","","","","",""
"","image-keyboard-response","130","80013","0.0-130.0","3AZHRG4CU567VJG8H2M1RQNI58S03W","A2ZSL0EDN3H4AT","32XN26MTXZ5MP383W6LZYTLBY7P0LI","","747.3999999999069","img/land2.png","76","747.7999999998137","3","0","2","1","1,0.7,0.7,0.7,1,0.7,0.7,0.7,1","1,0.7,0.7,0.7,1,0.7,0.7,0.7,1","","",""
"","html-keyboard-response","131","80320","0.0-131.0","3AZHRG4CU567VJG8H2M1RQNI58S03W","A2ZSL0EDN3H4AT","32XN26MTXZ5MP383W6LZYTLBY7P0LI","","null","<img src=""img/land2.png"" style=""width:200px;border:14px solid red;"">","null","","","","","","","","","",""
"","image-keyboard-response","132","80976","0.0-132.0","3AZHRG4CU567VJG8H2M1RQNI58S03W","A2ZSL0EDN3H4AT","32XN26MTXZ5MP383W6LZYTLBY7P0LI","","655.8000000002794","img/land3.png","75","656.1999999997206","2","1","3","1","1,0.7,0.7,0.7,1,0.7,0.7,0.7,1","1,0.7,0.7,0.7,1,0.7,0.7,0.7,1","","",""
"","html-keyboard-response","133","81283","0.0-133.0","3AZHRG4CU567VJG8H2M1RQNI58S03W","A2ZSL0EDN3H4AT","32XN26MTXZ5MP383W6LZYTLBY7P0LI","","null","<img src=""img/land3.png"" style=""width:200px; border:14px solid green;"">","null","","","","","","","","","",""
"","image-keyboard-response","134","81936","0.0-134.0","3AZHRG4CU567VJG8H2M1RQNI58S03W","A2ZSL0EDN3H4AT","32XN26MTXZ5MP383W6LZYTLBY7P0LI","","652","img/land1.png","74","652.3999999999069","1","1","1","1","1,0.7,0.7,0.7,1,0.7,0.7,0.7,1","1,0.7,0.7,0.7,1,0.7,0.7,0.7,1","","",""
"","html-keyboard-response","135","82243","0.0-135.0","3AZHRG4CU567VJG8H2M1RQNI58S03W","A2ZSL0EDN3H4AT","32XN26MTXZ5MP383W6LZYTLBY7P0LI","","null","<img src=""img/land1.png"" style=""width:200px; border:14px solid green;"">","null","","","","","","","","","",""
"","image-keyboard-response","136","83213","0.0-136.0","3AZHRG4CU567VJG8H2M1RQNI58S03W","A2ZSL0EDN3H4AT","32XN26MTXZ5MP383W6LZYTLBY7P0LI","","968.5","img/land3.png","76","969.8999999999069","3","1","3","1","1,0.7,0.7,0.7,1,0.7,0.7,0.7,1","1,0.7,0.7,0.7,1,0.7,0.7,0.7,1","","",""
"","html-keyboard-response","137","83522","0.0-137.0","3AZHRG4CU567VJG8H2M1RQNI58S03W","A2ZSL0EDN3H4AT","32XN26MTXZ5MP383W6LZYTLBY7P0LI","","null","<img src=""img/land3.png"" style=""width:200px; border:14px solid green;"">","null","","","","","","","","","",""
"","image-keyboard-response","138","84372","0.0-138.0","3AZHRG4CU567VJG8H2M1RQNI58S03W","A2ZSL0EDN3H4AT","32XN26MTXZ5MP383W6LZYTLBY7P0LI","","850.1999999997206","img/land2.png","74","850.5","1","1","2","1","1,0.7,0.7,0.7,1,0.7,0.7,0.7,1","1,0.7,0.7,0.7,1,0.7,0.7,0.7,1","","",""
"","html-keyboard-response","139","84680","0.0-139.0","3AZHRG4CU567VJG8H2M1RQNI58S03W","A2ZSL0EDN3H4AT","32XN26MTXZ5MP383W6LZYTLBY7P0LI","","null","<img src=""img/land2.png"" style=""width:200px; border:14px solid green;"">","null","","","","","","","","","",""
"","image-keyboard-response","140","85412","0.0-140.0","3AZHRG4CU567VJG8H2M1RQNI58S03W","A2ZSL0EDN3H4AT","32XN26MTXZ5MP383W6LZYTLBY7P0LI","","732","img/land3.png","74","732.3000000002794","1","1","3","1","1,0.7,0.7,0.7,1,0.7,0.7,0.7,1","1,0.7,0.7,0.7,1,0.7,0.7,0.7,1","","",""
"","html-keyboard-response","141","85722","0.0-141.0","3AZHRG4CU567VJG8H2M1RQNI58S03W","A2ZSL0EDN3H4AT","32XN26MTXZ5MP383W6LZYTLBY7P0LI","","null","<img src=""img/land3.png"" style=""width:200px; border:14px solid green;"">","null","","","","","","","","","",""
"","image-keyboard-response","142","86338","0.0-142.0","3AZHRG4CU567VJG8H2M1RQNI58S03W","A2ZSL0EDN3H4AT","32XN26MTXZ5MP383W6LZYTLBY7P0LI","","615.2000000001863","img/land2.png","76","615.8999999999069","3","1","2","1","1,0.7,0.7,0.7,1,0.7,0.7,0.7,1","1,0.7,0.7,0.7,1,0.7,0.7,0.7,1","","",""
"","html-keyboard-response","143","86646","0.0-143.0","3AZHRG4CU567VJG8H2M1RQNI58S03W","A2ZSL0EDN3H4AT","32XN26MTXZ5MP383W6LZYTLBY7P0LI","","null","<img src=""img/land2.png"" style=""width:200px; border:14px solid green;"">","null","","","","","","","","","",""
"","image-keyboard-response","144","87245","0.0-144.0","3AZHRG4CU567VJG8H2M1RQNI58S03W","A2ZSL0EDN3H4AT","32XN26MTXZ5MP383W6LZYTLBY7P0LI","","598.1999999997206","img/land2.png","76","598.9000000003725","3","1","2","1","1,0.7,0.7,0.7,1,0.7,0.7,0.7,1","1,0.7,0.7,0.7,1,0.7,0.7,0.7,1","","",""
"","html-keyboard-response","145","87554","0.0-145.0","3AZHRG4CU567VJG8H2M1RQNI58S03W","A2ZSL0EDN3H4AT","32XN26MTXZ5MP383W6LZYTLBY7P0LI","","null","<img src=""img/land2.png"" style=""width:200px; border:14px solid green;"">","null","","","","","","","","","",""
"","image-keyboard-response","146","88085","0.0-146.0","3AZHRG4CU567VJG8H2M1RQNI58S03W","A2ZSL0EDN3H4AT","32XN26MTXZ5MP383W6LZYTLBY7P0LI","","530.3999999999069","img/land2.png","76","530.7000000001863","3","1","2","1","1,0.7,0.7,0.7,1,0.7,0.7,0.7,1","1,0.7,0.7,0.7,1,0.7,0.7,0.7,1","","",""
"","html-keyboard-response","147","88391","0.0-147.0","3AZHRG4CU567VJG8H2M1RQNI58S03W","A2ZSL0EDN3H4AT","32XN26MTXZ5MP383W6LZYTLBY7P0LI","","null","<img src=""img/land2.png"" style=""width:200px; border:14px solid green;"">","null","","","","","","","","","",""
"","image-keyboard-response","148","88953","0.0-148.0","3AZHRG4CU567VJG8H2M1RQNI58S03W","A2ZSL0EDN3H4AT","32XN26MTXZ5MP383W6LZYTLBY7P0LI","","561.5999999996275","img/land3.png","74","561.8999999999069","1","0","3","1","1,0.7,0.7,0.7,1,0.7,0.7,0.7,1","1,0.7,0.7,0.7,1,0.7,0.7,0.7,1","","",""
"","html-keyboard-response","149","89266","0.0-149.0","3AZHRG4CU567VJG8H2M1RQNI58S03W","A2ZSL0EDN3H4AT","32XN26MTXZ5MP383W6LZYTLBY7P0LI","","null","<img src=""img/land3.png"" style=""width:200px;border:14px solid red;"">","null","","","","","","","","","",""
"","image-keyboard-response","150","89656","0.0-150.0","3AZHRG4CU567VJG8H2M1RQNI58S03W","A2ZSL0EDN3H4AT","32XN26MTXZ5MP383W6LZYTLBY7P0LI","","389.39999999990687","img/land2.png","75","389.70000000018626","2","1","2","1","1,0.7,0.7,0.7,1,0.7,0.7,0.7,1","1,0.7,0.7,0.7,1,0.7,0.7,0.7,1","","",""
"","html-keyboard-response","151","89959","0.0-151.0","3AZHRG4CU567VJG8H2M1RQNI58S03W","A2ZSL0EDN3H4AT","32XN26MTXZ5MP383W6LZYTLBY7P0LI","","null","<img src=""img/land2.png"" style=""width:200px; border:14px solid green;"">","null","","","","","","","","","",""
"","image-keyboard-response","152","90628","0.0-152.0","3AZHRG4CU567VJG8H2M1RQNI58S03W","A2ZSL0EDN3H4AT","32XN26MTXZ5MP383W6LZYTLBY7P0LI","","668.6000000000931","img/land3.png","76","669.2000000001863","3","1","3","1","1,0.7,0.7,0.7,1,0.7,0.7,0.7,1","1,0.7,0.7,0.7,1,0.7,0.7,0.7,1","","",""
"","html-keyboard-response","153","90929","0.0-153.0","3AZHRG4CU567VJG8H2M1RQNI58S03W","A2ZSL0EDN3H4AT","32XN26MTXZ5MP383W6LZYTLBY7P0LI","","null","<img src=""img/land3.png"" style=""width:200px; border:14px solid green;"">","null","","","","","","","","","",""
"","image-keyboard-response","154","91625","0.0-154.0","3AZHRG4CU567VJG8H2M1RQNI58S03W","A2ZSL0EDN3H4AT","32XN26MTXZ5MP383W6LZYTLBY7P0LI","","696.1000000000931","img/land3.png","76","696.5","3","1","3","1","1,0.7,0.7,0.7,1,0.7,0.7,0.7,1","1,0.7,0.7,0.7,1,0.7,0.7,0.7,1","","",""
"","html-keyboard-response","155","91939","0.0-155.0","3AZHRG4CU567VJG8H2M1RQNI58S03W","A2ZSL0EDN3H4AT","32XN26MTXZ5MP383W6LZYTLBY7P0LI","","null","<img src=""img/land3.png"" style=""width:200px; border:14px solid green;"">","null","","","","","","","","","",""
"","image-keyboard-response","156","92506","0.0-156.0","3AZHRG4CU567VJG8H2M1RQNI58S03W","A2ZSL0EDN3H4AT","32XN26MTXZ5MP383W6LZYTLBY7P0LI","","567.1999999997206","img/land2.png","74","567.5","1","1","2","1","1,0.7,0.7,0.7,1,0.7,0.7,0.7,1","1,0.7,0.7,0.7,1,0.7,0.7,0.7,1","","",""
"","html-keyboard-response","157","92816","0.0-157.0","3AZHRG4CU567VJG8H2M1RQNI58S03W","A2ZSL0EDN3H4AT","32XN26MTXZ5MP383W6LZYTLBY7P0LI","","null","<img src=""img/land2.png"" style=""width:200px; border:14px solid green;"">","null","","","","","","","","","",""
"","image-keyboard-response","158","93380","0.0-158.0","3AZHRG4CU567VJG8H2M1RQNI58S03W","A2ZSL0EDN3H4AT","32XN26MTXZ5MP383W6LZYTLBY7P0LI","","563.3999999999069","img/land1.png","76","563.8999999999069","3","1","1","1","1,0.7,0.7,0.7,1,0.7,0.7,0.7,1","1,0.7,0.7,0.7,1,0.7,0.7,0.7,1","","",""
"","html-keyboard-response","159","93691","0.0-159.0","3AZHRG4CU567VJG8H2M1RQNI58S03W","A2ZSL0EDN3H4AT","32XN26MTXZ5MP383W6LZYTLBY7P0LI","","null","<img src=""img/land1.png"" style=""width:200px; border:14px solid green;"">","null","","","","","","","","","",""
"","image-keyboard-response","160","94321","0.0-160.0","3AZHRG4CU567VJG8H2M1RQNI58S03W","A2ZSL0EDN3H4AT","32XN26MTXZ5MP383W6LZYTLBY7P0LI","","629.7999999998137","img/land3.png","74","630.2999999998137","1","1","3","1","1,0.7,0.7,0.7,1,0.7,0.7,0.7,1","1,0.7,0.7,0.7,1,0.7,0.7,0.7,1","","",""
"","html-keyboard-response","161","94630","0.0-161.0","3AZHRG4CU567VJG8H2M1RQNI58S03W","A2ZSL0EDN3H4AT","32XN26MTXZ5MP383W6LZYTLBY7P0LI","","null","<img src=""img/land3.png"" style=""width:200px; border:14px solid green;"">","null","","","","","","","","","",""
"","image-keyboard-response","162","95271","0.0-162.0","3AZHRG4CU567VJG8H2M1RQNI58S03W","A2ZSL0EDN3H4AT","32XN26MTXZ5MP383W6LZYTLBY7P0LI","","641.2000000001863","img/land3.png","74","641.6999999997206","1","1","3","1","1,0.7,0.7,0.7,1,0.7,0.7,0.7,1","1,0.7,0.7,0.7,1,0.7,0.7,0.7,1","","",""
"","html-keyboard-response","163","95573","0.0-163.0","3AZHRG4CU567VJG8H2M1RQNI58S03W","A2ZSL0EDN3H4AT","32XN26MTXZ5MP383W6LZYTLBY7P0LI","","null","<img src=""img/land3.png"" style=""width:200px; border:14px solid green;"">","null","","","","","","","","","",""
"","image-keyboard-response","164","96081","0.0-164.0","3AZHRG4CU567VJG8H2M1RQNI58S03W","A2ZSL0EDN3H4AT","32XN26MTXZ5MP383W6LZYTLBY7P0LI","","506.79999999981374","img/land1.png","76","507.20000000018626","3","1","1","1","1,0.7,0.7,0.7,1,0.7,0.7,0.7,1","1,0.7,0.7,0.7,1,0.7,0.7,0.7,1","","",""
"","html-keyboard-response","165","96394","0.0-165.0","3AZHRG4CU567VJG8H2M1RQNI58S03W","A2ZSL0EDN3H4AT","32XN26MTXZ5MP383W6LZYTLBY7P0LI","","null","<img src=""img/land1.png"" style=""width:200px; border:14px solid green;"">","null","","","","","","","","","",""
"","image-keyboard-response","166","97132","0.0-166.0","3AZHRG4CU567VJG8H2M1RQNI58S03W","A2ZSL0EDN3H4AT","32XN26MTXZ5MP383W6LZYTLBY7P0LI","","738","img/land2.png","74","738.3999999999069","1","0","2","1","1,0.7,0.7,0.7,1,0.7,0.7,0.7,1","1,0.7,0.7,0.7,1,0.7,0.7,0.7,1","","",""
"","html-keyboard-response","167","97441","0.0-167.0","3AZHRG4CU567VJG8H2M1RQNI58S03W","A2ZSL0EDN3H4AT","32XN26MTXZ5MP383W6LZYTLBY7P0LI","","null","<img src=""img/land2.png"" style=""width:200px;border:14px solid red;"">","null","","","","","","","","","",""
"","image-keyboard-response","168","97895","0.0-168.0","3AZHRG4CU567VJG8H2M1RQNI58S03W","A2ZSL0EDN3H4AT","32XN26MTXZ5MP383W6LZYTLBY7P0LI","","453.29999999981374","img/land1.png","75","453.5","2","1","1","1","1,0.7,0.7,0.7,1,0.7,0.7,0.7,1","1,0.7,0.7,0.7,1,0.7,0.7,0.7,1","","",""
"","html-keyboard-response","169","98199","0.0-169.0","3AZHRG4CU567VJG8H2M1RQNI58S03W","A2ZSL0EDN3H4AT","32XN26MTXZ5MP383W6LZYTLBY7P0LI","","null","<img src=""img/land1.png"" style=""width:200px; border:14px solid green;"">","null","","","","","","","","","",""
"","html-keyboard-response","170","101012","0.0-170.0","3AZHRG4CU567VJG8H2M1RQNI58S03W","A2ZSL0EDN3H4AT","32XN26MTXZ5MP383W6LZYTLBY7P0LI","","","","","","","","","","","","","",""
"","image-keyboard-response","171","102229","0.0-171.0","3AZHRG4CU567VJG8H2M1RQNI58S03W","A2ZSL0EDN3H4AT","32XN26MTXZ5MP383W6LZYTLBY7P0LI","","1217.2000000001863","img/land6.png","74","1217.7999999998137","1","0","3","1","1,0.7,0.7,0.7,1,0.7,0.7,0.7,1","1,0.7,0.7,0.7,1,0.7,0.7,0.7,1","","",""
"","html-keyboard-response","172","102535","0.0-172.0","3AZHRG4CU567VJG8H2M1RQNI58S03W","A2ZSL0EDN3H4AT","32XN26MTXZ5MP383W6LZYTLBY7P0LI","","null","<img src=""img/land6.png"" style=""width:200px;border:14px solid red;"">","null","","","","","","","","","",""
"","image-keyboard-response","173","102923","0.0-173.0","3AZHRG4CU567VJG8H2M1RQNI58S03W","A2ZSL0EDN3H4AT","32XN26MTXZ5MP383W6LZYTLBY7P0LI","","388","img/land5.png","75","388.20000000018626","2","1","2","1","1,0.7,0.7,0.7,1,0.7,0.7,0.7,1","1,0.7,0.7,0.7,1,0.7,0.7,0.7,1","","",""
"","html-keyboard-response","174","103234","0.0-174.0","3AZHRG4CU567VJG8H2M1RQNI58S03W","A2ZSL0EDN3H4AT","32XN26MTXZ5MP383W6LZYTLBY7P0LI","","null","<img src=""img/land5.png"" style=""width:200px; border:14px solid green;"">","null","","","","","","","","","",""
"","image-keyboard-response","175","104087","0.0-175.0","3AZHRG4CU567VJG8H2M1RQNI58S03W","A2ZSL0EDN3H4AT","32XN26MTXZ5MP383W6LZYTLBY7P0LI","","852.1000000000931","img/land4.png","76","852.5","3","1","1","1","1,0.7,0.7,0.7,1,0.7,0.7,0.7,1","1,0.7,0.7,0.7,1,0.7,0.7,0.7,1","","",""
"","html-keyboard-response","176","104394","0.0-176.0","3AZHRG4CU567VJG8H2M1RQNI58S03W","A2ZSL0EDN3H4AT","32XN26MTXZ5MP383W6LZYTLBY7P0LI","","null","<img src=""img/land4.png"" style=""width:200px; border:14px solid green;"">","null","","","","","","","","","",""
"","image-keyboard-response","177","104997","0.0-177.0","3AZHRG4CU567VJG8H2M1RQNI58S03W","A2ZSL0EDN3H4AT","32XN26MTXZ5MP383W6LZYTLBY7P0LI","","602.1000000000931","img/land5.png","75","603.3000000002794","2","1","2","1","1,0.7,0.7,0.7,1,0.7,0.7,0.7,1","1,0.7,0.7,0.7,1,0.7,0.7,0.7,1","","",""
"","html-keyboard-response","178","105306","0.0-178.0","3AZHRG4CU567VJG8H2M1RQNI58S03W","A2ZSL0EDN3H4AT","32XN26MTXZ5MP383W6LZYTLBY7P0LI","","null","<img src=""img/land5.png"" style=""width:200px; border:14px solid green;"">","null","","","","","","","","","",""
"","image-keyboard-response","179","105795","0.0-179.0","3AZHRG4CU567VJG8H2M1RQNI58S03W","A2ZSL0EDN3H4AT","32XN26MTXZ5MP383W6LZYTLBY7P0LI","","487.20000000018626","img/land5.png","75","488.39999999990687","2","1","2","1","1,0.7,0.7,0.7,1,0.7,0.7,0.7,1","1,0.7,0.7,0.7,1,0.7,0.7,0.7,1","","",""
"","html-keyboard-response","180","106103","0.0-180.0","3AZHRG4CU567VJG8H2M1RQNI58S03W","A2ZSL0EDN3H4AT","32XN26MTXZ5MP383W6LZYTLBY7P0LI","","null","<img src=""img/land5.png"" style=""width:200px; border:14px solid green;"">","null","","","","","","","","","",""
"","image-keyboard-response","181","106631","0.0-181.0","3AZHRG4CU567VJG8H2M1RQNI58S03W","A2ZSL0EDN3H4AT","32XN26MTXZ5MP383W6LZYTLBY7P0LI","","528.2999999998137","img/land6.png","76","528.7000000001863","3","1","3","1","1,0.7,0.7,0.7,1,0.7,0.7,0.7,1","1,0.7,0.7,0.7,1,0.7,0.7,0.7,1","","",""
"","html-keyboard-response","182","106934","0.0-182.0","3AZHRG4CU567VJG8H2M1RQNI58S03W","A2ZSL0EDN3H4AT","32XN26MTXZ5MP383W6LZYTLBY7P0LI","","null","<img src=""img/land6.png"" style=""width:200px; border:14px solid green;"">","null","","","","","","","","","",""
"","image-keyboard-response","183","107698","0.0-183.0","3AZHRG4CU567VJG8H2M1RQNI58S03W","A2ZSL0EDN3H4AT","32XN26MTXZ5MP383W6LZYTLBY7P0LI","","763.5","img/land4.png","74","763.9000000003725","1","1","1","1","1,0.7,0.7,0.7,1,0.7,0.7,0.7,1","1,0.7,0.7,0.7,1,0.7,0.7,0.7,1","","",""
"","html-keyboard-response","184","108007","0.0-184.0","3AZHRG4CU567VJG8H2M1RQNI58S03W","A2ZSL0EDN3H4AT","32XN26MTXZ5MP383W6LZYTLBY7P0LI","","null","<img src=""img/land4.png"" style=""width:200px; border:14px solid green;"">","null","","","","","","","","","",""
"","image-keyboard-response","185","108666","0.0-185.0","3AZHRG4CU567VJG8H2M1RQNI58S03W","A2ZSL0EDN3H4AT","32XN26MTXZ5MP383W6LZYTLBY7P0LI","","657.6999999997206","img/land6.png","75","658.1000000000931","2","1","3","1","1,0.7,0.7,0.7,1,0.7,0.7,0.7,1","1,0.7,0.7,0.7,1,0.7,0.7,0.7,1","","",""
"","html-keyboard-response","186","108975","0.0-186.0","3AZHRG4CU567VJG8H2M1RQNI58S03W","A2ZSL0EDN3H4AT","32XN26MTXZ5MP383W6LZYTLBY7P0LI","","null","<img src=""img/land6.png"" style=""width:200px; border:14px solid green;"">","null","","","","","","","","","",""
"","image-keyboard-response","187","109598","0.0-187.0","3AZHRG4CU567VJG8H2M1RQNI58S03W","A2ZSL0EDN3H4AT","32XN26MTXZ5MP383W6LZYTLBY7P0LI","","622.7000000001863","img/land5.png","76","623.7999999998137","3","1","2","1","1,0.7,0.7,0.7,1,0.7,0.7,0.7,1","1,0.7,0.7,0.7,1,0.7,0.7,0.7,1","","",""
"","html-keyboard-response","188","109906","0.0-188.0","3AZHRG4CU567VJG8H2M1RQNI58S03W","A2ZSL0EDN3H4AT","32XN26MTXZ5MP383W6LZYTLBY7P0LI","","null","<img src=""img/land5.png"" style=""width:200px; border:14px solid green;"">","null","","","","","","","","","",""
"","image-keyboard-response","189","110418","0.0-189.0","3AZHRG4CU567VJG8H2M1RQNI58S03W","A2ZSL0EDN3H4AT","32XN26MTXZ5MP383W6LZYTLBY7P0LI","","510.5","img/land6.png","75","511.6999999997206","2","1","3","1","1,0.7,0.7,0.7,1,0.7,0.7,0.7,1","1,0.7,0.7,0.7,1,0.7,0.7,0.7,1","","",""
"","html-keyboard-response","190","110725","0.0-190.0","3AZHRG4CU567VJG8H2M1RQNI58S03W","A2ZSL0EDN3H4AT","32XN26MTXZ5MP383W6LZYTLBY7P0LI","","null","<img src=""img/land6.png"" style=""width:200px; border:14px solid green;"">","null","","","","","","","","","",""
"","image-keyboard-response","191","111176","0.0-191.0","3AZHRG4CU567VJG8H2M1RQNI58S03W","A2ZSL0EDN3H4AT","32XN26MTXZ5MP383W6LZYTLBY7P0LI","","451","img/land6.png","75","451.29999999981374","2","1","3","1","1,0.7,0.7,0.7,1,0.7,0.7,0.7,1","1,0.7,0.7,0.7,1,0.7,0.7,0.7,1","","",""
"","html-keyboard-response","192","111489","0.0-192.0","3AZHRG4CU567VJG8H2M1RQNI58S03W","A2ZSL0EDN3H4AT","32XN26MTXZ5MP383W6LZYTLBY7P0LI","","null","<img src=""img/land6.png"" style=""width:200px; border:14px solid green;"">","null","","","","","","","","","",""
"","image-keyboard-response","193","112062","0.0-193.0","3AZHRG4CU567VJG8H2M1RQNI58S03W","A2ZSL0EDN3H4AT","32XN26MTXZ5MP383W6LZYTLBY7P0LI","","572.2000000001863","img/land4.png","76","572.6000000000931","3","1","1","1","1,0.7,0.7,0.7,1,0.7,0.7,0.7,1","1,0.7,0.7,0.7,1,0.7,0.7,0.7,1","","",""
"","html-keyboard-response","194","112366","0.0-194.0","3AZHRG4CU567VJG8H2M1RQNI58S03W","A2ZSL0EDN3H4AT","32XN26MTXZ5MP383W6LZYTLBY7P0LI","","null","<img src=""img/land4.png"" style=""width:200px; border:14px solid green;"">","null","","","","","","","","","",""
"","image-keyboard-response","195","112835","0.0-195.0","3AZHRG4CU567VJG8H2M1RQNI58S03W","A2ZSL0EDN3H4AT","32XN26MTXZ5MP383W6LZYTLBY7P0LI","","468.6999999997206","img/land4.png","76","469","3","1","1","1","1,0.7,0.7,0.7,1,0.7,0.7,0.7,1","1,0.7,0.7,0.7,1,0.7,0.7,0.7,1","","",""
"","html-keyboard-response","196","113141","0.0-196.0","3AZHRG4CU567VJG8H2M1RQNI58S03W","A2ZSL0EDN3H4AT","32XN26MTXZ5MP383W6LZYTLBY7P0LI","","null","<img src=""img/land4.png"" style=""width:200px; border:14px solid green;"">","null","","","","","","","","","",""
"","image-keyboard-response","197","113564","0.0-197.0","3AZHRG4CU567VJG8H2M1RQNI58S03W","A2ZSL0EDN3H4AT","32XN26MTXZ5MP383W6LZYTLBY7P0LI","","422.29999999981374","img/land4.png","76","422.79999999981374","3","0","1","1","1,0.7,0.7,0.7,1,0.7,0.7,0.7,1","1,0.7,0.7,0.7,1,0.7,0.7,0.7,1","","",""
"","html-keyboard-response","198","113873","0.0-198.0","3AZHRG4CU567VJG8H2M1RQNI58S03W","A2ZSL0EDN3H4AT","32XN26MTXZ5MP383W6LZYTLBY7P0LI","","null","<img src=""img/land4.png"" style=""width:200px;border:14px solid red;"">","null","","","","","","","","","",""
"","image-keyboard-response","199","114314","0.0-199.0","3AZHRG4CU567VJG8H2M1RQNI58S03W","A2ZSL0EDN3H4AT","32XN26MTXZ5MP383W6LZYTLBY7P0LI","","440.60000000009313","img/land4.png","74","441.39999999990687","1","1","1","1","1,0.7,0.7,0.7,1,0.7,0.7,0.7,1","1,0.7,0.7,0.7,1,0.7,0.7,0.7,1","","",""
"","html-keyboard-response","200","114626","0.0-200.0","3AZHRG4CU567VJG8H2M1RQNI58S03W","A2ZSL0EDN3H4AT","32XN26MTXZ5MP383W6LZYTLBY7P0LI","","null","<img src=""img/land4.png"" style=""width:200px; border:14px solid green;"">","null","","","","","","","","","",""
"","image-keyboard-response","201","115089","0.0-201.0","3AZHRG4CU567VJG8H2M1RQNI58S03W","A2ZSL0EDN3H4AT","32XN26MTXZ5MP383W6LZYTLBY7P0LI","","461.39999999990687","img/land4.png","74","462.70000000018626","1","1","1","1","1,0.7,0.7,0.7,1,0.7,0.7,0.7,1","1,0.7,0.7,0.7,1,0.7,0.7,0.7,1","","",""
"","html-keyboard-response","202","115397","0.0-202.0","3AZHRG4CU567VJG8H2M1RQNI58S03W","A2ZSL0EDN3H4AT","32XN26MTXZ5MP383W6LZYTLBY7P0LI","","null","<img src=""img/land4.png"" style=""width:200px; border:14px solid green;"">","null","","","","","","","","","",""
"","image-keyboard-response","203","115964","0.0-203.0","3AZHRG4CU567VJG8H2M1RQNI58S03W","A2ZSL0EDN3H4AT","32XN26MTXZ5MP383W6LZYTLBY7P0LI","","566.6999999997206","img/land4.png","76","567.1000000000931","3","0","1","1","1,0.7,0.7,0.7,1,0.7,0.7,0.7,1","1,0.7,0.7,0.7,1,0.7,0.7,0.7,1","","",""
"","html-keyboard-response","204","116274","0.0-204.0","3AZHRG4CU567VJG8H2M1RQNI58S03W","A2ZSL0EDN3H4AT","32XN26MTXZ5MP383W6LZYTLBY7P0LI","","null","<img src=""img/land4.png"" style=""width:200px;border:14px solid red;"">","null","","","","","","","","","",""
"","image-keyboard-response","205","116540","0.0-205.0","3AZHRG4CU567VJG8H2M1RQNI58S03W","A2ZSL0EDN3H4AT","32XN26MTXZ5MP383W6LZYTLBY7P0LI","","266","img/land4.png","74","266.8000000002794","1","1","1","1","1,0.7,0.7,0.7,1,0.7,0.7,0.7,1","1,0.7,0.7,0.7,1,0.7,0.7,0.7,1","","",""
"","html-keyboard-response","206","116849","0.0-206.0","3AZHRG4CU567VJG8H2M1RQNI58S03W","A2ZSL0EDN3H4AT","32XN26MTXZ5MP383W6LZYTLBY7P0LI","","null","<img src=""img/land4.png"" style=""width:200px; border:14px solid green;"">","null","","","","","","","","","",""
"","image-keyboard-response","207","117551","0.0-207.0","3AZHRG4CU567VJG8H2M1RQNI58S03W","A2ZSL0EDN3H4AT","32XN26MTXZ5MP383W6LZYTLBY7P0LI","","701.6000000000931","img/land5.png","75","701.8999999999069","2","1","2","1","1,0.7,0.7,0.7,1,0.7,0.7,0.7,1","1,0.7,0.7,0.7,1,0.7,0.7,0.7,1","","",""
"","html-keyboard-response","208","117857","0.0-208.0","3AZHRG4CU567VJG8H2M1RQNI58S03W","A2ZSL0EDN3H4AT","32XN26MTXZ5MP383W6LZYTLBY7P0LI","","null","<img src=""img/land5.png"" style=""width:200px; border:14px solid green;"">","null","","","","","","","","","",""
"","image-keyboard-response","209","118498","0.0-209.0","3AZHRG4CU567VJG8H2M1RQNI58S03W","A2ZSL0EDN3H4AT","32XN26MTXZ5MP383W6LZYTLBY7P0LI","","639.2999999998137","img/land6.png","75","640.3999999999069","2","1","3","1","1,0.7,0.7,0.7,1,0.7,0.7,0.7,1","1,0.7,0.7,0.7,1,0.7,0.7,0.7,1","","",""
"","html-keyboard-response","210","118809","0.0-210.0","3AZHRG4CU567VJG8H2M1RQNI58S03W","A2ZSL0EDN3H4AT","32XN26MTXZ5MP383W6LZYTLBY7P0LI","","null","<img src=""img/land6.png"" style=""width:200px; border:14px solid green;"">","null","","","","","","","","","",""
"","image-keyboard-response","211","119619","0.0-211.0","3AZHRG4CU567VJG8H2M1RQNI58S03W","A2ZSL0EDN3H4AT","32XN26MTXZ5MP383W6LZYTLBY7P0LI","","808.7999999998137","img/land5.png","75","809.1000000000931","2","1","2","1","1,0.7,0.7,0.7,1,0.7,0.7,0.7,1","1,0.7,0.7,0.7,1,0.7,0.7,0.7,1","","",""
"","html-keyboard-response","212","119929","0.0-212.0","3AZHRG4CU567VJG8H2M1RQNI58S03W","A2ZSL0EDN3H4AT","32XN26MTXZ5MP383W6LZYTLBY7P0LI","","null","<img src=""img/land5.png"" style=""width:200px; border:14px solid green;"">","null","","","","","","","","","",""
"","image-keyboard-response","213","120642","0.0-213.0","3AZHRG4CU567VJG8H2M1RQNI58S03W","A2ZSL0EDN3H4AT","32XN26MTXZ5MP383W6LZYTLBY7P0LI","","712.2000000001863","img/land4.png","76","712.7999999998137","3","0","1","1","1,0.7,0.7,0.7,1,0.7,0.7,0.7,1","1,0.7,0.7,0.7,1,0.7,0.7,0.7,1","","",""
"","html-keyboard-response","214","120950","0.0-214.0","3AZHRG4CU567VJG8H2M1RQNI58S03W","A2ZSL0EDN3H4AT","32XN26MTXZ5MP383W6LZYTLBY7P0LI","","null","<img src=""img/land4.png"" style=""width:200px;border:14px solid red;"">","null","","","","","","","","","",""
"","image-keyboard-response","215","121428","0.0-215.0","3AZHRG4CU567VJG8H2M1RQNI58S03W","A2ZSL0EDN3H4AT","32XN26MTXZ5MP383W6LZYTLBY7P0LI","","478","img/land5.png","75","478.29999999981374","2","1","2","1","1,0.7,0.7,0.7,1,0.7,0.7,0.7,1","1,0.7,0.7,0.7,1,0.7,0.7,0.7,1","","",""
"","html-keyboard-response","216","121737","0.0-216.0","3AZHRG4CU567VJG8H2M1RQNI58S03W","A2ZSL0EDN3H4AT","32XN26MTXZ5MP383W6LZYTLBY7P0LI","","null","<img src=""img/land5.png"" style=""width:200px; border:14px solid green;"">","null","","","","","","","","","",""
"","image-keyboard-response","217","122378","0.0-217.0","3AZHRG4CU567VJG8H2M1RQNI58S03W","A2ZSL0EDN3H4AT","32XN26MTXZ5MP383W6LZYTLBY7P0LI","","640.3999999999069","img/land6.png","74","640.8999999999069","1","1","3","1","1,0.7,0.7,0.7,1,0.7,0.7,0.7,1","1,0.7,0.7,0.7,1,0.7,0.7,0.7,1","","",""
"","html-keyboard-response","218","122689","0.0-218.0","3AZHRG4CU567VJG8H2M1RQNI58S03W","A2ZSL0EDN3H4AT","32XN26MTXZ5MP383W6LZYTLBY7P0LI","","null","<img src=""img/land6.png"" style=""width:200px; border:14px solid green;"">","null","","","","","","","","","",""
"","image-keyboard-response","219","123543","0.0-219.0","3AZHRG4CU567VJG8H2M1RQNI58S03W","A2ZSL0EDN3H4AT","32XN26MTXZ5MP383W6LZYTLBY7P0LI","","853.7999999998137","img/land4.png","76","854.1000000000931","3","0","1","1","1,0.7,0.7,0.7,1,0.7,0.7,0.7,1","1,0.7,0.7,0.7,1,0.7,0.7,0.7,1","","",""
"","html-keyboard-response","220","123849","0.0-220.0","3AZHRG4CU567VJG8H2M1RQNI58S03W","A2ZSL0EDN3H4AT","32XN26MTXZ5MP383W6LZYTLBY7P0LI","","null","<img src=""img/land4.png"" style=""width:200px;border:14px solid red;"">","null","","","","","","","","","",""
"","image-keyboard-response","221","124294","0.0-221.0","3AZHRG4CU567VJG8H2M1RQNI58S03W","A2ZSL0EDN3H4AT","32XN26MTXZ5MP383W6LZYTLBY7P0LI","","444.70000000018626","img/land6.png","75","445","2","1","3","1","1,0.7,0.7,0.7,1,0.7,0.7,0.7,1","1,0.7,0.7,0.7,1,0.7,0.7,0.7,1","","",""
"","html-keyboard-response","222","124601","0.0-222.0","3AZHRG4CU567VJG8H2M1RQNI58S03W","A2ZSL0EDN3H4AT","32XN26MTXZ5MP383W6LZYTLBY7P0LI","","null","<img src=""img/land6.png"" style=""width:200px; border:14px solid green;"">","null","","","","","","","","","",""
"","image-keyboard-response","223","125120","0.0-223.0","3AZHRG4CU567VJG8H2M1RQNI58S03W","A2ZSL0EDN3H4AT","32XN26MTXZ5MP383W6LZYTLBY7P0LI","","518.8000000002794","img/land6.png","75","519.0999999996275","2","1","3","1","1,0.7,0.7,0.7,1,0.7,0.7,0.7,1","1,0.7,0.7,0.7,1,0.7,0.7,0.7,1","","",""
"","html-keyboard-response","224","125430","0.0-224.0","3AZHRG4CU567VJG8H2M1RQNI58S03W","A2ZSL0EDN3H4AT","32XN26MTXZ5MP383W6LZYTLBY7P0LI","","null","<img src=""img/land6.png"" style=""width:200px; border:14px solid green;"">","null","","","","","","","","","",""
"","image-keyboard-response","225","125990","0.0-225.0","3AZHRG4CU567VJG8H2M1RQNI58S03W","A2ZSL0EDN3H4AT","32XN26MTXZ5MP383W6LZYTLBY7P0LI","","560.1000000000931","img/land4.png","74","560.3999999999069","1","1","1","1","1,0.7,0.7,0.7,1,0.7,0.7,0.7,1","1,0.7,0.7,0.7,1,0.7,0.7,0.7,1","","",""
"","html-keyboard-response","226","126293","0.0-226.0","3AZHRG4CU567VJG8H2M1RQNI58S03W","A2ZSL0EDN3H4AT","32XN26MTXZ5MP383W6LZYTLBY7P0LI","","null","<img src=""img/land4.png"" style=""width:200px; border:14px solid green;"">","null","","","","","","","","","",""
"","image-keyboard-response","227","126825","0.0-227.0","3AZHRG4CU567VJG8H2M1RQNI58S03W","A2ZSL0EDN3H4AT","32XN26MTXZ5MP383W6LZYTLBY7P0LI","","531.2000000001863","img/land4.png","75","531.7999999998137","2","1","1","1","1,0.7,0.7,0.7,1,0.7,0.7,0.7,1","1,0.7,0.7,0.7,1,0.7,0.7,0.7,1","","",""
"","html-keyboard-response","228","127136","0.0-228.0","3AZHRG4CU567VJG8H2M1RQNI58S03W","A2ZSL0EDN3H4AT","32XN26MTXZ5MP383W6LZYTLBY7P0LI","","null","<img src=""img/land4.png"" style=""width:200px; border:14px solid green;"">","null","","","","","","","","","",""
"","image-keyboard-response","229","127690","0.0-229.0","3AZHRG4CU567VJG8H2M1RQNI58S03W","A2ZSL0EDN3H4AT","32XN26MTXZ5MP383W6LZYTLBY7P0LI","","553.2000000001863","img/land4.png","75","553.6000000000931","2","1","1","1","1,0.7,0.7,0.7,1,0.7,0.7,0.7,1","1,0.7,0.7,0.7,1,0.7,0.7,0.7,1","","",""
"","html-keyboard-response","230","127998","0.0-230.0","3AZHRG4CU567VJG8H2M1RQNI58S03W","A2ZSL0EDN3H4AT","32XN26MTXZ5MP383W6LZYTLBY7P0LI","","null","<img src=""img/land4.png"" style=""width:200px; border:14px solid green;"">","null","","","","","","","","","",""
"","image-keyboard-response","231","128525","0.0-231.0","3AZHRG4CU567VJG8H2M1RQNI58S03W","A2ZSL0EDN3H4AT","32XN26MTXZ5MP383W6LZYTLBY7P0LI","","525.9000000003725","img/land6.png","76","527.2999999998137","3","1","3","1","1,0.7,0.7,0.7,1,0.7,0.7,0.7,1","1,0.7,0.7,0.7,1,0.7,0.7,0.7,1","","",""
"","html-keyboard-response","232","128832","0.0-232.0","3AZHRG4CU567VJG8H2M1RQNI58S03W","A2ZSL0EDN3H4AT","32XN26MTXZ5MP383W6LZYTLBY7P0LI","","null","<img src=""img/land6.png"" style=""width:200px; border:14px solid green;"">","null","","","","","","","","","",""
"","image-keyboard-response","233","129383","0.0-233.0","3AZHRG4CU567VJG8H2M1RQNI58S03W","A2ZSL0EDN3H4AT","32XN26MTXZ5MP383W6LZYTLBY7P0LI","","549.9000000003725","img/land4.png","75","550.1999999997206","2","1","1","1","1,0.7,0.7,0.7,1,0.7,0.7,0.7,1","1,0.7,0.7,0.7,1,0.7,0.7,0.7,1","","",""
"","html-keyboard-response","234","129689","0.0-234.0","3AZHRG4CU567VJG8H2M1RQNI58S03W","A2ZSL0EDN3H4AT","32XN26MTXZ5MP383W6LZYTLBY7P0LI","","null","<img src=""img/land4.png"" style=""width:200px; border:14px solid green;"">","null","","","","","","","","","",""
"","image-keyboard-response","235","130195","0.0-235.0","3AZHRG4CU567VJG8H2M1RQNI58S03W","A2ZSL0EDN3H4AT","32XN26MTXZ5MP383W6LZYTLBY7P0LI","","505.29999999981374","img/land4.png","75","505.8000000002794","2","1","1","1","1,0.7,0.7,0.7,1,0.7,0.7,0.7,1","1,0.7,0.7,0.7,1,0.7,0.7,0.7,1","","",""
"","html-keyboard-response","236","130501","0.0-236.0","3AZHRG4CU567VJG8H2M1RQNI58S03W","A2ZSL0EDN3H4AT","32XN26MTXZ5MP383W6LZYTLBY7P0LI","","null","<img src=""img/land4.png"" style=""width:200px; border:14px solid green;"">","null","","","","","","","","","",""
"","image-keyboard-response","237","131139","0.0-237.0","3AZHRG4CU567VJG8H2M1RQNI58S03W","A2ZSL0EDN3H4AT","32XN26MTXZ5MP383W6LZYTLBY7P0LI","","637.6000000000931","img/land5.png","76","638","3","1","2","1","1,0.7,0.7,0.7,1,0.7,0.7,0.7,1","1,0.7,0.7,0.7,1,0.7,0.7,0.7,1","","",""
"","html-keyboard-response","238","131446","0.0-238.0","3AZHRG4CU567VJG8H2M1RQNI58S03W","A2ZSL0EDN3H4AT","32XN26MTXZ5MP383W6LZYTLBY7P0LI","","null","<img src=""img/land5.png"" style=""width:200px; border:14px solid green;"">","null","","","","","","","","","",""
"","image-keyboard-response","239","132030","0.0-239.0","3AZHRG4CU567VJG8H2M1RQNI58S03W","A2ZSL0EDN3H4AT","32XN26MTXZ5MP383W6LZYTLBY7P0LI","","583","img/land4.png","75","583.2999999998137","2","1","1","1","1,0.7,0.7,0.7,1,0.7,0.7,0.7,1","1,0.7,0.7,0.7,1,0.7,0.7,0.7,1","","",""
"","html-keyboard-response","240","132336","0.0-240.0","3AZHRG4CU567VJG8H2M1RQNI58S03W","A2ZSL0EDN3H4AT","32XN26MTXZ5MP383W6LZYTLBY7P0LI","","null","<img src=""img/land4.png"" style=""width:200px; border:14px solid green;"">","null","","","","","","","","","",""
"","image-keyboard-response","241","132817","0.0-241.0","3AZHRG4CU567VJG8H2M1RQNI58S03W","A2ZSL0EDN3H4AT","32XN26MTXZ5MP383W6LZYTLBY7P0LI","","480.60000000009313","img/land4.png","75","481","2","1","1","1","1,0.7,0.7,0.7,1,0.7,0.7,0.7,1","1,0.7,0.7,0.7,1,0.7,0.7,0.7,1","","",""
"","html-keyboard-response","242","133128","0.0-242.0","3AZHRG4CU567VJG8H2M1RQNI58S03W","A2ZSL0EDN3H4AT","32XN26MTXZ5MP383W6LZYTLBY7P0LI","","null","<img src=""img/land4.png"" style=""width:200px; border:14px solid green;"">","null","","","","","","","","","",""
"","image-keyboard-response","243","133592","0.0-243.0","3AZHRG4CU567VJG8H2M1RQNI58S03W","A2ZSL0EDN3H4AT","32XN26MTXZ5MP383W6LZYTLBY7P0LI","","463.5","img/land4.png","75","463.90000000037253","2","1","1","1","1,0.7,0.7,0.7,1,0.7,0.7,0.7,1","1,0.7,0.7,0.7,1,0.7,0.7,0.7,1","","",""
"","html-keyboard-response","244","133905","0.0-244.0","3AZHRG4CU567VJG8H2M1RQNI58S03W","A2ZSL0EDN3H4AT","32XN26MTXZ5MP383W6LZYTLBY7P0LI","","null","<img src=""img/land4.png"" style=""width:200px; border:14px solid green;"">","null","","","","","","","","","",""
"","image-keyboard-response","245","134406","0.0-245.0","3AZHRG4CU567VJG8H2M1RQNI58S03W","A2ZSL0EDN3H4AT","32XN26MTXZ5MP383W6LZYTLBY7P0LI","","500.60000000009313","img/land5.png","76","500.90000000037253","3","0","2","1","1,0.7,0.7,0.7,1,0.7,0.7,0.7,1","1,0.7,0.7,0.7,1,0.7,0.7,0.7,1","","",""
"","html-keyboard-response","246","134713","0.0-246.0","3AZHRG4CU567VJG8H2M1RQNI58S03W","A2ZSL0EDN3H4AT","32XN26MTXZ5MP383W6LZYTLBY7P0LI","","null","<img src=""img/land5.png"" style=""width:200px;border:14px solid red;"">","null","","","","","","","","","",""
"","image-keyboard-response","247","135190","0.0-247.0","3AZHRG4CU567VJG8H2M1RQNI58S03W","A2ZSL0EDN3H4AT","32XN26MTXZ5MP383W6LZYTLBY7P0LI","","476.39999999990687","img/land4.png","74","476.79999999981374","1","1","1","1","1,0.7,0.7,0.7,1,0.7,0.7,0.7,1","1,0.7,0.7,0.7,1,0.7,0.7,0.7,1","","",""
"","html-keyboard-response","248","135497","0.0-248.0","3AZHRG4CU567VJG8H2M1RQNI58S03W","A2ZSL0EDN3H4AT","32XN26MTXZ5MP383W6LZYTLBY7P0LI","","null","<img src=""img/land4.png"" style=""width:200px; border:14px solid green;"">","null","","","","","","","","","",""
"","image-keyboard-response","249","136107","0.0-249.0","3AZHRG4CU567VJG8H2M1RQNI58S03W","A2ZSL0EDN3H4AT","32XN26MTXZ5MP383W6LZYTLBY7P0LI","","609.3999999999069","img/land6.png","75","609.8000000002794","2","1","3","1","1,0.7,0.7,0.7,1,0.7,0.7,0.7,1","1,0.7,0.7,0.7,1,0.7,0.7,0.7,1","","",""
"","html-keyboard-response","250","136412","0.0-250.0","3AZHRG4CU567VJG8H2M1RQNI58S03W","A2ZSL0EDN3H4AT","32XN26MTXZ5MP383W6LZYTLBY7P0LI","","null","<img src=""img/land6.png"" style=""width:200px; border:14px solid green;"">","null","","","","","","","","","",""
"","image-keyboard-response","251","137026","0.0-251.0","3AZHRG4CU567VJG8H2M1RQNI58S03W","A2ZSL0EDN3H4AT","32XN26MTXZ5MP383W6LZYTLBY7P0LI","","613.6000000000931","img/land4.png","74","614","1","1","1","1","1,0.7,0.7,0.7,1,0.7,0.7,0.7,1","1,0.7,0.7,0.7,1,0.7,0.7,0.7,1","","",""
"","html-keyboard-response","252","137332","0.0-252.0","3AZHRG4CU567VJG8H2M1RQNI58S03W","A2ZSL0EDN3H4AT","32XN26MTXZ5MP383W6LZYTLBY7P0LI","","null","<img src=""img/land4.png"" style=""width:200px; border:14px solid green;"">","null","","","","","","","","","",""
"","image-keyboard-response","253","137772","0.0-253.0","3AZHRG4CU567VJG8H2M1RQNI58S03W","A2ZSL0EDN3H4AT","32XN26MTXZ5MP383W6LZYTLBY7P0LI","","439.60000000009313","img/land6.png","75","440.20000000018626","2","1","3","1","1,0.7,0.7,0.7,1,0.7,0.7,0.7,1","1,0.7,0.7,0.7,1,0.7,0.7,0.7,1","","",""
"","html-keyboard-response","254","138075","0.0-254.0","3AZHRG4CU567VJG8H2M1RQNI58S03W","A2ZSL0EDN3H4AT","32XN26MTXZ5MP383W6LZYTLBY7P0LI","","null","<img src=""img/land6.png"" style=""width:200px; border:14px solid green;"">","null","","","","","","","","","",""
"","image-keyboard-response","255","138656","0.0-255.0","3AZHRG4CU567VJG8H2M1RQNI58S03W","A2ZSL0EDN3H4AT","32XN26MTXZ5MP383W6LZYTLBY7P0LI","","580.7000000001863","img/land4.png","74","581","1","1","1","1","1,0.7,0.7,0.7,1,0.7,0.7,0.7,1","1,0.7,0.7,0.7,1,0.7,0.7,0.7,1","","",""
"","html-keyboard-response","256","138969","0.0-256.0","3AZHRG4CU567VJG8H2M1RQNI58S03W","A2ZSL0EDN3H4AT","32XN26MTXZ5MP383W6LZYTLBY7P0LI","","null","<img src=""img/land4.png"" style=""width:200px; border:14px solid green;"">","null","","","","","","","","","",""
"","image-keyboard-response","257","139438","0.0-257.0","3AZHRG4CU567VJG8H2M1RQNI58S03W","A2ZSL0EDN3H4AT","32XN26MTXZ5MP383W6LZYTLBY7P0LI","","468.29999999981374","img/land6.png","75","468.8000000002794","2","0","3","1","1,0.7,0.7,0.7,1,0.7,0.7,0.7,1","1,0.7,0.7,0.7,1,0.7,0.7,0.7,1","","",""
"","html-keyboard-response","258","139741","0.0-258.0","3AZHRG4CU567VJG8H2M1RQNI58S03W","A2ZSL0EDN3H4AT","32XN26MTXZ5MP383W6LZYTLBY7P0LI","","null","<img src=""img/land6.png"" style=""width:200px;border:14px solid red;"">","null","","","","","","","","","",""
"","image-keyboard-response","259","140111","0.0-259.0","3AZHRG4CU567VJG8H2M1RQNI58S03W","A2ZSL0EDN3H4AT","32XN26MTXZ5MP383W6LZYTLBY7P0LI","","369.70000000018626","img/land6.png","76","370.10000000009313","3","1","3","1","1,0.7,0.7,0.7,1,0.7,0.7,0.7,1","1,0.7,0.7,0.7,1,0.7,0.7,0.7,1","","",""
"","html-keyboard-response","260","140417","0.0-260.0","3AZHRG4CU567VJG8H2M1RQNI58S03W","A2ZSL0EDN3H4AT","32XN26MTXZ5MP383W6LZYTLBY7P0LI","","null","<img src=""img/land6.png"" style=""width:200px; border:14px solid green;"">","null","","","","","","","","","",""
"","image-keyboard-response","261","141014","0.0-261.0","3AZHRG4CU567VJG8H2M1RQNI58S03W","A2ZSL0EDN3H4AT","32XN26MTXZ5MP383W6LZYTLBY7P0LI","","596.8999999999069","img/land4.png","74","597.3000000002794","1","1","1","1","1,0.7,0.7,0.7,1,0.7,0.7,0.7,1","1,0.7,0.7,0.7,1,0.7,0.7,0.7,1","","",""
"","html-keyboard-response","262","141317","0.0-262.0","3AZHRG4CU567VJG8H2M1RQNI58S03W","A2ZSL0EDN3H4AT","32XN26MTXZ5MP383W6LZYTLBY7P0LI","","null","<img src=""img/land4.png"" style=""width:200px; border:14px solid green;"">","null","","","","","","","","","",""
"","image-keyboard-response","263","141902","0.0-263.0","3AZHRG4CU567VJG8H2M1RQNI58S03W","A2ZSL0EDN3H4AT","32XN26MTXZ5MP383W6LZYTLBY7P0LI","","584.5","img/land6.png","76","584.8999999999069","3","1","3","1","1,0.7,0.7,0.7,1,0.7,0.7,0.7,1","1,0.7,0.7,0.7,1,0.7,0.7,0.7,1","","",""
"","html-keyboard-response","264","142208","0.0-264.0","3AZHRG4CU567VJG8H2M1RQNI58S03W","A2ZSL0EDN3H4AT","32XN26MTXZ5MP383W6LZYTLBY7P0LI","","null","<img src=""img/land6.png"" style=""width:200px; border:14px solid green;"">","null","","","","","","","","","",""
"","image-keyboard-response","265","142808","0.0-265.0","3AZHRG4CU567VJG8H2M1RQNI58S03W","A2ZSL0EDN3H4AT","32XN26MTXZ5MP383W6LZYTLBY7P0LI","","599.6000000000931","img/land5.png","74","600","1","1","2","1","1,0.7,0.7,0.7,1,0.7,0.7,0.7,1","1,0.7,0.7,0.7,1,0.7,0.7,0.7,1","","",""
"","html-keyboard-response","266","143120","0.0-266.0","3AZHRG4CU567VJG8H2M1RQNI58S03W","A2ZSL0EDN3H4AT","32XN26MTXZ5MP383W6LZYTLBY7P0LI","","null","<img src=""img/land5.png"" style=""width:200px; border:14px solid green;"">","null","","","","","","","","","",""
"","image-keyboard-response","267","143629","0.0-267.0","3AZHRG4CU567VJG8H2M1RQNI58S03W","A2ZSL0EDN3H4AT","32XN26MTXZ5MP383W6LZYTLBY7P0LI","","508.79999999981374","img/land6.png","76","509.20000000018626","3","1","3","1","1,0.7,0.7,0.7,1,0.7,0.7,0.7,1","1,0.7,0.7,0.7,1,0.7,0.7,0.7,1","","",""
"","html-keyboard-response","268","143934","0.0-268.0","3AZHRG4CU567VJG8H2M1RQNI58S03W","A2ZSL0EDN3H4AT","32XN26MTXZ5MP383W6LZYTLBY7P0LI","","null","<img src=""img/land6.png"" style=""width:200px; border:14px solid green;"">","null","","","","","","","","","",""
"","image-keyboard-response","269","144399","0.0-269.0","3AZHRG4CU567VJG8H2M1RQNI58S03W","A2ZSL0EDN3H4AT","32XN26MTXZ5MP383W6LZYTLBY7P0LI","","464.39999999990687","img/land4.png","74","464.70000000018626","1","1","1","1","1,0.7,0.7,0.7,1,0.7,0.7,0.7,1","1,0.7,0.7,0.7,1,0.7,0.7,0.7,1","","",""
"","html-keyboard-response","270","144704","0.0-270.0","3AZHRG4CU567VJG8H2M1RQNI58S03W","A2ZSL0EDN3H4AT","32XN26MTXZ5MP383W6LZYTLBY7P0LI","","null","<img src=""img/land4.png"" style=""width:200px; border:14px solid green;"">","null","","","","","","","","","",""
"","image-keyboard-response","271","145179","0.0-271.0","3AZHRG4CU567VJG8H2M1RQNI58S03W","A2ZSL0EDN3H4AT","32XN26MTXZ5MP383W6LZYTLBY7P0LI","","473.79999999981374","img/land4.png","76","474.29999999981374","3","1","1","1","1,0.7,0.7,0.7,1,0.7,0.7,0.7,1","1,0.7,0.7,0.7,1,0.7,0.7,0.7,1","","",""
"","html-keyboard-response","272","145488","0.0-272.0","3AZHRG4CU567VJG8H2M1RQNI58S03W","A2ZSL0EDN3H4AT","32XN26MTXZ5MP383W6LZYTLBY7P0LI","","null","<img src=""img/land4.png"" style=""width:200px; border:14px solid green;"">","null","","","","","","","","","",""
"","image-keyboard-response","273","146116","0.0-273.0","3AZHRG4CU567VJG8H2M1RQNI58S03W","A2ZSL0EDN3H4AT","32XN26MTXZ5MP383W6LZYTLBY7P0LI","","625.7000000001863","img/land4.png","74","627.7000000001863","1","1","1","1","1,0.7,0.7,0.7,1,0.7,0.7,0.7,1","1,0.7,0.7,0.7,1,0.7,0.7,0.7,1","","",""
"","html-keyboard-response","274","146424","0.0-274.0","3AZHRG4CU567VJG8H2M1RQNI58S03W","A2ZSL0EDN3H4AT","32XN26MTXZ5MP383W6LZYTLBY7P0LI","","null","<img src=""img/land4.png"" style=""width:200px; border:14px solid green;"">","null","","","","","","","","","",""
"","image-keyboard-response","275","147068","0.0-275.0","3AZHRG4CU567VJG8H2M1RQNI58S03W","A2ZSL0EDN3H4AT","32XN26MTXZ5MP383W6LZYTLBY7P0LI","","642.1000000000931","img/land5.png","76","643.2000000001863","3","1","2","1","1,0.7,0.7,0.7,1,0.7,0.7,0.7,1","1,0.7,0.7,0.7,1,0.7,0.7,0.7,1","","",""
"","html-keyboard-response","276","147373","0.0-276.0","3AZHRG4CU567VJG8H2M1RQNI58S03W","A2ZSL0EDN3H4AT","32XN26MTXZ5MP383W6LZYTLBY7P0LI","","null","<img src=""img/land5.png"" style=""width:200px; border:14px solid green;"">","null","","","","","","","","","",""
"","image-keyboard-response","277","147873","0.0-277.0","3AZHRG4CU567VJG8H2M1RQNI58S03W","A2ZSL0EDN3H4AT","32XN26MTXZ5MP383W6LZYTLBY7P0LI","","498.89999999990687","img/land4.png","74","499.1999999997206","1","1","1","1","1,0.7,0.7,0.7,1,0.7,0.7,0.7,1","1,0.7,0.7,0.7,1,0.7,0.7,0.7,1","","",""
"","html-keyboard-response","278","148181","0.0-278.0","3AZHRG4CU567VJG8H2M1RQNI58S03W","A2ZSL0EDN3H4AT","32XN26MTXZ5MP383W6LZYTLBY7P0LI","","null","<img src=""img/land4.png"" style=""width:200px; border:14px solid green;"">","null","","","","","","","","","",""
"","image-keyboard-response","279","148655","0.0-279.0","3AZHRG4CU567VJG8H2M1RQNI58S03W","A2ZSL0EDN3H4AT","32XN26MTXZ5MP383W6LZYTLBY7P0LI","","473","img/land4.png","74","473.29999999981374","1","1","1","1","1,0.7,0.7,0.7,1,0.7,0.7,0.7,1","1,0.7,0.7,0.7,1,0.7,0.7,0.7,1","","",""
"","html-keyboard-response","280","148968","0.0-280.0","3AZHRG4CU567VJG8H2M1RQNI58S03W","A2ZSL0EDN3H4AT","32XN26MTXZ5MP383W6LZYTLBY7P0LI","","null","<img src=""img/land4.png"" style=""width:200px; border:14px solid green;"">","null","","","","","","","","","",""
"","image-keyboard-response","281","149442","0.0-281.0","3AZHRG4CU567VJG8H2M1RQNI58S03W","A2ZSL0EDN3H4AT","32XN26MTXZ5MP383W6LZYTLBY7P0LI","","473.3000000002794","img/land4.png","74","473.79999999981374","1","1","1","1","1,0.7,0.7,0.7,1,0.7,0.7,0.7,1","1,0.7,0.7,0.7,1,0.7,0.7,0.7,1","","",""
"","html-keyboard-response","282","149752","0.0-282.0","3AZHRG4CU567VJG8H2M1RQNI58S03W","A2ZSL0EDN3H4AT","32XN26MTXZ5MP383W6LZYTLBY7P0LI","","null","<img src=""img/land4.png"" style=""width:200px; border:14px solid green;"">","null","","","","","","","","","",""
"","image-keyboard-response","283","150314","0.0-283.0","3AZHRG4CU567VJG8H2M1RQNI58S03W","A2ZSL0EDN3H4AT","32XN26MTXZ5MP383W6LZYTLBY7P0LI","","560.7000000001863","img/land5.png","76","561.5","3","0","2","1","1,0.7,0.7,0.7,1,0.7,0.7,0.7,1","1,0.7,0.7,0.7,1,0.7,0.7,0.7,1","","",""
"","html-keyboard-response","284","150621","0.0-284.0","3AZHRG4CU567VJG8H2M1RQNI58S03W","A2ZSL0EDN3H4AT","32XN26MTXZ5MP383W6LZYTLBY7P0LI","","null","<img src=""img/land5.png"" style=""width:200px;border:14px solid red;"">","null","","","","","","","","","",""
"","image-keyboard-response","285","151122","0.0-285.0","3AZHRG4CU567VJG8H2M1RQNI58S03W","A2ZSL0EDN3H4AT","32XN26MTXZ5MP383W6LZYTLBY7P0LI","","498.5","img/land4.png","75","500.59999999962747","2","1","1","1","1,0.7,0.7,0.7,1,0.7,0.7,0.7,1","1,0.7,0.7,0.7,1,0.7,0.7,0.7,1","","",""
"","html-keyboard-response","286","151428","0.0-286.0","3AZHRG4CU567VJG8H2M1RQNI58S03W","A2ZSL0EDN3H4AT","32XN26MTXZ5MP383W6LZYTLBY7P0LI","","null","<img src=""img/land4.png"" style=""width:200px; border:14px solid green;"">","null","","","","","","","","","",""
"","image-keyboard-response","287","152055","0.0-287.0","3AZHRG4CU567VJG8H2M1RQNI58S03W","A2ZSL0EDN3H4AT","32XN26MTXZ5MP383W6LZYTLBY7P0LI","","626.7999999998137","img/land6.png","74","627.2000000001863","1","0","3","1","1,0.7,0.7,0.7,1,0.7,0.7,0.7,1","1,0.7,0.7,0.7,1,0.7,0.7,0.7,1","","",""
"","html-keyboard-response","288","152364","0.0-288.0","3AZHRG4CU567VJG8H2M1RQNI58S03W","A2ZSL0EDN3H4AT","32XN26MTXZ5MP383W6LZYTLBY7P0LI","","null","<img src=""img/land6.png"" style=""width:200px;border:14px solid red;"">","null","","","","","","","","","",""
"","image-keyboard-response","289","152728","0.0-289.0","3AZHRG4CU567VJG8H2M1RQNI58S03W","A2ZSL0EDN3H4AT","32XN26MTXZ5MP383W6LZYTLBY7P0LI","","363.39999999990687","img/land4.png","76","363.79999999981374","3","0","1","1","1,0.7,0.7,0.7,1,0.7,0.7,0.7,1","1,0.7,0.7,0.7,1,0.7,0.7,0.7,1","","",""
"","html-keyboard-response","290","153038","0.0-290.0","3AZHRG4CU567VJG8H2M1RQNI58S03W","A2ZSL0EDN3H4AT","32XN26MTXZ5MP383W6LZYTLBY7P0LI","","null","<img src=""img/land4.png"" style=""width:200px;border:14px solid red;"">","null","","","","","","","","","",""
"","image-keyboard-response","291","153463","0.0-291.0","3AZHRG4CU567VJG8H2M1RQNI58S03W","A2ZSL0EDN3H4AT","32XN26MTXZ5MP383W6LZYTLBY7P0LI","","424.60000000009313","img/land5.png","75","425","2","1","2","1","1,0.7,0.7,0.7,1,0.7,0.7,0.7,1","1,0.7,0.7,0.7,1,0.7,0.7,0.7,1","","",""
"","html-keyboard-response","292","153777","0.0-292.0","3AZHRG4CU567VJG8H2M1RQNI58S03W","A2ZSL0EDN3H4AT","32XN26MTXZ5MP383W6LZYTLBY7P0LI","","null","<img src=""img/land5.png"" style=""width:200px; border:14px solid green;"">","null","","","","","","","","","",""
"","image-keyboard-response","293","154312","0.0-293.0","3AZHRG4CU567VJG8H2M1RQNI58S03W","A2ZSL0EDN3H4AT","32XN26MTXZ5MP383W6LZYTLBY7P0LI","","535.1000000000931","img/land4.png","75","535.5","2","1","1","1","1,0.7,0.7,0.7,1,0.7,0.7,0.7,1","1,0.7,0.7,0.7,1,0.7,0.7,0.7,1","","",""
"","html-keyboard-response","294","154619","0.0-294.0","3AZHRG4CU567VJG8H2M1RQNI58S03W","A2ZSL0EDN3H4AT","32XN26MTXZ5MP383W6LZYTLBY7P0LI","","null","<img src=""img/land4.png"" style=""width:200px; border:14px solid green;"">","null","","","","","","","","","",""
"","image-keyboard-response","295","155141","0.0-295.0","3AZHRG4CU567VJG8H2M1RQNI58S03W","A2ZSL0EDN3H4AT","32XN26MTXZ5MP383W6LZYTLBY7P0LI","","521.8999999999069","img/land4.png","74","522.5","1","1","1","1","1,0.7,0.7,0.7,1,0.7,0.7,0.7,1","1,0.7,0.7,0.7,1,0.7,0.7,0.7,1","","",""
"","html-keyboard-response","296","155448","0.0-296.0","3AZHRG4CU567VJG8H2M1RQNI58S03W","A2ZSL0EDN3H4AT","32XN26MTXZ5MP383W6LZYTLBY7P0LI","","null","<img src=""img/land4.png"" style=""width:200px; border:14px solid green;"">","null","","","","","","","","","",""
"","image-keyboard-response","297","156252","0.0-297.0","3AZHRG4CU567VJG8H2M1RQNI58S03W","A2ZSL0EDN3H4AT","32XN26MTXZ5MP383W6LZYTLBY7P0LI","","802.3000000002794","img/land5.png","76","803.3000000002794","3","1","2","1","1,0.7,0.7,0.7,1,0.7,0.7,0.7,1","1,0.7,0.7,0.7,1,0.7,0.7,0.7,1","","",""
"","html-keyboard-response","298","156561","0.0-298.0","3AZHRG4CU567VJG8H2M1RQNI58S03W","A2ZSL0EDN3H4AT","32XN26MTXZ5MP383W6LZYTLBY7P0LI","","null","<img src=""img/land5.png"" style=""width:200px; border:14px solid green;"">","null","","","","","","","","","",""
"","image-keyboard-response","299","157041","0.0-299.0","3AZHRG4CU567VJG8H2M1RQNI58S03W","A2ZSL0EDN3H4AT","32XN26MTXZ5MP383W6LZYTLBY7P0LI","","480.39999999990687","img/land5.png","76","480.89999999990687","3","1","2","1","1,0.7,0.7,0.7,1,0.7,0.7,0.7,1","1,0.7,0.7,0.7,1,0.7,0.7,0.7,1","","",""
"","html-keyboard-response","300","157349","0.0-300.0","3AZHRG4CU567VJG8H2M1RQNI58S03W","A2ZSL0EDN3H4AT","32XN26MTXZ5MP383W6LZYTLBY7P0LI","","null","<img src=""img/land5.png"" style=""width:200px; border:14px solid green;"">","null","","","","","","","","","",""
"","image-keyboard-response","301","158092","0.0-301.0","3AZHRG4CU567VJG8H2M1RQNI58S03W","A2ZSL0EDN3H4AT","32XN26MTXZ5MP383W6LZYTLBY7P0LI","","741.6000000000931","img/land4.png","75","742","2","1","1","1","1,0.7,0.7,0.7,1,0.7,0.7,0.7,1","1,0.7,0.7,0.7,1,0.7,0.7,0.7,1","","",""
"","html-keyboard-response","302","158395","0.0-302.0","3AZHRG4CU567VJG8H2M1RQNI58S03W","A2ZSL0EDN3H4AT","32XN26MTXZ5MP383W6LZYTLBY7P0LI","","null","<img src=""img/land4.png"" style=""width:200px; border:14px solid green;"">","null","","","","","","","","","",""
"","image-keyboard-response","303","159087","0.0-303.0","3AZHRG4CU567VJG8H2M1RQNI58S03W","A2ZSL0EDN3H4AT","32XN26MTXZ5MP383W6LZYTLBY7P0LI","","691.8000000002794","img/land5.png","76","692.3999999999069","3","0","2","1","1,0.7,0.7,0.7,1,0.7,0.7,0.7,1","1,0.7,0.7,0.7,1,0.7,0.7,0.7,1","","",""
"","html-keyboard-response","304","159400","0.0-304.0","3AZHRG4CU567VJG8H2M1RQNI58S03W","A2ZSL0EDN3H4AT","32XN26MTXZ5MP383W6LZYTLBY7P0LI","","null","<img src=""img/land5.png"" style=""width:200px;border:14px solid red;"">","null","","","","","","","","","",""
"","image-keyboard-response","305","159845","0.0-305.0","3AZHRG4CU567VJG8H2M1RQNI58S03W","A2ZSL0EDN3H4AT","32XN26MTXZ5MP383W6LZYTLBY7P0LI","","442","img/land5.png","74","444","1","0","2","1","1,0.7,0.7,0.7,1,0.7,0.7,0.7,1","1,0.7,0.7,0.7,1,0.7,0.7,0.7,1","","",""
"","html-keyboard-response","306","160148","0.0-306.0","3AZHRG4CU567VJG8H2M1RQNI58S03W","A2ZSL0EDN3H4AT","32XN26MTXZ5MP383W6LZYTLBY7P0LI","","null","<img src=""img/land5.png"" style=""width:200px;border:14px solid red;"">","null","","","","","","","","","",""
"","image-keyboard-response","307","160548","0.0-307.0","3AZHRG4CU567VJG8H2M1RQNI58S03W","A2ZSL0EDN3H4AT","32XN26MTXZ5MP383W6LZYTLBY7P0LI","","398.60000000009313","img/land4.png","75","399.89999999990687","2","1","1","1","1,0.7,0.7,0.7,1,0.7,0.7,0.7,1","1,0.7,0.7,0.7,1,0.7,0.7,0.7,1","","",""
"","html-keyboard-response","308","160850","0.0-308.0","3AZHRG4CU567VJG8H2M1RQNI58S03W","A2ZSL0EDN3H4AT","32XN26MTXZ5MP383W6LZYTLBY7P0LI","","null","<img src=""img/land4.png"" style=""width:200px; border:14px solid green;"">","null","","","","","","","","","",""
"","image-keyboard-response","309","161391","0.0-309.0","3AZHRG4CU567VJG8H2M1RQNI58S03W","A2ZSL0EDN3H4AT","32XN26MTXZ5MP383W6LZYTLBY7P0LI","","540","img/land5.png","75","540.5","2","1","2","1","1,0.7,0.7,0.7,1,0.7,0.7,0.7,1","1,0.7,0.7,0.7,1,0.7,0.7,0.7,1","","",""
"","html-keyboard-response","310","161703","0.0-310.0","3AZHRG4CU567VJG8H2M1RQNI58S03W","A2ZSL0EDN3H4AT","32XN26MTXZ5MP383W6LZYTLBY7P0LI","","null","<img src=""img/land5.png"" style=""width:200px; border:14px solid green;"">","null","","","","","","","","","",""
"","image-keyboard-response","311","162591","0.0-311.0","3AZHRG4CU567VJG8H2M1RQNI58S03W","A2ZSL0EDN3H4AT","32XN26MTXZ5MP383W6LZYTLBY7P0LI","","887.3000000002794","img/land4.png","75","887.5999999996275","2","1","1","1","1,0.7,0.7,0.7,1,0.7,0.7,0.7,1","1,0.7,0.7,0.7,1,0.7,0.7,0.7,1","","",""
"","html-keyboard-response","312","162901","0.0-312.0","3AZHRG4CU567VJG8H2M1RQNI58S03W","A2ZSL0EDN3H4AT","32XN26MTXZ5MP383W6LZYTLBY7P0LI","","null","<img src=""img/land4.png"" style=""width:200px; border:14px solid green;"">","null","","","","","","","","","",""
"","image-keyboard-response","313","163540","0.0-313.0","3AZHRG4CU567VJG8H2M1RQNI58S03W","A2ZSL0EDN3H4AT","32XN26MTXZ5MP383W6LZYTLBY7P0LI","","638.5","img/land5.png","75","638.8999999999069","2","1","2","1","1,0.7,0.7,0.7,1,0.7,0.7,0.7,1","1,0.7,0.7,0.7,1,0.7,0.7,0.7,1","","",""
"","html-keyboard-response","314","163849","0.0-314.0","3AZHRG4CU567VJG8H2M1RQNI58S03W","A2ZSL0EDN3H4AT","32XN26MTXZ5MP383W6LZYTLBY7P0LI","","null","<img src=""img/land5.png"" style=""width:200px; border:14px solid green;"">","null","","","","","","","","","",""
"","image-keyboard-response","315","164359","0.0-315.0","3AZHRG4CU567VJG8H2M1RQNI58S03W","A2ZSL0EDN3H4AT","32XN26MTXZ5MP383W6LZYTLBY7P0LI","","509.5","img/land5.png","75","510.39999999990687","2","1","2","1","1,0.7,0.7,0.7,1,0.7,0.7,0.7,1","1,0.7,0.7,0.7,1,0.7,0.7,0.7,1","","",""
"","html-keyboard-response","316","164671","0.0-316.0","3AZHRG4CU567VJG8H2M1RQNI58S03W","A2ZSL0EDN3H4AT","32XN26MTXZ5MP383W6LZYTLBY7P0LI","","null","<img src=""img/land5.png"" style=""width:200px; border:14px solid green;"">","null","","","","","","","","","",""
"","image-keyboard-response","317","165379","0.0-317.0","3AZHRG4CU567VJG8H2M1RQNI58S03W","A2ZSL0EDN3H4AT","32XN26MTXZ5MP383W6LZYTLBY7P0LI","","707.5999999996275","img/land4.png","76","708.3999999999069","3","1","1","1","1,0.7,0.7,0.7,1,0.7,0.7,0.7,1","1,0.7,0.7,0.7,1,0.7,0.7,0.7,1","","",""
"","html-keyboard-response","318","165687","0.0-318.0","3AZHRG4CU567VJG8H2M1RQNI58S03W","A2ZSL0EDN3H4AT","32XN26MTXZ5MP383W6LZYTLBY7P0LI","","null","<img src=""img/land4.png"" style=""width:200px; border:14px solid green;"">","null","","","","","","","","","",""
"","image-keyboard-response","319","166259","0.0-319.0","3AZHRG4CU567VJG8H2M1RQNI58S03W","A2ZSL0EDN3H4AT","32XN26MTXZ5MP383W6LZYTLBY7P0LI","","571.1999999997206","img/land4.png","76","571.5","3","0","1","1","1,0.7,0.7,0.7,1,0.7,0.7,0.7,1","1,0.7,0.7,0.7,1,0.7,0.7,0.7,1","","",""
"","html-keyboard-response","320","166565","0.0-320.0","3AZHRG4CU567VJG8H2M1RQNI58S03W","A2ZSL0EDN3H4AT","32XN26MTXZ5MP383W6LZYTLBY7P0LI","","null","<img src=""img/land4.png"" style=""width:200px;border:14px solid red;"">","null","","","","","","","","","",""
"","image-keyboard-response","321","167101","0.0-321.0","3AZHRG4CU567VJG8H2M1RQNI58S03W","A2ZSL0EDN3H4AT","32XN26MTXZ5MP383W6LZYTLBY7P0LI","","536.2999999998137","img/land6.png","75","536.8000000002794","2","0","3","1","1,0.7,0.7,0.7,1,0.7,0.7,0.7,1","1,0.7,0.7,0.7,1,0.7,0.7,0.7,1","","",""
"","html-keyboard-response","322","167406","0.0-322.0","3AZHRG4CU567VJG8H2M1RQNI58S03W","A2ZSL0EDN3H4AT","32XN26MTXZ5MP383W6LZYTLBY7P0LI","","null","<img src=""img/land6.png"" style=""width:200px;border:14px solid red;"">","null","","","","","","","","","",""
"","image-keyboard-response","323","167747","0.0-323.0","3AZHRG4CU567VJG8H2M1RQNI58S03W","A2ZSL0EDN3H4AT","32XN26MTXZ5MP383W6LZYTLBY7P0LI","","339.90000000037253","img/land4.png","74","340.5","1","1","1","1","1,0.7,0.7,0.7,1,0.7,0.7,0.7,1","1,0.7,0.7,0.7,1,0.7,0.7,0.7,1","","",""
"","html-keyboard-response","324","168055","0.0-324.0","3AZHRG4CU567VJG8H2M1RQNI58S03W","A2ZSL0EDN3H4AT","32XN26MTXZ5MP383W6LZYTLBY7P0LI","","null","<img src=""img/land4.png"" style=""width:200px; border:14px solid green;"">","null","","","","","","","","","",""
"","image-keyboard-response","325","168948","0.0-325.0","3AZHRG4CU567VJG8H2M1RQNI58S03W","A2ZSL0EDN3H4AT","32XN26MTXZ5MP383W6LZYTLBY7P0LI","","891.3999999999069","img/land5.png","75","892.2000000001863","2","1","2","1","1,0.7,0.7,0.7,1,0.7,0.7,0.7,1","1,0.7,0.7,0.7,1,0.7,0.7,0.7,1","","",""
"","html-keyboard-response","326","169253","0.0-326.0","3AZHRG4CU567VJG8H2M1RQNI58S03W","A2ZSL0EDN3H4AT","32XN26MTXZ5MP383W6LZYTLBY7P0LI","","null","<img src=""img/land5.png"" style=""width:200px; border:14px solid green;"">","null","","","","","","","","","",""
"","image-keyboard-response","327","170013","0.0-327.0","3AZHRG4CU567VJG8H2M1RQNI58S03W","A2ZSL0EDN3H4AT","32XN26MTXZ5MP383W6LZYTLBY7P0LI","","758.8999999999069","img/land6.png","74","759.3999999999069","1","1","3","1","1,0.7,0.7,0.7,1,0.7,0.7,0.7,1","1,0.7,0.7,0.7,1,0.7,0.7,0.7,1","","",""
"","html-keyboard-response","328","170315","0.0-328.0","3AZHRG4CU567VJG8H2M1RQNI58S03W","A2ZSL0EDN3H4AT","32XN26MTXZ5MP383W6LZYTLBY7P0LI","","null","<img src=""img/land6.png"" style=""width:200px; border:14px solid green;"">","null","","","","","","","","","",""
"","image-keyboard-response","329","170898","0.0-329.0","3AZHRG4CU567VJG8H2M1RQNI58S03W","A2ZSL0EDN3H4AT","32XN26MTXZ5MP383W6LZYTLBY7P0LI","","583","img/land4.png","75","583.5","2","1","1","1","1,0.7,0.7,0.7,1,0.7,0.7,0.7,1","1,0.7,0.7,0.7,1,0.7,0.7,0.7,1","","",""
"","html-keyboard-response","330","171207","0.0-330.0","3AZHRG4CU567VJG8H2M1RQNI58S03W","A2ZSL0EDN3H4AT","32XN26MTXZ5MP383W6LZYTLBY7P0LI","","null","<img src=""img/land4.png"" style=""width:200px; border:14px solid green;"">","null","","","","","","","","","",""
"","image-keyboard-response","331","171662","0.0-331.0","3AZHRG4CU567VJG8H2M1RQNI58S03W","A2ZSL0EDN3H4AT","32XN26MTXZ5MP383W6LZYTLBY7P0LI","","454.29999999981374","img/land4.png","74","454.70000000018626","1","1","1","1","1,0.7,0.7,0.7,1,0.7,0.7,0.7,1","1,0.7,0.7,0.7,1,0.7,0.7,0.7,1","","",""
"","html-keyboard-response","332","171967","0.0-332.0","3AZHRG4CU567VJG8H2M1RQNI58S03W","A2ZSL0EDN3H4AT","32XN26MTXZ5MP383W6LZYTLBY7P0LI","","null","<img src=""img/land4.png"" style=""width:200px; border:14px solid green;"">","null","","","","","","","","","",""
"","image-keyboard-response","333","172337","0.0-333.0","3AZHRG4CU567VJG8H2M1RQNI58S03W","A2ZSL0EDN3H4AT","32XN26MTXZ5MP383W6LZYTLBY7P0LI","","369.89999999990687","img/land4.png","75","370.29999999981374","2","1","1","1","1,0.7,0.7,0.7,1,0.7,0.7,0.7,1","1,0.7,0.7,0.7,1,0.7,0.7,0.7,1","","",""
"","html-keyboard-response","334","172639","0.0-334.0","3AZHRG4CU567VJG8H2M1RQNI58S03W","A2ZSL0EDN3H4AT","32XN26MTXZ5MP383W6LZYTLBY7P0LI","","null","<img src=""img/land4.png"" style=""width:200px; border:14px solid green;"">","null","","","","","","","","","",""
"","image-keyboard-response","335","173325","0.0-335.0","3AZHRG4CU567VJG8H2M1RQNI58S03W","A2ZSL0EDN3H4AT","32XN26MTXZ5MP383W6LZYTLBY7P0LI","","685","img/land6.png","74","686","1","1","3","1","1,0.7,0.7,0.7,1,0.7,0.7,0.7,1","1,0.7,0.7,0.7,1,0.7,0.7,0.7,1","","",""
"","html-keyboard-response","336","173634","0.0-336.0","3AZHRG4CU567VJG8H2M1RQNI58S03W","A2ZSL0EDN3H4AT","32XN26MTXZ5MP383W6LZYTLBY7P0LI","","null","<img src=""img/land6.png"" style=""width:200px; border:14px solid green;"">","null","","","","","","","","","",""
"","image-keyboard-response","337","174080","0.0-337.0","3AZHRG4CU567VJG8H2M1RQNI58S03W","A2ZSL0EDN3H4AT","32XN26MTXZ5MP383W6LZYTLBY7P0LI","","444.60000000009313","img/land6.png","74","445.39999999990687","1","0","3","1","1,0.7,0.7,0.7,1,0.7,0.7,0.7,1","1,0.7,0.7,0.7,1,0.7,0.7,0.7,1","","",""
"","html-keyboard-response","338","174391","0.0-338.0","3AZHRG4CU567VJG8H2M1RQNI58S03W","A2ZSL0EDN3H4AT","32XN26MTXZ5MP383W6LZYTLBY7P0LI","","null","<img src=""img/land6.png"" style=""width:200px;border:14px solid red;"">","null","","","","","","","","","",""
"","instructions","339","177213","0.0-339.0","3AZHRG4CU567VJG8H2M1RQNI58S03W","A2ZSL0EDN3H4AT","32XN26MTXZ5MP383W6LZYTLBY7P0LI","[{""page_index"":0,""viewing_time"":2821.5}]","2821.8000000002794","","","","","","","","","","","",""
"","survey-text","340","180901","0.0-340.0-0.0","3AZHRG4CU567VJG8H2M1RQNI58S03W","A2ZSL0EDN3H4AT","32XN26MTXZ5MP383W6LZYTLBY7P0LI","","3686","","","","","","","","","","","{""Q0"":""40""}",""
"","survey-multi-choice","341","183195","0.0-340.0-1.0","3AZHRG4CU567VJG8H2M1RQNI58S03W","A2ZSL0EDN3H4AT","32XN26MTXZ5MP383W6LZYTLBY7P0LI","","2293.5","","","","","","","","","","","{""gender"":""F""}","[0]"
"","survey-text","342","189565","0.0-341.0","3AZHRG4CU567VJG8H2M1RQNI58S03W","A2ZSL0EDN3H4AT","32XN26MTXZ5MP383W6LZYTLBY7P0LI","","6369.100000000093","","","","","","","","","","","{""Q0"":""A2ZSL0EDN3H4AT""}",""
