"success","trial_type","trial_index","time_elapsed","internal_node_id","assignmentID","mturkID","hitID","view_history","rt","stimulus","key_press","reactionTime","a","r","s","cond","reward_cond","reward_cond_actual","reward_matrix_idx","responses","question_order"
"true","fullscreen","0","2088","0.0-0.0","3X66WABAJX446NRTV4B4CIAYDN43GM","A30RAYNDOWQ61S","3UUIU9GZC5R93N292LT21FRJ9VS5TN","","","","","","","","","","","","","",""
"","instructions","1","23459","0.0-1.0","3X66WABAJX446NRTV4B4CIAYDN43GM","A30RAYNDOWQ61S","3UUIU9GZC5R93N292LT21FRJ9VS5TN","[{""page_index"":0,""viewing_time"":6780.699999988079},{""page_index"":1,""viewing_time"":3037},{""page_index"":2,""viewing_time"":1642.800000011921},{""page_index"":3,""viewing_time"":2803.099999964237},{""page_index"":4,""viewing_time"":1801},{""page_index"":5,""viewing_time"":3915.900000035763},{""page_index"":6,""viewing_time"":1388.8999999761581}]","21369.599999964237","","","","","","","","","","","",""
"","image-keyboard-response","2","24503","0.0-2.0","3X66WABAJX446NRTV4B4CIAYDN43GM","A30RAYNDOWQ61S","3UUIU9GZC5R93N292LT21FRJ9VS5TN","","1044","img/land3.png","74","1044.699999988079","1","1","2","2","0.8,0.2,0.2,0.2,0.8,0.2,0.2,0.2,0.8","0.8,0.2,0.2,0.2,0.8,0.2,0.2,0.2,0.8","1","",""
"","html-keyboard-response","3","24809","0.0-3.0","3X66WABAJX446NRTV4B4CIAYDN43GM","A30RAYNDOWQ61S","3UUIU9GZC5R93N292LT21FRJ9VS5TN","","null","<img src=""img/land3.png"" style=""width:200px; border:14px solid green;"">","null","","","","","","","","","",""
"","image-keyboard-response","4","25840","0.0-4.0","3X66WABAJX446NRTV4B4CIAYDN43GM","A30RAYNDOWQ61S","3UUIU9GZC5R93N292LT21FRJ9VS5TN","","1030","img/land1.png","75","1030.5","2","0","1","2","0.8,0.2,0.2,0.2,0.8,0.2,0.2,0.2,0.8","0.8,0.2,0.2,0.2,0.8,0.2,0.2,0.2,0.8","1","",""
"","html-keyboard-response","5","26152","0.0-5.0","3X66WABAJX446NRTV4B4CIAYDN43GM","A30RAYNDOWQ61S","3UUIU9GZC5R93N292LT21FRJ9VS5TN","","null","<img src=""img/land1.png"" style=""width:200px;border:14px solid red;"">","null","","","","","","","","","",""
"","image-keyboard-response","6","27112","0.0-6.0","3X66WABAJX446NRTV4B4CIAYDN43GM","A30RAYNDOWQ61S","3UUIU9GZC5R93N292LT21FRJ9VS5TN","","959","img/land1.png","75","959.5","2","0","1","2","0.8,0.2,0.2,0.2,0.8,0.2,0.2,0.2,0.8","0.8,0.2,0.2,0.2,0.8,0.2,0.2,0.2,0.8","1","",""
"","html-keyboard-response","7","27419","0.0-7.0","3X66WABAJX446NRTV4B4CIAYDN43GM","A30RAYNDOWQ61S","3UUIU9GZC5R93N292LT21FRJ9VS5TN","","null","<img src=""img/land1.png"" style=""width:200px;border:14px solid red;"">","null","","","","","","","","","",""
"","image-keyboard-response","8","28336","0.0-8.0","3X66WABAJX446NRTV4B4CIAYDN43GM","A30RAYNDOWQ61S","3UUIU9GZC5R93N292LT21FRJ9VS5TN","","916.4000000357628","img/land3.png","74","916.8000000119209","1","0","2","2","0.8,0.2,0.2,0.2,0.8,0.2,0.2,0.2,0.8","0.8,0.2,0.2,0.2,0.8,0.2,0.2,0.2,0.8","1","",""
"","html-keyboard-response","9","28641","0.0-9.0","3X66WABAJX446NRTV4B4CIAYDN43GM","A30RAYNDOWQ61S","3UUIU9GZC5R93N292LT21FRJ9VS5TN","","null","<img src=""img/land3.png"" style=""width:200px;border:14px solid red;"">","null","","","","","","","","","",""
"","image-keyboard-response","10","29608","0.0-10.0","3X66WABAJX446NRTV4B4CIAYDN43GM","A30RAYNDOWQ61S","3UUIU9GZC5R93N292LT21FRJ9VS5TN","","965.6999999880791","img/land1.png","76","966.3000000119209","3","0","1","2","0.8,0.2,0.2,0.2,0.8,0.2,0.2,0.2,0.8","0.8,0.2,0.2,0.2,0.8,0.2,0.2,0.2,0.8","1","",""
"","html-keyboard-response","11","29909","0.0-11.0","3X66WABAJX446NRTV4B4CIAYDN43GM","A30RAYNDOWQ61S","3UUIU9GZC5R93N292LT21FRJ9VS5TN","","null","<img src=""img/land1.png"" style=""width:200px;border:14px solid red;"">","null","","","","","","","","","",""
"","image-keyboard-response","12","30416","0.0-12.0","3X66WABAJX446NRTV4B4CIAYDN43GM","A30RAYNDOWQ61S","3UUIU9GZC5R93N292LT21FRJ9VS5TN","","506.0999999642372","img/land1.png","76","506.5999999642372","3","1","1","2","0.8,0.2,0.2,0.2,0.8,0.2,0.2,0.2,0.8","0.8,0.2,0.2,0.2,0.8,0.2,0.2,0.2,0.8","1","",""
"","html-keyboard-response","13","30717","0.0-13.0","3X66WABAJX446NRTV4B4CIAYDN43GM","A30RAYNDOWQ61S","3UUIU9GZC5R93N292LT21FRJ9VS5TN","","null","<img src=""img/land1.png"" style=""width:200px; border:14px solid green;"">","null","","","","","","","","","",""
"","image-keyboard-response","14","31848","0.0-14.0","3X66WABAJX446NRTV4B4CIAYDN43GM","A30RAYNDOWQ61S","3UUIU9GZC5R93N292LT21FRJ9VS5TN","","1130","img/land1.png","76","1130.4000000357628","3","0","1","2","0.8,0.2,0.2,0.2,0.8,0.2,0.2,0.2,0.8","0.8,0.2,0.2,0.2,0.8,0.2,0.2,0.2,0.8","1","",""
"","html-keyboard-response","15","32149","0.0-15.0","3X66WABAJX446NRTV4B4CIAYDN43GM","A30RAYNDOWQ61S","3UUIU9GZC5R93N292LT21FRJ9VS5TN","","null","<img src=""img/land1.png"" style=""width:200px;border:14px solid red;"">","null","","","","","","","","","",""
"","image-keyboard-response","16","32928","0.0-16.0","3X66WABAJX446NRTV4B4CIAYDN43GM","A30RAYNDOWQ61S","3UUIU9GZC5R93N292LT21FRJ9VS5TN","","777.8999999761581","img/land1.png","76","778.1999999880791","3","1","1","2","0.8,0.2,0.2,0.2,0.8,0.2,0.2,0.2,0.8","0.8,0.2,0.2,0.2,0.8,0.2,0.2,0.2,0.8","1","",""
"","html-keyboard-response","17","33229","0.0-17.0","3X66WABAJX446NRTV4B4CIAYDN43GM","A30RAYNDOWQ61S","3UUIU9GZC5R93N292LT21FRJ9VS5TN","","null","<img src=""img/land1.png"" style=""width:200px; border:14px solid green;"">","null","","","","","","","","","",""
"","image-keyboard-response","18","34287","0.0-18.0","3X66WABAJX446NRTV4B4CIAYDN43GM","A30RAYNDOWQ61S","3UUIU9GZC5R93N292LT21FRJ9VS5TN","","1057.8999999761581","img/land6.png","74","1058.300000011921","1","0","3","2","0.8,0.2,0.2,0.2,0.8,0.2,0.2,0.2,0.8","0.8,0.2,0.2,0.2,0.8,0.2,0.2,0.2,0.8","1","",""
"","html-keyboard-response","19","34589","0.0-19.0","3X66WABAJX446NRTV4B4CIAYDN43GM","A30RAYNDOWQ61S","3UUIU9GZC5R93N292LT21FRJ9VS5TN","","null","<img src=""img/land6.png"" style=""width:200px;border:14px solid red;"">","null","","","","","","","","","",""
"","image-keyboard-response","20","35168","0.0-20.0","3X66WABAJX446NRTV4B4CIAYDN43GM","A30RAYNDOWQ61S","3UUIU9GZC5R93N292LT21FRJ9VS5TN","","578.6000000238419","img/land6.png","74","579.1999999880791","1","0","3","2","0.8,0.2,0.2,0.2,0.8,0.2,0.2,0.2,0.8","0.8,0.2,0.2,0.2,0.8,0.2,0.2,0.2,0.8","1","",""
"","html-keyboard-response","21","35469","0.0-21.0","3X66WABAJX446NRTV4B4CIAYDN43GM","A30RAYNDOWQ61S","3UUIU9GZC5R93N292LT21FRJ9VS5TN","","null","<img src=""img/land6.png"" style=""width:200px;border:14px solid red;"">","null","","","","","","","","","",""
"","image-keyboard-response","22","36512","0.0-22.0","3X66WABAJX446NRTV4B4CIAYDN43GM","A30RAYNDOWQ61S","3UUIU9GZC5R93N292LT21FRJ9VS5TN","","1042.199999988079","img/land3.png","74","1042.5","1","1","2","2","0.8,0.2,0.2,0.2,0.8,0.2,0.2,0.2,0.8","0.8,0.2,0.2,0.2,0.8,0.2,0.2,0.2,0.8","1","",""
"","html-keyboard-response","23","36814","0.0-23.0","3X66WABAJX446NRTV4B4CIAYDN43GM","A30RAYNDOWQ61S","3UUIU9GZC5R93N292LT21FRJ9VS5TN","","null","<img src=""img/land3.png"" style=""width:200px; border:14px solid green;"">","null","","","","","","","","","",""
"","image-keyboard-response","24","37632","0.0-24.0","3X66WABAJX446NRTV4B4CIAYDN43GM","A30RAYNDOWQ61S","3UUIU9GZC5R93N292LT21FRJ9VS5TN","","817.3000000119209","img/land3.png","74","817.6000000238419","1","0","2","2","0.8,0.2,0.2,0.2,0.8,0.2,0.2,0.2,0.8","0.8,0.2,0.2,0.2,0.8,0.2,0.2,0.2,0.8","1","",""
"","html-keyboard-response","25","37933","0.0-25.0","3X66WABAJX446NRTV4B4CIAYDN43GM","A30RAYNDOWQ61S","3UUIU9GZC5R93N292LT21FRJ9VS5TN","","null","<img src=""img/land3.png"" style=""width:200px;border:14px solid red;"">","null","","","","","","","","","",""
"","image-keyboard-response","26","39063","0.0-26.0","3X66WABAJX446NRTV4B4CIAYDN43GM","A30RAYNDOWQ61S","3UUIU9GZC5R93N292LT21FRJ9VS5TN","","1129.300000011921","img/land1.png","76","1129.800000011921","3","0","1","2","0.8,0.2,0.2,0.2,0.8,0.2,0.2,0.2,0.8","0.8,0.2,0.2,0.2,0.8,0.2,0.2,0.2,0.8","1","",""
"","html-keyboard-response","27","39364","0.0-27.0","3X66WABAJX446NRTV4B4CIAYDN43GM","A30RAYNDOWQ61S","3UUIU9GZC5R93N292LT21FRJ9VS5TN","","null","<img src=""img/land1.png"" style=""width:200px;border:14px solid red;"">","null","","","","","","","","","",""
"","image-keyboard-response","28","40103","0.0-28.0","3X66WABAJX446NRTV4B4CIAYDN43GM","A30RAYNDOWQ61S","3UUIU9GZC5R93N292LT21FRJ9VS5TN","","738.6000000238419","img/land3.png","74","739.0999999642372","1","1","2","2","0.8,0.2,0.2,0.2,0.8,0.2,0.2,0.2,0.8","0.8,0.2,0.2,0.2,0.8,0.2,0.2,0.2,0.8","1","",""
"","html-keyboard-response","29","40404","0.0-29.0","3X66WABAJX446NRTV4B4CIAYDN43GM","A30RAYNDOWQ61S","3UUIU9GZC5R93N292LT21FRJ9VS5TN","","null","<img src=""img/land3.png"" style=""width:200px; border:14px solid green;"">","null","","","","","","","","","",""
"","image-keyboard-response","30","40887","0.0-30.0","3X66WABAJX446NRTV4B4CIAYDN43GM","A30RAYNDOWQ61S","3UUIU9GZC5R93N292LT21FRJ9VS5TN","","481.89999997615814","img/land3.png","74","482.69999998807907","1","1","2","2","0.8,0.2,0.2,0.2,0.8,0.2,0.2,0.2,0.8","0.8,0.2,0.2,0.2,0.8,0.2,0.2,0.2,0.8","1","",""
"","html-keyboard-response","31","41189","0.0-31.0","3X66WABAJX446NRTV4B4CIAYDN43GM","A30RAYNDOWQ61S","3UUIU9GZC5R93N292LT21FRJ9VS5TN","","null","<img src=""img/land3.png"" style=""width:200px; border:14px solid green;"">","null","","","","","","","","","",""
"","image-keyboard-response","32","41807","0.0-32.0","3X66WABAJX446NRTV4B4CIAYDN43GM","A30RAYNDOWQ61S","3UUIU9GZC5R93N292LT21FRJ9VS5TN","","617.8000000119209","img/land1.png","76","618.1999999880791","3","0","1","2","0.8,0.2,0.2,0.2,0.8,0.2,0.2,0.2,0.8","0.8,0.2,0.2,0.2,0.8,0.2,0.2,0.2,0.8","1","",""
"","html-keyboard-response","33","42108","0.0-33.0","3X66WABAJX446NRTV4B4CIAYDN43GM","A30RAYNDOWQ61S","3UUIU9GZC5R93N292LT21FRJ9VS5TN","","null","<img src=""img/land1.png"" style=""width:200px;border:14px solid red;"">","null","","","","","","","","","",""
"","image-keyboard-response","34","42479","0.0-34.0","3X66WABAJX446NRTV4B4CIAYDN43GM","A30RAYNDOWQ61S","3UUIU9GZC5R93N292LT21FRJ9VS5TN","","370.5","img/land1.png","76","370.9000000357628","3","1","1","2","0.8,0.2,0.2,0.2,0.8,0.2,0.2,0.2,0.8","0.8,0.2,0.2,0.2,0.8,0.2,0.2,0.2,0.8","1","",""
"","html-keyboard-response","35","42780","0.0-35.0","3X66WABAJX446NRTV4B4CIAYDN43GM","A30RAYNDOWQ61S","3UUIU9GZC5R93N292LT21FRJ9VS5TN","","null","<img src=""img/land1.png"" style=""width:200px; border:14px solid green;"">","null","","","","","","","","","",""
"","image-keyboard-response","36","43360","0.0-36.0","3X66WABAJX446NRTV4B4CIAYDN43GM","A30RAYNDOWQ61S","3UUIU9GZC5R93N292LT21FRJ9VS5TN","","578.8000000119209","img/land1.png","76","579.1000000238419","3","1","1","2","0.8,0.2,0.2,0.2,0.8,0.2,0.2,0.2,0.8","0.8,0.2,0.2,0.2,0.8,0.2,0.2,0.2,0.8","1","",""
"","html-keyboard-response","37","43661","0.0-37.0","3X66WABAJX446NRTV4B4CIAYDN43GM","A30RAYNDOWQ61S","3UUIU9GZC5R93N292LT21FRJ9VS5TN","","null","<img src=""img/land1.png"" style=""width:200px; border:14px solid green;"">","null","","","","","","","","","",""
"","image-keyboard-response","38","44519","0.0-38.0","3X66WABAJX446NRTV4B4CIAYDN43GM","A30RAYNDOWQ61S","3UUIU9GZC5R93N292LT21FRJ9VS5TN","","857.6999999880791","img/land6.png","75","858.1999999880791","2","0","3","2","0.8,0.2,0.2,0.2,0.8,0.2,0.2,0.2,0.8","0.8,0.2,0.2,0.2,0.8,0.2,0.2,0.2,0.8","1","",""
"","html-keyboard-response","39","44820","0.0-39.0","3X66WABAJX446NRTV4B4CIAYDN43GM","A30RAYNDOWQ61S","3UUIU9GZC5R93N292LT21FRJ9VS5TN","","null","<img src=""img/land6.png"" style=""width:200px;border:14px solid red;"">","null","","","","","","","","","",""
"","image-keyboard-response","40","45144","0.0-40.0","3X66WABAJX446NRTV4B4CIAYDN43GM","A30RAYNDOWQ61S","3UUIU9GZC5R93N292LT21FRJ9VS5TN","","323.4000000357628","img/land6.png","75","323.89999997615814","2","0","3","2","0.8,0.2,0.2,0.2,0.8,0.2,0.2,0.2,0.8","0.8,0.2,0.2,0.2,0.8,0.2,0.2,0.2,0.8","1","",""
"","html-keyboard-response","41","45446","0.0-41.0","3X66WABAJX446NRTV4B4CIAYDN43GM","A30RAYNDOWQ61S","3UUIU9GZC5R93N292LT21FRJ9VS5TN","","null","<img src=""img/land6.png"" style=""width:200px;border:14px solid red;"">","null","","","","","","","","","",""
"","image-keyboard-response","42","46224","0.0-42.0","3X66WABAJX446NRTV4B4CIAYDN43GM","A30RAYNDOWQ61S","3UUIU9GZC5R93N292LT21FRJ9VS5TN","","777.1999999880791","img/land3.png","74","777.8000000119209","1","0","2","2","0.8,0.2,0.2,0.2,0.8,0.2,0.2,0.2,0.8","0.8,0.2,0.2,0.2,0.8,0.2,0.2,0.2,0.8","1","",""
"","html-keyboard-response","43","46525","0.0-43.0","3X66WABAJX446NRTV4B4CIAYDN43GM","A30RAYNDOWQ61S","3UUIU9GZC5R93N292LT21FRJ9VS5TN","","null","<img src=""img/land3.png"" style=""width:200px;border:14px solid red;"">","null","","","","","","","","","",""
"","image-keyboard-response","44","46911","0.0-44.0","3X66WABAJX446NRTV4B4CIAYDN43GM","A30RAYNDOWQ61S","3UUIU9GZC5R93N292LT21FRJ9VS5TN","","385.69999998807907","img/land3.png","74","386.0999999642372","1","0","2","2","0.8,0.2,0.2,0.2,0.8,0.2,0.2,0.2,0.8","0.8,0.2,0.2,0.2,0.8,0.2,0.2,0.2,0.8","1","",""
"","html-keyboard-response","45","47213","0.0-45.0","3X66WABAJX446NRTV4B4CIAYDN43GM","A30RAYNDOWQ61S","3UUIU9GZC5R93N292LT21FRJ9VS5TN","","null","<img src=""img/land3.png"" style=""width:200px;border:14px solid red;"">","null","","","","","","","","","",""
"","image-keyboard-response","46","47623","0.0-46.0","3X66WABAJX446NRTV4B4CIAYDN43GM","A30RAYNDOWQ61S","3UUIU9GZC5R93N292LT21FRJ9VS5TN","","410.10000002384186","img/land3.png","74","410.4000000357628","1","0","2","2","0.8,0.2,0.2,0.2,0.8,0.2,0.2,0.2,0.8","0.8,0.2,0.2,0.2,0.8,0.2,0.2,0.2,0.8","1","",""
"","html-keyboard-response","47","47924","0.0-47.0","3X66WABAJX446NRTV4B4CIAYDN43GM","A30RAYNDOWQ61S","3UUIU9GZC5R93N292LT21FRJ9VS5TN","","null","<img src=""img/land3.png"" style=""width:200px;border:14px solid red;"">","null","","","","","","","","","",""
"","image-keyboard-response","48","48775","0.0-48.0","3X66WABAJX446NRTV4B4CIAYDN43GM","A30RAYNDOWQ61S","3UUIU9GZC5R93N292LT21FRJ9VS5TN","","850.6999999880791","img/land1.png","76","851.1999999880791","3","1","1","2","0.8,0.2,0.2,0.2,0.8,0.2,0.2,0.2,0.8","0.8,0.2,0.2,0.2,0.8,0.2,0.2,0.2,0.8","1","",""
"","html-keyboard-response","49","49076","0.0-49.0","3X66WABAJX446NRTV4B4CIAYDN43GM","A30RAYNDOWQ61S","3UUIU9GZC5R93N292LT21FRJ9VS5TN","","null","<img src=""img/land1.png"" style=""width:200px; border:14px solid green;"">","null","","","","","","","","","",""
"","image-keyboard-response","50","50335","0.0-50.0","3X66WABAJX446NRTV4B4CIAYDN43GM","A30RAYNDOWQ61S","3UUIU9GZC5R93N292LT21FRJ9VS5TN","","1258.199999988079","img/land6.png","74","1258.7000000476837","1","1","3","2","0.8,0.2,0.2,0.2,0.8,0.2,0.2,0.2,0.8","0.8,0.2,0.2,0.2,0.8,0.2,0.2,0.2,0.8","1","",""
"","html-keyboard-response","51","50636","0.0-51.0","3X66WABAJX446NRTV4B4CIAYDN43GM","A30RAYNDOWQ61S","3UUIU9GZC5R93N292LT21FRJ9VS5TN","","null","<img src=""img/land6.png"" style=""width:200px; border:14px solid green;"">","null","","","","","","","","","",""
"","image-keyboard-response","52","51423","0.0-52.0","3X66WABAJX446NRTV4B4CIAYDN43GM","A30RAYNDOWQ61S","3UUIU9GZC5R93N292LT21FRJ9VS5TN","","786.6999999880791","img/land1.png","76","787.0999999642372","3","1","1","2","0.8,0.2,0.2,0.2,0.8,0.2,0.2,0.2,0.8","0.8,0.2,0.2,0.2,0.8,0.2,0.2,0.2,0.8","1","",""
"","html-keyboard-response","53","51724","0.0-53.0","3X66WABAJX446NRTV4B4CIAYDN43GM","A30RAYNDOWQ61S","3UUIU9GZC5R93N292LT21FRJ9VS5TN","","null","<img src=""img/land1.png"" style=""width:200px; border:14px solid green;"">","null","","","","","","","","","",""
"","image-keyboard-response","54","52375","0.0-54.0","3X66WABAJX446NRTV4B4CIAYDN43GM","A30RAYNDOWQ61S","3UUIU9GZC5R93N292LT21FRJ9VS5TN","","650.4000000357628","img/land6.png","74","650.8000000119209","1","0","3","2","0.8,0.2,0.2,0.2,0.8,0.2,0.2,0.2,0.8","0.8,0.2,0.2,0.2,0.8,0.2,0.2,0.2,0.8","1","",""
"","html-keyboard-response","55","52677","0.0-55.0","3X66WABAJX446NRTV4B4CIAYDN43GM","A30RAYNDOWQ61S","3UUIU9GZC5R93N292LT21FRJ9VS5TN","","null","<img src=""img/land6.png"" style=""width:200px;border:14px solid red;"">","null","","","","","","","","","",""
"","image-keyboard-response","56","52928","0.0-56.0","3X66WABAJX446NRTV4B4CIAYDN43GM","A30RAYNDOWQ61S","3UUIU9GZC5R93N292LT21FRJ9VS5TN","","250.80000001192093","img/land1.png","74","251.30000001192093","1","1","1","2","0.8,0.2,0.2,0.2,0.8,0.2,0.2,0.2,0.8","0.8,0.2,0.2,0.2,0.8,0.2,0.2,0.2,0.8","1","",""
"","html-keyboard-response","57","53229","0.0-57.0","3X66WABAJX446NRTV4B4CIAYDN43GM","A30RAYNDOWQ61S","3UUIU9GZC5R93N292LT21FRJ9VS5TN","","null","<img src=""img/land1.png"" style=""width:200px; border:14px solid green;"">","null","","","","","","","","","",""
"","image-keyboard-response","58","53415","0.0-58.0","3X66WABAJX446NRTV4B4CIAYDN43GM","A30RAYNDOWQ61S","3UUIU9GZC5R93N292LT21FRJ9VS5TN","","185.69999998807907","img/land1.png","76","186.19999998807907","3","0","1","2","0.8,0.2,0.2,0.2,0.8,0.2,0.2,0.2,0.8","0.8,0.2,0.2,0.2,0.8,0.2,0.2,0.2,0.8","1","",""
"","html-keyboard-response","59","53718","0.0-59.0","3X66WABAJX446NRTV4B4CIAYDN43GM","A30RAYNDOWQ61S","3UUIU9GZC5R93N292LT21FRJ9VS5TN","","null","<img src=""img/land1.png"" style=""width:200px;border:14px solid red;"">","null","","","","","","","","","",""
"","image-keyboard-response","60","54655","0.0-60.0","3X66WABAJX446NRTV4B4CIAYDN43GM","A30RAYNDOWQ61S","3UUIU9GZC5R93N292LT21FRJ9VS5TN","","937.5","img/land1.png","76","937.7999999523163","3","0","1","2","0.8,0.2,0.2,0.2,0.8,0.2,0.2,0.2,0.8","0.8,0.2,0.2,0.2,0.8,0.2,0.2,0.2,0.8","1","",""
"","html-keyboard-response","61","54957","0.0-61.0","3X66WABAJX446NRTV4B4CIAYDN43GM","A30RAYNDOWQ61S","3UUIU9GZC5R93N292LT21FRJ9VS5TN","","null","<img src=""img/land1.png"" style=""width:200px;border:14px solid red;"">","null","","","","","","","","","",""
"","image-keyboard-response","62","55735","0.0-62.0","3X66WABAJX446NRTV4B4CIAYDN43GM","A30RAYNDOWQ61S","3UUIU9GZC5R93N292LT21FRJ9VS5TN","","777.1999999880791","img/land3.png","74","777.6000000238419","1","0","2","2","0.8,0.2,0.2,0.2,0.8,0.2,0.2,0.2,0.8","0.8,0.2,0.2,0.2,0.8,0.2,0.2,0.2,0.8","1","",""
"","html-keyboard-response","63","56037","0.0-63.0","3X66WABAJX446NRTV4B4CIAYDN43GM","A30RAYNDOWQ61S","3UUIU9GZC5R93N292LT21FRJ9VS5TN","","null","<img src=""img/land3.png"" style=""width:200px;border:14px solid red;"">","null","","","","","","","","","",""
"","image-keyboard-response","64","56736","0.0-64.0","3X66WABAJX446NRTV4B4CIAYDN43GM","A30RAYNDOWQ61S","3UUIU9GZC5R93N292LT21FRJ9VS5TN","","698.1999999880791","img/land1.png","76","698.5","3","0","1","2","0.8,0.2,0.2,0.2,0.8,0.2,0.2,0.2,0.8","0.8,0.2,0.2,0.2,0.8,0.2,0.2,0.2,0.8","1","",""
"","html-keyboard-response","65","57038","0.0-65.0","3X66WABAJX446NRTV4B4CIAYDN43GM","A30RAYNDOWQ61S","3UUIU9GZC5R93N292LT21FRJ9VS5TN","","null","<img src=""img/land1.png"" style=""width:200px;border:14px solid red;"">","null","","","","","","","","","",""
"","image-keyboard-response","66","57495","0.0-66.0","3X66WABAJX446NRTV4B4CIAYDN43GM","A30RAYNDOWQ61S","3UUIU9GZC5R93N292LT21FRJ9VS5TN","","456.69999998807907","img/land1.png","76","457.19999998807907","3","0","1","2","0.8,0.2,0.2,0.2,0.8,0.2,0.2,0.2,0.8","0.8,0.2,0.2,0.2,0.8,0.2,0.2,0.2,0.8","1","",""
"","html-keyboard-response","67","57797","0.0-67.0","3X66WABAJX446NRTV4B4CIAYDN43GM","A30RAYNDOWQ61S","3UUIU9GZC5R93N292LT21FRJ9VS5TN","","null","<img src=""img/land1.png"" style=""width:200px;border:14px solid red;"">","null","","","","","","","","","",""
"","image-keyboard-response","68","58327","0.0-68.0","3X66WABAJX446NRTV4B4CIAYDN43GM","A30RAYNDOWQ61S","3UUIU9GZC5R93N292LT21FRJ9VS5TN","","529.6000000238419","img/land1.png","76","530","3","1","1","2","0.8,0.2,0.2,0.2,0.8,0.2,0.2,0.2,0.8","0.8,0.2,0.2,0.2,0.8,0.2,0.2,0.2,0.8","1","",""
"","html-keyboard-response","69","58629","0.0-69.0","3X66WABAJX446NRTV4B4CIAYDN43GM","A30RAYNDOWQ61S","3UUIU9GZC5R93N292LT21FRJ9VS5TN","","null","<img src=""img/land1.png"" style=""width:200px; border:14px solid green;"">","null","","","","","","","","","",""
"","image-keyboard-response","70","59696","0.0-70.0","3X66WABAJX446NRTV4B4CIAYDN43GM","A30RAYNDOWQ61S","3UUIU9GZC5R93N292LT21FRJ9VS5TN","","1066.699999988079","img/land6.png","74","1067.2000000476837","1","1","3","2","0.8,0.2,0.2,0.2,0.8,0.2,0.2,0.2,0.8","0.8,0.2,0.2,0.2,0.8,0.2,0.2,0.2,0.8","1","",""
"","html-keyboard-response","71","59997","0.0-71.0","3X66WABAJX446NRTV4B4CIAYDN43GM","A30RAYNDOWQ61S","3UUIU9GZC5R93N292LT21FRJ9VS5TN","","null","<img src=""img/land6.png"" style=""width:200px; border:14px solid green;"">","null","","","","","","","","","",""
"","image-keyboard-response","72","60696","0.0-72.0","3X66WABAJX446NRTV4B4CIAYDN43GM","A30RAYNDOWQ61S","3UUIU9GZC5R93N292LT21FRJ9VS5TN","","698.2000000476837","img/land1.png","76","698.6999999880791","3","1","1","2","0.8,0.2,0.2,0.2,0.8,0.2,0.2,0.2,0.8","0.8,0.2,0.2,0.2,0.8,0.2,0.2,0.2,0.8","1","",""
"","html-keyboard-response","73","60998","0.0-73.0","3X66WABAJX446NRTV4B4CIAYDN43GM","A30RAYNDOWQ61S","3UUIU9GZC5R93N292LT21FRJ9VS5TN","","null","<img src=""img/land1.png"" style=""width:200px; border:14px solid green;"">","null","","","","","","","","","",""
"","image-keyboard-response","74","61656","0.0-74.0","3X66WABAJX446NRTV4B4CIAYDN43GM","A30RAYNDOWQ61S","3UUIU9GZC5R93N292LT21FRJ9VS5TN","","657.3999999761581","img/land3.png","74","657.8999999761581","1","0","2","2","0.8,0.2,0.2,0.2,0.8,0.2,0.2,0.2,0.8","0.8,0.2,0.2,0.2,0.8,0.2,0.2,0.2,0.8","1","",""
"","html-keyboard-response","75","61957","0.0-75.0","3X66WABAJX446NRTV4B4CIAYDN43GM","A30RAYNDOWQ61S","3UUIU9GZC5R93N292LT21FRJ9VS5TN","","null","<img src=""img/land3.png"" style=""width:200px;border:14px solid red;"">","null","","","","","","","","","",""
"","image-keyboard-response","76","62816","0.0-76.0","3X66WABAJX446NRTV4B4CIAYDN43GM","A30RAYNDOWQ61S","3UUIU9GZC5R93N292LT21FRJ9VS5TN","","858.3999999761581","img/land1.png","76","858.6999999880791","3","0","1","2","0.8,0.2,0.2,0.2,0.8,0.2,0.2,0.2,0.8","0.8,0.2,0.2,0.2,0.8,0.2,0.2,0.2,0.8","1","",""
"","html-keyboard-response","77","63117","0.0-77.0","3X66WABAJX446NRTV4B4CIAYDN43GM","A30RAYNDOWQ61S","3UUIU9GZC5R93N292LT21FRJ9VS5TN","","null","<img src=""img/land1.png"" style=""width:200px;border:14px solid red;"">","null","","","","","","","","","",""
"","image-keyboard-response","78","64215","0.0-78.0","3X66WABAJX446NRTV4B4CIAYDN43GM","A30RAYNDOWQ61S","3UUIU9GZC5R93N292LT21FRJ9VS5TN","","1097.5","img/land6.png","74","1097.8999999761581","1","1","3","2","0.8,0.2,0.2,0.2,0.8,0.2,0.2,0.2,0.8","0.8,0.2,0.2,0.2,0.8,0.2,0.2,0.2,0.8","1","",""
"","html-keyboard-response","79","64517","0.0-79.0","3X66WABAJX446NRTV4B4CIAYDN43GM","A30RAYNDOWQ61S","3UUIU9GZC5R93N292LT21FRJ9VS5TN","","null","<img src=""img/land6.png"" style=""width:200px; border:14px solid green;"">","null","","","","","","","","","",""
"","image-keyboard-response","80","65160","0.0-80.0","3X66WABAJX446NRTV4B4CIAYDN43GM","A30RAYNDOWQ61S","3UUIU9GZC5R93N292LT21FRJ9VS5TN","","641.9000000357628","img/land6.png","74","642.4000000357628","1","0","3","2","0.8,0.2,0.2,0.2,0.8,0.2,0.2,0.2,0.8","0.8,0.2,0.2,0.2,0.8,0.2,0.2,0.2,0.8","1","",""
"","html-keyboard-response","81","65461","0.0-81.0","3X66WABAJX446NRTV4B4CIAYDN43GM","A30RAYNDOWQ61S","3UUIU9GZC5R93N292LT21FRJ9VS5TN","","null","<img src=""img/land6.png"" style=""width:200px;border:14px solid red;"">","null","","","","","","","","","",""
"","image-keyboard-response","82","66320","0.0-82.0","3X66WABAJX446NRTV4B4CIAYDN43GM","A30RAYNDOWQ61S","3UUIU9GZC5R93N292LT21FRJ9VS5TN","","858.3000000119209","img/land3.png","74","858.6999999880791","1","0","2","2","0.8,0.2,0.2,0.2,0.8,0.2,0.2,0.2,0.8","0.8,0.2,0.2,0.2,0.8,0.2,0.2,0.2,0.8","1","",""
"","html-keyboard-response","83","66621","0.0-83.0","3X66WABAJX446NRTV4B4CIAYDN43GM","A30RAYNDOWQ61S","3UUIU9GZC5R93N292LT21FRJ9VS5TN","","null","<img src=""img/land3.png"" style=""width:200px;border:14px solid red;"">","null","","","","","","","","","",""
"","image-keyboard-response","84","67352","0.0-84.0","3X66WABAJX446NRTV4B4CIAYDN43GM","A30RAYNDOWQ61S","3UUIU9GZC5R93N292LT21FRJ9VS5TN","","730.5","img/land1.png","76","730.9000000357628","3","0","1","2","0.8,0.2,0.2,0.2,0.8,0.2,0.2,0.2,0.8","0.8,0.2,0.2,0.2,0.8,0.2,0.2,0.2,0.8","1","",""
"","html-keyboard-response","85","67653","0.0-85.0","3X66WABAJX446NRTV4B4CIAYDN43GM","A30RAYNDOWQ61S","3UUIU9GZC5R93N292LT21FRJ9VS5TN","","null","<img src=""img/land1.png"" style=""width:200px;border:14px solid red;"">","null","","","","","","","","","",""
"","image-keyboard-response","86","68072","0.0-86.0","3X66WABAJX446NRTV4B4CIAYDN43GM","A30RAYNDOWQ61S","3UUIU9GZC5R93N292LT21FRJ9VS5TN","","417.89999997615814","img/land1.png","76","418.4000000357628","3","0","1","2","0.8,0.2,0.2,0.2,0.8,0.2,0.2,0.2,0.8","0.8,0.2,0.2,0.2,0.8,0.2,0.2,0.2,0.8","1","",""
"","html-keyboard-response","87","68373","0.0-87.0","3X66WABAJX446NRTV4B4CIAYDN43GM","A30RAYNDOWQ61S","3UUIU9GZC5R93N292LT21FRJ9VS5TN","","null","<img src=""img/land1.png"" style=""width:200px;border:14px solid red;"">","null","","","","","","","","","",""
"","image-keyboard-response","88","69144","0.0-88.0","3X66WABAJX446NRTV4B4CIAYDN43GM","A30RAYNDOWQ61S","3UUIU9GZC5R93N292LT21FRJ9VS5TN","","770.6000000238419","img/land3.png","74","771","1","1","2","2","0.8,0.2,0.2,0.2,0.8,0.2,0.2,0.2,0.8","0.8,0.2,0.2,0.2,0.8,0.2,0.2,0.2,0.8","1","",""
"","html-keyboard-response","89","69445","0.0-89.0","3X66WABAJX446NRTV4B4CIAYDN43GM","A30RAYNDOWQ61S","3UUIU9GZC5R93N292LT21FRJ9VS5TN","","null","<img src=""img/land3.png"" style=""width:200px; border:14px solid green;"">","null","","","","","","","","","",""
"","image-keyboard-response","90","70079","0.0-90.0","3X66WABAJX446NRTV4B4CIAYDN43GM","A30RAYNDOWQ61S","3UUIU9GZC5R93N292LT21FRJ9VS5TN","","633.0999999642372","img/land1.png","76","633.6000000238419","3","0","1","2","0.8,0.2,0.2,0.2,0.8,0.2,0.2,0.2,0.8","0.8,0.2,0.2,0.2,0.8,0.2,0.2,0.2,0.8","1","",""
"","html-keyboard-response","91","70380","0.0-91.0","3X66WABAJX446NRTV4B4CIAYDN43GM","A30RAYNDOWQ61S","3UUIU9GZC5R93N292LT21FRJ9VS5TN","","null","<img src=""img/land1.png"" style=""width:200px;border:14px solid red;"">","null","","","","","","","","","",""
"","image-keyboard-response","92","70784","0.0-92.0","3X66WABAJX446NRTV4B4CIAYDN43GM","A30RAYNDOWQ61S","3UUIU9GZC5R93N292LT21FRJ9VS5TN","","402.80000001192093","img/land1.png","76","403.30000001192093","3","0","1","2","0.8,0.2,0.2,0.2,0.8,0.2,0.2,0.2,0.8","0.8,0.2,0.2,0.2,0.8,0.2,0.2,0.2,0.8","1","",""
"","html-keyboard-response","93","71086","0.0-93.0","3X66WABAJX446NRTV4B4CIAYDN43GM","A30RAYNDOWQ61S","3UUIU9GZC5R93N292LT21FRJ9VS5TN","","null","<img src=""img/land1.png"" style=""width:200px;border:14px solid red;"">","null","","","","","","","","","",""
"","image-keyboard-response","94","71728","0.0-94.0","3X66WABAJX446NRTV4B4CIAYDN43GM","A30RAYNDOWQ61S","3UUIU9GZC5R93N292LT21FRJ9VS5TN","","642.1999999880791","img/land3.png","74","642.5999999642372","1","1","2","2","0.8,0.2,0.2,0.2,0.8,0.2,0.2,0.2,0.8","0.8,0.2,0.2,0.2,0.8,0.2,0.2,0.2,0.8","1","",""
"","html-keyboard-response","95","72030","0.0-95.0","3X66WABAJX446NRTV4B4CIAYDN43GM","A30RAYNDOWQ61S","3UUIU9GZC5R93N292LT21FRJ9VS5TN","","null","<img src=""img/land3.png"" style=""width:200px; border:14px solid green;"">","null","","","","","","","","","",""
"","image-keyboard-response","96","72832","0.0-96.0","3X66WABAJX446NRTV4B4CIAYDN43GM","A30RAYNDOWQ61S","3UUIU9GZC5R93N292LT21FRJ9VS5TN","","801.8000000119209","img/land1.png","74","802.1999999880791","1","1","1","2","0.8,0.2,0.2,0.2,0.8,0.2,0.2,0.2,0.8","0.8,0.2,0.2,0.2,0.8,0.2,0.2,0.2,0.8","1","",""
"","html-keyboard-response","97","73134","0.0-97.0","3X66WABAJX446NRTV4B4CIAYDN43GM","A30RAYNDOWQ61S","3UUIU9GZC5R93N292LT21FRJ9VS5TN","","null","<img src=""img/land1.png"" style=""width:200px; border:14px solid green;"">","null","","","","","","","","","",""
"","image-keyboard-response","98","74328","0.0-98.0","3X66WABAJX446NRTV4B4CIAYDN43GM","A30RAYNDOWQ61S","3UUIU9GZC5R93N292LT21FRJ9VS5TN","","1193.699999988079","img/land3.png","74","1194.2000000476837","1","0","2","2","0.8,0.2,0.2,0.2,0.8,0.2,0.2,0.2,0.8","0.8,0.2,0.2,0.2,0.8,0.2,0.2,0.2,0.8","1","",""
"","html-keyboard-response","99","74629","0.0-99.0","3X66WABAJX446NRTV4B4CIAYDN43GM","A30RAYNDOWQ61S","3UUIU9GZC5R93N292LT21FRJ9VS5TN","","null","<img src=""img/land3.png"" style=""width:200px;border:14px solid red;"">","null","","","","","","","","","",""
"","image-keyboard-response","100","75472","0.0-100.0","3X66WABAJX446NRTV4B4CIAYDN43GM","A30RAYNDOWQ61S","3UUIU9GZC5R93N292LT21FRJ9VS5TN","","843","img/land1.png","74","843.5","1","1","1","2","0.8,0.2,0.2,0.2,0.8,0.2,0.2,0.2,0.8","0.8,0.2,0.2,0.2,0.8,0.2,0.2,0.2,0.8","1","",""
"","html-keyboard-response","101","75774","0.0-101.0","3X66WABAJX446NRTV4B4CIAYDN43GM","A30RAYNDOWQ61S","3UUIU9GZC5R93N292LT21FRJ9VS5TN","","null","<img src=""img/land1.png"" style=""width:200px; border:14px solid green;"">","null","","","","","","","","","",""
"","image-keyboard-response","102","76463","0.0-102.0","3X66WABAJX446NRTV4B4CIAYDN43GM","A30RAYNDOWQ61S","3UUIU9GZC5R93N292LT21FRJ9VS5TN","","688.7999999523163","img/land1.png","74","689.4000000357628","1","1","1","2","0.8,0.2,0.2,0.2,0.8,0.2,0.2,0.2,0.8","0.8,0.2,0.2,0.2,0.8,0.2,0.2,0.2,0.8","1","",""
"","html-keyboard-response","103","76764","0.0-103.0","3X66WABAJX446NRTV4B4CIAYDN43GM","A30RAYNDOWQ61S","3UUIU9GZC5R93N292LT21FRJ9VS5TN","","null","<img src=""img/land1.png"" style=""width:200px; border:14px solid green;"">","null","","","","","","","","","",""
"","image-keyboard-response","104","77319","0.0-104.0","3X66WABAJX446NRTV4B4CIAYDN43GM","A30RAYNDOWQ61S","3UUIU9GZC5R93N292LT21FRJ9VS5TN","","554.6999999880791","img/land1.png","74","555.0999999642372","1","1","1","2","0.8,0.2,0.2,0.2,0.8,0.2,0.2,0.2,0.8","0.8,0.2,0.2,0.2,0.8,0.2,0.2,0.2,0.8","1","",""
"","html-keyboard-response","105","77621","0.0-105.0","3X66WABAJX446NRTV4B4CIAYDN43GM","A30RAYNDOWQ61S","3UUIU9GZC5R93N292LT21FRJ9VS5TN","","null","<img src=""img/land1.png"" style=""width:200px; border:14px solid green;"">","null","","","","","","","","","",""
"","image-keyboard-response","106","78184","0.0-106.0","3X66WABAJX446NRTV4B4CIAYDN43GM","A30RAYNDOWQ61S","3UUIU9GZC5R93N292LT21FRJ9VS5TN","","562","img/land1.png","74","562.3999999761581","1","1","1","2","0.8,0.2,0.2,0.2,0.8,0.2,0.2,0.2,0.8","0.8,0.2,0.2,0.2,0.8,0.2,0.2,0.2,0.8","1","",""
"","html-keyboard-response","107","78484","0.0-107.0","3X66WABAJX446NRTV4B4CIAYDN43GM","A30RAYNDOWQ61S","3UUIU9GZC5R93N292LT21FRJ9VS5TN","","null","<img src=""img/land1.png"" style=""width:200px; border:14px solid green;"">","null","","","","","","","","","",""
"","image-keyboard-response","108","79127","0.0-108.0","3X66WABAJX446NRTV4B4CIAYDN43GM","A30RAYNDOWQ61S","3UUIU9GZC5R93N292LT21FRJ9VS5TN","","642.3999999761581","img/land1.png","74","642.9000000357628","1","1","1","2","0.8,0.2,0.2,0.2,0.8,0.2,0.2,0.2,0.8","0.8,0.2,0.2,0.2,0.8,0.2,0.2,0.2,0.8","1","",""
"","html-keyboard-response","109","79429","0.0-109.0","3X66WABAJX446NRTV4B4CIAYDN43GM","A30RAYNDOWQ61S","3UUIU9GZC5R93N292LT21FRJ9VS5TN","","null","<img src=""img/land1.png"" style=""width:200px; border:14px solid green;"">","null","","","","","","","","","",""
"","image-keyboard-response","110","79896","0.0-110.0","3X66WABAJX446NRTV4B4CIAYDN43GM","A30RAYNDOWQ61S","3UUIU9GZC5R93N292LT21FRJ9VS5TN","","466.10000002384186","img/land1.png","74","466.69999998807907","1","1","1","2","0.8,0.2,0.2,0.2,0.8,0.2,0.2,0.2,0.8","0.8,0.2,0.2,0.2,0.8,0.2,0.2,0.2,0.8","1","",""
"","html-keyboard-response","111","80197","0.0-111.0","3X66WABAJX446NRTV4B4CIAYDN43GM","A30RAYNDOWQ61S","3UUIU9GZC5R93N292LT21FRJ9VS5TN","","null","<img src=""img/land1.png"" style=""width:200px; border:14px solid green;"">","null","","","","","","","","","",""
"","image-keyboard-response","112","81192","0.0-112.0","3X66WABAJX446NRTV4B4CIAYDN43GM","A30RAYNDOWQ61S","3UUIU9GZC5R93N292LT21FRJ9VS5TN","","994.3000000119209","img/land6.png","74","994.8000000119209","1","0","3","2","0.8,0.2,0.2,0.2,0.8,0.2,0.2,0.2,0.8","0.8,0.2,0.2,0.2,0.8,0.2,0.2,0.2,0.8","1","",""
"","html-keyboard-response","113","81493","0.0-113.0","3X66WABAJX446NRTV4B4CIAYDN43GM","A30RAYNDOWQ61S","3UUIU9GZC5R93N292LT21FRJ9VS5TN","","null","<img src=""img/land6.png"" style=""width:200px;border:14px solid red;"">","null","","","","","","","","","",""
"","image-keyboard-response","114","81936","0.0-114.0","3X66WABAJX446NRTV4B4CIAYDN43GM","A30RAYNDOWQ61S","3UUIU9GZC5R93N292LT21FRJ9VS5TN","","442.30000001192093","img/land1.png","74","442.89999997615814","1","1","1","2","0.8,0.2,0.2,0.2,0.8,0.2,0.2,0.2,0.8","0.8,0.2,0.2,0.2,0.8,0.2,0.2,0.2,0.8","1","",""
"","html-keyboard-response","115","82237","0.0-115.0","3X66WABAJX446NRTV4B4CIAYDN43GM","A30RAYNDOWQ61S","3UUIU9GZC5R93N292LT21FRJ9VS5TN","","null","<img src=""img/land1.png"" style=""width:200px; border:14px solid green;"">","null","","","","","","","","","",""
"","image-keyboard-response","116","82671","0.0-116.0","3X66WABAJX446NRTV4B4CIAYDN43GM","A30RAYNDOWQ61S","3UUIU9GZC5R93N292LT21FRJ9VS5TN","","434","img/land1.png","74","434.5","1","0","1","2","0.8,0.2,0.2,0.2,0.8,0.2,0.2,0.2,0.8","0.8,0.2,0.2,0.2,0.8,0.2,0.2,0.2,0.8","1","",""
"","html-keyboard-response","117","82972","0.0-117.0","3X66WABAJX446NRTV4B4CIAYDN43GM","A30RAYNDOWQ61S","3UUIU9GZC5R93N292LT21FRJ9VS5TN","","null","<img src=""img/land1.png"" style=""width:200px;border:14px solid red;"">","null","","","","","","","","","",""
"","image-keyboard-response","118","83840","0.0-118.0","3X66WABAJX446NRTV4B4CIAYDN43GM","A30RAYNDOWQ61S","3UUIU9GZC5R93N292LT21FRJ9VS5TN","","867.2999999523163","img/land3.png","74","867.8000000119209","1","0","2","2","0.8,0.2,0.2,0.2,0.8,0.2,0.2,0.2,0.8","0.8,0.2,0.2,0.2,0.8,0.2,0.2,0.2,0.8","1","",""
"","html-keyboard-response","119","84141","0.0-119.0","3X66WABAJX446NRTV4B4CIAYDN43GM","A30RAYNDOWQ61S","3UUIU9GZC5R93N292LT21FRJ9VS5TN","","null","<img src=""img/land3.png"" style=""width:200px;border:14px solid red;"">","null","","","","","","","","","",""
"","image-keyboard-response","120","84496","0.0-120.0","3X66WABAJX446NRTV4B4CIAYDN43GM","A30RAYNDOWQ61S","3UUIU9GZC5R93N292LT21FRJ9VS5TN","","354.4000000357628","img/land1.png","74","354.89999997615814","1","1","1","2","0.8,0.2,0.2,0.2,0.8,0.2,0.2,0.2,0.8","0.8,0.2,0.2,0.2,0.8,0.2,0.2,0.2,0.8","1","",""
"","html-keyboard-response","121","84797","0.0-121.0","3X66WABAJX446NRTV4B4CIAYDN43GM","A30RAYNDOWQ61S","3UUIU9GZC5R93N292LT21FRJ9VS5TN","","null","<img src=""img/land1.png"" style=""width:200px; border:14px solid green;"">","null","","","","","","","","","",""
"","image-keyboard-response","122","85457","0.0-122.0","3X66WABAJX446NRTV4B4CIAYDN43GM","A30RAYNDOWQ61S","3UUIU9GZC5R93N292LT21FRJ9VS5TN","","659.3999999761581","img/land3.png","74","660","1","0","2","2","0.8,0.2,0.2,0.2,0.8,0.2,0.2,0.2,0.8","0.8,0.2,0.2,0.2,0.8,0.2,0.2,0.2,0.8","1","",""
"","html-keyboard-response","123","85758","0.0-123.0","3X66WABAJX446NRTV4B4CIAYDN43GM","A30RAYNDOWQ61S","3UUIU9GZC5R93N292LT21FRJ9VS5TN","","null","<img src=""img/land3.png"" style=""width:200px;border:14px solid red;"">","null","","","","","","","","","",""
"","image-keyboard-response","124","86408","0.0-124.0","3X66WABAJX446NRTV4B4CIAYDN43GM","A30RAYNDOWQ61S","3UUIU9GZC5R93N292LT21FRJ9VS5TN","","649.2000000476837","img/land1.png","74","649.6999999880791","1","1","1","2","0.8,0.2,0.2,0.2,0.8,0.2,0.2,0.2,0.8","0.8,0.2,0.2,0.2,0.8,0.2,0.2,0.2,0.8","1","",""
"","html-keyboard-response","125","86709","0.0-125.0","3X66WABAJX446NRTV4B4CIAYDN43GM","A30RAYNDOWQ61S","3UUIU9GZC5R93N292LT21FRJ9VS5TN","","null","<img src=""img/land1.png"" style=""width:200px; border:14px solid green;"">","null","","","","","","","","","",""
"","image-keyboard-response","126","87135","0.0-126.0","3X66WABAJX446NRTV4B4CIAYDN43GM","A30RAYNDOWQ61S","3UUIU9GZC5R93N292LT21FRJ9VS5TN","","426.39999997615814","img/land1.png","74","426.80000001192093","1","1","1","2","0.8,0.2,0.2,0.2,0.8,0.2,0.2,0.2,0.8","0.8,0.2,0.2,0.2,0.8,0.2,0.2,0.2,0.8","1","",""
"","html-keyboard-response","127","87436","0.0-127.0","3X66WABAJX446NRTV4B4CIAYDN43GM","A30RAYNDOWQ61S","3UUIU9GZC5R93N292LT21FRJ9VS5TN","","null","<img src=""img/land1.png"" style=""width:200px; border:14px solid green;"">","null","","","","","","","","","",""
"","image-keyboard-response","128","88000","0.0-128.0","3X66WABAJX446NRTV4B4CIAYDN43GM","A30RAYNDOWQ61S","3UUIU9GZC5R93N292LT21FRJ9VS5TN","","562.5","img/land1.png","74","563","1","1","1","2","0.8,0.2,0.2,0.2,0.8,0.2,0.2,0.2,0.8","0.8,0.2,0.2,0.2,0.8,0.2,0.2,0.2,0.8","1","",""
"","html-keyboard-response","129","88301","0.0-129.0","3X66WABAJX446NRTV4B4CIAYDN43GM","A30RAYNDOWQ61S","3UUIU9GZC5R93N292LT21FRJ9VS5TN","","null","<img src=""img/land1.png"" style=""width:200px; border:14px solid green;"">","null","","","","","","","","","",""
"","image-keyboard-response","130","88736","0.0-130.0","3X66WABAJX446NRTV4B4CIAYDN43GM","A30RAYNDOWQ61S","3UUIU9GZC5R93N292LT21FRJ9VS5TN","","433.89999997615814","img/land1.png","74","434.30000001192093","1","1","1","2","0.8,0.2,0.2,0.2,0.8,0.2,0.2,0.2,0.8","0.8,0.2,0.2,0.2,0.8,0.2,0.2,0.2,0.8","1","",""
"","html-keyboard-response","131","89037","0.0-131.0","3X66WABAJX446NRTV4B4CIAYDN43GM","A30RAYNDOWQ61S","3UUIU9GZC5R93N292LT21FRJ9VS5TN","","null","<img src=""img/land1.png"" style=""width:200px; border:14px solid green;"">","null","","","","","","","","","",""
"","image-keyboard-response","132","90152","0.0-132.0","3X66WABAJX446NRTV4B4CIAYDN43GM","A30RAYNDOWQ61S","3UUIU9GZC5R93N292LT21FRJ9VS5TN","","1114.699999988079","img/land6.png","74","1115.199999988079","1","0","3","2","0.8,0.2,0.2,0.2,0.8,0.2,0.2,0.2,0.8","0.8,0.2,0.2,0.2,0.8,0.2,0.2,0.2,0.8","1","",""
"","html-keyboard-response","133","90453","0.0-133.0","3X66WABAJX446NRTV4B4CIAYDN43GM","A30RAYNDOWQ61S","3UUIU9GZC5R93N292LT21FRJ9VS5TN","","null","<img src=""img/land6.png"" style=""width:200px;border:14px solid red;"">","null","","","","","","","","","",""
"","image-keyboard-response","134","91240","0.0-134.0","3X66WABAJX446NRTV4B4CIAYDN43GM","A30RAYNDOWQ61S","3UUIU9GZC5R93N292LT21FRJ9VS5TN","","786.2000000476837","img/land1.png","74","786.5999999642372","1","1","1","2","0.8,0.2,0.2,0.2,0.8,0.2,0.2,0.2,0.8","0.8,0.2,0.2,0.2,0.8,0.2,0.2,0.2,0.8","1","",""
"","html-keyboard-response","135","91541","0.0-135.0","3X66WABAJX446NRTV4B4CIAYDN43GM","A30RAYNDOWQ61S","3UUIU9GZC5R93N292LT21FRJ9VS5TN","","null","<img src=""img/land1.png"" style=""width:200px; border:14px solid green;"">","null","","","","","","","","","",""
"","image-keyboard-response","136","92200","0.0-136.0","3X66WABAJX446NRTV4B4CIAYDN43GM","A30RAYNDOWQ61S","3UUIU9GZC5R93N292LT21FRJ9VS5TN","","657.3000000119209","img/land6.png","75","658","2","0","3","2","0.8,0.2,0.2,0.2,0.8,0.2,0.2,0.2,0.8","0.8,0.2,0.2,0.2,0.8,0.2,0.2,0.2,0.8","1","",""
"","html-keyboard-response","137","92501","0.0-137.0","3X66WABAJX446NRTV4B4CIAYDN43GM","A30RAYNDOWQ61S","3UUIU9GZC5R93N292LT21FRJ9VS5TN","","null","<img src=""img/land6.png"" style=""width:200px;border:14px solid red;"">","null","","","","","","","","","",""
"","image-keyboard-response","138","93440","0.0-138.0","3X66WABAJX446NRTV4B4CIAYDN43GM","A30RAYNDOWQ61S","3UUIU9GZC5R93N292LT21FRJ9VS5TN","","938.8000000119209","img/land1.png","74","939.4000000357628","1","0","1","2","0.8,0.2,0.2,0.2,0.8,0.2,0.2,0.2,0.8","0.8,0.2,0.2,0.2,0.8,0.2,0.2,0.2,0.8","1","",""
"","html-keyboard-response","139","93741","0.0-139.0","3X66WABAJX446NRTV4B4CIAYDN43GM","A30RAYNDOWQ61S","3UUIU9GZC5R93N292LT21FRJ9VS5TN","","null","<img src=""img/land1.png"" style=""width:200px;border:14px solid red;"">","null","","","","","","","","","",""
"","image-keyboard-response","140","94191","0.0-140.0","3X66WABAJX446NRTV4B4CIAYDN43GM","A30RAYNDOWQ61S","3UUIU9GZC5R93N292LT21FRJ9VS5TN","","449.5","img/land1.png","74","450.4000000357628","1","1","1","2","0.8,0.2,0.2,0.2,0.8,0.2,0.2,0.2,0.8","0.8,0.2,0.2,0.2,0.8,0.2,0.2,0.2,0.8","1","",""
"","html-keyboard-response","141","94493","0.0-141.0","3X66WABAJX446NRTV4B4CIAYDN43GM","A30RAYNDOWQ61S","3UUIU9GZC5R93N292LT21FRJ9VS5TN","","null","<img src=""img/land1.png"" style=""width:200px; border:14px solid green;"">","null","","","","","","","","","",""
"","image-keyboard-response","142","95088","0.0-142.0","3X66WABAJX446NRTV4B4CIAYDN43GM","A30RAYNDOWQ61S","3UUIU9GZC5R93N292LT21FRJ9VS5TN","","594.1999999880791","img/land1.png","74","594.7000000476837","1","1","1","2","0.8,0.2,0.2,0.2,0.8,0.2,0.2,0.2,0.8","0.8,0.2,0.2,0.2,0.8,0.2,0.2,0.2,0.8","1","",""
"","html-keyboard-response","143","95396","0.0-143.0","3X66WABAJX446NRTV4B4CIAYDN43GM","A30RAYNDOWQ61S","3UUIU9GZC5R93N292LT21FRJ9VS5TN","","null","<img src=""img/land1.png"" style=""width:200px; border:14px solid green;"">","null","","","","","","","","","",""
"","image-keyboard-response","144","95808","0.0-144.0","3X66WABAJX446NRTV4B4CIAYDN43GM","A30RAYNDOWQ61S","3UUIU9GZC5R93N292LT21FRJ9VS5TN","","411","img/land1.png","74","411.5999999642372","1","1","1","2","0.8,0.2,0.2,0.2,0.8,0.2,0.2,0.2,0.8","0.8,0.2,0.2,0.2,0.8,0.2,0.2,0.2,0.8","1","",""
"","html-keyboard-response","145","96109","0.0-145.0","3X66WABAJX446NRTV4B4CIAYDN43GM","A30RAYNDOWQ61S","3UUIU9GZC5R93N292LT21FRJ9VS5TN","","null","<img src=""img/land1.png"" style=""width:200px; border:14px solid green;"">","null","","","","","","","","","",""
"","image-keyboard-response","146","96592","0.0-146.0","3X66WABAJX446NRTV4B4CIAYDN43GM","A30RAYNDOWQ61S","3UUIU9GZC5R93N292LT21FRJ9VS5TN","","482.19999998807907","img/land6.png","76","482.60000002384186","3","1","3","2","0.8,0.2,0.2,0.2,0.8,0.2,0.2,0.2,0.8","0.8,0.2,0.2,0.2,0.8,0.2,0.2,0.2,0.8","1","",""
"","html-keyboard-response","147","96893","0.0-147.0","3X66WABAJX446NRTV4B4CIAYDN43GM","A30RAYNDOWQ61S","3UUIU9GZC5R93N292LT21FRJ9VS5TN","","null","<img src=""img/land6.png"" style=""width:200px; border:14px solid green;"">","null","","","","","","","","","",""
"","image-keyboard-response","148","97903","0.0-148.0","3X66WABAJX446NRTV4B4CIAYDN43GM","A30RAYNDOWQ61S","3UUIU9GZC5R93N292LT21FRJ9VS5TN","","1009.8999999761581","img/land3.png","74","1010.5","1","0","2","2","0.8,0.2,0.2,0.2,0.8,0.2,0.2,0.2,0.8","0.8,0.2,0.2,0.2,0.8,0.2,0.2,0.2,0.8","1","",""
"","html-keyboard-response","149","98206","0.0-149.0","3X66WABAJX446NRTV4B4CIAYDN43GM","A30RAYNDOWQ61S","3UUIU9GZC5R93N292LT21FRJ9VS5TN","","null","<img src=""img/land3.png"" style=""width:200px;border:14px solid red;"">","null","","","","","","","","","",""
"","image-keyboard-response","150","98663","0.0-150.0","3X66WABAJX446NRTV4B4CIAYDN43GM","A30RAYNDOWQ61S","3UUIU9GZC5R93N292LT21FRJ9VS5TN","","457.0999999642372","img/land3.png","74","457.60000002384186","1","0","2","2","0.8,0.2,0.2,0.2,0.8,0.2,0.2,0.2,0.8","0.8,0.2,0.2,0.2,0.8,0.2,0.2,0.2,0.8","1","",""
"","html-keyboard-response","151","98964","0.0-151.0","3X66WABAJX446NRTV4B4CIAYDN43GM","A30RAYNDOWQ61S","3UUIU9GZC5R93N292LT21FRJ9VS5TN","","null","<img src=""img/land3.png"" style=""width:200px;border:14px solid red;"">","null","","","","","","","","","",""
"","image-keyboard-response","152","99775","0.0-152.0","3X66WABAJX446NRTV4B4CIAYDN43GM","A30RAYNDOWQ61S","3UUIU9GZC5R93N292LT21FRJ9VS5TN","","810.5","img/land1.png","74","810.8000000119209","1","1","1","2","0.8,0.2,0.2,0.2,0.8,0.2,0.2,0.2,0.8","0.8,0.2,0.2,0.2,0.8,0.2,0.2,0.2,0.8","1","",""
"","html-keyboard-response","153","100076","0.0-153.0","3X66WABAJX446NRTV4B4CIAYDN43GM","A30RAYNDOWQ61S","3UUIU9GZC5R93N292LT21FRJ9VS5TN","","null","<img src=""img/land1.png"" style=""width:200px; border:14px solid green;"">","null","","","","","","","","","",""
"","image-keyboard-response","154","100456","0.0-154.0","3X66WABAJX446NRTV4B4CIAYDN43GM","A30RAYNDOWQ61S","3UUIU9GZC5R93N292LT21FRJ9VS5TN","","378.7000000476837","img/land1.png","74","379.19999998807907","1","1","1","2","0.8,0.2,0.2,0.2,0.8,0.2,0.2,0.2,0.8","0.8,0.2,0.2,0.2,0.8,0.2,0.2,0.2,0.8","1","",""
"","html-keyboard-response","155","100757","0.0-155.0","3X66WABAJX446NRTV4B4CIAYDN43GM","A30RAYNDOWQ61S","3UUIU9GZC5R93N292LT21FRJ9VS5TN","","null","<img src=""img/land1.png"" style=""width:200px; border:14px solid green;"">","null","","","","","","","","","",""
"","image-keyboard-response","156","101280","0.0-156.0","3X66WABAJX446NRTV4B4CIAYDN43GM","A30RAYNDOWQ61S","3UUIU9GZC5R93N292LT21FRJ9VS5TN","","522.5","img/land6.png","76","523.1999999880791","3","1","3","2","0.8,0.2,0.2,0.2,0.8,0.2,0.2,0.2,0.8","0.8,0.2,0.2,0.2,0.8,0.2,0.2,0.2,0.8","1","",""
"","html-keyboard-response","157","101581","0.0-157.0","3X66WABAJX446NRTV4B4CIAYDN43GM","A30RAYNDOWQ61S","3UUIU9GZC5R93N292LT21FRJ9VS5TN","","null","<img src=""img/land6.png"" style=""width:200px; border:14px solid green;"">","null","","","","","","","","","",""
"","image-keyboard-response","158","102143","0.0-158.0","3X66WABAJX446NRTV4B4CIAYDN43GM","A30RAYNDOWQ61S","3UUIU9GZC5R93N292LT21FRJ9VS5TN","","561.3999999761581","img/land1.png","74","561.8000000119209","1","1","1","2","0.8,0.2,0.2,0.2,0.8,0.2,0.2,0.2,0.8","0.8,0.2,0.2,0.2,0.8,0.2,0.2,0.2,0.8","1","",""
"","html-keyboard-response","159","102445","0.0-159.0","3X66WABAJX446NRTV4B4CIAYDN43GM","A30RAYNDOWQ61S","3UUIU9GZC5R93N292LT21FRJ9VS5TN","","null","<img src=""img/land1.png"" style=""width:200px; border:14px solid green;"">","null","","","","","","","","","",""
"","image-keyboard-response","160","102896","0.0-160.0","3X66WABAJX446NRTV4B4CIAYDN43GM","A30RAYNDOWQ61S","3UUIU9GZC5R93N292LT21FRJ9VS5TN","","450.5","img/land1.png","74","450.89999997615814","1","1","1","2","0.8,0.2,0.2,0.2,0.8,0.2,0.2,0.2,0.8","0.8,0.2,0.2,0.2,0.8,0.2,0.2,0.2,0.8","1","",""
"","html-keyboard-response","161","103197","0.0-161.0","3X66WABAJX446NRTV4B4CIAYDN43GM","A30RAYNDOWQ61S","3UUIU9GZC5R93N292LT21FRJ9VS5TN","","null","<img src=""img/land1.png"" style=""width:200px; border:14px solid green;"">","null","","","","","","","","","",""
"","image-keyboard-response","162","103879","0.0-162.0","3X66WABAJX446NRTV4B4CIAYDN43GM","A30RAYNDOWQ61S","3UUIU9GZC5R93N292LT21FRJ9VS5TN","","681.6999999880791","img/land6.png","76","682.1999999880791","3","1","3","2","0.8,0.2,0.2,0.2,0.8,0.2,0.2,0.2,0.8","0.8,0.2,0.2,0.2,0.8,0.2,0.2,0.2,0.8","1","",""
"","html-keyboard-response","163","104180","0.0-163.0","3X66WABAJX446NRTV4B4CIAYDN43GM","A30RAYNDOWQ61S","3UUIU9GZC5R93N292LT21FRJ9VS5TN","","null","<img src=""img/land6.png"" style=""width:200px; border:14px solid green;"">","null","","","","","","","","","",""
"","image-keyboard-response","164","105256","0.0-164.0","3X66WABAJX446NRTV4B4CIAYDN43GM","A30RAYNDOWQ61S","3UUIU9GZC5R93N292LT21FRJ9VS5TN","","1075","img/land3.png","74","1075.4000000357628","1","0","2","2","0.8,0.2,0.2,0.2,0.8,0.2,0.2,0.2,0.8","0.8,0.2,0.2,0.2,0.8,0.2,0.2,0.2,0.8","1","",""
"","html-keyboard-response","165","105557","0.0-165.0","3X66WABAJX446NRTV4B4CIAYDN43GM","A30RAYNDOWQ61S","3UUIU9GZC5R93N292LT21FRJ9VS5TN","","null","<img src=""img/land3.png"" style=""width:200px;border:14px solid red;"">","null","","","","","","","","","",""
"","image-keyboard-response","166","105759","0.0-166.0","3X66WABAJX446NRTV4B4CIAYDN43GM","A30RAYNDOWQ61S","3UUIU9GZC5R93N292LT21FRJ9VS5TN","","202","img/land3.png","74","202.60000002384186","1","0","2","2","0.8,0.2,0.2,0.2,0.8,0.2,0.2,0.2,0.8","0.8,0.2,0.2,0.2,0.8,0.2,0.2,0.2,0.8","1","",""
"","html-keyboard-response","167","106060","0.0-167.0","3X66WABAJX446NRTV4B4CIAYDN43GM","A30RAYNDOWQ61S","3UUIU9GZC5R93N292LT21FRJ9VS5TN","","null","<img src=""img/land3.png"" style=""width:200px;border:14px solid red;"">","null","","","","","","","","","",""
"","image-keyboard-response","168","106888","0.0-168.0","3X66WABAJX446NRTV4B4CIAYDN43GM","A30RAYNDOWQ61S","3UUIU9GZC5R93N292LT21FRJ9VS5TN","","826.8000000119209","img/land1.png","74","827.3000000119209","1","1","1","2","0.8,0.2,0.2,0.2,0.8,0.2,0.2,0.2,0.8","0.8,0.2,0.2,0.2,0.8,0.2,0.2,0.2,0.8","1","",""
"","html-keyboard-response","169","107188","0.0-169.0","3X66WABAJX446NRTV4B4CIAYDN43GM","A30RAYNDOWQ61S","3UUIU9GZC5R93N292LT21FRJ9VS5TN","","null","<img src=""img/land1.png"" style=""width:200px; border:14px solid green;"">","null","","","","","","","","","",""
"","image-keyboard-response","170","107512","0.0-170.0","3X66WABAJX446NRTV4B4CIAYDN43GM","A30RAYNDOWQ61S","3UUIU9GZC5R93N292LT21FRJ9VS5TN","","322.7000000476837","img/land1.png","74","323","1","1","1","2","0.8,0.2,0.2,0.2,0.8,0.2,0.2,0.2,0.8","0.8,0.2,0.2,0.2,0.8,0.2,0.2,0.2,0.8","1","",""
"","html-keyboard-response","171","107813","0.0-171.0","3X66WABAJX446NRTV4B4CIAYDN43GM","A30RAYNDOWQ61S","3UUIU9GZC5R93N292LT21FRJ9VS5TN","","null","<img src=""img/land1.png"" style=""width:200px; border:14px solid green;"">","null","","","","","","","","","",""
"","image-keyboard-response","172","108368","0.0-172.0","3X66WABAJX446NRTV4B4CIAYDN43GM","A30RAYNDOWQ61S","3UUIU9GZC5R93N292LT21FRJ9VS5TN","","554.5999999642372","img/land6.png","76","555.1000000238419","3","1","3","2","0.8,0.2,0.2,0.2,0.8,0.2,0.2,0.2,0.8","0.8,0.2,0.2,0.2,0.8,0.2,0.2,0.2,0.8","1","",""
"","html-keyboard-response","173","108670","0.0-173.0","3X66WABAJX446NRTV4B4CIAYDN43GM","A30RAYNDOWQ61S","3UUIU9GZC5R93N292LT21FRJ9VS5TN","","null","<img src=""img/land6.png"" style=""width:200px; border:14px solid green;"">","null","","","","","","","","","",""
"","image-keyboard-response","174","109136","0.0-174.0","3X66WABAJX446NRTV4B4CIAYDN43GM","A30RAYNDOWQ61S","3UUIU9GZC5R93N292LT21FRJ9VS5TN","","465.5999999642372","img/land1.png","76","466","3","1","1","2","0.8,0.2,0.2,0.2,0.8,0.2,0.2,0.2,0.8","0.8,0.2,0.2,0.2,0.8,0.2,0.2,0.2,0.8","1","",""
"","html-keyboard-response","175","109437","0.0-175.0","3X66WABAJX446NRTV4B4CIAYDN43GM","A30RAYNDOWQ61S","3UUIU9GZC5R93N292LT21FRJ9VS5TN","","null","<img src=""img/land1.png"" style=""width:200px; border:14px solid green;"">","null","","","","","","","","","",""
"","image-keyboard-response","176","110551","0.0-176.0","3X66WABAJX446NRTV4B4CIAYDN43GM","A30RAYNDOWQ61S","3UUIU9GZC5R93N292LT21FRJ9VS5TN","","1113.800000011921","img/land6.png","75","1114.199999988079","2","0","3","2","0.8,0.2,0.2,0.2,0.8,0.2,0.2,0.2,0.8","0.8,0.2,0.2,0.2,0.8,0.2,0.2,0.2,0.8","1","",""
"","html-keyboard-response","177","110852","0.0-177.0","3X66WABAJX446NRTV4B4CIAYDN43GM","A30RAYNDOWQ61S","3UUIU9GZC5R93N292LT21FRJ9VS5TN","","null","<img src=""img/land6.png"" style=""width:200px;border:14px solid red;"">","null","","","","","","","","","",""
"","image-keyboard-response","178","111608","0.0-178.0","3X66WABAJX446NRTV4B4CIAYDN43GM","A30RAYNDOWQ61S","3UUIU9GZC5R93N292LT21FRJ9VS5TN","","755","img/land3.png","74","755.2999999523163","1","0","2","2","0.8,0.2,0.2,0.2,0.8,0.2,0.2,0.2,0.8","0.8,0.2,0.2,0.2,0.8,0.2,0.2,0.2,0.8","1","",""
"","html-keyboard-response","179","111909","0.0-179.0","3X66WABAJX446NRTV4B4CIAYDN43GM","A30RAYNDOWQ61S","3UUIU9GZC5R93N292LT21FRJ9VS5TN","","null","<img src=""img/land3.png"" style=""width:200px;border:14px solid red;"">","null","","","","","","","","","",""
"","image-keyboard-response","180","112903","0.0-180.0","3X66WABAJX446NRTV4B4CIAYDN43GM","A30RAYNDOWQ61S","3UUIU9GZC5R93N292LT21FRJ9VS5TN","","993.6000000238419","img/land1.png","74","994","1","1","1","2","0.8,0.2,0.2,0.2,0.8,0.2,0.2,0.2,0.8","0.8,0.2,0.2,0.2,0.8,0.2,0.2,0.2,0.8","1","",""
"","html-keyboard-response","181","113204","0.0-181.0","3X66WABAJX446NRTV4B4CIAYDN43GM","A30RAYNDOWQ61S","3UUIU9GZC5R93N292LT21FRJ9VS5TN","","null","<img src=""img/land1.png"" style=""width:200px; border:14px solid green;"">","null","","","","","","","","","",""
"","image-keyboard-response","182","113704","0.0-182.0","3X66WABAJX446NRTV4B4CIAYDN43GM","A30RAYNDOWQ61S","3UUIU9GZC5R93N292LT21FRJ9VS5TN","","498.5999999642372","img/land1.png","74","499.0999999642372","1","0","1","2","0.8,0.2,0.2,0.2,0.8,0.2,0.2,0.2,0.8","0.8,0.2,0.2,0.2,0.8,0.2,0.2,0.2,0.8","1","",""
"","html-keyboard-response","183","114005","0.0-183.0","3X66WABAJX446NRTV4B4CIAYDN43GM","A30RAYNDOWQ61S","3UUIU9GZC5R93N292LT21FRJ9VS5TN","","null","<img src=""img/land1.png"" style=""width:200px;border:14px solid red;"">","null","","","","","","","","","",""
"","image-keyboard-response","184","114456","0.0-184.0","3X66WABAJX446NRTV4B4CIAYDN43GM","A30RAYNDOWQ61S","3UUIU9GZC5R93N292LT21FRJ9VS5TN","","450.80000001192093","img/land1.png","74","451.2999999523163","1","1","1","2","0.8,0.2,0.2,0.2,0.8,0.2,0.2,0.2,0.8","0.8,0.2,0.2,0.2,0.8,0.2,0.2,0.2,0.8","1","",""
"","html-keyboard-response","185","114758","0.0-185.0","3X66WABAJX446NRTV4B4CIAYDN43GM","A30RAYNDOWQ61S","3UUIU9GZC5R93N292LT21FRJ9VS5TN","","null","<img src=""img/land1.png"" style=""width:200px; border:14px solid green;"">","null","","","","","","","","","",""
"","image-keyboard-response","186","115360","0.0-186.0","3X66WABAJX446NRTV4B4CIAYDN43GM","A30RAYNDOWQ61S","3UUIU9GZC5R93N292LT21FRJ9VS5TN","","601.5","img/land1.png","74","602.0999999642372","1","1","1","2","0.8,0.2,0.2,0.2,0.8,0.2,0.2,0.2,0.8","0.8,0.2,0.2,0.2,0.8,0.2,0.2,0.2,0.8","1","",""
"","html-keyboard-response","187","115662","0.0-187.0","3X66WABAJX446NRTV4B4CIAYDN43GM","A30RAYNDOWQ61S","3UUIU9GZC5R93N292LT21FRJ9VS5TN","","null","<img src=""img/land1.png"" style=""width:200px; border:14px solid green;"">","null","","","","","","","","","",""
"","image-keyboard-response","188","116599","0.0-188.0","3X66WABAJX446NRTV4B4CIAYDN43GM","A30RAYNDOWQ61S","3UUIU9GZC5R93N292LT21FRJ9VS5TN","","937.2999999523163","img/land6.png","76","937.6999999880791","3","1","3","2","0.8,0.2,0.2,0.2,0.8,0.2,0.2,0.2,0.8","0.8,0.2,0.2,0.2,0.8,0.2,0.2,0.2,0.8","1","",""
"","html-keyboard-response","189","116900","0.0-189.0","3X66WABAJX446NRTV4B4CIAYDN43GM","A30RAYNDOWQ61S","3UUIU9GZC5R93N292LT21FRJ9VS5TN","","null","<img src=""img/land6.png"" style=""width:200px; border:14px solid green;"">","null","","","","","","","","","",""
"","image-keyboard-response","190","117952","0.0-190.0","3X66WABAJX446NRTV4B4CIAYDN43GM","A30RAYNDOWQ61S","3UUIU9GZC5R93N292LT21FRJ9VS5TN","","1050.699999988079","img/land3.png","76","1051.199999988079","3","0","2","2","0.8,0.2,0.2,0.2,0.8,0.2,0.2,0.2,0.8","0.8,0.2,0.2,0.2,0.8,0.2,0.2,0.2,0.8","1","",""
"","html-keyboard-response","191","118253","0.0-191.0","3X66WABAJX446NRTV4B4CIAYDN43GM","A30RAYNDOWQ61S","3UUIU9GZC5R93N292LT21FRJ9VS5TN","","null","<img src=""img/land3.png"" style=""width:200px;border:14px solid red;"">","null","","","","","","","","","",""
"","image-keyboard-response","192","118920","0.0-192.0","3X66WABAJX446NRTV4B4CIAYDN43GM","A30RAYNDOWQ61S","3UUIU9GZC5R93N292LT21FRJ9VS5TN","","666","img/land1.png","74","666.5","1","0","1","2","0.8,0.2,0.2,0.2,0.8,0.2,0.2,0.2,0.8","0.8,0.2,0.2,0.2,0.8,0.2,0.2,0.2,0.8","1","",""
"","html-keyboard-response","193","119221","0.0-193.0","3X66WABAJX446NRTV4B4CIAYDN43GM","A30RAYNDOWQ61S","3UUIU9GZC5R93N292LT21FRJ9VS5TN","","null","<img src=""img/land1.png"" style=""width:200px;border:14px solid red;"">","null","","","","","","","","","",""
"","image-keyboard-response","194","119936","0.0-194.0","3X66WABAJX446NRTV4B4CIAYDN43GM","A30RAYNDOWQ61S","3UUIU9GZC5R93N292LT21FRJ9VS5TN","","714.0999999642372","img/land3.png","76","714.5","3","0","2","2","0.8,0.2,0.2,0.2,0.8,0.2,0.2,0.2,0.8","0.8,0.2,0.2,0.2,0.8,0.2,0.2,0.2,0.8","1","",""
"","html-keyboard-response","195","120237","0.0-195.0","3X66WABAJX446NRTV4B4CIAYDN43GM","A30RAYNDOWQ61S","3UUIU9GZC5R93N292LT21FRJ9VS5TN","","null","<img src=""img/land3.png"" style=""width:200px;border:14px solid red;"">","null","","","","","","","","","",""
"","image-keyboard-response","196","120519","0.0-196.0","3X66WABAJX446NRTV4B4CIAYDN43GM","A30RAYNDOWQ61S","3UUIU9GZC5R93N292LT21FRJ9VS5TN","","281.60000002384186","img/land1.png","76","282.19999998807907","3","0","1","2","0.8,0.2,0.2,0.2,0.8,0.2,0.2,0.2,0.8","0.8,0.2,0.2,0.2,0.8,0.2,0.2,0.2,0.8","1","",""
"","html-keyboard-response","197","120820","0.0-197.0","3X66WABAJX446NRTV4B4CIAYDN43GM","A30RAYNDOWQ61S","3UUIU9GZC5R93N292LT21FRJ9VS5TN","","null","<img src=""img/land1.png"" style=""width:200px;border:14px solid red;"">","null","","","","","","","","","",""
"","image-keyboard-response","198","121319","0.0-198.0","3X66WABAJX446NRTV4B4CIAYDN43GM","A30RAYNDOWQ61S","3UUIU9GZC5R93N292LT21FRJ9VS5TN","","498.9000000357628","img/land1.png","74","499.39999997615814","1","1","1","2","0.8,0.2,0.2,0.2,0.8,0.2,0.2,0.2,0.8","0.8,0.2,0.2,0.2,0.8,0.2,0.2,0.2,0.8","1","",""
"","html-keyboard-response","199","121629","0.0-199.0","3X66WABAJX446NRTV4B4CIAYDN43GM","A30RAYNDOWQ61S","3UUIU9GZC5R93N292LT21FRJ9VS5TN","","null","<img src=""img/land1.png"" style=""width:200px; border:14px solid green;"">","null","","","","","","","","","",""
"","image-keyboard-response","200","122023","0.0-200.0","3X66WABAJX446NRTV4B4CIAYDN43GM","A30RAYNDOWQ61S","3UUIU9GZC5R93N292LT21FRJ9VS5TN","","393.80000001192093","img/land1.png","74","394.19999998807907","1","1","1","2","0.8,0.2,0.2,0.2,0.8,0.2,0.2,0.2,0.8","0.8,0.2,0.2,0.2,0.8,0.2,0.2,0.2,0.8","1","",""
"","html-keyboard-response","201","122325","0.0-201.0","3X66WABAJX446NRTV4B4CIAYDN43GM","A30RAYNDOWQ61S","3UUIU9GZC5R93N292LT21FRJ9VS5TN","","null","<img src=""img/land1.png"" style=""width:200px; border:14px solid green;"">","null","","","","","","","","","",""
"","image-keyboard-response","202","122768","0.0-202.0","3X66WABAJX446NRTV4B4CIAYDN43GM","A30RAYNDOWQ61S","3UUIU9GZC5R93N292LT21FRJ9VS5TN","","442.69999998807907","img/land1.png","74","443","1","0","1","2","0.8,0.2,0.2,0.2,0.8,0.2,0.2,0.2,0.8","0.8,0.2,0.2,0.2,0.8,0.2,0.2,0.2,0.8","1","",""
"","html-keyboard-response","203","123069","0.0-203.0","3X66WABAJX446NRTV4B4CIAYDN43GM","A30RAYNDOWQ61S","3UUIU9GZC5R93N292LT21FRJ9VS5TN","","null","<img src=""img/land1.png"" style=""width:200px;border:14px solid red;"">","null","","","","","","","","","",""
"","image-keyboard-response","204","123695","0.0-204.0","3X66WABAJX446NRTV4B4CIAYDN43GM","A30RAYNDOWQ61S","3UUIU9GZC5R93N292LT21FRJ9VS5TN","","625.6999999880791","img/land1.png","74","626.1000000238419","1","1","1","2","0.8,0.2,0.2,0.2,0.8,0.2,0.2,0.2,0.8","0.8,0.2,0.2,0.2,0.8,0.2,0.2,0.2,0.8","1","",""
"","html-keyboard-response","205","123997","0.0-205.0","3X66WABAJX446NRTV4B4CIAYDN43GM","A30RAYNDOWQ61S","3UUIU9GZC5R93N292LT21FRJ9VS5TN","","null","<img src=""img/land1.png"" style=""width:200px; border:14px solid green;"">","null","","","","","","","","","",""
"","image-keyboard-response","206","124672","0.0-206.0","3X66WABAJX446NRTV4B4CIAYDN43GM","A30RAYNDOWQ61S","3UUIU9GZC5R93N292LT21FRJ9VS5TN","","674.7999999523163","img/land1.png","74","675.3000000119209","1","1","1","2","0.8,0.2,0.2,0.2,0.8,0.2,0.2,0.2,0.8","0.8,0.2,0.2,0.2,0.8,0.2,0.2,0.2,0.8","1","",""
"","html-keyboard-response","207","124974","0.0-207.0","3X66WABAJX446NRTV4B4CIAYDN43GM","A30RAYNDOWQ61S","3UUIU9GZC5R93N292LT21FRJ9VS5TN","","null","<img src=""img/land1.png"" style=""width:200px; border:14px solid green;"">","null","","","","","","","","","",""
"","image-keyboard-response","208","126368","0.0-208.0","3X66WABAJX446NRTV4B4CIAYDN43GM","A30RAYNDOWQ61S","3UUIU9GZC5R93N292LT21FRJ9VS5TN","","1393.3999999761581","img/land3.png","74","1393.7999999523163","1","0","2","2","0.8,0.2,0.2,0.2,0.8,0.2,0.2,0.2,0.8","0.8,0.2,0.2,0.2,0.8,0.2,0.2,0.2,0.8","1","",""
"","html-keyboard-response","209","126669","0.0-209.0","3X66WABAJX446NRTV4B4CIAYDN43GM","A30RAYNDOWQ61S","3UUIU9GZC5R93N292LT21FRJ9VS5TN","","null","<img src=""img/land3.png"" style=""width:200px;border:14px solid red;"">","null","","","","","","","","","",""
"","image-keyboard-response","210","127560","0.0-210.0","3X66WABAJX446NRTV4B4CIAYDN43GM","A30RAYNDOWQ61S","3UUIU9GZC5R93N292LT21FRJ9VS5TN","","890.1999999880791","img/land6.png","76","890.5999999642372","3","1","3","2","0.8,0.2,0.2,0.2,0.8,0.2,0.2,0.2,0.8","0.8,0.2,0.2,0.2,0.8,0.2,0.2,0.2,0.8","1","",""
"","html-keyboard-response","211","127862","0.0-211.0","3X66WABAJX446NRTV4B4CIAYDN43GM","A30RAYNDOWQ61S","3UUIU9GZC5R93N292LT21FRJ9VS5TN","","null","<img src=""img/land6.png"" style=""width:200px; border:14px solid green;"">","null","","","","","","","","","",""
"","image-keyboard-response","212","128489","0.0-212.0","3X66WABAJX446NRTV4B4CIAYDN43GM","A30RAYNDOWQ61S","3UUIU9GZC5R93N292LT21FRJ9VS5TN","","626.4000000357628","img/land1.png","74","626.8000000119209","1","1","1","2","0.8,0.2,0.2,0.2,0.8,0.2,0.2,0.2,0.8","0.8,0.2,0.2,0.2,0.8,0.2,0.2,0.2,0.8","1","",""
"","html-keyboard-response","213","128789","0.0-213.0","3X66WABAJX446NRTV4B4CIAYDN43GM","A30RAYNDOWQ61S","3UUIU9GZC5R93N292LT21FRJ9VS5TN","","null","<img src=""img/land1.png"" style=""width:200px; border:14px solid green;"">","null","","","","","","","","","",""
"","image-keyboard-response","214","129512","0.0-214.0","3X66WABAJX446NRTV4B4CIAYDN43GM","A30RAYNDOWQ61S","3UUIU9GZC5R93N292LT21FRJ9VS5TN","","721.3999999761581","img/land6.png","76","722.1000000238419","3","1","3","2","0.8,0.2,0.2,0.2,0.8,0.2,0.2,0.2,0.8","0.8,0.2,0.2,0.2,0.8,0.2,0.2,0.2,0.8","1","",""
"","html-keyboard-response","215","129812","0.0-215.0","3X66WABAJX446NRTV4B4CIAYDN43GM","A30RAYNDOWQ61S","3UUIU9GZC5R93N292LT21FRJ9VS5TN","","null","<img src=""img/land6.png"" style=""width:200px; border:14px solid green;"">","null","","","","","","","","","",""
"","image-keyboard-response","216","130632","0.0-216.0","3X66WABAJX446NRTV4B4CIAYDN43GM","A30RAYNDOWQ61S","3UUIU9GZC5R93N292LT21FRJ9VS5TN","","818.8000000119209","img/land1.png","74","819.2999999523163","1","0","1","2","0.8,0.2,0.2,0.2,0.8,0.2,0.2,0.2,0.8","0.8,0.2,0.2,0.2,0.8,0.2,0.2,0.2,0.8","1","",""
"","html-keyboard-response","217","130933","0.0-217.0","3X66WABAJX446NRTV4B4CIAYDN43GM","A30RAYNDOWQ61S","3UUIU9GZC5R93N292LT21FRJ9VS5TN","","null","<img src=""img/land1.png"" style=""width:200px;border:14px solid red;"">","null","","","","","","","","","",""
"","image-keyboard-response","218","131447","0.0-218.0","3X66WABAJX446NRTV4B4CIAYDN43GM","A30RAYNDOWQ61S","3UUIU9GZC5R93N292LT21FRJ9VS5TN","","513.8000000119209","img/land1.png","74","514.3999999761581","1","1","1","2","0.8,0.2,0.2,0.2,0.8,0.2,0.2,0.2,0.8","0.8,0.2,0.2,0.2,0.8,0.2,0.2,0.2,0.8","1","",""
"","html-keyboard-response","219","131756","0.0-219.0","3X66WABAJX446NRTV4B4CIAYDN43GM","A30RAYNDOWQ61S","3UUIU9GZC5R93N292LT21FRJ9VS5TN","","null","<img src=""img/land1.png"" style=""width:200px; border:14px solid green;"">","null","","","","","","","","","",""
"","image-keyboard-response","220","132199","0.0-220.0","3X66WABAJX446NRTV4B4CIAYDN43GM","A30RAYNDOWQ61S","3UUIU9GZC5R93N292LT21FRJ9VS5TN","","442.5","img/land1.png","74","443.69999998807907","1","1","1","2","0.8,0.2,0.2,0.2,0.8,0.2,0.2,0.2,0.8","0.8,0.2,0.2,0.2,0.8,0.2,0.2,0.2,0.8","1","",""
"","html-keyboard-response","221","132502","0.0-221.0","3X66WABAJX446NRTV4B4CIAYDN43GM","A30RAYNDOWQ61S","3UUIU9GZC5R93N292LT21FRJ9VS5TN","","null","<img src=""img/land1.png"" style=""width:200px; border:14px solid green;"">","null","","","","","","","","","",""
"","image-keyboard-response","222","133144","0.0-222.0","3X66WABAJX446NRTV4B4CIAYDN43GM","A30RAYNDOWQ61S","3UUIU9GZC5R93N292LT21FRJ9VS5TN","","641.5","img/land6.png","76","642.2000000476837","3","1","3","2","0.8,0.2,0.2,0.2,0.8,0.2,0.2,0.2,0.8","0.8,0.2,0.2,0.2,0.8,0.2,0.2,0.2,0.8","1","",""
"","html-keyboard-response","223","133445","0.0-223.0","3X66WABAJX446NRTV4B4CIAYDN43GM","A30RAYNDOWQ61S","3UUIU9GZC5R93N292LT21FRJ9VS5TN","","null","<img src=""img/land6.png"" style=""width:200px; border:14px solid green;"">","null","","","","","","","","","",""
"","image-keyboard-response","224","134024","0.0-224.0","3X66WABAJX446NRTV4B4CIAYDN43GM","A30RAYNDOWQ61S","3UUIU9GZC5R93N292LT21FRJ9VS5TN","","578.5999999642372","img/land1.png","74","579.2000000476837","1","1","1","2","0.8,0.2,0.2,0.2,0.8,0.2,0.2,0.2,0.8","0.8,0.2,0.2,0.2,0.8,0.2,0.2,0.2,0.8","1","",""
"","html-keyboard-response","225","134325","0.0-225.0","3X66WABAJX446NRTV4B4CIAYDN43GM","A30RAYNDOWQ61S","3UUIU9GZC5R93N292LT21FRJ9VS5TN","","null","<img src=""img/land1.png"" style=""width:200px; border:14px solid green;"">","null","","","","","","","","","",""
"","image-keyboard-response","226","134863","0.0-226.0","3X66WABAJX446NRTV4B4CIAYDN43GM","A30RAYNDOWQ61S","3UUIU9GZC5R93N292LT21FRJ9VS5TN","","537.6000000238419","img/land1.png","74","538.1000000238419","1","1","1","2","0.8,0.2,0.2,0.2,0.8,0.2,0.2,0.2,0.8","0.8,0.2,0.2,0.2,0.8,0.2,0.2,0.2,0.8","1","",""
"","html-keyboard-response","227","135165","0.0-227.0","3X66WABAJX446NRTV4B4CIAYDN43GM","A30RAYNDOWQ61S","3UUIU9GZC5R93N292LT21FRJ9VS5TN","","null","<img src=""img/land1.png"" style=""width:200px; border:14px solid green;"">","null","","","","","","","","","",""
"","image-keyboard-response","228","135591","0.0-228.0","3X66WABAJX446NRTV4B4CIAYDN43GM","A30RAYNDOWQ61S","3UUIU9GZC5R93N292LT21FRJ9VS5TN","","425.5","img/land1.png","74","426.0999999642372","1","1","1","2","0.8,0.2,0.2,0.2,0.8,0.2,0.2,0.2,0.8","0.8,0.2,0.2,0.2,0.8,0.2,0.2,0.2,0.8","1","",""
"","html-keyboard-response","229","135893","0.0-229.0","3X66WABAJX446NRTV4B4CIAYDN43GM","A30RAYNDOWQ61S","3UUIU9GZC5R93N292LT21FRJ9VS5TN","","null","<img src=""img/land1.png"" style=""width:200px; border:14px solid green;"">","null","","","","","","","","","",""
"","image-keyboard-response","230","136728","0.0-230.0","3X66WABAJX446NRTV4B4CIAYDN43GM","A30RAYNDOWQ61S","3UUIU9GZC5R93N292LT21FRJ9VS5TN","","834.8000000119209","img/land1.png","74","835.1999999880791","1","1","1","2","0.8,0.2,0.2,0.2,0.8,0.2,0.2,0.2,0.8","0.8,0.2,0.2,0.2,0.8,0.2,0.2,0.2,0.8","1","",""
"","html-keyboard-response","231","137029","0.0-231.0","3X66WABAJX446NRTV4B4CIAYDN43GM","A30RAYNDOWQ61S","3UUIU9GZC5R93N292LT21FRJ9VS5TN","","null","<img src=""img/land1.png"" style=""width:200px; border:14px solid green;"">","null","","","","","","","","","",""
"","image-keyboard-response","232","137551","0.0-232.0","3X66WABAJX446NRTV4B4CIAYDN43GM","A30RAYNDOWQ61S","3UUIU9GZC5R93N292LT21FRJ9VS5TN","","521.9000000357628","img/land1.png","74","522.3999999761581","1","1","1","2","0.8,0.2,0.2,0.2,0.8,0.2,0.2,0.2,0.8","0.8,0.2,0.2,0.2,0.8,0.2,0.2,0.2,0.8","1","",""
"","html-keyboard-response","233","137853","0.0-233.0","3X66WABAJX446NRTV4B4CIAYDN43GM","A30RAYNDOWQ61S","3UUIU9GZC5R93N292LT21FRJ9VS5TN","","null","<img src=""img/land1.png"" style=""width:200px; border:14px solid green;"">","null","","","","","","","","","",""
"","image-keyboard-response","234","138424","0.0-234.0","3X66WABAJX446NRTV4B4CIAYDN43GM","A30RAYNDOWQ61S","3UUIU9GZC5R93N292LT21FRJ9VS5TN","","570","img/land6.png","76","570.5","3","1","3","2","0.8,0.2,0.2,0.2,0.8,0.2,0.2,0.2,0.8","0.8,0.2,0.2,0.2,0.8,0.2,0.2,0.2,0.8","1","",""
"","html-keyboard-response","235","138724","0.0-235.0","3X66WABAJX446NRTV4B4CIAYDN43GM","A30RAYNDOWQ61S","3UUIU9GZC5R93N292LT21FRJ9VS5TN","","null","<img src=""img/land6.png"" style=""width:200px; border:14px solid green;"">","null","","","","","","","","","",""
"","image-keyboard-response","236","139192","0.0-236.0","3X66WABAJX446NRTV4B4CIAYDN43GM","A30RAYNDOWQ61S","3UUIU9GZC5R93N292LT21FRJ9VS5TN","","466.5","img/land6.png","76","466.80000001192093","3","0","3","2","0.8,0.2,0.2,0.2,0.8,0.2,0.2,0.2,0.8","0.8,0.2,0.2,0.2,0.8,0.2,0.2,0.2,0.8","1","",""
"","html-keyboard-response","237","139493","0.0-237.0","3X66WABAJX446NRTV4B4CIAYDN43GM","A30RAYNDOWQ61S","3UUIU9GZC5R93N292LT21FRJ9VS5TN","","null","<img src=""img/land6.png"" style=""width:200px;border:14px solid red;"">","null","","","","","","","","","",""
"","image-keyboard-response","238","140231","0.0-238.0","3X66WABAJX446NRTV4B4CIAYDN43GM","A30RAYNDOWQ61S","3UUIU9GZC5R93N292LT21FRJ9VS5TN","","738","img/land1.png","74","738.6000000238419","1","1","1","2","0.8,0.2,0.2,0.2,0.8,0.2,0.2,0.2,0.8","0.8,0.2,0.2,0.2,0.8,0.2,0.2,0.2,0.8","1","",""
"","html-keyboard-response","239","140533","0.0-239.0","3X66WABAJX446NRTV4B4CIAYDN43GM","A30RAYNDOWQ61S","3UUIU9GZC5R93N292LT21FRJ9VS5TN","","null","<img src=""img/land1.png"" style=""width:200px; border:14px solid green;"">","null","","","","","","","","","",""
"","image-keyboard-response","240","140856","0.0-240.0","3X66WABAJX446NRTV4B4CIAYDN43GM","A30RAYNDOWQ61S","3UUIU9GZC5R93N292LT21FRJ9VS5TN","","322.69999998807907","img/land1.png","74","323.2000000476837","1","1","1","2","0.8,0.2,0.2,0.2,0.8,0.2,0.2,0.2,0.8","0.8,0.2,0.2,0.2,0.8,0.2,0.2,0.2,0.8","1","",""
"","html-keyboard-response","241","141158","0.0-241.0","3X66WABAJX446NRTV4B4CIAYDN43GM","A30RAYNDOWQ61S","3UUIU9GZC5R93N292LT21FRJ9VS5TN","","null","<img src=""img/land1.png"" style=""width:200px; border:14px solid green;"">","null","","","","","","","","","",""
"","image-keyboard-response","242","141656","0.0-242.0","3X66WABAJX446NRTV4B4CIAYDN43GM","A30RAYNDOWQ61S","3UUIU9GZC5R93N292LT21FRJ9VS5TN","","497.30000001192093","img/land3.png","75","497.89999997615814","2","1","2","2","0.8,0.2,0.2,0.2,0.8,0.2,0.2,0.2,0.8","0.8,0.2,0.2,0.2,0.8,0.2,0.2,0.2,0.8","1","",""
"","html-keyboard-response","243","141957","0.0-243.0","3X66WABAJX446NRTV4B4CIAYDN43GM","A30RAYNDOWQ61S","3UUIU9GZC5R93N292LT21FRJ9VS5TN","","null","<img src=""img/land3.png"" style=""width:200px; border:14px solid green;"">","null","","","","","","","","","",""
"","image-keyboard-response","244","142664","0.0-244.0","3X66WABAJX446NRTV4B4CIAYDN43GM","A30RAYNDOWQ61S","3UUIU9GZC5R93N292LT21FRJ9VS5TN","","705.5999999642372","img/land6.png","76","706.1000000238419","3","1","3","2","0.8,0.2,0.2,0.2,0.8,0.2,0.2,0.2,0.8","0.8,0.2,0.2,0.2,0.8,0.2,0.2,0.2,0.8","1","",""
"","html-keyboard-response","245","142965","0.0-245.0","3X66WABAJX446NRTV4B4CIAYDN43GM","A30RAYNDOWQ61S","3UUIU9GZC5R93N292LT21FRJ9VS5TN","","null","<img src=""img/land6.png"" style=""width:200px; border:14px solid green;"">","null","","","","","","","","","",""
"","image-keyboard-response","246","143576","0.0-246.0","3X66WABAJX446NRTV4B4CIAYDN43GM","A30RAYNDOWQ61S","3UUIU9GZC5R93N292LT21FRJ9VS5TN","","610.6999999880791","img/land1.png","74","611.1000000238419","1","0","1","2","0.8,0.2,0.2,0.2,0.8,0.2,0.2,0.2,0.8","0.8,0.2,0.2,0.2,0.8,0.2,0.2,0.2,0.8","1","",""
"","html-keyboard-response","247","143877","0.0-247.0","3X66WABAJX446NRTV4B4CIAYDN43GM","A30RAYNDOWQ61S","3UUIU9GZC5R93N292LT21FRJ9VS5TN","","null","<img src=""img/land1.png"" style=""width:200px;border:14px solid red;"">","null","","","","","","","","","",""
"","image-keyboard-response","248","144224","0.0-248.0","3X66WABAJX446NRTV4B4CIAYDN43GM","A30RAYNDOWQ61S","3UUIU9GZC5R93N292LT21FRJ9VS5TN","","345.69999998807907","img/land1.png","74","346.2000000476837","1","1","1","2","0.8,0.2,0.2,0.2,0.8,0.2,0.2,0.2,0.8","0.8,0.2,0.2,0.2,0.8,0.2,0.2,0.2,0.8","1","",""
"","html-keyboard-response","249","144525","0.0-249.0","3X66WABAJX446NRTV4B4CIAYDN43GM","A30RAYNDOWQ61S","3UUIU9GZC5R93N292LT21FRJ9VS5TN","","null","<img src=""img/land1.png"" style=""width:200px; border:14px solid green;"">","null","","","","","","","","","",""
"","image-keyboard-response","250","145041","0.0-250.0","3X66WABAJX446NRTV4B4CIAYDN43GM","A30RAYNDOWQ61S","3UUIU9GZC5R93N292LT21FRJ9VS5TN","","514.5999999642372","img/land1.png","74","515.1999999880791","1","1","1","2","0.8,0.2,0.2,0.2,0.8,0.2,0.2,0.2,0.8","0.8,0.2,0.2,0.2,0.8,0.2,0.2,0.2,0.8","1","",""
"","html-keyboard-response","251","145342","0.0-251.0","3X66WABAJX446NRTV4B4CIAYDN43GM","A30RAYNDOWQ61S","3UUIU9GZC5R93N292LT21FRJ9VS5TN","","null","<img src=""img/land1.png"" style=""width:200px; border:14px solid green;"">","null","","","","","","","","","",""
"","image-keyboard-response","252","145903","0.0-252.0","3X66WABAJX446NRTV4B4CIAYDN43GM","A30RAYNDOWQ61S","3UUIU9GZC5R93N292LT21FRJ9VS5TN","","560.6999999880791","img/land6.png","76","561.1000000238419","3","1","3","2","0.8,0.2,0.2,0.2,0.8,0.2,0.2,0.2,0.8","0.8,0.2,0.2,0.2,0.8,0.2,0.2,0.2,0.8","1","",""
"","html-keyboard-response","253","146205","0.0-253.0","3X66WABAJX446NRTV4B4CIAYDN43GM","A30RAYNDOWQ61S","3UUIU9GZC5R93N292LT21FRJ9VS5TN","","null","<img src=""img/land6.png"" style=""width:200px; border:14px solid green;"">","null","","","","","","","","","",""
"","image-keyboard-response","254","146895","0.0-254.0","3X66WABAJX446NRTV4B4CIAYDN43GM","A30RAYNDOWQ61S","3UUIU9GZC5R93N292LT21FRJ9VS5TN","","690.3999999761581","img/land1.png","74","690.6999999880791","1","1","1","2","0.8,0.2,0.2,0.2,0.8,0.2,0.2,0.2,0.8","0.8,0.2,0.2,0.2,0.8,0.2,0.2,0.2,0.8","1","",""
"","html-keyboard-response","255","147197","0.0-255.0","3X66WABAJX446NRTV4B4CIAYDN43GM","A30RAYNDOWQ61S","3UUIU9GZC5R93N292LT21FRJ9VS5TN","","null","<img src=""img/land1.png"" style=""width:200px; border:14px solid green;"">","null","","","","","","","","","",""
"","image-keyboard-response","256","147840","0.0-256.0","3X66WABAJX446NRTV4B4CIAYDN43GM","A30RAYNDOWQ61S","3UUIU9GZC5R93N292LT21FRJ9VS5TN","","642.1999999880791","img/land3.png","75","642.6999999880791","2","1","2","2","0.8,0.2,0.2,0.2,0.8,0.2,0.2,0.2,0.8","0.8,0.2,0.2,0.2,0.8,0.2,0.2,0.2,0.8","1","",""
"","html-keyboard-response","257","148142","0.0-257.0","3X66WABAJX446NRTV4B4CIAYDN43GM","A30RAYNDOWQ61S","3UUIU9GZC5R93N292LT21FRJ9VS5TN","","null","<img src=""img/land3.png"" style=""width:200px; border:14px solid green;"">","null","","","","","","","","","",""
"","image-keyboard-response","258","148888","0.0-258.0","3X66WABAJX446NRTV4B4CIAYDN43GM","A30RAYNDOWQ61S","3UUIU9GZC5R93N292LT21FRJ9VS5TN","","745.0999999642372","img/land1.png","74","745.6999999880791","1","1","1","2","0.8,0.2,0.2,0.2,0.8,0.2,0.2,0.2,0.8","0.8,0.2,0.2,0.2,0.8,0.2,0.2,0.2,0.8","1","",""
"","html-keyboard-response","259","149190","0.0-259.0","3X66WABAJX446NRTV4B4CIAYDN43GM","A30RAYNDOWQ61S","3UUIU9GZC5R93N292LT21FRJ9VS5TN","","null","<img src=""img/land1.png"" style=""width:200px; border:14px solid green;"">","null","","","","","","","","","",""
"","image-keyboard-response","260","149648","0.0-260.0","3X66WABAJX446NRTV4B4CIAYDN43GM","A30RAYNDOWQ61S","3UUIU9GZC5R93N292LT21FRJ9VS5TN","","457.30000001192093","img/land1.png","74","458","1","1","1","2","0.8,0.2,0.2,0.2,0.8,0.2,0.2,0.2,0.8","0.8,0.2,0.2,0.2,0.8,0.2,0.2,0.2,0.8","1","",""
"","html-keyboard-response","261","149949","0.0-261.0","3X66WABAJX446NRTV4B4CIAYDN43GM","A30RAYNDOWQ61S","3UUIU9GZC5R93N292LT21FRJ9VS5TN","","null","<img src=""img/land1.png"" style=""width:200px; border:14px solid green;"">","null","","","","","","","","","",""
"","image-keyboard-response","262","150383","0.0-262.0","3X66WABAJX446NRTV4B4CIAYDN43GM","A30RAYNDOWQ61S","3UUIU9GZC5R93N292LT21FRJ9VS5TN","","434.10000002384186","img/land1.png","74","434.69999998807907","1","1","1","2","0.8,0.2,0.2,0.2,0.8,0.2,0.2,0.2,0.8","0.8,0.2,0.2,0.2,0.8,0.2,0.2,0.2,0.8","1","",""
"","html-keyboard-response","263","150685","0.0-263.0","3X66WABAJX446NRTV4B4CIAYDN43GM","A30RAYNDOWQ61S","3UUIU9GZC5R93N292LT21FRJ9VS5TN","","null","<img src=""img/land1.png"" style=""width:200px; border:14px solid green;"">","null","","","","","","","","","",""
"","image-keyboard-response","264","151256","0.0-264.0","3X66WABAJX446NRTV4B4CIAYDN43GM","A30RAYNDOWQ61S","3UUIU9GZC5R93N292LT21FRJ9VS5TN","","570.1000000238419","img/land6.png","76","570.8999999761581","3","0","3","2","0.8,0.2,0.2,0.2,0.8,0.2,0.2,0.2,0.8","0.8,0.2,0.2,0.2,0.8,0.2,0.2,0.2,0.8","1","",""
"","html-keyboard-response","265","151557","0.0-265.0","3X66WABAJX446NRTV4B4CIAYDN43GM","A30RAYNDOWQ61S","3UUIU9GZC5R93N292LT21FRJ9VS5TN","","null","<img src=""img/land6.png"" style=""width:200px;border:14px solid red;"">","null","","","","","","","","","",""
"","image-keyboard-response","266","152249","0.0-266.0","3X66WABAJX446NRTV4B4CIAYDN43GM","A30RAYNDOWQ61S","3UUIU9GZC5R93N292LT21FRJ9VS5TN","","690.6000000238419","img/land1.png","74","691.2000000476837","1","0","1","2","0.8,0.2,0.2,0.2,0.8,0.2,0.2,0.2,0.8","0.8,0.2,0.2,0.2,0.8,0.2,0.2,0.2,0.8","1","",""
"","html-keyboard-response","267","152549","0.0-267.0","3X66WABAJX446NRTV4B4CIAYDN43GM","A30RAYNDOWQ61S","3UUIU9GZC5R93N292LT21FRJ9VS5TN","","null","<img src=""img/land1.png"" style=""width:200px;border:14px solid red;"">","null","","","","","","","","","",""
"","image-keyboard-response","268","153303","0.0-268.0","3X66WABAJX446NRTV4B4CIAYDN43GM","A30RAYNDOWQ61S","3UUIU9GZC5R93N292LT21FRJ9VS5TN","","753.6999999880791","img/land3.png","75","754.1000000238419","2","1","2","2","0.8,0.2,0.2,0.2,0.8,0.2,0.2,0.2,0.8","0.8,0.2,0.2,0.2,0.8,0.2,0.2,0.2,0.8","1","",""
"","html-keyboard-response","269","153604","0.0-269.0","3X66WABAJX446NRTV4B4CIAYDN43GM","A30RAYNDOWQ61S","3UUIU9GZC5R93N292LT21FRJ9VS5TN","","null","<img src=""img/land3.png"" style=""width:200px; border:14px solid green;"">","null","","","","","","","","","",""
"","image-keyboard-response","270","154272","0.0-270.0","3X66WABAJX446NRTV4B4CIAYDN43GM","A30RAYNDOWQ61S","3UUIU9GZC5R93N292LT21FRJ9VS5TN","","666.8000000119209","img/land1.png","74","667.3999999761581","1","1","1","2","0.8,0.2,0.2,0.2,0.8,0.2,0.2,0.2,0.8","0.8,0.2,0.2,0.2,0.8,0.2,0.2,0.2,0.8","1","",""
"","html-keyboard-response","271","154573","0.0-271.0","3X66WABAJX446NRTV4B4CIAYDN43GM","A30RAYNDOWQ61S","3UUIU9GZC5R93N292LT21FRJ9VS5TN","","null","<img src=""img/land1.png"" style=""width:200px; border:14px solid green;"">","null","","","","","","","","","",""
"","image-keyboard-response","272","154984","0.0-272.0","3X66WABAJX446NRTV4B4CIAYDN43GM","A30RAYNDOWQ61S","3UUIU9GZC5R93N292LT21FRJ9VS5TN","","410.19999998807907","img/land1.png","74","410.80000001192093","1","1","1","2","0.8,0.2,0.2,0.2,0.8,0.2,0.2,0.2,0.8","0.8,0.2,0.2,0.2,0.8,0.2,0.2,0.2,0.8","1","",""
"","html-keyboard-response","273","155285","0.0-273.0","3X66WABAJX446NRTV4B4CIAYDN43GM","A30RAYNDOWQ61S","3UUIU9GZC5R93N292LT21FRJ9VS5TN","","null","<img src=""img/land1.png"" style=""width:200px; border:14px solid green;"">","null","","","","","","","","","",""
"","image-keyboard-response","274","155904","0.0-274.0","3X66WABAJX446NRTV4B4CIAYDN43GM","A30RAYNDOWQ61S","3UUIU9GZC5R93N292LT21FRJ9VS5TN","","617.8000000119209","img/land6.png","76","618.3000000119209","3","1","3","2","0.8,0.2,0.2,0.2,0.8,0.2,0.2,0.2,0.8","0.8,0.2,0.2,0.2,0.8,0.2,0.2,0.2,0.8","1","",""
"","html-keyboard-response","275","156208","0.0-275.0","3X66WABAJX446NRTV4B4CIAYDN43GM","A30RAYNDOWQ61S","3UUIU9GZC5R93N292LT21FRJ9VS5TN","","null","<img src=""img/land6.png"" style=""width:200px; border:14px solid green;"">","null","","","","","","","","","",""
"","image-keyboard-response","276","156632","0.0-276.0","3X66WABAJX446NRTV4B4CIAYDN43GM","A30RAYNDOWQ61S","3UUIU9GZC5R93N292LT21FRJ9VS5TN","","423.10000002384186","img/land6.png","76","423.60000002384186","3","1","3","2","0.8,0.2,0.2,0.2,0.8,0.2,0.2,0.2,0.8","0.8,0.2,0.2,0.2,0.8,0.2,0.2,0.2,0.8","1","",""
"","html-keyboard-response","277","156934","0.0-277.0","3X66WABAJX446NRTV4B4CIAYDN43GM","A30RAYNDOWQ61S","3UUIU9GZC5R93N292LT21FRJ9VS5TN","","null","<img src=""img/land6.png"" style=""width:200px; border:14px solid green;"">","null","","","","","","","","","",""
"","image-keyboard-response","278","157575","0.0-278.0","3X66WABAJX446NRTV4B4CIAYDN43GM","A30RAYNDOWQ61S","3UUIU9GZC5R93N292LT21FRJ9VS5TN","","641.4000000357628","img/land1.png","74","641.8999999761581","1","1","1","2","0.8,0.2,0.2,0.2,0.8,0.2,0.2,0.2,0.8","0.8,0.2,0.2,0.2,0.8,0.2,0.2,0.2,0.8","1","",""
"","html-keyboard-response","279","157887","0.0-279.0","3X66WABAJX446NRTV4B4CIAYDN43GM","A30RAYNDOWQ61S","3UUIU9GZC5R93N292LT21FRJ9VS5TN","","null","<img src=""img/land1.png"" style=""width:200px; border:14px solid green;"">","null","","","","","","","","","",""
"","image-keyboard-response","280","158688","0.0-280.0","3X66WABAJX446NRTV4B4CIAYDN43GM","A30RAYNDOWQ61S","3UUIU9GZC5R93N292LT21FRJ9VS5TN","","799.3000000119209","img/land6.png","76","800","3","1","3","2","0.8,0.2,0.2,0.2,0.8,0.2,0.2,0.2,0.8","0.8,0.2,0.2,0.2,0.8,0.2,0.2,0.2,0.8","1","",""
"","html-keyboard-response","281","158989","0.0-281.0","3X66WABAJX446NRTV4B4CIAYDN43GM","A30RAYNDOWQ61S","3UUIU9GZC5R93N292LT21FRJ9VS5TN","","null","<img src=""img/land6.png"" style=""width:200px; border:14px solid green;"">","null","","","","","","","","","",""
"","image-keyboard-response","282","159608","0.0-282.0","3X66WABAJX446NRTV4B4CIAYDN43GM","A30RAYNDOWQ61S","3UUIU9GZC5R93N292LT21FRJ9VS5TN","","617.5999999642372","img/land1.png","74","618","1","0","1","2","0.8,0.2,0.2,0.2,0.8,0.2,0.2,0.2,0.8","0.8,0.2,0.2,0.2,0.8,0.2,0.2,0.2,0.8","1","",""
"","html-keyboard-response","283","159908","0.0-283.0","3X66WABAJX446NRTV4B4CIAYDN43GM","A30RAYNDOWQ61S","3UUIU9GZC5R93N292LT21FRJ9VS5TN","","null","<img src=""img/land1.png"" style=""width:200px;border:14px solid red;"">","null","","","","","","","","","",""
"","image-keyboard-response","284","160224","0.0-284.0","3X66WABAJX446NRTV4B4CIAYDN43GM","A30RAYNDOWQ61S","3UUIU9GZC5R93N292LT21FRJ9VS5TN","","315.30000001192093","img/land1.png","74","315.80000001192093","1","1","1","2","0.8,0.2,0.2,0.2,0.8,0.2,0.2,0.2,0.8","0.8,0.2,0.2,0.2,0.8,0.2,0.2,0.2,0.8","1","",""
"","html-keyboard-response","285","160526","0.0-285.0","3X66WABAJX446NRTV4B4CIAYDN43GM","A30RAYNDOWQ61S","3UUIU9GZC5R93N292LT21FRJ9VS5TN","","null","<img src=""img/land1.png"" style=""width:200px; border:14px solid green;"">","null","","","","","","","","","",""
"","image-keyboard-response","286","160968","0.0-286.0","3X66WABAJX446NRTV4B4CIAYDN43GM","A30RAYNDOWQ61S","3UUIU9GZC5R93N292LT21FRJ9VS5TN","","441.69999998807907","img/land1.png","74","442.19999998807907","1","1","1","2","0.8,0.2,0.2,0.2,0.8,0.2,0.2,0.2,0.8","0.8,0.2,0.2,0.2,0.8,0.2,0.2,0.2,0.8","1","",""
"","html-keyboard-response","287","161270","0.0-287.0","3X66WABAJX446NRTV4B4CIAYDN43GM","A30RAYNDOWQ61S","3UUIU9GZC5R93N292LT21FRJ9VS5TN","","null","<img src=""img/land1.png"" style=""width:200px; border:14px solid green;"">","null","","","","","","","","","",""
"","image-keyboard-response","288","161664","0.0-288.0","3X66WABAJX446NRTV4B4CIAYDN43GM","A30RAYNDOWQ61S","3UUIU9GZC5R93N292LT21FRJ9VS5TN","","393.5","img/land1.png","74","393.9000000357628","1","1","1","2","0.8,0.2,0.2,0.2,0.8,0.2,0.2,0.2,0.8","0.8,0.2,0.2,0.2,0.8,0.2,0.2,0.2,0.8","1","",""
"","html-keyboard-response","289","161965","0.0-289.0","3X66WABAJX446NRTV4B4CIAYDN43GM","A30RAYNDOWQ61S","3UUIU9GZC5R93N292LT21FRJ9VS5TN","","null","<img src=""img/land1.png"" style=""width:200px; border:14px solid green;"">","null","","","","","","","","","",""
"","image-keyboard-response","290","162519","0.0-290.0","3X66WABAJX446NRTV4B4CIAYDN43GM","A30RAYNDOWQ61S","3UUIU9GZC5R93N292LT21FRJ9VS5TN","","553.8000000119209","img/land3.png","75","554.1999999880791","2","1","2","2","0.8,0.2,0.2,0.2,0.8,0.2,0.2,0.2,0.8","0.8,0.2,0.2,0.2,0.8,0.2,0.2,0.2,0.8","1","",""
"","html-keyboard-response","291","162821","0.0-291.0","3X66WABAJX446NRTV4B4CIAYDN43GM","A30RAYNDOWQ61S","3UUIU9GZC5R93N292LT21FRJ9VS5TN","","null","<img src=""img/land3.png"" style=""width:200px; border:14px solid green;"">","null","","","","","","","","","",""
"","image-keyboard-response","292","163263","0.0-292.0","3X66WABAJX446NRTV4B4CIAYDN43GM","A30RAYNDOWQ61S","3UUIU9GZC5R93N292LT21FRJ9VS5TN","","441.69999998807907","img/land3.png","75","442.30000001192093","2","1","2","2","0.8,0.2,0.2,0.2,0.8,0.2,0.2,0.2,0.8","0.8,0.2,0.2,0.2,0.8,0.2,0.2,0.2,0.8","1","",""
"","html-keyboard-response","293","163565","0.0-293.0","3X66WABAJX446NRTV4B4CIAYDN43GM","A30RAYNDOWQ61S","3UUIU9GZC5R93N292LT21FRJ9VS5TN","","null","<img src=""img/land3.png"" style=""width:200px; border:14px solid green;"">","null","","","","","","","","","",""
"","image-keyboard-response","294","164080","0.0-294.0","3X66WABAJX446NRTV4B4CIAYDN43GM","A30RAYNDOWQ61S","3UUIU9GZC5R93N292LT21FRJ9VS5TN","","514.1000000238419","img/land6.png","76","514.5999999642372","3","0","3","2","0.8,0.2,0.2,0.2,0.8,0.2,0.2,0.2,0.8","0.8,0.2,0.2,0.2,0.8,0.2,0.2,0.2,0.8","1","",""
"","html-keyboard-response","295","164381","0.0-295.0","3X66WABAJX446NRTV4B4CIAYDN43GM","A30RAYNDOWQ61S","3UUIU9GZC5R93N292LT21FRJ9VS5TN","","null","<img src=""img/land6.png"" style=""width:200px;border:14px solid red;"">","null","","","","","","","","","",""
"","image-keyboard-response","296","164792","0.0-296.0","3X66WABAJX446NRTV4B4CIAYDN43GM","A30RAYNDOWQ61S","3UUIU9GZC5R93N292LT21FRJ9VS5TN","","410.60000002384186","img/land1.png","76","411","3","1","1","2","0.8,0.2,0.2,0.2,0.8,0.2,0.2,0.2,0.8","0.8,0.2,0.2,0.2,0.8,0.2,0.2,0.2,0.8","1","",""
"","html-keyboard-response","297","165093","0.0-297.0","3X66WABAJX446NRTV4B4CIAYDN43GM","A30RAYNDOWQ61S","3UUIU9GZC5R93N292LT21FRJ9VS5TN","","null","<img src=""img/land1.png"" style=""width:200px; border:14px solid green;"">","null","","","","","","","","","",""
"","image-keyboard-response","298","165631","0.0-298.0","3X66WABAJX446NRTV4B4CIAYDN43GM","A30RAYNDOWQ61S","3UUIU9GZC5R93N292LT21FRJ9VS5TN","","537.6999999880791","img/land1.png","74","538.0999999642372","1","1","1","2","0.8,0.2,0.2,0.2,0.8,0.2,0.2,0.2,0.8","0.8,0.2,0.2,0.2,0.8,0.2,0.2,0.2,0.8","1","",""
"","html-keyboard-response","299","165933","0.0-299.0","3X66WABAJX446NRTV4B4CIAYDN43GM","A30RAYNDOWQ61S","3UUIU9GZC5R93N292LT21FRJ9VS5TN","","null","<img src=""img/land1.png"" style=""width:200px; border:14px solid green;"">","null","","","","","","","","","",""
"","image-keyboard-response","300","166353","0.0-300.0","3X66WABAJX446NRTV4B4CIAYDN43GM","A30RAYNDOWQ61S","3UUIU9GZC5R93N292LT21FRJ9VS5TN","","419.0999999642372","img/land1.png","74","419.7000000476837","1","1","1","2","0.8,0.2,0.2,0.2,0.8,0.2,0.2,0.2,0.8","0.8,0.2,0.2,0.2,0.8,0.2,0.2,0.2,0.8","1","",""
"","html-keyboard-response","301","166654","0.0-301.0","3X66WABAJX446NRTV4B4CIAYDN43GM","A30RAYNDOWQ61S","3UUIU9GZC5R93N292LT21FRJ9VS5TN","","null","<img src=""img/land1.png"" style=""width:200px; border:14px solid green;"">","null","","","","","","","","","",""
"","image-keyboard-response","302","167855","0.0-302.0","3X66WABAJX446NRTV4B4CIAYDN43GM","A30RAYNDOWQ61S","3UUIU9GZC5R93N292LT21FRJ9VS5TN","","1200.9000000357628","img/land5.png","76","1201.3999999761581","3","0","2","1","0.8,0.2,0.2,0.2,0.8,0.2,0.2,0.2,0.8","0.8,0.2,0.2,0.2,0.8,0.2,0.2,0.2,0.8","1","",""
"","html-keyboard-response","303","168157","0.0-303.0","3X66WABAJX446NRTV4B4CIAYDN43GM","A30RAYNDOWQ61S","3UUIU9GZC5R93N292LT21FRJ9VS5TN","","null","<img src=""img/land5.png"" style=""width:200px;border:14px solid red;"">","null","","","","","","","","","",""
"","image-keyboard-response","304","168695","0.0-304.0","3X66WABAJX446NRTV4B4CIAYDN43GM","A30RAYNDOWQ61S","3UUIU9GZC5R93N292LT21FRJ9VS5TN","","537.7999999523163","img/land5.png","74","538.1999999880791","1","0","2","1","0.8,0.2,0.2,0.2,0.8,0.2,0.2,0.2,0.8","0.8,0.2,0.2,0.2,0.8,0.2,0.2,0.2,0.8","1","",""
"","html-keyboard-response","305","168996","0.0-305.0","3X66WABAJX446NRTV4B4CIAYDN43GM","A30RAYNDOWQ61S","3UUIU9GZC5R93N292LT21FRJ9VS5TN","","null","<img src=""img/land5.png"" style=""width:200px;border:14px solid red;"">","null","","","","","","","","","",""
"","image-keyboard-response","306","169696","0.0-306.0","3X66WABAJX446NRTV4B4CIAYDN43GM","A30RAYNDOWQ61S","3UUIU9GZC5R93N292LT21FRJ9VS5TN","","699.1000000238419","img/land2.png","75","699.8000000119209","2","1","1","1","0.8,0.2,0.2,0.2,0.8,0.2,0.2,0.2,0.8","0.8,0.2,0.2,0.2,0.8,0.2,0.2,0.2,0.8","1","",""
"","html-keyboard-response","307","169998","0.0-307.0","3X66WABAJX446NRTV4B4CIAYDN43GM","A30RAYNDOWQ61S","3UUIU9GZC5R93N292LT21FRJ9VS5TN","","null","<img src=""img/land2.png"" style=""width:200px; border:14px solid green;"">","null","","","","","","","","","",""
"","image-keyboard-response","308","170640","0.0-308.0","3X66WABAJX446NRTV4B4CIAYDN43GM","A30RAYNDOWQ61S","3UUIU9GZC5R93N292LT21FRJ9VS5TN","","641.2999999523163","img/land5.png","74","641.6000000238419","1","0","2","1","0.8,0.2,0.2,0.2,0.8,0.2,0.2,0.2,0.8","0.8,0.2,0.2,0.2,0.8,0.2,0.2,0.2,0.8","1","",""
"","html-keyboard-response","309","170940","0.0-309.0","3X66WABAJX446NRTV4B4CIAYDN43GM","A30RAYNDOWQ61S","3UUIU9GZC5R93N292LT21FRJ9VS5TN","","null","<img src=""img/land5.png"" style=""width:200px;border:14px solid red;"">","null","","","","","","","","","",""
"","image-keyboard-response","310","171416","0.0-310.0","3X66WABAJX446NRTV4B4CIAYDN43GM","A30RAYNDOWQ61S","3UUIU9GZC5R93N292LT21FRJ9VS5TN","","475","img/land4.png","75","475.30000001192093","2","0","3","1","0.8,0.2,0.2,0.2,0.8,0.2,0.2,0.2,0.8","0.8,0.2,0.2,0.2,0.8,0.2,0.2,0.2,0.8","1","",""
"","html-keyboard-response","311","171728","0.0-311.0","3X66WABAJX446NRTV4B4CIAYDN43GM","A30RAYNDOWQ61S","3UUIU9GZC5R93N292LT21FRJ9VS5TN","","null","<img src=""img/land4.png"" style=""width:200px;border:14px solid red;"">","null","","","","","","","","","",""
"","image-keyboard-response","312","172423","0.0-312.0","3X66WABAJX446NRTV4B4CIAYDN43GM","A30RAYNDOWQ61S","3UUIU9GZC5R93N292LT21FRJ9VS5TN","","694.4000000357628","img/land4.png","75","695","2","0","3","1","0.8,0.2,0.2,0.2,0.8,0.2,0.2,0.2,0.8","0.8,0.2,0.2,0.2,0.8,0.2,0.2,0.2,0.8","1","",""
"","html-keyboard-response","313","172724","0.0-313.0","3X66WABAJX446NRTV4B4CIAYDN43GM","A30RAYNDOWQ61S","3UUIU9GZC5R93N292LT21FRJ9VS5TN","","null","<img src=""img/land4.png"" style=""width:200px;border:14px solid red;"">","null","","","","","","","","","",""
"","image-keyboard-response","314","173104","0.0-314.0","3X66WABAJX446NRTV4B4CIAYDN43GM","A30RAYNDOWQ61S","3UUIU9GZC5R93N292LT21FRJ9VS5TN","","378.7000000476837","img/land4.png","76","379.19999998807907","3","0","3","1","0.8,0.2,0.2,0.2,0.8,0.2,0.2,0.2,0.8","0.8,0.2,0.2,0.2,0.8,0.2,0.2,0.2,0.8","1","",""
"","html-keyboard-response","315","173405","0.0-315.0","3X66WABAJX446NRTV4B4CIAYDN43GM","A30RAYNDOWQ61S","3UUIU9GZC5R93N292LT21FRJ9VS5TN","","null","<img src=""img/land4.png"" style=""width:200px;border:14px solid red;"">","null","","","","","","","","","",""
"","image-keyboard-response","316","173743","0.0-316.0","3X66WABAJX446NRTV4B4CIAYDN43GM","A30RAYNDOWQ61S","3UUIU9GZC5R93N292LT21FRJ9VS5TN","","337.4000000357628","img/land4.png","76","337.89999997615814","3","1","3","1","0.8,0.2,0.2,0.2,0.8,0.2,0.2,0.2,0.8","0.8,0.2,0.2,0.2,0.8,0.2,0.2,0.2,0.8","1","",""
"","html-keyboard-response","317","174045","0.0-317.0","3X66WABAJX446NRTV4B4CIAYDN43GM","A30RAYNDOWQ61S","3UUIU9GZC5R93N292LT21FRJ9VS5TN","","null","<img src=""img/land4.png"" style=""width:200px; border:14px solid green;"">","null","","","","","","","","","",""
"","image-keyboard-response","318","174872","0.0-318.0","3X66WABAJX446NRTV4B4CIAYDN43GM","A30RAYNDOWQ61S","3UUIU9GZC5R93N292LT21FRJ9VS5TN","","827","img/land2.png","74","827.6999999880791","1","1","1","1","0.8,0.2,0.2,0.2,0.8,0.2,0.2,0.2,0.8","0.8,0.2,0.2,0.2,0.8,0.2,0.2,0.2,0.8","1","",""
"","html-keyboard-response","319","175174","0.0-319.0","3X66WABAJX446NRTV4B4CIAYDN43GM","A30RAYNDOWQ61S","3UUIU9GZC5R93N292LT21FRJ9VS5TN","","null","<img src=""img/land2.png"" style=""width:200px; border:14px solid green;"">","null","","","","","","","","","",""
"","image-keyboard-response","320","175664","0.0-320.0","3X66WABAJX446NRTV4B4CIAYDN43GM","A30RAYNDOWQ61S","3UUIU9GZC5R93N292LT21FRJ9VS5TN","","489.30000001192093","img/land2.png","74","489.69999998807907","1","1","1","1","0.8,0.2,0.2,0.2,0.8,0.2,0.2,0.2,0.8","0.8,0.2,0.2,0.2,0.8,0.2,0.2,0.2,0.8","1","",""
"","html-keyboard-response","321","175966","0.0-321.0","3X66WABAJX446NRTV4B4CIAYDN43GM","A30RAYNDOWQ61S","3UUIU9GZC5R93N292LT21FRJ9VS5TN","","null","<img src=""img/land2.png"" style=""width:200px; border:14px solid green;"">","null","","","","","","","","","",""
"","image-keyboard-response","322","176984","0.0-322.0","3X66WABAJX446NRTV4B4CIAYDN43GM","A30RAYNDOWQ61S","3UUIU9GZC5R93N292LT21FRJ9VS5TN","","1017.6000000238419","img/land5.png","75","1018.1000000238419","2","1","2","1","0.8,0.2,0.2,0.2,0.8,0.2,0.2,0.2,0.8","0.8,0.2,0.2,0.2,0.8,0.2,0.2,0.2,0.8","1","",""
"","html-keyboard-response","323","177285","0.0-323.0","3X66WABAJX446NRTV4B4CIAYDN43GM","A30RAYNDOWQ61S","3UUIU9GZC5R93N292LT21FRJ9VS5TN","","null","<img src=""img/land5.png"" style=""width:200px; border:14px solid green;"">","null","","","","","","","","","",""
"","image-keyboard-response","324","177903","0.0-324.0","3X66WABAJX446NRTV4B4CIAYDN43GM","A30RAYNDOWQ61S","3UUIU9GZC5R93N292LT21FRJ9VS5TN","","618.3000000119209","img/land4.png","76","618.6999999880791","3","1","3","1","0.8,0.2,0.2,0.2,0.8,0.2,0.2,0.2,0.8","0.8,0.2,0.2,0.2,0.8,0.2,0.2,0.2,0.8","1","",""
"","html-keyboard-response","325","178205","0.0-325.0","3X66WABAJX446NRTV4B4CIAYDN43GM","A30RAYNDOWQ61S","3UUIU9GZC5R93N292LT21FRJ9VS5TN","","null","<img src=""img/land4.png"" style=""width:200px; border:14px solid green;"">","null","","","","","","","","","",""
"","image-keyboard-response","326","178831","0.0-326.0","3X66WABAJX446NRTV4B4CIAYDN43GM","A30RAYNDOWQ61S","3UUIU9GZC5R93N292LT21FRJ9VS5TN","","626","img/land2.png","74","626.5","1","0","1","1","0.8,0.2,0.2,0.2,0.8,0.2,0.2,0.2,0.8","0.8,0.2,0.2,0.2,0.8,0.2,0.2,0.2,0.8","1","",""
"","html-keyboard-response","327","179133","0.0-327.0","3X66WABAJX446NRTV4B4CIAYDN43GM","A30RAYNDOWQ61S","3UUIU9GZC5R93N292LT21FRJ9VS5TN","","null","<img src=""img/land2.png"" style=""width:200px;border:14px solid red;"">","null","","","","","","","","","",""
"","image-keyboard-response","328","179336","0.0-328.0","3X66WABAJX446NRTV4B4CIAYDN43GM","A30RAYNDOWQ61S","3UUIU9GZC5R93N292LT21FRJ9VS5TN","","202","img/land4.png","75","202.5","2","1","3","1","0.8,0.2,0.2,0.2,0.8,0.2,0.2,0.2,0.8","0.8,0.2,0.2,0.2,0.8,0.2,0.2,0.2,0.8","1","",""
"","html-keyboard-response","329","179637","0.0-329.0","3X66WABAJX446NRTV4B4CIAYDN43GM","A30RAYNDOWQ61S","3UUIU9GZC5R93N292LT21FRJ9VS5TN","","null","<img src=""img/land4.png"" style=""width:200px; border:14px solid green;"">","null","","","","","","","","","",""
"","image-keyboard-response","330","180343","0.0-330.0","3X66WABAJX446NRTV4B4CIAYDN43GM","A30RAYNDOWQ61S","3UUIU9GZC5R93N292LT21FRJ9VS5TN","","705.5999999642372","img/land4.png","76","706.1000000238419","3","0","3","1","0.8,0.2,0.2,0.2,0.8,0.2,0.2,0.2,0.8","0.8,0.2,0.2,0.2,0.8,0.2,0.2,0.2,0.8","1","",""
"","html-keyboard-response","331","180644","0.0-331.0","3X66WABAJX446NRTV4B4CIAYDN43GM","A30RAYNDOWQ61S","3UUIU9GZC5R93N292LT21FRJ9VS5TN","","null","<img src=""img/land4.png"" style=""width:200px;border:14px solid red;"">","null","","","","","","","","","",""
"","image-keyboard-response","332","181383","0.0-332.0","3X66WABAJX446NRTV4B4CIAYDN43GM","A30RAYNDOWQ61S","3UUIU9GZC5R93N292LT21FRJ9VS5TN","","738.5","img/land5.png","75","739.0999999642372","2","0","2","1","0.8,0.2,0.2,0.2,0.8,0.2,0.2,0.2,0.8","0.8,0.2,0.2,0.2,0.8,0.2,0.2,0.2,0.8","1","",""
"","html-keyboard-response","333","181684","0.0-333.0","3X66WABAJX446NRTV4B4CIAYDN43GM","A30RAYNDOWQ61S","3UUIU9GZC5R93N292LT21FRJ9VS5TN","","null","<img src=""img/land5.png"" style=""width:200px;border:14px solid red;"">","null","","","","","","","","","",""
"","image-keyboard-response","334","182335","0.0-334.0","3X66WABAJX446NRTV4B4CIAYDN43GM","A30RAYNDOWQ61S","3UUIU9GZC5R93N292LT21FRJ9VS5TN","","650","img/land4.png","76","650.6000000238419","3","1","3","1","0.8,0.2,0.2,0.2,0.8,0.2,0.2,0.2,0.8","0.8,0.2,0.2,0.2,0.8,0.2,0.2,0.2,0.8","1","",""
"","html-keyboard-response","335","182637","0.0-335.0","3X66WABAJX446NRTV4B4CIAYDN43GM","A30RAYNDOWQ61S","3UUIU9GZC5R93N292LT21FRJ9VS5TN","","null","<img src=""img/land4.png"" style=""width:200px; border:14px solid green;"">","null","","","","","","","","","",""
"","image-keyboard-response","336","183383","0.0-336.0","3X66WABAJX446NRTV4B4CIAYDN43GM","A30RAYNDOWQ61S","3UUIU9GZC5R93N292LT21FRJ9VS5TN","","745.5999999642372","img/land2.png","75","746.0999999642372","2","0","1","1","0.8,0.2,0.2,0.2,0.8,0.2,0.2,0.2,0.8","0.8,0.2,0.2,0.2,0.8,0.2,0.2,0.2,0.8","1","",""
"","html-keyboard-response","337","183684","0.0-337.0","3X66WABAJX446NRTV4B4CIAYDN43GM","A30RAYNDOWQ61S","3UUIU9GZC5R93N292LT21FRJ9VS5TN","","null","<img src=""img/land2.png"" style=""width:200px;border:14px solid red;"">","null","","","","","","","","","",""
"","image-keyboard-response","338","184031","0.0-338.0","3X66WABAJX446NRTV4B4CIAYDN43GM","A30RAYNDOWQ61S","3UUIU9GZC5R93N292LT21FRJ9VS5TN","","346.39999997615814","img/land5.png","75","346.7999999523163","2","1","2","1","0.8,0.2,0.2,0.2,0.8,0.2,0.2,0.2,0.8","0.8,0.2,0.2,0.2,0.8,0.2,0.2,0.2,0.8","1","",""
"","html-keyboard-response","339","184332","0.0-339.0","3X66WABAJX446NRTV4B4CIAYDN43GM","A30RAYNDOWQ61S","3UUIU9GZC5R93N292LT21FRJ9VS5TN","","null","<img src=""img/land5.png"" style=""width:200px; border:14px solid green;"">","null","","","","","","","","","",""
"","image-keyboard-response","340","185159","0.0-340.0","3X66WABAJX446NRTV4B4CIAYDN43GM","A30RAYNDOWQ61S","3UUIU9GZC5R93N292LT21FRJ9VS5TN","","826.0999999642372","img/land4.png","76","826.5999999642372","3","1","3","1","0.8,0.2,0.2,0.2,0.8,0.2,0.2,0.2,0.8","0.8,0.2,0.2,0.2,0.8,0.2,0.2,0.2,0.8","1","",""
"","html-keyboard-response","341","185461","0.0-341.0","3X66WABAJX446NRTV4B4CIAYDN43GM","A30RAYNDOWQ61S","3UUIU9GZC5R93N292LT21FRJ9VS5TN","","null","<img src=""img/land4.png"" style=""width:200px; border:14px solid green;"">","null","","","","","","","","","",""
"","image-keyboard-response","342","186664","0.0-342.0","3X66WABAJX446NRTV4B4CIAYDN43GM","A30RAYNDOWQ61S","3UUIU9GZC5R93N292LT21FRJ9VS5TN","","1202.199999988079","img/land2.png","75","1202.800000011921","2","0","1","1","0.8,0.2,0.2,0.2,0.8,0.2,0.2,0.2,0.8","0.8,0.2,0.2,0.2,0.8,0.2,0.2,0.2,0.8","1","",""
"","html-keyboard-response","343","186965","0.0-343.0","3X66WABAJX446NRTV4B4CIAYDN43GM","A30RAYNDOWQ61S","3UUIU9GZC5R93N292LT21FRJ9VS5TN","","null","<img src=""img/land2.png"" style=""width:200px;border:14px solid red;"">","null","","","","","","","","","",""
"","image-keyboard-response","344","187455","0.0-344.0","3X66WABAJX446NRTV4B4CIAYDN43GM","A30RAYNDOWQ61S","3UUIU9GZC5R93N292LT21FRJ9VS5TN","","490","img/land5.png","75","490.5","2","0","2","1","0.8,0.2,0.2,0.2,0.8,0.2,0.2,0.2,0.8","0.8,0.2,0.2,0.2,0.8,0.2,0.2,0.2,0.8","1","",""
"","html-keyboard-response","345","187757","0.0-345.0","3X66WABAJX446NRTV4B4CIAYDN43GM","A30RAYNDOWQ61S","3UUIU9GZC5R93N292LT21FRJ9VS5TN","","null","<img src=""img/land5.png"" style=""width:200px;border:14px solid red;"">","null","","","","","","","","","",""
"","image-keyboard-response","346","188440","0.0-346.0","3X66WABAJX446NRTV4B4CIAYDN43GM","A30RAYNDOWQ61S","3UUIU9GZC5R93N292LT21FRJ9VS5TN","","682.2999999523163","img/land2.png","76","682.8999999761581","3","0","1","1","0.8,0.2,0.2,0.2,0.8,0.2,0.2,0.2,0.8","0.8,0.2,0.2,0.2,0.8,0.2,0.2,0.2,0.8","1","",""
"","html-keyboard-response","347","188742","0.0-347.0","3X66WABAJX446NRTV4B4CIAYDN43GM","A30RAYNDOWQ61S","3UUIU9GZC5R93N292LT21FRJ9VS5TN","","null","<img src=""img/land2.png"" style=""width:200px;border:14px solid red;"">","null","","","","","","","","","",""
"","image-keyboard-response","348","189383","0.0-348.0","3X66WABAJX446NRTV4B4CIAYDN43GM","A30RAYNDOWQ61S","3UUIU9GZC5R93N292LT21FRJ9VS5TN","","640.6999999880791","img/land2.png","74","641.3000000119209","1","1","1","1","0.8,0.2,0.2,0.2,0.8,0.2,0.2,0.2,0.8","0.8,0.2,0.2,0.2,0.8,0.2,0.2,0.2,0.8","1","",""
"","html-keyboard-response","349","189685","0.0-349.0","3X66WABAJX446NRTV4B4CIAYDN43GM","A30RAYNDOWQ61S","3UUIU9GZC5R93N292LT21FRJ9VS5TN","","null","<img src=""img/land2.png"" style=""width:200px; border:14px solid green;"">","null","","","","","","","","","",""
"","image-keyboard-response","350","190519","0.0-350.0","3X66WABAJX446NRTV4B4CIAYDN43GM","A30RAYNDOWQ61S","3UUIU9GZC5R93N292LT21FRJ9VS5TN","","833.9000000357628","img/land5.png","75","834.2999999523163","2","1","2","1","0.8,0.2,0.2,0.2,0.8,0.2,0.2,0.2,0.8","0.8,0.2,0.2,0.2,0.8,0.2,0.2,0.2,0.8","1","",""
"","html-keyboard-response","351","190820","0.0-351.0","3X66WABAJX446NRTV4B4CIAYDN43GM","A30RAYNDOWQ61S","3UUIU9GZC5R93N292LT21FRJ9VS5TN","","null","<img src=""img/land5.png"" style=""width:200px; border:14px solid green;"">","null","","","","","","","","","",""
"","image-keyboard-response","352","191375","0.0-352.0","3X66WABAJX446NRTV4B4CIAYDN43GM","A30RAYNDOWQ61S","3UUIU9GZC5R93N292LT21FRJ9VS5TN","","555.0999999642372","img/land2.png","74","555.6999999880791","1","1","1","1","0.8,0.2,0.2,0.2,0.8,0.2,0.2,0.2,0.8","0.8,0.2,0.2,0.2,0.8,0.2,0.2,0.2,0.8","1","",""
"","html-keyboard-response","353","191677","0.0-353.0","3X66WABAJX446NRTV4B4CIAYDN43GM","A30RAYNDOWQ61S","3UUIU9GZC5R93N292LT21FRJ9VS5TN","","null","<img src=""img/land2.png"" style=""width:200px; border:14px solid green;"">","null","","","","","","","","","",""
"","image-keyboard-response","354","192303","0.0-354.0","3X66WABAJX446NRTV4B4CIAYDN43GM","A30RAYNDOWQ61S","3UUIU9GZC5R93N292LT21FRJ9VS5TN","","625.7999999523163","img/land5.png","75","626.6000000238419","2","1","2","1","0.8,0.2,0.2,0.2,0.8,0.2,0.2,0.2,0.8","0.8,0.2,0.2,0.2,0.8,0.2,0.2,0.2,0.8","1","",""
