"success","trial_type","trial_index","time_elapsed","internal_node_id","assignmentID","mturkID","hitID","view_history","rt","stimulus","key_press","reactionTime","a","r","s","cond","reward_cond","reward_cond_actual","reward_matrix_idx","responses","question_order"
"true","fullscreen","0","5293186","0.0-0.0","","","","","","","","","","","","","","","","",""
"","instructions","1","5318720","0.0-1.0","","","","[{""page_index"":0,""viewing_time"":17098.800000000745},{""page_index"":1,""viewing_time"":535.7999999988824},{""page_index"":2,""viewing_time"":352.09999999962747},{""page_index"":3,""viewing_time"":936.1000000014901},{""page_index"":4,""viewing_time"":2640},{""page_index"":5,""viewing_time"":1608.699999999255},{""page_index"":6,""viewing_time"":2359.0999999996275}]","25532","","","","","","","","","","","",""
"","image-keyboard-response","2","5320231","0.0-2.0","","","","","","img/land2.png","","1510.4000000003725","-1","0","2","2","1,0.5,0.5,0.5,1,0.5,0.5,0.5,1","1,0.5,0.5,0.5,1,0.5,0.5,0.5,1","","",""
"","html-keyboard-response","3","5320543","0.0-3.0","","","","","null","<img src=""img/land2.png"" style=""width:200px;border:14px solid red;"">","null","","","","","","","","","",""
"","image-keyboard-response","4","5321398","0.0-4.0","","","","","853.0999999996275","img/land3.png","74","854.4000000003725","1","0","3","2","1,0.5,0.5,0.5,1,0.5,0.5,0.5,1","1,0.5,0.5,0.5,1,0.5,0.5,0.5,1","","",""
"","html-keyboard-response","5","5321700","0.0-5.0","","","","","null","<img src=""img/land3.png"" style=""width:200px;border:14px solid red;"">","null","","","","","","","","","",""
"","image-keyboard-response","6","5321940","0.0-6.0","","","","","238.89999999850988","img/land1.png","74","240","1","1","1","2","1,0.5,0.5,0.5,1,0.5,0.5,0.5,1","1,0.5,0.5,0.5,1,0.5,0.5,0.5,1","","",""
"","html-keyboard-response","7","5322247","0.0-7.0","","","","","null","<img src=""img/land1.png"" style=""width:200px; border:14px solid green;"">","null","","","","","","","","","",""
"","image-keyboard-response","8","5322884","0.0-8.0","","","","","636.6999999992549","img/land2.png","74","637.6999999992549","1","1","2","2","1,0.5,0.5,0.5,1,0.5,0.5,0.5,1","1,0.5,0.5,0.5,1,0.5,0.5,0.5,1","","",""
"","html-keyboard-response","9","5323189","0.0-9.0","","","","","null","<img src=""img/land2.png"" style=""width:200px; border:14px solid green;"">","null","","","","","","","","","",""
"","image-keyboard-response","10","5323396","0.0-10.0","","","","","206.5","img/land3.png","76","207.59999999962747","3","1","3","2","1,0.5,0.5,0.5,1,0.5,0.5,0.5,1","1,0.5,0.5,0.5,1,0.5,0.5,0.5,1","","",""
"","html-keyboard-response","11","5323702","0.0-11.0","","","","","null","<img src=""img/land3.png"" style=""width:200px; border:14px solid green;"">","null","","","","","","","","","",""
"","image-keyboard-response","12","5323749","0.0-12.0","","","","","45.100000001490116","img/land2.png","74","46","1","0","2","2","1,0.5,0.5,0.5,1,0.5,0.5,0.5,1","1,0.5,0.5,0.5,1,0.5,0.5,0.5,1","","",""
"","html-keyboard-response","13","5324051","0.0-13.0","","","","","null","<img src=""img/land2.png"" style=""width:200px;border:14px solid red;"">","null","","","","","","","","","",""
"","image-keyboard-response","14","5324082","0.0-14.0","","","","","0.40000000037252903","img/land2.png","75","30","2","1","2","2","1,0.5,0.5,0.5,1,0.5,0.5,0.5,1","1,0.5,0.5,0.5,1,0.5,0.5,0.5,1","","",""
"","html-keyboard-response","15","5324388","0.0-15.0","","","","","null","<img src=""img/land2.png"" style=""width:200px; border:14px solid green;"">","null","","","","","","","","","",""
"","image-keyboard-response","16","5324500","0.0-16.0","","","","","111.30000000074506","img/land1.png","74","112.29999999888241","1","1","1","2","1,0.5,0.5,0.5,1,0.5,0.5,0.5,1","1,0.5,0.5,0.5,1,0.5,0.5,0.5,1","","",""
"","html-keyboard-response","17","5324806","0.0-17.0","","","","","null","<img src=""img/land1.png"" style=""width:200px; border:14px solid green;"">","null","","","","","","","","","",""
"","image-keyboard-response","18","5324900","0.0-18.0","","","","","92.90000000037253","img/land2.png","76","94","3","0","2","2","1,0.5,0.5,0.5,1,0.5,0.5,0.5,1","1,0.5,0.5,0.5,1,0.5,0.5,0.5,1","","",""
"","html-keyboard-response","19","5325204","0.0-19.0","","","","","null","<img src=""img/land2.png"" style=""width:200px;border:14px solid red;"">","null","","","","","","","","","",""
"","image-keyboard-response","20","5325284","0.0-20.0","","","","","79.20000000111759","img/land3.png","74","80.10000000149012","1","1","3","2","1,0.5,0.5,0.5,1,0.5,0.5,0.5,1","1,0.5,0.5,0.5,1,0.5,0.5,0.5,1","","",""
"","html-keyboard-response","21","5325588","0.0-21.0","","","","","null","<img src=""img/land3.png"" style=""width:200px; border:14px solid green;"">","null","","","","","","","","","",""
"","image-keyboard-response","22","5325684","0.0-22.0","","","","","95","img/land3.png","76","96","3","1","3","2","1,0.5,0.5,0.5,1,0.5,0.5,0.5,1","1,0.5,0.5,0.5,1,0.5,0.5,0.5,1","","",""
"","html-keyboard-response","23","5325990","0.0-23.0","","","","","null","<img src=""img/land3.png"" style=""width:200px; border:14px solid green;"">","null","","","","","","","","","",""
"","image-keyboard-response","24","5326100","0.0-24.0","","","","","109.80000000074506","img/land1.png","75","110.69999999925494","2","0","1","2","1,0.5,0.5,0.5,1,0.5,0.5,0.5,1","1,0.5,0.5,0.5,1,0.5,0.5,0.5,1","","",""
"","html-keyboard-response","25","5326415","0.0-25.0","","","","","null","<img src=""img/land1.png"" style=""width:200px;border:14px solid red;"">","null","","","","","","","","","",""
"","image-keyboard-response","26","5326708","0.0-26.0","","","","","292.80000000074506","img/land3.png","74","293.7000000011176","1","0","3","2","1,0.5,0.5,0.5,1,0.5,0.5,0.5,1","1,0.5,0.5,0.5,1,0.5,0.5,0.5,1","","",""
"","html-keyboard-response","27","5327015","0.0-27.0","","","","","null","<img src=""img/land3.png"" style=""width:200px;border:14px solid red;"">","null","","","","","","","","","",""
"","image-keyboard-response","28","5327028","0.0-28.0","","","","","12.900000000372529","img/land3.png","74","13.800000000745058","1","0","3","2","1,0.5,0.5,0.5,1,0.5,0.5,0.5,1","1,0.5,0.5,0.5,1,0.5,0.5,0.5,1","","",""
"","html-keyboard-response","29","5327331","0.0-29.0","","","","","null","<img src=""img/land3.png"" style=""width:200px;border:14px solid red;"">","null","","","","","","","","","",""
"","image-keyboard-response","30","5327364","0.0-30.0","","","","","33","img/land2.png","75","33.69999999925494","2","1","2","2","1,0.5,0.5,0.5,1,0.5,0.5,0.5,1","1,0.5,0.5,0.5,1,0.5,0.5,0.5,1","","",""
"","html-keyboard-response","31","5327666","0.0-31.0","","","","","null","<img src=""img/land2.png"" style=""width:200px; border:14px solid green;"">","null","","","","","","","","","",""
"","image-keyboard-response","32","5327685","0.0-32.0","","","","","18.5","img/land3.png","75","19.5","2","1","3","2","1,0.5,0.5,0.5,1,0.5,0.5,0.5,1","1,0.5,0.5,0.5,1,0.5,0.5,0.5,1","","",""
"","html-keyboard-response","33","5327988","0.0-33.0","","","","","null","<img src=""img/land3.png"" style=""width:200px; border:14px solid green;"">","null","","","","","","","","","",""
"","image-keyboard-response","34","5328036","0.0-34.0","","","","","47.59999999962747","img/land3.png","74","48.600000001490116","1","0","3","2","1,0.5,0.5,0.5,1,0.5,0.5,0.5,1","1,0.5,0.5,0.5,1,0.5,0.5,0.5,1","","",""
"","html-keyboard-response","35","5328338","0.0-35.0","","","","","null","<img src=""img/land3.png"" style=""width:200px;border:14px solid red;"">","null","","","","","","","","","",""
"","image-keyboard-response","36","5328388","0.0-36.0","","","","","49.70000000111759","img/land3.png","74","50.80000000074506","1","1","3","2","1,0.5,0.5,0.5,1,0.5,0.5,0.5,1","1,0.5,0.5,0.5,1,0.5,0.5,0.5,1","","",""
"","html-keyboard-response","37","5328690","0.0-37.0","","","","","null","<img src=""img/land3.png"" style=""width:200px; border:14px solid green;"">","null","","","","","","","","","",""
"","image-keyboard-response","38","5328724","0.0-38.0","","","","","33.20000000111759","img/land3.png","74","34.20000000111759","1","1","3","2","1,0.5,0.5,0.5,1,0.5,0.5,0.5,1","1,0.5,0.5,0.5,1,0.5,0.5,0.5,1","","",""
"","html-keyboard-response","39","5329026","0.0-39.0","","","","","null","<img src=""img/land3.png"" style=""width:200px; border:14px solid green;"">","null","","","","","","","","","",""
"","image-keyboard-response","40","5329060","0.0-40.0","","","","","33.30000000074506","img/land1.png","74","34.40000000037253","1","1","1","2","1,0.5,0.5,0.5,1,0.5,0.5,0.5,1","1,0.5,0.5,0.5,1,0.5,0.5,0.5,1","","",""
"","html-keyboard-response","41","5329362","0.0-41.0","","","","","null","<img src=""img/land1.png"" style=""width:200px; border:14px solid green;"">","null","","","","","","","","","",""
"","image-keyboard-response","42","5329368","0.0-42.0","","","","","4.199999999254942","img/land2.png","74","5.199999999254942","1","1","2","2","1,0.5,0.5,0.5,1,0.5,0.5,0.5,1","1,0.5,0.5,0.5,1,0.5,0.5,0.5,1","","",""
"","html-keyboard-response","43","5329670","0.0-43.0","","","","","null","<img src=""img/land2.png"" style=""width:200px; border:14px solid green;"">","null","","","","","","","","","",""
"","image-keyboard-response","44","5329716","0.0-44.0","","","","","45.40000000037253","img/land2.png","74","46.30000000074506","1","0","2","2","1,0.5,0.5,0.5,1,0.5,0.5,0.5,1","1,0.5,0.5,0.5,1,0.5,0.5,0.5,1","","",""
"","html-keyboard-response","45","5330018","0.0-45.0","","","","","null","<img src=""img/land2.png"" style=""width:200px;border:14px solid red;"">","null","","","","","","","","","",""
"","image-keyboard-response","46","5330052","0.0-46.0","","","","","33.20000000111759","img/land3.png","74","34.19999999925494","1","1","3","2","1,0.5,0.5,0.5,1,0.5,0.5,0.5,1","1,0.5,0.5,0.5,1,0.5,0.5,0.5,1","","",""
"","html-keyboard-response","47","5330354","0.0-47.0","","","","","null","<img src=""img/land3.png"" style=""width:200px; border:14px solid green;"">","null","","","","","","","","","",""
"","image-keyboard-response","48","5330404","0.0-48.0","","","","","49.30000000074506","img/land3.png","74","50.09999999962747","1","0","3","2","1,0.5,0.5,0.5,1,0.5,0.5,0.5,1","1,0.5,0.5,0.5,1,0.5,0.5,0.5,1","","",""
"","html-keyboard-response","49","5330707","0.0-49.0","","","","","null","<img src=""img/land3.png"" style=""width:200px;border:14px solid red;"">","null","","","","","","","","","",""
"","image-keyboard-response","50","5330756","0.0-50.0","","","","","48.80000000074506","img/land3.png","74","49.70000000111759","1","0","3","2","1,0.5,0.5,0.5,1,0.5,0.5,0.5,1","1,0.5,0.5,0.5,1,0.5,0.5,0.5,1","","",""
"","html-keyboard-response","51","5331058","0.0-51.0","","","","","null","<img src=""img/land3.png"" style=""width:200px;border:14px solid red;"">","null","","","","","","","","","",""
"","image-keyboard-response","52","5331092","0.0-52.0","","","","","33.30000000074506","img/land2.png","74","34.09999999962747","1","0","2","2","1,0.5,0.5,0.5,1,0.5,0.5,0.5,1","1,0.5,0.5,0.5,1,0.5,0.5,0.5,1","","",""
"","html-keyboard-response","53","5331394","0.0-53.0","","","","","null","<img src=""img/land2.png"" style=""width:200px;border:14px solid red;"">","null","","","","","","","","","",""
"","image-keyboard-response","54","5331428","0.0-54.0","","","","","33.80000000074506","img/land3.png","74","34.70000000111759","1","1","3","2","1,0.5,0.5,0.5,1,0.5,0.5,0.5,1","1,0.5,0.5,0.5,1,0.5,0.5,0.5,1","","",""
"","html-keyboard-response","55","5331730","0.0-55.0","","","","","null","<img src=""img/land3.png"" style=""width:200px; border:14px solid green;"">","null","","","","","","","","","",""
"","image-keyboard-response","56","5331796","0.0-56.0","","","","","65.30000000074506","img/land3.png","74","66.29999999888241","1","0","3","2","1,0.5,0.5,0.5,1,0.5,0.5,0.5,1","1,0.5,0.5,0.5,1,0.5,0.5,0.5,1","","",""
"","html-keyboard-response","57","5332098","0.0-57.0","","","","","null","<img src=""img/land3.png"" style=""width:200px;border:14px solid red;"">","null","","","","","","","","","",""
"","image-keyboard-response","58","5332132","0.0-58.0","","","","","33.5","img/land1.png","76","34.40000000037253","3","0","1","2","1,0.5,0.5,0.5,1,0.5,0.5,0.5,1","1,0.5,0.5,0.5,1,0.5,0.5,0.5,1","","",""
"","html-keyboard-response","59","5332434","0.0-59.0","","","","","null","<img src=""img/land1.png"" style=""width:200px;border:14px solid red;"">","null","","","","","","","","","",""
"","image-keyboard-response","60","5332501","0.0-60.0","","","","","65.80000000074506","img/land2.png","75","66.60000000149012","2","1","2","2","1,0.5,0.5,0.5,1,0.5,0.5,0.5,1","1,0.5,0.5,0.5,1,0.5,0.5,0.5,1","","",""
"","html-keyboard-response","61","5332802","0.0-61.0","","","","","null","<img src=""img/land2.png"" style=""width:200px; border:14px solid green;"">","null","","","","","","","","","",""
"","image-keyboard-response","62","5332900","0.0-62.0","","","","","96.80000000074506","img/land3.png","75","97.69999999925494","2","1","3","2","1,0.5,0.5,0.5,1,0.5,0.5,0.5,1","1,0.5,0.5,0.5,1,0.5,0.5,0.5,1","","",""
"","html-keyboard-response","63","5333202","0.0-63.0","","","","","null","<img src=""img/land3.png"" style=""width:200px; border:14px solid green;"">","null","","","","","","","","","",""
"","image-keyboard-response","64","5333252","0.0-64.0","","","","","49.70000000111759","img/land2.png","75","50.70000000111759","2","1","2","2","1,0.5,0.5,0.5,1,0.5,0.5,0.5,1","1,0.5,0.5,0.5,1,0.5,0.5,0.5,1","","",""
"","html-keyboard-response","65","5333555","0.0-65.0","","","","","null","<img src=""img/land2.png"" style=""width:200px; border:14px solid green;"">","null","","","","","","","","","",""
"","image-keyboard-response","66","5333605","0.0-66.0","","","","","48.80000000074506","img/land3.png","75","49.90000000037253","2","1","3","2","1,0.5,0.5,0.5,1,0.5,0.5,0.5,1","1,0.5,0.5,0.5,1,0.5,0.5,0.5,1","","",""
"","html-keyboard-response","67","5333906","0.0-67.0","","","","","null","<img src=""img/land3.png"" style=""width:200px; border:14px solid green;"">","null","","","","","","","","","",""
"","image-keyboard-response","68","5333925","0.0-68.0","","","","","17.700000001117587","img/land3.png","74","18.59999999962747","1","1","3","2","1,0.5,0.5,0.5,1,0.5,0.5,0.5,1","1,0.5,0.5,0.5,1,0.5,0.5,0.5,1","","",""
"","html-keyboard-response","69","5334226","0.0-69.0","","","","","null","<img src=""img/land3.png"" style=""width:200px; border:14px solid green;"">","null","","","","","","","","","",""
"","image-keyboard-response","70","5334292","0.0-70.0","","","","","64.90000000037253","img/land3.png","74","65.89999999850988","1","0","3","2","1,0.5,0.5,0.5,1,0.5,0.5,0.5,1","1,0.5,0.5,0.5,1,0.5,0.5,0.5,1","","",""
"","html-keyboard-response","71","5334594","0.0-71.0","","","","","null","<img src=""img/land3.png"" style=""width:200px;border:14px solid red;"">","null","","","","","","","","","",""
"","image-keyboard-response","72","5334628","0.0-72.0","","","","","33.30000000074506","img/land3.png","74","34.19999999925494","1","1","3","2","1,0.5,0.5,0.5,1,0.5,0.5,0.5,1","1,0.5,0.5,0.5,1,0.5,0.5,0.5,1","","",""
"","html-keyboard-response","73","5334930","0.0-73.0","","","","","null","<img src=""img/land3.png"" style=""width:200px; border:14px solid green;"">","null","","","","","","","","","",""
"","image-keyboard-response","74","5335076","0.0-74.0","","","","","145.69999999925494","img/land3.png","75","146.7999999988824","2","0","3","2","1,0.5,0.5,0.5,1,0.5,0.5,0.5,1","1,0.5,0.5,0.5,1,0.5,0.5,0.5,1","","",""
"","html-keyboard-response","75","5335378","0.0-75.0","","","","","null","<img src=""img/land3.png"" style=""width:200px;border:14px solid red;"">","null","","","","","","","","","",""
"","image-keyboard-response","76","5335460","0.0-76.0","","","","","81.20000000111759","img/land1.png","75","82.19999999925494","2","0","1","2","1,0.5,0.5,0.5,1,0.5,0.5,0.5,1","1,0.5,0.5,0.5,1,0.5,0.5,0.5,1","","",""
"","html-keyboard-response","77","5335762","0.0-77.0","","","","","null","<img src=""img/land1.png"" style=""width:200px;border:14px solid red;"">","null","","","","","","","","","",""
"","image-keyboard-response","78","5335828","0.0-78.0","","","","","65.5","img/land3.png","76","66.69999999925494","3","1","3","2","1,0.5,0.5,0.5,1,0.5,0.5,0.5,1","1,0.5,0.5,0.5,1,0.5,0.5,0.5,1","","",""
"","html-keyboard-response","79","5336130","0.0-79.0","","","","","null","<img src=""img/land3.png"" style=""width:200px; border:14px solid green;"">","null","","","","","","","","","",""
"","image-keyboard-response","80","5336228","0.0-80.0","","","","","97.30000000074506","img/land3.png","75","98.19999999925494","2","0","3","2","1,0.5,0.5,0.5,1,0.5,0.5,0.5,1","1,0.5,0.5,0.5,1,0.5,0.5,0.5,1","","",""
"","html-keyboard-response","81","5336530","0.0-81.0","","","","","null","<img src=""img/land3.png"" style=""width:200px;border:14px solid red;"">","null","","","","","","","","","",""
"","image-keyboard-response","82","5336708","0.0-82.0","","","","","177.40000000037253","img/land3.png","74","178.40000000037253","1","0","3","2","1,0.5,0.5,0.5,1,0.5,0.5,0.5,1","1,0.5,0.5,0.5,1,0.5,0.5,0.5,1","","",""
"","html-keyboard-response","83","5337011","0.0-83.0","","","","","null","<img src=""img/land3.png"" style=""width:200px;border:14px solid red;"">","null","","","","","","","","","",""
"","image-keyboard-response","84","5337124","0.0-84.0","","","","","112.39999999850988","img/land2.png","74","113.69999999925494","1","1","2","2","1,0.5,0.5,0.5,1,0.5,0.5,0.5,1","1,0.5,0.5,0.5,1,0.5,0.5,0.5,1","","",""
"","html-keyboard-response","85","5337426","0.0-85.0","","","","","null","<img src=""img/land2.png"" style=""width:200px; border:14px solid green;"">","null","","","","","","","","","",""
"","image-keyboard-response","86","5337524","0.0-86.0","","","","","96.79999999888241","img/land2.png","76","97.89999999850988","3","1","2","2","1,0.5,0.5,0.5,1,0.5,0.5,0.5,1","1,0.5,0.5,0.5,1,0.5,0.5,0.5,1","","",""
"","html-keyboard-response","87","5337826","0.0-87.0","","","","","null","<img src=""img/land2.png"" style=""width:200px; border:14px solid green;"">","null","","","","","","","","","",""
"","image-keyboard-response","88","5337892","0.0-88.0","","","","","64.69999999925494","img/land3.png","76","65.79999999888241","3","1","3","2","1,0.5,0.5,0.5,1,0.5,0.5,0.5,1","1,0.5,0.5,0.5,1,0.5,0.5,0.5,1","","",""
"","html-keyboard-response","89","5338194","0.0-89.0","","","","","null","<img src=""img/land3.png"" style=""width:200px; border:14px solid green;"">","null","","","","","","","","","",""
"","image-keyboard-response","90","5338260","0.0-90.0","","","","","65.20000000111759","img/land3.png","76","66.19999999925494","3","1","3","2","1,0.5,0.5,0.5,1,0.5,0.5,0.5,1","1,0.5,0.5,0.5,1,0.5,0.5,0.5,1","","",""
"","html-keyboard-response","91","5338562","0.0-91.0","","","","","null","<img src=""img/land3.png"" style=""width:200px; border:14px solid green;"">","null","","","","","","","","","",""
"","image-keyboard-response","92","5338644","0.0-92.0","","","","","81.30000000074506","img/land1.png","74","82.30000000074506","1","1","1","2","1,0.5,0.5,0.5,1,0.5,0.5,0.5,1","1,0.5,0.5,0.5,1,0.5,0.5,0.5,1","","",""
"","html-keyboard-response","93","5338946","0.0-93.0","","","","","null","<img src=""img/land1.png"" style=""width:200px; border:14px solid green;"">","null","","","","","","","","","",""
"","image-keyboard-response","94","5339028","0.0-94.0","","","","","81.19999999925494","img/land3.png","76","82.19999999925494","3","1","3","2","1,0.5,0.5,0.5,1,0.5,0.5,0.5,1","1,0.5,0.5,0.5,1,0.5,0.5,0.5,1","","",""
"","html-keyboard-response","95","5339330","0.0-95.0","","","","","null","<img src=""img/land3.png"" style=""width:200px; border:14px solid green;"">","null","","","","","","","","","",""
"","image-keyboard-response","96","5339412","0.0-96.0","","","","","81.09999999962747","img/land1.png","76","82.19999999925494","3","1","1","2","1,0.5,0.5,0.5,1,0.5,0.5,0.5,1","1,0.5,0.5,0.5,1,0.5,0.5,0.5,1","","",""
"","html-keyboard-response","97","5339714","0.0-97.0","","","","","null","<img src=""img/land1.png"" style=""width:200px; border:14px solid green;"">","null","","","","","","","","","",""
"","image-keyboard-response","98","5339780","0.0-98.0","","","","","65.19999999925494","img/land3.png","76","66.29999999888241","3","1","3","2","1,0.5,0.5,0.5,1,0.5,0.5,0.5,1","1,0.5,0.5,0.5,1,0.5,0.5,0.5,1","","",""
"","html-keyboard-response","99","5340083","0.0-99.0","","","","","null","<img src=""img/land3.png"" style=""width:200px; border:14px solid green;"">","null","","","","","","","","","",""
"","image-keyboard-response","100","5340148","0.0-100.0","","","","","64.29999999888241","img/land2.png","76","65.39999999850988","3","0","2","2","1,0.5,0.5,0.5,1,0.5,0.5,0.5,1","1,0.5,0.5,0.5,1,0.5,0.5,0.5,1","","",""
"","html-keyboard-response","101","5340451","0.0-101.0","","","","","null","<img src=""img/land2.png"" style=""width:200px;border:14px solid red;"">","null","","","","","","","","","",""
"","image-keyboard-response","102","5340532","0.0-102.0","","","","","80.19999999925494","img/land3.png","76","81.19999999925494","3","1","3","2","1,0.5,0.5,0.5,1,0.5,0.5,0.5,1","1,0.5,0.5,0.5,1,0.5,0.5,0.5,1","","",""
"","html-keyboard-response","103","5340834","0.0-103.0","","","","","null","<img src=""img/land3.png"" style=""width:200px; border:14px solid green;"">","null","","","","","","","","","",""
"","image-keyboard-response","104","5340916","0.0-104.0","","","","","81.40000000037253","img/land3.png","76","82.09999999962747","3","1","3","2","1,0.5,0.5,0.5,1,0.5,0.5,0.5,1","1,0.5,0.5,0.5,1,0.5,0.5,0.5,1","","",""
"","html-keyboard-response","105","5341218","0.0-105.0","","","","","null","<img src=""img/land3.png"" style=""width:200px; border:14px solid green;"">","null","","","","","","","","","",""
"","image-keyboard-response","106","5341300","0.0-106.0","","","","","81.19999999925494","img/land3.png","76","82.09999999962747","3","1","3","2","1,0.5,0.5,0.5,1,0.5,0.5,0.5,1","1,0.5,0.5,0.5,1,0.5,0.5,0.5,1","","",""
"","html-keyboard-response","107","5341601","0.0-107.0","","","","","null","<img src=""img/land3.png"" style=""width:200px; border:14px solid green;"">","null","","","","","","","","","",""
"","image-keyboard-response","108","5341684","0.0-108.0","","","","","81.69999999925494","img/land3.png","76","82.69999999925494","3","1","3","2","1,0.5,0.5,0.5,1,0.5,0.5,0.5,1","1,0.5,0.5,0.5,1,0.5,0.5,0.5,1","","",""
"","html-keyboard-response","109","5341986","0.0-109.0","","","","","null","<img src=""img/land3.png"" style=""width:200px; border:14px solid green;"">","null","","","","","","","","","",""
"","image-keyboard-response","110","5342244","0.0-110.0","","","","","257.2999999988824","img/land3.png","76","258.3999999985099","3","1","3","2","1,0.5,0.5,0.5,1,0.5,0.5,0.5,1","1,0.5,0.5,0.5,1,0.5,0.5,0.5,1","","",""
"","html-keyboard-response","111","5342547","0.0-111.0","","","","","null","<img src=""img/land3.png"" style=""width:200px; border:14px solid green;"">","null","","","","","","","","","",""
"","image-keyboard-response","112","5342612","0.0-112.0","","","","","64.5","img/land1.png","76","65.5","3","1","1","2","1,0.5,0.5,0.5,1,0.5,0.5,0.5,1","1,0.5,0.5,0.5,1,0.5,0.5,0.5,1","","",""
"","html-keyboard-response","113","5342915","0.0-113.0","","","","","null","<img src=""img/land1.png"" style=""width:200px; border:14px solid green;"">","null","","","","","","","","","",""
"","image-keyboard-response","114","5342997","0.0-114.0","","","","","80.40000000037253","img/land3.png","76","81.40000000037253","3","1","3","2","1,0.5,0.5,0.5,1,0.5,0.5,0.5,1","1,0.5,0.5,0.5,1,0.5,0.5,0.5,1","","",""
"","html-keyboard-response","115","5343299","0.0-115.0","","","","","null","<img src=""img/land3.png"" style=""width:200px; border:14px solid green;"">","null","","","","","","","","","",""
"","image-keyboard-response","116","5343364","0.0-116.0","","","","","64.5","img/land3.png","76","65.40000000037253","3","1","3","2","1,0.5,0.5,0.5,1,0.5,0.5,0.5,1","1,0.5,0.5,0.5,1,0.5,0.5,0.5,1","","",""
"","html-keyboard-response","117","5343666","0.0-117.0","","","","","null","<img src=""img/land3.png"" style=""width:200px; border:14px solid green;"">","null","","","","","","","","","",""
"","image-keyboard-response","118","5343732","0.0-118.0","","","","","65.19999999925494","img/land2.png","76","66.19999999925494","3","0","2","2","1,0.5,0.5,0.5,1,0.5,0.5,0.5,1","1,0.5,0.5,0.5,1,0.5,0.5,0.5,1","","",""
"","html-keyboard-response","119","5344034","0.0-119.0","","","","","null","<img src=""img/land2.png"" style=""width:200px;border:14px solid red;"">","null","","","","","","","","","",""
"","image-keyboard-response","120","5344116","0.0-120.0","","","","","81.09999999962747","img/land2.png","76","82.19999999925494","3","0","2","2","1,0.5,0.5,0.5,1,0.5,0.5,0.5,1","1,0.5,0.5,0.5,1,0.5,0.5,0.5,1","","",""
"","html-keyboard-response","121","5344418","0.0-121.0","","","","","null","<img src=""img/land2.png"" style=""width:200px;border:14px solid red;"">","null","","","","","","","","","",""
"","image-keyboard-response","122","5344484","0.0-122.0","","","","","65.30000000074506","img/land3.png","76","66.19999999925494","3","1","3","2","1,0.5,0.5,0.5,1,0.5,0.5,0.5,1","1,0.5,0.5,0.5,1,0.5,0.5,0.5,1","","",""
"","html-keyboard-response","123","5344786","0.0-123.0","","","","","null","<img src=""img/land3.png"" style=""width:200px; border:14px solid green;"">","null","","","","","","","","","",""
"","image-keyboard-response","124","5344804","0.0-124.0","","","","","16.699999999254942","img/land1.png","76","17.799999998882413","3","1","1","2","1,0.5,0.5,0.5,1,0.5,0.5,0.5,1","1,0.5,0.5,0.5,1,0.5,0.5,0.5,1","","",""
"","html-keyboard-response","125","5345106","0.0-125.0","","","","","null","<img src=""img/land1.png"" style=""width:200px; border:14px solid green;"">","null","","","","","","","","","",""
"","image-keyboard-response","126","5345189","0.0-126.0","","","","","81.70000000111759","img/land2.png","76","82.60000000149012","3","0","2","2","1,0.5,0.5,0.5,1,0.5,0.5,0.5,1","1,0.5,0.5,0.5,1,0.5,0.5,0.5,1","","",""
"","html-keyboard-response","127","5345490","0.0-127.0","","","","","null","<img src=""img/land2.png"" style=""width:200px;border:14px solid red;"">","null","","","","","","","","","",""
"","image-keyboard-response","128","5345540","0.0-128.0","","","","","48.79999999888241","img/land2.png","76","49.79999999888241","3","1","2","2","1,0.5,0.5,0.5,1,0.5,0.5,0.5,1","1,0.5,0.5,0.5,1,0.5,0.5,0.5,1","","",""
"","html-keyboard-response","129","5345842","0.0-129.0","","","","","null","<img src=""img/land2.png"" style=""width:200px; border:14px solid green;"">","null","","","","","","","","","",""
"","image-keyboard-response","130","5345892","0.0-130.0","","","","","49.19999999925494","img/land2.png","76","50.29999999888241","3","0","2","2","1,0.5,0.5,0.5,1,0.5,0.5,0.5,1","1,0.5,0.5,0.5,1,0.5,0.5,0.5,1","","",""
"","html-keyboard-response","131","5346195","0.0-131.0","","","","","null","<img src=""img/land2.png"" style=""width:200px;border:14px solid red;"">","null","","","","","","","","","",""
"","image-keyboard-response","132","5346244","0.0-132.0","","","","","48.5","img/land3.png","76","49.80000000074506","3","1","3","2","1,0.5,0.5,0.5,1,0.5,0.5,0.5,1","1,0.5,0.5,0.5,1,0.5,0.5,0.5,1","","",""
"","html-keyboard-response","133","5346547","0.0-133.0","","","","","null","<img src=""img/land3.png"" style=""width:200px; border:14px solid green;"">","null","","","","","","","","","",""
"","image-keyboard-response","134","5346612","0.0-134.0","","","","","64.69999999925494","img/land1.png","76","65.79999999888241","3","1","1","2","1,0.5,0.5,0.5,1,0.5,0.5,0.5,1","1,0.5,0.5,0.5,1,0.5,0.5,0.5,1","","",""
"","html-keyboard-response","135","5346925","0.0-135.0","","","","","null","<img src=""img/land1.png"" style=""width:200px; border:14px solid green;"">","null","","","","","","","","","",""
"","image-keyboard-response","136","5346948","0.0-136.0","","","","","22.199999999254942","img/land3.png","76","23.199999999254942","3","1","3","2","1,0.5,0.5,0.5,1,0.5,0.5,0.5,1","1,0.5,0.5,0.5,1,0.5,0.5,0.5,1","","",""
"","html-keyboard-response","137","5347250","0.0-137.0","","","","","null","<img src=""img/land3.png"" style=""width:200px; border:14px solid green;"">","null","","","","","","","","","",""
"","image-keyboard-response","138","5347332","0.0-138.0","","","","","81.29999999888241","img/land3.png","76","82.29999999888241","3","1","3","2","1,0.5,0.5,0.5,1,0.5,0.5,0.5,1","1,0.5,0.5,0.5,1,0.5,0.5,0.5,1","","",""
"","html-keyboard-response","139","5347634","0.0-139.0","","","","","null","<img src=""img/land3.png"" style=""width:200px; border:14px solid green;"">","null","","","","","","","","","",""
"","image-keyboard-response","140","5347700","0.0-140.0","","","","","65.39999999850988","img/land3.png","76","66.29999999888241","3","1","3","2","1,0.5,0.5,0.5,1,0.5,0.5,0.5,1","1,0.5,0.5,0.5,1,0.5,0.5,0.5,1","","",""
"","html-keyboard-response","141","5348002","0.0-141.0","","","","","null","<img src=""img/land3.png"" style=""width:200px; border:14px solid green;"">","null","","","","","","","","","",""
"","image-keyboard-response","142","5348052","0.0-142.0","","","","","49.09999999962747","img/land3.png","76","50","3","1","3","2","1,0.5,0.5,0.5,1,0.5,0.5,0.5,1","1,0.5,0.5,0.5,1,0.5,0.5,0.5,1","","",""
"","html-keyboard-response","143","5348355","0.0-143.0","","","","","null","<img src=""img/land3.png"" style=""width:200px; border:14px solid green;"">","null","","","","","","","","","",""
"","image-keyboard-response","144","5348404","0.0-144.0","","","","","48.09999999962747","img/land2.png","76","49.5","3","1","2","2","1,0.5,0.5,0.5,1,0.5,0.5,0.5,1","1,0.5,0.5,0.5,1,0.5,0.5,0.5,1","","",""
"","html-keyboard-response","145","5348706","0.0-145.0","","","","","null","<img src=""img/land2.png"" style=""width:200px; border:14px solid green;"">","null","","","","","","","","","",""
"","image-keyboard-response","146","5348740","0.0-146.0","","","","","33.59999999962747","img/land1.png","74","34.5","1","1","1","2","1,0.5,0.5,0.5,1,0.5,0.5,0.5,1","1,0.5,0.5,0.5,1,0.5,0.5,0.5,1","","",""
"","html-keyboard-response","147","5349042","0.0-147.0","","","","","null","<img src=""img/land1.png"" style=""width:200px; border:14px solid green;"">","null","","","","","","","","","",""
"","image-keyboard-response","148","5349124","0.0-148.0","","","","","81.5","img/land3.png","76","82.59999999962747","3","1","3","2","1,0.5,0.5,0.5,1,0.5,0.5,0.5,1","1,0.5,0.5,0.5,1,0.5,0.5,0.5,1","","",""
"","html-keyboard-response","149","5349426","0.0-149.0","","","","","null","<img src=""img/land3.png"" style=""width:200px; border:14px solid green;"">","null","","","","","","","","","",""
"","image-keyboard-response","150","5349493","0.0-150.0","","","","","65.59999999962747","img/land3.png","76","66.90000000037253","3","1","3","2","1,0.5,0.5,0.5,1,0.5,0.5,0.5,1","1,0.5,0.5,0.5,1,0.5,0.5,0.5,1","","",""
"","html-keyboard-response","151","5349794","0.0-151.0","","","","","null","<img src=""img/land3.png"" style=""width:200px; border:14px solid green;"">","null","","","","","","","","","",""
"","image-keyboard-response","152","5349829","0.0-152.0","","","","","33.40000000037253","img/land3.png","74","34.40000000037253","1","0","3","2","1,0.5,0.5,0.5,1,0.5,0.5,0.5,1","1,0.5,0.5,0.5,1,0.5,0.5,0.5,1","","",""
"","html-keyboard-response","153","5350130","0.0-153.0","","","","","null","<img src=""img/land3.png"" style=""width:200px;border:14px solid red;"">","null","","","","","","","","","",""
"","image-keyboard-response","154","5350196","0.0-154.0","","","","","65.19999999925494","img/land3.png","76","66.19999999925494","3","1","3","2","1,0.5,0.5,0.5,1,0.5,0.5,0.5,1","1,0.5,0.5,0.5,1,0.5,0.5,0.5,1","","",""
"","html-keyboard-response","155","5350498","0.0-155.0","","","","","null","<img src=""img/land3.png"" style=""width:200px; border:14px solid green;"">","null","","","","","","","","","",""
"","image-keyboard-response","156","5350565","0.0-156.0","","","","","65.70000000111759","img/land3.png","76","66.69999999925494","3","1","3","2","1,0.5,0.5,0.5,1,0.5,0.5,0.5,1","1,0.5,0.5,0.5,1,0.5,0.5,0.5,1","","",""
"","html-keyboard-response","157","5350866","0.0-157.0","","","","","null","<img src=""img/land3.png"" style=""width:200px; border:14px solid green;"">","null","","","","","","","","","",""
"","image-keyboard-response","158","5350933","0.0-158.0","","","","","65.59999999962747","img/land3.png","76","66.59999999962747","3","1","3","2","1,0.5,0.5,0.5,1,0.5,0.5,0.5,1","1,0.5,0.5,0.5,1,0.5,0.5,0.5,1","","",""
"","html-keyboard-response","159","5351234","0.0-159.0","","","","","null","<img src=""img/land3.png"" style=""width:200px; border:14px solid green;"">","null","","","","","","","","","",""
"","image-keyboard-response","160","5351285","0.0-160.0","","","","","49.19999999925494","img/land3.png","74","50.29999999888241","1","1","3","2","1,0.5,0.5,0.5,1,0.5,0.5,0.5,1","1,0.5,0.5,0.5,1,0.5,0.5,0.5,1","","",""
"","html-keyboard-response","161","5351587","0.0-161.0","","","","","null","<img src=""img/land3.png"" style=""width:200px; border:14px solid green;"">","null","","","","","","","","","",""
"","image-keyboard-response","162","5351652","0.0-162.0","","","","","64.59999999962747","img/land3.png","76","65.40000000037253","3","1","3","2","1,0.5,0.5,0.5,1,0.5,0.5,0.5,1","1,0.5,0.5,0.5,1,0.5,0.5,0.5,1","","",""
"","html-keyboard-response","163","5351954","0.0-163.0","","","","","null","<img src=""img/land3.png"" style=""width:200px; border:14px solid green;"">","null","","","","","","","","","",""
"","image-keyboard-response","164","5352021","0.0-164.0","","","","","65.90000000037253","img/land3.png","76","67.09999999962747","3","1","3","2","1,0.5,0.5,0.5,1,0.5,0.5,0.5,1","1,0.5,0.5,0.5,1,0.5,0.5,0.5,1","","",""
"","html-keyboard-response","165","5352324","0.0-165.0","","","","","null","<img src=""img/land3.png"" style=""width:200px; border:14px solid green;"">","null","","","","","","","","","",""
"","image-keyboard-response","166","5352373","0.0-166.0","","","","","47.899999998509884","img/land3.png","76","48.90000000037253","3","1","3","2","1,0.5,0.5,0.5,1,0.5,0.5,0.5,1","1,0.5,0.5,0.5,1,0.5,0.5,0.5,1","","",""
"","html-keyboard-response","167","5352676","0.0-167.0","","","","","null","<img src=""img/land3.png"" style=""width:200px; border:14px solid green;"">","null","","","","","","","","","",""
"","image-keyboard-response","168","5352725","0.0-168.0","","","","","47.59999999962747","img/land2.png","76","48.59999999962747","3","1","2","2","1,0.5,0.5,0.5,1,0.5,0.5,0.5,1","1,0.5,0.5,0.5,1,0.5,0.5,0.5,1","","",""
"","html-keyboard-response","169","5353027","0.0-169.0","","","","","null","<img src=""img/land2.png"" style=""width:200px; border:14px solid green;"">","null","","","","","","","","","",""
"","image-keyboard-response","170","5353109","0.0-170.0","","","","","80.5","img/land3.png","76","81.5","3","1","3","2","1,0.5,0.5,0.5,1,0.5,0.5,0.5,1","1,0.5,0.5,0.5,1,0.5,0.5,0.5,1","","",""
"","html-keyboard-response","171","5353411","0.0-171.0","","","","","null","<img src=""img/land3.png"" style=""width:200px; border:14px solid green;"">","null","","","","","","","","","",""
"","image-keyboard-response","172","5353493","0.0-172.0","","","","","80.59999999962747","img/land3.png","76","81.69999999925494","3","1","3","2","1,0.5,0.5,0.5,1,0.5,0.5,0.5,1","1,0.5,0.5,0.5,1,0.5,0.5,0.5,1","","",""
"","html-keyboard-response","173","5353795","0.0-173.0","","","","","null","<img src=""img/land3.png"" style=""width:200px; border:14px solid green;"">","null","","","","","","","","","",""
"","image-keyboard-response","174","5353861","0.0-174.0","","","","","64.69999999925494","img/land1.png","76","65.59999999962747","3","0","1","2","1,0.5,0.5,0.5,1,0.5,0.5,0.5,1","1,0.5,0.5,0.5,1,0.5,0.5,0.5,1","","",""
"","html-keyboard-response","175","5354162","0.0-175.0","","","","","null","<img src=""img/land1.png"" style=""width:200px;border:14px solid red;"">","null","","","","","","","","","",""
"","image-keyboard-response","176","5354229","0.0-176.0","","","","","65.40000000037253","img/land1.png","76","66.40000000037253","3","1","1","2","1,0.5,0.5,0.5,1,0.5,0.5,0.5,1","1,0.5,0.5,0.5,1,0.5,0.5,0.5,1","","",""
"","html-keyboard-response","177","5354532","0.0-177.0","","","","","null","<img src=""img/land1.png"" style=""width:200px; border:14px solid green;"">","null","","","","","","","","","",""
"","image-keyboard-response","178","5354597","0.0-178.0","","","","","63.59999999962747","img/land1.png","76","64.69999999925494","3","0","1","2","1,0.5,0.5,0.5,1,0.5,0.5,0.5,1","1,0.5,0.5,0.5,1,0.5,0.5,0.5,1","","",""
"","html-keyboard-response","179","5354898","0.0-179.0","","","","","null","<img src=""img/land1.png"" style=""width:200px;border:14px solid red;"">","null","","","","","","","","","",""
"","image-keyboard-response","180","5354949","0.0-180.0","","","","","49.59999999962747","img/land2.png","76","50.90000000037253","3","0","2","2","1,0.5,0.5,0.5,1,0.5,0.5,0.5,1","1,0.5,0.5,0.5,1,0.5,0.5,0.5,1","","",""
"","html-keyboard-response","181","5355251","0.0-181.0","","","","","null","<img src=""img/land2.png"" style=""width:200px;border:14px solid red;"">","null","","","","","","","","","",""
"","image-keyboard-response","182","5355317","0.0-182.0","","","","","64.90000000037253","img/land3.png","74","66","1","0","3","2","1,0.5,0.5,0.5,1,0.5,0.5,0.5,1","1,0.5,0.5,0.5,1,0.5,0.5,0.5,1","","",""
"","html-keyboard-response","183","5355619","0.0-183.0","","","","","null","<img src=""img/land3.png"" style=""width:200px;border:14px solid red;"">","null","","","","","","","","","",""
"","image-keyboard-response","184","5355685","0.0-184.0","","","","","64.89999999850988","img/land1.png","76","65.79999999888241","3","0","1","2","1,0.5,0.5,0.5,1,0.5,0.5,0.5,1","1,0.5,0.5,0.5,1,0.5,0.5,0.5,1","","",""
"","html-keyboard-response","185","5355986","0.0-185.0","","","","","null","<img src=""img/land1.png"" style=""width:200px;border:14px solid red;"">","null","","","","","","","","","",""
"","image-keyboard-response","186","5356053","0.0-186.0","","","","","65.5","img/land2.png","76","66.40000000037253","3","0","2","2","1,0.5,0.5,0.5,1,0.5,0.5,0.5,1","1,0.5,0.5,0.5,1,0.5,0.5,0.5,1","","",""
"","html-keyboard-response","187","5356354","0.0-187.0","","","","","null","<img src=""img/land2.png"" style=""width:200px;border:14px solid red;"">","null","","","","","","","","","",""
"","image-keyboard-response","188","5356613","0.0-188.0","","","","","257.09999999962747","img/land3.png","75","258.5","2","1","3","2","1,0.5,0.5,0.5,1,0.5,0.5,0.5,1","1,0.5,0.5,0.5,1,0.5,0.5,0.5,1","","",""
"","html-keyboard-response","189","5356915","0.0-189.0","","","","","null","<img src=""img/land3.png"" style=""width:200px; border:14px solid green;"">","null","","","","","","","","","",""
"","image-keyboard-response","190","5356997","0.0-190.0","","","","","80.69999999925494","img/land3.png","76","81.69999999925494","3","1","3","2","1,0.5,0.5,0.5,1,0.5,0.5,0.5,1","1,0.5,0.5,0.5,1,0.5,0.5,0.5,1","","",""
"","html-keyboard-response","191","5357298","0.0-191.0","","","","","null","<img src=""img/land3.png"" style=""width:200px; border:14px solid green;"">","null","","","","","","","","","",""
"","image-keyboard-response","192","5357365","0.0-192.0","","","","","65.09999999962747","img/land2.png","76","66.09999999962747","3","0","2","2","1,0.5,0.5,0.5,1,0.5,0.5,0.5,1","1,0.5,0.5,0.5,1,0.5,0.5,0.5,1","","",""
"","html-keyboard-response","193","5357667","0.0-193.0","","","","","null","<img src=""img/land2.png"" style=""width:200px;border:14px solid red;"">","null","","","","","","","","","",""
"","image-keyboard-response","194","5357733","0.0-194.0","","","","","64.79999999888241","img/land3.png","76","65.80000000074506","3","1","3","2","1,0.5,0.5,0.5,1,0.5,0.5,0.5,1","1,0.5,0.5,0.5,1,0.5,0.5,0.5,1","","",""
"","html-keyboard-response","195","5358034","0.0-195.0","","","","","null","<img src=""img/land3.png"" style=""width:200px; border:14px solid green;"">","null","","","","","","","","","",""
"","image-keyboard-response","196","5358084","0.0-196.0","","","","","49.09999999962747","img/land3.png","76","50.09999999962747","3","1","3","2","1,0.5,0.5,0.5,1,0.5,0.5,0.5,1","1,0.5,0.5,0.5,1,0.5,0.5,0.5,1","","",""
"","html-keyboard-response","197","5358386","0.0-197.0","","","","","null","<img src=""img/land3.png"" style=""width:200px; border:14px solid green;"">","null","","","","","","","","","",""
"","image-keyboard-response","198","5358421","0.0-198.0","","","","","33.5","img/land3.png","74","34.40000000037253","1","0","3","2","1,0.5,0.5,0.5,1,0.5,0.5,0.5,1","1,0.5,0.5,0.5,1,0.5,0.5,0.5,1","","",""
"","html-keyboard-response","199","5358722","0.0-199.0","","","","","null","<img src=""img/land3.png"" style=""width:200px;border:14px solid red;"">","null","","","","","","","","","",""
"","image-keyboard-response","200","5358853","0.0-200.0","","","","","129.5","img/land3.png","76","130.5","3","1","3","2","1,0.5,0.5,0.5,1,0.5,0.5,0.5,1","1,0.5,0.5,0.5,1,0.5,0.5,0.5,1","","",""
"","html-keyboard-response","201","5359154","0.0-201.0","","","","","null","<img src=""img/land3.png"" style=""width:200px; border:14px solid green;"">","null","","","","","","","","","",""
"","image-keyboard-response","202","5359205","0.0-202.0","","","","","49.19999999925494","img/land3.png","74","50.09999999962747","1","1","3","2","1,0.5,0.5,0.5,1,0.5,0.5,0.5,1","1,0.5,0.5,0.5,1,0.5,0.5,0.5,1","","",""
"","html-keyboard-response","203","5359506","0.0-203.0","","","","","null","<img src=""img/land3.png"" style=""width:200px; border:14px solid green;"">","null","","","","","","","","","",""
"","image-keyboard-response","204","5359684","0.0-204.0","","","","","177.19999999925494","img/land3.png","76","178.19999999925494","3","1","3","2","1,0.5,0.5,0.5,1,0.5,0.5,0.5,1","1,0.5,0.5,0.5,1,0.5,0.5,0.5,1","","",""
"","html-keyboard-response","205","5359986","0.0-205.0","","","","","null","<img src=""img/land3.png"" style=""width:200px; border:14px solid green;"">","null","","","","","","","","","",""
"","image-keyboard-response","206","5360006","0.0-206.0","","","","","19","img/land1.png","74","20.09999999962747","1","1","1","2","1,0.5,0.5,0.5,1,0.5,0.5,0.5,1","1,0.5,0.5,0.5,1,0.5,0.5,0.5,1","","",""
"","html-keyboard-response","207","5360308","0.0-207.0","","","","","null","<img src=""img/land1.png"" style=""width:200px; border:14px solid green;"">","null","","","","","","","","","",""
"","image-keyboard-response","208","5360468","0.0-208.0","","","","","159.40000000037253","img/land3.png","76","160.40000000037253","3","1","3","2","1,0.5,0.5,0.5,1,0.5,0.5,0.5,1","1,0.5,0.5,0.5,1,0.5,0.5,0.5,1","","",""
"","html-keyboard-response","209","5360770","0.0-209.0","","","","","null","<img src=""img/land3.png"" style=""width:200px; border:14px solid green;"">","null","","","","","","","","","",""
"","image-keyboard-response","210","5360805","0.0-210.0","","","","","33.40000000037253","img/land3.png","74","34.30000000074506","1","0","3","2","1,0.5,0.5,0.5,1,0.5,0.5,0.5,1","1,0.5,0.5,0.5,1,0.5,0.5,0.5,1","","",""
"","html-keyboard-response","211","5361106","0.0-211.0","","","","","null","<img src=""img/land3.png"" style=""width:200px;border:14px solid red;"">","null","","","","","","","","","",""
"","image-keyboard-response","212","5361268","0.0-212.0","","","","","161.59999999962747","img/land3.png","76","162.69999999925494","3","1","3","2","1,0.5,0.5,0.5,1,0.5,0.5,0.5,1","1,0.5,0.5,0.5,1,0.5,0.5,0.5,1","","",""
"","html-keyboard-response","213","5361570","0.0-213.0","","","","","null","<img src=""img/land3.png"" style=""width:200px; border:14px solid green;"">","null","","","","","","","","","",""
"","image-keyboard-response","214","5361621","0.0-214.0","","","","","50.30000000074506","img/land1.png","76","51.09999999962747","3","0","1","2","1,0.5,0.5,0.5,1,0.5,0.5,0.5,1","1,0.5,0.5,0.5,1,0.5,0.5,0.5,1","","",""
"","html-keyboard-response","215","5361923","0.0-215.0","","","","","null","<img src=""img/land1.png"" style=""width:200px;border:14px solid red;"">","null","","","","","","","","","",""
"","image-keyboard-response","216","5361924","0.0-216.0","","","","","0.2999999988824129","img/land3.png","74","1.5","1","0","3","2","1,0.5,0.5,0.5,1,0.5,0.5,0.5,1","1,0.5,0.5,0.5,1,0.5,0.5,0.5,1","","",""
"","html-keyboard-response","217","5362226","0.0-217.0","","","","","null","<img src=""img/land3.png"" style=""width:200px;border:14px solid red;"">","null","","","","","","","","","",""
"","image-keyboard-response","218","5362260","0.0-218.0","","","","","33.59999999962747","img/land3.png","74","34.59999999962747","1","1","3","2","1,0.5,0.5,0.5,1,0.5,0.5,0.5,1","1,0.5,0.5,0.5,1,0.5,0.5,0.5,1","","",""
"","html-keyboard-response","219","5362562","0.0-219.0","","","","","null","<img src=""img/land3.png"" style=""width:200px; border:14px solid green;"">","null","","","","","","","","","",""
"","image-keyboard-response","220","5362566","0.0-220.0","","","","","2.599999999627471","img/land2.png","74","3.5","1","1","2","2","1,0.5,0.5,0.5,1,0.5,0.5,0.5,1","1,0.5,0.5,0.5,1,0.5,0.5,0.5,1","","",""
"","html-keyboard-response","221","5362869","0.0-221.0","","","","","null","<img src=""img/land2.png"" style=""width:200px; border:14px solid green;"">","null","","","","","","","","","",""
"","image-keyboard-response","222","5362916","0.0-222.0","","","","","46.40000000037253","img/land2.png","76","47.30000000074506","3","1","2","2","1,0.5,0.5,0.5,1,0.5,0.5,0.5,1","1,0.5,0.5,0.5,1,0.5,0.5,0.5,1","","",""
"","html-keyboard-response","223","5363228","0.0-223.0","","","","","null","<img src=""img/land2.png"" style=""width:200px; border:14px solid green;"">","null","","","","","","","","","",""
"","image-keyboard-response","224","5363268","0.0-224.0","","","","","39.20000000111759","img/land3.png","74","40.20000000111759","1","1","3","2","1,0.5,0.5,0.5,1,0.5,0.5,0.5,1","1,0.5,0.5,0.5,1,0.5,0.5,0.5,1","","",""
"","html-keyboard-response","225","5363570","0.0-225.0","","","","","null","<img src=""img/land3.png"" style=""width:200px; border:14px solid green;"">","null","","","","","","","","","",""
"","image-keyboard-response","226","5363669","0.0-226.0","","","","","96.59999999962747","img/land1.png","76","98","3","0","1","2","1,0.5,0.5,0.5,1,0.5,0.5,0.5,1","1,0.5,0.5,0.5,1,0.5,0.5,0.5,1","","",""
"","html-keyboard-response","227","5363970","0.0-227.0","","","","","null","<img src=""img/land1.png"" style=""width:200px;border:14px solid red;"">","null","","","","","","","","","",""
"","image-keyboard-response","228","5364037","0.0-228.0","","","","","65","img/land2.png","76","65.90000000037253","3","0","2","2","1,0.5,0.5,0.5,1,0.5,0.5,0.5,1","1,0.5,0.5,0.5,1,0.5,0.5,0.5,1","","",""
"","html-keyboard-response","229","5364339","0.0-229.0","","","","","null","<img src=""img/land2.png"" style=""width:200px;border:14px solid red;"">","null","","","","","","","","","",""
"","image-keyboard-response","230","5364421","0.0-230.0","","","","","80.5","img/land1.png","76","81.5","3","1","1","2","1,0.5,0.5,0.5,1,0.5,0.5,0.5,1","1,0.5,0.5,0.5,1,0.5,0.5,0.5,1","","",""
"","html-keyboard-response","231","5364723","0.0-231.0","","","","","null","<img src=""img/land1.png"" style=""width:200px; border:14px solid green;"">","null","","","","","","","","","",""
"","image-keyboard-response","232","5364805","0.0-232.0","","","","","80.90000000037253","img/land1.png","76","81.79999999888241","3","1","1","2","1,0.5,0.5,0.5,1,0.5,0.5,0.5,1","1,0.5,0.5,0.5,1,0.5,0.5,0.5,1","","",""
"","html-keyboard-response","233","5365106","0.0-233.0","","","","","null","<img src=""img/land1.png"" style=""width:200px; border:14px solid green;"">","null","","","","","","","","","",""
"","image-keyboard-response","234","5365189","0.0-234.0","","","","","81.09999999962747","img/land2.png","76","82.29999999888241","3","0","2","2","1,0.5,0.5,0.5,1,0.5,0.5,0.5,1","1,0.5,0.5,0.5,1,0.5,0.5,0.5,1","","",""
"","html-keyboard-response","235","5365490","0.0-235.0","","","","","null","<img src=""img/land2.png"" style=""width:200px;border:14px solid red;"">","null","","","","","","","","","",""
"","image-keyboard-response","236","5365557","0.0-236.0","","","","","64.90000000037253","img/land3.png","76","65.90000000037253","3","1","3","2","1,0.5,0.5,0.5,1,0.5,0.5,0.5,1","1,0.5,0.5,0.5,1,0.5,0.5,0.5,1","","",""
"","html-keyboard-response","237","5365858","0.0-237.0","","","","","null","<img src=""img/land3.png"" style=""width:200px; border:14px solid green;"">","null","","","","","","","","","",""
"","image-keyboard-response","238","5365892","0.0-238.0","","","","","33.09999999962747","img/land3.png","74","34.09999999962747","1","0","3","2","1,0.5,0.5,0.5,1,0.5,0.5,0.5,1","1,0.5,0.5,0.5,1,0.5,0.5,0.5,1","","",""
"","html-keyboard-response","239","5366194","0.0-239.0","","","","","null","<img src=""img/land3.png"" style=""width:200px;border:14px solid red;"">","null","","","","","","","","","",""
"","image-keyboard-response","240","5366293","0.0-240.0","","","","","97.19999999925494","img/land1.png","76","98.30000000074506","3","0","1","2","1,0.5,0.5,0.5,1,0.5,0.5,0.5,1","1,0.5,0.5,0.5,1,0.5,0.5,0.5,1","","",""
"","html-keyboard-response","241","5366594","0.0-241.0","","","","","null","<img src=""img/land1.png"" style=""width:200px;border:14px solid red;"">","null","","","","","","","","","",""
"","image-keyboard-response","242","5366660","0.0-242.0","","","","","65.30000000074506","img/land3.png","76","66.5","3","1","3","2","1,0.5,0.5,0.5,1,0.5,0.5,0.5,1","1,0.5,0.5,0.5,1,0.5,0.5,0.5,1","","",""
"","html-keyboard-response","243","5366962","0.0-243.0","","","","","null","<img src=""img/land3.png"" style=""width:200px; border:14px solid green;"">","null","","","","","","","","","",""
"","image-keyboard-response","244","5367012","0.0-244.0","","","","","49.20000000111759","img/land3.png","76","50.20000000111759","3","1","3","2","1,0.5,0.5,0.5,1,0.5,0.5,0.5,1","1,0.5,0.5,0.5,1,0.5,0.5,0.5,1","","",""
"","html-keyboard-response","245","5367315","0.0-245.0","","","","","null","<img src=""img/land3.png"" style=""width:200px; border:14px solid green;"">","null","","","","","","","","","",""
"","image-keyboard-response","246","5367397","0.0-246.0","","","","","79.59999999962747","img/land1.png","76","80.79999999888241","3","1","1","2","1,0.5,0.5,0.5,1,0.5,0.5,0.5,1","1,0.5,0.5,0.5,1,0.5,0.5,0.5,1","","",""
"","html-keyboard-response","247","5367699","0.0-247.0","","","","","null","<img src=""img/land1.png"" style=""width:200px; border:14px solid green;"">","null","","","","","","","","","",""
"","image-keyboard-response","248","5367735","0.0-248.0","","","","","34.70000000111759","img/land2.png","76","35.70000000111759","3","1","2","2","1,0.5,0.5,0.5,1,0.5,0.5,0.5,1","1,0.5,0.5,0.5,1,0.5,0.5,0.5,1","","",""
"","html-keyboard-response","249","5368037","0.0-249.0","","","","","null","<img src=""img/land2.png"" style=""width:200px; border:14px solid green;"">","null","","","","","","","","","",""
"","image-keyboard-response","250","5368277","0.0-250.0","","","","","238.59999999962747","img/land3.png","76","239.69999999925494","3","1","3","2","1,0.5,0.5,0.5,1,0.5,0.5,0.5,1","1,0.5,0.5,0.5,1,0.5,0.5,0.5,1","","",""
"","html-keyboard-response","251","5368578","0.0-251.0","","","","","null","<img src=""img/land3.png"" style=""width:200px; border:14px solid green;"">","null","","","","","","","","","",""
"","image-keyboard-response","252","5368645","0.0-252.0","","","","","65.09999999962747","img/land3.png","76","66.19999999925494","3","1","3","2","1,0.5,0.5,0.5,1,0.5,0.5,0.5,1","1,0.5,0.5,0.5,1,0.5,0.5,0.5,1","","",""
"","html-keyboard-response","253","5368946","0.0-253.0","","","","","null","<img src=""img/land3.png"" style=""width:200px; border:14px solid green;"">","null","","","","","","","","","",""
"","image-keyboard-response","254","5369013","0.0-254.0","","","","","65","img/land3.png","76","66","3","1","3","2","1,0.5,0.5,0.5,1,0.5,0.5,0.5,1","1,0.5,0.5,0.5,1,0.5,0.5,0.5,1","","",""
"","html-keyboard-response","255","5369314","0.0-255.0","","","","","null","<img src=""img/land3.png"" style=""width:200px; border:14px solid green;"">","null","","","","","","","","","",""
"","image-keyboard-response","256","5369398","0.0-256.0","","","","","82.39999999850988","img/land3.png","76","83.5","3","1","3","2","1,0.5,0.5,0.5,1,0.5,0.5,0.5,1","1,0.5,0.5,0.5,1,0.5,0.5,0.5,1","","",""
"","html-keyboard-response","257","5369701","0.0-257.0","","","","","null","<img src=""img/land3.png"" style=""width:200px; border:14px solid green;"">","null","","","","","","","","","",""
"","image-keyboard-response","258","5369764","0.0-258.0","","","","","62.59999999962747","img/land1.png","76","63.59999999962747","3","0","1","2","1,0.5,0.5,0.5,1,0.5,0.5,0.5,1","1,0.5,0.5,0.5,1,0.5,0.5,0.5,1","","",""
"","html-keyboard-response","259","5370067","0.0-259.0","","","","","null","<img src=""img/land1.png"" style=""width:200px;border:14px solid red;"">","null","","","","","","","","","",""
"","image-keyboard-response","260","5370117","0.0-260.0","","","","","48.69999999925494","img/land3.png","76","49.69999999925494","3","1","3","2","1,0.5,0.5,0.5,1,0.5,0.5,0.5,1","1,0.5,0.5,0.5,1,0.5,0.5,0.5,1","","",""
"","html-keyboard-response","261","5370418","0.0-261.0","","","","","null","<img src=""img/land3.png"" style=""width:200px; border:14px solid green;"">","null","","","","","","","","","",""
"","image-keyboard-response","262","5370485","0.0-262.0","","","","","65.30000000074506","img/land3.png","75","66.30000000074506","2","0","3","2","1,0.5,0.5,0.5,1,0.5,0.5,0.5,1","1,0.5,0.5,0.5,1,0.5,0.5,0.5,1","","",""
"","html-keyboard-response","263","5370786","0.0-263.0","","","","","null","<img src=""img/land3.png"" style=""width:200px;border:14px solid red;"">","null","","","","","","","","","",""
"","image-keyboard-response","264","5370789","0.0-264.0","","","","","2.799999998882413","img/land3.png","76","3.700000001117587","3","1","3","2","1,0.5,0.5,0.5,1,0.5,0.5,0.5,1","1,0.5,0.5,0.5,1,0.5,0.5,0.5,1","","",""
"","html-keyboard-response","265","5371091","0.0-265.0","","","","","null","<img src=""img/land3.png"" style=""width:200px; border:14px solid green;"">","null","","","","","","","","","",""
"","image-keyboard-response","266","5371204","0.0-266.0","","","","","111.80000000074506","img/land1.png","75","112.90000000037253","2","1","1","2","1,0.5,0.5,0.5,1,0.5,0.5,0.5,1","1,0.5,0.5,0.5,1,0.5,0.5,0.5,1","","",""
"","html-keyboard-response","267","5371506","0.0-267.0","","","","","null","<img src=""img/land1.png"" style=""width:200px; border:14px solid green;"">","null","","","","","","","","","",""
"","image-keyboard-response","268","5371524","0.0-268.0","","","","","17.40000000037253","img/land3.png","75","18.100000001490116","2","0","3","2","1,0.5,0.5,0.5,1,0.5,0.5,0.5,1","1,0.5,0.5,0.5,1,0.5,0.5,0.5,1","","",""
"","html-keyboard-response","269","5371826","0.0-269.0","","","","","null","<img src=""img/land3.png"" style=""width:200px;border:14px solid red;"">","null","","","","","","","","","",""
"","image-keyboard-response","270","5371861","0.0-270.0","","","","","33.399999998509884","img/land3.png","76","34.29999999888241","3","1","3","2","1,0.5,0.5,0.5,1,0.5,0.5,0.5,1","1,0.5,0.5,0.5,1,0.5,0.5,0.5,1","","",""
"","html-keyboard-response","271","5372162","0.0-271.0","","","","","null","<img src=""img/land3.png"" style=""width:200px; border:14px solid green;"">","null","","","","","","","","","",""
"","image-keyboard-response","272","5372260","0.0-272.0","","","","","97.59999999962747","img/land3.png","76","98.59999999962747","3","1","3","2","1,0.5,0.5,0.5,1,0.5,0.5,0.5,1","1,0.5,0.5,0.5,1,0.5,0.5,0.5,1","","",""
"","html-keyboard-response","273","5372562","0.0-273.0","","","","","null","<img src=""img/land3.png"" style=""width:200px; border:14px solid green;"">","null","","","","","","","","","",""
"","image-keyboard-response","274","5372612","0.0-274.0","","","","","49.30000000074506","img/land3.png","76","50.40000000037253","3","1","3","2","1,0.5,0.5,0.5,1,0.5,0.5,0.5,1","1,0.5,0.5,0.5,1,0.5,0.5,0.5,1","","",""
"","html-keyboard-response","275","5372914","0.0-275.0","","","","","null","<img src=""img/land3.png"" style=""width:200px; border:14px solid green;"">","null","","","","","","","","","",""
"","image-keyboard-response","276","5372981","0.0-276.0","","","","","65.39999999850988","img/land3.png","76","66.70000000111759","3","1","3","2","1,0.5,0.5,0.5,1,0.5,0.5,0.5,1","1,0.5,0.5,0.5,1,0.5,0.5,0.5,1","","",""
"","html-keyboard-response","277","5373282","0.0-277.0","","","","","null","<img src=""img/land3.png"" style=""width:200px; border:14px solid green;"">","null","","","","","","","","","",""
"","image-keyboard-response","278","5373348","0.0-278.0","","","","","65.09999999962747","img/land3.png","76","65.90000000037253","3","1","3","2","1,0.5,0.5,0.5,1,0.5,0.5,0.5,1","1,0.5,0.5,0.5,1,0.5,0.5,0.5,1","","",""
"","html-keyboard-response","279","5373650","0.0-279.0","","","","","null","<img src=""img/land3.png"" style=""width:200px; border:14px solid green;"">","null","","","","","","","","","",""
"","image-keyboard-response","280","5373717","0.0-280.0","","","","","65.59999999962747","img/land1.png","76","66.69999999925494","3","0","1","2","1,0.5,0.5,0.5,1,0.5,0.5,0.5,1","1,0.5,0.5,0.5,1,0.5,0.5,0.5,1","","",""
"","html-keyboard-response","281","5374018","0.0-281.0","","","","","null","<img src=""img/land1.png"" style=""width:200px;border:14px solid red;"">","null","","","","","","","","","",""
"","image-keyboard-response","282","5374068","0.0-282.0","","","","","49","img/land3.png","76","50.09999999962747","3","1","3","2","1,0.5,0.5,0.5,1,0.5,0.5,0.5,1","1,0.5,0.5,0.5,1,0.5,0.5,0.5,1","","",""
"","html-keyboard-response","283","5374370","0.0-283.0","","","","","null","<img src=""img/land3.png"" style=""width:200px; border:14px solid green;"">","null","","","","","","","","","",""
"","image-keyboard-response","284","5374436","0.0-284.0","","","","","65.19999999925494","img/land2.png","74","66.09999999962747","1","1","2","2","1,0.5,0.5,0.5,1,0.5,0.5,0.5,1","1,0.5,0.5,0.5,1,0.5,0.5,0.5,1","","",""
"","html-keyboard-response","285","5374738","0.0-285.0","","","","","null","<img src=""img/land2.png"" style=""width:200px; border:14px solid green;"">","null","","","","","","","","","",""
"","image-keyboard-response","286","5374772","0.0-286.0","","","","","33.30000000074506","img/land1.png","74","34.20000000111759","1","1","1","2","1,0.5,0.5,0.5,1,0.5,0.5,0.5,1","1,0.5,0.5,0.5,1,0.5,0.5,0.5,1","","",""
"","html-keyboard-response","287","5375074","0.0-287.0","","","","","null","<img src=""img/land1.png"" style=""width:200px; border:14px solid green;"">","null","","","","","","","","","",""
"","image-keyboard-response","288","5375124","0.0-288.0","","","","","49.30000000074506","img/land1.png","75","50.20000000111759","2","0","1","2","1,0.5,0.5,0.5,1,0.5,0.5,0.5,1","1,0.5,0.5,0.5,1,0.5,0.5,0.5,1","","",""
"","html-keyboard-response","289","5375426","0.0-289.0","","","","","null","<img src=""img/land1.png"" style=""width:200px;border:14px solid red;"">","null","","","","","","","","","",""
"","image-keyboard-response","290","5375460","0.0-290.0","","","","","33.19999999925494","img/land3.png","75","34.19999999925494","2","0","3","2","1,0.5,0.5,0.5,1,0.5,0.5,0.5,1","1,0.5,0.5,0.5,1,0.5,0.5,0.5,1","","",""
"","html-keyboard-response","291","5375763","0.0-291.0","","","","","null","<img src=""img/land3.png"" style=""width:200px;border:14px solid red;"">","null","","","","","","","","","",""
"","image-keyboard-response","292","5375812","0.0-292.0","","","","","48.19999999925494","img/land1.png","75","49.19999999925494","2","0","1","2","1,0.5,0.5,0.5,1,0.5,0.5,0.5,1","1,0.5,0.5,0.5,1,0.5,0.5,0.5,1","","",""
"","html-keyboard-response","293","5376115","0.0-293.0","","","","","null","<img src=""img/land1.png"" style=""width:200px;border:14px solid red;"">","null","","","","","","","","","",""
"","image-keyboard-response","294","5376149","0.0-294.0","","","","","32.09999999962747","img/land1.png","76","33.19999999925494","3","0","1","2","1,0.5,0.5,0.5,1,0.5,0.5,0.5,1","1,0.5,0.5,0.5,1,0.5,0.5,0.5,1","","",""
"","html-keyboard-response","295","5376450","0.0-295.0","","","","","null","<img src=""img/land1.png"" style=""width:200px;border:14px solid red;"">","null","","","","","","","","","",""
"","image-keyboard-response","296","5376468","0.0-296.0","","","","","17.09999999962747","img/land3.png","75","18","2","1","3","2","1,0.5,0.5,0.5,1,0.5,0.5,0.5,1","1,0.5,0.5,0.5,1,0.5,0.5,0.5,1","","",""
"","html-keyboard-response","297","5376775","0.0-297.0","","","","","null","<img src=""img/land3.png"" style=""width:200px; border:14px solid green;"">","null","","","","","","","","","",""
"","image-keyboard-response","298","5376804","0.0-298.0","","","","","21.699999999254942","img/land3.png","75","28.600000001490116","2","0","3","2","1,0.5,0.5,0.5,1,0.5,0.5,0.5,1","1,0.5,0.5,0.5,1,0.5,0.5,0.5,1","","",""
"","html-keyboard-response","299","5377106","0.0-299.0","","","","","null","<img src=""img/land3.png"" style=""width:200px;border:14px solid red;"">","null","","","","","","","","","",""
"","image-keyboard-response","300","5377112","0.0-300.0","","","","","4.799999998882413","img/land3.png","74","6.100000001490116","1","0","3","2","1,0.5,0.5,0.5,1,0.5,0.5,0.5,1","1,0.5,0.5,0.5,1,0.5,0.5,0.5,1","","",""
"","html-keyboard-response","301","5377414","0.0-301.0","","","","","null","<img src=""img/land3.png"" style=""width:200px;border:14px solid red;"">","null","","","","","","","","","",""
"","html-keyboard-response","302","5381174","0.0-302.0","","","","","","","","","","","","","","","","",""
"","image-keyboard-response","303","5381780","0.0-303.0","","","","","604.7999999988824","img/land6.png","74","605.9000000003725","1","1","3","2","1,0.5,0.5,0.5,1,0.5,0.5,0.5,1","1,0.5,0.5,0.5,1,0.5,0.5,0.5,1","","",""
"","html-keyboard-response","304","5382083","0.0-304.0","","","","","null","<img src=""img/land6.png"" style=""width:200px; border:14px solid green;"">","null","","","","","","","","","",""
"","image-keyboard-response","305","5382197","0.0-305.0","","","","","112.80000000074506","img/land4.png","76","114","3","0","1","2","1,0.5,0.5,0.5,1,0.5,0.5,0.5,1","1,0.5,0.5,0.5,1,0.5,0.5,0.5,1","","",""
"","html-keyboard-response","306","5382498","0.0-306.0","","","","","null","<img src=""img/land4.png"" style=""width:200px;border:14px solid red;"">","null","","","","","","","","","",""
"","image-keyboard-response","307","5382660","0.0-307.0","","","","","161.30000000074506","img/land5.png","74","162.40000000037253","1","0","2","2","1,0.5,0.5,0.5,1,0.5,0.5,0.5,1","1,0.5,0.5,0.5,1,0.5,0.5,0.5,1","","",""
"","html-keyboard-response","308","5382962","0.0-308.0","","","","","null","<img src=""img/land5.png"" style=""width:200px;border:14px solid red;"">","null","","","","","","","","","",""
"","image-keyboard-response","309","5383012","0.0-309.0","","","","","49","img/land4.png","74","50.100000001490116","1","1","1","2","1,0.5,0.5,0.5,1,0.5,0.5,0.5,1","1,0.5,0.5,0.5,1,0.5,0.5,0.5,1","","",""
"","html-keyboard-response","310","5383314","0.0-310.0","","","","","null","<img src=""img/land4.png"" style=""width:200px; border:14px solid green;"">","null","","","","","","","","","",""
"","image-keyboard-response","311","5383348","0.0-311.0","","","","","32.80000000074506","img/land6.png","74","33.80000000074506","1","1","3","2","1,0.5,0.5,0.5,1,0.5,0.5,0.5,1","1,0.5,0.5,0.5,1,0.5,0.5,0.5,1","","",""
"","html-keyboard-response","312","5383650","0.0-312.0","","","","","null","<img src=""img/land6.png"" style=""width:200px; border:14px solid green;"">","null","","","","","","","","","",""
"","image-keyboard-response","313","5383700","0.0-313.0","","","","","49.19999999925494","img/land5.png","75","50.20000000111759","2","1","2","2","1,0.5,0.5,0.5,1,0.5,0.5,0.5,1","1,0.5,0.5,0.5,1,0.5,0.5,0.5,1","","",""
"","html-keyboard-response","314","5384002","0.0-314.0","","","","","null","<img src=""img/land5.png"" style=""width:200px; border:14px solid green;"">","null","","","","","","","","","",""
"","image-keyboard-response","315","5384006","0.0-315.0","","","","","2.399999998509884","img/land5.png","74","3.199999999254942","1","0","2","2","1,0.5,0.5,0.5,1,0.5,0.5,0.5,1","1,0.5,0.5,0.5,1,0.5,0.5,0.5,1","","",""
"","html-keyboard-response","316","5384309","0.0-316.0","","","","","null","<img src=""img/land5.png"" style=""width:200px;border:14px solid red;"">","null","","","","","","","","","",""
"","image-keyboard-response","317","5384385","0.0-317.0","","","","","74.40000000037253","img/land5.png","75","75.5","2","1","2","2","1,0.5,0.5,0.5,1,0.5,0.5,0.5,1","1,0.5,0.5,0.5,1,0.5,0.5,0.5,1","","",""
"","html-keyboard-response","318","5384687","0.0-318.0","","","","","null","<img src=""img/land5.png"" style=""width:200px; border:14px solid green;"">","null","","","","","","","","","",""
"","image-keyboard-response","319","5384756","0.0-319.0","","","","","67.59999999962747","img/land4.png","75","68.69999999925494","2","1","1","2","1,0.5,0.5,0.5,1,0.5,0.5,0.5,1","1,0.5,0.5,0.5,1,0.5,0.5,0.5,1","","",""
"","html-keyboard-response","320","5385058","0.0-320.0","","","","","null","<img src=""img/land4.png"" style=""width:200px; border:14px solid green;"">","null","","","","","","","","","",""
"","image-keyboard-response","321","5385108","0.0-321.0","","","","","49.40000000037253","img/land6.png","75","50.30000000074506","2","1","3","2","1,0.5,0.5,0.5,1,0.5,0.5,0.5,1","1,0.5,0.5,0.5,1,0.5,0.5,0.5,1","","",""
"","html-keyboard-response","322","5385410","0.0-322.0","","","","","null","<img src=""img/land6.png"" style=""width:200px; border:14px solid green;"">","null","","","","","","","","","",""
"","image-keyboard-response","323","5385460","0.0-323.0","","","","","49.30000000074506","img/land6.png","75","50.20000000111759","2","1","3","2","1,0.5,0.5,0.5,1,0.5,0.5,0.5,1","1,0.5,0.5,0.5,1,0.5,0.5,0.5,1","","",""
"","html-keyboard-response","324","5385762","0.0-324.0","","","","","null","<img src=""img/land6.png"" style=""width:200px; border:14px solid green;"">","null","","","","","","","","","",""
"","image-keyboard-response","325","5385828","0.0-325.0","","","","","65","img/land6.png","75","66.10000000149012","2","0","3","2","1,0.5,0.5,0.5,1,0.5,0.5,0.5,1","1,0.5,0.5,0.5,1,0.5,0.5,0.5,1","","",""
"","html-keyboard-response","326","5386129","0.0-326.0","","","","","null","<img src=""img/land6.png"" style=""width:200px;border:14px solid red;"">","null","","","","","","","","","",""
"","image-keyboard-response","327","5386196","0.0-327.0","","","","","65.70000000111759","img/land5.png","75","66.70000000111759","2","1","2","2","1,0.5,0.5,0.5,1,0.5,0.5,0.5,1","1,0.5,0.5,0.5,1,0.5,0.5,0.5,1","","",""
"","html-keyboard-response","328","5386498","0.0-328.0","","","","","null","<img src=""img/land5.png"" style=""width:200px; border:14px solid green;"">","null","","","","","","","","","",""
"","image-keyboard-response","329","5386548","0.0-329.0","","","","","49.30000000074506","img/land5.png","75","50.30000000074506","2","1","2","2","1,0.5,0.5,0.5,1,0.5,0.5,0.5,1","1,0.5,0.5,0.5,1,0.5,0.5,0.5,1","","",""
"","html-keyboard-response","330","5386850","0.0-330.0","","","","","null","<img src=""img/land5.png"" style=""width:200px; border:14px solid green;"">","null","","","","","","","","","",""
"","image-keyboard-response","331","5386932","0.0-331.0","","","","","80.5","img/land5.png","75","81.80000000074506","2","1","2","2","1,0.5,0.5,0.5,1,0.5,0.5,0.5,1","1,0.5,0.5,0.5,1,0.5,0.5,0.5,1","","",""
"","html-keyboard-response","332","5387234","0.0-332.0","","","","","null","<img src=""img/land5.png"" style=""width:200px; border:14px solid green;"">","null","","","","","","","","","",""
"","image-keyboard-response","333","5387284","0.0-333.0","","","","","49.20000000111759","img/land5.png","75","50.20000000111759","2","1","2","2","1,0.5,0.5,0.5,1,0.5,0.5,0.5,1","1,0.5,0.5,0.5,1,0.5,0.5,0.5,1","","",""
"","html-keyboard-response","334","5387587","0.0-334.0","","","","","null","<img src=""img/land5.png"" style=""width:200px; border:14px solid green;"">","null","","","","","","","","","",""
"","image-keyboard-response","335","5387636","0.0-335.0","","","","","48.09999999962747","img/land6.png","75","49.20000000111759","2","1","3","2","1,0.5,0.5,0.5,1,0.5,0.5,0.5,1","1,0.5,0.5,0.5,1,0.5,0.5,0.5,1","","",""
"","html-keyboard-response","336","5387938","0.0-336.0","","","","","null","<img src=""img/land6.png"" style=""width:200px; border:14px solid green;"">","null","","","","","","","","","",""
"","image-keyboard-response","337","5388004","0.0-337.0","","","","","65.59999999962747","img/land5.png","75","66.5","2","1","2","2","1,0.5,0.5,0.5,1,0.5,0.5,0.5,1","1,0.5,0.5,0.5,1,0.5,0.5,0.5,1","","",""
"","html-keyboard-response","338","5388308","0.0-338.0","","","","","null","<img src=""img/land5.png"" style=""width:200px; border:14px solid green;"">","null","","","","","","","","","",""
"","image-keyboard-response","339","5388372","0.0-339.0","","","","","63.20000000111759","img/land4.png","75","64.30000000074506","2","1","1","2","1,0.5,0.5,0.5,1,0.5,0.5,0.5,1","1,0.5,0.5,0.5,1,0.5,0.5,0.5,1","","",""
"","html-keyboard-response","340","5388674","0.0-340.0","","","","","null","<img src=""img/land4.png"" style=""width:200px; border:14px solid green;"">","null","","","","","","","","","",""
"","image-keyboard-response","341","5388724","0.0-341.0","","","","","49.20000000111759","img/land4.png","75","50.20000000111759","2","1","1","2","1,0.5,0.5,0.5,1,0.5,0.5,0.5,1","1,0.5,0.5,0.5,1,0.5,0.5,0.5,1","","",""
"","html-keyboard-response","342","5389026","0.0-342.0","","","","","null","<img src=""img/land4.png"" style=""width:200px; border:14px solid green;"">","null","","","","","","","","","",""
"","image-keyboard-response","343","5389092","0.0-343.0","","","","","64.70000000111759","img/land6.png","75","65.90000000037253","2","1","3","2","1,0.5,0.5,0.5,1,0.5,0.5,0.5,1","1,0.5,0.5,0.5,1,0.5,0.5,0.5,1","","",""
"","html-keyboard-response","344","5389394","0.0-344.0","","","","","null","<img src=""img/land6.png"" style=""width:200px; border:14px solid green;"">","null","","","","","","","","","",""
"","image-keyboard-response","345","5389508","0.0-345.0","","","","","113.40000000037253","img/land5.png","74","114.40000000037253","1","0","2","2","1,0.5,0.5,0.5,1,0.5,0.5,0.5,1","1,0.5,0.5,0.5,1,0.5,0.5,0.5,1","","",""
"","html-keyboard-response","346","5389810","0.0-346.0","","","","","null","<img src=""img/land5.png"" style=""width:200px;border:14px solid red;"">","null","","","","","","","","","",""
"","image-keyboard-response","347","5389876","0.0-347.0","","","","","65.30000000074506","img/land5.png","75","66.20000000111759","2","1","2","2","1,0.5,0.5,0.5,1,0.5,0.5,0.5,1","1,0.5,0.5,0.5,1,0.5,0.5,0.5,1","","",""
"","html-keyboard-response","348","5390178","0.0-348.0","","","","","null","<img src=""img/land5.png"" style=""width:200px; border:14px solid green;"">","null","","","","","","","","","",""
"","image-keyboard-response","349","5390212","0.0-349.0","","","","","33.5","img/land6.png","75","34.5","2","1","3","2","1,0.5,0.5,0.5,1,0.5,0.5,0.5,1","1,0.5,0.5,0.5,1,0.5,0.5,0.5,1","","",""
"","html-keyboard-response","350","5390514","0.0-350.0","","","","","null","<img src=""img/land6.png"" style=""width:200px; border:14px solid green;"">","null","","","","","","","","","",""
"","image-keyboard-response","351","5390564","0.0-351.0","","","","","49.5","img/land6.png","75","50.69999999925494","2","0","3","2","1,0.5,0.5,0.5,1,0.5,0.5,0.5,1","1,0.5,0.5,0.5,1,0.5,0.5,0.5,1","","",""
"","html-keyboard-response","352","5390866","0.0-352.0","","","","","null","<img src=""img/land6.png"" style=""width:200px;border:14px solid red;"">","null","","","","","","","","","",""
"","image-keyboard-response","353","5390884","0.0-353.0","","","","","17","img/land4.png","75","18","2","0","1","2","1,0.5,0.5,0.5,1,0.5,0.5,0.5,1","1,0.5,0.5,0.5,1,0.5,0.5,0.5,1","","",""
"","html-keyboard-response","354","5391188","0.0-354.0","","","","","null","<img src=""img/land4.png"" style=""width:200px;border:14px solid red;"">","null","","","","","","","","","",""
"","image-keyboard-response","355","5391189","0.0-355.0","","","","","0.09999999962747097","img/land6.png","75","1.200000001117587","2","0","3","2","1,0.5,0.5,0.5,1,0.5,0.5,0.5,1","1,0.5,0.5,0.5,1,0.5,0.5,0.5,1","","",""
"","html-keyboard-response","356","5391491","0.0-356.0","","","","","null","<img src=""img/land6.png"" style=""width:200px;border:14px solid red;"">","null","","","","","","","","","",""
"","image-keyboard-response","357","5391540","0.0-357.0","","","","","48.20000000111759","img/land5.png","75","49.20000000111759","2","1","2","2","1,0.5,0.5,0.5,1,0.5,0.5,0.5,1","1,0.5,0.5,0.5,1,0.5,0.5,0.5,1","","",""
"","html-keyboard-response","358","5391841","0.0-358.0","","","","","null","<img src=""img/land5.png"" style=""width:200px; border:14px solid green;"">","null","","","","","","","","","",""
"","image-keyboard-response","359","5391845","0.0-359.0","","","","","1.599999999627471","img/land6.png","74","3.099999999627471","1","0","3","2","1,0.5,0.5,0.5,1,0.5,0.5,0.5,1","1,0.5,0.5,0.5,1,0.5,0.5,0.5,1","","",""
"","html-keyboard-response","360","5392147","0.0-360.0","","","","","null","<img src=""img/land6.png"" style=""width:200px;border:14px solid red;"">","null","","","","","","","","","",""
"","image-keyboard-response","361","5392150","0.0-361.0","","","","","2.399999998509884","img/land6.png","75","3.300000000745058","2","0","3","2","1,0.5,0.5,0.5,1,0.5,0.5,0.5,1","1,0.5,0.5,0.5,1,0.5,0.5,0.5,1","","",""
"","html-keyboard-response","362","5392453","0.0-362.0","","","","","null","<img src=""img/land6.png"" style=""width:200px;border:14px solid red;"">","null","","","","","","","","","",""
"","image-keyboard-response","363","5392468","0.0-363.0","","","","","14.099999999627471","img/land5.png","75","15","2","1","2","2","1,0.5,0.5,0.5,1,0.5,0.5,0.5,1","1,0.5,0.5,0.5,1,0.5,0.5,0.5,1","","",""
"","html-keyboard-response","364","5392770","0.0-364.0","","","","","null","<img src=""img/land5.png"" style=""width:200px; border:14px solid green;"">","null","","","","","","","","","",""
"","image-keyboard-response","365","5392774","0.0-365.0","","","","","0.09999999962747097","img/land4.png","76","2.900000000372529","3","0","1","2","1,0.5,0.5,0.5,1,0.5,0.5,0.5,1","1,0.5,0.5,0.5,1,0.5,0.5,0.5,1","","",""
"","html-keyboard-response","366","5393075","0.0-366.0","","","","","null","<img src=""img/land4.png"" style=""width:200px;border:14px solid red;"">","null","","","","","","","","","",""
"","image-keyboard-response","367","5393252","0.0-367.0","","","","","175.80000000074506","img/land5.png","75","176.7000000011176","2","1","2","2","1,0.5,0.5,0.5,1,0.5,0.5,0.5,1","1,0.5,0.5,0.5,1,0.5,0.5,0.5,1","","",""
"","html-keyboard-response","368","5393554","0.0-368.0","","","","","null","<img src=""img/land5.png"" style=""width:200px; border:14px solid green;"">","null","","","","","","","","","",""
"","image-keyboard-response","369","5393588","0.0-369.0","","","","","33.40000000037253","img/land5.png","75","34.5","2","1","2","2","1,0.5,0.5,0.5,1,0.5,0.5,0.5,1","1,0.5,0.5,0.5,1,0.5,0.5,0.5,1","","",""
"","html-keyboard-response","370","5393890","0.0-370.0","","","","","null","<img src=""img/land5.png"" style=""width:200px; border:14px solid green;"">","null","","","","","","","","","",""
"","image-keyboard-response","371","5394084","0.0-371.0","","","","","192.90000000037253","img/land4.png","75","194","2","0","1","2","1,0.5,0.5,0.5,1,0.5,0.5,0.5,1","1,0.5,0.5,0.5,1,0.5,0.5,0.5,1","","",""
"","html-keyboard-response","372","5394428","0.0-372.0","","","","","null","<img src=""img/land4.png"" style=""width:200px;border:14px solid red;"">","null","","","","","","","","","",""
"","image-keyboard-response","373","5394438","0.0-373.0","","","","","7.900000000372529","img/land6.png","76","9.900000000372529","3","1","3","2","1,0.5,0.5,0.5,1,0.5,0.5,0.5,1","1,0.5,0.5,0.5,1,0.5,0.5,0.5,1","","",""
"","html-keyboard-response","374","5394742","0.0-374.0","","","","","null","<img src=""img/land6.png"" style=""width:200px; border:14px solid green;"">","null","","","","","","","","","",""
"","image-keyboard-response","375","5394772","0.0-375.0","","","","","29.300000000745058","img/land6.png","75","30.300000000745058","2","0","3","2","1,0.5,0.5,0.5,1,0.5,0.5,0.5,1","1,0.5,0.5,0.5,1,0.5,0.5,0.5,1","","",""
"","html-keyboard-response","376","5395074","0.0-376.0","","","","","null","<img src=""img/land6.png"" style=""width:200px;border:14px solid red;"">","null","","","","","","","","","",""
"","image-keyboard-response","377","5395092","0.0-377.0","","","","","17.5","img/land6.png","75","18.40000000037253","2","1","3","2","1,0.5,0.5,0.5,1,0.5,0.5,0.5,1","1,0.5,0.5,0.5,1,0.5,0.5,0.5,1","","",""
"","html-keyboard-response","378","5395393","0.0-378.0","","","","","null","<img src=""img/land6.png"" style=""width:200px; border:14px solid green;"">","null","","","","","","","","","",""
"","image-keyboard-response","379","5395476","0.0-379.0","","","","","81.5","img/land6.png","75","82.60000000149012","2","1","3","2","1,0.5,0.5,0.5,1,0.5,0.5,0.5,1","1,0.5,0.5,0.5,1,0.5,0.5,0.5,1","","",""
"","html-keyboard-response","380","5395778","0.0-380.0","","","","","null","<img src=""img/land6.png"" style=""width:200px; border:14px solid green;"">","null","","","","","","","","","",""
"","image-keyboard-response","381","5395782","0.0-381.0","","","","","2","img/land6.png","74","3.200000001117587","1","1","3","2","1,0.5,0.5,0.5,1,0.5,0.5,0.5,1","1,0.5,0.5,0.5,1,0.5,0.5,0.5,1","","",""
"","html-keyboard-response","382","5396085","0.0-382.0","","","","","null","<img src=""img/land6.png"" style=""width:200px; border:14px solid green;"">","null","","","","","","","","","",""
"","image-keyboard-response","383","5396100","0.0-383.0","","","","","14.5","img/land4.png","74","15.5","1","1","1","2","1,0.5,0.5,0.5,1,0.5,0.5,0.5,1","1,0.5,0.5,0.5,1,0.5,0.5,0.5,1","","",""
"","html-keyboard-response","384","5396402","0.0-384.0","","","","","null","<img src=""img/land4.png"" style=""width:200px; border:14px solid green;"">","null","","","","","","","","","",""
"","image-keyboard-response","385","5396500","0.0-385.0","","","","","97.5","img/land4.png","75","98.39999999850988","2","1","1","2","1,0.5,0.5,0.5,1,0.5,0.5,0.5,1","1,0.5,0.5,0.5,1,0.5,0.5,0.5,1","","",""
"","html-keyboard-response","386","5396802","0.0-386.0","","","","","null","<img src=""img/land4.png"" style=""width:200px; border:14px solid green;"">","null","","","","","","","","","",""
"","image-keyboard-response","387","5396852","0.0-387.0","","","","","47.80000000074506","img/land5.png","74","48.79999999888241","1","0","2","2","1,0.5,0.5,0.5,1,0.5,0.5,0.5,1","1,0.5,0.5,0.5,1,0.5,0.5,0.5,1","","",""
"","html-keyboard-response","388","5397154","0.0-388.0","","","","","null","<img src=""img/land5.png"" style=""width:200px;border:14px solid red;"">","null","","","","","","","","","",""
"","image-keyboard-response","389","5397220","0.0-389.0","","","","","65.10000000149012","img/land6.png","74","66.10000000149012","1","1","3","2","1,0.5,0.5,0.5,1,0.5,0.5,0.5,1","1,0.5,0.5,0.5,1,0.5,0.5,0.5,1","","",""
"","html-keyboard-response","390","5397522","0.0-390.0","","","","","null","<img src=""img/land6.png"" style=""width:200px; border:14px solid green;"">","null","","","","","","","","","",""
"","image-keyboard-response","391","5397589","0.0-391.0","","","","","65.89999999850988","img/land5.png","75","67.19999999925494","2","1","2","2","1,0.5,0.5,0.5,1,0.5,0.5,0.5,1","1,0.5,0.5,0.5,1,0.5,0.5,0.5,1","","",""
"","html-keyboard-response","392","5397891","0.0-392.0","","","","","null","<img src=""img/land5.png"" style=""width:200px; border:14px solid green;"">","null","","","","","","","","","",""
"","image-keyboard-response","393","5397940","0.0-393.0","","","","","48.100000001490116","img/land4.png","75","49.20000000111759","2","0","1","2","1,0.5,0.5,0.5,1,0.5,0.5,0.5,1","1,0.5,0.5,0.5,1,0.5,0.5,0.5,1","","",""
"","html-keyboard-response","394","5398242","0.0-394.0","","","","","null","<img src=""img/land4.png"" style=""width:200px;border:14px solid red;"">","null","","","","","","","","","",""
"","image-keyboard-response","395","5398292","0.0-395.0","","","","","49.20000000111759","img/land5.png","75","50.20000000111759","2","1","2","2","1,0.5,0.5,0.5,1,0.5,0.5,0.5,1","1,0.5,0.5,0.5,1,0.5,0.5,0.5,1","","",""
"","html-keyboard-response","396","5398594","0.0-396.0","","","","","null","<img src=""img/land5.png"" style=""width:200px; border:14px solid green;"">","null","","","","","","","","","",""
"","image-keyboard-response","397","5398676","0.0-397.0","","","","","80.90000000037253","img/land4.png","76","82","3","0","1","2","1,0.5,0.5,0.5,1,0.5,0.5,0.5,1","1,0.5,0.5,0.5,1,0.5,0.5,0.5,1","","",""
"","html-keyboard-response","398","5398978","0.0-398.0","","","","","null","<img src=""img/land4.png"" style=""width:200px;border:14px solid red;"">","null","","","","","","","","","",""
"","image-keyboard-response","399","5399028","0.0-399.0","","","","","49.600000001490116","img/land4.png","75","50.70000000111759","2","1","1","2","1,0.5,0.5,0.5,1,0.5,0.5,0.5,1","1,0.5,0.5,0.5,1,0.5,0.5,0.5,1","","",""
"","html-keyboard-response","400","5399330","0.0-400.0","","","","","null","<img src=""img/land4.png"" style=""width:200px; border:14px solid green;"">","null","","","","","","","","","",""
"","image-keyboard-response","401","5399396","0.0-401.0","","","","","65.40000000037253","img/land5.png","75","66.40000000037253","2","1","2","2","1,0.5,0.5,0.5,1,0.5,0.5,0.5,1","1,0.5,0.5,0.5,1,0.5,0.5,0.5,1","","",""
"","html-keyboard-response","402","5399698","0.0-402.0","","","","","null","<img src=""img/land5.png"" style=""width:200px; border:14px solid green;"">","null","","","","","","","","","",""
"","image-keyboard-response","403","5399764","0.0-403.0","","","","","65.10000000149012","img/land5.png","75","66.20000000111759","2","1","2","2","1,0.5,0.5,0.5,1,0.5,0.5,0.5,1","1,0.5,0.5,0.5,1,0.5,0.5,0.5,1","","",""
"","html-keyboard-response","404","5400066","0.0-404.0","","","","","null","<img src=""img/land5.png"" style=""width:200px; border:14px solid green;"">","null","","","","","","","","","",""
"","image-keyboard-response","405","5400181","0.0-405.0","","","","","113.69999999925494","img/land6.png","74","114.79999999888241","1","1","3","2","1,0.5,0.5,0.5,1,0.5,0.5,0.5,1","1,0.5,0.5,0.5,1,0.5,0.5,0.5,1","","",""
"","html-keyboard-response","406","5400483","0.0-406.0","","","","","null","<img src=""img/land6.png"" style=""width:200px; border:14px solid green;"">","null","","","","","","","","","",""
"","image-keyboard-response","407","5400597","0.0-407.0","","","","","112.69999999925494","img/land6.png","74","114.20000000111759","1","1","3","2","1,0.5,0.5,0.5,1,0.5,0.5,0.5,1","1,0.5,0.5,0.5,1,0.5,0.5,0.5,1","","",""
"","html-keyboard-response","408","5400898","0.0-408.0","","","","","null","<img src=""img/land6.png"" style=""width:200px; border:14px solid green;"">","null","","","","","","","","","",""
"","image-keyboard-response","409","5401028","0.0-409.0","","","","","128.40000000037253","img/land5.png","74","129.5","1","0","2","2","1,0.5,0.5,0.5,1,0.5,0.5,0.5,1","1,0.5,0.5,0.5,1,0.5,0.5,0.5,1","","",""
"","html-keyboard-response","410","5401330","0.0-410.0","","","","","null","<img src=""img/land5.png"" style=""width:200px;border:14px solid red;"">","null","","","","","","","","","",""
"","image-keyboard-response","411","5401428","0.0-411.0","","","","","97.5","img/land6.png","74","98.60000000149012","1","0","3","2","1,0.5,0.5,0.5,1,0.5,0.5,0.5,1","1,0.5,0.5,0.5,1,0.5,0.5,0.5,1","","",""
"","html-keyboard-response","412","5401730","0.0-412.0","","","","","null","<img src=""img/land6.png"" style=""width:200px;border:14px solid red;"">","null","","","","","","","","","",""
"","image-keyboard-response","413","5401828","0.0-413.0","","","","","97.19999999925494","img/land6.png","74","98.5","1","1","3","2","1,0.5,0.5,0.5,1,0.5,0.5,0.5,1","1,0.5,0.5,0.5,1,0.5,0.5,0.5,1","","",""
"","html-keyboard-response","414","5402129","0.0-414.0","","","","","null","<img src=""img/land6.png"" style=""width:200px; border:14px solid green;"">","null","","","","","","","","","",""
"","image-keyboard-response","415","5402261","0.0-415.0","","","","","130.2000000011176","img/land6.png","74","131.30000000074506","1","0","3","2","1,0.5,0.5,0.5,1,0.5,0.5,0.5,1","1,0.5,0.5,0.5,1,0.5,0.5,0.5,1","","",""
"","html-keyboard-response","416","5402563","0.0-416.0","","","","","null","<img src=""img/land6.png"" style=""width:200px;border:14px solid red;"">","null","","","","","","","","","",""
"","image-keyboard-response","417","5402628","0.0-417.0","","","","","64.10000000149012","img/land5.png","75","65.40000000037253","2","1","2","2","1,0.5,0.5,0.5,1,0.5,0.5,0.5,1","1,0.5,0.5,0.5,1,0.5,0.5,0.5,1","","",""
"","html-keyboard-response","418","5402930","0.0-418.0","","","","","null","<img src=""img/land5.png"" style=""width:200px; border:14px solid green;"">","null","","","","","","","","","",""
"","image-keyboard-response","419","5403013","0.0-419.0","","","","","81.30000000074506","img/land6.png","74","82.5","1","0","3","2","1,0.5,0.5,0.5,1,0.5,0.5,0.5,1","1,0.5,0.5,0.5,1,0.5,0.5,0.5,1","","",""
"","html-keyboard-response","420","5403314","0.0-420.0","","","","","null","<img src=""img/land6.png"" style=""width:200px;border:14px solid red;"">","null","","","","","","","","","",""
"","image-keyboard-response","421","5403397","0.0-421.0","","","","","81","img/land4.png","74","82.5","1","1","1","2","1,0.5,0.5,0.5,1,0.5,0.5,0.5,1","1,0.5,0.5,0.5,1,0.5,0.5,0.5,1","","",""
"","html-keyboard-response","422","5403699","0.0-422.0","","","","","null","<img src=""img/land4.png"" style=""width:200px; border:14px solid green;"">","null","","","","","","","","","",""
"","image-keyboard-response","423","5403796","0.0-423.0","","","","","95.80000000074506","img/land5.png","74","96.80000000074506","1","1","2","2","1,0.5,0.5,0.5,1,0.5,0.5,0.5,1","1,0.5,0.5,0.5,1,0.5,0.5,0.5,1","","",""
"","html-keyboard-response","424","5404098","0.0-424.0","","","","","null","<img src=""img/land5.png"" style=""width:200px; border:14px solid green;"">","null","","","","","","","","","",""
"","image-keyboard-response","425","5404308","0.0-425.0","","","","","209.09999999962747","img/land4.png","76","210.10000000149012","3","1","1","2","1,0.5,0.5,0.5,1,0.5,0.5,0.5,1","1,0.5,0.5,0.5,1,0.5,0.5,0.5,1","","",""
"","html-keyboard-response","426","5404610","0.0-426.0","","","","","null","<img src=""img/land4.png"" style=""width:200px; border:14px solid green;"">","null","","","","","","","","","",""
"","image-keyboard-response","427","5404614","0.0-427.0","","","","","2.399999998509884","img/land6.png","74","3.400000000372529","1","1","3","2","1,0.5,0.5,0.5,1,0.5,0.5,0.5,1","1,0.5,0.5,0.5,1,0.5,0.5,0.5,1","","",""
"","html-keyboard-response","428","5404917","0.0-428.0","","","","","null","<img src=""img/land6.png"" style=""width:200px; border:14px solid green;"">","null","","","","","","","","","",""
"","image-keyboard-response","429","5404996","0.0-429.0","","","","","78.30000000074506","img/land5.png","74","79.40000000037253","1","1","2","2","1,0.5,0.5,0.5,1,0.5,0.5,0.5,1","1,0.5,0.5,0.5,1,0.5,0.5,0.5,1","","",""
"","html-keyboard-response","430","5405298","0.0-430.0","","","","","null","<img src=""img/land5.png"" style=""width:200px; border:14px solid green;"">","null","","","","","","","","","",""
"","image-keyboard-response","431","5405364","0.0-431.0","","","","","65.10000000149012","img/land5.png","75","66.20000000111759","2","1","2","2","1,0.5,0.5,0.5,1,0.5,0.5,0.5,1","1,0.5,0.5,0.5,1,0.5,0.5,0.5,1","","",""
"","html-keyboard-response","432","5405666","0.0-432.0","","","","","null","<img src=""img/land5.png"" style=""width:200px; border:14px solid green;"">","null","","","","","","","","","",""
"","image-keyboard-response","433","5405764","0.0-433.0","","","","","97.5","img/land4.png","75","98.59999999962747","2","0","1","2","1,0.5,0.5,0.5,1,0.5,0.5,0.5,1","1,0.5,0.5,0.5,1,0.5,0.5,0.5,1","","",""
"","html-keyboard-response","434","5406066","0.0-434.0","","","","","null","<img src=""img/land4.png"" style=""width:200px;border:14px solid red;"">","null","","","","","","","","","",""
"","image-keyboard-response","435","5406132","0.0-435.0","","","","","64.70000000111759","img/land4.png","75","65.70000000111759","2","0","1","2","1,0.5,0.5,0.5,1,0.5,0.5,0.5,1","1,0.5,0.5,0.5,1,0.5,0.5,0.5,1","","",""
"","html-keyboard-response","436","5406434","0.0-436.0","","","","","null","<img src=""img/land4.png"" style=""width:200px;border:14px solid red;"">","null","","","","","","","","","",""
"","image-keyboard-response","437","5406532","0.0-437.0","","","","","97.29999999888241","img/land4.png","74","98.40000000037253","1","1","1","2","1,0.5,0.5,0.5,1,0.5,0.5,0.5,1","1,0.5,0.5,0.5,1,0.5,0.5,0.5,1","","",""
"","html-keyboard-response","438","5406834","0.0-438.0","","","","","null","<img src=""img/land4.png"" style=""width:200px; border:14px solid green;"">","null","","","","","","","","","",""
"","image-keyboard-response","439","5406932","0.0-439.0","","","","","97.30000000074506","img/land4.png","74","98.30000000074506","1","1","1","2","1,0.5,0.5,0.5,1,0.5,0.5,0.5,1","1,0.5,0.5,0.5,1,0.5,0.5,0.5,1","","",""
"","html-keyboard-response","440","5407235","0.0-440.0","","","","","null","<img src=""img/land4.png"" style=""width:200px; border:14px solid green;"">","null","","","","","","","","","",""
"","image-keyboard-response","441","5407332","0.0-441.0","","","","","96.5","img/land5.png","75","97.5","2","1","2","2","1,0.5,0.5,0.5,1,0.5,0.5,0.5,1","1,0.5,0.5,0.5,1,0.5,0.5,0.5,1","","",""
"","html-keyboard-response","442","5407634","0.0-442.0","","","","","null","<img src=""img/land5.png"" style=""width:200px; border:14px solid green;"">","null","","","","","","","","","",""
"","image-keyboard-response","443","5407749","0.0-443.0","","","","","113","img/land5.png","74","114.19999999925494","1","1","2","2","1,0.5,0.5,0.5,1,0.5,0.5,0.5,1","1,0.5,0.5,0.5,1,0.5,0.5,0.5,1","","",""
"","html-keyboard-response","444","5408050","0.0-444.0","","","","","null","<img src=""img/land5.png"" style=""width:200px; border:14px solid green;"">","null","","","","","","","","","",""
"","image-keyboard-response","445","5408148","0.0-445.0","","","","","96.70000000111759","img/land4.png","75","97.80000000074506","2","0","1","2","1,0.5,0.5,0.5,1,0.5,0.5,0.5,1","1,0.5,0.5,0.5,1,0.5,0.5,0.5,1","","",""
"","html-keyboard-response","446","5408450","0.0-446.0","","","","","null","<img src=""img/land4.png"" style=""width:200px;border:14px solid red;"">","null","","","","","","","","","",""
"","image-keyboard-response","447","5408533","0.0-447.0","","","","","81.5","img/land4.png","74","82.69999999925494","1","1","1","2","1,0.5,0.5,0.5,1,0.5,0.5,0.5,1","1,0.5,0.5,0.5,1,0.5,0.5,0.5,1","","",""
"","html-keyboard-response","448","5408834","0.0-448.0","","","","","null","<img src=""img/land4.png"" style=""width:200px; border:14px solid green;"">","null","","","","","","","","","",""
"","image-keyboard-response","449","5408997","0.0-449.0","","","","","162.10000000149012","img/land5.png","75","163.2000000011176","2","1","2","2","1,0.5,0.5,0.5,1,0.5,0.5,0.5,1","1,0.5,0.5,0.5,1,0.5,0.5,0.5,1","","",""
"","html-keyboard-response","450","5409299","0.0-450.0","","","","","null","<img src=""img/land5.png"" style=""width:200px; border:14px solid green;"">","null","","","","","","","","","",""
"","image-keyboard-response","451","5409348","0.0-451.0","","","","","48.30000000074506","img/land4.png","75","49.30000000074506","2","1","1","2","1,0.5,0.5,0.5,1,0.5,0.5,0.5,1","1,0.5,0.5,0.5,1,0.5,0.5,0.5,1","","",""
"","html-keyboard-response","452","5409650","0.0-452.0","","","","","null","<img src=""img/land4.png"" style=""width:200px; border:14px solid green;"">","null","","","","","","","","","",""
"","image-keyboard-response","453","5411152","0.0-453.0","","","","","","img/land4.png","","1501.300000000745","-1","0","1","2","1,0.5,0.5,0.5,1,0.5,0.5,0.5,1","1,0.5,0.5,0.5,1,0.5,0.5,0.5,1","","",""
"","html-keyboard-response","454","5411453","0.0-454.0","","","","","null","<img src=""img/land4.png"" style=""width:200px;border:14px solid red;"">","null","","","","","","","","","",""
"","image-keyboard-response","455","5412955","0.0-455.0","","","","","","img/land6.png","","1501.699999999255","-1","0","3","2","1,0.5,0.5,0.5,1,0.5,0.5,0.5,1","1,0.5,0.5,0.5,1,0.5,0.5,0.5,1","","",""
"","html-keyboard-response","456","5413257","0.0-456.0","","","","","null","<img src=""img/land6.png"" style=""width:200px;border:14px solid red;"">","null","","","","","","","","","",""
"","image-keyboard-response","457","5414759","0.0-457.0","","","","","","img/land4.png","","1502.5","-1","0","1","2","1,0.5,0.5,0.5,1,0.5,0.5,0.5,1","1,0.5,0.5,0.5,1,0.5,0.5,0.5,1","","",""
"","html-keyboard-response","458","5415061","0.0-458.0","","","","","null","<img src=""img/land4.png"" style=""width:200px;border:14px solid red;"">","null","","","","","","","","","",""
"","image-keyboard-response","459","5416563","0.0-459.0","","","","","","img/land5.png","","1501.2999999988824","-1","0","2","2","1,0.5,0.5,0.5,1,0.5,0.5,0.5,1","1,0.5,0.5,0.5,1,0.5,0.5,0.5,1","","",""
"","html-keyboard-response","460","5416864","0.0-460.0","","","","","null","<img src=""img/land5.png"" style=""width:200px;border:14px solid red;"">","null","","","","","","","","","",""
"","image-keyboard-response","461","5418366","0.0-461.0","","","","","","img/land4.png","","1501.7000000011176","-1","0","1","2","1,0.5,0.5,0.5,1,0.5,0.5,0.5,1","1,0.5,0.5,0.5,1,0.5,0.5,0.5,1","","",""
"","html-keyboard-response","462","5418667","0.0-462.0","","","","","null","<img src=""img/land4.png"" style=""width:200px;border:14px solid red;"">","null","","","","","","","","","",""
"","image-keyboard-response","463","5420169","0.0-463.0","","","","","","img/land4.png","","1501.7999999988824","-1","0","1","2","1,0.5,0.5,0.5,1,0.5,0.5,0.5,1","1,0.5,0.5,0.5,1,0.5,0.5,0.5,1","","",""
"","html-keyboard-response","464","5420472","0.0-464.0","","","","","null","<img src=""img/land4.png"" style=""width:200px;border:14px solid red;"">","null","","","","","","","","","",""
"","image-keyboard-response","465","5421974","0.0-465.0","","","","","","img/land6.png","","1502.1000000014901","-1","0","3","2","1,0.5,0.5,0.5,1,0.5,0.5,0.5,1","1,0.5,0.5,0.5,1,0.5,0.5,0.5,1","","",""
"","html-keyboard-response","466","5422275","0.0-466.0","","","","","null","<img src=""img/land6.png"" style=""width:200px;border:14px solid red;"">","null","","","","","","","","","",""
"","image-keyboard-response","467","5423777","0.0-467.0","","","","","","img/land6.png","","1501.9000000003725","-1","0","3","2","1,0.5,0.5,0.5,1,0.5,0.5,0.5,1","1,0.5,0.5,0.5,1,0.5,0.5,0.5,1","","",""
"","html-keyboard-response","468","5424098","0.0-468.0","","","","","null","<img src=""img/land6.png"" style=""width:200px;border:14px solid red;"">","null","","","","","","","","","",""
"","image-keyboard-response","469","5425600","0.0-469.0","","","","","","img/land5.png","","1501.4000000003725","-1","0","2","2","1,0.5,0.5,0.5,1,0.5,0.5,0.5,1","1,0.5,0.5,0.5,1,0.5,0.5,0.5,1","","",""
"","html-keyboard-response","470","5425901","0.0-470.0","","","","","null","<img src=""img/land5.png"" style=""width:200px;border:14px solid red;"">","null","","","","","","","","","",""
"","image-keyboard-response","471","5427403","0.0-471.0","","","","","","img/land6.png","","1501.7999999988824","-1","0","3","2","1,0.5,0.5,0.5,1,0.5,0.5,0.5,1","1,0.5,0.5,0.5,1,0.5,0.5,0.5,1","","",""
"","html-keyboard-response","472","5427705","0.0-472.0","","","","","null","<img src=""img/land6.png"" style=""width:200px;border:14px solid red;"">","null","","","","","","","","","",""
"","image-keyboard-response","473","5429206","0.0-473.0","","","","","","img/land4.png","","1501.4000000003725","-1","0","1","2","1,0.5,0.5,0.5,1,0.5,0.5,0.5,1","1,0.5,0.5,0.5,1,0.5,0.5,0.5,1","","",""
"","html-keyboard-response","474","5429508","0.0-474.0","","","","","null","<img src=""img/land4.png"" style=""width:200px;border:14px solid red;"">","null","","","","","","","","","",""
"","image-keyboard-response","475","5431010","0.0-475.0","","","","","","img/land6.png","","1501.699999999255","-1","0","3","2","1,0.5,0.5,0.5,1,0.5,0.5,0.5,1","1,0.5,0.5,0.5,1,0.5,0.5,0.5,1","","",""
"","html-keyboard-response","476","5431312","0.0-476.0","","","","","null","<img src=""img/land6.png"" style=""width:200px;border:14px solid red;"">","null","","","","","","","","","",""
"","image-keyboard-response","477","5432814","0.0-477.0","","","","","","img/land4.png","","1502.199999999255","-1","0","1","2","1,0.5,0.5,0.5,1,0.5,0.5,0.5,1","1,0.5,0.5,0.5,1,0.5,0.5,0.5,1","","",""
"","html-keyboard-response","478","5433116","0.0-478.0","","","","","null","<img src=""img/land4.png"" style=""width:200px;border:14px solid red;"">","null","","","","","","","","","",""
"","image-keyboard-response","479","5434619","0.0-479.0","","","","","","img/land4.png","","1502.0999999996275","-1","0","1","2","1,0.5,0.5,0.5,1,0.5,0.5,0.5,1","1,0.5,0.5,0.5,1,0.5,0.5,0.5,1","","",""
"","html-keyboard-response","480","5434921","0.0-480.0","","","","","null","<img src=""img/land4.png"" style=""width:200px;border:14px solid red;"">","null","","","","","","","","","",""
"","image-keyboard-response","481","5436423","0.0-481.0","","","","","","img/land4.png","","1501.699999999255","-1","0","1","2","1,0.5,0.5,0.5,1,0.5,0.5,0.5,1","1,0.5,0.5,0.5,1,0.5,0.5,0.5,1","","",""
"","html-keyboard-response","482","5436724","0.0-482.0","","","","","null","<img src=""img/land4.png"" style=""width:200px;border:14px solid red;"">","null","","","","","","","","","",""
"","instructions","483","5522790","0.0-483.0","","","","[{""page_index"":0,""viewing_time"":86064.69999999925}]","86065","","","","","","","","","","","",""
"","survey-text","484","5527935","0.0-484.0-0.0","","","","","5137.5","","","","","","","","","","","{""Q0"":""32""}",""
"","survey-multi-choice","485","5533623","0.0-484.0-1.0","","","","","5685.60000000149","","","","","","","","","","","{""gender"":""F""}","[0]"
"","survey-text","486","5548318","0.0-485.0","","","","","14690.200000001118","","","","","","","","","","","{""Q0"":""A31A1PVXLJBISZ""}",""
