"success","trial_type","trial_index","time_elapsed","internal_node_id","assignmentID","mturkID","hitID","view_history","rt","stimulus","key_press","reactionTime","a","r","s","cond","reward_cond","reward_cond_actual","reward_matrix_idx","responses","question_order"
"true","fullscreen","0","2987","0.0-0.0","31N2WW6R9SCYSNVYKK5MUXAMCCWF3Z","A31P9Z3VBQM1PB","3XT3KXP24ZKFDDMCDS43FE3AU9W6IW","","","","","","","","","","","","","",""
"","instructions","1","20645","0.0-1.0","31N2WW6R9SCYSNVYKK5MUXAMCCWF3Z","A31P9Z3VBQM1PB","3XT3KXP24ZKFDDMCDS43FE3AU9W6IW","[{""page_index"":0,""viewing_time"":5272.600000143051},{""page_index"":1,""viewing_time"":1279.8999998569489},{""page_index"":2,""viewing_time"":880},{""page_index"":3,""viewing_time"":4728},{""page_index"":4,""viewing_time"":2304.2999999523163},{""page_index"":5,""viewing_time"":1935.7000000476837},{""page_index"":6,""viewing_time"":1256}]","17656.799999952316","","","","","","","","","","","",""
"","image-keyboard-response","2","22109","0.0-2.0","31N2WW6R9SCYSNVYKK5MUXAMCCWF3Z","A31P9Z3VBQM1PB","3XT3KXP24ZKFDDMCDS43FE3AU9W6IW","","1463.0999999046326","img/land3.png","74","1463.9000000953674","1","0","3","2","0.8,0.2,0.2,0.2,0.8,0.2,0.2,0.2,0.8","0.8,0.2,0.2,0.2,0.8,0.2,0.2,0.2,0.8","1","",""
"","html-keyboard-response","3","22421","0.0-3.0","31N2WW6R9SCYSNVYKK5MUXAMCCWF3Z","A31P9Z3VBQM1PB","3XT3KXP24ZKFDDMCDS43FE3AU9W6IW","","null","<img src=""img/land3.png"" style=""width:200px;border:14px solid red;"">","null","","","","","","","","","",""
"","image-keyboard-response","4","22924","0.0-4.0","31N2WW6R9SCYSNVYKK5MUXAMCCWF3Z","A31P9Z3VBQM1PB","3XT3KXP24ZKFDDMCDS43FE3AU9W6IW","","502.7000000476837","img/land2.png","74","503.10000014305115","1","0","2","2","0.8,0.2,0.2,0.2,0.8,0.2,0.2,0.2,0.8","0.8,0.2,0.2,0.2,0.8,0.2,0.2,0.2,0.8","1","",""
"","html-keyboard-response","5","23233","0.0-5.0","31N2WW6R9SCYSNVYKK5MUXAMCCWF3Z","A31P9Z3VBQM1PB","3XT3KXP24ZKFDDMCDS43FE3AU9W6IW","","null","<img src=""img/land2.png"" style=""width:200px;border:14px solid red;"">","null","","","","","","","","","",""
"","image-keyboard-response","6","23661","0.0-6.0","31N2WW6R9SCYSNVYKK5MUXAMCCWF3Z","A31P9Z3VBQM1PB","3XT3KXP24ZKFDDMCDS43FE3AU9W6IW","","427.2000000476837","img/land6.png","74","427.80000019073486","1","1","1","2","0.8,0.2,0.2,0.2,0.8,0.2,0.2,0.2,0.8","0.8,0.2,0.2,0.2,0.8,0.2,0.2,0.2,0.8","1","",""
"","html-keyboard-response","7","23964","0.0-7.0","31N2WW6R9SCYSNVYKK5MUXAMCCWF3Z","A31P9Z3VBQM1PB","3XT3KXP24ZKFDDMCDS43FE3AU9W6IW","","null","<img src=""img/land6.png"" style=""width:200px; border:14px solid green;"">","null","","","","","","","","","",""
"","image-keyboard-response","8","24516","0.0-8.0","31N2WW6R9SCYSNVYKK5MUXAMCCWF3Z","A31P9Z3VBQM1PB","3XT3KXP24ZKFDDMCDS43FE3AU9W6IW","","551.4000000953674","img/land6.png","74","551.8999998569489","1","0","1","2","0.8,0.2,0.2,0.2,0.8,0.2,0.2,0.2,0.8","0.8,0.2,0.2,0.2,0.8,0.2,0.2,0.2,0.8","1","",""
"","html-keyboard-response","9","24823","0.0-9.0","31N2WW6R9SCYSNVYKK5MUXAMCCWF3Z","A31P9Z3VBQM1PB","3XT3KXP24ZKFDDMCDS43FE3AU9W6IW","","null","<img src=""img/land6.png"" style=""width:200px;border:14px solid red;"">","null","","","","","","","","","",""
"","image-keyboard-response","10","25364","0.0-10.0","31N2WW6R9SCYSNVYKK5MUXAMCCWF3Z","A31P9Z3VBQM1PB","3XT3KXP24ZKFDDMCDS43FE3AU9W6IW","","540.5999999046326","img/land2.png","74","541.1000001430511","1","0","2","2","0.8,0.2,0.2,0.2,0.8,0.2,0.2,0.2,0.8","0.8,0.2,0.2,0.2,0.8,0.2,0.2,0.2,0.8","1","",""
"","html-keyboard-response","11","25672","0.0-11.0","31N2WW6R9SCYSNVYKK5MUXAMCCWF3Z","A31P9Z3VBQM1PB","3XT3KXP24ZKFDDMCDS43FE3AU9W6IW","","null","<img src=""img/land2.png"" style=""width:200px;border:14px solid red;"">","null","","","","","","","","","",""
"","image-keyboard-response","12","26012","0.0-12.0","31N2WW6R9SCYSNVYKK5MUXAMCCWF3Z","A31P9Z3VBQM1PB","3XT3KXP24ZKFDDMCDS43FE3AU9W6IW","","339.90000009536743","img/land3.png","74","340.39999985694885","1","0","3","2","0.8,0.2,0.2,0.2,0.8,0.2,0.2,0.2,0.8","0.8,0.2,0.2,0.2,0.8,0.2,0.2,0.2,0.8","1","",""
"","html-keyboard-response","13","26321","0.0-13.0","31N2WW6R9SCYSNVYKK5MUXAMCCWF3Z","A31P9Z3VBQM1PB","3XT3KXP24ZKFDDMCDS43FE3AU9W6IW","","null","<img src=""img/land3.png"" style=""width:200px;border:14px solid red;"">","null","","","","","","","","","",""
"","image-keyboard-response","14","26621","0.0-14.0","31N2WW6R9SCYSNVYKK5MUXAMCCWF3Z","A31P9Z3VBQM1PB","3XT3KXP24ZKFDDMCDS43FE3AU9W6IW","","299.2000000476837","img/land6.png","74","299.7999999523163","1","1","1","2","0.8,0.2,0.2,0.2,0.8,0.2,0.2,0.2,0.8","0.8,0.2,0.2,0.2,0.8,0.2,0.2,0.2,0.8","1","",""
"","html-keyboard-response","15","26923","0.0-15.0","31N2WW6R9SCYSNVYKK5MUXAMCCWF3Z","A31P9Z3VBQM1PB","3XT3KXP24ZKFDDMCDS43FE3AU9W6IW","","null","<img src=""img/land6.png"" style=""width:200px; border:14px solid green;"">","null","","","","","","","","","",""
"","image-keyboard-response","16","27292","0.0-16.0","31N2WW6R9SCYSNVYKK5MUXAMCCWF3Z","A31P9Z3VBQM1PB","3XT3KXP24ZKFDDMCDS43FE3AU9W6IW","","368.7999999523163","img/land6.png","74","369.40000009536743","1","1","1","2","0.8,0.2,0.2,0.2,0.8,0.2,0.2,0.2,0.8","0.8,0.2,0.2,0.2,0.8,0.2,0.2,0.2,0.8","1","",""
"","html-keyboard-response","17","27597","0.0-17.0","31N2WW6R9SCYSNVYKK5MUXAMCCWF3Z","A31P9Z3VBQM1PB","3XT3KXP24ZKFDDMCDS43FE3AU9W6IW","","null","<img src=""img/land6.png"" style=""width:200px; border:14px solid green;"">","null","","","","","","","","","",""
"","image-keyboard-response","18","28076","0.0-18.0","31N2WW6R9SCYSNVYKK5MUXAMCCWF3Z","A31P9Z3VBQM1PB","3XT3KXP24ZKFDDMCDS43FE3AU9W6IW","","478.59999990463257","img/land2.png","74","479.10000014305115","1","0","2","2","0.8,0.2,0.2,0.2,0.8,0.2,0.2,0.2,0.8","0.8,0.2,0.2,0.2,0.8,0.2,0.2,0.2,0.8","1","",""
"","html-keyboard-response","19","28386","0.0-19.0","31N2WW6R9SCYSNVYKK5MUXAMCCWF3Z","A31P9Z3VBQM1PB","3XT3KXP24ZKFDDMCDS43FE3AU9W6IW","","null","<img src=""img/land2.png"" style=""width:200px;border:14px solid red;"">","null","","","","","","","","","",""
"","image-keyboard-response","20","28621","0.0-20.0","31N2WW6R9SCYSNVYKK5MUXAMCCWF3Z","A31P9Z3VBQM1PB","3XT3KXP24ZKFDDMCDS43FE3AU9W6IW","","234.19999980926514","img/land2.png","74","234.70000004768372","1","0","2","2","0.8,0.2,0.2,0.2,0.8,0.2,0.2,0.2,0.8","0.8,0.2,0.2,0.2,0.8,0.2,0.2,0.2,0.8","1","",""
"","html-keyboard-response","21","28932","0.0-21.0","31N2WW6R9SCYSNVYKK5MUXAMCCWF3Z","A31P9Z3VBQM1PB","3XT3KXP24ZKFDDMCDS43FE3AU9W6IW","","null","<img src=""img/land2.png"" style=""width:200px;border:14px solid red;"">","null","","","","","","","","","",""
"","image-keyboard-response","22","29132","0.0-22.0","31N2WW6R9SCYSNVYKK5MUXAMCCWF3Z","A31P9Z3VBQM1PB","3XT3KXP24ZKFDDMCDS43FE3AU9W6IW","","199.20000004768372","img/land3.png","74","199.79999995231628","1","0","3","2","0.8,0.2,0.2,0.2,0.8,0.2,0.2,0.2,0.8","0.8,0.2,0.2,0.2,0.8,0.2,0.2,0.2,0.8","1","",""
"","html-keyboard-response","23","29434","0.0-23.0","31N2WW6R9SCYSNVYKK5MUXAMCCWF3Z","A31P9Z3VBQM1PB","3XT3KXP24ZKFDDMCDS43FE3AU9W6IW","","null","<img src=""img/land3.png"" style=""width:200px;border:14px solid red;"">","null","","","","","","","","","",""
"","image-keyboard-response","24","30204","0.0-24.0","31N2WW6R9SCYSNVYKK5MUXAMCCWF3Z","A31P9Z3VBQM1PB","3XT3KXP24ZKFDDMCDS43FE3AU9W6IW","","769.5","img/land6.png","75","769.8999998569489","2","0","1","2","0.8,0.2,0.2,0.2,0.8,0.2,0.2,0.2,0.8","0.8,0.2,0.2,0.2,0.8,0.2,0.2,0.2,0.8","1","",""
"","html-keyboard-response","25","30506","0.0-25.0","31N2WW6R9SCYSNVYKK5MUXAMCCWF3Z","A31P9Z3VBQM1PB","3XT3KXP24ZKFDDMCDS43FE3AU9W6IW","","null","<img src=""img/land6.png"" style=""width:200px;border:14px solid red;"">","null","","","","","","","","","",""
"","image-keyboard-response","26","30788","0.0-26.0","31N2WW6R9SCYSNVYKK5MUXAMCCWF3Z","A31P9Z3VBQM1PB","3XT3KXP24ZKFDDMCDS43FE3AU9W6IW","","281.7999999523163","img/land6.png","74","282.2999999523163","1","0","1","2","0.8,0.2,0.2,0.2,0.8,0.2,0.2,0.2,0.8","0.8,0.2,0.2,0.2,0.8,0.2,0.2,0.2,0.8","1","",""
"","html-keyboard-response","27","31090","0.0-27.0","31N2WW6R9SCYSNVYKK5MUXAMCCWF3Z","A31P9Z3VBQM1PB","3XT3KXP24ZKFDDMCDS43FE3AU9W6IW","","null","<img src=""img/land6.png"" style=""width:200px;border:14px solid red;"">","null","","","","","","","","","",""
"","image-keyboard-response","28","31244","0.0-28.0","31N2WW6R9SCYSNVYKK5MUXAMCCWF3Z","A31P9Z3VBQM1PB","3XT3KXP24ZKFDDMCDS43FE3AU9W6IW","","153.60000014305115","img/land6.png","74","154.19999980926514","1","1","1","2","0.8,0.2,0.2,0.2,0.8,0.2,0.2,0.2,0.8","0.8,0.2,0.2,0.2,0.8,0.2,0.2,0.2,0.8","1","",""
"","html-keyboard-response","29","31545","0.0-29.0","31N2WW6R9SCYSNVYKK5MUXAMCCWF3Z","A31P9Z3VBQM1PB","3XT3KXP24ZKFDDMCDS43FE3AU9W6IW","","null","<img src=""img/land6.png"" style=""width:200px; border:14px solid green;"">","null","","","","","","","","","",""
"","image-keyboard-response","30","31716","0.0-30.0","31N2WW6R9SCYSNVYKK5MUXAMCCWF3Z","A31P9Z3VBQM1PB","3XT3KXP24ZKFDDMCDS43FE3AU9W6IW","","170.29999995231628","img/land6.png","74","170.69999980926514","1","1","1","2","0.8,0.2,0.2,0.2,0.8,0.2,0.2,0.2,0.8","0.8,0.2,0.2,0.2,0.8,0.2,0.2,0.2,0.8","1","",""
"","html-keyboard-response","31","32018","0.0-31.0","31N2WW6R9SCYSNVYKK5MUXAMCCWF3Z","A31P9Z3VBQM1PB","3XT3KXP24ZKFDDMCDS43FE3AU9W6IW","","null","<img src=""img/land6.png"" style=""width:200px; border:14px solid green;"">","null","","","","","","","","","",""
"","image-keyboard-response","32","32060","0.0-32.0","31N2WW6R9SCYSNVYKK5MUXAMCCWF3Z","A31P9Z3VBQM1PB","3XT3KXP24ZKFDDMCDS43FE3AU9W6IW","","42.200000047683716","img/land2.png","74","42.59999990463257","1","0","2","2","0.8,0.2,0.2,0.2,0.8,0.2,0.2,0.2,0.8","0.8,0.2,0.2,0.2,0.8,0.2,0.2,0.2,0.8","1","",""
"","html-keyboard-response","33","32362","0.0-33.0","31N2WW6R9SCYSNVYKK5MUXAMCCWF3Z","A31P9Z3VBQM1PB","3XT3KXP24ZKFDDMCDS43FE3AU9W6IW","","null","<img src=""img/land2.png"" style=""width:200px;border:14px solid red;"">","null","","","","","","","","","",""
"","image-keyboard-response","34","32421","0.0-34.0","31N2WW6R9SCYSNVYKK5MUXAMCCWF3Z","A31P9Z3VBQM1PB","3XT3KXP24ZKFDDMCDS43FE3AU9W6IW","","58.700000047683716","img/land6.png","74","59.30000019073486","1","1","1","2","0.8,0.2,0.2,0.2,0.8,0.2,0.2,0.2,0.8","0.8,0.2,0.2,0.2,0.8,0.2,0.2,0.2,0.8","1","",""
"","html-keyboard-response","35","32722","0.0-35.0","31N2WW6R9SCYSNVYKK5MUXAMCCWF3Z","A31P9Z3VBQM1PB","3XT3KXP24ZKFDDMCDS43FE3AU9W6IW","","null","<img src=""img/land6.png"" style=""width:200px; border:14px solid green;"">","null","","","","","","","","","",""
"","image-keyboard-response","36","33188","0.0-36.0","31N2WW6R9SCYSNVYKK5MUXAMCCWF3Z","A31P9Z3VBQM1PB","3XT3KXP24ZKFDDMCDS43FE3AU9W6IW","","465.2000000476837","img/land3.png","75","465.7999999523163","2","0","3","2","0.8,0.2,0.2,0.2,0.8,0.2,0.2,0.2,0.8","0.8,0.2,0.2,0.2,0.8,0.2,0.2,0.2,0.8","1","",""
"","html-keyboard-response","37","33489","0.0-37.0","31N2WW6R9SCYSNVYKK5MUXAMCCWF3Z","A31P9Z3VBQM1PB","3XT3KXP24ZKFDDMCDS43FE3AU9W6IW","","null","<img src=""img/land3.png"" style=""width:200px;border:14px solid red;"">","null","","","","","","","","","",""
"","image-keyboard-response","38","33685","0.0-38.0","31N2WW6R9SCYSNVYKK5MUXAMCCWF3Z","A31P9Z3VBQM1PB","3XT3KXP24ZKFDDMCDS43FE3AU9W6IW","","194.59999990463257","img/land3.png","75","195","2","1","3","2","0.8,0.2,0.2,0.2,0.8,0.2,0.2,0.2,0.8","0.8,0.2,0.2,0.2,0.8,0.2,0.2,0.2,0.8","1","",""
"","html-keyboard-response","39","33986","0.0-39.0","31N2WW6R9SCYSNVYKK5MUXAMCCWF3Z","A31P9Z3VBQM1PB","3XT3KXP24ZKFDDMCDS43FE3AU9W6IW","","null","<img src=""img/land3.png"" style=""width:200px; border:14px solid green;"">","null","","","","","","","","","",""
"","image-keyboard-response","40","34268","0.0-40.0","31N2WW6R9SCYSNVYKK5MUXAMCCWF3Z","A31P9Z3VBQM1PB","3XT3KXP24ZKFDDMCDS43FE3AU9W6IW","","281.2000000476837","img/land6.png","76","281.7999999523163","3","0","1","2","0.8,0.2,0.2,0.2,0.8,0.2,0.2,0.2,0.8","0.8,0.2,0.2,0.2,0.8,0.2,0.2,0.2,0.8","1","",""
"","html-keyboard-response","41","34570","0.0-41.0","31N2WW6R9SCYSNVYKK5MUXAMCCWF3Z","A31P9Z3VBQM1PB","3XT3KXP24ZKFDDMCDS43FE3AU9W6IW","","null","<img src=""img/land6.png"" style=""width:200px;border:14px solid red;"">","null","","","","","","","","","",""
"","image-keyboard-response","42","34748","0.0-42.0","31N2WW6R9SCYSNVYKK5MUXAMCCWF3Z","A31P9Z3VBQM1PB","3XT3KXP24ZKFDDMCDS43FE3AU9W6IW","","177.79999995231628","img/land6.png","76","178.29999995231628","3","0","1","2","0.8,0.2,0.2,0.2,0.8,0.2,0.2,0.2,0.8","0.8,0.2,0.2,0.2,0.8,0.2,0.2,0.2,0.8","1","",""
"","html-keyboard-response","43","35049","0.0-43.0","31N2WW6R9SCYSNVYKK5MUXAMCCWF3Z","A31P9Z3VBQM1PB","3XT3KXP24ZKFDDMCDS43FE3AU9W6IW","","null","<img src=""img/land6.png"" style=""width:200px;border:14px solid red;"">","null","","","","","","","","","",""
"","image-keyboard-response","44","35204","0.0-44.0","31N2WW6R9SCYSNVYKK5MUXAMCCWF3Z","A31P9Z3VBQM1PB","3XT3KXP24ZKFDDMCDS43FE3AU9W6IW","","154.29999995231628","img/land6.png","75","154.89999985694885","2","0","1","2","0.8,0.2,0.2,0.2,0.8,0.2,0.2,0.2,0.8","0.8,0.2,0.2,0.2,0.8,0.2,0.2,0.2,0.8","1","",""
"","html-keyboard-response","45","35505","0.0-45.0","31N2WW6R9SCYSNVYKK5MUXAMCCWF3Z","A31P9Z3VBQM1PB","3XT3KXP24ZKFDDMCDS43FE3AU9W6IW","","null","<img src=""img/land6.png"" style=""width:200px;border:14px solid red;"">","null","","","","","","","","","",""
"","image-keyboard-response","46","35612","0.0-46.0","31N2WW6R9SCYSNVYKK5MUXAMCCWF3Z","A31P9Z3VBQM1PB","3XT3KXP24ZKFDDMCDS43FE3AU9W6IW","","106.5","img/land6.png","74","107.09999990463257","1","0","1","2","0.8,0.2,0.2,0.2,0.8,0.2,0.2,0.2,0.8","0.8,0.2,0.2,0.2,0.8,0.2,0.2,0.2,0.8","1","",""
"","html-keyboard-response","47","35914","0.0-47.0","31N2WW6R9SCYSNVYKK5MUXAMCCWF3Z","A31P9Z3VBQM1PB","3XT3KXP24ZKFDDMCDS43FE3AU9W6IW","","null","<img src=""img/land6.png"" style=""width:200px;border:14px solid red;"">","null","","","","","","","","","",""
"","image-keyboard-response","48","36468","0.0-48.0","31N2WW6R9SCYSNVYKK5MUXAMCCWF3Z","A31P9Z3VBQM1PB","3XT3KXP24ZKFDDMCDS43FE3AU9W6IW","","553.5","img/land3.png","74","554","1","0","3","2","0.8,0.2,0.2,0.2,0.8,0.2,0.2,0.2,0.8","0.8,0.2,0.2,0.2,0.8,0.2,0.2,0.2,0.8","1","",""
"","html-keyboard-response","49","36769","0.0-49.0","31N2WW6R9SCYSNVYKK5MUXAMCCWF3Z","A31P9Z3VBQM1PB","3XT3KXP24ZKFDDMCDS43FE3AU9W6IW","","null","<img src=""img/land3.png"" style=""width:200px;border:14px solid red;"">","null","","","","","","","","","",""
"","image-keyboard-response","50","37340","0.0-50.0","31N2WW6R9SCYSNVYKK5MUXAMCCWF3Z","A31P9Z3VBQM1PB","3XT3KXP24ZKFDDMCDS43FE3AU9W6IW","","570.7999999523163","img/land6.png","74","571.1999998092651","1","1","1","2","0.8,0.2,0.2,0.2,0.8,0.2,0.2,0.2,0.8","0.8,0.2,0.2,0.2,0.8,0.2,0.2,0.2,0.8","1","",""
"","html-keyboard-response","51","37641","0.0-51.0","31N2WW6R9SCYSNVYKK5MUXAMCCWF3Z","A31P9Z3VBQM1PB","3XT3KXP24ZKFDDMCDS43FE3AU9W6IW","","null","<img src=""img/land6.png"" style=""width:200px; border:14px solid green;"">","null","","","","","","","","","",""
"","image-keyboard-response","52","37708","0.0-52.0","31N2WW6R9SCYSNVYKK5MUXAMCCWF3Z","A31P9Z3VBQM1PB","3XT3KXP24ZKFDDMCDS43FE3AU9W6IW","","66.20000004768372","img/land2.png","74","66.69999980926514","1","1","2","2","0.8,0.2,0.2,0.2,0.8,0.2,0.2,0.2,0.8","0.8,0.2,0.2,0.2,0.8,0.2,0.2,0.2,0.8","1","",""
"","html-keyboard-response","53","38009","0.0-53.0","31N2WW6R9SCYSNVYKK5MUXAMCCWF3Z","A31P9Z3VBQM1PB","3XT3KXP24ZKFDDMCDS43FE3AU9W6IW","","null","<img src=""img/land2.png"" style=""width:200px; border:14px solid green;"">","null","","","","","","","","","",""
"","image-keyboard-response","54","38356","0.0-54.0","31N2WW6R9SCYSNVYKK5MUXAMCCWF3Z","A31P9Z3VBQM1PB","3XT3KXP24ZKFDDMCDS43FE3AU9W6IW","","346.5","img/land6.png","74","346.89999985694885","1","1","1","2","0.8,0.2,0.2,0.2,0.8,0.2,0.2,0.2,0.8","0.8,0.2,0.2,0.2,0.8,0.2,0.2,0.2,0.8","1","",""
"","html-keyboard-response","55","38658","0.0-55.0","31N2WW6R9SCYSNVYKK5MUXAMCCWF3Z","A31P9Z3VBQM1PB","3XT3KXP24ZKFDDMCDS43FE3AU9W6IW","","null","<img src=""img/land6.png"" style=""width:200px; border:14px solid green;"">","null","","","","","","","","","",""
"","image-keyboard-response","56","38764","0.0-56.0","31N2WW6R9SCYSNVYKK5MUXAMCCWF3Z","A31P9Z3VBQM1PB","3XT3KXP24ZKFDDMCDS43FE3AU9W6IW","","105.70000004768372","img/land6.png","75","106.29999995231628","2","1","1","2","0.8,0.2,0.2,0.2,0.8,0.2,0.2,0.2,0.8","0.8,0.2,0.2,0.2,0.8,0.2,0.2,0.2,0.8","1","",""
"","html-keyboard-response","57","39066","0.0-57.0","31N2WW6R9SCYSNVYKK5MUXAMCCWF3Z","A31P9Z3VBQM1PB","3XT3KXP24ZKFDDMCDS43FE3AU9W6IW","","null","<img src=""img/land6.png"" style=""width:200px; border:14px solid green;"">","null","","","","","","","","","",""
"","image-keyboard-response","58","39148","0.0-58.0","31N2WW6R9SCYSNVYKK5MUXAMCCWF3Z","A31P9Z3VBQM1PB","3XT3KXP24ZKFDDMCDS43FE3AU9W6IW","","81.90000009536743","img/land2.png","74","82.5","1","1","2","2","0.8,0.2,0.2,0.2,0.8,0.2,0.2,0.2,0.8","0.8,0.2,0.2,0.2,0.8,0.2,0.2,0.2,0.8","1","",""
"","html-keyboard-response","59","39450","0.0-59.0","31N2WW6R9SCYSNVYKK5MUXAMCCWF3Z","A31P9Z3VBQM1PB","3XT3KXP24ZKFDDMCDS43FE3AU9W6IW","","null","<img src=""img/land2.png"" style=""width:200px; border:14px solid green;"">","null","","","","","","","","","",""
"","image-keyboard-response","60","39628","0.0-60.0","31N2WW6R9SCYSNVYKK5MUXAMCCWF3Z","A31P9Z3VBQM1PB","3XT3KXP24ZKFDDMCDS43FE3AU9W6IW","","178.09999990463257","img/land6.png","74","178.79999995231628","1","1","1","2","0.8,0.2,0.2,0.2,0.8,0.2,0.2,0.2,0.8","0.8,0.2,0.2,0.2,0.8,0.2,0.2,0.2,0.8","1","",""
"","html-keyboard-response","61","39930","0.0-61.0","31N2WW6R9SCYSNVYKK5MUXAMCCWF3Z","A31P9Z3VBQM1PB","3XT3KXP24ZKFDDMCDS43FE3AU9W6IW","","null","<img src=""img/land6.png"" style=""width:200px; border:14px solid green;"">","null","","","","","","","","","",""
"","image-keyboard-response","62","40092","0.0-62.0","31N2WW6R9SCYSNVYKK5MUXAMCCWF3Z","A31P9Z3VBQM1PB","3XT3KXP24ZKFDDMCDS43FE3AU9W6IW","","161.40000009536743","img/land6.png","74","161.89999985694885","1","1","1","2","0.8,0.2,0.2,0.2,0.8,0.2,0.2,0.2,0.8","0.8,0.2,0.2,0.2,0.8,0.2,0.2,0.2,0.8","1","",""
"","html-keyboard-response","63","40394","0.0-63.0","31N2WW6R9SCYSNVYKK5MUXAMCCWF3Z","A31P9Z3VBQM1PB","3XT3KXP24ZKFDDMCDS43FE3AU9W6IW","","null","<img src=""img/land6.png"" style=""width:200px; border:14px solid green;"">","null","","","","","","","","","",""
"","image-keyboard-response","64","40492","0.0-64.0","31N2WW6R9SCYSNVYKK5MUXAMCCWF3Z","A31P9Z3VBQM1PB","3XT3KXP24ZKFDDMCDS43FE3AU9W6IW","","97.90000009536743","img/land6.png","74","98.39999985694885","1","0","1","2","0.8,0.2,0.2,0.2,0.8,0.2,0.2,0.2,0.8","0.8,0.2,0.2,0.2,0.8,0.2,0.2,0.2,0.8","1","",""
"","html-keyboard-response","65","40794","0.0-65.0","31N2WW6R9SCYSNVYKK5MUXAMCCWF3Z","A31P9Z3VBQM1PB","3XT3KXP24ZKFDDMCDS43FE3AU9W6IW","","null","<img src=""img/land6.png"" style=""width:200px;border:14px solid red;"">","null","","","","","","","","","",""
"","image-keyboard-response","66","40828","0.0-66.0","31N2WW6R9SCYSNVYKK5MUXAMCCWF3Z","A31P9Z3VBQM1PB","3XT3KXP24ZKFDDMCDS43FE3AU9W6IW","","34.09999990463257","img/land2.png","74","34.700000047683716","1","0","2","2","0.8,0.2,0.2,0.2,0.8,0.2,0.2,0.2,0.8","0.8,0.2,0.2,0.2,0.8,0.2,0.2,0.2,0.8","1","",""
"","html-keyboard-response","67","41130","0.0-67.0","31N2WW6R9SCYSNVYKK5MUXAMCCWF3Z","A31P9Z3VBQM1PB","3XT3KXP24ZKFDDMCDS43FE3AU9W6IW","","null","<img src=""img/land2.png"" style=""width:200px;border:14px solid red;"">","null","","","","","","","","","",""
"","image-keyboard-response","68","41181","0.0-68.0","31N2WW6R9SCYSNVYKK5MUXAMCCWF3Z","A31P9Z3VBQM1PB","3XT3KXP24ZKFDDMCDS43FE3AU9W6IW","","50.60000014305115","img/land6.png","74","51.09999990463257","1","0","1","2","0.8,0.2,0.2,0.2,0.8,0.2,0.2,0.2,0.8","0.8,0.2,0.2,0.2,0.8,0.2,0.2,0.2,0.8","1","",""
"","html-keyboard-response","69","41482","0.0-69.0","31N2WW6R9SCYSNVYKK5MUXAMCCWF3Z","A31P9Z3VBQM1PB","3XT3KXP24ZKFDDMCDS43FE3AU9W6IW","","null","<img src=""img/land6.png"" style=""width:200px;border:14px solid red;"">","null","","","","","","","","","",""
"","image-keyboard-response","70","41692","0.0-70.0","31N2WW6R9SCYSNVYKK5MUXAMCCWF3Z","A31P9Z3VBQM1PB","3XT3KXP24ZKFDDMCDS43FE3AU9W6IW","","209.70000004768372","img/land2.png","75","210.29999995231628","2","1","2","2","0.8,0.2,0.2,0.2,0.8,0.2,0.2,0.2,0.8","0.8,0.2,0.2,0.2,0.8,0.2,0.2,0.2,0.8","1","",""
"","html-keyboard-response","71","41996","0.0-71.0","31N2WW6R9SCYSNVYKK5MUXAMCCWF3Z","A31P9Z3VBQM1PB","3XT3KXP24ZKFDDMCDS43FE3AU9W6IW","","null","<img src=""img/land2.png"" style=""width:200px; border:14px solid green;"">","null","","","","","","","","","",""
"","image-keyboard-response","72","42156","0.0-72.0","31N2WW6R9SCYSNVYKK5MUXAMCCWF3Z","A31P9Z3VBQM1PB","3XT3KXP24ZKFDDMCDS43FE3AU9W6IW","","160","img/land3.png","74","160.59999990463257","1","1","3","2","0.8,0.2,0.2,0.2,0.8,0.2,0.2,0.2,0.8","0.8,0.2,0.2,0.2,0.8,0.2,0.2,0.2,0.8","1","",""
"","html-keyboard-response","73","42458","0.0-73.0","31N2WW6R9SCYSNVYKK5MUXAMCCWF3Z","A31P9Z3VBQM1PB","3XT3KXP24ZKFDDMCDS43FE3AU9W6IW","","null","<img src=""img/land3.png"" style=""width:200px; border:14px solid green;"">","null","","","","","","","","","",""
"","image-keyboard-response","74","42700","0.0-74.0","31N2WW6R9SCYSNVYKK5MUXAMCCWF3Z","A31P9Z3VBQM1PB","3XT3KXP24ZKFDDMCDS43FE3AU9W6IW","","241.70000004768372","img/land6.png","74","242.09999990463257","1","1","1","2","0.8,0.2,0.2,0.2,0.8,0.2,0.2,0.2,0.8","0.8,0.2,0.2,0.2,0.8,0.2,0.2,0.2,0.8","1","",""
"","html-keyboard-response","75","43003","0.0-75.0","31N2WW6R9SCYSNVYKK5MUXAMCCWF3Z","A31P9Z3VBQM1PB","3XT3KXP24ZKFDDMCDS43FE3AU9W6IW","","null","<img src=""img/land6.png"" style=""width:200px; border:14px solid green;"">","null","","","","","","","","","",""
"","image-keyboard-response","76","43004","0.0-76.0","31N2WW6R9SCYSNVYKK5MUXAMCCWF3Z","A31P9Z3VBQM1PB","3XT3KXP24ZKFDDMCDS43FE3AU9W6IW","","1","img/land6.png","74","1.5","1","1","1","2","0.8,0.2,0.2,0.2,0.8,0.2,0.2,0.2,0.8","0.8,0.2,0.2,0.2,0.8,0.2,0.2,0.2,0.8","1","",""
"","html-keyboard-response","77","43306","0.0-77.0","31N2WW6R9SCYSNVYKK5MUXAMCCWF3Z","A31P9Z3VBQM1PB","3XT3KXP24ZKFDDMCDS43FE3AU9W6IW","","null","<img src=""img/land6.png"" style=""width:200px; border:14px solid green;"">","null","","","","","","","","","",""
"","image-keyboard-response","78","43588","0.0-78.0","31N2WW6R9SCYSNVYKK5MUXAMCCWF3Z","A31P9Z3VBQM1PB","3XT3KXP24ZKFDDMCDS43FE3AU9W6IW","","281.90000009536743","img/land6.png","74","282.2000000476837","1","0","1","2","0.8,0.2,0.2,0.2,0.8,0.2,0.2,0.2,0.8","0.8,0.2,0.2,0.2,0.8,0.2,0.2,0.2,0.8","1","",""
"","html-keyboard-response","79","43889","0.0-79.0","31N2WW6R9SCYSNVYKK5MUXAMCCWF3Z","A31P9Z3VBQM1PB","3XT3KXP24ZKFDDMCDS43FE3AU9W6IW","","null","<img src=""img/land6.png"" style=""width:200px;border:14px solid red;"">","null","","","","","","","","","",""
"","image-keyboard-response","80","43941","0.0-80.0","31N2WW6R9SCYSNVYKK5MUXAMCCWF3Z","A31P9Z3VBQM1PB","3XT3KXP24ZKFDDMCDS43FE3AU9W6IW","","51.19999980926514","img/land6.png","75","51.799999952316284","2","0","1","2","0.8,0.2,0.2,0.2,0.8,0.2,0.2,0.2,0.8","0.8,0.2,0.2,0.2,0.8,0.2,0.2,0.2,0.8","1","",""
"","html-keyboard-response","81","44243","0.0-81.0","31N2WW6R9SCYSNVYKK5MUXAMCCWF3Z","A31P9Z3VBQM1PB","3XT3KXP24ZKFDDMCDS43FE3AU9W6IW","","null","<img src=""img/land6.png"" style=""width:200px;border:14px solid red;"">","null","","","","","","","","","",""
"","image-keyboard-response","82","44285","0.0-82.0","31N2WW6R9SCYSNVYKK5MUXAMCCWF3Z","A31P9Z3VBQM1PB","3XT3KXP24ZKFDDMCDS43FE3AU9W6IW","","41.59999990463257","img/land3.png","76","42.10000014305115","3","0","3","2","0.8,0.2,0.2,0.2,0.8,0.2,0.2,0.2,0.8","0.8,0.2,0.2,0.2,0.8,0.2,0.2,0.2,0.8","1","",""
"","html-keyboard-response","83","44587","0.0-83.0","31N2WW6R9SCYSNVYKK5MUXAMCCWF3Z","A31P9Z3VBQM1PB","3XT3KXP24ZKFDDMCDS43FE3AU9W6IW","","null","<img src=""img/land3.png"" style=""width:200px;border:14px solid red;"">","null","","","","","","","","","",""
"","image-keyboard-response","84","44708","0.0-84.0","31N2WW6R9SCYSNVYKK5MUXAMCCWF3Z","A31P9Z3VBQM1PB","3XT3KXP24ZKFDDMCDS43FE3AU9W6IW","","121.09999990463257","img/land6.png","76","121.70000004768372","3","0","1","2","0.8,0.2,0.2,0.2,0.8,0.2,0.2,0.2,0.8","0.8,0.2,0.2,0.2,0.8,0.2,0.2,0.2,0.8","1","",""
"","html-keyboard-response","85","45009","0.0-85.0","31N2WW6R9SCYSNVYKK5MUXAMCCWF3Z","A31P9Z3VBQM1PB","3XT3KXP24ZKFDDMCDS43FE3AU9W6IW","","null","<img src=""img/land6.png"" style=""width:200px;border:14px solid red;"">","null","","","","","","","","","",""
"","image-keyboard-response","86","45485","0.0-86.0","31N2WW6R9SCYSNVYKK5MUXAMCCWF3Z","A31P9Z3VBQM1PB","3XT3KXP24ZKFDDMCDS43FE3AU9W6IW","","474.40000009536743","img/land3.png","74","475","1","1","3","2","0.8,0.2,0.2,0.2,0.8,0.2,0.2,0.2,0.8","0.8,0.2,0.2,0.2,0.8,0.2,0.2,0.2,0.8","1","",""
"","html-keyboard-response","87","45786","0.0-87.0","31N2WW6R9SCYSNVYKK5MUXAMCCWF3Z","A31P9Z3VBQM1PB","3XT3KXP24ZKFDDMCDS43FE3AU9W6IW","","null","<img src=""img/land3.png"" style=""width:200px; border:14px solid green;"">","null","","","","","","","","","",""
"","image-keyboard-response","88","45852","0.0-88.0","31N2WW6R9SCYSNVYKK5MUXAMCCWF3Z","A31P9Z3VBQM1PB","3XT3KXP24ZKFDDMCDS43FE3AU9W6IW","","66.09999990463257","img/land6.png","74","66.80000019073486","1","0","1","2","0.8,0.2,0.2,0.2,0.8,0.2,0.2,0.2,0.8","0.8,0.2,0.2,0.2,0.8,0.2,0.2,0.2,0.8","1","",""
"","html-keyboard-response","89","46154","0.0-89.0","31N2WW6R9SCYSNVYKK5MUXAMCCWF3Z","A31P9Z3VBQM1PB","3XT3KXP24ZKFDDMCDS43FE3AU9W6IW","","null","<img src=""img/land6.png"" style=""width:200px;border:14px solid red;"">","null","","","","","","","","","",""
"","image-keyboard-response","90","46293","0.0-90.0","31N2WW6R9SCYSNVYKK5MUXAMCCWF3Z","A31P9Z3VBQM1PB","3XT3KXP24ZKFDDMCDS43FE3AU9W6IW","","138.5","img/land2.png","74","139","1","0","2","2","0.8,0.2,0.2,0.2,0.8,0.2,0.2,0.2,0.8","0.8,0.2,0.2,0.2,0.8,0.2,0.2,0.2,0.8","1","",""
"","html-keyboard-response","91","46594","0.0-91.0","31N2WW6R9SCYSNVYKK5MUXAMCCWF3Z","A31P9Z3VBQM1PB","3XT3KXP24ZKFDDMCDS43FE3AU9W6IW","","null","<img src=""img/land2.png"" style=""width:200px;border:14px solid red;"">","null","","","","","","","","","",""
"","image-keyboard-response","92","46684","0.0-92.0","31N2WW6R9SCYSNVYKK5MUXAMCCWF3Z","A31P9Z3VBQM1PB","3XT3KXP24ZKFDDMCDS43FE3AU9W6IW","","89.79999995231628","img/land6.png","75","90.29999995231628","2","0","1","2","0.8,0.2,0.2,0.2,0.8,0.2,0.2,0.2,0.8","0.8,0.2,0.2,0.2,0.8,0.2,0.2,0.2,0.8","1","",""
"","html-keyboard-response","93","46985","0.0-93.0","31N2WW6R9SCYSNVYKK5MUXAMCCWF3Z","A31P9Z3VBQM1PB","3XT3KXP24ZKFDDMCDS43FE3AU9W6IW","","null","<img src=""img/land6.png"" style=""width:200px;border:14px solid red;"">","null","","","","","","","","","",""
"","image-keyboard-response","94","47084","0.0-94.0","31N2WW6R9SCYSNVYKK5MUXAMCCWF3Z","A31P9Z3VBQM1PB","3XT3KXP24ZKFDDMCDS43FE3AU9W6IW","","98.39999985694885","img/land6.png","75","98.79999995231628","2","0","1","2","0.8,0.2,0.2,0.2,0.8,0.2,0.2,0.2,0.8","0.8,0.2,0.2,0.2,0.8,0.2,0.2,0.2,0.8","1","",""
"","html-keyboard-response","95","47385","0.0-95.0","31N2WW6R9SCYSNVYKK5MUXAMCCWF3Z","A31P9Z3VBQM1PB","3XT3KXP24ZKFDDMCDS43FE3AU9W6IW","","null","<img src=""img/land6.png"" style=""width:200px;border:14px solid red;"">","null","","","","","","","","","",""
"","image-keyboard-response","96","47396","0.0-96.0","31N2WW6R9SCYSNVYKK5MUXAMCCWF3Z","A31P9Z3VBQM1PB","3XT3KXP24ZKFDDMCDS43FE3AU9W6IW","","10.5","img/land6.png","75","10.900000095367432","2","0","1","2","0.8,0.2,0.2,0.2,0.8,0.2,0.2,0.2,0.8","0.8,0.2,0.2,0.2,0.8,0.2,0.2,0.2,0.8","1","",""
"","html-keyboard-response","97","47697","0.0-97.0","31N2WW6R9SCYSNVYKK5MUXAMCCWF3Z","A31P9Z3VBQM1PB","3XT3KXP24ZKFDDMCDS43FE3AU9W6IW","","null","<img src=""img/land6.png"" style=""width:200px;border:14px solid red;"">","null","","","","","","","","","",""
"","image-keyboard-response","98","47708","0.0-98.0","31N2WW6R9SCYSNVYKK5MUXAMCCWF3Z","A31P9Z3VBQM1PB","3XT3KXP24ZKFDDMCDS43FE3AU9W6IW","","10.5","img/land6.png","74","11","1","1","1","2","0.8,0.2,0.2,0.2,0.8,0.2,0.2,0.2,0.8","0.8,0.2,0.2,0.2,0.8,0.2,0.2,0.2,0.8","1","",""
"","html-keyboard-response","99","48009","0.0-99.0","31N2WW6R9SCYSNVYKK5MUXAMCCWF3Z","A31P9Z3VBQM1PB","3XT3KXP24ZKFDDMCDS43FE3AU9W6IW","","null","<img src=""img/land6.png"" style=""width:200px; border:14px solid green;"">","null","","","","","","","","","",""
"","image-keyboard-response","100","48012","0.0-100.0","31N2WW6R9SCYSNVYKK5MUXAMCCWF3Z","A31P9Z3VBQM1PB","3XT3KXP24ZKFDDMCDS43FE3AU9W6IW","","2.200000047683716","img/land6.png","74","2.799999952316284","1","1","1","2","0.8,0.2,0.2,0.2,0.8,0.2,0.2,0.2,0.8","0.8,0.2,0.2,0.2,0.8,0.2,0.2,0.2,0.8","1","",""
"","html-keyboard-response","101","48314","0.0-101.0","31N2WW6R9SCYSNVYKK5MUXAMCCWF3Z","A31P9Z3VBQM1PB","3XT3KXP24ZKFDDMCDS43FE3AU9W6IW","","null","<img src=""img/land6.png"" style=""width:200px; border:14px solid green;"">","null","","","","","","","","","",""
"","image-keyboard-response","102","48605","0.0-102.0","31N2WW6R9SCYSNVYKK5MUXAMCCWF3Z","A31P9Z3VBQM1PB","3XT3KXP24ZKFDDMCDS43FE3AU9W6IW","","290.40000009536743","img/land6.png","74","290.89999985694885","1","1","1","2","0.8,0.2,0.2,0.2,0.8,0.2,0.2,0.2,0.8","0.8,0.2,0.2,0.2,0.8,0.2,0.2,0.2,0.8","1","",""
"","html-keyboard-response","103","48906","0.0-103.0","31N2WW6R9SCYSNVYKK5MUXAMCCWF3Z","A31P9Z3VBQM1PB","3XT3KXP24ZKFDDMCDS43FE3AU9W6IW","","null","<img src=""img/land6.png"" style=""width:200px; border:14px solid green;"">","null","","","","","","","","","",""
"","image-keyboard-response","104","49172","0.0-104.0","31N2WW6R9SCYSNVYKK5MUXAMCCWF3Z","A31P9Z3VBQM1PB","3XT3KXP24ZKFDDMCDS43FE3AU9W6IW","","265.7999999523163","img/land3.png","74","266.2999999523163","1","0","3","2","0.8,0.2,0.2,0.2,0.8,0.2,0.2,0.2,0.8","0.8,0.2,0.2,0.2,0.8,0.2,0.2,0.2,0.8","1","",""
"","html-keyboard-response","105","49474","0.0-105.0","31N2WW6R9SCYSNVYKK5MUXAMCCWF3Z","A31P9Z3VBQM1PB","3XT3KXP24ZKFDDMCDS43FE3AU9W6IW","","null","<img src=""img/land3.png"" style=""width:200px;border:14px solid red;"">","null","","","","","","","","","",""
"","image-keyboard-response","106","49684","0.0-106.0","31N2WW6R9SCYSNVYKK5MUXAMCCWF3Z","A31P9Z3VBQM1PB","3XT3KXP24ZKFDDMCDS43FE3AU9W6IW","","210","img/land3.png","74","210.60000014305115","1","1","3","2","0.8,0.2,0.2,0.2,0.8,0.2,0.2,0.2,0.8","0.8,0.2,0.2,0.2,0.8,0.2,0.2,0.2,0.8","1","",""
"","html-keyboard-response","107","49985","0.0-107.0","31N2WW6R9SCYSNVYKK5MUXAMCCWF3Z","A31P9Z3VBQM1PB","3XT3KXP24ZKFDDMCDS43FE3AU9W6IW","","null","<img src=""img/land3.png"" style=""width:200px; border:14px solid green;"">","null","","","","","","","","","",""
"","image-keyboard-response","108","50044","0.0-108.0","31N2WW6R9SCYSNVYKK5MUXAMCCWF3Z","A31P9Z3VBQM1PB","3XT3KXP24ZKFDDMCDS43FE3AU9W6IW","","58.59999990463257","img/land6.png","75","59.200000047683716","2","1","1","2","0.8,0.2,0.2,0.2,0.8,0.2,0.2,0.2,0.8","0.8,0.2,0.2,0.2,0.8,0.2,0.2,0.2,0.8","1","",""
"","html-keyboard-response","109","50346","0.0-109.0","31N2WW6R9SCYSNVYKK5MUXAMCCWF3Z","A31P9Z3VBQM1PB","3XT3KXP24ZKFDDMCDS43FE3AU9W6IW","","null","<img src=""img/land6.png"" style=""width:200px; border:14px solid green;"">","null","","","","","","","","","",""
"","image-keyboard-response","110","50420","0.0-110.0","31N2WW6R9SCYSNVYKK5MUXAMCCWF3Z","A31P9Z3VBQM1PB","3XT3KXP24ZKFDDMCDS43FE3AU9W6IW","","74.19999980926514","img/land2.png","75","74.79999995231628","2","1","2","2","0.8,0.2,0.2,0.2,0.8,0.2,0.2,0.2,0.8","0.8,0.2,0.2,0.2,0.8,0.2,0.2,0.2,0.8","1","",""
"","html-keyboard-response","111","50722","0.0-111.0","31N2WW6R9SCYSNVYKK5MUXAMCCWF3Z","A31P9Z3VBQM1PB","3XT3KXP24ZKFDDMCDS43FE3AU9W6IW","","null","<img src=""img/land2.png"" style=""width:200px; border:14px solid green;"">","null","","","","","","","","","",""
"","image-keyboard-response","112","50780","0.0-112.0","31N2WW6R9SCYSNVYKK5MUXAMCCWF3Z","A31P9Z3VBQM1PB","3XT3KXP24ZKFDDMCDS43FE3AU9W6IW","","57.799999952316284","img/land6.png","75","58.40000009536743","2","0","1","2","0.8,0.2,0.2,0.2,0.8,0.2,0.2,0.2,0.8","0.8,0.2,0.2,0.2,0.8,0.2,0.2,0.2,0.8","1","",""
"","html-keyboard-response","113","51081","0.0-113.0","31N2WW6R9SCYSNVYKK5MUXAMCCWF3Z","A31P9Z3VBQM1PB","3XT3KXP24ZKFDDMCDS43FE3AU9W6IW","","null","<img src=""img/land6.png"" style=""width:200px;border:14px solid red;"">","null","","","","","","","","","",""
"","image-keyboard-response","114","51108","0.0-114.0","31N2WW6R9SCYSNVYKK5MUXAMCCWF3Z","A31P9Z3VBQM1PB","3XT3KXP24ZKFDDMCDS43FE3AU9W6IW","","26.799999952316284","img/land2.png","75","27.299999952316284","2","1","2","2","0.8,0.2,0.2,0.2,0.8,0.2,0.2,0.2,0.8","0.8,0.2,0.2,0.2,0.8,0.2,0.2,0.2,0.8","1","",""
"","html-keyboard-response","115","51409","0.0-115.0","31N2WW6R9SCYSNVYKK5MUXAMCCWF3Z","A31P9Z3VBQM1PB","3XT3KXP24ZKFDDMCDS43FE3AU9W6IW","","null","<img src=""img/land2.png"" style=""width:200px; border:14px solid green;"">","null","","","","","","","","","",""
"","image-keyboard-response","116","51476","0.0-116.0","31N2WW6R9SCYSNVYKK5MUXAMCCWF3Z","A31P9Z3VBQM1PB","3XT3KXP24ZKFDDMCDS43FE3AU9W6IW","","66.5","img/land2.png","75","67","2","1","2","2","0.8,0.2,0.2,0.2,0.8,0.2,0.2,0.2,0.8","0.8,0.2,0.2,0.2,0.8,0.2,0.2,0.2,0.8","1","",""
"","html-keyboard-response","117","51782","0.0-117.0","31N2WW6R9SCYSNVYKK5MUXAMCCWF3Z","A31P9Z3VBQM1PB","3XT3KXP24ZKFDDMCDS43FE3AU9W6IW","","null","<img src=""img/land2.png"" style=""width:200px; border:14px solid green;"">","null","","","","","","","","","",""
"","image-keyboard-response","118","51836","0.0-118.0","31N2WW6R9SCYSNVYKK5MUXAMCCWF3Z","A31P9Z3VBQM1PB","3XT3KXP24ZKFDDMCDS43FE3AU9W6IW","","54.19999980926514","img/land6.png","75","54.799999952316284","2","0","1","2","0.8,0.2,0.2,0.2,0.8,0.2,0.2,0.2,0.8","0.8,0.2,0.2,0.2,0.8,0.2,0.2,0.2,0.8","1","",""
"","html-keyboard-response","119","52138","0.0-119.0","31N2WW6R9SCYSNVYKK5MUXAMCCWF3Z","A31P9Z3VBQM1PB","3XT3KXP24ZKFDDMCDS43FE3AU9W6IW","","null","<img src=""img/land6.png"" style=""width:200px;border:14px solid red;"">","null","","","","","","","","","",""
"","image-keyboard-response","120","52212","0.0-120.0","31N2WW6R9SCYSNVYKK5MUXAMCCWF3Z","A31P9Z3VBQM1PB","3XT3KXP24ZKFDDMCDS43FE3AU9W6IW","","74","img/land6.png","75","74.5","2","1","1","2","0.8,0.2,0.2,0.2,0.8,0.2,0.2,0.2,0.8","0.8,0.2,0.2,0.2,0.8,0.2,0.2,0.2,0.8","1","",""
"","html-keyboard-response","121","52513","0.0-121.0","31N2WW6R9SCYSNVYKK5MUXAMCCWF3Z","A31P9Z3VBQM1PB","3XT3KXP24ZKFDDMCDS43FE3AU9W6IW","","null","<img src=""img/land6.png"" style=""width:200px; border:14px solid green;"">","null","","","","","","","","","",""
"","image-keyboard-response","122","52756","0.0-122.0","31N2WW6R9SCYSNVYKK5MUXAMCCWF3Z","A31P9Z3VBQM1PB","3XT3KXP24ZKFDDMCDS43FE3AU9W6IW","","242.69999980926514","img/land2.png","74","243.29999995231628","1","0","2","2","0.8,0.2,0.2,0.2,0.8,0.2,0.2,0.2,0.8","0.8,0.2,0.2,0.2,0.8,0.2,0.2,0.2,0.8","1","",""
"","html-keyboard-response","123","53058","0.0-123.0","31N2WW6R9SCYSNVYKK5MUXAMCCWF3Z","A31P9Z3VBQM1PB","3XT3KXP24ZKFDDMCDS43FE3AU9W6IW","","null","<img src=""img/land2.png"" style=""width:200px;border:14px solid red;"">","null","","","","","","","","","",""
"","image-keyboard-response","124","53124","0.0-124.0","31N2WW6R9SCYSNVYKK5MUXAMCCWF3Z","A31P9Z3VBQM1PB","3XT3KXP24ZKFDDMCDS43FE3AU9W6IW","","66.09999990463257","img/land3.png","74","66.5","1","0","3","2","0.8,0.2,0.2,0.2,0.8,0.2,0.2,0.2,0.8","0.8,0.2,0.2,0.2,0.8,0.2,0.2,0.2,0.8","1","",""
"","html-keyboard-response","125","53425","0.0-125.0","31N2WW6R9SCYSNVYKK5MUXAMCCWF3Z","A31P9Z3VBQM1PB","3XT3KXP24ZKFDDMCDS43FE3AU9W6IW","","null","<img src=""img/land3.png"" style=""width:200px;border:14px solid red;"">","null","","","","","","","","","",""
"","image-keyboard-response","126","53732","0.0-126.0","31N2WW6R9SCYSNVYKK5MUXAMCCWF3Z","A31P9Z3VBQM1PB","3XT3KXP24ZKFDDMCDS43FE3AU9W6IW","","306.59999990463257","img/land6.png","75","307.10000014305115","2","0","1","2","0.8,0.2,0.2,0.2,0.8,0.2,0.2,0.2,0.8","0.8,0.2,0.2,0.2,0.8,0.2,0.2,0.2,0.8","1","",""
"","html-keyboard-response","127","54033","0.0-127.0","31N2WW6R9SCYSNVYKK5MUXAMCCWF3Z","A31P9Z3VBQM1PB","3XT3KXP24ZKFDDMCDS43FE3AU9W6IW","","null","<img src=""img/land6.png"" style=""width:200px;border:14px solid red;"">","null","","","","","","","","","",""
"","image-keyboard-response","128","54100","0.0-128.0","31N2WW6R9SCYSNVYKK5MUXAMCCWF3Z","A31P9Z3VBQM1PB","3XT3KXP24ZKFDDMCDS43FE3AU9W6IW","","66.59999990463257","img/land6.png","75","67.09999990463257","2","1","1","2","0.8,0.2,0.2,0.2,0.8,0.2,0.2,0.2,0.8","0.8,0.2,0.2,0.2,0.8,0.2,0.2,0.2,0.8","1","",""
"","html-keyboard-response","129","54401","0.0-129.0","31N2WW6R9SCYSNVYKK5MUXAMCCWF3Z","A31P9Z3VBQM1PB","3XT3KXP24ZKFDDMCDS43FE3AU9W6IW","","null","<img src=""img/land6.png"" style=""width:200px; border:14px solid green;"">","null","","","","","","","","","",""
"","image-keyboard-response","130","54420","0.0-130.0","31N2WW6R9SCYSNVYKK5MUXAMCCWF3Z","A31P9Z3VBQM1PB","3XT3KXP24ZKFDDMCDS43FE3AU9W6IW","","18.40000009536743","img/land2.png","75","18.899999856948853","2","1","2","2","0.8,0.2,0.2,0.2,0.8,0.2,0.2,0.2,0.8","0.8,0.2,0.2,0.2,0.8,0.2,0.2,0.2,0.8","1","",""
"","html-keyboard-response","131","54721","0.0-131.0","31N2WW6R9SCYSNVYKK5MUXAMCCWF3Z","A31P9Z3VBQM1PB","3XT3KXP24ZKFDDMCDS43FE3AU9W6IW","","null","<img src=""img/land2.png"" style=""width:200px; border:14px solid green;"">","null","","","","","","","","","",""
"","image-keyboard-response","132","54804","0.0-132.0","31N2WW6R9SCYSNVYKK5MUXAMCCWF3Z","A31P9Z3VBQM1PB","3XT3KXP24ZKFDDMCDS43FE3AU9W6IW","","82.60000014305115","img/land2.png","75","83","2","1","2","2","0.8,0.2,0.2,0.2,0.8,0.2,0.2,0.2,0.8","0.8,0.2,0.2,0.2,0.8,0.2,0.2,0.2,0.8","1","",""
"","html-keyboard-response","133","55105","0.0-133.0","31N2WW6R9SCYSNVYKK5MUXAMCCWF3Z","A31P9Z3VBQM1PB","3XT3KXP24ZKFDDMCDS43FE3AU9W6IW","","null","<img src=""img/land2.png"" style=""width:200px; border:14px solid green;"">","null","","","","","","","","","",""
"","image-keyboard-response","134","55188","0.0-134.0","31N2WW6R9SCYSNVYKK5MUXAMCCWF3Z","A31P9Z3VBQM1PB","3XT3KXP24ZKFDDMCDS43FE3AU9W6IW","","82.40000009536743","img/land6.png","75","82.90000009536743","2","0","1","2","0.8,0.2,0.2,0.2,0.8,0.2,0.2,0.2,0.8","0.8,0.2,0.2,0.2,0.8,0.2,0.2,0.2,0.8","1","",""
"","html-keyboard-response","135","55489","0.0-135.0","31N2WW6R9SCYSNVYKK5MUXAMCCWF3Z","A31P9Z3VBQM1PB","3XT3KXP24ZKFDDMCDS43FE3AU9W6IW","","null","<img src=""img/land6.png"" style=""width:200px;border:14px solid red;"">","null","","","","","","","","","",""
"","image-keyboard-response","136","55580","0.0-136.0","31N2WW6R9SCYSNVYKK5MUXAMCCWF3Z","A31P9Z3VBQM1PB","3XT3KXP24ZKFDDMCDS43FE3AU9W6IW","","90.39999985694885","img/land6.png","75","91","2","0","1","2","0.8,0.2,0.2,0.2,0.8,0.2,0.2,0.2,0.8","0.8,0.2,0.2,0.2,0.8,0.2,0.2,0.2,0.8","1","",""
"","html-keyboard-response","137","55882","0.0-137.0","31N2WW6R9SCYSNVYKK5MUXAMCCWF3Z","A31P9Z3VBQM1PB","3XT3KXP24ZKFDDMCDS43FE3AU9W6IW","","null","<img src=""img/land6.png"" style=""width:200px;border:14px solid red;"">","null","","","","","","","","","",""
"","image-keyboard-response","138","55988","0.0-138.0","31N2WW6R9SCYSNVYKK5MUXAMCCWF3Z","A31P9Z3VBQM1PB","3XT3KXP24ZKFDDMCDS43FE3AU9W6IW","","106","img/land6.png","75","106.60000014305115","2","0","1","2","0.8,0.2,0.2,0.2,0.8,0.2,0.2,0.2,0.8","0.8,0.2,0.2,0.2,0.8,0.2,0.2,0.2,0.8","1","",""
"","html-keyboard-response","139","56289","0.0-139.0","31N2WW6R9SCYSNVYKK5MUXAMCCWF3Z","A31P9Z3VBQM1PB","3XT3KXP24ZKFDDMCDS43FE3AU9W6IW","","null","<img src=""img/land6.png"" style=""width:200px;border:14px solid red;"">","null","","","","","","","","","",""
"","image-keyboard-response","140","56316","0.0-140.0","31N2WW6R9SCYSNVYKK5MUXAMCCWF3Z","A31P9Z3VBQM1PB","3XT3KXP24ZKFDDMCDS43FE3AU9W6IW","","26.699999809265137","img/land2.png","75","27.200000047683716","2","1","2","2","0.8,0.2,0.2,0.2,0.8,0.2,0.2,0.2,0.8","0.8,0.2,0.2,0.2,0.8,0.2,0.2,0.2,0.8","1","",""
"","html-keyboard-response","141","56618","0.0-141.0","31N2WW6R9SCYSNVYKK5MUXAMCCWF3Z","A31P9Z3VBQM1PB","3XT3KXP24ZKFDDMCDS43FE3AU9W6IW","","null","<img src=""img/land2.png"" style=""width:200px; border:14px solid green;"">","null","","","","","","","","","",""
"","image-keyboard-response","142","56836","0.0-142.0","31N2WW6R9SCYSNVYKK5MUXAMCCWF3Z","A31P9Z3VBQM1PB","3XT3KXP24ZKFDDMCDS43FE3AU9W6IW","","217.39999985694885","img/land6.png","74","217.79999995231628","1","1","1","2","0.8,0.2,0.2,0.2,0.8,0.2,0.2,0.2,0.8","0.8,0.2,0.2,0.2,0.8,0.2,0.2,0.2,0.8","1","",""
"","html-keyboard-response","143","57138","0.0-143.0","31N2WW6R9SCYSNVYKK5MUXAMCCWF3Z","A31P9Z3VBQM1PB","3XT3KXP24ZKFDDMCDS43FE3AU9W6IW","","null","<img src=""img/land6.png"" style=""width:200px; border:14px solid green;"">","null","","","","","","","","","",""
"","image-keyboard-response","144","57293","0.0-144.0","31N2WW6R9SCYSNVYKK5MUXAMCCWF3Z","A31P9Z3VBQM1PB","3XT3KXP24ZKFDDMCDS43FE3AU9W6IW","","154.29999995231628","img/land2.png","74","154.80000019073486","1","1","2","2","0.8,0.2,0.2,0.2,0.8,0.2,0.2,0.2,0.8","0.8,0.2,0.2,0.2,0.8,0.2,0.2,0.2,0.8","1","",""
"","html-keyboard-response","145","57594","0.0-145.0","31N2WW6R9SCYSNVYKK5MUXAMCCWF3Z","A31P9Z3VBQM1PB","3XT3KXP24ZKFDDMCDS43FE3AU9W6IW","","null","<img src=""img/land2.png"" style=""width:200px; border:14px solid green;"">","null","","","","","","","","","",""
"","image-keyboard-response","146","57972","0.0-146.0","31N2WW6R9SCYSNVYKK5MUXAMCCWF3Z","A31P9Z3VBQM1PB","3XT3KXP24ZKFDDMCDS43FE3AU9W6IW","","377.7000000476837","img/land6.png","75","378.09999990463257","2","0","1","2","0.8,0.2,0.2,0.2,0.8,0.2,0.2,0.2,0.8","0.8,0.2,0.2,0.2,0.8,0.2,0.2,0.2,0.8","1","",""
"","html-keyboard-response","147","58278","0.0-147.0","31N2WW6R9SCYSNVYKK5MUXAMCCWF3Z","A31P9Z3VBQM1PB","3XT3KXP24ZKFDDMCDS43FE3AU9W6IW","","null","<img src=""img/land6.png"" style=""width:200px;border:14px solid red;"">","null","","","","","","","","","",""
"","image-keyboard-response","148","58436","0.0-148.0","31N2WW6R9SCYSNVYKK5MUXAMCCWF3Z","A31P9Z3VBQM1PB","3XT3KXP24ZKFDDMCDS43FE3AU9W6IW","","157.79999995231628","img/land2.png","74","158.29999995231628","1","1","2","2","0.8,0.2,0.2,0.2,0.8,0.2,0.2,0.2,0.8","0.8,0.2,0.2,0.2,0.8,0.2,0.2,0.2,0.8","1","",""
"","html-keyboard-response","149","58738","0.0-149.0","31N2WW6R9SCYSNVYKK5MUXAMCCWF3Z","A31P9Z3VBQM1PB","3XT3KXP24ZKFDDMCDS43FE3AU9W6IW","","null","<img src=""img/land2.png"" style=""width:200px; border:14px solid green;"">","null","","","","","","","","","",""
"","image-keyboard-response","150","58933","0.0-150.0","31N2WW6R9SCYSNVYKK5MUXAMCCWF3Z","A31P9Z3VBQM1PB","3XT3KXP24ZKFDDMCDS43FE3AU9W6IW","","194.10000014305115","img/land6.png","74","194.59999990463257","1","1","1","2","0.8,0.2,0.2,0.2,0.8,0.2,0.2,0.2,0.8","0.8,0.2,0.2,0.2,0.8,0.2,0.2,0.2,0.8","1","",""
"","html-keyboard-response","151","59234","0.0-151.0","31N2WW6R9SCYSNVYKK5MUXAMCCWF3Z","A31P9Z3VBQM1PB","3XT3KXP24ZKFDDMCDS43FE3AU9W6IW","","null","<img src=""img/land6.png"" style=""width:200px; border:14px solid green;"">","null","","","","","","","","","",""
"","image-keyboard-response","152","59477","0.0-152.0","31N2WW6R9SCYSNVYKK5MUXAMCCWF3Z","A31P9Z3VBQM1PB","3XT3KXP24ZKFDDMCDS43FE3AU9W6IW","","242.60000014305115","img/land6.png","75","243","2","1","1","2","0.8,0.2,0.2,0.2,0.8,0.2,0.2,0.2,0.8","0.8,0.2,0.2,0.2,0.8,0.2,0.2,0.2,0.8","1","",""
"","html-keyboard-response","153","59778","0.0-153.0","31N2WW6R9SCYSNVYKK5MUXAMCCWF3Z","A31P9Z3VBQM1PB","3XT3KXP24ZKFDDMCDS43FE3AU9W6IW","","null","<img src=""img/land6.png"" style=""width:200px; border:14px solid green;"">","null","","","","","","","","","",""
"","image-keyboard-response","154","59917","0.0-154.0","31N2WW6R9SCYSNVYKK5MUXAMCCWF3Z","A31P9Z3VBQM1PB","3XT3KXP24ZKFDDMCDS43FE3AU9W6IW","","138.29999995231628","img/land3.png","75","138.79999995231628","2","0","3","2","0.8,0.2,0.2,0.2,0.8,0.2,0.2,0.2,0.8","0.8,0.2,0.2,0.2,0.8,0.2,0.2,0.2,0.8","1","",""
"","html-keyboard-response","155","60218","0.0-155.0","31N2WW6R9SCYSNVYKK5MUXAMCCWF3Z","A31P9Z3VBQM1PB","3XT3KXP24ZKFDDMCDS43FE3AU9W6IW","","null","<img src=""img/land3.png"" style=""width:200px;border:14px solid red;"">","null","","","","","","","","","",""
"","image-keyboard-response","156","60389","0.0-156.0","31N2WW6R9SCYSNVYKK5MUXAMCCWF3Z","A31P9Z3VBQM1PB","3XT3KXP24ZKFDDMCDS43FE3AU9W6IW","","170.20000004768372","img/land3.png","75","170.70000004768372","2","0","3","2","0.8,0.2,0.2,0.2,0.8,0.2,0.2,0.2,0.8","0.8,0.2,0.2,0.2,0.8,0.2,0.2,0.2,0.8","1","",""
"","html-keyboard-response","157","60690","0.0-157.0","31N2WW6R9SCYSNVYKK5MUXAMCCWF3Z","A31P9Z3VBQM1PB","3XT3KXP24ZKFDDMCDS43FE3AU9W6IW","","null","<img src=""img/land3.png"" style=""width:200px;border:14px solid red;"">","null","","","","","","","","","",""
"","image-keyboard-response","158","61349","0.0-158.0","31N2WW6R9SCYSNVYKK5MUXAMCCWF3Z","A31P9Z3VBQM1PB","3XT3KXP24ZKFDDMCDS43FE3AU9W6IW","","658.7999999523163","img/land6.png","76","659.2000000476837","3","1","1","2","0.8,0.2,0.2,0.2,0.8,0.2,0.2,0.2,0.8","0.8,0.2,0.2,0.2,0.8,0.2,0.2,0.2,0.8","1","",""
"","html-keyboard-response","159","61650","0.0-159.0","31N2WW6R9SCYSNVYKK5MUXAMCCWF3Z","A31P9Z3VBQM1PB","3XT3KXP24ZKFDDMCDS43FE3AU9W6IW","","null","<img src=""img/land6.png"" style=""width:200px; border:14px solid green;"">","null","","","","","","","","","",""
"","image-keyboard-response","160","62389","0.0-160.0","31N2WW6R9SCYSNVYKK5MUXAMCCWF3Z","A31P9Z3VBQM1PB","3XT3KXP24ZKFDDMCDS43FE3AU9W6IW","","737.7999999523163","img/land3.png","76","738.2999999523163","3","1","3","2","0.8,0.2,0.2,0.2,0.8,0.2,0.2,0.2,0.8","0.8,0.2,0.2,0.2,0.8,0.2,0.2,0.2,0.8","1","",""
"","html-keyboard-response","161","62691","0.0-161.0","31N2WW6R9SCYSNVYKK5MUXAMCCWF3Z","A31P9Z3VBQM1PB","3XT3KXP24ZKFDDMCDS43FE3AU9W6IW","","null","<img src=""img/land3.png"" style=""width:200px; border:14px solid green;"">","null","","","","","","","","","",""
"","image-keyboard-response","162","62725","0.0-162.0","31N2WW6R9SCYSNVYKK5MUXAMCCWF3Z","A31P9Z3VBQM1PB","3XT3KXP24ZKFDDMCDS43FE3AU9W6IW","","33.59999990463257","img/land6.png","76","34","3","0","1","2","0.8,0.2,0.2,0.2,0.8,0.2,0.2,0.2,0.8","0.8,0.2,0.2,0.2,0.8,0.2,0.2,0.2,0.8","1","",""
"","html-keyboard-response","163","63026","0.0-163.0","31N2WW6R9SCYSNVYKK5MUXAMCCWF3Z","A31P9Z3VBQM1PB","3XT3KXP24ZKFDDMCDS43FE3AU9W6IW","","null","<img src=""img/land6.png"" style=""width:200px;border:14px solid red;"">","null","","","","","","","","","",""
"","image-keyboard-response","164","63045","0.0-164.0","31N2WW6R9SCYSNVYKK5MUXAMCCWF3Z","A31P9Z3VBQM1PB","3XT3KXP24ZKFDDMCDS43FE3AU9W6IW","","18.5","img/land6.png","76","19.09999990463257","3","1","1","2","0.8,0.2,0.2,0.2,0.8,0.2,0.2,0.2,0.8","0.8,0.2,0.2,0.2,0.8,0.2,0.2,0.2,0.8","1","",""
"","html-keyboard-response","165","63346","0.0-165.0","31N2WW6R9SCYSNVYKK5MUXAMCCWF3Z","A31P9Z3VBQM1PB","3XT3KXP24ZKFDDMCDS43FE3AU9W6IW","","null","<img src=""img/land6.png"" style=""width:200px; border:14px solid green;"">","null","","","","","","","","","",""
"","image-keyboard-response","166","63693","0.0-166.0","31N2WW6R9SCYSNVYKK5MUXAMCCWF3Z","A31P9Z3VBQM1PB","3XT3KXP24ZKFDDMCDS43FE3AU9W6IW","","346.2999999523163","img/land6.png","74","346.7999999523163","1","1","1","2","0.8,0.2,0.2,0.2,0.8,0.2,0.2,0.2,0.8","0.8,0.2,0.2,0.2,0.8,0.2,0.2,0.2,0.8","1","",""
"","html-keyboard-response","167","63994","0.0-167.0","31N2WW6R9SCYSNVYKK5MUXAMCCWF3Z","A31P9Z3VBQM1PB","3XT3KXP24ZKFDDMCDS43FE3AU9W6IW","","null","<img src=""img/land6.png"" style=""width:200px; border:14px solid green;"">","null","","","","","","","","","",""
"","image-keyboard-response","168","64077","0.0-168.0","31N2WW6R9SCYSNVYKK5MUXAMCCWF3Z","A31P9Z3VBQM1PB","3XT3KXP24ZKFDDMCDS43FE3AU9W6IW","","82.09999990463257","img/land6.png","74","82.70000004768372","1","1","1","2","0.8,0.2,0.2,0.2,0.8,0.2,0.2,0.2,0.8","0.8,0.2,0.2,0.2,0.8,0.2,0.2,0.2,0.8","1","",""
"","html-keyboard-response","169","64379","0.0-169.0","31N2WW6R9SCYSNVYKK5MUXAMCCWF3Z","A31P9Z3VBQM1PB","3XT3KXP24ZKFDDMCDS43FE3AU9W6IW","","null","<img src=""img/land6.png"" style=""width:200px; border:14px solid green;"">","null","","","","","","","","","",""
"","image-keyboard-response","170","64653","0.0-170.0","31N2WW6R9SCYSNVYKK5MUXAMCCWF3Z","A31P9Z3VBQM1PB","3XT3KXP24ZKFDDMCDS43FE3AU9W6IW","","273.5","img/land6.png","74","273.90000009536743","1","1","1","2","0.8,0.2,0.2,0.2,0.8,0.2,0.2,0.2,0.8","0.8,0.2,0.2,0.2,0.8,0.2,0.2,0.2,0.8","1","",""
"","html-keyboard-response","171","64954","0.0-171.0","31N2WW6R9SCYSNVYKK5MUXAMCCWF3Z","A31P9Z3VBQM1PB","3XT3KXP24ZKFDDMCDS43FE3AU9W6IW","","null","<img src=""img/land6.png"" style=""width:200px; border:14px solid green;"">","null","","","","","","","","","",""
"","image-keyboard-response","172","65157","0.0-172.0","31N2WW6R9SCYSNVYKK5MUXAMCCWF3Z","A31P9Z3VBQM1PB","3XT3KXP24ZKFDDMCDS43FE3AU9W6IW","","202","img/land3.png","74","202.5","1","1","3","2","0.8,0.2,0.2,0.2,0.8,0.2,0.2,0.2,0.8","0.8,0.2,0.2,0.2,0.8,0.2,0.2,0.2,0.8","1","",""
"","html-keyboard-response","173","65458","0.0-173.0","31N2WW6R9SCYSNVYKK5MUXAMCCWF3Z","A31P9Z3VBQM1PB","3XT3KXP24ZKFDDMCDS43FE3AU9W6IW","","null","<img src=""img/land3.png"" style=""width:200px; border:14px solid green;"">","null","","","","","","","","","",""
"","image-keyboard-response","174","65989","0.0-174.0","31N2WW6R9SCYSNVYKK5MUXAMCCWF3Z","A31P9Z3VBQM1PB","3XT3KXP24ZKFDDMCDS43FE3AU9W6IW","","530","img/land6.png","74","530.5","1","0","1","2","0.8,0.2,0.2,0.2,0.8,0.2,0.2,0.2,0.8","0.8,0.2,0.2,0.2,0.8,0.2,0.2,0.2,0.8","1","",""
"","html-keyboard-response","175","66291","0.0-175.0","31N2WW6R9SCYSNVYKK5MUXAMCCWF3Z","A31P9Z3VBQM1PB","3XT3KXP24ZKFDDMCDS43FE3AU9W6IW","","null","<img src=""img/land6.png"" style=""width:200px;border:14px solid red;"">","null","","","","","","","","","",""
"","image-keyboard-response","176","66541","0.0-176.0","31N2WW6R9SCYSNVYKK5MUXAMCCWF3Z","A31P9Z3VBQM1PB","3XT3KXP24ZKFDDMCDS43FE3AU9W6IW","","249.09999990463257","img/land6.png","74","249.79999995231628","1","1","1","2","0.8,0.2,0.2,0.2,0.8,0.2,0.2,0.2,0.8","0.8,0.2,0.2,0.2,0.8,0.2,0.2,0.2,0.8","1","",""
"","html-keyboard-response","177","66843","0.0-177.0","31N2WW6R9SCYSNVYKK5MUXAMCCWF3Z","A31P9Z3VBQM1PB","3XT3KXP24ZKFDDMCDS43FE3AU9W6IW","","null","<img src=""img/land6.png"" style=""width:200px; border:14px solid green;"">","null","","","","","","","","","",""
"","image-keyboard-response","178","67045","0.0-178.0","31N2WW6R9SCYSNVYKK5MUXAMCCWF3Z","A31P9Z3VBQM1PB","3XT3KXP24ZKFDDMCDS43FE3AU9W6IW","","201.29999995231628","img/land3.png","74","201.89999985694885","1","0","3","2","0.8,0.2,0.2,0.2,0.8,0.2,0.2,0.2,0.8","0.8,0.2,0.2,0.2,0.8,0.2,0.2,0.2,0.8","1","",""
"","html-keyboard-response","179","67346","0.0-179.0","31N2WW6R9SCYSNVYKK5MUXAMCCWF3Z","A31P9Z3VBQM1PB","3XT3KXP24ZKFDDMCDS43FE3AU9W6IW","","null","<img src=""img/land3.png"" style=""width:200px;border:14px solid red;"">","null","","","","","","","","","",""
"","image-keyboard-response","180","67645","0.0-180.0","31N2WW6R9SCYSNVYKK5MUXAMCCWF3Z","A31P9Z3VBQM1PB","3XT3KXP24ZKFDDMCDS43FE3AU9W6IW","","298.7999999523163","img/land3.png","76","299.30000019073486","3","1","3","2","0.8,0.2,0.2,0.2,0.8,0.2,0.2,0.2,0.8","0.8,0.2,0.2,0.2,0.8,0.2,0.2,0.2,0.8","1","",""
"","html-keyboard-response","181","67946","0.0-181.0","31N2WW6R9SCYSNVYKK5MUXAMCCWF3Z","A31P9Z3VBQM1PB","3XT3KXP24ZKFDDMCDS43FE3AU9W6IW","","null","<img src=""img/land3.png"" style=""width:200px; border:14px solid green;"">","null","","","","","","","","","",""
"","image-keyboard-response","182","68117","0.0-182.0","31N2WW6R9SCYSNVYKK5MUXAMCCWF3Z","A31P9Z3VBQM1PB","3XT3KXP24ZKFDDMCDS43FE3AU9W6IW","","170.10000014305115","img/land6.png","76","170.39999985694885","3","0","1","2","0.8,0.2,0.2,0.2,0.8,0.2,0.2,0.2,0.8","0.8,0.2,0.2,0.2,0.8,0.2,0.2,0.2,0.8","1","",""
"","html-keyboard-response","183","68422","0.0-183.0","31N2WW6R9SCYSNVYKK5MUXAMCCWF3Z","A31P9Z3VBQM1PB","3XT3KXP24ZKFDDMCDS43FE3AU9W6IW","","null","<img src=""img/land6.png"" style=""width:200px;border:14px solid red;"">","null","","","","","","","","","",""
"","image-keyboard-response","184","68565","0.0-184.0","31N2WW6R9SCYSNVYKK5MUXAMCCWF3Z","A31P9Z3VBQM1PB","3XT3KXP24ZKFDDMCDS43FE3AU9W6IW","","142.29999995231628","img/land3.png","74","142.79999995231628","1","0","3","2","0.8,0.2,0.2,0.2,0.8,0.2,0.2,0.2,0.8","0.8,0.2,0.2,0.2,0.8,0.2,0.2,0.2,0.8","1","",""
"","html-keyboard-response","185","68866","0.0-185.0","31N2WW6R9SCYSNVYKK5MUXAMCCWF3Z","A31P9Z3VBQM1PB","3XT3KXP24ZKFDDMCDS43FE3AU9W6IW","","null","<img src=""img/land3.png"" style=""width:200px;border:14px solid red;"">","null","","","","","","","","","",""
"","image-keyboard-response","186","69021","0.0-186.0","31N2WW6R9SCYSNVYKK5MUXAMCCWF3Z","A31P9Z3VBQM1PB","3XT3KXP24ZKFDDMCDS43FE3AU9W6IW","","154.5","img/land6.png","74","154.90000009536743","1","0","1","2","0.8,0.2,0.2,0.2,0.8,0.2,0.2,0.2,0.8","0.8,0.2,0.2,0.2,0.8,0.2,0.2,0.2,0.8","1","",""
"","html-keyboard-response","187","69324","0.0-187.0","31N2WW6R9SCYSNVYKK5MUXAMCCWF3Z","A31P9Z3VBQM1PB","3XT3KXP24ZKFDDMCDS43FE3AU9W6IW","","null","<img src=""img/land6.png"" style=""width:200px;border:14px solid red;"">","null","","","","","","","","","",""
"","image-keyboard-response","188","69485","0.0-188.0","31N2WW6R9SCYSNVYKK5MUXAMCCWF3Z","A31P9Z3VBQM1PB","3XT3KXP24ZKFDDMCDS43FE3AU9W6IW","","160.10000014305115","img/land2.png","74","160.70000004768372","1","0","2","2","0.8,0.2,0.2,0.2,0.8,0.2,0.2,0.2,0.8","0.8,0.2,0.2,0.2,0.8,0.2,0.2,0.2,0.8","1","",""
"","html-keyboard-response","189","69786","0.0-189.0","31N2WW6R9SCYSNVYKK5MUXAMCCWF3Z","A31P9Z3VBQM1PB","3XT3KXP24ZKFDDMCDS43FE3AU9W6IW","","null","<img src=""img/land2.png"" style=""width:200px;border:14px solid red;"">","null","","","","","","","","","",""
"","image-keyboard-response","190","69941","0.0-190.0","31N2WW6R9SCYSNVYKK5MUXAMCCWF3Z","A31P9Z3VBQM1PB","3XT3KXP24ZKFDDMCDS43FE3AU9W6IW","","154","img/land3.png","74","154.5","1","0","3","2","0.8,0.2,0.2,0.2,0.8,0.2,0.2,0.2,0.8","0.8,0.2,0.2,0.2,0.8,0.2,0.2,0.2,0.8","1","",""
"","html-keyboard-response","191","70242","0.0-191.0","31N2WW6R9SCYSNVYKK5MUXAMCCWF3Z","A31P9Z3VBQM1PB","3XT3KXP24ZKFDDMCDS43FE3AU9W6IW","","null","<img src=""img/land3.png"" style=""width:200px;border:14px solid red;"">","null","","","","","","","","","",""
"","image-keyboard-response","192","70421","0.0-192.0","31N2WW6R9SCYSNVYKK5MUXAMCCWF3Z","A31P9Z3VBQM1PB","3XT3KXP24ZKFDDMCDS43FE3AU9W6IW","","178.19999980926514","img/land2.png","74","178.60000014305115","1","0","2","2","0.8,0.2,0.2,0.2,0.8,0.2,0.2,0.2,0.8","0.8,0.2,0.2,0.2,0.8,0.2,0.2,0.2,0.8","1","",""
"","html-keyboard-response","193","70722","0.0-193.0","31N2WW6R9SCYSNVYKK5MUXAMCCWF3Z","A31P9Z3VBQM1PB","3XT3KXP24ZKFDDMCDS43FE3AU9W6IW","","null","<img src=""img/land2.png"" style=""width:200px;border:14px solid red;"">","null","","","","","","","","","",""
"","image-keyboard-response","194","70821","0.0-194.0","31N2WW6R9SCYSNVYKK5MUXAMCCWF3Z","A31P9Z3VBQM1PB","3XT3KXP24ZKFDDMCDS43FE3AU9W6IW","","98.30000019073486","img/land3.png","76","98.70000004768372","3","1","3","2","0.8,0.2,0.2,0.2,0.8,0.2,0.2,0.2,0.8","0.8,0.2,0.2,0.2,0.8,0.2,0.2,0.2,0.8","1","",""
"","html-keyboard-response","195","71123","0.0-195.0","31N2WW6R9SCYSNVYKK5MUXAMCCWF3Z","A31P9Z3VBQM1PB","3XT3KXP24ZKFDDMCDS43FE3AU9W6IW","","null","<img src=""img/land3.png"" style=""width:200px; border:14px solid green;"">","null","","","","","","","","","",""
"","image-keyboard-response","196","71173","0.0-196.0","31N2WW6R9SCYSNVYKK5MUXAMCCWF3Z","A31P9Z3VBQM1PB","3XT3KXP24ZKFDDMCDS43FE3AU9W6IW","","49.5","img/land3.png","76","50.09999990463257","3","1","3","2","0.8,0.2,0.2,0.2,0.8,0.2,0.2,0.2,0.8","0.8,0.2,0.2,0.2,0.8,0.2,0.2,0.2,0.8","1","",""
"","html-keyboard-response","197","71475","0.0-197.0","31N2WW6R9SCYSNVYKK5MUXAMCCWF3Z","A31P9Z3VBQM1PB","3XT3KXP24ZKFDDMCDS43FE3AU9W6IW","","null","<img src=""img/land3.png"" style=""width:200px; border:14px solid green;"">","null","","","","","","","","","",""
"","image-keyboard-response","198","71565","0.0-198.0","31N2WW6R9SCYSNVYKK5MUXAMCCWF3Z","A31P9Z3VBQM1PB","3XT3KXP24ZKFDDMCDS43FE3AU9W6IW","","89.70000004768372","img/land6.png","75","90.30000019073486","2","0","1","2","0.8,0.2,0.2,0.2,0.8,0.2,0.2,0.2,0.8","0.8,0.2,0.2,0.2,0.8,0.2,0.2,0.2,0.8","1","",""
"","html-keyboard-response","199","71867","0.0-199.0","31N2WW6R9SCYSNVYKK5MUXAMCCWF3Z","A31P9Z3VBQM1PB","3XT3KXP24ZKFDDMCDS43FE3AU9W6IW","","null","<img src=""img/land6.png"" style=""width:200px;border:14px solid red;"">","null","","","","","","","","","",""
"","image-keyboard-response","200","71925","0.0-200.0","31N2WW6R9SCYSNVYKK5MUXAMCCWF3Z","A31P9Z3VBQM1PB","3XT3KXP24ZKFDDMCDS43FE3AU9W6IW","","57.5","img/land2.png","75","57.89999985694885","2","1","2","2","0.8,0.2,0.2,0.2,0.8,0.2,0.2,0.2,0.8","0.8,0.2,0.2,0.2,0.8,0.2,0.2,0.2,0.8","1","",""
"","html-keyboard-response","201","72227","0.0-201.0","31N2WW6R9SCYSNVYKK5MUXAMCCWF3Z","A31P9Z3VBQM1PB","3XT3KXP24ZKFDDMCDS43FE3AU9W6IW","","null","<img src=""img/land2.png"" style=""width:200px; border:14px solid green;"">","null","","","","","","","","","",""
"","image-keyboard-response","202","72293","0.0-202.0","31N2WW6R9SCYSNVYKK5MUXAMCCWF3Z","A31P9Z3VBQM1PB","3XT3KXP24ZKFDDMCDS43FE3AU9W6IW","","66","img/land6.png","74","66.40000009536743","1","1","1","2","0.8,0.2,0.2,0.2,0.8,0.2,0.2,0.2,0.8","0.8,0.2,0.2,0.2,0.8,0.2,0.2,0.2,0.8","1","",""
"","html-keyboard-response","203","72595","0.0-203.0","31N2WW6R9SCYSNVYKK5MUXAMCCWF3Z","A31P9Z3VBQM1PB","3XT3KXP24ZKFDDMCDS43FE3AU9W6IW","","null","<img src=""img/land6.png"" style=""width:200px; border:14px solid green;"">","null","","","","","","","","","",""
"","image-keyboard-response","204","72661","0.0-204.0","31N2WW6R9SCYSNVYKK5MUXAMCCWF3Z","A31P9Z3VBQM1PB","3XT3KXP24ZKFDDMCDS43FE3AU9W6IW","","65.69999980926514","img/land6.png","74","66.29999995231628","1","0","1","2","0.8,0.2,0.2,0.2,0.8,0.2,0.2,0.2,0.8","0.8,0.2,0.2,0.2,0.8,0.2,0.2,0.2,0.8","1","",""
"","html-keyboard-response","205","72963","0.0-205.0","31N2WW6R9SCYSNVYKK5MUXAMCCWF3Z","A31P9Z3VBQM1PB","3XT3KXP24ZKFDDMCDS43FE3AU9W6IW","","null","<img src=""img/land6.png"" style=""width:200px;border:14px solid red;"">","null","","","","","","","","","",""
"","image-keyboard-response","206","73005","0.0-206.0","31N2WW6R9SCYSNVYKK5MUXAMCCWF3Z","A31P9Z3VBQM1PB","3XT3KXP24ZKFDDMCDS43FE3AU9W6IW","","41.59999990463257","img/land2.png","74","42.10000014305115","1","1","2","2","0.8,0.2,0.2,0.2,0.8,0.2,0.2,0.2,0.8","0.8,0.2,0.2,0.2,0.8,0.2,0.2,0.2,0.8","1","",""
"","html-keyboard-response","207","73316","0.0-207.0","31N2WW6R9SCYSNVYKK5MUXAMCCWF3Z","A31P9Z3VBQM1PB","3XT3KXP24ZKFDDMCDS43FE3AU9W6IW","","null","<img src=""img/land2.png"" style=""width:200px; border:14px solid green;"">","null","","","","","","","","","",""
"","image-keyboard-response","208","73421","0.0-208.0","31N2WW6R9SCYSNVYKK5MUXAMCCWF3Z","A31P9Z3VBQM1PB","3XT3KXP24ZKFDDMCDS43FE3AU9W6IW","","104.29999995231628","img/land6.png","74","104.79999995231628","1","1","1","2","0.8,0.2,0.2,0.2,0.8,0.2,0.2,0.2,0.8","0.8,0.2,0.2,0.2,0.8,0.2,0.2,0.2,0.8","1","",""
"","html-keyboard-response","209","73733","0.0-209.0","31N2WW6R9SCYSNVYKK5MUXAMCCWF3Z","A31P9Z3VBQM1PB","3XT3KXP24ZKFDDMCDS43FE3AU9W6IW","","null","<img src=""img/land6.png"" style=""width:200px; border:14px solid green;"">","null","","","","","","","","","",""
"","image-keyboard-response","210","73805","0.0-210.0","31N2WW6R9SCYSNVYKK5MUXAMCCWF3Z","A31P9Z3VBQM1PB","3XT3KXP24ZKFDDMCDS43FE3AU9W6IW","","71.30000019073486","img/land6.png","74","71.79999995231628","1","1","1","2","0.8,0.2,0.2,0.2,0.8,0.2,0.2,0.2,0.8","0.8,0.2,0.2,0.2,0.8,0.2,0.2,0.2,0.8","1","",""
"","html-keyboard-response","211","74107","0.0-211.0","31N2WW6R9SCYSNVYKK5MUXAMCCWF3Z","A31P9Z3VBQM1PB","3XT3KXP24ZKFDDMCDS43FE3AU9W6IW","","null","<img src=""img/land6.png"" style=""width:200px; border:14px solid green;"">","null","","","","","","","","","",""
"","image-keyboard-response","212","74157","0.0-212.0","31N2WW6R9SCYSNVYKK5MUXAMCCWF3Z","A31P9Z3VBQM1PB","3XT3KXP24ZKFDDMCDS43FE3AU9W6IW","","48.799999952316284","img/land6.png","74","49.200000047683716","1","1","1","2","0.8,0.2,0.2,0.2,0.8,0.2,0.2,0.2,0.8","0.8,0.2,0.2,0.2,0.8,0.2,0.2,0.2,0.8","1","",""
"","html-keyboard-response","213","74458","0.0-213.0","31N2WW6R9SCYSNVYKK5MUXAMCCWF3Z","A31P9Z3VBQM1PB","3XT3KXP24ZKFDDMCDS43FE3AU9W6IW","","null","<img src=""img/land6.png"" style=""width:200px; border:14px solid green;"">","null","","","","","","","","","",""
"","image-keyboard-response","214","74509","0.0-214.0","31N2WW6R9SCYSNVYKK5MUXAMCCWF3Z","A31P9Z3VBQM1PB","3XT3KXP24ZKFDDMCDS43FE3AU9W6IW","","49.89999985694885","img/land6.png","74","50.40000009536743","1","0","1","2","0.8,0.2,0.2,0.2,0.8,0.2,0.2,0.2,0.8","0.8,0.2,0.2,0.2,0.8,0.2,0.2,0.2,0.8","1","",""
"","html-keyboard-response","215","74810","0.0-215.0","31N2WW6R9SCYSNVYKK5MUXAMCCWF3Z","A31P9Z3VBQM1PB","3XT3KXP24ZKFDDMCDS43FE3AU9W6IW","","null","<img src=""img/land6.png"" style=""width:200px;border:14px solid red;"">","null","","","","","","","","","",""
"","image-keyboard-response","216","74861","0.0-216.0","31N2WW6R9SCYSNVYKK5MUXAMCCWF3Z","A31P9Z3VBQM1PB","3XT3KXP24ZKFDDMCDS43FE3AU9W6IW","","49.69999980926514","img/land6.png","74","50.299999952316284","1","1","1","2","0.8,0.2,0.2,0.2,0.8,0.2,0.2,0.2,0.8","0.8,0.2,0.2,0.2,0.8,0.2,0.2,0.2,0.8","1","",""
"","html-keyboard-response","217","75162","0.0-217.0","31N2WW6R9SCYSNVYKK5MUXAMCCWF3Z","A31P9Z3VBQM1PB","3XT3KXP24ZKFDDMCDS43FE3AU9W6IW","","null","<img src=""img/land6.png"" style=""width:200px; border:14px solid green;"">","null","","","","","","","","","",""
"","image-keyboard-response","218","75277","0.0-218.0","31N2WW6R9SCYSNVYKK5MUXAMCCWF3Z","A31P9Z3VBQM1PB","3XT3KXP24ZKFDDMCDS43FE3AU9W6IW","","114.69999980926514","img/land6.png","74","115.20000004768372","1","1","1","2","0.8,0.2,0.2,0.2,0.8,0.2,0.2,0.2,0.8","0.8,0.2,0.2,0.2,0.8,0.2,0.2,0.2,0.8","1","",""
"","html-keyboard-response","219","75578","0.0-219.0","31N2WW6R9SCYSNVYKK5MUXAMCCWF3Z","A31P9Z3VBQM1PB","3XT3KXP24ZKFDDMCDS43FE3AU9W6IW","","null","<img src=""img/land6.png"" style=""width:200px; border:14px solid green;"">","null","","","","","","","","","",""
"","image-keyboard-response","220","75621","0.0-220.0","31N2WW6R9SCYSNVYKK5MUXAMCCWF3Z","A31P9Z3VBQM1PB","3XT3KXP24ZKFDDMCDS43FE3AU9W6IW","","42.90000009536743","img/land2.png","74","43.39999985694885","1","0","2","2","0.8,0.2,0.2,0.2,0.8,0.2,0.2,0.2,0.8","0.8,0.2,0.2,0.2,0.8,0.2,0.2,0.2,0.8","1","",""
"","html-keyboard-response","221","75922","0.0-221.0","31N2WW6R9SCYSNVYKK5MUXAMCCWF3Z","A31P9Z3VBQM1PB","3XT3KXP24ZKFDDMCDS43FE3AU9W6IW","","null","<img src=""img/land2.png"" style=""width:200px;border:14px solid red;"">","null","","","","","","","","","",""
"","image-keyboard-response","222","75949","0.0-222.0","31N2WW6R9SCYSNVYKK5MUXAMCCWF3Z","A31P9Z3VBQM1PB","3XT3KXP24ZKFDDMCDS43FE3AU9W6IW","","26.100000143051147","img/land6.png","74","26.700000047683716","1","0","1","2","0.8,0.2,0.2,0.2,0.8,0.2,0.2,0.2,0.8","0.8,0.2,0.2,0.2,0.8,0.2,0.2,0.2,0.8","1","",""
"","html-keyboard-response","223","76251","0.0-223.0","31N2WW6R9SCYSNVYKK5MUXAMCCWF3Z","A31P9Z3VBQM1PB","3XT3KXP24ZKFDDMCDS43FE3AU9W6IW","","null","<img src=""img/land6.png"" style=""width:200px;border:14px solid red;"">","null","","","","","","","","","",""
"","image-keyboard-response","224","76413","0.0-224.0","31N2WW6R9SCYSNVYKK5MUXAMCCWF3Z","A31P9Z3VBQM1PB","3XT3KXP24ZKFDDMCDS43FE3AU9W6IW","","161.60000014305115","img/land6.png","75","162.09999990463257","2","0","1","2","0.8,0.2,0.2,0.2,0.8,0.2,0.2,0.2,0.8","0.8,0.2,0.2,0.2,0.8,0.2,0.2,0.2,0.8","1","",""
"","html-keyboard-response","225","76714","0.0-225.0","31N2WW6R9SCYSNVYKK5MUXAMCCWF3Z","A31P9Z3VBQM1PB","3XT3KXP24ZKFDDMCDS43FE3AU9W6IW","","null","<img src=""img/land6.png"" style=""width:200px;border:14px solid red;"">","null","","","","","","","","","",""
"","image-keyboard-response","226","76717","0.0-226.0","31N2WW6R9SCYSNVYKK5MUXAMCCWF3Z","A31P9Z3VBQM1PB","3XT3KXP24ZKFDDMCDS43FE3AU9W6IW","","2","img/land6.png","75","2.6000001430511475","2","0","1","2","0.8,0.2,0.2,0.2,0.8,0.2,0.2,0.2,0.8","0.8,0.2,0.2,0.2,0.8,0.2,0.2,0.2,0.8","1","",""
"","html-keyboard-response","227","77018","0.0-227.0","31N2WW6R9SCYSNVYKK5MUXAMCCWF3Z","A31P9Z3VBQM1PB","3XT3KXP24ZKFDDMCDS43FE3AU9W6IW","","null","<img src=""img/land6.png"" style=""width:200px;border:14px solid red;"">","null","","","","","","","","","",""
"","image-keyboard-response","228","77045","0.0-228.0","31N2WW6R9SCYSNVYKK5MUXAMCCWF3Z","A31P9Z3VBQM1PB","3XT3KXP24ZKFDDMCDS43FE3AU9W6IW","","26.40000009536743","img/land6.png","76","26.799999952316284","3","1","1","2","0.8,0.2,0.2,0.2,0.8,0.2,0.2,0.2,0.8","0.8,0.2,0.2,0.2,0.8,0.2,0.2,0.2,0.8","1","",""
"","html-keyboard-response","229","77346","0.0-229.0","31N2WW6R9SCYSNVYKK5MUXAMCCWF3Z","A31P9Z3VBQM1PB","3XT3KXP24ZKFDDMCDS43FE3AU9W6IW","","null","<img src=""img/land6.png"" style=""width:200px; border:14px solid green;"">","null","","","","","","","","","",""
"","image-keyboard-response","230","77621","0.0-230.0","31N2WW6R9SCYSNVYKK5MUXAMCCWF3Z","A31P9Z3VBQM1PB","3XT3KXP24ZKFDDMCDS43FE3AU9W6IW","","274.40000009536743","img/land2.png","76","274.7999999523163","3","0","2","2","0.8,0.2,0.2,0.2,0.8,0.2,0.2,0.2,0.8","0.8,0.2,0.2,0.2,0.8,0.2,0.2,0.2,0.8","1","",""
"","html-keyboard-response","231","77935","0.0-231.0","31N2WW6R9SCYSNVYKK5MUXAMCCWF3Z","A31P9Z3VBQM1PB","3XT3KXP24ZKFDDMCDS43FE3AU9W6IW","","null","<img src=""img/land2.png"" style=""width:200px;border:14px solid red;"">","null","","","","","","","","","",""
"","image-keyboard-response","232","78213","0.0-232.0","31N2WW6R9SCYSNVYKK5MUXAMCCWF3Z","A31P9Z3VBQM1PB","3XT3KXP24ZKFDDMCDS43FE3AU9W6IW","","277.2999999523163","img/land2.png","76","277.69999980926514","3","1","2","2","0.8,0.2,0.2,0.2,0.8,0.2,0.2,0.2,0.8","0.8,0.2,0.2,0.2,0.8,0.2,0.2,0.2,0.8","1","",""
"","html-keyboard-response","233","78514","0.0-233.0","31N2WW6R9SCYSNVYKK5MUXAMCCWF3Z","A31P9Z3VBQM1PB","3XT3KXP24ZKFDDMCDS43FE3AU9W6IW","","null","<img src=""img/land2.png"" style=""width:200px; border:14px solid green;"">","null","","","","","","","","","",""
"","image-keyboard-response","234","78677","0.0-234.0","31N2WW6R9SCYSNVYKK5MUXAMCCWF3Z","A31P9Z3VBQM1PB","3XT3KXP24ZKFDDMCDS43FE3AU9W6IW","","161.90000009536743","img/land6.png","76","162.29999995231628","3","0","1","2","0.8,0.2,0.2,0.2,0.8,0.2,0.2,0.2,0.8","0.8,0.2,0.2,0.2,0.8,0.2,0.2,0.2,0.8","1","",""
"","html-keyboard-response","235","78978","0.0-235.0","31N2WW6R9SCYSNVYKK5MUXAMCCWF3Z","A31P9Z3VBQM1PB","3XT3KXP24ZKFDDMCDS43FE3AU9W6IW","","null","<img src=""img/land6.png"" style=""width:200px;border:14px solid red;"">","null","","","","","","","","","",""
"","image-keyboard-response","236","79213","0.0-236.0","31N2WW6R9SCYSNVYKK5MUXAMCCWF3Z","A31P9Z3VBQM1PB","3XT3KXP24ZKFDDMCDS43FE3AU9W6IW","","234.39999985694885","img/land3.png","75","235","2","1","3","2","0.8,0.2,0.2,0.2,0.8,0.2,0.2,0.2,0.8","0.8,0.2,0.2,0.2,0.8,0.2,0.2,0.2,0.8","1","",""
"","html-keyboard-response","237","79515","0.0-237.0","31N2WW6R9SCYSNVYKK5MUXAMCCWF3Z","A31P9Z3VBQM1PB","3XT3KXP24ZKFDDMCDS43FE3AU9W6IW","","null","<img src=""img/land3.png"" style=""width:200px; border:14px solid green;"">","null","","","","","","","","","",""
"","image-keyboard-response","238","79709","0.0-238.0","31N2WW6R9SCYSNVYKK5MUXAMCCWF3Z","A31P9Z3VBQM1PB","3XT3KXP24ZKFDDMCDS43FE3AU9W6IW","","193.79999995231628","img/land3.png","75","194.20000004768372","2","0","3","2","0.8,0.2,0.2,0.2,0.8,0.2,0.2,0.2,0.8","0.8,0.2,0.2,0.2,0.8,0.2,0.2,0.2,0.8","1","",""
"","html-keyboard-response","239","80010","0.0-239.0","31N2WW6R9SCYSNVYKK5MUXAMCCWF3Z","A31P9Z3VBQM1PB","3XT3KXP24ZKFDDMCDS43FE3AU9W6IW","","null","<img src=""img/land3.png"" style=""width:200px;border:14px solid red;"">","null","","","","","","","","","",""
"","image-keyboard-response","240","80133","0.0-240.0","31N2WW6R9SCYSNVYKK5MUXAMCCWF3Z","A31P9Z3VBQM1PB","3XT3KXP24ZKFDDMCDS43FE3AU9W6IW","","122.60000014305115","img/land3.png","75","123.20000004768372","2","1","3","2","0.8,0.2,0.2,0.2,0.8,0.2,0.2,0.2,0.8","0.8,0.2,0.2,0.2,0.8,0.2,0.2,0.2,0.8","1","",""
"","html-keyboard-response","241","80435","0.0-241.0","31N2WW6R9SCYSNVYKK5MUXAMCCWF3Z","A31P9Z3VBQM1PB","3XT3KXP24ZKFDDMCDS43FE3AU9W6IW","","null","<img src=""img/land3.png"" style=""width:200px; border:14px solid green;"">","null","","","","","","","","","",""
"","image-keyboard-response","242","80525","0.0-242.0","31N2WW6R9SCYSNVYKK5MUXAMCCWF3Z","A31P9Z3VBQM1PB","3XT3KXP24ZKFDDMCDS43FE3AU9W6IW","","89","img/land3.png","75","89.59999990463257","2","0","3","2","0.8,0.2,0.2,0.2,0.8,0.2,0.2,0.2,0.8","0.8,0.2,0.2,0.2,0.8,0.2,0.2,0.2,0.8","1","",""
"","html-keyboard-response","243","80827","0.0-243.0","31N2WW6R9SCYSNVYKK5MUXAMCCWF3Z","A31P9Z3VBQM1PB","3XT3KXP24ZKFDDMCDS43FE3AU9W6IW","","null","<img src=""img/land3.png"" style=""width:200px;border:14px solid red;"">","null","","","","","","","","","",""
"","image-keyboard-response","244","80925","0.0-244.0","31N2WW6R9SCYSNVYKK5MUXAMCCWF3Z","A31P9Z3VBQM1PB","3XT3KXP24ZKFDDMCDS43FE3AU9W6IW","","97.69999980926514","img/land6.png","75","98.10000014305115","2","0","1","2","0.8,0.2,0.2,0.2,0.8,0.2,0.2,0.2,0.8","0.8,0.2,0.2,0.2,0.8,0.2,0.2,0.2,0.8","1","",""
"","html-keyboard-response","245","81229","0.0-245.0","31N2WW6R9SCYSNVYKK5MUXAMCCWF3Z","A31P9Z3VBQM1PB","3XT3KXP24ZKFDDMCDS43FE3AU9W6IW","","null","<img src=""img/land6.png"" style=""width:200px;border:14px solid red;"">","null","","","","","","","","","",""
"","image-keyboard-response","246","81277","0.0-246.0","31N2WW6R9SCYSNVYKK5MUXAMCCWF3Z","A31P9Z3VBQM1PB","3XT3KXP24ZKFDDMCDS43FE3AU9W6IW","","47.60000014305115","img/land2.png","74","48.09999990463257","1","0","2","2","0.8,0.2,0.2,0.2,0.8,0.2,0.2,0.2,0.8","0.8,0.2,0.2,0.2,0.8,0.2,0.2,0.2,0.8","1","",""
"","html-keyboard-response","247","81578","0.0-247.0","31N2WW6R9SCYSNVYKK5MUXAMCCWF3Z","A31P9Z3VBQM1PB","3XT3KXP24ZKFDDMCDS43FE3AU9W6IW","","null","<img src=""img/land2.png"" style=""width:200px;border:14px solid red;"">","null","","","","","","","","","",""
"","image-keyboard-response","248","81613","0.0-248.0","31N2WW6R9SCYSNVYKK5MUXAMCCWF3Z","A31P9Z3VBQM1PB","3XT3KXP24ZKFDDMCDS43FE3AU9W6IW","","34.10000014305115","img/land6.png","74","34.700000047683716","1","0","1","2","0.8,0.2,0.2,0.2,0.8,0.2,0.2,0.2,0.8","0.8,0.2,0.2,0.2,0.8,0.2,0.2,0.2,0.8","1","",""
"","html-keyboard-response","249","81914","0.0-249.0","31N2WW6R9SCYSNVYKK5MUXAMCCWF3Z","A31P9Z3VBQM1PB","3XT3KXP24ZKFDDMCDS43FE3AU9W6IW","","null","<img src=""img/land6.png"" style=""width:200px;border:14px solid red;"">","null","","","","","","","","","",""
"","image-keyboard-response","250","81949","0.0-250.0","31N2WW6R9SCYSNVYKK5MUXAMCCWF3Z","A31P9Z3VBQM1PB","3XT3KXP24ZKFDDMCDS43FE3AU9W6IW","","34","img/land6.png","74","34.5","1","1","1","2","0.8,0.2,0.2,0.2,0.8,0.2,0.2,0.2,0.8","0.8,0.2,0.2,0.2,0.8,0.2,0.2,0.2,0.8","1","",""
"","html-keyboard-response","251","82250","0.0-251.0","31N2WW6R9SCYSNVYKK5MUXAMCCWF3Z","A31P9Z3VBQM1PB","3XT3KXP24ZKFDDMCDS43FE3AU9W6IW","","null","<img src=""img/land6.png"" style=""width:200px; border:14px solid green;"">","null","","","","","","","","","",""
"","image-keyboard-response","252","82253","0.0-252.0","31N2WW6R9SCYSNVYKK5MUXAMCCWF3Z","A31P9Z3VBQM1PB","3XT3KXP24ZKFDDMCDS43FE3AU9W6IW","","2","img/land6.png","74","2.5","1","1","1","2","0.8,0.2,0.2,0.2,0.8,0.2,0.2,0.2,0.8","0.8,0.2,0.2,0.2,0.8,0.2,0.2,0.2,0.8","1","",""
"","html-keyboard-response","253","82554","0.0-253.0","31N2WW6R9SCYSNVYKK5MUXAMCCWF3Z","A31P9Z3VBQM1PB","3XT3KXP24ZKFDDMCDS43FE3AU9W6IW","","null","<img src=""img/land6.png"" style=""width:200px; border:14px solid green;"">","null","","","","","","","","","",""
"","image-keyboard-response","254","82789","0.0-254.0","31N2WW6R9SCYSNVYKK5MUXAMCCWF3Z","A31P9Z3VBQM1PB","3XT3KXP24ZKFDDMCDS43FE3AU9W6IW","","234.69999980926514","img/land6.png","74","235.20000004768372","1","1","1","2","0.8,0.2,0.2,0.2,0.8,0.2,0.2,0.2,0.8","0.8,0.2,0.2,0.2,0.8,0.2,0.2,0.2,0.8","1","",""
"","html-keyboard-response","255","83090","0.0-255.0","31N2WW6R9SCYSNVYKK5MUXAMCCWF3Z","A31P9Z3VBQM1PB","3XT3KXP24ZKFDDMCDS43FE3AU9W6IW","","null","<img src=""img/land6.png"" style=""width:200px; border:14px solid green;"">","null","","","","","","","","","",""
"","image-keyboard-response","256","83189","0.0-256.0","31N2WW6R9SCYSNVYKK5MUXAMCCWF3Z","A31P9Z3VBQM1PB","3XT3KXP24ZKFDDMCDS43FE3AU9W6IW","","98.5","img/land3.png","74","99","1","0","3","2","0.8,0.2,0.2,0.2,0.8,0.2,0.2,0.2,0.8","0.8,0.2,0.2,0.2,0.8,0.2,0.2,0.2,0.8","1","",""
"","html-keyboard-response","257","83503","0.0-257.0","31N2WW6R9SCYSNVYKK5MUXAMCCWF3Z","A31P9Z3VBQM1PB","3XT3KXP24ZKFDDMCDS43FE3AU9W6IW","","null","<img src=""img/land3.png"" style=""width:200px;border:14px solid red;"">","null","","","","","","","","","",""
"","image-keyboard-response","258","83597","0.0-258.0","31N2WW6R9SCYSNVYKK5MUXAMCCWF3Z","A31P9Z3VBQM1PB","3XT3KXP24ZKFDDMCDS43FE3AU9W6IW","","92.89999985694885","img/land6.png","74","93.5","1","0","1","2","0.8,0.2,0.2,0.2,0.8,0.2,0.2,0.2,0.8","0.8,0.2,0.2,0.2,0.8,0.2,0.2,0.2,0.8","1","",""
"","html-keyboard-response","259","83898","0.0-259.0","31N2WW6R9SCYSNVYKK5MUXAMCCWF3Z","A31P9Z3VBQM1PB","3XT3KXP24ZKFDDMCDS43FE3AU9W6IW","","null","<img src=""img/land6.png"" style=""width:200px;border:14px solid red;"">","null","","","","","","","","","",""
"","image-keyboard-response","260","84974","0.0-260.0","31N2WW6R9SCYSNVYKK5MUXAMCCWF3Z","A31P9Z3VBQM1PB","3XT3KXP24ZKFDDMCDS43FE3AU9W6IW","","1074.9000000953674","img/land3.png","74","1075.4000000953674","1","0","3","2","0.8,0.2,0.2,0.2,0.8,0.2,0.2,0.2,0.8","0.8,0.2,0.2,0.2,0.8,0.2,0.2,0.2,0.8","1","",""
"","html-keyboard-response","261","85274","0.0-261.0","31N2WW6R9SCYSNVYKK5MUXAMCCWF3Z","A31P9Z3VBQM1PB","3XT3KXP24ZKFDDMCDS43FE3AU9W6IW","","null","<img src=""img/land3.png"" style=""width:200px;border:14px solid red;"">","null","","","","","","","","","",""
"","image-keyboard-response","262","85717","0.0-262.0","31N2WW6R9SCYSNVYKK5MUXAMCCWF3Z","A31P9Z3VBQM1PB","3XT3KXP24ZKFDDMCDS43FE3AU9W6IW","","441.90000009536743","img/land3.png","75","442.39999985694885","2","0","3","2","0.8,0.2,0.2,0.2,0.8,0.2,0.2,0.2,0.8","0.8,0.2,0.2,0.2,0.8,0.2,0.2,0.2,0.8","1","",""
"","html-keyboard-response","263","86018","0.0-263.0","31N2WW6R9SCYSNVYKK5MUXAMCCWF3Z","A31P9Z3VBQM1PB","3XT3KXP24ZKFDDMCDS43FE3AU9W6IW","","null","<img src=""img/land3.png"" style=""width:200px;border:14px solid red;"">","null","","","","","","","","","",""
"","image-keyboard-response","264","86029","0.0-264.0","31N2WW6R9SCYSNVYKK5MUXAMCCWF3Z","A31P9Z3VBQM1PB","3XT3KXP24ZKFDDMCDS43FE3AU9W6IW","","10","img/land6.png","75","10.400000095367432","2","1","1","2","0.8,0.2,0.2,0.2,0.8,0.2,0.2,0.2,0.8","0.8,0.2,0.2,0.2,0.8,0.2,0.2,0.2,0.8","1","",""
"","html-keyboard-response","265","86330","0.0-265.0","31N2WW6R9SCYSNVYKK5MUXAMCCWF3Z","A31P9Z3VBQM1PB","3XT3KXP24ZKFDDMCDS43FE3AU9W6IW","","null","<img src=""img/land6.png"" style=""width:200px; border:14px solid green;"">","null","","","","","","","","","",""
"","image-keyboard-response","266","86373","0.0-266.0","31N2WW6R9SCYSNVYKK5MUXAMCCWF3Z","A31P9Z3VBQM1PB","3XT3KXP24ZKFDDMCDS43FE3AU9W6IW","","42.39999985694885","img/land2.png","75","43.10000014305115","2","1","2","2","0.8,0.2,0.2,0.2,0.8,0.2,0.2,0.2,0.8","0.8,0.2,0.2,0.2,0.8,0.2,0.2,0.2,0.8","1","",""
"","html-keyboard-response","267","86674","0.0-267.0","31N2WW6R9SCYSNVYKK5MUXAMCCWF3Z","A31P9Z3VBQM1PB","3XT3KXP24ZKFDDMCDS43FE3AU9W6IW","","null","<img src=""img/land2.png"" style=""width:200px; border:14px solid green;"">","null","","","","","","","","","",""
"","image-keyboard-response","268","86717","0.0-268.0","31N2WW6R9SCYSNVYKK5MUXAMCCWF3Z","A31P9Z3VBQM1PB","3XT3KXP24ZKFDDMCDS43FE3AU9W6IW","","42.299999952316284","img/land6.png","74","42.799999952316284","1","0","1","2","0.8,0.2,0.2,0.2,0.8,0.2,0.2,0.2,0.8","0.8,0.2,0.2,0.2,0.8,0.2,0.2,0.2,0.8","1","",""
"","html-keyboard-response","269","87019","0.0-269.0","31N2WW6R9SCYSNVYKK5MUXAMCCWF3Z","A31P9Z3VBQM1PB","3XT3KXP24ZKFDDMCDS43FE3AU9W6IW","","null","<img src=""img/land6.png"" style=""width:200px;border:14px solid red;"">","null","","","","","","","","","",""
"","image-keyboard-response","270","87037","0.0-270.0","31N2WW6R9SCYSNVYKK5MUXAMCCWF3Z","A31P9Z3VBQM1PB","3XT3KXP24ZKFDDMCDS43FE3AU9W6IW","","17.59999990463257","img/land6.png","74","18.100000143051147","1","1","1","2","0.8,0.2,0.2,0.2,0.8,0.2,0.2,0.2,0.8","0.8,0.2,0.2,0.2,0.8,0.2,0.2,0.2,0.8","1","",""
"","html-keyboard-response","271","87338","0.0-271.0","31N2WW6R9SCYSNVYKK5MUXAMCCWF3Z","A31P9Z3VBQM1PB","3XT3KXP24ZKFDDMCDS43FE3AU9W6IW","","null","<img src=""img/land6.png"" style=""width:200px; border:14px solid green;"">","null","","","","","","","","","",""
"","image-keyboard-response","272","87621","0.0-272.0","31N2WW6R9SCYSNVYKK5MUXAMCCWF3Z","A31P9Z3VBQM1PB","3XT3KXP24ZKFDDMCDS43FE3AU9W6IW","","281.69999980926514","img/land6.png","75","282.2000000476837","2","0","1","2","0.8,0.2,0.2,0.2,0.8,0.2,0.2,0.2,0.8","0.8,0.2,0.2,0.2,0.8,0.2,0.2,0.2,0.8","1","",""
"","html-keyboard-response","273","87922","0.0-273.0","31N2WW6R9SCYSNVYKK5MUXAMCCWF3Z","A31P9Z3VBQM1PB","3XT3KXP24ZKFDDMCDS43FE3AU9W6IW","","null","<img src=""img/land6.png"" style=""width:200px;border:14px solid red;"">","null","","","","","","","","","",""
"","image-keyboard-response","274","87949","0.0-274.0","31N2WW6R9SCYSNVYKK5MUXAMCCWF3Z","A31P9Z3VBQM1PB","3XT3KXP24ZKFDDMCDS43FE3AU9W6IW","","26.5","img/land6.png","75","27.200000047683716","2","0","1","2","0.8,0.2,0.2,0.2,0.8,0.2,0.2,0.2,0.8","0.8,0.2,0.2,0.2,0.8,0.2,0.2,0.2,0.8","1","",""
"","html-keyboard-response","275","88250","0.0-275.0","31N2WW6R9SCYSNVYKK5MUXAMCCWF3Z","A31P9Z3VBQM1PB","3XT3KXP24ZKFDDMCDS43FE3AU9W6IW","","null","<img src=""img/land6.png"" style=""width:200px;border:14px solid red;"">","null","","","","","","","","","",""
"","image-keyboard-response","276","88253","0.0-276.0","31N2WW6R9SCYSNVYKK5MUXAMCCWF3Z","A31P9Z3VBQM1PB","3XT3KXP24ZKFDDMCDS43FE3AU9W6IW","","2","img/land6.png","75","2.5999999046325684","2","0","1","2","0.8,0.2,0.2,0.2,0.8,0.2,0.2,0.2,0.8","0.8,0.2,0.2,0.2,0.8,0.2,0.2,0.2,0.8","1","",""
"","html-keyboard-response","277","88554","0.0-277.0","31N2WW6R9SCYSNVYKK5MUXAMCCWF3Z","A31P9Z3VBQM1PB","3XT3KXP24ZKFDDMCDS43FE3AU9W6IW","","null","<img src=""img/land6.png"" style=""width:200px;border:14px solid red;"">","null","","","","","","","","","",""
"","image-keyboard-response","278","88589","0.0-278.0","31N2WW6R9SCYSNVYKK5MUXAMCCWF3Z","A31P9Z3VBQM1PB","3XT3KXP24ZKFDDMCDS43FE3AU9W6IW","","34","img/land6.png","75","34.59999990463257","2","0","1","2","0.8,0.2,0.2,0.2,0.8,0.2,0.2,0.2,0.8","0.8,0.2,0.2,0.2,0.8,0.2,0.2,0.2,0.8","1","",""
"","html-keyboard-response","279","88891","0.0-279.0","31N2WW6R9SCYSNVYKK5MUXAMCCWF3Z","A31P9Z3VBQM1PB","3XT3KXP24ZKFDDMCDS43FE3AU9W6IW","","null","<img src=""img/land6.png"" style=""width:200px;border:14px solid red;"">","null","","","","","","","","","",""
"","image-keyboard-response","280","88949","0.0-280.0","31N2WW6R9SCYSNVYKK5MUXAMCCWF3Z","A31P9Z3VBQM1PB","3XT3KXP24ZKFDDMCDS43FE3AU9W6IW","","57.69999980926514","img/land6.png","74","58.40000009536743","1","0","1","2","0.8,0.2,0.2,0.2,0.8,0.2,0.2,0.2,0.8","0.8,0.2,0.2,0.2,0.8,0.2,0.2,0.2,0.8","1","",""
"","html-keyboard-response","281","89250","0.0-281.0","31N2WW6R9SCYSNVYKK5MUXAMCCWF3Z","A31P9Z3VBQM1PB","3XT3KXP24ZKFDDMCDS43FE3AU9W6IW","","null","<img src=""img/land6.png"" style=""width:200px;border:14px solid red;"">","null","","","","","","","","","",""
"","image-keyboard-response","282","89253","0.0-282.0","31N2WW6R9SCYSNVYKK5MUXAMCCWF3Z","A31P9Z3VBQM1PB","3XT3KXP24ZKFDDMCDS43FE3AU9W6IW","","2.299999952316284","img/land6.png","74","2.799999952316284","1","1","1","2","0.8,0.2,0.2,0.2,0.8,0.2,0.2,0.2,0.8","0.8,0.2,0.2,0.2,0.8,0.2,0.2,0.2,0.8","1","",""
"","html-keyboard-response","283","89554","0.0-283.0","31N2WW6R9SCYSNVYKK5MUXAMCCWF3Z","A31P9Z3VBQM1PB","3XT3KXP24ZKFDDMCDS43FE3AU9W6IW","","null","<img src=""img/land6.png"" style=""width:200px; border:14px solid green;"">","null","","","","","","","","","",""
"","image-keyboard-response","284","89581","0.0-284.0","31N2WW6R9SCYSNVYKK5MUXAMCCWF3Z","A31P9Z3VBQM1PB","3XT3KXP24ZKFDDMCDS43FE3AU9W6IW","","26.299999952316284","img/land6.png","74","26.799999952316284","1","1","1","2","0.8,0.2,0.2,0.2,0.8,0.2,0.2,0.2,0.8","0.8,0.2,0.2,0.2,0.8,0.2,0.2,0.2,0.8","1","",""
"","html-keyboard-response","285","89882","0.0-285.0","31N2WW6R9SCYSNVYKK5MUXAMCCWF3Z","A31P9Z3VBQM1PB","3XT3KXP24ZKFDDMCDS43FE3AU9W6IW","","null","<img src=""img/land6.png"" style=""width:200px; border:14px solid green;"">","null","","","","","","","","","",""
"","image-keyboard-response","286","89909","0.0-286.0","31N2WW6R9SCYSNVYKK5MUXAMCCWF3Z","A31P9Z3VBQM1PB","3XT3KXP24ZKFDDMCDS43FE3AU9W6IW","","26","img/land6.png","74","26.5","1","1","1","2","0.8,0.2,0.2,0.2,0.8,0.2,0.2,0.2,0.8","0.8,0.2,0.2,0.2,0.8,0.2,0.2,0.2,0.8","1","",""
"","html-keyboard-response","287","90210","0.0-287.0","31N2WW6R9SCYSNVYKK5MUXAMCCWF3Z","A31P9Z3VBQM1PB","3XT3KXP24ZKFDDMCDS43FE3AU9W6IW","","null","<img src=""img/land6.png"" style=""width:200px; border:14px solid green;"">","null","","","","","","","","","",""
"","image-keyboard-response","288","90245","0.0-288.0","31N2WW6R9SCYSNVYKK5MUXAMCCWF3Z","A31P9Z3VBQM1PB","3XT3KXP24ZKFDDMCDS43FE3AU9W6IW","","34.19999980926514","img/land2.png","74","34.60000014305115","1","0","2","2","0.8,0.2,0.2,0.2,0.8,0.2,0.2,0.2,0.8","0.8,0.2,0.2,0.2,0.8,0.2,0.2,0.2,0.8","1","",""
"","html-keyboard-response","289","90546","0.0-289.0","31N2WW6R9SCYSNVYKK5MUXAMCCWF3Z","A31P9Z3VBQM1PB","3XT3KXP24ZKFDDMCDS43FE3AU9W6IW","","null","<img src=""img/land2.png"" style=""width:200px;border:14px solid red;"">","null","","","","","","","","","",""
"","image-keyboard-response","290","90557","0.0-290.0","31N2WW6R9SCYSNVYKK5MUXAMCCWF3Z","A31P9Z3VBQM1PB","3XT3KXP24ZKFDDMCDS43FE3AU9W6IW","","10.400000095367432","img/land3.png","74","11","1","1","3","2","0.8,0.2,0.2,0.2,0.8,0.2,0.2,0.2,0.8","0.8,0.2,0.2,0.2,0.8,0.2,0.2,0.2,0.8","1","",""
"","html-keyboard-response","291","90862","0.0-291.0","31N2WW6R9SCYSNVYKK5MUXAMCCWF3Z","A31P9Z3VBQM1PB","3XT3KXP24ZKFDDMCDS43FE3AU9W6IW","","null","<img src=""img/land3.png"" style=""width:200px; border:14px solid green;"">","null","","","","","","","","","",""
"","image-keyboard-response","292","90909","0.0-292.0","31N2WW6R9SCYSNVYKK5MUXAMCCWF3Z","A31P9Z3VBQM1PB","3XT3KXP24ZKFDDMCDS43FE3AU9W6IW","","46.5","img/land6.png","75","47","2","0","1","2","0.8,0.2,0.2,0.2,0.8,0.2,0.2,0.2,0.8","0.8,0.2,0.2,0.2,0.8,0.2,0.2,0.2,0.8","1","",""
"","html-keyboard-response","293","91210","0.0-293.0","31N2WW6R9SCYSNVYKK5MUXAMCCWF3Z","A31P9Z3VBQM1PB","3XT3KXP24ZKFDDMCDS43FE3AU9W6IW","","null","<img src=""img/land6.png"" style=""width:200px;border:14px solid red;"">","null","","","","","","","","","",""
"","image-keyboard-response","294","91485","0.0-294.0","31N2WW6R9SCYSNVYKK5MUXAMCCWF3Z","A31P9Z3VBQM1PB","3XT3KXP24ZKFDDMCDS43FE3AU9W6IW","","274.2000000476837","img/land6.png","75","274.7000000476837","2","0","1","2","0.8,0.2,0.2,0.2,0.8,0.2,0.2,0.2,0.8","0.8,0.2,0.2,0.2,0.8,0.2,0.2,0.2,0.8","1","",""
"","html-keyboard-response","295","91787","0.0-295.0","31N2WW6R9SCYSNVYKK5MUXAMCCWF3Z","A31P9Z3VBQM1PB","3XT3KXP24ZKFDDMCDS43FE3AU9W6IW","","null","<img src=""img/land6.png"" style=""width:200px;border:14px solid red;"">","null","","","","","","","","","",""
"","image-keyboard-response","296","92037","0.0-296.0","31N2WW6R9SCYSNVYKK5MUXAMCCWF3Z","A31P9Z3VBQM1PB","3XT3KXP24ZKFDDMCDS43FE3AU9W6IW","","249.79999995231628","img/land6.png","74","250.29999995231628","1","0","1","2","0.8,0.2,0.2,0.2,0.8,0.2,0.2,0.2,0.8","0.8,0.2,0.2,0.2,0.8,0.2,0.2,0.2,0.8","1","",""
"","html-keyboard-response","297","92338","0.0-297.0","31N2WW6R9SCYSNVYKK5MUXAMCCWF3Z","A31P9Z3VBQM1PB","3XT3KXP24ZKFDDMCDS43FE3AU9W6IW","","null","<img src=""img/land6.png"" style=""width:200px;border:14px solid red;"">","null","","","","","","","","","",""
"","image-keyboard-response","298","92645","0.0-298.0","31N2WW6R9SCYSNVYKK5MUXAMCCWF3Z","A31P9Z3VBQM1PB","3XT3KXP24ZKFDDMCDS43FE3AU9W6IW","","305.69999980926514","img/land2.png","74","306.2000000476837","1","0","2","2","0.8,0.2,0.2,0.2,0.8,0.2,0.2,0.2,0.8","0.8,0.2,0.2,0.2,0.8,0.2,0.2,0.2,0.8","1","",""
"","html-keyboard-response","299","92947","0.0-299.0","31N2WW6R9SCYSNVYKK5MUXAMCCWF3Z","A31P9Z3VBQM1PB","3XT3KXP24ZKFDDMCDS43FE3AU9W6IW","","null","<img src=""img/land2.png"" style=""width:200px;border:14px solid red;"">","null","","","","","","","","","",""
"","image-keyboard-response","300","92973","0.0-300.0","31N2WW6R9SCYSNVYKK5MUXAMCCWF3Z","A31P9Z3VBQM1PB","3XT3KXP24ZKFDDMCDS43FE3AU9W6IW","","25.199999809265137","img/land6.png","74","25.899999856948853","1","1","1","2","0.8,0.2,0.2,0.2,0.8,0.2,0.2,0.2,0.8","0.8,0.2,0.2,0.2,0.8,0.2,0.2,0.2,0.8","1","",""
"","html-keyboard-response","301","93275","0.0-301.0","31N2WW6R9SCYSNVYKK5MUXAMCCWF3Z","A31P9Z3VBQM1PB","3XT3KXP24ZKFDDMCDS43FE3AU9W6IW","","null","<img src=""img/land6.png"" style=""width:200px; border:14px solid green;"">","null","","","","","","","","","",""
"","image-keyboard-response","302","93293","0.0-302.0","31N2WW6R9SCYSNVYKK5MUXAMCCWF3Z","A31P9Z3VBQM1PB","3XT3KXP24ZKFDDMCDS43FE3AU9W6IW","","17.100000143051147","img/land1.png","74","17.700000047683716","1","1","2","1","0.8,0.2,0.2,0.2,0.8,0.2,0.2,0.2,0.8","0.8,0.2,0.2,0.2,0.8,0.2,0.2,0.2,0.8","1","",""
"","html-keyboard-response","303","93594","0.0-303.0","31N2WW6R9SCYSNVYKK5MUXAMCCWF3Z","A31P9Z3VBQM1PB","3XT3KXP24ZKFDDMCDS43FE3AU9W6IW","","null","<img src=""img/land1.png"" style=""width:200px; border:14px solid green;"">","null","","","","","","","","","",""
"","image-keyboard-response","304","93629","0.0-304.0","31N2WW6R9SCYSNVYKK5MUXAMCCWF3Z","A31P9Z3VBQM1PB","3XT3KXP24ZKFDDMCDS43FE3AU9W6IW","","33.799999952316284","img/land4.png","74","34.40000009536743","1","1","1","1","0.8,0.2,0.2,0.2,0.8,0.2,0.2,0.2,0.8","0.8,0.2,0.2,0.2,0.8,0.2,0.2,0.2,0.8","1","",""
"","html-keyboard-response","305","93931","0.0-305.0","31N2WW6R9SCYSNVYKK5MUXAMCCWF3Z","A31P9Z3VBQM1PB","3XT3KXP24ZKFDDMCDS43FE3AU9W6IW","","null","<img src=""img/land4.png"" style=""width:200px; border:14px solid green;"">","null","","","","","","","","","",""
"","image-keyboard-response","306","93933","0.0-306.0","31N2WW6R9SCYSNVYKK5MUXAMCCWF3Z","A31P9Z3VBQM1PB","3XT3KXP24ZKFDDMCDS43FE3AU9W6IW","","1.6000001430511475","img/land5.png","74","2","1","0","3","1","0.8,0.2,0.2,0.2,0.8,0.2,0.2,0.2,0.8","0.8,0.2,0.2,0.2,0.8,0.2,0.2,0.2,0.8","1","",""
"","html-keyboard-response","307","94234","0.0-307.0","31N2WW6R9SCYSNVYKK5MUXAMCCWF3Z","A31P9Z3VBQM1PB","3XT3KXP24ZKFDDMCDS43FE3AU9W6IW","","null","<img src=""img/land5.png"" style=""width:200px;border:14px solid red;"">","null","","","","","","","","","",""
"","image-keyboard-response","308","94509","0.0-308.0","31N2WW6R9SCYSNVYKK5MUXAMCCWF3Z","A31P9Z3VBQM1PB","3XT3KXP24ZKFDDMCDS43FE3AU9W6IW","","274.7999999523163","img/land4.png","74","275.30000019073486","1","1","1","1","0.8,0.2,0.2,0.2,0.8,0.2,0.2,0.2,0.8","0.8,0.2,0.2,0.2,0.8,0.2,0.2,0.2,0.8","1","",""
"","html-keyboard-response","309","94810","0.0-309.0","31N2WW6R9SCYSNVYKK5MUXAMCCWF3Z","A31P9Z3VBQM1PB","3XT3KXP24ZKFDDMCDS43FE3AU9W6IW","","null","<img src=""img/land4.png"" style=""width:200px; border:14px solid green;"">","null","","","","","","","","","",""
"","image-keyboard-response","310","94845","0.0-310.0","31N2WW6R9SCYSNVYKK5MUXAMCCWF3Z","A31P9Z3VBQM1PB","3XT3KXP24ZKFDDMCDS43FE3AU9W6IW","","34.5","img/land1.png","74","34.90000009536743","1","0","2","1","0.8,0.2,0.2,0.2,0.8,0.2,0.2,0.2,0.8","0.8,0.2,0.2,0.2,0.8,0.2,0.2,0.2,0.8","1","",""
"","html-keyboard-response","311","95147","0.0-311.0","31N2WW6R9SCYSNVYKK5MUXAMCCWF3Z","A31P9Z3VBQM1PB","3XT3KXP24ZKFDDMCDS43FE3AU9W6IW","","null","<img src=""img/land1.png"" style=""width:200px;border:14px solid red;"">","null","","","","","","","","","",""
"","image-keyboard-response","312","95181","0.0-312.0","31N2WW6R9SCYSNVYKK5MUXAMCCWF3Z","A31P9Z3VBQM1PB","3XT3KXP24ZKFDDMCDS43FE3AU9W6IW","","33","img/land5.png","74","33.40000009536743","1","0","3","1","0.8,0.2,0.2,0.2,0.8,0.2,0.2,0.2,0.8","0.8,0.2,0.2,0.2,0.8,0.2,0.2,0.2,0.8","1","",""
"","html-keyboard-response","313","95482","0.0-313.0","31N2WW6R9SCYSNVYKK5MUXAMCCWF3Z","A31P9Z3VBQM1PB","3XT3KXP24ZKFDDMCDS43FE3AU9W6IW","","null","<img src=""img/land5.png"" style=""width:200px;border:14px solid red;"">","null","","","","","","","","","",""
"","image-keyboard-response","314","95509","0.0-314.0","31N2WW6R9SCYSNVYKK5MUXAMCCWF3Z","A31P9Z3VBQM1PB","3XT3KXP24ZKFDDMCDS43FE3AU9W6IW","","26.09999990463257","img/land4.png","74","26.700000047683716","1","1","1","1","0.8,0.2,0.2,0.2,0.8,0.2,0.2,0.2,0.8","0.8,0.2,0.2,0.2,0.8,0.2,0.2,0.2,0.8","1","",""
"","html-keyboard-response","315","95811","0.0-315.0","31N2WW6R9SCYSNVYKK5MUXAMCCWF3Z","A31P9Z3VBQM1PB","3XT3KXP24ZKFDDMCDS43FE3AU9W6IW","","null","<img src=""img/land4.png"" style=""width:200px; border:14px solid green;"">","null","","","","","","","","","",""
"","image-keyboard-response","316","95869","0.0-316.0","31N2WW6R9SCYSNVYKK5MUXAMCCWF3Z","A31P9Z3VBQM1PB","3XT3KXP24ZKFDDMCDS43FE3AU9W6IW","","57.40000009536743","img/land4.png","74","57.90000009536743","1","1","1","1","0.8,0.2,0.2,0.2,0.8,0.2,0.2,0.2,0.8","0.8,0.2,0.2,0.2,0.8,0.2,0.2,0.2,0.8","1","",""
"","html-keyboard-response","317","96170","0.0-317.0","31N2WW6R9SCYSNVYKK5MUXAMCCWF3Z","A31P9Z3VBQM1PB","3XT3KXP24ZKFDDMCDS43FE3AU9W6IW","","null","<img src=""img/land4.png"" style=""width:200px; border:14px solid green;"">","null","","","","","","","","","",""
"","image-keyboard-response","318","96213","0.0-318.0","31N2WW6R9SCYSNVYKK5MUXAMCCWF3Z","A31P9Z3VBQM1PB","3XT3KXP24ZKFDDMCDS43FE3AU9W6IW","","41.90000009536743","img/land5.png","74","42.39999985694885","1","0","3","1","0.8,0.2,0.2,0.2,0.8,0.2,0.2,0.2,0.8","0.8,0.2,0.2,0.2,0.8,0.2,0.2,0.2,0.8","1","",""
"","html-keyboard-response","319","96515","0.0-319.0","31N2WW6R9SCYSNVYKK5MUXAMCCWF3Z","A31P9Z3VBQM1PB","3XT3KXP24ZKFDDMCDS43FE3AU9W6IW","","null","<img src=""img/land5.png"" style=""width:200px;border:14px solid red;"">","null","","","","","","","","","",""
"","image-keyboard-response","320","96589","0.0-320.0","31N2WW6R9SCYSNVYKK5MUXAMCCWF3Z","A31P9Z3VBQM1PB","3XT3KXP24ZKFDDMCDS43FE3AU9W6IW","","73","img/land1.png","74","73.5","1","1","2","1","0.8,0.2,0.2,0.2,0.8,0.2,0.2,0.2,0.8","0.8,0.2,0.2,0.2,0.8,0.2,0.2,0.2,0.8","1","",""
"","html-keyboard-response","321","96890","0.0-321.0","31N2WW6R9SCYSNVYKK5MUXAMCCWF3Z","A31P9Z3VBQM1PB","3XT3KXP24ZKFDDMCDS43FE3AU9W6IW","","null","<img src=""img/land1.png"" style=""width:200px; border:14px solid green;"">","null","","","","","","","","","",""
"","image-keyboard-response","322","96965","0.0-322.0","31N2WW6R9SCYSNVYKK5MUXAMCCWF3Z","A31P9Z3VBQM1PB","3XT3KXP24ZKFDDMCDS43FE3AU9W6IW","","74.40000009536743","img/land5.png","74","74.89999985694885","1","0","3","1","0.8,0.2,0.2,0.2,0.8,0.2,0.2,0.2,0.8","0.8,0.2,0.2,0.2,0.8,0.2,0.2,0.2,0.8","1","",""
"","html-keyboard-response","323","97267","0.0-323.0","31N2WW6R9SCYSNVYKK5MUXAMCCWF3Z","A31P9Z3VBQM1PB","3XT3KXP24ZKFDDMCDS43FE3AU9W6IW","","null","<img src=""img/land5.png"" style=""width:200px;border:14px solid red;"">","null","","","","","","","","","",""
"","image-keyboard-response","324","97325","0.0-324.0","31N2WW6R9SCYSNVYKK5MUXAMCCWF3Z","A31P9Z3VBQM1PB","3XT3KXP24ZKFDDMCDS43FE3AU9W6IW","","57.60000014305115","img/land5.png","74","58.09999990463257","1","0","3","1","0.8,0.2,0.2,0.2,0.8,0.2,0.2,0.2,0.8","0.8,0.2,0.2,0.2,0.8,0.2,0.2,0.2,0.8","1","",""
"","html-keyboard-response","325","97627","0.0-325.0","31N2WW6R9SCYSNVYKK5MUXAMCCWF3Z","A31P9Z3VBQM1PB","3XT3KXP24ZKFDDMCDS43FE3AU9W6IW","","null","<img src=""img/land5.png"" style=""width:200px;border:14px solid red;"">","null","","","","","","","","","",""
"","image-keyboard-response","326","97677","0.0-326.0","31N2WW6R9SCYSNVYKK5MUXAMCCWF3Z","A31P9Z3VBQM1PB","3XT3KXP24ZKFDDMCDS43FE3AU9W6IW","","49.200000047683716","img/land5.png","74","49.90000009536743","1","0","3","1","0.8,0.2,0.2,0.2,0.8,0.2,0.2,0.2,0.8","0.8,0.2,0.2,0.2,0.8,0.2,0.2,0.2,0.8","1","",""
"","html-keyboard-response","327","97979","0.0-327.0","31N2WW6R9SCYSNVYKK5MUXAMCCWF3Z","A31P9Z3VBQM1PB","3XT3KXP24ZKFDDMCDS43FE3AU9W6IW","","null","<img src=""img/land5.png"" style=""width:200px;border:14px solid red;"">","null","","","","","","","","","",""
"","image-keyboard-response","328","98029","0.0-328.0","31N2WW6R9SCYSNVYKK5MUXAMCCWF3Z","A31P9Z3VBQM1PB","3XT3KXP24ZKFDDMCDS43FE3AU9W6IW","","49.5","img/land5.png","74","49.89999985694885","1","0","3","1","0.8,0.2,0.2,0.2,0.8,0.2,0.2,0.2,0.8","0.8,0.2,0.2,0.2,0.8,0.2,0.2,0.2,0.8","1","",""
"","html-keyboard-response","329","98330","0.0-329.0","31N2WW6R9SCYSNVYKK5MUXAMCCWF3Z","A31P9Z3VBQM1PB","3XT3KXP24ZKFDDMCDS43FE3AU9W6IW","","null","<img src=""img/land5.png"" style=""width:200px;border:14px solid red;"">","null","","","","","","","","","",""
"","image-keyboard-response","330","98382","0.0-330.0","31N2WW6R9SCYSNVYKK5MUXAMCCWF3Z","A31P9Z3VBQM1PB","3XT3KXP24ZKFDDMCDS43FE3AU9W6IW","","50.799999952316284","img/land5.png","74","51.200000047683716","1","0","3","1","0.8,0.2,0.2,0.2,0.8,0.2,0.2,0.2,0.8","0.8,0.2,0.2,0.2,0.8,0.2,0.2,0.2,0.8","1","",""
"","html-keyboard-response","331","98683","0.0-331.0","31N2WW6R9SCYSNVYKK5MUXAMCCWF3Z","A31P9Z3VBQM1PB","3XT3KXP24ZKFDDMCDS43FE3AU9W6IW","","null","<img src=""img/land5.png"" style=""width:200px;border:14px solid red;"">","null","","","","","","","","","",""
"","image-keyboard-response","332","98733","0.0-332.0","31N2WW6R9SCYSNVYKK5MUXAMCCWF3Z","A31P9Z3VBQM1PB","3XT3KXP24ZKFDDMCDS43FE3AU9W6IW","","49.60000014305115","img/land4.png","74","50.09999990463257","1","1","1","1","0.8,0.2,0.2,0.2,0.8,0.2,0.2,0.2,0.8","0.8,0.2,0.2,0.2,0.8,0.2,0.2,0.2,0.8","1","",""
"","html-keyboard-response","333","99035","0.0-333.0","31N2WW6R9SCYSNVYKK5MUXAMCCWF3Z","A31P9Z3VBQM1PB","3XT3KXP24ZKFDDMCDS43FE3AU9W6IW","","null","<img src=""img/land4.png"" style=""width:200px; border:14px solid green;"">","null","","","","","","","","","",""
"","image-keyboard-response","334","99141","0.0-334.0","31N2WW6R9SCYSNVYKK5MUXAMCCWF3Z","A31P9Z3VBQM1PB","3XT3KXP24ZKFDDMCDS43FE3AU9W6IW","","105.40000009536743","img/land1.png","75","106.10000014305115","2","1","2","1","0.8,0.2,0.2,0.2,0.8,0.2,0.2,0.2,0.8","0.8,0.2,0.2,0.2,0.8,0.2,0.2,0.2,0.8","1","",""
"","html-keyboard-response","335","99443","0.0-335.0","31N2WW6R9SCYSNVYKK5MUXAMCCWF3Z","A31P9Z3VBQM1PB","3XT3KXP24ZKFDDMCDS43FE3AU9W6IW","","null","<img src=""img/land1.png"" style=""width:200px; border:14px solid green;"">","null","","","","","","","","","",""
"","image-keyboard-response","336","99493","0.0-336.0","31N2WW6R9SCYSNVYKK5MUXAMCCWF3Z","A31P9Z3VBQM1PB","3XT3KXP24ZKFDDMCDS43FE3AU9W6IW","","49.10000014305115","img/land4.png","75","49.60000014305115","2","1","1","1","0.8,0.2,0.2,0.2,0.8,0.2,0.2,0.2,0.8","0.8,0.2,0.2,0.2,0.8,0.2,0.2,0.2,0.8","1","",""
"","html-keyboard-response","337","99794","0.0-337.0","31N2WW6R9SCYSNVYKK5MUXAMCCWF3Z","A31P9Z3VBQM1PB","3XT3KXP24ZKFDDMCDS43FE3AU9W6IW","","null","<img src=""img/land4.png"" style=""width:200px; border:14px solid green;"">","null","","","","","","","","","",""
"","image-keyboard-response","338","99805","0.0-338.0","31N2WW6R9SCYSNVYKK5MUXAMCCWF3Z","A31P9Z3VBQM1PB","3XT3KXP24ZKFDDMCDS43FE3AU9W6IW","","10","img/land5.png","75","10.399999856948853","2","0","3","1","0.8,0.2,0.2,0.2,0.8,0.2,0.2,0.2,0.8","0.8,0.2,0.2,0.2,0.8,0.2,0.2,0.2,0.8","1","",""
"","html-keyboard-response","339","100106","0.0-339.0","31N2WW6R9SCYSNVYKK5MUXAMCCWF3Z","A31P9Z3VBQM1PB","3XT3KXP24ZKFDDMCDS43FE3AU9W6IW","","null","<img src=""img/land5.png"" style=""width:200px;border:14px solid red;"">","null","","","","","","","","","",""
"","image-keyboard-response","340","100221","0.0-340.0","31N2WW6R9SCYSNVYKK5MUXAMCCWF3Z","A31P9Z3VBQM1PB","3XT3KXP24ZKFDDMCDS43FE3AU9W6IW","","113.79999995231628","img/land4.png","75","114.5","2","0","1","1","0.8,0.2,0.2,0.2,0.8,0.2,0.2,0.2,0.8","0.8,0.2,0.2,0.2,0.8,0.2,0.2,0.2,0.8","1","",""
"","html-keyboard-response","341","100522","0.0-341.0","31N2WW6R9SCYSNVYKK5MUXAMCCWF3Z","A31P9Z3VBQM1PB","3XT3KXP24ZKFDDMCDS43FE3AU9W6IW","","null","<img src=""img/land4.png"" style=""width:200px;border:14px solid red;"">","null","","","","","","","","","",""
"","image-keyboard-response","342","100613","0.0-342.0","31N2WW6R9SCYSNVYKK5MUXAMCCWF3Z","A31P9Z3VBQM1PB","3XT3KXP24ZKFDDMCDS43FE3AU9W6IW","","90.20000004768372","img/land4.png","76","90.70000004768372","3","0","1","1","0.8,0.2,0.2,0.2,0.8,0.2,0.2,0.2,0.8","0.8,0.2,0.2,0.2,0.8,0.2,0.2,0.2,0.8","1","",""
"","html-keyboard-response","343","100914","0.0-343.0","31N2WW6R9SCYSNVYKK5MUXAMCCWF3Z","A31P9Z3VBQM1PB","3XT3KXP24ZKFDDMCDS43FE3AU9W6IW","","null","<img src=""img/land4.png"" style=""width:200px;border:14px solid red;"">","null","","","","","","","","","",""
"","image-keyboard-response","344","100933","0.0-344.0","31N2WW6R9SCYSNVYKK5MUXAMCCWF3Z","A31P9Z3VBQM1PB","3XT3KXP24ZKFDDMCDS43FE3AU9W6IW","","18","img/land4.png","76","18.5","3","0","1","1","0.8,0.2,0.2,0.2,0.8,0.2,0.2,0.2,0.8","0.8,0.2,0.2,0.2,0.8,0.2,0.2,0.2,0.8","1","",""
"","html-keyboard-response","345","101234","0.0-345.0","31N2WW6R9SCYSNVYKK5MUXAMCCWF3Z","A31P9Z3VBQM1PB","3XT3KXP24ZKFDDMCDS43FE3AU9W6IW","","null","<img src=""img/land4.png"" style=""width:200px;border:14px solid red;"">","null","","","","","","","","","",""
"","image-keyboard-response","346","101293","0.0-346.0","31N2WW6R9SCYSNVYKK5MUXAMCCWF3Z","A31P9Z3VBQM1PB","3XT3KXP24ZKFDDMCDS43FE3AU9W6IW","","58.60000014305115","img/land4.png","76","59.200000047683716","3","0","1","1","0.8,0.2,0.2,0.2,0.8,0.2,0.2,0.2,0.8","0.8,0.2,0.2,0.2,0.8,0.2,0.2,0.2,0.8","1","",""
"","html-keyboard-response","347","101594","0.0-347.0","31N2WW6R9SCYSNVYKK5MUXAMCCWF3Z","A31P9Z3VBQM1PB","3XT3KXP24ZKFDDMCDS43FE3AU9W6IW","","null","<img src=""img/land4.png"" style=""width:200px;border:14px solid red;"">","null","","","","","","","","","",""
"","image-keyboard-response","348","101869","0.0-348.0","31N2WW6R9SCYSNVYKK5MUXAMCCWF3Z","A31P9Z3VBQM1PB","3XT3KXP24ZKFDDMCDS43FE3AU9W6IW","","274.69999980926514","img/land4.png","75","275.2000000476837","2","1","1","1","0.8,0.2,0.2,0.2,0.8,0.2,0.2,0.2,0.8","0.8,0.2,0.2,0.2,0.8,0.2,0.2,0.2,0.8","1","",""
"","html-keyboard-response","349","102170","0.0-349.0","31N2WW6R9SCYSNVYKK5MUXAMCCWF3Z","A31P9Z3VBQM1PB","3XT3KXP24ZKFDDMCDS43FE3AU9W6IW","","null","<img src=""img/land4.png"" style=""width:200px; border:14px solid green;"">","null","","","","","","","","","",""
"","image-keyboard-response","350","102189","0.0-350.0","31N2WW6R9SCYSNVYKK5MUXAMCCWF3Z","A31P9Z3VBQM1PB","3XT3KXP24ZKFDDMCDS43FE3AU9W6IW","","18.100000143051147","img/land4.png","75","18.700000047683716","2","0","1","1","0.8,0.2,0.2,0.2,0.8,0.2,0.2,0.2,0.8","0.8,0.2,0.2,0.2,0.8,0.2,0.2,0.2,0.8","1","",""
"","html-keyboard-response","351","102490","0.0-351.0","31N2WW6R9SCYSNVYKK5MUXAMCCWF3Z","A31P9Z3VBQM1PB","3XT3KXP24ZKFDDMCDS43FE3AU9W6IW","","null","<img src=""img/land4.png"" style=""width:200px;border:14px solid red;"">","null","","","","","","","","","",""
"","image-keyboard-response","352","102525","0.0-352.0","31N2WW6R9SCYSNVYKK5MUXAMCCWF3Z","A31P9Z3VBQM1PB","3XT3KXP24ZKFDDMCDS43FE3AU9W6IW","","34.59999990463257","img/land4.png","75","35.09999990463257","2","0","1","1","0.8,0.2,0.2,0.2,0.8,0.2,0.2,0.2,0.8","0.8,0.2,0.2,0.2,0.8,0.2,0.2,0.2,0.8","1","",""
"","html-keyboard-response","353","102826","0.0-353.0","31N2WW6R9SCYSNVYKK5MUXAMCCWF3Z","A31P9Z3VBQM1PB","3XT3KXP24ZKFDDMCDS43FE3AU9W6IW","","null","<img src=""img/land4.png"" style=""width:200px;border:14px solid red;"">","null","","","","","","","","","",""
"","image-keyboard-response","354","103029","0.0-354.0","31N2WW6R9SCYSNVYKK5MUXAMCCWF3Z","A31P9Z3VBQM1PB","3XT3KXP24ZKFDDMCDS43FE3AU9W6IW","","201.90000009536743","img/land4.png","75","202.29999995231628","2","0","1","1","0.8,0.2,0.2,0.2,0.8,0.2,0.2,0.2,0.8","0.8,0.2,0.2,0.2,0.8,0.2,0.2,0.2,0.8","1","",""
"","html-keyboard-response","355","103330","0.0-355.0","31N2WW6R9SCYSNVYKK5MUXAMCCWF3Z","A31P9Z3VBQM1PB","3XT3KXP24ZKFDDMCDS43FE3AU9W6IW","","null","<img src=""img/land4.png"" style=""width:200px;border:14px solid red;"">","null","","","","","","","","","",""
