"success","trial_type","trial_index","time_elapsed","internal_node_id","assignmentID","mturkID","hitID","view_history","rt","stimulus","key_press","reactionTime","a","r","warning","s","reward_cond","responses","question_order"
"true","fullscreen","0","2076","0.0-0.0","39U1BHVTDMD8BSDZF4ABB1PN0H5T3B","A324M5ZRHX7RUV","3UAU495MIIEABANG75FBFHDC9WUUOI","","","","","","","","","","","",""
"","instructions","1","11972","0.0-1.0","39U1BHVTDMD8BSDZF4ABB1PN0H5T3B","A324M5ZRHX7RUV","3UAU495MIIEABANG75FBFHDC9WUUOI","[{""page_index"":0,""viewing_time"":3349.8000000715256},{""page_index"":1,""viewing_time"":811.1000000238419},{""page_index"":2,""viewing_time"":382.59999990463257},{""page_index"":3,""viewing_time"":371.40000009536743},{""page_index"":4,""viewing_time"":1135.2999999523163},{""page_index"":5,""viewing_time"":1378.3999999761581},{""page_index"":6,""viewing_time"":733.3999999761581},{""page_index"":7,""viewing_time"":1731.6000000238419}]","9894.5","","","","","","","","","",""
"","image-keyboard-response","2","12982","0.0-2.0","39U1BHVTDMD8BSDZF4ABB1PN0H5T3B","A324M5ZRHX7RUV","3UAU495MIIEABANG75FBFHDC9WUUOI","","","img/land5.png","","1010.2000000476837","-1","0","true","1","1,0.5,0.5,0.5,1,0.5,0.5,0.5,1","",""
"","html-keyboard-response","3","13294","0.0-3.0","39U1BHVTDMD8BSDZF4ABB1PN0H5T3B","A324M5ZRHX7RUV","3UAU495MIIEABANG75FBFHDC9WUUOI","","null","<img src=""img/land5.png"" style=""width:200px;border:14px solid red;"">","null","","","","","","","",""
"","html-keyboard-response","4","17864","0.0-4.0-0.0","39U1BHVTDMD8BSDZF4ABB1PN0H5T3B","A324M5ZRHX7RUV","3UAU495MIIEABANG75FBFHDC9WUUOI","","","","","","","","","","","",""
"","image-keyboard-response","5","18845","0.0-5.0","39U1BHVTDMD8BSDZF4ABB1PN0H5T3B","A324M5ZRHX7RUV","3UAU495MIIEABANG75FBFHDC9WUUOI","","979.6000000238419","img/land6.png","75","980.6000000238419","2","1","false","3","1,0.5,0.5,0.5,1,0.5,0.5,0.5,1","",""
"","html-keyboard-response","6","19161","0.0-6.0","39U1BHVTDMD8BSDZF4ABB1PN0H5T3B","A324M5ZRHX7RUV","3UAU495MIIEABANG75FBFHDC9WUUOI","","null","<img src=""img/land6.png"" style=""width:200px; border:14px solid green;"">","null","","","","","","","",""
"","image-keyboard-response","7","19655","0.0-8.0","39U1BHVTDMD8BSDZF4ABB1PN0H5T3B","A324M5ZRHX7RUV","3UAU495MIIEABANG75FBFHDC9WUUOI","","493","img/land6.png","75","493.6999999284744","2","0","false","3","1,0.5,0.5,0.5,1,0.5,0.5,0.5,1","",""
"","html-keyboard-response","8","19959","0.0-9.0","39U1BHVTDMD8BSDZF4ABB1PN0H5T3B","A324M5ZRHX7RUV","3UAU495MIIEABANG75FBFHDC9WUUOI","","null","<img src=""img/land6.png"" style=""width:200px;border:14px solid red;"">","null","","","","","","","",""
"","image-keyboard-response","9","20486","0.0-11.0","39U1BHVTDMD8BSDZF4ABB1PN0H5T3B","A324M5ZRHX7RUV","3UAU495MIIEABANG75FBFHDC9WUUOI","","526.1000000238419","img/land3.png","74","527","1","1","false","2","1,0.5,0.5,0.5,1,0.5,0.5,0.5,1","",""
"","html-keyboard-response","10","20800","0.0-12.0","39U1BHVTDMD8BSDZF4ABB1PN0H5T3B","A324M5ZRHX7RUV","3UAU495MIIEABANG75FBFHDC9WUUOI","","null","<img src=""img/land3.png"" style=""width:200px; border:14px solid green;"">","null","","","","","","","",""
"","image-keyboard-response","11","21348","0.0-14.0","39U1BHVTDMD8BSDZF4ABB1PN0H5T3B","A324M5ZRHX7RUV","3UAU495MIIEABANG75FBFHDC9WUUOI","","545.2999999523163","img/land6.png","75","546.3999999761581","2","1","false","3","1,0.5,0.5,0.5,1,0.5,0.5,0.5,1","",""
"","html-keyboard-response","12","21661","0.0-15.0","39U1BHVTDMD8BSDZF4ABB1PN0H5T3B","A324M5ZRHX7RUV","3UAU495MIIEABANG75FBFHDC9WUUOI","","null","<img src=""img/land6.png"" style=""width:200px; border:14px solid green;"">","null","","","","","","","",""
"","image-keyboard-response","13","22359","0.0-17.0","39U1BHVTDMD8BSDZF4ABB1PN0H5T3B","A324M5ZRHX7RUV","3UAU495MIIEABANG75FBFHDC9WUUOI","","696.7000000476837","img/land5.png","75","697.3999999761581","2","1","false","1","1,0.5,0.5,0.5,1,0.5,0.5,0.5,1","",""
"","html-keyboard-response","14","22675","0.0-18.0","39U1BHVTDMD8BSDZF4ABB1PN0H5T3B","A324M5ZRHX7RUV","3UAU495MIIEABANG75FBFHDC9WUUOI","","null","<img src=""img/land5.png"" style=""width:200px; border:14px solid green;"">","null","","","","","","","",""
"","image-keyboard-response","15","23380","0.0-20.0","39U1BHVTDMD8BSDZF4ABB1PN0H5T3B","A324M5ZRHX7RUV","3UAU495MIIEABANG75FBFHDC9WUUOI","","704.0999999046326","img/land6.png","74","704.7000000476837","1","0","false","3","1,0.5,0.5,0.5,1,0.5,0.5,0.5,1","",""
"","html-keyboard-response","16","23683","0.0-21.0","39U1BHVTDMD8BSDZF4ABB1PN0H5T3B","A324M5ZRHX7RUV","3UAU495MIIEABANG75FBFHDC9WUUOI","","null","<img src=""img/land6.png"" style=""width:200px;border:14px solid red;"">","null","","","","","","","",""
"","image-keyboard-response","17","24394","0.0-23.0","39U1BHVTDMD8BSDZF4ABB1PN0H5T3B","A324M5ZRHX7RUV","3UAU495MIIEABANG75FBFHDC9WUUOI","","710.3999999761581","img/land3.png","74","711.2000000476837","1","0","false","2","1,0.5,0.5,0.5,1,0.5,0.5,0.5,1","",""
"","html-keyboard-response","18","24710","0.0-24.0","39U1BHVTDMD8BSDZF4ABB1PN0H5T3B","A324M5ZRHX7RUV","3UAU495MIIEABANG75FBFHDC9WUUOI","","null","<img src=""img/land3.png"" style=""width:200px;border:14px solid red;"">","null","","","","","","","",""
"","image-keyboard-response","19","25161","0.0-26.0","39U1BHVTDMD8BSDZF4ABB1PN0H5T3B","A324M5ZRHX7RUV","3UAU495MIIEABANG75FBFHDC9WUUOI","","451","img/land3.png","76","451.59999990463257","3","0","false","2","1,0.5,0.5,0.5,1,0.5,0.5,0.5,1","",""
"","html-keyboard-response","20","25463","0.0-27.0","39U1BHVTDMD8BSDZF4ABB1PN0H5T3B","A324M5ZRHX7RUV","3UAU495MIIEABANG75FBFHDC9WUUOI","","null","<img src=""img/land3.png"" style=""width:200px;border:14px solid red;"">","null","","","","","","","",""
"","image-keyboard-response","21","25795","0.0-29.0","39U1BHVTDMD8BSDZF4ABB1PN0H5T3B","A324M5ZRHX7RUV","3UAU495MIIEABANG75FBFHDC9WUUOI","","329.89999997615814","img/land3.png","75","331.10000002384186","2","1","false","2","1,0.5,0.5,0.5,1,0.5,0.5,0.5,1","",""
"","html-keyboard-response","22","26103","0.0-30.0","39U1BHVTDMD8BSDZF4ABB1PN0H5T3B","A324M5ZRHX7RUV","3UAU495MIIEABANG75FBFHDC9WUUOI","","null","<img src=""img/land3.png"" style=""width:200px; border:14px solid green;"">","null","","","","","","","",""
"","image-keyboard-response","23","26828","0.0-32.0","39U1BHVTDMD8BSDZF4ABB1PN0H5T3B","A324M5ZRHX7RUV","3UAU495MIIEABANG75FBFHDC9WUUOI","","725.1000000238419","img/land5.png","76","725.6000000238419","3","1","false","1","1,0.5,0.5,0.5,1,0.5,0.5,0.5,1","",""
"","html-keyboard-response","24","27130","0.0-33.0","39U1BHVTDMD8BSDZF4ABB1PN0H5T3B","A324M5ZRHX7RUV","3UAU495MIIEABANG75FBFHDC9WUUOI","","null","<img src=""img/land5.png"" style=""width:200px; border:14px solid green;"">","null","","","","","","","",""
"","image-keyboard-response","25","27617","0.0-35.0","39U1BHVTDMD8BSDZF4ABB1PN0H5T3B","A324M5ZRHX7RUV","3UAU495MIIEABANG75FBFHDC9WUUOI","","486","img/land3.png","75","486.7000000476837","2","1","false","2","1,0.5,0.5,0.5,1,0.5,0.5,0.5,1","",""
"","html-keyboard-response","26","27929","0.0-36.0","39U1BHVTDMD8BSDZF4ABB1PN0H5T3B","A324M5ZRHX7RUV","3UAU495MIIEABANG75FBFHDC9WUUOI","","null","<img src=""img/land3.png"" style=""width:200px; border:14px solid green;"">","null","","","","","","","",""
"","image-keyboard-response","27","28529","0.0-38.0","39U1BHVTDMD8BSDZF4ABB1PN0H5T3B","A324M5ZRHX7RUV","3UAU495MIIEABANG75FBFHDC9WUUOI","","599.2000000476837","img/land5.png","76","599.7999999523163","3","0","false","1","1,0.5,0.5,0.5,1,0.5,0.5,0.5,1","",""
"","html-keyboard-response","28","28836","0.0-39.0","39U1BHVTDMD8BSDZF4ABB1PN0H5T3B","A324M5ZRHX7RUV","3UAU495MIIEABANG75FBFHDC9WUUOI","","null","<img src=""img/land5.png"" style=""width:200px;border:14px solid red;"">","null","","","","","","","",""
"","image-keyboard-response","29","29563","0.0-41.0","39U1BHVTDMD8BSDZF4ABB1PN0H5T3B","A324M5ZRHX7RUV","3UAU495MIIEABANG75FBFHDC9WUUOI","","725.7999999523163","img/land6.png","76","727.2000000476837","3","1","false","3","1,0.5,0.5,0.5,1,0.5,0.5,0.5,1","",""
"","html-keyboard-response","30","29865","0.0-42.0","39U1BHVTDMD8BSDZF4ABB1PN0H5T3B","A324M5ZRHX7RUV","3UAU495MIIEABANG75FBFHDC9WUUOI","","null","<img src=""img/land6.png"" style=""width:200px; border:14px solid green;"">","null","","","","","","","",""
"","image-keyboard-response","31","30320","0.0-44.0","39U1BHVTDMD8BSDZF4ABB1PN0H5T3B","A324M5ZRHX7RUV","3UAU495MIIEABANG75FBFHDC9WUUOI","","452.89999997615814","img/land3.png","75","454.2000000476837","2","1","false","2","1,0.5,0.5,0.5,1,0.5,0.5,0.5,1","",""
"","html-keyboard-response","32","30621","0.0-45.0","39U1BHVTDMD8BSDZF4ABB1PN0H5T3B","A324M5ZRHX7RUV","3UAU495MIIEABANG75FBFHDC9WUUOI","","null","<img src=""img/land3.png"" style=""width:200px; border:14px solid green;"">","null","","","","","","","",""
"","image-keyboard-response","33","31092","0.0-47.0","39U1BHVTDMD8BSDZF4ABB1PN0H5T3B","A324M5ZRHX7RUV","3UAU495MIIEABANG75FBFHDC9WUUOI","","469.8000000715256","img/land3.png","75","470.39999997615814","2","1","false","2","1,0.5,0.5,0.5,1,0.5,0.5,0.5,1","",""
"","html-keyboard-response","34","31394","0.0-48.0","39U1BHVTDMD8BSDZF4ABB1PN0H5T3B","A324M5ZRHX7RUV","3UAU495MIIEABANG75FBFHDC9WUUOI","","null","<img src=""img/land3.png"" style=""width:200px; border:14px solid green;"">","null","","","","","","","",""
"","image-keyboard-response","35","32144","0.0-50.0","39U1BHVTDMD8BSDZF4ABB1PN0H5T3B","A324M5ZRHX7RUV","3UAU495MIIEABANG75FBFHDC9WUUOI","","748.5","img/land6.png","76","749.2999999523163","3","1","false","3","1,0.5,0.5,0.5,1,0.5,0.5,0.5,1","",""
"","html-keyboard-response","36","32447","0.0-51.0","39U1BHVTDMD8BSDZF4ABB1PN0H5T3B","A324M5ZRHX7RUV","3UAU495MIIEABANG75FBFHDC9WUUOI","","null","<img src=""img/land6.png"" style=""width:200px; border:14px solid green;"">","null","","","","","","","",""
"","image-keyboard-response","37","32885","0.0-53.0","39U1BHVTDMD8BSDZF4ABB1PN0H5T3B","A324M5ZRHX7RUV","3UAU495MIIEABANG75FBFHDC9WUUOI","","437","img/land5.png","74","437.8000000715256","1","1","false","1","1,0.5,0.5,0.5,1,0.5,0.5,0.5,1","",""
"","html-keyboard-response","38","33187","0.0-54.0","39U1BHVTDMD8BSDZF4ABB1PN0H5T3B","A324M5ZRHX7RUV","3UAU495MIIEABANG75FBFHDC9WUUOI","","null","<img src=""img/land5.png"" style=""width:200px; border:14px solid green;"">","null","","","","","","","",""
"","image-keyboard-response","39","33563","0.0-56.0","39U1BHVTDMD8BSDZF4ABB1PN0H5T3B","A324M5ZRHX7RUV","3UAU495MIIEABANG75FBFHDC9WUUOI","","374.5","img/land5.png","74","375.5","1","1","false","1","1,0.5,0.5,0.5,1,0.5,0.5,0.5,1","",""
"","html-keyboard-response","40","33864","0.0-57.0","39U1BHVTDMD8BSDZF4ABB1PN0H5T3B","A324M5ZRHX7RUV","3UAU495MIIEABANG75FBFHDC9WUUOI","","null","<img src=""img/land5.png"" style=""width:200px; border:14px solid green;"">","null","","","","","","","",""
"","image-keyboard-response","41","34333","0.0-59.0","39U1BHVTDMD8BSDZF4ABB1PN0H5T3B","A324M5ZRHX7RUV","3UAU495MIIEABANG75FBFHDC9WUUOI","","467.5","img/land6.png","75","468.59999990463257","2","1","false","3","1,0.5,0.5,0.5,1,0.5,0.5,0.5,1","",""
"","html-keyboard-response","42","34634","0.0-60.0","39U1BHVTDMD8BSDZF4ABB1PN0H5T3B","A324M5ZRHX7RUV","3UAU495MIIEABANG75FBFHDC9WUUOI","","null","<img src=""img/land6.png"" style=""width:200px; border:14px solid green;"">","null","","","","","","","",""
"","image-keyboard-response","43","35422","0.0-62.0","39U1BHVTDMD8BSDZF4ABB1PN0H5T3B","A324M5ZRHX7RUV","3UAU495MIIEABANG75FBFHDC9WUUOI","","787","img/land5.png","76","787.6000000238419","3","1","false","1","1,0.5,0.5,0.5,1,0.5,0.5,0.5,1","",""
"","html-keyboard-response","44","35738","0.0-63.0","39U1BHVTDMD8BSDZF4ABB1PN0H5T3B","A324M5ZRHX7RUV","3UAU495MIIEABANG75FBFHDC9WUUOI","","null","<img src=""img/land5.png"" style=""width:200px; border:14px solid green;"">","null","","","","","","","",""
"","image-keyboard-response","45","36430","0.0-65.0","39U1BHVTDMD8BSDZF4ABB1PN0H5T3B","A324M5ZRHX7RUV","3UAU495MIIEABANG75FBFHDC9WUUOI","","691.1999999284744","img/land3.png","76","691.8999999761581","3","1","false","2","1,0.5,0.5,0.5,1,0.5,0.5,0.5,1","",""
"","html-keyboard-response","46","36731","0.0-66.0","39U1BHVTDMD8BSDZF4ABB1PN0H5T3B","A324M5ZRHX7RUV","3UAU495MIIEABANG75FBFHDC9WUUOI","","null","<img src=""img/land3.png"" style=""width:200px; border:14px solid green;"">","null","","","","","","","",""
"","image-keyboard-response","47","37585","0.0-68.0","39U1BHVTDMD8BSDZF4ABB1PN0H5T3B","A324M5ZRHX7RUV","3UAU495MIIEABANG75FBFHDC9WUUOI","","853.7000000476837","img/land5.png","75","854.5999999046326","2","0","false","1","1,0.5,0.5,0.5,1,0.5,0.5,0.5,1","",""
"","html-keyboard-response","48","37888","0.0-69.0","39U1BHVTDMD8BSDZF4ABB1PN0H5T3B","A324M5ZRHX7RUV","3UAU495MIIEABANG75FBFHDC9WUUOI","","null","<img src=""img/land5.png"" style=""width:200px;border:14px solid red;"">","null","","","","","","","",""
"","image-keyboard-response","49","38497","0.0-71.0","39U1BHVTDMD8BSDZF4ABB1PN0H5T3B","A324M5ZRHX7RUV","3UAU495MIIEABANG75FBFHDC9WUUOI","","608.5","img/land6.png","76","609.2000000476837","3","1","false","3","1,0.5,0.5,0.5,1,0.5,0.5,0.5,1","",""
"","html-keyboard-response","50","38798","0.0-72.0","39U1BHVTDMD8BSDZF4ABB1PN0H5T3B","A324M5ZRHX7RUV","3UAU495MIIEABANG75FBFHDC9WUUOI","","null","<img src=""img/land6.png"" style=""width:200px; border:14px solid green;"">","null","","","","","","","",""
"","image-keyboard-response","51","39280","0.0-74.0","39U1BHVTDMD8BSDZF4ABB1PN0H5T3B","A324M5ZRHX7RUV","3UAU495MIIEABANG75FBFHDC9WUUOI","","480.3000000715256","img/land6.png","76","481.10000002384186","3","1","false","3","1,0.5,0.5,0.5,1,0.5,0.5,0.5,1","",""
"","html-keyboard-response","52","39581","0.0-75.0","39U1BHVTDMD8BSDZF4ABB1PN0H5T3B","A324M5ZRHX7RUV","3UAU495MIIEABANG75FBFHDC9WUUOI","","null","<img src=""img/land6.png"" style=""width:200px; border:14px solid green;"">","null","","","","","","","",""
"","image-keyboard-response","53","40256","0.0-77.0","39U1BHVTDMD8BSDZF4ABB1PN0H5T3B","A324M5ZRHX7RUV","3UAU495MIIEABANG75FBFHDC9WUUOI","","673.7000000476837","img/land5.png","74","674.6000000238419","1","1","false","1","1,0.5,0.5,0.5,1,0.5,0.5,0.5,1","",""
"","html-keyboard-response","54","40558","0.0-78.0","39U1BHVTDMD8BSDZF4ABB1PN0H5T3B","A324M5ZRHX7RUV","3UAU495MIIEABANG75FBFHDC9WUUOI","","null","<img src=""img/land5.png"" style=""width:200px; border:14px solid green;"">","null","","","","","","","",""
"","image-keyboard-response","55","41034","0.0-80.0","39U1BHVTDMD8BSDZF4ABB1PN0H5T3B","A324M5ZRHX7RUV","3UAU495MIIEABANG75FBFHDC9WUUOI","","474.5","img/land3.png","75","475.2000000476837","2","1","false","2","1,0.5,0.5,0.5,1,0.5,0.5,0.5,1","",""
"","html-keyboard-response","56","41335","0.0-81.0","39U1BHVTDMD8BSDZF4ABB1PN0H5T3B","A324M5ZRHX7RUV","3UAU495MIIEABANG75FBFHDC9WUUOI","","null","<img src=""img/land3.png"" style=""width:200px; border:14px solid green;"">","null","","","","","","","",""
"","image-keyboard-response","57","41874","0.0-83.0","39U1BHVTDMD8BSDZF4ABB1PN0H5T3B","A324M5ZRHX7RUV","3UAU495MIIEABANG75FBFHDC9WUUOI","","537.7000000476837","img/land5.png","76","538.6000000238419","3","1","false","1","1,0.5,0.5,0.5,1,0.5,0.5,0.5,1","",""
"","html-keyboard-response","58","42191","0.0-84.0","39U1BHVTDMD8BSDZF4ABB1PN0H5T3B","A324M5ZRHX7RUV","3UAU495MIIEABANG75FBFHDC9WUUOI","","null","<img src=""img/land5.png"" style=""width:200px; border:14px solid green;"">","null","","","","","","","",""
"","image-keyboard-response","59","42910","0.0-86.0","39U1BHVTDMD8BSDZF4ABB1PN0H5T3B","A324M5ZRHX7RUV","3UAU495MIIEABANG75FBFHDC9WUUOI","","718.5","img/land3.png","75","719.1999999284744","2","1","false","2","1,0.5,0.5,0.5,1,0.5,0.5,0.5,1","",""
"","html-keyboard-response","60","43212","0.0-87.0","39U1BHVTDMD8BSDZF4ABB1PN0H5T3B","A324M5ZRHX7RUV","3UAU495MIIEABANG75FBFHDC9WUUOI","","null","<img src=""img/land3.png"" style=""width:200px; border:14px solid green;"">","null","","","","","","","",""
"","image-keyboard-response","61","44213","0.0-89.0","39U1BHVTDMD8BSDZF4ABB1PN0H5T3B","A324M5ZRHX7RUV","3UAU495MIIEABANG75FBFHDC9WUUOI","","","img/land3.png","","1001.1999999284744","-1","0","true","2","1,0.5,0.5,0.5,1,0.5,0.5,0.5,1","",""
"","html-keyboard-response","62","44514","0.0-90.0","39U1BHVTDMD8BSDZF4ABB1PN0H5T3B","A324M5ZRHX7RUV","3UAU495MIIEABANG75FBFHDC9WUUOI","","null","<img src=""img/land3.png"" style=""width:200px;border:14px solid red;"">","null","","","","","","","",""
"","html-keyboard-response","63","45984","0.0-91.0-0.0","39U1BHVTDMD8BSDZF4ABB1PN0H5T3B","A324M5ZRHX7RUV","3UAU495MIIEABANG75FBFHDC9WUUOI","","","","","","","","","","","",""
"","image-keyboard-response","64","46864","0.0-92.0","39U1BHVTDMD8BSDZF4ABB1PN0H5T3B","A324M5ZRHX7RUV","3UAU495MIIEABANG75FBFHDC9WUUOI","","878","img/land6.png","75","879.1000000238419","2","1","false","3","1,0.5,0.5,0.5,1,0.5,0.5,0.5,1","",""
"","html-keyboard-response","65","47166","0.0-93.0","39U1BHVTDMD8BSDZF4ABB1PN0H5T3B","A324M5ZRHX7RUV","3UAU495MIIEABANG75FBFHDC9WUUOI","","null","<img src=""img/land6.png"" style=""width:200px; border:14px solid green;"">","null","","","","","","","",""
"","image-keyboard-response","66","47730","0.0-95.0","39U1BHVTDMD8BSDZF4ABB1PN0H5T3B","A324M5ZRHX7RUV","3UAU495MIIEABANG75FBFHDC9WUUOI","","563.3999999761581","img/land5.png","74","564.3999999761581","1","1","false","1","1,0.5,0.5,0.5,1,0.5,0.5,0.5,1","",""
"","html-keyboard-response","67","48032","0.0-96.0","39U1BHVTDMD8BSDZF4ABB1PN0H5T3B","A324M5ZRHX7RUV","3UAU495MIIEABANG75FBFHDC9WUUOI","","null","<img src=""img/land5.png"" style=""width:200px; border:14px solid green;"">","null","","","","","","","",""
"","image-keyboard-response","68","48499","0.0-98.0","39U1BHVTDMD8BSDZF4ABB1PN0H5T3B","A324M5ZRHX7RUV","3UAU495MIIEABANG75FBFHDC9WUUOI","","466.39999997615814","img/land6.png","75","467","2","1","false","3","1,0.5,0.5,0.5,1,0.5,0.5,0.5,1","",""
"","html-keyboard-response","69","48801","0.0-99.0","39U1BHVTDMD8BSDZF4ABB1PN0H5T3B","A324M5ZRHX7RUV","3UAU495MIIEABANG75FBFHDC9WUUOI","","null","<img src=""img/land6.png"" style=""width:200px; border:14px solid green;"">","null","","","","","","","",""
"","image-keyboard-response","70","49380","0.0-101.0","39U1BHVTDMD8BSDZF4ABB1PN0H5T3B","A324M5ZRHX7RUV","3UAU495MIIEABANG75FBFHDC9WUUOI","","577.3000000715256","img/land5.png","74","578","1","1","false","1","1,0.5,0.5,0.5,1,0.5,0.5,0.5,1","",""
"","html-keyboard-response","71","49682","0.0-102.0","39U1BHVTDMD8BSDZF4ABB1PN0H5T3B","A324M5ZRHX7RUV","3UAU495MIIEABANG75FBFHDC9WUUOI","","null","<img src=""img/land5.png"" style=""width:200px; border:14px solid green;"">","null","","","","","","","",""
"","image-keyboard-response","72","50260","0.0-104.0","39U1BHVTDMD8BSDZF4ABB1PN0H5T3B","A324M5ZRHX7RUV","3UAU495MIIEABANG75FBFHDC9WUUOI","","577.1999999284744","img/land3.png","76","578.1000000238419","3","0","false","2","1,0.5,0.5,0.5,1,0.5,0.5,0.5,1","",""
"","html-keyboard-response","73","50561","0.0-105.0","39U1BHVTDMD8BSDZF4ABB1PN0H5T3B","A324M5ZRHX7RUV","3UAU495MIIEABANG75FBFHDC9WUUOI","","null","<img src=""img/land3.png"" style=""width:200px;border:14px solid red;"">","null","","","","","","","",""
"","image-keyboard-response","74","50911","0.0-107.0","39U1BHVTDMD8BSDZF4ABB1PN0H5T3B","A324M5ZRHX7RUV","3UAU495MIIEABANG75FBFHDC9WUUOI","","348.5","img/land3.png","75","349.2999999523163","2","1","false","2","1,0.5,0.5,0.5,1,0.5,0.5,0.5,1","",""
"","html-keyboard-response","75","51214","0.0-108.0","39U1BHVTDMD8BSDZF4ABB1PN0H5T3B","A324M5ZRHX7RUV","3UAU495MIIEABANG75FBFHDC9WUUOI","","null","<img src=""img/land3.png"" style=""width:200px; border:14px solid green;"">","null","","","","","","","",""
"","image-keyboard-response","76","51585","0.0-110.0","39U1BHVTDMD8BSDZF4ABB1PN0H5T3B","A324M5ZRHX7RUV","3UAU495MIIEABANG75FBFHDC9WUUOI","","370.7000000476837","img/land3.png","75","371.39999997615814","2","1","false","2","1,0.5,0.5,0.5,1,0.5,0.5,0.5,1","",""
"","html-keyboard-response","77","51887","0.0-111.0","39U1BHVTDMD8BSDZF4ABB1PN0H5T3B","A324M5ZRHX7RUV","3UAU495MIIEABANG75FBFHDC9WUUOI","","null","<img src=""img/land3.png"" style=""width:200px; border:14px solid green;"">","null","","","","","","","",""
"","image-keyboard-response","78","52572","0.0-113.0","39U1BHVTDMD8BSDZF4ABB1PN0H5T3B","A324M5ZRHX7RUV","3UAU495MIIEABANG75FBFHDC9WUUOI","","683.7999999523163","img/land5.png","76","684.6000000238419","3","1","false","1","1,0.5,0.5,0.5,1,0.5,0.5,0.5,1","",""
"","html-keyboard-response","79","52874","0.0-114.0","39U1BHVTDMD8BSDZF4ABB1PN0H5T3B","A324M5ZRHX7RUV","3UAU495MIIEABANG75FBFHDC9WUUOI","","null","<img src=""img/land5.png"" style=""width:200px; border:14px solid green;"">","null","","","","","","","",""
"","image-keyboard-response","80","53331","0.0-116.0","39U1BHVTDMD8BSDZF4ABB1PN0H5T3B","A324M5ZRHX7RUV","3UAU495MIIEABANG75FBFHDC9WUUOI","","456.1999999284744","img/land3.png","75","457.10000002384186","2","1","false","2","1,0.5,0.5,0.5,1,0.5,0.5,0.5,1","",""
"","html-keyboard-response","81","53633","0.0-117.0","39U1BHVTDMD8BSDZF4ABB1PN0H5T3B","A324M5ZRHX7RUV","3UAU495MIIEABANG75FBFHDC9WUUOI","","null","<img src=""img/land3.png"" style=""width:200px; border:14px solid green;"">","null","","","","","","","",""
"","image-keyboard-response","82","54075","0.0-119.0","39U1BHVTDMD8BSDZF4ABB1PN0H5T3B","A324M5ZRHX7RUV","3UAU495MIIEABANG75FBFHDC9WUUOI","","440.5","img/land5.png","76","441.7999999523163","3","0","false","1","1,0.5,0.5,0.5,1,0.5,0.5,0.5,1","",""
"","html-keyboard-response","83","54377","0.0-120.0","39U1BHVTDMD8BSDZF4ABB1PN0H5T3B","A324M5ZRHX7RUV","3UAU495MIIEABANG75FBFHDC9WUUOI","","null","<img src=""img/land5.png"" style=""width:200px;border:14px solid red;"">","null","","","","","","","",""
"","image-keyboard-response","84","54882","0.0-122.0","39U1BHVTDMD8BSDZF4ABB1PN0H5T3B","A324M5ZRHX7RUV","3UAU495MIIEABANG75FBFHDC9WUUOI","","503.5","img/land5.png","74","504.60000002384186","1","1","false","1","1,0.5,0.5,0.5,1,0.5,0.5,0.5,1","",""
"","html-keyboard-response","85","55184","0.0-123.0","39U1BHVTDMD8BSDZF4ABB1PN0H5T3B","A324M5ZRHX7RUV","3UAU495MIIEABANG75FBFHDC9WUUOI","","null","<img src=""img/land5.png"" style=""width:200px; border:14px solid green;"">","null","","","","","","","",""
"","image-keyboard-response","86","55834","0.0-125.0","39U1BHVTDMD8BSDZF4ABB1PN0H5T3B","A324M5ZRHX7RUV","3UAU495MIIEABANG75FBFHDC9WUUOI","","648.6000000238419","img/land3.png","75","650.1000000238419","2","1","false","2","1,0.5,0.5,0.5,1,0.5,0.5,0.5,1","",""
"","html-keyboard-response","87","56137","0.0-126.0","39U1BHVTDMD8BSDZF4ABB1PN0H5T3B","A324M5ZRHX7RUV","3UAU495MIIEABANG75FBFHDC9WUUOI","","null","<img src=""img/land3.png"" style=""width:200px; border:14px solid green;"">","null","","","","","","","",""
"","image-keyboard-response","88","56877","0.0-128.0","39U1BHVTDMD8BSDZF4ABB1PN0H5T3B","A324M5ZRHX7RUV","3UAU495MIIEABANG75FBFHDC9WUUOI","","738.2999999523163","img/land6.png","76","739.7999999523163","3","1","false","3","1,0.5,0.5,0.5,1,0.5,0.5,0.5,1","",""
"","html-keyboard-response","89","57181","0.0-129.0","39U1BHVTDMD8BSDZF4ABB1PN0H5T3B","A324M5ZRHX7RUV","3UAU495MIIEABANG75FBFHDC9WUUOI","","null","<img src=""img/land6.png"" style=""width:200px; border:14px solid green;"">","null","","","","","","","",""
"","image-keyboard-response","90","57572","0.0-131.0","39U1BHVTDMD8BSDZF4ABB1PN0H5T3B","A324M5ZRHX7RUV","3UAU495MIIEABANG75FBFHDC9WUUOI","","390.39999997615814","img/land6.png","76","391.2000000476837","3","1","false","3","1,0.5,0.5,0.5,1,0.5,0.5,0.5,1","",""
"","html-keyboard-response","91","57875","0.0-132.0","39U1BHVTDMD8BSDZF4ABB1PN0H5T3B","A324M5ZRHX7RUV","3UAU495MIIEABANG75FBFHDC9WUUOI","","null","<img src=""img/land6.png"" style=""width:200px; border:14px solid green;"">","null","","","","","","","",""
"","image-keyboard-response","92","58580","0.0-134.0","39U1BHVTDMD8BSDZF4ABB1PN0H5T3B","A324M5ZRHX7RUV","3UAU495MIIEABANG75FBFHDC9WUUOI","","704.0999999046326","img/land5.png","74","704.7000000476837","1","1","false","1","1,0.5,0.5,0.5,1,0.5,0.5,0.5,1","",""
"","html-keyboard-response","93","58882","0.0-135.0","39U1BHVTDMD8BSDZF4ABB1PN0H5T3B","A324M5ZRHX7RUV","3UAU495MIIEABANG75FBFHDC9WUUOI","","null","<img src=""img/land5.png"" style=""width:200px; border:14px solid green;"">","null","","","","","","","",""
"","image-keyboard-response","94","59297","0.0-137.0","39U1BHVTDMD8BSDZF4ABB1PN0H5T3B","A324M5ZRHX7RUV","3UAU495MIIEABANG75FBFHDC9WUUOI","","414.2999999523163","img/land5.png","74","415.10000002384186","1","1","false","1","1,0.5,0.5,0.5,1,0.5,0.5,0.5,1","",""
"","html-keyboard-response","95","59598","0.0-138.0","39U1BHVTDMD8BSDZF4ABB1PN0H5T3B","A324M5ZRHX7RUV","3UAU495MIIEABANG75FBFHDC9WUUOI","","null","<img src=""img/land5.png"" style=""width:200px; border:14px solid green;"">","null","","","","","","","",""
"","image-keyboard-response","96","60056","0.0-140.0","39U1BHVTDMD8BSDZF4ABB1PN0H5T3B","A324M5ZRHX7RUV","3UAU495MIIEABANG75FBFHDC9WUUOI","","455.7999999523163","img/land5.png","74","457.6999999284744","1","1","false","1","1,0.5,0.5,0.5,1,0.5,0.5,0.5,1","",""
"","html-keyboard-response","97","60358","0.0-141.0","39U1BHVTDMD8BSDZF4ABB1PN0H5T3B","A324M5ZRHX7RUV","3UAU495MIIEABANG75FBFHDC9WUUOI","","null","<img src=""img/land5.png"" style=""width:200px; border:14px solid green;"">","null","","","","","","","",""
"","image-keyboard-response","98","61019","0.0-143.0","39U1BHVTDMD8BSDZF4ABB1PN0H5T3B","A324M5ZRHX7RUV","3UAU495MIIEABANG75FBFHDC9WUUOI","","659.8999999761581","img/land6.png","76","661.1999999284744","3","1","false","3","1,0.5,0.5,0.5,1,0.5,0.5,0.5,1","",""
"","html-keyboard-response","99","61321","0.0-144.0","39U1BHVTDMD8BSDZF4ABB1PN0H5T3B","A324M5ZRHX7RUV","3UAU495MIIEABANG75FBFHDC9WUUOI","","null","<img src=""img/land6.png"" style=""width:200px; border:14px solid green;"">","null","","","","","","","",""
"","image-keyboard-response","100","61689","0.0-146.0","39U1BHVTDMD8BSDZF4ABB1PN0H5T3B","A324M5ZRHX7RUV","3UAU495MIIEABANG75FBFHDC9WUUOI","","367.1999999284744","img/land6.png","76","368","3","1","false","3","1,0.5,0.5,0.5,1,0.5,0.5,0.5,1","",""
"","html-keyboard-response","101","61992","0.0-147.0","39U1BHVTDMD8BSDZF4ABB1PN0H5T3B","A324M5ZRHX7RUV","3UAU495MIIEABANG75FBFHDC9WUUOI","","null","<img src=""img/land6.png"" style=""width:200px; border:14px solid green;"">","null","","","","","","","",""
"","image-keyboard-response","102","62633","0.0-149.0","39U1BHVTDMD8BSDZF4ABB1PN0H5T3B","A324M5ZRHX7RUV","3UAU495MIIEABANG75FBFHDC9WUUOI","","639.3999999761581","img/land5.png","74","640.0999999046326","1","1","false","1","1,0.5,0.5,0.5,1,0.5,0.5,0.5,1","",""
"","html-keyboard-response","103","62934","0.0-150.0","39U1BHVTDMD8BSDZF4ABB1PN0H5T3B","A324M5ZRHX7RUV","3UAU495MIIEABANG75FBFHDC9WUUOI","","null","<img src=""img/land5.png"" style=""width:200px; border:14px solid green;"">","null","","","","","","","",""
"","image-keyboard-response","104","63302","0.0-152.0","39U1BHVTDMD8BSDZF4ABB1PN0H5T3B","A324M5ZRHX7RUV","3UAU495MIIEABANG75FBFHDC9WUUOI","","367.5","img/land5.png","74","368.2000000476837","1","1","false","1","1,0.5,0.5,0.5,1,0.5,0.5,0.5,1","",""
"","html-keyboard-response","105","63604","0.0-153.0","39U1BHVTDMD8BSDZF4ABB1PN0H5T3B","A324M5ZRHX7RUV","3UAU495MIIEABANG75FBFHDC9WUUOI","","null","<img src=""img/land5.png"" style=""width:200px; border:14px solid green;"">","null","","","","","","","",""
"","image-keyboard-response","106","64054","0.0-155.0","39U1BHVTDMD8BSDZF4ABB1PN0H5T3B","A324M5ZRHX7RUV","3UAU495MIIEABANG75FBFHDC9WUUOI","","449.5","img/land3.png","75","450.1999999284744","2","1","false","2","1,0.5,0.5,0.5,1,0.5,0.5,0.5,1","",""
"","html-keyboard-response","107","64356","0.0-156.0","39U1BHVTDMD8BSDZF4ABB1PN0H5T3B","A324M5ZRHX7RUV","3UAU495MIIEABANG75FBFHDC9WUUOI","","null","<img src=""img/land3.png"" style=""width:200px; border:14px solid green;"">","null","","","","","","","",""
"","image-keyboard-response","108","64720","0.0-158.0","39U1BHVTDMD8BSDZF4ABB1PN0H5T3B","A324M5ZRHX7RUV","3UAU495MIIEABANG75FBFHDC9WUUOI","","362.89999997615814","img/land3.png","75","363.40000009536743","2","1","false","2","1,0.5,0.5,0.5,1,0.5,0.5,0.5,1","",""
"","html-keyboard-response","109","65022","0.0-159.0","39U1BHVTDMD8BSDZF4ABB1PN0H5T3B","A324M5ZRHX7RUV","3UAU495MIIEABANG75FBFHDC9WUUOI","","null","<img src=""img/land3.png"" style=""width:200px; border:14px solid green;"">","null","","","","","","","",""
"","image-keyboard-response","110","65448","0.0-161.0","39U1BHVTDMD8BSDZF4ABB1PN0H5T3B","A324M5ZRHX7RUV","3UAU495MIIEABANG75FBFHDC9WUUOI","","425.60000002384186","img/land3.png","75","426.1999999284744","2","1","false","2","1,0.5,0.5,0.5,1,0.5,0.5,0.5,1","",""
"","html-keyboard-response","111","65750","0.0-162.0","39U1BHVTDMD8BSDZF4ABB1PN0H5T3B","A324M5ZRHX7RUV","3UAU495MIIEABANG75FBFHDC9WUUOI","","null","<img src=""img/land3.png"" style=""width:200px; border:14px solid green;"">","null","","","","","","","",""
"","image-keyboard-response","112","66234","0.0-164.0","39U1BHVTDMD8BSDZF4ABB1PN0H5T3B","A324M5ZRHX7RUV","3UAU495MIIEABANG75FBFHDC9WUUOI","","483.40000009536743","img/land5.png","76","484","3","1","false","1","1,0.5,0.5,0.5,1,0.5,0.5,0.5,1","",""
"","html-keyboard-response","113","66536","0.0-165.0","39U1BHVTDMD8BSDZF4ABB1PN0H5T3B","A324M5ZRHX7RUV","3UAU495MIIEABANG75FBFHDC9WUUOI","","null","<img src=""img/land5.png"" style=""width:200px; border:14px solid green;"">","null","","","","","","","",""
"","image-keyboard-response","114","66895","0.0-167.0","39U1BHVTDMD8BSDZF4ABB1PN0H5T3B","A324M5ZRHX7RUV","3UAU495MIIEABANG75FBFHDC9WUUOI","","358.60000002384186","img/land5.png","76","359.3000000715256","3","1","false","1","1,0.5,0.5,0.5,1,0.5,0.5,0.5,1","",""
"","html-keyboard-response","115","67197","0.0-168.0","39U1BHVTDMD8BSDZF4ABB1PN0H5T3B","A324M5ZRHX7RUV","3UAU495MIIEABANG75FBFHDC9WUUOI","","null","<img src=""img/land5.png"" style=""width:200px; border:14px solid green;"">","null","","","","","","","",""
"","image-keyboard-response","116","67590","0.0-170.0","39U1BHVTDMD8BSDZF4ABB1PN0H5T3B","A324M5ZRHX7RUV","3UAU495MIIEABANG75FBFHDC9WUUOI","","391.89999997615814","img/land6.png","74","392.6999999284744","1","0","false","3","1,0.5,0.5,0.5,1,0.5,0.5,0.5,1","",""
"","html-keyboard-response","117","67891","0.0-171.0","39U1BHVTDMD8BSDZF4ABB1PN0H5T3B","A324M5ZRHX7RUV","3UAU495MIIEABANG75FBFHDC9WUUOI","","null","<img src=""img/land6.png"" style=""width:200px;border:14px solid red;"">","null","","","","","","","",""
"","image-keyboard-response","118","68625","0.0-173.0","39U1BHVTDMD8BSDZF4ABB1PN0H5T3B","A324M5ZRHX7RUV","3UAU495MIIEABANG75FBFHDC9WUUOI","","732.6000000238419","img/land6.png","76","733.8999999761581","3","1","false","3","1,0.5,0.5,0.5,1,0.5,0.5,0.5,1","",""
"","html-keyboard-response","119","68927","0.0-174.0","39U1BHVTDMD8BSDZF4ABB1PN0H5T3B","A324M5ZRHX7RUV","3UAU495MIIEABANG75FBFHDC9WUUOI","","null","<img src=""img/land6.png"" style=""width:200px; border:14px solid green;"">","null","","","","","","","",""
"","image-keyboard-response","120","69326","0.0-176.0","39U1BHVTDMD8BSDZF4ABB1PN0H5T3B","A324M5ZRHX7RUV","3UAU495MIIEABANG75FBFHDC9WUUOI","","397.40000009536743","img/land6.png","76","398.3000000715256","3","1","false","3","1,0.5,0.5,0.5,1,0.5,0.5,0.5,1","",""
"","html-keyboard-response","121","69628","0.0-177.0","39U1BHVTDMD8BSDZF4ABB1PN0H5T3B","A324M5ZRHX7RUV","3UAU495MIIEABANG75FBFHDC9WUUOI","","null","<img src=""img/land6.png"" style=""width:200px; border:14px solid green;"">","null","","","","","","","",""
"","image-keyboard-response","122","69985","0.0-179.0","39U1BHVTDMD8BSDZF4ABB1PN0H5T3B","A324M5ZRHX7RUV","3UAU495MIIEABANG75FBFHDC9WUUOI","","356.2000000476837","img/land6.png","76","357.10000002384186","3","1","false","3","1,0.5,0.5,0.5,1,0.5,0.5,0.5,1","",""
"","html-keyboard-response","123","70287","0.0-180.0","39U1BHVTDMD8BSDZF4ABB1PN0H5T3B","A324M5ZRHX7RUV","3UAU495MIIEABANG75FBFHDC9WUUOI","","null","<img src=""img/land6.png"" style=""width:200px; border:14px solid green;"">","null","","","","","","","",""
"","image-keyboard-response","124","70661","0.0-182.0","39U1BHVTDMD8BSDZF4ABB1PN0H5T3B","A324M5ZRHX7RUV","3UAU495MIIEABANG75FBFHDC9WUUOI","","373.5","img/land6.png","76","374.1999999284744","3","1","false","3","1,0.5,0.5,0.5,1,0.5,0.5,0.5,1","",""
"","html-keyboard-response","125","70964","0.0-183.0","39U1BHVTDMD8BSDZF4ABB1PN0H5T3B","A324M5ZRHX7RUV","3UAU495MIIEABANG75FBFHDC9WUUOI","","null","<img src=""img/land6.png"" style=""width:200px; border:14px solid green;"">","null","","","","","","","",""
"","image-keyboard-response","126","71503","0.0-185.0","39U1BHVTDMD8BSDZF4ABB1PN0H5T3B","A324M5ZRHX7RUV","3UAU495MIIEABANG75FBFHDC9WUUOI","","538.5","img/land5.png","74","539.2999999523163","1","1","false","1","1,0.5,0.5,0.5,1,0.5,0.5,0.5,1","",""
"","html-keyboard-response","127","71805","0.0-186.0","39U1BHVTDMD8BSDZF4ABB1PN0H5T3B","A324M5ZRHX7RUV","3UAU495MIIEABANG75FBFHDC9WUUOI","","null","<img src=""img/land5.png"" style=""width:200px; border:14px solid green;"">","null","","","","","","","",""
"","image-keyboard-response","128","72255","0.0-188.0","39U1BHVTDMD8BSDZF4ABB1PN0H5T3B","A324M5ZRHX7RUV","3UAU495MIIEABANG75FBFHDC9WUUOI","","449","img/land3.png","75","450","2","1","false","2","1,0.5,0.5,0.5,1,0.5,0.5,0.5,1","",""
"","html-keyboard-response","129","72557","0.0-189.0","39U1BHVTDMD8BSDZF4ABB1PN0H5T3B","A324M5ZRHX7RUV","3UAU495MIIEABANG75FBFHDC9WUUOI","","null","<img src=""img/land3.png"" style=""width:200px; border:14px solid green;"">","null","","","","","","","",""
"","image-keyboard-response","130","72966","0.0-191.0","39U1BHVTDMD8BSDZF4ABB1PN0H5T3B","A324M5ZRHX7RUV","3UAU495MIIEABANG75FBFHDC9WUUOI","","407.10000002384186","img/land3.png","75","408.89999997615814","2","1","false","2","1,0.5,0.5,0.5,1,0.5,0.5,0.5,1","",""
"","html-keyboard-response","131","73267","0.0-192.0","39U1BHVTDMD8BSDZF4ABB1PN0H5T3B","A324M5ZRHX7RUV","3UAU495MIIEABANG75FBFHDC9WUUOI","","null","<img src=""img/land3.png"" style=""width:200px; border:14px solid green;"">","null","","","","","","","",""
"","image-keyboard-response","132","74038","0.0-194.0","39U1BHVTDMD8BSDZF4ABB1PN0H5T3B","A324M5ZRHX7RUV","3UAU495MIIEABANG75FBFHDC9WUUOI","","769.9000000953674","img/land6.png","76","770.8999999761581","3","1","false","3","1,0.5,0.5,0.5,1,0.5,0.5,0.5,1","",""
"","html-keyboard-response","133","74340","0.0-195.0","39U1BHVTDMD8BSDZF4ABB1PN0H5T3B","A324M5ZRHX7RUV","3UAU495MIIEABANG75FBFHDC9WUUOI","","null","<img src=""img/land6.png"" style=""width:200px; border:14px solid green;"">","null","","","","","","","",""
"","image-keyboard-response","134","74946","0.0-197.0","39U1BHVTDMD8BSDZF4ABB1PN0H5T3B","A324M5ZRHX7RUV","3UAU495MIIEABANG75FBFHDC9WUUOI","","604.1000000238419","img/land3.png","75","605.7999999523163","2","1","false","2","1,0.5,0.5,0.5,1,0.5,0.5,0.5,1","",""
"","html-keyboard-response","135","75248","0.0-198.0","39U1BHVTDMD8BSDZF4ABB1PN0H5T3B","A324M5ZRHX7RUV","3UAU495MIIEABANG75FBFHDC9WUUOI","","null","<img src=""img/land3.png"" style=""width:200px; border:14px solid green;"">","null","","","","","","","",""
"","image-keyboard-response","136","75776","0.0-200.0","39U1BHVTDMD8BSDZF4ABB1PN0H5T3B","A324M5ZRHX7RUV","3UAU495MIIEABANG75FBFHDC9WUUOI","","526.7000000476837","img/land6.png","76","528.2000000476837","3","1","false","3","1,0.5,0.5,0.5,1,0.5,0.5,0.5,1","",""
"","html-keyboard-response","137","76078","0.0-201.0","39U1BHVTDMD8BSDZF4ABB1PN0H5T3B","A324M5ZRHX7RUV","3UAU495MIIEABANG75FBFHDC9WUUOI","","null","<img src=""img/land6.png"" style=""width:200px; border:14px solid green;"">","null","","","","","","","",""
"","image-keyboard-response","138","76657","0.0-203.0","39U1BHVTDMD8BSDZF4ABB1PN0H5T3B","A324M5ZRHX7RUV","3UAU495MIIEABANG75FBFHDC9WUUOI","","578","img/land3.png","75","579.2000000476837","2","1","false","2","1,0.5,0.5,0.5,1,0.5,0.5,0.5,1","",""
"","html-keyboard-response","139","76959","0.0-204.0","39U1BHVTDMD8BSDZF4ABB1PN0H5T3B","A324M5ZRHX7RUV","3UAU495MIIEABANG75FBFHDC9WUUOI","","null","<img src=""img/land3.png"" style=""width:200px; border:14px solid green;"">","null","","","","","","","",""
"","image-keyboard-response","140","77517","0.0-206.0","39U1BHVTDMD8BSDZF4ABB1PN0H5T3B","A324M5ZRHX7RUV","3UAU495MIIEABANG75FBFHDC9WUUOI","","556.7000000476837","img/land5.png","74","558","1","1","false","1","1,0.5,0.5,0.5,1,0.5,0.5,0.5,1","",""
"","html-keyboard-response","141","77818","0.0-207.0","39U1BHVTDMD8BSDZF4ABB1PN0H5T3B","A324M5ZRHX7RUV","3UAU495MIIEABANG75FBFHDC9WUUOI","","null","<img src=""img/land5.png"" style=""width:200px; border:14px solid green;"">","null","","","","","","","",""
"","image-keyboard-response","142","78338","0.0-209.0","39U1BHVTDMD8BSDZF4ABB1PN0H5T3B","A324M5ZRHX7RUV","3UAU495MIIEABANG75FBFHDC9WUUOI","","518.1000000238419","img/land6.png","76","518.8000000715256","3","1","false","3","1,0.5,0.5,0.5,1,0.5,0.5,0.5,1","",""
"","html-keyboard-response","143","78639","0.0-210.0","39U1BHVTDMD8BSDZF4ABB1PN0H5T3B","A324M5ZRHX7RUV","3UAU495MIIEABANG75FBFHDC9WUUOI","","null","<img src=""img/land6.png"" style=""width:200px; border:14px solid green;"">","null","","","","","","","",""
"","image-keyboard-response","144","79164","0.0-212.0","39U1BHVTDMD8BSDZF4ABB1PN0H5T3B","A324M5ZRHX7RUV","3UAU495MIIEABANG75FBFHDC9WUUOI","","523.5999999046326","img/land3.png","75","524.3000000715256","2","1","false","2","1,0.5,0.5,0.5,1,0.5,0.5,0.5,1","",""
"","html-keyboard-response","145","79466","0.0-213.0","39U1BHVTDMD8BSDZF4ABB1PN0H5T3B","A324M5ZRHX7RUV","3UAU495MIIEABANG75FBFHDC9WUUOI","","null","<img src=""img/land3.png"" style=""width:200px; border:14px solid green;"">","null","","","","","","","",""
"","image-keyboard-response","146","79867","0.0-215.0","39U1BHVTDMD8BSDZF4ABB1PN0H5T3B","A324M5ZRHX7RUV","3UAU495MIIEABANG75FBFHDC9WUUOI","","399.60000002384186","img/land3.png","75","400.5","2","1","false","2","1,0.5,0.5,0.5,1,0.5,0.5,0.5,1","",""
"","html-keyboard-response","147","80169","0.0-216.0","39U1BHVTDMD8BSDZF4ABB1PN0H5T3B","A324M5ZRHX7RUV","3UAU495MIIEABANG75FBFHDC9WUUOI","","null","<img src=""img/land3.png"" style=""width:200px; border:14px solid green;"">","null","","","","","","","",""
"","image-keyboard-response","148","80890","0.0-218.0","39U1BHVTDMD8BSDZF4ABB1PN0H5T3B","A324M5ZRHX7RUV","3UAU495MIIEABANG75FBFHDC9WUUOI","","715.8999999761581","img/land6.png","76","721.3000000715256","3","1","false","3","1,0.5,0.5,0.5,1,0.5,0.5,0.5,1","",""
"","html-keyboard-response","149","81193","0.0-219.0","39U1BHVTDMD8BSDZF4ABB1PN0H5T3B","A324M5ZRHX7RUV","3UAU495MIIEABANG75FBFHDC9WUUOI","","null","<img src=""img/land6.png"" style=""width:200px; border:14px solid green;"">","null","","","","","","","",""
"","image-keyboard-response","150","81829","0.0-221.0","39U1BHVTDMD8BSDZF4ABB1PN0H5T3B","A324M5ZRHX7RUV","3UAU495MIIEABANG75FBFHDC9WUUOI","","635.7999999523163","img/land3.png","75","636.3000000715256","2","1","false","2","1,0.5,0.5,0.5,1,0.5,0.5,0.5,1","",""
"","html-keyboard-response","151","82131","0.0-222.0","39U1BHVTDMD8BSDZF4ABB1PN0H5T3B","A324M5ZRHX7RUV","3UAU495MIIEABANG75FBFHDC9WUUOI","","null","<img src=""img/land3.png"" style=""width:200px; border:14px solid green;"">","null","","","","","","","",""
"","image-keyboard-response","152","82571","0.0-224.0","39U1BHVTDMD8BSDZF4ABB1PN0H5T3B","A324M5ZRHX7RUV","3UAU495MIIEABANG75FBFHDC9WUUOI","","439.10000002384186","img/land5.png","74","439.89999997615814","1","1","false","1","1,0.5,0.5,0.5,1,0.5,0.5,0.5,1","",""
"","html-keyboard-response","153","82874","0.0-225.0","39U1BHVTDMD8BSDZF4ABB1PN0H5T3B","A324M5ZRHX7RUV","3UAU495MIIEABANG75FBFHDC9WUUOI","","null","<img src=""img/land5.png"" style=""width:200px; border:14px solid green;"">","null","","","","","","","",""
"","image-keyboard-response","154","83442","0.0-227.0","39U1BHVTDMD8BSDZF4ABB1PN0H5T3B","A324M5ZRHX7RUV","3UAU495MIIEABANG75FBFHDC9WUUOI","","568","img/land6.png","76","568.6000000238419","3","1","false","3","1,0.5,0.5,0.5,1,0.5,0.5,0.5,1","",""
"","html-keyboard-response","155","83745","0.0-228.0","39U1BHVTDMD8BSDZF4ABB1PN0H5T3B","A324M5ZRHX7RUV","3UAU495MIIEABANG75FBFHDC9WUUOI","","null","<img src=""img/land6.png"" style=""width:200px; border:14px solid green;"">","null","","","","","","","",""
"","image-keyboard-response","156","84143","0.0-230.0","39U1BHVTDMD8BSDZF4ABB1PN0H5T3B","A324M5ZRHX7RUV","3UAU495MIIEABANG75FBFHDC9WUUOI","","397.39999997615814","img/land6.png","76","398.1999999284744","3","1","false","3","1,0.5,0.5,0.5,1,0.5,0.5,0.5,1","",""
"","html-keyboard-response","157","84444","0.0-231.0","39U1BHVTDMD8BSDZF4ABB1PN0H5T3B","A324M5ZRHX7RUV","3UAU495MIIEABANG75FBFHDC9WUUOI","","null","<img src=""img/land6.png"" style=""width:200px; border:14px solid green;"">","null","","","","","","","",""
"","image-keyboard-response","158","85081","0.0-233.0","39U1BHVTDMD8BSDZF4ABB1PN0H5T3B","A324M5ZRHX7RUV","3UAU495MIIEABANG75FBFHDC9WUUOI","","636.1000000238419","img/land5.png","74","636.5","1","1","false","1","1,0.5,0.5,0.5,1,0.5,0.5,0.5,1","",""
"","html-keyboard-response","159","85382","0.0-234.0","39U1BHVTDMD8BSDZF4ABB1PN0H5T3B","A324M5ZRHX7RUV","3UAU495MIIEABANG75FBFHDC9WUUOI","","null","<img src=""img/land5.png"" style=""width:200px; border:14px solid green;"">","null","","","","","","","",""
"","image-keyboard-response","160","85975","0.0-236.0","39U1BHVTDMD8BSDZF4ABB1PN0H5T3B","A324M5ZRHX7RUV","3UAU495MIIEABANG75FBFHDC9WUUOI","","591.2000000476837","img/land6.png","76","591.8999999761581","3","1","false","3","1,0.5,0.5,0.5,1,0.5,0.5,0.5,1","",""
"","html-keyboard-response","161","86278","0.0-237.0","39U1BHVTDMD8BSDZF4ABB1PN0H5T3B","A324M5ZRHX7RUV","3UAU495MIIEABANG75FBFHDC9WUUOI","","null","<img src=""img/land6.png"" style=""width:200px; border:14px solid green;"">","null","","","","","","","",""
"","image-keyboard-response","162","86694","0.0-239.0","39U1BHVTDMD8BSDZF4ABB1PN0H5T3B","A324M5ZRHX7RUV","3UAU495MIIEABANG75FBFHDC9WUUOI","","415.6999999284744","img/land5.png","74","416.39999997615814","1","1","false","1","1,0.5,0.5,0.5,1,0.5,0.5,0.5,1","",""
"","html-keyboard-response","163","86998","0.0-240.0","39U1BHVTDMD8BSDZF4ABB1PN0H5T3B","A324M5ZRHX7RUV","3UAU495MIIEABANG75FBFHDC9WUUOI","","null","<img src=""img/land5.png"" style=""width:200px; border:14px solid green;"">","null","","","","","","","",""
"","image-keyboard-response","164","87640","0.0-242.0","39U1BHVTDMD8BSDZF4ABB1PN0H5T3B","A324M5ZRHX7RUV","3UAU495MIIEABANG75FBFHDC9WUUOI","","640.2000000476837","img/land3.png","75","641.0999999046326","2","1","false","2","1,0.5,0.5,0.5,1,0.5,0.5,0.5,1","",""
"","html-keyboard-response","165","87942","0.0-243.0","39U1BHVTDMD8BSDZF4ABB1PN0H5T3B","A324M5ZRHX7RUV","3UAU495MIIEABANG75FBFHDC9WUUOI","","null","<img src=""img/land3.png"" style=""width:200px; border:14px solid green;"">","null","","","","","","","",""
"","image-keyboard-response","166","88336","0.0-245.0","39U1BHVTDMD8BSDZF4ABB1PN0H5T3B","A324M5ZRHX7RUV","3UAU495MIIEABANG75FBFHDC9WUUOI","","393","img/land3.png","75","393.7999999523163","2","1","false","2","1,0.5,0.5,0.5,1,0.5,0.5,0.5,1","",""
"","html-keyboard-response","167","88638","0.0-246.0","39U1BHVTDMD8BSDZF4ABB1PN0H5T3B","A324M5ZRHX7RUV","3UAU495MIIEABANG75FBFHDC9WUUOI","","null","<img src=""img/land3.png"" style=""width:200px; border:14px solid green;"">","null","","","","","","","",""
"","image-keyboard-response","168","89495","0.0-248.0","39U1BHVTDMD8BSDZF4ABB1PN0H5T3B","A324M5ZRHX7RUV","3UAU495MIIEABANG75FBFHDC9WUUOI","","856.2999999523163","img/land5.png","76","857.3000000715256","3","0","false","1","1,0.5,0.5,0.5,1,0.5,0.5,0.5,1","",""
"","html-keyboard-response","169","89796","0.0-249.0","39U1BHVTDMD8BSDZF4ABB1PN0H5T3B","A324M5ZRHX7RUV","3UAU495MIIEABANG75FBFHDC9WUUOI","","null","<img src=""img/land5.png"" style=""width:200px;border:14px solid red;"">","null","","","","","","","",""
"","image-keyboard-response","170","90735","0.0-251.0","39U1BHVTDMD8BSDZF4ABB1PN0H5T3B","A324M5ZRHX7RUV","3UAU495MIIEABANG75FBFHDC9WUUOI","","938","img/land3.png","75","938.5","2","1","false","2","1,0.5,0.5,0.5,1,0.5,0.5,0.5,1","",""
"","html-keyboard-response","171","91037","0.0-252.0","39U1BHVTDMD8BSDZF4ABB1PN0H5T3B","A324M5ZRHX7RUV","3UAU495MIIEABANG75FBFHDC9WUUOI","","null","<img src=""img/land3.png"" style=""width:200px; border:14px solid green;"">","null","","","","","","","",""
"","image-keyboard-response","172","91595","0.0-254.0","39U1BHVTDMD8BSDZF4ABB1PN0H5T3B","A324M5ZRHX7RUV","3UAU495MIIEABANG75FBFHDC9WUUOI","","556.8999999761581","img/land5.png","74","557.7999999523163","1","1","false","1","1,0.5,0.5,0.5,1,0.5,0.5,0.5,1","",""
"","html-keyboard-response","173","91897","0.0-255.0","39U1BHVTDMD8BSDZF4ABB1PN0H5T3B","A324M5ZRHX7RUV","3UAU495MIIEABANG75FBFHDC9WUUOI","","null","<img src=""img/land5.png"" style=""width:200px; border:14px solid green;"">","null","","","","","","","",""
"","image-keyboard-response","174","92356","0.0-257.0","39U1BHVTDMD8BSDZF4ABB1PN0H5T3B","A324M5ZRHX7RUV","3UAU495MIIEABANG75FBFHDC9WUUOI","","458.1999999284744","img/land3.png","76","459","3","1","false","2","1,0.5,0.5,0.5,1,0.5,0.5,0.5,1","",""
"","html-keyboard-response","175","92659","0.0-258.0","39U1BHVTDMD8BSDZF4ABB1PN0H5T3B","A324M5ZRHX7RUV","3UAU495MIIEABANG75FBFHDC9WUUOI","","null","<img src=""img/land3.png"" style=""width:200px; border:14px solid green;"">","null","","","","","","","",""
"","image-keyboard-response","176","93289","0.0-260.0","39U1BHVTDMD8BSDZF4ABB1PN0H5T3B","A324M5ZRHX7RUV","3UAU495MIIEABANG75FBFHDC9WUUOI","","629.3000000715256","img/land6.png","76","630","3","1","false","3","1,0.5,0.5,0.5,1,0.5,0.5,0.5,1","",""
"","html-keyboard-response","177","93591","0.0-261.0","39U1BHVTDMD8BSDZF4ABB1PN0H5T3B","A324M5ZRHX7RUV","3UAU495MIIEABANG75FBFHDC9WUUOI","","null","<img src=""img/land6.png"" style=""width:200px; border:14px solid green;"">","null","","","","","","","",""
"","image-keyboard-response","178","94064","0.0-263.0","39U1BHVTDMD8BSDZF4ABB1PN0H5T3B","A324M5ZRHX7RUV","3UAU495MIIEABANG75FBFHDC9WUUOI","","472.2999999523163","img/land6.png","76","472.89999997615814","3","1","false","3","1,0.5,0.5,0.5,1,0.5,0.5,0.5,1","",""
"","html-keyboard-response","179","94366","0.0-264.0","39U1BHVTDMD8BSDZF4ABB1PN0H5T3B","A324M5ZRHX7RUV","3UAU495MIIEABANG75FBFHDC9WUUOI","","null","<img src=""img/land6.png"" style=""width:200px; border:14px solid green;"">","null","","","","","","","",""
"","image-keyboard-response","180","94799","0.0-266.0","39U1BHVTDMD8BSDZF4ABB1PN0H5T3B","A324M5ZRHX7RUV","3UAU495MIIEABANG75FBFHDC9WUUOI","","432.5","img/land6.png","76","433.3000000715256","3","1","false","3","1,0.5,0.5,0.5,1,0.5,0.5,0.5,1","",""
"","html-keyboard-response","181","95102","0.0-267.0","39U1BHVTDMD8BSDZF4ABB1PN0H5T3B","A324M5ZRHX7RUV","3UAU495MIIEABANG75FBFHDC9WUUOI","","null","<img src=""img/land6.png"" style=""width:200px; border:14px solid green;"">","null","","","","","","","",""
"","image-keyboard-response","182","95711","0.0-269.0","39U1BHVTDMD8BSDZF4ABB1PN0H5T3B","A324M5ZRHX7RUV","3UAU495MIIEABANG75FBFHDC9WUUOI","","608.3000000715256","img/land5.png","74","608.8999999761581","1","1","false","1","1,0.5,0.5,0.5,1,0.5,0.5,0.5,1","",""
"","html-keyboard-response","183","96012","0.0-270.0","39U1BHVTDMD8BSDZF4ABB1PN0H5T3B","A324M5ZRHX7RUV","3UAU495MIIEABANG75FBFHDC9WUUOI","","null","<img src=""img/land5.png"" style=""width:200px; border:14px solid green;"">","null","","","","","","","",""
"","html-keyboard-response","184","97736","0.0-272.0","39U1BHVTDMD8BSDZF4ABB1PN0H5T3B","A324M5ZRHX7RUV","3UAU495MIIEABANG75FBFHDC9WUUOI","","","","","","","","","","","",""
"","image-keyboard-response","185","98718","0.0-273.0","39U1BHVTDMD8BSDZF4ABB1PN0H5T3B","A324M5ZRHX7RUV","3UAU495MIIEABANG75FBFHDC9WUUOI","","980.5","img/land2.png","74","981.5","1","1","false","1","1,1,0,0,1,1,1,0,1","",""
"","html-keyboard-response","186","99019","0.0-274.0","39U1BHVTDMD8BSDZF4ABB1PN0H5T3B","A324M5ZRHX7RUV","3UAU495MIIEABANG75FBFHDC9WUUOI","","null","<img src=""img/land2.png"" style=""width:200px; border:14px solid green;"">","null","","","","","","","",""
"","image-keyboard-response","187","99565","0.0-276.0","39U1BHVTDMD8BSDZF4ABB1PN0H5T3B","A324M5ZRHX7RUV","3UAU495MIIEABANG75FBFHDC9WUUOI","","544.6999999284744","img/land4.png","75","545.5","2","1","false","2","1,1,0,0,1,1,1,0,1","",""
"","html-keyboard-response","188","99866","0.0-277.0","39U1BHVTDMD8BSDZF4ABB1PN0H5T3B","A324M5ZRHX7RUV","3UAU495MIIEABANG75FBFHDC9WUUOI","","null","<img src=""img/land4.png"" style=""width:200px; border:14px solid green;"">","null","","","","","","","",""
"","image-keyboard-response","189","100451","0.0-279.0","39U1BHVTDMD8BSDZF4ABB1PN0H5T3B","A324M5ZRHX7RUV","3UAU495MIIEABANG75FBFHDC9WUUOI","","584.3000000715256","img/land2.png","74","585","1","1","false","1","1,1,0,0,1,1,1,0,1","",""
"","html-keyboard-response","190","100753","0.0-280.0","39U1BHVTDMD8BSDZF4ABB1PN0H5T3B","A324M5ZRHX7RUV","3UAU495MIIEABANG75FBFHDC9WUUOI","","null","<img src=""img/land2.png"" style=""width:200px; border:14px solid green;"">","null","","","","","","","",""
"","image-keyboard-response","191","101255","0.0-282.0","39U1BHVTDMD8BSDZF4ABB1PN0H5T3B","A324M5ZRHX7RUV","3UAU495MIIEABANG75FBFHDC9WUUOI","","500.60000002384186","img/land4.png","75","501.39999997615814","2","1","false","2","1,1,0,0,1,1,1,0,1","",""
"","html-keyboard-response","192","101557","0.0-283.0","39U1BHVTDMD8BSDZF4ABB1PN0H5T3B","A324M5ZRHX7RUV","3UAU495MIIEABANG75FBFHDC9WUUOI","","null","<img src=""img/land4.png"" style=""width:200px; border:14px solid green;"">","null","","","","","","","",""
"","image-keyboard-response","193","102110","0.0-285.0","39U1BHVTDMD8BSDZF4ABB1PN0H5T3B","A324M5ZRHX7RUV","3UAU495MIIEABANG75FBFHDC9WUUOI","","552.2000000476837","img/land4.png","74","552.7999999523163","1","0","false","2","1,1,0,0,1,1,1,0,1","",""
"","html-keyboard-response","194","102411","0.0-286.0","39U1BHVTDMD8BSDZF4ABB1PN0H5T3B","A324M5ZRHX7RUV","3UAU495MIIEABANG75FBFHDC9WUUOI","","null","<img src=""img/land4.png"" style=""width:200px;border:14px solid red;"">","null","","","","","","","",""
"","image-keyboard-response","195","102555","0.0-288.0","39U1BHVTDMD8BSDZF4ABB1PN0H5T3B","A324M5ZRHX7RUV","3UAU495MIIEABANG75FBFHDC9WUUOI","","142.5","img/land2.png","75","143.09999990463257","2","1","false","1","1,1,0,0,1,1,1,0,1","",""
"","html-keyboard-response","196","102856","0.0-289.0","39U1BHVTDMD8BSDZF4ABB1PN0H5T3B","A324M5ZRHX7RUV","3UAU495MIIEABANG75FBFHDC9WUUOI","","null","<img src=""img/land2.png"" style=""width:200px; border:14px solid green;"">","null","","","","","","","",""
"","image-keyboard-response","197","103497","0.0-291.0","39U1BHVTDMD8BSDZF4ABB1PN0H5T3B","A324M5ZRHX7RUV","3UAU495MIIEABANG75FBFHDC9WUUOI","","640.3999999761581","img/land2.png","74","641","1","1","false","1","1,1,0,0,1,1,1,0,1","",""
"","html-keyboard-response","198","103799","0.0-292.0","39U1BHVTDMD8BSDZF4ABB1PN0H5T3B","A324M5ZRHX7RUV","3UAU495MIIEABANG75FBFHDC9WUUOI","","null","<img src=""img/land2.png"" style=""width:200px; border:14px solid green;"">","null","","","","","","","",""
"","image-keyboard-response","199","104274","0.0-294.0","39U1BHVTDMD8BSDZF4ABB1PN0H5T3B","A324M5ZRHX7RUV","3UAU495MIIEABANG75FBFHDC9WUUOI","","474.5","img/land2.png","74","475.2999999523163","1","1","false","1","1,1,0,0,1,1,1,0,1","",""
"","html-keyboard-response","200","104577","0.0-295.0","39U1BHVTDMD8BSDZF4ABB1PN0H5T3B","A324M5ZRHX7RUV","3UAU495MIIEABANG75FBFHDC9WUUOI","","null","<img src=""img/land2.png"" style=""width:200px; border:14px solid green;"">","null","","","","","","","",""
"","image-keyboard-response","201","105043","0.0-297.0","39U1BHVTDMD8BSDZF4ABB1PN0H5T3B","A324M5ZRHX7RUV","3UAU495MIIEABANG75FBFHDC9WUUOI","","464.90000009536743","img/land2.png","74","465.60000002384186","1","1","false","1","1,1,0,0,1,1,1,0,1","",""
"","html-keyboard-response","202","105344","0.0-298.0","39U1BHVTDMD8BSDZF4ABB1PN0H5T3B","A324M5ZRHX7RUV","3UAU495MIIEABANG75FBFHDC9WUUOI","","null","<img src=""img/land2.png"" style=""width:200px; border:14px solid green;"">","null","","","","","","","",""
"","image-keyboard-response","203","105915","0.0-300.0","39U1BHVTDMD8BSDZF4ABB1PN0H5T3B","A324M5ZRHX7RUV","3UAU495MIIEABANG75FBFHDC9WUUOI","","570.5999999046326","img/land1.png","75","571.1000000238419","2","0","false","3","1,1,0,0,1,1,1,0,1","",""
"","html-keyboard-response","204","106224","0.0-301.0","39U1BHVTDMD8BSDZF4ABB1PN0H5T3B","A324M5ZRHX7RUV","3UAU495MIIEABANG75FBFHDC9WUUOI","","null","<img src=""img/land1.png"" style=""width:200px;border:14px solid red;"">","null","","","","","","","",""
"","image-keyboard-response","205","106317","0.0-303.0","39U1BHVTDMD8BSDZF4ABB1PN0H5T3B","A324M5ZRHX7RUV","3UAU495MIIEABANG75FBFHDC9WUUOI","","91.89999997615814","img/land4.png","76","92.60000002384186","3","1","false","2","1,1,0,0,1,1,1,0,1","",""
"","html-keyboard-response","206","106620","0.0-304.0","39U1BHVTDMD8BSDZF4ABB1PN0H5T3B","A324M5ZRHX7RUV","3UAU495MIIEABANG75FBFHDC9WUUOI","","null","<img src=""img/land4.png"" style=""width:200px; border:14px solid green;"">","null","","","","","","","",""
"","image-keyboard-response","207","107104","0.0-306.0","39U1BHVTDMD8BSDZF4ABB1PN0H5T3B","A324M5ZRHX7RUV","3UAU495MIIEABANG75FBFHDC9WUUOI","","482.7000000476837","img/land4.png","75","483.2999999523163","2","1","false","2","1,1,0,0,1,1,1,0,1","",""
"","html-keyboard-response","208","107406","0.0-307.0","39U1BHVTDMD8BSDZF4ABB1PN0H5T3B","A324M5ZRHX7RUV","3UAU495MIIEABANG75FBFHDC9WUUOI","","null","<img src=""img/land4.png"" style=""width:200px; border:14px solid green;"">","null","","","","","","","",""
"","image-keyboard-response","209","107791","0.0-309.0","39U1BHVTDMD8BSDZF4ABB1PN0H5T3B","A324M5ZRHX7RUV","3UAU495MIIEABANG75FBFHDC9WUUOI","","383.10000002384186","img/land4.png","75","384.2000000476837","2","1","false","2","1,1,0,0,1,1,1,0,1","",""
"","html-keyboard-response","210","108093","0.0-310.0","39U1BHVTDMD8BSDZF4ABB1PN0H5T3B","A324M5ZRHX7RUV","3UAU495MIIEABANG75FBFHDC9WUUOI","","null","<img src=""img/land4.png"" style=""width:200px; border:14px solid green;"">","null","","","","","","","",""
"","image-keyboard-response","211","108487","0.0-312.0","39U1BHVTDMD8BSDZF4ABB1PN0H5T3B","A324M5ZRHX7RUV","3UAU495MIIEABANG75FBFHDC9WUUOI","","392.89999997615814","img/land4.png","75","393.60000002384186","2","1","false","2","1,1,0,0,1,1,1,0,1","",""
"","html-keyboard-response","212","108789","0.0-313.0","39U1BHVTDMD8BSDZF4ABB1PN0H5T3B","A324M5ZRHX7RUV","3UAU495MIIEABANG75FBFHDC9WUUOI","","null","<img src=""img/land4.png"" style=""width:200px; border:14px solid green;"">","null","","","","","","","",""
"","image-keyboard-response","213","109139","0.0-315.0","39U1BHVTDMD8BSDZF4ABB1PN0H5T3B","A324M5ZRHX7RUV","3UAU495MIIEABANG75FBFHDC9WUUOI","","349.6999999284744","img/land4.png","75","350.39999997615814","2","1","false","2","1,1,0,0,1,1,1,0,1","",""
"","html-keyboard-response","214","109441","0.0-316.0","39U1BHVTDMD8BSDZF4ABB1PN0H5T3B","A324M5ZRHX7RUV","3UAU495MIIEABANG75FBFHDC9WUUOI","","null","<img src=""img/land4.png"" style=""width:200px; border:14px solid green;"">","null","","","","","","","",""
"","image-keyboard-response","215","109915","0.0-318.0","39U1BHVTDMD8BSDZF4ABB1PN0H5T3B","A324M5ZRHX7RUV","3UAU495MIIEABANG75FBFHDC9WUUOI","","472.5","img/land2.png","74","474.3000000715256","1","1","false","1","1,1,0,0,1,1,1,0,1","",""
"","html-keyboard-response","216","110217","0.0-319.0","39U1BHVTDMD8BSDZF4ABB1PN0H5T3B","A324M5ZRHX7RUV","3UAU495MIIEABANG75FBFHDC9WUUOI","","null","<img src=""img/land2.png"" style=""width:200px; border:14px solid green;"">","null","","","","","","","",""
"","image-keyboard-response","217","110705","0.0-321.0","39U1BHVTDMD8BSDZF4ABB1PN0H5T3B","A324M5ZRHX7RUV","3UAU495MIIEABANG75FBFHDC9WUUOI","","485.89999997615814","img/land4.png","75","486.59999990463257","2","1","false","2","1,1,0,0,1,1,1,0,1","",""
"","html-keyboard-response","218","111006","0.0-322.0","39U1BHVTDMD8BSDZF4ABB1PN0H5T3B","A324M5ZRHX7RUV","3UAU495MIIEABANG75FBFHDC9WUUOI","","null","<img src=""img/land4.png"" style=""width:200px; border:14px solid green;"">","null","","","","","","","",""
"","image-keyboard-response","219","111550","0.0-324.0","39U1BHVTDMD8BSDZF4ABB1PN0H5T3B","A324M5ZRHX7RUV","3UAU495MIIEABANG75FBFHDC9WUUOI","","542.2000000476837","img/land1.png","76","543.2999999523163","3","1","false","3","1,1,0,0,1,1,1,0,1","",""
"","html-keyboard-response","220","111852","0.0-325.0","39U1BHVTDMD8BSDZF4ABB1PN0H5T3B","A324M5ZRHX7RUV","3UAU495MIIEABANG75FBFHDC9WUUOI","","null","<img src=""img/land1.png"" style=""width:200px; border:14px solid green;"">","null","","","","","","","",""
"","image-keyboard-response","221","112599","0.0-327.0","39U1BHVTDMD8BSDZF4ABB1PN0H5T3B","A324M5ZRHX7RUV","3UAU495MIIEABANG75FBFHDC9WUUOI","","745.5","img/land4.png","75","746.1999999284744","2","1","false","2","1,1,0,0,1,1,1,0,1","",""
"","html-keyboard-response","222","112900","0.0-328.0","39U1BHVTDMD8BSDZF4ABB1PN0H5T3B","A324M5ZRHX7RUV","3UAU495MIIEABANG75FBFHDC9WUUOI","","null","<img src=""img/land4.png"" style=""width:200px; border:14px solid green;"">","null","","","","","","","",""
"","image-keyboard-response","223","113283","0.0-330.0","39U1BHVTDMD8BSDZF4ABB1PN0H5T3B","A324M5ZRHX7RUV","3UAU495MIIEABANG75FBFHDC9WUUOI","","381.59999990463257","img/land4.png","75","382.2000000476837","2","1","false","2","1,1,0,0,1,1,1,0,1","",""
"","html-keyboard-response","224","113584","0.0-331.0","39U1BHVTDMD8BSDZF4ABB1PN0H5T3B","A324M5ZRHX7RUV","3UAU495MIIEABANG75FBFHDC9WUUOI","","null","<img src=""img/land4.png"" style=""width:200px; border:14px solid green;"">","null","","","","","","","",""
"","image-keyboard-response","225","114194","0.0-333.0","39U1BHVTDMD8BSDZF4ABB1PN0H5T3B","A324M5ZRHX7RUV","3UAU495MIIEABANG75FBFHDC9WUUOI","","608.5","img/land2.png","74","609.1000000238419","1","1","false","1","1,1,0,0,1,1,1,0,1","",""
"","html-keyboard-response","226","114496","0.0-334.0","39U1BHVTDMD8BSDZF4ABB1PN0H5T3B","A324M5ZRHX7RUV","3UAU495MIIEABANG75FBFHDC9WUUOI","","null","<img src=""img/land2.png"" style=""width:200px; border:14px solid green;"">","null","","","","","","","",""
"","image-keyboard-response","227","114869","0.0-336.0","39U1BHVTDMD8BSDZF4ABB1PN0H5T3B","A324M5ZRHX7RUV","3UAU495MIIEABANG75FBFHDC9WUUOI","","372.10000002384186","img/land2.png","74","373.10000002384186","1","1","false","1","1,1,0,0,1,1,1,0,1","",""
"","html-keyboard-response","228","115172","0.0-337.0","39U1BHVTDMD8BSDZF4ABB1PN0H5T3B","A324M5ZRHX7RUV","3UAU495MIIEABANG75FBFHDC9WUUOI","","null","<img src=""img/land2.png"" style=""width:200px; border:14px solid green;"">","null","","","","","","","",""
"","image-keyboard-response","229","115544","0.0-339.0","39U1BHVTDMD8BSDZF4ABB1PN0H5T3B","A324M5ZRHX7RUV","3UAU495MIIEABANG75FBFHDC9WUUOI","","371.5","img/land2.png","74","372.2999999523163","1","1","false","1","1,1,0,0,1,1,1,0,1","",""
"","html-keyboard-response","230","115846","0.0-340.0","39U1BHVTDMD8BSDZF4ABB1PN0H5T3B","A324M5ZRHX7RUV","3UAU495MIIEABANG75FBFHDC9WUUOI","","null","<img src=""img/land2.png"" style=""width:200px; border:14px solid green;"">","null","","","","","","","",""
"","image-keyboard-response","231","116239","0.0-342.0","39U1BHVTDMD8BSDZF4ABB1PN0H5T3B","A324M5ZRHX7RUV","3UAU495MIIEABANG75FBFHDC9WUUOI","","392.39999997615814","img/land2.png","74","393.10000002384186","1","1","false","1","1,1,0,0,1,1,1,0,1","",""
"","html-keyboard-response","232","116541","0.0-343.0","39U1BHVTDMD8BSDZF4ABB1PN0H5T3B","A324M5ZRHX7RUV","3UAU495MIIEABANG75FBFHDC9WUUOI","","null","<img src=""img/land2.png"" style=""width:200px; border:14px solid green;"">","null","","","","","","","",""
"","image-keyboard-response","233","116891","0.0-345.0","39U1BHVTDMD8BSDZF4ABB1PN0H5T3B","A324M5ZRHX7RUV","3UAU495MIIEABANG75FBFHDC9WUUOI","","348.09999990463257","img/land2.png","74","349.3000000715256","1","1","false","1","1,1,0,0,1,1,1,0,1","",""
"","html-keyboard-response","234","117192","0.0-346.0","39U1BHVTDMD8BSDZF4ABB1PN0H5T3B","A324M5ZRHX7RUV","3UAU495MIIEABANG75FBFHDC9WUUOI","","null","<img src=""img/land2.png"" style=""width:200px; border:14px solid green;"">","null","","","","","","","",""
"","image-keyboard-response","235","117822","0.0-348.0","39U1BHVTDMD8BSDZF4ABB1PN0H5T3B","A324M5ZRHX7RUV","3UAU495MIIEABANG75FBFHDC9WUUOI","","627.8999999761581","img/land1.png","76","628.7999999523163","3","1","false","3","1,1,0,0,1,1,1,0,1","",""
"","html-keyboard-response","236","118124","0.0-349.0","39U1BHVTDMD8BSDZF4ABB1PN0H5T3B","A324M5ZRHX7RUV","3UAU495MIIEABANG75FBFHDC9WUUOI","","null","<img src=""img/land1.png"" style=""width:200px; border:14px solid green;"">","null","","","","","","","",""
"","image-keyboard-response","237","118679","0.0-351.0","39U1BHVTDMD8BSDZF4ABB1PN0H5T3B","A324M5ZRHX7RUV","3UAU495MIIEABANG75FBFHDC9WUUOI","","553.6000000238419","img/land4.png","75","554.2999999523163","2","1","false","2","1,1,0,0,1,1,1,0,1","",""
"","html-keyboard-response","238","118980","0.0-352.0","39U1BHVTDMD8BSDZF4ABB1PN0H5T3B","A324M5ZRHX7RUV","3UAU495MIIEABANG75FBFHDC9WUUOI","","null","<img src=""img/land4.png"" style=""width:200px; border:14px solid green;"">","null","","","","","","","",""
"","image-keyboard-response","239","119381","0.0-354.0","39U1BHVTDMD8BSDZF4ABB1PN0H5T3B","A324M5ZRHX7RUV","3UAU495MIIEABANG75FBFHDC9WUUOI","","398.39999997615814","img/land4.png","75","400","2","1","false","2","1,1,0,0,1,1,1,0,1","",""
"","html-keyboard-response","240","119683","0.0-355.0","39U1BHVTDMD8BSDZF4ABB1PN0H5T3B","A324M5ZRHX7RUV","3UAU495MIIEABANG75FBFHDC9WUUOI","","null","<img src=""img/land4.png"" style=""width:200px; border:14px solid green;"">","null","","","","","","","",""
"","image-keyboard-response","241","120219","0.0-357.0","39U1BHVTDMD8BSDZF4ABB1PN0H5T3B","A324M5ZRHX7RUV","3UAU495MIIEABANG75FBFHDC9WUUOI","","533.8999999761581","img/land1.png","76","535.3999999761581","3","1","false","3","1,1,0,0,1,1,1,0,1","",""
"","html-keyboard-response","242","120532","0.0-358.0","39U1BHVTDMD8BSDZF4ABB1PN0H5T3B","A324M5ZRHX7RUV","3UAU495MIIEABANG75FBFHDC9WUUOI","","null","<img src=""img/land1.png"" style=""width:200px; border:14px solid green;"">","null","","","","","","","",""
"","image-keyboard-response","243","120956","0.0-360.0","39U1BHVTDMD8BSDZF4ABB1PN0H5T3B","A324M5ZRHX7RUV","3UAU495MIIEABANG75FBFHDC9WUUOI","","422.89999997615814","img/land4.png","75","423.90000009536743","2","1","false","2","1,1,0,0,1,1,1,0,1","",""
"","html-keyboard-response","244","121257","0.0-361.0","39U1BHVTDMD8BSDZF4ABB1PN0H5T3B","A324M5ZRHX7RUV","3UAU495MIIEABANG75FBFHDC9WUUOI","","null","<img src=""img/land4.png"" style=""width:200px; border:14px solid green;"">","null","","","","","","","",""
"","image-keyboard-response","245","121661","0.0-363.0","39U1BHVTDMD8BSDZF4ABB1PN0H5T3B","A324M5ZRHX7RUV","3UAU495MIIEABANG75FBFHDC9WUUOI","","402.7999999523163","img/land4.png","75","403.7000000476837","2","1","false","2","1,1,0,0,1,1,1,0,1","",""
"","html-keyboard-response","246","121963","0.0-364.0","39U1BHVTDMD8BSDZF4ABB1PN0H5T3B","A324M5ZRHX7RUV","3UAU495MIIEABANG75FBFHDC9WUUOI","","null","<img src=""img/land4.png"" style=""width:200px; border:14px solid green;"">","null","","","","","","","",""
"","image-keyboard-response","247","122395","0.0-366.0","39U1BHVTDMD8BSDZF4ABB1PN0H5T3B","A324M5ZRHX7RUV","3UAU495MIIEABANG75FBFHDC9WUUOI","","431","img/land2.png","76","431.7000000476837","3","0","false","1","1,1,0,0,1,1,1,0,1","",""
"","html-keyboard-response","248","122697","0.0-367.0","39U1BHVTDMD8BSDZF4ABB1PN0H5T3B","A324M5ZRHX7RUV","3UAU495MIIEABANG75FBFHDC9WUUOI","","null","<img src=""img/land2.png"" style=""width:200px;border:14px solid red;"">","null","","","","","","","",""
"","image-keyboard-response","249","123326","0.0-369.0","39U1BHVTDMD8BSDZF4ABB1PN0H5T3B","A324M5ZRHX7RUV","3UAU495MIIEABANG75FBFHDC9WUUOI","","628.1000000238419","img/land1.png","76","628.7999999523163","3","1","false","3","1,1,0,0,1,1,1,0,1","",""
"","html-keyboard-response","250","123629","0.0-370.0","39U1BHVTDMD8BSDZF4ABB1PN0H5T3B","A324M5ZRHX7RUV","3UAU495MIIEABANG75FBFHDC9WUUOI","","null","<img src=""img/land1.png"" style=""width:200px; border:14px solid green;"">","null","","","","","","","",""
"","image-keyboard-response","251","124386","0.0-372.0","39U1BHVTDMD8BSDZF4ABB1PN0H5T3B","A324M5ZRHX7RUV","3UAU495MIIEABANG75FBFHDC9WUUOI","","756.1000000238419","img/land2.png","74","757","1","1","false","1","1,1,0,0,1,1,1,0,1","",""
"","html-keyboard-response","252","124688","0.0-373.0","39U1BHVTDMD8BSDZF4ABB1PN0H5T3B","A324M5ZRHX7RUV","3UAU495MIIEABANG75FBFHDC9WUUOI","","null","<img src=""img/land2.png"" style=""width:200px; border:14px solid green;"">","null","","","","","","","",""
"","image-keyboard-response","253","125522","0.0-375.0","39U1BHVTDMD8BSDZF4ABB1PN0H5T3B","A324M5ZRHX7RUV","3UAU495MIIEABANG75FBFHDC9WUUOI","","833.5","img/land4.png","75","834.2000000476837","2","1","false","2","1,1,0,0,1,1,1,0,1","",""
"","html-keyboard-response","254","125824","0.0-376.0","39U1BHVTDMD8BSDZF4ABB1PN0H5T3B","A324M5ZRHX7RUV","3UAU495MIIEABANG75FBFHDC9WUUOI","","null","<img src=""img/land4.png"" style=""width:200px; border:14px solid green;"">","null","","","","","","","",""
"","image-keyboard-response","255","126391","0.0-378.0","39U1BHVTDMD8BSDZF4ABB1PN0H5T3B","A324M5ZRHX7RUV","3UAU495MIIEABANG75FBFHDC9WUUOI","","566.1000000238419","img/land2.png","76","566.7999999523163","3","0","false","1","1,1,0,0,1,1,1,0,1","",""
"","html-keyboard-response","256","126694","0.0-379.0","39U1BHVTDMD8BSDZF4ABB1PN0H5T3B","A324M5ZRHX7RUV","3UAU495MIIEABANG75FBFHDC9WUUOI","","null","<img src=""img/land2.png"" style=""width:200px;border:14px solid red;"">","null","","","","","","","",""
"","image-keyboard-response","257","127356","0.0-381.0","39U1BHVTDMD8BSDZF4ABB1PN0H5T3B","A324M5ZRHX7RUV","3UAU495MIIEABANG75FBFHDC9WUUOI","","661.3000000715256","img/land1.png","76","662","3","1","false","3","1,1,0,0,1,1,1,0,1","",""
"","html-keyboard-response","258","127659","0.0-382.0","39U1BHVTDMD8BSDZF4ABB1PN0H5T3B","A324M5ZRHX7RUV","3UAU495MIIEABANG75FBFHDC9WUUOI","","null","<img src=""img/land1.png"" style=""width:200px; border:14px solid green;"">","null","","","","","","","",""
"","image-keyboard-response","259","128052","0.0-384.0","39U1BHVTDMD8BSDZF4ABB1PN0H5T3B","A324M5ZRHX7RUV","3UAU495MIIEABANG75FBFHDC9WUUOI","","392","img/land1.png","76","393","3","1","false","3","1,1,0,0,1,1,1,0,1","",""
"","html-keyboard-response","260","128353","0.0-385.0","39U1BHVTDMD8BSDZF4ABB1PN0H5T3B","A324M5ZRHX7RUV","3UAU495MIIEABANG75FBFHDC9WUUOI","","null","<img src=""img/land1.png"" style=""width:200px; border:14px solid green;"">","null","","","","","","","",""
"","image-keyboard-response","261","128997","0.0-387.0","39U1BHVTDMD8BSDZF4ABB1PN0H5T3B","A324M5ZRHX7RUV","3UAU495MIIEABANG75FBFHDC9WUUOI","","642.2000000476837","img/land4.png","75","643","2","1","false","2","1,1,0,0,1,1,1,0,1","",""
"","html-keyboard-response","262","129299","0.0-388.0","39U1BHVTDMD8BSDZF4ABB1PN0H5T3B","A324M5ZRHX7RUV","3UAU495MIIEABANG75FBFHDC9WUUOI","","null","<img src=""img/land4.png"" style=""width:200px; border:14px solid green;"">","null","","","","","","","",""
"","image-keyboard-response","263","129666","0.0-390.0","39U1BHVTDMD8BSDZF4ABB1PN0H5T3B","A324M5ZRHX7RUV","3UAU495MIIEABANG75FBFHDC9WUUOI","","365.7999999523163","img/land4.png","75","366.89999997615814","2","1","false","2","1,1,0,0,1,1,1,0,1","",""
"","html-keyboard-response","264","129967","0.0-391.0","39U1BHVTDMD8BSDZF4ABB1PN0H5T3B","A324M5ZRHX7RUV","3UAU495MIIEABANG75FBFHDC9WUUOI","","null","<img src=""img/land4.png"" style=""width:200px; border:14px solid green;"">","null","","","","","","","",""
"","image-keyboard-response","265","130527","0.0-393.0","39U1BHVTDMD8BSDZF4ABB1PN0H5T3B","A324M5ZRHX7RUV","3UAU495MIIEABANG75FBFHDC9WUUOI","","558.8999999761581","img/land4.png","75","559.6999999284744","2","1","false","2","1,1,0,0,1,1,1,0,1","",""
"","html-keyboard-response","266","130830","0.0-394.0","39U1BHVTDMD8BSDZF4ABB1PN0H5T3B","A324M5ZRHX7RUV","3UAU495MIIEABANG75FBFHDC9WUUOI","","null","<img src=""img/land4.png"" style=""width:200px; border:14px solid green;"">","null","","","","","","","",""
"","image-keyboard-response","267","131465","0.0-396.0","39U1BHVTDMD8BSDZF4ABB1PN0H5T3B","A324M5ZRHX7RUV","3UAU495MIIEABANG75FBFHDC9WUUOI","","634.1999999284744","img/land1.png","76","634.8000000715256","3","1","false","3","1,1,0,0,1,1,1,0,1","",""
"","html-keyboard-response","268","131766","0.0-397.0","39U1BHVTDMD8BSDZF4ABB1PN0H5T3B","A324M5ZRHX7RUV","3UAU495MIIEABANG75FBFHDC9WUUOI","","null","<img src=""img/land1.png"" style=""width:200px; border:14px solid green;"">","null","","","","","","","",""
"","image-keyboard-response","269","132145","0.0-399.0","39U1BHVTDMD8BSDZF4ABB1PN0H5T3B","A324M5ZRHX7RUV","3UAU495MIIEABANG75FBFHDC9WUUOI","","377.10000002384186","img/land1.png","76","377.8000000715256","3","1","false","3","1,1,0,0,1,1,1,0,1","",""
"","html-keyboard-response","270","132447","0.0-400.0","39U1BHVTDMD8BSDZF4ABB1PN0H5T3B","A324M5ZRHX7RUV","3UAU495MIIEABANG75FBFHDC9WUUOI","","null","<img src=""img/land1.png"" style=""width:200px; border:14px solid green;"">","null","","","","","","","",""
"","image-keyboard-response","271","133020","0.0-402.0","39U1BHVTDMD8BSDZF4ABB1PN0H5T3B","A324M5ZRHX7RUV","3UAU495MIIEABANG75FBFHDC9WUUOI","","571.7000000476837","img/land4.png","75","572.2999999523163","2","1","false","2","1,1,0,0,1,1,1,0,1","",""
"","html-keyboard-response","272","133327","0.0-403.0","39U1BHVTDMD8BSDZF4ABB1PN0H5T3B","A324M5ZRHX7RUV","3UAU495MIIEABANG75FBFHDC9WUUOI","","null","<img src=""img/land4.png"" style=""width:200px; border:14px solid green;"">","null","","","","","","","",""
"","image-keyboard-response","273","133923","0.0-405.0","39U1BHVTDMD8BSDZF4ABB1PN0H5T3B","A324M5ZRHX7RUV","3UAU495MIIEABANG75FBFHDC9WUUOI","","594.8999999761581","img/land1.png","76","595.5","3","1","false","3","1,1,0,0,1,1,1,0,1","",""
"","html-keyboard-response","274","134224","0.0-406.0","39U1BHVTDMD8BSDZF4ABB1PN0H5T3B","A324M5ZRHX7RUV","3UAU495MIIEABANG75FBFHDC9WUUOI","","null","<img src=""img/land1.png"" style=""width:200px; border:14px solid green;"">","null","","","","","","","",""
"","image-keyboard-response","275","134744","0.0-408.0","39U1BHVTDMD8BSDZF4ABB1PN0H5T3B","A324M5ZRHX7RUV","3UAU495MIIEABANG75FBFHDC9WUUOI","","519.1000000238419","img/land4.png","75","519.9000000953674","2","1","false","2","1,1,0,0,1,1,1,0,1","",""
"","html-keyboard-response","276","135046","0.0-409.0","39U1BHVTDMD8BSDZF4ABB1PN0H5T3B","A324M5ZRHX7RUV","3UAU495MIIEABANG75FBFHDC9WUUOI","","null","<img src=""img/land4.png"" style=""width:200px; border:14px solid green;"">","null","","","","","","","",""
"","image-keyboard-response","277","135581","0.0-411.0","39U1BHVTDMD8BSDZF4ABB1PN0H5T3B","A324M5ZRHX7RUV","3UAU495MIIEABANG75FBFHDC9WUUOI","","532.5","img/land2.png","74","533.1999999284744","1","1","false","1","1,1,0,0,1,1,1,0,1","",""
"","html-keyboard-response","278","135882","0.0-412.0","39U1BHVTDMD8BSDZF4ABB1PN0H5T3B","A324M5ZRHX7RUV","3UAU495MIIEABANG75FBFHDC9WUUOI","","null","<img src=""img/land2.png"" style=""width:200px; border:14px solid green;"">","null","","","","","","","",""
"","image-keyboard-response","279","136493","0.0-414.0","39U1BHVTDMD8BSDZF4ABB1PN0H5T3B","A324M5ZRHX7RUV","3UAU495MIIEABANG75FBFHDC9WUUOI","","610.1000000238419","img/land1.png","76","610.7000000476837","3","1","false","3","1,1,0,0,1,1,1,0,1","",""
"","html-keyboard-response","280","136795","0.0-415.0","39U1BHVTDMD8BSDZF4ABB1PN0H5T3B","A324M5ZRHX7RUV","3UAU495MIIEABANG75FBFHDC9WUUOI","","null","<img src=""img/land1.png"" style=""width:200px; border:14px solid green;"">","null","","","","","","","",""
"","image-keyboard-response","281","137356","0.0-417.0","39U1BHVTDMD8BSDZF4ABB1PN0H5T3B","A324M5ZRHX7RUV","3UAU495MIIEABANG75FBFHDC9WUUOI","","559.6000000238419","img/land2.png","74","560.2000000476837","1","1","false","1","1,1,0,0,1,1,1,0,1","",""
"","html-keyboard-response","282","137658","0.0-418.0","39U1BHVTDMD8BSDZF4ABB1PN0H5T3B","A324M5ZRHX7RUV","3UAU495MIIEABANG75FBFHDC9WUUOI","","null","<img src=""img/land2.png"" style=""width:200px; border:14px solid green;"">","null","","","","","","","",""
"","image-keyboard-response","283","138265","0.0-420.0","39U1BHVTDMD8BSDZF4ABB1PN0H5T3B","A324M5ZRHX7RUV","3UAU495MIIEABANG75FBFHDC9WUUOI","","605.7000000476837","img/land1.png","76","606.3999999761581","3","1","false","3","1,1,0,0,1,1,1,0,1","",""
"","html-keyboard-response","284","138566","0.0-421.0","39U1BHVTDMD8BSDZF4ABB1PN0H5T3B","A324M5ZRHX7RUV","3UAU495MIIEABANG75FBFHDC9WUUOI","","null","<img src=""img/land1.png"" style=""width:200px; border:14px solid green;"">","null","","","","","","","",""
"","image-keyboard-response","285","139148","0.0-423.0","39U1BHVTDMD8BSDZF4ABB1PN0H5T3B","A324M5ZRHX7RUV","3UAU495MIIEABANG75FBFHDC9WUUOI","","580.6000000238419","img/land2.png","74","581.2999999523163","1","1","false","1","1,1,0,0,1,1,1,0,1","",""
"","html-keyboard-response","286","139450","0.0-424.0","39U1BHVTDMD8BSDZF4ABB1PN0H5T3B","A324M5ZRHX7RUV","3UAU495MIIEABANG75FBFHDC9WUUOI","","null","<img src=""img/land2.png"" style=""width:200px; border:14px solid green;"">","null","","","","","","","",""
"","image-keyboard-response","287","139927","0.0-426.0","39U1BHVTDMD8BSDZF4ABB1PN0H5T3B","A324M5ZRHX7RUV","3UAU495MIIEABANG75FBFHDC9WUUOI","","475.7000000476837","img/land2.png","74","476.39999997615814","1","1","false","1","1,1,0,0,1,1,1,0,1","",""
"","html-keyboard-response","288","140229","0.0-427.0","39U1BHVTDMD8BSDZF4ABB1PN0H5T3B","A324M5ZRHX7RUV","3UAU495MIIEABANG75FBFHDC9WUUOI","","null","<img src=""img/land2.png"" style=""width:200px; border:14px solid green;"">","null","","","","","","","",""
"","image-keyboard-response","289","140659","0.0-429.0","39U1BHVTDMD8BSDZF4ABB1PN0H5T3B","A324M5ZRHX7RUV","3UAU495MIIEABANG75FBFHDC9WUUOI","","428.89999997615814","img/land2.png","74","429.7000000476837","1","1","false","1","1,1,0,0,1,1,1,0,1","",""
"","html-keyboard-response","290","140961","0.0-430.0","39U1BHVTDMD8BSDZF4ABB1PN0H5T3B","A324M5ZRHX7RUV","3UAU495MIIEABANG75FBFHDC9WUUOI","","null","<img src=""img/land2.png"" style=""width:200px; border:14px solid green;"">","null","","","","","","","",""
"","image-keyboard-response","291","141663","0.0-432.0","39U1BHVTDMD8BSDZF4ABB1PN0H5T3B","A324M5ZRHX7RUV","3UAU495MIIEABANG75FBFHDC9WUUOI","","701.8000000715256","img/land4.png","76","702.3999999761581","3","1","false","2","1,1,0,0,1,1,1,0,1","",""
"","html-keyboard-response","292","141965","0.0-433.0","39U1BHVTDMD8BSDZF4ABB1PN0H5T3B","A324M5ZRHX7RUV","3UAU495MIIEABANG75FBFHDC9WUUOI","","null","<img src=""img/land4.png"" style=""width:200px; border:14px solid green;"">","null","","","","","","","",""
"","image-keyboard-response","293","142528","0.0-435.0","39U1BHVTDMD8BSDZF4ABB1PN0H5T3B","A324M5ZRHX7RUV","3UAU495MIIEABANG75FBFHDC9WUUOI","","561.5","img/land2.png","75","562.5999999046326","2","1","false","1","1,1,0,0,1,1,1,0,1","",""
"","html-keyboard-response","294","142830","0.0-436.0","39U1BHVTDMD8BSDZF4ABB1PN0H5T3B","A324M5ZRHX7RUV","3UAU495MIIEABANG75FBFHDC9WUUOI","","null","<img src=""img/land2.png"" style=""width:200px; border:14px solid green;"">","null","","","","","","","",""
"","image-keyboard-response","295","143501","0.0-438.0","39U1BHVTDMD8BSDZF4ABB1PN0H5T3B","A324M5ZRHX7RUV","3UAU495MIIEABANG75FBFHDC9WUUOI","","669.6999999284744","img/land4.png","74","670.5","1","0","false","2","1,1,0,0,1,1,1,0,1","",""
"","html-keyboard-response","296","143803","0.0-439.0","39U1BHVTDMD8BSDZF4ABB1PN0H5T3B","A324M5ZRHX7RUV","3UAU495MIIEABANG75FBFHDC9WUUOI","","null","<img src=""img/land4.png"" style=""width:200px;border:14px solid red;"">","null","","","","","","","",""
"","image-keyboard-response","297","143904","0.0-441.0","39U1BHVTDMD8BSDZF4ABB1PN0H5T3B","A324M5ZRHX7RUV","3UAU495MIIEABANG75FBFHDC9WUUOI","","99.69999992847443","img/land1.png","75","100.5","2","0","false","3","1,1,0,0,1,1,1,0,1","",""
"","html-keyboard-response","298","144206","0.0-442.0","39U1BHVTDMD8BSDZF4ABB1PN0H5T3B","A324M5ZRHX7RUV","3UAU495MIIEABANG75FBFHDC9WUUOI","","null","<img src=""img/land1.png"" style=""width:200px;border:14px solid red;"">","null","","","","","","","",""
"","image-keyboard-response","299","144416","0.0-444.0","39U1BHVTDMD8BSDZF4ABB1PN0H5T3B","A324M5ZRHX7RUV","3UAU495MIIEABANG75FBFHDC9WUUOI","","209.5","img/land1.png","76","210","3","1","false","3","1,1,0,0,1,1,1,0,1","",""
"","html-keyboard-response","300","144719","0.0-445.0","39U1BHVTDMD8BSDZF4ABB1PN0H5T3B","A324M5ZRHX7RUV","3UAU495MIIEABANG75FBFHDC9WUUOI","","null","<img src=""img/land1.png"" style=""width:200px; border:14px solid green;"">","null","","","","","","","",""
"","image-keyboard-response","301","145267","0.0-447.0","39U1BHVTDMD8BSDZF4ABB1PN0H5T3B","A324M5ZRHX7RUV","3UAU495MIIEABANG75FBFHDC9WUUOI","","547.5","img/land4.png","75","548.2000000476837","2","1","false","2","1,1,0,0,1,1,1,0,1","",""
"","html-keyboard-response","302","145569","0.0-448.0","39U1BHVTDMD8BSDZF4ABB1PN0H5T3B","A324M5ZRHX7RUV","3UAU495MIIEABANG75FBFHDC9WUUOI","","null","<img src=""img/land4.png"" style=""width:200px; border:14px solid green;"">","null","","","","","","","",""
"","image-keyboard-response","303","146163","0.0-450.0","39U1BHVTDMD8BSDZF4ABB1PN0H5T3B","A324M5ZRHX7RUV","3UAU495MIIEABANG75FBFHDC9WUUOI","","592.8999999761581","img/land2.png","74","593.6999999284744","1","1","false","1","1,1,0,0,1,1,1,0,1","",""
"","html-keyboard-response","304","146464","0.0-451.0","39U1BHVTDMD8BSDZF4ABB1PN0H5T3B","A324M5ZRHX7RUV","3UAU495MIIEABANG75FBFHDC9WUUOI","","null","<img src=""img/land2.png"" style=""width:200px; border:14px solid green;"">","null","","","","","","","",""
"","image-keyboard-response","305","147055","0.0-453.0","39U1BHVTDMD8BSDZF4ABB1PN0H5T3B","A324M5ZRHX7RUV","3UAU495MIIEABANG75FBFHDC9WUUOI","","589.3999999761581","img/land4.png","75","590.5","2","1","false","2","1,1,0,0,1,1,1,0,1","",""
"","html-keyboard-response","306","147356","0.0-454.0","39U1BHVTDMD8BSDZF4ABB1PN0H5T3B","A324M5ZRHX7RUV","3UAU495MIIEABANG75FBFHDC9WUUOI","","null","<img src=""img/land4.png"" style=""width:200px; border:14px solid green;"">","null","","","","","","","",""
"","image-keyboard-response","307","147880","0.0-456.0","39U1BHVTDMD8BSDZF4ABB1PN0H5T3B","A324M5ZRHX7RUV","3UAU495MIIEABANG75FBFHDC9WUUOI","","522.8999999761581","img/land1.png","76","523.7000000476837","3","1","false","3","1,1,0,0,1,1,1,0,1","",""
"","html-keyboard-response","308","148182","0.0-457.0","39U1BHVTDMD8BSDZF4ABB1PN0H5T3B","A324M5ZRHX7RUV","3UAU495MIIEABANG75FBFHDC9WUUOI","","null","<img src=""img/land1.png"" style=""width:200px; border:14px solid green;"">","null","","","","","","","",""
"","image-keyboard-response","309","148604","0.0-459.0","39U1BHVTDMD8BSDZF4ABB1PN0H5T3B","A324M5ZRHX7RUV","3UAU495MIIEABANG75FBFHDC9WUUOI","","421.59999990463257","img/land1.png","76","422.40000009536743","3","1","false","3","1,1,0,0,1,1,1,0,1","",""
"","html-keyboard-response","310","148907","0.0-460.0","39U1BHVTDMD8BSDZF4ABB1PN0H5T3B","A324M5ZRHX7RUV","3UAU495MIIEABANG75FBFHDC9WUUOI","","null","<img src=""img/land1.png"" style=""width:200px; border:14px solid green;"">","null","","","","","","","",""
"","image-keyboard-response","311","149302","0.0-462.0","39U1BHVTDMD8BSDZF4ABB1PN0H5T3B","A324M5ZRHX7RUV","3UAU495MIIEABANG75FBFHDC9WUUOI","","394.60000002384186","img/land1.png","76","395.2999999523163","3","1","false","3","1,1,0,0,1,1,1,0,1","",""
"","html-keyboard-response","312","149604","0.0-463.0","39U1BHVTDMD8BSDZF4ABB1PN0H5T3B","A324M5ZRHX7RUV","3UAU495MIIEABANG75FBFHDC9WUUOI","","null","<img src=""img/land1.png"" style=""width:200px; border:14px solid green;"">","null","","","","","","","",""
"","image-keyboard-response","313","150172","0.0-465.0","39U1BHVTDMD8BSDZF4ABB1PN0H5T3B","A324M5ZRHX7RUV","3UAU495MIIEABANG75FBFHDC9WUUOI","","566.6999999284744","img/land2.png","74","567.5","1","1","false","1","1,1,0,0,1,1,1,0,1","",""
"","html-keyboard-response","314","150474","0.0-466.0","39U1BHVTDMD8BSDZF4ABB1PN0H5T3B","A324M5ZRHX7RUV","3UAU495MIIEABANG75FBFHDC9WUUOI","","null","<img src=""img/land2.png"" style=""width:200px; border:14px solid green;"">","null","","","","","","","",""
"","image-keyboard-response","315","151026","0.0-468.0","39U1BHVTDMD8BSDZF4ABB1PN0H5T3B","A324M5ZRHX7RUV","3UAU495MIIEABANG75FBFHDC9WUUOI","","551.6999999284744","img/land1.png","76","552.2999999523163","3","1","false","3","1,1,0,0,1,1,1,0,1","",""
"","html-keyboard-response","316","151328","0.0-469.0","39U1BHVTDMD8BSDZF4ABB1PN0H5T3B","A324M5ZRHX7RUV","3UAU495MIIEABANG75FBFHDC9WUUOI","","null","<img src=""img/land1.png"" style=""width:200px; border:14px solid green;"">","null","","","","","","","",""
"","image-keyboard-response","317","151697","0.0-471.0","39U1BHVTDMD8BSDZF4ABB1PN0H5T3B","A324M5ZRHX7RUV","3UAU495MIIEABANG75FBFHDC9WUUOI","","367.5","img/land1.png","76","368.2000000476837","3","1","false","3","1,1,0,0,1,1,1,0,1","",""
"","html-keyboard-response","318","151999","0.0-472.0","39U1BHVTDMD8BSDZF4ABB1PN0H5T3B","A324M5ZRHX7RUV","3UAU495MIIEABANG75FBFHDC9WUUOI","","null","<img src=""img/land1.png"" style=""width:200px; border:14px solid green;"">","null","","","","","","","",""
"","image-keyboard-response","319","152348","0.0-474.0","39U1BHVTDMD8BSDZF4ABB1PN0H5T3B","A324M5ZRHX7RUV","3UAU495MIIEABANG75FBFHDC9WUUOI","","347.5","img/land1.png","76","348.10000002384186","3","1","false","3","1,1,0,0,1,1,1,0,1","",""
"","html-keyboard-response","320","152649","0.0-475.0","39U1BHVTDMD8BSDZF4ABB1PN0H5T3B","A324M5ZRHX7RUV","3UAU495MIIEABANG75FBFHDC9WUUOI","","null","<img src=""img/land1.png"" style=""width:200px; border:14px solid green;"">","null","","","","","","","",""
"","image-keyboard-response","321","153028","0.0-477.0","39U1BHVTDMD8BSDZF4ABB1PN0H5T3B","A324M5ZRHX7RUV","3UAU495MIIEABANG75FBFHDC9WUUOI","","377.6999999284744","img/land1.png","76","378.59999990463257","3","1","false","3","1,1,0,0,1,1,1,0,1","",""
"","html-keyboard-response","322","153329","0.0-478.0","39U1BHVTDMD8BSDZF4ABB1PN0H5T3B","A324M5ZRHX7RUV","3UAU495MIIEABANG75FBFHDC9WUUOI","","null","<img src=""img/land1.png"" style=""width:200px; border:14px solid green;"">","null","","","","","","","",""
"","image-keyboard-response","323","153930","0.0-480.0","39U1BHVTDMD8BSDZF4ABB1PN0H5T3B","A324M5ZRHX7RUV","3UAU495MIIEABANG75FBFHDC9WUUOI","","598.5","img/land4.png","75","599.6999999284744","2","1","false","2","1,1,0,0,1,1,1,0,1","",""
"","html-keyboard-response","324","154234","0.0-481.0","39U1BHVTDMD8BSDZF4ABB1PN0H5T3B","A324M5ZRHX7RUV","3UAU495MIIEABANG75FBFHDC9WUUOI","","null","<img src=""img/land4.png"" style=""width:200px; border:14px solid green;"">","null","","","","","","","",""
"","image-keyboard-response","325","154720","0.0-483.0","39U1BHVTDMD8BSDZF4ABB1PN0H5T3B","A324M5ZRHX7RUV","3UAU495MIIEABANG75FBFHDC9WUUOI","","484.39999997615814","img/land1.png","76","485.5","3","1","false","3","1,1,0,0,1,1,1,0,1","",""
"","html-keyboard-response","326","155023","0.0-484.0","39U1BHVTDMD8BSDZF4ABB1PN0H5T3B","A324M5ZRHX7RUV","3UAU495MIIEABANG75FBFHDC9WUUOI","","null","<img src=""img/land1.png"" style=""width:200px; border:14px solid green;"">","null","","","","","","","",""
"","image-keyboard-response","327","155407","0.0-486.0","39U1BHVTDMD8BSDZF4ABB1PN0H5T3B","A324M5ZRHX7RUV","3UAU495MIIEABANG75FBFHDC9WUUOI","","382.2000000476837","img/land1.png","76","383.2000000476837","3","1","false","3","1,1,0,0,1,1,1,0,1","",""
"","html-keyboard-response","328","155708","0.0-487.0","39U1BHVTDMD8BSDZF4ABB1PN0H5T3B","A324M5ZRHX7RUV","3UAU495MIIEABANG75FBFHDC9WUUOI","","null","<img src=""img/land1.png"" style=""width:200px; border:14px solid green;"">","null","","","","","","","",""
"","image-keyboard-response","329","156089","0.0-489.0","39U1BHVTDMD8BSDZF4ABB1PN0H5T3B","A324M5ZRHX7RUV","3UAU495MIIEABANG75FBFHDC9WUUOI","","379.7999999523163","img/land1.png","76","380.7000000476837","3","1","false","3","1,1,0,0,1,1,1,0,1","",""
"","html-keyboard-response","330","156398","0.0-490.0","39U1BHVTDMD8BSDZF4ABB1PN0H5T3B","A324M5ZRHX7RUV","3UAU495MIIEABANG75FBFHDC9WUUOI","","null","<img src=""img/land1.png"" style=""width:200px; border:14px solid green;"">","null","","","","","","","",""
"","image-keyboard-response","331","156917","0.0-492.0","39U1BHVTDMD8BSDZF4ABB1PN0H5T3B","A324M5ZRHX7RUV","3UAU495MIIEABANG75FBFHDC9WUUOI","","517.6000000238419","img/land4.png","75","518.2999999523163","2","1","false","2","1,1,0,0,1,1,1,0,1","",""
"","html-keyboard-response","332","157218","0.0-493.0","39U1BHVTDMD8BSDZF4ABB1PN0H5T3B","A324M5ZRHX7RUV","3UAU495MIIEABANG75FBFHDC9WUUOI","","null","<img src=""img/land4.png"" style=""width:200px; border:14px solid green;"">","null","","","","","","","",""
"","image-keyboard-response","333","157619","0.0-495.0","39U1BHVTDMD8BSDZF4ABB1PN0H5T3B","A324M5ZRHX7RUV","3UAU495MIIEABANG75FBFHDC9WUUOI","","400.10000002384186","img/land1.png","76","400.6999999284744","3","1","false","3","1,1,0,0,1,1,1,0,1","",""
"","html-keyboard-response","334","157921","0.0-496.0","39U1BHVTDMD8BSDZF4ABB1PN0H5T3B","A324M5ZRHX7RUV","3UAU495MIIEABANG75FBFHDC9WUUOI","","null","<img src=""img/land1.png"" style=""width:200px; border:14px solid green;"">","null","","","","","","","",""
"","image-keyboard-response","335","158511","0.0-498.0","39U1BHVTDMD8BSDZF4ABB1PN0H5T3B","A324M5ZRHX7RUV","3UAU495MIIEABANG75FBFHDC9WUUOI","","589.5","img/land2.png","74","590.2000000476837","1","1","false","1","1,1,0,0,1,1,1,0,1","",""
"","html-keyboard-response","336","158813","0.0-499.0","39U1BHVTDMD8BSDZF4ABB1PN0H5T3B","A324M5ZRHX7RUV","3UAU495MIIEABANG75FBFHDC9WUUOI","","null","<img src=""img/land2.png"" style=""width:200px; border:14px solid green;"">","null","","","","","","","",""
"","image-keyboard-response","337","159677","0.0-501.0","39U1BHVTDMD8BSDZF4ABB1PN0H5T3B","A324M5ZRHX7RUV","3UAU495MIIEABANG75FBFHDC9WUUOI","","863.3999999761581","img/land2.png","74","864.0999999046326","1","1","false","1","1,1,0,0,1,1,1,0,1","",""
"","html-keyboard-response","338","159978","0.0-502.0","39U1BHVTDMD8BSDZF4ABB1PN0H5T3B","A324M5ZRHX7RUV","3UAU495MIIEABANG75FBFHDC9WUUOI","","null","<img src=""img/land2.png"" style=""width:200px; border:14px solid green;"">","null","","","","","","","",""
"","image-keyboard-response","339","160433","0.0-504.0","39U1BHVTDMD8BSDZF4ABB1PN0H5T3B","A324M5ZRHX7RUV","3UAU495MIIEABANG75FBFHDC9WUUOI","","453.1999999284744","img/land2.png","74","454","1","1","false","1","1,1,0,0,1,1,1,0,1","",""
"","html-keyboard-response","340","160735","0.0-505.0","39U1BHVTDMD8BSDZF4ABB1PN0H5T3B","A324M5ZRHX7RUV","3UAU495MIIEABANG75FBFHDC9WUUOI","","null","<img src=""img/land2.png"" style=""width:200px; border:14px solid green;"">","null","","","","","","","",""
"","image-keyboard-response","341","161357","0.0-507.0","39U1BHVTDMD8BSDZF4ABB1PN0H5T3B","A324M5ZRHX7RUV","3UAU495MIIEABANG75FBFHDC9WUUOI","","620.7000000476837","img/land1.png","76","621.8999999761581","3","1","false","3","1,1,0,0,1,1,1,0,1","",""
"","html-keyboard-response","342","161658","0.0-508.0","39U1BHVTDMD8BSDZF4ABB1PN0H5T3B","A324M5ZRHX7RUV","3UAU495MIIEABANG75FBFHDC9WUUOI","","null","<img src=""img/land1.png"" style=""width:200px; border:14px solid green;"">","null","","","","","","","",""
"","image-keyboard-response","343","162044","0.0-510.0","39U1BHVTDMD8BSDZF4ABB1PN0H5T3B","A324M5ZRHX7RUV","3UAU495MIIEABANG75FBFHDC9WUUOI","","384.8000000715256","img/land1.png","76","385.60000002384186","3","1","false","3","1,1,0,0,1,1,1,0,1","",""
"","html-keyboard-response","344","162346","0.0-511.0","39U1BHVTDMD8BSDZF4ABB1PN0H5T3B","A324M5ZRHX7RUV","3UAU495MIIEABANG75FBFHDC9WUUOI","","null","<img src=""img/land1.png"" style=""width:200px; border:14px solid green;"">","null","","","","","","","",""
"","image-keyboard-response","345","162932","0.0-513.0","39U1BHVTDMD8BSDZF4ABB1PN0H5T3B","A324M5ZRHX7RUV","3UAU495MIIEABANG75FBFHDC9WUUOI","","584.7000000476837","img/land4.png","74","585.3999999761581","1","0","false","2","1,1,0,0,1,1,1,0,1","",""
"","html-keyboard-response","346","163233","0.0-514.0","39U1BHVTDMD8BSDZF4ABB1PN0H5T3B","A324M5ZRHX7RUV","3UAU495MIIEABANG75FBFHDC9WUUOI","","null","<img src=""img/land4.png"" style=""width:200px;border:14px solid red;"">","null","","","","","","","",""
"","image-keyboard-response","347","163916","0.0-516.0","39U1BHVTDMD8BSDZF4ABB1PN0H5T3B","A324M5ZRHX7RUV","3UAU495MIIEABANG75FBFHDC9WUUOI","","681.5","img/land1.png","75","682.3000000715256","2","0","false","3","1,1,0,0,1,1,1,0,1","",""
"","html-keyboard-response","348","164218","0.0-517.0","39U1BHVTDMD8BSDZF4ABB1PN0H5T3B","A324M5ZRHX7RUV","3UAU495MIIEABANG75FBFHDC9WUUOI","","null","<img src=""img/land1.png"" style=""width:200px;border:14px solid red;"">","null","","","","","","","",""
"","image-keyboard-response","349","164733","0.0-519.0","39U1BHVTDMD8BSDZF4ABB1PN0H5T3B","A324M5ZRHX7RUV","3UAU495MIIEABANG75FBFHDC9WUUOI","","513.3999999761581","img/land1.png","76","514.2999999523163","3","1","false","3","1,1,0,0,1,1,1,0,1","",""
"","html-keyboard-response","350","165034","0.0-520.0","39U1BHVTDMD8BSDZF4ABB1PN0H5T3B","A324M5ZRHX7RUV","3UAU495MIIEABANG75FBFHDC9WUUOI","","null","<img src=""img/land1.png"" style=""width:200px; border:14px solid green;"">","null","","","","","","","",""
"","image-keyboard-response","351","165631","0.0-522.0","39U1BHVTDMD8BSDZF4ABB1PN0H5T3B","A324M5ZRHX7RUV","3UAU495MIIEABANG75FBFHDC9WUUOI","","595.4000000953674","img/land2.png","74","596.8000000715256","1","1","false","1","1,1,0,0,1,1,1,0,1","",""
"","html-keyboard-response","352","165933","0.0-523.0","39U1BHVTDMD8BSDZF4ABB1PN0H5T3B","A324M5ZRHX7RUV","3UAU495MIIEABANG75FBFHDC9WUUOI","","null","<img src=""img/land2.png"" style=""width:200px; border:14px solid green;"">","null","","","","","","","",""
"","image-keyboard-response","353","166484","0.0-525.0","39U1BHVTDMD8BSDZF4ABB1PN0H5T3B","A324M5ZRHX7RUV","3UAU495MIIEABANG75FBFHDC9WUUOI","","549.2000000476837","img/land4.png","75","549.7999999523163","2","1","false","2","1,1,0,0,1,1,1,0,1","",""
"","html-keyboard-response","354","166785","0.0-526.0","39U1BHVTDMD8BSDZF4ABB1PN0H5T3B","A324M5ZRHX7RUV","3UAU495MIIEABANG75FBFHDC9WUUOI","","null","<img src=""img/land4.png"" style=""width:200px; border:14px solid green;"">","null","","","","","","","",""
"","image-keyboard-response","355","167278","0.0-528.0","39U1BHVTDMD8BSDZF4ABB1PN0H5T3B","A324M5ZRHX7RUV","3UAU495MIIEABANG75FBFHDC9WUUOI","","491.60000002384186","img/land1.png","76","492.39999997615814","3","1","false","3","1,1,0,0,1,1,1,0,1","",""
"","html-keyboard-response","356","167580","0.0-529.0","39U1BHVTDMD8BSDZF4ABB1PN0H5T3B","A324M5ZRHX7RUV","3UAU495MIIEABANG75FBFHDC9WUUOI","","null","<img src=""img/land1.png"" style=""width:200px; border:14px solid green;"">","null","","","","","","","",""
"","image-keyboard-response","357","168170","0.0-531.0","39U1BHVTDMD8BSDZF4ABB1PN0H5T3B","A324M5ZRHX7RUV","3UAU495MIIEABANG75FBFHDC9WUUOI","","589.5","img/land4.png","75","590.2999999523163","2","1","false","2","1,1,0,0,1,1,1,0,1","",""
"","html-keyboard-response","358","168473","0.0-532.0","39U1BHVTDMD8BSDZF4ABB1PN0H5T3B","A324M5ZRHX7RUV","3UAU495MIIEABANG75FBFHDC9WUUOI","","null","<img src=""img/land4.png"" style=""width:200px; border:14px solid green;"">","null","","","","","","","",""
"","image-keyboard-response","359","169158","0.0-534.0","39U1BHVTDMD8BSDZF4ABB1PN0H5T3B","A324M5ZRHX7RUV","3UAU495MIIEABANG75FBFHDC9WUUOI","","684.3000000715256","img/land2.png","74","685","1","1","false","1","1,1,0,0,1,1,1,0,1","",""
"","html-keyboard-response","360","169460","0.0-535.0","39U1BHVTDMD8BSDZF4ABB1PN0H5T3B","A324M5ZRHX7RUV","3UAU495MIIEABANG75FBFHDC9WUUOI","","null","<img src=""img/land2.png"" style=""width:200px; border:14px solid green;"">","null","","","","","","","",""
"","image-keyboard-response","361","170119","0.0-537.0","39U1BHVTDMD8BSDZF4ABB1PN0H5T3B","A324M5ZRHX7RUV","3UAU495MIIEABANG75FBFHDC9WUUOI","","657.7000000476837","img/land2.png","74","658.6000000238419","1","1","false","1","1,1,0,0,1,1,1,0,1","",""
"","html-keyboard-response","362","170420","0.0-538.0","39U1BHVTDMD8BSDZF4ABB1PN0H5T3B","A324M5ZRHX7RUV","3UAU495MIIEABANG75FBFHDC9WUUOI","","null","<img src=""img/land2.png"" style=""width:200px; border:14px solid green;"">","null","","","","","","","",""
"","image-keyboard-response","363","170918","0.0-540.0","39U1BHVTDMD8BSDZF4ABB1PN0H5T3B","A324M5ZRHX7RUV","3UAU495MIIEABANG75FBFHDC9WUUOI","","496.39999997615814","img/land2.png","74","497.7999999523163","1","1","false","1","1,1,0,0,1,1,1,0,1","",""
"","html-keyboard-response","364","171221","0.0-541.0","39U1BHVTDMD8BSDZF4ABB1PN0H5T3B","A324M5ZRHX7RUV","3UAU495MIIEABANG75FBFHDC9WUUOI","","null","<img src=""img/land2.png"" style=""width:200px; border:14px solid green;"">","null","","","","","","","",""
"","instructions","365","173249","0.0-543.0","39U1BHVTDMD8BSDZF4ABB1PN0H5T3B","A324M5ZRHX7RUV","3UAU495MIIEABANG75FBFHDC9WUUOI","[{""page_index"":0,""viewing_time"":2027.5}]","2027.7999999523163","","","","","","","","","",""
"","survey-text","366","178174","0.0-544.0-0.0","39U1BHVTDMD8BSDZF4ABB1PN0H5T3B","A324M5ZRHX7RUV","3UAU495MIIEABANG75FBFHDC9WUUOI","","4922.600000023842","","","","","","","","","{""Q0"":""29""}",""
"","survey-multi-choice","367","180103","0.0-544.0-1.0","39U1BHVTDMD8BSDZF4ABB1PN0H5T3B","A324M5ZRHX7RUV","3UAU495MIIEABANG75FBFHDC9WUUOI","","1927.3000000715256","","","","","","","","","{""gender"":""F""}","[0]"
"","survey-text","368","182471","0.0-545.0","39U1BHVTDMD8BSDZF4ABB1PN0H5T3B","A324M5ZRHX7RUV","3UAU495MIIEABANG75FBFHDC9WUUOI","","2365.7000000476837","","","","","","","","","{""Q0"":""A324M5ZRHX7RUV""}",""
