"success","trial_type","trial_index","time_elapsed","internal_node_id","assignmentID","mturkID","hitID","view_history","rt","stimulus","key_press","reactionTime","a","r","warning","s","reward_cond","responses","question_order"
"true","fullscreen","0","5312","0.0-0.0","3X31TUMD7Y8OICRFJRU11H0974AL1G","A32BQNJMLMZYG0","3FW4EL5A3LANKRP91N782LFHPY722Q","","","","","","","","","","","",""
"","instructions","1","33195","0.0-1.0","3X31TUMD7Y8OICRFJRU11H0974AL1G","A32BQNJMLMZYG0","3FW4EL5A3LANKRP91N782LFHPY722Q","[{""page_index"":0,""viewing_time"":5830},{""page_index"":1,""viewing_time"":1191},{""page_index"":2,""viewing_time"":1457},{""page_index"":3,""viewing_time"":2015},{""page_index"":4,""viewing_time"":5754},{""page_index"":5,""viewing_time"":4419},{""page_index"":6,""viewing_time"":5249},{""page_index"":7,""viewing_time"":1960}]","27879","","","","","","","","","",""
"","image-keyboard-response","2","34226","0.0-2.0","3X31TUMD7Y8OICRFJRU11H0974AL1G","A32BQNJMLMZYG0","3FW4EL5A3LANKRP91N782LFHPY722Q","","","img/land5.png","","1030","-1","0","true","2","0.8,0.2,0.2,0.2,0.8,0.2,0.2,0.2,0.8","",""
"","html-keyboard-response","3","34540","0.0-3.0","3X31TUMD7Y8OICRFJRU11H0974AL1G","A32BQNJMLMZYG0","3FW4EL5A3LANKRP91N782LFHPY722Q","","null","<img src=""img/land5.png"" style=""width:200px;border:14px solid red;"">","null","","","","","","","",""
"","html-keyboard-response","4","38304","0.0-4.0-0.0","3X31TUMD7Y8OICRFJRU11H0974AL1G","A32BQNJMLMZYG0","3FW4EL5A3LANKRP91N782LFHPY722Q","","","","","","","","","","","",""
"","image-keyboard-response","5","39305","0.0-5.0","3X31TUMD7Y8OICRFJRU11H0974AL1G","A32BQNJMLMZYG0","3FW4EL5A3LANKRP91N782LFHPY722Q","","","img/land8.png","","1001","-1","0","true","1","0.8,0.2,0.2,0.2,0.8,0.2,0.2,0.2,0.8","",""
"","html-keyboard-response","6","39607","0.0-6.0","3X31TUMD7Y8OICRFJRU11H0974AL1G","A32BQNJMLMZYG0","3FW4EL5A3LANKRP91N782LFHPY722Q","","null","<img src=""img/land8.png"" style=""width:200px;border:14px solid red;"">","null","","","","","","","",""
"","html-keyboard-response","7","44726","0.0-7.0-0.0","3X31TUMD7Y8OICRFJRU11H0974AL1G","A32BQNJMLMZYG0","3FW4EL5A3LANKRP91N782LFHPY722Q","","","","","","","","","","","",""
"","image-keyboard-response","8","45418","0.0-8.0","3X31TUMD7Y8OICRFJRU11H0974AL1G","A32BQNJMLMZYG0","3FW4EL5A3LANKRP91N782LFHPY722Q","","689","img/land8.png","75","691","2","0","false","1","0.8,0.2,0.2,0.2,0.8,0.2,0.2,0.2,0.8","",""
"","html-keyboard-response","9","45720","0.0-9.0","3X31TUMD7Y8OICRFJRU11H0974AL1G","A32BQNJMLMZYG0","3FW4EL5A3LANKRP91N782LFHPY722Q","","null","<img src=""img/land8.png"" style=""width:200px;border:14px solid red;"">","null","","","","","","","",""
"","image-keyboard-response","10","46082","0.0-11.0","3X31TUMD7Y8OICRFJRU11H0974AL1G","A32BQNJMLMZYG0","3FW4EL5A3LANKRP91N782LFHPY722Q","","361","img/land5.png","74","363","1","0","false","2","0.8,0.2,0.2,0.2,0.8,0.2,0.2,0.2,0.8","",""
"","html-keyboard-response","11","46461","0.0-12.0","3X31TUMD7Y8OICRFJRU11H0974AL1G","A32BQNJMLMZYG0","3FW4EL5A3LANKRP91N782LFHPY722Q","","null","<img src=""img/land5.png"" style=""width:200px;border:14px solid red;"">","null","","","","","","","",""
"","image-keyboard-response","12","47461","0.0-14.0","3X31TUMD7Y8OICRFJRU11H0974AL1G","A32BQNJMLMZYG0","3FW4EL5A3LANKRP91N782LFHPY722Q","","","img/land8.png","","1000","-1","0","true","1","0.8,0.2,0.2,0.2,0.8,0.2,0.2,0.2,0.8","",""
"","html-keyboard-response","13","47762","0.0-15.0","3X31TUMD7Y8OICRFJRU11H0974AL1G","A32BQNJMLMZYG0","3FW4EL5A3LANKRP91N782LFHPY722Q","","null","<img src=""img/land8.png"" style=""width:200px;border:14px solid red;"">","null","","","","","","","",""
"","html-keyboard-response","14","49633","0.0-16.0-0.0","3X31TUMD7Y8OICRFJRU11H0974AL1G","A32BQNJMLMZYG0","3FW4EL5A3LANKRP91N782LFHPY722Q","","","","","","","","","","","",""
"","image-keyboard-response","15","50427","0.0-17.0","3X31TUMD7Y8OICRFJRU11H0974AL1G","A32BQNJMLMZYG0","3FW4EL5A3LANKRP91N782LFHPY722Q","","792","img/land5.png","75","794","2","1","false","2","0.8,0.2,0.2,0.2,0.8,0.2,0.2,0.2,0.8","",""
"","html-keyboard-response","16","50728","0.0-18.0","3X31TUMD7Y8OICRFJRU11H0974AL1G","A32BQNJMLMZYG0","3FW4EL5A3LANKRP91N782LFHPY722Q","","null","<img src=""img/land5.png"" style=""width:200px; border:14px solid green;"">","null","","","","","","","",""
"","image-keyboard-response","17","51730","0.0-20.0","3X31TUMD7Y8OICRFJRU11H0974AL1G","A32BQNJMLMZYG0","3FW4EL5A3LANKRP91N782LFHPY722Q","","","img/land8.png","","1001","-1","0","true","1","0.8,0.2,0.2,0.2,0.8,0.2,0.2,0.2,0.8","",""
"","html-keyboard-response","18","52033","0.0-21.0","3X31TUMD7Y8OICRFJRU11H0974AL1G","A32BQNJMLMZYG0","3FW4EL5A3LANKRP91N782LFHPY722Q","","null","<img src=""img/land8.png"" style=""width:200px;border:14px solid red;"">","null","","","","","","","",""
"","html-keyboard-response","19","53713","0.0-22.0-0.0","3X31TUMD7Y8OICRFJRU11H0974AL1G","A32BQNJMLMZYG0","3FW4EL5A3LANKRP91N782LFHPY722Q","","","","","","","","","","","",""
"","image-keyboard-response","20","54715","0.0-23.0","3X31TUMD7Y8OICRFJRU11H0974AL1G","A32BQNJMLMZYG0","3FW4EL5A3LANKRP91N782LFHPY722Q","","","img/land8.png","","1002","-1","0","true","1","0.8,0.2,0.2,0.2,0.8,0.2,0.2,0.2,0.8","",""
"","html-keyboard-response","21","55017","0.0-24.0","3X31TUMD7Y8OICRFJRU11H0974AL1G","A32BQNJMLMZYG0","3FW4EL5A3LANKRP91N782LFHPY722Q","","null","<img src=""img/land8.png"" style=""width:200px;border:14px solid red;"">","null","","","","","","","",""
"","html-keyboard-response","22","57122","0.0-25.0-0.0","3X31TUMD7Y8OICRFJRU11H0974AL1G","A32BQNJMLMZYG0","3FW4EL5A3LANKRP91N782LFHPY722Q","","","","","","","","","","","",""
"","image-keyboard-response","23","57922","0.0-26.0","3X31TUMD7Y8OICRFJRU11H0974AL1G","A32BQNJMLMZYG0","3FW4EL5A3LANKRP91N782LFHPY722Q","","798","img/land5.png","75","801","2","1","false","2","0.8,0.2,0.2,0.2,0.8,0.2,0.2,0.2,0.8","",""
"","html-keyboard-response","24","58225","0.0-27.0","3X31TUMD7Y8OICRFJRU11H0974AL1G","A32BQNJMLMZYG0","3FW4EL5A3LANKRP91N782LFHPY722Q","","null","<img src=""img/land5.png"" style=""width:200px; border:14px solid green;"">","null","","","","","","","",""
"","image-keyboard-response","25","58995","0.0-29.0","3X31TUMD7Y8OICRFJRU11H0974AL1G","A32BQNJMLMZYG0","3FW4EL5A3LANKRP91N782LFHPY722Q","","768","img/land1.png","74","769","1","1","false","3","0.8,0.2,0.2,0.2,0.8,0.2,0.2,0.2,0.8","",""
"","html-keyboard-response","26","59296","0.0-30.0","3X31TUMD7Y8OICRFJRU11H0974AL1G","A32BQNJMLMZYG0","3FW4EL5A3LANKRP91N782LFHPY722Q","","null","<img src=""img/land1.png"" style=""width:200px; border:14px solid green;"">","null","","","","","","","",""
"","image-keyboard-response","27","60089","0.0-32.0","3X31TUMD7Y8OICRFJRU11H0974AL1G","A32BQNJMLMZYG0","3FW4EL5A3LANKRP91N782LFHPY722Q","","790","img/land5.png","76","791","3","0","false","2","0.8,0.2,0.2,0.2,0.8,0.2,0.2,0.2,0.8","",""
"","html-keyboard-response","28","60390","0.0-33.0","3X31TUMD7Y8OICRFJRU11H0974AL1G","A32BQNJMLMZYG0","3FW4EL5A3LANKRP91N782LFHPY722Q","","null","<img src=""img/land5.png"" style=""width:200px;border:14px solid red;"">","null","","","","","","","",""
"","image-keyboard-response","29","60762","0.0-35.0","3X31TUMD7Y8OICRFJRU11H0974AL1G","A32BQNJMLMZYG0","3FW4EL5A3LANKRP91N782LFHPY722Q","","369","img/land5.png","75","372","2","1","false","2","0.8,0.2,0.2,0.2,0.8,0.2,0.2,0.2,0.8","",""
"","html-keyboard-response","30","61064","0.0-36.0","3X31TUMD7Y8OICRFJRU11H0974AL1G","A32BQNJMLMZYG0","3FW4EL5A3LANKRP91N782LFHPY722Q","","null","<img src=""img/land5.png"" style=""width:200px; border:14px solid green;"">","null","","","","","","","",""
"","image-keyboard-response","31","61409","0.0-38.0","3X31TUMD7Y8OICRFJRU11H0974AL1G","A32BQNJMLMZYG0","3FW4EL5A3LANKRP91N782LFHPY722Q","","343","img/land5.png","74","344","1","0","false","2","0.8,0.2,0.2,0.2,0.8,0.2,0.2,0.2,0.8","",""
"","html-keyboard-response","32","61711","0.0-39.0","3X31TUMD7Y8OICRFJRU11H0974AL1G","A32BQNJMLMZYG0","3FW4EL5A3LANKRP91N782LFHPY722Q","","null","<img src=""img/land5.png"" style=""width:200px;border:14px solid red;"">","null","","","","","","","",""
"","image-keyboard-response","33","61964","0.0-41.0","3X31TUMD7Y8OICRFJRU11H0974AL1G","A32BQNJMLMZYG0","3FW4EL5A3LANKRP91N782LFHPY722Q","","251","img/land5.png","75","252","2","1","false","2","0.8,0.2,0.2,0.2,0.8,0.2,0.2,0.2,0.8","",""
"","html-keyboard-response","34","62311","0.0-42.0","3X31TUMD7Y8OICRFJRU11H0974AL1G","A32BQNJMLMZYG0","3FW4EL5A3LANKRP91N782LFHPY722Q","","null","<img src=""img/land5.png"" style=""width:200px; border:14px solid green;"">","null","","","","","","","",""
"","image-keyboard-response","35","62400","0.0-44.0","3X31TUMD7Y8OICRFJRU11H0974AL1G","A32BQNJMLMZYG0","3FW4EL5A3LANKRP91N782LFHPY722Q","","88","img/land1.png","76","89","3","1","false","3","0.8,0.2,0.2,0.2,0.8,0.2,0.2,0.2,0.8","",""
"","html-keyboard-response","36","62701","0.0-45.0","3X31TUMD7Y8OICRFJRU11H0974AL1G","A32BQNJMLMZYG0","3FW4EL5A3LANKRP91N782LFHPY722Q","","null","<img src=""img/land1.png"" style=""width:200px; border:14px solid green;"">","null","","","","","","","",""
"","image-keyboard-response","37","62835","0.0-47.0","3X31TUMD7Y8OICRFJRU11H0974AL1G","A32BQNJMLMZYG0","3FW4EL5A3LANKRP91N782LFHPY722Q","","133","img/land1.png","75","135","2","0","false","3","0.8,0.2,0.2,0.2,0.8,0.2,0.2,0.2,0.8","",""
"","html-keyboard-response","38","63136","0.0-48.0","3X31TUMD7Y8OICRFJRU11H0974AL1G","A32BQNJMLMZYG0","3FW4EL5A3LANKRP91N782LFHPY722Q","","null","<img src=""img/land1.png"" style=""width:200px;border:14px solid red;"">","null","","","","","","","",""
"","image-keyboard-response","39","63318","0.0-50.0","3X31TUMD7Y8OICRFJRU11H0974AL1G","A32BQNJMLMZYG0","3FW4EL5A3LANKRP91N782LFHPY722Q","","179","img/land8.png","74","181","1","1","false","1","0.8,0.2,0.2,0.2,0.8,0.2,0.2,0.2,0.8","",""
"","html-keyboard-response","40","63619","0.0-51.0","3X31TUMD7Y8OICRFJRU11H0974AL1G","A32BQNJMLMZYG0","3FW4EL5A3LANKRP91N782LFHPY722Q","","null","<img src=""img/land8.png"" style=""width:200px; border:14px solid green;"">","null","","","","","","","",""
"","image-keyboard-response","41","63720","0.0-53.0","3X31TUMD7Y8OICRFJRU11H0974AL1G","A32BQNJMLMZYG0","3FW4EL5A3LANKRP91N782LFHPY722Q","","98","img/land8.png","75","100","2","0","false","1","0.8,0.2,0.2,0.2,0.8,0.2,0.2,0.2,0.8","",""
"","html-keyboard-response","42","64022","0.0-54.0","3X31TUMD7Y8OICRFJRU11H0974AL1G","A32BQNJMLMZYG0","3FW4EL5A3LANKRP91N782LFHPY722Q","","null","<img src=""img/land8.png"" style=""width:200px;border:14px solid red;"">","null","","","","","","","",""
"","image-keyboard-response","43","64124","0.0-56.0","3X31TUMD7Y8OICRFJRU11H0974AL1G","A32BQNJMLMZYG0","3FW4EL5A3LANKRP91N782LFHPY722Q","","100","img/land8.png","76","101","3","0","false","1","0.8,0.2,0.2,0.2,0.8,0.2,0.2,0.2,0.8","",""
"","html-keyboard-response","44","64425","0.0-57.0","3X31TUMD7Y8OICRFJRU11H0974AL1G","A32BQNJMLMZYG0","3FW4EL5A3LANKRP91N782LFHPY722Q","","null","<img src=""img/land8.png"" style=""width:200px;border:14px solid red;"">","null","","","","","","","",""
"","image-keyboard-response","45","64564","0.0-59.0","3X31TUMD7Y8OICRFJRU11H0974AL1G","A32BQNJMLMZYG0","3FW4EL5A3LANKRP91N782LFHPY722Q","","138","img/land8.png","75","139","2","0","false","1","0.8,0.2,0.2,0.2,0.8,0.2,0.2,0.2,0.8","",""
"","html-keyboard-response","46","64866","0.0-60.0","3X31TUMD7Y8OICRFJRU11H0974AL1G","A32BQNJMLMZYG0","3FW4EL5A3LANKRP91N782LFHPY722Q","","null","<img src=""img/land8.png"" style=""width:200px;border:14px solid red;"">","null","","","","","","","",""
"","image-keyboard-response","47","64876","0.0-62.0","3X31TUMD7Y8OICRFJRU11H0974AL1G","A32BQNJMLMZYG0","3FW4EL5A3LANKRP91N782LFHPY722Q","","8","img/land8.png","74","9","1","1","false","1","0.8,0.2,0.2,0.2,0.8,0.2,0.2,0.2,0.8","",""
"","html-keyboard-response","48","65177","0.0-63.0","3X31TUMD7Y8OICRFJRU11H0974AL1G","A32BQNJMLMZYG0","3FW4EL5A3LANKRP91N782LFHPY722Q","","null","<img src=""img/land8.png"" style=""width:200px; border:14px solid green;"">","null","","","","","","","",""
"","image-keyboard-response","49","65288","0.0-65.0","3X31TUMD7Y8OICRFJRU11H0974AL1G","A32BQNJMLMZYG0","3FW4EL5A3LANKRP91N782LFHPY722Q","","106","img/land8.png","75","109","2","0","false","1","0.8,0.2,0.2,0.2,0.8,0.2,0.2,0.2,0.8","",""
"","html-keyboard-response","50","65588","0.0-66.0","3X31TUMD7Y8OICRFJRU11H0974AL1G","A32BQNJMLMZYG0","3FW4EL5A3LANKRP91N782LFHPY722Q","","null","<img src=""img/land8.png"" style=""width:200px;border:14px solid red;"">","null","","","","","","","",""
"","image-keyboard-response","51","65634","0.0-68.0","3X31TUMD7Y8OICRFJRU11H0974AL1G","A32BQNJMLMZYG0","3FW4EL5A3LANKRP91N782LFHPY722Q","","45","img/land1.png","76","46","3","1","false","3","0.8,0.2,0.2,0.2,0.8,0.2,0.2,0.2,0.8","",""
"","html-keyboard-response","52","65937","0.0-69.0","3X31TUMD7Y8OICRFJRU11H0974AL1G","A32BQNJMLMZYG0","3FW4EL5A3LANKRP91N782LFHPY722Q","","null","<img src=""img/land1.png"" style=""width:200px; border:14px solid green;"">","null","","","","","","","",""
"","image-keyboard-response","53","66053","0.0-71.0","3X31TUMD7Y8OICRFJRU11H0974AL1G","A32BQNJMLMZYG0","3FW4EL5A3LANKRP91N782LFHPY722Q","","113","img/land1.png","75","114","2","0","false","3","0.8,0.2,0.2,0.2,0.8,0.2,0.2,0.2,0.8","",""
"","html-keyboard-response","54","66362","0.0-72.0","3X31TUMD7Y8OICRFJRU11H0974AL1G","A32BQNJMLMZYG0","3FW4EL5A3LANKRP91N782LFHPY722Q","","null","<img src=""img/land1.png"" style=""width:200px;border:14px solid red;"">","null","","","","","","","",""
"","image-keyboard-response","55","66399","0.0-74.0","3X31TUMD7Y8OICRFJRU11H0974AL1G","A32BQNJMLMZYG0","3FW4EL5A3LANKRP91N782LFHPY722Q","","35","img/land5.png","74","37","1","0","false","2","0.8,0.2,0.2,0.2,0.8,0.2,0.2,0.2,0.8","",""
"","html-keyboard-response","56","66744","0.0-75.0","3X31TUMD7Y8OICRFJRU11H0974AL1G","A32BQNJMLMZYG0","3FW4EL5A3LANKRP91N782LFHPY722Q","","null","<img src=""img/land5.png"" style=""width:200px;border:14px solid red;"">","null","","","","","","","",""
"","image-keyboard-response","57","66921","0.0-77.0","3X31TUMD7Y8OICRFJRU11H0974AL1G","A32BQNJMLMZYG0","3FW4EL5A3LANKRP91N782LFHPY722Q","","164","img/land1.png","75","176","2","0","false","3","0.8,0.2,0.2,0.2,0.8,0.2,0.2,0.2,0.8","",""
"","html-keyboard-response","58","67225","0.0-78.0","3X31TUMD7Y8OICRFJRU11H0974AL1G","A32BQNJMLMZYG0","3FW4EL5A3LANKRP91N782LFHPY722Q","","null","<img src=""img/land1.png"" style=""width:200px;border:14px solid red;"">","null","","","","","","","",""
"","image-keyboard-response","59","67465","0.0-80.0","3X31TUMD7Y8OICRFJRU11H0974AL1G","A32BQNJMLMZYG0","3FW4EL5A3LANKRP91N782LFHPY722Q","","238","img/land1.png","75","239","2","0","false","3","0.8,0.2,0.2,0.2,0.8,0.2,0.2,0.2,0.8","",""
"","html-keyboard-response","60","67769","0.0-81.0","3X31TUMD7Y8OICRFJRU11H0974AL1G","A32BQNJMLMZYG0","3FW4EL5A3LANKRP91N782LFHPY722Q","","null","<img src=""img/land1.png"" style=""width:200px;border:14px solid red;"">","null","","","","","","","",""
"","image-keyboard-response","61","67954","0.0-83.0","3X31TUMD7Y8OICRFJRU11H0974AL1G","A32BQNJMLMZYG0","3FW4EL5A3LANKRP91N782LFHPY722Q","","182","img/land1.png","74","184","1","0","false","3","0.8,0.2,0.2,0.2,0.8,0.2,0.2,0.2,0.8","",""
"","html-keyboard-response","62","68260","0.0-84.0","3X31TUMD7Y8OICRFJRU11H0974AL1G","A32BQNJMLMZYG0","3FW4EL5A3LANKRP91N782LFHPY722Q","","null","<img src=""img/land1.png"" style=""width:200px;border:14px solid red;"">","null","","","","","","","",""
"","image-keyboard-response","63","68286","0.0-86.0","3X31TUMD7Y8OICRFJRU11H0974AL1G","A32BQNJMLMZYG0","3FW4EL5A3LANKRP91N782LFHPY722Q","","24","img/land1.png","75","26","2","0","false","3","0.8,0.2,0.2,0.2,0.8,0.2,0.2,0.2,0.8","",""
"","html-keyboard-response","64","68587","0.0-87.0","3X31TUMD7Y8OICRFJRU11H0974AL1G","A32BQNJMLMZYG0","3FW4EL5A3LANKRP91N782LFHPY722Q","","null","<img src=""img/land1.png"" style=""width:200px;border:14px solid red;"">","null","","","","","","","",""
"","image-keyboard-response","65","69165","0.0-89.0","3X31TUMD7Y8OICRFJRU11H0974AL1G","A32BQNJMLMZYG0","3FW4EL5A3LANKRP91N782LFHPY722Q","","576","img/land1.png","74","577","1","1","false","3","0.8,0.2,0.2,0.2,0.8,0.2,0.2,0.2,0.8","",""
"","html-keyboard-response","66","69466","0.0-90.0","3X31TUMD7Y8OICRFJRU11H0974AL1G","A32BQNJMLMZYG0","3FW4EL5A3LANKRP91N782LFHPY722Q","","null","<img src=""img/land1.png"" style=""width:200px; border:14px solid green;"">","null","","","","","","","",""
"","image-keyboard-response","67","69753","0.0-92.0","3X31TUMD7Y8OICRFJRU11H0974AL1G","A32BQNJMLMZYG0","3FW4EL5A3LANKRP91N782LFHPY722Q","","286","img/land1.png","75","286","2","0","false","3","0.8,0.2,0.2,0.2,0.8,0.2,0.2,0.2,0.8","",""
"","html-keyboard-response","68","70054","0.0-93.0","3X31TUMD7Y8OICRFJRU11H0974AL1G","A32BQNJMLMZYG0","3FW4EL5A3LANKRP91N782LFHPY722Q","","null","<img src=""img/land1.png"" style=""width:200px;border:14px solid red;"">","null","","","","","","","",""
"","image-keyboard-response","69","70770","0.0-95.0","3X31TUMD7Y8OICRFJRU11H0974AL1G","A32BQNJMLMZYG0","3FW4EL5A3LANKRP91N782LFHPY722Q","","713","img/land8.png","74","715","1","1","false","1","0.8,0.2,0.2,0.2,0.8,0.2,0.2,0.2,0.8","",""
"","html-keyboard-response","70","71072","0.0-96.0","3X31TUMD7Y8OICRFJRU11H0974AL1G","A32BQNJMLMZYG0","3FW4EL5A3LANKRP91N782LFHPY722Q","","null","<img src=""img/land8.png"" style=""width:200px; border:14px solid green;"">","null","","","","","","","",""
"","image-keyboard-response","71","71765","0.0-98.0","3X31TUMD7Y8OICRFJRU11H0974AL1G","A32BQNJMLMZYG0","3FW4EL5A3LANKRP91N782LFHPY722Q","","691","img/land8.png","74","692","1","1","false","1","0.8,0.2,0.2,0.2,0.8,0.2,0.2,0.2,0.8","",""
"","html-keyboard-response","72","72071","0.0-99.0","3X31TUMD7Y8OICRFJRU11H0974AL1G","A32BQNJMLMZYG0","3FW4EL5A3LANKRP91N782LFHPY722Q","","null","<img src=""img/land8.png"" style=""width:200px; border:14px solid green;"">","null","","","","","","","",""
"","image-keyboard-response","73","72405","0.0-101.0","3X31TUMD7Y8OICRFJRU11H0974AL1G","A32BQNJMLMZYG0","3FW4EL5A3LANKRP91N782LFHPY722Q","","331","img/land8.png","74","333","1","1","false","1","0.8,0.2,0.2,0.2,0.8,0.2,0.2,0.2,0.8","",""
"","html-keyboard-response","74","72706","0.0-102.0","3X31TUMD7Y8OICRFJRU11H0974AL1G","A32BQNJMLMZYG0","3FW4EL5A3LANKRP91N782LFHPY722Q","","null","<img src=""img/land8.png"" style=""width:200px; border:14px solid green;"">","null","","","","","","","",""
"","image-keyboard-response","75","73058","0.0-104.0","3X31TUMD7Y8OICRFJRU11H0974AL1G","A32BQNJMLMZYG0","3FW4EL5A3LANKRP91N782LFHPY722Q","","351","img/land8.png","74","353","1","1","false","1","0.8,0.2,0.2,0.2,0.8,0.2,0.2,0.2,0.8","",""
"","html-keyboard-response","76","73361","0.0-105.0","3X31TUMD7Y8OICRFJRU11H0974AL1G","A32BQNJMLMZYG0","3FW4EL5A3LANKRP91N782LFHPY722Q","","null","<img src=""img/land8.png"" style=""width:200px; border:14px solid green;"">","null","","","","","","","",""
"","image-keyboard-response","77","73770","0.0-107.0","3X31TUMD7Y8OICRFJRU11H0974AL1G","A32BQNJMLMZYG0","3FW4EL5A3LANKRP91N782LFHPY722Q","","407","img/land5.png","74","408","1","1","false","2","0.8,0.2,0.2,0.2,0.8,0.2,0.2,0.2,0.8","",""
"","html-keyboard-response","78","74072","0.0-108.0","3X31TUMD7Y8OICRFJRU11H0974AL1G","A32BQNJMLMZYG0","3FW4EL5A3LANKRP91N782LFHPY722Q","","null","<img src=""img/land5.png"" style=""width:200px; border:14px solid green;"">","null","","","","","","","",""
"","image-keyboard-response","79","74945","0.0-110.0","3X31TUMD7Y8OICRFJRU11H0974AL1G","A32BQNJMLMZYG0","3FW4EL5A3LANKRP91N782LFHPY722Q","","869","img/land5.png","75","871","2","1","false","2","0.8,0.2,0.2,0.2,0.8,0.2,0.2,0.2,0.8","",""
"","html-keyboard-response","80","75247","0.0-111.0","3X31TUMD7Y8OICRFJRU11H0974AL1G","A32BQNJMLMZYG0","3FW4EL5A3LANKRP91N782LFHPY722Q","","null","<img src=""img/land5.png"" style=""width:200px; border:14px solid green;"">","null","","","","","","","",""
"","image-keyboard-response","81","75582","0.0-113.0","3X31TUMD7Y8OICRFJRU11H0974AL1G","A32BQNJMLMZYG0","3FW4EL5A3LANKRP91N782LFHPY722Q","","332","img/land5.png","75","334","2","1","false","2","0.8,0.2,0.2,0.2,0.8,0.2,0.2,0.2,0.8","",""
"","html-keyboard-response","82","75885","0.0-114.0","3X31TUMD7Y8OICRFJRU11H0974AL1G","A32BQNJMLMZYG0","3FW4EL5A3LANKRP91N782LFHPY722Q","","null","<img src=""img/land5.png"" style=""width:200px; border:14px solid green;"">","null","","","","","","","",""
"","image-keyboard-response","83","76218","0.0-116.0","3X31TUMD7Y8OICRFJRU11H0974AL1G","A32BQNJMLMZYG0","3FW4EL5A3LANKRP91N782LFHPY722Q","","329","img/land5.png","74","331","1","1","false","2","0.8,0.2,0.2,0.2,0.8,0.2,0.2,0.2,0.8","",""
"","html-keyboard-response","84","76525","0.0-117.0","3X31TUMD7Y8OICRFJRU11H0974AL1G","A32BQNJMLMZYG0","3FW4EL5A3LANKRP91N782LFHPY722Q","","null","<img src=""img/land5.png"" style=""width:200px; border:14px solid green;"">","null","","","","","","","",""
"","image-keyboard-response","85","76858","0.0-119.0","3X31TUMD7Y8OICRFJRU11H0974AL1G","A32BQNJMLMZYG0","3FW4EL5A3LANKRP91N782LFHPY722Q","","331","img/land1.png","74","333","1","0","false","3","0.8,0.2,0.2,0.2,0.8,0.2,0.2,0.2,0.8","",""
"","html-keyboard-response","86","77162","0.0-120.0","3X31TUMD7Y8OICRFJRU11H0974AL1G","A32BQNJMLMZYG0","3FW4EL5A3LANKRP91N782LFHPY722Q","","null","<img src=""img/land1.png"" style=""width:200px;border:14px solid red;"">","null","","","","","","","",""
"","image-keyboard-response","87","77283","0.0-122.0","3X31TUMD7Y8OICRFJRU11H0974AL1G","A32BQNJMLMZYG0","3FW4EL5A3LANKRP91N782LFHPY722Q","","119","img/land5.png","75","120","2","1","false","2","0.8,0.2,0.2,0.2,0.8,0.2,0.2,0.2,0.8","",""
"","html-keyboard-response","88","77584","0.0-123.0","3X31TUMD7Y8OICRFJRU11H0974AL1G","A32BQNJMLMZYG0","3FW4EL5A3LANKRP91N782LFHPY722Q","","null","<img src=""img/land5.png"" style=""width:200px; border:14px solid green;"">","null","","","","","","","",""
"","image-keyboard-response","89","77778","0.0-125.0","3X31TUMD7Y8OICRFJRU11H0974AL1G","A32BQNJMLMZYG0","3FW4EL5A3LANKRP91N782LFHPY722Q","","191","img/land8.png","76","192","3","0","false","1","0.8,0.2,0.2,0.2,0.8,0.2,0.2,0.2,0.8","",""
"","html-keyboard-response","90","78081","0.0-126.0","3X31TUMD7Y8OICRFJRU11H0974AL1G","A32BQNJMLMZYG0","3FW4EL5A3LANKRP91N782LFHPY722Q","","null","<img src=""img/land8.png"" style=""width:200px;border:14px solid red;"">","null","","","","","","","",""
"","image-keyboard-response","91","78624","0.0-128.0","3X31TUMD7Y8OICRFJRU11H0974AL1G","A32BQNJMLMZYG0","3FW4EL5A3LANKRP91N782LFHPY722Q","","541","img/land1.png","75","543","2","0","false","3","0.8,0.2,0.2,0.2,0.8,0.2,0.2,0.2,0.8","",""
"","html-keyboard-response","92","78925","0.0-129.0","3X31TUMD7Y8OICRFJRU11H0974AL1G","A32BQNJMLMZYG0","3FW4EL5A3LANKRP91N782LFHPY722Q","","null","<img src=""img/land1.png"" style=""width:200px;border:14px solid red;"">","null","","","","","","","",""
"","image-keyboard-response","93","79274","0.0-131.0","3X31TUMD7Y8OICRFJRU11H0974AL1G","A32BQNJMLMZYG0","3FW4EL5A3LANKRP91N782LFHPY722Q","","347","img/land1.png","74","349","1","0","false","3","0.8,0.2,0.2,0.2,0.8,0.2,0.2,0.2,0.8","",""
"","html-keyboard-response","94","79575","0.0-132.0","3X31TUMD7Y8OICRFJRU11H0974AL1G","A32BQNJMLMZYG0","3FW4EL5A3LANKRP91N782LFHPY722Q","","null","<img src=""img/land1.png"" style=""width:200px;border:14px solid red;"">","null","","","","","","","",""
"","image-keyboard-response","95","79913","0.0-134.0","3X31TUMD7Y8OICRFJRU11H0974AL1G","A32BQNJMLMZYG0","3FW4EL5A3LANKRP91N782LFHPY722Q","","335","img/land5.png","75","337","2","0","false","2","0.8,0.2,0.2,0.2,0.8,0.2,0.2,0.2,0.8","",""
"","html-keyboard-response","96","80215","0.0-135.0","3X31TUMD7Y8OICRFJRU11H0974AL1G","A32BQNJMLMZYG0","3FW4EL5A3LANKRP91N782LFHPY722Q","","null","<img src=""img/land5.png"" style=""width:200px;border:14px solid red;"">","null","","","","","","","",""
"","image-keyboard-response","97","80576","0.0-137.0","3X31TUMD7Y8OICRFJRU11H0974AL1G","A32BQNJMLMZYG0","3FW4EL5A3LANKRP91N782LFHPY722Q","","359","img/land5.png","74","361","1","0","false","2","0.8,0.2,0.2,0.2,0.8,0.2,0.2,0.2,0.8","",""
"","html-keyboard-response","98","80879","0.0-138.0","3X31TUMD7Y8OICRFJRU11H0974AL1G","A32BQNJMLMZYG0","3FW4EL5A3LANKRP91N782LFHPY722Q","","null","<img src=""img/land5.png"" style=""width:200px;border:14px solid red;"">","null","","","","","","","",""
"","image-keyboard-response","99","81004","0.0-140.0","3X31TUMD7Y8OICRFJRU11H0974AL1G","A32BQNJMLMZYG0","3FW4EL5A3LANKRP91N782LFHPY722Q","","122","img/land1.png","76","124","3","1","false","3","0.8,0.2,0.2,0.2,0.8,0.2,0.2,0.2,0.8","",""
"","html-keyboard-response","100","81304","0.0-141.0","3X31TUMD7Y8OICRFJRU11H0974AL1G","A32BQNJMLMZYG0","3FW4EL5A3LANKRP91N782LFHPY722Q","","null","<img src=""img/land1.png"" style=""width:200px; border:14px solid green;"">","null","","","","","","","",""
"","image-keyboard-response","101","81879","0.0-143.0","3X31TUMD7Y8OICRFJRU11H0974AL1G","A32BQNJMLMZYG0","3FW4EL5A3LANKRP91N782LFHPY722Q","","572","img/land8.png","75","574","2","0","false","1","0.8,0.2,0.2,0.2,0.8,0.2,0.2,0.2,0.8","",""
"","html-keyboard-response","102","82196","0.0-144.0","3X31TUMD7Y8OICRFJRU11H0974AL1G","A32BQNJMLMZYG0","3FW4EL5A3LANKRP91N782LFHPY722Q","","null","<img src=""img/land8.png"" style=""width:200px;border:14px solid red;"">","null","","","","","","","",""
"","image-keyboard-response","103","82596","0.0-146.0","3X31TUMD7Y8OICRFJRU11H0974AL1G","A32BQNJMLMZYG0","3FW4EL5A3LANKRP91N782LFHPY722Q","","400","img/land8.png","74","400","1","1","false","1","0.8,0.2,0.2,0.2,0.8,0.2,0.2,0.2,0.8","",""
"","html-keyboard-response","104","82898","0.0-147.0","3X31TUMD7Y8OICRFJRU11H0974AL1G","A32BQNJMLMZYG0","3FW4EL5A3LANKRP91N782LFHPY722Q","","null","<img src=""img/land8.png"" style=""width:200px; border:14px solid green;"">","null","","","","","","","",""
"","image-keyboard-response","105","83296","0.0-149.0","3X31TUMD7Y8OICRFJRU11H0974AL1G","A32BQNJMLMZYG0","3FW4EL5A3LANKRP91N782LFHPY722Q","","396","img/land5.png","74","397","1","0","false","2","0.8,0.2,0.2,0.2,0.8,0.2,0.2,0.2,0.8","",""
"","html-keyboard-response","106","83599","0.0-150.0","3X31TUMD7Y8OICRFJRU11H0974AL1G","A32BQNJMLMZYG0","3FW4EL5A3LANKRP91N782LFHPY722Q","","null","<img src=""img/land5.png"" style=""width:200px;border:14px solid red;"">","null","","","","","","","",""
"","image-keyboard-response","107","84048","0.0-152.0","3X31TUMD7Y8OICRFJRU11H0974AL1G","A32BQNJMLMZYG0","3FW4EL5A3LANKRP91N782LFHPY722Q","","446","img/land5.png","76","448","3","0","false","2","0.8,0.2,0.2,0.2,0.8,0.2,0.2,0.2,0.8","",""
"","html-keyboard-response","108","84350","0.0-153.0","3X31TUMD7Y8OICRFJRU11H0974AL1G","A32BQNJMLMZYG0","3FW4EL5A3LANKRP91N782LFHPY722Q","","null","<img src=""img/land5.png"" style=""width:200px;border:14px solid red;"">","null","","","","","","","",""
"","image-keyboard-response","109","84778","0.0-155.0","3X31TUMD7Y8OICRFJRU11H0974AL1G","A32BQNJMLMZYG0","3FW4EL5A3LANKRP91N782LFHPY722Q","","426","img/land1.png","75","427","2","0","false","3","0.8,0.2,0.2,0.2,0.8,0.2,0.2,0.2,0.8","",""
"","html-keyboard-response","110","85080","0.0-156.0","3X31TUMD7Y8OICRFJRU11H0974AL1G","A32BQNJMLMZYG0","3FW4EL5A3LANKRP91N782LFHPY722Q","","null","<img src=""img/land1.png"" style=""width:200px;border:14px solid red;"">","null","","","","","","","",""
"","image-keyboard-response","111","85312","0.0-158.0","3X31TUMD7Y8OICRFJRU11H0974AL1G","A32BQNJMLMZYG0","3FW4EL5A3LANKRP91N782LFHPY722Q","","222","img/land5.png","74","224","1","1","false","2","0.8,0.2,0.2,0.2,0.8,0.2,0.2,0.2,0.8","",""
"","html-keyboard-response","112","85614","0.0-159.0","3X31TUMD7Y8OICRFJRU11H0974AL1G","A32BQNJMLMZYG0","3FW4EL5A3LANKRP91N782LFHPY722Q","","null","<img src=""img/land5.png"" style=""width:200px; border:14px solid green;"">","null","","","","","","","",""
"","image-keyboard-response","113","86025","0.0-161.0","3X31TUMD7Y8OICRFJRU11H0974AL1G","A32BQNJMLMZYG0","3FW4EL5A3LANKRP91N782LFHPY722Q","","409","img/land1.png","74","411","1","0","false","3","0.8,0.2,0.2,0.2,0.8,0.2,0.2,0.2,0.8","",""
"","html-keyboard-response","114","86326","0.0-162.0","3X31TUMD7Y8OICRFJRU11H0974AL1G","A32BQNJMLMZYG0","3FW4EL5A3LANKRP91N782LFHPY722Q","","null","<img src=""img/land1.png"" style=""width:200px;border:14px solid red;"">","null","","","","","","","",""
"","image-keyboard-response","115","86425","0.0-164.0","3X31TUMD7Y8OICRFJRU11H0974AL1G","A32BQNJMLMZYG0","3FW4EL5A3LANKRP91N782LFHPY722Q","","98","img/land8.png","75","99","2","1","false","1","0.8,0.2,0.2,0.2,0.8,0.2,0.2,0.2,0.8","",""
"","html-keyboard-response","116","86728","0.0-165.0","3X31TUMD7Y8OICRFJRU11H0974AL1G","A32BQNJMLMZYG0","3FW4EL5A3LANKRP91N782LFHPY722Q","","null","<img src=""img/land8.png"" style=""width:200px; border:14px solid green;"">","null","","","","","","","",""
"","image-keyboard-response","117","86867","0.0-167.0","3X31TUMD7Y8OICRFJRU11H0974AL1G","A32BQNJMLMZYG0","3FW4EL5A3LANKRP91N782LFHPY722Q","","137","img/land1.png","74","138","1","0","false","3","0.8,0.2,0.2,0.2,0.8,0.2,0.2,0.2,0.8","",""
"","html-keyboard-response","118","87169","0.0-168.0","3X31TUMD7Y8OICRFJRU11H0974AL1G","A32BQNJMLMZYG0","3FW4EL5A3LANKRP91N782LFHPY722Q","","null","<img src=""img/land1.png"" style=""width:200px;border:14px solid red;"">","null","","","","","","","",""
"","image-keyboard-response","119","87255","0.0-170.0","3X31TUMD7Y8OICRFJRU11H0974AL1G","A32BQNJMLMZYG0","3FW4EL5A3LANKRP91N782LFHPY722Q","","82","img/land5.png","76","85","3","0","false","2","0.8,0.2,0.2,0.2,0.8,0.2,0.2,0.2,0.8","",""
"","html-keyboard-response","120","87556","0.0-171.0","3X31TUMD7Y8OICRFJRU11H0974AL1G","A32BQNJMLMZYG0","3FW4EL5A3LANKRP91N782LFHPY722Q","","null","<img src=""img/land5.png"" style=""width:200px;border:14px solid red;"">","null","","","","","","","",""
"","image-keyboard-response","121","87725","0.0-173.0","3X31TUMD7Y8OICRFJRU11H0974AL1G","A32BQNJMLMZYG0","3FW4EL5A3LANKRP91N782LFHPY722Q","","167","img/land5.png","75","169","2","1","false","2","0.8,0.2,0.2,0.2,0.8,0.2,0.2,0.2,0.8","",""
"","html-keyboard-response","122","88027","0.0-174.0","3X31TUMD7Y8OICRFJRU11H0974AL1G","A32BQNJMLMZYG0","3FW4EL5A3LANKRP91N782LFHPY722Q","","null","<img src=""img/land5.png"" style=""width:200px; border:14px solid green;"">","null","","","","","","","",""
"","image-keyboard-response","123","88037","0.0-176.0","3X31TUMD7Y8OICRFJRU11H0974AL1G","A32BQNJMLMZYG0","3FW4EL5A3LANKRP91N782LFHPY722Q","","9","img/land5.png","74","9","1","0","false","2","0.8,0.2,0.2,0.2,0.8,0.2,0.2,0.2,0.8","",""
"","html-keyboard-response","124","88339","0.0-177.0","3X31TUMD7Y8OICRFJRU11H0974AL1G","A32BQNJMLMZYG0","3FW4EL5A3LANKRP91N782LFHPY722Q","","null","<img src=""img/land5.png"" style=""width:200px;border:14px solid red;"">","null","","","","","","","",""
"","image-keyboard-response","125","88408","0.0-179.0","3X31TUMD7Y8OICRFJRU11H0974AL1G","A32BQNJMLMZYG0","3FW4EL5A3LANKRP91N782LFHPY722Q","","67","img/land5.png","74","69","1","1","false","2","0.8,0.2,0.2,0.2,0.8,0.2,0.2,0.2,0.8","",""
"","html-keyboard-response","126","88709","0.0-180.0","3X31TUMD7Y8OICRFJRU11H0974AL1G","A32BQNJMLMZYG0","3FW4EL5A3LANKRP91N782LFHPY722Q","","null","<img src=""img/land5.png"" style=""width:200px; border:14px solid green;"">","null","","","","","","","",""
"","image-keyboard-response","127","89319","0.0-182.0","3X31TUMD7Y8OICRFJRU11H0974AL1G","A32BQNJMLMZYG0","3FW4EL5A3LANKRP91N782LFHPY722Q","","607","img/land1.png","74","609","1","0","false","3","0.8,0.2,0.2,0.2,0.8,0.2,0.2,0.2,0.8","",""
"","html-keyboard-response","128","89622","0.0-183.0","3X31TUMD7Y8OICRFJRU11H0974AL1G","A32BQNJMLMZYG0","3FW4EL5A3LANKRP91N782LFHPY722Q","","null","<img src=""img/land1.png"" style=""width:200px;border:14px solid red;"">","null","","","","","","","",""
"","image-keyboard-response","129","89875","0.0-185.0","3X31TUMD7Y8OICRFJRU11H0974AL1G","A32BQNJMLMZYG0","3FW4EL5A3LANKRP91N782LFHPY722Q","","252","img/land8.png","75","253","2","0","false","1","0.8,0.2,0.2,0.2,0.8,0.2,0.2,0.2,0.8","",""
"","html-keyboard-response","130","90290","0.0-186.0","3X31TUMD7Y8OICRFJRU11H0974AL1G","A32BQNJMLMZYG0","3FW4EL5A3LANKRP91N782LFHPY722Q","","null","<img src=""img/land8.png"" style=""width:200px;border:14px solid red;"">","null","","","","","","","",""
"","image-keyboard-response","131","90884","0.0-188.0","3X31TUMD7Y8OICRFJRU11H0974AL1G","A32BQNJMLMZYG0","3FW4EL5A3LANKRP91N782LFHPY722Q","","592","img/land8.png","74","594","1","1","false","1","0.8,0.2,0.2,0.2,0.8,0.2,0.2,0.2,0.8","",""
"","html-keyboard-response","132","91185","0.0-189.0","3X31TUMD7Y8OICRFJRU11H0974AL1G","A32BQNJMLMZYG0","3FW4EL5A3LANKRP91N782LFHPY722Q","","null","<img src=""img/land8.png"" style=""width:200px; border:14px solid green;"">","null","","","","","","","",""
"","image-keyboard-response","133","91721","0.0-191.0","3X31TUMD7Y8OICRFJRU11H0974AL1G","A32BQNJMLMZYG0","3FW4EL5A3LANKRP91N782LFHPY722Q","","534","img/land5.png","74","535","1","1","false","2","0.8,0.2,0.2,0.2,0.8,0.2,0.2,0.2,0.8","",""
"","html-keyboard-response","134","92029","0.0-192.0","3X31TUMD7Y8OICRFJRU11H0974AL1G","A32BQNJMLMZYG0","3FW4EL5A3LANKRP91N782LFHPY722Q","","null","<img src=""img/land5.png"" style=""width:200px; border:14px solid green;"">","null","","","","","","","",""
"","image-keyboard-response","135","92379","0.0-194.0","3X31TUMD7Y8OICRFJRU11H0974AL1G","A32BQNJMLMZYG0","3FW4EL5A3LANKRP91N782LFHPY722Q","","348","img/land5.png","74","350","1","0","false","2","0.8,0.2,0.2,0.2,0.8,0.2,0.2,0.2,0.8","",""
"","html-keyboard-response","136","92680","0.0-195.0","3X31TUMD7Y8OICRFJRU11H0974AL1G","A32BQNJMLMZYG0","3FW4EL5A3LANKRP91N782LFHPY722Q","","null","<img src=""img/land5.png"" style=""width:200px;border:14px solid red;"">","null","","","","","","","",""
"","image-keyboard-response","137","93557","0.0-197.0","3X31TUMD7Y8OICRFJRU11H0974AL1G","A32BQNJMLMZYG0","3FW4EL5A3LANKRP91N782LFHPY722Q","","875","img/land1.png","76","876","3","1","false","3","0.8,0.2,0.2,0.2,0.8,0.2,0.2,0.2,0.8","",""
"","html-keyboard-response","138","93859","0.0-198.0","3X31TUMD7Y8OICRFJRU11H0974AL1G","A32BQNJMLMZYG0","3FW4EL5A3LANKRP91N782LFHPY722Q","","null","<img src=""img/land1.png"" style=""width:200px; border:14px solid green;"">","null","","","","","","","",""
"","image-keyboard-response","139","94042","0.0-200.0","3X31TUMD7Y8OICRFJRU11H0974AL1G","A32BQNJMLMZYG0","3FW4EL5A3LANKRP91N782LFHPY722Q","","182","img/land1.png","75","183","2","0","false","3","0.8,0.2,0.2,0.2,0.8,0.2,0.2,0.2,0.8","",""
"","html-keyboard-response","140","94410","0.0-201.0","3X31TUMD7Y8OICRFJRU11H0974AL1G","A32BQNJMLMZYG0","3FW4EL5A3LANKRP91N782LFHPY722Q","","null","<img src=""img/land1.png"" style=""width:200px;border:14px solid red;"">","null","","","","","","","",""
"","image-keyboard-response","141","94616","0.0-203.0","3X31TUMD7Y8OICRFJRU11H0974AL1G","A32BQNJMLMZYG0","3FW4EL5A3LANKRP91N782LFHPY722Q","","204","img/land8.png","74","205","1","0","false","1","0.8,0.2,0.2,0.2,0.8,0.2,0.2,0.2,0.8","",""
"","html-keyboard-response","142","94918","0.0-204.0","3X31TUMD7Y8OICRFJRU11H0974AL1G","A32BQNJMLMZYG0","3FW4EL5A3LANKRP91N782LFHPY722Q","","null","<img src=""img/land8.png"" style=""width:200px;border:14px solid red;"">","null","","","","","","","",""
"","image-keyboard-response","143","95087","0.0-206.0","3X31TUMD7Y8OICRFJRU11H0974AL1G","A32BQNJMLMZYG0","3FW4EL5A3LANKRP91N782LFHPY722Q","","169","img/land5.png","74","169","1","1","false","2","0.8,0.2,0.2,0.2,0.8,0.2,0.2,0.2,0.8","",""
"","html-keyboard-response","144","95387","0.0-207.0","3X31TUMD7Y8OICRFJRU11H0974AL1G","A32BQNJMLMZYG0","3FW4EL5A3LANKRP91N782LFHPY722Q","","null","<img src=""img/land5.png"" style=""width:200px; border:14px solid green;"">","null","","","","","","","",""
"","image-keyboard-response","145","95613","0.0-209.0","3X31TUMD7Y8OICRFJRU11H0974AL1G","A32BQNJMLMZYG0","3FW4EL5A3LANKRP91N782LFHPY722Q","","224","img/land5.png","75","225","2","1","false","2","0.8,0.2,0.2,0.2,0.8,0.2,0.2,0.2,0.8","",""
"","html-keyboard-response","146","95915","0.0-210.0","3X31TUMD7Y8OICRFJRU11H0974AL1G","A32BQNJMLMZYG0","3FW4EL5A3LANKRP91N782LFHPY722Q","","null","<img src=""img/land5.png"" style=""width:200px; border:14px solid green;"">","null","","","","","","","",""
"","image-keyboard-response","147","96274","0.0-212.0","3X31TUMD7Y8OICRFJRU11H0974AL1G","A32BQNJMLMZYG0","3FW4EL5A3LANKRP91N782LFHPY722Q","","357","img/land1.png","76","358","3","1","false","3","0.8,0.2,0.2,0.2,0.8,0.2,0.2,0.2,0.8","",""
"","html-keyboard-response","148","96576","0.0-213.0","3X31TUMD7Y8OICRFJRU11H0974AL1G","A32BQNJMLMZYG0","3FW4EL5A3LANKRP91N782LFHPY722Q","","null","<img src=""img/land1.png"" style=""width:200px; border:14px solid green;"">","null","","","","","","","",""
"","image-keyboard-response","149","96728","0.0-215.0","3X31TUMD7Y8OICRFJRU11H0974AL1G","A32BQNJMLMZYG0","3FW4EL5A3LANKRP91N782LFHPY722Q","","150","img/land1.png","75","152","2","0","false","3","0.8,0.2,0.2,0.2,0.8,0.2,0.2,0.2,0.8","",""
"","html-keyboard-response","150","97030","0.0-216.0","3X31TUMD7Y8OICRFJRU11H0974AL1G","A32BQNJMLMZYG0","3FW4EL5A3LANKRP91N782LFHPY722Q","","null","<img src=""img/land1.png"" style=""width:200px;border:14px solid red;"">","null","","","","","","","",""
"","image-keyboard-response","151","97331","0.0-218.0","3X31TUMD7Y8OICRFJRU11H0974AL1G","A32BQNJMLMZYG0","3FW4EL5A3LANKRP91N782LFHPY722Q","","299","img/land8.png","74","301","1","1","false","1","0.8,0.2,0.2,0.2,0.8,0.2,0.2,0.2,0.8","",""
"","html-keyboard-response","152","97632","0.0-219.0","3X31TUMD7Y8OICRFJRU11H0974AL1G","A32BQNJMLMZYG0","3FW4EL5A3LANKRP91N782LFHPY722Q","","null","<img src=""img/land8.png"" style=""width:200px; border:14px solid green;"">","null","","","","","","","",""
"","image-keyboard-response","153","97905","0.0-221.0","3X31TUMD7Y8OICRFJRU11H0974AL1G","A32BQNJMLMZYG0","3FW4EL5A3LANKRP91N782LFHPY722Q","","271","img/land1.png","74","273","1","0","false","3","0.8,0.2,0.2,0.2,0.8,0.2,0.2,0.2,0.8","",""
"","html-keyboard-response","154","98261","0.0-222.0","3X31TUMD7Y8OICRFJRU11H0974AL1G","A32BQNJMLMZYG0","3FW4EL5A3LANKRP91N782LFHPY722Q","","null","<img src=""img/land1.png"" style=""width:200px;border:14px solid red;"">","null","","","","","","","",""
"","image-keyboard-response","155","98309","0.0-224.0","3X31TUMD7Y8OICRFJRU11H0974AL1G","A32BQNJMLMZYG0","3FW4EL5A3LANKRP91N782LFHPY722Q","","47","img/land5.png","75","47","2","1","false","2","0.8,0.2,0.2,0.2,0.8,0.2,0.2,0.2,0.8","",""
"","html-keyboard-response","156","98612","0.0-225.0","3X31TUMD7Y8OICRFJRU11H0974AL1G","A32BQNJMLMZYG0","3FW4EL5A3LANKRP91N782LFHPY722Q","","null","<img src=""img/land5.png"" style=""width:200px; border:14px solid green;"">","null","","","","","","","",""
"","image-keyboard-response","157","99156","0.0-227.0","3X31TUMD7Y8OICRFJRU11H0974AL1G","A32BQNJMLMZYG0","3FW4EL5A3LANKRP91N782LFHPY722Q","","541","img/land1.png","76","543","3","1","false","3","0.8,0.2,0.2,0.2,0.8,0.2,0.2,0.2,0.8","",""
"","html-keyboard-response","158","99458","0.0-228.0","3X31TUMD7Y8OICRFJRU11H0974AL1G","A32BQNJMLMZYG0","3FW4EL5A3LANKRP91N782LFHPY722Q","","null","<img src=""img/land1.png"" style=""width:200px; border:14px solid green;"">","null","","","","","","","",""
"","image-keyboard-response","159","99582","0.0-230.0","3X31TUMD7Y8OICRFJRU11H0974AL1G","A32BQNJMLMZYG0","3FW4EL5A3LANKRP91N782LFHPY722Q","","116","img/land1.png","75","117","2","0","false","3","0.8,0.2,0.2,0.2,0.8,0.2,0.2,0.2,0.8","",""
"","html-keyboard-response","160","99883","0.0-231.0","3X31TUMD7Y8OICRFJRU11H0974AL1G","A32BQNJMLMZYG0","3FW4EL5A3LANKRP91N782LFHPY722Q","","null","<img src=""img/land1.png"" style=""width:200px;border:14px solid red;"">","null","","","","","","","",""
"","image-keyboard-response","161","99926","0.0-233.0","3X31TUMD7Y8OICRFJRU11H0974AL1G","A32BQNJMLMZYG0","3FW4EL5A3LANKRP91N782LFHPY722Q","","41","img/land8.png","74","42","1","1","false","1","0.8,0.2,0.2,0.2,0.8,0.2,0.2,0.2,0.8","",""
"","html-keyboard-response","162","100229","0.0-234.0","3X31TUMD7Y8OICRFJRU11H0974AL1G","A32BQNJMLMZYG0","3FW4EL5A3LANKRP91N782LFHPY722Q","","null","<img src=""img/land8.png"" style=""width:200px; border:14px solid green;"">","null","","","","","","","",""
"","image-keyboard-response","163","100443","0.0-236.0","3X31TUMD7Y8OICRFJRU11H0974AL1G","A32BQNJMLMZYG0","3FW4EL5A3LANKRP91N782LFHPY722Q","","209","img/land8.png","75","210","2","0","false","1","0.8,0.2,0.2,0.2,0.8,0.2,0.2,0.2,0.8","",""
"","html-keyboard-response","164","100745","0.0-237.0","3X31TUMD7Y8OICRFJRU11H0974AL1G","A32BQNJMLMZYG0","3FW4EL5A3LANKRP91N782LFHPY722Q","","null","<img src=""img/land8.png"" style=""width:200px;border:14px solid red;"">","null","","","","","","","",""
"","image-keyboard-response","165","100940","0.0-239.0","3X31TUMD7Y8OICRFJRU11H0974AL1G","A32BQNJMLMZYG0","3FW4EL5A3LANKRP91N782LFHPY722Q","","193","img/land8.png","76","194","3","0","false","1","0.8,0.2,0.2,0.2,0.8,0.2,0.2,0.2,0.8","",""
"","html-keyboard-response","166","101242","0.0-240.0","3X31TUMD7Y8OICRFJRU11H0974AL1G","A32BQNJMLMZYG0","3FW4EL5A3LANKRP91N782LFHPY722Q","","null","<img src=""img/land8.png"" style=""width:200px;border:14px solid red;"">","null","","","","","","","",""
"","image-keyboard-response","167","101315","0.0-242.0","3X31TUMD7Y8OICRFJRU11H0974AL1G","A32BQNJMLMZYG0","3FW4EL5A3LANKRP91N782LFHPY722Q","","72","img/land8.png","75","72","2","0","false","1","0.8,0.2,0.2,0.2,0.8,0.2,0.2,0.2,0.8","",""
"","html-keyboard-response","168","101617","0.0-243.0","3X31TUMD7Y8OICRFJRU11H0974AL1G","A32BQNJMLMZYG0","3FW4EL5A3LANKRP91N782LFHPY722Q","","null","<img src=""img/land8.png"" style=""width:200px;border:14px solid red;"">","null","","","","","","","",""
"","image-keyboard-response","169","101739","0.0-245.0","3X31TUMD7Y8OICRFJRU11H0974AL1G","A32BQNJMLMZYG0","3FW4EL5A3LANKRP91N782LFHPY722Q","","120","img/land1.png","74","122","1","0","false","3","0.8,0.2,0.2,0.2,0.8,0.2,0.2,0.2,0.8","",""
"","html-keyboard-response","170","102042","0.0-246.0","3X31TUMD7Y8OICRFJRU11H0974AL1G","A32BQNJMLMZYG0","3FW4EL5A3LANKRP91N782LFHPY722Q","","null","<img src=""img/land1.png"" style=""width:200px;border:14px solid red;"">","null","","","","","","","",""
"","image-keyboard-response","171","102416","0.0-248.0","3X31TUMD7Y8OICRFJRU11H0974AL1G","A32BQNJMLMZYG0","3FW4EL5A3LANKRP91N782LFHPY722Q","","373","img/land1.png","74","373","1","0","false","3","0.8,0.2,0.2,0.2,0.8,0.2,0.2,0.2,0.8","",""
"","html-keyboard-response","172","102717","0.0-249.0","3X31TUMD7Y8OICRFJRU11H0974AL1G","A32BQNJMLMZYG0","3FW4EL5A3LANKRP91N782LFHPY722Q","","null","<img src=""img/land1.png"" style=""width:200px;border:14px solid red;"">","null","","","","","","","",""
"","image-keyboard-response","173","102751","0.0-251.0","3X31TUMD7Y8OICRFJRU11H0974AL1G","A32BQNJMLMZYG0","3FW4EL5A3LANKRP91N782LFHPY722Q","","33","img/land1.png","75","36","2","0","false","3","0.8,0.2,0.2,0.2,0.8,0.2,0.2,0.2,0.8","",""
"","html-keyboard-response","174","103053","0.0-252.0","3X31TUMD7Y8OICRFJRU11H0974AL1G","A32BQNJMLMZYG0","3FW4EL5A3LANKRP91N782LFHPY722Q","","null","<img src=""img/land1.png"" style=""width:200px;border:14px solid red;"">","null","","","","","","","",""
"","image-keyboard-response","175","103511","0.0-254.0","3X31TUMD7Y8OICRFJRU11H0974AL1G","A32BQNJMLMZYG0","3FW4EL5A3LANKRP91N782LFHPY722Q","","457","img/land5.png","74","457","1","0","false","2","0.8,0.2,0.2,0.2,0.8,0.2,0.2,0.2,0.8","",""
"","html-keyboard-response","176","103814","0.0-255.0","3X31TUMD7Y8OICRFJRU11H0974AL1G","A32BQNJMLMZYG0","3FW4EL5A3LANKRP91N782LFHPY722Q","","null","<img src=""img/land5.png"" style=""width:200px;border:14px solid red;"">","null","","","","","","","",""
"","image-keyboard-response","177","104080","0.0-257.0","3X31TUMD7Y8OICRFJRU11H0974AL1G","A32BQNJMLMZYG0","3FW4EL5A3LANKRP91N782LFHPY722Q","","263","img/land8.png","75","265","2","1","false","1","0.8,0.2,0.2,0.2,0.8,0.2,0.2,0.2,0.8","",""
"","html-keyboard-response","178","104400","0.0-258.0","3X31TUMD7Y8OICRFJRU11H0974AL1G","A32BQNJMLMZYG0","3FW4EL5A3LANKRP91N782LFHPY722Q","","null","<img src=""img/land8.png"" style=""width:200px; border:14px solid green;"">","null","","","","","","","",""
"","image-keyboard-response","179","104624","0.0-260.0","3X31TUMD7Y8OICRFJRU11H0974AL1G","A32BQNJMLMZYG0","3FW4EL5A3LANKRP91N782LFHPY722Q","","223","img/land5.png","76","223","3","1","false","2","0.8,0.2,0.2,0.2,0.8,0.2,0.2,0.2,0.8","",""
"","html-keyboard-response","180","104926","0.0-261.0","3X31TUMD7Y8OICRFJRU11H0974AL1G","A32BQNJMLMZYG0","3FW4EL5A3LANKRP91N782LFHPY722Q","","null","<img src=""img/land5.png"" style=""width:200px; border:14px solid green;"">","null","","","","","","","",""
"","image-keyboard-response","181","105087","0.0-263.0","3X31TUMD7Y8OICRFJRU11H0974AL1G","A32BQNJMLMZYG0","3FW4EL5A3LANKRP91N782LFHPY722Q","","159","img/land8.png","75","161","2","0","false","1","0.8,0.2,0.2,0.2,0.8,0.2,0.2,0.2,0.8","",""
"","html-keyboard-response","182","105390","0.0-264.0","3X31TUMD7Y8OICRFJRU11H0974AL1G","A32BQNJMLMZYG0","3FW4EL5A3LANKRP91N782LFHPY722Q","","null","<img src=""img/land8.png"" style=""width:200px;border:14px solid red;"">","null","","","","","","","",""
"","image-keyboard-response","183","105525","0.0-266.0","3X31TUMD7Y8OICRFJRU11H0974AL1G","A32BQNJMLMZYG0","3FW4EL5A3LANKRP91N782LFHPY722Q","","133","img/land8.png","74","133","1","1","false","1","0.8,0.2,0.2,0.2,0.8,0.2,0.2,0.2,0.8","",""
"","html-keyboard-response","184","105827","0.0-267.0","3X31TUMD7Y8OICRFJRU11H0974AL1G","A32BQNJMLMZYG0","3FW4EL5A3LANKRP91N782LFHPY722Q","","null","<img src=""img/land8.png"" style=""width:200px; border:14px solid green;"">","null","","","","","","","",""
"","image-keyboard-response","185","106091","0.0-269.0","3X31TUMD7Y8OICRFJRU11H0974AL1G","A32BQNJMLMZYG0","3FW4EL5A3LANKRP91N782LFHPY722Q","","261","img/land1.png","75","263","2","0","false","3","0.8,0.2,0.2,0.2,0.8,0.2,0.2,0.2,0.8","",""
"","html-keyboard-response","186","106393","0.0-270.0","3X31TUMD7Y8OICRFJRU11H0974AL1G","A32BQNJMLMZYG0","3FW4EL5A3LANKRP91N782LFHPY722Q","","null","<img src=""img/land1.png"" style=""width:200px;border:14px solid red;"">","null","","","","","","","",""
"","html-keyboard-response","187","109203","0.0-272.0","3X31TUMD7Y8OICRFJRU11H0974AL1G","A32BQNJMLMZYG0","3FW4EL5A3LANKRP91N782LFHPY722Q","","","","","","","","","","","",""
"","image-keyboard-response","188","110206","0.0-273.0","3X31TUMD7Y8OICRFJRU11H0974AL1G","A32BQNJMLMZYG0","3FW4EL5A3LANKRP91N782LFHPY722Q","","","img/land6.png","","1004","-1","0","true","1","0.8,0.8,0.2,0.2,0.8,0.8,0.8,0.2,0.8","",""
"","html-keyboard-response","189","110516","0.0-274.0","3X31TUMD7Y8OICRFJRU11H0974AL1G","A32BQNJMLMZYG0","3FW4EL5A3LANKRP91N782LFHPY722Q","","null","<img src=""img/land6.png"" style=""width:200px;border:14px solid red;"">","null","","","","","","","",""
"","html-keyboard-response","190","113001","0.0-275.0-0.0","3X31TUMD7Y8OICRFJRU11H0974AL1G","A32BQNJMLMZYG0","3FW4EL5A3LANKRP91N782LFHPY722Q","","","","","","","","","","","",""
"","image-keyboard-response","191","113580","0.0-276.0","3X31TUMD7Y8OICRFJRU11H0974AL1G","A32BQNJMLMZYG0","3FW4EL5A3LANKRP91N782LFHPY722Q","","575","img/land9.png","75","579","2","0","false","2","0.8,0.8,0.2,0.2,0.8,0.8,0.8,0.2,0.8","",""
"","html-keyboard-response","192","113881","0.0-277.0","3X31TUMD7Y8OICRFJRU11H0974AL1G","A32BQNJMLMZYG0","3FW4EL5A3LANKRP91N782LFHPY722Q","","null","<img src=""img/land9.png"" style=""width:200px;border:14px solid red;"">","null","","","","","","","",""
"","image-keyboard-response","193","114080","0.0-279.0","3X31TUMD7Y8OICRFJRU11H0974AL1G","A32BQNJMLMZYG0","3FW4EL5A3LANKRP91N782LFHPY722Q","","198","img/land6.png","74","198","1","0","false","1","0.8,0.8,0.2,0.2,0.8,0.8,0.8,0.2,0.8","",""
"","html-keyboard-response","194","114447","0.0-280.0","3X31TUMD7Y8OICRFJRU11H0974AL1G","A32BQNJMLMZYG0","3FW4EL5A3LANKRP91N782LFHPY722Q","","null","<img src=""img/land6.png"" style=""width:200px;border:14px solid red;"">","null","","","","","","","",""
"","image-keyboard-response","195","114732","0.0-282.0","3X31TUMD7Y8OICRFJRU11H0974AL1G","A32BQNJMLMZYG0","3FW4EL5A3LANKRP91N782LFHPY722Q","","284","img/land6.png","75","285","2","1","false","1","0.8,0.8,0.2,0.2,0.8,0.8,0.8,0.2,0.8","",""
"","html-keyboard-response","196","115033","0.0-283.0","3X31TUMD7Y8OICRFJRU11H0974AL1G","A32BQNJMLMZYG0","3FW4EL5A3LANKRP91N782LFHPY722Q","","null","<img src=""img/land6.png"" style=""width:200px; border:14px solid green;"">","null","","","","","","","",""
"","image-keyboard-response","197","115427","0.0-285.0","3X31TUMD7Y8OICRFJRU11H0974AL1G","A32BQNJMLMZYG0","3FW4EL5A3LANKRP91N782LFHPY722Q","","391","img/land9.png","76","393","3","1","false","2","0.8,0.8,0.2,0.2,0.8,0.8,0.8,0.2,0.8","",""
"","html-keyboard-response","198","115728","0.0-286.0","3X31TUMD7Y8OICRFJRU11H0974AL1G","A32BQNJMLMZYG0","3FW4EL5A3LANKRP91N782LFHPY722Q","","null","<img src=""img/land9.png"" style=""width:200px; border:14px solid green;"">","null","","","","","","","",""
"","image-keyboard-response","199","115944","0.0-288.0","3X31TUMD7Y8OICRFJRU11H0974AL1G","A32BQNJMLMZYG0","3FW4EL5A3LANKRP91N782LFHPY722Q","","214","img/land6.png","75","215","2","0","false","1","0.8,0.8,0.2,0.2,0.8,0.8,0.8,0.2,0.8","",""
"","html-keyboard-response","200","116247","0.0-289.0","3X31TUMD7Y8OICRFJRU11H0974AL1G","A32BQNJMLMZYG0","3FW4EL5A3LANKRP91N782LFHPY722Q","","null","<img src=""img/land6.png"" style=""width:200px;border:14px solid red;"">","null","","","","","","","",""
"","image-keyboard-response","201","116400","0.0-291.0","3X31TUMD7Y8OICRFJRU11H0974AL1G","A32BQNJMLMZYG0","3FW4EL5A3LANKRP91N782LFHPY722Q","","150","img/land4.png","74","152","1","1","false","3","0.8,0.8,0.2,0.2,0.8,0.8,0.8,0.2,0.8","",""
"","html-keyboard-response","202","116704","0.0-292.0","3X31TUMD7Y8OICRFJRU11H0974AL1G","A32BQNJMLMZYG0","3FW4EL5A3LANKRP91N782LFHPY722Q","","null","<img src=""img/land4.png"" style=""width:200px; border:14px solid green;"">","null","","","","","","","",""
"","image-keyboard-response","203","116945","0.0-294.0","3X31TUMD7Y8OICRFJRU11H0974AL1G","A32BQNJMLMZYG0","3FW4EL5A3LANKRP91N782LFHPY722Q","","240","img/land6.png","75","241","2","1","false","1","0.8,0.8,0.2,0.2,0.8,0.8,0.8,0.2,0.8","",""
"","html-keyboard-response","204","117252","0.0-295.0","3X31TUMD7Y8OICRFJRU11H0974AL1G","A32BQNJMLMZYG0","3FW4EL5A3LANKRP91N782LFHPY722Q","","null","<img src=""img/land6.png"" style=""width:200px; border:14px solid green;"">","null","","","","","","","",""
"","image-keyboard-response","205","117587","0.0-297.0","3X31TUMD7Y8OICRFJRU11H0974AL1G","A32BQNJMLMZYG0","3FW4EL5A3LANKRP91N782LFHPY722Q","","334","img/land4.png","76","335","3","1","false","3","0.8,0.8,0.2,0.2,0.8,0.8,0.8,0.2,0.8","",""
"","html-keyboard-response","206","117888","0.0-298.0","3X31TUMD7Y8OICRFJRU11H0974AL1G","A32BQNJMLMZYG0","3FW4EL5A3LANKRP91N782LFHPY722Q","","null","<img src=""img/land4.png"" style=""width:200px; border:14px solid green;"">","null","","","","","","","",""
"","image-keyboard-response","207","118113","0.0-300.0","3X31TUMD7Y8OICRFJRU11H0974AL1G","A32BQNJMLMZYG0","3FW4EL5A3LANKRP91N782LFHPY722Q","","221","img/land9.png","75","224","2","1","false","2","0.8,0.8,0.2,0.2,0.8,0.8,0.8,0.2,0.8","",""
"","html-keyboard-response","208","118430","0.0-301.0","3X31TUMD7Y8OICRFJRU11H0974AL1G","A32BQNJMLMZYG0","3FW4EL5A3LANKRP91N782LFHPY722Q","","null","<img src=""img/land9.png"" style=""width:200px; border:14px solid green;"">","null","","","","","","","",""
"","image-keyboard-response","209","118609","0.0-303.0","3X31TUMD7Y8OICRFJRU11H0974AL1G","A32BQNJMLMZYG0","3FW4EL5A3LANKRP91N782LFHPY722Q","","176","img/land4.png","74","178","1","0","false","3","0.8,0.8,0.2,0.2,0.8,0.8,0.8,0.2,0.8","",""
"","html-keyboard-response","210","118911","0.0-304.0","3X31TUMD7Y8OICRFJRU11H0974AL1G","A32BQNJMLMZYG0","3FW4EL5A3LANKRP91N782LFHPY722Q","","null","<img src=""img/land4.png"" style=""width:200px;border:14px solid red;"">","null","","","","","","","",""
"","image-keyboard-response","211","119213","0.0-306.0","3X31TUMD7Y8OICRFJRU11H0974AL1G","A32BQNJMLMZYG0","3FW4EL5A3LANKRP91N782LFHPY722Q","","298","img/land6.png","75","301","2","1","false","1","0.8,0.8,0.2,0.2,0.8,0.8,0.8,0.2,0.8","",""
"","html-keyboard-response","212","119515","0.0-307.0","3X31TUMD7Y8OICRFJRU11H0974AL1G","A32BQNJMLMZYG0","3FW4EL5A3LANKRP91N782LFHPY722Q","","null","<img src=""img/land6.png"" style=""width:200px; border:14px solid green;"">","null","","","","","","","",""
"","image-keyboard-response","213","120008","0.0-309.0","3X31TUMD7Y8OICRFJRU11H0974AL1G","A32BQNJMLMZYG0","3FW4EL5A3LANKRP91N782LFHPY722Q","","490","img/land9.png","76","493","3","1","false","2","0.8,0.8,0.2,0.2,0.8,0.8,0.8,0.2,0.8","",""
"","html-keyboard-response","214","120325","0.0-310.0","3X31TUMD7Y8OICRFJRU11H0974AL1G","A32BQNJMLMZYG0","3FW4EL5A3LANKRP91N782LFHPY722Q","","null","<img src=""img/land9.png"" style=""width:200px; border:14px solid green;"">","null","","","","","","","",""
"","image-keyboard-response","215","120483","0.0-312.0","3X31TUMD7Y8OICRFJRU11H0974AL1G","A32BQNJMLMZYG0","3FW4EL5A3LANKRP91N782LFHPY722Q","","155","img/land6.png","75","158","2","0","false","1","0.8,0.8,0.2,0.2,0.8,0.8,0.8,0.2,0.8","",""
"","html-keyboard-response","216","120785","0.0-313.0","3X31TUMD7Y8OICRFJRU11H0974AL1G","A32BQNJMLMZYG0","3FW4EL5A3LANKRP91N782LFHPY722Q","","null","<img src=""img/land6.png"" style=""width:200px;border:14px solid red;"">","null","","","","","","","",""
"","image-keyboard-response","217","120949","0.0-315.0","3X31TUMD7Y8OICRFJRU11H0974AL1G","A32BQNJMLMZYG0","3FW4EL5A3LANKRP91N782LFHPY722Q","","162","img/land9.png","74","163","1","0","false","2","0.8,0.8,0.2,0.2,0.8,0.8,0.8,0.2,0.8","",""
"","html-keyboard-response","218","121251","0.0-316.0","3X31TUMD7Y8OICRFJRU11H0974AL1G","A32BQNJMLMZYG0","3FW4EL5A3LANKRP91N782LFHPY722Q","","null","<img src=""img/land9.png"" style=""width:200px;border:14px solid red;"">","null","","","","","","","",""
"","image-keyboard-response","219","121363","0.0-318.0","3X31TUMD7Y8OICRFJRU11H0974AL1G","A32BQNJMLMZYG0","3FW4EL5A3LANKRP91N782LFHPY722Q","","110","img/land6.png","75","111","2","1","false","1","0.8,0.8,0.2,0.2,0.8,0.8,0.8,0.2,0.8","",""
"","html-keyboard-response","220","121665","0.0-319.0","3X31TUMD7Y8OICRFJRU11H0974AL1G","A32BQNJMLMZYG0","3FW4EL5A3LANKRP91N782LFHPY722Q","","null","<img src=""img/land6.png"" style=""width:200px; border:14px solid green;"">","null","","","","","","","",""
"","image-keyboard-response","221","121842","0.0-321.0","3X31TUMD7Y8OICRFJRU11H0974AL1G","A32BQNJMLMZYG0","3FW4EL5A3LANKRP91N782LFHPY722Q","","175","img/land6.png","76","176","3","0","false","1","0.8,0.8,0.2,0.2,0.8,0.8,0.8,0.2,0.8","",""
"","html-keyboard-response","222","122145","0.0-322.0","3X31TUMD7Y8OICRFJRU11H0974AL1G","A32BQNJMLMZYG0","3FW4EL5A3LANKRP91N782LFHPY722Q","","null","<img src=""img/land6.png"" style=""width:200px;border:14px solid red;"">","null","","","","","","","",""
"","image-keyboard-response","223","122518","0.0-324.0","3X31TUMD7Y8OICRFJRU11H0974AL1G","A32BQNJMLMZYG0","3FW4EL5A3LANKRP91N782LFHPY722Q","","372","img/land4.png","75","373","2","1","false","3","0.8,0.8,0.2,0.2,0.8,0.8,0.8,0.2,0.8","",""
"","html-keyboard-response","224","122821","0.0-325.0","3X31TUMD7Y8OICRFJRU11H0974AL1G","A32BQNJMLMZYG0","3FW4EL5A3LANKRP91N782LFHPY722Q","","null","<img src=""img/land4.png"" style=""width:200px; border:14px solid green;"">","null","","","","","","","",""
"","image-keyboard-response","225","123027","0.0-327.0","3X31TUMD7Y8OICRFJRU11H0974AL1G","A32BQNJMLMZYG0","3FW4EL5A3LANKRP91N782LFHPY722Q","","203","img/land4.png","74","205","1","1","false","3","0.8,0.8,0.2,0.2,0.8,0.8,0.8,0.2,0.8","",""
"","html-keyboard-response","226","123330","0.0-328.0","3X31TUMD7Y8OICRFJRU11H0974AL1G","A32BQNJMLMZYG0","3FW4EL5A3LANKRP91N782LFHPY722Q","","null","<img src=""img/land4.png"" style=""width:200px; border:14px solid green;"">","null","","","","","","","",""
"","image-keyboard-response","227","123427","0.0-330.0","3X31TUMD7Y8OICRFJRU11H0974AL1G","A32BQNJMLMZYG0","3FW4EL5A3LANKRP91N782LFHPY722Q","","97","img/land4.png","75","97","2","0","false","3","0.8,0.8,0.2,0.2,0.8,0.8,0.8,0.2,0.8","",""
"","html-keyboard-response","228","123729","0.0-331.0","3X31TUMD7Y8OICRFJRU11H0974AL1G","A32BQNJMLMZYG0","3FW4EL5A3LANKRP91N782LFHPY722Q","","null","<img src=""img/land4.png"" style=""width:200px;border:14px solid red;"">","null","","","","","","","",""
"","image-keyboard-response","229","123883","0.0-333.0","3X31TUMD7Y8OICRFJRU11H0974AL1G","A32BQNJMLMZYG0","3FW4EL5A3LANKRP91N782LFHPY722Q","","147","img/land6.png","76","149","3","0","false","1","0.8,0.8,0.2,0.2,0.8,0.8,0.8,0.2,0.8","",""
"","html-keyboard-response","230","124191","0.0-334.0","3X31TUMD7Y8OICRFJRU11H0974AL1G","A32BQNJMLMZYG0","3FW4EL5A3LANKRP91N782LFHPY722Q","","null","<img src=""img/land6.png"" style=""width:200px;border:14px solid red;"">","null","","","","","","","",""
"","image-keyboard-response","231","124530","0.0-336.0","3X31TUMD7Y8OICRFJRU11H0974AL1G","A32BQNJMLMZYG0","3FW4EL5A3LANKRP91N782LFHPY722Q","","334","img/land4.png","74","336","1","1","false","3","0.8,0.8,0.2,0.2,0.8,0.8,0.8,0.2,0.8","",""
"","html-keyboard-response","232","124832","0.0-337.0","3X31TUMD7Y8OICRFJRU11H0974AL1G","A32BQNJMLMZYG0","3FW4EL5A3LANKRP91N782LFHPY722Q","","null","<img src=""img/land4.png"" style=""width:200px; border:14px solid green;"">","null","","","","","","","",""
"","image-keyboard-response","233","124865","0.0-339.0","3X31TUMD7Y8OICRFJRU11H0974AL1G","A32BQNJMLMZYG0","3FW4EL5A3LANKRP91N782LFHPY722Q","","32","img/land6.png","75","32","2","1","false","1","0.8,0.8,0.2,0.2,0.8,0.8,0.8,0.2,0.8","",""
"","html-keyboard-response","234","125167","0.0-340.0","3X31TUMD7Y8OICRFJRU11H0974AL1G","A32BQNJMLMZYG0","3FW4EL5A3LANKRP91N782LFHPY722Q","","null","<img src=""img/land6.png"" style=""width:200px; border:14px solid green;"">","null","","","","","","","",""
"","image-keyboard-response","235","125286","0.0-342.0","3X31TUMD7Y8OICRFJRU11H0974AL1G","A32BQNJMLMZYG0","3FW4EL5A3LANKRP91N782LFHPY722Q","","116","img/land6.png","76","117","3","1","false","1","0.8,0.8,0.2,0.2,0.8,0.8,0.8,0.2,0.8","",""
"","html-keyboard-response","236","125586","0.0-343.0","3X31TUMD7Y8OICRFJRU11H0974AL1G","A32BQNJMLMZYG0","3FW4EL5A3LANKRP91N782LFHPY722Q","","null","<img src=""img/land6.png"" style=""width:200px; border:14px solid green;"">","null","","","","","","","",""
"","image-keyboard-response","237","125640","0.0-345.0","3X31TUMD7Y8OICRFJRU11H0974AL1G","A32BQNJMLMZYG0","3FW4EL5A3LANKRP91N782LFHPY722Q","","53","img/land9.png","75","53","2","1","false","2","0.8,0.8,0.2,0.2,0.8,0.8,0.8,0.2,0.8","",""
"","html-keyboard-response","238","125943","0.0-346.0","3X31TUMD7Y8OICRFJRU11H0974AL1G","A32BQNJMLMZYG0","3FW4EL5A3LANKRP91N782LFHPY722Q","","null","<img src=""img/land9.png"" style=""width:200px; border:14px solid green;"">","null","","","","","","","",""
"","image-keyboard-response","239","126067","0.0-348.0","3X31TUMD7Y8OICRFJRU11H0974AL1G","A32BQNJMLMZYG0","3FW4EL5A3LANKRP91N782LFHPY722Q","","121","img/land9.png","74","123","1","1","false","2","0.8,0.8,0.2,0.2,0.8,0.8,0.8,0.2,0.8","",""
"","html-keyboard-response","240","126369","0.0-349.0","3X31TUMD7Y8OICRFJRU11H0974AL1G","A32BQNJMLMZYG0","3FW4EL5A3LANKRP91N782LFHPY722Q","","null","<img src=""img/land9.png"" style=""width:200px; border:14px solid green;"">","null","","","","","","","",""
"","image-keyboard-response","241","126624","0.0-351.0","3X31TUMD7Y8OICRFJRU11H0974AL1G","A32BQNJMLMZYG0","3FW4EL5A3LANKRP91N782LFHPY722Q","","254","img/land6.png","75","254","2","1","false","1","0.8,0.8,0.2,0.2,0.8,0.8,0.8,0.2,0.8","",""
"","html-keyboard-response","242","126926","0.0-352.0","3X31TUMD7Y8OICRFJRU11H0974AL1G","A32BQNJMLMZYG0","3FW4EL5A3LANKRP91N782LFHPY722Q","","null","<img src=""img/land6.png"" style=""width:200px; border:14px solid green;"">","null","","","","","","","",""
"","image-keyboard-response","243","127071","0.0-354.0","3X31TUMD7Y8OICRFJRU11H0974AL1G","A32BQNJMLMZYG0","3FW4EL5A3LANKRP91N782LFHPY722Q","","143","img/land4.png","76","144","3","0","false","3","0.8,0.8,0.2,0.2,0.8,0.8,0.8,0.2,0.8","",""
"","html-keyboard-response","244","127373","0.0-355.0","3X31TUMD7Y8OICRFJRU11H0974AL1G","A32BQNJMLMZYG0","3FW4EL5A3LANKRP91N782LFHPY722Q","","null","<img src=""img/land4.png"" style=""width:200px;border:14px solid red;"">","null","","","","","","","",""
"","image-keyboard-response","245","127419","0.0-357.0","3X31TUMD7Y8OICRFJRU11H0974AL1G","A32BQNJMLMZYG0","3FW4EL5A3LANKRP91N782LFHPY722Q","","44","img/land4.png","75","45","2","0","false","3","0.8,0.8,0.2,0.2,0.8,0.8,0.8,0.2,0.8","",""
"","html-keyboard-response","246","127721","0.0-358.0","3X31TUMD7Y8OICRFJRU11H0974AL1G","A32BQNJMLMZYG0","3FW4EL5A3LANKRP91N782LFHPY722Q","","null","<img src=""img/land4.png"" style=""width:200px;border:14px solid red;"">","null","","","","","","","",""
"","image-keyboard-response","247","127761","0.0-360.0","3X31TUMD7Y8OICRFJRU11H0974AL1G","A32BQNJMLMZYG0","3FW4EL5A3LANKRP91N782LFHPY722Q","","12","img/land6.png","74","15","1","1","false","1","0.8,0.8,0.2,0.2,0.8,0.8,0.8,0.2,0.8","",""
"","html-keyboard-response","248","128064","0.0-361.0","3X31TUMD7Y8OICRFJRU11H0974AL1G","A32BQNJMLMZYG0","3FW4EL5A3LANKRP91N782LFHPY722Q","","null","<img src=""img/land6.png"" style=""width:200px; border:14px solid green;"">","null","","","","","","","",""
"","image-keyboard-response","249","128276","0.0-363.0","3X31TUMD7Y8OICRFJRU11H0974AL1G","A32BQNJMLMZYG0","3FW4EL5A3LANKRP91N782LFHPY722Q","","210","img/land9.png","75","211","2","1","false","2","0.8,0.8,0.2,0.2,0.8,0.8,0.8,0.2,0.8","",""
"","html-keyboard-response","250","128580","0.0-364.0","3X31TUMD7Y8OICRFJRU11H0974AL1G","A32BQNJMLMZYG0","3FW4EL5A3LANKRP91N782LFHPY722Q","","null","<img src=""img/land9.png"" style=""width:200px; border:14px solid green;"">","null","","","","","","","",""
"","image-keyboard-response","251","128663","0.0-366.0","3X31TUMD7Y8OICRFJRU11H0974AL1G","A32BQNJMLMZYG0","3FW4EL5A3LANKRP91N782LFHPY722Q","","82","img/land4.png","76","84","3","1","false","3","0.8,0.8,0.2,0.2,0.8,0.8,0.8,0.2,0.8","",""
"","html-keyboard-response","252","128964","0.0-367.0","3X31TUMD7Y8OICRFJRU11H0974AL1G","A32BQNJMLMZYG0","3FW4EL5A3LANKRP91N782LFHPY722Q","","null","<img src=""img/land4.png"" style=""width:200px; border:14px solid green;"">","null","","","","","","","",""
"","image-keyboard-response","253","129290","0.0-369.0","3X31TUMD7Y8OICRFJRU11H0974AL1G","A32BQNJMLMZYG0","3FW4EL5A3LANKRP91N782LFHPY722Q","","325","img/land4.png","74","326","1","1","false","3","0.8,0.8,0.2,0.2,0.8,0.8,0.8,0.2,0.8","",""
"","html-keyboard-response","254","129592","0.0-370.0","3X31TUMD7Y8OICRFJRU11H0974AL1G","A32BQNJMLMZYG0","3FW4EL5A3LANKRP91N782LFHPY722Q","","null","<img src=""img/land4.png"" style=""width:200px; border:14px solid green;"">","null","","","","","","","",""
"","image-keyboard-response","255","129752","0.0-372.0","3X31TUMD7Y8OICRFJRU11H0974AL1G","A32BQNJMLMZYG0","3FW4EL5A3LANKRP91N782LFHPY722Q","","159","img/land9.png","75","159","2","0","false","2","0.8,0.8,0.2,0.2,0.8,0.8,0.8,0.2,0.8","",""
"","html-keyboard-response","256","130054","0.0-373.0","3X31TUMD7Y8OICRFJRU11H0974AL1G","A32BQNJMLMZYG0","3FW4EL5A3LANKRP91N782LFHPY722Q","","null","<img src=""img/land9.png"" style=""width:200px;border:14px solid red;"">","null","","","","","","","",""
"","image-keyboard-response","257","130198","0.0-375.0","3X31TUMD7Y8OICRFJRU11H0974AL1G","A32BQNJMLMZYG0","3FW4EL5A3LANKRP91N782LFHPY722Q","","142","img/land6.png","76","144","3","0","false","1","0.8,0.8,0.2,0.2,0.8,0.8,0.8,0.2,0.8","",""
"","html-keyboard-response","258","130501","0.0-376.0","3X31TUMD7Y8OICRFJRU11H0974AL1G","A32BQNJMLMZYG0","3FW4EL5A3LANKRP91N782LFHPY722Q","","null","<img src=""img/land6.png"" style=""width:200px;border:14px solid red;"">","null","","","","","","","",""
"","image-keyboard-response","259","130620","0.0-378.0","3X31TUMD7Y8OICRFJRU11H0974AL1G","A32BQNJMLMZYG0","3FW4EL5A3LANKRP91N782LFHPY722Q","","116","img/land9.png","75","117","2","0","false","2","0.8,0.8,0.2,0.2,0.8,0.8,0.8,0.2,0.8","",""
"","html-keyboard-response","260","130923","0.0-379.0","3X31TUMD7Y8OICRFJRU11H0974AL1G","A32BQNJMLMZYG0","3FW4EL5A3LANKRP91N782LFHPY722Q","","null","<img src=""img/land9.png"" style=""width:200px;border:14px solid red;"">","null","","","","","","","",""
"","image-keyboard-response","261","130975","0.0-381.0","3X31TUMD7Y8OICRFJRU11H0974AL1G","A32BQNJMLMZYG0","3FW4EL5A3LANKRP91N782LFHPY722Q","","51","img/land9.png","74","52","1","0","false","2","0.8,0.8,0.2,0.2,0.8,0.8,0.8,0.2,0.8","",""
"","html-keyboard-response","262","131277","0.0-382.0","3X31TUMD7Y8OICRFJRU11H0974AL1G","A32BQNJMLMZYG0","3FW4EL5A3LANKRP91N782LFHPY722Q","","null","<img src=""img/land9.png"" style=""width:200px;border:14px solid red;"">","null","","","","","","","",""
"","image-keyboard-response","263","131727","0.0-384.0","3X31TUMD7Y8OICRFJRU11H0974AL1G","A32BQNJMLMZYG0","3FW4EL5A3LANKRP91N782LFHPY722Q","","447","img/land6.png","75","449","2","1","false","1","0.8,0.8,0.2,0.2,0.8,0.8,0.8,0.2,0.8","",""
"","html-keyboard-response","264","132029","0.0-385.0","3X31TUMD7Y8OICRFJRU11H0974AL1G","A32BQNJMLMZYG0","3FW4EL5A3LANKRP91N782LFHPY722Q","","null","<img src=""img/land6.png"" style=""width:200px; border:14px solid green;"">","null","","","","","","","",""
"","image-keyboard-response","265","132335","0.0-387.0","3X31TUMD7Y8OICRFJRU11H0974AL1G","A32BQNJMLMZYG0","3FW4EL5A3LANKRP91N782LFHPY722Q","","304","img/land4.png","76","305","3","1","false","3","0.8,0.8,0.2,0.2,0.8,0.8,0.8,0.2,0.8","",""
"","html-keyboard-response","266","132636","0.0-388.0","3X31TUMD7Y8OICRFJRU11H0974AL1G","A32BQNJMLMZYG0","3FW4EL5A3LANKRP91N782LFHPY722Q","","null","<img src=""img/land4.png"" style=""width:200px; border:14px solid green;"">","null","","","","","","","",""
"","image-keyboard-response","267","132709","0.0-390.0","3X31TUMD7Y8OICRFJRU11H0974AL1G","A32BQNJMLMZYG0","3FW4EL5A3LANKRP91N782LFHPY722Q","","71","img/land4.png","75","73","2","1","false","3","0.8,0.8,0.2,0.2,0.8,0.8,0.8,0.2,0.8","",""
"","html-keyboard-response","268","133012","0.0-391.0","3X31TUMD7Y8OICRFJRU11H0974AL1G","A32BQNJMLMZYG0","3FW4EL5A3LANKRP91N782LFHPY722Q","","null","<img src=""img/land4.png"" style=""width:200px; border:14px solid green;"">","null","","","","","","","",""
"","image-keyboard-response","269","133232","0.0-393.0","3X31TUMD7Y8OICRFJRU11H0974AL1G","A32BQNJMLMZYG0","3FW4EL5A3LANKRP91N782LFHPY722Q","","218","img/land6.png","74","219","1","1","false","1","0.8,0.8,0.2,0.2,0.8,0.8,0.8,0.2,0.8","",""
"","html-keyboard-response","270","133534","0.0-394.0","3X31TUMD7Y8OICRFJRU11H0974AL1G","A32BQNJMLMZYG0","3FW4EL5A3LANKRP91N782LFHPY722Q","","null","<img src=""img/land6.png"" style=""width:200px; border:14px solid green;"">","null","","","","","","","",""
"","image-keyboard-response","271","133694","0.0-396.0","3X31TUMD7Y8OICRFJRU11H0974AL1G","A32BQNJMLMZYG0","3FW4EL5A3LANKRP91N782LFHPY722Q","","158","img/land9.png","75","159","2","1","false","2","0.8,0.8,0.2,0.2,0.8,0.8,0.8,0.2,0.8","",""
"","html-keyboard-response","272","133996","0.0-397.0","3X31TUMD7Y8OICRFJRU11H0974AL1G","A32BQNJMLMZYG0","3FW4EL5A3LANKRP91N782LFHPY722Q","","null","<img src=""img/land9.png"" style=""width:200px; border:14px solid green;"">","null","","","","","","","",""
"","image-keyboard-response","273","134163","0.0-399.0","3X31TUMD7Y8OICRFJRU11H0974AL1G","A32BQNJMLMZYG0","3FW4EL5A3LANKRP91N782LFHPY722Q","","165","img/land9.png","76","167","3","0","false","2","0.8,0.8,0.2,0.2,0.8,0.8,0.8,0.2,0.8","",""
"","html-keyboard-response","274","134465","0.0-400.0","3X31TUMD7Y8OICRFJRU11H0974AL1G","A32BQNJMLMZYG0","3FW4EL5A3LANKRP91N782LFHPY722Q","","null","<img src=""img/land9.png"" style=""width:200px;border:14px solid red;"">","null","","","","","","","",""
"","image-keyboard-response","275","134919","0.0-402.0","3X31TUMD7Y8OICRFJRU11H0974AL1G","A32BQNJMLMZYG0","3FW4EL5A3LANKRP91N782LFHPY722Q","","451","img/land9.png","74","453","1","0","false","2","0.8,0.8,0.2,0.2,0.8,0.8,0.8,0.2,0.8","",""
"","html-keyboard-response","276","135221","0.0-403.0","3X31TUMD7Y8OICRFJRU11H0974AL1G","A32BQNJMLMZYG0","3FW4EL5A3LANKRP91N782LFHPY722Q","","null","<img src=""img/land9.png"" style=""width:200px;border:14px solid red;"">","null","","","","","","","",""
"","image-keyboard-response","277","135456","0.0-405.0","3X31TUMD7Y8OICRFJRU11H0974AL1G","A32BQNJMLMZYG0","3FW4EL5A3LANKRP91N782LFHPY722Q","","234","img/land9.png","75","234","2","1","false","2","0.8,0.8,0.2,0.2,0.8,0.8,0.8,0.2,0.8","",""
"","html-keyboard-response","278","135757","0.0-406.0","3X31TUMD7Y8OICRFJRU11H0974AL1G","A32BQNJMLMZYG0","3FW4EL5A3LANKRP91N782LFHPY722Q","","null","<img src=""img/land9.png"" style=""width:200px; border:14px solid green;"">","null","","","","","","","",""
"","image-keyboard-response","279","136086","0.0-408.0","3X31TUMD7Y8OICRFJRU11H0974AL1G","A32BQNJMLMZYG0","3FW4EL5A3LANKRP91N782LFHPY722Q","","327","img/land6.png","76","328","3","0","false","1","0.8,0.8,0.2,0.2,0.8,0.8,0.8,0.2,0.8","",""
"","html-keyboard-response","280","136388","0.0-409.0","3X31TUMD7Y8OICRFJRU11H0974AL1G","A32BQNJMLMZYG0","3FW4EL5A3LANKRP91N782LFHPY722Q","","null","<img src=""img/land6.png"" style=""width:200px;border:14px solid red;"">","null","","","","","","","",""
"","image-keyboard-response","281","136459","0.0-411.0","3X31TUMD7Y8OICRFJRU11H0974AL1G","A32BQNJMLMZYG0","3FW4EL5A3LANKRP91N782LFHPY722Q","","68","img/land9.png","75","70","2","1","false","2","0.8,0.8,0.2,0.2,0.8,0.8,0.8,0.2,0.8","",""
"","html-keyboard-response","282","136760","0.0-412.0","3X31TUMD7Y8OICRFJRU11H0974AL1G","A32BQNJMLMZYG0","3FW4EL5A3LANKRP91N782LFHPY722Q","","null","<img src=""img/land9.png"" style=""width:200px; border:14px solid green;"">","null","","","","","","","",""
"","image-keyboard-response","283","136815","0.0-414.0","3X31TUMD7Y8OICRFJRU11H0974AL1G","A32BQNJMLMZYG0","3FW4EL5A3LANKRP91N782LFHPY722Q","","53","img/land6.png","74","55","1","1","false","1","0.8,0.8,0.2,0.2,0.8,0.8,0.8,0.2,0.8","",""
"","html-keyboard-response","284","137117","0.0-415.0","3X31TUMD7Y8OICRFJRU11H0974AL1G","A32BQNJMLMZYG0","3FW4EL5A3LANKRP91N782LFHPY722Q","","null","<img src=""img/land6.png"" style=""width:200px; border:14px solid green;"">","null","","","","","","","",""
"","image-keyboard-response","285","137305","0.0-417.0","3X31TUMD7Y8OICRFJRU11H0974AL1G","A32BQNJMLMZYG0","3FW4EL5A3LANKRP91N782LFHPY722Q","","187","img/land4.png","75","187","2","0","false","3","0.8,0.8,0.2,0.2,0.8,0.8,0.8,0.2,0.8","",""
"","html-keyboard-response","286","137607","0.0-418.0","3X31TUMD7Y8OICRFJRU11H0974AL1G","A32BQNJMLMZYG0","3FW4EL5A3LANKRP91N782LFHPY722Q","","null","<img src=""img/land4.png"" style=""width:200px;border:14px solid red;"">","null","","","","","","","",""
"","image-keyboard-response","287","137709","0.0-420.0","3X31TUMD7Y8OICRFJRU11H0974AL1G","A32BQNJMLMZYG0","3FW4EL5A3LANKRP91N782LFHPY722Q","","100","img/land6.png","74","102","1","1","false","1","0.8,0.8,0.2,0.2,0.8,0.8,0.8,0.2,0.8","",""
"","html-keyboard-response","288","138010","0.0-421.0","3X31TUMD7Y8OICRFJRU11H0974AL1G","A32BQNJMLMZYG0","3FW4EL5A3LANKRP91N782LFHPY722Q","","null","<img src=""img/land6.png"" style=""width:200px; border:14px solid green;"">","null","","","","","","","",""
"","image-keyboard-response","289","138254","0.0-423.0","3X31TUMD7Y8OICRFJRU11H0974AL1G","A32BQNJMLMZYG0","3FW4EL5A3LANKRP91N782LFHPY722Q","","241","img/land6.png","76","243","3","0","false","1","0.8,0.8,0.2,0.2,0.8,0.8,0.8,0.2,0.8","",""
"","html-keyboard-response","290","138555","0.0-424.0","3X31TUMD7Y8OICRFJRU11H0974AL1G","A32BQNJMLMZYG0","3FW4EL5A3LANKRP91N782LFHPY722Q","","null","<img src=""img/land6.png"" style=""width:200px;border:14px solid red;"">","null","","","","","","","",""
"","image-keyboard-response","291","138624","0.0-426.0","3X31TUMD7Y8OICRFJRU11H0974AL1G","A32BQNJMLMZYG0","3FW4EL5A3LANKRP91N782LFHPY722Q","","67","img/land4.png","75","68","2","0","false","3","0.8,0.8,0.2,0.2,0.8,0.8,0.8,0.2,0.8","",""
"","html-keyboard-response","292","138926","0.0-427.0","3X31TUMD7Y8OICRFJRU11H0974AL1G","A32BQNJMLMZYG0","3FW4EL5A3LANKRP91N782LFHPY722Q","","null","<img src=""img/land4.png"" style=""width:200px;border:14px solid red;"">","null","","","","","","","",""
"","image-keyboard-response","293","139085","0.0-429.0","3X31TUMD7Y8OICRFJRU11H0974AL1G","A32BQNJMLMZYG0","3FW4EL5A3LANKRP91N782LFHPY722Q","","157","img/land9.png","74","158","1","0","false","2","0.8,0.8,0.2,0.2,0.8,0.8,0.8,0.2,0.8","",""
"","html-keyboard-response","294","139386","0.0-430.0","3X31TUMD7Y8OICRFJRU11H0974AL1G","A32BQNJMLMZYG0","3FW4EL5A3LANKRP91N782LFHPY722Q","","null","<img src=""img/land9.png"" style=""width:200px;border:14px solid red;"">","null","","","","","","","",""
"","image-keyboard-response","295","139459","0.0-432.0","3X31TUMD7Y8OICRFJRU11H0974AL1G","A32BQNJMLMZYG0","3FW4EL5A3LANKRP91N782LFHPY722Q","","71","img/land9.png","75","72","2","1","false","2","0.8,0.8,0.2,0.2,0.8,0.8,0.8,0.2,0.8","",""
"","html-keyboard-response","296","139759","0.0-433.0","3X31TUMD7Y8OICRFJRU11H0974AL1G","A32BQNJMLMZYG0","3FW4EL5A3LANKRP91N782LFHPY722Q","","null","<img src=""img/land9.png"" style=""width:200px; border:14px solid green;"">","null","","","","","","","",""
"","image-keyboard-response","297","139875","0.0-435.0","3X31TUMD7Y8OICRFJRU11H0974AL1G","A32BQNJMLMZYG0","3FW4EL5A3LANKRP91N782LFHPY722Q","","113","img/land9.png","76","113","3","1","false","2","0.8,0.8,0.2,0.2,0.8,0.8,0.8,0.2,0.8","",""
"","html-keyboard-response","298","140185","0.0-436.0","3X31TUMD7Y8OICRFJRU11H0974AL1G","A32BQNJMLMZYG0","3FW4EL5A3LANKRP91N782LFHPY722Q","","null","<img src=""img/land9.png"" style=""width:200px; border:14px solid green;"">","null","","","","","","","",""
"","image-keyboard-response","299","140270","0.0-438.0","3X31TUMD7Y8OICRFJRU11H0974AL1G","A32BQNJMLMZYG0","3FW4EL5A3LANKRP91N782LFHPY722Q","","83","img/land6.png","75","84","2","1","false","1","0.8,0.8,0.2,0.2,0.8,0.8,0.8,0.2,0.8","",""
"","html-keyboard-response","300","140571","0.0-439.0","3X31TUMD7Y8OICRFJRU11H0974AL1G","A32BQNJMLMZYG0","3FW4EL5A3LANKRP91N782LFHPY722Q","","null","<img src=""img/land6.png"" style=""width:200px; border:14px solid green;"">","null","","","","","","","",""
"","image-keyboard-response","301","140727","0.0-441.0","3X31TUMD7Y8OICRFJRU11H0974AL1G","A32BQNJMLMZYG0","3FW4EL5A3LANKRP91N782LFHPY722Q","","154","img/land4.png","74","156","1","1","false","3","0.8,0.8,0.2,0.2,0.8,0.8,0.8,0.2,0.8","",""
"","html-keyboard-response","302","141029","0.0-442.0","3X31TUMD7Y8OICRFJRU11H0974AL1G","A32BQNJMLMZYG0","3FW4EL5A3LANKRP91N782LFHPY722Q","","null","<img src=""img/land4.png"" style=""width:200px; border:14px solid green;"">","null","","","","","","","",""
"","image-keyboard-response","303","141103","0.0-444.0","3X31TUMD7Y8OICRFJRU11H0974AL1G","A32BQNJMLMZYG0","3FW4EL5A3LANKRP91N782LFHPY722Q","","72","img/land9.png","75","73","2","1","false","2","0.8,0.8,0.2,0.2,0.8,0.8,0.8,0.2,0.8","",""
"","html-keyboard-response","304","141405","0.0-445.0","3X31TUMD7Y8OICRFJRU11H0974AL1G","A32BQNJMLMZYG0","3FW4EL5A3LANKRP91N782LFHPY722Q","","null","<img src=""img/land9.png"" style=""width:200px; border:14px solid green;"">","null","","","","","","","",""
"","image-keyboard-response","305","141496","0.0-447.0","3X31TUMD7Y8OICRFJRU11H0974AL1G","A32BQNJMLMZYG0","3FW4EL5A3LANKRP91N782LFHPY722Q","","89","img/land4.png","76","90","3","1","false","3","0.8,0.8,0.2,0.2,0.8,0.8,0.8,0.2,0.8","",""
"","html-keyboard-response","306","141798","0.0-448.0","3X31TUMD7Y8OICRFJRU11H0974AL1G","A32BQNJMLMZYG0","3FW4EL5A3LANKRP91N782LFHPY722Q","","null","<img src=""img/land4.png"" style=""width:200px; border:14px solid green;"">","null","","","","","","","",""
"","image-keyboard-response","307","141883","0.0-450.0","3X31TUMD7Y8OICRFJRU11H0974AL1G","A32BQNJMLMZYG0","3FW4EL5A3LANKRP91N782LFHPY722Q","","83","img/land4.png","75","84","2","0","false","3","0.8,0.8,0.2,0.2,0.8,0.8,0.8,0.2,0.8","",""
"","html-keyboard-response","308","142187","0.0-451.0","3X31TUMD7Y8OICRFJRU11H0974AL1G","A32BQNJMLMZYG0","3FW4EL5A3LANKRP91N782LFHPY722Q","","null","<img src=""img/land4.png"" style=""width:200px;border:14px solid red;"">","null","","","","","","","",""
"","image-keyboard-response","309","142356","0.0-453.0","3X31TUMD7Y8OICRFJRU11H0974AL1G","A32BQNJMLMZYG0","3FW4EL5A3LANKRP91N782LFHPY722Q","","169","img/land9.png","74","170","1","0","false","2","0.8,0.8,0.2,0.2,0.8,0.8,0.8,0.2,0.8","",""
"","html-keyboard-response","310","142658","0.0-454.0","3X31TUMD7Y8OICRFJRU11H0974AL1G","A32BQNJMLMZYG0","3FW4EL5A3LANKRP91N782LFHPY722Q","","null","<img src=""img/land9.png"" style=""width:200px;border:14px solid red;"">","null","","","","","","","",""
"","image-keyboard-response","311","142983","0.0-456.0","3X31TUMD7Y8OICRFJRU11H0974AL1G","A32BQNJMLMZYG0","3FW4EL5A3LANKRP91N782LFHPY722Q","","323","img/land4.png","75","324","2","0","false","3","0.8,0.8,0.2,0.2,0.8,0.8,0.8,0.2,0.8","",""
"","html-keyboard-response","312","143286","0.0-457.0","3X31TUMD7Y8OICRFJRU11H0974AL1G","A32BQNJMLMZYG0","3FW4EL5A3LANKRP91N782LFHPY722Q","","null","<img src=""img/land4.png"" style=""width:200px;border:14px solid red;"">","null","","","","","","","",""
"","image-keyboard-response","313","143465","0.0-459.0","3X31TUMD7Y8OICRFJRU11H0974AL1G","A32BQNJMLMZYG0","3FW4EL5A3LANKRP91N782LFHPY722Q","","178","img/land4.png","76","179","3","0","false","3","0.8,0.8,0.2,0.2,0.8,0.8,0.8,0.2,0.8","",""
"","html-keyboard-response","314","143770","0.0-460.0","3X31TUMD7Y8OICRFJRU11H0974AL1G","A32BQNJMLMZYG0","3FW4EL5A3LANKRP91N782LFHPY722Q","","null","<img src=""img/land4.png"" style=""width:200px;border:14px solid red;"">","null","","","","","","","",""
"","image-keyboard-response","315","143943","0.0-462.0","3X31TUMD7Y8OICRFJRU11H0974AL1G","A32BQNJMLMZYG0","3FW4EL5A3LANKRP91N782LFHPY722Q","","170","img/land4.png","75","172","2","0","false","3","0.8,0.8,0.2,0.2,0.8,0.8,0.8,0.2,0.8","",""
"","html-keyboard-response","316","144294","0.0-463.0","3X31TUMD7Y8OICRFJRU11H0974AL1G","A32BQNJMLMZYG0","3FW4EL5A3LANKRP91N782LFHPY722Q","","null","<img src=""img/land4.png"" style=""width:200px;border:14px solid red;"">","null","","","","","","","",""
"","image-keyboard-response","317","144397","0.0-465.0","3X31TUMD7Y8OICRFJRU11H0974AL1G","A32BQNJMLMZYG0","3FW4EL5A3LANKRP91N782LFHPY722Q","","101","img/land4.png","74","104","1","1","false","3","0.8,0.8,0.2,0.2,0.8,0.8,0.8,0.2,0.8","",""
"","html-keyboard-response","318","144700","0.0-466.0","3X31TUMD7Y8OICRFJRU11H0974AL1G","A32BQNJMLMZYG0","3FW4EL5A3LANKRP91N782LFHPY722Q","","null","<img src=""img/land4.png"" style=""width:200px; border:14px solid green;"">","null","","","","","","","",""
"","image-keyboard-response","319","144948","0.0-468.0","3X31TUMD7Y8OICRFJRU11H0974AL1G","A32BQNJMLMZYG0","3FW4EL5A3LANKRP91N782LFHPY722Q","","246","img/land9.png","74","247","1","0","false","2","0.8,0.8,0.2,0.2,0.8,0.8,0.8,0.2,0.8","",""
"","html-keyboard-response","320","145250","0.0-469.0","3X31TUMD7Y8OICRFJRU11H0974AL1G","A32BQNJMLMZYG0","3FW4EL5A3LANKRP91N782LFHPY722Q","","null","<img src=""img/land9.png"" style=""width:200px;border:14px solid red;"">","null","","","","","","","",""
"","image-keyboard-response","321","145323","0.0-471.0","3X31TUMD7Y8OICRFJRU11H0974AL1G","A32BQNJMLMZYG0","3FW4EL5A3LANKRP91N782LFHPY722Q","","69","img/land6.png","75","72","2","0","false","1","0.8,0.8,0.2,0.2,0.8,0.8,0.8,0.2,0.8","",""
"","html-keyboard-response","322","145625","0.0-472.0","3X31TUMD7Y8OICRFJRU11H0974AL1G","A32BQNJMLMZYG0","3FW4EL5A3LANKRP91N782LFHPY722Q","","null","<img src=""img/land6.png"" style=""width:200px;border:14px solid red;"">","null","","","","","","","",""
"","image-keyboard-response","323","145855","0.0-474.0","3X31TUMD7Y8OICRFJRU11H0974AL1G","A32BQNJMLMZYG0","3FW4EL5A3LANKRP91N782LFHPY722Q","","228","img/land9.png","76","229","3","1","false","2","0.8,0.8,0.2,0.2,0.8,0.8,0.8,0.2,0.8","",""
"","html-keyboard-response","324","146158","0.0-475.0","3X31TUMD7Y8OICRFJRU11H0974AL1G","A32BQNJMLMZYG0","3FW4EL5A3LANKRP91N782LFHPY722Q","","null","<img src=""img/land9.png"" style=""width:200px; border:14px solid green;"">","null","","","","","","","",""
"","image-keyboard-response","325","146181","0.0-477.0","3X31TUMD7Y8OICRFJRU11H0974AL1G","A32BQNJMLMZYG0","3FW4EL5A3LANKRP91N782LFHPY722Q","","20","img/land9.png","75","22","2","1","false","2","0.8,0.8,0.2,0.2,0.8,0.8,0.8,0.2,0.8","",""
"","html-keyboard-response","326","146486","0.0-478.0","3X31TUMD7Y8OICRFJRU11H0974AL1G","A32BQNJMLMZYG0","3FW4EL5A3LANKRP91N782LFHPY722Q","","null","<img src=""img/land9.png"" style=""width:200px; border:14px solid green;"">","null","","","","","","","",""
"","image-keyboard-response","327","146501","0.0-480.0","3X31TUMD7Y8OICRFJRU11H0974AL1G","A32BQNJMLMZYG0","3FW4EL5A3LANKRP91N782LFHPY722Q","","13","img/land9.png","74","15","1","1","false","2","0.8,0.8,0.2,0.2,0.8,0.8,0.8,0.2,0.8","",""
"","html-keyboard-response","328","146802","0.0-481.0","3X31TUMD7Y8OICRFJRU11H0974AL1G","A32BQNJMLMZYG0","3FW4EL5A3LANKRP91N782LFHPY722Q","","null","<img src=""img/land9.png"" style=""width:200px; border:14px solid green;"">","null","","","","","","","",""
"","image-keyboard-response","329","146891","0.0-483.0","3X31TUMD7Y8OICRFJRU11H0974AL1G","A32BQNJMLMZYG0","3FW4EL5A3LANKRP91N782LFHPY722Q","","88","img/land9.png","75","88","2","0","false","2","0.8,0.8,0.2,0.2,0.8,0.8,0.8,0.2,0.8","",""
"","html-keyboard-response","330","147192","0.0-484.0","3X31TUMD7Y8OICRFJRU11H0974AL1G","A32BQNJMLMZYG0","3FW4EL5A3LANKRP91N782LFHPY722Q","","null","<img src=""img/land9.png"" style=""width:200px;border:14px solid red;"">","null","","","","","","","",""
"","image-keyboard-response","331","147339","0.0-486.0","3X31TUMD7Y8OICRFJRU11H0974AL1G","A32BQNJMLMZYG0","3FW4EL5A3LANKRP91N782LFHPY722Q","","133","img/land6.png","76","135","3","0","false","1","0.8,0.8,0.2,0.2,0.8,0.8,0.8,0.2,0.8","",""
"","html-keyboard-response","332","147641","0.0-487.0","3X31TUMD7Y8OICRFJRU11H0974AL1G","A32BQNJMLMZYG0","3FW4EL5A3LANKRP91N782LFHPY722Q","","null","<img src=""img/land6.png"" style=""width:200px;border:14px solid red;"">","null","","","","","","","",""
"","image-keyboard-response","333","147690","0.0-489.0","3X31TUMD7Y8OICRFJRU11H0974AL1G","A32BQNJMLMZYG0","3FW4EL5A3LANKRP91N782LFHPY722Q","","48","img/land6.png","75","48","2","1","false","1","0.8,0.8,0.2,0.2,0.8,0.8,0.8,0.2,0.8","",""
"","html-keyboard-response","334","147994","0.0-490.0","3X31TUMD7Y8OICRFJRU11H0974AL1G","A32BQNJMLMZYG0","3FW4EL5A3LANKRP91N782LFHPY722Q","","null","<img src=""img/land6.png"" style=""width:200px; border:14px solid green;"">","null","","","","","","","",""
"","image-keyboard-response","335","148092","0.0-492.0","3X31TUMD7Y8OICRFJRU11H0974AL1G","A32BQNJMLMZYG0","3FW4EL5A3LANKRP91N782LFHPY722Q","","95","img/land4.png","74","97","1","1","false","3","0.8,0.8,0.2,0.2,0.8,0.8,0.8,0.2,0.8","",""
"","html-keyboard-response","336","148405","0.0-493.0","3X31TUMD7Y8OICRFJRU11H0974AL1G","A32BQNJMLMZYG0","3FW4EL5A3LANKRP91N782LFHPY722Q","","null","<img src=""img/land4.png"" style=""width:200px; border:14px solid green;"">","null","","","","","","","",""
"","image-keyboard-response","337","148476","0.0-495.0","3X31TUMD7Y8OICRFJRU11H0974AL1G","A32BQNJMLMZYG0","3FW4EL5A3LANKRP91N782LFHPY722Q","","70","img/land4.png","75","71","2","0","false","3","0.8,0.8,0.2,0.2,0.8,0.8,0.8,0.2,0.8","",""
"","html-keyboard-response","338","148778","0.0-496.0","3X31TUMD7Y8OICRFJRU11H0974AL1G","A32BQNJMLMZYG0","3FW4EL5A3LANKRP91N782LFHPY722Q","","null","<img src=""img/land4.png"" style=""width:200px;border:14px solid red;"">","null","","","","","","","",""
"","image-keyboard-response","339","148867","0.0-498.0","3X31TUMD7Y8OICRFJRU11H0974AL1G","A32BQNJMLMZYG0","3FW4EL5A3LANKRP91N782LFHPY722Q","","87","img/land4.png","74","88","1","0","false","3","0.8,0.8,0.2,0.2,0.8,0.8,0.8,0.2,0.8","",""
"","html-keyboard-response","340","149170","0.0-499.0","3X31TUMD7Y8OICRFJRU11H0974AL1G","A32BQNJMLMZYG0","3FW4EL5A3LANKRP91N782LFHPY722Q","","null","<img src=""img/land4.png"" style=""width:200px;border:14px solid red;"">","null","","","","","","","",""
"","image-keyboard-response","341","149275","0.0-501.0","3X31TUMD7Y8OICRFJRU11H0974AL1G","A32BQNJMLMZYG0","3FW4EL5A3LANKRP91N782LFHPY722Q","","104","img/land9.png","75","106","2","1","false","2","0.8,0.8,0.2,0.2,0.8,0.8,0.8,0.2,0.8","",""
"","html-keyboard-response","342","149577","0.0-502.0","3X31TUMD7Y8OICRFJRU11H0974AL1G","A32BQNJMLMZYG0","3FW4EL5A3LANKRP91N782LFHPY722Q","","null","<img src=""img/land9.png"" style=""width:200px; border:14px solid green;"">","null","","","","","","","",""
"","image-keyboard-response","343","149713","0.0-504.0","3X31TUMD7Y8OICRFJRU11H0974AL1G","A32BQNJMLMZYG0","3FW4EL5A3LANKRP91N782LFHPY722Q","","135","img/land4.png","76","136","3","0","false","3","0.8,0.8,0.2,0.2,0.8,0.8,0.8,0.2,0.8","",""
"","html-keyboard-response","344","150017","0.0-505.0","3X31TUMD7Y8OICRFJRU11H0974AL1G","A32BQNJMLMZYG0","3FW4EL5A3LANKRP91N782LFHPY722Q","","null","<img src=""img/land4.png"" style=""width:200px;border:14px solid red;"">","null","","","","","","","",""
"","image-keyboard-response","345","150071","0.0-507.0","3X31TUMD7Y8OICRFJRU11H0974AL1G","A32BQNJMLMZYG0","3FW4EL5A3LANKRP91N782LFHPY722Q","","52","img/land6.png","75","52","2","1","false","1","0.8,0.8,0.2,0.2,0.8,0.8,0.8,0.2,0.8","",""
"","html-keyboard-response","346","150383","0.0-508.0","3X31TUMD7Y8OICRFJRU11H0974AL1G","A32BQNJMLMZYG0","3FW4EL5A3LANKRP91N782LFHPY722Q","","null","<img src=""img/land6.png"" style=""width:200px; border:14px solid green;"">","null","","","","","","","",""
"","image-keyboard-response","347","150396","0.0-510.0","3X31TUMD7Y8OICRFJRU11H0974AL1G","A32BQNJMLMZYG0","3FW4EL5A3LANKRP91N782LFHPY722Q","","11","img/land4.png","74","12","1","1","false","3","0.8,0.8,0.2,0.2,0.8,0.8,0.8,0.2,0.8","",""
"","html-keyboard-response","348","150698","0.0-511.0","3X31TUMD7Y8OICRFJRU11H0974AL1G","A32BQNJMLMZYG0","3FW4EL5A3LANKRP91N782LFHPY722Q","","null","<img src=""img/land4.png"" style=""width:200px; border:14px solid green;"">","null","","","","","","","",""
"","image-keyboard-response","349","150992","0.0-513.0","3X31TUMD7Y8OICRFJRU11H0974AL1G","A32BQNJMLMZYG0","3FW4EL5A3LANKRP91N782LFHPY722Q","","292","img/land6.png","75","293","2","1","false","1","0.8,0.8,0.2,0.2,0.8,0.8,0.8,0.2,0.8","",""
"","html-keyboard-response","350","151293","0.0-514.0","3X31TUMD7Y8OICRFJRU11H0974AL1G","A32BQNJMLMZYG0","3FW4EL5A3LANKRP91N782LFHPY722Q","","null","<img src=""img/land6.png"" style=""width:200px; border:14px solid green;"">","null","","","","","","","",""
"","image-keyboard-response","351","151434","0.0-516.0","3X31TUMD7Y8OICRFJRU11H0974AL1G","A32BQNJMLMZYG0","3FW4EL5A3LANKRP91N782LFHPY722Q","","140","img/land6.png","76","141","3","0","false","1","0.8,0.8,0.2,0.2,0.8,0.8,0.8,0.2,0.8","",""
"","html-keyboard-response","352","151737","0.0-517.0","3X31TUMD7Y8OICRFJRU11H0974AL1G","A32BQNJMLMZYG0","3FW4EL5A3LANKRP91N782LFHPY722Q","","null","<img src=""img/land6.png"" style=""width:200px;border:14px solid red;"">","null","","","","","","","",""
"","image-keyboard-response","353","151744","0.0-519.0","3X31TUMD7Y8OICRFJRU11H0974AL1G","A32BQNJMLMZYG0","3FW4EL5A3LANKRP91N782LFHPY722Q","","6","img/land6.png","75","6","2","1","false","1","0.8,0.8,0.2,0.2,0.8,0.8,0.8,0.2,0.8","",""
"","html-keyboard-response","354","152048","0.0-520.0","3X31TUMD7Y8OICRFJRU11H0974AL1G","A32BQNJMLMZYG0","3FW4EL5A3LANKRP91N782LFHPY722Q","","null","<img src=""img/land6.png"" style=""width:200px; border:14px solid green;"">","null","","","","","","","",""
"","image-keyboard-response","355","152080","0.0-522.0","3X31TUMD7Y8OICRFJRU11H0974AL1G","A32BQNJMLMZYG0","3FW4EL5A3LANKRP91N782LFHPY722Q","","23","img/land9.png","74","26","1","0","false","2","0.8,0.8,0.2,0.2,0.8,0.8,0.8,0.2,0.8","",""
"","html-keyboard-response","356","152381","0.0-523.0","3X31TUMD7Y8OICRFJRU11H0974AL1G","A32BQNJMLMZYG0","3FW4EL5A3LANKRP91N782LFHPY722Q","","null","<img src=""img/land9.png"" style=""width:200px;border:14px solid red;"">","null","","","","","","","",""
"","image-keyboard-response","357","152573","0.0-525.0","3X31TUMD7Y8OICRFJRU11H0974AL1G","A32BQNJMLMZYG0","3FW4EL5A3LANKRP91N782LFHPY722Q","","192","img/land4.png","75","192","2","0","false","3","0.8,0.8,0.2,0.2,0.8,0.8,0.8,0.2,0.8","",""
"","html-keyboard-response","358","152875","0.0-526.0","3X31TUMD7Y8OICRFJRU11H0974AL1G","A32BQNJMLMZYG0","3FW4EL5A3LANKRP91N782LFHPY722Q","","null","<img src=""img/land4.png"" style=""width:200px;border:14px solid red;"">","null","","","","","","","",""
"","image-keyboard-response","359","153096","0.0-528.0","3X31TUMD7Y8OICRFJRU11H0974AL1G","A32BQNJMLMZYG0","3FW4EL5A3LANKRP91N782LFHPY722Q","","218","img/land4.png","76","220","3","1","false","3","0.8,0.8,0.2,0.2,0.8,0.8,0.8,0.2,0.8","",""
"","html-keyboard-response","360","153397","0.0-529.0","3X31TUMD7Y8OICRFJRU11H0974AL1G","A32BQNJMLMZYG0","3FW4EL5A3LANKRP91N782LFHPY722Q","","null","<img src=""img/land4.png"" style=""width:200px; border:14px solid green;"">","null","","","","","","","",""
"","image-keyboard-response","361","153709","0.0-531.0","3X31TUMD7Y8OICRFJRU11H0974AL1G","A32BQNJMLMZYG0","3FW4EL5A3LANKRP91N782LFHPY722Q","","309","img/land6.png","74","311","1","1","false","1","0.8,0.8,0.2,0.2,0.8,0.8,0.8,0.2,0.8","",""
"","html-keyboard-response","362","154011","0.0-532.0","3X31TUMD7Y8OICRFJRU11H0974AL1G","A32BQNJMLMZYG0","3FW4EL5A3LANKRP91N782LFHPY722Q","","null","<img src=""img/land6.png"" style=""width:200px; border:14px solid green;"">","null","","","","","","","",""
"","image-keyboard-response","363","154098","0.0-534.0","3X31TUMD7Y8OICRFJRU11H0974AL1G","A32BQNJMLMZYG0","3FW4EL5A3LANKRP91N782LFHPY722Q","","85","img/land9.png","74","87","1","0","false","2","0.8,0.8,0.2,0.2,0.8,0.8,0.8,0.2,0.8","",""
"","html-keyboard-response","364","154402","0.0-535.0","3X31TUMD7Y8OICRFJRU11H0974AL1G","A32BQNJMLMZYG0","3FW4EL5A3LANKRP91N782LFHPY722Q","","null","<img src=""img/land9.png"" style=""width:200px;border:14px solid red;"">","null","","","","","","","",""
"","image-keyboard-response","365","154775","0.0-537.0","3X31TUMD7Y8OICRFJRU11H0974AL1G","A32BQNJMLMZYG0","3FW4EL5A3LANKRP91N782LFHPY722Q","","372","img/land4.png","74","372","1","1","false","3","0.8,0.8,0.2,0.2,0.8,0.8,0.8,0.2,0.8","",""
"","html-keyboard-response","366","155077","0.0-538.0","3X31TUMD7Y8OICRFJRU11H0974AL1G","A32BQNJMLMZYG0","3FW4EL5A3LANKRP91N782LFHPY722Q","","null","<img src=""img/land4.png"" style=""width:200px; border:14px solid green;"">","null","","","","","","","",""
"","image-keyboard-response","367","155247","0.0-540.0","3X31TUMD7Y8OICRFJRU11H0974AL1G","A32BQNJMLMZYG0","3FW4EL5A3LANKRP91N782LFHPY722Q","","168","img/land9.png","76","169","3","1","false","2","0.8,0.8,0.2,0.2,0.8,0.8,0.8,0.2,0.8","",""
"","html-keyboard-response","368","155552","0.0-541.0","3X31TUMD7Y8OICRFJRU11H0974AL1G","A32BQNJMLMZYG0","3FW4EL5A3LANKRP91N782LFHPY722Q","","null","<img src=""img/land9.png"" style=""width:200px; border:14px solid green;"">","null","","","","","","","",""
"","html-keyboard-response","369","157889","0.0-543.0","3X31TUMD7Y8OICRFJRU11H0974AL1G","A32BQNJMLMZYG0","3FW4EL5A3LANKRP91N782LFHPY722Q","","","","","","","","","","","",""
"","image-keyboard-response","370","158891","0.0-544.0","3X31TUMD7Y8OICRFJRU11H0974AL1G","A32BQNJMLMZYG0","3FW4EL5A3LANKRP91N782LFHPY722Q","","","img/land2.png","","1002","-1","0","true","1","0.6,0.6,0,0,0.6,0.6,0.6,0,0.6","",""
"","html-keyboard-response","371","159194","0.0-545.0","3X31TUMD7Y8OICRFJRU11H0974AL1G","A32BQNJMLMZYG0","3FW4EL5A3LANKRP91N782LFHPY722Q","","null","<img src=""img/land2.png"" style=""width:200px;border:14px solid red;"">","null","","","","","","","",""
"","html-keyboard-response","372","161459","0.0-546.0-0.0","3X31TUMD7Y8OICRFJRU11H0974AL1G","A32BQNJMLMZYG0","3FW4EL5A3LANKRP91N782LFHPY722Q","","","","","","","","","","","",""
"","image-keyboard-response","373","162078","0.0-547.0","3X31TUMD7Y8OICRFJRU11H0974AL1G","A32BQNJMLMZYG0","3FW4EL5A3LANKRP91N782LFHPY722Q","","618","img/land7.png","75","619","2","0","false","3","0.6,0.6,0,0,0.6,0.6,0.6,0,0.6","",""
"","html-keyboard-response","374","162381","0.0-548.0","3X31TUMD7Y8OICRFJRU11H0974AL1G","A32BQNJMLMZYG0","3FW4EL5A3LANKRP91N782LFHPY722Q","","null","<img src=""img/land7.png"" style=""width:200px;border:14px solid red;"">","null","","","","","","","",""
"","image-keyboard-response","375","162704","0.0-550.0","3X31TUMD7Y8OICRFJRU11H0974AL1G","A32BQNJMLMZYG0","3FW4EL5A3LANKRP91N782LFHPY722Q","","319","img/land7.png","74","321","1","1","false","3","0.6,0.6,0,0,0.6,0.6,0.6,0,0.6","",""
"","html-keyboard-response","376","163006","0.0-551.0","3X31TUMD7Y8OICRFJRU11H0974AL1G","A32BQNJMLMZYG0","3FW4EL5A3LANKRP91N782LFHPY722Q","","null","<img src=""img/land7.png"" style=""width:200px; border:14px solid green;"">","null","","","","","","","",""
"","image-keyboard-response","377","163529","0.0-553.0","3X31TUMD7Y8OICRFJRU11H0974AL1G","A32BQNJMLMZYG0","3FW4EL5A3LANKRP91N782LFHPY722Q","","521","img/land2.png","75","522","2","0","false","1","0.6,0.6,0,0,0.6,0.6,0.6,0,0.6","",""
"","html-keyboard-response","378","163831","0.0-554.0","3X31TUMD7Y8OICRFJRU11H0974AL1G","A32BQNJMLMZYG0","3FW4EL5A3LANKRP91N782LFHPY722Q","","null","<img src=""img/land2.png"" style=""width:200px;border:14px solid red;"">","null","","","","","","","",""
"","image-keyboard-response","379","164025","0.0-556.0","3X31TUMD7Y8OICRFJRU11H0974AL1G","A32BQNJMLMZYG0","3FW4EL5A3LANKRP91N782LFHPY722Q","","192","img/land3.png","76","194","3","1","false","2","0.6,0.6,0,0,0.6,0.6,0.6,0,0.6","",""
"","html-keyboard-response","380","164326","0.0-557.0","3X31TUMD7Y8OICRFJRU11H0974AL1G","A32BQNJMLMZYG0","3FW4EL5A3LANKRP91N782LFHPY722Q","","null","<img src=""img/land3.png"" style=""width:200px; border:14px solid green;"">","null","","","","","","","",""
"","image-keyboard-response","381","164510","0.0-559.0","3X31TUMD7Y8OICRFJRU11H0974AL1G","A32BQNJMLMZYG0","3FW4EL5A3LANKRP91N782LFHPY722Q","","182","img/land3.png","75","183","2","1","false","2","0.6,0.6,0,0,0.6,0.6,0.6,0,0.6","",""
"","html-keyboard-response","382","164812","0.0-560.0","3X31TUMD7Y8OICRFJRU11H0974AL1G","A32BQNJMLMZYG0","3FW4EL5A3LANKRP91N782LFHPY722Q","","null","<img src=""img/land3.png"" style=""width:200px; border:14px solid green;"">","null","","","","","","","",""
"","image-keyboard-response","383","164910","0.0-562.0","3X31TUMD7Y8OICRFJRU11H0974AL1G","A32BQNJMLMZYG0","3FW4EL5A3LANKRP91N782LFHPY722Q","","97","img/land2.png","74","99","1","1","false","1","0.6,0.6,0,0,0.6,0.6,0.6,0,0.6","",""
"","html-keyboard-response","384","165213","0.0-563.0","3X31TUMD7Y8OICRFJRU11H0974AL1G","A32BQNJMLMZYG0","3FW4EL5A3LANKRP91N782LFHPY722Q","","null","<img src=""img/land2.png"" style=""width:200px; border:14px solid green;"">","null","","","","","","","",""
"","image-keyboard-response","385","165717","0.0-565.0","3X31TUMD7Y8OICRFJRU11H0974AL1G","A32BQNJMLMZYG0","3FW4EL5A3LANKRP91N782LFHPY722Q","","502","img/land2.png","75","503","2","0","false","1","0.6,0.6,0,0,0.6,0.6,0.6,0,0.6","",""
"","html-keyboard-response","386","166020","0.0-566.0","3X31TUMD7Y8OICRFJRU11H0974AL1G","A32BQNJMLMZYG0","3FW4EL5A3LANKRP91N782LFHPY722Q","","null","<img src=""img/land2.png"" style=""width:200px;border:14px solid red;"">","null","","","","","","","",""
"","image-keyboard-response","387","166253","0.0-568.0","3X31TUMD7Y8OICRFJRU11H0974AL1G","A32BQNJMLMZYG0","3FW4EL5A3LANKRP91N782LFHPY722Q","","232","img/land3.png","76","233","3","0","false","2","0.6,0.6,0,0,0.6,0.6,0.6,0,0.6","",""
"","html-keyboard-response","388","166566","0.0-569.0","3X31TUMD7Y8OICRFJRU11H0974AL1G","A32BQNJMLMZYG0","3FW4EL5A3LANKRP91N782LFHPY722Q","","null","<img src=""img/land3.png"" style=""width:200px;border:14px solid red;"">","null","","","","","","","",""
"","image-keyboard-response","389","166617","0.0-571.0","3X31TUMD7Y8OICRFJRU11H0974AL1G","A32BQNJMLMZYG0","3FW4EL5A3LANKRP91N782LFHPY722Q","","50","img/land2.png","75","50","2","1","false","1","0.6,0.6,0,0,0.6,0.6,0.6,0,0.6","",""
"","html-keyboard-response","390","166918","0.0-572.0","3X31TUMD7Y8OICRFJRU11H0974AL1G","A32BQNJMLMZYG0","3FW4EL5A3LANKRP91N782LFHPY722Q","","null","<img src=""img/land2.png"" style=""width:200px; border:14px solid green;"">","null","","","","","","","",""
"","image-keyboard-response","391","166999","0.0-574.0","3X31TUMD7Y8OICRFJRU11H0974AL1G","A32BQNJMLMZYG0","3FW4EL5A3LANKRP91N782LFHPY722Q","","79","img/land2.png","74","80","1","1","false","1","0.6,0.6,0,0,0.6,0.6,0.6,0,0.6","",""
"","html-keyboard-response","392","167301","0.0-575.0","3X31TUMD7Y8OICRFJRU11H0974AL1G","A32BQNJMLMZYG0","3FW4EL5A3LANKRP91N782LFHPY722Q","","null","<img src=""img/land2.png"" style=""width:200px; border:14px solid green;"">","null","","","","","","","",""
"","image-keyboard-response","393","167623","0.0-577.0","3X31TUMD7Y8OICRFJRU11H0974AL1G","A32BQNJMLMZYG0","3FW4EL5A3LANKRP91N782LFHPY722Q","","321","img/land2.png","75","321","2","0","false","1","0.6,0.6,0,0,0.6,0.6,0.6,0,0.6","",""
"","html-keyboard-response","394","167925","0.0-578.0","3X31TUMD7Y8OICRFJRU11H0974AL1G","A32BQNJMLMZYG0","3FW4EL5A3LANKRP91N782LFHPY722Q","","null","<img src=""img/land2.png"" style=""width:200px;border:14px solid red;"">","null","","","","","","","",""
"","image-keyboard-response","395","168046","0.0-580.0","3X31TUMD7Y8OICRFJRU11H0974AL1G","A32BQNJMLMZYG0","3FW4EL5A3LANKRP91N782LFHPY722Q","","120","img/land2.png","76","121","3","0","false","1","0.6,0.6,0,0,0.6,0.6,0.6,0,0.6","",""
"","html-keyboard-response","396","168462","0.0-581.0","3X31TUMD7Y8OICRFJRU11H0974AL1G","A32BQNJMLMZYG0","3FW4EL5A3LANKRP91N782LFHPY722Q","","null","<img src=""img/land2.png"" style=""width:200px;border:14px solid red;"">","null","","","","","","","",""
"","image-keyboard-response","397","168506","0.0-583.0","3X31TUMD7Y8OICRFJRU11H0974AL1G","A32BQNJMLMZYG0","3FW4EL5A3LANKRP91N782LFHPY722Q","","33","img/land3.png","75","35","2","1","false","2","0.6,0.6,0,0,0.6,0.6,0.6,0,0.6","",""
"","html-keyboard-response","398","168816","0.0-584.0","3X31TUMD7Y8OICRFJRU11H0974AL1G","A32BQNJMLMZYG0","3FW4EL5A3LANKRP91N782LFHPY722Q","","null","<img src=""img/land3.png"" style=""width:200px; border:14px solid green;"">","null","","","","","","","",""
"","image-keyboard-response","399","169085","0.0-586.0","3X31TUMD7Y8OICRFJRU11H0974AL1G","A32BQNJMLMZYG0","3FW4EL5A3LANKRP91N782LFHPY722Q","","267","img/land7.png","75","268","2","0","false","3","0.6,0.6,0,0,0.6,0.6,0.6,0,0.6","",""
"","html-keyboard-response","400","169387","0.0-587.0","3X31TUMD7Y8OICRFJRU11H0974AL1G","A32BQNJMLMZYG0","3FW4EL5A3LANKRP91N782LFHPY722Q","","null","<img src=""img/land7.png"" style=""width:200px;border:14px solid red;"">","null","","","","","","","",""
"","image-keyboard-response","401","169492","0.0-589.0","3X31TUMD7Y8OICRFJRU11H0974AL1G","A32BQNJMLMZYG0","3FW4EL5A3LANKRP91N782LFHPY722Q","","104","img/land7.png","76","104","3","1","false","3","0.6,0.6,0,0,0.6,0.6,0.6,0,0.6","",""
"","html-keyboard-response","402","169794","0.0-590.0","3X31TUMD7Y8OICRFJRU11H0974AL1G","A32BQNJMLMZYG0","3FW4EL5A3LANKRP91N782LFHPY722Q","","null","<img src=""img/land7.png"" style=""width:200px; border:14px solid green;"">","null","","","","","","","",""
"","image-keyboard-response","403","169815","0.0-592.0","3X31TUMD7Y8OICRFJRU11H0974AL1G","A32BQNJMLMZYG0","3FW4EL5A3LANKRP91N782LFHPY722Q","","20","img/land7.png","75","21","2","0","false","3","0.6,0.6,0,0,0.6,0.6,0.6,0,0.6","",""
"","html-keyboard-response","404","170118","0.0-593.0","3X31TUMD7Y8OICRFJRU11H0974AL1G","A32BQNJMLMZYG0","3FW4EL5A3LANKRP91N782LFHPY722Q","","null","<img src=""img/land7.png"" style=""width:200px;border:14px solid red;"">","null","","","","","","","",""
"","image-keyboard-response","405","170163","0.0-595.0","3X31TUMD7Y8OICRFJRU11H0974AL1G","A32BQNJMLMZYG0","3FW4EL5A3LANKRP91N782LFHPY722Q","","43","img/land3.png","74","45","1","0","false","2","0.6,0.6,0,0,0.6,0.6,0.6,0,0.6","",""
"","html-keyboard-response","406","170464","0.0-596.0","3X31TUMD7Y8OICRFJRU11H0974AL1G","A32BQNJMLMZYG0","3FW4EL5A3LANKRP91N782LFHPY722Q","","null","<img src=""img/land3.png"" style=""width:200px;border:14px solid red;"">","null","","","","","","","",""
