"success","trial_type","trial_index","time_elapsed","internal_node_id","assignmentID","mturkID","hitID","view_history","rt","stimulus","key_press","reactionTime","a","r","s","cond","reward_cond","reward_cond_actual","reward_matrix_idx","responses","question_order"
"true","fullscreen","0","11590","0.0-0.0","3R6BYFZZP8YA8L2C49CA1DZQIG4FXN","A32HHTM9N6C67R","3ZICQFRS3143WDVXF1P0C7ZVVO8ZZM","","","","","","","","","","","","","",""
"","instructions","1","43862","0.0-1.0","3R6BYFZZP8YA8L2C49CA1DZQIG4FXN","A32HHTM9N6C67R","3ZICQFRS3143WDVXF1P0C7ZVVO8ZZM","[{""page_index"":0,""viewing_time"":2339},{""page_index"":1,""viewing_time"":1413.1999999284744},{""page_index"":2,""viewing_time"":769.8999999761581},{""page_index"":3,""viewing_time"":16450.200000047684},{""page_index"":4,""viewing_time"":7624.200000047684},{""page_index"":5,""viewing_time"":1960.1999999284744},{""page_index"":6,""viewing_time"":1713}]","32270.099999904633","","","","","","","","","","","",""
"","image-keyboard-response","2","44611","0.0-2.0","3R6BYFZZP8YA8L2C49CA1DZQIG4FXN","A32HHTM9N6C67R","3ZICQFRS3143WDVXF1P0C7ZVVO8ZZM","","745.9000000953674","img/land2.png","74","748.6000000238419","1","0","2","1","1,0.5,0.5,0.5,1,0.5,0.5,0.5,1","1,0.5,0.5,0.5,1,0.5,0.5,0.5,1","","",""
"","html-keyboard-response","3","44917","0.0-3.0","3R6BYFZZP8YA8L2C49CA1DZQIG4FXN","A32HHTM9N6C67R","3ZICQFRS3143WDVXF1P0C7ZVVO8ZZM","","null","<img src=""img/land2.png"" style=""width:200px;border:14px solid red;"">","null","","","","","","","","","",""
"","image-keyboard-response","4","45314","0.0-4.0","3R6BYFZZP8YA8L2C49CA1DZQIG4FXN","A32HHTM9N6C67R","3ZICQFRS3143WDVXF1P0C7ZVVO8ZZM","","395.2999999523163","img/land3.png","76","396.2999999523163","3","1","3","1","1,0.5,0.5,0.5,1,0.5,0.5,0.5,1","1,0.5,0.5,0.5,1,0.5,0.5,0.5,1","","",""
"","html-keyboard-response","5","45615","0.0-5.0","3R6BYFZZP8YA8L2C49CA1DZQIG4FXN","A32HHTM9N6C67R","3ZICQFRS3143WDVXF1P0C7ZVVO8ZZM","","null","<img src=""img/land3.png"" style=""width:200px; border:14px solid green;"">","null","","","","","","","","","",""
"","image-keyboard-response","6","46897","0.0-6.0","3R6BYFZZP8YA8L2C49CA1DZQIG4FXN","A32HHTM9N6C67R","3ZICQFRS3143WDVXF1P0C7ZVVO8ZZM","","1280.3000000715256","img/land3.png","76","1281.2000000476837","3","1","3","1","1,0.5,0.5,0.5,1,0.5,0.5,0.5,1","1,0.5,0.5,0.5,1,0.5,0.5,0.5,1","","",""
"","html-keyboard-response","7","47199","0.0-7.0","3R6BYFZZP8YA8L2C49CA1DZQIG4FXN","A32HHTM9N6C67R","3ZICQFRS3143WDVXF1P0C7ZVVO8ZZM","","null","<img src=""img/land3.png"" style=""width:200px; border:14px solid green;"">","null","","","","","","","","","",""
"","image-keyboard-response","8","47988","0.0-8.0","3R6BYFZZP8YA8L2C49CA1DZQIG4FXN","A32HHTM9N6C67R","3ZICQFRS3143WDVXF1P0C7ZVVO8ZZM","","787.6000000238419","img/land3.png","76","788.6000000238419","3","1","3","1","1,0.5,0.5,0.5,1,0.5,0.5,0.5,1","1,0.5,0.5,0.5,1,0.5,0.5,0.5,1","","",""
"","html-keyboard-response","9","48290","0.0-9.0","3R6BYFZZP8YA8L2C49CA1DZQIG4FXN","A32HHTM9N6C67R","3ZICQFRS3143WDVXF1P0C7ZVVO8ZZM","","null","<img src=""img/land3.png"" style=""width:200px; border:14px solid green;"">","null","","","","","","","","","",""
"","image-keyboard-response","10","48876","0.0-10.0","3R6BYFZZP8YA8L2C49CA1DZQIG4FXN","A32HHTM9N6C67R","3ZICQFRS3143WDVXF1P0C7ZVVO8ZZM","","583.5","img/land1.png","75","585.3999999761581","2","0","1","1","1,0.5,0.5,0.5,1,0.5,0.5,0.5,1","1,0.5,0.5,0.5,1,0.5,0.5,0.5,1","","",""
"","html-keyboard-response","11","49178","0.0-11.0","3R6BYFZZP8YA8L2C49CA1DZQIG4FXN","A32HHTM9N6C67R","3ZICQFRS3143WDVXF1P0C7ZVVO8ZZM","","null","<img src=""img/land1.png"" style=""width:200px;border:14px solid red;"">","null","","","","","","","","","",""
"","image-keyboard-response","12","49396","0.0-12.0","3R6BYFZZP8YA8L2C49CA1DZQIG4FXN","A32HHTM9N6C67R","3ZICQFRS3143WDVXF1P0C7ZVVO8ZZM","","216.60000002384186","img/land1.png","74","217.39999997615814","1","1","1","1","1,0.5,0.5,0.5,1,0.5,0.5,0.5,1","1,0.5,0.5,0.5,1,0.5,0.5,0.5,1","","",""
"","html-keyboard-response","13","49698","0.0-13.0","3R6BYFZZP8YA8L2C49CA1DZQIG4FXN","A32HHTM9N6C67R","3ZICQFRS3143WDVXF1P0C7ZVVO8ZZM","","null","<img src=""img/land1.png"" style=""width:200px; border:14px solid green;"">","null","","","","","","","","","",""
"","image-keyboard-response","14","50322","0.0-14.0","3R6BYFZZP8YA8L2C49CA1DZQIG4FXN","A32HHTM9N6C67R","3ZICQFRS3143WDVXF1P0C7ZVVO8ZZM","","622","img/land2.png","76","622.7999999523163","3","0","2","1","1,0.5,0.5,0.5,1,0.5,0.5,0.5,1","1,0.5,0.5,0.5,1,0.5,0.5,0.5,1","","",""
"","html-keyboard-response","15","50624","0.0-15.0","3R6BYFZZP8YA8L2C49CA1DZQIG4FXN","A32HHTM9N6C67R","3ZICQFRS3143WDVXF1P0C7ZVVO8ZZM","","null","<img src=""img/land2.png"" style=""width:200px;border:14px solid red;"">","null","","","","","","","","","",""
"","image-keyboard-response","16","50770","0.0-16.0","3R6BYFZZP8YA8L2C49CA1DZQIG4FXN","A32HHTM9N6C67R","3ZICQFRS3143WDVXF1P0C7ZVVO8ZZM","","144.79999995231628","img/land2.png","74","145.59999990463257","1","1","2","1","1,0.5,0.5,0.5,1,0.5,0.5,0.5,1","1,0.5,0.5,0.5,1,0.5,0.5,0.5,1","","",""
"","html-keyboard-response","17","51072","0.0-17.0","3R6BYFZZP8YA8L2C49CA1DZQIG4FXN","A32HHTM9N6C67R","3ZICQFRS3143WDVXF1P0C7ZVVO8ZZM","","null","<img src=""img/land2.png"" style=""width:200px; border:14px solid green;"">","null","","","","","","","","","",""
"","image-keyboard-response","18","51618","0.0-18.0","3R6BYFZZP8YA8L2C49CA1DZQIG4FXN","A32HHTM9N6C67R","3ZICQFRS3143WDVXF1P0C7ZVVO8ZZM","","544.7000000476837","img/land1.png","76","545.6000000238419","3","0","1","1","1,0.5,0.5,0.5,1,0.5,0.5,0.5,1","1,0.5,0.5,0.5,1,0.5,0.5,0.5,1","","",""
"","html-keyboard-response","19","51920","0.0-19.0","3R6BYFZZP8YA8L2C49CA1DZQIG4FXN","A32HHTM9N6C67R","3ZICQFRS3143WDVXF1P0C7ZVVO8ZZM","","null","<img src=""img/land1.png"" style=""width:200px;border:14px solid red;"">","null","","","","","","","","","",""
"","image-keyboard-response","20","52033","0.0-20.0","3R6BYFZZP8YA8L2C49CA1DZQIG4FXN","A32HHTM9N6C67R","3ZICQFRS3143WDVXF1P0C7ZVVO8ZZM","","111.80000007152557","img/land2.png","76","112.80000007152557","3","1","2","1","1,0.5,0.5,0.5,1,0.5,0.5,0.5,1","1,0.5,0.5,0.5,1,0.5,0.5,0.5,1","","",""
"","html-keyboard-response","21","52335","0.0-21.0","3R6BYFZZP8YA8L2C49CA1DZQIG4FXN","A32HHTM9N6C67R","3ZICQFRS3143WDVXF1P0C7ZVVO8ZZM","","null","<img src=""img/land2.png"" style=""width:200px; border:14px solid green;"">","null","","","","","","","","","",""
"","image-keyboard-response","22","52615","0.0-22.0","3R6BYFZZP8YA8L2C49CA1DZQIG4FXN","A32HHTM9N6C67R","3ZICQFRS3143WDVXF1P0C7ZVVO8ZZM","","278.2000000476837","img/land1.png","76","279.5","3","1","1","1","1,0.5,0.5,0.5,1,0.5,0.5,0.5,1","1,0.5,0.5,0.5,1,0.5,0.5,0.5,1","","",""
"","html-keyboard-response","23","52917","0.0-23.0","3R6BYFZZP8YA8L2C49CA1DZQIG4FXN","A32HHTM9N6C67R","3ZICQFRS3143WDVXF1P0C7ZVVO8ZZM","","null","<img src=""img/land1.png"" style=""width:200px; border:14px solid green;"">","null","","","","","","","","","",""
"","image-keyboard-response","24","53079","0.0-24.0","3R6BYFZZP8YA8L2C49CA1DZQIG4FXN","A32HHTM9N6C67R","3ZICQFRS3143WDVXF1P0C7ZVVO8ZZM","","159.89999997615814","img/land3.png","74","160.79999995231628","1","0","3","1","1,0.5,0.5,0.5,1,0.5,0.5,0.5,1","1,0.5,0.5,0.5,1,0.5,0.5,0.5,1","","",""
"","html-keyboard-response","25","53381","0.0-25.0","3R6BYFZZP8YA8L2C49CA1DZQIG4FXN","A32HHTM9N6C67R","3ZICQFRS3143WDVXF1P0C7ZVVO8ZZM","","null","<img src=""img/land3.png"" style=""width:200px;border:14px solid red;"">","null","","","","","","","","","",""
"","image-keyboard-response","26","53511","0.0-26.0","3R6BYFZZP8YA8L2C49CA1DZQIG4FXN","A32HHTM9N6C67R","3ZICQFRS3143WDVXF1P0C7ZVVO8ZZM","","128.79999995231628","img/land3.png","75","129.69999992847443","2","1","3","1","1,0.5,0.5,0.5,1,0.5,0.5,0.5,1","1,0.5,0.5,0.5,1,0.5,0.5,0.5,1","","",""
"","html-keyboard-response","27","53813","0.0-27.0","3R6BYFZZP8YA8L2C49CA1DZQIG4FXN","A32HHTM9N6C67R","3ZICQFRS3143WDVXF1P0C7ZVVO8ZZM","","null","<img src=""img/land3.png"" style=""width:200px; border:14px solid green;"">","null","","","","","","","","","",""
"","image-keyboard-response","28","54111","0.0-28.0","3R6BYFZZP8YA8L2C49CA1DZQIG4FXN","A32HHTM9N6C67R","3ZICQFRS3143WDVXF1P0C7ZVVO8ZZM","","297.39999997615814","img/land1.png","76","298.10000002384186","3","1","1","1","1,0.5,0.5,0.5,1,0.5,0.5,0.5,1","1,0.5,0.5,0.5,1,0.5,0.5,0.5,1","","",""
"","html-keyboard-response","29","54414","0.0-29.0","3R6BYFZZP8YA8L2C49CA1DZQIG4FXN","A32HHTM9N6C67R","3ZICQFRS3143WDVXF1P0C7ZVVO8ZZM","","null","<img src=""img/land1.png"" style=""width:200px; border:14px solid green;"">","null","","","","","","","","","",""
"","image-keyboard-response","30","54827","0.0-30.0","3R6BYFZZP8YA8L2C49CA1DZQIG4FXN","A32HHTM9N6C67R","3ZICQFRS3143WDVXF1P0C7ZVVO8ZZM","","412.10000002384186","img/land2.png","75","412.89999997615814","2","1","2","1","1,0.5,0.5,0.5,1,0.5,0.5,0.5,1","1,0.5,0.5,0.5,1,0.5,0.5,0.5,1","","",""
"","html-keyboard-response","31","55130","0.0-31.0","3R6BYFZZP8YA8L2C49CA1DZQIG4FXN","A32HHTM9N6C67R","3ZICQFRS3143WDVXF1P0C7ZVVO8ZZM","","null","<img src=""img/land2.png"" style=""width:200px; border:14px solid green;"">","null","","","","","","","","","",""
"","image-keyboard-response","32","55437","0.0-32.0","3R6BYFZZP8YA8L2C49CA1DZQIG4FXN","A32HHTM9N6C67R","3ZICQFRS3143WDVXF1P0C7ZVVO8ZZM","","305.60000002384186","img/land1.png","74","306.5","1","1","1","1","1,0.5,0.5,0.5,1,0.5,0.5,0.5,1","1,0.5,0.5,0.5,1,0.5,0.5,0.5,1","","",""
"","html-keyboard-response","33","55739","0.0-33.0","3R6BYFZZP8YA8L2C49CA1DZQIG4FXN","A32HHTM9N6C67R","3ZICQFRS3143WDVXF1P0C7ZVVO8ZZM","","null","<img src=""img/land1.png"" style=""width:200px; border:14px solid green;"">","null","","","","","","","","","",""
"","image-keyboard-response","34","55881","0.0-34.0","3R6BYFZZP8YA8L2C49CA1DZQIG4FXN","A32HHTM9N6C67R","3ZICQFRS3143WDVXF1P0C7ZVVO8ZZM","","140","img/land3.png","75","141.10000002384186","2","0","3","1","1,0.5,0.5,0.5,1,0.5,0.5,0.5,1","1,0.5,0.5,0.5,1,0.5,0.5,0.5,1","","",""
"","html-keyboard-response","35","56183","0.0-35.0","3R6BYFZZP8YA8L2C49CA1DZQIG4FXN","A32HHTM9N6C67R","3ZICQFRS3143WDVXF1P0C7ZVVO8ZZM","","null","<img src=""img/land3.png"" style=""width:200px;border:14px solid red;"">","null","","","","","","","","","",""
"","image-keyboard-response","36","56287","0.0-36.0","3R6BYFZZP8YA8L2C49CA1DZQIG4FXN","A32HHTM9N6C67R","3ZICQFRS3143WDVXF1P0C7ZVVO8ZZM","","102.60000002384186","img/land3.png","76","103.5","3","1","3","1","1,0.5,0.5,0.5,1,0.5,0.5,0.5,1","1,0.5,0.5,0.5,1,0.5,0.5,0.5,1","","",""
"","html-keyboard-response","37","56590","0.0-37.0","3R6BYFZZP8YA8L2C49CA1DZQIG4FXN","A32HHTM9N6C67R","3ZICQFRS3143WDVXF1P0C7ZVVO8ZZM","","null","<img src=""img/land3.png"" style=""width:200px; border:14px solid green;"">","null","","","","","","","","","",""
"","image-keyboard-response","38","56994","0.0-38.0","3R6BYFZZP8YA8L2C49CA1DZQIG4FXN","A32HHTM9N6C67R","3ZICQFRS3143WDVXF1P0C7ZVVO8ZZM","","402.6999999284744","img/land2.png","74","403.7999999523163","1","1","2","1","1,0.5,0.5,0.5,1,0.5,0.5,0.5,1","1,0.5,0.5,0.5,1,0.5,0.5,0.5,1","","",""
"","html-keyboard-response","39","57299","0.0-39.0","3R6BYFZZP8YA8L2C49CA1DZQIG4FXN","A32HHTM9N6C67R","3ZICQFRS3143WDVXF1P0C7ZVVO8ZZM","","null","<img src=""img/land2.png"" style=""width:200px; border:14px solid green;"">","null","","","","","","","","","",""
"","image-keyboard-response","40","57390","0.0-40.0","3R6BYFZZP8YA8L2C49CA1DZQIG4FXN","A32HHTM9N6C67R","3ZICQFRS3143WDVXF1P0C7ZVVO8ZZM","","89.19999992847443","img/land3.png","76","90.89999997615814","3","1","3","1","1,0.5,0.5,0.5,1,0.5,0.5,0.5,1","1,0.5,0.5,0.5,1,0.5,0.5,0.5,1","","",""
"","html-keyboard-response","41","57693","0.0-41.0","3R6BYFZZP8YA8L2C49CA1DZQIG4FXN","A32HHTM9N6C67R","3ZICQFRS3143WDVXF1P0C7ZVVO8ZZM","","null","<img src=""img/land3.png"" style=""width:200px; border:14px solid green;"">","null","","","","","","","","","",""
"","image-keyboard-response","42","57762","0.0-42.0","3R6BYFZZP8YA8L2C49CA1DZQIG4FXN","A32HHTM9N6C67R","3ZICQFRS3143WDVXF1P0C7ZVVO8ZZM","","67.5","img/land2.png","76","68.60000002384186","3","1","2","1","1,0.5,0.5,0.5,1,0.5,0.5,0.5,1","1,0.5,0.5,0.5,1,0.5,0.5,0.5,1","","",""
"","html-keyboard-response","43","58064","0.0-43.0","3R6BYFZZP8YA8L2C49CA1DZQIG4FXN","A32HHTM9N6C67R","3ZICQFRS3143WDVXF1P0C7ZVVO8ZZM","","null","<img src=""img/land2.png"" style=""width:200px; border:14px solid green;"">","null","","","","","","","","","",""
"","image-keyboard-response","44","58159","0.0-44.0","3R6BYFZZP8YA8L2C49CA1DZQIG4FXN","A32HHTM9N6C67R","3ZICQFRS3143WDVXF1P0C7ZVVO8ZZM","","94.5","img/land2.png","74","95.29999995231628","1","1","2","1","1,0.5,0.5,0.5,1,0.5,0.5,0.5,1","1,0.5,0.5,0.5,1,0.5,0.5,0.5,1","","",""
"","html-keyboard-response","45","58461","0.0-45.0","3R6BYFZZP8YA8L2C49CA1DZQIG4FXN","A32HHTM9N6C67R","3ZICQFRS3143WDVXF1P0C7ZVVO8ZZM","","null","<img src=""img/land2.png"" style=""width:200px; border:14px solid green;"">","null","","","","","","","","","",""
"","image-keyboard-response","46","58770","0.0-46.0","3R6BYFZZP8YA8L2C49CA1DZQIG4FXN","A32HHTM9N6C67R","3ZICQFRS3143WDVXF1P0C7ZVVO8ZZM","","308.2999999523163","img/land1.png","75","309.1999999284744","2","1","1","1","1,0.5,0.5,0.5,1,0.5,0.5,0.5,1","1,0.5,0.5,0.5,1,0.5,0.5,0.5,1","","",""
"","html-keyboard-response","47","59072","0.0-47.0","3R6BYFZZP8YA8L2C49CA1DZQIG4FXN","A32HHTM9N6C67R","3ZICQFRS3143WDVXF1P0C7ZVVO8ZZM","","null","<img src=""img/land1.png"" style=""width:200px; border:14px solid green;"">","null","","","","","","","","","",""
"","image-keyboard-response","48","59135","0.0-48.0","3R6BYFZZP8YA8L2C49CA1DZQIG4FXN","A32HHTM9N6C67R","3ZICQFRS3143WDVXF1P0C7ZVVO8ZZM","","61.700000047683716","img/land2.png","76","62.60000002384186","3","0","2","1","1,0.5,0.5,0.5,1,0.5,0.5,0.5,1","1,0.5,0.5,0.5,1,0.5,0.5,0.5,1","","",""
"","html-keyboard-response","49","59437","0.0-49.0","3R6BYFZZP8YA8L2C49CA1DZQIG4FXN","A32HHTM9N6C67R","3ZICQFRS3143WDVXF1P0C7ZVVO8ZZM","","null","<img src=""img/land2.png"" style=""width:200px;border:14px solid red;"">","null","","","","","","","","","",""
"","image-keyboard-response","50","59543","0.0-50.0","3R6BYFZZP8YA8L2C49CA1DZQIG4FXN","A32HHTM9N6C67R","3ZICQFRS3143WDVXF1P0C7ZVVO8ZZM","","104.10000002384186","img/land3.png","74","105","1","0","3","1","1,0.5,0.5,0.5,1,0.5,0.5,0.5,1","1,0.5,0.5,0.5,1,0.5,0.5,0.5,1","","",""
"","html-keyboard-response","51","59859","0.0-51.0","3R6BYFZZP8YA8L2C49CA1DZQIG4FXN","A32HHTM9N6C67R","3ZICQFRS3143WDVXF1P0C7ZVVO8ZZM","","null","<img src=""img/land3.png"" style=""width:200px;border:14px solid red;"">","null","","","","","","","","","",""
"","image-keyboard-response","52","59909","0.0-52.0","3R6BYFZZP8YA8L2C49CA1DZQIG4FXN","A32HHTM9N6C67R","3ZICQFRS3143WDVXF1P0C7ZVVO8ZZM","","48.60000002384186","img/land2.png","76","49.39999997615814","3","1","2","1","1,0.5,0.5,0.5,1,0.5,0.5,0.5,1","1,0.5,0.5,0.5,1,0.5,0.5,0.5,1","","",""
"","html-keyboard-response","53","60211","0.0-53.0","3R6BYFZZP8YA8L2C49CA1DZQIG4FXN","A32HHTM9N6C67R","3ZICQFRS3143WDVXF1P0C7ZVVO8ZZM","","null","<img src=""img/land2.png"" style=""width:200px; border:14px solid green;"">","null","","","","","","","","","",""
"","image-keyboard-response","54","60981","0.0-54.0","3R6BYFZZP8YA8L2C49CA1DZQIG4FXN","A32HHTM9N6C67R","3ZICQFRS3143WDVXF1P0C7ZVVO8ZZM","","768.5","img/land3.png","76","769.1999999284744","3","1","3","1","1,0.5,0.5,0.5,1,0.5,0.5,0.5,1","1,0.5,0.5,0.5,1,0.5,0.5,0.5,1","","",""
"","html-keyboard-response","55","61282","0.0-55.0","3R6BYFZZP8YA8L2C49CA1DZQIG4FXN","A32HHTM9N6C67R","3ZICQFRS3143WDVXF1P0C7ZVVO8ZZM","","null","<img src=""img/land3.png"" style=""width:200px; border:14px solid green;"">","null","","","","","","","","","",""
"","image-keyboard-response","56","61297","0.0-56.0","3R6BYFZZP8YA8L2C49CA1DZQIG4FXN","A32HHTM9N6C67R","3ZICQFRS3143WDVXF1P0C7ZVVO8ZZM","","13.199999928474426","img/land1.png","75","14","2","0","1","1","1,0.5,0.5,0.5,1,0.5,0.5,0.5,1","1,0.5,0.5,0.5,1,0.5,0.5,0.5,1","","",""
"","html-keyboard-response","57","61599","0.0-57.0","3R6BYFZZP8YA8L2C49CA1DZQIG4FXN","A32HHTM9N6C67R","3ZICQFRS3143WDVXF1P0C7ZVVO8ZZM","","null","<img src=""img/land1.png"" style=""width:200px;border:14px solid red;"">","null","","","","","","","","","",""
"","image-keyboard-response","58","61949","0.0-58.0","3R6BYFZZP8YA8L2C49CA1DZQIG4FXN","A32HHTM9N6C67R","3ZICQFRS3143WDVXF1P0C7ZVVO8ZZM","","349","img/land2.png","75","349.7000000476837","2","1","2","1","1,0.5,0.5,0.5,1,0.5,0.5,0.5,1","1,0.5,0.5,0.5,1,0.5,0.5,0.5,1","","",""
"","html-keyboard-response","59","62251","0.0-59.0","3R6BYFZZP8YA8L2C49CA1DZQIG4FXN","A32HHTM9N6C67R","3ZICQFRS3143WDVXF1P0C7ZVVO8ZZM","","null","<img src=""img/land2.png"" style=""width:200px; border:14px solid green;"">","null","","","","","","","","","",""
"","image-keyboard-response","60","62297","0.0-60.0","3R6BYFZZP8YA8L2C49CA1DZQIG4FXN","A32HHTM9N6C67R","3ZICQFRS3143WDVXF1P0C7ZVVO8ZZM","","44.299999952316284","img/land1.png","76","45.199999928474426","3","0","1","1","1,0.5,0.5,0.5,1,0.5,0.5,0.5,1","1,0.5,0.5,0.5,1,0.5,0.5,0.5,1","","",""
"","html-keyboard-response","61","62599","0.0-61.0","3R6BYFZZP8YA8L2C49CA1DZQIG4FXN","A32HHTM9N6C67R","3ZICQFRS3143WDVXF1P0C7ZVVO8ZZM","","null","<img src=""img/land1.png"" style=""width:200px;border:14px solid red;"">","null","","","","","","","","","",""
"","image-keyboard-response","62","62823","0.0-62.0","3R6BYFZZP8YA8L2C49CA1DZQIG4FXN","A32HHTM9N6C67R","3ZICQFRS3143WDVXF1P0C7ZVVO8ZZM","","223.10000002384186","img/land3.png","76","224.09999990463257","3","1","3","1","1,0.5,0.5,0.5,1,0.5,0.5,0.5,1","1,0.5,0.5,0.5,1,0.5,0.5,0.5,1","","",""
"","html-keyboard-response","63","63125","0.0-63.0","3R6BYFZZP8YA8L2C49CA1DZQIG4FXN","A32HHTM9N6C67R","3ZICQFRS3143WDVXF1P0C7ZVVO8ZZM","","null","<img src=""img/land3.png"" style=""width:200px; border:14px solid green;"">","null","","","","","","","","","",""
"","image-keyboard-response","64","63420","0.0-64.0","3R6BYFZZP8YA8L2C49CA1DZQIG4FXN","A32HHTM9N6C67R","3ZICQFRS3143WDVXF1P0C7ZVVO8ZZM","","291.2999999523163","img/land1.png","76","294.2999999523163","3","0","1","1","1,0.5,0.5,0.5,1,0.5,0.5,0.5,1","1,0.5,0.5,0.5,1,0.5,0.5,0.5,1","","",""
"","html-keyboard-response","65","63723","0.0-65.0","3R6BYFZZP8YA8L2C49CA1DZQIG4FXN","A32HHTM9N6C67R","3ZICQFRS3143WDVXF1P0C7ZVVO8ZZM","","null","<img src=""img/land1.png"" style=""width:200px;border:14px solid red;"">","null","","","","","","","","","",""
"","image-keyboard-response","66","64430","0.0-66.0","3R6BYFZZP8YA8L2C49CA1DZQIG4FXN","A32HHTM9N6C67R","3ZICQFRS3143WDVXF1P0C7ZVVO8ZZM","","705.7000000476837","img/land1.png","76","706.7999999523163","3","1","1","1","1,0.5,0.5,0.5,1,0.5,0.5,0.5,1","1,0.5,0.5,0.5,1,0.5,0.5,0.5,1","","",""
"","html-keyboard-response","67","64731","0.0-67.0","3R6BYFZZP8YA8L2C49CA1DZQIG4FXN","A32HHTM9N6C67R","3ZICQFRS3143WDVXF1P0C7ZVVO8ZZM","","null","<img src=""img/land1.png"" style=""width:200px; border:14px solid green;"">","null","","","","","","","","","",""
"","image-keyboard-response","68","65172","0.0-68.0","3R6BYFZZP8YA8L2C49CA1DZQIG4FXN","A32HHTM9N6C67R","3ZICQFRS3143WDVXF1P0C7ZVVO8ZZM","","439.39999997615814","img/land2.png","74","440.2000000476837","1","1","2","1","1,0.5,0.5,0.5,1,0.5,0.5,0.5,1","1,0.5,0.5,0.5,1,0.5,0.5,0.5,1","","",""
"","html-keyboard-response","69","65474","0.0-69.0","3R6BYFZZP8YA8L2C49CA1DZQIG4FXN","A32HHTM9N6C67R","3ZICQFRS3143WDVXF1P0C7ZVVO8ZZM","","null","<img src=""img/land2.png"" style=""width:200px; border:14px solid green;"">","null","","","","","","","","","",""
"","image-keyboard-response","70","65905","0.0-70.0","3R6BYFZZP8YA8L2C49CA1DZQIG4FXN","A32HHTM9N6C67R","3ZICQFRS3143WDVXF1P0C7ZVVO8ZZM","","427.7999999523163","img/land1.png","74","429.39999997615814","1","1","1","1","1,0.5,0.5,0.5,1,0.5,0.5,0.5,1","1,0.5,0.5,0.5,1,0.5,0.5,0.5,1","","",""
"","html-keyboard-response","71","66207","0.0-71.0","3R6BYFZZP8YA8L2C49CA1DZQIG4FXN","A32HHTM9N6C67R","3ZICQFRS3143WDVXF1P0C7ZVVO8ZZM","","null","<img src=""img/land1.png"" style=""width:200px; border:14px solid green;"">","null","","","","","","","","","",""
"","image-keyboard-response","72","66367","0.0-72.0","3R6BYFZZP8YA8L2C49CA1DZQIG4FXN","A32HHTM9N6C67R","3ZICQFRS3143WDVXF1P0C7ZVVO8ZZM","","158.19999992847443","img/land2.png","74","159","1","1","2","1","1,0.5,0.5,0.5,1,0.5,0.5,0.5,1","1,0.5,0.5,0.5,1,0.5,0.5,0.5,1","","",""
"","html-keyboard-response","73","66669","0.0-73.0","3R6BYFZZP8YA8L2C49CA1DZQIG4FXN","A32HHTM9N6C67R","3ZICQFRS3143WDVXF1P0C7ZVVO8ZZM","","null","<img src=""img/land2.png"" style=""width:200px; border:14px solid green;"">","null","","","","","","","","","",""
"","image-keyboard-response","74","66895","0.0-74.0","3R6BYFZZP8YA8L2C49CA1DZQIG4FXN","A32HHTM9N6C67R","3ZICQFRS3143WDVXF1P0C7ZVVO8ZZM","","224.70000004768372","img/land3.png","74","225.30000007152557","1","1","3","1","1,0.5,0.5,0.5,1,0.5,0.5,0.5,1","1,0.5,0.5,0.5,1,0.5,0.5,0.5,1","","",""
"","html-keyboard-response","75","67197","0.0-75.0","3R6BYFZZP8YA8L2C49CA1DZQIG4FXN","A32HHTM9N6C67R","3ZICQFRS3143WDVXF1P0C7ZVVO8ZZM","","null","<img src=""img/land3.png"" style=""width:200px; border:14px solid green;"">","null","","","","","","","","","",""
"","image-keyboard-response","76","67409","0.0-76.0","3R6BYFZZP8YA8L2C49CA1DZQIG4FXN","A32HHTM9N6C67R","3ZICQFRS3143WDVXF1P0C7ZVVO8ZZM","","210.80000007152557","img/land3.png","74","211.60000002384186","1","1","3","1","1,0.5,0.5,0.5,1,0.5,0.5,0.5,1","1,0.5,0.5,0.5,1,0.5,0.5,0.5,1","","",""
"","html-keyboard-response","77","67711","0.0-77.0","3R6BYFZZP8YA8L2C49CA1DZQIG4FXN","A32HHTM9N6C67R","3ZICQFRS3143WDVXF1P0C7ZVVO8ZZM","","null","<img src=""img/land3.png"" style=""width:200px; border:14px solid green;"">","null","","","","","","","","","",""
"","image-keyboard-response","78","68594","0.0-78.0","3R6BYFZZP8YA8L2C49CA1DZQIG4FXN","A32HHTM9N6C67R","3ZICQFRS3143WDVXF1P0C7ZVVO8ZZM","","881.6999999284744","img/land2.png","74","882.7999999523163","1","0","2","1","1,0.5,0.5,0.5,1,0.5,0.5,0.5,1","1,0.5,0.5,0.5,1,0.5,0.5,0.5,1","","",""
"","html-keyboard-response","79","68897","0.0-79.0","3R6BYFZZP8YA8L2C49CA1DZQIG4FXN","A32HHTM9N6C67R","3ZICQFRS3143WDVXF1P0C7ZVVO8ZZM","","null","<img src=""img/land2.png"" style=""width:200px;border:14px solid red;"">","null","","","","","","","","","",""
"","image-keyboard-response","80","69143","0.0-80.0","3R6BYFZZP8YA8L2C49CA1DZQIG4FXN","A32HHTM9N6C67R","3ZICQFRS3143WDVXF1P0C7ZVVO8ZZM","","243.89999997615814","img/land3.png","74","245.30000007152557","1","1","3","1","1,0.5,0.5,0.5,1,0.5,0.5,0.5,1","1,0.5,0.5,0.5,1,0.5,0.5,0.5,1","","",""
"","html-keyboard-response","81","69446","0.0-81.0","3R6BYFZZP8YA8L2C49CA1DZQIG4FXN","A32HHTM9N6C67R","3ZICQFRS3143WDVXF1P0C7ZVVO8ZZM","","null","<img src=""img/land3.png"" style=""width:200px; border:14px solid green;"">","null","","","","","","","","","",""
"","image-keyboard-response","82","70393","0.0-82.0","3R6BYFZZP8YA8L2C49CA1DZQIG4FXN","A32HHTM9N6C67R","3ZICQFRS3143WDVXF1P0C7ZVVO8ZZM","","945.1000000238419","img/land2.png","75","946.2000000476837","2","1","2","1","1,0.5,0.5,0.5,1,0.5,0.5,0.5,1","1,0.5,0.5,0.5,1,0.5,0.5,0.5,1","","",""
"","html-keyboard-response","83","70695","0.0-83.0","3R6BYFZZP8YA8L2C49CA1DZQIG4FXN","A32HHTM9N6C67R","3ZICQFRS3143WDVXF1P0C7ZVVO8ZZM","","null","<img src=""img/land2.png"" style=""width:200px; border:14px solid green;"">","null","","","","","","","","","",""
"","image-keyboard-response","84","70920","0.0-84.0","3R6BYFZZP8YA8L2C49CA1DZQIG4FXN","A32HHTM9N6C67R","3ZICQFRS3143WDVXF1P0C7ZVVO8ZZM","","224.10000002384186","img/land2.png","74","225.20000004768372","1","1","2","1","1,0.5,0.5,0.5,1,0.5,0.5,0.5,1","1,0.5,0.5,0.5,1,0.5,0.5,0.5,1","","",""
"","html-keyboard-response","85","71222","0.0-85.0","3R6BYFZZP8YA8L2C49CA1DZQIG4FXN","A32HHTM9N6C67R","3ZICQFRS3143WDVXF1P0C7ZVVO8ZZM","","null","<img src=""img/land2.png"" style=""width:200px; border:14px solid green;"">","null","","","","","","","","","",""
"","image-keyboard-response","86","71288","0.0-86.0","3R6BYFZZP8YA8L2C49CA1DZQIG4FXN","A32HHTM9N6C67R","3ZICQFRS3143WDVXF1P0C7ZVVO8ZZM","","64","img/land2.png","75","65","2","1","2","1","1,0.5,0.5,0.5,1,0.5,0.5,0.5,1","1,0.5,0.5,0.5,1,0.5,0.5,0.5,1","","",""
"","html-keyboard-response","87","71590","0.0-87.0","3R6BYFZZP8YA8L2C49CA1DZQIG4FXN","A32HHTM9N6C67R","3ZICQFRS3143WDVXF1P0C7ZVVO8ZZM","","null","<img src=""img/land2.png"" style=""width:200px; border:14px solid green;"">","null","","","","","","","","","",""
"","image-keyboard-response","88","71808","0.0-88.0","3R6BYFZZP8YA8L2C49CA1DZQIG4FXN","A32HHTM9N6C67R","3ZICQFRS3143WDVXF1P0C7ZVVO8ZZM","","216.89999997615814","img/land3.png","75","217.70000004768372","2","0","3","1","1,0.5,0.5,0.5,1,0.5,0.5,0.5,1","1,0.5,0.5,0.5,1,0.5,0.5,0.5,1","","",""
"","html-keyboard-response","89","72111","0.0-89.0","3R6BYFZZP8YA8L2C49CA1DZQIG4FXN","A32HHTM9N6C67R","3ZICQFRS3143WDVXF1P0C7ZVVO8ZZM","","null","<img src=""img/land3.png"" style=""width:200px;border:14px solid red;"">","null","","","","","","","","","",""
"","image-keyboard-response","90","72211","0.0-90.0","3R6BYFZZP8YA8L2C49CA1DZQIG4FXN","A32HHTM9N6C67R","3ZICQFRS3143WDVXF1P0C7ZVVO8ZZM","","99.10000002384186","img/land1.png","74","100","1","1","1","1","1,0.5,0.5,0.5,1,0.5,0.5,0.5,1","1,0.5,0.5,0.5,1,0.5,0.5,0.5,1","","",""
"","html-keyboard-response","91","72513","0.0-91.0","3R6BYFZZP8YA8L2C49CA1DZQIG4FXN","A32HHTM9N6C67R","3ZICQFRS3143WDVXF1P0C7ZVVO8ZZM","","null","<img src=""img/land1.png"" style=""width:200px; border:14px solid green;"">","null","","","","","","","","","",""
"","image-keyboard-response","92","72526","0.0-92.0","3R6BYFZZP8YA8L2C49CA1DZQIG4FXN","A32HHTM9N6C67R","3ZICQFRS3143WDVXF1P0C7ZVVO8ZZM","","11.199999928474426","img/land2.png","74","12","1","1","2","1","1,0.5,0.5,0.5,1,0.5,0.5,0.5,1","1,0.5,0.5,0.5,1,0.5,0.5,0.5,1","","",""
"","html-keyboard-response","93","72828","0.0-93.0","3R6BYFZZP8YA8L2C49CA1DZQIG4FXN","A32HHTM9N6C67R","3ZICQFRS3143WDVXF1P0C7ZVVO8ZZM","","null","<img src=""img/land2.png"" style=""width:200px; border:14px solid green;"">","null","","","","","","","","","",""
"","image-keyboard-response","94","72909","0.0-94.0","3R6BYFZZP8YA8L2C49CA1DZQIG4FXN","A32HHTM9N6C67R","3ZICQFRS3143WDVXF1P0C7ZVVO8ZZM","","79.69999992847443","img/land1.png","75","80.40000009536743","2","1","1","1","1,0.5,0.5,0.5,1,0.5,0.5,0.5,1","1,0.5,0.5,0.5,1,0.5,0.5,0.5,1","","",""
"","html-keyboard-response","95","73211","0.0-95.0","3R6BYFZZP8YA8L2C49CA1DZQIG4FXN","A32HHTM9N6C67R","3ZICQFRS3143WDVXF1P0C7ZVVO8ZZM","","null","<img src=""img/land1.png"" style=""width:200px; border:14px solid green;"">","null","","","","","","","","","",""
"","image-keyboard-response","96","73671","0.0-96.0","3R6BYFZZP8YA8L2C49CA1DZQIG4FXN","A32HHTM9N6C67R","3ZICQFRS3143WDVXF1P0C7ZVVO8ZZM","","456.7999999523163","img/land1.png","74","459.09999990463257","1","1","1","1","1,0.5,0.5,0.5,1,0.5,0.5,0.5,1","1,0.5,0.5,0.5,1,0.5,0.5,0.5,1","","",""
"","html-keyboard-response","97","73973","0.0-97.0","3R6BYFZZP8YA8L2C49CA1DZQIG4FXN","A32HHTM9N6C67R","3ZICQFRS3143WDVXF1P0C7ZVVO8ZZM","","null","<img src=""img/land1.png"" style=""width:200px; border:14px solid green;"">","null","","","","","","","","","",""
"","image-keyboard-response","98","74706","0.0-98.0","3R6BYFZZP8YA8L2C49CA1DZQIG4FXN","A32HHTM9N6C67R","3ZICQFRS3143WDVXF1P0C7ZVVO8ZZM","","731","img/land3.png","75","731.9000000953674","2","1","3","1","1,0.5,0.5,0.5,1,0.5,0.5,0.5,1","1,0.5,0.5,0.5,1,0.5,0.5,0.5,1","","",""
"","html-keyboard-response","99","75011","0.0-99.0","3R6BYFZZP8YA8L2C49CA1DZQIG4FXN","A32HHTM9N6C67R","3ZICQFRS3143WDVXF1P0C7ZVVO8ZZM","","null","<img src=""img/land3.png"" style=""width:200px; border:14px solid green;"">","null","","","","","","","","","",""
"","image-keyboard-response","100","75494","0.0-100.0","3R6BYFZZP8YA8L2C49CA1DZQIG4FXN","A32HHTM9N6C67R","3ZICQFRS3143WDVXF1P0C7ZVVO8ZZM","","481.2000000476837","img/land1.png","75","482.10000002384186","2","1","1","1","1,0.5,0.5,0.5,1,0.5,0.5,0.5,1","1,0.5,0.5,0.5,1,0.5,0.5,0.5,1","","",""
"","html-keyboard-response","101","75795","0.0-101.0","3R6BYFZZP8YA8L2C49CA1DZQIG4FXN","A32HHTM9N6C67R","3ZICQFRS3143WDVXF1P0C7ZVVO8ZZM","","null","<img src=""img/land1.png"" style=""width:200px; border:14px solid green;"">","null","","","","","","","","","",""
"","image-keyboard-response","102","75849","0.0-102.0","3R6BYFZZP8YA8L2C49CA1DZQIG4FXN","A32HHTM9N6C67R","3ZICQFRS3143WDVXF1P0C7ZVVO8ZZM","","52.799999952316284","img/land1.png","74","53.699999928474426","1","1","1","1","1,0.5,0.5,0.5,1,0.5,0.5,0.5,1","1,0.5,0.5,0.5,1,0.5,0.5,0.5,1","","",""
"","html-keyboard-response","103","76152","0.0-103.0","3R6BYFZZP8YA8L2C49CA1DZQIG4FXN","A32HHTM9N6C67R","3ZICQFRS3143WDVXF1P0C7ZVVO8ZZM","","null","<img src=""img/land1.png"" style=""width:200px; border:14px solid green;"">","null","","","","","","","","","",""
"","image-keyboard-response","104","76874","0.0-104.0","3R6BYFZZP8YA8L2C49CA1DZQIG4FXN","A32HHTM9N6C67R","3ZICQFRS3143WDVXF1P0C7ZVVO8ZZM","","720.6000000238419","img/land2.png","74","721.4000000953674","1","1","2","1","1,0.5,0.5,0.5,1,0.5,0.5,0.5,1","1,0.5,0.5,0.5,1,0.5,0.5,0.5,1","","",""
"","html-keyboard-response","105","77177","0.0-105.0","3R6BYFZZP8YA8L2C49CA1DZQIG4FXN","A32HHTM9N6C67R","3ZICQFRS3143WDVXF1P0C7ZVVO8ZZM","","null","<img src=""img/land2.png"" style=""width:200px; border:14px solid green;"">","null","","","","","","","","","",""
"","image-keyboard-response","106","77189","0.0-106.0","3R6BYFZZP8YA8L2C49CA1DZQIG4FXN","A32HHTM9N6C67R","3ZICQFRS3143WDVXF1P0C7ZVVO8ZZM","","11.399999976158142","img/land1.png","75","12.099999904632568","2","1","1","1","1,0.5,0.5,0.5,1,0.5,0.5,0.5,1","1,0.5,0.5,0.5,1,0.5,0.5,0.5,1","","",""
"","html-keyboard-response","107","77492","0.0-107.0","3R6BYFZZP8YA8L2C49CA1DZQIG4FXN","A32HHTM9N6C67R","3ZICQFRS3143WDVXF1P0C7ZVVO8ZZM","","null","<img src=""img/land1.png"" style=""width:200px; border:14px solid green;"">","null","","","","","","","","","",""
"","image-keyboard-response","108","77621","0.0-108.0","3R6BYFZZP8YA8L2C49CA1DZQIG4FXN","A32HHTM9N6C67R","3ZICQFRS3143WDVXF1P0C7ZVVO8ZZM","","127.70000004768372","img/land2.png","75","128.60000002384186","2","1","2","1","1,0.5,0.5,0.5,1,0.5,0.5,0.5,1","1,0.5,0.5,0.5,1,0.5,0.5,0.5,1","","",""
"","html-keyboard-response","109","77923","0.0-109.0","3R6BYFZZP8YA8L2C49CA1DZQIG4FXN","A32HHTM9N6C67R","3ZICQFRS3143WDVXF1P0C7ZVVO8ZZM","","null","<img src=""img/land2.png"" style=""width:200px; border:14px solid green;"">","null","","","","","","","","","",""
"","image-keyboard-response","110","78111","0.0-110.0","3R6BYFZZP8YA8L2C49CA1DZQIG4FXN","A32HHTM9N6C67R","3ZICQFRS3143WDVXF1P0C7ZVVO8ZZM","","186.59999990463257","img/land3.png","74","187.39999997615814","1","0","3","1","1,0.5,0.5,0.5,1,0.5,0.5,0.5,1","1,0.5,0.5,0.5,1,0.5,0.5,0.5,1","","",""
"","html-keyboard-response","111","78419","0.0-111.0","3R6BYFZZP8YA8L2C49CA1DZQIG4FXN","A32HHTM9N6C67R","3ZICQFRS3143WDVXF1P0C7ZVVO8ZZM","","null","<img src=""img/land3.png"" style=""width:200px;border:14px solid red;"">","null","","","","","","","","","",""
"","image-keyboard-response","112","79095","0.0-112.0","3R6BYFZZP8YA8L2C49CA1DZQIG4FXN","A32HHTM9N6C67R","3ZICQFRS3143WDVXF1P0C7ZVVO8ZZM","","674.7999999523163","img/land2.png","75","675.7999999523163","2","1","2","1","1,0.5,0.5,0.5,1,0.5,0.5,0.5,1","1,0.5,0.5,0.5,1,0.5,0.5,0.5,1","","",""
"","html-keyboard-response","113","79397","0.0-113.0","3R6BYFZZP8YA8L2C49CA1DZQIG4FXN","A32HHTM9N6C67R","3ZICQFRS3143WDVXF1P0C7ZVVO8ZZM","","null","<img src=""img/land2.png"" style=""width:200px; border:14px solid green;"">","null","","","","","","","","","",""
"","image-keyboard-response","114","79481","0.0-114.0","3R6BYFZZP8YA8L2C49CA1DZQIG4FXN","A32HHTM9N6C67R","3ZICQFRS3143WDVXF1P0C7ZVVO8ZZM","","81.5","img/land1.png","75","82.5","2","1","1","1","1,0.5,0.5,0.5,1,0.5,0.5,0.5,1","1,0.5,0.5,0.5,1,0.5,0.5,0.5,1","","",""
"","html-keyboard-response","115","79783","0.0-115.0","3R6BYFZZP8YA8L2C49CA1DZQIG4FXN","A32HHTM9N6C67R","3ZICQFRS3143WDVXF1P0C7ZVVO8ZZM","","null","<img src=""img/land1.png"" style=""width:200px; border:14px solid green;"">","null","","","","","","","","","",""
"","image-keyboard-response","116","79808","0.0-116.0","3R6BYFZZP8YA8L2C49CA1DZQIG4FXN","A32HHTM9N6C67R","3ZICQFRS3143WDVXF1P0C7ZVVO8ZZM","","24.200000047683716","img/land1.png","75","24.899999976158142","2","1","1","1","1,0.5,0.5,0.5,1,0.5,0.5,0.5,1","1,0.5,0.5,0.5,1,0.5,0.5,0.5,1","","",""
"","html-keyboard-response","117","80110","0.0-117.0","3R6BYFZZP8YA8L2C49CA1DZQIG4FXN","A32HHTM9N6C67R","3ZICQFRS3143WDVXF1P0C7ZVVO8ZZM","","null","<img src=""img/land1.png"" style=""width:200px; border:14px solid green;"">","null","","","","","","","","","",""
"","image-keyboard-response","118","80173","0.0-118.0","3R6BYFZZP8YA8L2C49CA1DZQIG4FXN","A32HHTM9N6C67R","3ZICQFRS3143WDVXF1P0C7ZVVO8ZZM","","60.300000071525574","img/land2.png","75","62.10000002384186","2","1","2","1","1,0.5,0.5,0.5,1,0.5,0.5,0.5,1","1,0.5,0.5,0.5,1,0.5,0.5,0.5,1","","",""
"","html-keyboard-response","119","80475","0.0-119.0","3R6BYFZZP8YA8L2C49CA1DZQIG4FXN","A32HHTM9N6C67R","3ZICQFRS3143WDVXF1P0C7ZVVO8ZZM","","null","<img src=""img/land2.png"" style=""width:200px; border:14px solid green;"">","null","","","","","","","","","",""
"","image-keyboard-response","120","80535","0.0-120.0","3R6BYFZZP8YA8L2C49CA1DZQIG4FXN","A32HHTM9N6C67R","3ZICQFRS3143WDVXF1P0C7ZVVO8ZZM","","59","img/land3.png","74","60.5","1","0","3","1","1,0.5,0.5,0.5,1,0.5,0.5,0.5,1","1,0.5,0.5,0.5,1,0.5,0.5,0.5,1","","",""
"","html-keyboard-response","121","80838","0.0-121.0","3R6BYFZZP8YA8L2C49CA1DZQIG4FXN","A32HHTM9N6C67R","3ZICQFRS3143WDVXF1P0C7ZVVO8ZZM","","null","<img src=""img/land3.png"" style=""width:200px;border:14px solid red;"">","null","","","","","","","","","",""
"","image-keyboard-response","122","81846","0.0-122.0","3R6BYFZZP8YA8L2C49CA1DZQIG4FXN","A32HHTM9N6C67R","3ZICQFRS3143WDVXF1P0C7ZVVO8ZZM","","1005.6999999284744","img/land1.png","75","1006.8999999761581","2","0","1","1","1,0.5,0.5,0.5,1,0.5,0.5,0.5,1","1,0.5,0.5,0.5,1,0.5,0.5,0.5,1","","",""
"","html-keyboard-response","123","82149","0.0-123.0","3R6BYFZZP8YA8L2C49CA1DZQIG4FXN","A32HHTM9N6C67R","3ZICQFRS3143WDVXF1P0C7ZVVO8ZZM","","null","<img src=""img/land1.png"" style=""width:200px;border:14px solid red;"">","null","","","","","","","","","",""
"","image-keyboard-response","124","82250","0.0-124.0","3R6BYFZZP8YA8L2C49CA1DZQIG4FXN","A32HHTM9N6C67R","3ZICQFRS3143WDVXF1P0C7ZVVO8ZZM","","99.79999995231628","img/land2.png","74","100.79999995231628","1","0","2","1","1,0.5,0.5,0.5,1,0.5,0.5,0.5,1","1,0.5,0.5,0.5,1,0.5,0.5,0.5,1","","",""
"","html-keyboard-response","125","82552","0.0-125.0","3R6BYFZZP8YA8L2C49CA1DZQIG4FXN","A32HHTM9N6C67R","3ZICQFRS3143WDVXF1P0C7ZVVO8ZZM","","null","<img src=""img/land2.png"" style=""width:200px;border:14px solid red;"">","null","","","","","","","","","",""
"","image-keyboard-response","126","82875","0.0-126.0","3R6BYFZZP8YA8L2C49CA1DZQIG4FXN","A32HHTM9N6C67R","3ZICQFRS3143WDVXF1P0C7ZVVO8ZZM","","321.5","img/land2.png","75","322.8000000715256","2","1","2","1","1,0.5,0.5,0.5,1,0.5,0.5,0.5,1","1,0.5,0.5,0.5,1,0.5,0.5,0.5,1","","",""
"","html-keyboard-response","127","83184","0.0-127.0","3R6BYFZZP8YA8L2C49CA1DZQIG4FXN","A32HHTM9N6C67R","3ZICQFRS3143WDVXF1P0C7ZVVO8ZZM","","null","<img src=""img/land2.png"" style=""width:200px; border:14px solid green;"">","null","","","","","","","","","",""
"","image-keyboard-response","128","83276","0.0-128.0","3R6BYFZZP8YA8L2C49CA1DZQIG4FXN","A32HHTM9N6C67R","3ZICQFRS3143WDVXF1P0C7ZVVO8ZZM","","90.60000002384186","img/land1.png","75","91.59999990463257","2","1","1","1","1,0.5,0.5,0.5,1,0.5,0.5,0.5,1","1,0.5,0.5,0.5,1,0.5,0.5,0.5,1","","",""
"","html-keyboard-response","129","83578","0.0-129.0","3R6BYFZZP8YA8L2C49CA1DZQIG4FXN","A32HHTM9N6C67R","3ZICQFRS3143WDVXF1P0C7ZVVO8ZZM","","null","<img src=""img/land1.png"" style=""width:200px; border:14px solid green;"">","null","","","","","","","","","",""
"","image-keyboard-response","130","84071","0.0-130.0","3R6BYFZZP8YA8L2C49CA1DZQIG4FXN","A32HHTM9N6C67R","3ZICQFRS3143WDVXF1P0C7ZVVO8ZZM","","492","img/land3.png","75","492.90000009536743","2","0","3","1","1,0.5,0.5,0.5,1,0.5,0.5,0.5,1","1,0.5,0.5,0.5,1,0.5,0.5,0.5,1","","",""
"","html-keyboard-response","131","84374","0.0-131.0","3R6BYFZZP8YA8L2C49CA1DZQIG4FXN","A32HHTM9N6C67R","3ZICQFRS3143WDVXF1P0C7ZVVO8ZZM","","null","<img src=""img/land3.png"" style=""width:200px;border:14px solid red;"">","null","","","","","","","","","",""
"","image-keyboard-response","132","84420","0.0-132.0","3R6BYFZZP8YA8L2C49CA1DZQIG4FXN","A32HHTM9N6C67R","3ZICQFRS3143WDVXF1P0C7ZVVO8ZZM","","44.89999997615814","img/land3.png","75","45.60000002384186","2","1","3","1","1,0.5,0.5,0.5,1,0.5,0.5,0.5,1","1,0.5,0.5,0.5,1,0.5,0.5,0.5,1","","",""
"","html-keyboard-response","133","84721","0.0-133.0","3R6BYFZZP8YA8L2C49CA1DZQIG4FXN","A32HHTM9N6C67R","3ZICQFRS3143WDVXF1P0C7ZVVO8ZZM","","null","<img src=""img/land3.png"" style=""width:200px; border:14px solid green;"">","null","","","","","","","","","",""
"","image-keyboard-response","134","84750","0.0-134.0","3R6BYFZZP8YA8L2C49CA1DZQIG4FXN","A32HHTM9N6C67R","3ZICQFRS3143WDVXF1P0C7ZVVO8ZZM","","27.299999952316284","img/land3.png","74","28.100000023841858","1","0","3","1","1,0.5,0.5,0.5,1,0.5,0.5,0.5,1","1,0.5,0.5,0.5,1,0.5,0.5,0.5,1","","",""
"","html-keyboard-response","135","85051","0.0-135.0","3R6BYFZZP8YA8L2C49CA1DZQIG4FXN","A32HHTM9N6C67R","3ZICQFRS3143WDVXF1P0C7ZVVO8ZZM","","null","<img src=""img/land3.png"" style=""width:200px;border:14px solid red;"">","null","","","","","","","","","",""
"","image-keyboard-response","136","85075","0.0-136.0","3R6BYFZZP8YA8L2C49CA1DZQIG4FXN","A32HHTM9N6C67R","3ZICQFRS3143WDVXF1P0C7ZVVO8ZZM","","20.200000047683716","img/land2.png","75","23.100000023841858","2","1","2","1","1,0.5,0.5,0.5,1,0.5,0.5,0.5,1","1,0.5,0.5,0.5,1,0.5,0.5,0.5,1","","",""
"","html-keyboard-response","137","85377","0.0-137.0","3R6BYFZZP8YA8L2C49CA1DZQIG4FXN","A32HHTM9N6C67R","3ZICQFRS3143WDVXF1P0C7ZVVO8ZZM","","null","<img src=""img/land2.png"" style=""width:200px; border:14px solid green;"">","null","","","","","","","","","",""
"","image-keyboard-response","138","85722","0.0-138.0","3R6BYFZZP8YA8L2C49CA1DZQIG4FXN","A32HHTM9N6C67R","3ZICQFRS3143WDVXF1P0C7ZVVO8ZZM","","344.2000000476837","img/land3.png","75","345.10000002384186","2","1","3","1","1,0.5,0.5,0.5,1,0.5,0.5,0.5,1","1,0.5,0.5,0.5,1,0.5,0.5,0.5,1","","",""
"","html-keyboard-response","139","86024","0.0-139.0","3R6BYFZZP8YA8L2C49CA1DZQIG4FXN","A32HHTM9N6C67R","3ZICQFRS3143WDVXF1P0C7ZVVO8ZZM","","null","<img src=""img/land3.png"" style=""width:200px; border:14px solid green;"">","null","","","","","","","","","",""
"","image-keyboard-response","140","86117","0.0-140.0","3R6BYFZZP8YA8L2C49CA1DZQIG4FXN","A32HHTM9N6C67R","3ZICQFRS3143WDVXF1P0C7ZVVO8ZZM","","92.20000004768372","img/land3.png","74","92.79999995231628","1","1","3","1","1,0.5,0.5,0.5,1,0.5,0.5,0.5,1","1,0.5,0.5,0.5,1,0.5,0.5,0.5,1","","",""
"","html-keyboard-response","141","86419","0.0-141.0","3R6BYFZZP8YA8L2C49CA1DZQIG4FXN","A32HHTM9N6C67R","3ZICQFRS3143WDVXF1P0C7ZVVO8ZZM","","null","<img src=""img/land3.png"" style=""width:200px; border:14px solid green;"">","null","","","","","","","","","",""
"","image-keyboard-response","142","87113","0.0-142.0","3R6BYFZZP8YA8L2C49CA1DZQIG4FXN","A32HHTM9N6C67R","3ZICQFRS3143WDVXF1P0C7ZVVO8ZZM","","692.4000000953674","img/land3.png","75","693.3000000715256","2","1","3","1","1,0.5,0.5,0.5,1,0.5,0.5,0.5,1","1,0.5,0.5,0.5,1,0.5,0.5,0.5,1","","",""
"","html-keyboard-response","143","87415","0.0-143.0","3R6BYFZZP8YA8L2C49CA1DZQIG4FXN","A32HHTM9N6C67R","3ZICQFRS3143WDVXF1P0C7ZVVO8ZZM","","null","<img src=""img/land3.png"" style=""width:200px; border:14px solid green;"">","null","","","","","","","","","",""
"","image-keyboard-response","144","87713","0.0-144.0","3R6BYFZZP8YA8L2C49CA1DZQIG4FXN","A32HHTM9N6C67R","3ZICQFRS3143WDVXF1P0C7ZVVO8ZZM","","296.6999999284744","img/land1.png","75","297.5","2","1","1","1","1,0.5,0.5,0.5,1,0.5,0.5,0.5,1","1,0.5,0.5,0.5,1,0.5,0.5,0.5,1","","",""
"","html-keyboard-response","145","88015","0.0-145.0","3R6BYFZZP8YA8L2C49CA1DZQIG4FXN","A32HHTM9N6C67R","3ZICQFRS3143WDVXF1P0C7ZVVO8ZZM","","null","<img src=""img/land1.png"" style=""width:200px; border:14px solid green;"">","null","","","","","","","","","",""
"","image-keyboard-response","146","88317","0.0-146.0","3R6BYFZZP8YA8L2C49CA1DZQIG4FXN","A32HHTM9N6C67R","3ZICQFRS3143WDVXF1P0C7ZVVO8ZZM","","301.39999997615814","img/land2.png","75","302.1999999284744","2","1","2","1","1,0.5,0.5,0.5,1,0.5,0.5,0.5,1","1,0.5,0.5,0.5,1,0.5,0.5,0.5,1","","",""
"","html-keyboard-response","147","88620","0.0-147.0","3R6BYFZZP8YA8L2C49CA1DZQIG4FXN","A32HHTM9N6C67R","3ZICQFRS3143WDVXF1P0C7ZVVO8ZZM","","null","<img src=""img/land2.png"" style=""width:200px; border:14px solid green;"">","null","","","","","","","","","",""
"","image-keyboard-response","148","88663","0.0-148.0","3R6BYFZZP8YA8L2C49CA1DZQIG4FXN","A32HHTM9N6C67R","3ZICQFRS3143WDVXF1P0C7ZVVO8ZZM","","41.39999997615814","img/land3.png","74","42.39999997615814","1","0","3","1","1,0.5,0.5,0.5,1,0.5,0.5,0.5,1","1,0.5,0.5,0.5,1,0.5,0.5,0.5,1","","",""
"","html-keyboard-response","149","88965","0.0-149.0","3R6BYFZZP8YA8L2C49CA1DZQIG4FXN","A32HHTM9N6C67R","3ZICQFRS3143WDVXF1P0C7ZVVO8ZZM","","null","<img src=""img/land3.png"" style=""width:200px;border:14px solid red;"">","null","","","","","","","","","",""
"","image-keyboard-response","150","89056","0.0-150.0","3R6BYFZZP8YA8L2C49CA1DZQIG4FXN","A32HHTM9N6C67R","3ZICQFRS3143WDVXF1P0C7ZVVO8ZZM","","89.10000002384186","img/land1.png","75","89.89999997615814","2","1","1","1","1,0.5,0.5,0.5,1,0.5,0.5,0.5,1","1,0.5,0.5,0.5,1,0.5,0.5,0.5,1","","",""
"","html-keyboard-response","151","89359","0.0-151.0","3R6BYFZZP8YA8L2C49CA1DZQIG4FXN","A32HHTM9N6C67R","3ZICQFRS3143WDVXF1P0C7ZVVO8ZZM","","null","<img src=""img/land1.png"" style=""width:200px; border:14px solid green;"">","null","","","","","","","","","",""
"","image-keyboard-response","152","89924","0.0-152.0","3R6BYFZZP8YA8L2C49CA1DZQIG4FXN","A32HHTM9N6C67R","3ZICQFRS3143WDVXF1P0C7ZVVO8ZZM","","563.7000000476837","img/land1.png","75","564.5","2","0","1","1","1,0.5,0.5,0.5,1,0.5,0.5,0.5,1","1,0.5,0.5,0.5,1,0.5,0.5,0.5,1","","",""
"","html-keyboard-response","153","90226","0.0-153.0","3R6BYFZZP8YA8L2C49CA1DZQIG4FXN","A32HHTM9N6C67R","3ZICQFRS3143WDVXF1P0C7ZVVO8ZZM","","null","<img src=""img/land1.png"" style=""width:200px;border:14px solid red;"">","null","","","","","","","","","",""
"","image-keyboard-response","154","90241","0.0-154.0","3R6BYFZZP8YA8L2C49CA1DZQIG4FXN","A32HHTM9N6C67R","3ZICQFRS3143WDVXF1P0C7ZVVO8ZZM","","13.199999928474426","img/land3.png","74","14.5","1","1","3","1","1,0.5,0.5,0.5,1,0.5,0.5,0.5,1","1,0.5,0.5,0.5,1,0.5,0.5,0.5,1","","",""
"","html-keyboard-response","155","90545","0.0-155.0","3R6BYFZZP8YA8L2C49CA1DZQIG4FXN","A32HHTM9N6C67R","3ZICQFRS3143WDVXF1P0C7ZVVO8ZZM","","null","<img src=""img/land3.png"" style=""width:200px; border:14px solid green;"">","null","","","","","","","","","",""
"","image-keyboard-response","156","91218","0.0-156.0","3R6BYFZZP8YA8L2C49CA1DZQIG4FXN","A32HHTM9N6C67R","3ZICQFRS3143WDVXF1P0C7ZVVO8ZZM","","671.3999999761581","img/land1.png","74","672.2999999523163","1","1","1","1","1,0.5,0.5,0.5,1,0.5,0.5,0.5,1","1,0.5,0.5,0.5,1,0.5,0.5,0.5,1","","",""
"","html-keyboard-response","157","91519","0.0-157.0","3R6BYFZZP8YA8L2C49CA1DZQIG4FXN","A32HHTM9N6C67R","3ZICQFRS3143WDVXF1P0C7ZVVO8ZZM","","null","<img src=""img/land1.png"" style=""width:200px; border:14px solid green;"">","null","","","","","","","","","",""
"","image-keyboard-response","158","92069","0.0-158.0","3R6BYFZZP8YA8L2C49CA1DZQIG4FXN","A32HHTM9N6C67R","3ZICQFRS3143WDVXF1P0C7ZVVO8ZZM","","549","img/land1.png","75","550","2","0","1","1","1,0.5,0.5,0.5,1,0.5,0.5,0.5,1","1,0.5,0.5,0.5,1,0.5,0.5,0.5,1","","",""
"","html-keyboard-response","159","92371","0.0-159.0","3R6BYFZZP8YA8L2C49CA1DZQIG4FXN","A32HHTM9N6C67R","3ZICQFRS3143WDVXF1P0C7ZVVO8ZZM","","null","<img src=""img/land1.png"" style=""width:200px;border:14px solid red;"">","null","","","","","","","","","",""
"","image-keyboard-response","160","92559","0.0-160.0","3R6BYFZZP8YA8L2C49CA1DZQIG4FXN","A32HHTM9N6C67R","3ZICQFRS3143WDVXF1P0C7ZVVO8ZZM","","185.89999997615814","img/land1.png","74","186.79999995231628","1","1","1","1","1,0.5,0.5,0.5,1,0.5,0.5,0.5,1","1,0.5,0.5,0.5,1,0.5,0.5,0.5,1","","",""
"","html-keyboard-response","161","92861","0.0-161.0","3R6BYFZZP8YA8L2C49CA1DZQIG4FXN","A32HHTM9N6C67R","3ZICQFRS3143WDVXF1P0C7ZVVO8ZZM","","null","<img src=""img/land1.png"" style=""width:200px; border:14px solid green;"">","null","","","","","","","","","",""
"","image-keyboard-response","162","92865","0.0-162.0","3R6BYFZZP8YA8L2C49CA1DZQIG4FXN","A32HHTM9N6C67R","3ZICQFRS3143WDVXF1P0C7ZVVO8ZZM","","2.299999952316284","img/land1.png","75","3.700000047683716","2","1","1","1","1,0.5,0.5,0.5,1,0.5,0.5,0.5,1","1,0.5,0.5,0.5,1,0.5,0.5,0.5,1","","",""
"","html-keyboard-response","163","93168","0.0-163.0","3R6BYFZZP8YA8L2C49CA1DZQIG4FXN","A32HHTM9N6C67R","3ZICQFRS3143WDVXF1P0C7ZVVO8ZZM","","null","<img src=""img/land1.png"" style=""width:200px; border:14px solid green;"">","null","","","","","","","","","",""
"","image-keyboard-response","164","93628","0.0-164.0","3R6BYFZZP8YA8L2C49CA1DZQIG4FXN","A32HHTM9N6C67R","3ZICQFRS3143WDVXF1P0C7ZVVO8ZZM","","458.1999999284744","img/land2.png","74","459","1","1","2","1","1,0.5,0.5,0.5,1,0.5,0.5,0.5,1","1,0.5,0.5,0.5,1,0.5,0.5,0.5,1","","",""
"","html-keyboard-response","165","93930","0.0-165.0","3R6BYFZZP8YA8L2C49CA1DZQIG4FXN","A32HHTM9N6C67R","3ZICQFRS3143WDVXF1P0C7ZVVO8ZZM","","null","<img src=""img/land2.png"" style=""width:200px; border:14px solid green;"">","null","","","","","","","","","",""
"","image-keyboard-response","166","94021","0.0-166.0","3R6BYFZZP8YA8L2C49CA1DZQIG4FXN","A32HHTM9N6C67R","3ZICQFRS3143WDVXF1P0C7ZVVO8ZZM","","89.89999997615814","img/land3.png","75","90.80000007152557","2","0","3","1","1,0.5,0.5,0.5,1,0.5,0.5,0.5,1","1,0.5,0.5,0.5,1,0.5,0.5,0.5,1","","",""
"","html-keyboard-response","167","94323","0.0-167.0","3R6BYFZZP8YA8L2C49CA1DZQIG4FXN","A32HHTM9N6C67R","3ZICQFRS3143WDVXF1P0C7ZVVO8ZZM","","null","<img src=""img/land3.png"" style=""width:200px;border:14px solid red;"">","null","","","","","","","","","",""
"","image-keyboard-response","168","94814","0.0-168.0","3R6BYFZZP8YA8L2C49CA1DZQIG4FXN","A32HHTM9N6C67R","3ZICQFRS3143WDVXF1P0C7ZVVO8ZZM","","489.60000002384186","img/land2.png","74","490.5","1","1","2","1","1,0.5,0.5,0.5,1,0.5,0.5,0.5,1","1,0.5,0.5,0.5,1,0.5,0.5,0.5,1","","",""
"","html-keyboard-response","169","95116","0.0-169.0","3R6BYFZZP8YA8L2C49CA1DZQIG4FXN","A32HHTM9N6C67R","3ZICQFRS3143WDVXF1P0C7ZVVO8ZZM","","null","<img src=""img/land2.png"" style=""width:200px; border:14px solid green;"">","null","","","","","","","","","",""
"","image-keyboard-response","170","95161","0.0-170.0","3R6BYFZZP8YA8L2C49CA1DZQIG4FXN","A32HHTM9N6C67R","3ZICQFRS3143WDVXF1P0C7ZVVO8ZZM","","44.39999997615814","img/land2.png","74","45.10000002384186","1","1","2","1","1,0.5,0.5,0.5,1,0.5,0.5,0.5,1","1,0.5,0.5,0.5,1,0.5,0.5,0.5,1","","",""
"","html-keyboard-response","171","95463","0.0-171.0","3R6BYFZZP8YA8L2C49CA1DZQIG4FXN","A32HHTM9N6C67R","3ZICQFRS3143WDVXF1P0C7ZVVO8ZZM","","null","<img src=""img/land2.png"" style=""width:200px; border:14px solid green;"">","null","","","","","","","","","",""
"","image-keyboard-response","172","96039","0.0-172.0","3R6BYFZZP8YA8L2C49CA1DZQIG4FXN","A32HHTM9N6C67R","3ZICQFRS3143WDVXF1P0C7ZVVO8ZZM","","575.3000000715256","img/land3.png","75","576","2","1","3","1","1,0.5,0.5,0.5,1,0.5,0.5,0.5,1","1,0.5,0.5,0.5,1,0.5,0.5,0.5,1","","",""
"","html-keyboard-response","173","96342","0.0-173.0","3R6BYFZZP8YA8L2C49CA1DZQIG4FXN","A32HHTM9N6C67R","3ZICQFRS3143WDVXF1P0C7ZVVO8ZZM","","null","<img src=""img/land3.png"" style=""width:200px; border:14px solid green;"">","null","","","","","","","","","",""
"","image-keyboard-response","174","96617","0.0-174.0","3R6BYFZZP8YA8L2C49CA1DZQIG4FXN","A32HHTM9N6C67R","3ZICQFRS3143WDVXF1P0C7ZVVO8ZZM","","274.1999999284744","img/land3.png","75","275.1999999284744","2","1","3","1","1,0.5,0.5,0.5,1,0.5,0.5,0.5,1","1,0.5,0.5,0.5,1,0.5,0.5,0.5,1","","",""
"","html-keyboard-response","175","96920","0.0-175.0","3R6BYFZZP8YA8L2C49CA1DZQIG4FXN","A32HHTM9N6C67R","3ZICQFRS3143WDVXF1P0C7ZVVO8ZZM","","null","<img src=""img/land3.png"" style=""width:200px; border:14px solid green;"">","null","","","","","","","","","",""
"","image-keyboard-response","176","97043","0.0-176.0","3R6BYFZZP8YA8L2C49CA1DZQIG4FXN","A32HHTM9N6C67R","3ZICQFRS3143WDVXF1P0C7ZVVO8ZZM","","121.80000007152557","img/land1.png","74","122.60000002384186","1","1","1","1","1,0.5,0.5,0.5,1,0.5,0.5,0.5,1","1,0.5,0.5,0.5,1,0.5,0.5,0.5,1","","",""
"","html-keyboard-response","177","97359","0.0-177.0","3R6BYFZZP8YA8L2C49CA1DZQIG4FXN","A32HHTM9N6C67R","3ZICQFRS3143WDVXF1P0C7ZVVO8ZZM","","null","<img src=""img/land1.png"" style=""width:200px; border:14px solid green;"">","null","","","","","","","","","",""
"","image-keyboard-response","178","97750","0.0-178.0","3R6BYFZZP8YA8L2C49CA1DZQIG4FXN","A32HHTM9N6C67R","3ZICQFRS3143WDVXF1P0C7ZVVO8ZZM","","389.5","img/land3.png","74","390.2999999523163","1","0","3","1","1,0.5,0.5,0.5,1,0.5,0.5,0.5,1","1,0.5,0.5,0.5,1,0.5,0.5,0.5,1","","",""
"","html-keyboard-response","179","98053","0.0-179.0","3R6BYFZZP8YA8L2C49CA1DZQIG4FXN","A32HHTM9N6C67R","3ZICQFRS3143WDVXF1P0C7ZVVO8ZZM","","null","<img src=""img/land3.png"" style=""width:200px;border:14px solid red;"">","null","","","","","","","","","",""
"","image-keyboard-response","180","98730","0.0-180.0","3R6BYFZZP8YA8L2C49CA1DZQIG4FXN","A32HHTM9N6C67R","3ZICQFRS3143WDVXF1P0C7ZVVO8ZZM","","676.3000000715256","img/land2.png","75","677.2999999523163","2","1","2","1","1,0.5,0.5,0.5,1,0.5,0.5,0.5,1","1,0.5,0.5,0.5,1,0.5,0.5,0.5,1","","",""
"","html-keyboard-response","181","99033","0.0-181.0","3R6BYFZZP8YA8L2C49CA1DZQIG4FXN","A32HHTM9N6C67R","3ZICQFRS3143WDVXF1P0C7ZVVO8ZZM","","null","<img src=""img/land2.png"" style=""width:200px; border:14px solid green;"">","null","","","","","","","","","",""
"","html-keyboard-response","182","100832","0.0-182.0","3R6BYFZZP8YA8L2C49CA1DZQIG4FXN","A32HHTM9N6C67R","3ZICQFRS3143WDVXF1P0C7ZVVO8ZZM","","","","","","","","","","","","","",""
"","image-keyboard-response","183","101459","0.0-183.0","3R6BYFZZP8YA8L2C49CA1DZQIG4FXN","A32HHTM9N6C67R","3ZICQFRS3143WDVXF1P0C7ZVVO8ZZM","","625.5999999046326","img/land6.png","74","626.8000000715256","1","0","3","1","1,0.5,0.5,0.5,1,0.5,0.5,0.5,1","1,0.5,0.5,0.5,1,0.5,0.5,0.5,1","","",""
"","html-keyboard-response","184","101761","0.0-184.0","3R6BYFZZP8YA8L2C49CA1DZQIG4FXN","A32HHTM9N6C67R","3ZICQFRS3143WDVXF1P0C7ZVVO8ZZM","","null","<img src=""img/land6.png"" style=""width:200px;border:14px solid red;"">","null","","","","","","","","","",""
"","image-keyboard-response","185","102012","0.0-185.0","3R6BYFZZP8YA8L2C49CA1DZQIG4FXN","A32HHTM9N6C67R","3ZICQFRS3143WDVXF1P0C7ZVVO8ZZM","","249.80000007152557","img/land6.png","75","250.70000004768372","2","0","3","1","1,0.5,0.5,0.5,1,0.5,0.5,0.5,1","1,0.5,0.5,0.5,1,0.5,0.5,0.5,1","","",""
"","html-keyboard-response","186","102314","0.0-186.0","3R6BYFZZP8YA8L2C49CA1DZQIG4FXN","A32HHTM9N6C67R","3ZICQFRS3143WDVXF1P0C7ZVVO8ZZM","","null","<img src=""img/land6.png"" style=""width:200px;border:14px solid red;"">","null","","","","","","","","","",""
"","image-keyboard-response","187","102359","0.0-187.0","3R6BYFZZP8YA8L2C49CA1DZQIG4FXN","A32HHTM9N6C67R","3ZICQFRS3143WDVXF1P0C7ZVVO8ZZM","","43.700000047683716","img/land6.png","75","44.5","2","1","3","1","1,0.5,0.5,0.5,1,0.5,0.5,0.5,1","1,0.5,0.5,0.5,1,0.5,0.5,0.5,1","","",""
"","html-keyboard-response","188","102661","0.0-188.0","3R6BYFZZP8YA8L2C49CA1DZQIG4FXN","A32HHTM9N6C67R","3ZICQFRS3143WDVXF1P0C7ZVVO8ZZM","","null","<img src=""img/land6.png"" style=""width:200px; border:14px solid green;"">","null","","","","","","","","","",""
"","image-keyboard-response","189","102970","0.0-189.0","3R6BYFZZP8YA8L2C49CA1DZQIG4FXN","A32HHTM9N6C67R","3ZICQFRS3143WDVXF1P0C7ZVVO8ZZM","","308.10000002384186","img/land6.png","75","309","2","0","3","1","1,0.5,0.5,0.5,1,0.5,0.5,0.5,1","1,0.5,0.5,0.5,1,0.5,0.5,0.5,1","","",""
"","html-keyboard-response","190","103272","0.0-190.0","3R6BYFZZP8YA8L2C49CA1DZQIG4FXN","A32HHTM9N6C67R","3ZICQFRS3143WDVXF1P0C7ZVVO8ZZM","","null","<img src=""img/land6.png"" style=""width:200px;border:14px solid red;"">","null","","","","","","","","","",""
"","image-keyboard-response","191","103936","0.0-191.0","3R6BYFZZP8YA8L2C49CA1DZQIG4FXN","A32HHTM9N6C67R","3ZICQFRS3143WDVXF1P0C7ZVVO8ZZM","","662.5","img/land5.png","75","663.3000000715256","2","1","2","1","1,0.5,0.5,0.5,1,0.5,0.5,0.5,1","1,0.5,0.5,0.5,1,0.5,0.5,0.5,1","","",""
"","html-keyboard-response","192","104239","0.0-192.0","3R6BYFZZP8YA8L2C49CA1DZQIG4FXN","A32HHTM9N6C67R","3ZICQFRS3143WDVXF1P0C7ZVVO8ZZM","","null","<img src=""img/land5.png"" style=""width:200px; border:14px solid green;"">","null","","","","","","","","","",""
"","image-keyboard-response","193","104400","0.0-193.0","3R6BYFZZP8YA8L2C49CA1DZQIG4FXN","A32HHTM9N6C67R","3ZICQFRS3143WDVXF1P0C7ZVVO8ZZM","","158.69999992847443","img/land6.png","75","159.80000007152557","2","0","3","1","1,0.5,0.5,0.5,1,0.5,0.5,0.5,1","1,0.5,0.5,0.5,1,0.5,0.5,0.5,1","","",""
"","html-keyboard-response","194","104701","0.0-194.0","3R6BYFZZP8YA8L2C49CA1DZQIG4FXN","A32HHTM9N6C67R","3ZICQFRS3143WDVXF1P0C7ZVVO8ZZM","","null","<img src=""img/land6.png"" style=""width:200px;border:14px solid red;"">","null","","","","","","","","","",""
"","image-keyboard-response","195","104820","0.0-195.0","3R6BYFZZP8YA8L2C49CA1DZQIG4FXN","A32HHTM9N6C67R","3ZICQFRS3143WDVXF1P0C7ZVVO8ZZM","","116.30000007152557","img/land4.png","75","117.30000007152557","2","0","1","1","1,0.5,0.5,0.5,1,0.5,0.5,0.5,1","1,0.5,0.5,0.5,1,0.5,0.5,0.5,1","","",""
"","html-keyboard-response","196","105122","0.0-196.0","3R6BYFZZP8YA8L2C49CA1DZQIG4FXN","A32HHTM9N6C67R","3ZICQFRS3143WDVXF1P0C7ZVVO8ZZM","","null","<img src=""img/land4.png"" style=""width:200px;border:14px solid red;"">","null","","","","","","","","","",""
"","image-keyboard-response","197","105331","0.0-197.0","3R6BYFZZP8YA8L2C49CA1DZQIG4FXN","A32HHTM9N6C67R","3ZICQFRS3143WDVXF1P0C7ZVVO8ZZM","","207.30000007152557","img/land4.png","75","208.10000002384186","2","0","1","1","1,0.5,0.5,0.5,1,0.5,0.5,0.5,1","1,0.5,0.5,0.5,1,0.5,0.5,0.5,1","","",""
"","html-keyboard-response","198","105646","0.0-198.0","3R6BYFZZP8YA8L2C49CA1DZQIG4FXN","A32HHTM9N6C67R","3ZICQFRS3143WDVXF1P0C7ZVVO8ZZM","","null","<img src=""img/land4.png"" style=""width:200px;border:14px solid red;"">","null","","","","","","","","","",""
"","image-keyboard-response","199","105705","0.0-199.0","3R6BYFZZP8YA8L2C49CA1DZQIG4FXN","A32HHTM9N6C67R","3ZICQFRS3143WDVXF1P0C7ZVVO8ZZM","","58.5","img/land5.png","75","59.300000071525574","2","1","2","1","1,0.5,0.5,0.5,1,0.5,0.5,0.5,1","1,0.5,0.5,0.5,1,0.5,0.5,0.5,1","","",""
"","html-keyboard-response","200","106008","0.0-200.0","3R6BYFZZP8YA8L2C49CA1DZQIG4FXN","A32HHTM9N6C67R","3ZICQFRS3143WDVXF1P0C7ZVVO8ZZM","","null","<img src=""img/land5.png"" style=""width:200px; border:14px solid green;"">","null","","","","","","","","","",""
"","image-keyboard-response","201","106329","0.0-201.0","3R6BYFZZP8YA8L2C49CA1DZQIG4FXN","A32HHTM9N6C67R","3ZICQFRS3143WDVXF1P0C7ZVVO8ZZM","","320.5","img/land6.png","74","321.2999999523163","1","0","3","1","1,0.5,0.5,0.5,1,0.5,0.5,0.5,1","1,0.5,0.5,0.5,1,0.5,0.5,0.5,1","","",""
"","html-keyboard-response","202","106631","0.0-202.0","3R6BYFZZP8YA8L2C49CA1DZQIG4FXN","A32HHTM9N6C67R","3ZICQFRS3143WDVXF1P0C7ZVVO8ZZM","","null","<img src=""img/land6.png"" style=""width:200px;border:14px solid red;"">","null","","","","","","","","","",""
"","image-keyboard-response","203","106697","0.0-203.0","3R6BYFZZP8YA8L2C49CA1DZQIG4FXN","A32HHTM9N6C67R","3ZICQFRS3143WDVXF1P0C7ZVVO8ZZM","","63.799999952316284","img/land4.png","75","64.89999997615814","2","0","1","1","1,0.5,0.5,0.5,1,0.5,0.5,0.5,1","1,0.5,0.5,0.5,1,0.5,0.5,0.5,1","","",""
"","html-keyboard-response","204","107002","0.0-204.0","3R6BYFZZP8YA8L2C49CA1DZQIG4FXN","A32HHTM9N6C67R","3ZICQFRS3143WDVXF1P0C7ZVVO8ZZM","","null","<img src=""img/land4.png"" style=""width:200px;border:14px solid red;"">","null","","","","","","","","","",""
"","image-keyboard-response","205","107270","0.0-205.0","3R6BYFZZP8YA8L2C49CA1DZQIG4FXN","A32HHTM9N6C67R","3ZICQFRS3143WDVXF1P0C7ZVVO8ZZM","","266.39999997615814","img/land6.png","75","267.2999999523163","2","0","3","1","1,0.5,0.5,0.5,1,0.5,0.5,0.5,1","1,0.5,0.5,0.5,1,0.5,0.5,0.5,1","","",""
"","html-keyboard-response","206","107572","0.0-206.0","3R6BYFZZP8YA8L2C49CA1DZQIG4FXN","A32HHTM9N6C67R","3ZICQFRS3143WDVXF1P0C7ZVVO8ZZM","","null","<img src=""img/land6.png"" style=""width:200px;border:14px solid red;"">","null","","","","","","","","","",""
"","image-keyboard-response","207","107589","0.0-207.0","3R6BYFZZP8YA8L2C49CA1DZQIG4FXN","A32HHTM9N6C67R","3ZICQFRS3143WDVXF1P0C7ZVVO8ZZM","","16","img/land6.png","74","16.90000009536743","1","1","3","1","1,0.5,0.5,0.5,1,0.5,0.5,0.5,1","1,0.5,0.5,0.5,1,0.5,0.5,0.5,1","","",""
"","html-keyboard-response","208","107891","0.0-208.0","3R6BYFZZP8YA8L2C49CA1DZQIG4FXN","A32HHTM9N6C67R","3ZICQFRS3143WDVXF1P0C7ZVVO8ZZM","","null","<img src=""img/land6.png"" style=""width:200px; border:14px solid green;"">","null","","","","","","","","","",""
"","image-keyboard-response","209","108284","0.0-209.0","3R6BYFZZP8YA8L2C49CA1DZQIG4FXN","A32HHTM9N6C67R","3ZICQFRS3143WDVXF1P0C7ZVVO8ZZM","","392","img/land4.png","74","392.7999999523163","1","1","1","1","1,0.5,0.5,0.5,1,0.5,0.5,0.5,1","1,0.5,0.5,0.5,1,0.5,0.5,0.5,1","","",""
"","html-keyboard-response","210","108587","0.0-210.0","3R6BYFZZP8YA8L2C49CA1DZQIG4FXN","A32HHTM9N6C67R","3ZICQFRS3143WDVXF1P0C7ZVVO8ZZM","","null","<img src=""img/land4.png"" style=""width:200px; border:14px solid green;"">","null","","","","","","","","","",""
"","image-keyboard-response","211","109043","0.0-211.0","3R6BYFZZP8YA8L2C49CA1DZQIG4FXN","A32HHTM9N6C67R","3ZICQFRS3143WDVXF1P0C7ZVVO8ZZM","","453.7999999523163","img/land6.png","74","454.8000000715256","1","1","3","1","1,0.5,0.5,0.5,1,0.5,0.5,0.5,1","1,0.5,0.5,0.5,1,0.5,0.5,0.5,1","","",""
"","html-keyboard-response","212","109344","0.0-212.0","3R6BYFZZP8YA8L2C49CA1DZQIG4FXN","A32HHTM9N6C67R","3ZICQFRS3143WDVXF1P0C7ZVVO8ZZM","","null","<img src=""img/land6.png"" style=""width:200px; border:14px solid green;"">","null","","","","","","","","","",""
"","image-keyboard-response","213","109437","0.0-213.0","3R6BYFZZP8YA8L2C49CA1DZQIG4FXN","A32HHTM9N6C67R","3ZICQFRS3143WDVXF1P0C7ZVVO8ZZM","","92.09999990463257","img/land5.png","74","93","1","1","2","1","1,0.5,0.5,0.5,1,0.5,0.5,0.5,1","1,0.5,0.5,0.5,1,0.5,0.5,0.5,1","","",""
"","html-keyboard-response","214","109739","0.0-214.0","3R6BYFZZP8YA8L2C49CA1DZQIG4FXN","A32HHTM9N6C67R","3ZICQFRS3143WDVXF1P0C7ZVVO8ZZM","","null","<img src=""img/land5.png"" style=""width:200px; border:14px solid green;"">","null","","","","","","","","","",""
"","image-keyboard-response","215","109910","0.0-215.0","3R6BYFZZP8YA8L2C49CA1DZQIG4FXN","A32HHTM9N6C67R","3ZICQFRS3143WDVXF1P0C7ZVVO8ZZM","","169.10000002384186","img/land6.png","74","170","1","1","3","1","1,0.5,0.5,0.5,1,0.5,0.5,0.5,1","1,0.5,0.5,0.5,1,0.5,0.5,0.5,1","","",""
"","html-keyboard-response","216","110212","0.0-216.0","3R6BYFZZP8YA8L2C49CA1DZQIG4FXN","A32HHTM9N6C67R","3ZICQFRS3143WDVXF1P0C7ZVVO8ZZM","","null","<img src=""img/land6.png"" style=""width:200px; border:14px solid green;"">","null","","","","","","","","","",""
"","image-keyboard-response","217","110224","0.0-217.0","3R6BYFZZP8YA8L2C49CA1DZQIG4FXN","A32HHTM9N6C67R","3ZICQFRS3143WDVXF1P0C7ZVVO8ZZM","","10.700000047683716","img/land6.png","75","11.600000023841858","2","1","3","1","1,0.5,0.5,0.5,1,0.5,0.5,0.5,1","1,0.5,0.5,0.5,1,0.5,0.5,0.5,1","","",""
"","html-keyboard-response","218","110525","0.0-218.0","3R6BYFZZP8YA8L2C49CA1DZQIG4FXN","A32HHTM9N6C67R","3ZICQFRS3143WDVXF1P0C7ZVVO8ZZM","","null","<img src=""img/land6.png"" style=""width:200px; border:14px solid green;"">","null","","","","","","","","","",""
"","image-keyboard-response","219","110700","0.0-219.0","3R6BYFZZP8YA8L2C49CA1DZQIG4FXN","A32HHTM9N6C67R","3ZICQFRS3143WDVXF1P0C7ZVVO8ZZM","","173.19999992847443","img/land6.png","74","174.09999990463257","1","0","3","1","1,0.5,0.5,0.5,1,0.5,0.5,0.5,1","1,0.5,0.5,0.5,1,0.5,0.5,0.5,1","","",""
"","html-keyboard-response","220","111001","0.0-220.0","3R6BYFZZP8YA8L2C49CA1DZQIG4FXN","A32HHTM9N6C67R","3ZICQFRS3143WDVXF1P0C7ZVVO8ZZM","","null","<img src=""img/land6.png"" style=""width:200px;border:14px solid red;"">","null","","","","","","","","","",""
"","image-keyboard-response","221","111036","0.0-221.0","3R6BYFZZP8YA8L2C49CA1DZQIG4FXN","A32HHTM9N6C67R","3ZICQFRS3143WDVXF1P0C7ZVVO8ZZM","","32.800000071525574","img/land4.png","75","33.700000047683716","2","0","1","1","1,0.5,0.5,0.5,1,0.5,0.5,0.5,1","1,0.5,0.5,0.5,1,0.5,0.5,0.5,1","","",""
"","html-keyboard-response","222","111338","0.0-222.0","3R6BYFZZP8YA8L2C49CA1DZQIG4FXN","A32HHTM9N6C67R","3ZICQFRS3143WDVXF1P0C7ZVVO8ZZM","","null","<img src=""img/land4.png"" style=""width:200px;border:14px solid red;"">","null","","","","","","","","","",""
"","image-keyboard-response","223","111560","0.0-223.0","3R6BYFZZP8YA8L2C49CA1DZQIG4FXN","A32HHTM9N6C67R","3ZICQFRS3143WDVXF1P0C7ZVVO8ZZM","","221.70000004768372","img/land4.png","74","222.5","1","1","1","1","1,0.5,0.5,0.5,1,0.5,0.5,0.5,1","1,0.5,0.5,0.5,1,0.5,0.5,0.5,1","","",""
"","html-keyboard-response","224","111863","0.0-224.0","3R6BYFZZP8YA8L2C49CA1DZQIG4FXN","A32HHTM9N6C67R","3ZICQFRS3143WDVXF1P0C7ZVVO8ZZM","","null","<img src=""img/land4.png"" style=""width:200px; border:14px solid green;"">","null","","","","","","","","","",""
"","image-keyboard-response","225","111957","0.0-225.0","3R6BYFZZP8YA8L2C49CA1DZQIG4FXN","A32HHTM9N6C67R","3ZICQFRS3143WDVXF1P0C7ZVVO8ZZM","","92.60000002384186","img/land6.png","74","93.5","1","0","3","1","1,0.5,0.5,0.5,1,0.5,0.5,0.5,1","1,0.5,0.5,0.5,1,0.5,0.5,0.5,1","","",""
"","html-keyboard-response","226","112260","0.0-226.0","3R6BYFZZP8YA8L2C49CA1DZQIG4FXN","A32HHTM9N6C67R","3ZICQFRS3143WDVXF1P0C7ZVVO8ZZM","","null","<img src=""img/land6.png"" style=""width:200px;border:14px solid red;"">","null","","","","","","","","","",""
"","image-keyboard-response","227","112360","0.0-227.0","3R6BYFZZP8YA8L2C49CA1DZQIG4FXN","A32HHTM9N6C67R","3ZICQFRS3143WDVXF1P0C7ZVVO8ZZM","","99.60000002384186","img/land6.png","74","100.29999995231628","1","0","3","1","1,0.5,0.5,0.5,1,0.5,0.5,0.5,1","1,0.5,0.5,0.5,1,0.5,0.5,0.5,1","","",""
"","html-keyboard-response","228","112662","0.0-228.0","3R6BYFZZP8YA8L2C49CA1DZQIG4FXN","A32HHTM9N6C67R","3ZICQFRS3143WDVXF1P0C7ZVVO8ZZM","","null","<img src=""img/land6.png"" style=""width:200px;border:14px solid red;"">","null","","","","","","","","","",""
"","image-keyboard-response","229","112716","0.0-229.0","3R6BYFZZP8YA8L2C49CA1DZQIG4FXN","A32HHTM9N6C67R","3ZICQFRS3143WDVXF1P0C7ZVVO8ZZM","","52.89999997615814","img/land4.png","74","53.699999928474426","1","1","1","1","1,0.5,0.5,0.5,1,0.5,0.5,0.5,1","1,0.5,0.5,0.5,1,0.5,0.5,0.5,1","","",""
"","html-keyboard-response","230","113018","0.0-230.0","3R6BYFZZP8YA8L2C49CA1DZQIG4FXN","A32HHTM9N6C67R","3ZICQFRS3143WDVXF1P0C7ZVVO8ZZM","","null","<img src=""img/land4.png"" style=""width:200px; border:14px solid green;"">","null","","","","","","","","","",""
"","image-keyboard-response","231","113161","0.0-231.0","3R6BYFZZP8YA8L2C49CA1DZQIG4FXN","A32HHTM9N6C67R","3ZICQFRS3143WDVXF1P0C7ZVVO8ZZM","","141.10000002384186","img/land6.png","74","142","1","1","3","1","1,0.5,0.5,0.5,1,0.5,0.5,0.5,1","1,0.5,0.5,0.5,1,0.5,0.5,0.5,1","","",""
"","html-keyboard-response","232","113463","0.0-232.0","3R6BYFZZP8YA8L2C49CA1DZQIG4FXN","A32HHTM9N6C67R","3ZICQFRS3143WDVXF1P0C7ZVVO8ZZM","","null","<img src=""img/land6.png"" style=""width:200px; border:14px solid green;"">","null","","","","","","","","","",""
"","image-keyboard-response","233","113490","0.0-233.0","3R6BYFZZP8YA8L2C49CA1DZQIG4FXN","A32HHTM9N6C67R","3ZICQFRS3143WDVXF1P0C7ZVVO8ZZM","","25.399999976158142","img/land4.png","74","26.100000023841858","1","1","1","1","1,0.5,0.5,0.5,1,0.5,0.5,0.5,1","1,0.5,0.5,0.5,1,0.5,0.5,0.5,1","","",""
"","html-keyboard-response","234","113791","0.0-234.0","3R6BYFZZP8YA8L2C49CA1DZQIG4FXN","A32HHTM9N6C67R","3ZICQFRS3143WDVXF1P0C7ZVVO8ZZM","","null","<img src=""img/land4.png"" style=""width:200px; border:14px solid green;"">","null","","","","","","","","","",""
"","image-keyboard-response","235","113921","0.0-235.0","3R6BYFZZP8YA8L2C49CA1DZQIG4FXN","A32HHTM9N6C67R","3ZICQFRS3143WDVXF1P0C7ZVVO8ZZM","","128.5","img/land5.png","74","129.39999997615814","1","0","2","1","1,0.5,0.5,0.5,1,0.5,0.5,0.5,1","1,0.5,0.5,0.5,1,0.5,0.5,0.5,1","","",""
"","html-keyboard-response","236","114223","0.0-236.0","3R6BYFZZP8YA8L2C49CA1DZQIG4FXN","A32HHTM9N6C67R","3ZICQFRS3143WDVXF1P0C7ZVVO8ZZM","","null","<img src=""img/land5.png"" style=""width:200px;border:14px solid red;"">","null","","","","","","","","","",""
"","image-keyboard-response","237","115150","0.0-237.0","3R6BYFZZP8YA8L2C49CA1DZQIG4FXN","A32HHTM9N6C67R","3ZICQFRS3143WDVXF1P0C7ZVVO8ZZM","","925.6000000238419","img/land5.png","75","926.6000000238419","2","1","2","1","1,0.5,0.5,0.5,1,0.5,0.5,0.5,1","1,0.5,0.5,0.5,1,0.5,0.5,0.5,1","","",""
"","html-keyboard-response","238","115452","0.0-238.0","3R6BYFZZP8YA8L2C49CA1DZQIG4FXN","A32HHTM9N6C67R","3ZICQFRS3143WDVXF1P0C7ZVVO8ZZM","","null","<img src=""img/land5.png"" style=""width:200px; border:14px solid green;"">","null","","","","","","","","","",""
"","image-keyboard-response","239","115862","0.0-239.0","3R6BYFZZP8YA8L2C49CA1DZQIG4FXN","A32HHTM9N6C67R","3ZICQFRS3143WDVXF1P0C7ZVVO8ZZM","","409.10000002384186","img/land4.png","74","410","1","1","1","1","1,0.5,0.5,0.5,1,0.5,0.5,0.5,1","1,0.5,0.5,0.5,1,0.5,0.5,0.5,1","","",""
"","html-keyboard-response","240","116164","0.0-240.0","3R6BYFZZP8YA8L2C49CA1DZQIG4FXN","A32HHTM9N6C67R","3ZICQFRS3143WDVXF1P0C7ZVVO8ZZM","","null","<img src=""img/land4.png"" style=""width:200px; border:14px solid green;"">","null","","","","","","","","","",""
"","image-keyboard-response","241","116384","0.0-241.0","3R6BYFZZP8YA8L2C49CA1DZQIG4FXN","A32HHTM9N6C67R","3ZICQFRS3143WDVXF1P0C7ZVVO8ZZM","","218.29999995231628","img/land4.png","74","219","1","1","1","1","1,0.5,0.5,0.5,1,0.5,0.5,0.5,1","1,0.5,0.5,0.5,1,0.5,0.5,0.5,1","","",""
"","html-keyboard-response","242","116686","0.0-242.0","3R6BYFZZP8YA8L2C49CA1DZQIG4FXN","A32HHTM9N6C67R","3ZICQFRS3143WDVXF1P0C7ZVVO8ZZM","","null","<img src=""img/land4.png"" style=""width:200px; border:14px solid green;"">","null","","","","","","","","","",""
"","image-keyboard-response","243","117153","0.0-243.0","3R6BYFZZP8YA8L2C49CA1DZQIG4FXN","A32HHTM9N6C67R","3ZICQFRS3143WDVXF1P0C7ZVVO8ZZM","","465.60000002384186","img/land6.png","74","466.6999999284744","1","0","3","1","1,0.5,0.5,0.5,1,0.5,0.5,0.5,1","1,0.5,0.5,0.5,1,0.5,0.5,0.5,1","","",""
"","html-keyboard-response","244","117455","0.0-244.0","3R6BYFZZP8YA8L2C49CA1DZQIG4FXN","A32HHTM9N6C67R","3ZICQFRS3143WDVXF1P0C7ZVVO8ZZM","","null","<img src=""img/land6.png"" style=""width:200px;border:14px solid red;"">","null","","","","","","","","","",""
"","image-keyboard-response","245","117670","0.0-245.0","3R6BYFZZP8YA8L2C49CA1DZQIG4FXN","A32HHTM9N6C67R","3ZICQFRS3143WDVXF1P0C7ZVVO8ZZM","","213.29999995231628","img/land4.png","75","214.20000004768372","2","1","1","1","1,0.5,0.5,0.5,1,0.5,0.5,0.5,1","1,0.5,0.5,0.5,1,0.5,0.5,0.5,1","","",""
"","html-keyboard-response","246","117972","0.0-246.0","3R6BYFZZP8YA8L2C49CA1DZQIG4FXN","A32HHTM9N6C67R","3ZICQFRS3143WDVXF1P0C7ZVVO8ZZM","","null","<img src=""img/land4.png"" style=""width:200px; border:14px solid green;"">","null","","","","","","","","","",""
"","image-keyboard-response","247","118270","0.0-247.0","3R6BYFZZP8YA8L2C49CA1DZQIG4FXN","A32HHTM9N6C67R","3ZICQFRS3143WDVXF1P0C7ZVVO8ZZM","","296.7000000476837","img/land5.png","74","297.60000002384186","1","1","2","1","1,0.5,0.5,0.5,1,0.5,0.5,0.5,1","1,0.5,0.5,0.5,1,0.5,0.5,0.5,1","","",""
"","html-keyboard-response","248","118571","0.0-248.0","3R6BYFZZP8YA8L2C49CA1DZQIG4FXN","A32HHTM9N6C67R","3ZICQFRS3143WDVXF1P0C7ZVVO8ZZM","","null","<img src=""img/land5.png"" style=""width:200px; border:14px solid green;"">","null","","","","","","","","","",""
"","image-keyboard-response","249","118777","0.0-249.0","3R6BYFZZP8YA8L2C49CA1DZQIG4FXN","A32HHTM9N6C67R","3ZICQFRS3143WDVXF1P0C7ZVVO8ZZM","","204.20000004768372","img/land5.png","75","205","2","1","2","1","1,0.5,0.5,0.5,1,0.5,0.5,0.5,1","1,0.5,0.5,0.5,1,0.5,0.5,0.5,1","","",""
"","html-keyboard-response","250","119079","0.0-250.0","3R6BYFZZP8YA8L2C49CA1DZQIG4FXN","A32HHTM9N6C67R","3ZICQFRS3143WDVXF1P0C7ZVVO8ZZM","","null","<img src=""img/land5.png"" style=""width:200px; border:14px solid green;"">","null","","","","","","","","","",""
"","image-keyboard-response","251","119499","0.0-251.0","3R6BYFZZP8YA8L2C49CA1DZQIG4FXN","A32HHTM9N6C67R","3ZICQFRS3143WDVXF1P0C7ZVVO8ZZM","","418.5","img/land6.png","74","419.2999999523163","1","1","3","1","1,0.5,0.5,0.5,1,0.5,0.5,0.5,1","1,0.5,0.5,0.5,1,0.5,0.5,0.5,1","","",""
"","html-keyboard-response","252","119801","0.0-252.0","3R6BYFZZP8YA8L2C49CA1DZQIG4FXN","A32HHTM9N6C67R","3ZICQFRS3143WDVXF1P0C7ZVVO8ZZM","","null","<img src=""img/land6.png"" style=""width:200px; border:14px solid green;"">","null","","","","","","","","","",""
"","image-keyboard-response","253","120341","0.0-253.0","3R6BYFZZP8YA8L2C49CA1DZQIG4FXN","A32HHTM9N6C67R","3ZICQFRS3143WDVXF1P0C7ZVVO8ZZM","","538.6999999284744","img/land4.png","74","539.3999999761581","1","1","1","1","1,0.5,0.5,0.5,1,0.5,0.5,0.5,1","1,0.5,0.5,0.5,1,0.5,0.5,0.5,1","","",""
"","html-keyboard-response","254","120644","0.0-254.0","3R6BYFZZP8YA8L2C49CA1DZQIG4FXN","A32HHTM9N6C67R","3ZICQFRS3143WDVXF1P0C7ZVVO8ZZM","","null","<img src=""img/land4.png"" style=""width:200px; border:14px solid green;"">","null","","","","","","","","","",""
"","image-keyboard-response","255","120667","0.0-255.0","3R6BYFZZP8YA8L2C49CA1DZQIG4FXN","A32HHTM9N6C67R","3ZICQFRS3143WDVXF1P0C7ZVVO8ZZM","","20.600000023841858","img/land5.png","75","22.299999952316284","2","1","2","1","1,0.5,0.5,0.5,1,0.5,0.5,0.5,1","1,0.5,0.5,0.5,1,0.5,0.5,0.5,1","","",""
"","html-keyboard-response","256","120970","0.0-256.0","3R6BYFZZP8YA8L2C49CA1DZQIG4FXN","A32HHTM9N6C67R","3ZICQFRS3143WDVXF1P0C7ZVVO8ZZM","","null","<img src=""img/land5.png"" style=""width:200px; border:14px solid green;"">","null","","","","","","","","","",""
"","image-keyboard-response","257","121120","0.0-257.0","3R6BYFZZP8YA8L2C49CA1DZQIG4FXN","A32HHTM9N6C67R","3ZICQFRS3143WDVXF1P0C7ZVVO8ZZM","","148.39999997615814","img/land6.png","75","149.29999995231628","2","0","3","1","1,0.5,0.5,0.5,1,0.5,0.5,0.5,1","1,0.5,0.5,0.5,1,0.5,0.5,0.5,1","","",""
"","html-keyboard-response","258","121421","0.0-258.0","3R6BYFZZP8YA8L2C49CA1DZQIG4FXN","A32HHTM9N6C67R","3ZICQFRS3143WDVXF1P0C7ZVVO8ZZM","","null","<img src=""img/land6.png"" style=""width:200px;border:14px solid red;"">","null","","","","","","","","","",""
"","image-keyboard-response","259","121575","0.0-259.0","3R6BYFZZP8YA8L2C49CA1DZQIG4FXN","A32HHTM9N6C67R","3ZICQFRS3143WDVXF1P0C7ZVVO8ZZM","","152.89999997615814","img/land6.png","75","153.70000004768372","2","0","3","1","1,0.5,0.5,0.5,1,0.5,0.5,0.5,1","1,0.5,0.5,0.5,1,0.5,0.5,0.5,1","","",""
"","html-keyboard-response","260","121878","0.0-260.0","3R6BYFZZP8YA8L2C49CA1DZQIG4FXN","A32HHTM9N6C67R","3ZICQFRS3143WDVXF1P0C7ZVVO8ZZM","","null","<img src=""img/land6.png"" style=""width:200px;border:14px solid red;"">","null","","","","","","","","","",""
"","image-keyboard-response","261","122068","0.0-261.0","3R6BYFZZP8YA8L2C49CA1DZQIG4FXN","A32HHTM9N6C67R","3ZICQFRS3143WDVXF1P0C7ZVVO8ZZM","","189.69999992847443","img/land6.png","74","190.39999997615814","1","1","3","1","1,0.5,0.5,0.5,1,0.5,0.5,0.5,1","1,0.5,0.5,0.5,1,0.5,0.5,0.5,1","","",""
"","html-keyboard-response","262","122371","0.0-262.0","3R6BYFZZP8YA8L2C49CA1DZQIG4FXN","A32HHTM9N6C67R","3ZICQFRS3143WDVXF1P0C7ZVVO8ZZM","","null","<img src=""img/land6.png"" style=""width:200px; border:14px solid green;"">","null","","","","","","","","","",""
"","image-keyboard-response","263","122607","0.0-263.0","3R6BYFZZP8YA8L2C49CA1DZQIG4FXN","A32HHTM9N6C67R","3ZICQFRS3143WDVXF1P0C7ZVVO8ZZM","","234.79999995231628","img/land5.png","74","235.60000002384186","1","0","2","1","1,0.5,0.5,0.5,1,0.5,0.5,0.5,1","1,0.5,0.5,0.5,1,0.5,0.5,0.5,1","","",""
"","html-keyboard-response","264","122910","0.0-264.0","3R6BYFZZP8YA8L2C49CA1DZQIG4FXN","A32HHTM9N6C67R","3ZICQFRS3143WDVXF1P0C7ZVVO8ZZM","","null","<img src=""img/land5.png"" style=""width:200px;border:14px solid red;"">","null","","","","","","","","","",""
"","image-keyboard-response","265","123217","0.0-265.0","3R6BYFZZP8YA8L2C49CA1DZQIG4FXN","A32HHTM9N6C67R","3ZICQFRS3143WDVXF1P0C7ZVVO8ZZM","","305.5","img/land6.png","74","306.2999999523163","1","1","3","1","1,0.5,0.5,0.5,1,0.5,0.5,0.5,1","1,0.5,0.5,0.5,1,0.5,0.5,0.5,1","","",""
"","html-keyboard-response","266","123519","0.0-266.0","3R6BYFZZP8YA8L2C49CA1DZQIG4FXN","A32HHTM9N6C67R","3ZICQFRS3143WDVXF1P0C7ZVVO8ZZM","","null","<img src=""img/land6.png"" style=""width:200px; border:14px solid green;"">","null","","","","","","","","","",""
"","image-keyboard-response","267","123750","0.0-267.0","3R6BYFZZP8YA8L2C49CA1DZQIG4FXN","A32HHTM9N6C67R","3ZICQFRS3143WDVXF1P0C7ZVVO8ZZM","","230","img/land4.png","74","230.69999992847443","1","1","1","1","1,0.5,0.5,0.5,1,0.5,0.5,0.5,1","1,0.5,0.5,0.5,1,0.5,0.5,0.5,1","","",""
"","html-keyboard-response","268","124052","0.0-268.0","3R6BYFZZP8YA8L2C49CA1DZQIG4FXN","A32HHTM9N6C67R","3ZICQFRS3143WDVXF1P0C7ZVVO8ZZM","","null","<img src=""img/land4.png"" style=""width:200px; border:14px solid green;"">","null","","","","","","","","","",""
"","image-keyboard-response","269","124284","0.0-269.0","3R6BYFZZP8YA8L2C49CA1DZQIG4FXN","A32HHTM9N6C67R","3ZICQFRS3143WDVXF1P0C7ZVVO8ZZM","","231.30000007152557","img/land6.png","74","232.30000007152557","1","1","3","1","1,0.5,0.5,0.5,1,0.5,0.5,0.5,1","1,0.5,0.5,0.5,1,0.5,0.5,0.5,1","","",""
"","html-keyboard-response","270","124593","0.0-270.0","3R6BYFZZP8YA8L2C49CA1DZQIG4FXN","A32HHTM9N6C67R","3ZICQFRS3143WDVXF1P0C7ZVVO8ZZM","","null","<img src=""img/land6.png"" style=""width:200px; border:14px solid green;"">","null","","","","","","","","","",""
"","image-keyboard-response","271","124868","0.0-271.0","3R6BYFZZP8YA8L2C49CA1DZQIG4FXN","A32HHTM9N6C67R","3ZICQFRS3143WDVXF1P0C7ZVVO8ZZM","","272.89999997615814","img/land6.png","74","273.89999997615814","1","0","3","1","1,0.5,0.5,0.5,1,0.5,0.5,0.5,1","1,0.5,0.5,0.5,1,0.5,0.5,0.5,1","","",""
"","html-keyboard-response","272","125170","0.0-272.0","3R6BYFZZP8YA8L2C49CA1DZQIG4FXN","A32HHTM9N6C67R","3ZICQFRS3143WDVXF1P0C7ZVVO8ZZM","","null","<img src=""img/land6.png"" style=""width:200px;border:14px solid red;"">","null","","","","","","","","","",""
"","image-keyboard-response","273","125411","0.0-273.0","3R6BYFZZP8YA8L2C49CA1DZQIG4FXN","A32HHTM9N6C67R","3ZICQFRS3143WDVXF1P0C7ZVVO8ZZM","","240.39999997615814","img/land5.png","74","241.79999995231628","1","1","2","1","1,0.5,0.5,0.5,1,0.5,0.5,0.5,1","1,0.5,0.5,0.5,1,0.5,0.5,0.5,1","","",""
"","html-keyboard-response","274","125714","0.0-274.0","3R6BYFZZP8YA8L2C49CA1DZQIG4FXN","A32HHTM9N6C67R","3ZICQFRS3143WDVXF1P0C7ZVVO8ZZM","","null","<img src=""img/land5.png"" style=""width:200px; border:14px solid green;"">","null","","","","","","","","","",""
"","image-keyboard-response","275","125952","0.0-275.0","3R6BYFZZP8YA8L2C49CA1DZQIG4FXN","A32HHTM9N6C67R","3ZICQFRS3143WDVXF1P0C7ZVVO8ZZM","","236.40000009536743","img/land6.png","74","237.20000004768372","1","0","3","1","1,0.5,0.5,0.5,1,0.5,0.5,0.5,1","1,0.5,0.5,0.5,1,0.5,0.5,0.5,1","","",""
"","html-keyboard-response","276","126255","0.0-276.0","3R6BYFZZP8YA8L2C49CA1DZQIG4FXN","A32HHTM9N6C67R","3ZICQFRS3143WDVXF1P0C7ZVVO8ZZM","","null","<img src=""img/land6.png"" style=""width:200px;border:14px solid red;"">","null","","","","","","","","","",""
"","image-keyboard-response","277","126541","0.0-277.0","3R6BYFZZP8YA8L2C49CA1DZQIG4FXN","A32HHTM9N6C67R","3ZICQFRS3143WDVXF1P0C7ZVVO8ZZM","","285.2999999523163","img/land6.png","75","286.10000002384186","2","0","3","1","1,0.5,0.5,0.5,1,0.5,0.5,0.5,1","1,0.5,0.5,0.5,1,0.5,0.5,0.5,1","","",""
"","html-keyboard-response","278","126844","0.0-278.0","3R6BYFZZP8YA8L2C49CA1DZQIG4FXN","A32HHTM9N6C67R","3ZICQFRS3143WDVXF1P0C7ZVVO8ZZM","","null","<img src=""img/land6.png"" style=""width:200px;border:14px solid red;"">","null","","","","","","","","","",""
"","image-keyboard-response","279","126911","0.0-279.0","3R6BYFZZP8YA8L2C49CA1DZQIG4FXN","A32HHTM9N6C67R","3ZICQFRS3143WDVXF1P0C7ZVVO8ZZM","","65.29999995231628","img/land6.png","74","66.39999997615814","1","0","3","1","1,0.5,0.5,0.5,1,0.5,0.5,0.5,1","1,0.5,0.5,0.5,1,0.5,0.5,0.5,1","","",""
"","html-keyboard-response","280","127213","0.0-280.0","3R6BYFZZP8YA8L2C49CA1DZQIG4FXN","A32HHTM9N6C67R","3ZICQFRS3143WDVXF1P0C7ZVVO8ZZM","","null","<img src=""img/land6.png"" style=""width:200px;border:14px solid red;"">","null","","","","","","","","","",""
"","image-keyboard-response","281","127434","0.0-281.0","3R6BYFZZP8YA8L2C49CA1DZQIG4FXN","A32HHTM9N6C67R","3ZICQFRS3143WDVXF1P0C7ZVVO8ZZM","","220.20000004768372","img/land6.png","75","221.40000009536743","2","0","3","1","1,0.5,0.5,0.5,1,0.5,0.5,0.5,1","1,0.5,0.5,0.5,1,0.5,0.5,0.5,1","","",""
"","html-keyboard-response","282","127737","0.0-282.0","3R6BYFZZP8YA8L2C49CA1DZQIG4FXN","A32HHTM9N6C67R","3ZICQFRS3143WDVXF1P0C7ZVVO8ZZM","","null","<img src=""img/land6.png"" style=""width:200px;border:14px solid red;"">","null","","","","","","","","","",""
"","image-keyboard-response","283","127787","0.0-283.0","3R6BYFZZP8YA8L2C49CA1DZQIG4FXN","A32HHTM9N6C67R","3ZICQFRS3143WDVXF1P0C7ZVVO8ZZM","","49.10000002384186","img/land6.png","74","50.10000002384186","1","0","3","1","1,0.5,0.5,0.5,1,0.5,0.5,0.5,1","1,0.5,0.5,0.5,1,0.5,0.5,0.5,1","","",""
"","html-keyboard-response","284","128089","0.0-284.0","3R6BYFZZP8YA8L2C49CA1DZQIG4FXN","A32HHTM9N6C67R","3ZICQFRS3143WDVXF1P0C7ZVVO8ZZM","","null","<img src=""img/land6.png"" style=""width:200px;border:14px solid red;"">","null","","","","","","","","","",""
"","image-keyboard-response","285","128556","0.0-285.0","3R6BYFZZP8YA8L2C49CA1DZQIG4FXN","A32HHTM9N6C67R","3ZICQFRS3143WDVXF1P0C7ZVVO8ZZM","","464.5","img/land5.png","75","465.7999999523163","2","1","2","1","1,0.5,0.5,0.5,1,0.5,0.5,0.5,1","1,0.5,0.5,0.5,1,0.5,0.5,0.5,1","","",""
"","html-keyboard-response","286","128858","0.0-286.0","3R6BYFZZP8YA8L2C49CA1DZQIG4FXN","A32HHTM9N6C67R","3ZICQFRS3143WDVXF1P0C7ZVVO8ZZM","","null","<img src=""img/land5.png"" style=""width:200px; border:14px solid green;"">","null","","","","","","","","","",""
"","image-keyboard-response","287","129183","0.0-287.0","3R6BYFZZP8YA8L2C49CA1DZQIG4FXN","A32HHTM9N6C67R","3ZICQFRS3143WDVXF1P0C7ZVVO8ZZM","","323.7999999523163","img/land6.png","74","324.89999997615814","1","1","3","1","1,0.5,0.5,0.5,1,0.5,0.5,0.5,1","1,0.5,0.5,0.5,1,0.5,0.5,0.5,1","","",""
"","html-keyboard-response","288","129485","0.0-288.0","3R6BYFZZP8YA8L2C49CA1DZQIG4FXN","A32HHTM9N6C67R","3ZICQFRS3143WDVXF1P0C7ZVVO8ZZM","","null","<img src=""img/land6.png"" style=""width:200px; border:14px solid green;"">","null","","","","","","","","","",""
"","image-keyboard-response","289","130197","0.0-289.0","3R6BYFZZP8YA8L2C49CA1DZQIG4FXN","A32HHTM9N6C67R","3ZICQFRS3143WDVXF1P0C7ZVVO8ZZM","","709.8999999761581","img/land6.png","74","710.8000000715256","1","0","3","1","1,0.5,0.5,0.5,1,0.5,0.5,0.5,1","1,0.5,0.5,0.5,1,0.5,0.5,0.5,1","","",""
"","html-keyboard-response","290","130499","0.0-290.0","3R6BYFZZP8YA8L2C49CA1DZQIG4FXN","A32HHTM9N6C67R","3ZICQFRS3143WDVXF1P0C7ZVVO8ZZM","","null","<img src=""img/land6.png"" style=""width:200px;border:14px solid red;"">","null","","","","","","","","","",""
"","image-keyboard-response","291","130566","0.0-291.0","3R6BYFZZP8YA8L2C49CA1DZQIG4FXN","A32HHTM9N6C67R","3ZICQFRS3143WDVXF1P0C7ZVVO8ZZM","","64.29999995231628","img/land4.png","75","66.10000002384186","2","1","1","1","1,0.5,0.5,0.5,1,0.5,0.5,0.5,1","1,0.5,0.5,0.5,1,0.5,0.5,0.5,1","","",""
"","html-keyboard-response","292","130868","0.0-292.0","3R6BYFZZP8YA8L2C49CA1DZQIG4FXN","A32HHTM9N6C67R","3ZICQFRS3143WDVXF1P0C7ZVVO8ZZM","","null","<img src=""img/land4.png"" style=""width:200px; border:14px solid green;"">","null","","","","","","","","","",""
"","image-keyboard-response","293","131187","0.0-293.0","3R6BYFZZP8YA8L2C49CA1DZQIG4FXN","A32HHTM9N6C67R","3ZICQFRS3143WDVXF1P0C7ZVVO8ZZM","","317.7000000476837","img/land5.png","75","318.89999997615814","2","1","2","1","1,0.5,0.5,0.5,1,0.5,0.5,0.5,1","1,0.5,0.5,0.5,1,0.5,0.5,0.5,1","","",""
"","html-keyboard-response","294","131489","0.0-294.0","3R6BYFZZP8YA8L2C49CA1DZQIG4FXN","A32HHTM9N6C67R","3ZICQFRS3143WDVXF1P0C7ZVVO8ZZM","","null","<img src=""img/land5.png"" style=""width:200px; border:14px solid green;"">","null","","","","","","","","","",""
"","image-keyboard-response","295","131637","0.0-295.0","3R6BYFZZP8YA8L2C49CA1DZQIG4FXN","A32HHTM9N6C67R","3ZICQFRS3143WDVXF1P0C7ZVVO8ZZM","","146.10000002384186","img/land6.png","75","147","2","1","3","1","1,0.5,0.5,0.5,1,0.5,0.5,0.5,1","1,0.5,0.5,0.5,1,0.5,0.5,0.5,1","","",""
"","html-keyboard-response","296","131939","0.0-296.0","3R6BYFZZP8YA8L2C49CA1DZQIG4FXN","A32HHTM9N6C67R","3ZICQFRS3143WDVXF1P0C7ZVVO8ZZM","","null","<img src=""img/land6.png"" style=""width:200px; border:14px solid green;"">","null","","","","","","","","","",""
"","image-keyboard-response","297","132267","0.0-297.0","3R6BYFZZP8YA8L2C49CA1DZQIG4FXN","A32HHTM9N6C67R","3ZICQFRS3143WDVXF1P0C7ZVVO8ZZM","","326.3000000715256","img/land6.png","75","327.10000002384186","2","1","3","1","1,0.5,0.5,0.5,1,0.5,0.5,0.5,1","1,0.5,0.5,0.5,1,0.5,0.5,0.5,1","","",""
"","html-keyboard-response","298","132569","0.0-298.0","3R6BYFZZP8YA8L2C49CA1DZQIG4FXN","A32HHTM9N6C67R","3ZICQFRS3143WDVXF1P0C7ZVVO8ZZM","","null","<img src=""img/land6.png"" style=""width:200px; border:14px solid green;"">","null","","","","","","","","","",""
"","image-keyboard-response","299","132985","0.0-299.0","3R6BYFZZP8YA8L2C49CA1DZQIG4FXN","A32HHTM9N6C67R","3ZICQFRS3143WDVXF1P0C7ZVVO8ZZM","","414.90000009536743","img/land6.png","75","416","2","0","3","1","1,0.5,0.5,0.5,1,0.5,0.5,0.5,1","1,0.5,0.5,0.5,1,0.5,0.5,0.5,1","","",""
"","html-keyboard-response","300","133287","0.0-300.0","3R6BYFZZP8YA8L2C49CA1DZQIG4FXN","A32HHTM9N6C67R","3ZICQFRS3143WDVXF1P0C7ZVVO8ZZM","","null","<img src=""img/land6.png"" style=""width:200px;border:14px solid red;"">","null","","","","","","","","","",""
"","image-keyboard-response","301","133535","0.0-301.0","3R6BYFZZP8YA8L2C49CA1DZQIG4FXN","A32HHTM9N6C67R","3ZICQFRS3143WDVXF1P0C7ZVVO8ZZM","","246","img/land6.png","74","246.79999995231628","1","1","3","1","1,0.5,0.5,0.5,1,0.5,0.5,0.5,1","1,0.5,0.5,0.5,1,0.5,0.5,0.5,1","","",""
"","html-keyboard-response","302","133838","0.0-302.0","3R6BYFZZP8YA8L2C49CA1DZQIG4FXN","A32HHTM9N6C67R","3ZICQFRS3143WDVXF1P0C7ZVVO8ZZM","","null","<img src=""img/land6.png"" style=""width:200px; border:14px solid green;"">","null","","","","","","","","","",""
"","image-keyboard-response","303","134317","0.0-303.0","3R6BYFZZP8YA8L2C49CA1DZQIG4FXN","A32HHTM9N6C67R","3ZICQFRS3143WDVXF1P0C7ZVVO8ZZM","","477.90000009536743","img/land6.png","75","478.7000000476837","2","0","3","1","1,0.5,0.5,0.5,1,0.5,0.5,0.5,1","1,0.5,0.5,0.5,1,0.5,0.5,0.5,1","","",""
"","html-keyboard-response","304","134619","0.0-304.0","3R6BYFZZP8YA8L2C49CA1DZQIG4FXN","A32HHTM9N6C67R","3ZICQFRS3143WDVXF1P0C7ZVVO8ZZM","","null","<img src=""img/land6.png"" style=""width:200px;border:14px solid red;"">","null","","","","","","","","","",""
"","image-keyboard-response","305","134920","0.0-305.0","3R6BYFZZP8YA8L2C49CA1DZQIG4FXN","A32HHTM9N6C67R","3ZICQFRS3143WDVXF1P0C7ZVVO8ZZM","","300","img/land6.png","75","300.89999997615814","2","0","3","1","1,0.5,0.5,0.5,1,0.5,0.5,0.5,1","1,0.5,0.5,0.5,1,0.5,0.5,0.5,1","","",""
"","html-keyboard-response","306","135222","0.0-306.0","3R6BYFZZP8YA8L2C49CA1DZQIG4FXN","A32HHTM9N6C67R","3ZICQFRS3143WDVXF1P0C7ZVVO8ZZM","","null","<img src=""img/land6.png"" style=""width:200px;border:14px solid red;"">","null","","","","","","","","","",""
"","image-keyboard-response","307","135249","0.0-307.0","3R6BYFZZP8YA8L2C49CA1DZQIG4FXN","A32HHTM9N6C67R","3ZICQFRS3143WDVXF1P0C7ZVVO8ZZM","","25.799999952316284","img/land6.png","74","26.600000023841858","1","0","3","1","1,0.5,0.5,0.5,1,0.5,0.5,0.5,1","1,0.5,0.5,0.5,1,0.5,0.5,0.5,1","","",""
"","html-keyboard-response","308","135551","0.0-308.0","3R6BYFZZP8YA8L2C49CA1DZQIG4FXN","A32HHTM9N6C67R","3ZICQFRS3143WDVXF1P0C7ZVVO8ZZM","","null","<img src=""img/land6.png"" style=""width:200px;border:14px solid red;"">","null","","","","","","","","","",""
"","image-keyboard-response","309","136453","0.0-309.0","3R6BYFZZP8YA8L2C49CA1DZQIG4FXN","A32HHTM9N6C67R","3ZICQFRS3143WDVXF1P0C7ZVVO8ZZM","","900.8999999761581","img/land6.png","74","901.6000000238419","1","1","3","1","1,0.5,0.5,0.5,1,0.5,0.5,0.5,1","1,0.5,0.5,0.5,1,0.5,0.5,0.5,1","","",""
"","html-keyboard-response","310","136755","0.0-310.0","3R6BYFZZP8YA8L2C49CA1DZQIG4FXN","A32HHTM9N6C67R","3ZICQFRS3143WDVXF1P0C7ZVVO8ZZM","","null","<img src=""img/land6.png"" style=""width:200px; border:14px solid green;"">","null","","","","","","","","","",""
"","image-keyboard-response","311","137262","0.0-311.0","3R6BYFZZP8YA8L2C49CA1DZQIG4FXN","A32HHTM9N6C67R","3ZICQFRS3143WDVXF1P0C7ZVVO8ZZM","","505.90000009536743","img/land6.png","75","506.7000000476837","2","1","3","1","1,0.5,0.5,0.5,1,0.5,0.5,0.5,1","1,0.5,0.5,0.5,1,0.5,0.5,0.5,1","","",""
"","html-keyboard-response","312","137564","0.0-312.0","3R6BYFZZP8YA8L2C49CA1DZQIG4FXN","A32HHTM9N6C67R","3ZICQFRS3143WDVXF1P0C7ZVVO8ZZM","","null","<img src=""img/land6.png"" style=""width:200px; border:14px solid green;"">","null","","","","","","","","","",""
"","image-keyboard-response","313","137864","0.0-313.0","3R6BYFZZP8YA8L2C49CA1DZQIG4FXN","A32HHTM9N6C67R","3ZICQFRS3143WDVXF1P0C7ZVVO8ZZM","","298.59999990463257","img/land6.png","75","299.5","2","1","3","1","1,0.5,0.5,0.5,1,0.5,0.5,0.5,1","1,0.5,0.5,0.5,1,0.5,0.5,0.5,1","","",""
"","html-keyboard-response","314","138167","0.0-314.0","3R6BYFZZP8YA8L2C49CA1DZQIG4FXN","A32HHTM9N6C67R","3ZICQFRS3143WDVXF1P0C7ZVVO8ZZM","","null","<img src=""img/land6.png"" style=""width:200px; border:14px solid green;"">","null","","","","","","","","","",""
"","image-keyboard-response","315","138172","0.0-315.0","3R6BYFZZP8YA8L2C49CA1DZQIG4FXN","A32HHTM9N6C67R","3ZICQFRS3143WDVXF1P0C7ZVVO8ZZM","","3.700000047683716","img/land6.png","75","4.700000047683716","2","0","3","1","1,0.5,0.5,0.5,1,0.5,0.5,0.5,1","1,0.5,0.5,0.5,1,0.5,0.5,0.5,1","","",""
"","html-keyboard-response","316","138475","0.0-316.0","3R6BYFZZP8YA8L2C49CA1DZQIG4FXN","A32HHTM9N6C67R","3ZICQFRS3143WDVXF1P0C7ZVVO8ZZM","","null","<img src=""img/land6.png"" style=""width:200px;border:14px solid red;"">","null","","","","","","","","","",""
"","image-keyboard-response","317","138717","0.0-317.0","3R6BYFZZP8YA8L2C49CA1DZQIG4FXN","A32HHTM9N6C67R","3ZICQFRS3143WDVXF1P0C7ZVVO8ZZM","","241.39999997615814","img/land6.png","74","242.19999992847443","1","0","3","1","1,0.5,0.5,0.5,1,0.5,0.5,0.5,1","1,0.5,0.5,0.5,1,0.5,0.5,0.5,1","","",""
"","html-keyboard-response","318","139020","0.0-318.0","3R6BYFZZP8YA8L2C49CA1DZQIG4FXN","A32HHTM9N6C67R","3ZICQFRS3143WDVXF1P0C7ZVVO8ZZM","","null","<img src=""img/land6.png"" style=""width:200px;border:14px solid red;"">","null","","","","","","","","","",""
"","image-keyboard-response","319","139181","0.0-319.0","3R6BYFZZP8YA8L2C49CA1DZQIG4FXN","A32HHTM9N6C67R","3ZICQFRS3143WDVXF1P0C7ZVVO8ZZM","","159.69999992847443","img/land6.png","75","160.79999995231628","2","1","3","1","1,0.5,0.5,0.5,1,0.5,0.5,0.5,1","1,0.5,0.5,0.5,1,0.5,0.5,0.5,1","","",""
"","html-keyboard-response","320","139483","0.0-320.0","3R6BYFZZP8YA8L2C49CA1DZQIG4FXN","A32HHTM9N6C67R","3ZICQFRS3143WDVXF1P0C7ZVVO8ZZM","","null","<img src=""img/land6.png"" style=""width:200px; border:14px solid green;"">","null","","","","","","","","","",""
"","image-keyboard-response","321","139683","0.0-321.0","3R6BYFZZP8YA8L2C49CA1DZQIG4FXN","A32HHTM9N6C67R","3ZICQFRS3143WDVXF1P0C7ZVVO8ZZM","","197.5","img/land6.png","74","199","1","0","3","1","1,0.5,0.5,0.5,1,0.5,0.5,0.5,1","1,0.5,0.5,0.5,1,0.5,0.5,0.5,1","","",""
"","html-keyboard-response","322","139985","0.0-322.0","3R6BYFZZP8YA8L2C49CA1DZQIG4FXN","A32HHTM9N6C67R","3ZICQFRS3143WDVXF1P0C7ZVVO8ZZM","","null","<img src=""img/land6.png"" style=""width:200px;border:14px solid red;"">","null","","","","","","","","","",""
"","image-keyboard-response","323","139994","0.0-323.0","3R6BYFZZP8YA8L2C49CA1DZQIG4FXN","A32HHTM9N6C67R","3ZICQFRS3143WDVXF1P0C7ZVVO8ZZM","","7.299999952316284","img/land4.png","75","8.399999976158142","2","1","1","1","1,0.5,0.5,0.5,1,0.5,0.5,0.5,1","1,0.5,0.5,0.5,1,0.5,0.5,0.5,1","","",""
"","html-keyboard-response","324","140297","0.0-324.0","3R6BYFZZP8YA8L2C49CA1DZQIG4FXN","A32HHTM9N6C67R","3ZICQFRS3143WDVXF1P0C7ZVVO8ZZM","","null","<img src=""img/land4.png"" style=""width:200px; border:14px solid green;"">","null","","","","","","","","","",""
"","image-keyboard-response","325","140487","0.0-325.0","3R6BYFZZP8YA8L2C49CA1DZQIG4FXN","A32HHTM9N6C67R","3ZICQFRS3143WDVXF1P0C7ZVVO8ZZM","","188.29999995231628","img/land6.png","75","189.60000002384186","2","0","3","1","1,0.5,0.5,0.5,1,0.5,0.5,0.5,1","1,0.5,0.5,0.5,1,0.5,0.5,0.5,1","","",""
"","html-keyboard-response","326","140789","0.0-326.0","3R6BYFZZP8YA8L2C49CA1DZQIG4FXN","A32HHTM9N6C67R","3ZICQFRS3143WDVXF1P0C7ZVVO8ZZM","","null","<img src=""img/land6.png"" style=""width:200px;border:14px solid red;"">","null","","","","","","","","","",""
"","image-keyboard-response","327","140803","0.0-327.0","3R6BYFZZP8YA8L2C49CA1DZQIG4FXN","A32HHTM9N6C67R","3ZICQFRS3143WDVXF1P0C7ZVVO8ZZM","","12","img/land6.png","75","12.900000095367432","2","1","3","1","1,0.5,0.5,0.5,1,0.5,0.5,0.5,1","1,0.5,0.5,0.5,1,0.5,0.5,0.5,1","","",""
"","html-keyboard-response","328","141106","0.0-328.0","3R6BYFZZP8YA8L2C49CA1DZQIG4FXN","A32HHTM9N6C67R","3ZICQFRS3143WDVXF1P0C7ZVVO8ZZM","","null","<img src=""img/land6.png"" style=""width:200px; border:14px solid green;"">","null","","","","","","","","","",""
"","image-keyboard-response","329","141629","0.0-329.0","3R6BYFZZP8YA8L2C49CA1DZQIG4FXN","A32HHTM9N6C67R","3ZICQFRS3143WDVXF1P0C7ZVVO8ZZM","","522","img/land6.png","74","523.1000000238419","1","0","3","1","1,0.5,0.5,0.5,1,0.5,0.5,0.5,1","1,0.5,0.5,0.5,1,0.5,0.5,0.5,1","","",""
"","html-keyboard-response","330","141931","0.0-330.0","3R6BYFZZP8YA8L2C49CA1DZQIG4FXN","A32HHTM9N6C67R","3ZICQFRS3143WDVXF1P0C7ZVVO8ZZM","","null","<img src=""img/land6.png"" style=""width:200px;border:14px solid red;"">","null","","","","","","","","","",""
"","image-keyboard-response","331","141937","0.0-331.0","3R6BYFZZP8YA8L2C49CA1DZQIG4FXN","A32HHTM9N6C67R","3ZICQFRS3143WDVXF1P0C7ZVVO8ZZM","","3.700000047683716","img/land5.png","74","4.899999976158142","1","0","2","1","1,0.5,0.5,0.5,1,0.5,0.5,0.5,1","1,0.5,0.5,0.5,1,0.5,0.5,0.5,1","","",""
"","html-keyboard-response","332","142240","0.0-332.0","3R6BYFZZP8YA8L2C49CA1DZQIG4FXN","A32HHTM9N6C67R","3ZICQFRS3143WDVXF1P0C7ZVVO8ZZM","","null","<img src=""img/land5.png"" style=""width:200px;border:14px solid red;"">","null","","","","","","","","","",""
"","image-keyboard-response","333","142255","0.0-333.0","3R6BYFZZP8YA8L2C49CA1DZQIG4FXN","A32HHTM9N6C67R","3ZICQFRS3143WDVXF1P0C7ZVVO8ZZM","","11.599999904632568","img/land5.png","74","13.799999952316284","1","1","2","1","1,0.5,0.5,0.5,1,0.5,0.5,0.5,1","1,0.5,0.5,0.5,1,0.5,0.5,0.5,1","","",""
"","html-keyboard-response","334","142557","0.0-334.0","3R6BYFZZP8YA8L2C49CA1DZQIG4FXN","A32HHTM9N6C67R","3ZICQFRS3143WDVXF1P0C7ZVVO8ZZM","","null","<img src=""img/land5.png"" style=""width:200px; border:14px solid green;"">","null","","","","","","","","","",""
"","image-keyboard-response","335","142963","0.0-335.0","3R6BYFZZP8YA8L2C49CA1DZQIG4FXN","A32HHTM9N6C67R","3ZICQFRS3143WDVXF1P0C7ZVVO8ZZM","","404.2000000476837","img/land5.png","74","405.2999999523163","1","0","2","1","1,0.5,0.5,0.5,1,0.5,0.5,0.5,1","1,0.5,0.5,0.5,1,0.5,0.5,0.5,1","","",""
"","html-keyboard-response","336","143264","0.0-336.0","3R6BYFZZP8YA8L2C49CA1DZQIG4FXN","A32HHTM9N6C67R","3ZICQFRS3143WDVXF1P0C7ZVVO8ZZM","","null","<img src=""img/land5.png"" style=""width:200px;border:14px solid red;"">","null","","","","","","","","","",""
"","image-keyboard-response","337","143840","0.0-337.0","3R6BYFZZP8YA8L2C49CA1DZQIG4FXN","A32HHTM9N6C67R","3ZICQFRS3143WDVXF1P0C7ZVVO8ZZM","","573.7999999523163","img/land6.png","75","574.7999999523163","2","0","3","1","1,0.5,0.5,0.5,1,0.5,0.5,0.5,1","1,0.5,0.5,0.5,1,0.5,0.5,0.5,1","","",""
"","html-keyboard-response","338","144141","0.0-338.0","3R6BYFZZP8YA8L2C49CA1DZQIG4FXN","A32HHTM9N6C67R","3ZICQFRS3143WDVXF1P0C7ZVVO8ZZM","","null","<img src=""img/land6.png"" style=""width:200px;border:14px solid red;"">","null","","","","","","","","","",""
"","image-keyboard-response","339","144916","0.0-339.0","3R6BYFZZP8YA8L2C49CA1DZQIG4FXN","A32HHTM9N6C67R","3ZICQFRS3143WDVXF1P0C7ZVVO8ZZM","","773.9000000953674","img/land6.png","75","774.7000000476837","2","0","3","1","1,0.5,0.5,0.5,1,0.5,0.5,0.5,1","1,0.5,0.5,0.5,1,0.5,0.5,0.5,1","","",""
"","html-keyboard-response","340","145222","0.0-340.0","3R6BYFZZP8YA8L2C49CA1DZQIG4FXN","A32HHTM9N6C67R","3ZICQFRS3143WDVXF1P0C7ZVVO8ZZM","","null","<img src=""img/land6.png"" style=""width:200px;border:14px solid red;"">","null","","","","","","","","","",""
"","image-keyboard-response","341","145415","0.0-341.0","3R6BYFZZP8YA8L2C49CA1DZQIG4FXN","A32HHTM9N6C67R","3ZICQFRS3143WDVXF1P0C7ZVVO8ZZM","","189.30000007152557","img/land4.png","74","190.5","1","1","1","1","1,0.5,0.5,0.5,1,0.5,0.5,0.5,1","1,0.5,0.5,0.5,1,0.5,0.5,0.5,1","","",""
"","html-keyboard-response","342","145717","0.0-342.0","3R6BYFZZP8YA8L2C49CA1DZQIG4FXN","A32HHTM9N6C67R","3ZICQFRS3143WDVXF1P0C7ZVVO8ZZM","","null","<img src=""img/land4.png"" style=""width:200px; border:14px solid green;"">","null","","","","","","","","","",""
"","image-keyboard-response","343","145828","0.0-343.0","3R6BYFZZP8YA8L2C49CA1DZQIG4FXN","A32HHTM9N6C67R","3ZICQFRS3143WDVXF1P0C7ZVVO8ZZM","","109.30000007152557","img/land6.png","75","110.10000002384186","2","0","3","1","1,0.5,0.5,0.5,1,0.5,0.5,0.5,1","1,0.5,0.5,0.5,1,0.5,0.5,0.5,1","","",""
"","html-keyboard-response","344","146130","0.0-344.0","3R6BYFZZP8YA8L2C49CA1DZQIG4FXN","A32HHTM9N6C67R","3ZICQFRS3143WDVXF1P0C7ZVVO8ZZM","","null","<img src=""img/land6.png"" style=""width:200px;border:14px solid red;"">","null","","","","","","","","","",""
"","image-keyboard-response","345","146559","0.0-345.0","3R6BYFZZP8YA8L2C49CA1DZQIG4FXN","A32HHTM9N6C67R","3ZICQFRS3143WDVXF1P0C7ZVVO8ZZM","","427.7999999523163","img/land4.png","75","428.90000009536743","2","1","1","1","1,0.5,0.5,0.5,1,0.5,0.5,0.5,1","1,0.5,0.5,0.5,1,0.5,0.5,0.5,1","","",""
"","html-keyboard-response","346","146862","0.0-346.0","3R6BYFZZP8YA8L2C49CA1DZQIG4FXN","A32HHTM9N6C67R","3ZICQFRS3143WDVXF1P0C7ZVVO8ZZM","","null","<img src=""img/land4.png"" style=""width:200px; border:14px solid green;"">","null","","","","","","","","","",""
"","image-keyboard-response","347","147134","0.0-347.0","3R6BYFZZP8YA8L2C49CA1DZQIG4FXN","A32HHTM9N6C67R","3ZICQFRS3143WDVXF1P0C7ZVVO8ZZM","","269.6999999284744","img/land6.png","74","271.10000002384186","1","1","3","1","1,0.5,0.5,0.5,1,0.5,0.5,0.5,1","1,0.5,0.5,0.5,1,0.5,0.5,0.5,1","","",""
"","html-keyboard-response","348","147437","0.0-348.0","3R6BYFZZP8YA8L2C49CA1DZQIG4FXN","A32HHTM9N6C67R","3ZICQFRS3143WDVXF1P0C7ZVVO8ZZM","","null","<img src=""img/land6.png"" style=""width:200px; border:14px solid green;"">","null","","","","","","","","","",""
"","image-keyboard-response","349","147554","0.0-349.0","3R6BYFZZP8YA8L2C49CA1DZQIG4FXN","A32HHTM9N6C67R","3ZICQFRS3143WDVXF1P0C7ZVVO8ZZM","","116.09999990463257","img/land5.png","75","116.90000009536743","2","1","2","1","1,0.5,0.5,0.5,1,0.5,0.5,0.5,1","1,0.5,0.5,0.5,1,0.5,0.5,0.5,1","","",""
"","html-keyboard-response","350","147859","0.0-350.0","3R6BYFZZP8YA8L2C49CA1DZQIG4FXN","A32HHTM9N6C67R","3ZICQFRS3143WDVXF1P0C7ZVVO8ZZM","","null","<img src=""img/land5.png"" style=""width:200px; border:14px solid green;"">","null","","","","","","","","","",""
"","image-keyboard-response","351","148417","0.0-351.0","3R6BYFZZP8YA8L2C49CA1DZQIG4FXN","A32HHTM9N6C67R","3ZICQFRS3143WDVXF1P0C7ZVVO8ZZM","","556.1999999284744","img/land5.png","74","557","1","1","2","1","1,0.5,0.5,0.5,1,0.5,0.5,0.5,1","1,0.5,0.5,0.5,1,0.5,0.5,0.5,1","","",""
"","html-keyboard-response","352","148718","0.0-352.0","3R6BYFZZP8YA8L2C49CA1DZQIG4FXN","A32HHTM9N6C67R","3ZICQFRS3143WDVXF1P0C7ZVVO8ZZM","","null","<img src=""img/land5.png"" style=""width:200px; border:14px solid green;"">","null","","","","","","","","","",""
"","image-keyboard-response","353","148968","0.0-353.0","3R6BYFZZP8YA8L2C49CA1DZQIG4FXN","A32HHTM9N6C67R","3ZICQFRS3143WDVXF1P0C7ZVVO8ZZM","","248.20000004768372","img/land6.png","74","249.20000004768372","1","1","3","1","1,0.5,0.5,0.5,1,0.5,0.5,0.5,1","1,0.5,0.5,0.5,1,0.5,0.5,0.5,1","","",""
"","html-keyboard-response","354","149269","0.0-354.0","3R6BYFZZP8YA8L2C49CA1DZQIG4FXN","A32HHTM9N6C67R","3ZICQFRS3143WDVXF1P0C7ZVVO8ZZM","","null","<img src=""img/land6.png"" style=""width:200px; border:14px solid green;"">","null","","","","","","","","","",""
"","image-keyboard-response","355","149402","0.0-355.0","3R6BYFZZP8YA8L2C49CA1DZQIG4FXN","A32HHTM9N6C67R","3ZICQFRS3143WDVXF1P0C7ZVVO8ZZM","","131.5","img/land6.png","74","132.39999997615814","1","1","3","1","1,0.5,0.5,0.5,1,0.5,0.5,0.5,1","1,0.5,0.5,0.5,1,0.5,0.5,0.5,1","","",""
"","html-keyboard-response","356","149704","0.0-356.0","3R6BYFZZP8YA8L2C49CA1DZQIG4FXN","A32HHTM9N6C67R","3ZICQFRS3143WDVXF1P0C7ZVVO8ZZM","","null","<img src=""img/land6.png"" style=""width:200px; border:14px solid green;"">","null","","","","","","","","","",""
"","image-keyboard-response","357","149873","0.0-357.0","3R6BYFZZP8YA8L2C49CA1DZQIG4FXN","A32HHTM9N6C67R","3ZICQFRS3143WDVXF1P0C7ZVVO8ZZM","","167.5","img/land6.png","74","168.5","1","0","3","1","1,0.5,0.5,0.5,1,0.5,0.5,0.5,1","1,0.5,0.5,0.5,1,0.5,0.5,0.5,1","","",""
"","html-keyboard-response","358","150175","0.0-358.0","3R6BYFZZP8YA8L2C49CA1DZQIG4FXN","A32HHTM9N6C67R","3ZICQFRS3143WDVXF1P0C7ZVVO8ZZM","","null","<img src=""img/land6.png"" style=""width:200px;border:14px solid red;"">","null","","","","","","","","","",""
"","image-keyboard-response","359","150361","0.0-359.0","3R6BYFZZP8YA8L2C49CA1DZQIG4FXN","A32HHTM9N6C67R","3ZICQFRS3143WDVXF1P0C7ZVVO8ZZM","","184.59999990463257","img/land6.png","74","185.60000002384186","1","0","3","1","1,0.5,0.5,0.5,1,0.5,0.5,0.5,1","1,0.5,0.5,0.5,1,0.5,0.5,0.5,1","","",""
"","html-keyboard-response","360","150663","0.0-360.0","3R6BYFZZP8YA8L2C49CA1DZQIG4FXN","A32HHTM9N6C67R","3ZICQFRS3143WDVXF1P0C7ZVVO8ZZM","","null","<img src=""img/land6.png"" style=""width:200px;border:14px solid red;"">","null","","","","","","","","","",""
"","image-keyboard-response","361","151218","0.0-361.0","3R6BYFZZP8YA8L2C49CA1DZQIG4FXN","A32HHTM9N6C67R","3ZICQFRS3143WDVXF1P0C7ZVVO8ZZM","","553.1000000238419","img/land6.png","74","554","1","0","3","1","1,0.5,0.5,0.5,1,0.5,0.5,0.5,1","1,0.5,0.5,0.5,1,0.5,0.5,0.5,1","","",""
"","html-keyboard-response","362","151521","0.0-362.0","3R6BYFZZP8YA8L2C49CA1DZQIG4FXN","A32HHTM9N6C67R","3ZICQFRS3143WDVXF1P0C7ZVVO8ZZM","","null","<img src=""img/land6.png"" style=""width:200px;border:14px solid red;"">","null","","","","","","","","","",""
