"success","trial_type","trial_index","time_elapsed","internal_node_id","assignmentID","mturkID","hitID","view_history","rt","stimulus","key_press","reactionTime","a","r","s","cond","reward_cond","reward_cond_actual","reward_matrix_idx","responses","question_order"
"true","fullscreen","0","2431","0.0-0.0","3H8DHMCCWAX7Q1P9EK2VNJO3BL7KD9","A334VWE4QGAZFR","3L1EFR8WWTRIL5MKAR1UWRHK4IC9FJ","","","","","","","","","","","","","",""
"","instructions","1","14181","0.0-1.0","3H8DHMCCWAX7Q1P9EK2VNJO3BL7KD9","A334VWE4QGAZFR","3L1EFR8WWTRIL5MKAR1UWRHK4IC9FJ","[{""page_index"":0,""viewing_time"":1754},{""page_index"":1,""viewing_time"":1032},{""page_index"":2,""viewing_time"":905},{""page_index"":3,""viewing_time"":1320},{""page_index"":4,""viewing_time"":4119},{""page_index"":5,""viewing_time"":1240},{""page_index"":6,""viewing_time"":1376}]","11747","","","","","","","","","","","",""
"","image-keyboard-response","2","16184","0.0-2.0","3H8DHMCCWAX7Q1P9EK2VNJO3BL7KD9","A334VWE4QGAZFR","3L1EFR8WWTRIL5MKAR1UWRHK4IC9FJ","","","img/land1.png","","2002","-1","0","1","1","0.8,0.2,0.2,0.2,0.8,0.2,0.2,0.2,0.8","0.8,0.2,0.2,0.2,0.8,0.2,0.2,0.2,0.8","1","",""
"","html-keyboard-response","3","16577","0.0-3.0","3H8DHMCCWAX7Q1P9EK2VNJO3BL7KD9","A334VWE4QGAZFR","3L1EFR8WWTRIL5MKAR1UWRHK4IC9FJ","","null","<img src=""img/land1.png"" style=""width:200px;border:14px solid red;"">","null","","","","","","","","","",""
"","image-keyboard-response","4","18580","0.0-4.0","3H8DHMCCWAX7Q1P9EK2VNJO3BL7KD9","A334VWE4QGAZFR","3L1EFR8WWTRIL5MKAR1UWRHK4IC9FJ","","","img/land5.png","","2002","-1","0","2","1","0.8,0.2,0.2,0.2,0.8,0.2,0.2,0.2,0.8","0.8,0.2,0.2,0.2,0.8,0.2,0.2,0.2,0.8","1","",""
"","html-keyboard-response","5","18882","0.0-5.0","3H8DHMCCWAX7Q1P9EK2VNJO3BL7KD9","A334VWE4QGAZFR","3L1EFR8WWTRIL5MKAR1UWRHK4IC9FJ","","null","<img src=""img/land5.png"" style=""width:200px;border:14px solid red;"">","null","","","","","","","","","",""
"","image-keyboard-response","6","19612","0.0-6.0","3H8DHMCCWAX7Q1P9EK2VNJO3BL7KD9","A334VWE4QGAZFR","3L1EFR8WWTRIL5MKAR1UWRHK4IC9FJ","","729","img/land1.png","74","730","1","1","1","1","0.8,0.2,0.2,0.2,0.8,0.2,0.2,0.2,0.8","0.8,0.2,0.2,0.2,0.8,0.2,0.2,0.2,0.8","1","",""
"","html-keyboard-response","7","19913","0.0-7.0","3H8DHMCCWAX7Q1P9EK2VNJO3BL7KD9","A334VWE4QGAZFR","3L1EFR8WWTRIL5MKAR1UWRHK4IC9FJ","","null","<img src=""img/land1.png"" style=""width:200px; border:14px solid green;"">","null","","","","","","","","","",""
"","image-keyboard-response","8","19979","0.0-8.0","3H8DHMCCWAX7Q1P9EK2VNJO3BL7KD9","A334VWE4QGAZFR","3L1EFR8WWTRIL5MKAR1UWRHK4IC9FJ","","65","img/land4.png","74","66","1","0","3","1","0.8,0.2,0.2,0.2,0.8,0.2,0.2,0.2,0.8","0.8,0.2,0.2,0.2,0.8,0.2,0.2,0.2,0.8","1","",""
"","html-keyboard-response","9","20280","0.0-9.0","3H8DHMCCWAX7Q1P9EK2VNJO3BL7KD9","A334VWE4QGAZFR","3L1EFR8WWTRIL5MKAR1UWRHK4IC9FJ","","null","<img src=""img/land4.png"" style=""width:200px;border:14px solid red;"">","null","","","","","","","","","",""
"","image-keyboard-response","10","20382","0.0-10.0","3H8DHMCCWAX7Q1P9EK2VNJO3BL7KD9","A334VWE4QGAZFR","3L1EFR8WWTRIL5MKAR1UWRHK4IC9FJ","","101","img/land1.png","76","103","3","0","1","1","0.8,0.2,0.2,0.2,0.8,0.2,0.2,0.2,0.8","0.8,0.2,0.2,0.2,0.8,0.2,0.2,0.2,0.8","1","",""
"","html-keyboard-response","11","20684","0.0-11.0","3H8DHMCCWAX7Q1P9EK2VNJO3BL7KD9","A334VWE4QGAZFR","3L1EFR8WWTRIL5MKAR1UWRHK4IC9FJ","","null","<img src=""img/land1.png"" style=""width:200px;border:14px solid red;"">","null","","","","","","","","","",""
"","image-keyboard-response","12","20753","0.0-12.0","3H8DHMCCWAX7Q1P9EK2VNJO3BL7KD9","A334VWE4QGAZFR","3L1EFR8WWTRIL5MKAR1UWRHK4IC9FJ","","68","img/land5.png","74","69","1","0","2","1","0.8,0.2,0.2,0.2,0.8,0.2,0.2,0.2,0.8","0.8,0.2,0.2,0.2,0.8,0.2,0.2,0.2,0.8","1","",""
"","html-keyboard-response","13","21055","0.0-13.0","3H8DHMCCWAX7Q1P9EK2VNJO3BL7KD9","A334VWE4QGAZFR","3L1EFR8WWTRIL5MKAR1UWRHK4IC9FJ","","null","<img src=""img/land5.png"" style=""width:200px;border:14px solid red;"">","null","","","","","","","","","",""
"","image-keyboard-response","14","21201","0.0-14.0","3H8DHMCCWAX7Q1P9EK2VNJO3BL7KD9","A334VWE4QGAZFR","3L1EFR8WWTRIL5MKAR1UWRHK4IC9FJ","","145","img/land1.png","74","146","1","1","1","1","0.8,0.2,0.2,0.2,0.8,0.2,0.2,0.2,0.8","0.8,0.2,0.2,0.2,0.8,0.2,0.2,0.2,0.8","1","",""
"","html-keyboard-response","15","21503","0.0-15.0","3H8DHMCCWAX7Q1P9EK2VNJO3BL7KD9","A334VWE4QGAZFR","3L1EFR8WWTRIL5MKAR1UWRHK4IC9FJ","","null","<img src=""img/land1.png"" style=""width:200px; border:14px solid green;"">","null","","","","","","","","","",""
"","image-keyboard-response","16","21526","0.0-16.0","3H8DHMCCWAX7Q1P9EK2VNJO3BL7KD9","A334VWE4QGAZFR","3L1EFR8WWTRIL5MKAR1UWRHK4IC9FJ","","21","img/land4.png","75","23","2","0","3","1","0.8,0.2,0.2,0.2,0.8,0.2,0.2,0.2,0.8","0.8,0.2,0.2,0.2,0.8,0.2,0.2,0.2,0.8","1","",""
"","html-keyboard-response","17","21826","0.0-17.0","3H8DHMCCWAX7Q1P9EK2VNJO3BL7KD9","A334VWE4QGAZFR","3L1EFR8WWTRIL5MKAR1UWRHK4IC9FJ","","null","<img src=""img/land4.png"" style=""width:200px;border:14px solid red;"">","null","","","","","","","","","",""
"","image-keyboard-response","18","21927","0.0-18.0","3H8DHMCCWAX7Q1P9EK2VNJO3BL7KD9","A334VWE4QGAZFR","3L1EFR8WWTRIL5MKAR1UWRHK4IC9FJ","","100","img/land1.png","74","101","1","1","1","1","0.8,0.2,0.2,0.2,0.8,0.2,0.2,0.2,0.8","0.8,0.2,0.2,0.2,0.8,0.2,0.2,0.2,0.8","1","",""
"","html-keyboard-response","19","22228","0.0-19.0","3H8DHMCCWAX7Q1P9EK2VNJO3BL7KD9","A334VWE4QGAZFR","3L1EFR8WWTRIL5MKAR1UWRHK4IC9FJ","","null","<img src=""img/land1.png"" style=""width:200px; border:14px solid green;"">","null","","","","","","","","","",""
"","image-keyboard-response","20","22373","0.0-20.0","3H8DHMCCWAX7Q1P9EK2VNJO3BL7KD9","A334VWE4QGAZFR","3L1EFR8WWTRIL5MKAR1UWRHK4IC9FJ","","145","img/land5.png","75","145","2","1","2","1","0.8,0.2,0.2,0.2,0.8,0.2,0.2,0.2,0.8","0.8,0.2,0.2,0.2,0.8,0.2,0.2,0.2,0.8","1","",""
"","html-keyboard-response","21","22675","0.0-21.0","3H8DHMCCWAX7Q1P9EK2VNJO3BL7KD9","A334VWE4QGAZFR","3L1EFR8WWTRIL5MKAR1UWRHK4IC9FJ","","null","<img src=""img/land5.png"" style=""width:200px; border:14px solid green;"">","null","","","","","","","","","",""
"","image-keyboard-response","22","22683","0.0-22.0","3H8DHMCCWAX7Q1P9EK2VNJO3BL7KD9","A334VWE4QGAZFR","3L1EFR8WWTRIL5MKAR1UWRHK4IC9FJ","","7","img/land1.png","75","8","2","1","1","1","0.8,0.2,0.2,0.2,0.8,0.2,0.2,0.2,0.8","0.8,0.2,0.2,0.2,0.8,0.2,0.2,0.2,0.8","1","",""
"","html-keyboard-response","23","22984","0.0-23.0","3H8DHMCCWAX7Q1P9EK2VNJO3BL7KD9","A334VWE4QGAZFR","3L1EFR8WWTRIL5MKAR1UWRHK4IC9FJ","","null","<img src=""img/land1.png"" style=""width:200px; border:14px solid green;"">","null","","","","","","","","","",""
"","image-keyboard-response","24","23069","0.0-24.0","3H8DHMCCWAX7Q1P9EK2VNJO3BL7KD9","A334VWE4QGAZFR","3L1EFR8WWTRIL5MKAR1UWRHK4IC9FJ","","84","img/land1.png","74","85","1","1","1","1","0.8,0.2,0.2,0.2,0.8,0.2,0.2,0.2,0.8","0.8,0.2,0.2,0.2,0.8,0.2,0.2,0.2,0.8","1","",""
"","html-keyboard-response","25","23370","0.0-25.0","3H8DHMCCWAX7Q1P9EK2VNJO3BL7KD9","A334VWE4QGAZFR","3L1EFR8WWTRIL5MKAR1UWRHK4IC9FJ","","null","<img src=""img/land1.png"" style=""width:200px; border:14px solid green;"">","null","","","","","","","","","",""
"","image-keyboard-response","26","23378","0.0-26.0","3H8DHMCCWAX7Q1P9EK2VNJO3BL7KD9","A334VWE4QGAZFR","3L1EFR8WWTRIL5MKAR1UWRHK4IC9FJ","","7","img/land5.png","74","8","1","0","2","1","0.8,0.2,0.2,0.2,0.8,0.2,0.2,0.2,0.8","0.8,0.2,0.2,0.2,0.8,0.2,0.2,0.2,0.8","1","",""
"","html-keyboard-response","27","23678","0.0-27.0","3H8DHMCCWAX7Q1P9EK2VNJO3BL7KD9","A334VWE4QGAZFR","3L1EFR8WWTRIL5MKAR1UWRHK4IC9FJ","","null","<img src=""img/land5.png"" style=""width:200px;border:14px solid red;"">","null","","","","","","","","","",""
"","image-keyboard-response","28","23705","0.0-28.0","3H8DHMCCWAX7Q1P9EK2VNJO3BL7KD9","A334VWE4QGAZFR","3L1EFR8WWTRIL5MKAR1UWRHK4IC9FJ","","26","img/land5.png","74","27","1","0","2","1","0.8,0.2,0.2,0.2,0.8,0.2,0.2,0.2,0.8","0.8,0.2,0.2,0.2,0.8,0.2,0.2,0.2,0.8","1","",""
"","html-keyboard-response","29","24006","0.0-29.0","3H8DHMCCWAX7Q1P9EK2VNJO3BL7KD9","A334VWE4QGAZFR","3L1EFR8WWTRIL5MKAR1UWRHK4IC9FJ","","null","<img src=""img/land5.png"" style=""width:200px;border:14px solid red;"">","null","","","","","","","","","",""
"","image-keyboard-response","30","24059","0.0-30.0","3H8DHMCCWAX7Q1P9EK2VNJO3BL7KD9","A334VWE4QGAZFR","3L1EFR8WWTRIL5MKAR1UWRHK4IC9FJ","","52","img/land4.png","75","53","2","0","3","1","0.8,0.2,0.2,0.2,0.8,0.2,0.2,0.2,0.8","0.8,0.2,0.2,0.2,0.8,0.2,0.2,0.2,0.8","1","",""
"","html-keyboard-response","31","24361","0.0-31.0","3H8DHMCCWAX7Q1P9EK2VNJO3BL7KD9","A334VWE4QGAZFR","3L1EFR8WWTRIL5MKAR1UWRHK4IC9FJ","","null","<img src=""img/land4.png"" style=""width:200px;border:14px solid red;"">","null","","","","","","","","","",""
"","image-keyboard-response","32","24468","0.0-32.0","3H8DHMCCWAX7Q1P9EK2VNJO3BL7KD9","A334VWE4QGAZFR","3L1EFR8WWTRIL5MKAR1UWRHK4IC9FJ","","106","img/land1.png","76","107","3","0","1","1","0.8,0.2,0.2,0.2,0.8,0.2,0.2,0.2,0.8","0.8,0.2,0.2,0.2,0.8,0.2,0.2,0.2,0.8","1","",""
"","html-keyboard-response","33","24769","0.0-33.0","3H8DHMCCWAX7Q1P9EK2VNJO3BL7KD9","A334VWE4QGAZFR","3L1EFR8WWTRIL5MKAR1UWRHK4IC9FJ","","null","<img src=""img/land1.png"" style=""width:200px;border:14px solid red;"">","null","","","","","","","","","",""
"","image-keyboard-response","34","24795","0.0-34.0","3H8DHMCCWAX7Q1P9EK2VNJO3BL7KD9","A334VWE4QGAZFR","3L1EFR8WWTRIL5MKAR1UWRHK4IC9FJ","","26","img/land1.png","75","26","2","0","1","1","0.8,0.2,0.2,0.2,0.8,0.2,0.2,0.2,0.8","0.8,0.2,0.2,0.2,0.8,0.2,0.2,0.2,0.8","1","",""
"","html-keyboard-response","35","25096","0.0-35.0","3H8DHMCCWAX7Q1P9EK2VNJO3BL7KD9","A334VWE4QGAZFR","3L1EFR8WWTRIL5MKAR1UWRHK4IC9FJ","","null","<img src=""img/land1.png"" style=""width:200px;border:14px solid red;"">","null","","","","","","","","","",""
"","image-keyboard-response","36","25104","0.0-36.0","3H8DHMCCWAX7Q1P9EK2VNJO3BL7KD9","A334VWE4QGAZFR","3L1EFR8WWTRIL5MKAR1UWRHK4IC9FJ","","7","img/land5.png","75","8","2","0","2","1","0.8,0.2,0.2,0.2,0.8,0.2,0.2,0.2,0.8","0.8,0.2,0.2,0.2,0.8,0.2,0.2,0.2,0.8","1","",""
"","html-keyboard-response","37","25406","0.0-37.0","3H8DHMCCWAX7Q1P9EK2VNJO3BL7KD9","A334VWE4QGAZFR","3L1EFR8WWTRIL5MKAR1UWRHK4IC9FJ","","null","<img src=""img/land5.png"" style=""width:200px;border:14px solid red;"">","null","","","","","","","","","",""
"","image-keyboard-response","38","25520","0.0-38.0","3H8DHMCCWAX7Q1P9EK2VNJO3BL7KD9","A334VWE4QGAZFR","3L1EFR8WWTRIL5MKAR1UWRHK4IC9FJ","","113","img/land5.png","74","114","1","0","2","1","0.8,0.2,0.2,0.2,0.8,0.2,0.2,0.2,0.8","0.8,0.2,0.2,0.2,0.8,0.2,0.2,0.2,0.8","1","",""
"","html-keyboard-response","39","25823","0.0-39.0","3H8DHMCCWAX7Q1P9EK2VNJO3BL7KD9","A334VWE4QGAZFR","3L1EFR8WWTRIL5MKAR1UWRHK4IC9FJ","","null","<img src=""img/land5.png"" style=""width:200px;border:14px solid red;"">","null","","","","","","","","","",""
"","image-keyboard-response","40","25999","0.0-40.0","3H8DHMCCWAX7Q1P9EK2VNJO3BL7KD9","A334VWE4QGAZFR","3L1EFR8WWTRIL5MKAR1UWRHK4IC9FJ","","176","img/land5.png","76","176","3","0","2","1","0.8,0.2,0.2,0.2,0.8,0.2,0.2,0.2,0.8","0.8,0.2,0.2,0.2,0.8,0.2,0.2,0.2,0.8","1","",""
"","html-keyboard-response","41","26301","0.0-41.0","3H8DHMCCWAX7Q1P9EK2VNJO3BL7KD9","A334VWE4QGAZFR","3L1EFR8WWTRIL5MKAR1UWRHK4IC9FJ","","null","<img src=""img/land5.png"" style=""width:200px;border:14px solid red;"">","null","","","","","","","","","",""
"","image-keyboard-response","42","26314","0.0-42.0","3H8DHMCCWAX7Q1P9EK2VNJO3BL7KD9","A334VWE4QGAZFR","3L1EFR8WWTRIL5MKAR1UWRHK4IC9FJ","","12","img/land1.png","75","13","2","0","1","1","0.8,0.2,0.2,0.2,0.8,0.2,0.2,0.2,0.8","0.8,0.2,0.2,0.2,0.8,0.2,0.2,0.2,0.8","1","",""
"","html-keyboard-response","43","26616","0.0-43.0","3H8DHMCCWAX7Q1P9EK2VNJO3BL7KD9","A334VWE4QGAZFR","3L1EFR8WWTRIL5MKAR1UWRHK4IC9FJ","","null","<img src=""img/land1.png"" style=""width:200px;border:14px solid red;"">","null","","","","","","","","","",""
"","image-keyboard-response","44","26633","0.0-44.0","3H8DHMCCWAX7Q1P9EK2VNJO3BL7KD9","A334VWE4QGAZFR","3L1EFR8WWTRIL5MKAR1UWRHK4IC9FJ","","16","img/land5.png","75","17","2","1","2","1","0.8,0.2,0.2,0.2,0.8,0.2,0.2,0.2,0.8","0.8,0.2,0.2,0.2,0.8,0.2,0.2,0.2,0.8","1","",""
"","html-keyboard-response","45","26934","0.0-45.0","3H8DHMCCWAX7Q1P9EK2VNJO3BL7KD9","A334VWE4QGAZFR","3L1EFR8WWTRIL5MKAR1UWRHK4IC9FJ","","null","<img src=""img/land5.png"" style=""width:200px; border:14px solid green;"">","null","","","","","","","","","",""
"","image-keyboard-response","46","27021","0.0-46.0","3H8DHMCCWAX7Q1P9EK2VNJO3BL7KD9","A334VWE4QGAZFR","3L1EFR8WWTRIL5MKAR1UWRHK4IC9FJ","","87","img/land1.png","74","87","1","1","1","1","0.8,0.2,0.2,0.2,0.8,0.2,0.2,0.2,0.8","0.8,0.2,0.2,0.2,0.8,0.2,0.2,0.2,0.8","1","",""
"","html-keyboard-response","47","27324","0.0-47.0","3H8DHMCCWAX7Q1P9EK2VNJO3BL7KD9","A334VWE4QGAZFR","3L1EFR8WWTRIL5MKAR1UWRHK4IC9FJ","","null","<img src=""img/land1.png"" style=""width:200px; border:14px solid green;"">","null","","","","","","","","","",""
"","image-keyboard-response","48","27497","0.0-48.0","3H8DHMCCWAX7Q1P9EK2VNJO3BL7KD9","A334VWE4QGAZFR","3L1EFR8WWTRIL5MKAR1UWRHK4IC9FJ","","173","img/land4.png","75","173","2","0","3","1","0.8,0.2,0.2,0.2,0.8,0.2,0.2,0.2,0.8","0.8,0.2,0.2,0.2,0.8,0.2,0.2,0.2,0.8","1","",""
"","html-keyboard-response","49","27799","0.0-49.0","3H8DHMCCWAX7Q1P9EK2VNJO3BL7KD9","A334VWE4QGAZFR","3L1EFR8WWTRIL5MKAR1UWRHK4IC9FJ","","null","<img src=""img/land4.png"" style=""width:200px;border:14px solid red;"">","null","","","","","","","","","",""
"","image-keyboard-response","50","27915","0.0-50.0","3H8DHMCCWAX7Q1P9EK2VNJO3BL7KD9","A334VWE4QGAZFR","3L1EFR8WWTRIL5MKAR1UWRHK4IC9FJ","","116","img/land4.png","74","116","1","0","3","1","0.8,0.2,0.2,0.2,0.8,0.2,0.2,0.2,0.8","0.8,0.2,0.2,0.2,0.8,0.2,0.2,0.2,0.8","1","",""
"","html-keyboard-response","51","28217","0.0-51.0","3H8DHMCCWAX7Q1P9EK2VNJO3BL7KD9","A334VWE4QGAZFR","3L1EFR8WWTRIL5MKAR1UWRHK4IC9FJ","","null","<img src=""img/land4.png"" style=""width:200px;border:14px solid red;"">","null","","","","","","","","","",""
"","image-keyboard-response","52","28243","0.0-52.0","3H8DHMCCWAX7Q1P9EK2VNJO3BL7KD9","A334VWE4QGAZFR","3L1EFR8WWTRIL5MKAR1UWRHK4IC9FJ","","24","img/land1.png","74","26","1","1","1","1","0.8,0.2,0.2,0.2,0.8,0.2,0.2,0.2,0.8","0.8,0.2,0.2,0.2,0.8,0.2,0.2,0.2,0.8","1","",""
"","html-keyboard-response","53","28543","0.0-53.0","3H8DHMCCWAX7Q1P9EK2VNJO3BL7KD9","A334VWE4QGAZFR","3L1EFR8WWTRIL5MKAR1UWRHK4IC9FJ","","null","<img src=""img/land1.png"" style=""width:200px; border:14px solid green;"">","null","","","","","","","","","",""
"","image-keyboard-response","54","28678","0.0-54.0","3H8DHMCCWAX7Q1P9EK2VNJO3BL7KD9","A334VWE4QGAZFR","3L1EFR8WWTRIL5MKAR1UWRHK4IC9FJ","","135","img/land5.png","76","135","3","0","2","1","0.8,0.2,0.2,0.2,0.8,0.2,0.2,0.2,0.8","0.8,0.2,0.2,0.2,0.8,0.2,0.2,0.2,0.8","1","",""
"","html-keyboard-response","55","29067","0.0-55.0","3H8DHMCCWAX7Q1P9EK2VNJO3BL7KD9","A334VWE4QGAZFR","3L1EFR8WWTRIL5MKAR1UWRHK4IC9FJ","","null","<img src=""img/land5.png"" style=""width:200px;border:14px solid red;"">","null","","","","","","","","","",""
"","image-keyboard-response","56","29082","0.0-56.0","3H8DHMCCWAX7Q1P9EK2VNJO3BL7KD9","A334VWE4QGAZFR","3L1EFR8WWTRIL5MKAR1UWRHK4IC9FJ","","15","img/land5.png","75","15","2","1","2","1","0.8,0.2,0.2,0.2,0.8,0.2,0.2,0.2,0.8","0.8,0.2,0.2,0.2,0.8,0.2,0.2,0.2,0.8","1","",""
"","html-keyboard-response","57","29383","0.0-57.0","3H8DHMCCWAX7Q1P9EK2VNJO3BL7KD9","A334VWE4QGAZFR","3L1EFR8WWTRIL5MKAR1UWRHK4IC9FJ","","null","<img src=""img/land5.png"" style=""width:200px; border:14px solid green;"">","null","","","","","","","","","",""
"","image-keyboard-response","58","29444","0.0-58.0","3H8DHMCCWAX7Q1P9EK2VNJO3BL7KD9","A334VWE4QGAZFR","3L1EFR8WWTRIL5MKAR1UWRHK4IC9FJ","","61","img/land5.png","74","62","1","1","2","1","0.8,0.2,0.2,0.2,0.8,0.2,0.2,0.2,0.8","0.8,0.2,0.2,0.2,0.8,0.2,0.2,0.2,0.8","1","",""
"","html-keyboard-response","59","29746","0.0-59.0","3H8DHMCCWAX7Q1P9EK2VNJO3BL7KD9","A334VWE4QGAZFR","3L1EFR8WWTRIL5MKAR1UWRHK4IC9FJ","","null","<img src=""img/land5.png"" style=""width:200px; border:14px solid green;"">","null","","","","","","","","","",""
"","image-keyboard-response","60","29891","0.0-60.0","3H8DHMCCWAX7Q1P9EK2VNJO3BL7KD9","A334VWE4QGAZFR","3L1EFR8WWTRIL5MKAR1UWRHK4IC9FJ","","145","img/land5.png","76","145","3","1","2","1","0.8,0.2,0.2,0.2,0.8,0.2,0.2,0.2,0.8","0.8,0.2,0.2,0.2,0.8,0.2,0.2,0.2,0.8","1","",""
"","html-keyboard-response","61","30193","0.0-61.0","3H8DHMCCWAX7Q1P9EK2VNJO3BL7KD9","A334VWE4QGAZFR","3L1EFR8WWTRIL5MKAR1UWRHK4IC9FJ","","null","<img src=""img/land5.png"" style=""width:200px; border:14px solid green;"">","null","","","","","","","","","",""
"","image-keyboard-response","62","30308","0.0-62.0","3H8DHMCCWAX7Q1P9EK2VNJO3BL7KD9","A334VWE4QGAZFR","3L1EFR8WWTRIL5MKAR1UWRHK4IC9FJ","","113","img/land4.png","74","115","1","0","3","1","0.8,0.2,0.2,0.2,0.8,0.2,0.2,0.2,0.8","0.8,0.2,0.2,0.2,0.8,0.2,0.2,0.2,0.8","1","",""
"","html-keyboard-response","63","30608","0.0-63.0","3H8DHMCCWAX7Q1P9EK2VNJO3BL7KD9","A334VWE4QGAZFR","3L1EFR8WWTRIL5MKAR1UWRHK4IC9FJ","","null","<img src=""img/land4.png"" style=""width:200px;border:14px solid red;"">","null","","","","","","","","","",""
"","image-keyboard-response","64","30618","0.0-64.0","3H8DHMCCWAX7Q1P9EK2VNJO3BL7KD9","A334VWE4QGAZFR","3L1EFR8WWTRIL5MKAR1UWRHK4IC9FJ","","9","img/land1.png","74","10","1","0","1","1","0.8,0.2,0.2,0.2,0.8,0.2,0.2,0.2,0.8","0.8,0.2,0.2,0.2,0.8,0.2,0.2,0.2,0.8","1","",""
"","html-keyboard-response","65","30919","0.0-65.0","3H8DHMCCWAX7Q1P9EK2VNJO3BL7KD9","A334VWE4QGAZFR","3L1EFR8WWTRIL5MKAR1UWRHK4IC9FJ","","null","<img src=""img/land1.png"" style=""width:200px;border:14px solid red;"">","null","","","","","","","","","",""
"","image-keyboard-response","66","30945","0.0-66.0","3H8DHMCCWAX7Q1P9EK2VNJO3BL7KD9","A334VWE4QGAZFR","3L1EFR8WWTRIL5MKAR1UWRHK4IC9FJ","","25","img/land4.png","74","26","1","0","3","1","0.8,0.2,0.2,0.2,0.8,0.2,0.2,0.2,0.8","0.8,0.2,0.2,0.2,0.8,0.2,0.2,0.2,0.8","1","",""
"","html-keyboard-response","67","31278","0.0-67.0","3H8DHMCCWAX7Q1P9EK2VNJO3BL7KD9","A334VWE4QGAZFR","3L1EFR8WWTRIL5MKAR1UWRHK4IC9FJ","","null","<img src=""img/land4.png"" style=""width:200px;border:14px solid red;"">","null","","","","","","","","","",""
"","image-keyboard-response","68","31478","0.0-68.0","3H8DHMCCWAX7Q1P9EK2VNJO3BL7KD9","A334VWE4QGAZFR","3L1EFR8WWTRIL5MKAR1UWRHK4IC9FJ","","200","img/land1.png","74","200","1","1","1","1","0.8,0.2,0.2,0.2,0.8,0.2,0.2,0.2,0.8","0.8,0.2,0.2,0.2,0.8,0.2,0.2,0.2,0.8","1","",""
"","html-keyboard-response","69","31779","0.0-69.0","3H8DHMCCWAX7Q1P9EK2VNJO3BL7KD9","A334VWE4QGAZFR","3L1EFR8WWTRIL5MKAR1UWRHK4IC9FJ","","null","<img src=""img/land1.png"" style=""width:200px; border:14px solid green;"">","null","","","","","","","","","",""
"","image-keyboard-response","70","31946","0.0-70.0","3H8DHMCCWAX7Q1P9EK2VNJO3BL7KD9","A334VWE4QGAZFR","3L1EFR8WWTRIL5MKAR1UWRHK4IC9FJ","","167","img/land4.png","74","167","1","0","3","1","0.8,0.2,0.2,0.2,0.8,0.2,0.2,0.2,0.8","0.8,0.2,0.2,0.2,0.8,0.2,0.2,0.2,0.8","1","",""
"","html-keyboard-response","71","32248","0.0-71.0","3H8DHMCCWAX7Q1P9EK2VNJO3BL7KD9","A334VWE4QGAZFR","3L1EFR8WWTRIL5MKAR1UWRHK4IC9FJ","","null","<img src=""img/land4.png"" style=""width:200px;border:14px solid red;"">","null","","","","","","","","","",""
"","image-keyboard-response","72","32394","0.0-72.0","3H8DHMCCWAX7Q1P9EK2VNJO3BL7KD9","A334VWE4QGAZFR","3L1EFR8WWTRIL5MKAR1UWRHK4IC9FJ","","145","img/land5.png","75","146","2","1","2","1","0.8,0.2,0.2,0.2,0.8,0.2,0.2,0.2,0.8","0.8,0.2,0.2,0.2,0.8,0.2,0.2,0.2,0.8","1","",""
"","html-keyboard-response","73","32695","0.0-73.0","3H8DHMCCWAX7Q1P9EK2VNJO3BL7KD9","A334VWE4QGAZFR","3L1EFR8WWTRIL5MKAR1UWRHK4IC9FJ","","null","<img src=""img/land5.png"" style=""width:200px; border:14px solid green;"">","null","","","","","","","","","",""
"","image-keyboard-response","74","32703","0.0-74.0","3H8DHMCCWAX7Q1P9EK2VNJO3BL7KD9","A334VWE4QGAZFR","3L1EFR8WWTRIL5MKAR1UWRHK4IC9FJ","","8","img/land4.png","75","8","2","0","3","1","0.8,0.2,0.2,0.2,0.8,0.2,0.2,0.2,0.8","0.8,0.2,0.2,0.2,0.8,0.2,0.2,0.2,0.8","1","",""
"","html-keyboard-response","75","33004","0.0-75.0","3H8DHMCCWAX7Q1P9EK2VNJO3BL7KD9","A334VWE4QGAZFR","3L1EFR8WWTRIL5MKAR1UWRHK4IC9FJ","","null","<img src=""img/land4.png"" style=""width:200px;border:14px solid red;"">","null","","","","","","","","","",""
"","image-keyboard-response","76","33048","0.0-76.0","3H8DHMCCWAX7Q1P9EK2VNJO3BL7KD9","A334VWE4QGAZFR","3L1EFR8WWTRIL5MKAR1UWRHK4IC9FJ","","43","img/land4.png","74","44","1","0","3","1","0.8,0.2,0.2,0.2,0.8,0.2,0.2,0.2,0.8","0.8,0.2,0.2,0.2,0.8,0.2,0.2,0.2,0.8","1","",""
"","html-keyboard-response","77","33350","0.0-77.0","3H8DHMCCWAX7Q1P9EK2VNJO3BL7KD9","A334VWE4QGAZFR","3L1EFR8WWTRIL5MKAR1UWRHK4IC9FJ","","null","<img src=""img/land4.png"" style=""width:200px;border:14px solid red;"">","null","","","","","","","","","",""
"","image-keyboard-response","78","33389","0.0-78.0","3H8DHMCCWAX7Q1P9EK2VNJO3BL7KD9","A334VWE4QGAZFR","3L1EFR8WWTRIL5MKAR1UWRHK4IC9FJ","","39","img/land1.png","74","39","1","1","1","1","0.8,0.2,0.2,0.2,0.8,0.2,0.2,0.2,0.8","0.8,0.2,0.2,0.2,0.8,0.2,0.2,0.2,0.8","1","",""
"","html-keyboard-response","79","33689","0.0-79.0","3H8DHMCCWAX7Q1P9EK2VNJO3BL7KD9","A334VWE4QGAZFR","3L1EFR8WWTRIL5MKAR1UWRHK4IC9FJ","","null","<img src=""img/land1.png"" style=""width:200px; border:14px solid green;"">","null","","","","","","","","","",""
"","image-keyboard-response","80","33843","0.0-80.0","3H8DHMCCWAX7Q1P9EK2VNJO3BL7KD9","A334VWE4QGAZFR","3L1EFR8WWTRIL5MKAR1UWRHK4IC9FJ","","154","img/land4.png","75","154","2","0","3","1","0.8,0.2,0.2,0.2,0.8,0.2,0.2,0.2,0.8","0.8,0.2,0.2,0.2,0.8,0.2,0.2,0.2,0.8","1","",""
"","html-keyboard-response","81","34144","0.0-81.0","3H8DHMCCWAX7Q1P9EK2VNJO3BL7KD9","A334VWE4QGAZFR","3L1EFR8WWTRIL5MKAR1UWRHK4IC9FJ","","null","<img src=""img/land4.png"" style=""width:200px;border:14px solid red;"">","null","","","","","","","","","",""
"","image-keyboard-response","82","34251","0.0-82.0","3H8DHMCCWAX7Q1P9EK2VNJO3BL7KD9","A334VWE4QGAZFR","3L1EFR8WWTRIL5MKAR1UWRHK4IC9FJ","","106","img/land1.png","74","107","1","1","1","1","0.8,0.2,0.2,0.2,0.8,0.2,0.2,0.2,0.8","0.8,0.2,0.2,0.2,0.8,0.2,0.2,0.2,0.8","1","",""
"","html-keyboard-response","83","34552","0.0-83.0","3H8DHMCCWAX7Q1P9EK2VNJO3BL7KD9","A334VWE4QGAZFR","3L1EFR8WWTRIL5MKAR1UWRHK4IC9FJ","","null","<img src=""img/land1.png"" style=""width:200px; border:14px solid green;"">","null","","","","","","","","","",""
"","image-keyboard-response","84","34567","0.0-84.0","3H8DHMCCWAX7Q1P9EK2VNJO3BL7KD9","A334VWE4QGAZFR","3L1EFR8WWTRIL5MKAR1UWRHK4IC9FJ","","14","img/land4.png","74","16","1","1","3","1","0.8,0.2,0.2,0.2,0.8,0.2,0.2,0.2,0.8","0.8,0.2,0.2,0.2,0.8,0.2,0.2,0.2,0.8","1","",""
"","html-keyboard-response","85","34868","0.0-85.0","3H8DHMCCWAX7Q1P9EK2VNJO3BL7KD9","A334VWE4QGAZFR","3L1EFR8WWTRIL5MKAR1UWRHK4IC9FJ","","null","<img src=""img/land4.png"" style=""width:200px; border:14px solid green;"">","null","","","","","","","","","",""
"","image-keyboard-response","86","35056","0.0-86.0","3H8DHMCCWAX7Q1P9EK2VNJO3BL7KD9","A334VWE4QGAZFR","3L1EFR8WWTRIL5MKAR1UWRHK4IC9FJ","","188","img/land4.png","75","188","2","0","3","1","0.8,0.2,0.2,0.2,0.8,0.2,0.2,0.2,0.8","0.8,0.2,0.2,0.2,0.8,0.2,0.2,0.2,0.8","1","",""
"","html-keyboard-response","87","35358","0.0-87.0","3H8DHMCCWAX7Q1P9EK2VNJO3BL7KD9","A334VWE4QGAZFR","3L1EFR8WWTRIL5MKAR1UWRHK4IC9FJ","","null","<img src=""img/land4.png"" style=""width:200px;border:14px solid red;"">","null","","","","","","","","","",""
"","image-keyboard-response","88","35373","0.0-88.0","3H8DHMCCWAX7Q1P9EK2VNJO3BL7KD9","A334VWE4QGAZFR","3L1EFR8WWTRIL5MKAR1UWRHK4IC9FJ","","14","img/land4.png","75","15","2","1","3","1","0.8,0.2,0.2,0.2,0.8,0.2,0.2,0.2,0.8","0.8,0.2,0.2,0.2,0.8,0.2,0.2,0.2,0.8","1","",""
"","html-keyboard-response","89","35673","0.0-89.0","3H8DHMCCWAX7Q1P9EK2VNJO3BL7KD9","A334VWE4QGAZFR","3L1EFR8WWTRIL5MKAR1UWRHK4IC9FJ","","null","<img src=""img/land4.png"" style=""width:200px; border:14px solid green;"">","null","","","","","","","","","",""
"","image-keyboard-response","90","35763","0.0-90.0","3H8DHMCCWAX7Q1P9EK2VNJO3BL7KD9","A334VWE4QGAZFR","3L1EFR8WWTRIL5MKAR1UWRHK4IC9FJ","","89","img/land1.png","76","90","3","0","1","1","0.8,0.2,0.2,0.2,0.8,0.2,0.2,0.2,0.8","0.8,0.2,0.2,0.2,0.8,0.2,0.2,0.2,0.8","1","",""
"","html-keyboard-response","91","36065","0.0-91.0","3H8DHMCCWAX7Q1P9EK2VNJO3BL7KD9","A334VWE4QGAZFR","3L1EFR8WWTRIL5MKAR1UWRHK4IC9FJ","","null","<img src=""img/land1.png"" style=""width:200px;border:14px solid red;"">","null","","","","","","","","","",""
"","image-keyboard-response","92","36109","0.0-92.0","3H8DHMCCWAX7Q1P9EK2VNJO3BL7KD9","A334VWE4QGAZFR","3L1EFR8WWTRIL5MKAR1UWRHK4IC9FJ","","44","img/land1.png","75","44","2","0","1","1","0.8,0.2,0.2,0.2,0.8,0.2,0.2,0.2,0.8","0.8,0.2,0.2,0.2,0.8,0.2,0.2,0.2,0.8","1","",""
"","html-keyboard-response","93","36410","0.0-93.0","3H8DHMCCWAX7Q1P9EK2VNJO3BL7KD9","A334VWE4QGAZFR","3L1EFR8WWTRIL5MKAR1UWRHK4IC9FJ","","null","<img src=""img/land1.png"" style=""width:200px;border:14px solid red;"">","null","","","","","","","","","",""
"","image-keyboard-response","94","36420","0.0-94.0","3H8DHMCCWAX7Q1P9EK2VNJO3BL7KD9","A334VWE4QGAZFR","3L1EFR8WWTRIL5MKAR1UWRHK4IC9FJ","","9","img/land4.png","75","10","2","0","3","1","0.8,0.2,0.2,0.2,0.8,0.2,0.2,0.2,0.8","0.8,0.2,0.2,0.2,0.8,0.2,0.2,0.2,0.8","1","",""
"","html-keyboard-response","95","36722","0.0-95.0","3H8DHMCCWAX7Q1P9EK2VNJO3BL7KD9","A334VWE4QGAZFR","3L1EFR8WWTRIL5MKAR1UWRHK4IC9FJ","","null","<img src=""img/land4.png"" style=""width:200px;border:14px solid red;"">","null","","","","","","","","","",""
"","image-keyboard-response","96","36733","0.0-96.0","3H8DHMCCWAX7Q1P9EK2VNJO3BL7KD9","A334VWE4QGAZFR","3L1EFR8WWTRIL5MKAR1UWRHK4IC9FJ","","10","img/land5.png","75","11","2","0","2","1","0.8,0.2,0.2,0.2,0.8,0.2,0.2,0.2,0.8","0.8,0.2,0.2,0.2,0.8,0.2,0.2,0.2,0.8","1","",""
"","html-keyboard-response","97","37035","0.0-97.0","3H8DHMCCWAX7Q1P9EK2VNJO3BL7KD9","A334VWE4QGAZFR","3L1EFR8WWTRIL5MKAR1UWRHK4IC9FJ","","null","<img src=""img/land5.png"" style=""width:200px;border:14px solid red;"">","null","","","","","","","","","",""
"","image-keyboard-response","98","37061","0.0-98.0","3H8DHMCCWAX7Q1P9EK2VNJO3BL7KD9","A334VWE4QGAZFR","3L1EFR8WWTRIL5MKAR1UWRHK4IC9FJ","","25","img/land1.png","75","26","2","0","1","1","0.8,0.2,0.2,0.2,0.8,0.2,0.2,0.2,0.8","0.8,0.2,0.2,0.2,0.8,0.2,0.2,0.2,0.8","1","",""
"","html-keyboard-response","99","37363","0.0-99.0","3H8DHMCCWAX7Q1P9EK2VNJO3BL7KD9","A334VWE4QGAZFR","3L1EFR8WWTRIL5MKAR1UWRHK4IC9FJ","","null","<img src=""img/land1.png"" style=""width:200px;border:14px solid red;"">","null","","","","","","","","","",""
"","image-keyboard-response","100","37380","0.0-100.0","3H8DHMCCWAX7Q1P9EK2VNJO3BL7KD9","A334VWE4QGAZFR","3L1EFR8WWTRIL5MKAR1UWRHK4IC9FJ","","17","img/land5.png","76","17","3","0","2","1","0.8,0.2,0.2,0.2,0.8,0.2,0.2,0.2,0.8","0.8,0.2,0.2,0.2,0.8,0.2,0.2,0.2,0.8","1","",""
"","html-keyboard-response","101","37681","0.0-101.0","3H8DHMCCWAX7Q1P9EK2VNJO3BL7KD9","A334VWE4QGAZFR","3L1EFR8WWTRIL5MKAR1UWRHK4IC9FJ","","null","<img src=""img/land5.png"" style=""width:200px;border:14px solid red;"">","null","","","","","","","","","",""
"","image-keyboard-response","102","37690","0.0-102.0","3H8DHMCCWAX7Q1P9EK2VNJO3BL7KD9","A334VWE4QGAZFR","3L1EFR8WWTRIL5MKAR1UWRHK4IC9FJ","","9","img/land5.png","76","9","3","1","2","1","0.8,0.2,0.2,0.2,0.8,0.2,0.2,0.2,0.8","0.8,0.2,0.2,0.2,0.8,0.2,0.2,0.2,0.8","1","",""
"","html-keyboard-response","103","37992","0.0-103.0","3H8DHMCCWAX7Q1P9EK2VNJO3BL7KD9","A334VWE4QGAZFR","3L1EFR8WWTRIL5MKAR1UWRHK4IC9FJ","","null","<img src=""img/land5.png"" style=""width:200px; border:14px solid green;"">","null","","","","","","","","","",""
"","image-keyboard-response","104","38113","0.0-104.0","3H8DHMCCWAX7Q1P9EK2VNJO3BL7KD9","A334VWE4QGAZFR","3L1EFR8WWTRIL5MKAR1UWRHK4IC9FJ","","121","img/land4.png","74","122","1","0","3","1","0.8,0.2,0.2,0.2,0.8,0.2,0.2,0.2,0.8","0.8,0.2,0.2,0.2,0.8,0.2,0.2,0.2,0.8","1","",""
"","html-keyboard-response","105","38414","0.0-105.0","3H8DHMCCWAX7Q1P9EK2VNJO3BL7KD9","A334VWE4QGAZFR","3L1EFR8WWTRIL5MKAR1UWRHK4IC9FJ","","null","<img src=""img/land4.png"" style=""width:200px;border:14px solid red;"">","null","","","","","","","","","",""
"","image-keyboard-response","106","38581","0.0-106.0","3H8DHMCCWAX7Q1P9EK2VNJO3BL7KD9","A334VWE4QGAZFR","3L1EFR8WWTRIL5MKAR1UWRHK4IC9FJ","","165","img/land4.png","76","167","3","1","3","1","0.8,0.2,0.2,0.2,0.8,0.2,0.2,0.2,0.8","0.8,0.2,0.2,0.2,0.8,0.2,0.2,0.2,0.8","1","",""
"","html-keyboard-response","107","38882","0.0-107.0","3H8DHMCCWAX7Q1P9EK2VNJO3BL7KD9","A334VWE4QGAZFR","3L1EFR8WWTRIL5MKAR1UWRHK4IC9FJ","","null","<img src=""img/land4.png"" style=""width:200px; border:14px solid green;"">","null","","","","","","","","","",""
"","image-keyboard-response","108","38928","0.0-108.0","3H8DHMCCWAX7Q1P9EK2VNJO3BL7KD9","A334VWE4QGAZFR","3L1EFR8WWTRIL5MKAR1UWRHK4IC9FJ","","45","img/land1.png","75","46","2","0","1","1","0.8,0.2,0.2,0.2,0.8,0.2,0.2,0.2,0.8","0.8,0.2,0.2,0.2,0.8,0.2,0.2,0.2,0.8","1","",""
"","html-keyboard-response","109","39230","0.0-109.0","3H8DHMCCWAX7Q1P9EK2VNJO3BL7KD9","A334VWE4QGAZFR","3L1EFR8WWTRIL5MKAR1UWRHK4IC9FJ","","null","<img src=""img/land1.png"" style=""width:200px;border:14px solid red;"">","null","","","","","","","","","",""
"","image-keyboard-response","110","39246","0.0-110.0","3H8DHMCCWAX7Q1P9EK2VNJO3BL7KD9","A334VWE4QGAZFR","3L1EFR8WWTRIL5MKAR1UWRHK4IC9FJ","","15","img/land1.png","75","16","2","0","1","1","0.8,0.2,0.2,0.2,0.8,0.2,0.2,0.2,0.8","0.8,0.2,0.2,0.2,0.8,0.2,0.2,0.2,0.8","1","",""
"","html-keyboard-response","111","39547","0.0-111.0","3H8DHMCCWAX7Q1P9EK2VNJO3BL7KD9","A334VWE4QGAZFR","3L1EFR8WWTRIL5MKAR1UWRHK4IC9FJ","","null","<img src=""img/land1.png"" style=""width:200px;border:14px solid red;"">","null","","","","","","","","","",""
"","image-keyboard-response","112","39616","0.0-112.0","3H8DHMCCWAX7Q1P9EK2VNJO3BL7KD9","A334VWE4QGAZFR","3L1EFR8WWTRIL5MKAR1UWRHK4IC9FJ","","69","img/land5.png","74","69","1","1","2","1","0.8,0.2,0.2,0.2,0.8,0.2,0.2,0.2,0.8","0.8,0.2,0.2,0.2,0.8,0.2,0.2,0.2,0.8","1","",""
"","html-keyboard-response","113","39918","0.0-113.0","3H8DHMCCWAX7Q1P9EK2VNJO3BL7KD9","A334VWE4QGAZFR","3L1EFR8WWTRIL5MKAR1UWRHK4IC9FJ","","null","<img src=""img/land5.png"" style=""width:200px; border:14px solid green;"">","null","","","","","","","","","",""
"","image-keyboard-response","114","40011","0.0-114.0","3H8DHMCCWAX7Q1P9EK2VNJO3BL7KD9","A334VWE4QGAZFR","3L1EFR8WWTRIL5MKAR1UWRHK4IC9FJ","","92","img/land1.png","75","93","2","0","1","1","0.8,0.2,0.2,0.2,0.8,0.2,0.2,0.2,0.8","0.8,0.2,0.2,0.2,0.8,0.2,0.2,0.2,0.8","1","",""
"","html-keyboard-response","115","40312","0.0-115.0","3H8DHMCCWAX7Q1P9EK2VNJO3BL7KD9","A334VWE4QGAZFR","3L1EFR8WWTRIL5MKAR1UWRHK4IC9FJ","","null","<img src=""img/land1.png"" style=""width:200px;border:14px solid red;"">","null","","","","","","","","","",""
"","image-keyboard-response","116","40478","0.0-116.0","3H8DHMCCWAX7Q1P9EK2VNJO3BL7KD9","A334VWE4QGAZFR","3L1EFR8WWTRIL5MKAR1UWRHK4IC9FJ","","166","img/land5.png","76","166","3","0","2","1","0.8,0.2,0.2,0.2,0.8,0.2,0.2,0.2,0.8","0.8,0.2,0.2,0.2,0.8,0.2,0.2,0.2,0.8","1","",""
"","html-keyboard-response","117","40780","0.0-117.0","3H8DHMCCWAX7Q1P9EK2VNJO3BL7KD9","A334VWE4QGAZFR","3L1EFR8WWTRIL5MKAR1UWRHK4IC9FJ","","null","<img src=""img/land5.png"" style=""width:200px;border:14px solid red;"">","null","","","","","","","","","",""
"","image-keyboard-response","118","40907","0.0-118.0","3H8DHMCCWAX7Q1P9EK2VNJO3BL7KD9","A334VWE4QGAZFR","3L1EFR8WWTRIL5MKAR1UWRHK4IC9FJ","","126","img/land1.png","74","127","1","1","1","1","0.8,0.2,0.2,0.2,0.8,0.2,0.2,0.2,0.8","0.8,0.2,0.2,0.2,0.8,0.2,0.2,0.2,0.8","1","",""
"","html-keyboard-response","119","41207","0.0-119.0","3H8DHMCCWAX7Q1P9EK2VNJO3BL7KD9","A334VWE4QGAZFR","3L1EFR8WWTRIL5MKAR1UWRHK4IC9FJ","","null","<img src=""img/land1.png"" style=""width:200px; border:14px solid green;"">","null","","","","","","","","","",""
"","image-keyboard-response","120","41222","0.0-120.0","3H8DHMCCWAX7Q1P9EK2VNJO3BL7KD9","A334VWE4QGAZFR","3L1EFR8WWTRIL5MKAR1UWRHK4IC9FJ","","15","img/land4.png","74","15","1","0","3","1","0.8,0.2,0.2,0.2,0.8,0.2,0.2,0.2,0.8","0.8,0.2,0.2,0.2,0.8,0.2,0.2,0.2,0.8","1","",""
"","html-keyboard-response","121","41524","0.0-121.0","3H8DHMCCWAX7Q1P9EK2VNJO3BL7KD9","A334VWE4QGAZFR","3L1EFR8WWTRIL5MKAR1UWRHK4IC9FJ","","null","<img src=""img/land4.png"" style=""width:200px;border:14px solid red;"">","null","","","","","","","","","",""
"","image-keyboard-response","122","41550","0.0-122.0","3H8DHMCCWAX7Q1P9EK2VNJO3BL7KD9","A334VWE4QGAZFR","3L1EFR8WWTRIL5MKAR1UWRHK4IC9FJ","","24","img/land1.png","74","26","1","0","1","1","0.8,0.2,0.2,0.2,0.8,0.2,0.2,0.2,0.8","0.8,0.2,0.2,0.2,0.8,0.2,0.2,0.2,0.8","1","",""
"","html-keyboard-response","123","41851","0.0-123.0","3H8DHMCCWAX7Q1P9EK2VNJO3BL7KD9","A334VWE4QGAZFR","3L1EFR8WWTRIL5MKAR1UWRHK4IC9FJ","","null","<img src=""img/land1.png"" style=""width:200px;border:14px solid red;"">","null","","","","","","","","","",""
"","image-keyboard-response","124","41889","0.0-124.0","3H8DHMCCWAX7Q1P9EK2VNJO3BL7KD9","A334VWE4QGAZFR","3L1EFR8WWTRIL5MKAR1UWRHK4IC9FJ","","36","img/land4.png","74","38","1","0","3","1","0.8,0.2,0.2,0.2,0.8,0.2,0.2,0.2,0.8","0.8,0.2,0.2,0.2,0.8,0.2,0.2,0.2,0.8","1","",""
"","html-keyboard-response","125","42189","0.0-125.0","3H8DHMCCWAX7Q1P9EK2VNJO3BL7KD9","A334VWE4QGAZFR","3L1EFR8WWTRIL5MKAR1UWRHK4IC9FJ","","null","<img src=""img/land4.png"" style=""width:200px;border:14px solid red;"">","null","","","","","","","","","",""
"","image-keyboard-response","126","42209","0.0-126.0","3H8DHMCCWAX7Q1P9EK2VNJO3BL7KD9","A334VWE4QGAZFR","3L1EFR8WWTRIL5MKAR1UWRHK4IC9FJ","","18","img/land4.png","74","20","1","0","3","1","0.8,0.2,0.2,0.2,0.8,0.2,0.2,0.2,0.8","0.8,0.2,0.2,0.2,0.8,0.2,0.2,0.2,0.8","1","",""
"","html-keyboard-response","127","42510","0.0-127.0","3H8DHMCCWAX7Q1P9EK2VNJO3BL7KD9","A334VWE4QGAZFR","3L1EFR8WWTRIL5MKAR1UWRHK4IC9FJ","","null","<img src=""img/land4.png"" style=""width:200px;border:14px solid red;"">","null","","","","","","","","","",""
"","image-keyboard-response","128","42523","0.0-128.0","3H8DHMCCWAX7Q1P9EK2VNJO3BL7KD9","A334VWE4QGAZFR","3L1EFR8WWTRIL5MKAR1UWRHK4IC9FJ","","13","img/land5.png","74","13","1","0","2","1","0.8,0.2,0.2,0.2,0.8,0.2,0.2,0.2,0.8","0.8,0.2,0.2,0.2,0.8,0.2,0.2,0.2,0.8","1","",""
"","html-keyboard-response","129","42824","0.0-129.0","3H8DHMCCWAX7Q1P9EK2VNJO3BL7KD9","A334VWE4QGAZFR","3L1EFR8WWTRIL5MKAR1UWRHK4IC9FJ","","null","<img src=""img/land5.png"" style=""width:200px;border:14px solid red;"">","null","","","","","","","","","",""
"","image-keyboard-response","130","42852","0.0-130.0","3H8DHMCCWAX7Q1P9EK2VNJO3BL7KD9","A334VWE4QGAZFR","3L1EFR8WWTRIL5MKAR1UWRHK4IC9FJ","","27","img/land4.png","74","28","1","0","3","1","0.8,0.2,0.2,0.2,0.8,0.2,0.2,0.2,0.8","0.8,0.2,0.2,0.2,0.8,0.2,0.2,0.2,0.8","1","",""
"","html-keyboard-response","131","43153","0.0-131.0","3H8DHMCCWAX7Q1P9EK2VNJO3BL7KD9","A334VWE4QGAZFR","3L1EFR8WWTRIL5MKAR1UWRHK4IC9FJ","","null","<img src=""img/land4.png"" style=""width:200px;border:14px solid red;"">","null","","","","","","","","","",""
"","image-keyboard-response","132","43278","0.0-132.0","3H8DHMCCWAX7Q1P9EK2VNJO3BL7KD9","A334VWE4QGAZFR","3L1EFR8WWTRIL5MKAR1UWRHK4IC9FJ","","125","img/land1.png","74","125","1","1","1","1","0.8,0.2,0.2,0.2,0.8,0.2,0.2,0.2,0.8","0.8,0.2,0.2,0.2,0.8,0.2,0.2,0.2,0.8","1","",""
"","html-keyboard-response","133","43578","0.0-133.0","3H8DHMCCWAX7Q1P9EK2VNJO3BL7KD9","A334VWE4QGAZFR","3L1EFR8WWTRIL5MKAR1UWRHK4IC9FJ","","null","<img src=""img/land1.png"" style=""width:200px; border:14px solid green;"">","null","","","","","","","","","",""
"","image-keyboard-response","134","43725","0.0-134.0","3H8DHMCCWAX7Q1P9EK2VNJO3BL7KD9","A334VWE4QGAZFR","3L1EFR8WWTRIL5MKAR1UWRHK4IC9FJ","","146","img/land5.png","75","146","2","1","2","1","0.8,0.2,0.2,0.2,0.8,0.2,0.2,0.2,0.8","0.8,0.2,0.2,0.2,0.8,0.2,0.2,0.2,0.8","1","",""
"","html-keyboard-response","135","44026","0.0-135.0","3H8DHMCCWAX7Q1P9EK2VNJO3BL7KD9","A334VWE4QGAZFR","3L1EFR8WWTRIL5MKAR1UWRHK4IC9FJ","","null","<img src=""img/land5.png"" style=""width:200px; border:14px solid green;"">","null","","","","","","","","","",""
"","image-keyboard-response","136","44163","0.0-136.0","3H8DHMCCWAX7Q1P9EK2VNJO3BL7KD9","A334VWE4QGAZFR","3L1EFR8WWTRIL5MKAR1UWRHK4IC9FJ","","137","img/land5.png","75","137","2","1","2","1","0.8,0.2,0.2,0.2,0.8,0.2,0.2,0.2,0.8","0.8,0.2,0.2,0.2,0.8,0.2,0.2,0.2,0.8","1","",""
"","html-keyboard-response","137","44465","0.0-137.0","3H8DHMCCWAX7Q1P9EK2VNJO3BL7KD9","A334VWE4QGAZFR","3L1EFR8WWTRIL5MKAR1UWRHK4IC9FJ","","null","<img src=""img/land5.png"" style=""width:200px; border:14px solid green;"">","null","","","","","","","","","",""
"","image-keyboard-response","138","44539","0.0-138.0","3H8DHMCCWAX7Q1P9EK2VNJO3BL7KD9","A334VWE4QGAZFR","3L1EFR8WWTRIL5MKAR1UWRHK4IC9FJ","","72","img/land5.png","74","74","1","0","2","1","0.8,0.2,0.2,0.2,0.8,0.2,0.2,0.2,0.8","0.8,0.2,0.2,0.2,0.8,0.2,0.2,0.2,0.8","1","",""
"","html-keyboard-response","139","44841","0.0-139.0","3H8DHMCCWAX7Q1P9EK2VNJO3BL7KD9","A334VWE4QGAZFR","3L1EFR8WWTRIL5MKAR1UWRHK4IC9FJ","","null","<img src=""img/land5.png"" style=""width:200px;border:14px solid red;"">","null","","","","","","","","","",""
"","image-keyboard-response","140","45017","0.0-140.0","3H8DHMCCWAX7Q1P9EK2VNJO3BL7KD9","A334VWE4QGAZFR","3L1EFR8WWTRIL5MKAR1UWRHK4IC9FJ","","175","img/land4.png","75","176","2","0","3","1","0.8,0.2,0.2,0.2,0.8,0.2,0.2,0.2,0.8","0.8,0.2,0.2,0.2,0.8,0.2,0.2,0.2,0.8","1","",""
"","html-keyboard-response","141","45317","0.0-141.0","3H8DHMCCWAX7Q1P9EK2VNJO3BL7KD9","A334VWE4QGAZFR","3L1EFR8WWTRIL5MKAR1UWRHK4IC9FJ","","null","<img src=""img/land4.png"" style=""width:200px;border:14px solid red;"">","null","","","","","","","","","",""
"","image-keyboard-response","142","45455","0.0-142.0","3H8DHMCCWAX7Q1P9EK2VNJO3BL7KD9","A334VWE4QGAZFR","3L1EFR8WWTRIL5MKAR1UWRHK4IC9FJ","","138","img/land5.png","74","138","1","0","2","1","0.8,0.2,0.2,0.2,0.8,0.2,0.2,0.2,0.8","0.8,0.2,0.2,0.2,0.8,0.2,0.2,0.2,0.8","1","",""
"","html-keyboard-response","143","45755","0.0-143.0","3H8DHMCCWAX7Q1P9EK2VNJO3BL7KD9","A334VWE4QGAZFR","3L1EFR8WWTRIL5MKAR1UWRHK4IC9FJ","","null","<img src=""img/land5.png"" style=""width:200px;border:14px solid red;"">","null","","","","","","","","","",""
"","image-keyboard-response","144","45791","0.0-144.0","3H8DHMCCWAX7Q1P9EK2VNJO3BL7KD9","A334VWE4QGAZFR","3L1EFR8WWTRIL5MKAR1UWRHK4IC9FJ","","35","img/land1.png","74","36","1","1","1","1","0.8,0.2,0.2,0.2,0.8,0.2,0.2,0.2,0.8","0.8,0.2,0.2,0.2,0.8,0.2,0.2,0.2,0.8","1","",""
"","html-keyboard-response","145","46098","0.0-145.0","3H8DHMCCWAX7Q1P9EK2VNJO3BL7KD9","A334VWE4QGAZFR","3L1EFR8WWTRIL5MKAR1UWRHK4IC9FJ","","null","<img src=""img/land1.png"" style=""width:200px; border:14px solid green;"">","null","","","","","","","","","",""
"","image-keyboard-response","146","46154","0.0-146.0","3H8DHMCCWAX7Q1P9EK2VNJO3BL7KD9","A334VWE4QGAZFR","3L1EFR8WWTRIL5MKAR1UWRHK4IC9FJ","","55","img/land4.png","74","56","1","1","3","1","0.8,0.2,0.2,0.2,0.8,0.2,0.2,0.2,0.8","0.8,0.2,0.2,0.2,0.8,0.2,0.2,0.2,0.8","1","",""
"","html-keyboard-response","147","46456","0.0-147.0","3H8DHMCCWAX7Q1P9EK2VNJO3BL7KD9","A334VWE4QGAZFR","3L1EFR8WWTRIL5MKAR1UWRHK4IC9FJ","","null","<img src=""img/land4.png"" style=""width:200px; border:14px solid green;"">","null","","","","","","","","","",""
"","image-keyboard-response","148","46566","0.0-148.0","3H8DHMCCWAX7Q1P9EK2VNJO3BL7KD9","A334VWE4QGAZFR","3L1EFR8WWTRIL5MKAR1UWRHK4IC9FJ","","109","img/land4.png","75","110","2","0","3","1","0.8,0.2,0.2,0.2,0.8,0.2,0.2,0.2,0.8","0.8,0.2,0.2,0.2,0.8,0.2,0.2,0.2,0.8","1","",""
"","html-keyboard-response","149","46868","0.0-149.0","3H8DHMCCWAX7Q1P9EK2VNJO3BL7KD9","A334VWE4QGAZFR","3L1EFR8WWTRIL5MKAR1UWRHK4IC9FJ","","null","<img src=""img/land4.png"" style=""width:200px;border:14px solid red;"">","null","","","","","","","","","",""
"","image-keyboard-response","150","46893","0.0-150.0","3H8DHMCCWAX7Q1P9EK2VNJO3BL7KD9","A334VWE4QGAZFR","3L1EFR8WWTRIL5MKAR1UWRHK4IC9FJ","","24","img/land4.png","76","24","3","0","3","1","0.8,0.2,0.2,0.2,0.8,0.2,0.2,0.2,0.8","0.8,0.2,0.2,0.2,0.8,0.2,0.2,0.2,0.8","1","",""
"","html-keyboard-response","151","47194","0.0-151.0","3H8DHMCCWAX7Q1P9EK2VNJO3BL7KD9","A334VWE4QGAZFR","3L1EFR8WWTRIL5MKAR1UWRHK4IC9FJ","","null","<img src=""img/land4.png"" style=""width:200px;border:14px solid red;"">","null","","","","","","","","","",""
"","image-keyboard-response","152","47310","0.0-152.0","3H8DHMCCWAX7Q1P9EK2VNJO3BL7KD9","A334VWE4QGAZFR","3L1EFR8WWTRIL5MKAR1UWRHK4IC9FJ","","115","img/land5.png","75","116","2","1","2","1","0.8,0.2,0.2,0.2,0.8,0.2,0.2,0.2,0.8","0.8,0.2,0.2,0.2,0.8,0.2,0.2,0.2,0.8","1","",""
"","html-keyboard-response","153","47612","0.0-153.0","3H8DHMCCWAX7Q1P9EK2VNJO3BL7KD9","A334VWE4QGAZFR","3L1EFR8WWTRIL5MKAR1UWRHK4IC9FJ","","null","<img src=""img/land5.png"" style=""width:200px; border:14px solid green;"">","null","","","","","","","","","",""
"","image-keyboard-response","154","47778","0.0-154.0","3H8DHMCCWAX7Q1P9EK2VNJO3BL7KD9","A334VWE4QGAZFR","3L1EFR8WWTRIL5MKAR1UWRHK4IC9FJ","","166","img/land4.png","74","166","1","0","3","1","0.8,0.2,0.2,0.2,0.8,0.2,0.2,0.2,0.8","0.8,0.2,0.2,0.2,0.8,0.2,0.2,0.2,0.8","1","",""
"","html-keyboard-response","155","48079","0.0-155.0","3H8DHMCCWAX7Q1P9EK2VNJO3BL7KD9","A334VWE4QGAZFR","3L1EFR8WWTRIL5MKAR1UWRHK4IC9FJ","","null","<img src=""img/land4.png"" style=""width:200px;border:14px solid red;"">","null","","","","","","","","","",""
"","image-keyboard-response","156","48255","0.0-156.0","3H8DHMCCWAX7Q1P9EK2VNJO3BL7KD9","A334VWE4QGAZFR","3L1EFR8WWTRIL5MKAR1UWRHK4IC9FJ","","176","img/land4.png","75","176","2","1","3","1","0.8,0.2,0.2,0.2,0.8,0.2,0.2,0.2,0.8","0.8,0.2,0.2,0.2,0.8,0.2,0.2,0.2,0.8","1","",""
"","html-keyboard-response","157","48556","0.0-157.0","3H8DHMCCWAX7Q1P9EK2VNJO3BL7KD9","A334VWE4QGAZFR","3L1EFR8WWTRIL5MKAR1UWRHK4IC9FJ","","null","<img src=""img/land4.png"" style=""width:200px; border:14px solid green;"">","null","","","","","","","","","",""
"","image-keyboard-response","158","48670","0.0-158.0","3H8DHMCCWAX7Q1P9EK2VNJO3BL7KD9","A334VWE4QGAZFR","3L1EFR8WWTRIL5MKAR1UWRHK4IC9FJ","","114","img/land5.png","74","114","1","0","2","1","0.8,0.2,0.2,0.2,0.8,0.2,0.2,0.2,0.8","0.8,0.2,0.2,0.2,0.8,0.2,0.2,0.2,0.8","1","",""
"","html-keyboard-response","159","48972","0.0-159.0","3H8DHMCCWAX7Q1P9EK2VNJO3BL7KD9","A334VWE4QGAZFR","3L1EFR8WWTRIL5MKAR1UWRHK4IC9FJ","","null","<img src=""img/land5.png"" style=""width:200px;border:14px solid red;"">","null","","","","","","","","","",""
"","image-keyboard-response","160","49121","0.0-160.0","3H8DHMCCWAX7Q1P9EK2VNJO3BL7KD9","A334VWE4QGAZFR","3L1EFR8WWTRIL5MKAR1UWRHK4IC9FJ","","149","img/land5.png","75","149","2","1","2","1","0.8,0.2,0.2,0.2,0.8,0.2,0.2,0.2,0.8","0.8,0.2,0.2,0.2,0.8,0.2,0.2,0.2,0.8","1","",""
"","html-keyboard-response","161","49422","0.0-161.0","3H8DHMCCWAX7Q1P9EK2VNJO3BL7KD9","A334VWE4QGAZFR","3L1EFR8WWTRIL5MKAR1UWRHK4IC9FJ","","null","<img src=""img/land5.png"" style=""width:200px; border:14px solid green;"">","null","","","","","","","","","",""
"","image-keyboard-response","162","49567","0.0-162.0","3H8DHMCCWAX7Q1P9EK2VNJO3BL7KD9","A334VWE4QGAZFR","3L1EFR8WWTRIL5MKAR1UWRHK4IC9FJ","","145","img/land5.png","74","145","1","0","2","1","0.8,0.2,0.2,0.2,0.8,0.2,0.2,0.2,0.8","0.8,0.2,0.2,0.2,0.8,0.2,0.2,0.2,0.8","1","",""
"","html-keyboard-response","163","49868","0.0-163.0","3H8DHMCCWAX7Q1P9EK2VNJO3BL7KD9","A334VWE4QGAZFR","3L1EFR8WWTRIL5MKAR1UWRHK4IC9FJ","","null","<img src=""img/land5.png"" style=""width:200px;border:14px solid red;"">","null","","","","","","","","","",""
"","image-keyboard-response","164","49884","0.0-164.0","3H8DHMCCWAX7Q1P9EK2VNJO3BL7KD9","A334VWE4QGAZFR","3L1EFR8WWTRIL5MKAR1UWRHK4IC9FJ","","15","img/land4.png","74","16","1","0","3","1","0.8,0.2,0.2,0.2,0.8,0.2,0.2,0.2,0.8","0.8,0.2,0.2,0.2,0.8,0.2,0.2,0.2,0.8","1","",""
"","html-keyboard-response","165","50186","0.0-165.0","3H8DHMCCWAX7Q1P9EK2VNJO3BL7KD9","A334VWE4QGAZFR","3L1EFR8WWTRIL5MKAR1UWRHK4IC9FJ","","null","<img src=""img/land4.png"" style=""width:200px;border:14px solid red;"">","null","","","","","","","","","",""
"","image-keyboard-response","166","50281","0.0-166.0","3H8DHMCCWAX7Q1P9EK2VNJO3BL7KD9","A334VWE4QGAZFR","3L1EFR8WWTRIL5MKAR1UWRHK4IC9FJ","","94","img/land5.png","74","95","1","0","2","1","0.8,0.2,0.2,0.2,0.8,0.2,0.2,0.2,0.8","0.8,0.2,0.2,0.2,0.8,0.2,0.2,0.2,0.8","1","",""
"","html-keyboard-response","167","50582","0.0-167.0","3H8DHMCCWAX7Q1P9EK2VNJO3BL7KD9","A334VWE4QGAZFR","3L1EFR8WWTRIL5MKAR1UWRHK4IC9FJ","","null","<img src=""img/land5.png"" style=""width:200px;border:14px solid red;"">","null","","","","","","","","","",""
"","image-keyboard-response","168","50612","0.0-168.0","3H8DHMCCWAX7Q1P9EK2VNJO3BL7KD9","A334VWE4QGAZFR","3L1EFR8WWTRIL5MKAR1UWRHK4IC9FJ","","29","img/land5.png","76","30","3","0","2","1","0.8,0.2,0.2,0.2,0.8,0.2,0.2,0.2,0.8","0.8,0.2,0.2,0.2,0.8,0.2,0.2,0.2,0.8","1","",""
"","html-keyboard-response","169","50989","0.0-169.0","3H8DHMCCWAX7Q1P9EK2VNJO3BL7KD9","A334VWE4QGAZFR","3L1EFR8WWTRIL5MKAR1UWRHK4IC9FJ","","null","<img src=""img/land5.png"" style=""width:200px;border:14px solid red;"">","null","","","","","","","","","",""
"","image-keyboard-response","170","51002","0.0-170.0","3H8DHMCCWAX7Q1P9EK2VNJO3BL7KD9","A334VWE4QGAZFR","3L1EFR8WWTRIL5MKAR1UWRHK4IC9FJ","","13","img/land1.png","75","13","2","0","1","1","0.8,0.2,0.2,0.2,0.8,0.2,0.2,0.2,0.8","0.8,0.2,0.2,0.2,0.8,0.2,0.2,0.2,0.8","1","",""
"","html-keyboard-response","171","51303","0.0-171.0","3H8DHMCCWAX7Q1P9EK2VNJO3BL7KD9","A334VWE4QGAZFR","3L1EFR8WWTRIL5MKAR1UWRHK4IC9FJ","","null","<img src=""img/land1.png"" style=""width:200px;border:14px solid red;"">","null","","","","","","","","","",""
"","image-keyboard-response","172","51333","0.0-172.0","3H8DHMCCWAX7Q1P9EK2VNJO3BL7KD9","A334VWE4QGAZFR","3L1EFR8WWTRIL5MKAR1UWRHK4IC9FJ","","29","img/land4.png","76","30","3","1","3","1","0.8,0.2,0.2,0.2,0.8,0.2,0.2,0.2,0.8","0.8,0.2,0.2,0.2,0.8,0.2,0.2,0.2,0.8","1","",""
"","html-keyboard-response","173","51634","0.0-173.0","3H8DHMCCWAX7Q1P9EK2VNJO3BL7KD9","A334VWE4QGAZFR","3L1EFR8WWTRIL5MKAR1UWRHK4IC9FJ","","null","<img src=""img/land4.png"" style=""width:200px; border:14px solid green;"">","null","","","","","","","","","",""
"","image-keyboard-response","174","51731","0.0-174.0","3H8DHMCCWAX7Q1P9EK2VNJO3BL7KD9","A334VWE4QGAZFR","3L1EFR8WWTRIL5MKAR1UWRHK4IC9FJ","","97","img/land1.png","75","97","2","1","1","1","0.8,0.2,0.2,0.2,0.8,0.2,0.2,0.2,0.8","0.8,0.2,0.2,0.2,0.8,0.2,0.2,0.2,0.8","1","",""
"","html-keyboard-response","175","52033","0.0-175.0","3H8DHMCCWAX7Q1P9EK2VNJO3BL7KD9","A334VWE4QGAZFR","3L1EFR8WWTRIL5MKAR1UWRHK4IC9FJ","","null","<img src=""img/land1.png"" style=""width:200px; border:14px solid green;"">","null","","","","","","","","","",""
"","image-keyboard-response","176","52098","0.0-176.0","3H8DHMCCWAX7Q1P9EK2VNJO3BL7KD9","A334VWE4QGAZFR","3L1EFR8WWTRIL5MKAR1UWRHK4IC9FJ","","65","img/land1.png","74","65","1","1","1","1","0.8,0.2,0.2,0.2,0.8,0.2,0.2,0.2,0.8","0.8,0.2,0.2,0.2,0.8,0.2,0.2,0.2,0.8","1","",""
"","html-keyboard-response","177","52399","0.0-177.0","3H8DHMCCWAX7Q1P9EK2VNJO3BL7KD9","A334VWE4QGAZFR","3L1EFR8WWTRIL5MKAR1UWRHK4IC9FJ","","null","<img src=""img/land1.png"" style=""width:200px; border:14px solid green;"">","null","","","","","","","","","",""
"","image-keyboard-response","178","52455","0.0-178.0","3H8DHMCCWAX7Q1P9EK2VNJO3BL7KD9","A334VWE4QGAZFR","3L1EFR8WWTRIL5MKAR1UWRHK4IC9FJ","","55","img/land1.png","74","56","1","1","1","1","0.8,0.2,0.2,0.2,0.8,0.2,0.2,0.2,0.8","0.8,0.2,0.2,0.2,0.8,0.2,0.2,0.2,0.8","1","",""
"","html-keyboard-response","179","52757","0.0-179.0","3H8DHMCCWAX7Q1P9EK2VNJO3BL7KD9","A334VWE4QGAZFR","3L1EFR8WWTRIL5MKAR1UWRHK4IC9FJ","","null","<img src=""img/land1.png"" style=""width:200px; border:14px solid green;"">","null","","","","","","","","","",""
"","image-keyboard-response","180","52863","0.0-180.0","3H8DHMCCWAX7Q1P9EK2VNJO3BL7KD9","A334VWE4QGAZFR","3L1EFR8WWTRIL5MKAR1UWRHK4IC9FJ","","105","img/land4.png","74","106","1","0","3","1","0.8,0.2,0.2,0.2,0.8,0.2,0.2,0.2,0.8","0.8,0.2,0.2,0.2,0.8,0.2,0.2,0.2,0.8","1","",""
"","html-keyboard-response","181","53165","0.0-181.0","3H8DHMCCWAX7Q1P9EK2VNJO3BL7KD9","A334VWE4QGAZFR","3L1EFR8WWTRIL5MKAR1UWRHK4IC9FJ","","null","<img src=""img/land4.png"" style=""width:200px;border:14px solid red;"">","null","","","","","","","","","",""
"","html-keyboard-response","182","56757","0.0-182.0","3H8DHMCCWAX7Q1P9EK2VNJO3BL7KD9","A334VWE4QGAZFR","3L1EFR8WWTRIL5MKAR1UWRHK4IC9FJ","","","","","","","","","","","","","",""
"","image-keyboard-response","183","58196","0.0-183.0","3H8DHMCCWAX7Q1P9EK2VNJO3BL7KD9","A334VWE4QGAZFR","3L1EFR8WWTRIL5MKAR1UWRHK4IC9FJ","","1438","img/land2.png","75","1438","2","1","1","2","0.8,0.2,0.2,0.2,0.8,0.2,0.2,0.2,0.8","0.2,0.2,0.8,0.8,0.2,0.2,0.2,0.8,0.2","2","",""
"","html-keyboard-response","184","58498","0.0-184.0","3H8DHMCCWAX7Q1P9EK2VNJO3BL7KD9","A334VWE4QGAZFR","3L1EFR8WWTRIL5MKAR1UWRHK4IC9FJ","","null","<img src=""img/land2.png"" style=""width:200px; border:14px solid green;"">","null","","","","","","","","","",""
"","image-keyboard-response","185","58504","0.0-185.0","3H8DHMCCWAX7Q1P9EK2VNJO3BL7KD9","A334VWE4QGAZFR","3L1EFR8WWTRIL5MKAR1UWRHK4IC9FJ","","5","img/land2.png","75","6","2","0","1","2","0.8,0.2,0.2,0.2,0.8,0.2,0.2,0.2,0.8","0.2,0.2,0.8,0.8,0.2,0.2,0.2,0.8,0.2","2","",""
"","html-keyboard-response","186","58806","0.0-186.0","3H8DHMCCWAX7Q1P9EK2VNJO3BL7KD9","A334VWE4QGAZFR","3L1EFR8WWTRIL5MKAR1UWRHK4IC9FJ","","null","<img src=""img/land2.png"" style=""width:200px;border:14px solid red;"">","null","","","","","","","","","",""
"","image-keyboard-response","187","58821","0.0-187.0","3H8DHMCCWAX7Q1P9EK2VNJO3BL7KD9","A334VWE4QGAZFR","3L1EFR8WWTRIL5MKAR1UWRHK4IC9FJ","","14","img/land3.png","74","15","1","1","2","2","0.8,0.2,0.2,0.2,0.8,0.2,0.2,0.2,0.8","0.2,0.2,0.8,0.8,0.2,0.2,0.2,0.8,0.2","2","",""
"","html-keyboard-response","188","59122","0.0-188.0","3H8DHMCCWAX7Q1P9EK2VNJO3BL7KD9","A334VWE4QGAZFR","3L1EFR8WWTRIL5MKAR1UWRHK4IC9FJ","","null","<img src=""img/land3.png"" style=""width:200px; border:14px solid green;"">","null","","","","","","","","","",""
"","image-keyboard-response","189","59208","0.0-189.0","3H8DHMCCWAX7Q1P9EK2VNJO3BL7KD9","A334VWE4QGAZFR","3L1EFR8WWTRIL5MKAR1UWRHK4IC9FJ","","86","img/land6.png","75","86","2","1","3","2","0.8,0.2,0.2,0.2,0.8,0.2,0.2,0.2,0.8","0.2,0.2,0.8,0.8,0.2,0.2,0.2,0.8,0.2","2","",""
"","html-keyboard-response","190","59510","0.0-190.0","3H8DHMCCWAX7Q1P9EK2VNJO3BL7KD9","A334VWE4QGAZFR","3L1EFR8WWTRIL5MKAR1UWRHK4IC9FJ","","null","<img src=""img/land6.png"" style=""width:200px; border:14px solid green;"">","null","","","","","","","","","",""
"","image-keyboard-response","191","59616","0.0-191.0","3H8DHMCCWAX7Q1P9EK2VNJO3BL7KD9","A334VWE4QGAZFR","3L1EFR8WWTRIL5MKAR1UWRHK4IC9FJ","","106","img/land3.png","75","106","2","1","2","2","0.8,0.2,0.2,0.2,0.8,0.2,0.2,0.2,0.8","0.2,0.2,0.8,0.8,0.2,0.2,0.2,0.8,0.2","2","",""
"","html-keyboard-response","192","59917","0.0-192.0","3H8DHMCCWAX7Q1P9EK2VNJO3BL7KD9","A334VWE4QGAZFR","3L1EFR8WWTRIL5MKAR1UWRHK4IC9FJ","","null","<img src=""img/land3.png"" style=""width:200px; border:14px solid green;"">","null","","","","","","","","","",""
"","image-keyboard-response","193","60033","0.0-193.0","3H8DHMCCWAX7Q1P9EK2VNJO3BL7KD9","A334VWE4QGAZFR","3L1EFR8WWTRIL5MKAR1UWRHK4IC9FJ","","115","img/land2.png","74","116","1","0","1","2","0.8,0.2,0.2,0.2,0.8,0.2,0.2,0.2,0.8","0.2,0.2,0.8,0.8,0.2,0.2,0.2,0.8,0.2","2","",""
"","html-keyboard-response","194","60335","0.0-194.0","3H8DHMCCWAX7Q1P9EK2VNJO3BL7KD9","A334VWE4QGAZFR","3L1EFR8WWTRIL5MKAR1UWRHK4IC9FJ","","null","<img src=""img/land2.png"" style=""width:200px;border:14px solid red;"">","null","","","","","","","","","",""
"","image-keyboard-response","195","60421","0.0-195.0","3H8DHMCCWAX7Q1P9EK2VNJO3BL7KD9","A334VWE4QGAZFR","3L1EFR8WWTRIL5MKAR1UWRHK4IC9FJ","","85","img/land6.png","75","86","2","1","3","2","0.8,0.2,0.2,0.2,0.8,0.2,0.2,0.2,0.8","0.2,0.2,0.8,0.8,0.2,0.2,0.2,0.8,0.2","2","",""
"","html-keyboard-response","196","60723","0.0-196.0","3H8DHMCCWAX7Q1P9EK2VNJO3BL7KD9","A334VWE4QGAZFR","3L1EFR8WWTRIL5MKAR1UWRHK4IC9FJ","","null","<img src=""img/land6.png"" style=""width:200px; border:14px solid green;"">","null","","","","","","","","","",""
"","image-keyboard-response","197","60748","0.0-197.0","3H8DHMCCWAX7Q1P9EK2VNJO3BL7KD9","A334VWE4QGAZFR","3L1EFR8WWTRIL5MKAR1UWRHK4IC9FJ","","24","img/land6.png","75","25","2","0","3","2","0.8,0.2,0.2,0.2,0.8,0.2,0.2,0.2,0.8","0.2,0.2,0.8,0.8,0.2,0.2,0.2,0.8,0.2","2","",""
"","html-keyboard-response","198","61049","0.0-198.0","3H8DHMCCWAX7Q1P9EK2VNJO3BL7KD9","A334VWE4QGAZFR","3L1EFR8WWTRIL5MKAR1UWRHK4IC9FJ","","null","<img src=""img/land6.png"" style=""width:200px;border:14px solid red;"">","null","","","","","","","","","",""
"","image-keyboard-response","199","61076","0.0-199.0","3H8DHMCCWAX7Q1P9EK2VNJO3BL7KD9","A334VWE4QGAZFR","3L1EFR8WWTRIL5MKAR1UWRHK4IC9FJ","","27","img/land2.png","75","27","2","1","1","2","0.8,0.2,0.2,0.2,0.8,0.2,0.2,0.2,0.8","0.2,0.2,0.8,0.8,0.2,0.2,0.2,0.8,0.2","2","",""
"","html-keyboard-response","200","61377","0.0-200.0","3H8DHMCCWAX7Q1P9EK2VNJO3BL7KD9","A334VWE4QGAZFR","3L1EFR8WWTRIL5MKAR1UWRHK4IC9FJ","","null","<img src=""img/land2.png"" style=""width:200px; border:14px solid green;"">","null","","","","","","","","","",""
"","image-keyboard-response","201","61483","0.0-201.0","3H8DHMCCWAX7Q1P9EK2VNJO3BL7KD9","A334VWE4QGAZFR","3L1EFR8WWTRIL5MKAR1UWRHK4IC9FJ","","106","img/land2.png","74","106","1","1","1","2","0.8,0.2,0.2,0.2,0.8,0.2,0.2,0.2,0.8","0.2,0.2,0.8,0.8,0.2,0.2,0.2,0.8,0.2","2","",""
"","html-keyboard-response","202","61785","0.0-202.0","3H8DHMCCWAX7Q1P9EK2VNJO3BL7KD9","A334VWE4QGAZFR","3L1EFR8WWTRIL5MKAR1UWRHK4IC9FJ","","null","<img src=""img/land2.png"" style=""width:200px; border:14px solid green;"">","null","","","","","","","","","",""
"","image-keyboard-response","203","61793","0.0-203.0","3H8DHMCCWAX7Q1P9EK2VNJO3BL7KD9","A334VWE4QGAZFR","3L1EFR8WWTRIL5MKAR1UWRHK4IC9FJ","","7","img/land3.png","74","8","1","0","2","2","0.8,0.2,0.2,0.2,0.8,0.2,0.2,0.2,0.8","0.2,0.2,0.8,0.8,0.2,0.2,0.2,0.8,0.2","2","",""
"","html-keyboard-response","204","62094","0.0-204.0","3H8DHMCCWAX7Q1P9EK2VNJO3BL7KD9","A334VWE4QGAZFR","3L1EFR8WWTRIL5MKAR1UWRHK4IC9FJ","","null","<img src=""img/land3.png"" style=""width:200px;border:14px solid red;"">","null","","","","","","","","","",""
"","image-keyboard-response","205","62115","0.0-205.0","3H8DHMCCWAX7Q1P9EK2VNJO3BL7KD9","A334VWE4QGAZFR","3L1EFR8WWTRIL5MKAR1UWRHK4IC9FJ","","21","img/land2.png","74","21","1","0","1","2","0.8,0.2,0.2,0.2,0.8,0.2,0.2,0.2,0.8","0.2,0.2,0.8,0.8,0.2,0.2,0.2,0.8,0.2","2","",""
"","html-keyboard-response","206","62417","0.0-206.0","3H8DHMCCWAX7Q1P9EK2VNJO3BL7KD9","A334VWE4QGAZFR","3L1EFR8WWTRIL5MKAR1UWRHK4IC9FJ","","null","<img src=""img/land2.png"" style=""width:200px;border:14px solid red;"">","null","","","","","","","","","",""
"","image-keyboard-response","207","62576","0.0-207.0","3H8DHMCCWAX7Q1P9EK2VNJO3BL7KD9","A334VWE4QGAZFR","3L1EFR8WWTRIL5MKAR1UWRHK4IC9FJ","","158","img/land6.png","75","159","2","1","3","2","0.8,0.2,0.2,0.2,0.8,0.2,0.2,0.2,0.8","0.2,0.2,0.8,0.8,0.2,0.2,0.2,0.8,0.2","2","",""
"","html-keyboard-response","208","62877","0.0-208.0","3H8DHMCCWAX7Q1P9EK2VNJO3BL7KD9","A334VWE4QGAZFR","3L1EFR8WWTRIL5MKAR1UWRHK4IC9FJ","","null","<img src=""img/land6.png"" style=""width:200px; border:14px solid green;"">","null","","","","","","","","","",""
"","image-keyboard-response","209","62889","0.0-209.0","3H8DHMCCWAX7Q1P9EK2VNJO3BL7KD9","A334VWE4QGAZFR","3L1EFR8WWTRIL5MKAR1UWRHK4IC9FJ","","11","img/land2.png","76","12","3","1","1","2","0.8,0.2,0.2,0.2,0.8,0.2,0.2,0.2,0.8","0.2,0.2,0.8,0.8,0.2,0.2,0.2,0.8,0.2","2","",""
"","html-keyboard-response","210","63191","0.0-210.0","3H8DHMCCWAX7Q1P9EK2VNJO3BL7KD9","A334VWE4QGAZFR","3L1EFR8WWTRIL5MKAR1UWRHK4IC9FJ","","null","<img src=""img/land2.png"" style=""width:200px; border:14px solid green;"">","null","","","","","","","","","",""
"","image-keyboard-response","211","63220","0.0-211.0","3H8DHMCCWAX7Q1P9EK2VNJO3BL7KD9","A334VWE4QGAZFR","3L1EFR8WWTRIL5MKAR1UWRHK4IC9FJ","","28","img/land2.png","76","28","3","0","1","2","0.8,0.2,0.2,0.2,0.8,0.2,0.2,0.2,0.8","0.2,0.2,0.8,0.8,0.2,0.2,0.2,0.8,0.2","2","",""
"","html-keyboard-response","212","63523","0.0-212.0","3H8DHMCCWAX7Q1P9EK2VNJO3BL7KD9","A334VWE4QGAZFR","3L1EFR8WWTRIL5MKAR1UWRHK4IC9FJ","","null","<img src=""img/land2.png"" style=""width:200px;border:14px solid red;"">","null","","","","","","","","","",""
"","image-keyboard-response","213","63540","0.0-213.0","3H8DHMCCWAX7Q1P9EK2VNJO3BL7KD9","A334VWE4QGAZFR","3L1EFR8WWTRIL5MKAR1UWRHK4IC9FJ","","16","img/land2.png","76","16","3","1","1","2","0.8,0.2,0.2,0.2,0.8,0.2,0.2,0.2,0.8","0.2,0.2,0.8,0.8,0.2,0.2,0.2,0.8,0.2","2","",""
"","html-keyboard-response","214","63889","0.0-214.0","3H8DHMCCWAX7Q1P9EK2VNJO3BL7KD9","A334VWE4QGAZFR","3L1EFR8WWTRIL5MKAR1UWRHK4IC9FJ","","null","<img src=""img/land2.png"" style=""width:200px; border:14px solid green;"">","null","","","","","","","","","",""
"","image-keyboard-response","215","63906","0.0-215.0","3H8DHMCCWAX7Q1P9EK2VNJO3BL7KD9","A334VWE4QGAZFR","3L1EFR8WWTRIL5MKAR1UWRHK4IC9FJ","","17","img/land2.png","75","17","2","0","1","2","0.8,0.2,0.2,0.2,0.8,0.2,0.2,0.2,0.8","0.2,0.2,0.8,0.8,0.2,0.2,0.2,0.8,0.2","2","",""
"","html-keyboard-response","216","64207","0.0-216.0","3H8DHMCCWAX7Q1P9EK2VNJO3BL7KD9","A334VWE4QGAZFR","3L1EFR8WWTRIL5MKAR1UWRHK4IC9FJ","","null","<img src=""img/land2.png"" style=""width:200px;border:14px solid red;"">","null","","","","","","","","","",""
"","image-keyboard-response","217","64245","0.0-217.0","3H8DHMCCWAX7Q1P9EK2VNJO3BL7KD9","A334VWE4QGAZFR","3L1EFR8WWTRIL5MKAR1UWRHK4IC9FJ","","37","img/land2.png","75","38","2","0","1","2","0.8,0.2,0.2,0.2,0.8,0.2,0.2,0.2,0.8","0.2,0.2,0.8,0.8,0.2,0.2,0.2,0.8,0.2","2","",""
"","html-keyboard-response","218","64545","0.0-218.0","3H8DHMCCWAX7Q1P9EK2VNJO3BL7KD9","A334VWE4QGAZFR","3L1EFR8WWTRIL5MKAR1UWRHK4IC9FJ","","null","<img src=""img/land2.png"" style=""width:200px;border:14px solid red;"">","null","","","","","","","","","",""
"","image-keyboard-response","219","64612","0.0-219.0","3H8DHMCCWAX7Q1P9EK2VNJO3BL7KD9","A334VWE4QGAZFR","3L1EFR8WWTRIL5MKAR1UWRHK4IC9FJ","","66","img/land6.png","75","68","2","1","3","2","0.8,0.2,0.2,0.2,0.8,0.2,0.2,0.2,0.8","0.2,0.2,0.8,0.8,0.2,0.2,0.2,0.8,0.2","2","",""
"","html-keyboard-response","220","64915","0.0-220.0","3H8DHMCCWAX7Q1P9EK2VNJO3BL7KD9","A334VWE4QGAZFR","3L1EFR8WWTRIL5MKAR1UWRHK4IC9FJ","","null","<img src=""img/land6.png"" style=""width:200px; border:14px solid green;"">","null","","","","","","","","","",""
"","image-keyboard-response","221","64981","0.0-221.0","3H8DHMCCWAX7Q1P9EK2VNJO3BL7KD9","A334VWE4QGAZFR","3L1EFR8WWTRIL5MKAR1UWRHK4IC9FJ","","66","img/land2.png","75","66","2","0","1","2","0.8,0.2,0.2,0.2,0.8,0.2,0.2,0.2,0.8","0.2,0.2,0.8,0.8,0.2,0.2,0.2,0.8,0.2","2","",""
"","html-keyboard-response","222","65282","0.0-222.0","3H8DHMCCWAX7Q1P9EK2VNJO3BL7KD9","A334VWE4QGAZFR","3L1EFR8WWTRIL5MKAR1UWRHK4IC9FJ","","null","<img src=""img/land2.png"" style=""width:200px;border:14px solid red;"">","null","","","","","","","","","",""
"","image-keyboard-response","223","65396","0.0-223.0","3H8DHMCCWAX7Q1P9EK2VNJO3BL7KD9","A334VWE4QGAZFR","3L1EFR8WWTRIL5MKAR1UWRHK4IC9FJ","","113","img/land2.png","74","114","1","0","1","2","0.8,0.2,0.2,0.2,0.8,0.2,0.2,0.2,0.8","0.2,0.2,0.8,0.8,0.2,0.2,0.2,0.8,0.2","2","",""
"","html-keyboard-response","224","65697","0.0-224.0","3H8DHMCCWAX7Q1P9EK2VNJO3BL7KD9","A334VWE4QGAZFR","3L1EFR8WWTRIL5MKAR1UWRHK4IC9FJ","","null","<img src=""img/land2.png"" style=""width:200px;border:14px solid red;"">","null","","","","","","","","","",""
"","image-keyboard-response","225","65716","0.0-225.0","3H8DHMCCWAX7Q1P9EK2VNJO3BL7KD9","A334VWE4QGAZFR","3L1EFR8WWTRIL5MKAR1UWRHK4IC9FJ","","18","img/land2.png","74","19","1","1","1","2","0.8,0.2,0.2,0.2,0.8,0.2,0.2,0.2,0.8","0.2,0.2,0.8,0.8,0.2,0.2,0.2,0.8,0.2","2","",""
"","html-keyboard-response","226","66017","0.0-226.0","3H8DHMCCWAX7Q1P9EK2VNJO3BL7KD9","A334VWE4QGAZFR","3L1EFR8WWTRIL5MKAR1UWRHK4IC9FJ","","null","<img src=""img/land2.png"" style=""width:200px; border:14px solid green;"">","null","","","","","","","","","",""
"","image-keyboard-response","227","66041","0.0-227.0","3H8DHMCCWAX7Q1P9EK2VNJO3BL7KD9","A334VWE4QGAZFR","3L1EFR8WWTRIL5MKAR1UWRHK4IC9FJ","","24","img/land6.png","74","24","1","0","3","2","0.8,0.2,0.2,0.2,0.8,0.2,0.2,0.2,0.8","0.2,0.2,0.8,0.8,0.2,0.2,0.2,0.8,0.2","2","",""
"","html-keyboard-response","228","66342","0.0-228.0","3H8DHMCCWAX7Q1P9EK2VNJO3BL7KD9","A334VWE4QGAZFR","3L1EFR8WWTRIL5MKAR1UWRHK4IC9FJ","","null","<img src=""img/land6.png"" style=""width:200px;border:14px solid red;"">","null","","","","","","","","","",""
"","image-keyboard-response","229","66569","0.0-229.0","3H8DHMCCWAX7Q1P9EK2VNJO3BL7KD9","A334VWE4QGAZFR","3L1EFR8WWTRIL5MKAR1UWRHK4IC9FJ","","227","img/land2.png","75","227","2","0","1","2","0.8,0.2,0.2,0.2,0.8,0.2,0.2,0.2,0.8","0.2,0.2,0.8,0.8,0.2,0.2,0.2,0.8,0.2","2","",""
"","html-keyboard-response","230","66870","0.0-230.0","3H8DHMCCWAX7Q1P9EK2VNJO3BL7KD9","A334VWE4QGAZFR","3L1EFR8WWTRIL5MKAR1UWRHK4IC9FJ","","null","<img src=""img/land2.png"" style=""width:200px;border:14px solid red;"">","null","","","","","","","","","",""
"","image-keyboard-response","231","67085","0.0-231.0","3H8DHMCCWAX7Q1P9EK2VNJO3BL7KD9","A334VWE4QGAZFR","3L1EFR8WWTRIL5MKAR1UWRHK4IC9FJ","","214","img/land3.png","74","215","1","0","2","2","0.8,0.2,0.2,0.2,0.8,0.2,0.2,0.2,0.8","0.2,0.2,0.8,0.8,0.2,0.2,0.2,0.8,0.2","2","",""
"","html-keyboard-response","232","67387","0.0-232.0","3H8DHMCCWAX7Q1P9EK2VNJO3BL7KD9","A334VWE4QGAZFR","3L1EFR8WWTRIL5MKAR1UWRHK4IC9FJ","","null","<img src=""img/land3.png"" style=""width:200px;border:14px solid red;"">","null","","","","","","","","","",""
"","image-keyboard-response","233","67426","0.0-233.0","3H8DHMCCWAX7Q1P9EK2VNJO3BL7KD9","A334VWE4QGAZFR","3L1EFR8WWTRIL5MKAR1UWRHK4IC9FJ","","37","img/land2.png","74","39","1","0","1","2","0.8,0.2,0.2,0.2,0.8,0.2,0.2,0.2,0.8","0.2,0.2,0.8,0.8,0.2,0.2,0.2,0.8,0.2","2","",""
"","html-keyboard-response","234","67727","0.0-234.0","3H8DHMCCWAX7Q1P9EK2VNJO3BL7KD9","A334VWE4QGAZFR","3L1EFR8WWTRIL5MKAR1UWRHK4IC9FJ","","null","<img src=""img/land2.png"" style=""width:200px;border:14px solid red;"">","null","","","","","","","","","",""
"","image-keyboard-response","235","67752","0.0-235.0","3H8DHMCCWAX7Q1P9EK2VNJO3BL7KD9","A334VWE4QGAZFR","3L1EFR8WWTRIL5MKAR1UWRHK4IC9FJ","","24","img/land2.png","74","25","1","0","1","2","0.8,0.2,0.2,0.2,0.8,0.2,0.2,0.2,0.8","0.2,0.2,0.8,0.8,0.2,0.2,0.2,0.8,0.2","2","",""
"","html-keyboard-response","236","68077","0.0-236.0","3H8DHMCCWAX7Q1P9EK2VNJO3BL7KD9","A334VWE4QGAZFR","3L1EFR8WWTRIL5MKAR1UWRHK4IC9FJ","","null","<img src=""img/land2.png"" style=""width:200px;border:14px solid red;"">","null","","","","","","","","","",""
"","image-keyboard-response","237","68097","0.0-237.0","3H8DHMCCWAX7Q1P9EK2VNJO3BL7KD9","A334VWE4QGAZFR","3L1EFR8WWTRIL5MKAR1UWRHK4IC9FJ","","19","img/land6.png","74","19","1","0","3","2","0.8,0.2,0.2,0.2,0.8,0.2,0.2,0.2,0.8","0.2,0.2,0.8,0.8,0.2,0.2,0.2,0.8,0.2","2","",""
"","html-keyboard-response","238","68399","0.0-238.0","3H8DHMCCWAX7Q1P9EK2VNJO3BL7KD9","A334VWE4QGAZFR","3L1EFR8WWTRIL5MKAR1UWRHK4IC9FJ","","null","<img src=""img/land6.png"" style=""width:200px;border:14px solid red;"">","null","","","","","","","","","",""
"","image-keyboard-response","239","68557","0.0-239.0","3H8DHMCCWAX7Q1P9EK2VNJO3BL7KD9","A334VWE4QGAZFR","3L1EFR8WWTRIL5MKAR1UWRHK4IC9FJ","","156","img/land2.png","75","158","2","0","1","2","0.8,0.2,0.2,0.2,0.8,0.2,0.2,0.2,0.8","0.2,0.2,0.8,0.8,0.2,0.2,0.2,0.8,0.2","2","",""
"","html-keyboard-response","240","68857","0.0-240.0","3H8DHMCCWAX7Q1P9EK2VNJO3BL7KD9","A334VWE4QGAZFR","3L1EFR8WWTRIL5MKAR1UWRHK4IC9FJ","","null","<img src=""img/land2.png"" style=""width:200px;border:14px solid red;"">","null","","","","","","","","","",""
"","image-keyboard-response","241","68867","0.0-241.0","3H8DHMCCWAX7Q1P9EK2VNJO3BL7KD9","A334VWE4QGAZFR","3L1EFR8WWTRIL5MKAR1UWRHK4IC9FJ","","10","img/land2.png","75","10","2","1","1","2","0.8,0.2,0.2,0.2,0.8,0.2,0.2,0.2,0.8","0.2,0.2,0.8,0.8,0.2,0.2,0.2,0.8,0.2","2","",""
"","html-keyboard-response","242","69168","0.0-242.0","3H8DHMCCWAX7Q1P9EK2VNJO3BL7KD9","A334VWE4QGAZFR","3L1EFR8WWTRIL5MKAR1UWRHK4IC9FJ","","null","<img src=""img/land2.png"" style=""width:200px; border:14px solid green;"">","null","","","","","","","","","",""
"","image-keyboard-response","243","69241","0.0-243.0","3H8DHMCCWAX7Q1P9EK2VNJO3BL7KD9","A334VWE4QGAZFR","3L1EFR8WWTRIL5MKAR1UWRHK4IC9FJ","","69","img/land3.png","75","72","2","0","2","2","0.8,0.2,0.2,0.2,0.8,0.2,0.2,0.2,0.8","0.2,0.2,0.8,0.8,0.2,0.2,0.2,0.8,0.2","2","",""
"","html-keyboard-response","244","69542","0.0-244.0","3H8DHMCCWAX7Q1P9EK2VNJO3BL7KD9","A334VWE4QGAZFR","3L1EFR8WWTRIL5MKAR1UWRHK4IC9FJ","","null","<img src=""img/land3.png"" style=""width:200px;border:14px solid red;"">","null","","","","","","","","","",""
"","image-keyboard-response","245","69708","0.0-245.0","3H8DHMCCWAX7Q1P9EK2VNJO3BL7KD9","A334VWE4QGAZFR","3L1EFR8WWTRIL5MKAR1UWRHK4IC9FJ","","166","img/land3.png","74","166","1","1","2","2","0.8,0.2,0.2,0.2,0.8,0.2,0.2,0.2,0.8","0.2,0.2,0.8,0.8,0.2,0.2,0.2,0.8,0.2","2","",""
"","html-keyboard-response","246","70009","0.0-246.0","3H8DHMCCWAX7Q1P9EK2VNJO3BL7KD9","A334VWE4QGAZFR","3L1EFR8WWTRIL5MKAR1UWRHK4IC9FJ","","null","<img src=""img/land3.png"" style=""width:200px; border:14px solid green;"">","null","","","","","","","","","",""
"","image-keyboard-response","247","70185","0.0-247.0","3H8DHMCCWAX7Q1P9EK2VNJO3BL7KD9","A334VWE4QGAZFR","3L1EFR8WWTRIL5MKAR1UWRHK4IC9FJ","","175","img/land6.png","74","176","1","0","3","2","0.8,0.2,0.2,0.2,0.8,0.2,0.2,0.2,0.8","0.2,0.2,0.8,0.8,0.2,0.2,0.2,0.8,0.2","2","",""
"","html-keyboard-response","248","70486","0.0-248.0","3H8DHMCCWAX7Q1P9EK2VNJO3BL7KD9","A334VWE4QGAZFR","3L1EFR8WWTRIL5MKAR1UWRHK4IC9FJ","","null","<img src=""img/land6.png"" style=""width:200px;border:14px solid red;"">","null","","","","","","","","","",""
"","image-keyboard-response","249","70683","0.0-249.0","3H8DHMCCWAX7Q1P9EK2VNJO3BL7KD9","A334VWE4QGAZFR","3L1EFR8WWTRIL5MKAR1UWRHK4IC9FJ","","196","img/land2.png","75","197","2","0","1","2","0.8,0.2,0.2,0.2,0.8,0.2,0.2,0.2,0.8","0.2,0.2,0.8,0.8,0.2,0.2,0.2,0.8,0.2","2","",""
"","html-keyboard-response","250","70984","0.0-250.0","3H8DHMCCWAX7Q1P9EK2VNJO3BL7KD9","A334VWE4QGAZFR","3L1EFR8WWTRIL5MKAR1UWRHK4IC9FJ","","null","<img src=""img/land2.png"" style=""width:200px;border:14px solid red;"">","null","","","","","","","","","",""
"","image-keyboard-response","251","71108","0.0-251.0","3H8DHMCCWAX7Q1P9EK2VNJO3BL7KD9","A334VWE4QGAZFR","3L1EFR8WWTRIL5MKAR1UWRHK4IC9FJ","","123","img/land2.png","75","124","2","0","1","2","0.8,0.2,0.2,0.2,0.8,0.2,0.2,0.2,0.8","0.2,0.2,0.8,0.8,0.2,0.2,0.2,0.8,0.2","2","",""
"","html-keyboard-response","252","71410","0.0-252.0","3H8DHMCCWAX7Q1P9EK2VNJO3BL7KD9","A334VWE4QGAZFR","3L1EFR8WWTRIL5MKAR1UWRHK4IC9FJ","","null","<img src=""img/land2.png"" style=""width:200px;border:14px solid red;"">","null","","","","","","","","","",""
"","image-keyboard-response","253","71505","0.0-253.0","3H8DHMCCWAX7Q1P9EK2VNJO3BL7KD9","A334VWE4QGAZFR","3L1EFR8WWTRIL5MKAR1UWRHK4IC9FJ","","94","img/land2.png","74","95","1","0","1","2","0.8,0.2,0.2,0.2,0.8,0.2,0.2,0.2,0.8","0.2,0.2,0.8,0.8,0.2,0.2,0.2,0.8,0.2","2","",""
"","html-keyboard-response","254","71806","0.0-254.0","3H8DHMCCWAX7Q1P9EK2VNJO3BL7KD9","A334VWE4QGAZFR","3L1EFR8WWTRIL5MKAR1UWRHK4IC9FJ","","null","<img src=""img/land2.png"" style=""width:200px;border:14px solid red;"">","null","","","","","","","","","",""
"","image-keyboard-response","255","71873","0.0-255.0","3H8DHMCCWAX7Q1P9EK2VNJO3BL7KD9","A334VWE4QGAZFR","3L1EFR8WWTRIL5MKAR1UWRHK4IC9FJ","","65","img/land2.png","74","67","1","0","1","2","0.8,0.2,0.2,0.2,0.8,0.2,0.2,0.2,0.8","0.2,0.2,0.8,0.8,0.2,0.2,0.2,0.8,0.2","2","",""
"","html-keyboard-response","256","72176","0.0-256.0","3H8DHMCCWAX7Q1P9EK2VNJO3BL7KD9","A334VWE4QGAZFR","3L1EFR8WWTRIL5MKAR1UWRHK4IC9FJ","","null","<img src=""img/land2.png"" style=""width:200px;border:14px solid red;"">","null","","","","","","","","","",""
"","image-keyboard-response","257","72420","0.0-257.0","3H8DHMCCWAX7Q1P9EK2VNJO3BL7KD9","A334VWE4QGAZFR","3L1EFR8WWTRIL5MKAR1UWRHK4IC9FJ","","244","img/land2.png","75","244","2","0","1","2","0.8,0.2,0.2,0.2,0.8,0.2,0.2,0.2,0.8","0.2,0.2,0.8,0.8,0.2,0.2,0.2,0.8,0.2","2","",""
"","html-keyboard-response","258","72722","0.0-258.0","3H8DHMCCWAX7Q1P9EK2VNJO3BL7KD9","A334VWE4QGAZFR","3L1EFR8WWTRIL5MKAR1UWRHK4IC9FJ","","null","<img src=""img/land2.png"" style=""width:200px;border:14px solid red;"">","null","","","","","","","","","",""
"","image-keyboard-response","259","72737","0.0-259.0","3H8DHMCCWAX7Q1P9EK2VNJO3BL7KD9","A334VWE4QGAZFR","3L1EFR8WWTRIL5MKAR1UWRHK4IC9FJ","","14","img/land2.png","75","15","2","1","1","2","0.8,0.2,0.2,0.2,0.8,0.2,0.2,0.2,0.8","0.2,0.2,0.8,0.8,0.2,0.2,0.2,0.8,0.2","2","",""
"","html-keyboard-response","260","73038","0.0-260.0","3H8DHMCCWAX7Q1P9EK2VNJO3BL7KD9","A334VWE4QGAZFR","3L1EFR8WWTRIL5MKAR1UWRHK4IC9FJ","","null","<img src=""img/land2.png"" style=""width:200px; border:14px solid green;"">","null","","","","","","","","","",""
"","image-keyboard-response","261","73104","0.0-261.0","3H8DHMCCWAX7Q1P9EK2VNJO3BL7KD9","A334VWE4QGAZFR","3L1EFR8WWTRIL5MKAR1UWRHK4IC9FJ","","66","img/land2.png","75","67","2","0","1","2","0.8,0.2,0.2,0.2,0.8,0.2,0.2,0.2,0.8","0.2,0.2,0.8,0.8,0.2,0.2,0.2,0.8,0.2","2","",""
"","html-keyboard-response","262","73406","0.0-262.0","3H8DHMCCWAX7Q1P9EK2VNJO3BL7KD9","A334VWE4QGAZFR","3L1EFR8WWTRIL5MKAR1UWRHK4IC9FJ","","null","<img src=""img/land2.png"" style=""width:200px;border:14px solid red;"">","null","","","","","","","","","",""
"","image-keyboard-response","263","73472","0.0-263.0","3H8DHMCCWAX7Q1P9EK2VNJO3BL7KD9","A334VWE4QGAZFR","3L1EFR8WWTRIL5MKAR1UWRHK4IC9FJ","","65","img/land3.png","75","66","2","0","2","2","0.8,0.2,0.2,0.2,0.8,0.2,0.2,0.2,0.8","0.2,0.2,0.8,0.8,0.2,0.2,0.2,0.8,0.2","2","",""
"","html-keyboard-response","264","73779","0.0-264.0","3H8DHMCCWAX7Q1P9EK2VNJO3BL7KD9","A334VWE4QGAZFR","3L1EFR8WWTRIL5MKAR1UWRHK4IC9FJ","","null","<img src=""img/land3.png"" style=""width:200px;border:14px solid red;"">","null","","","","","","","","","",""
"","image-keyboard-response","265","73849","0.0-265.0","3H8DHMCCWAX7Q1P9EK2VNJO3BL7KD9","A334VWE4QGAZFR","3L1EFR8WWTRIL5MKAR1UWRHK4IC9FJ","","69","img/land2.png","76","70","3","1","1","2","0.8,0.2,0.2,0.2,0.8,0.2,0.2,0.2,0.8","0.2,0.2,0.8,0.8,0.2,0.2,0.2,0.8,0.2","2","",""
"","html-keyboard-response","266","74150","0.0-266.0","3H8DHMCCWAX7Q1P9EK2VNJO3BL7KD9","A334VWE4QGAZFR","3L1EFR8WWTRIL5MKAR1UWRHK4IC9FJ","","null","<img src=""img/land2.png"" style=""width:200px; border:14px solid green;"">","null","","","","","","","","","",""
"","image-keyboard-response","267","74357","0.0-267.0","3H8DHMCCWAX7Q1P9EK2VNJO3BL7KD9","A334VWE4QGAZFR","3L1EFR8WWTRIL5MKAR1UWRHK4IC9FJ","","207","img/land6.png","75","207","2","1","3","2","0.8,0.2,0.2,0.2,0.8,0.2,0.2,0.2,0.8","0.2,0.2,0.8,0.8,0.2,0.2,0.2,0.8,0.2","2","",""
"","html-keyboard-response","268","74660","0.0-268.0","3H8DHMCCWAX7Q1P9EK2VNJO3BL7KD9","A334VWE4QGAZFR","3L1EFR8WWTRIL5MKAR1UWRHK4IC9FJ","","null","<img src=""img/land6.png"" style=""width:200px; border:14px solid green;"">","null","","","","","","","","","",""
"","image-keyboard-response","269","74679","0.0-269.0","3H8DHMCCWAX7Q1P9EK2VNJO3BL7KD9","A334VWE4QGAZFR","3L1EFR8WWTRIL5MKAR1UWRHK4IC9FJ","","15","img/land2.png","75","18","2","0","1","2","0.8,0.2,0.2,0.2,0.8,0.2,0.2,0.2,0.8","0.2,0.2,0.8,0.8,0.2,0.2,0.2,0.8,0.2","2","",""
"","html-keyboard-response","270","74980","0.0-270.0","3H8DHMCCWAX7Q1P9EK2VNJO3BL7KD9","A334VWE4QGAZFR","3L1EFR8WWTRIL5MKAR1UWRHK4IC9FJ","","null","<img src=""img/land2.png"" style=""width:200px;border:14px solid red;"">","null","","","","","","","","","",""
"","image-keyboard-response","271","74991","0.0-271.0","3H8DHMCCWAX7Q1P9EK2VNJO3BL7KD9","A334VWE4QGAZFR","3L1EFR8WWTRIL5MKAR1UWRHK4IC9FJ","","10","img/land3.png","75","11","2","0","2","2","0.8,0.2,0.2,0.2,0.8,0.2,0.2,0.2,0.8","0.2,0.2,0.8,0.8,0.2,0.2,0.2,0.8,0.2","2","",""
"","html-keyboard-response","272","75293","0.0-272.0","3H8DHMCCWAX7Q1P9EK2VNJO3BL7KD9","A334VWE4QGAZFR","3L1EFR8WWTRIL5MKAR1UWRHK4IC9FJ","","null","<img src=""img/land3.png"" style=""width:200px;border:14px solid red;"">","null","","","","","","","","","",""
"","image-keyboard-response","273","75303","0.0-273.0","3H8DHMCCWAX7Q1P9EK2VNJO3BL7KD9","A334VWE4QGAZFR","3L1EFR8WWTRIL5MKAR1UWRHK4IC9FJ","","9","img/land2.png","75","10","2","0","1","2","0.8,0.2,0.2,0.2,0.8,0.2,0.2,0.2,0.8","0.2,0.2,0.8,0.8,0.2,0.2,0.2,0.8,0.2","2","",""
"","html-keyboard-response","274","75604","0.0-274.0","3H8DHMCCWAX7Q1P9EK2VNJO3BL7KD9","A334VWE4QGAZFR","3L1EFR8WWTRIL5MKAR1UWRHK4IC9FJ","","null","<img src=""img/land2.png"" style=""width:200px;border:14px solid red;"">","null","","","","","","","","","",""
"","image-keyboard-response","275","75697","0.0-275.0","3H8DHMCCWAX7Q1P9EK2VNJO3BL7KD9","A334VWE4QGAZFR","3L1EFR8WWTRIL5MKAR1UWRHK4IC9FJ","","92","img/land2.png","76","94","3","0","1","2","0.8,0.2,0.2,0.2,0.8,0.2,0.2,0.2,0.8","0.2,0.2,0.8,0.8,0.2,0.2,0.2,0.8,0.2","2","",""
"","html-keyboard-response","276","75999","0.0-276.0","3H8DHMCCWAX7Q1P9EK2VNJO3BL7KD9","A334VWE4QGAZFR","3L1EFR8WWTRIL5MKAR1UWRHK4IC9FJ","","null","<img src=""img/land2.png"" style=""width:200px;border:14px solid red;"">","null","","","","","","","","","",""
"","image-keyboard-response","277","76066","0.0-277.0","3H8DHMCCWAX7Q1P9EK2VNJO3BL7KD9","A334VWE4QGAZFR","3L1EFR8WWTRIL5MKAR1UWRHK4IC9FJ","","67","img/land3.png","74","67","1","1","2","2","0.8,0.2,0.2,0.2,0.8,0.2,0.2,0.2,0.8","0.2,0.2,0.8,0.8,0.2,0.2,0.2,0.8,0.2","2","",""
"","html-keyboard-response","278","76368","0.0-278.0","3H8DHMCCWAX7Q1P9EK2VNJO3BL7KD9","A334VWE4QGAZFR","3L1EFR8WWTRIL5MKAR1UWRHK4IC9FJ","","null","<img src=""img/land3.png"" style=""width:200px; border:14px solid green;"">","null","","","","","","","","","",""
"","image-keyboard-response","279","76404","0.0-279.0","3H8DHMCCWAX7Q1P9EK2VNJO3BL7KD9","A334VWE4QGAZFR","3L1EFR8WWTRIL5MKAR1UWRHK4IC9FJ","","35","img/land2.png","74","36","1","1","1","2","0.8,0.2,0.2,0.2,0.8,0.2,0.2,0.2,0.8","0.2,0.2,0.8,0.8,0.2,0.2,0.2,0.8,0.2","2","",""
"","html-keyboard-response","280","76704","0.0-280.0","3H8DHMCCWAX7Q1P9EK2VNJO3BL7KD9","A334VWE4QGAZFR","3L1EFR8WWTRIL5MKAR1UWRHK4IC9FJ","","null","<img src=""img/land2.png"" style=""width:200px; border:14px solid green;"">","null","","","","","","","","","",""
"","image-keyboard-response","281","76706","0.0-281.0","3H8DHMCCWAX7Q1P9EK2VNJO3BL7KD9","A334VWE4QGAZFR","3L1EFR8WWTRIL5MKAR1UWRHK4IC9FJ","","0","img/land3.png","74","1","1","1","2","2","0.8,0.2,0.2,0.2,0.8,0.2,0.2,0.2,0.8","0.2,0.2,0.8,0.8,0.2,0.2,0.2,0.8,0.2","2","",""
"","html-keyboard-response","282","77007","0.0-282.0","3H8DHMCCWAX7Q1P9EK2VNJO3BL7KD9","A334VWE4QGAZFR","3L1EFR8WWTRIL5MKAR1UWRHK4IC9FJ","","null","<img src=""img/land3.png"" style=""width:200px; border:14px solid green;"">","null","","","","","","","","","",""
"","image-keyboard-response","283","77108","0.0-283.0","3H8DHMCCWAX7Q1P9EK2VNJO3BL7KD9","A334VWE4QGAZFR","3L1EFR8WWTRIL5MKAR1UWRHK4IC9FJ","","99","img/land2.png","74","100","1","0","1","2","0.8,0.2,0.2,0.2,0.8,0.2,0.2,0.2,0.8","0.2,0.2,0.8,0.8,0.2,0.2,0.2,0.8,0.2","2","",""
"","html-keyboard-response","284","77409","0.0-284.0","3H8DHMCCWAX7Q1P9EK2VNJO3BL7KD9","A334VWE4QGAZFR","3L1EFR8WWTRIL5MKAR1UWRHK4IC9FJ","","null","<img src=""img/land2.png"" style=""width:200px;border:14px solid red;"">","null","","","","","","","","","",""
"","image-keyboard-response","285","77447","0.0-285.0","3H8DHMCCWAX7Q1P9EK2VNJO3BL7KD9","A334VWE4QGAZFR","3L1EFR8WWTRIL5MKAR1UWRHK4IC9FJ","","37","img/land2.png","74","38","1","0","1","2","0.8,0.2,0.2,0.2,0.8,0.2,0.2,0.2,0.8","0.2,0.2,0.8,0.8,0.2,0.2,0.2,0.8,0.2","2","",""
"","html-keyboard-response","286","77748","0.0-286.0","3H8DHMCCWAX7Q1P9EK2VNJO3BL7KD9","A334VWE4QGAZFR","3L1EFR8WWTRIL5MKAR1UWRHK4IC9FJ","","null","<img src=""img/land2.png"" style=""width:200px;border:14px solid red;"">","null","","","","","","","","","",""
"","image-keyboard-response","287","77852","0.0-287.0","3H8DHMCCWAX7Q1P9EK2VNJO3BL7KD9","A334VWE4QGAZFR","3L1EFR8WWTRIL5MKAR1UWRHK4IC9FJ","","104","img/land6.png","74","104","1","0","3","2","0.8,0.2,0.2,0.2,0.8,0.2,0.2,0.2,0.8","0.2,0.2,0.8,0.8,0.2,0.2,0.2,0.8,0.2","2","",""
"","html-keyboard-response","288","78158","0.0-288.0","3H8DHMCCWAX7Q1P9EK2VNJO3BL7KD9","A334VWE4QGAZFR","3L1EFR8WWTRIL5MKAR1UWRHK4IC9FJ","","null","<img src=""img/land6.png"" style=""width:200px;border:14px solid red;"">","null","","","","","","","","","",""
"","image-keyboard-response","289","78399","0.0-289.0","3H8DHMCCWAX7Q1P9EK2VNJO3BL7KD9","A334VWE4QGAZFR","3L1EFR8WWTRIL5MKAR1UWRHK4IC9FJ","","240","img/land3.png","74","240","1","0","2","2","0.8,0.2,0.2,0.2,0.8,0.2,0.2,0.2,0.8","0.2,0.2,0.8,0.8,0.2,0.2,0.2,0.8,0.2","2","",""
"","html-keyboard-response","290","78699","0.0-290.0","3H8DHMCCWAX7Q1P9EK2VNJO3BL7KD9","A334VWE4QGAZFR","3L1EFR8WWTRIL5MKAR1UWRHK4IC9FJ","","null","<img src=""img/land3.png"" style=""width:200px;border:14px solid red;"">","null","","","","","","","","","",""
"","image-keyboard-response","291","78849","0.0-291.0","3H8DHMCCWAX7Q1P9EK2VNJO3BL7KD9","A334VWE4QGAZFR","3L1EFR8WWTRIL5MKAR1UWRHK4IC9FJ","","144","img/land2.png","74","148","1","0","1","2","0.8,0.2,0.2,0.2,0.8,0.2,0.2,0.2,0.8","0.2,0.2,0.8,0.8,0.2,0.2,0.2,0.8,0.2","2","",""
"","html-keyboard-response","292","79150","0.0-292.0","3H8DHMCCWAX7Q1P9EK2VNJO3BL7KD9","A334VWE4QGAZFR","3L1EFR8WWTRIL5MKAR1UWRHK4IC9FJ","","null","<img src=""img/land2.png"" style=""width:200px;border:14px solid red;"">","null","","","","","","","","","",""
"","image-keyboard-response","293","79324","0.0-293.0","3H8DHMCCWAX7Q1P9EK2VNJO3BL7KD9","A334VWE4QGAZFR","3L1EFR8WWTRIL5MKAR1UWRHK4IC9FJ","","172","img/land2.png","76","174","3","1","1","2","0.8,0.2,0.2,0.2,0.8,0.2,0.2,0.2,0.8","0.2,0.2,0.8,0.8,0.2,0.2,0.2,0.8,0.2","2","",""
"","html-keyboard-response","294","79625","0.0-294.0","3H8DHMCCWAX7Q1P9EK2VNJO3BL7KD9","A334VWE4QGAZFR","3L1EFR8WWTRIL5MKAR1UWRHK4IC9FJ","","null","<img src=""img/land2.png"" style=""width:200px; border:14px solid green;"">","null","","","","","","","","","",""
"","image-keyboard-response","295","79741","0.0-295.0","3H8DHMCCWAX7Q1P9EK2VNJO3BL7KD9","A334VWE4QGAZFR","3L1EFR8WWTRIL5MKAR1UWRHK4IC9FJ","","115","img/land3.png","74","116","1","1","2","2","0.8,0.2,0.2,0.2,0.8,0.2,0.2,0.2,0.8","0.2,0.2,0.8,0.8,0.2,0.2,0.2,0.8,0.2","2","",""
"","html-keyboard-response","296","80042","0.0-296.0","3H8DHMCCWAX7Q1P9EK2VNJO3BL7KD9","A334VWE4QGAZFR","3L1EFR8WWTRIL5MKAR1UWRHK4IC9FJ","","null","<img src=""img/land3.png"" style=""width:200px; border:14px solid green;"">","null","","","","","","","","","",""
"","image-keyboard-response","297","80137","0.0-297.0","3H8DHMCCWAX7Q1P9EK2VNJO3BL7KD9","A334VWE4QGAZFR","3L1EFR8WWTRIL5MKAR1UWRHK4IC9FJ","","95","img/land6.png","74","95","1","1","3","2","0.8,0.2,0.2,0.2,0.8,0.2,0.2,0.2,0.8","0.2,0.2,0.8,0.8,0.2,0.2,0.2,0.8,0.2","2","",""
"","html-keyboard-response","298","80438","0.0-298.0","3H8DHMCCWAX7Q1P9EK2VNJO3BL7KD9","A334VWE4QGAZFR","3L1EFR8WWTRIL5MKAR1UWRHK4IC9FJ","","null","<img src=""img/land6.png"" style=""width:200px; border:14px solid green;"">","null","","","","","","","","","",""
"","image-keyboard-response","299","80644","0.0-299.0","3H8DHMCCWAX7Q1P9EK2VNJO3BL7KD9","A334VWE4QGAZFR","3L1EFR8WWTRIL5MKAR1UWRHK4IC9FJ","","205","img/land2.png","75","206","2","0","1","2","0.8,0.2,0.2,0.2,0.8,0.2,0.2,0.2,0.8","0.2,0.2,0.8,0.8,0.2,0.2,0.2,0.8,0.2","2","",""
"","html-keyboard-response","300","80944","0.0-300.0","3H8DHMCCWAX7Q1P9EK2VNJO3BL7KD9","A334VWE4QGAZFR","3L1EFR8WWTRIL5MKAR1UWRHK4IC9FJ","","null","<img src=""img/land2.png"" style=""width:200px;border:14px solid red;"">","null","","","","","","","","","",""
"","image-keyboard-response","301","81110","0.0-301.0","3H8DHMCCWAX7Q1P9EK2VNJO3BL7KD9","A334VWE4QGAZFR","3L1EFR8WWTRIL5MKAR1UWRHK4IC9FJ","","165","img/land2.png","75","166","2","0","1","2","0.8,0.2,0.2,0.2,0.8,0.2,0.2,0.2,0.8","0.2,0.2,0.8,0.8,0.2,0.2,0.2,0.8,0.2","2","",""
"","html-keyboard-response","302","81411","0.0-302.0","3H8DHMCCWAX7Q1P9EK2VNJO3BL7KD9","A334VWE4QGAZFR","3L1EFR8WWTRIL5MKAR1UWRHK4IC9FJ","","null","<img src=""img/land2.png"" style=""width:200px;border:14px solid red;"">","null","","","","","","","","","",""
"","image-keyboard-response","303","81469","0.0-303.0","3H8DHMCCWAX7Q1P9EK2VNJO3BL7KD9","A334VWE4QGAZFR","3L1EFR8WWTRIL5MKAR1UWRHK4IC9FJ","","58","img/land2.png","74","58","1","0","1","2","0.8,0.2,0.2,0.2,0.8,0.2,0.2,0.2,0.8","0.2,0.2,0.8,0.8,0.2,0.2,0.2,0.8,0.2","2","",""
"","html-keyboard-response","304","81770","0.0-304.0","3H8DHMCCWAX7Q1P9EK2VNJO3BL7KD9","A334VWE4QGAZFR","3L1EFR8WWTRIL5MKAR1UWRHK4IC9FJ","","null","<img src=""img/land2.png"" style=""width:200px;border:14px solid red;"">","null","","","","","","","","","",""
"","image-keyboard-response","305","81802","0.0-305.0","3H8DHMCCWAX7Q1P9EK2VNJO3BL7KD9","A334VWE4QGAZFR","3L1EFR8WWTRIL5MKAR1UWRHK4IC9FJ","","31","img/land2.png","74","32","1","0","1","2","0.8,0.2,0.2,0.2,0.8,0.2,0.2,0.2,0.8","0.2,0.2,0.8,0.8,0.2,0.2,0.2,0.8,0.2","2","",""
"","html-keyboard-response","306","82104","0.0-306.0","3H8DHMCCWAX7Q1P9EK2VNJO3BL7KD9","A334VWE4QGAZFR","3L1EFR8WWTRIL5MKAR1UWRHK4IC9FJ","","null","<img src=""img/land2.png"" style=""width:200px;border:14px solid red;"">","null","","","","","","","","","",""
"","image-keyboard-response","307","82242","0.0-307.0","3H8DHMCCWAX7Q1P9EK2VNJO3BL7KD9","A334VWE4QGAZFR","3L1EFR8WWTRIL5MKAR1UWRHK4IC9FJ","","137","img/land3.png","74","138","1","1","2","2","0.8,0.2,0.2,0.2,0.8,0.2,0.2,0.2,0.8","0.2,0.2,0.8,0.8,0.2,0.2,0.2,0.8,0.2","2","",""
"","html-keyboard-response","308","82543","0.0-308.0","3H8DHMCCWAX7Q1P9EK2VNJO3BL7KD9","A334VWE4QGAZFR","3L1EFR8WWTRIL5MKAR1UWRHK4IC9FJ","","null","<img src=""img/land3.png"" style=""width:200px; border:14px solid green;"">","null","","","","","","","","","",""
"","image-keyboard-response","309","82570","0.0-309.0","3H8DHMCCWAX7Q1P9EK2VNJO3BL7KD9","A334VWE4QGAZFR","3L1EFR8WWTRIL5MKAR1UWRHK4IC9FJ","","26","img/land3.png","74","27","1","1","2","2","0.8,0.2,0.2,0.2,0.8,0.2,0.2,0.2,0.8","0.2,0.2,0.8,0.8,0.2,0.2,0.2,0.8,0.2","2","",""
"","html-keyboard-response","310","82873","0.0-310.0","3H8DHMCCWAX7Q1P9EK2VNJO3BL7KD9","A334VWE4QGAZFR","3L1EFR8WWTRIL5MKAR1UWRHK4IC9FJ","","null","<img src=""img/land3.png"" style=""width:200px; border:14px solid green;"">","null","","","","","","","","","",""
"","image-keyboard-response","311","82998","0.0-311.0","3H8DHMCCWAX7Q1P9EK2VNJO3BL7KD9","A334VWE4QGAZFR","3L1EFR8WWTRIL5MKAR1UWRHK4IC9FJ","","123","img/land2.png","74","125","1","0","1","2","0.8,0.2,0.2,0.2,0.8,0.2,0.2,0.2,0.8","0.2,0.2,0.8,0.8,0.2,0.2,0.2,0.8,0.2","2","",""
"","html-keyboard-response","312","83299","0.0-312.0","3H8DHMCCWAX7Q1P9EK2VNJO3BL7KD9","A334VWE4QGAZFR","3L1EFR8WWTRIL5MKAR1UWRHK4IC9FJ","","null","<img src=""img/land2.png"" style=""width:200px;border:14px solid red;"">","null","","","","","","","","","",""
"","image-keyboard-response","313","83513","0.0-313.0","3H8DHMCCWAX7Q1P9EK2VNJO3BL7KD9","A334VWE4QGAZFR","3L1EFR8WWTRIL5MKAR1UWRHK4IC9FJ","","214","img/land3.png","75","214","2","0","2","2","0.8,0.2,0.2,0.2,0.8,0.2,0.2,0.2,0.8","0.2,0.2,0.8,0.8,0.2,0.2,0.2,0.8,0.2","2","",""
"","html-keyboard-response","314","83815","0.0-314.0","3H8DHMCCWAX7Q1P9EK2VNJO3BL7KD9","A334VWE4QGAZFR","3L1EFR8WWTRIL5MKAR1UWRHK4IC9FJ","","null","<img src=""img/land3.png"" style=""width:200px;border:14px solid red;"">","null","","","","","","","","","",""
"","image-keyboard-response","315","83928","0.0-315.0","3H8DHMCCWAX7Q1P9EK2VNJO3BL7KD9","A334VWE4QGAZFR","3L1EFR8WWTRIL5MKAR1UWRHK4IC9FJ","","113","img/land3.png","75","114","2","0","2","2","0.8,0.2,0.2,0.2,0.8,0.2,0.2,0.2,0.8","0.2,0.2,0.8,0.8,0.2,0.2,0.2,0.8,0.2","2","",""
"","html-keyboard-response","316","84229","0.0-316.0","3H8DHMCCWAX7Q1P9EK2VNJO3BL7KD9","A334VWE4QGAZFR","3L1EFR8WWTRIL5MKAR1UWRHK4IC9FJ","","null","<img src=""img/land3.png"" style=""width:200px;border:14px solid red;"">","null","","","","","","","","","",""
"","image-keyboard-response","317","84381","0.0-317.0","3H8DHMCCWAX7Q1P9EK2VNJO3BL7KD9","A334VWE4QGAZFR","3L1EFR8WWTRIL5MKAR1UWRHK4IC9FJ","","152","img/land2.png","74","152","1","0","1","2","0.8,0.2,0.2,0.2,0.8,0.2,0.2,0.2,0.8","0.2,0.2,0.8,0.8,0.2,0.2,0.2,0.8,0.2","2","",""
"","html-keyboard-response","318","84682","0.0-318.0","3H8DHMCCWAX7Q1P9EK2VNJO3BL7KD9","A334VWE4QGAZFR","3L1EFR8WWTRIL5MKAR1UWRHK4IC9FJ","","null","<img src=""img/land2.png"" style=""width:200px;border:14px solid red;"">","null","","","","","","","","","",""
"","image-keyboard-response","319","84755","0.0-319.0","3H8DHMCCWAX7Q1P9EK2VNJO3BL7KD9","A334VWE4QGAZFR","3L1EFR8WWTRIL5MKAR1UWRHK4IC9FJ","","72","img/land3.png","74","73","1","1","2","2","0.8,0.2,0.2,0.2,0.8,0.2,0.2,0.2,0.8","0.2,0.2,0.8,0.8,0.2,0.2,0.2,0.8,0.2","2","",""
"","html-keyboard-response","320","85056","0.0-320.0","3H8DHMCCWAX7Q1P9EK2VNJO3BL7KD9","A334VWE4QGAZFR","3L1EFR8WWTRIL5MKAR1UWRHK4IC9FJ","","null","<img src=""img/land3.png"" style=""width:200px; border:14px solid green;"">","null","","","","","","","","","",""
"","image-keyboard-response","321","85073","0.0-321.0","3H8DHMCCWAX7Q1P9EK2VNJO3BL7KD9","A334VWE4QGAZFR","3L1EFR8WWTRIL5MKAR1UWRHK4IC9FJ","","16","img/land2.png","74","17","1","1","1","2","0.8,0.2,0.2,0.2,0.8,0.2,0.2,0.2,0.8","0.2,0.2,0.8,0.8,0.2,0.2,0.2,0.8,0.2","2","",""
"","html-keyboard-response","322","85374","0.0-322.0","3H8DHMCCWAX7Q1P9EK2VNJO3BL7KD9","A334VWE4QGAZFR","3L1EFR8WWTRIL5MKAR1UWRHK4IC9FJ","","null","<img src=""img/land2.png"" style=""width:200px; border:14px solid green;"">","null","","","","","","","","","",""
"","image-keyboard-response","323","85421","0.0-323.0","3H8DHMCCWAX7Q1P9EK2VNJO3BL7KD9","A334VWE4QGAZFR","3L1EFR8WWTRIL5MKAR1UWRHK4IC9FJ","","46","img/land2.png","74","47","1","0","1","2","0.8,0.2,0.2,0.2,0.8,0.2,0.2,0.2,0.8","0.2,0.2,0.8,0.8,0.2,0.2,0.2,0.8,0.2","2","",""
"","html-keyboard-response","324","85723","0.0-324.0","3H8DHMCCWAX7Q1P9EK2VNJO3BL7KD9","A334VWE4QGAZFR","3L1EFR8WWTRIL5MKAR1UWRHK4IC9FJ","","null","<img src=""img/land2.png"" style=""width:200px;border:14px solid red;"">","null","","","","","","","","","",""
"","image-keyboard-response","325","85751","0.0-325.0","3H8DHMCCWAX7Q1P9EK2VNJO3BL7KD9","A334VWE4QGAZFR","3L1EFR8WWTRIL5MKAR1UWRHK4IC9FJ","","27","img/land6.png","74","28","1","0","3","2","0.8,0.2,0.2,0.2,0.8,0.2,0.2,0.2,0.8","0.2,0.2,0.8,0.8,0.2,0.2,0.2,0.8,0.2","2","",""
"","html-keyboard-response","326","86052","0.0-326.0","3H8DHMCCWAX7Q1P9EK2VNJO3BL7KD9","A334VWE4QGAZFR","3L1EFR8WWTRIL5MKAR1UWRHK4IC9FJ","","null","<img src=""img/land6.png"" style=""width:200px;border:14px solid red;"">","null","","","","","","","","","",""
"","image-keyboard-response","327","86215","0.0-327.0","3H8DHMCCWAX7Q1P9EK2VNJO3BL7KD9","A334VWE4QGAZFR","3L1EFR8WWTRIL5MKAR1UWRHK4IC9FJ","","162","img/land6.png","75","163","2","1","3","2","0.8,0.2,0.2,0.2,0.8,0.2,0.2,0.2,0.8","0.2,0.2,0.8,0.8,0.2,0.2,0.2,0.8,0.2","2","",""
"","html-keyboard-response","328","86517","0.0-328.0","3H8DHMCCWAX7Q1P9EK2VNJO3BL7KD9","A334VWE4QGAZFR","3L1EFR8WWTRIL5MKAR1UWRHK4IC9FJ","","null","<img src=""img/land6.png"" style=""width:200px; border:14px solid green;"">","null","","","","","","","","","",""
"","image-keyboard-response","329","86684","0.0-329.0","3H8DHMCCWAX7Q1P9EK2VNJO3BL7KD9","A334VWE4QGAZFR","3L1EFR8WWTRIL5MKAR1UWRHK4IC9FJ","","166","img/land2.png","75","167","2","0","1","2","0.8,0.2,0.2,0.2,0.8,0.2,0.2,0.2,0.8","0.2,0.2,0.8,0.8,0.2,0.2,0.2,0.8,0.2","2","",""
"","html-keyboard-response","330","86986","0.0-330.0","3H8DHMCCWAX7Q1P9EK2VNJO3BL7KD9","A334VWE4QGAZFR","3L1EFR8WWTRIL5MKAR1UWRHK4IC9FJ","","null","<img src=""img/land2.png"" style=""width:200px;border:14px solid red;"">","null","","","","","","","","","",""
"","image-keyboard-response","331","87130","0.0-331.0","3H8DHMCCWAX7Q1P9EK2VNJO3BL7KD9","A334VWE4QGAZFR","3L1EFR8WWTRIL5MKAR1UWRHK4IC9FJ","","143","img/land6.png","75","144","2","0","3","2","0.8,0.2,0.2,0.2,0.8,0.2,0.2,0.2,0.8","0.2,0.2,0.8,0.8,0.2,0.2,0.2,0.8,0.2","2","",""
"","html-keyboard-response","332","87431","0.0-332.0","3H8DHMCCWAX7Q1P9EK2VNJO3BL7KD9","A334VWE4QGAZFR","3L1EFR8WWTRIL5MKAR1UWRHK4IC9FJ","","null","<img src=""img/land6.png"" style=""width:200px;border:14px solid red;"">","null","","","","","","","","","",""
"","image-keyboard-response","333","87507","0.0-333.0","3H8DHMCCWAX7Q1P9EK2VNJO3BL7KD9","A334VWE4QGAZFR","3L1EFR8WWTRIL5MKAR1UWRHK4IC9FJ","","75","img/land6.png","74","76","1","0","3","2","0.8,0.2,0.2,0.2,0.8,0.2,0.2,0.2,0.8","0.2,0.2,0.8,0.8,0.2,0.2,0.2,0.8,0.2","2","",""
"","html-keyboard-response","334","87809","0.0-334.0","3H8DHMCCWAX7Q1P9EK2VNJO3BL7KD9","A334VWE4QGAZFR","3L1EFR8WWTRIL5MKAR1UWRHK4IC9FJ","","null","<img src=""img/land6.png"" style=""width:200px;border:14px solid red;"">","null","","","","","","","","","",""
"","image-keyboard-response","335","87894","0.0-335.0","3H8DHMCCWAX7Q1P9EK2VNJO3BL7KD9","A334VWE4QGAZFR","3L1EFR8WWTRIL5MKAR1UWRHK4IC9FJ","","84","img/land6.png","74","85","1","0","3","2","0.8,0.2,0.2,0.2,0.8,0.2,0.2,0.2,0.8","0.2,0.2,0.8,0.8,0.2,0.2,0.2,0.8,0.2","2","",""
"","html-keyboard-response","336","88195","0.0-336.0","3H8DHMCCWAX7Q1P9EK2VNJO3BL7KD9","A334VWE4QGAZFR","3L1EFR8WWTRIL5MKAR1UWRHK4IC9FJ","","null","<img src=""img/land6.png"" style=""width:200px;border:14px solid red;"">","null","","","","","","","","","",""
"","image-keyboard-response","337","88231","0.0-337.0","3H8DHMCCWAX7Q1P9EK2VNJO3BL7KD9","A334VWE4QGAZFR","3L1EFR8WWTRIL5MKAR1UWRHK4IC9FJ","","35","img/land2.png","74","36","1","1","1","2","0.8,0.2,0.2,0.2,0.8,0.2,0.2,0.2,0.8","0.2,0.2,0.8,0.8,0.2,0.2,0.2,0.8,0.2","2","",""
"","html-keyboard-response","338","88532","0.0-338.0","3H8DHMCCWAX7Q1P9EK2VNJO3BL7KD9","A334VWE4QGAZFR","3L1EFR8WWTRIL5MKAR1UWRHK4IC9FJ","","null","<img src=""img/land2.png"" style=""width:200px; border:14px solid green;"">","null","","","","","","","","","",""
"","image-keyboard-response","339","88768","0.0-339.0","3H8DHMCCWAX7Q1P9EK2VNJO3BL7KD9","A334VWE4QGAZFR","3L1EFR8WWTRIL5MKAR1UWRHK4IC9FJ","","236","img/land2.png","75","236","2","0","1","2","0.8,0.2,0.2,0.2,0.8,0.2,0.2,0.2,0.8","0.2,0.2,0.8,0.8,0.2,0.2,0.2,0.8,0.2","2","",""
"","html-keyboard-response","340","89070","0.0-340.0","3H8DHMCCWAX7Q1P9EK2VNJO3BL7KD9","A334VWE4QGAZFR","3L1EFR8WWTRIL5MKAR1UWRHK4IC9FJ","","null","<img src=""img/land2.png"" style=""width:200px;border:14px solid red;"">","null","","","","","","","","","",""
"","image-keyboard-response","341","89096","0.0-341.0","3H8DHMCCWAX7Q1P9EK2VNJO3BL7KD9","A334VWE4QGAZFR","3L1EFR8WWTRIL5MKAR1UWRHK4IC9FJ","","25","img/land2.png","76","26","3","1","1","2","0.8,0.2,0.2,0.2,0.8,0.2,0.2,0.2,0.8","0.2,0.2,0.8,0.8,0.2,0.2,0.2,0.8,0.2","2","",""
"","html-keyboard-response","342","89396","0.0-342.0","3H8DHMCCWAX7Q1P9EK2VNJO3BL7KD9","A334VWE4QGAZFR","3L1EFR8WWTRIL5MKAR1UWRHK4IC9FJ","","null","<img src=""img/land2.png"" style=""width:200px; border:14px solid green;"">","null","","","","","","","","","",""
"","image-keyboard-response","343","89523","0.0-343.0","3H8DHMCCWAX7Q1P9EK2VNJO3BL7KD9","A334VWE4QGAZFR","3L1EFR8WWTRIL5MKAR1UWRHK4IC9FJ","","125","img/land6.png","75","127","2","1","3","2","0.8,0.2,0.2,0.2,0.8,0.2,0.2,0.2,0.8","0.2,0.2,0.8,0.8,0.2,0.2,0.2,0.8,0.2","2","",""
"","html-keyboard-response","344","89824","0.0-344.0","3H8DHMCCWAX7Q1P9EK2VNJO3BL7KD9","A334VWE4QGAZFR","3L1EFR8WWTRIL5MKAR1UWRHK4IC9FJ","","null","<img src=""img/land6.png"" style=""width:200px; border:14px solid green;"">","null","","","","","","","","","",""
"","image-keyboard-response","345","89833","0.0-345.0","3H8DHMCCWAX7Q1P9EK2VNJO3BL7KD9","A334VWE4QGAZFR","3L1EFR8WWTRIL5MKAR1UWRHK4IC9FJ","","8","img/land2.png","75","9","2","0","1","2","0.8,0.2,0.2,0.2,0.8,0.2,0.2,0.2,0.8","0.2,0.2,0.8,0.8,0.2,0.2,0.2,0.8,0.2","2","",""
"","html-keyboard-response","346","90134","0.0-346.0","3H8DHMCCWAX7Q1P9EK2VNJO3BL7KD9","A334VWE4QGAZFR","3L1EFR8WWTRIL5MKAR1UWRHK4IC9FJ","","null","<img src=""img/land2.png"" style=""width:200px;border:14px solid red;"">","null","","","","","","","","","",""
"","image-keyboard-response","347","90156","0.0-347.0","3H8DHMCCWAX7Q1P9EK2VNJO3BL7KD9","A334VWE4QGAZFR","3L1EFR8WWTRIL5MKAR1UWRHK4IC9FJ","","21","img/land3.png","74","22","1","1","2","2","0.8,0.2,0.2,0.2,0.8,0.2,0.2,0.2,0.8","0.2,0.2,0.8,0.8,0.2,0.2,0.2,0.8,0.2","2","",""
"","html-keyboard-response","348","90458","0.0-348.0","3H8DHMCCWAX7Q1P9EK2VNJO3BL7KD9","A334VWE4QGAZFR","3L1EFR8WWTRIL5MKAR1UWRHK4IC9FJ","","null","<img src=""img/land3.png"" style=""width:200px; border:14px solid green;"">","null","","","","","","","","","",""
"","image-keyboard-response","349","90496","0.0-349.0","3H8DHMCCWAX7Q1P9EK2VNJO3BL7KD9","A334VWE4QGAZFR","3L1EFR8WWTRIL5MKAR1UWRHK4IC9FJ","","36","img/land3.png","75","38","2","0","2","2","0.8,0.2,0.2,0.2,0.8,0.2,0.2,0.2,0.8","0.2,0.2,0.8,0.8,0.2,0.2,0.2,0.8,0.2","2","",""
"","html-keyboard-response","350","90796","0.0-350.0","3H8DHMCCWAX7Q1P9EK2VNJO3BL7KD9","A334VWE4QGAZFR","3L1EFR8WWTRIL5MKAR1UWRHK4IC9FJ","","null","<img src=""img/land3.png"" style=""width:200px;border:14px solid red;"">","null","","","","","","","","","",""
"","image-keyboard-response","351","90924","0.0-351.0","3H8DHMCCWAX7Q1P9EK2VNJO3BL7KD9","A334VWE4QGAZFR","3L1EFR8WWTRIL5MKAR1UWRHK4IC9FJ","","127","img/land2.png","74","128","1","1","1","2","0.8,0.2,0.2,0.2,0.8,0.2,0.2,0.2,0.8","0.2,0.2,0.8,0.8,0.2,0.2,0.2,0.8,0.2","2","",""
"","html-keyboard-response","352","91225","0.0-352.0","3H8DHMCCWAX7Q1P9EK2VNJO3BL7KD9","A334VWE4QGAZFR","3L1EFR8WWTRIL5MKAR1UWRHK4IC9FJ","","null","<img src=""img/land2.png"" style=""width:200px; border:14px solid green;"">","null","","","","","","","","","",""
"","image-keyboard-response","353","91265","0.0-353.0","3H8DHMCCWAX7Q1P9EK2VNJO3BL7KD9","A334VWE4QGAZFR","3L1EFR8WWTRIL5MKAR1UWRHK4IC9FJ","","39","img/land2.png","75","40","2","0","1","2","0.8,0.2,0.2,0.2,0.8,0.2,0.2,0.2,0.8","0.2,0.2,0.8,0.8,0.2,0.2,0.2,0.8,0.2","2","",""
"","html-keyboard-response","354","91579","0.0-354.0","3H8DHMCCWAX7Q1P9EK2VNJO3BL7KD9","A334VWE4QGAZFR","3L1EFR8WWTRIL5MKAR1UWRHK4IC9FJ","","null","<img src=""img/land2.png"" style=""width:200px;border:14px solid red;"">","null","","","","","","","","","",""
"","image-keyboard-response","355","91649","0.0-355.0","3H8DHMCCWAX7Q1P9EK2VNJO3BL7KD9","A334VWE4QGAZFR","3L1EFR8WWTRIL5MKAR1UWRHK4IC9FJ","","65","img/land2.png","76","66","3","0","1","2","0.8,0.2,0.2,0.2,0.8,0.2,0.2,0.2,0.8","0.2,0.2,0.8,0.8,0.2,0.2,0.2,0.8,0.2","2","",""
"","html-keyboard-response","356","91951","0.0-356.0","3H8DHMCCWAX7Q1P9EK2VNJO3BL7KD9","A334VWE4QGAZFR","3L1EFR8WWTRIL5MKAR1UWRHK4IC9FJ","","null","<img src=""img/land2.png"" style=""width:200px;border:14px solid red;"">","null","","","","","","","","","",""
"","image-keyboard-response","357","91996","0.0-357.0","3H8DHMCCWAX7Q1P9EK2VNJO3BL7KD9","A334VWE4QGAZFR","3L1EFR8WWTRIL5MKAR1UWRHK4IC9FJ","","44","img/land2.png","75","45","2","0","1","2","0.8,0.2,0.2,0.2,0.8,0.2,0.2,0.2,0.8","0.2,0.2,0.8,0.8,0.2,0.2,0.2,0.8,0.2","2","",""
"","html-keyboard-response","358","92297","0.0-358.0","3H8DHMCCWAX7Q1P9EK2VNJO3BL7KD9","A334VWE4QGAZFR","3L1EFR8WWTRIL5MKAR1UWRHK4IC9FJ","","null","<img src=""img/land2.png"" style=""width:200px;border:14px solid red;"">","null","","","","","","","","","",""
"","image-keyboard-response","359","92453","0.0-359.0","3H8DHMCCWAX7Q1P9EK2VNJO3BL7KD9","A334VWE4QGAZFR","3L1EFR8WWTRIL5MKAR1UWRHK4IC9FJ","","154","img/land3.png","74","156","1","0","2","2","0.8,0.2,0.2,0.2,0.8,0.2,0.2,0.2,0.8","0.2,0.2,0.8,0.8,0.2,0.2,0.2,0.8,0.2","2","",""
"","html-keyboard-response","360","92753","0.0-360.0","3H8DHMCCWAX7Q1P9EK2VNJO3BL7KD9","A334VWE4QGAZFR","3L1EFR8WWTRIL5MKAR1UWRHK4IC9FJ","","null","<img src=""img/land3.png"" style=""width:200px;border:14px solid red;"">","null","","","","","","","","","",""
"","image-keyboard-response","361","92859","0.0-361.0","3H8DHMCCWAX7Q1P9EK2VNJO3BL7KD9","A334VWE4QGAZFR","3L1EFR8WWTRIL5MKAR1UWRHK4IC9FJ","","105","img/land2.png","74","106","1","0","1","2","0.8,0.2,0.2,0.2,0.8,0.2,0.2,0.2,0.8","0.2,0.2,0.8,0.8,0.2,0.2,0.2,0.8,0.2","2","",""
"","html-keyboard-response","362","93161","0.0-362.0","3H8DHMCCWAX7Q1P9EK2VNJO3BL7KD9","A334VWE4QGAZFR","3L1EFR8WWTRIL5MKAR1UWRHK4IC9FJ","","null","<img src=""img/land2.png"" style=""width:200px;border:14px solid red;"">","null","","","","","","","","","",""
"","image-keyboard-response","363","93198","0.0-363.0","3H8DHMCCWAX7Q1P9EK2VNJO3BL7KD9","A334VWE4QGAZFR","3L1EFR8WWTRIL5MKAR1UWRHK4IC9FJ","","36","img/land6.png","74","37","1","0","3","2","0.8,0.2,0.2,0.2,0.8,0.2,0.2,0.2,0.8","0.2,0.2,0.8,0.8,0.2,0.2,0.2,0.8,0.2","2","",""
"","html-keyboard-response","364","93500","0.0-364.0","3H8DHMCCWAX7Q1P9EK2VNJO3BL7KD9","A334VWE4QGAZFR","3L1EFR8WWTRIL5MKAR1UWRHK4IC9FJ","","null","<img src=""img/land6.png"" style=""width:200px;border:14px solid red;"">","null","","","","","","","","","",""
"","image-keyboard-response","365","93705","0.0-365.0","3H8DHMCCWAX7Q1P9EK2VNJO3BL7KD9","A334VWE4QGAZFR","3L1EFR8WWTRIL5MKAR1UWRHK4IC9FJ","","203","img/land6.png","75","204","2","0","3","2","0.8,0.2,0.2,0.2,0.8,0.2,0.2,0.2,0.8","0.2,0.2,0.8,0.8,0.2,0.2,0.2,0.8,0.2","2","",""
"","html-keyboard-response","366","94006","0.0-366.0","3H8DHMCCWAX7Q1P9EK2VNJO3BL7KD9","A334VWE4QGAZFR","3L1EFR8WWTRIL5MKAR1UWRHK4IC9FJ","","null","<img src=""img/land6.png"" style=""width:200px;border:14px solid red;"">","null","","","","","","","","","",""
"","image-keyboard-response","367","94171","0.0-367.0","3H8DHMCCWAX7Q1P9EK2VNJO3BL7KD9","A334VWE4QGAZFR","3L1EFR8WWTRIL5MKAR1UWRHK4IC9FJ","","164","img/land2.png","74","165","1","0","1","2","0.8,0.2,0.2,0.2,0.8,0.2,0.2,0.2,0.8","0.2,0.2,0.8,0.8,0.2,0.2,0.2,0.8,0.2","2","",""
"","html-keyboard-response","368","94478","0.0-368.0","3H8DHMCCWAX7Q1P9EK2VNJO3BL7KD9","A334VWE4QGAZFR","3L1EFR8WWTRIL5MKAR1UWRHK4IC9FJ","","null","<img src=""img/land2.png"" style=""width:200px;border:14px solid red;"">","null","","","","","","","","","",""
"","image-keyboard-response","369","94578","0.0-369.0","3H8DHMCCWAX7Q1P9EK2VNJO3BL7KD9","A334VWE4QGAZFR","3L1EFR8WWTRIL5MKAR1UWRHK4IC9FJ","","98","img/land6.png","74","100","1","0","3","2","0.8,0.2,0.2,0.2,0.8,0.2,0.2,0.2,0.8","0.2,0.2,0.8,0.8,0.2,0.2,0.2,0.8,0.2","2","",""
"","html-keyboard-response","370","94878","0.0-370.0","3H8DHMCCWAX7Q1P9EK2VNJO3BL7KD9","A334VWE4QGAZFR","3L1EFR8WWTRIL5MKAR1UWRHK4IC9FJ","","null","<img src=""img/land6.png"" style=""width:200px;border:14px solid red;"">","null","","","","","","","","","",""
"","image-keyboard-response","371","94890","0.0-371.0","3H8DHMCCWAX7Q1P9EK2VNJO3BL7KD9","A334VWE4QGAZFR","3L1EFR8WWTRIL5MKAR1UWRHK4IC9FJ","","11","img/land2.png","74","12","1","0","1","2","0.8,0.2,0.2,0.2,0.8,0.2,0.2,0.2,0.8","0.2,0.2,0.8,0.8,0.2,0.2,0.2,0.8,0.2","2","",""
"","html-keyboard-response","372","95190","0.0-372.0","3H8DHMCCWAX7Q1P9EK2VNJO3BL7KD9","A334VWE4QGAZFR","3L1EFR8WWTRIL5MKAR1UWRHK4IC9FJ","","null","<img src=""img/land2.png"" style=""width:200px;border:14px solid red;"">","null","","","","","","","","","",""
