"success","trial_type","trial_index","time_elapsed","internal_node_id","assignmentID","mturkID","hitID","view_history","rt","stimulus","key_press","reactionTime","a","r","s","cond","reward_cond","reward_cond_actual","reward_matrix_idx","responses","question_order"
"true","fullscreen","0","492426","0.0-0.0","39JEC7537VNB1KD7DSLR5MH26GTVCR","A336V7IY38Q2WN","3WRBLBQ2GRU63BU2LFOJL1G32T90GO","","","","","","","","","","","","","",""
"","instructions","1","523471","0.0-1.0","39JEC7537VNB1KD7DSLR5MH26GTVCR","A336V7IY38Q2WN","3WRBLBQ2GRU63BU2LFOJL1G32T90GO","[{""page_index"":0,""viewing_time"":13387},{""page_index"":1,""viewing_time"":5535},{""page_index"":2,""viewing_time"":3721},{""page_index"":3,""viewing_time"":4615},{""page_index"":4,""viewing_time"":1448},{""page_index"":5,""viewing_time"":1321},{""page_index"":6,""viewing_time"":1016}]","31043","","","","","","","","","","","",""
"","image-keyboard-response","2","524114","0.0-2.0","39JEC7537VNB1KD7DSLR5MH26GTVCR","A336V7IY38Q2WN","3WRBLBQ2GRU63BU2LFOJL1G32T90GO","","641","img/land3.png","75","642","2","0","2","1","0.8,0.2,0.2,0.2,0.8,0.2,0.2,0.2,0.8","0.8,0.2,0.2,0.2,0.8,0.2,0.2,0.2,0.8","1","",""
"","html-keyboard-response","3","524426","0.0-3.0","39JEC7537VNB1KD7DSLR5MH26GTVCR","A336V7IY38Q2WN","3WRBLBQ2GRU63BU2LFOJL1G32T90GO","","null","<img src=""img/land3.png"" style=""width:200px;border:14px solid red;"">","null","","","","","","","","","",""
"","image-keyboard-response","4","525090","0.0-4.0","39JEC7537VNB1KD7DSLR5MH26GTVCR","A336V7IY38Q2WN","3WRBLBQ2GRU63BU2LFOJL1G32T90GO","","664","img/land5.png","76","664","3","1","1","1","0.8,0.2,0.2,0.2,0.8,0.2,0.2,0.2,0.8","0.8,0.2,0.2,0.2,0.8,0.2,0.2,0.2,0.8","1","",""
"","html-keyboard-response","5","525395","0.0-5.0","39JEC7537VNB1KD7DSLR5MH26GTVCR","A336V7IY38Q2WN","3WRBLBQ2GRU63BU2LFOJL1G32T90GO","","null","<img src=""img/land5.png"" style=""width:200px; border:14px solid green;"">","null","","","","","","","","","",""
"","image-keyboard-response","6","525898","0.0-6.0","39JEC7537VNB1KD7DSLR5MH26GTVCR","A336V7IY38Q2WN","3WRBLBQ2GRU63BU2LFOJL1G32T90GO","","501","img/land4.png","74","503","1","1","3","1","0.8,0.2,0.2,0.2,0.8,0.2,0.2,0.2,0.8","0.8,0.2,0.2,0.2,0.8,0.2,0.2,0.2,0.8","1","",""
"","html-keyboard-response","7","526206","0.0-7.0","39JEC7537VNB1KD7DSLR5MH26GTVCR","A336V7IY38Q2WN","3WRBLBQ2GRU63BU2LFOJL1G32T90GO","","null","<img src=""img/land4.png"" style=""width:200px; border:14px solid green;"">","null","","","","","","","","","",""
"","image-keyboard-response","8","526722","0.0-8.0","39JEC7537VNB1KD7DSLR5MH26GTVCR","A336V7IY38Q2WN","3WRBLBQ2GRU63BU2LFOJL1G32T90GO","","515","img/land4.png","74","516","1","0","3","1","0.8,0.2,0.2,0.2,0.8,0.2,0.2,0.2,0.8","0.8,0.2,0.2,0.2,0.8,0.2,0.2,0.2,0.8","1","",""
"","html-keyboard-response","9","527025","0.0-9.0","39JEC7537VNB1KD7DSLR5MH26GTVCR","A336V7IY38Q2WN","3WRBLBQ2GRU63BU2LFOJL1G32T90GO","","null","<img src=""img/land4.png"" style=""width:200px;border:14px solid red;"">","null","","","","","","","","","",""
"","image-keyboard-response","10","527946","0.0-10.0","39JEC7537VNB1KD7DSLR5MH26GTVCR","A336V7IY38Q2WN","3WRBLBQ2GRU63BU2LFOJL1G32T90GO","","919","img/land3.png","75","920","2","1","2","1","0.8,0.2,0.2,0.2,0.8,0.2,0.2,0.2,0.8","0.8,0.2,0.2,0.2,0.8,0.2,0.2,0.2,0.8","1","",""
"","html-keyboard-response","11","528256","0.0-11.0","39JEC7537VNB1KD7DSLR5MH26GTVCR","A336V7IY38Q2WN","3WRBLBQ2GRU63BU2LFOJL1G32T90GO","","null","<img src=""img/land3.png"" style=""width:200px; border:14px solid green;"">","null","","","","","","","","","",""
"","image-keyboard-response","12","529042","0.0-12.0","39JEC7537VNB1KD7DSLR5MH26GTVCR","A336V7IY38Q2WN","3WRBLBQ2GRU63BU2LFOJL1G32T90GO","","785","img/land5.png","76","786","3","0","1","1","0.8,0.2,0.2,0.2,0.8,0.2,0.2,0.2,0.8","0.8,0.2,0.2,0.2,0.8,0.2,0.2,0.2,0.8","1","",""
"","html-keyboard-response","13","529345","0.0-13.0","39JEC7537VNB1KD7DSLR5MH26GTVCR","A336V7IY38Q2WN","3WRBLBQ2GRU63BU2LFOJL1G32T90GO","","null","<img src=""img/land5.png"" style=""width:200px;border:14px solid red;"">","null","","","","","","","","","",""
"","image-keyboard-response","14","529946","0.0-14.0","39JEC7537VNB1KD7DSLR5MH26GTVCR","A336V7IY38Q2WN","3WRBLBQ2GRU63BU2LFOJL1G32T90GO","","599","img/land5.png","76","600","3","0","1","1","0.8,0.2,0.2,0.2,0.8,0.2,0.2,0.2,0.8","0.8,0.2,0.2,0.2,0.8,0.2,0.2,0.2,0.8","1","",""
"","html-keyboard-response","15","530255","0.0-15.0","39JEC7537VNB1KD7DSLR5MH26GTVCR","A336V7IY38Q2WN","3WRBLBQ2GRU63BU2LFOJL1G32T90GO","","null","<img src=""img/land5.png"" style=""width:200px;border:14px solid red;"">","null","","","","","","","","","",""
"","image-keyboard-response","16","531018","0.0-16.0","39JEC7537VNB1KD7DSLR5MH26GTVCR","A336V7IY38Q2WN","3WRBLBQ2GRU63BU2LFOJL1G32T90GO","","762","img/land4.png","75","762","2","1","3","1","0.8,0.2,0.2,0.2,0.8,0.2,0.2,0.2,0.8","0.8,0.2,0.2,0.2,0.8,0.2,0.2,0.2,0.8","1","",""
"","html-keyboard-response","17","531325","0.0-17.0","39JEC7537VNB1KD7DSLR5MH26GTVCR","A336V7IY38Q2WN","3WRBLBQ2GRU63BU2LFOJL1G32T90GO","","null","<img src=""img/land4.png"" style=""width:200px; border:14px solid green;"">","null","","","","","","","","","",""
"","image-keyboard-response","18","532170","0.0-18.0","39JEC7537VNB1KD7DSLR5MH26GTVCR","A336V7IY38Q2WN","3WRBLBQ2GRU63BU2LFOJL1G32T90GO","","844","img/land3.png","74","844","1","0","2","1","0.8,0.2,0.2,0.2,0.8,0.2,0.2,0.2,0.8","0.8,0.2,0.2,0.2,0.8,0.2,0.2,0.2,0.8","1","",""
"","html-keyboard-response","19","532475","0.0-19.0","39JEC7537VNB1KD7DSLR5MH26GTVCR","A336V7IY38Q2WN","3WRBLBQ2GRU63BU2LFOJL1G32T90GO","","null","<img src=""img/land3.png"" style=""width:200px;border:14px solid red;"">","null","","","","","","","","","",""
"","image-keyboard-response","20","533098","0.0-20.0","39JEC7537VNB1KD7DSLR5MH26GTVCR","A336V7IY38Q2WN","3WRBLBQ2GRU63BU2LFOJL1G32T90GO","","622","img/land3.png","74","622","1","1","2","1","0.8,0.2,0.2,0.2,0.8,0.2,0.2,0.2,0.8","0.8,0.2,0.2,0.2,0.8,0.2,0.2,0.2,0.8","1","",""
"","html-keyboard-response","21","533405","0.0-21.0","39JEC7537VNB1KD7DSLR5MH26GTVCR","A336V7IY38Q2WN","3WRBLBQ2GRU63BU2LFOJL1G32T90GO","","null","<img src=""img/land3.png"" style=""width:200px; border:14px solid green;"">","null","","","","","","","","","",""
"","image-keyboard-response","22","534250","0.0-22.0","39JEC7537VNB1KD7DSLR5MH26GTVCR","A336V7IY38Q2WN","3WRBLBQ2GRU63BU2LFOJL1G32T90GO","","844","img/land5.png","75","844","2","0","1","1","0.8,0.2,0.2,0.2,0.8,0.2,0.2,0.2,0.8","0.8,0.2,0.2,0.2,0.8,0.2,0.2,0.2,0.8","1","",""
"","html-keyboard-response","23","534555","0.0-23.0","39JEC7537VNB1KD7DSLR5MH26GTVCR","A336V7IY38Q2WN","3WRBLBQ2GRU63BU2LFOJL1G32T90GO","","null","<img src=""img/land5.png"" style=""width:200px;border:14px solid red;"">","null","","","","","","","","","",""
"","image-keyboard-response","24","535522","0.0-24.0","39JEC7537VNB1KD7DSLR5MH26GTVCR","A336V7IY38Q2WN","3WRBLBQ2GRU63BU2LFOJL1G32T90GO","","966","img/land5.png","75","966","2","0","1","1","0.8,0.2,0.2,0.2,0.8,0.2,0.2,0.2,0.8","0.8,0.2,0.2,0.2,0.8,0.2,0.2,0.2,0.8","1","",""
"","html-keyboard-response","25","535826","0.0-25.0","39JEC7537VNB1KD7DSLR5MH26GTVCR","A336V7IY38Q2WN","3WRBLBQ2GRU63BU2LFOJL1G32T90GO","","null","<img src=""img/land5.png"" style=""width:200px;border:14px solid red;"">","null","","","","","","","","","",""
"","image-keyboard-response","26","536497","0.0-26.0","39JEC7537VNB1KD7DSLR5MH26GTVCR","A336V7IY38Q2WN","3WRBLBQ2GRU63BU2LFOJL1G32T90GO","","671","img/land4.png","76","672","3","1","3","1","0.8,0.2,0.2,0.2,0.8,0.2,0.2,0.2,0.8","0.8,0.2,0.2,0.2,0.8,0.2,0.2,0.2,0.8","1","",""
"","html-keyboard-response","27","536805","0.0-27.0","39JEC7537VNB1KD7DSLR5MH26GTVCR","A336V7IY38Q2WN","3WRBLBQ2GRU63BU2LFOJL1G32T90GO","","null","<img src=""img/land4.png"" style=""width:200px; border:14px solid green;"">","null","","","","","","","","","",""
"","image-keyboard-response","28","537681","0.0-28.0","39JEC7537VNB1KD7DSLR5MH26GTVCR","A336V7IY38Q2WN","3WRBLBQ2GRU63BU2LFOJL1G32T90GO","","877","img/land5.png","75","877","2","0","1","1","0.8,0.2,0.2,0.2,0.8,0.2,0.2,0.2,0.8","0.8,0.2,0.2,0.2,0.8,0.2,0.2,0.2,0.8","1","",""
"","html-keyboard-response","29","537985","0.0-29.0","39JEC7537VNB1KD7DSLR5MH26GTVCR","A336V7IY38Q2WN","3WRBLBQ2GRU63BU2LFOJL1G32T90GO","","null","<img src=""img/land5.png"" style=""width:200px;border:14px solid red;"">","null","","","","","","","","","",""
"","image-keyboard-response","30","539025","0.0-30.0","39JEC7537VNB1KD7DSLR5MH26GTVCR","A336V7IY38Q2WN","3WRBLBQ2GRU63BU2LFOJL1G32T90GO","","1040","img/land4.png","74","1040","1","1","3","1","0.8,0.2,0.2,0.2,0.8,0.2,0.2,0.2,0.8","0.8,0.2,0.2,0.2,0.8,0.2,0.2,0.2,0.8","1","",""
"","html-keyboard-response","31","539335","0.0-31.0","39JEC7537VNB1KD7DSLR5MH26GTVCR","A336V7IY38Q2WN","3WRBLBQ2GRU63BU2LFOJL1G32T90GO","","null","<img src=""img/land4.png"" style=""width:200px; border:14px solid green;"">","null","","","","","","","","","",""
"","image-keyboard-response","32","540449","0.0-32.0","39JEC7537VNB1KD7DSLR5MH26GTVCR","A336V7IY38Q2WN","3WRBLBQ2GRU63BU2LFOJL1G32T90GO","","1112","img/land4.png","74","1114","1","0","3","1","0.8,0.2,0.2,0.2,0.8,0.2,0.2,0.2,0.8","0.8,0.2,0.2,0.2,0.8,0.2,0.2,0.2,0.8","1","",""
"","html-keyboard-response","33","540755","0.0-33.0","39JEC7537VNB1KD7DSLR5MH26GTVCR","A336V7IY38Q2WN","3WRBLBQ2GRU63BU2LFOJL1G32T90GO","","null","<img src=""img/land4.png"" style=""width:200px;border:14px solid red;"">","null","","","","","","","","","",""
"","image-keyboard-response","34","541555","0.0-34.0","39JEC7537VNB1KD7DSLR5MH26GTVCR","A336V7IY38Q2WN","3WRBLBQ2GRU63BU2LFOJL1G32T90GO","","799","img/land5.png","75","799","2","0","1","1","0.8,0.2,0.2,0.2,0.8,0.2,0.2,0.2,0.8","0.8,0.2,0.2,0.2,0.8,0.2,0.2,0.2,0.8","1","",""
"","html-keyboard-response","35","541865","0.0-35.0","39JEC7537VNB1KD7DSLR5MH26GTVCR","A336V7IY38Q2WN","3WRBLBQ2GRU63BU2LFOJL1G32T90GO","","null","<img src=""img/land5.png"" style=""width:200px;border:14px solid red;"">","null","","","","","","","","","",""
"","image-keyboard-response","36","542130","0.0-36.0","39JEC7537VNB1KD7DSLR5MH26GTVCR","A336V7IY38Q2WN","3WRBLBQ2GRU63BU2LFOJL1G32T90GO","","265","img/land5.png","76","265","3","1","1","1","0.8,0.2,0.2,0.2,0.8,0.2,0.2,0.2,0.8","0.8,0.2,0.2,0.2,0.8,0.2,0.2,0.2,0.8","1","",""
"","html-keyboard-response","37","542435","0.0-37.0","39JEC7537VNB1KD7DSLR5MH26GTVCR","A336V7IY38Q2WN","3WRBLBQ2GRU63BU2LFOJL1G32T90GO","","null","<img src=""img/land5.png"" style=""width:200px; border:14px solid green;"">","null","","","","","","","","","",""
"","image-keyboard-response","38","543049","0.0-38.0","39JEC7537VNB1KD7DSLR5MH26GTVCR","A336V7IY38Q2WN","3WRBLBQ2GRU63BU2LFOJL1G32T90GO","","613","img/land5.png","76","614","3","0","1","1","0.8,0.2,0.2,0.2,0.8,0.2,0.2,0.2,0.8","0.8,0.2,0.2,0.2,0.8,0.2,0.2,0.2,0.8","1","",""
"","html-keyboard-response","39","543356","0.0-39.0","39JEC7537VNB1KD7DSLR5MH26GTVCR","A336V7IY38Q2WN","3WRBLBQ2GRU63BU2LFOJL1G32T90GO","","null","<img src=""img/land5.png"" style=""width:200px;border:14px solid red;"">","null","","","","","","","","","",""
"","image-keyboard-response","40","543913","0.0-40.0","39JEC7537VNB1KD7DSLR5MH26GTVCR","A336V7IY38Q2WN","3WRBLBQ2GRU63BU2LFOJL1G32T90GO","","557","img/land5.png","76","558","3","0","1","1","0.8,0.2,0.2,0.2,0.8,0.2,0.2,0.2,0.8","0.8,0.2,0.2,0.2,0.8,0.2,0.2,0.2,0.8","1","",""
"","html-keyboard-response","41","544215","0.0-41.0","39JEC7537VNB1KD7DSLR5MH26GTVCR","A336V7IY38Q2WN","3WRBLBQ2GRU63BU2LFOJL1G32T90GO","","null","<img src=""img/land5.png"" style=""width:200px;border:14px solid red;"">","null","","","","","","","","","",""
"","image-keyboard-response","42","544682","0.0-42.0","39JEC7537VNB1KD7DSLR5MH26GTVCR","A336V7IY38Q2WN","3WRBLBQ2GRU63BU2LFOJL1G32T90GO","","466","img/land3.png","75","467","2","1","2","1","0.8,0.2,0.2,0.2,0.8,0.2,0.2,0.2,0.8","0.8,0.2,0.2,0.2,0.8,0.2,0.2,0.2,0.8","1","",""
"","html-keyboard-response","43","544985","0.0-43.0","39JEC7537VNB1KD7DSLR5MH26GTVCR","A336V7IY38Q2WN","3WRBLBQ2GRU63BU2LFOJL1G32T90GO","","null","<img src=""img/land3.png"" style=""width:200px; border:14px solid green;"">","null","","","","","","","","","",""
"","image-keyboard-response","44","545682","0.0-44.0","39JEC7537VNB1KD7DSLR5MH26GTVCR","A336V7IY38Q2WN","3WRBLBQ2GRU63BU2LFOJL1G32T90GO","","695","img/land4.png","75","695","2","1","3","1","0.8,0.2,0.2,0.2,0.8,0.2,0.2,0.2,0.8","0.8,0.2,0.2,0.2,0.8,0.2,0.2,0.2,0.8","1","",""
"","html-keyboard-response","45","545985","0.0-45.0","39JEC7537VNB1KD7DSLR5MH26GTVCR","A336V7IY38Q2WN","3WRBLBQ2GRU63BU2LFOJL1G32T90GO","","null","<img src=""img/land4.png"" style=""width:200px; border:14px solid green;"">","null","","","","","","","","","",""
"","image-keyboard-response","46","546617","0.0-46.0","39JEC7537VNB1KD7DSLR5MH26GTVCR","A336V7IY38Q2WN","3WRBLBQ2GRU63BU2LFOJL1G32T90GO","","631","img/land4.png","75","633","2","0","3","1","0.8,0.2,0.2,0.2,0.8,0.2,0.2,0.2,0.8","0.8,0.2,0.2,0.2,0.8,0.2,0.2,0.2,0.8","1","",""
"","html-keyboard-response","47","546925","0.0-47.0","39JEC7537VNB1KD7DSLR5MH26GTVCR","A336V7IY38Q2WN","3WRBLBQ2GRU63BU2LFOJL1G32T90GO","","null","<img src=""img/land4.png"" style=""width:200px;border:14px solid red;"">","null","","","","","","","","","",""
"","image-keyboard-response","48","547681","0.0-48.0","39JEC7537VNB1KD7DSLR5MH26GTVCR","A336V7IY38Q2WN","3WRBLBQ2GRU63BU2LFOJL1G32T90GO","","755","img/land4.png","75","757","2","0","3","1","0.8,0.2,0.2,0.2,0.8,0.2,0.2,0.2,0.8","0.8,0.2,0.2,0.2,0.8,0.2,0.2,0.2,0.8","1","",""
"","html-keyboard-response","49","547985","0.0-49.0","39JEC7537VNB1KD7DSLR5MH26GTVCR","A336V7IY38Q2WN","3WRBLBQ2GRU63BU2LFOJL1G32T90GO","","null","<img src=""img/land4.png"" style=""width:200px;border:14px solid red;"">","null","","","","","","","","","",""
"","image-keyboard-response","50","548817","0.0-50.0","39JEC7537VNB1KD7DSLR5MH26GTVCR","A336V7IY38Q2WN","3WRBLBQ2GRU63BU2LFOJL1G32T90GO","","831","img/land3.png","74","832","1","0","2","1","0.8,0.2,0.2,0.2,0.8,0.2,0.2,0.2,0.8","0.8,0.2,0.2,0.2,0.8,0.2,0.2,0.2,0.8","1","",""
"","html-keyboard-response","51","549125","0.0-51.0","39JEC7537VNB1KD7DSLR5MH26GTVCR","A336V7IY38Q2WN","3WRBLBQ2GRU63BU2LFOJL1G32T90GO","","null","<img src=""img/land3.png"" style=""width:200px;border:14px solid red;"">","null","","","","","","","","","",""
"","image-keyboard-response","52","549450","0.0-52.0","39JEC7537VNB1KD7DSLR5MH26GTVCR","A336V7IY38Q2WN","3WRBLBQ2GRU63BU2LFOJL1G32T90GO","","324","img/land4.png","76","324","3","1","3","1","0.8,0.2,0.2,0.2,0.8,0.2,0.2,0.2,0.8","0.8,0.2,0.2,0.2,0.8,0.2,0.2,0.2,0.8","1","",""
"","html-keyboard-response","53","549755","0.0-53.0","39JEC7537VNB1KD7DSLR5MH26GTVCR","A336V7IY38Q2WN","3WRBLBQ2GRU63BU2LFOJL1G32T90GO","","null","<img src=""img/land4.png"" style=""width:200px; border:14px solid green;"">","null","","","","","","","","","",""
"","image-keyboard-response","54","550410","0.0-54.0","39JEC7537VNB1KD7DSLR5MH26GTVCR","A336V7IY38Q2WN","3WRBLBQ2GRU63BU2LFOJL1G32T90GO","","653","img/land4.png","76","655","3","1","3","1","0.8,0.2,0.2,0.2,0.8,0.2,0.2,0.2,0.8","0.8,0.2,0.2,0.2,0.8,0.2,0.2,0.2,0.8","1","",""
"","html-keyboard-response","55","550715","0.0-55.0","39JEC7537VNB1KD7DSLR5MH26GTVCR","A336V7IY38Q2WN","3WRBLBQ2GRU63BU2LFOJL1G32T90GO","","null","<img src=""img/land4.png"" style=""width:200px; border:14px solid green;"">","null","","","","","","","","","",""
"","image-keyboard-response","56","551738","0.0-56.0","39JEC7537VNB1KD7DSLR5MH26GTVCR","A336V7IY38Q2WN","3WRBLBQ2GRU63BU2LFOJL1G32T90GO","","1021","img/land5.png","76","1022","3","1","1","1","0.8,0.2,0.2,0.2,0.8,0.2,0.2,0.2,0.8","0.8,0.2,0.2,0.2,0.8,0.2,0.2,0.2,0.8","1","",""
"","html-keyboard-response","57","552045","0.0-57.0","39JEC7537VNB1KD7DSLR5MH26GTVCR","A336V7IY38Q2WN","3WRBLBQ2GRU63BU2LFOJL1G32T90GO","","null","<img src=""img/land5.png"" style=""width:200px; border:14px solid green;"">","null","","","","","","","","","",""
"","image-keyboard-response","58","552826","0.0-58.0","39JEC7537VNB1KD7DSLR5MH26GTVCR","A336V7IY38Q2WN","3WRBLBQ2GRU63BU2LFOJL1G32T90GO","","781","img/land5.png","76","781","3","0","1","1","0.8,0.2,0.2,0.2,0.8,0.2,0.2,0.2,0.8","0.8,0.2,0.2,0.2,0.8,0.2,0.2,0.2,0.8","1","",""
"","html-keyboard-response","59","553135","0.0-59.0","39JEC7537VNB1KD7DSLR5MH26GTVCR","A336V7IY38Q2WN","3WRBLBQ2GRU63BU2LFOJL1G32T90GO","","null","<img src=""img/land5.png"" style=""width:200px;border:14px solid red;"">","null","","","","","","","","","",""
"","image-keyboard-response","60","553849","0.0-60.0","39JEC7537VNB1KD7DSLR5MH26GTVCR","A336V7IY38Q2WN","3WRBLBQ2GRU63BU2LFOJL1G32T90GO","","714","img/land3.png","75","715","2","1","2","1","0.8,0.2,0.2,0.2,0.8,0.2,0.2,0.2,0.8","0.8,0.2,0.2,0.2,0.8,0.2,0.2,0.2,0.8","1","",""
"","html-keyboard-response","61","554155","0.0-61.0","39JEC7537VNB1KD7DSLR5MH26GTVCR","A336V7IY38Q2WN","3WRBLBQ2GRU63BU2LFOJL1G32T90GO","","null","<img src=""img/land3.png"" style=""width:200px; border:14px solid green;"">","null","","","","","","","","","",""
"","image-keyboard-response","62","555297","0.0-62.0","39JEC7537VNB1KD7DSLR5MH26GTVCR","A336V7IY38Q2WN","3WRBLBQ2GRU63BU2LFOJL1G32T90GO","","1141","img/land5.png","76","1141","3","1","1","1","0.8,0.2,0.2,0.2,0.8,0.2,0.2,0.2,0.8","0.8,0.2,0.2,0.2,0.8,0.2,0.2,0.2,0.8","1","",""
"","html-keyboard-response","63","555605","0.0-63.0","39JEC7537VNB1KD7DSLR5MH26GTVCR","A336V7IY38Q2WN","3WRBLBQ2GRU63BU2LFOJL1G32T90GO","","null","<img src=""img/land5.png"" style=""width:200px; border:14px solid green;"">","null","","","","","","","","","",""
"","image-keyboard-response","64","556249","0.0-64.0","39JEC7537VNB1KD7DSLR5MH26GTVCR","A336V7IY38Q2WN","3WRBLBQ2GRU63BU2LFOJL1G32T90GO","","644","img/land3.png","75","645","2","1","2","1","0.8,0.2,0.2,0.2,0.8,0.2,0.2,0.2,0.8","0.8,0.2,0.2,0.2,0.8,0.2,0.2,0.2,0.8","1","",""
"","html-keyboard-response","65","556555","0.0-65.0","39JEC7537VNB1KD7DSLR5MH26GTVCR","A336V7IY38Q2WN","3WRBLBQ2GRU63BU2LFOJL1G32T90GO","","null","<img src=""img/land3.png"" style=""width:200px; border:14px solid green;"">","null","","","","","","","","","",""
"","image-keyboard-response","66","557353","0.0-66.0","39JEC7537VNB1KD7DSLR5MH26GTVCR","A336V7IY38Q2WN","3WRBLBQ2GRU63BU2LFOJL1G32T90GO","","797","img/land4.png","76","798","3","1","3","1","0.8,0.2,0.2,0.2,0.8,0.2,0.2,0.2,0.8","0.8,0.2,0.2,0.2,0.8,0.2,0.2,0.2,0.8","1","",""
"","html-keyboard-response","67","557655","0.0-67.0","39JEC7537VNB1KD7DSLR5MH26GTVCR","A336V7IY38Q2WN","3WRBLBQ2GRU63BU2LFOJL1G32T90GO","","null","<img src=""img/land4.png"" style=""width:200px; border:14px solid green;"">","null","","","","","","","","","",""
"","image-keyboard-response","68","558505","0.0-68.0","39JEC7537VNB1KD7DSLR5MH26GTVCR","A336V7IY38Q2WN","3WRBLBQ2GRU63BU2LFOJL1G32T90GO","","850","img/land5.png","76","851","3","0","1","1","0.8,0.2,0.2,0.2,0.8,0.2,0.2,0.2,0.8","0.8,0.2,0.2,0.2,0.8,0.2,0.2,0.2,0.8","1","",""
"","html-keyboard-response","69","558815","0.0-69.0","39JEC7537VNB1KD7DSLR5MH26GTVCR","A336V7IY38Q2WN","3WRBLBQ2GRU63BU2LFOJL1G32T90GO","","null","<img src=""img/land5.png"" style=""width:200px;border:14px solid red;"">","null","","","","","","","","","",""
"","image-keyboard-response","70","559793","0.0-70.0","39JEC7537VNB1KD7DSLR5MH26GTVCR","A336V7IY38Q2WN","3WRBLBQ2GRU63BU2LFOJL1G32T90GO","","977","img/land4.png","76","977","3","1","3","1","0.8,0.2,0.2,0.2,0.8,0.2,0.2,0.2,0.8","0.8,0.2,0.2,0.2,0.8,0.2,0.2,0.2,0.8","1","",""
"","html-keyboard-response","71","560095","0.0-71.0","39JEC7537VNB1KD7DSLR5MH26GTVCR","A336V7IY38Q2WN","3WRBLBQ2GRU63BU2LFOJL1G32T90GO","","null","<img src=""img/land4.png"" style=""width:200px; border:14px solid green;"">","null","","","","","","","","","",""
"","image-keyboard-response","72","560577","0.0-72.0","39JEC7537VNB1KD7DSLR5MH26GTVCR","A336V7IY38Q2WN","3WRBLBQ2GRU63BU2LFOJL1G32T90GO","","481","img/land4.png","76","481","3","1","3","1","0.8,0.2,0.2,0.2,0.8,0.2,0.2,0.2,0.8","0.8,0.2,0.2,0.2,0.8,0.2,0.2,0.2,0.8","1","",""
"","html-keyboard-response","73","560884","0.0-73.0","39JEC7537VNB1KD7DSLR5MH26GTVCR","A336V7IY38Q2WN","3WRBLBQ2GRU63BU2LFOJL1G32T90GO","","null","<img src=""img/land4.png"" style=""width:200px; border:14px solid green;"">","null","","","","","","","","","",""
"","image-keyboard-response","74","561617","0.0-74.0","39JEC7537VNB1KD7DSLR5MH26GTVCR","A336V7IY38Q2WN","3WRBLBQ2GRU63BU2LFOJL1G32T90GO","","731","img/land3.png","75","732","2","0","2","1","0.8,0.2,0.2,0.2,0.8,0.2,0.2,0.2,0.8","0.8,0.2,0.2,0.2,0.8,0.2,0.2,0.2,0.8","1","",""
"","html-keyboard-response","75","561925","0.0-75.0","39JEC7537VNB1KD7DSLR5MH26GTVCR","A336V7IY38Q2WN","3WRBLBQ2GRU63BU2LFOJL1G32T90GO","","null","<img src=""img/land3.png"" style=""width:200px;border:14px solid red;"">","null","","","","","","","","","",""
"","image-keyboard-response","76","562978","0.0-76.0","39JEC7537VNB1KD7DSLR5MH26GTVCR","A336V7IY38Q2WN","3WRBLBQ2GRU63BU2LFOJL1G32T90GO","","1053","img/land5.png","76","1053","3","0","1","1","0.8,0.2,0.2,0.2,0.8,0.2,0.2,0.2,0.8","0.8,0.2,0.2,0.2,0.8,0.2,0.2,0.2,0.8","1","",""
"","html-keyboard-response","77","563285","0.0-77.0","39JEC7537VNB1KD7DSLR5MH26GTVCR","A336V7IY38Q2WN","3WRBLBQ2GRU63BU2LFOJL1G32T90GO","","null","<img src=""img/land5.png"" style=""width:200px;border:14px solid red;"">","null","","","","","","","","","",""
"","image-keyboard-response","78","564097","0.0-78.0","39JEC7537VNB1KD7DSLR5MH26GTVCR","A336V7IY38Q2WN","3WRBLBQ2GRU63BU2LFOJL1G32T90GO","","812","img/land3.png","75","813","2","0","2","1","0.8,0.2,0.2,0.2,0.8,0.2,0.2,0.2,0.8","0.8,0.2,0.2,0.2,0.8,0.2,0.2,0.2,0.8","1","",""
"","html-keyboard-response","79","564404","0.0-79.0","39JEC7537VNB1KD7DSLR5MH26GTVCR","A336V7IY38Q2WN","3WRBLBQ2GRU63BU2LFOJL1G32T90GO","","null","<img src=""img/land3.png"" style=""width:200px;border:14px solid red;"">","null","","","","","","","","","",""
"","image-keyboard-response","80","564962","0.0-80.0","39JEC7537VNB1KD7DSLR5MH26GTVCR","A336V7IY38Q2WN","3WRBLBQ2GRU63BU2LFOJL1G32T90GO","","555","img/land5.png","76","556","3","1","1","1","0.8,0.2,0.2,0.2,0.8,0.2,0.2,0.2,0.8","0.8,0.2,0.2,0.2,0.8,0.2,0.2,0.2,0.8","1","",""
"","html-keyboard-response","81","565265","0.0-81.0","39JEC7537VNB1KD7DSLR5MH26GTVCR","A336V7IY38Q2WN","3WRBLBQ2GRU63BU2LFOJL1G32T90GO","","null","<img src=""img/land5.png"" style=""width:200px; border:14px solid green;"">","null","","","","","","","","","",""
"","image-keyboard-response","82","565738","0.0-82.0","39JEC7537VNB1KD7DSLR5MH26GTVCR","A336V7IY38Q2WN","3WRBLBQ2GRU63BU2LFOJL1G32T90GO","","472","img/land5.png","76","472","3","0","1","1","0.8,0.2,0.2,0.2,0.8,0.2,0.2,0.2,0.8","0.8,0.2,0.2,0.2,0.8,0.2,0.2,0.2,0.8","1","",""
"","html-keyboard-response","83","566045","0.0-83.0","39JEC7537VNB1KD7DSLR5MH26GTVCR","A336V7IY38Q2WN","3WRBLBQ2GRU63BU2LFOJL1G32T90GO","","null","<img src=""img/land5.png"" style=""width:200px;border:14px solid red;"">","null","","","","","","","","","",""
"","image-keyboard-response","84","566793","0.0-84.0","39JEC7537VNB1KD7DSLR5MH26GTVCR","A336V7IY38Q2WN","3WRBLBQ2GRU63BU2LFOJL1G32T90GO","","747","img/land3.png","75","748","2","0","2","1","0.8,0.2,0.2,0.2,0.8,0.2,0.2,0.2,0.8","0.8,0.2,0.2,0.2,0.8,0.2,0.2,0.2,0.8","1","",""
"","html-keyboard-response","85","567094","0.0-85.0","39JEC7537VNB1KD7DSLR5MH26GTVCR","A336V7IY38Q2WN","3WRBLBQ2GRU63BU2LFOJL1G32T90GO","","null","<img src=""img/land3.png"" style=""width:200px;border:14px solid red;"">","null","","","","","","","","","",""
"","image-keyboard-response","86","568457","0.0-86.0","39JEC7537VNB1KD7DSLR5MH26GTVCR","A336V7IY38Q2WN","3WRBLBQ2GRU63BU2LFOJL1G32T90GO","","1362","img/land4.png","76","1362","3","1","3","1","0.8,0.2,0.2,0.2,0.8,0.2,0.2,0.2,0.8","0.8,0.2,0.2,0.2,0.8,0.2,0.2,0.2,0.8","1","",""
"","html-keyboard-response","87","568765","0.0-87.0","39JEC7537VNB1KD7DSLR5MH26GTVCR","A336V7IY38Q2WN","3WRBLBQ2GRU63BU2LFOJL1G32T90GO","","null","<img src=""img/land4.png"" style=""width:200px; border:14px solid green;"">","null","","","","","","","","","",""
"","image-keyboard-response","88","569233","0.0-88.0","39JEC7537VNB1KD7DSLR5MH26GTVCR","A336V7IY38Q2WN","3WRBLBQ2GRU63BU2LFOJL1G32T90GO","","468","img/land3.png","74","468","1","0","2","1","0.8,0.2,0.2,0.2,0.8,0.2,0.2,0.2,0.8","0.8,0.2,0.2,0.2,0.8,0.2,0.2,0.2,0.8","1","",""
"","html-keyboard-response","89","569535","0.0-89.0","39JEC7537VNB1KD7DSLR5MH26GTVCR","A336V7IY38Q2WN","3WRBLBQ2GRU63BU2LFOJL1G32T90GO","","null","<img src=""img/land3.png"" style=""width:200px;border:14px solid red;"">","null","","","","","","","","","",""
"","image-keyboard-response","90","570144","0.0-90.0","39JEC7537VNB1KD7DSLR5MH26GTVCR","A336V7IY38Q2WN","3WRBLBQ2GRU63BU2LFOJL1G32T90GO","","610","img/land3.png","74","610","1","1","2","1","0.8,0.2,0.2,0.2,0.8,0.2,0.2,0.2,0.8","0.8,0.2,0.2,0.2,0.8,0.2,0.2,0.2,0.8","1","",""
"","html-keyboard-response","91","570455","0.0-91.0","39JEC7537VNB1KD7DSLR5MH26GTVCR","A336V7IY38Q2WN","3WRBLBQ2GRU63BU2LFOJL1G32T90GO","","null","<img src=""img/land3.png"" style=""width:200px; border:14px solid green;"">","null","","","","","","","","","",""
"","image-keyboard-response","92","571265","0.0-92.0","39JEC7537VNB1KD7DSLR5MH26GTVCR","A336V7IY38Q2WN","3WRBLBQ2GRU63BU2LFOJL1G32T90GO","","808","img/land4.png","76","811","3","1","3","1","0.8,0.2,0.2,0.2,0.8,0.2,0.2,0.2,0.8","0.8,0.2,0.2,0.2,0.8,0.2,0.2,0.2,0.8","1","",""
"","html-keyboard-response","93","571575","0.0-93.0","39JEC7537VNB1KD7DSLR5MH26GTVCR","A336V7IY38Q2WN","3WRBLBQ2GRU63BU2LFOJL1G32T90GO","","null","<img src=""img/land4.png"" style=""width:200px; border:14px solid green;"">","null","","","","","","","","","",""
"","image-keyboard-response","94","572281","0.0-94.0","39JEC7537VNB1KD7DSLR5MH26GTVCR","A336V7IY38Q2WN","3WRBLBQ2GRU63BU2LFOJL1G32T90GO","","703","img/land3.png","74","705","1","0","2","1","0.8,0.2,0.2,0.2,0.8,0.2,0.2,0.2,0.8","0.8,0.2,0.2,0.2,0.8,0.2,0.2,0.2,0.8","1","",""
"","html-keyboard-response","95","572585","0.0-95.0","39JEC7537VNB1KD7DSLR5MH26GTVCR","A336V7IY38Q2WN","3WRBLBQ2GRU63BU2LFOJL1G32T90GO","","null","<img src=""img/land3.png"" style=""width:200px;border:14px solid red;"">","null","","","","","","","","","",""
"","image-keyboard-response","96","573505","0.0-96.0","39JEC7537VNB1KD7DSLR5MH26GTVCR","A336V7IY38Q2WN","3WRBLBQ2GRU63BU2LFOJL1G32T90GO","","919","img/land5.png","76","920","3","1","1","1","0.8,0.2,0.2,0.2,0.8,0.2,0.2,0.2,0.8","0.8,0.2,0.2,0.2,0.8,0.2,0.2,0.2,0.8","1","",""
"","html-keyboard-response","97","573815","0.0-97.0","39JEC7537VNB1KD7DSLR5MH26GTVCR","A336V7IY38Q2WN","3WRBLBQ2GRU63BU2LFOJL1G32T90GO","","null","<img src=""img/land5.png"" style=""width:200px; border:14px solid green;"">","null","","","","","","","","","",""
"","image-keyboard-response","98","574721","0.0-98.0","39JEC7537VNB1KD7DSLR5MH26GTVCR","A336V7IY38Q2WN","3WRBLBQ2GRU63BU2LFOJL1G32T90GO","","905","img/land4.png","76","906","3","1","3","1","0.8,0.2,0.2,0.2,0.8,0.2,0.2,0.2,0.8","0.8,0.2,0.2,0.2,0.8,0.2,0.2,0.2,0.8","1","",""
"","html-keyboard-response","99","575025","0.0-99.0","39JEC7537VNB1KD7DSLR5MH26GTVCR","A336V7IY38Q2WN","3WRBLBQ2GRU63BU2LFOJL1G32T90GO","","null","<img src=""img/land4.png"" style=""width:200px; border:14px solid green;"">","null","","","","","","","","","",""
"","image-keyboard-response","100","575865","0.0-100.0","39JEC7537VNB1KD7DSLR5MH26GTVCR","A336V7IY38Q2WN","3WRBLBQ2GRU63BU2LFOJL1G32T90GO","","839","img/land4.png","76","839","3","1","3","1","0.8,0.2,0.2,0.2,0.8,0.2,0.2,0.2,0.8","0.8,0.2,0.2,0.2,0.8,0.2,0.2,0.2,0.8","1","",""
"","html-keyboard-response","101","576175","0.0-101.0","39JEC7537VNB1KD7DSLR5MH26GTVCR","A336V7IY38Q2WN","3WRBLBQ2GRU63BU2LFOJL1G32T90GO","","null","<img src=""img/land4.png"" style=""width:200px; border:14px solid green;"">","null","","","","","","","","","",""
"","image-keyboard-response","102","576865","0.0-102.0","39JEC7537VNB1KD7DSLR5MH26GTVCR","A336V7IY38Q2WN","3WRBLBQ2GRU63BU2LFOJL1G32T90GO","","690","img/land3.png","74","690","1","0","2","1","0.8,0.2,0.2,0.2,0.8,0.2,0.2,0.2,0.8","0.8,0.2,0.2,0.2,0.8,0.2,0.2,0.2,0.8","1","",""
"","html-keyboard-response","103","577175","0.0-103.0","39JEC7537VNB1KD7DSLR5MH26GTVCR","A336V7IY38Q2WN","3WRBLBQ2GRU63BU2LFOJL1G32T90GO","","null","<img src=""img/land3.png"" style=""width:200px;border:14px solid red;"">","null","","","","","","","","","",""
"","image-keyboard-response","104","577945","0.0-104.0","39JEC7537VNB1KD7DSLR5MH26GTVCR","A336V7IY38Q2WN","3WRBLBQ2GRU63BU2LFOJL1G32T90GO","","769","img/land5.png","76","769","3","0","1","1","0.8,0.2,0.2,0.2,0.8,0.2,0.2,0.2,0.8","0.8,0.2,0.2,0.2,0.8,0.2,0.2,0.2,0.8","1","",""
"","html-keyboard-response","105","578255","0.0-105.0","39JEC7537VNB1KD7DSLR5MH26GTVCR","A336V7IY38Q2WN","3WRBLBQ2GRU63BU2LFOJL1G32T90GO","","null","<img src=""img/land5.png"" style=""width:200px;border:14px solid red;"">","null","","","","","","","","","",""
"","image-keyboard-response","106","579416","0.0-106.0","39JEC7537VNB1KD7DSLR5MH26GTVCR","A336V7IY38Q2WN","3WRBLBQ2GRU63BU2LFOJL1G32T90GO","","1160","img/land3.png","76","1161","3","0","2","1","0.8,0.2,0.2,0.2,0.8,0.2,0.2,0.2,0.8","0.8,0.2,0.2,0.2,0.8,0.2,0.2,0.2,0.8","1","",""
"","html-keyboard-response","107","579724","0.0-107.0","39JEC7537VNB1KD7DSLR5MH26GTVCR","A336V7IY38Q2WN","3WRBLBQ2GRU63BU2LFOJL1G32T90GO","","null","<img src=""img/land3.png"" style=""width:200px;border:14px solid red;"">","null","","","","","","","","","",""
"","image-keyboard-response","108","580577","0.0-108.0","39JEC7537VNB1KD7DSLR5MH26GTVCR","A336V7IY38Q2WN","3WRBLBQ2GRU63BU2LFOJL1G32T90GO","","852","img/land5.png","76","852","3","0","1","1","0.8,0.2,0.2,0.2,0.8,0.2,0.2,0.2,0.8","0.8,0.2,0.2,0.2,0.8,0.2,0.2,0.2,0.8","1","",""
"","html-keyboard-response","109","580884","0.0-109.0","39JEC7537VNB1KD7DSLR5MH26GTVCR","A336V7IY38Q2WN","3WRBLBQ2GRU63BU2LFOJL1G32T90GO","","null","<img src=""img/land5.png"" style=""width:200px;border:14px solid red;"">","null","","","","","","","","","",""
"","image-keyboard-response","110","581400","0.0-110.0","39JEC7537VNB1KD7DSLR5MH26GTVCR","A336V7IY38Q2WN","3WRBLBQ2GRU63BU2LFOJL1G32T90GO","","514","img/land5.png","76","515","3","0","1","1","0.8,0.2,0.2,0.2,0.8,0.2,0.2,0.2,0.8","0.8,0.2,0.2,0.2,0.8,0.2,0.2,0.2,0.8","1","",""
"","html-keyboard-response","111","581704","0.0-111.0","39JEC7537VNB1KD7DSLR5MH26GTVCR","A336V7IY38Q2WN","3WRBLBQ2GRU63BU2LFOJL1G32T90GO","","null","<img src=""img/land5.png"" style=""width:200px;border:14px solid red;"">","null","","","","","","","","","",""
"","image-keyboard-response","112","582841","0.0-112.0","39JEC7537VNB1KD7DSLR5MH26GTVCR","A336V7IY38Q2WN","3WRBLBQ2GRU63BU2LFOJL1G32T90GO","","1136","img/land4.png","74","1136","1","0","3","1","0.8,0.2,0.2,0.2,0.8,0.2,0.2,0.2,0.8","0.8,0.2,0.2,0.2,0.8,0.2,0.2,0.2,0.8","1","",""
"","html-keyboard-response","113","583145","0.0-113.0","39JEC7537VNB1KD7DSLR5MH26GTVCR","A336V7IY38Q2WN","3WRBLBQ2GRU63BU2LFOJL1G32T90GO","","null","<img src=""img/land4.png"" style=""width:200px;border:14px solid red;"">","null","","","","","","","","","",""
"","image-keyboard-response","114","583808","0.0-114.0","39JEC7537VNB1KD7DSLR5MH26GTVCR","A336V7IY38Q2WN","3WRBLBQ2GRU63BU2LFOJL1G32T90GO","","664","img/land3.png","76","664","3","1","2","1","0.8,0.2,0.2,0.2,0.8,0.2,0.2,0.2,0.8","0.8,0.2,0.2,0.2,0.8,0.2,0.2,0.2,0.8","1","",""
"","html-keyboard-response","115","584115","0.0-115.0","39JEC7537VNB1KD7DSLR5MH26GTVCR","A336V7IY38Q2WN","3WRBLBQ2GRU63BU2LFOJL1G32T90GO","","null","<img src=""img/land3.png"" style=""width:200px; border:14px solid green;"">","null","","","","","","","","","",""
"","image-keyboard-response","116","586049","0.0-116.0","39JEC7537VNB1KD7DSLR5MH26GTVCR","A336V7IY38Q2WN","3WRBLBQ2GRU63BU2LFOJL1G32T90GO","","1934","img/land4.png","76","1934","3","1","3","1","0.8,0.2,0.2,0.2,0.8,0.2,0.2,0.2,0.8","0.8,0.2,0.2,0.2,0.8,0.2,0.2,0.2,0.8","1","",""
"","html-keyboard-response","117","586355","0.0-117.0","39JEC7537VNB1KD7DSLR5MH26GTVCR","A336V7IY38Q2WN","3WRBLBQ2GRU63BU2LFOJL1G32T90GO","","null","<img src=""img/land4.png"" style=""width:200px; border:14px solid green;"">","null","","","","","","","","","",""
"","image-keyboard-response","118","587905","0.0-118.0","39JEC7537VNB1KD7DSLR5MH26GTVCR","A336V7IY38Q2WN","3WRBLBQ2GRU63BU2LFOJL1G32T90GO","","1550","img/land5.png","75","1550","2","0","1","1","0.8,0.2,0.2,0.2,0.8,0.2,0.2,0.2,0.8","0.8,0.2,0.2,0.2,0.8,0.2,0.2,0.2,0.8","1","",""
"","html-keyboard-response","119","588215","0.0-119.0","39JEC7537VNB1KD7DSLR5MH26GTVCR","A336V7IY38Q2WN","3WRBLBQ2GRU63BU2LFOJL1G32T90GO","","null","<img src=""img/land5.png"" style=""width:200px;border:14px solid red;"">","null","","","","","","","","","",""
"","image-keyboard-response","120","589097","0.0-120.0","39JEC7537VNB1KD7DSLR5MH26GTVCR","A336V7IY38Q2WN","3WRBLBQ2GRU63BU2LFOJL1G32T90GO","","880","img/land3.png","74","881","1","0","2","1","0.8,0.2,0.2,0.2,0.8,0.2,0.2,0.2,0.8","0.8,0.2,0.2,0.2,0.8,0.2,0.2,0.2,0.8","1","",""
"","html-keyboard-response","121","589404","0.0-121.0","39JEC7537VNB1KD7DSLR5MH26GTVCR","A336V7IY38Q2WN","3WRBLBQ2GRU63BU2LFOJL1G32T90GO","","null","<img src=""img/land3.png"" style=""width:200px;border:14px solid red;"">","null","","","","","","","","","",""
"","image-keyboard-response","122","589888","0.0-122.0","39JEC7537VNB1KD7DSLR5MH26GTVCR","A336V7IY38Q2WN","3WRBLBQ2GRU63BU2LFOJL1G32T90GO","","484","img/land3.png","74","484","1","0","2","1","0.8,0.2,0.2,0.2,0.8,0.2,0.2,0.2,0.8","0.8,0.2,0.2,0.2,0.8,0.2,0.2,0.2,0.8","1","",""
"","html-keyboard-response","123","590194","0.0-123.0","39JEC7537VNB1KD7DSLR5MH26GTVCR","A336V7IY38Q2WN","3WRBLBQ2GRU63BU2LFOJL1G32T90GO","","null","<img src=""img/land3.png"" style=""width:200px;border:14px solid red;"">","null","","","","","","","","","",""
"","image-keyboard-response","124","590697","0.0-124.0","39JEC7537VNB1KD7DSLR5MH26GTVCR","A336V7IY38Q2WN","3WRBLBQ2GRU63BU2LFOJL1G32T90GO","","501","img/land3.png","74","501","1","0","2","1","0.8,0.2,0.2,0.2,0.8,0.2,0.2,0.2,0.8","0.8,0.2,0.2,0.2,0.8,0.2,0.2,0.2,0.8","1","",""
"","html-keyboard-response","125","591005","0.0-125.0","39JEC7537VNB1KD7DSLR5MH26GTVCR","A336V7IY38Q2WN","3WRBLBQ2GRU63BU2LFOJL1G32T90GO","","null","<img src=""img/land3.png"" style=""width:200px;border:14px solid red;"">","null","","","","","","","","","",""
"","image-keyboard-response","126","591385","0.0-126.0","39JEC7537VNB1KD7DSLR5MH26GTVCR","A336V7IY38Q2WN","3WRBLBQ2GRU63BU2LFOJL1G32T90GO","","378","img/land3.png","76","381","3","0","2","1","0.8,0.2,0.2,0.2,0.8,0.2,0.2,0.2,0.8","0.8,0.2,0.2,0.2,0.8,0.2,0.2,0.2,0.8","1","",""
"","html-keyboard-response","127","591695","0.0-127.0","39JEC7537VNB1KD7DSLR5MH26GTVCR","A336V7IY38Q2WN","3WRBLBQ2GRU63BU2LFOJL1G32T90GO","","null","<img src=""img/land3.png"" style=""width:200px;border:14px solid red;"">","null","","","","","","","","","",""
"","image-keyboard-response","128","592353","0.0-128.0","39JEC7537VNB1KD7DSLR5MH26GTVCR","A336V7IY38Q2WN","3WRBLBQ2GRU63BU2LFOJL1G32T90GO","","658","img/land5.png","76","658","3","0","1","1","0.8,0.2,0.2,0.2,0.8,0.2,0.2,0.2,0.8","0.8,0.2,0.2,0.2,0.8,0.2,0.2,0.2,0.8","1","",""
"","html-keyboard-response","129","592654","0.0-129.0","39JEC7537VNB1KD7DSLR5MH26GTVCR","A336V7IY38Q2WN","3WRBLBQ2GRU63BU2LFOJL1G32T90GO","","null","<img src=""img/land5.png"" style=""width:200px;border:14px solid red;"">","null","","","","","","","","","",""
"","image-keyboard-response","130","593600","0.0-130.0","39JEC7537VNB1KD7DSLR5MH26GTVCR","A336V7IY38Q2WN","3WRBLBQ2GRU63BU2LFOJL1G32T90GO","","945","img/land4.png","75","945","2","0","3","1","0.8,0.2,0.2,0.2,0.8,0.2,0.2,0.2,0.8","0.8,0.2,0.2,0.2,0.8,0.2,0.2,0.2,0.8","1","",""
"","html-keyboard-response","131","593904","0.0-131.0","39JEC7537VNB1KD7DSLR5MH26GTVCR","A336V7IY38Q2WN","3WRBLBQ2GRU63BU2LFOJL1G32T90GO","","null","<img src=""img/land4.png"" style=""width:200px;border:14px solid red;"">","null","","","","","","","","","",""
"","image-keyboard-response","132","594248","0.0-132.0","39JEC7537VNB1KD7DSLR5MH26GTVCR","A336V7IY38Q2WN","3WRBLBQ2GRU63BU2LFOJL1G32T90GO","","343","img/land3.png","76","344","3","0","2","1","0.8,0.2,0.2,0.2,0.8,0.2,0.2,0.2,0.8","0.8,0.2,0.2,0.2,0.8,0.2,0.2,0.2,0.8","1","",""
"","html-keyboard-response","133","594554","0.0-133.0","39JEC7537VNB1KD7DSLR5MH26GTVCR","A336V7IY38Q2WN","3WRBLBQ2GRU63BU2LFOJL1G32T90GO","","null","<img src=""img/land3.png"" style=""width:200px;border:14px solid red;"">","null","","","","","","","","","",""
"","image-keyboard-response","134","594937","0.0-134.0","39JEC7537VNB1KD7DSLR5MH26GTVCR","A336V7IY38Q2WN","3WRBLBQ2GRU63BU2LFOJL1G32T90GO","","381","img/land5.png","76","381","3","1","1","1","0.8,0.2,0.2,0.2,0.8,0.2,0.2,0.2,0.8","0.8,0.2,0.2,0.2,0.8,0.2,0.2,0.2,0.8","1","",""
"","html-keyboard-response","135","595245","0.0-135.0","39JEC7537VNB1KD7DSLR5MH26GTVCR","A336V7IY38Q2WN","3WRBLBQ2GRU63BU2LFOJL1G32T90GO","","null","<img src=""img/land5.png"" style=""width:200px; border:14px solid green;"">","null","","","","","","","","","",""
"","image-keyboard-response","136","595689","0.0-136.0","39JEC7537VNB1KD7DSLR5MH26GTVCR","A336V7IY38Q2WN","3WRBLBQ2GRU63BU2LFOJL1G32T90GO","","443","img/land5.png","76","444","3","0","1","1","0.8,0.2,0.2,0.2,0.8,0.2,0.2,0.2,0.8","0.8,0.2,0.2,0.2,0.8,0.2,0.2,0.2,0.8","1","",""
"","html-keyboard-response","137","595995","0.0-137.0","39JEC7537VNB1KD7DSLR5MH26GTVCR","A336V7IY38Q2WN","3WRBLBQ2GRU63BU2LFOJL1G32T90GO","","null","<img src=""img/land5.png"" style=""width:200px;border:14px solid red;"">","null","","","","","","","","","",""
"","image-keyboard-response","138","596920","0.0-138.0","39JEC7537VNB1KD7DSLR5MH26GTVCR","A336V7IY38Q2WN","3WRBLBQ2GRU63BU2LFOJL1G32T90GO","","924","img/land5.png","76","925","3","1","1","1","0.8,0.2,0.2,0.2,0.8,0.2,0.2,0.2,0.8","0.8,0.2,0.2,0.2,0.8,0.2,0.2,0.2,0.8","1","",""
"","html-keyboard-response","139","597224","0.0-139.0","39JEC7537VNB1KD7DSLR5MH26GTVCR","A336V7IY38Q2WN","3WRBLBQ2GRU63BU2LFOJL1G32T90GO","","null","<img src=""img/land5.png"" style=""width:200px; border:14px solid green;"">","null","","","","","","","","","",""
"","image-keyboard-response","140","598041","0.0-140.0","39JEC7537VNB1KD7DSLR5MH26GTVCR","A336V7IY38Q2WN","3WRBLBQ2GRU63BU2LFOJL1G32T90GO","","815","img/land3.png","76","815","3","1","2","1","0.8,0.2,0.2,0.2,0.8,0.2,0.2,0.2,0.8","0.8,0.2,0.2,0.2,0.8,0.2,0.2,0.2,0.8","1","",""
"","html-keyboard-response","141","598345","0.0-141.0","39JEC7537VNB1KD7DSLR5MH26GTVCR","A336V7IY38Q2WN","3WRBLBQ2GRU63BU2LFOJL1G32T90GO","","null","<img src=""img/land3.png"" style=""width:200px; border:14px solid green;"">","null","","","","","","","","","",""
"","image-keyboard-response","142","599153","0.0-142.0","39JEC7537VNB1KD7DSLR5MH26GTVCR","A336V7IY38Q2WN","3WRBLBQ2GRU63BU2LFOJL1G32T90GO","","808","img/land4.png","76","808","3","1","3","1","0.8,0.2,0.2,0.2,0.8,0.2,0.2,0.2,0.8","0.8,0.2,0.2,0.2,0.8,0.2,0.2,0.2,0.8","1","",""
"","html-keyboard-response","143","599454","0.0-143.0","39JEC7537VNB1KD7DSLR5MH26GTVCR","A336V7IY38Q2WN","3WRBLBQ2GRU63BU2LFOJL1G32T90GO","","null","<img src=""img/land4.png"" style=""width:200px; border:14px solid green;"">","null","","","","","","","","","",""
"","image-keyboard-response","144","600056","0.0-144.0","39JEC7537VNB1KD7DSLR5MH26GTVCR","A336V7IY38Q2WN","3WRBLBQ2GRU63BU2LFOJL1G32T90GO","","601","img/land4.png","76","601","3","1","3","1","0.8,0.2,0.2,0.2,0.8,0.2,0.2,0.2,0.8","0.8,0.2,0.2,0.2,0.8,0.2,0.2,0.2,0.8","1","",""
"","html-keyboard-response","145","600364","0.0-145.0","39JEC7537VNB1KD7DSLR5MH26GTVCR","A336V7IY38Q2WN","3WRBLBQ2GRU63BU2LFOJL1G32T90GO","","null","<img src=""img/land4.png"" style=""width:200px; border:14px solid green;"">","null","","","","","","","","","",""
"","image-keyboard-response","146","601056","0.0-146.0","39JEC7537VNB1KD7DSLR5MH26GTVCR","A336V7IY38Q2WN","3WRBLBQ2GRU63BU2LFOJL1G32T90GO","","691","img/land4.png","76","691","3","1","3","1","0.8,0.2,0.2,0.2,0.8,0.2,0.2,0.2,0.8","0.8,0.2,0.2,0.2,0.8,0.2,0.2,0.2,0.8","1","",""
"","html-keyboard-response","147","601364","0.0-147.0","39JEC7537VNB1KD7DSLR5MH26GTVCR","A336V7IY38Q2WN","3WRBLBQ2GRU63BU2LFOJL1G32T90GO","","null","<img src=""img/land4.png"" style=""width:200px; border:14px solid green;"">","null","","","","","","","","","",""
"","image-keyboard-response","148","601824","0.0-148.0","39JEC7537VNB1KD7DSLR5MH26GTVCR","A336V7IY38Q2WN","3WRBLBQ2GRU63BU2LFOJL1G32T90GO","","459","img/land4.png","76","460","3","1","3","1","0.8,0.2,0.2,0.2,0.8,0.2,0.2,0.2,0.8","0.8,0.2,0.2,0.2,0.8,0.2,0.2,0.2,0.8","1","",""
"","html-keyboard-response","149","602134","0.0-149.0","39JEC7537VNB1KD7DSLR5MH26GTVCR","A336V7IY38Q2WN","3WRBLBQ2GRU63BU2LFOJL1G32T90GO","","null","<img src=""img/land4.png"" style=""width:200px; border:14px solid green;"">","null","","","","","","","","","",""
"","image-keyboard-response","150","602865","0.0-150.0","39JEC7537VNB1KD7DSLR5MH26GTVCR","A336V7IY38Q2WN","3WRBLBQ2GRU63BU2LFOJL1G32T90GO","","728","img/land5.png","76","729","3","0","1","1","0.8,0.2,0.2,0.2,0.8,0.2,0.2,0.2,0.8","0.8,0.2,0.2,0.2,0.8,0.2,0.2,0.2,0.8","1","",""
"","html-keyboard-response","151","603175","0.0-151.0","39JEC7537VNB1KD7DSLR5MH26GTVCR","A336V7IY38Q2WN","3WRBLBQ2GRU63BU2LFOJL1G32T90GO","","null","<img src=""img/land5.png"" style=""width:200px;border:14px solid red;"">","null","","","","","","","","","",""
"","image-keyboard-response","152","603552","0.0-152.0","39JEC7537VNB1KD7DSLR5MH26GTVCR","A336V7IY38Q2WN","3WRBLBQ2GRU63BU2LFOJL1G32T90GO","","377","img/land3.png","75","379","2","1","2","1","0.8,0.2,0.2,0.2,0.8,0.2,0.2,0.2,0.8","0.8,0.2,0.2,0.2,0.8,0.2,0.2,0.2,0.8","1","",""
"","html-keyboard-response","153","603854","0.0-153.0","39JEC7537VNB1KD7DSLR5MH26GTVCR","A336V7IY38Q2WN","3WRBLBQ2GRU63BU2LFOJL1G32T90GO","","null","<img src=""img/land3.png"" style=""width:200px; border:14px solid green;"">","null","","","","","","","","","",""
"","image-keyboard-response","154","604336","0.0-154.0","39JEC7537VNB1KD7DSLR5MH26GTVCR","A336V7IY38Q2WN","3WRBLBQ2GRU63BU2LFOJL1G32T90GO","","482","img/land4.png","75","482","2","1","3","1","0.8,0.2,0.2,0.2,0.8,0.2,0.2,0.2,0.8","0.8,0.2,0.2,0.2,0.8,0.2,0.2,0.2,0.8","1","",""
"","html-keyboard-response","155","604645","0.0-155.0","39JEC7537VNB1KD7DSLR5MH26GTVCR","A336V7IY38Q2WN","3WRBLBQ2GRU63BU2LFOJL1G32T90GO","","null","<img src=""img/land4.png"" style=""width:200px; border:14px solid green;"">","null","","","","","","","","","",""
"","image-keyboard-response","156","605185","0.0-156.0","39JEC7537VNB1KD7DSLR5MH26GTVCR","A336V7IY38Q2WN","3WRBLBQ2GRU63BU2LFOJL1G32T90GO","","539","img/land3.png","76","540","3","0","2","1","0.8,0.2,0.2,0.2,0.8,0.2,0.2,0.2,0.8","0.8,0.2,0.2,0.2,0.8,0.2,0.2,0.2,0.8","1","",""
"","html-keyboard-response","157","605495","0.0-157.0","39JEC7537VNB1KD7DSLR5MH26GTVCR","A336V7IY38Q2WN","3WRBLBQ2GRU63BU2LFOJL1G32T90GO","","null","<img src=""img/land3.png"" style=""width:200px;border:14px solid red;"">","null","","","","","","","","","",""
"","image-keyboard-response","158","605857","0.0-158.0","39JEC7537VNB1KD7DSLR5MH26GTVCR","A336V7IY38Q2WN","3WRBLBQ2GRU63BU2LFOJL1G32T90GO","","361","img/land3.png","75","363","2","1","2","1","0.8,0.2,0.2,0.2,0.8,0.2,0.2,0.2,0.8","0.8,0.2,0.2,0.2,0.8,0.2,0.2,0.2,0.8","1","",""
"","html-keyboard-response","159","606165","0.0-159.0","39JEC7537VNB1KD7DSLR5MH26GTVCR","A336V7IY38Q2WN","3WRBLBQ2GRU63BU2LFOJL1G32T90GO","","null","<img src=""img/land3.png"" style=""width:200px; border:14px solid green;"">","null","","","","","","","","","",""
"","image-keyboard-response","160","606576","0.0-160.0","39JEC7537VNB1KD7DSLR5MH26GTVCR","A336V7IY38Q2WN","3WRBLBQ2GRU63BU2LFOJL1G32T90GO","","411","img/land4.png","75","411","2","0","3","1","0.8,0.2,0.2,0.2,0.8,0.2,0.2,0.2,0.8","0.8,0.2,0.2,0.2,0.8,0.2,0.2,0.2,0.8","1","",""
"","html-keyboard-response","161","606884","0.0-161.0","39JEC7537VNB1KD7DSLR5MH26GTVCR","A336V7IY38Q2WN","3WRBLBQ2GRU63BU2LFOJL1G32T90GO","","null","<img src=""img/land4.png"" style=""width:200px;border:14px solid red;"">","null","","","","","","","","","",""
"","image-keyboard-response","162","607128","0.0-162.0","39JEC7537VNB1KD7DSLR5MH26GTVCR","A336V7IY38Q2WN","3WRBLBQ2GRU63BU2LFOJL1G32T90GO","","242","img/land5.png","74","244","1","0","1","1","0.8,0.2,0.2,0.2,0.8,0.2,0.2,0.2,0.8","0.8,0.2,0.2,0.2,0.8,0.2,0.2,0.2,0.8","1","",""
"","html-keyboard-response","163","607434","0.0-163.0","39JEC7537VNB1KD7DSLR5MH26GTVCR","A336V7IY38Q2WN","3WRBLBQ2GRU63BU2LFOJL1G32T90GO","","null","<img src=""img/land5.png"" style=""width:200px;border:14px solid red;"">","null","","","","","","","","","",""
"","image-keyboard-response","164","607841","0.0-164.0","39JEC7537VNB1KD7DSLR5MH26GTVCR","A336V7IY38Q2WN","3WRBLBQ2GRU63BU2LFOJL1G32T90GO","","406","img/land4.png","76","406","3","0","3","1","0.8,0.2,0.2,0.2,0.8,0.2,0.2,0.2,0.8","0.8,0.2,0.2,0.2,0.8,0.2,0.2,0.2,0.8","1","",""
"","html-keyboard-response","165","608144","0.0-165.0","39JEC7537VNB1KD7DSLR5MH26GTVCR","A336V7IY38Q2WN","3WRBLBQ2GRU63BU2LFOJL1G32T90GO","","null","<img src=""img/land4.png"" style=""width:200px;border:14px solid red;"">","null","","","","","","","","","",""
"","image-keyboard-response","166","609089","0.0-166.0","39JEC7537VNB1KD7DSLR5MH26GTVCR","A336V7IY38Q2WN","3WRBLBQ2GRU63BU2LFOJL1G32T90GO","","943","img/land5.png","76","944","3","0","1","1","0.8,0.2,0.2,0.2,0.8,0.2,0.2,0.2,0.8","0.8,0.2,0.2,0.2,0.8,0.2,0.2,0.2,0.8","1","",""
"","html-keyboard-response","167","609395","0.0-167.0","39JEC7537VNB1KD7DSLR5MH26GTVCR","A336V7IY38Q2WN","3WRBLBQ2GRU63BU2LFOJL1G32T90GO","","null","<img src=""img/land5.png"" style=""width:200px;border:14px solid red;"">","null","","","","","","","","","",""
"","image-keyboard-response","168","610256","0.0-168.0","39JEC7537VNB1KD7DSLR5MH26GTVCR","A336V7IY38Q2WN","3WRBLBQ2GRU63BU2LFOJL1G32T90GO","","861","img/land3.png","75","861","2","1","2","1","0.8,0.2,0.2,0.2,0.8,0.2,0.2,0.2,0.8","0.8,0.2,0.2,0.2,0.8,0.2,0.2,0.2,0.8","1","",""
"","html-keyboard-response","169","610565","0.0-169.0","39JEC7537VNB1KD7DSLR5MH26GTVCR","A336V7IY38Q2WN","3WRBLBQ2GRU63BU2LFOJL1G32T90GO","","null","<img src=""img/land3.png"" style=""width:200px; border:14px solid green;"">","null","","","","","","","","","",""
"","image-keyboard-response","170","611016","0.0-170.0","39JEC7537VNB1KD7DSLR5MH26GTVCR","A336V7IY38Q2WN","3WRBLBQ2GRU63BU2LFOJL1G32T90GO","","451","img/land3.png","75","451","2","1","2","1","0.8,0.2,0.2,0.2,0.8,0.2,0.2,0.2,0.8","0.8,0.2,0.2,0.2,0.8,0.2,0.2,0.2,0.8","1","",""
"","html-keyboard-response","171","611324","0.0-171.0","39JEC7537VNB1KD7DSLR5MH26GTVCR","A336V7IY38Q2WN","3WRBLBQ2GRU63BU2LFOJL1G32T90GO","","null","<img src=""img/land3.png"" style=""width:200px; border:14px solid green;"">","null","","","","","","","","","",""
"","image-keyboard-response","172","611913","0.0-172.0","39JEC7537VNB1KD7DSLR5MH26GTVCR","A336V7IY38Q2WN","3WRBLBQ2GRU63BU2LFOJL1G32T90GO","","587","img/land4.png","76","587","3","1","3","1","0.8,0.2,0.2,0.2,0.8,0.2,0.2,0.2,0.8","0.8,0.2,0.2,0.2,0.8,0.2,0.2,0.2,0.8","1","",""
"","html-keyboard-response","173","612215","0.0-173.0","39JEC7537VNB1KD7DSLR5MH26GTVCR","A336V7IY38Q2WN","3WRBLBQ2GRU63BU2LFOJL1G32T90GO","","null","<img src=""img/land4.png"" style=""width:200px; border:14px solid green;"">","null","","","","","","","","","",""
"","image-keyboard-response","174","612712","0.0-174.0","39JEC7537VNB1KD7DSLR5MH26GTVCR","A336V7IY38Q2WN","3WRBLBQ2GRU63BU2LFOJL1G32T90GO","","497","img/land5.png","76","497","3","0","1","1","0.8,0.2,0.2,0.2,0.8,0.2,0.2,0.2,0.8","0.8,0.2,0.2,0.2,0.8,0.2,0.2,0.2,0.8","1","",""
"","html-keyboard-response","175","613014","0.0-175.0","39JEC7537VNB1KD7DSLR5MH26GTVCR","A336V7IY38Q2WN","3WRBLBQ2GRU63BU2LFOJL1G32T90GO","","null","<img src=""img/land5.png"" style=""width:200px;border:14px solid red;"">","null","","","","","","","","","",""
"","image-keyboard-response","176","613320","0.0-176.0","39JEC7537VNB1KD7DSLR5MH26GTVCR","A336V7IY38Q2WN","3WRBLBQ2GRU63BU2LFOJL1G32T90GO","","305","img/land3.png","75","305","2","1","2","1","0.8,0.2,0.2,0.2,0.8,0.2,0.2,0.2,0.8","0.8,0.2,0.2,0.2,0.8,0.2,0.2,0.2,0.8","1","",""
"","html-keyboard-response","177","613625","0.0-177.0","39JEC7537VNB1KD7DSLR5MH26GTVCR","A336V7IY38Q2WN","3WRBLBQ2GRU63BU2LFOJL1G32T90GO","","null","<img src=""img/land3.png"" style=""width:200px; border:14px solid green;"">","null","","","","","","","","","",""
"","image-keyboard-response","178","614137","0.0-178.0","39JEC7537VNB1KD7DSLR5MH26GTVCR","A336V7IY38Q2WN","3WRBLBQ2GRU63BU2LFOJL1G32T90GO","","510","img/land4.png","75","512","2","1","3","1","0.8,0.2,0.2,0.2,0.8,0.2,0.2,0.2,0.8","0.8,0.2,0.2,0.2,0.8,0.2,0.2,0.2,0.8","1","",""
"","html-keyboard-response","179","614444","0.0-179.0","39JEC7537VNB1KD7DSLR5MH26GTVCR","A336V7IY38Q2WN","3WRBLBQ2GRU63BU2LFOJL1G32T90GO","","null","<img src=""img/land4.png"" style=""width:200px; border:14px solid green;"">","null","","","","","","","","","",""
"","image-keyboard-response","180","615112","0.0-180.0","39JEC7537VNB1KD7DSLR5MH26GTVCR","A336V7IY38Q2WN","3WRBLBQ2GRU63BU2LFOJL1G32T90GO","","667","img/land3.png","75","668","2","1","2","1","0.8,0.2,0.2,0.2,0.8,0.2,0.2,0.2,0.8","0.8,0.2,0.2,0.2,0.8,0.2,0.2,0.2,0.8","1","",""
"","html-keyboard-response","181","615414","0.0-181.0","39JEC7537VNB1KD7DSLR5MH26GTVCR","A336V7IY38Q2WN","3WRBLBQ2GRU63BU2LFOJL1G32T90GO","","null","<img src=""img/land3.png"" style=""width:200px; border:14px solid green;"">","null","","","","","","","","","",""
"","html-keyboard-response","182","646691","0.0-182.0","39JEC7537VNB1KD7DSLR5MH26GTVCR","A336V7IY38Q2WN","3WRBLBQ2GRU63BU2LFOJL1G32T90GO","","","","","","","","","","","","","",""
"","image-keyboard-response","183","647768","0.0-183.0","39JEC7537VNB1KD7DSLR5MH26GTVCR","A336V7IY38Q2WN","3WRBLBQ2GRU63BU2LFOJL1G32T90GO","","1074","img/land1.png","76","1076","3","0","3","2","0.8,0.2,0.2,0.2,0.8,0.2,0.2,0.2,0.8","0.2,0.8,0.2,0.2,0.2,0.8,0.8,0.2,0.2","3","",""
"","html-keyboard-response","184","648074","0.0-184.0","39JEC7537VNB1KD7DSLR5MH26GTVCR","A336V7IY38Q2WN","3WRBLBQ2GRU63BU2LFOJL1G32T90GO","","null","<img src=""img/land1.png"" style=""width:200px;border:14px solid red;"">","null","","","","","","","","","",""
"","image-keyboard-response","185","648919","0.0-185.0","39JEC7537VNB1KD7DSLR5MH26GTVCR","A336V7IY38Q2WN","3WRBLBQ2GRU63BU2LFOJL1G32T90GO","","844","img/land2.png","75","845","2","1","1","2","0.8,0.2,0.2,0.2,0.8,0.2,0.2,0.2,0.8","0.2,0.8,0.2,0.2,0.2,0.8,0.8,0.2,0.2","3","",""
"","html-keyboard-response","186","649225","0.0-186.0","39JEC7537VNB1KD7DSLR5MH26GTVCR","A336V7IY38Q2WN","3WRBLBQ2GRU63BU2LFOJL1G32T90GO","","null","<img src=""img/land2.png"" style=""width:200px; border:14px solid green;"">","null","","","","","","","","","",""
"","image-keyboard-response","187","649712","0.0-187.0","39JEC7537VNB1KD7DSLR5MH26GTVCR","A336V7IY38Q2WN","3WRBLBQ2GRU63BU2LFOJL1G32T90GO","","486","img/land2.png","75","487","2","1","1","2","0.8,0.2,0.2,0.2,0.8,0.2,0.2,0.2,0.8","0.2,0.8,0.2,0.2,0.2,0.8,0.8,0.2,0.2","3","",""
"","html-keyboard-response","188","650015","0.0-188.0","39JEC7537VNB1KD7DSLR5MH26GTVCR","A336V7IY38Q2WN","3WRBLBQ2GRU63BU2LFOJL1G32T90GO","","null","<img src=""img/land2.png"" style=""width:200px; border:14px solid green;"">","null","","","","","","","","","",""
"","image-keyboard-response","189","650703","0.0-189.0","39JEC7537VNB1KD7DSLR5MH26GTVCR","A336V7IY38Q2WN","3WRBLBQ2GRU63BU2LFOJL1G32T90GO","","688","img/land2.png","75","688","2","0","1","2","0.8,0.2,0.2,0.2,0.8,0.2,0.2,0.2,0.8","0.2,0.8,0.2,0.2,0.2,0.8,0.8,0.2,0.2","3","",""
"","html-keyboard-response","190","651005","0.0-190.0","39JEC7537VNB1KD7DSLR5MH26GTVCR","A336V7IY38Q2WN","3WRBLBQ2GRU63BU2LFOJL1G32T90GO","","null","<img src=""img/land2.png"" style=""width:200px;border:14px solid red;"">","null","","","","","","","","","",""
"","image-keyboard-response","191","651624","0.0-191.0","39JEC7537VNB1KD7DSLR5MH26GTVCR","A336V7IY38Q2WN","3WRBLBQ2GRU63BU2LFOJL1G32T90GO","","617","img/land2.png","75","618","2","0","1","2","0.8,0.2,0.2,0.2,0.8,0.2,0.2,0.2,0.8","0.2,0.8,0.2,0.2,0.2,0.8,0.8,0.2,0.2","3","",""
"","html-keyboard-response","192","651925","0.0-192.0","39JEC7537VNB1KD7DSLR5MH26GTVCR","A336V7IY38Q2WN","3WRBLBQ2GRU63BU2LFOJL1G32T90GO","","null","<img src=""img/land2.png"" style=""width:200px;border:14px solid red;"">","null","","","","","","","","","",""
"","image-keyboard-response","193","652456","0.0-193.0","39JEC7537VNB1KD7DSLR5MH26GTVCR","A336V7IY38Q2WN","3WRBLBQ2GRU63BU2LFOJL1G32T90GO","","529","img/land2.png","75","531","2","1","1","2","0.8,0.2,0.2,0.2,0.8,0.2,0.2,0.2,0.8","0.2,0.8,0.2,0.2,0.2,0.8,0.8,0.2,0.2","3","",""
"","html-keyboard-response","194","652765","0.0-194.0","39JEC7537VNB1KD7DSLR5MH26GTVCR","A336V7IY38Q2WN","3WRBLBQ2GRU63BU2LFOJL1G32T90GO","","null","<img src=""img/land2.png"" style=""width:200px; border:14px solid green;"">","null","","","","","","","","","",""
"","image-keyboard-response","195","652839","0.0-195.0","39JEC7537VNB1KD7DSLR5MH26GTVCR","A336V7IY38Q2WN","3WRBLBQ2GRU63BU2LFOJL1G32T90GO","","74","img/land2.png","76","75","3","0","1","2","0.8,0.2,0.2,0.2,0.8,0.2,0.2,0.2,0.8","0.2,0.8,0.2,0.2,0.2,0.8,0.8,0.2,0.2","3","",""
"","html-keyboard-response","196","653145","0.0-196.0","39JEC7537VNB1KD7DSLR5MH26GTVCR","A336V7IY38Q2WN","3WRBLBQ2GRU63BU2LFOJL1G32T90GO","","null","<img src=""img/land2.png"" style=""width:200px;border:14px solid red;"">","null","","","","","","","","","",""
"","image-keyboard-response","197","653504","0.0-197.0","39JEC7537VNB1KD7DSLR5MH26GTVCR","A336V7IY38Q2WN","3WRBLBQ2GRU63BU2LFOJL1G32T90GO","","358","img/land2.png","75","358","2","1","1","2","0.8,0.2,0.2,0.2,0.8,0.2,0.2,0.2,0.8","0.2,0.8,0.2,0.2,0.2,0.8,0.8,0.2,0.2","3","",""
"","html-keyboard-response","198","653805","0.0-198.0","39JEC7537VNB1KD7DSLR5MH26GTVCR","A336V7IY38Q2WN","3WRBLBQ2GRU63BU2LFOJL1G32T90GO","","null","<img src=""img/land2.png"" style=""width:200px; border:14px solid green;"">","null","","","","","","","","","",""
"","image-keyboard-response","199","654191","0.0-199.0","39JEC7537VNB1KD7DSLR5MH26GTVCR","A336V7IY38Q2WN","3WRBLBQ2GRU63BU2LFOJL1G32T90GO","","385","img/land2.png","75","387","2","1","1","2","0.8,0.2,0.2,0.2,0.8,0.2,0.2,0.2,0.8","0.2,0.8,0.2,0.2,0.2,0.8,0.8,0.2,0.2","3","",""
"","html-keyboard-response","200","654495","0.0-200.0","39JEC7537VNB1KD7DSLR5MH26GTVCR","A336V7IY38Q2WN","3WRBLBQ2GRU63BU2LFOJL1G32T90GO","","null","<img src=""img/land2.png"" style=""width:200px; border:14px solid green;"">","null","","","","","","","","","",""
"","image-keyboard-response","201","655160","0.0-201.0","39JEC7537VNB1KD7DSLR5MH26GTVCR","A336V7IY38Q2WN","3WRBLBQ2GRU63BU2LFOJL1G32T90GO","","664","img/land1.png","76","664","3","0","3","2","0.8,0.2,0.2,0.2,0.8,0.2,0.2,0.2,0.8","0.2,0.8,0.2,0.2,0.2,0.8,0.8,0.2,0.2","3","",""
"","html-keyboard-response","202","655465","0.0-202.0","39JEC7537VNB1KD7DSLR5MH26GTVCR","A336V7IY38Q2WN","3WRBLBQ2GRU63BU2LFOJL1G32T90GO","","null","<img src=""img/land1.png"" style=""width:200px;border:14px solid red;"">","null","","","","","","","","","",""
"","image-keyboard-response","203","656071","0.0-203.0","39JEC7537VNB1KD7DSLR5MH26GTVCR","A336V7IY38Q2WN","3WRBLBQ2GRU63BU2LFOJL1G32T90GO","","605","img/land6.png","74","607","1","1","2","2","0.8,0.2,0.2,0.2,0.8,0.2,0.2,0.2,0.8","0.2,0.8,0.2,0.2,0.2,0.8,0.8,0.2,0.2","3","",""
"","html-keyboard-response","204","656375","0.0-204.0","39JEC7537VNB1KD7DSLR5MH26GTVCR","A336V7IY38Q2WN","3WRBLBQ2GRU63BU2LFOJL1G32T90GO","","null","<img src=""img/land6.png"" style=""width:200px; border:14px solid green;"">","null","","","","","","","","","",""
"","image-keyboard-response","205","656871","0.0-205.0","39JEC7537VNB1KD7DSLR5MH26GTVCR","A336V7IY38Q2WN","3WRBLBQ2GRU63BU2LFOJL1G32T90GO","","496","img/land6.png","74","496","1","0","2","2","0.8,0.2,0.2,0.2,0.8,0.2,0.2,0.2,0.8","0.2,0.8,0.2,0.2,0.2,0.8,0.8,0.2,0.2","3","",""
"","html-keyboard-response","206","657175","0.0-206.0","39JEC7537VNB1KD7DSLR5MH26GTVCR","A336V7IY38Q2WN","3WRBLBQ2GRU63BU2LFOJL1G32T90GO","","null","<img src=""img/land6.png"" style=""width:200px;border:14px solid red;"">","null","","","","","","","","","",""
"","image-keyboard-response","207","658159","0.0-207.0","39JEC7537VNB1KD7DSLR5MH26GTVCR","A336V7IY38Q2WN","3WRBLBQ2GRU63BU2LFOJL1G32T90GO","","983","img/land1.png","76","984","3","0","3","2","0.8,0.2,0.2,0.2,0.8,0.2,0.2,0.2,0.8","0.2,0.8,0.2,0.2,0.2,0.8,0.8,0.2,0.2","3","",""
"","html-keyboard-response","208","658465","0.0-208.0","39JEC7537VNB1KD7DSLR5MH26GTVCR","A336V7IY38Q2WN","3WRBLBQ2GRU63BU2LFOJL1G32T90GO","","null","<img src=""img/land1.png"" style=""width:200px;border:14px solid red;"">","null","","","","","","","","","",""
"","image-keyboard-response","209","658951","0.0-209.0","39JEC7537VNB1KD7DSLR5MH26GTVCR","A336V7IY38Q2WN","3WRBLBQ2GRU63BU2LFOJL1G32T90GO","","485","img/land1.png","76","485","3","0","3","2","0.8,0.2,0.2,0.2,0.8,0.2,0.2,0.2,0.8","0.2,0.8,0.2,0.2,0.2,0.8,0.8,0.2,0.2","3","",""
"","html-keyboard-response","210","659255","0.0-210.0","39JEC7537VNB1KD7DSLR5MH26GTVCR","A336V7IY38Q2WN","3WRBLBQ2GRU63BU2LFOJL1G32T90GO","","null","<img src=""img/land1.png"" style=""width:200px;border:14px solid red;"">","null","","","","","","","","","",""
"","image-keyboard-response","211","659823","0.0-211.0","39JEC7537VNB1KD7DSLR5MH26GTVCR","A336V7IY38Q2WN","3WRBLBQ2GRU63BU2LFOJL1G32T90GO","","567","img/land2.png","75","568","2","1","1","2","0.8,0.2,0.2,0.2,0.8,0.2,0.2,0.2,0.8","0.2,0.8,0.2,0.2,0.2,0.8,0.8,0.2,0.2","3","",""
"","html-keyboard-response","212","660125","0.0-212.0","39JEC7537VNB1KD7DSLR5MH26GTVCR","A336V7IY38Q2WN","3WRBLBQ2GRU63BU2LFOJL1G32T90GO","","null","<img src=""img/land2.png"" style=""width:200px; border:14px solid green;"">","null","","","","","","","","","",""
"","image-keyboard-response","213","660664","0.0-213.0","39JEC7537VNB1KD7DSLR5MH26GTVCR","A336V7IY38Q2WN","3WRBLBQ2GRU63BU2LFOJL1G32T90GO","","537","img/land2.png","75","538","2","0","1","2","0.8,0.2,0.2,0.2,0.8,0.2,0.2,0.2,0.8","0.2,0.8,0.2,0.2,0.2,0.8,0.8,0.2,0.2","3","",""
"","html-keyboard-response","214","660965","0.0-214.0","39JEC7537VNB1KD7DSLR5MH26GTVCR","A336V7IY38Q2WN","3WRBLBQ2GRU63BU2LFOJL1G32T90GO","","null","<img src=""img/land2.png"" style=""width:200px;border:14px solid red;"">","null","","","","","","","","","",""
"","image-keyboard-response","215","661399","0.0-215.0","39JEC7537VNB1KD7DSLR5MH26GTVCR","A336V7IY38Q2WN","3WRBLBQ2GRU63BU2LFOJL1G32T90GO","","434","img/land6.png","76","435","3","0","2","2","0.8,0.2,0.2,0.2,0.8,0.2,0.2,0.2,0.8","0.2,0.8,0.2,0.2,0.2,0.8,0.8,0.2,0.2","3","",""
"","html-keyboard-response","216","661705","0.0-216.0","39JEC7537VNB1KD7DSLR5MH26GTVCR","A336V7IY38Q2WN","3WRBLBQ2GRU63BU2LFOJL1G32T90GO","","null","<img src=""img/land6.png"" style=""width:200px;border:14px solid red;"">","null","","","","","","","","","",""
"","image-keyboard-response","217","662384","0.0-217.0","39JEC7537VNB1KD7DSLR5MH26GTVCR","A336V7IY38Q2WN","3WRBLBQ2GRU63BU2LFOJL1G32T90GO","","678","img/land1.png","75","679","2","0","3","2","0.8,0.2,0.2,0.2,0.8,0.2,0.2,0.2,0.8","0.2,0.8,0.2,0.2,0.2,0.8,0.8,0.2,0.2","3","",""
"","html-keyboard-response","218","662685","0.0-218.0","39JEC7537VNB1KD7DSLR5MH26GTVCR","A336V7IY38Q2WN","3WRBLBQ2GRU63BU2LFOJL1G32T90GO","","null","<img src=""img/land1.png"" style=""width:200px;border:14px solid red;"">","null","","","","","","","","","",""
"","image-keyboard-response","219","663095","0.0-219.0","39JEC7537VNB1KD7DSLR5MH26GTVCR","A336V7IY38Q2WN","3WRBLBQ2GRU63BU2LFOJL1G32T90GO","","409","img/land6.png","76","410","3","1","2","2","0.8,0.2,0.2,0.2,0.8,0.2,0.2,0.2,0.8","0.2,0.8,0.2,0.2,0.2,0.8,0.8,0.2,0.2","3","",""
"","html-keyboard-response","220","663405","0.0-220.0","39JEC7537VNB1KD7DSLR5MH26GTVCR","A336V7IY38Q2WN","3WRBLBQ2GRU63BU2LFOJL1G32T90GO","","null","<img src=""img/land6.png"" style=""width:200px; border:14px solid green;"">","null","","","","","","","","","",""
"","image-keyboard-response","221","664223","0.0-221.0","39JEC7537VNB1KD7DSLR5MH26GTVCR","A336V7IY38Q2WN","3WRBLBQ2GRU63BU2LFOJL1G32T90GO","","818","img/land2.png","76","818","3","0","1","2","0.8,0.2,0.2,0.2,0.8,0.2,0.2,0.2,0.8","0.2,0.8,0.2,0.2,0.2,0.8,0.8,0.2,0.2","3","",""
"","html-keyboard-response","222","664525","0.0-222.0","39JEC7537VNB1KD7DSLR5MH26GTVCR","A336V7IY38Q2WN","3WRBLBQ2GRU63BU2LFOJL1G32T90GO","","null","<img src=""img/land2.png"" style=""width:200px;border:14px solid red;"">","null","","","","","","","","","",""
"","image-keyboard-response","223","665039","0.0-223.0","39JEC7537VNB1KD7DSLR5MH26GTVCR","A336V7IY38Q2WN","3WRBLBQ2GRU63BU2LFOJL1G32T90GO","","514","img/land2.png","75","514","2","1","1","2","0.8,0.2,0.2,0.2,0.8,0.2,0.2,0.2,0.8","0.2,0.8,0.2,0.2,0.2,0.8,0.8,0.2,0.2","3","",""
"","html-keyboard-response","224","665345","0.0-224.0","39JEC7537VNB1KD7DSLR5MH26GTVCR","A336V7IY38Q2WN","3WRBLBQ2GRU63BU2LFOJL1G32T90GO","","null","<img src=""img/land2.png"" style=""width:200px; border:14px solid green;"">","null","","","","","","","","","",""
"","image-keyboard-response","225","665743","0.0-225.0","39JEC7537VNB1KD7DSLR5MH26GTVCR","A336V7IY38Q2WN","3WRBLBQ2GRU63BU2LFOJL1G32T90GO","","398","img/land2.png","75","399","2","1","1","2","0.8,0.2,0.2,0.2,0.8,0.2,0.2,0.2,0.8","0.2,0.8,0.2,0.2,0.2,0.8,0.8,0.2,0.2","3","",""
"","html-keyboard-response","226","666045","0.0-226.0","39JEC7537VNB1KD7DSLR5MH26GTVCR","A336V7IY38Q2WN","3WRBLBQ2GRU63BU2LFOJL1G32T90GO","","null","<img src=""img/land2.png"" style=""width:200px; border:14px solid green;"">","null","","","","","","","","","",""
"","image-keyboard-response","227","666503","0.0-227.0","39JEC7537VNB1KD7DSLR5MH26GTVCR","A336V7IY38Q2WN","3WRBLBQ2GRU63BU2LFOJL1G32T90GO","","457","img/land2.png","75","458","2","1","1","2","0.8,0.2,0.2,0.2,0.8,0.2,0.2,0.2,0.8","0.2,0.8,0.2,0.2,0.2,0.8,0.8,0.2,0.2","3","",""
"","html-keyboard-response","228","666805","0.0-228.0","39JEC7537VNB1KD7DSLR5MH26GTVCR","A336V7IY38Q2WN","3WRBLBQ2GRU63BU2LFOJL1G32T90GO","","null","<img src=""img/land2.png"" style=""width:200px; border:14px solid green;"">","null","","","","","","","","","",""
"","image-keyboard-response","229","667495","0.0-229.0","39JEC7537VNB1KD7DSLR5MH26GTVCR","A336V7IY38Q2WN","3WRBLBQ2GRU63BU2LFOJL1G32T90GO","","689","img/land6.png","74","691","1","0","2","2","0.8,0.2,0.2,0.2,0.8,0.2,0.2,0.2,0.8","0.2,0.8,0.2,0.2,0.2,0.8,0.8,0.2,0.2","3","",""
"","html-keyboard-response","230","667804","0.0-230.0","39JEC7537VNB1KD7DSLR5MH26GTVCR","A336V7IY38Q2WN","3WRBLBQ2GRU63BU2LFOJL1G32T90GO","","null","<img src=""img/land6.png"" style=""width:200px;border:14px solid red;"">","null","","","","","","","","","",""
"","image-keyboard-response","231","668143","0.0-231.0","39JEC7537VNB1KD7DSLR5MH26GTVCR","A336V7IY38Q2WN","3WRBLBQ2GRU63BU2LFOJL1G32T90GO","","337","img/land2.png","75","338","2","1","1","2","0.8,0.2,0.2,0.2,0.8,0.2,0.2,0.2,0.8","0.2,0.8,0.2,0.2,0.2,0.8,0.8,0.2,0.2","3","",""
"","html-keyboard-response","232","668445","0.0-232.0","39JEC7537VNB1KD7DSLR5MH26GTVCR","A336V7IY38Q2WN","3WRBLBQ2GRU63BU2LFOJL1G32T90GO","","null","<img src=""img/land2.png"" style=""width:200px; border:14px solid green;"">","null","","","","","","","","","",""
"","image-keyboard-response","233","668871","0.0-233.0","39JEC7537VNB1KD7DSLR5MH26GTVCR","A336V7IY38Q2WN","3WRBLBQ2GRU63BU2LFOJL1G32T90GO","","425","img/land2.png","76","426","3","0","1","2","0.8,0.2,0.2,0.2,0.8,0.2,0.2,0.2,0.8","0.2,0.8,0.2,0.2,0.2,0.8,0.8,0.2,0.2","3","",""
"","html-keyboard-response","234","669175","0.0-234.0","39JEC7537VNB1KD7DSLR5MH26GTVCR","A336V7IY38Q2WN","3WRBLBQ2GRU63BU2LFOJL1G32T90GO","","null","<img src=""img/land2.png"" style=""width:200px;border:14px solid red;"">","null","","","","","","","","","",""
"","image-keyboard-response","235","669343","0.0-235.0","39JEC7537VNB1KD7DSLR5MH26GTVCR","A336V7IY38Q2WN","3WRBLBQ2GRU63BU2LFOJL1G32T90GO","","168","img/land1.png","75","168","2","0","3","2","0.8,0.2,0.2,0.2,0.8,0.2,0.2,0.2,0.8","0.2,0.8,0.2,0.2,0.2,0.8,0.8,0.2,0.2","3","",""
"","html-keyboard-response","236","669645","0.0-236.0","39JEC7537VNB1KD7DSLR5MH26GTVCR","A336V7IY38Q2WN","3WRBLBQ2GRU63BU2LFOJL1G32T90GO","","null","<img src=""img/land1.png"" style=""width:200px;border:14px solid red;"">","null","","","","","","","","","",""
"","image-keyboard-response","237","670087","0.0-237.0","39JEC7537VNB1KD7DSLR5MH26GTVCR","A336V7IY38Q2WN","3WRBLBQ2GRU63BU2LFOJL1G32T90GO","","442","img/land1.png","74","442","1","1","3","2","0.8,0.2,0.2,0.2,0.8,0.2,0.2,0.2,0.8","0.2,0.8,0.2,0.2,0.2,0.8,0.8,0.2,0.2","3","",""
"","html-keyboard-response","238","670394","0.0-238.0","39JEC7537VNB1KD7DSLR5MH26GTVCR","A336V7IY38Q2WN","3WRBLBQ2GRU63BU2LFOJL1G32T90GO","","null","<img src=""img/land1.png"" style=""width:200px; border:14px solid green;"">","null","","","","","","","","","",""
"","image-keyboard-response","239","670847","0.0-239.0","39JEC7537VNB1KD7DSLR5MH26GTVCR","A336V7IY38Q2WN","3WRBLBQ2GRU63BU2LFOJL1G32T90GO","","451","img/land6.png","75","452","2","0","2","2","0.8,0.2,0.2,0.2,0.8,0.2,0.2,0.2,0.8","0.2,0.8,0.2,0.2,0.2,0.8,0.8,0.2,0.2","3","",""
"","html-keyboard-response","240","671154","0.0-240.0","39JEC7537VNB1KD7DSLR5MH26GTVCR","A336V7IY38Q2WN","3WRBLBQ2GRU63BU2LFOJL1G32T90GO","","null","<img src=""img/land6.png"" style=""width:200px;border:14px solid red;"">","null","","","","","","","","","",""
"","image-keyboard-response","241","671663","0.0-241.0","39JEC7537VNB1KD7DSLR5MH26GTVCR","A336V7IY38Q2WN","3WRBLBQ2GRU63BU2LFOJL1G32T90GO","","507","img/land2.png","76","508","3","0","1","2","0.8,0.2,0.2,0.2,0.8,0.2,0.2,0.2,0.8","0.2,0.8,0.2,0.2,0.2,0.8,0.8,0.2,0.2","3","",""
"","html-keyboard-response","242","671965","0.0-242.0","39JEC7537VNB1KD7DSLR5MH26GTVCR","A336V7IY38Q2WN","3WRBLBQ2GRU63BU2LFOJL1G32T90GO","","null","<img src=""img/land2.png"" style=""width:200px;border:14px solid red;"">","null","","","","","","","","","",""
"","image-keyboard-response","243","672383","0.0-243.0","39JEC7537VNB1KD7DSLR5MH26GTVCR","A336V7IY38Q2WN","3WRBLBQ2GRU63BU2LFOJL1G32T90GO","","416","img/land2.png","76","417","3","0","1","2","0.8,0.2,0.2,0.2,0.8,0.2,0.2,0.2,0.8","0.2,0.8,0.2,0.2,0.2,0.8,0.8,0.2,0.2","3","",""
"","html-keyboard-response","244","672685","0.0-244.0","39JEC7537VNB1KD7DSLR5MH26GTVCR","A336V7IY38Q2WN","3WRBLBQ2GRU63BU2LFOJL1G32T90GO","","null","<img src=""img/land2.png"" style=""width:200px;border:14px solid red;"">","null","","","","","","","","","",""
"","image-keyboard-response","245","673223","0.0-245.0","39JEC7537VNB1KD7DSLR5MH26GTVCR","A336V7IY38Q2WN","3WRBLBQ2GRU63BU2LFOJL1G32T90GO","","538","img/land1.png","75","538","2","0","3","2","0.8,0.2,0.2,0.2,0.8,0.2,0.2,0.2,0.8","0.2,0.8,0.2,0.2,0.2,0.8,0.8,0.2,0.2","3","",""
"","html-keyboard-response","246","673525","0.0-246.0","39JEC7537VNB1KD7DSLR5MH26GTVCR","A336V7IY38Q2WN","3WRBLBQ2GRU63BU2LFOJL1G32T90GO","","null","<img src=""img/land1.png"" style=""width:200px;border:14px solid red;"">","null","","","","","","","","","",""
"","image-keyboard-response","247","673871","0.0-247.0","39JEC7537VNB1KD7DSLR5MH26GTVCR","A336V7IY38Q2WN","3WRBLBQ2GRU63BU2LFOJL1G32T90GO","","345","img/land2.png","74","347","1","0","1","2","0.8,0.2,0.2,0.2,0.8,0.2,0.2,0.2,0.8","0.2,0.8,0.2,0.2,0.2,0.8,0.8,0.2,0.2","3","",""
"","html-keyboard-response","248","674175","0.0-248.0","39JEC7537VNB1KD7DSLR5MH26GTVCR","A336V7IY38Q2WN","3WRBLBQ2GRU63BU2LFOJL1G32T90GO","","null","<img src=""img/land2.png"" style=""width:200px;border:14px solid red;"">","null","","","","","","","","","",""
"","image-keyboard-response","249","674335","0.0-249.0","39JEC7537VNB1KD7DSLR5MH26GTVCR","A336V7IY38Q2WN","3WRBLBQ2GRU63BU2LFOJL1G32T90GO","","160","img/land1.png","75","160","2","0","3","2","0.8,0.2,0.2,0.2,0.8,0.2,0.2,0.2,0.8","0.2,0.8,0.2,0.2,0.2,0.8,0.8,0.2,0.2","3","",""
"","html-keyboard-response","250","674644","0.0-250.0","39JEC7537VNB1KD7DSLR5MH26GTVCR","A336V7IY38Q2WN","3WRBLBQ2GRU63BU2LFOJL1G32T90GO","","null","<img src=""img/land1.png"" style=""width:200px;border:14px solid red;"">","null","","","","","","","","","",""
"","image-keyboard-response","251","674799","0.0-251.0","39JEC7537VNB1KD7DSLR5MH26GTVCR","A336V7IY38Q2WN","3WRBLBQ2GRU63BU2LFOJL1G32T90GO","","153","img/land2.png","76","154","3","0","1","2","0.8,0.2,0.2,0.2,0.8,0.2,0.2,0.2,0.8","0.2,0.8,0.2,0.2,0.2,0.8,0.8,0.2,0.2","3","",""
"","html-keyboard-response","252","675105","0.0-252.0","39JEC7537VNB1KD7DSLR5MH26GTVCR","A336V7IY38Q2WN","3WRBLBQ2GRU63BU2LFOJL1G32T90GO","","null","<img src=""img/land2.png"" style=""width:200px;border:14px solid red;"">","null","","","","","","","","","",""
"","image-keyboard-response","253","675343","0.0-253.0","39JEC7537VNB1KD7DSLR5MH26GTVCR","A336V7IY38Q2WN","3WRBLBQ2GRU63BU2LFOJL1G32T90GO","","238","img/land2.png","76","239","3","1","1","2","0.8,0.2,0.2,0.2,0.8,0.2,0.2,0.2,0.8","0.2,0.8,0.2,0.2,0.2,0.8,0.8,0.2,0.2","3","",""
"","html-keyboard-response","254","675644","0.0-254.0","39JEC7537VNB1KD7DSLR5MH26GTVCR","A336V7IY38Q2WN","3WRBLBQ2GRU63BU2LFOJL1G32T90GO","","null","<img src=""img/land2.png"" style=""width:200px; border:14px solid green;"">","null","","","","","","","","","",""
"","image-keyboard-response","255","675927","0.0-255.0","39JEC7537VNB1KD7DSLR5MH26GTVCR","A336V7IY38Q2WN","3WRBLBQ2GRU63BU2LFOJL1G32T90GO","","282","img/land2.png","75","282","2","0","1","2","0.8,0.2,0.2,0.2,0.8,0.2,0.2,0.2,0.8","0.2,0.8,0.2,0.2,0.2,0.8,0.8,0.2,0.2","3","",""
"","html-keyboard-response","256","676235","0.0-256.0","39JEC7537VNB1KD7DSLR5MH26GTVCR","A336V7IY38Q2WN","3WRBLBQ2GRU63BU2LFOJL1G32T90GO","","null","<img src=""img/land2.png"" style=""width:200px;border:14px solid red;"">","null","","","","","","","","","",""
"","image-keyboard-response","257","676487","0.0-257.0","39JEC7537VNB1KD7DSLR5MH26GTVCR","A336V7IY38Q2WN","3WRBLBQ2GRU63BU2LFOJL1G32T90GO","","252","img/land2.png","76","252","3","0","1","2","0.8,0.2,0.2,0.2,0.8,0.2,0.2,0.2,0.8","0.2,0.8,0.2,0.2,0.2,0.8,0.8,0.2,0.2","3","",""
"","html-keyboard-response","258","676794","0.0-258.0","39JEC7537VNB1KD7DSLR5MH26GTVCR","A336V7IY38Q2WN","3WRBLBQ2GRU63BU2LFOJL1G32T90GO","","null","<img src=""img/land2.png"" style=""width:200px;border:14px solid red;"">","null","","","","","","","","","",""
"","image-keyboard-response","259","677199","0.0-259.0","39JEC7537VNB1KD7DSLR5MH26GTVCR","A336V7IY38Q2WN","3WRBLBQ2GRU63BU2LFOJL1G32T90GO","","403","img/land1.png","74","405","1","1","3","2","0.8,0.2,0.2,0.2,0.8,0.2,0.2,0.2,0.8","0.2,0.8,0.2,0.2,0.2,0.8,0.8,0.2,0.2","3","",""
"","html-keyboard-response","260","677505","0.0-260.0","39JEC7537VNB1KD7DSLR5MH26GTVCR","A336V7IY38Q2WN","3WRBLBQ2GRU63BU2LFOJL1G32T90GO","","null","<img src=""img/land1.png"" style=""width:200px; border:14px solid green;"">","null","","","","","","","","","",""
"","image-keyboard-response","261","677583","0.0-261.0","39JEC7537VNB1KD7DSLR5MH26GTVCR","A336V7IY38Q2WN","3WRBLBQ2GRU63BU2LFOJL1G32T90GO","","76","img/land2.png","75","78","2","0","1","2","0.8,0.2,0.2,0.2,0.8,0.2,0.2,0.2,0.8","0.2,0.8,0.2,0.2,0.2,0.8,0.8,0.2,0.2","3","",""
"","html-keyboard-response","262","677885","0.0-262.0","39JEC7537VNB1KD7DSLR5MH26GTVCR","A336V7IY38Q2WN","3WRBLBQ2GRU63BU2LFOJL1G32T90GO","","null","<img src=""img/land2.png"" style=""width:200px;border:14px solid red;"">","null","","","","","","","","","",""
"","image-keyboard-response","263","677919","0.0-263.0","39JEC7537VNB1KD7DSLR5MH26GTVCR","A336V7IY38Q2WN","3WRBLBQ2GRU63BU2LFOJL1G32T90GO","","34","img/land2.png","76","34","3","0","1","2","0.8,0.2,0.2,0.2,0.8,0.2,0.2,0.2,0.8","0.2,0.8,0.2,0.2,0.2,0.8,0.8,0.2,0.2","3","",""
"","html-keyboard-response","264","678224","0.0-264.0","39JEC7537VNB1KD7DSLR5MH26GTVCR","A336V7IY38Q2WN","3WRBLBQ2GRU63BU2LFOJL1G32T90GO","","null","<img src=""img/land2.png"" style=""width:200px;border:14px solid red;"">","null","","","","","","","","","",""
"","image-keyboard-response","265","678775","0.0-265.0","39JEC7537VNB1KD7DSLR5MH26GTVCR","A336V7IY38Q2WN","3WRBLBQ2GRU63BU2LFOJL1G32T90GO","","550","img/land6.png","76","550","3","1","2","2","0.8,0.2,0.2,0.2,0.8,0.2,0.2,0.2,0.8","0.2,0.8,0.2,0.2,0.2,0.8,0.8,0.2,0.2","3","",""
"","html-keyboard-response","266","679085","0.0-266.0","39JEC7537VNB1KD7DSLR5MH26GTVCR","A336V7IY38Q2WN","3WRBLBQ2GRU63BU2LFOJL1G32T90GO","","null","<img src=""img/land6.png"" style=""width:200px; border:14px solid green;"">","null","","","","","","","","","",""
"","image-keyboard-response","267","679615","0.0-267.0","39JEC7537VNB1KD7DSLR5MH26GTVCR","A336V7IY38Q2WN","3WRBLBQ2GRU63BU2LFOJL1G32T90GO","","529","img/land2.png","76","530","3","0","1","2","0.8,0.2,0.2,0.2,0.8,0.2,0.2,0.2,0.8","0.2,0.8,0.2,0.2,0.2,0.8,0.8,0.2,0.2","3","",""
"","html-keyboard-response","268","679925","0.0-268.0","39JEC7537VNB1KD7DSLR5MH26GTVCR","A336V7IY38Q2WN","3WRBLBQ2GRU63BU2LFOJL1G32T90GO","","null","<img src=""img/land2.png"" style=""width:200px;border:14px solid red;"">","null","","","","","","","","","",""
"","image-keyboard-response","269","680415","0.0-269.0","39JEC7537VNB1KD7DSLR5MH26GTVCR","A336V7IY38Q2WN","3WRBLBQ2GRU63BU2LFOJL1G32T90GO","","489","img/land2.png","76","491","3","0","1","2","0.8,0.2,0.2,0.2,0.8,0.2,0.2,0.2,0.8","0.2,0.8,0.2,0.2,0.2,0.8,0.8,0.2,0.2","3","",""
"","html-keyboard-response","270","680724","0.0-270.0","39JEC7537VNB1KD7DSLR5MH26GTVCR","A336V7IY38Q2WN","3WRBLBQ2GRU63BU2LFOJL1G32T90GO","","null","<img src=""img/land2.png"" style=""width:200px;border:14px solid red;"">","null","","","","","","","","","",""
"","image-keyboard-response","271","681039","0.0-271.0","39JEC7537VNB1KD7DSLR5MH26GTVCR","A336V7IY38Q2WN","3WRBLBQ2GRU63BU2LFOJL1G32T90GO","","313","img/land2.png","76","314","3","0","1","2","0.8,0.2,0.2,0.2,0.8,0.2,0.2,0.2,0.8","0.2,0.8,0.2,0.2,0.2,0.8,0.8,0.2,0.2","3","",""
"","html-keyboard-response","272","681345","0.0-272.0","39JEC7537VNB1KD7DSLR5MH26GTVCR","A336V7IY38Q2WN","3WRBLBQ2GRU63BU2LFOJL1G32T90GO","","null","<img src=""img/land2.png"" style=""width:200px;border:14px solid red;"">","null","","","","","","","","","",""
"","image-keyboard-response","273","681639","0.0-273.0","39JEC7537VNB1KD7DSLR5MH26GTVCR","A336V7IY38Q2WN","3WRBLBQ2GRU63BU2LFOJL1G32T90GO","","294","img/land6.png","75","294","2","1","2","2","0.8,0.2,0.2,0.2,0.8,0.2,0.2,0.2,0.8","0.2,0.8,0.2,0.2,0.2,0.8,0.8,0.2,0.2","3","",""
"","html-keyboard-response","274","681945","0.0-274.0","39JEC7537VNB1KD7DSLR5MH26GTVCR","A336V7IY38Q2WN","3WRBLBQ2GRU63BU2LFOJL1G32T90GO","","null","<img src=""img/land6.png"" style=""width:200px; border:14px solid green;"">","null","","","","","","","","","",""
"","image-keyboard-response","275","682471","0.0-275.0","39JEC7537VNB1KD7DSLR5MH26GTVCR","A336V7IY38Q2WN","3WRBLBQ2GRU63BU2LFOJL1G32T90GO","","526","img/land2.png","76","526","3","1","1","2","0.8,0.2,0.2,0.2,0.8,0.2,0.2,0.2,0.8","0.2,0.8,0.2,0.2,0.2,0.8,0.8,0.2,0.2","3","",""
"","html-keyboard-response","276","682775","0.0-276.0","39JEC7537VNB1KD7DSLR5MH26GTVCR","A336V7IY38Q2WN","3WRBLBQ2GRU63BU2LFOJL1G32T90GO","","null","<img src=""img/land2.png"" style=""width:200px; border:14px solid green;"">","null","","","","","","","","","",""
"","image-keyboard-response","277","683263","0.0-277.0","39JEC7537VNB1KD7DSLR5MH26GTVCR","A336V7IY38Q2WN","3WRBLBQ2GRU63BU2LFOJL1G32T90GO","","486","img/land2.png","76","489","3","0","1","2","0.8,0.2,0.2,0.2,0.8,0.2,0.2,0.2,0.8","0.2,0.8,0.2,0.2,0.2,0.8,0.8,0.2,0.2","3","",""
"","html-keyboard-response","278","683565","0.0-278.0","39JEC7537VNB1KD7DSLR5MH26GTVCR","A336V7IY38Q2WN","3WRBLBQ2GRU63BU2LFOJL1G32T90GO","","null","<img src=""img/land2.png"" style=""width:200px;border:14px solid red;"">","null","","","","","","","","","",""
"","image-keyboard-response","279","683886","0.0-279.0","39JEC7537VNB1KD7DSLR5MH26GTVCR","A336V7IY38Q2WN","3WRBLBQ2GRU63BU2LFOJL1G32T90GO","","321","img/land6.png","75","322","2","1","2","2","0.8,0.2,0.2,0.2,0.8,0.2,0.2,0.2,0.8","0.2,0.8,0.2,0.2,0.2,0.8,0.8,0.2,0.2","3","",""
"","html-keyboard-response","280","684195","0.0-280.0","39JEC7537VNB1KD7DSLR5MH26GTVCR","A336V7IY38Q2WN","3WRBLBQ2GRU63BU2LFOJL1G32T90GO","","null","<img src=""img/land6.png"" style=""width:200px; border:14px solid green;"">","null","","","","","","","","","",""
"","image-keyboard-response","281","684871","0.0-281.0","39JEC7537VNB1KD7DSLR5MH26GTVCR","A336V7IY38Q2WN","3WRBLBQ2GRU63BU2LFOJL1G32T90GO","","676","img/land2.png","75","676","2","0","1","2","0.8,0.2,0.2,0.2,0.8,0.2,0.2,0.2,0.8","0.2,0.8,0.2,0.2,0.2,0.8,0.8,0.2,0.2","3","",""
"","html-keyboard-response","282","685174","0.0-282.0","39JEC7537VNB1KD7DSLR5MH26GTVCR","A336V7IY38Q2WN","3WRBLBQ2GRU63BU2LFOJL1G32T90GO","","null","<img src=""img/land2.png"" style=""width:200px;border:14px solid red;"">","null","","","","","","","","","",""
"","image-keyboard-response","283","685607","0.0-283.0","39JEC7537VNB1KD7DSLR5MH26GTVCR","A336V7IY38Q2WN","3WRBLBQ2GRU63BU2LFOJL1G32T90GO","","432","img/land2.png","76","433","3","0","1","2","0.8,0.2,0.2,0.2,0.8,0.2,0.2,0.2,0.8","0.2,0.8,0.2,0.2,0.2,0.8,0.8,0.2,0.2","3","",""
"","html-keyboard-response","284","685914","0.0-284.0","39JEC7537VNB1KD7DSLR5MH26GTVCR","A336V7IY38Q2WN","3WRBLBQ2GRU63BU2LFOJL1G32T90GO","","null","<img src=""img/land2.png"" style=""width:200px;border:14px solid red;"">","null","","","","","","","","","",""
"","image-keyboard-response","285","686007","0.0-285.0","39JEC7537VNB1KD7DSLR5MH26GTVCR","A336V7IY38Q2WN","3WRBLBQ2GRU63BU2LFOJL1G32T90GO","","92","img/land2.png","74","92","1","0","1","2","0.8,0.2,0.2,0.2,0.8,0.2,0.2,0.2,0.8","0.2,0.8,0.2,0.2,0.2,0.8,0.8,0.2,0.2","3","",""
"","html-keyboard-response","286","686314","0.0-286.0","39JEC7537VNB1KD7DSLR5MH26GTVCR","A336V7IY38Q2WN","3WRBLBQ2GRU63BU2LFOJL1G32T90GO","","null","<img src=""img/land2.png"" style=""width:200px;border:14px solid red;"">","null","","","","","","","","","",""
"","image-keyboard-response","287","687031","0.0-287.0","39JEC7537VNB1KD7DSLR5MH26GTVCR","A336V7IY38Q2WN","3WRBLBQ2GRU63BU2LFOJL1G32T90GO","","716","img/land1.png","75","716","2","0","3","2","0.8,0.2,0.2,0.2,0.8,0.2,0.2,0.2,0.8","0.2,0.8,0.2,0.2,0.2,0.8,0.8,0.2,0.2","3","",""
"","html-keyboard-response","288","687334","0.0-288.0","39JEC7537VNB1KD7DSLR5MH26GTVCR","A336V7IY38Q2WN","3WRBLBQ2GRU63BU2LFOJL1G32T90GO","","null","<img src=""img/land1.png"" style=""width:200px;border:14px solid red;"">","null","","","","","","","","","",""
"","image-keyboard-response","289","687673","0.0-289.0","39JEC7537VNB1KD7DSLR5MH26GTVCR","A336V7IY38Q2WN","3WRBLBQ2GRU63BU2LFOJL1G32T90GO","","337","img/land1.png","76","339","3","0","3","2","0.8,0.2,0.2,0.2,0.8,0.2,0.2,0.2,0.8","0.2,0.8,0.2,0.2,0.2,0.8,0.8,0.2,0.2","3","",""
"","html-keyboard-response","290","687974","0.0-290.0","39JEC7537VNB1KD7DSLR5MH26GTVCR","A336V7IY38Q2WN","3WRBLBQ2GRU63BU2LFOJL1G32T90GO","","null","<img src=""img/land1.png"" style=""width:200px;border:14px solid red;"">","null","","","","","","","","","",""
"","image-keyboard-response","291","688127","0.0-291.0","39JEC7537VNB1KD7DSLR5MH26GTVCR","A336V7IY38Q2WN","3WRBLBQ2GRU63BU2LFOJL1G32T90GO","","152","img/land2.png","76","152","3","0","1","2","0.8,0.2,0.2,0.2,0.8,0.2,0.2,0.2,0.8","0.2,0.8,0.2,0.2,0.2,0.8,0.8,0.2,0.2","3","",""
"","html-keyboard-response","292","688435","0.0-292.0","39JEC7537VNB1KD7DSLR5MH26GTVCR","A336V7IY38Q2WN","3WRBLBQ2GRU63BU2LFOJL1G32T90GO","","null","<img src=""img/land2.png"" style=""width:200px;border:14px solid red;"">","null","","","","","","","","","",""
"","image-keyboard-response","293","688847","0.0-293.0","39JEC7537VNB1KD7DSLR5MH26GTVCR","A336V7IY38Q2WN","3WRBLBQ2GRU63BU2LFOJL1G32T90GO","","411","img/land2.png","76","412","3","0","1","2","0.8,0.2,0.2,0.2,0.8,0.2,0.2,0.2,0.8","0.2,0.8,0.2,0.2,0.2,0.8,0.8,0.2,0.2","3","",""
"","html-keyboard-response","294","689154","0.0-294.0","39JEC7537VNB1KD7DSLR5MH26GTVCR","A336V7IY38Q2WN","3WRBLBQ2GRU63BU2LFOJL1G32T90GO","","null","<img src=""img/land2.png"" style=""width:200px;border:14px solid red;"">","null","","","","","","","","","",""
"","image-keyboard-response","295","689415","0.0-295.0","39JEC7537VNB1KD7DSLR5MH26GTVCR","A336V7IY38Q2WN","3WRBLBQ2GRU63BU2LFOJL1G32T90GO","","260","img/land1.png","75","260","2","0","3","2","0.8,0.2,0.2,0.2,0.8,0.2,0.2,0.2,0.8","0.2,0.8,0.2,0.2,0.2,0.8,0.8,0.2,0.2","3","",""
"","html-keyboard-response","296","689724","0.0-296.0","39JEC7537VNB1KD7DSLR5MH26GTVCR","A336V7IY38Q2WN","3WRBLBQ2GRU63BU2LFOJL1G32T90GO","","null","<img src=""img/land1.png"" style=""width:200px;border:14px solid red;"">","null","","","","","","","","","",""
"","image-keyboard-response","297","690071","0.0-297.0","39JEC7537VNB1KD7DSLR5MH26GTVCR","A336V7IY38Q2WN","3WRBLBQ2GRU63BU2LFOJL1G32T90GO","","346","img/land2.png","76","346","3","0","1","2","0.8,0.2,0.2,0.2,0.8,0.2,0.2,0.2,0.8","0.2,0.8,0.2,0.2,0.2,0.8,0.8,0.2,0.2","3","",""
"","html-keyboard-response","298","690374","0.0-298.0","39JEC7537VNB1KD7DSLR5MH26GTVCR","A336V7IY38Q2WN","3WRBLBQ2GRU63BU2LFOJL1G32T90GO","","null","<img src=""img/land2.png"" style=""width:200px;border:14px solid red;"">","null","","","","","","","","","",""
"","image-keyboard-response","299","690847","0.0-299.0","39JEC7537VNB1KD7DSLR5MH26GTVCR","A336V7IY38Q2WN","3WRBLBQ2GRU63BU2LFOJL1G32T90GO","","471","img/land2.png","76","472","3","1","1","2","0.8,0.2,0.2,0.2,0.8,0.2,0.2,0.2,0.8","0.2,0.8,0.2,0.2,0.2,0.8,0.8,0.2,0.2","3","",""
"","html-keyboard-response","300","691154","0.0-300.0","39JEC7537VNB1KD7DSLR5MH26GTVCR","A336V7IY38Q2WN","3WRBLBQ2GRU63BU2LFOJL1G32T90GO","","null","<img src=""img/land2.png"" style=""width:200px; border:14px solid green;"">","null","","","","","","","","","",""
"","image-keyboard-response","301","691575","0.0-301.0","39JEC7537VNB1KD7DSLR5MH26GTVCR","A336V7IY38Q2WN","3WRBLBQ2GRU63BU2LFOJL1G32T90GO","","419","img/land2.png","76","420","3","0","1","2","0.8,0.2,0.2,0.2,0.8,0.2,0.2,0.2,0.8","0.2,0.8,0.2,0.2,0.2,0.8,0.8,0.2,0.2","3","",""
"","html-keyboard-response","302","691884","0.0-302.0","39JEC7537VNB1KD7DSLR5MH26GTVCR","A336V7IY38Q2WN","3WRBLBQ2GRU63BU2LFOJL1G32T90GO","","null","<img src=""img/land2.png"" style=""width:200px;border:14px solid red;"">","null","","","","","","","","","",""
"","image-keyboard-response","303","692255","0.0-303.0","39JEC7537VNB1KD7DSLR5MH26GTVCR","A336V7IY38Q2WN","3WRBLBQ2GRU63BU2LFOJL1G32T90GO","","369","img/land6.png","75","369","2","0","2","2","0.8,0.2,0.2,0.2,0.8,0.2,0.2,0.2,0.8","0.2,0.8,0.2,0.2,0.2,0.8,0.8,0.2,0.2","3","",""
"","html-keyboard-response","304","692564","0.0-304.0","39JEC7537VNB1KD7DSLR5MH26GTVCR","A336V7IY38Q2WN","3WRBLBQ2GRU63BU2LFOJL1G32T90GO","","null","<img src=""img/land6.png"" style=""width:200px;border:14px solid red;"">","null","","","","","","","","","",""
"","image-keyboard-response","305","693231","0.0-305.0","39JEC7537VNB1KD7DSLR5MH26GTVCR","A336V7IY38Q2WN","3WRBLBQ2GRU63BU2LFOJL1G32T90GO","","665","img/land2.png","76","666","3","0","1","2","0.8,0.2,0.2,0.2,0.8,0.2,0.2,0.2,0.8","0.2,0.8,0.2,0.2,0.2,0.8,0.8,0.2,0.2","3","",""
"","html-keyboard-response","306","693534","0.0-306.0","39JEC7537VNB1KD7DSLR5MH26GTVCR","A336V7IY38Q2WN","3WRBLBQ2GRU63BU2LFOJL1G32T90GO","","null","<img src=""img/land2.png"" style=""width:200px;border:14px solid red;"">","null","","","","","","","","","",""
"","image-keyboard-response","307","693975","0.0-307.0","39JEC7537VNB1KD7DSLR5MH26GTVCR","A336V7IY38Q2WN","3WRBLBQ2GRU63BU2LFOJL1G32T90GO","","439","img/land2.png","76","439","3","0","1","2","0.8,0.2,0.2,0.2,0.8,0.2,0.2,0.2,0.8","0.2,0.8,0.2,0.2,0.2,0.8,0.8,0.2,0.2","3","",""
"","html-keyboard-response","308","694285","0.0-308.0","39JEC7537VNB1KD7DSLR5MH26GTVCR","A336V7IY38Q2WN","3WRBLBQ2GRU63BU2LFOJL1G32T90GO","","null","<img src=""img/land2.png"" style=""width:200px;border:14px solid red;"">","null","","","","","","","","","",""
"","image-keyboard-response","309","694695","0.0-309.0","39JEC7537VNB1KD7DSLR5MH26GTVCR","A336V7IY38Q2WN","3WRBLBQ2GRU63BU2LFOJL1G32T90GO","","410","img/land2.png","76","410","3","0","1","2","0.8,0.2,0.2,0.2,0.8,0.2,0.2,0.2,0.8","0.2,0.8,0.2,0.2,0.2,0.8,0.8,0.2,0.2","3","",""
"","html-keyboard-response","310","695005","0.0-310.0","39JEC7537VNB1KD7DSLR5MH26GTVCR","A336V7IY38Q2WN","3WRBLBQ2GRU63BU2LFOJL1G32T90GO","","null","<img src=""img/land2.png"" style=""width:200px;border:14px solid red;"">","null","","","","","","","","","",""
"","image-keyboard-response","311","695359","0.0-311.0","39JEC7537VNB1KD7DSLR5MH26GTVCR","A336V7IY38Q2WN","3WRBLBQ2GRU63BU2LFOJL1G32T90GO","","352","img/land2.png","76","353","3","0","1","2","0.8,0.2,0.2,0.2,0.8,0.2,0.2,0.2,0.8","0.2,0.8,0.2,0.2,0.2,0.8,0.8,0.2,0.2","3","",""
"","html-keyboard-response","312","695665","0.0-312.0","39JEC7537VNB1KD7DSLR5MH26GTVCR","A336V7IY38Q2WN","3WRBLBQ2GRU63BU2LFOJL1G32T90GO","","null","<img src=""img/land2.png"" style=""width:200px;border:14px solid red;"">","null","","","","","","","","","",""
"","image-keyboard-response","313","696070","0.0-313.0","39JEC7537VNB1KD7DSLR5MH26GTVCR","A336V7IY38Q2WN","3WRBLBQ2GRU63BU2LFOJL1G32T90GO","","405","img/land2.png","75","407","2","1","1","2","0.8,0.2,0.2,0.2,0.8,0.2,0.2,0.2,0.8","0.2,0.8,0.2,0.2,0.2,0.8,0.8,0.2,0.2","3","",""
"","html-keyboard-response","314","696374","0.0-314.0","39JEC7537VNB1KD7DSLR5MH26GTVCR","A336V7IY38Q2WN","3WRBLBQ2GRU63BU2LFOJL1G32T90GO","","null","<img src=""img/land2.png"" style=""width:200px; border:14px solid green;"">","null","","","","","","","","","",""
"","image-keyboard-response","315","696791","0.0-315.0","39JEC7537VNB1KD7DSLR5MH26GTVCR","A336V7IY38Q2WN","3WRBLBQ2GRU63BU2LFOJL1G32T90GO","","415","img/land2.png","76","415","3","0","1","2","0.8,0.2,0.2,0.2,0.8,0.2,0.2,0.2,0.8","0.2,0.8,0.2,0.2,0.2,0.8,0.8,0.2,0.2","3","",""
"","html-keyboard-response","316","697095","0.0-316.0","39JEC7537VNB1KD7DSLR5MH26GTVCR","A336V7IY38Q2WN","3WRBLBQ2GRU63BU2LFOJL1G32T90GO","","null","<img src=""img/land2.png"" style=""width:200px;border:14px solid red;"">","null","","","","","","","","","",""
"","image-keyboard-response","317","697319","0.0-317.0","39JEC7537VNB1KD7DSLR5MH26GTVCR","A336V7IY38Q2WN","3WRBLBQ2GRU63BU2LFOJL1G32T90GO","","223","img/land1.png","75","223","2","1","3","2","0.8,0.2,0.2,0.2,0.8,0.2,0.2,0.2,0.8","0.2,0.8,0.2,0.2,0.2,0.8,0.8,0.2,0.2","3","",""
"","html-keyboard-response","318","697624","0.0-318.0","39JEC7537VNB1KD7DSLR5MH26GTVCR","A336V7IY38Q2WN","3WRBLBQ2GRU63BU2LFOJL1G32T90GO","","null","<img src=""img/land1.png"" style=""width:200px; border:14px solid green;"">","null","","","","","","","","","",""
"","image-keyboard-response","319","698039","0.0-319.0","39JEC7537VNB1KD7DSLR5MH26GTVCR","A336V7IY38Q2WN","3WRBLBQ2GRU63BU2LFOJL1G32T90GO","","413","img/land2.png","75","415","2","1","1","2","0.8,0.2,0.2,0.2,0.8,0.2,0.2,0.2,0.8","0.2,0.8,0.2,0.2,0.2,0.8,0.8,0.2,0.2","3","",""
"","html-keyboard-response","320","698345","0.0-320.0","39JEC7537VNB1KD7DSLR5MH26GTVCR","A336V7IY38Q2WN","3WRBLBQ2GRU63BU2LFOJL1G32T90GO","","null","<img src=""img/land2.png"" style=""width:200px; border:14px solid green;"">","null","","","","","","","","","",""
"","image-keyboard-response","321","698710","0.0-321.0","39JEC7537VNB1KD7DSLR5MH26GTVCR","A336V7IY38Q2WN","3WRBLBQ2GRU63BU2LFOJL1G32T90GO","","365","img/land1.png","75","365","2","0","3","2","0.8,0.2,0.2,0.2,0.8,0.2,0.2,0.2,0.8","0.2,0.8,0.2,0.2,0.2,0.8,0.8,0.2,0.2","3","",""
"","html-keyboard-response","322","699015","0.0-322.0","39JEC7537VNB1KD7DSLR5MH26GTVCR","A336V7IY38Q2WN","3WRBLBQ2GRU63BU2LFOJL1G32T90GO","","null","<img src=""img/land1.png"" style=""width:200px;border:14px solid red;"">","null","","","","","","","","","",""
"","image-keyboard-response","323","699271","0.0-323.0","39JEC7537VNB1KD7DSLR5MH26GTVCR","A336V7IY38Q2WN","3WRBLBQ2GRU63BU2LFOJL1G32T90GO","","255","img/land2.png","76","255","3","0","1","2","0.8,0.2,0.2,0.2,0.8,0.2,0.2,0.2,0.8","0.2,0.8,0.2,0.2,0.2,0.8,0.8,0.2,0.2","3","",""
"","html-keyboard-response","324","699575","0.0-324.0","39JEC7537VNB1KD7DSLR5MH26GTVCR","A336V7IY38Q2WN","3WRBLBQ2GRU63BU2LFOJL1G32T90GO","","null","<img src=""img/land2.png"" style=""width:200px;border:14px solid red;"">","null","","","","","","","","","",""
"","image-keyboard-response","325","699999","0.0-325.0","39JEC7537VNB1KD7DSLR5MH26GTVCR","A336V7IY38Q2WN","3WRBLBQ2GRU63BU2LFOJL1G32T90GO","","424","img/land6.png","76","424","3","1","2","2","0.8,0.2,0.2,0.2,0.8,0.2,0.2,0.2,0.8","0.2,0.8,0.2,0.2,0.2,0.8,0.8,0.2,0.2","3","",""
"","html-keyboard-response","326","700305","0.0-326.0","39JEC7537VNB1KD7DSLR5MH26GTVCR","A336V7IY38Q2WN","3WRBLBQ2GRU63BU2LFOJL1G32T90GO","","null","<img src=""img/land6.png"" style=""width:200px; border:14px solid green;"">","null","","","","","","","","","",""
"","image-keyboard-response","327","700687","0.0-327.0","39JEC7537VNB1KD7DSLR5MH26GTVCR","A336V7IY38Q2WN","3WRBLBQ2GRU63BU2LFOJL1G32T90GO","","381","img/land2.png","76","381","3","0","1","2","0.8,0.2,0.2,0.2,0.8,0.2,0.2,0.2,0.8","0.2,0.8,0.2,0.2,0.2,0.8,0.8,0.2,0.2","3","",""
"","html-keyboard-response","328","700995","0.0-328.0","39JEC7537VNB1KD7DSLR5MH26GTVCR","A336V7IY38Q2WN","3WRBLBQ2GRU63BU2LFOJL1G32T90GO","","null","<img src=""img/land2.png"" style=""width:200px;border:14px solid red;"">","null","","","","","","","","","",""
"","image-keyboard-response","329","701334","0.0-329.0","39JEC7537VNB1KD7DSLR5MH26GTVCR","A336V7IY38Q2WN","3WRBLBQ2GRU63BU2LFOJL1G32T90GO","","339","img/land2.png","75","339","2","1","1","2","0.8,0.2,0.2,0.2,0.8,0.2,0.2,0.2,0.8","0.2,0.8,0.2,0.2,0.2,0.8,0.8,0.2,0.2","3","",""
"","html-keyboard-response","330","701644","0.0-330.0","39JEC7537VNB1KD7DSLR5MH26GTVCR","A336V7IY38Q2WN","3WRBLBQ2GRU63BU2LFOJL1G32T90GO","","null","<img src=""img/land2.png"" style=""width:200px; border:14px solid green;"">","null","","","","","","","","","",""
"","image-keyboard-response","331","701839","0.0-331.0","39JEC7537VNB1KD7DSLR5MH26GTVCR","A336V7IY38Q2WN","3WRBLBQ2GRU63BU2LFOJL1G32T90GO","","193","img/land2.png","76","194","3","0","1","2","0.8,0.2,0.2,0.2,0.8,0.2,0.2,0.2,0.8","0.2,0.8,0.2,0.2,0.2,0.8,0.8,0.2,0.2","3","",""
"","html-keyboard-response","332","702145","0.0-332.0","39JEC7537VNB1KD7DSLR5MH26GTVCR","A336V7IY38Q2WN","3WRBLBQ2GRU63BU2LFOJL1G32T90GO","","null","<img src=""img/land2.png"" style=""width:200px;border:14px solid red;"">","null","","","","","","","","","",""
"","image-keyboard-response","333","702566","0.0-333.0","39JEC7537VNB1KD7DSLR5MH26GTVCR","A336V7IY38Q2WN","3WRBLBQ2GRU63BU2LFOJL1G32T90GO","","420","img/land2.png","76","421","3","1","1","2","0.8,0.2,0.2,0.2,0.8,0.2,0.2,0.2,0.8","0.2,0.8,0.2,0.2,0.2,0.8,0.8,0.2,0.2","3","",""
"","html-keyboard-response","334","702875","0.0-334.0","39JEC7537VNB1KD7DSLR5MH26GTVCR","A336V7IY38Q2WN","3WRBLBQ2GRU63BU2LFOJL1G32T90GO","","null","<img src=""img/land2.png"" style=""width:200px; border:14px solid green;"">","null","","","","","","","","","",""
"","image-keyboard-response","335","703182","0.0-335.0","39JEC7537VNB1KD7DSLR5MH26GTVCR","A336V7IY38Q2WN","3WRBLBQ2GRU63BU2LFOJL1G32T90GO","","308","img/land1.png","75","308","2","0","3","2","0.8,0.2,0.2,0.2,0.8,0.2,0.2,0.2,0.8","0.2,0.8,0.2,0.2,0.2,0.8,0.8,0.2,0.2","3","",""
"","html-keyboard-response","336","703484","0.0-336.0","39JEC7537VNB1KD7DSLR5MH26GTVCR","A336V7IY38Q2WN","3WRBLBQ2GRU63BU2LFOJL1G32T90GO","","null","<img src=""img/land1.png"" style=""width:200px;border:14px solid red;"">","null","","","","","","","","","",""
"","image-keyboard-response","337","703782","0.0-337.0","39JEC7537VNB1KD7DSLR5MH26GTVCR","A336V7IY38Q2WN","3WRBLBQ2GRU63BU2LFOJL1G32T90GO","","297","img/land2.png","76","297","3","0","1","2","0.8,0.2,0.2,0.2,0.8,0.2,0.2,0.2,0.8","0.2,0.8,0.2,0.2,0.2,0.8,0.8,0.2,0.2","3","",""
"","html-keyboard-response","338","704085","0.0-338.0","39JEC7537VNB1KD7DSLR5MH26GTVCR","A336V7IY38Q2WN","3WRBLBQ2GRU63BU2LFOJL1G32T90GO","","null","<img src=""img/land2.png"" style=""width:200px;border:14px solid red;"">","null","","","","","","","","","",""
"","image-keyboard-response","339","704398","0.0-339.0","39JEC7537VNB1KD7DSLR5MH26GTVCR","A336V7IY38Q2WN","3WRBLBQ2GRU63BU2LFOJL1G32T90GO","","313","img/land2.png","76","313","3","0","1","2","0.8,0.2,0.2,0.2,0.8,0.2,0.2,0.2,0.8","0.2,0.8,0.2,0.2,0.2,0.8,0.8,0.2,0.2","3","",""
"","html-keyboard-response","340","704704","0.0-340.0","39JEC7537VNB1KD7DSLR5MH26GTVCR","A336V7IY38Q2WN","3WRBLBQ2GRU63BU2LFOJL1G32T90GO","","null","<img src=""img/land2.png"" style=""width:200px;border:14px solid red;"">","null","","","","","","","","","",""
"","image-keyboard-response","341","705158","0.0-341.0","39JEC7537VNB1KD7DSLR5MH26GTVCR","A336V7IY38Q2WN","3WRBLBQ2GRU63BU2LFOJL1G32T90GO","","452","img/land2.png","75","454","2","1","1","2","0.8,0.2,0.2,0.2,0.8,0.2,0.2,0.2,0.8","0.2,0.8,0.2,0.2,0.2,0.8,0.8,0.2,0.2","3","",""
"","html-keyboard-response","342","705465","0.0-342.0","39JEC7537VNB1KD7DSLR5MH26GTVCR","A336V7IY38Q2WN","3WRBLBQ2GRU63BU2LFOJL1G32T90GO","","null","<img src=""img/land2.png"" style=""width:200px; border:14px solid green;"">","null","","","","","","","","","",""
"","image-keyboard-response","343","705694","0.0-343.0","39JEC7537VNB1KD7DSLR5MH26GTVCR","A336V7IY38Q2WN","3WRBLBQ2GRU63BU2LFOJL1G32T90GO","","229","img/land2.png","75","230","2","1","1","2","0.8,0.2,0.2,0.2,0.8,0.2,0.2,0.2,0.8","0.2,0.8,0.2,0.2,0.2,0.8,0.8,0.2,0.2","3","",""
"","html-keyboard-response","344","706005","0.0-344.0","39JEC7537VNB1KD7DSLR5MH26GTVCR","A336V7IY38Q2WN","3WRBLBQ2GRU63BU2LFOJL1G32T90GO","","null","<img src=""img/land2.png"" style=""width:200px; border:14px solid green;"">","null","","","","","","","","","",""
"","image-keyboard-response","345","706286","0.0-345.0","39JEC7537VNB1KD7DSLR5MH26GTVCR","A336V7IY38Q2WN","3WRBLBQ2GRU63BU2LFOJL1G32T90GO","","281","img/land6.png","75","281","2","0","2","2","0.8,0.2,0.2,0.2,0.8,0.2,0.2,0.2,0.8","0.2,0.8,0.2,0.2,0.2,0.8,0.8,0.2,0.2","3","",""
"","html-keyboard-response","346","706595","0.0-346.0","39JEC7537VNB1KD7DSLR5MH26GTVCR","A336V7IY38Q2WN","3WRBLBQ2GRU63BU2LFOJL1G32T90GO","","null","<img src=""img/land6.png"" style=""width:200px;border:14px solid red;"">","null","","","","","","","","","",""
"","image-keyboard-response","347","706903","0.0-347.0","39JEC7537VNB1KD7DSLR5MH26GTVCR","A336V7IY38Q2WN","3WRBLBQ2GRU63BU2LFOJL1G32T90GO","","308","img/land2.png","76","308","3","0","1","2","0.8,0.2,0.2,0.2,0.8,0.2,0.2,0.2,0.8","0.2,0.8,0.2,0.2,0.2,0.8,0.8,0.2,0.2","3","",""
"","html-keyboard-response","348","707204","0.0-348.0","39JEC7537VNB1KD7DSLR5MH26GTVCR","A336V7IY38Q2WN","3WRBLBQ2GRU63BU2LFOJL1G32T90GO","","null","<img src=""img/land2.png"" style=""width:200px;border:14px solid red;"">","null","","","","","","","","","",""
"","image-keyboard-response","349","707534","0.0-349.0","39JEC7537VNB1KD7DSLR5MH26GTVCR","A336V7IY38Q2WN","3WRBLBQ2GRU63BU2LFOJL1G32T90GO","","329","img/land1.png","76","329","3","1","3","2","0.8,0.2,0.2,0.2,0.8,0.2,0.2,0.2,0.8","0.2,0.8,0.2,0.2,0.2,0.8,0.8,0.2,0.2","3","",""
"","html-keyboard-response","350","707844","0.0-350.0","39JEC7537VNB1KD7DSLR5MH26GTVCR","A336V7IY38Q2WN","3WRBLBQ2GRU63BU2LFOJL1G32T90GO","","null","<img src=""img/land1.png"" style=""width:200px; border:14px solid green;"">","null","","","","","","","","","",""
"","image-keyboard-response","351","708151","0.0-351.0","39JEC7537VNB1KD7DSLR5MH26GTVCR","A336V7IY38Q2WN","3WRBLBQ2GRU63BU2LFOJL1G32T90GO","","305","img/land1.png","76","306","3","0","3","2","0.8,0.2,0.2,0.2,0.8,0.2,0.2,0.2,0.8","0.2,0.8,0.2,0.2,0.2,0.8,0.8,0.2,0.2","3","",""
"","html-keyboard-response","352","708455","0.0-352.0","39JEC7537VNB1KD7DSLR5MH26GTVCR","A336V7IY38Q2WN","3WRBLBQ2GRU63BU2LFOJL1G32T90GO","","null","<img src=""img/land1.png"" style=""width:200px;border:14px solid red;"">","null","","","","","","","","","",""
"","image-keyboard-response","353","708871","0.0-353.0","39JEC7537VNB1KD7DSLR5MH26GTVCR","A336V7IY38Q2WN","3WRBLBQ2GRU63BU2LFOJL1G32T90GO","","415","img/land2.png","76","415","3","1","1","2","0.8,0.2,0.2,0.2,0.8,0.2,0.2,0.2,0.8","0.2,0.8,0.2,0.2,0.2,0.8,0.8,0.2,0.2","3","",""
"","html-keyboard-response","354","709174","0.0-354.0","39JEC7537VNB1KD7DSLR5MH26GTVCR","A336V7IY38Q2WN","3WRBLBQ2GRU63BU2LFOJL1G32T90GO","","null","<img src=""img/land2.png"" style=""width:200px; border:14px solid green;"">","null","","","","","","","","","",""
"","image-keyboard-response","355","709631","0.0-355.0","39JEC7537VNB1KD7DSLR5MH26GTVCR","A336V7IY38Q2WN","3WRBLBQ2GRU63BU2LFOJL1G32T90GO","","456","img/land2.png","76","456","3","0","1","2","0.8,0.2,0.2,0.2,0.8,0.2,0.2,0.2,0.8","0.2,0.8,0.2,0.2,0.2,0.8,0.8,0.2,0.2","3","",""
"","html-keyboard-response","356","709935","0.0-356.0","39JEC7537VNB1KD7DSLR5MH26GTVCR","A336V7IY38Q2WN","3WRBLBQ2GRU63BU2LFOJL1G32T90GO","","null","<img src=""img/land2.png"" style=""width:200px;border:14px solid red;"">","null","","","","","","","","","",""
"","image-keyboard-response","357","710262","0.0-357.0","39JEC7537VNB1KD7DSLR5MH26GTVCR","A336V7IY38Q2WN","3WRBLBQ2GRU63BU2LFOJL1G32T90GO","","326","img/land2.png","75","327","2","0","1","2","0.8,0.2,0.2,0.2,0.8,0.2,0.2,0.2,0.8","0.2,0.8,0.2,0.2,0.2,0.8,0.8,0.2,0.2","3","",""
"","html-keyboard-response","358","710564","0.0-358.0","39JEC7537VNB1KD7DSLR5MH26GTVCR","A336V7IY38Q2WN","3WRBLBQ2GRU63BU2LFOJL1G32T90GO","","null","<img src=""img/land2.png"" style=""width:200px;border:14px solid red;"">","null","","","","","","","","","",""
"","image-keyboard-response","359","710798","0.0-359.0","39JEC7537VNB1KD7DSLR5MH26GTVCR","A336V7IY38Q2WN","3WRBLBQ2GRU63BU2LFOJL1G32T90GO","","234","img/land2.png","76","235","3","1","1","2","0.8,0.2,0.2,0.2,0.8,0.2,0.2,0.2,0.8","0.2,0.8,0.2,0.2,0.2,0.8,0.8,0.2,0.2","3","",""
"","html-keyboard-response","360","711104","0.0-360.0","39JEC7537VNB1KD7DSLR5MH26GTVCR","A336V7IY38Q2WN","3WRBLBQ2GRU63BU2LFOJL1G32T90GO","","null","<img src=""img/land2.png"" style=""width:200px; border:14px solid green;"">","null","","","","","","","","","",""
"","image-keyboard-response","361","711567","0.0-361.0","39JEC7537VNB1KD7DSLR5MH26GTVCR","A336V7IY38Q2WN","3WRBLBQ2GRU63BU2LFOJL1G32T90GO","","460","img/land6.png","76","462","3","1","2","2","0.8,0.2,0.2,0.2,0.8,0.2,0.2,0.2,0.8","0.2,0.8,0.2,0.2,0.2,0.8,0.8,0.2,0.2","3","",""
"","html-keyboard-response","362","711874","0.0-362.0","39JEC7537VNB1KD7DSLR5MH26GTVCR","A336V7IY38Q2WN","3WRBLBQ2GRU63BU2LFOJL1G32T90GO","","null","<img src=""img/land6.png"" style=""width:200px; border:14px solid green;"">","null","","","","","","","","","",""
"","image-keyboard-response","363","712430","0.0-363.0","39JEC7537VNB1KD7DSLR5MH26GTVCR","A336V7IY38Q2WN","3WRBLBQ2GRU63BU2LFOJL1G32T90GO","","555","img/land6.png","76","555","3","1","2","2","0.8,0.2,0.2,0.2,0.8,0.2,0.2,0.2,0.8","0.2,0.8,0.2,0.2,0.2,0.8,0.8,0.2,0.2","3","",""
"","html-keyboard-response","364","712735","0.0-364.0","39JEC7537VNB1KD7DSLR5MH26GTVCR","A336V7IY38Q2WN","3WRBLBQ2GRU63BU2LFOJL1G32T90GO","","null","<img src=""img/land6.png"" style=""width:200px; border:14px solid green;"">","null","","","","","","","","","",""
"","image-keyboard-response","365","713087","0.0-365.0","39JEC7537VNB1KD7DSLR5MH26GTVCR","A336V7IY38Q2WN","3WRBLBQ2GRU63BU2LFOJL1G32T90GO","","351","img/land1.png","75","351","2","1","3","2","0.8,0.2,0.2,0.2,0.8,0.2,0.2,0.2,0.8","0.2,0.8,0.2,0.2,0.2,0.8,0.8,0.2,0.2","3","",""
"","html-keyboard-response","366","713394","0.0-366.0","39JEC7537VNB1KD7DSLR5MH26GTVCR","A336V7IY38Q2WN","3WRBLBQ2GRU63BU2LFOJL1G32T90GO","","null","<img src=""img/land1.png"" style=""width:200px; border:14px solid green;"">","null","","","","","","","","","",""
"","image-keyboard-response","367","713630","0.0-367.0","39JEC7537VNB1KD7DSLR5MH26GTVCR","A336V7IY38Q2WN","3WRBLBQ2GRU63BU2LFOJL1G32T90GO","","236","img/land2.png","76","237","3","1","1","2","0.8,0.2,0.2,0.2,0.8,0.2,0.2,0.2,0.8","0.2,0.8,0.2,0.2,0.2,0.8,0.8,0.2,0.2","3","",""
"","html-keyboard-response","368","713935","0.0-368.0","39JEC7537VNB1KD7DSLR5MH26GTVCR","A336V7IY38Q2WN","3WRBLBQ2GRU63BU2LFOJL1G32T90GO","","null","<img src=""img/land2.png"" style=""width:200px; border:14px solid green;"">","null","","","","","","","","","",""
"","image-keyboard-response","369","714303","0.0-369.0","39JEC7537VNB1KD7DSLR5MH26GTVCR","A336V7IY38Q2WN","3WRBLBQ2GRU63BU2LFOJL1G32T90GO","","368","img/land2.png","76","369","3","0","1","2","0.8,0.2,0.2,0.2,0.8,0.2,0.2,0.2,0.8","0.2,0.8,0.2,0.2,0.2,0.8,0.8,0.2,0.2","3","",""
"","html-keyboard-response","370","714604","0.0-370.0","39JEC7537VNB1KD7DSLR5MH26GTVCR","A336V7IY38Q2WN","3WRBLBQ2GRU63BU2LFOJL1G32T90GO","","null","<img src=""img/land2.png"" style=""width:200px;border:14px solid red;"">","null","","","","","","","","","",""
