"success","trial_type","trial_index","time_elapsed","internal_node_id","assignmentID","mturkID","hitID","view_history","rt","stimulus","key_press","reactionTime","a","r","s","cond","reward_cond","reward_cond_actual","reward_matrix_idx","responses","question_order"
"true","fullscreen","0","22066","0.0-0.0","3RYC5T2D74F2225U9D2NOPR6KS6PRF","A33Z6BHAJUGCHY","382GHPVPHSDM8N0F9141EAH7F0K34Z","","","","","","","","","","","","","",""
"","instructions","1","38791","0.0-1.0","3RYC5T2D74F2225U9D2NOPR6KS6PRF","A33Z6BHAJUGCHY","382GHPVPHSDM8N0F9141EAH7F0K34Z","[{""page_index"":0,""viewing_time"":1635.2999999970198},{""page_index"":1,""viewing_time"":1434.5999999940395},{""page_index"":2,""viewing_time"":999.1000000089407},{""page_index"":3,""viewing_time"":2474.5},{""page_index"":4,""viewing_time"":1734.699999988079},{""page_index"":5,""viewing_time"":1496.4000000059605},{""page_index"":6,""viewing_time"":6935.9000000059605}]","16715.09999999404","","","","","","","","","","","",""
"","image-keyboard-response","2","39669","0.0-2.0","3RYC5T2D74F2225U9D2NOPR6KS6PRF","A33Z6BHAJUGCHY","382GHPVPHSDM8N0F9141EAH7F0K34Z","","868.9000000059605","img/land6.png","74","875.2000000029802","1","0","3","1","0.8,0.2,0.2,0.2,0.8,0.2,0.2,0.2,0.8","0.8,0.2,0.2,0.2,0.8,0.2,0.2,0.2,0.8","1","",""
"","html-keyboard-response","3","39979","0.0-3.0","3RYC5T2D74F2225U9D2NOPR6KS6PRF","A33Z6BHAJUGCHY","382GHPVPHSDM8N0F9141EAH7F0K34Z","","null","<img src=""img/land6.png"" style=""width:200px;border:14px solid red;"">","null","","","","","","","","","",""
"","image-keyboard-response","4","40716","0.0-4.0","3RYC5T2D74F2225U9D2NOPR6KS6PRF","A33Z6BHAJUGCHY","382GHPVPHSDM8N0F9141EAH7F0K34Z","","725.5999999940395","img/land6.png","74","733.2999999970198","1","0","3","1","0.8,0.2,0.2,0.2,0.8,0.2,0.2,0.2,0.8","0.8,0.2,0.2,0.2,0.8,0.2,0.2,0.2,0.8","1","",""
"","html-keyboard-response","5","41025","0.0-5.0","3RYC5T2D74F2225U9D2NOPR6KS6PRF","A33Z6BHAJUGCHY","382GHPVPHSDM8N0F9141EAH7F0K34Z","","null","<img src=""img/land6.png"" style=""width:200px;border:14px solid red;"">","null","","","","","","","","","",""
"","image-keyboard-response","6","41262","0.0-6.0","3RYC5T2D74F2225U9D2NOPR6KS6PRF","A33Z6BHAJUGCHY","382GHPVPHSDM8N0F9141EAH7F0K34Z","","227.20000000298023","img/land4.png","75","234.6000000089407","2","0","2","1","0.8,0.2,0.2,0.2,0.8,0.2,0.2,0.2,0.8","0.8,0.2,0.2,0.2,0.8,0.2,0.2,0.2,0.8","1","",""
"","html-keyboard-response","7","41569","0.0-7.0","3RYC5T2D74F2225U9D2NOPR6KS6PRF","A33Z6BHAJUGCHY","382GHPVPHSDM8N0F9141EAH7F0K34Z","","null","<img src=""img/land4.png"" style=""width:200px;border:14px solid red;"">","null","","","","","","","","","",""
"","image-keyboard-response","8","42577","0.0-8.0","3RYC5T2D74F2225U9D2NOPR6KS6PRF","A33Z6BHAJUGCHY","382GHPVPHSDM8N0F9141EAH7F0K34Z","","1003.5","img/land2.png","75","1009","2","0","1","1","0.8,0.2,0.2,0.2,0.8,0.2,0.2,0.2,0.8","0.8,0.2,0.2,0.2,0.8,0.2,0.2,0.2,0.8","1","",""
"","html-keyboard-response","9","42886","0.0-9.0","3RYC5T2D74F2225U9D2NOPR6KS6PRF","A33Z6BHAJUGCHY","382GHPVPHSDM8N0F9141EAH7F0K34Z","","null","<img src=""img/land2.png"" style=""width:200px;border:14px solid red;"">","null","","","","","","","","","",""
"","image-keyboard-response","10","43518","0.0-10.0","3RYC5T2D74F2225U9D2NOPR6KS6PRF","A33Z6BHAJUGCHY","382GHPVPHSDM8N0F9141EAH7F0K34Z","","623.7999999970198","img/land6.png","74","629","1","0","3","1","0.8,0.2,0.2,0.2,0.8,0.2,0.2,0.2,0.8","0.8,0.2,0.2,0.2,0.8,0.2,0.2,0.2,0.8","1","",""
"","html-keyboard-response","11","43823","0.0-11.0","3RYC5T2D74F2225U9D2NOPR6KS6PRF","A33Z6BHAJUGCHY","382GHPVPHSDM8N0F9141EAH7F0K34Z","","null","<img src=""img/land6.png"" style=""width:200px;border:14px solid red;"">","null","","","","","","","","","",""
"","image-keyboard-response","12","44736","0.0-12.0","3RYC5T2D74F2225U9D2NOPR6KS6PRF","A33Z6BHAJUGCHY","382GHPVPHSDM8N0F9141EAH7F0K34Z","","904.7999999970198","img/land2.png","76","911","3","0","1","1","0.8,0.2,0.2,0.2,0.8,0.2,0.2,0.2,0.8","0.8,0.2,0.2,0.2,0.8,0.2,0.2,0.2,0.8","1","",""
"","html-keyboard-response","13","45043","0.0-13.0","3RYC5T2D74F2225U9D2NOPR6KS6PRF","A33Z6BHAJUGCHY","382GHPVPHSDM8N0F9141EAH7F0K34Z","","null","<img src=""img/land2.png"" style=""width:200px;border:14px solid red;"">","null","","","","","","","","","",""
"","image-keyboard-response","14","45933","0.0-14.0","3RYC5T2D74F2225U9D2NOPR6KS6PRF","A33Z6BHAJUGCHY","382GHPVPHSDM8N0F9141EAH7F0K34Z","","881.9000000059605","img/land6.png","75","889.2000000029802","2","1","3","1","0.8,0.2,0.2,0.2,0.8,0.2,0.2,0.2,0.8","0.8,0.2,0.2,0.2,0.8,0.2,0.2,0.2,0.8","1","",""
"","html-keyboard-response","15","46240","0.0-15.0","3RYC5T2D74F2225U9D2NOPR6KS6PRF","A33Z6BHAJUGCHY","382GHPVPHSDM8N0F9141EAH7F0K34Z","","null","<img src=""img/land6.png"" style=""width:200px; border:14px solid green;"">","null","","","","","","","","","",""
"","image-keyboard-response","16","46957","0.0-16.0","3RYC5T2D74F2225U9D2NOPR6KS6PRF","A33Z6BHAJUGCHY","382GHPVPHSDM8N0F9141EAH7F0K34Z","","709.1000000089407","img/land4.png","75","715.7999999970198","2","0","2","1","0.8,0.2,0.2,0.2,0.8,0.2,0.2,0.2,0.8","0.8,0.2,0.2,0.2,0.8,0.2,0.2,0.2,0.8","1","",""
"","html-keyboard-response","17","47264","0.0-17.0","3RYC5T2D74F2225U9D2NOPR6KS6PRF","A33Z6BHAJUGCHY","382GHPVPHSDM8N0F9141EAH7F0K34Z","","null","<img src=""img/land4.png"" style=""width:200px;border:14px solid red;"">","null","","","","","","","","","",""
"","image-keyboard-response","18","47888","0.0-18.0","3RYC5T2D74F2225U9D2NOPR6KS6PRF","A33Z6BHAJUGCHY","382GHPVPHSDM8N0F9141EAH7F0K34Z","","617.2000000029802","img/land6.png","75","622.5","2","1","3","1","0.8,0.2,0.2,0.2,0.8,0.2,0.2,0.2,0.8","0.8,0.2,0.2,0.2,0.8,0.2,0.2,0.2,0.8","1","",""
"","html-keyboard-response","19","48196","0.0-19.0","3RYC5T2D74F2225U9D2NOPR6KS6PRF","A33Z6BHAJUGCHY","382GHPVPHSDM8N0F9141EAH7F0K34Z","","null","<img src=""img/land6.png"" style=""width:200px; border:14px solid green;"">","null","","","","","","","","","",""
"","image-keyboard-response","20","48706","0.0-20.0","3RYC5T2D74F2225U9D2NOPR6KS6PRF","A33Z6BHAJUGCHY","382GHPVPHSDM8N0F9141EAH7F0K34Z","","502.29999999701977","img/land4.png","76","508.79999999701977","3","0","2","1","0.8,0.2,0.2,0.2,0.8,0.2,0.2,0.2,0.8","0.8,0.2,0.2,0.2,0.8,0.2,0.2,0.2,0.8","1","",""
"","html-keyboard-response","21","49012","0.0-21.0","3RYC5T2D74F2225U9D2NOPR6KS6PRF","A33Z6BHAJUGCHY","382GHPVPHSDM8N0F9141EAH7F0K34Z","","null","<img src=""img/land4.png"" style=""width:200px;border:14px solid red;"">","null","","","","","","","","","",""
"","image-keyboard-response","22","49681","0.0-22.0","3RYC5T2D74F2225U9D2NOPR6KS6PRF","A33Z6BHAJUGCHY","382GHPVPHSDM8N0F9141EAH7F0K34Z","","662.2000000029802","img/land6.png","75","667.3999999910593","2","0","3","1","0.8,0.2,0.2,0.2,0.8,0.2,0.2,0.2,0.8","0.8,0.2,0.2,0.2,0.8,0.2,0.2,0.2,0.8","1","",""
"","html-keyboard-response","23","49989","0.0-23.0","3RYC5T2D74F2225U9D2NOPR6KS6PRF","A33Z6BHAJUGCHY","382GHPVPHSDM8N0F9141EAH7F0K34Z","","null","<img src=""img/land6.png"" style=""width:200px;border:14px solid red;"">","null","","","","","","","","","",""
"","image-keyboard-response","24","50504","0.0-24.0","3RYC5T2D74F2225U9D2NOPR6KS6PRF","A33Z6BHAJUGCHY","382GHPVPHSDM8N0F9141EAH7F0K34Z","","508.09999999403954","img/land4.png","74","514.1000000089407","1","0","2","1","0.8,0.2,0.2,0.2,0.8,0.2,0.2,0.2,0.8","0.8,0.2,0.2,0.2,0.8,0.2,0.2,0.2,0.8","1","",""
"","html-keyboard-response","25","50812","0.0-25.0","3RYC5T2D74F2225U9D2NOPR6KS6PRF","A33Z6BHAJUGCHY","382GHPVPHSDM8N0F9141EAH7F0K34Z","","null","<img src=""img/land4.png"" style=""width:200px;border:14px solid red;"">","null","","","","","","","","","",""
"","image-keyboard-response","26","51394","0.0-26.0","3RYC5T2D74F2225U9D2NOPR6KS6PRF","A33Z6BHAJUGCHY","382GHPVPHSDM8N0F9141EAH7F0K34Z","","574.3999999910593","img/land6.png","75","580.5","2","1","3","1","0.8,0.2,0.2,0.2,0.8,0.2,0.2,0.2,0.8","0.8,0.2,0.2,0.2,0.8,0.2,0.2,0.2,0.8","1","",""
"","html-keyboard-response","27","51700","0.0-27.0","3RYC5T2D74F2225U9D2NOPR6KS6PRF","A33Z6BHAJUGCHY","382GHPVPHSDM8N0F9141EAH7F0K34Z","","null","<img src=""img/land6.png"" style=""width:200px; border:14px solid green;"">","null","","","","","","","","","",""
"","image-keyboard-response","28","52112","0.0-28.0","3RYC5T2D74F2225U9D2NOPR6KS6PRF","A33Z6BHAJUGCHY","382GHPVPHSDM8N0F9141EAH7F0K34Z","","405.5","img/land4.png","74","411.5","1","0","2","1","0.8,0.2,0.2,0.2,0.8,0.2,0.2,0.2,0.8","0.8,0.2,0.2,0.2,0.8,0.2,0.2,0.2,0.8","1","",""
"","html-keyboard-response","29","52420","0.0-29.0","3RYC5T2D74F2225U9D2NOPR6KS6PRF","A33Z6BHAJUGCHY","382GHPVPHSDM8N0F9141EAH7F0K34Z","","null","<img src=""img/land4.png"" style=""width:200px;border:14px solid red;"">","null","","","","","","","","","",""
"","image-keyboard-response","30","53385","0.0-30.0","3RYC5T2D74F2225U9D2NOPR6KS6PRF","A33Z6BHAJUGCHY","382GHPVPHSDM8N0F9141EAH7F0K34Z","","957.5","img/land2.png","74","963.1000000089407","1","0","1","1","0.8,0.2,0.2,0.2,0.8,0.2,0.2,0.2,0.8","0.8,0.2,0.2,0.2,0.8,0.2,0.2,0.2,0.8","1","",""
"","html-keyboard-response","31","53690","0.0-31.0","3RYC5T2D74F2225U9D2NOPR6KS6PRF","A33Z6BHAJUGCHY","382GHPVPHSDM8N0F9141EAH7F0K34Z","","null","<img src=""img/land2.png"" style=""width:200px;border:14px solid red;"">","null","","","","","","","","","",""
"","image-keyboard-response","32","54262","0.0-32.0","3RYC5T2D74F2225U9D2NOPR6KS6PRF","A33Z6BHAJUGCHY","382GHPVPHSDM8N0F9141EAH7F0K34Z","","568.2999999970198","img/land2.png","74","571.8999999910593","1","1","1","1","0.8,0.2,0.2,0.2,0.8,0.2,0.2,0.2,0.8","0.8,0.2,0.2,0.2,0.8,0.2,0.2,0.2,0.8","1","",""
"","html-keyboard-response","33","54569","0.0-33.0","3RYC5T2D74F2225U9D2NOPR6KS6PRF","A33Z6BHAJUGCHY","382GHPVPHSDM8N0F9141EAH7F0K34Z","","null","<img src=""img/land2.png"" style=""width:200px; border:14px solid green;"">","null","","","","","","","","","",""
"","image-keyboard-response","34","55573","0.0-34.0","3RYC5T2D74F2225U9D2NOPR6KS6PRF","A33Z6BHAJUGCHY","382GHPVPHSDM8N0F9141EAH7F0K34Z","","997.8999999910593","img/land6.png","75","1002.7999999970198","2","0","3","1","0.8,0.2,0.2,0.2,0.8,0.2,0.2,0.2,0.8","0.8,0.2,0.2,0.2,0.8,0.2,0.2,0.2,0.8","1","",""
"","html-keyboard-response","35","55878","0.0-35.0","3RYC5T2D74F2225U9D2NOPR6KS6PRF","A33Z6BHAJUGCHY","382GHPVPHSDM8N0F9141EAH7F0K34Z","","null","<img src=""img/land6.png"" style=""width:200px;border:14px solid red;"">","null","","","","","","","","","",""
"","image-keyboard-response","36","56579","0.0-36.0","3RYC5T2D74F2225U9D2NOPR6KS6PRF","A33Z6BHAJUGCHY","382GHPVPHSDM8N0F9141EAH7F0K34Z","","693.7999999970198","img/land4.png","76","699.2999999970198","3","0","2","1","0.8,0.2,0.2,0.2,0.8,0.2,0.2,0.2,0.8","0.8,0.2,0.2,0.2,0.8,0.2,0.2,0.2,0.8","1","",""
"","html-keyboard-response","37","56886","0.0-37.0","3RYC5T2D74F2225U9D2NOPR6KS6PRF","A33Z6BHAJUGCHY","382GHPVPHSDM8N0F9141EAH7F0K34Z","","null","<img src=""img/land4.png"" style=""width:200px;border:14px solid red;"">","null","","","","","","","","","",""
"","image-keyboard-response","38","57287","0.0-38.0","3RYC5T2D74F2225U9D2NOPR6KS6PRF","A33Z6BHAJUGCHY","382GHPVPHSDM8N0F9141EAH7F0K34Z","","394.70000000298023","img/land4.png","76","400.1000000089407","3","0","2","1","0.8,0.2,0.2,0.2,0.8,0.2,0.2,0.2,0.8","0.8,0.2,0.2,0.2,0.8,0.2,0.2,0.2,0.8","1","",""
"","html-keyboard-response","39","57594","0.0-39.0","3RYC5T2D74F2225U9D2NOPR6KS6PRF","A33Z6BHAJUGCHY","382GHPVPHSDM8N0F9141EAH7F0K34Z","","null","<img src=""img/land4.png"" style=""width:200px;border:14px solid red;"">","null","","","","","","","","","",""
"","image-keyboard-response","40","58187","0.0-40.0","3RYC5T2D74F2225U9D2NOPR6KS6PRF","A33Z6BHAJUGCHY","382GHPVPHSDM8N0F9141EAH7F0K34Z","","589.8000000119209","img/land2.png","75","593.1000000089407","2","0","1","1","0.8,0.2,0.2,0.2,0.8,0.2,0.2,0.2,0.8","0.8,0.2,0.2,0.2,0.8,0.2,0.2,0.2,0.8","1","",""
"","html-keyboard-response","41","58493","0.0-41.0","3RYC5T2D74F2225U9D2NOPR6KS6PRF","A33Z6BHAJUGCHY","382GHPVPHSDM8N0F9141EAH7F0K34Z","","null","<img src=""img/land2.png"" style=""width:200px;border:14px solid red;"">","null","","","","","","","","","",""
"","image-keyboard-response","42","59087","0.0-42.0","3RYC5T2D74F2225U9D2NOPR6KS6PRF","A33Z6BHAJUGCHY","382GHPVPHSDM8N0F9141EAH7F0K34Z","","585.5999999940395","img/land6.png","75","592","2","0","3","1","0.8,0.2,0.2,0.2,0.8,0.2,0.2,0.2,0.8","0.8,0.2,0.2,0.2,0.8,0.2,0.2,0.2,0.8","1","",""
"","html-keyboard-response","43","59396","0.0-43.0","3RYC5T2D74F2225U9D2NOPR6KS6PRF","A33Z6BHAJUGCHY","382GHPVPHSDM8N0F9141EAH7F0K34Z","","null","<img src=""img/land6.png"" style=""width:200px;border:14px solid red;"">","null","","","","","","","","","",""
"","image-keyboard-response","44","60287","0.0-44.0","3RYC5T2D74F2225U9D2NOPR6KS6PRF","A33Z6BHAJUGCHY","382GHPVPHSDM8N0F9141EAH7F0K34Z","","885.2999999970198","img/land2.png","74","889.7999999970198","1","1","1","1","0.8,0.2,0.2,0.2,0.8,0.2,0.2,0.2,0.8","0.8,0.2,0.2,0.2,0.8,0.2,0.2,0.2,0.8","1","",""
"","html-keyboard-response","45","60595","0.0-45.0","3RYC5T2D74F2225U9D2NOPR6KS6PRF","A33Z6BHAJUGCHY","382GHPVPHSDM8N0F9141EAH7F0K34Z","","null","<img src=""img/land2.png"" style=""width:200px; border:14px solid green;"">","null","","","","","","","","","",""
"","image-keyboard-response","46","61079","0.0-46.0","3RYC5T2D74F2225U9D2NOPR6KS6PRF","A33Z6BHAJUGCHY","382GHPVPHSDM8N0F9141EAH7F0K34Z","","476.90000000596046","img/land2.png","74","483.20000000298023","1","1","1","1","0.8,0.2,0.2,0.2,0.8,0.2,0.2,0.2,0.8","0.8,0.2,0.2,0.2,0.8,0.2,0.2,0.2,0.8","1","",""
"","html-keyboard-response","47","61384","0.0-47.0","3RYC5T2D74F2225U9D2NOPR6KS6PRF","A33Z6BHAJUGCHY","382GHPVPHSDM8N0F9141EAH7F0K34Z","","null","<img src=""img/land2.png"" style=""width:200px; border:14px solid green;"">","null","","","","","","","","","",""
"","image-keyboard-response","48","62331","0.0-48.0","3RYC5T2D74F2225U9D2NOPR6KS6PRF","A33Z6BHAJUGCHY","382GHPVPHSDM8N0F9141EAH7F0K34Z","","942.2999999970198","img/land6.png","75","946.9000000059605","2","0","3","1","0.8,0.2,0.2,0.2,0.8,0.2,0.2,0.2,0.8","0.8,0.2,0.2,0.2,0.8,0.2,0.2,0.2,0.8","1","",""
"","html-keyboard-response","49","62638","0.0-49.0","3RYC5T2D74F2225U9D2NOPR6KS6PRF","A33Z6BHAJUGCHY","382GHPVPHSDM8N0F9141EAH7F0K34Z","","null","<img src=""img/land6.png"" style=""width:200px;border:14px solid red;"">","null","","","","","","","","","",""
"","image-keyboard-response","50","63023","0.0-50.0","3RYC5T2D74F2225U9D2NOPR6KS6PRF","A33Z6BHAJUGCHY","382GHPVPHSDM8N0F9141EAH7F0K34Z","","376.09999999403954","img/land6.png","75","383.40000000596046","2","0","3","1","0.8,0.2,0.2,0.2,0.8,0.2,0.2,0.2,0.8","0.8,0.2,0.2,0.2,0.8,0.2,0.2,0.2,0.8","1","",""
"","html-keyboard-response","51","63330","0.0-51.0","3RYC5T2D74F2225U9D2NOPR6KS6PRF","A33Z6BHAJUGCHY","382GHPVPHSDM8N0F9141EAH7F0K34Z","","null","<img src=""img/land6.png"" style=""width:200px;border:14px solid red;"">","null","","","","","","","","","",""
"","image-keyboard-response","52","64365","0.0-52.0","3RYC5T2D74F2225U9D2NOPR6KS6PRF","A33Z6BHAJUGCHY","382GHPVPHSDM8N0F9141EAH7F0K34Z","","1031.7999999970198","img/land4.png","76","1035.5999999940395","3","0","2","1","0.8,0.2,0.2,0.2,0.8,0.2,0.2,0.2,0.8","0.8,0.2,0.2,0.2,0.8,0.2,0.2,0.2,0.8","1","",""
"","html-keyboard-response","53","64674","0.0-53.0","3RYC5T2D74F2225U9D2NOPR6KS6PRF","A33Z6BHAJUGCHY","382GHPVPHSDM8N0F9141EAH7F0K34Z","","null","<img src=""img/land4.png"" style=""width:200px;border:14px solid red;"">","null","","","","","","","","","",""
"","image-keyboard-response","54","64829","0.0-54.0","3RYC5T2D74F2225U9D2NOPR6KS6PRF","A33Z6BHAJUGCHY","382GHPVPHSDM8N0F9141EAH7F0K34Z","","146.80000001192093","img/land2.png","75","154.29999999701977","2","0","1","1","0.8,0.2,0.2,0.2,0.8,0.2,0.2,0.2,0.8","0.8,0.2,0.2,0.2,0.8,0.2,0.2,0.2,0.8","1","",""
"","html-keyboard-response","55","65139","0.0-55.0","3RYC5T2D74F2225U9D2NOPR6KS6PRF","A33Z6BHAJUGCHY","382GHPVPHSDM8N0F9141EAH7F0K34Z","","null","<img src=""img/land2.png"" style=""width:200px;border:14px solid red;"">","null","","","","","","","","","",""
"","image-keyboard-response","56","65407","0.0-56.0","3RYC5T2D74F2225U9D2NOPR6KS6PRF","A33Z6BHAJUGCHY","382GHPVPHSDM8N0F9141EAH7F0K34Z","","259","img/land6.png","74","262.59999999403954","1","0","3","1","0.8,0.2,0.2,0.2,0.8,0.2,0.2,0.2,0.8","0.8,0.2,0.2,0.2,0.8,0.2,0.2,0.2,0.8","1","",""
"","html-keyboard-response","57","65713","0.0-57.0","3RYC5T2D74F2225U9D2NOPR6KS6PRF","A33Z6BHAJUGCHY","382GHPVPHSDM8N0F9141EAH7F0K34Z","","null","<img src=""img/land6.png"" style=""width:200px;border:14px solid red;"">","null","","","","","","","","","",""
"","image-keyboard-response","58","66228","0.0-58.0","3RYC5T2D74F2225U9D2NOPR6KS6PRF","A33Z6BHAJUGCHY","382GHPVPHSDM8N0F9141EAH7F0K34Z","","508.70000000298023","img/land4.png","75","515.7999999970198","2","1","2","1","0.8,0.2,0.2,0.2,0.8,0.2,0.2,0.2,0.8","0.8,0.2,0.2,0.2,0.8,0.2,0.2,0.2,0.8","1","",""
"","html-keyboard-response","59","66537","0.0-59.0","3RYC5T2D74F2225U9D2NOPR6KS6PRF","A33Z6BHAJUGCHY","382GHPVPHSDM8N0F9141EAH7F0K34Z","","null","<img src=""img/land4.png"" style=""width:200px; border:14px solid green;"">","null","","","","","","","","","",""
"","image-keyboard-response","60","67295","0.0-60.0","3RYC5T2D74F2225U9D2NOPR6KS6PRF","A33Z6BHAJUGCHY","382GHPVPHSDM8N0F9141EAH7F0K34Z","","750.4000000059605","img/land2.png","74","756.4000000059605","1","0","1","1","0.8,0.2,0.2,0.2,0.8,0.2,0.2,0.2,0.8","0.8,0.2,0.2,0.2,0.8,0.2,0.2,0.2,0.8","1","",""
"","html-keyboard-response","61","67600","0.0-61.0","3RYC5T2D74F2225U9D2NOPR6KS6PRF","A33Z6BHAJUGCHY","382GHPVPHSDM8N0F9141EAH7F0K34Z","","null","<img src=""img/land2.png"" style=""width:200px;border:14px solid red;"">","null","","","","","","","","","",""
"","image-keyboard-response","62","68131","0.0-62.0","3RYC5T2D74F2225U9D2NOPR6KS6PRF","A33Z6BHAJUGCHY","382GHPVPHSDM8N0F9141EAH7F0K34Z","","525.2999999970198","img/land6.png","75","530","2","0","3","1","0.8,0.2,0.2,0.2,0.8,0.2,0.2,0.2,0.8","0.8,0.2,0.2,0.2,0.8,0.2,0.2,0.2,0.8","1","",""
"","html-keyboard-response","63","68438","0.0-63.0","3RYC5T2D74F2225U9D2NOPR6KS6PRF","A33Z6BHAJUGCHY","382GHPVPHSDM8N0F9141EAH7F0K34Z","","null","<img src=""img/land6.png"" style=""width:200px;border:14px solid red;"">","null","","","","","","","","","",""
"","image-keyboard-response","64","68985","0.0-64.0","3RYC5T2D74F2225U9D2NOPR6KS6PRF","A33Z6BHAJUGCHY","382GHPVPHSDM8N0F9141EAH7F0K34Z","","538.7000000029802","img/land4.png","76","545","3","0","2","1","0.8,0.2,0.2,0.2,0.8,0.2,0.2,0.2,0.8","0.8,0.2,0.2,0.2,0.8,0.2,0.2,0.2,0.8","1","",""
"","html-keyboard-response","65","69292","0.0-65.0","3RYC5T2D74F2225U9D2NOPR6KS6PRF","A33Z6BHAJUGCHY","382GHPVPHSDM8N0F9141EAH7F0K34Z","","null","<img src=""img/land4.png"" style=""width:200px;border:14px solid red;"">","null","","","","","","","","","",""
"","image-keyboard-response","66","70367","0.0-66.0","3RYC5T2D74F2225U9D2NOPR6KS6PRF","A33Z6BHAJUGCHY","382GHPVPHSDM8N0F9141EAH7F0K34Z","","1068.699999988079","img/land6.png","75","1074.199999988079","2","0","3","1","0.8,0.2,0.2,0.2,0.8,0.2,0.2,0.2,0.8","0.8,0.2,0.2,0.2,0.8,0.2,0.2,0.2,0.8","1","",""
"","html-keyboard-response","67","70673","0.0-67.0","3RYC5T2D74F2225U9D2NOPR6KS6PRF","A33Z6BHAJUGCHY","382GHPVPHSDM8N0F9141EAH7F0K34Z","","null","<img src=""img/land6.png"" style=""width:200px;border:14px solid red;"">","null","","","","","","","","","",""
"","image-keyboard-response","68","71593","0.0-68.0","3RYC5T2D74F2225U9D2NOPR6KS6PRF","A33Z6BHAJUGCHY","382GHPVPHSDM8N0F9141EAH7F0K34Z","","912.5999999940395","img/land2.png","74","918.0999999940395","1","0","1","1","0.8,0.2,0.2,0.2,0.8,0.2,0.2,0.2,0.8","0.8,0.2,0.2,0.2,0.8,0.2,0.2,0.2,0.8","1","",""
"","html-keyboard-response","69","71898","0.0-69.0","3RYC5T2D74F2225U9D2NOPR6KS6PRF","A33Z6BHAJUGCHY","382GHPVPHSDM8N0F9141EAH7F0K34Z","","null","<img src=""img/land2.png"" style=""width:200px;border:14px solid red;"">","null","","","","","","","","","",""
"","image-keyboard-response","70","72599","0.0-70.0","3RYC5T2D74F2225U9D2NOPR6KS6PRF","A33Z6BHAJUGCHY","382GHPVPHSDM8N0F9141EAH7F0K34Z","","693.7999999970198","img/land6.png","74","700.1000000089407","1","0","3","1","0.8,0.2,0.2,0.2,0.8,0.2,0.2,0.2,0.8","0.8,0.2,0.2,0.2,0.8,0.2,0.2,0.2,0.8","1","",""
"","html-keyboard-response","71","72907","0.0-71.0","3RYC5T2D74F2225U9D2NOPR6KS6PRF","A33Z6BHAJUGCHY","382GHPVPHSDM8N0F9141EAH7F0K34Z","","null","<img src=""img/land6.png"" style=""width:200px;border:14px solid red;"">","null","","","","","","","","","",""
"","image-keyboard-response","72","73513","0.0-72.0","3RYC5T2D74F2225U9D2NOPR6KS6PRF","A33Z6BHAJUGCHY","382GHPVPHSDM8N0F9141EAH7F0K34Z","","598.7999999970198","img/land6.png","74","604.5","1","0","3","1","0.8,0.2,0.2,0.2,0.8,0.2,0.2,0.2,0.8","0.8,0.2,0.2,0.2,0.8,0.2,0.2,0.2,0.8","1","",""
"","html-keyboard-response","73","73820","0.0-73.0","3RYC5T2D74F2225U9D2NOPR6KS6PRF","A33Z6BHAJUGCHY","382GHPVPHSDM8N0F9141EAH7F0K34Z","","null","<img src=""img/land6.png"" style=""width:200px;border:14px solid red;"">","null","","","","","","","","","",""
"","image-keyboard-response","74","74277","0.0-74.0","3RYC5T2D74F2225U9D2NOPR6KS6PRF","A33Z6BHAJUGCHY","382GHPVPHSDM8N0F9141EAH7F0K34Z","","449.8999999910593","img/land6.png","74","455.69999998807907","1","0","3","1","0.8,0.2,0.2,0.2,0.8,0.2,0.2,0.2,0.8","0.8,0.2,0.2,0.2,0.8,0.2,0.2,0.2,0.8","1","",""
"","html-keyboard-response","75","74584","0.0-75.0","3RYC5T2D74F2225U9D2NOPR6KS6PRF","A33Z6BHAJUGCHY","382GHPVPHSDM8N0F9141EAH7F0K34Z","","null","<img src=""img/land6.png"" style=""width:200px;border:14px solid red;"">","null","","","","","","","","","",""
"","image-keyboard-response","76","75056","0.0-76.0","3RYC5T2D74F2225U9D2NOPR6KS6PRF","A33Z6BHAJUGCHY","382GHPVPHSDM8N0F9141EAH7F0K34Z","","464.3999999910593","img/land4.png","74","469.30000001192093","1","1","2","1","0.8,0.2,0.2,0.2,0.8,0.2,0.2,0.2,0.8","0.8,0.2,0.2,0.2,0.8,0.2,0.2,0.2,0.8","1","",""
"","html-keyboard-response","77","75360","0.0-77.0","3RYC5T2D74F2225U9D2NOPR6KS6PRF","A33Z6BHAJUGCHY","382GHPVPHSDM8N0F9141EAH7F0K34Z","","null","<img src=""img/land4.png"" style=""width:200px; border:14px solid green;"">","null","","","","","","","","","",""
"","image-keyboard-response","78","76024","0.0-78.0","3RYC5T2D74F2225U9D2NOPR6KS6PRF","A33Z6BHAJUGCHY","382GHPVPHSDM8N0F9141EAH7F0K34Z","","659.5","img/land2.png","74","664.5999999940395","1","1","1","1","0.8,0.2,0.2,0.2,0.8,0.2,0.2,0.2,0.8","0.8,0.2,0.2,0.2,0.8,0.2,0.2,0.2,0.8","1","",""
"","html-keyboard-response","79","76330","0.0-79.0","3RYC5T2D74F2225U9D2NOPR6KS6PRF","A33Z6BHAJUGCHY","382GHPVPHSDM8N0F9141EAH7F0K34Z","","null","<img src=""img/land2.png"" style=""width:200px; border:14px solid green;"">","null","","","","","","","","","",""
"","image-keyboard-response","80","76880","0.0-80.0","3RYC5T2D74F2225U9D2NOPR6KS6PRF","A33Z6BHAJUGCHY","382GHPVPHSDM8N0F9141EAH7F0K34Z","","546.1000000089407","img/land4.png","74","549.7999999970198","1","1","2","1","0.8,0.2,0.2,0.2,0.8,0.2,0.2,0.2,0.8","0.8,0.2,0.2,0.2,0.8,0.2,0.2,0.2,0.8","1","",""
"","html-keyboard-response","81","77188","0.0-81.0","3RYC5T2D74F2225U9D2NOPR6KS6PRF","A33Z6BHAJUGCHY","382GHPVPHSDM8N0F9141EAH7F0K34Z","","null","<img src=""img/land4.png"" style=""width:200px; border:14px solid green;"">","null","","","","","","","","","",""
"","image-keyboard-response","82","77776","0.0-82.0","3RYC5T2D74F2225U9D2NOPR6KS6PRF","A33Z6BHAJUGCHY","382GHPVPHSDM8N0F9141EAH7F0K34Z","","580","img/land6.png","74","585.8999999910593","1","0","3","1","0.8,0.2,0.2,0.2,0.8,0.2,0.2,0.2,0.8","0.8,0.2,0.2,0.2,0.8,0.2,0.2,0.2,0.8","1","",""
"","html-keyboard-response","83","78084","0.0-83.0","3RYC5T2D74F2225U9D2NOPR6KS6PRF","A33Z6BHAJUGCHY","382GHPVPHSDM8N0F9141EAH7F0K34Z","","null","<img src=""img/land6.png"" style=""width:200px;border:14px solid red;"">","null","","","","","","","","","",""
"","image-keyboard-response","84","78565","0.0-84.0","3RYC5T2D74F2225U9D2NOPR6KS6PRF","A33Z6BHAJUGCHY","382GHPVPHSDM8N0F9141EAH7F0K34Z","","474.90000000596046","img/land6.png","76","480.19999998807907","3","1","3","1","0.8,0.2,0.2,0.2,0.8,0.2,0.2,0.2,0.8","0.8,0.2,0.2,0.2,0.8,0.2,0.2,0.2,0.8","1","",""
"","html-keyboard-response","85","78871","0.0-85.0","3RYC5T2D74F2225U9D2NOPR6KS6PRF","A33Z6BHAJUGCHY","382GHPVPHSDM8N0F9141EAH7F0K34Z","","null","<img src=""img/land6.png"" style=""width:200px; border:14px solid green;"">","null","","","","","","","","","",""
"","image-keyboard-response","86","79681","0.0-86.0","3RYC5T2D74F2225U9D2NOPR6KS6PRF","A33Z6BHAJUGCHY","382GHPVPHSDM8N0F9141EAH7F0K34Z","","807.0999999940395","img/land2.png","74","809.8999999910593","1","0","1","1","0.8,0.2,0.2,0.2,0.8,0.2,0.2,0.2,0.8","0.8,0.2,0.2,0.2,0.8,0.2,0.2,0.2,0.8","1","",""
"","html-keyboard-response","87","79986","0.0-87.0","3RYC5T2D74F2225U9D2NOPR6KS6PRF","A33Z6BHAJUGCHY","382GHPVPHSDM8N0F9141EAH7F0K34Z","","null","<img src=""img/land2.png"" style=""width:200px;border:14px solid red;"">","null","","","","","","","","","",""
"","image-keyboard-response","88","80551","0.0-88.0","3RYC5T2D74F2225U9D2NOPR6KS6PRF","A33Z6BHAJUGCHY","382GHPVPHSDM8N0F9141EAH7F0K34Z","","561.4000000059605","img/land4.png","76","564.7999999970198","3","0","2","1","0.8,0.2,0.2,0.2,0.8,0.2,0.2,0.2,0.8","0.8,0.2,0.2,0.2,0.8,0.2,0.2,0.2,0.8","1","",""
"","html-keyboard-response","89","80855","0.0-89.0","3RYC5T2D74F2225U9D2NOPR6KS6PRF","A33Z6BHAJUGCHY","382GHPVPHSDM8N0F9141EAH7F0K34Z","","null","<img src=""img/land4.png"" style=""width:200px;border:14px solid red;"">","null","","","","","","","","","",""
"","image-keyboard-response","90","81930","0.0-90.0","3RYC5T2D74F2225U9D2NOPR6KS6PRF","A33Z6BHAJUGCHY","382GHPVPHSDM8N0F9141EAH7F0K34Z","","1071.3999999910593","img/land6.png","75","1074.800000011921","2","0","3","1","0.8,0.2,0.2,0.2,0.8,0.2,0.2,0.2,0.8","0.8,0.2,0.2,0.2,0.8,0.2,0.2,0.2,0.8","1","",""
"","html-keyboard-response","91","82238","0.0-91.0","3RYC5T2D74F2225U9D2NOPR6KS6PRF","A33Z6BHAJUGCHY","382GHPVPHSDM8N0F9141EAH7F0K34Z","","null","<img src=""img/land6.png"" style=""width:200px;border:14px solid red;"">","null","","","","","","","","","",""
"","image-keyboard-response","92","82857","0.0-92.0","3RYC5T2D74F2225U9D2NOPR6KS6PRF","A33Z6BHAJUGCHY","382GHPVPHSDM8N0F9141EAH7F0K34Z","","612.5","img/land2.png","75","618.1000000089407","2","0","1","1","0.8,0.2,0.2,0.2,0.8,0.2,0.2,0.2,0.8","0.8,0.2,0.2,0.2,0.8,0.2,0.2,0.2,0.8","1","",""
"","html-keyboard-response","93","83163","0.0-93.0","3RYC5T2D74F2225U9D2NOPR6KS6PRF","A33Z6BHAJUGCHY","382GHPVPHSDM8N0F9141EAH7F0K34Z","","null","<img src=""img/land2.png"" style=""width:200px;border:14px solid red;"">","null","","","","","","","","","",""
"","image-keyboard-response","94","84312","0.0-94.0","3RYC5T2D74F2225U9D2NOPR6KS6PRF","A33Z6BHAJUGCHY","382GHPVPHSDM8N0F9141EAH7F0K34Z","","1144.5","img/land4.png","75","1148.3999999910593","2","1","2","1","0.8,0.2,0.2,0.2,0.8,0.2,0.2,0.2,0.8","0.8,0.2,0.2,0.2,0.8,0.2,0.2,0.2,0.8","1","",""
"","html-keyboard-response","95","84618","0.0-95.0","3RYC5T2D74F2225U9D2NOPR6KS6PRF","A33Z6BHAJUGCHY","382GHPVPHSDM8N0F9141EAH7F0K34Z","","null","<img src=""img/land4.png"" style=""width:200px; border:14px solid green;"">","null","","","","","","","","","",""
"","image-keyboard-response","96","85098","0.0-96.0","3RYC5T2D74F2225U9D2NOPR6KS6PRF","A33Z6BHAJUGCHY","382GHPVPHSDM8N0F9141EAH7F0K34Z","","472.8999999910593","img/land4.png","75","478.79999999701977","2","0","2","1","0.8,0.2,0.2,0.2,0.8,0.2,0.2,0.2,0.8","0.8,0.2,0.2,0.2,0.8,0.2,0.2,0.2,0.8","1","",""
"","html-keyboard-response","97","85405","0.0-97.0","3RYC5T2D74F2225U9D2NOPR6KS6PRF","A33Z6BHAJUGCHY","382GHPVPHSDM8N0F9141EAH7F0K34Z","","null","<img src=""img/land4.png"" style=""width:200px;border:14px solid red;"">","null","","","","","","","","","",""
"","image-keyboard-response","98","85886","0.0-98.0","3RYC5T2D74F2225U9D2NOPR6KS6PRF","A33Z6BHAJUGCHY","382GHPVPHSDM8N0F9141EAH7F0K34Z","","472.29999999701977","img/land4.png","75","479.5","2","1","2","1","0.8,0.2,0.2,0.2,0.8,0.2,0.2,0.2,0.8","0.8,0.2,0.2,0.2,0.8,0.2,0.2,0.2,0.8","1","",""
"","html-keyboard-response","99","86193","0.0-99.0","3RYC5T2D74F2225U9D2NOPR6KS6PRF","A33Z6BHAJUGCHY","382GHPVPHSDM8N0F9141EAH7F0K34Z","","null","<img src=""img/land4.png"" style=""width:200px; border:14px solid green;"">","null","","","","","","","","","",""
"","image-keyboard-response","100","87533","0.0-100.0","3RYC5T2D74F2225U9D2NOPR6KS6PRF","A33Z6BHAJUGCHY","382GHPVPHSDM8N0F9141EAH7F0K34Z","","1332.5999999940395","img/land6.png","76","1338","3","1","3","1","0.8,0.2,0.2,0.2,0.8,0.2,0.2,0.2,0.8","0.8,0.2,0.2,0.2,0.8,0.2,0.2,0.2,0.8","1","",""
"","html-keyboard-response","101","87839","0.0-101.0","3RYC5T2D74F2225U9D2NOPR6KS6PRF","A33Z6BHAJUGCHY","382GHPVPHSDM8N0F9141EAH7F0K34Z","","null","<img src=""img/land6.png"" style=""width:200px; border:14px solid green;"">","null","","","","","","","","","",""
"","image-keyboard-response","102","89571","0.0-102.0","3RYC5T2D74F2225U9D2NOPR6KS6PRF","A33Z6BHAJUGCHY","382GHPVPHSDM8N0F9141EAH7F0K34Z","","1727.1000000089407","img/land4.png","75","1731.6000000089407","2","0","2","1","0.8,0.2,0.2,0.2,0.8,0.2,0.2,0.2,0.8","0.8,0.2,0.2,0.2,0.8,0.2,0.2,0.2,0.8","1","",""
"","html-keyboard-response","103","89876","0.0-103.0","3RYC5T2D74F2225U9D2NOPR6KS6PRF","A33Z6BHAJUGCHY","382GHPVPHSDM8N0F9141EAH7F0K34Z","","null","<img src=""img/land4.png"" style=""width:200px;border:14px solid red;"">","null","","","","","","","","","",""
"","image-keyboard-response","104","90524","0.0-104.0","3RYC5T2D74F2225U9D2NOPR6KS6PRF","A33Z6BHAJUGCHY","382GHPVPHSDM8N0F9141EAH7F0K34Z","","639.2000000029802","img/land6.png","74","645.8999999910593","1","0","3","1","0.8,0.2,0.2,0.2,0.8,0.2,0.2,0.2,0.8","0.8,0.2,0.2,0.2,0.8,0.2,0.2,0.2,0.8","1","",""
"","html-keyboard-response","105","90830","0.0-105.0","3RYC5T2D74F2225U9D2NOPR6KS6PRF","A33Z6BHAJUGCHY","382GHPVPHSDM8N0F9141EAH7F0K34Z","","null","<img src=""img/land6.png"" style=""width:200px;border:14px solid red;"">","null","","","","","","","","","",""
"","image-keyboard-response","106","91809","0.0-106.0","3RYC5T2D74F2225U9D2NOPR6KS6PRF","A33Z6BHAJUGCHY","382GHPVPHSDM8N0F9141EAH7F0K34Z","","972.7000000029802","img/land4.png","75","977.3000000119209","2","0","2","1","0.8,0.2,0.2,0.2,0.8,0.2,0.2,0.2,0.8","0.8,0.2,0.2,0.2,0.8,0.2,0.2,0.2,0.8","1","",""
"","html-keyboard-response","107","92114","0.0-107.0","3RYC5T2D74F2225U9D2NOPR6KS6PRF","A33Z6BHAJUGCHY","382GHPVPHSDM8N0F9141EAH7F0K34Z","","null","<img src=""img/land4.png"" style=""width:200px;border:14px solid red;"">","null","","","","","","","","","",""
"","image-keyboard-response","108","92558","0.0-108.0","3RYC5T2D74F2225U9D2NOPR6KS6PRF","A33Z6BHAJUGCHY","382GHPVPHSDM8N0F9141EAH7F0K34Z","","437.29999999701977","img/land4.png","74","442.29999999701977","1","1","2","1","0.8,0.2,0.2,0.2,0.8,0.2,0.2,0.2,0.8","0.8,0.2,0.2,0.2,0.8,0.2,0.2,0.2,0.8","1","",""
"","html-keyboard-response","109","92862","0.0-109.0","3RYC5T2D74F2225U9D2NOPR6KS6PRF","A33Z6BHAJUGCHY","382GHPVPHSDM8N0F9141EAH7F0K34Z","","null","<img src=""img/land4.png"" style=""width:200px; border:14px solid green;"">","null","","","","","","","","","",""
"","image-keyboard-response","110","94083","0.0-110.0","3RYC5T2D74F2225U9D2NOPR6KS6PRF","A33Z6BHAJUGCHY","382GHPVPHSDM8N0F9141EAH7F0K34Z","","1211.5","img/land2.png","74","1218.5","1","1","1","1","0.8,0.2,0.2,0.2,0.8,0.2,0.2,0.2,0.8","0.8,0.2,0.2,0.2,0.8,0.2,0.2,0.2,0.8","1","",""
"","html-keyboard-response","111","94389","0.0-111.0","3RYC5T2D74F2225U9D2NOPR6KS6PRF","A33Z6BHAJUGCHY","382GHPVPHSDM8N0F9141EAH7F0K34Z","","null","<img src=""img/land2.png"" style=""width:200px; border:14px solid green;"">","null","","","","","","","","","",""
"","image-keyboard-response","112","95209","0.0-112.0","3RYC5T2D74F2225U9D2NOPR6KS6PRF","A33Z6BHAJUGCHY","382GHPVPHSDM8N0F9141EAH7F0K34Z","","812.7999999970198","img/land6.png","74","818.6000000089407","1","0","3","1","0.8,0.2,0.2,0.2,0.8,0.2,0.2,0.2,0.8","0.8,0.2,0.2,0.2,0.8,0.2,0.2,0.2,0.8","1","",""
"","html-keyboard-response","113","95515","0.0-113.0","3RYC5T2D74F2225U9D2NOPR6KS6PRF","A33Z6BHAJUGCHY","382GHPVPHSDM8N0F9141EAH7F0K34Z","","null","<img src=""img/land6.png"" style=""width:200px;border:14px solid red;"">","null","","","","","","","","","",""
"","image-keyboard-response","114","95775","0.0-114.0","3RYC5T2D74F2225U9D2NOPR6KS6PRF","A33Z6BHAJUGCHY","382GHPVPHSDM8N0F9141EAH7F0K34Z","","253.80000001192093","img/land6.png","76","258.6000000089407","3","1","3","1","0.8,0.2,0.2,0.2,0.8,0.2,0.2,0.2,0.8","0.8,0.2,0.2,0.2,0.8,0.2,0.2,0.2,0.8","1","",""
"","html-keyboard-response","115","96081","0.0-115.0","3RYC5T2D74F2225U9D2NOPR6KS6PRF","A33Z6BHAJUGCHY","382GHPVPHSDM8N0F9141EAH7F0K34Z","","null","<img src=""img/land6.png"" style=""width:200px; border:14px solid green;"">","null","","","","","","","","","",""
"","image-keyboard-response","116","96811","0.0-116.0","3RYC5T2D74F2225U9D2NOPR6KS6PRF","A33Z6BHAJUGCHY","382GHPVPHSDM8N0F9141EAH7F0K34Z","","722.3000000119209","img/land4.png","74","729.5999999940395","1","0","2","1","0.8,0.2,0.2,0.2,0.8,0.2,0.2,0.2,0.8","0.8,0.2,0.2,0.2,0.8,0.2,0.2,0.2,0.8","1","",""
"","html-keyboard-response","117","97117","0.0-117.0","3RYC5T2D74F2225U9D2NOPR6KS6PRF","A33Z6BHAJUGCHY","382GHPVPHSDM8N0F9141EAH7F0K34Z","","null","<img src=""img/land4.png"" style=""width:200px;border:14px solid red;"">","null","","","","","","","","","",""
"","image-keyboard-response","118","97444","0.0-118.0","3RYC5T2D74F2225U9D2NOPR6KS6PRF","A33Z6BHAJUGCHY","382GHPVPHSDM8N0F9141EAH7F0K34Z","","320.59999999403954","img/land4.png","74","325.70000000298023","1","0","2","1","0.8,0.2,0.2,0.2,0.8,0.2,0.2,0.2,0.8","0.8,0.2,0.2,0.2,0.8,0.2,0.2,0.2,0.8","1","",""
"","html-keyboard-response","119","97749","0.0-119.0","3RYC5T2D74F2225U9D2NOPR6KS6PRF","A33Z6BHAJUGCHY","382GHPVPHSDM8N0F9141EAH7F0K34Z","","null","<img src=""img/land4.png"" style=""width:200px;border:14px solid red;"">","null","","","","","","","","","",""
"","image-keyboard-response","120","98262","0.0-120.0","3RYC5T2D74F2225U9D2NOPR6KS6PRF","A33Z6BHAJUGCHY","382GHPVPHSDM8N0F9141EAH7F0K34Z","","507.8999999910593","img/land2.png","76","511.79999999701977","3","0","1","1","0.8,0.2,0.2,0.2,0.8,0.2,0.2,0.2,0.8","0.8,0.2,0.2,0.2,0.8,0.2,0.2,0.2,0.8","1","",""
"","html-keyboard-response","121","98568","0.0-121.0","3RYC5T2D74F2225U9D2NOPR6KS6PRF","A33Z6BHAJUGCHY","382GHPVPHSDM8N0F9141EAH7F0K34Z","","null","<img src=""img/land2.png"" style=""width:200px;border:14px solid red;"">","null","","","","","","","","","",""
"","image-keyboard-response","122","99059","0.0-122.0","3RYC5T2D74F2225U9D2NOPR6KS6PRF","A33Z6BHAJUGCHY","382GHPVPHSDM8N0F9141EAH7F0K34Z","","483.3999999910593","img/land4.png","75","489.40000000596046","2","0","2","1","0.8,0.2,0.2,0.2,0.8,0.2,0.2,0.2,0.8","0.8,0.2,0.2,0.2,0.8,0.2,0.2,0.2,0.8","1","",""
"","html-keyboard-response","123","99366","0.0-123.0","3RYC5T2D74F2225U9D2NOPR6KS6PRF","A33Z6BHAJUGCHY","382GHPVPHSDM8N0F9141EAH7F0K34Z","","null","<img src=""img/land4.png"" style=""width:200px;border:14px solid red;"">","null","","","","","","","","","",""
"","image-keyboard-response","124","100484","0.0-124.0","3RYC5T2D74F2225U9D2NOPR6KS6PRF","A33Z6BHAJUGCHY","382GHPVPHSDM8N0F9141EAH7F0K34Z","","1113.199999988079","img/land2.png","75","1117.2999999970198","2","0","1","1","0.8,0.2,0.2,0.2,0.8,0.2,0.2,0.2,0.8","0.8,0.2,0.2,0.2,0.8,0.2,0.2,0.2,0.8","1","",""
"","html-keyboard-response","125","100793","0.0-125.0","3RYC5T2D74F2225U9D2NOPR6KS6PRF","A33Z6BHAJUGCHY","382GHPVPHSDM8N0F9141EAH7F0K34Z","","null","<img src=""img/land2.png"" style=""width:200px;border:14px solid red;"">","null","","","","","","","","","",""
"","image-keyboard-response","126","101320","0.0-126.0","3RYC5T2D74F2225U9D2NOPR6KS6PRF","A33Z6BHAJUGCHY","382GHPVPHSDM8N0F9141EAH7F0K34Z","","519.5","img/land2.png","74","525.0999999940395","1","1","1","1","0.8,0.2,0.2,0.2,0.8,0.2,0.2,0.2,0.8","0.8,0.2,0.2,0.2,0.8,0.2,0.2,0.2,0.8","1","",""
"","html-keyboard-response","127","101627","0.0-127.0","3RYC5T2D74F2225U9D2NOPR6KS6PRF","A33Z6BHAJUGCHY","382GHPVPHSDM8N0F9141EAH7F0K34Z","","null","<img src=""img/land2.png"" style=""width:200px; border:14px solid green;"">","null","","","","","","","","","",""
"","image-keyboard-response","128","102624","0.0-128.0","3RYC5T2D74F2225U9D2NOPR6KS6PRF","A33Z6BHAJUGCHY","382GHPVPHSDM8N0F9141EAH7F0K34Z","","992.3999999910593","img/land4.png","76","997.1000000089407","3","0","2","1","0.8,0.2,0.2,0.2,0.8,0.2,0.2,0.2,0.8","0.8,0.2,0.2,0.2,0.8,0.2,0.2,0.2,0.8","1","",""
"","html-keyboard-response","129","102934","0.0-129.0","3RYC5T2D74F2225U9D2NOPR6KS6PRF","A33Z6BHAJUGCHY","382GHPVPHSDM8N0F9141EAH7F0K34Z","","null","<img src=""img/land4.png"" style=""width:200px;border:14px solid red;"">","null","","","","","","","","","",""
"","image-keyboard-response","130","103276","0.0-130.0","3RYC5T2D74F2225U9D2NOPR6KS6PRF","A33Z6BHAJUGCHY","382GHPVPHSDM8N0F9141EAH7F0K34Z","","334.70000000298023","img/land4.png","75","340.40000000596046","2","1","2","1","0.8,0.2,0.2,0.2,0.8,0.2,0.2,0.2,0.8","0.8,0.2,0.2,0.2,0.8,0.2,0.2,0.2,0.8","1","",""
"","html-keyboard-response","131","103581","0.0-131.0","3RYC5T2D74F2225U9D2NOPR6KS6PRF","A33Z6BHAJUGCHY","382GHPVPHSDM8N0F9141EAH7F0K34Z","","null","<img src=""img/land4.png"" style=""width:200px; border:14px solid green;"">","null","","","","","","","","","",""
"","image-keyboard-response","132","103968","0.0-132.0","3RYC5T2D74F2225U9D2NOPR6KS6PRF","A33Z6BHAJUGCHY","382GHPVPHSDM8N0F9141EAH7F0K34Z","","377.29999999701977","img/land4.png","75","380.3999999910593","2","1","2","1","0.8,0.2,0.2,0.2,0.8,0.2,0.2,0.2,0.8","0.8,0.2,0.2,0.2,0.8,0.2,0.2,0.2,0.8","1","",""
"","html-keyboard-response","133","104275","0.0-133.0","3RYC5T2D74F2225U9D2NOPR6KS6PRF","A33Z6BHAJUGCHY","382GHPVPHSDM8N0F9141EAH7F0K34Z","","null","<img src=""img/land4.png"" style=""width:200px; border:14px solid green;"">","null","","","","","","","","","",""
"","image-keyboard-response","134","105197","0.0-134.0","3RYC5T2D74F2225U9D2NOPR6KS6PRF","A33Z6BHAJUGCHY","382GHPVPHSDM8N0F9141EAH7F0K34Z","","915.7000000029802","img/land2.png","74","921.2000000029802","1","1","1","1","0.8,0.2,0.2,0.2,0.8,0.2,0.2,0.2,0.8","0.8,0.2,0.2,0.2,0.8,0.2,0.2,0.2,0.8","1","",""
"","html-keyboard-response","135","105501","0.0-135.0","3RYC5T2D74F2225U9D2NOPR6KS6PRF","A33Z6BHAJUGCHY","382GHPVPHSDM8N0F9141EAH7F0K34Z","","null","<img src=""img/land2.png"" style=""width:200px; border:14px solid green;"">","null","","","","","","","","","",""
"","image-keyboard-response","136","105820","0.0-136.0","3RYC5T2D74F2225U9D2NOPR6KS6PRF","A33Z6BHAJUGCHY","382GHPVPHSDM8N0F9141EAH7F0K34Z","","313.79999999701977","img/land2.png","74","318.09999999403954","1","1","1","1","0.8,0.2,0.2,0.2,0.8,0.2,0.2,0.2,0.8","0.8,0.2,0.2,0.2,0.8,0.2,0.2,0.2,0.8","1","",""
"","html-keyboard-response","137","106129","0.0-137.0","3RYC5T2D74F2225U9D2NOPR6KS6PRF","A33Z6BHAJUGCHY","382GHPVPHSDM8N0F9141EAH7F0K34Z","","null","<img src=""img/land2.png"" style=""width:200px; border:14px solid green;"">","null","","","","","","","","","",""
"","image-keyboard-response","138","106930","0.0-138.0","3RYC5T2D74F2225U9D2NOPR6KS6PRF","A33Z6BHAJUGCHY","382GHPVPHSDM8N0F9141EAH7F0K34Z","","793.2000000029802","img/land6.png","75","799.5","2","0","3","1","0.8,0.2,0.2,0.2,0.8,0.2,0.2,0.2,0.8","0.8,0.2,0.2,0.2,0.8,0.2,0.2,0.2,0.8","1","",""
"","html-keyboard-response","139","107238","0.0-139.0","3RYC5T2D74F2225U9D2NOPR6KS6PRF","A33Z6BHAJUGCHY","382GHPVPHSDM8N0F9141EAH7F0K34Z","","null","<img src=""img/land6.png"" style=""width:200px;border:14px solid red;"">","null","","","","","","","","","",""
"","image-keyboard-response","140","108089","0.0-140.0","3RYC5T2D74F2225U9D2NOPR6KS6PRF","A33Z6BHAJUGCHY","382GHPVPHSDM8N0F9141EAH7F0K34Z","","843.5","img/land2.png","74","849.7000000029802","1","1","1","1","0.8,0.2,0.2,0.2,0.8,0.2,0.2,0.2,0.8","0.8,0.2,0.2,0.2,0.8,0.2,0.2,0.2,0.8","1","",""
"","html-keyboard-response","141","108396","0.0-141.0","3RYC5T2D74F2225U9D2NOPR6KS6PRF","A33Z6BHAJUGCHY","382GHPVPHSDM8N0F9141EAH7F0K34Z","","null","<img src=""img/land2.png"" style=""width:200px; border:14px solid green;"">","null","","","","","","","","","",""
"","image-keyboard-response","142","109449","0.0-142.0","3RYC5T2D74F2225U9D2NOPR6KS6PRF","A33Z6BHAJUGCHY","382GHPVPHSDM8N0F9141EAH7F0K34Z","","1046.699999988079","img/land6.png","76","1050.8999999910593","3","1","3","1","0.8,0.2,0.2,0.2,0.8,0.2,0.2,0.2,0.8","0.8,0.2,0.2,0.2,0.8,0.2,0.2,0.2,0.8","1","",""
"","html-keyboard-response","143","109752","0.0-143.0","3RYC5T2D74F2225U9D2NOPR6KS6PRF","A33Z6BHAJUGCHY","382GHPVPHSDM8N0F9141EAH7F0K34Z","","null","<img src=""img/land6.png"" style=""width:200px; border:14px solid green;"">","null","","","","","","","","","",""
"","image-keyboard-response","144","110548","0.0-144.0","3RYC5T2D74F2225U9D2NOPR6KS6PRF","A33Z6BHAJUGCHY","382GHPVPHSDM8N0F9141EAH7F0K34Z","","791.6999999880791","img/land2.png","74","796.2000000029802","1","1","1","1","0.8,0.2,0.2,0.2,0.8,0.2,0.2,0.2,0.8","0.8,0.2,0.2,0.2,0.8,0.2,0.2,0.2,0.8","1","",""
"","html-keyboard-response","145","110855","0.0-145.0","3RYC5T2D74F2225U9D2NOPR6KS6PRF","A33Z6BHAJUGCHY","382GHPVPHSDM8N0F9141EAH7F0K34Z","","null","<img src=""img/land2.png"" style=""width:200px; border:14px solid green;"">","null","","","","","","","","","",""
"","image-keyboard-response","146","111246","0.0-146.0","3RYC5T2D74F2225U9D2NOPR6KS6PRF","A33Z6BHAJUGCHY","382GHPVPHSDM8N0F9141EAH7F0K34Z","","383.70000000298023","img/land2.png","74","390.20000000298023","1","1","1","1","0.8,0.2,0.2,0.2,0.8,0.2,0.2,0.2,0.8","0.8,0.2,0.2,0.2,0.8,0.2,0.2,0.2,0.8","1","",""
"","html-keyboard-response","147","111552","0.0-147.0","3RYC5T2D74F2225U9D2NOPR6KS6PRF","A33Z6BHAJUGCHY","382GHPVPHSDM8N0F9141EAH7F0K34Z","","null","<img src=""img/land2.png"" style=""width:200px; border:14px solid green;"">","null","","","","","","","","","",""
"","image-keyboard-response","148","111880","0.0-148.0","3RYC5T2D74F2225U9D2NOPR6KS6PRF","A33Z6BHAJUGCHY","382GHPVPHSDM8N0F9141EAH7F0K34Z","","322","img/land2.png","74","326.6000000089407","1","1","1","1","0.8,0.2,0.2,0.2,0.8,0.2,0.2,0.2,0.8","0.8,0.2,0.2,0.2,0.8,0.2,0.2,0.2,0.8","1","",""
"","html-keyboard-response","149","112188","0.0-149.0","3RYC5T2D74F2225U9D2NOPR6KS6PRF","A33Z6BHAJUGCHY","382GHPVPHSDM8N0F9141EAH7F0K34Z","","null","<img src=""img/land2.png"" style=""width:200px; border:14px solid green;"">","null","","","","","","","","","",""
"","image-keyboard-response","150","112980","0.0-150.0","3RYC5T2D74F2225U9D2NOPR6KS6PRF","A33Z6BHAJUGCHY","382GHPVPHSDM8N0F9141EAH7F0K34Z","","785.0999999940395","img/land4.png","75","791.2999999970198","2","0","2","1","0.8,0.2,0.2,0.2,0.8,0.2,0.2,0.2,0.8","0.8,0.2,0.2,0.2,0.8,0.2,0.2,0.2,0.8","1","",""
"","html-keyboard-response","151","113288","0.0-151.0","3RYC5T2D74F2225U9D2NOPR6KS6PRF","A33Z6BHAJUGCHY","382GHPVPHSDM8N0F9141EAH7F0K34Z","","null","<img src=""img/land4.png"" style=""width:200px;border:14px solid red;"">","null","","","","","","","","","",""
"","image-keyboard-response","152","114105","0.0-152.0","3RYC5T2D74F2225U9D2NOPR6KS6PRF","A33Z6BHAJUGCHY","382GHPVPHSDM8N0F9141EAH7F0K34Z","","810.0999999940395","img/land6.png","74","816.3999999910593","1","0","3","1","0.8,0.2,0.2,0.2,0.8,0.2,0.2,0.2,0.8","0.8,0.2,0.2,0.2,0.8,0.2,0.2,0.2,0.8","1","",""
"","html-keyboard-response","153","114412","0.0-153.0","3RYC5T2D74F2225U9D2NOPR6KS6PRF","A33Z6BHAJUGCHY","382GHPVPHSDM8N0F9141EAH7F0K34Z","","null","<img src=""img/land6.png"" style=""width:200px;border:14px solid red;"">","null","","","","","","","","","",""
"","image-keyboard-response","154","114745","0.0-154.0","3RYC5T2D74F2225U9D2NOPR6KS6PRF","A33Z6BHAJUGCHY","382GHPVPHSDM8N0F9141EAH7F0K34Z","","325.8999999910593","img/land6.png","76","331.5","3","0","3","1","0.8,0.2,0.2,0.2,0.8,0.2,0.2,0.2,0.8","0.8,0.2,0.2,0.2,0.8,0.2,0.2,0.2,0.8","1","",""
"","html-keyboard-response","155","115050","0.0-155.0","3RYC5T2D74F2225U9D2NOPR6KS6PRF","A33Z6BHAJUGCHY","382GHPVPHSDM8N0F9141EAH7F0K34Z","","null","<img src=""img/land6.png"" style=""width:200px;border:14px solid red;"">","null","","","","","","","","","",""
"","image-keyboard-response","156","116125","0.0-156.0","3RYC5T2D74F2225U9D2NOPR6KS6PRF","A33Z6BHAJUGCHY","382GHPVPHSDM8N0F9141EAH7F0K34Z","","1068.1000000089407","img/land4.png","75","1074.199999988079","2","0","2","1","0.8,0.2,0.2,0.2,0.8,0.2,0.2,0.2,0.8","0.8,0.2,0.2,0.2,0.8,0.2,0.2,0.2,0.8","1","",""
"","html-keyboard-response","157","116432","0.0-157.0","3RYC5T2D74F2225U9D2NOPR6KS6PRF","A33Z6BHAJUGCHY","382GHPVPHSDM8N0F9141EAH7F0K34Z","","null","<img src=""img/land4.png"" style=""width:200px;border:14px solid red;"">","null","","","","","","","","","",""
"","image-keyboard-response","158","117258","0.0-158.0","3RYC5T2D74F2225U9D2NOPR6KS6PRF","A33Z6BHAJUGCHY","382GHPVPHSDM8N0F9141EAH7F0K34Z","","818.7999999970198","img/land2.png","74","824.3000000119209","1","1","1","1","0.8,0.2,0.2,0.2,0.8,0.2,0.2,0.2,0.8","0.8,0.2,0.2,0.2,0.8,0.2,0.2,0.2,0.8","1","",""
"","html-keyboard-response","159","117563","0.0-159.0","3RYC5T2D74F2225U9D2NOPR6KS6PRF","A33Z6BHAJUGCHY","382GHPVPHSDM8N0F9141EAH7F0K34Z","","null","<img src=""img/land2.png"" style=""width:200px; border:14px solid green;"">","null","","","","","","","","","",""
"","image-keyboard-response","160","117872","0.0-160.0","3RYC5T2D74F2225U9D2NOPR6KS6PRF","A33Z6BHAJUGCHY","382GHPVPHSDM8N0F9141EAH7F0K34Z","","304.3999999910593","img/land2.png","74","308.40000000596046","1","0","1","1","0.8,0.2,0.2,0.2,0.8,0.2,0.2,0.2,0.8","0.8,0.2,0.2,0.2,0.8,0.2,0.2,0.2,0.8","1","",""
"","html-keyboard-response","161","118179","0.0-161.0","3RYC5T2D74F2225U9D2NOPR6KS6PRF","A33Z6BHAJUGCHY","382GHPVPHSDM8N0F9141EAH7F0K34Z","","null","<img src=""img/land2.png"" style=""width:200px;border:14px solid red;"">","null","","","","","","","","","",""
"","image-keyboard-response","162","119215","0.0-162.0","3RYC5T2D74F2225U9D2NOPR6KS6PRF","A33Z6BHAJUGCHY","382GHPVPHSDM8N0F9141EAH7F0K34Z","","1028.0999999940395","img/land2.png","74","1034.1000000089407","1","1","1","1","0.8,0.2,0.2,0.2,0.8,0.2,0.2,0.2,0.8","0.8,0.2,0.2,0.2,0.8,0.2,0.2,0.2,0.8","1","",""
"","html-keyboard-response","163","119520","0.0-163.0","3RYC5T2D74F2225U9D2NOPR6KS6PRF","A33Z6BHAJUGCHY","382GHPVPHSDM8N0F9141EAH7F0K34Z","","null","<img src=""img/land2.png"" style=""width:200px; border:14px solid green;"">","null","","","","","","","","","",""
"","image-keyboard-response","164","120331","0.0-164.0","3RYC5T2D74F2225U9D2NOPR6KS6PRF","A33Z6BHAJUGCHY","382GHPVPHSDM8N0F9141EAH7F0K34Z","","806.5999999940395","img/land4.png","76","810.5","3","1","2","1","0.8,0.2,0.2,0.2,0.8,0.2,0.2,0.2,0.8","0.8,0.2,0.2,0.2,0.8,0.2,0.2,0.2,0.8","1","",""
"","html-keyboard-response","165","120639","0.0-165.0","3RYC5T2D74F2225U9D2NOPR6KS6PRF","A33Z6BHAJUGCHY","382GHPVPHSDM8N0F9141EAH7F0K34Z","","null","<img src=""img/land4.png"" style=""width:200px; border:14px solid green;"">","null","","","","","","","","","",""
"","image-keyboard-response","166","121447","0.0-166.0","3RYC5T2D74F2225U9D2NOPR6KS6PRF","A33Z6BHAJUGCHY","382GHPVPHSDM8N0F9141EAH7F0K34Z","","801","img/land2.png","74","806.7000000029802","1","1","1","1","0.8,0.2,0.2,0.2,0.8,0.2,0.2,0.2,0.8","0.8,0.2,0.2,0.2,0.8,0.2,0.2,0.2,0.8","1","",""
"","html-keyboard-response","167","121752","0.0-167.0","3RYC5T2D74F2225U9D2NOPR6KS6PRF","A33Z6BHAJUGCHY","382GHPVPHSDM8N0F9141EAH7F0K34Z","","null","<img src=""img/land2.png"" style=""width:200px; border:14px solid green;"">","null","","","","","","","","","",""
"","image-keyboard-response","168","122881","0.0-168.0","3RYC5T2D74F2225U9D2NOPR6KS6PRF","A33Z6BHAJUGCHY","382GHPVPHSDM8N0F9141EAH7F0K34Z","","1122.2000000029802","img/land6.png","76","1128","3","1","3","1","0.8,0.2,0.2,0.2,0.8,0.2,0.2,0.2,0.8","0.8,0.2,0.2,0.2,0.8,0.2,0.2,0.2,0.8","1","",""
"","html-keyboard-response","169","123188","0.0-169.0","3RYC5T2D74F2225U9D2NOPR6KS6PRF","A33Z6BHAJUGCHY","382GHPVPHSDM8N0F9141EAH7F0K34Z","","null","<img src=""img/land6.png"" style=""width:200px; border:14px solid green;"">","null","","","","","","","","","",""
"","image-keyboard-response","170","124083","0.0-170.0","3RYC5T2D74F2225U9D2NOPR6KS6PRF","A33Z6BHAJUGCHY","382GHPVPHSDM8N0F9141EAH7F0K34Z","","889.3000000119209","img/land4.png","75","894.2000000029802","2","1","2","1","0.8,0.2,0.2,0.2,0.8,0.2,0.2,0.2,0.8","0.8,0.2,0.2,0.2,0.8,0.2,0.2,0.2,0.8","1","",""
"","html-keyboard-response","171","124392","0.0-171.0","3RYC5T2D74F2225U9D2NOPR6KS6PRF","A33Z6BHAJUGCHY","382GHPVPHSDM8N0F9141EAH7F0K34Z","","null","<img src=""img/land4.png"" style=""width:200px; border:14px solid green;"">","null","","","","","","","","","",""
"","image-keyboard-response","172","125307","0.0-172.0","3RYC5T2D74F2225U9D2NOPR6KS6PRF","A33Z6BHAJUGCHY","382GHPVPHSDM8N0F9141EAH7F0K34Z","","907","img/land2.png","74","912.6000000089407","1","1","1","1","0.8,0.2,0.2,0.2,0.8,0.2,0.2,0.2,0.8","0.8,0.2,0.2,0.2,0.8,0.2,0.2,0.2,0.8","1","",""
"","html-keyboard-response","173","125614","0.0-173.0","3RYC5T2D74F2225U9D2NOPR6KS6PRF","A33Z6BHAJUGCHY","382GHPVPHSDM8N0F9141EAH7F0K34Z","","null","<img src=""img/land2.png"" style=""width:200px; border:14px solid green;"">","null","","","","","","","","","",""
"","image-keyboard-response","174","126378","0.0-174.0","3RYC5T2D74F2225U9D2NOPR6KS6PRF","A33Z6BHAJUGCHY","382GHPVPHSDM8N0F9141EAH7F0K34Z","","758.1000000089407","img/land6.png","76","763.0999999940395","3","1","3","1","0.8,0.2,0.2,0.2,0.8,0.2,0.2,0.2,0.8","0.8,0.2,0.2,0.2,0.8,0.2,0.2,0.2,0.8","1","",""
"","html-keyboard-response","175","126686","0.0-175.0","3RYC5T2D74F2225U9D2NOPR6KS6PRF","A33Z6BHAJUGCHY","382GHPVPHSDM8N0F9141EAH7F0K34Z","","null","<img src=""img/land6.png"" style=""width:200px; border:14px solid green;"">","null","","","","","","","","","",""
"","image-keyboard-response","176","127829","0.0-176.0","3RYC5T2D74F2225U9D2NOPR6KS6PRF","A33Z6BHAJUGCHY","382GHPVPHSDM8N0F9141EAH7F0K34Z","","1135.0999999940395","img/land2.png","74","1142.2999999970198","1","1","1","1","0.8,0.2,0.2,0.2,0.8,0.2,0.2,0.2,0.8","0.8,0.2,0.2,0.2,0.8,0.2,0.2,0.2,0.8","1","",""
"","html-keyboard-response","177","128139","0.0-177.0","3RYC5T2D74F2225U9D2NOPR6KS6PRF","A33Z6BHAJUGCHY","382GHPVPHSDM8N0F9141EAH7F0K34Z","","null","<img src=""img/land2.png"" style=""width:200px; border:14px solid green;"">","null","","","","","","","","","",""
"","image-keyboard-response","178","128495","0.0-178.0","3RYC5T2D74F2225U9D2NOPR6KS6PRF","A33Z6BHAJUGCHY","382GHPVPHSDM8N0F9141EAH7F0K34Z","","349.1000000089407","img/land2.png","74","354.29999999701977","1","0","1","1","0.8,0.2,0.2,0.2,0.8,0.2,0.2,0.2,0.8","0.8,0.2,0.2,0.2,0.8,0.2,0.2,0.2,0.8","1","",""
"","html-keyboard-response","179","128799","0.0-179.0","3RYC5T2D74F2225U9D2NOPR6KS6PRF","A33Z6BHAJUGCHY","382GHPVPHSDM8N0F9141EAH7F0K34Z","","null","<img src=""img/land2.png"" style=""width:200px;border:14px solid red;"">","null","","","","","","","","","",""
"","image-keyboard-response","180","129738","0.0-180.0","3RYC5T2D74F2225U9D2NOPR6KS6PRF","A33Z6BHAJUGCHY","382GHPVPHSDM8N0F9141EAH7F0K34Z","","933.3999999910593","img/land4.png","75","938.9000000059605","2","1","2","1","0.8,0.2,0.2,0.2,0.8,0.2,0.2,0.2,0.8","0.8,0.2,0.2,0.2,0.8,0.2,0.2,0.2,0.8","1","",""
"","html-keyboard-response","181","130044","0.0-181.0","3RYC5T2D74F2225U9D2NOPR6KS6PRF","A33Z6BHAJUGCHY","382GHPVPHSDM8N0F9141EAH7F0K34Z","","null","<img src=""img/land4.png"" style=""width:200px; border:14px solid green;"">","null","","","","","","","","","",""
"","html-keyboard-response","182","133088","0.0-182.0","3RYC5T2D74F2225U9D2NOPR6KS6PRF","A33Z6BHAJUGCHY","382GHPVPHSDM8N0F9141EAH7F0K34Z","","","","","","","","","","","","","",""
"","image-keyboard-response","183","134510","0.0-183.0","3RYC5T2D74F2225U9D2NOPR6KS6PRF","A33Z6BHAJUGCHY","382GHPVPHSDM8N0F9141EAH7F0K34Z","","1415.9000000059605","img/land3.png","74","1421.7999999970198","1","1","3","2","0.8,0.2,0.2,0.2,0.8,0.2,0.2,0.2,0.8","0.2,0.8,0.2,0.2,0.2,0.8,0.8,0.2,0.2","3","",""
"","html-keyboard-response","184","134817","0.0-184.0","3RYC5T2D74F2225U9D2NOPR6KS6PRF","A33Z6BHAJUGCHY","382GHPVPHSDM8N0F9141EAH7F0K34Z","","null","<img src=""img/land3.png"" style=""width:200px; border:14px solid green;"">","null","","","","","","","","","",""
"","image-keyboard-response","185","135156","0.0-185.0","3RYC5T2D74F2225U9D2NOPR6KS6PRF","A33Z6BHAJUGCHY","382GHPVPHSDM8N0F9141EAH7F0K34Z","","330.5","img/land3.png","74","336.29999999701977","1","1","3","2","0.8,0.2,0.2,0.2,0.8,0.2,0.2,0.2,0.8","0.2,0.8,0.2,0.2,0.2,0.8,0.8,0.2,0.2","3","",""
"","html-keyboard-response","186","135459","0.0-186.0","3RYC5T2D74F2225U9D2NOPR6KS6PRF","A33Z6BHAJUGCHY","382GHPVPHSDM8N0F9141EAH7F0K34Z","","null","<img src=""img/land3.png"" style=""width:200px; border:14px solid green;"">","null","","","","","","","","","",""
"","image-keyboard-response","187","135766","0.0-187.0","3RYC5T2D74F2225U9D2NOPR6KS6PRF","A33Z6BHAJUGCHY","382GHPVPHSDM8N0F9141EAH7F0K34Z","","303.09999999403954","img/land3.png","74","306.40000000596046","1","1","3","2","0.8,0.2,0.2,0.2,0.8,0.2,0.2,0.2,0.8","0.2,0.8,0.2,0.2,0.2,0.8,0.8,0.2,0.2","3","",""
"","html-keyboard-response","188","136072","0.0-188.0","3RYC5T2D74F2225U9D2NOPR6KS6PRF","A33Z6BHAJUGCHY","382GHPVPHSDM8N0F9141EAH7F0K34Z","","null","<img src=""img/land3.png"" style=""width:200px; border:14px solid green;"">","null","","","","","","","","","",""
"","image-keyboard-response","189","136866","0.0-189.0","3RYC5T2D74F2225U9D2NOPR6KS6PRF","A33Z6BHAJUGCHY","382GHPVPHSDM8N0F9141EAH7F0K34Z","","776.5999999940395","img/land5.png","75","782.8999999910593","2","1","1","2","0.8,0.2,0.2,0.2,0.8,0.2,0.2,0.2,0.8","0.2,0.8,0.2,0.2,0.2,0.8,0.8,0.2,0.2","3","",""
"","html-keyboard-response","190","137172","0.0-190.0","3RYC5T2D74F2225U9D2NOPR6KS6PRF","A33Z6BHAJUGCHY","382GHPVPHSDM8N0F9141EAH7F0K34Z","","null","<img src=""img/land5.png"" style=""width:200px; border:14px solid green;"">","null","","","","","","","","","",""
"","image-keyboard-response","191","138004","0.0-191.0","3RYC5T2D74F2225U9D2NOPR6KS6PRF","A33Z6BHAJUGCHY","382GHPVPHSDM8N0F9141EAH7F0K34Z","","824.0999999940395","img/land1.png","76","831.0999999940395","3","0","2","2","0.8,0.2,0.2,0.2,0.8,0.2,0.2,0.2,0.8","0.2,0.8,0.2,0.2,0.2,0.8,0.8,0.2,0.2","3","",""
"","html-keyboard-response","192","138312","0.0-192.0","3RYC5T2D74F2225U9D2NOPR6KS6PRF","A33Z6BHAJUGCHY","382GHPVPHSDM8N0F9141EAH7F0K34Z","","null","<img src=""img/land1.png"" style=""width:200px;border:14px solid red;"">","null","","","","","","","","","",""
"","image-keyboard-response","193","139186","0.0-193.0","3RYC5T2D74F2225U9D2NOPR6KS6PRF","A33Z6BHAJUGCHY","382GHPVPHSDM8N0F9141EAH7F0K34Z","","867.2000000029802","img/land3.png","74","872.6000000089407","1","1","3","2","0.8,0.2,0.2,0.2,0.8,0.2,0.2,0.2,0.8","0.2,0.8,0.2,0.2,0.2,0.8,0.8,0.2,0.2","3","",""
"","html-keyboard-response","194","139491","0.0-194.0","3RYC5T2D74F2225U9D2NOPR6KS6PRF","A33Z6BHAJUGCHY","382GHPVPHSDM8N0F9141EAH7F0K34Z","","null","<img src=""img/land3.png"" style=""width:200px; border:14px solid green;"">","null","","","","","","","","","",""
"","image-keyboard-response","195","140272","0.0-195.0","3RYC5T2D74F2225U9D2NOPR6KS6PRF","A33Z6BHAJUGCHY","382GHPVPHSDM8N0F9141EAH7F0K34Z","","775.7999999970198","img/land1.png","75","782.8000000119209","2","0","2","2","0.8,0.2,0.2,0.2,0.8,0.2,0.2,0.2,0.8","0.2,0.8,0.2,0.2,0.2,0.8,0.8,0.2,0.2","3","",""
"","html-keyboard-response","196","140581","0.0-196.0","3RYC5T2D74F2225U9D2NOPR6KS6PRF","A33Z6BHAJUGCHY","382GHPVPHSDM8N0F9141EAH7F0K34Z","","null","<img src=""img/land1.png"" style=""width:200px;border:14px solid red;"">","null","","","","","","","","","",""
"","image-keyboard-response","197","141290","0.0-197.0","3RYC5T2D74F2225U9D2NOPR6KS6PRF","A33Z6BHAJUGCHY","382GHPVPHSDM8N0F9141EAH7F0K34Z","","704","img/land3.png","74","708.7999999970198","1","1","3","2","0.8,0.2,0.2,0.2,0.8,0.2,0.2,0.2,0.8","0.2,0.8,0.2,0.2,0.2,0.8,0.8,0.2,0.2","3","",""
"","html-keyboard-response","198","141596","0.0-198.0","3RYC5T2D74F2225U9D2NOPR6KS6PRF","A33Z6BHAJUGCHY","382GHPVPHSDM8N0F9141EAH7F0K34Z","","null","<img src=""img/land3.png"" style=""width:200px; border:14px solid green;"">","null","","","","","","","","","",""
"","image-keyboard-response","199","142452","0.0-199.0","3RYC5T2D74F2225U9D2NOPR6KS6PRF","A33Z6BHAJUGCHY","382GHPVPHSDM8N0F9141EAH7F0K34Z","","849.3000000119209","img/land5.png","74","855.5","1","0","1","2","0.8,0.2,0.2,0.2,0.8,0.2,0.2,0.2,0.8","0.2,0.8,0.2,0.2,0.2,0.8,0.8,0.2,0.2","3","",""
"","html-keyboard-response","200","142760","0.0-200.0","3RYC5T2D74F2225U9D2NOPR6KS6PRF","A33Z6BHAJUGCHY","382GHPVPHSDM8N0F9141EAH7F0K34Z","","null","<img src=""img/land5.png"" style=""width:200px;border:14px solid red;"">","null","","","","","","","","","",""
"","image-keyboard-response","201","143098","0.0-201.0","3RYC5T2D74F2225U9D2NOPR6KS6PRF","A33Z6BHAJUGCHY","382GHPVPHSDM8N0F9141EAH7F0K34Z","","331.6000000089407","img/land5.png","75","337.19999998807907","2","1","1","2","0.8,0.2,0.2,0.2,0.8,0.2,0.2,0.2,0.8","0.2,0.8,0.2,0.2,0.2,0.8,0.8,0.2,0.2","3","",""
"","html-keyboard-response","202","143403","0.0-202.0","3RYC5T2D74F2225U9D2NOPR6KS6PRF","A33Z6BHAJUGCHY","382GHPVPHSDM8N0F9141EAH7F0K34Z","","null","<img src=""img/land5.png"" style=""width:200px; border:14px solid green;"">","null","","","","","","","","","",""
"","image-keyboard-response","203","143770","0.0-203.0","3RYC5T2D74F2225U9D2NOPR6KS6PRF","A33Z6BHAJUGCHY","382GHPVPHSDM8N0F9141EAH7F0K34Z","","363","img/land5.png","75","366.40000000596046","2","1","1","2","0.8,0.2,0.2,0.2,0.8,0.2,0.2,0.2,0.8","0.2,0.8,0.2,0.2,0.2,0.8,0.8,0.2,0.2","3","",""
"","html-keyboard-response","204","144078","0.0-204.0","3RYC5T2D74F2225U9D2NOPR6KS6PRF","A33Z6BHAJUGCHY","382GHPVPHSDM8N0F9141EAH7F0K34Z","","null","<img src=""img/land5.png"" style=""width:200px; border:14px solid green;"">","null","","","","","","","","","",""
"","image-keyboard-response","205","144615","0.0-205.0","3RYC5T2D74F2225U9D2NOPR6KS6PRF","A33Z6BHAJUGCHY","382GHPVPHSDM8N0F9141EAH7F0K34Z","","531.1000000089407","img/land3.png","74","536.7000000029802","1","0","3","2","0.8,0.2,0.2,0.2,0.8,0.2,0.2,0.2,0.8","0.2,0.8,0.2,0.2,0.2,0.8,0.8,0.2,0.2","3","",""
"","html-keyboard-response","206","144924","0.0-206.0","3RYC5T2D74F2225U9D2NOPR6KS6PRF","A33Z6BHAJUGCHY","382GHPVPHSDM8N0F9141EAH7F0K34Z","","null","<img src=""img/land3.png"" style=""width:200px;border:14px solid red;"">","null","","","","","","","","","",""
"","image-keyboard-response","207","146607","0.0-207.0","3RYC5T2D74F2225U9D2NOPR6KS6PRF","A33Z6BHAJUGCHY","382GHPVPHSDM8N0F9141EAH7F0K34Z","","1674.7000000029802","img/land5.png","75","1681.699999988079","2","0","1","2","0.8,0.2,0.2,0.2,0.8,0.2,0.2,0.2,0.8","0.2,0.8,0.2,0.2,0.2,0.8,0.8,0.2,0.2","3","",""
"","html-keyboard-response","208","146913","0.0-208.0","3RYC5T2D74F2225U9D2NOPR6KS6PRF","A33Z6BHAJUGCHY","382GHPVPHSDM8N0F9141EAH7F0K34Z","","null","<img src=""img/land5.png"" style=""width:200px;border:14px solid red;"">","null","","","","","","","","","",""
"","image-keyboard-response","209","147710","0.0-209.0","3RYC5T2D74F2225U9D2NOPR6KS6PRF","A33Z6BHAJUGCHY","382GHPVPHSDM8N0F9141EAH7F0K34Z","","790.4000000059605","img/land1.png","75","796.5","2","0","2","2","0.8,0.2,0.2,0.2,0.8,0.2,0.2,0.2,0.8","0.2,0.8,0.2,0.2,0.2,0.8,0.8,0.2,0.2","3","",""
"","html-keyboard-response","210","148017","0.0-210.0","3RYC5T2D74F2225U9D2NOPR6KS6PRF","A33Z6BHAJUGCHY","382GHPVPHSDM8N0F9141EAH7F0K34Z","","null","<img src=""img/land1.png"" style=""width:200px;border:14px solid red;"">","null","","","","","","","","","",""
"","image-keyboard-response","211","148855","0.0-211.0","3RYC5T2D74F2225U9D2NOPR6KS6PRF","A33Z6BHAJUGCHY","382GHPVPHSDM8N0F9141EAH7F0K34Z","","828.7000000029802","img/land5.png","76","836","3","0","1","2","0.8,0.2,0.2,0.2,0.8,0.2,0.2,0.2,0.8","0.2,0.8,0.2,0.2,0.2,0.8,0.8,0.2,0.2","3","",""
"","html-keyboard-response","212","149162","0.0-212.0","3RYC5T2D74F2225U9D2NOPR6KS6PRF","A33Z6BHAJUGCHY","382GHPVPHSDM8N0F9141EAH7F0K34Z","","null","<img src=""img/land5.png"" style=""width:200px;border:14px solid red;"">","null","","","","","","","","","",""
"","image-keyboard-response","213","149580","0.0-213.0","3RYC5T2D74F2225U9D2NOPR6KS6PRF","A33Z6BHAJUGCHY","382GHPVPHSDM8N0F9141EAH7F0K34Z","","412.90000000596046","img/land5.png","74","418","1","0","1","2","0.8,0.2,0.2,0.2,0.8,0.2,0.2,0.2,0.8","0.2,0.8,0.2,0.2,0.2,0.8,0.8,0.2,0.2","3","",""
"","html-keyboard-response","214","149885","0.0-214.0","3RYC5T2D74F2225U9D2NOPR6KS6PRF","A33Z6BHAJUGCHY","382GHPVPHSDM8N0F9141EAH7F0K34Z","","null","<img src=""img/land5.png"" style=""width:200px;border:14px solid red;"">","null","","","","","","","","","",""
"","image-keyboard-response","215","150612","0.0-215.0","3RYC5T2D74F2225U9D2NOPR6KS6PRF","A33Z6BHAJUGCHY","382GHPVPHSDM8N0F9141EAH7F0K34Z","","718.7999999970198","img/land1.png","75","725.2999999970198","2","0","2","2","0.8,0.2,0.2,0.2,0.8,0.2,0.2,0.2,0.8","0.2,0.8,0.2,0.2,0.2,0.8,0.8,0.2,0.2","3","",""
"","html-keyboard-response","216","150920","0.0-216.0","3RYC5T2D74F2225U9D2NOPR6KS6PRF","A33Z6BHAJUGCHY","382GHPVPHSDM8N0F9141EAH7F0K34Z","","null","<img src=""img/land1.png"" style=""width:200px;border:14px solid red;"">","null","","","","","","","","","",""
"","image-keyboard-response","217","151342","0.0-217.0","3RYC5T2D74F2225U9D2NOPR6KS6PRF","A33Z6BHAJUGCHY","382GHPVPHSDM8N0F9141EAH7F0K34Z","","414.90000000596046","img/land1.png","74","420.5","1","1","2","2","0.8,0.2,0.2,0.2,0.8,0.2,0.2,0.2,0.8","0.2,0.8,0.2,0.2,0.2,0.8,0.8,0.2,0.2","3","",""
"","html-keyboard-response","218","151647","0.0-218.0","3RYC5T2D74F2225U9D2NOPR6KS6PRF","A33Z6BHAJUGCHY","382GHPVPHSDM8N0F9141EAH7F0K34Z","","null","<img src=""img/land1.png"" style=""width:200px; border:14px solid green;"">","null","","","","","","","","","",""
"","image-keyboard-response","219","152460","0.0-219.0","3RYC5T2D74F2225U9D2NOPR6KS6PRF","A33Z6BHAJUGCHY","382GHPVPHSDM8N0F9141EAH7F0K34Z","","807.7999999970198","img/land5.png","74","813.2000000029802","1","1","1","2","0.8,0.2,0.2,0.2,0.8,0.2,0.2,0.2,0.8","0.2,0.8,0.2,0.2,0.2,0.8,0.8,0.2,0.2","3","",""
"","html-keyboard-response","220","152769","0.0-220.0","3RYC5T2D74F2225U9D2NOPR6KS6PRF","A33Z6BHAJUGCHY","382GHPVPHSDM8N0F9141EAH7F0K34Z","","null","<img src=""img/land5.png"" style=""width:200px; border:14px solid green;"">","null","","","","","","","","","",""
"","image-keyboard-response","221","153239","0.0-221.0","3RYC5T2D74F2225U9D2NOPR6KS6PRF","A33Z6BHAJUGCHY","382GHPVPHSDM8N0F9141EAH7F0K34Z","","461.5","img/land1.png","74","467.90000000596046","1","1","2","2","0.8,0.2,0.2,0.2,0.8,0.2,0.2,0.2,0.8","0.2,0.8,0.2,0.2,0.2,0.8,0.8,0.2,0.2","3","",""
"","html-keyboard-response","222","153545","0.0-222.0","3RYC5T2D74F2225U9D2NOPR6KS6PRF","A33Z6BHAJUGCHY","382GHPVPHSDM8N0F9141EAH7F0K34Z","","null","<img src=""img/land1.png"" style=""width:200px; border:14px solid green;"">","null","","","","","","","","","",""
"","image-keyboard-response","223","153914","0.0-223.0","3RYC5T2D74F2225U9D2NOPR6KS6PRF","A33Z6BHAJUGCHY","382GHPVPHSDM8N0F9141EAH7F0K34Z","","364.40000000596046","img/land1.png","74","369","1","0","2","2","0.8,0.2,0.2,0.2,0.8,0.2,0.2,0.2,0.8","0.2,0.8,0.2,0.2,0.2,0.8,0.8,0.2,0.2","3","",""
"","html-keyboard-response","224","154223","0.0-224.0","3RYC5T2D74F2225U9D2NOPR6KS6PRF","A33Z6BHAJUGCHY","382GHPVPHSDM8N0F9141EAH7F0K34Z","","null","<img src=""img/land1.png"" style=""width:200px;border:14px solid red;"">","null","","","","","","","","","",""
"","image-keyboard-response","225","154664","0.0-225.0","3RYC5T2D74F2225U9D2NOPR6KS6PRF","A33Z6BHAJUGCHY","382GHPVPHSDM8N0F9141EAH7F0K34Z","","433.5","img/land5.png","74","439.79999999701977","1","0","1","2","0.8,0.2,0.2,0.2,0.8,0.2,0.2,0.2,0.8","0.2,0.8,0.2,0.2,0.2,0.8,0.8,0.2,0.2","3","",""
"","html-keyboard-response","226","154971","0.0-226.0","3RYC5T2D74F2225U9D2NOPR6KS6PRF","A33Z6BHAJUGCHY","382GHPVPHSDM8N0F9141EAH7F0K34Z","","null","<img src=""img/land5.png"" style=""width:200px;border:14px solid red;"">","null","","","","","","","","","",""
"","image-keyboard-response","227","155525","0.0-227.0","3RYC5T2D74F2225U9D2NOPR6KS6PRF","A33Z6BHAJUGCHY","382GHPVPHSDM8N0F9141EAH7F0K34Z","","545.9000000059605","img/land5.png","76","551.9000000059605","3","0","1","2","0.8,0.2,0.2,0.2,0.8,0.2,0.2,0.2,0.8","0.2,0.8,0.2,0.2,0.2,0.8,0.8,0.2,0.2","3","",""
"","html-keyboard-response","228","155831","0.0-228.0","3RYC5T2D74F2225U9D2NOPR6KS6PRF","A33Z6BHAJUGCHY","382GHPVPHSDM8N0F9141EAH7F0K34Z","","null","<img src=""img/land5.png"" style=""width:200px;border:14px solid red;"">","null","","","","","","","","","",""
"","image-keyboard-response","229","156233","0.0-229.0","3RYC5T2D74F2225U9D2NOPR6KS6PRF","A33Z6BHAJUGCHY","382GHPVPHSDM8N0F9141EAH7F0K34Z","","396.09999999403954","img/land5.png","74","401.1000000089407","1","0","1","2","0.8,0.2,0.2,0.2,0.8,0.2,0.2,0.2,0.8","0.2,0.8,0.2,0.2,0.2,0.8,0.8,0.2,0.2","3","",""
"","html-keyboard-response","230","156540","0.0-230.0","3RYC5T2D74F2225U9D2NOPR6KS6PRF","A33Z6BHAJUGCHY","382GHPVPHSDM8N0F9141EAH7F0K34Z","","null","<img src=""img/land5.png"" style=""width:200px;border:14px solid red;"">","null","","","","","","","","","",""
"","image-keyboard-response","231","156907","0.0-231.0","3RYC5T2D74F2225U9D2NOPR6KS6PRF","A33Z6BHAJUGCHY","382GHPVPHSDM8N0F9141EAH7F0K34Z","","361.70000000298023","img/land5.png","75","366.69999998807907","2","0","1","2","0.8,0.2,0.2,0.2,0.8,0.2,0.2,0.2,0.8","0.2,0.8,0.2,0.2,0.2,0.8,0.8,0.2,0.2","3","",""
"","html-keyboard-response","232","157216","0.0-232.0","3RYC5T2D74F2225U9D2NOPR6KS6PRF","A33Z6BHAJUGCHY","382GHPVPHSDM8N0F9141EAH7F0K34Z","","null","<img src=""img/land5.png"" style=""width:200px;border:14px solid red;"">","null","","","","","","","","","",""
"","image-keyboard-response","233","157618","0.0-233.0","3RYC5T2D74F2225U9D2NOPR6KS6PRF","A33Z6BHAJUGCHY","382GHPVPHSDM8N0F9141EAH7F0K34Z","","396.20000000298023","img/land5.png","74","400.79999999701977","1","0","1","2","0.8,0.2,0.2,0.2,0.8,0.2,0.2,0.2,0.8","0.2,0.8,0.2,0.2,0.2,0.8,0.8,0.2,0.2","3","",""
"","html-keyboard-response","234","157925","0.0-234.0","3RYC5T2D74F2225U9D2NOPR6KS6PRF","A33Z6BHAJUGCHY","382GHPVPHSDM8N0F9141EAH7F0K34Z","","null","<img src=""img/land5.png"" style=""width:200px;border:14px solid red;"">","null","","","","","","","","","",""
"","image-keyboard-response","235","158166","0.0-235.0","3RYC5T2D74F2225U9D2NOPR6KS6PRF","A33Z6BHAJUGCHY","382GHPVPHSDM8N0F9141EAH7F0K34Z","","231.20000000298023","img/land5.png","76","238.90000000596046","3","0","1","2","0.8,0.2,0.2,0.2,0.8,0.2,0.2,0.2,0.8","0.2,0.8,0.2,0.2,0.2,0.8,0.8,0.2,0.2","3","",""
"","html-keyboard-response","236","158471","0.0-236.0","3RYC5T2D74F2225U9D2NOPR6KS6PRF","A33Z6BHAJUGCHY","382GHPVPHSDM8N0F9141EAH7F0K34Z","","null","<img src=""img/land5.png"" style=""width:200px;border:14px solid red;"">","null","","","","","","","","","",""
"","image-keyboard-response","237","159188","0.0-237.0","3RYC5T2D74F2225U9D2NOPR6KS6PRF","A33Z6BHAJUGCHY","382GHPVPHSDM8N0F9141EAH7F0K34Z","","709.2999999970198","img/land1.png","75","715.4000000059605","2","0","2","2","0.8,0.2,0.2,0.2,0.8,0.2,0.2,0.2,0.8","0.2,0.8,0.2,0.2,0.2,0.8,0.8,0.2,0.2","3","",""
"","html-keyboard-response","238","159495","0.0-238.0","3RYC5T2D74F2225U9D2NOPR6KS6PRF","A33Z6BHAJUGCHY","382GHPVPHSDM8N0F9141EAH7F0K34Z","","null","<img src=""img/land1.png"" style=""width:200px;border:14px solid red;"">","null","","","","","","","","","",""
"","image-keyboard-response","239","159576","0.0-239.0","3RYC5T2D74F2225U9D2NOPR6KS6PRF","A33Z6BHAJUGCHY","382GHPVPHSDM8N0F9141EAH7F0K34Z","","75.1000000089407","img/land5.png","74","79.40000000596046","1","0","1","2","0.8,0.2,0.2,0.2,0.8,0.2,0.2,0.2,0.8","0.2,0.8,0.2,0.2,0.2,0.8,0.8,0.2,0.2","3","",""
"","html-keyboard-response","240","159880","0.0-240.0","3RYC5T2D74F2225U9D2NOPR6KS6PRF","A33Z6BHAJUGCHY","382GHPVPHSDM8N0F9141EAH7F0K34Z","","null","<img src=""img/land5.png"" style=""width:200px;border:14px solid red;"">","null","","","","","","","","","",""
"","image-keyboard-response","241","160129","0.0-241.0","3RYC5T2D74F2225U9D2NOPR6KS6PRF","A33Z6BHAJUGCHY","382GHPVPHSDM8N0F9141EAH7F0K34Z","","243","img/land5.png","74","248.1000000089407","1","0","1","2","0.8,0.2,0.2,0.2,0.8,0.2,0.2,0.2,0.8","0.2,0.8,0.2,0.2,0.2,0.8,0.8,0.2,0.2","3","",""
"","html-keyboard-response","242","160436","0.0-242.0","3RYC5T2D74F2225U9D2NOPR6KS6PRF","A33Z6BHAJUGCHY","382GHPVPHSDM8N0F9141EAH7F0K34Z","","null","<img src=""img/land5.png"" style=""width:200px;border:14px solid red;"">","null","","","","","","","","","",""
"","image-keyboard-response","243","160709","0.0-243.0","3RYC5T2D74F2225U9D2NOPR6KS6PRF","A33Z6BHAJUGCHY","382GHPVPHSDM8N0F9141EAH7F0K34Z","","264.59999999403954","img/land5.png","75","271.59999999403954","2","1","1","2","0.8,0.2,0.2,0.2,0.8,0.2,0.2,0.2,0.8","0.2,0.8,0.2,0.2,0.2,0.8,0.8,0.2,0.2","3","",""
"","html-keyboard-response","244","161017","0.0-244.0","3RYC5T2D74F2225U9D2NOPR6KS6PRF","A33Z6BHAJUGCHY","382GHPVPHSDM8N0F9141EAH7F0K34Z","","null","<img src=""img/land5.png"" style=""width:200px; border:14px solid green;"">","null","","","","","","","","","",""
"","image-keyboard-response","245","161226","0.0-245.0","3RYC5T2D74F2225U9D2NOPR6KS6PRF","A33Z6BHAJUGCHY","382GHPVPHSDM8N0F9141EAH7F0K34Z","","202","img/land3.png","75","208","2","0","3","2","0.8,0.2,0.2,0.2,0.8,0.2,0.2,0.2,0.8","0.2,0.8,0.2,0.2,0.2,0.8,0.8,0.2,0.2","3","",""
"","html-keyboard-response","246","161531","0.0-246.0","3RYC5T2D74F2225U9D2NOPR6KS6PRF","A33Z6BHAJUGCHY","382GHPVPHSDM8N0F9141EAH7F0K34Z","","null","<img src=""img/land3.png"" style=""width:200px;border:14px solid red;"">","null","","","","","","","","","",""
"","image-keyboard-response","247","162370","0.0-247.0","3RYC5T2D74F2225U9D2NOPR6KS6PRF","A33Z6BHAJUGCHY","382GHPVPHSDM8N0F9141EAH7F0K34Z","","833.9000000059605","img/land1.png","75","839.3999999910593","2","1","2","2","0.8,0.2,0.2,0.2,0.8,0.2,0.2,0.2,0.8","0.2,0.8,0.2,0.2,0.2,0.8,0.8,0.2,0.2","3","",""
"","html-keyboard-response","248","162677","0.0-248.0","3RYC5T2D74F2225U9D2NOPR6KS6PRF","A33Z6BHAJUGCHY","382GHPVPHSDM8N0F9141EAH7F0K34Z","","null","<img src=""img/land1.png"" style=""width:200px; border:14px solid green;"">","null","","","","","","","","","",""
"","image-keyboard-response","249","163360","0.0-249.0","3RYC5T2D74F2225U9D2NOPR6KS6PRF","A33Z6BHAJUGCHY","382GHPVPHSDM8N0F9141EAH7F0K34Z","","673.3000000119209","img/land5.png","75","681.0999999940395","2","1","1","2","0.8,0.2,0.2,0.2,0.8,0.2,0.2,0.2,0.8","0.2,0.8,0.2,0.2,0.2,0.8,0.8,0.2,0.2","3","",""
"","html-keyboard-response","250","163664","0.0-250.0","3RYC5T2D74F2225U9D2NOPR6KS6PRF","A33Z6BHAJUGCHY","382GHPVPHSDM8N0F9141EAH7F0K34Z","","null","<img src=""img/land5.png"" style=""width:200px; border:14px solid green;"">","null","","","","","","","","","",""
"","image-keyboard-response","251","164001","0.0-251.0","3RYC5T2D74F2225U9D2NOPR6KS6PRF","A33Z6BHAJUGCHY","382GHPVPHSDM8N0F9141EAH7F0K34Z","","330","img/land5.png","75","336.3999999910593","2","1","1","2","0.8,0.2,0.2,0.2,0.8,0.2,0.2,0.2,0.8","0.2,0.8,0.2,0.2,0.2,0.8,0.8,0.2,0.2","3","",""
"","html-keyboard-response","252","164309","0.0-252.0","3RYC5T2D74F2225U9D2NOPR6KS6PRF","A33Z6BHAJUGCHY","382GHPVPHSDM8N0F9141EAH7F0K34Z","","null","<img src=""img/land5.png"" style=""width:200px; border:14px solid green;"">","null","","","","","","","","","",""
"","image-keyboard-response","253","164985","0.0-253.0","3RYC5T2D74F2225U9D2NOPR6KS6PRF","A33Z6BHAJUGCHY","382GHPVPHSDM8N0F9141EAH7F0K34Z","","667.4000000059605","img/land3.png","74","673.8999999910593","1","1","3","2","0.8,0.2,0.2,0.2,0.8,0.2,0.2,0.2,0.8","0.2,0.8,0.2,0.2,0.2,0.8,0.8,0.2,0.2","3","",""
"","html-keyboard-response","254","165292","0.0-254.0","3RYC5T2D74F2225U9D2NOPR6KS6PRF","A33Z6BHAJUGCHY","382GHPVPHSDM8N0F9141EAH7F0K34Z","","null","<img src=""img/land3.png"" style=""width:200px; border:14px solid green;"">","null","","","","","","","","","",""
"","image-keyboard-response","255","165794","0.0-255.0","3RYC5T2D74F2225U9D2NOPR6KS6PRF","A33Z6BHAJUGCHY","382GHPVPHSDM8N0F9141EAH7F0K34Z","","496","img/land5.png","75","500.5","2","1","1","2","0.8,0.2,0.2,0.2,0.8,0.2,0.2,0.2,0.8","0.2,0.8,0.2,0.2,0.2,0.8,0.8,0.2,0.2","3","",""
"","html-keyboard-response","256","166103","0.0-256.0","3RYC5T2D74F2225U9D2NOPR6KS6PRF","A33Z6BHAJUGCHY","382GHPVPHSDM8N0F9141EAH7F0K34Z","","null","<img src=""img/land5.png"" style=""width:200px; border:14px solid green;"">","null","","","","","","","","","",""
"","image-keyboard-response","257","166413","0.0-257.0","3RYC5T2D74F2225U9D2NOPR6KS6PRF","A33Z6BHAJUGCHY","382GHPVPHSDM8N0F9141EAH7F0K34Z","","302.3999999910593","img/land5.png","75","309","2","1","1","2","0.8,0.2,0.2,0.2,0.8,0.2,0.2,0.2,0.8","0.2,0.8,0.2,0.2,0.2,0.8,0.8,0.2,0.2","3","",""
"","html-keyboard-response","258","166720","0.0-258.0","3RYC5T2D74F2225U9D2NOPR6KS6PRF","A33Z6BHAJUGCHY","382GHPVPHSDM8N0F9141EAH7F0K34Z","","null","<img src=""img/land5.png"" style=""width:200px; border:14px solid green;"">","null","","","","","","","","","",""
"","image-keyboard-response","259","167060","0.0-259.0","3RYC5T2D74F2225U9D2NOPR6KS6PRF","A33Z6BHAJUGCHY","382GHPVPHSDM8N0F9141EAH7F0K34Z","","333.20000000298023","img/land5.png","75","338.79999999701977","2","1","1","2","0.8,0.2,0.2,0.2,0.8,0.2,0.2,0.2,0.8","0.2,0.8,0.2,0.2,0.2,0.8,0.8,0.2,0.2","3","",""
"","html-keyboard-response","260","167367","0.0-260.0","3RYC5T2D74F2225U9D2NOPR6KS6PRF","A33Z6BHAJUGCHY","382GHPVPHSDM8N0F9141EAH7F0K34Z","","null","<img src=""img/land5.png"" style=""width:200px; border:14px solid green;"">","null","","","","","","","","","",""
"","image-keyboard-response","261","167646","0.0-261.0","3RYC5T2D74F2225U9D2NOPR6KS6PRF","A33Z6BHAJUGCHY","382GHPVPHSDM8N0F9141EAH7F0K34Z","","274.3999999910593","img/land5.png","75","278","2","1","1","2","0.8,0.2,0.2,0.2,0.8,0.2,0.2,0.2,0.8","0.2,0.8,0.2,0.2,0.2,0.8,0.8,0.2,0.2","3","",""
"","html-keyboard-response","262","167952","0.0-262.0","3RYC5T2D74F2225U9D2NOPR6KS6PRF","A33Z6BHAJUGCHY","382GHPVPHSDM8N0F9141EAH7F0K34Z","","null","<img src=""img/land5.png"" style=""width:200px; border:14px solid green;"">","null","","","","","","","","","",""
"","image-keyboard-response","263","168264","0.0-263.0","3RYC5T2D74F2225U9D2NOPR6KS6PRF","A33Z6BHAJUGCHY","382GHPVPHSDM8N0F9141EAH7F0K34Z","","305.8999999910593","img/land5.png","75","310.70000000298023","2","1","1","2","0.8,0.2,0.2,0.2,0.8,0.2,0.2,0.2,0.8","0.2,0.8,0.2,0.2,0.2,0.8,0.8,0.2,0.2","3","",""
"","html-keyboard-response","264","168571","0.0-264.0","3RYC5T2D74F2225U9D2NOPR6KS6PRF","A33Z6BHAJUGCHY","382GHPVPHSDM8N0F9141EAH7F0K34Z","","null","<img src=""img/land5.png"" style=""width:200px; border:14px solid green;"">","null","","","","","","","","","",""
"","image-keyboard-response","265","168817","0.0-265.0","3RYC5T2D74F2225U9D2NOPR6KS6PRF","A33Z6BHAJUGCHY","382GHPVPHSDM8N0F9141EAH7F0K34Z","","236.8999999910593","img/land5.png","75","244.30000001192093","2","1","1","2","0.8,0.2,0.2,0.2,0.8,0.2,0.2,0.2,0.8","0.2,0.8,0.2,0.2,0.2,0.8,0.8,0.2,0.2","3","",""
"","html-keyboard-response","266","169126","0.0-266.0","3RYC5T2D74F2225U9D2NOPR6KS6PRF","A33Z6BHAJUGCHY","382GHPVPHSDM8N0F9141EAH7F0K34Z","","null","<img src=""img/land5.png"" style=""width:200px; border:14px solid green;"">","null","","","","","","","","","",""
"","image-keyboard-response","267","169623","0.0-267.0","3RYC5T2D74F2225U9D2NOPR6KS6PRF","A33Z6BHAJUGCHY","382GHPVPHSDM8N0F9141EAH7F0K34Z","","488.70000000298023","img/land1.png","75","494.8999999910593","2","0","2","2","0.8,0.2,0.2,0.2,0.8,0.2,0.2,0.2,0.8","0.2,0.8,0.2,0.2,0.2,0.8,0.8,0.2,0.2","3","",""
"","html-keyboard-response","268","169930","0.0-268.0","3RYC5T2D74F2225U9D2NOPR6KS6PRF","A33Z6BHAJUGCHY","382GHPVPHSDM8N0F9141EAH7F0K34Z","","null","<img src=""img/land1.png"" style=""width:200px;border:14px solid red;"">","null","","","","","","","","","",""
"","image-keyboard-response","269","170589","0.0-269.0","3RYC5T2D74F2225U9D2NOPR6KS6PRF","A33Z6BHAJUGCHY","382GHPVPHSDM8N0F9141EAH7F0K34Z","","651.7999999970198","img/land5.png","75","657.5","2","1","1","2","0.8,0.2,0.2,0.2,0.8,0.2,0.2,0.2,0.8","0.2,0.8,0.2,0.2,0.2,0.8,0.8,0.2,0.2","3","",""
"","html-keyboard-response","270","170895","0.0-270.0","3RYC5T2D74F2225U9D2NOPR6KS6PRF","A33Z6BHAJUGCHY","382GHPVPHSDM8N0F9141EAH7F0K34Z","","null","<img src=""img/land5.png"" style=""width:200px; border:14px solid green;"">","null","","","","","","","","","",""
"","image-keyboard-response","271","171432","0.0-271.0","3RYC5T2D74F2225U9D2NOPR6KS6PRF","A33Z6BHAJUGCHY","382GHPVPHSDM8N0F9141EAH7F0K34Z","","529.1999999880791","img/land3.png","74","535.4000000059605","1","0","3","2","0.8,0.2,0.2,0.2,0.8,0.2,0.2,0.2,0.8","0.2,0.8,0.2,0.2,0.2,0.8,0.8,0.2,0.2","3","",""
"","html-keyboard-response","272","171737","0.0-272.0","3RYC5T2D74F2225U9D2NOPR6KS6PRF","A33Z6BHAJUGCHY","382GHPVPHSDM8N0F9141EAH7F0K34Z","","null","<img src=""img/land3.png"" style=""width:200px;border:14px solid red;"">","null","","","","","","","","","",""
"","image-keyboard-response","273","172079","0.0-273.0","3RYC5T2D74F2225U9D2NOPR6KS6PRF","A33Z6BHAJUGCHY","382GHPVPHSDM8N0F9141EAH7F0K34Z","","333.1000000089407","img/land3.png","74","340.5","1","0","3","2","0.8,0.2,0.2,0.2,0.8,0.2,0.2,0.2,0.8","0.2,0.8,0.2,0.2,0.2,0.8,0.8,0.2,0.2","3","",""
"","html-keyboard-response","274","172388","0.0-274.0","3RYC5T2D74F2225U9D2NOPR6KS6PRF","A33Z6BHAJUGCHY","382GHPVPHSDM8N0F9141EAH7F0K34Z","","null","<img src=""img/land3.png"" style=""width:200px;border:14px solid red;"">","null","","","","","","","","","",""
"","image-keyboard-response","275","172765","0.0-275.0","3RYC5T2D74F2225U9D2NOPR6KS6PRF","A33Z6BHAJUGCHY","382GHPVPHSDM8N0F9141EAH7F0K34Z","","367.5","img/land3.png","74","375.3999999910593","1","1","3","2","0.8,0.2,0.2,0.2,0.8,0.2,0.2,0.2,0.8","0.2,0.8,0.2,0.2,0.2,0.8,0.8,0.2,0.2","3","",""
"","html-keyboard-response","276","173073","0.0-276.0","3RYC5T2D74F2225U9D2NOPR6KS6PRF","A33Z6BHAJUGCHY","382GHPVPHSDM8N0F9141EAH7F0K34Z","","null","<img src=""img/land3.png"" style=""width:200px; border:14px solid green;"">","null","","","","","","","","","",""
"","image-keyboard-response","277","174021","0.0-277.0","3RYC5T2D74F2225U9D2NOPR6KS6PRF","A33Z6BHAJUGCHY","382GHPVPHSDM8N0F9141EAH7F0K34Z","","940.5","img/land5.png","75","947","2","1","1","2","0.8,0.2,0.2,0.2,0.8,0.2,0.2,0.2,0.8","0.2,0.8,0.2,0.2,0.2,0.8,0.8,0.2,0.2","3","",""
"","html-keyboard-response","278","174330","0.0-278.0","3RYC5T2D74F2225U9D2NOPR6KS6PRF","A33Z6BHAJUGCHY","382GHPVPHSDM8N0F9141EAH7F0K34Z","","null","<img src=""img/land5.png"" style=""width:200px; border:14px solid green;"">","null","","","","","","","","","",""
"","image-keyboard-response","279","174653","0.0-279.0","3RYC5T2D74F2225U9D2NOPR6KS6PRF","A33Z6BHAJUGCHY","382GHPVPHSDM8N0F9141EAH7F0K34Z","","315.70000000298023","img/land5.png","75","321.6000000089407","2","1","1","2","0.8,0.2,0.2,0.2,0.8,0.2,0.2,0.2,0.8","0.2,0.8,0.2,0.2,0.2,0.8,0.8,0.2,0.2","3","",""
"","html-keyboard-response","280","174962","0.0-280.0","3RYC5T2D74F2225U9D2NOPR6KS6PRF","A33Z6BHAJUGCHY","382GHPVPHSDM8N0F9141EAH7F0K34Z","","null","<img src=""img/land5.png"" style=""width:200px; border:14px solid green;"">","null","","","","","","","","","",""
"","image-keyboard-response","281","175266","0.0-281.0","3RYC5T2D74F2225U9D2NOPR6KS6PRF","A33Z6BHAJUGCHY","382GHPVPHSDM8N0F9141EAH7F0K34Z","","297","img/land5.png","75","303.20000000298023","2","1","1","2","0.8,0.2,0.2,0.2,0.8,0.2,0.2,0.2,0.8","0.2,0.8,0.2,0.2,0.2,0.8,0.8,0.2,0.2","3","",""
"","html-keyboard-response","282","175573","0.0-282.0","3RYC5T2D74F2225U9D2NOPR6KS6PRF","A33Z6BHAJUGCHY","382GHPVPHSDM8N0F9141EAH7F0K34Z","","null","<img src=""img/land5.png"" style=""width:200px; border:14px solid green;"">","null","","","","","","","","","",""
"","image-keyboard-response","283","176183","0.0-283.0","3RYC5T2D74F2225U9D2NOPR6KS6PRF","A33Z6BHAJUGCHY","382GHPVPHSDM8N0F9141EAH7F0K34Z","","604.9000000059605","img/land3.png","74","609.5","1","0","3","2","0.8,0.2,0.2,0.2,0.8,0.2,0.2,0.2,0.8","0.2,0.8,0.2,0.2,0.2,0.8,0.8,0.2,0.2","3","",""
"","html-keyboard-response","284","176490","0.0-284.0","3RYC5T2D74F2225U9D2NOPR6KS6PRF","A33Z6BHAJUGCHY","382GHPVPHSDM8N0F9141EAH7F0K34Z","","null","<img src=""img/land3.png"" style=""width:200px;border:14px solid red;"">","null","","","","","","","","","",""
"","image-keyboard-response","285","176996","0.0-285.0","3RYC5T2D74F2225U9D2NOPR6KS6PRF","A33Z6BHAJUGCHY","382GHPVPHSDM8N0F9141EAH7F0K34Z","","497","img/land5.png","75","505","2","1","1","2","0.8,0.2,0.2,0.2,0.8,0.2,0.2,0.2,0.8","0.2,0.8,0.2,0.2,0.2,0.8,0.8,0.2,0.2","3","",""
"","html-keyboard-response","286","177303","0.0-286.0","3RYC5T2D74F2225U9D2NOPR6KS6PRF","A33Z6BHAJUGCHY","382GHPVPHSDM8N0F9141EAH7F0K34Z","","null","<img src=""img/land5.png"" style=""width:200px; border:14px solid green;"">","null","","","","","","","","","",""
"","image-keyboard-response","287","177642","0.0-287.0","3RYC5T2D74F2225U9D2NOPR6KS6PRF","A33Z6BHAJUGCHY","382GHPVPHSDM8N0F9141EAH7F0K34Z","","334.79999999701977","img/land5.png","75","338.59999999403954","2","1","1","2","0.8,0.2,0.2,0.2,0.8,0.2,0.2,0.2,0.8","0.2,0.8,0.2,0.2,0.2,0.8,0.8,0.2,0.2","3","",""
"","html-keyboard-response","288","177948","0.0-288.0","3RYC5T2D74F2225U9D2NOPR6KS6PRF","A33Z6BHAJUGCHY","382GHPVPHSDM8N0F9141EAH7F0K34Z","","null","<img src=""img/land5.png"" style=""width:200px; border:14px solid green;"">","null","","","","","","","","","",""
"","image-keyboard-response","289","178266","0.0-289.0","3RYC5T2D74F2225U9D2NOPR6KS6PRF","A33Z6BHAJUGCHY","382GHPVPHSDM8N0F9141EAH7F0K34Z","","309.20000000298023","img/land5.png","75","315.8999999910593","2","0","1","2","0.8,0.2,0.2,0.2,0.8,0.2,0.2,0.2,0.8","0.2,0.8,0.2,0.2,0.2,0.8,0.8,0.2,0.2","3","",""
"","html-keyboard-response","290","178571","0.0-290.0","3RYC5T2D74F2225U9D2NOPR6KS6PRF","A33Z6BHAJUGCHY","382GHPVPHSDM8N0F9141EAH7F0K34Z","","null","<img src=""img/land5.png"" style=""width:200px;border:14px solid red;"">","null","","","","","","","","","",""
"","image-keyboard-response","291","179331","0.0-291.0","3RYC5T2D74F2225U9D2NOPR6KS6PRF","A33Z6BHAJUGCHY","382GHPVPHSDM8N0F9141EAH7F0K34Z","","754.7999999970198","img/land1.png","74","759.0999999940395","1","0","2","2","0.8,0.2,0.2,0.2,0.8,0.2,0.2,0.2,0.8","0.2,0.8,0.2,0.2,0.2,0.8,0.8,0.2,0.2","3","",""
"","html-keyboard-response","292","179635","0.0-292.0","3RYC5T2D74F2225U9D2NOPR6KS6PRF","A33Z6BHAJUGCHY","382GHPVPHSDM8N0F9141EAH7F0K34Z","","null","<img src=""img/land1.png"" style=""width:200px;border:14px solid red;"">","null","","","","","","","","","",""
"","image-keyboard-response","293","180418","0.0-293.0","3RYC5T2D74F2225U9D2NOPR6KS6PRF","A33Z6BHAJUGCHY","382GHPVPHSDM8N0F9141EAH7F0K34Z","","777.7999999970198","img/land3.png","74","783.2000000029802","1","1","3","2","0.8,0.2,0.2,0.2,0.8,0.2,0.2,0.2,0.8","0.2,0.8,0.2,0.2,0.2,0.8,0.8,0.2,0.2","3","",""
"","html-keyboard-response","294","180725","0.0-294.0","3RYC5T2D74F2225U9D2NOPR6KS6PRF","A33Z6BHAJUGCHY","382GHPVPHSDM8N0F9141EAH7F0K34Z","","null","<img src=""img/land3.png"" style=""width:200px; border:14px solid green;"">","null","","","","","","","","","",""
"","image-keyboard-response","295","181043","0.0-295.0","3RYC5T2D74F2225U9D2NOPR6KS6PRF","A33Z6BHAJUGCHY","382GHPVPHSDM8N0F9141EAH7F0K34Z","","311.20000000298023","img/land3.png","74","316.59999999403954","1","1","3","2","0.8,0.2,0.2,0.2,0.8,0.2,0.2,0.2,0.8","0.2,0.8,0.2,0.2,0.2,0.8,0.8,0.2,0.2","3","",""
"","html-keyboard-response","296","181351","0.0-296.0","3RYC5T2D74F2225U9D2NOPR6KS6PRF","A33Z6BHAJUGCHY","382GHPVPHSDM8N0F9141EAH7F0K34Z","","null","<img src=""img/land3.png"" style=""width:200px; border:14px solid green;"">","null","","","","","","","","","",""
"","image-keyboard-response","297","182129","0.0-297.0","3RYC5T2D74F2225U9D2NOPR6KS6PRF","A33Z6BHAJUGCHY","382GHPVPHSDM8N0F9141EAH7F0K34Z","","774.2000000029802","img/land5.png","75","778.6000000089407","2","1","1","2","0.8,0.2,0.2,0.2,0.8,0.2,0.2,0.2,0.8","0.2,0.8,0.2,0.2,0.2,0.8,0.8,0.2,0.2","3","",""
"","html-keyboard-response","298","182437","0.0-298.0","3RYC5T2D74F2225U9D2NOPR6KS6PRF","A33Z6BHAJUGCHY","382GHPVPHSDM8N0F9141EAH7F0K34Z","","null","<img src=""img/land5.png"" style=""width:200px; border:14px solid green;"">","null","","","","","","","","","",""
"","image-keyboard-response","299","182723","0.0-299.0","3RYC5T2D74F2225U9D2NOPR6KS6PRF","A33Z6BHAJUGCHY","382GHPVPHSDM8N0F9141EAH7F0K34Z","","278.29999999701977","img/land5.png","75","284.90000000596046","2","1","1","2","0.8,0.2,0.2,0.2,0.8,0.2,0.2,0.2,0.8","0.2,0.8,0.2,0.2,0.2,0.8,0.8,0.2,0.2","3","",""
"","html-keyboard-response","300","183034","0.0-300.0","3RYC5T2D74F2225U9D2NOPR6KS6PRF","A33Z6BHAJUGCHY","382GHPVPHSDM8N0F9141EAH7F0K34Z","","null","<img src=""img/land5.png"" style=""width:200px; border:14px solid green;"">","null","","","","","","","","","",""
"","image-keyboard-response","301","183333","0.0-301.0","3RYC5T2D74F2225U9D2NOPR6KS6PRF","A33Z6BHAJUGCHY","382GHPVPHSDM8N0F9141EAH7F0K34Z","","290.79999999701977","img/land5.png","75","298.1000000089407","2","1","1","2","0.8,0.2,0.2,0.2,0.8,0.2,0.2,0.2,0.8","0.2,0.8,0.2,0.2,0.2,0.8,0.8,0.2,0.2","3","",""
"","html-keyboard-response","302","183638","0.0-302.0","3RYC5T2D74F2225U9D2NOPR6KS6PRF","A33Z6BHAJUGCHY","382GHPVPHSDM8N0F9141EAH7F0K34Z","","null","<img src=""img/land5.png"" style=""width:200px; border:14px solid green;"">","null","","","","","","","","","",""
"","image-keyboard-response","303","184237","0.0-303.0","3RYC5T2D74F2225U9D2NOPR6KS6PRF","A33Z6BHAJUGCHY","382GHPVPHSDM8N0F9141EAH7F0K34Z","","593.2999999970198","img/land3.png","74","598.7999999970198","1","1","3","2","0.8,0.2,0.2,0.2,0.8,0.2,0.2,0.2,0.8","0.2,0.8,0.2,0.2,0.2,0.8,0.8,0.2,0.2","3","",""
"","html-keyboard-response","304","184543","0.0-304.0","3RYC5T2D74F2225U9D2NOPR6KS6PRF","A33Z6BHAJUGCHY","382GHPVPHSDM8N0F9141EAH7F0K34Z","","null","<img src=""img/land3.png"" style=""width:200px; border:14px solid green;"">","null","","","","","","","","","",""
"","image-keyboard-response","305","185373","0.0-305.0","3RYC5T2D74F2225U9D2NOPR6KS6PRF","A33Z6BHAJUGCHY","382GHPVPHSDM8N0F9141EAH7F0K34Z","","821.2000000029802","img/land5.png","74","827.7000000029802","1","0","1","2","0.8,0.2,0.2,0.2,0.8,0.2,0.2,0.2,0.8","0.2,0.8,0.2,0.2,0.2,0.8,0.8,0.2,0.2","3","",""
"","html-keyboard-response","306","185677","0.0-306.0","3RYC5T2D74F2225U9D2NOPR6KS6PRF","A33Z6BHAJUGCHY","382GHPVPHSDM8N0F9141EAH7F0K34Z","","null","<img src=""img/land5.png"" style=""width:200px;border:14px solid red;"">","null","","","","","","","","","",""
"","image-keyboard-response","307","186061","0.0-307.0","3RYC5T2D74F2225U9D2NOPR6KS6PRF","A33Z6BHAJUGCHY","382GHPVPHSDM8N0F9141EAH7F0K34Z","","379.40000000596046","img/land5.png","75","383.5","2","1","1","2","0.8,0.2,0.2,0.2,0.8,0.2,0.2,0.2,0.8","0.2,0.8,0.2,0.2,0.2,0.8,0.8,0.2,0.2","3","",""
"","html-keyboard-response","308","186368","0.0-308.0","3RYC5T2D74F2225U9D2NOPR6KS6PRF","A33Z6BHAJUGCHY","382GHPVPHSDM8N0F9141EAH7F0K34Z","","null","<img src=""img/land5.png"" style=""width:200px; border:14px solid green;"">","null","","","","","","","","","",""
"","image-keyboard-response","309","186734","0.0-309.0","3RYC5T2D74F2225U9D2NOPR6KS6PRF","A33Z6BHAJUGCHY","382GHPVPHSDM8N0F9141EAH7F0K34Z","","357.20000000298023","img/land5.png","75","364.20000000298023","2","1","1","2","0.8,0.2,0.2,0.2,0.8,0.2,0.2,0.2,0.8","0.2,0.8,0.2,0.2,0.2,0.8,0.8,0.2,0.2","3","",""
"","html-keyboard-response","310","187041","0.0-310.0","3RYC5T2D74F2225U9D2NOPR6KS6PRF","A33Z6BHAJUGCHY","382GHPVPHSDM8N0F9141EAH7F0K34Z","","null","<img src=""img/land5.png"" style=""width:200px; border:14px solid green;"">","null","","","","","","","","","",""
"","image-keyboard-response","311","187661","0.0-311.0","3RYC5T2D74F2225U9D2NOPR6KS6PRF","A33Z6BHAJUGCHY","382GHPVPHSDM8N0F9141EAH7F0K34Z","","611","img/land3.png","74","617.4000000059605","1","1","3","2","0.8,0.2,0.2,0.2,0.8,0.2,0.2,0.2,0.8","0.2,0.8,0.2,0.2,0.2,0.8,0.8,0.2,0.2","3","",""
"","html-keyboard-response","312","187965","0.0-312.0","3RYC5T2D74F2225U9D2NOPR6KS6PRF","A33Z6BHAJUGCHY","382GHPVPHSDM8N0F9141EAH7F0K34Z","","null","<img src=""img/land3.png"" style=""width:200px; border:14px solid green;"">","null","","","","","","","","","",""
"","image-keyboard-response","313","188280","0.0-313.0","3RYC5T2D74F2225U9D2NOPR6KS6PRF","A33Z6BHAJUGCHY","382GHPVPHSDM8N0F9141EAH7F0K34Z","","307.5","img/land3.png","74","313.09999999403954","1","1","3","2","0.8,0.2,0.2,0.2,0.8,0.2,0.2,0.2,0.8","0.2,0.8,0.2,0.2,0.2,0.8,0.8,0.2,0.2","3","",""
"","html-keyboard-response","314","188586","0.0-314.0","3RYC5T2D74F2225U9D2NOPR6KS6PRF","A33Z6BHAJUGCHY","382GHPVPHSDM8N0F9141EAH7F0K34Z","","null","<img src=""img/land3.png"" style=""width:200px; border:14px solid green;"">","null","","","","","","","","","",""
"","image-keyboard-response","315","189372","0.0-315.0","3RYC5T2D74F2225U9D2NOPR6KS6PRF","A33Z6BHAJUGCHY","382GHPVPHSDM8N0F9141EAH7F0K34Z","","777.7999999970198","img/land5.png","75","783.2000000029802","2","1","1","2","0.8,0.2,0.2,0.2,0.8,0.2,0.2,0.2,0.8","0.2,0.8,0.2,0.2,0.2,0.8,0.8,0.2,0.2","3","",""
"","html-keyboard-response","316","189676","0.0-316.0","3RYC5T2D74F2225U9D2NOPR6KS6PRF","A33Z6BHAJUGCHY","382GHPVPHSDM8N0F9141EAH7F0K34Z","","null","<img src=""img/land5.png"" style=""width:200px; border:14px solid green;"">","null","","","","","","","","","",""
"","image-keyboard-response","317","189970","0.0-317.0","3RYC5T2D74F2225U9D2NOPR6KS6PRF","A33Z6BHAJUGCHY","382GHPVPHSDM8N0F9141EAH7F0K34Z","","287.40000000596046","img/land5.png","75","292.90000000596046","2","1","1","2","0.8,0.2,0.2,0.2,0.8,0.2,0.2,0.2,0.8","0.2,0.8,0.2,0.2,0.2,0.8,0.8,0.2,0.2","3","",""
"","html-keyboard-response","318","190279","0.0-318.0","3RYC5T2D74F2225U9D2NOPR6KS6PRF","A33Z6BHAJUGCHY","382GHPVPHSDM8N0F9141EAH7F0K34Z","","null","<img src=""img/land5.png"" style=""width:200px; border:14px solid green;"">","null","","","","","","","","","",""
"","image-keyboard-response","319","190586","0.0-319.0","3RYC5T2D74F2225U9D2NOPR6KS6PRF","A33Z6BHAJUGCHY","382GHPVPHSDM8N0F9141EAH7F0K34Z","","299.79999999701977","img/land5.png","75","305.70000000298023","2","0","1","2","0.8,0.2,0.2,0.2,0.8,0.2,0.2,0.2,0.8","0.2,0.8,0.2,0.2,0.2,0.8,0.8,0.2,0.2","3","",""
"","html-keyboard-response","320","190891","0.0-320.0","3RYC5T2D74F2225U9D2NOPR6KS6PRF","A33Z6BHAJUGCHY","382GHPVPHSDM8N0F9141EAH7F0K34Z","","null","<img src=""img/land5.png"" style=""width:200px;border:14px solid red;"">","null","","","","","","","","","",""
"","image-keyboard-response","321","191336","0.0-321.0","3RYC5T2D74F2225U9D2NOPR6KS6PRF","A33Z6BHAJUGCHY","382GHPVPHSDM8N0F9141EAH7F0K34Z","","437.29999999701977","img/land1.png","74","443.20000000298023","1","0","2","2","0.8,0.2,0.2,0.2,0.8,0.2,0.2,0.2,0.8","0.2,0.8,0.2,0.2,0.2,0.8,0.8,0.2,0.2","3","",""
"","html-keyboard-response","322","191640","0.0-322.0","3RYC5T2D74F2225U9D2NOPR6KS6PRF","A33Z6BHAJUGCHY","382GHPVPHSDM8N0F9141EAH7F0K34Z","","null","<img src=""img/land1.png"" style=""width:200px;border:14px solid red;"">","null","","","","","","","","","",""
"","image-keyboard-response","323","192165","0.0-323.0","3RYC5T2D74F2225U9D2NOPR6KS6PRF","A33Z6BHAJUGCHY","382GHPVPHSDM8N0F9141EAH7F0K34Z","","518.7999999970198","img/land5.png","75","524.2000000029802","2","0","1","2","0.8,0.2,0.2,0.2,0.8,0.2,0.2,0.2,0.8","0.2,0.8,0.2,0.2,0.2,0.8,0.8,0.2,0.2","3","",""
"","html-keyboard-response","324","192471","0.0-324.0","3RYC5T2D74F2225U9D2NOPR6KS6PRF","A33Z6BHAJUGCHY","382GHPVPHSDM8N0F9141EAH7F0K34Z","","null","<img src=""img/land5.png"" style=""width:200px;border:14px solid red;"">","null","","","","","","","","","",""
"","image-keyboard-response","325","192762","0.0-325.0","3RYC5T2D74F2225U9D2NOPR6KS6PRF","A33Z6BHAJUGCHY","382GHPVPHSDM8N0F9141EAH7F0K34Z","","282.70000000298023","img/land5.png","75","289.3999999910593","2","1","1","2","0.8,0.2,0.2,0.2,0.8,0.2,0.2,0.2,0.8","0.2,0.8,0.2,0.2,0.2,0.8,0.8,0.2,0.2","3","",""
"","html-keyboard-response","326","193069","0.0-326.0","3RYC5T2D74F2225U9D2NOPR6KS6PRF","A33Z6BHAJUGCHY","382GHPVPHSDM8N0F9141EAH7F0K34Z","","null","<img src=""img/land5.png"" style=""width:200px; border:14px solid green;"">","null","","","","","","","","","",""
"","image-keyboard-response","327","193528","0.0-327.0","3RYC5T2D74F2225U9D2NOPR6KS6PRF","A33Z6BHAJUGCHY","382GHPVPHSDM8N0F9141EAH7F0K34Z","","452.70000000298023","img/land5.png","75","457","2","1","1","2","0.8,0.2,0.2,0.2,0.8,0.2,0.2,0.2,0.8","0.2,0.8,0.2,0.2,0.2,0.8,0.8,0.2,0.2","3","",""
"","html-keyboard-response","328","193834","0.0-328.0","3RYC5T2D74F2225U9D2NOPR6KS6PRF","A33Z6BHAJUGCHY","382GHPVPHSDM8N0F9141EAH7F0K34Z","","null","<img src=""img/land5.png"" style=""width:200px; border:14px solid green;"">","null","","","","","","","","","",""
"","image-keyboard-response","329","194408","0.0-329.0","3RYC5T2D74F2225U9D2NOPR6KS6PRF","A33Z6BHAJUGCHY","382GHPVPHSDM8N0F9141EAH7F0K34Z","","565.8000000119209","img/land3.png","74","572.5999999940395","1","1","3","2","0.8,0.2,0.2,0.2,0.8,0.2,0.2,0.2,0.8","0.2,0.8,0.2,0.2,0.2,0.8,0.8,0.2,0.2","3","",""
"","html-keyboard-response","330","194716","0.0-330.0","3RYC5T2D74F2225U9D2NOPR6KS6PRF","A33Z6BHAJUGCHY","382GHPVPHSDM8N0F9141EAH7F0K34Z","","null","<img src=""img/land3.png"" style=""width:200px; border:14px solid green;"">","null","","","","","","","","","",""
"","image-keyboard-response","331","195625","0.0-331.0","3RYC5T2D74F2225U9D2NOPR6KS6PRF","A33Z6BHAJUGCHY","382GHPVPHSDM8N0F9141EAH7F0K34Z","","901.0999999940395","img/land1.png","75","906.8000000119209","2","0","2","2","0.8,0.2,0.2,0.2,0.8,0.2,0.2,0.2,0.8","0.2,0.8,0.2,0.2,0.2,0.8,0.8,0.2,0.2","3","",""
"","html-keyboard-response","332","195931","0.0-332.0","3RYC5T2D74F2225U9D2NOPR6KS6PRF","A33Z6BHAJUGCHY","382GHPVPHSDM8N0F9141EAH7F0K34Z","","null","<img src=""img/land1.png"" style=""width:200px;border:14px solid red;"">","null","","","","","","","","","",""
"","image-keyboard-response","333","196410","0.0-333.0","3RYC5T2D74F2225U9D2NOPR6KS6PRF","A33Z6BHAJUGCHY","382GHPVPHSDM8N0F9141EAH7F0K34Z","","469.79999999701977","img/land5.png","74","476.69999998807907","1","0","1","2","0.8,0.2,0.2,0.2,0.8,0.2,0.2,0.2,0.8","0.2,0.8,0.2,0.2,0.2,0.8,0.8,0.2,0.2","3","",""
"","html-keyboard-response","334","196718","0.0-334.0","3RYC5T2D74F2225U9D2NOPR6KS6PRF","A33Z6BHAJUGCHY","382GHPVPHSDM8N0F9141EAH7F0K34Z","","null","<img src=""img/land5.png"" style=""width:200px;border:14px solid red;"">","null","","","","","","","","","",""
"","image-keyboard-response","335","197087","0.0-335.0","3RYC5T2D74F2225U9D2NOPR6KS6PRF","A33Z6BHAJUGCHY","382GHPVPHSDM8N0F9141EAH7F0K34Z","","360.20000000298023","img/land5.png","75","367.8999999910593","2","1","1","2","0.8,0.2,0.2,0.2,0.8,0.2,0.2,0.2,0.8","0.2,0.8,0.2,0.2,0.2,0.8,0.8,0.2,0.2","3","",""
"","html-keyboard-response","336","197398","0.0-336.0","3RYC5T2D74F2225U9D2NOPR6KS6PRF","A33Z6BHAJUGCHY","382GHPVPHSDM8N0F9141EAH7F0K34Z","","null","<img src=""img/land5.png"" style=""width:200px; border:14px solid green;"">","null","","","","","","","","","",""
"","image-keyboard-response","337","198315","0.0-337.0","3RYC5T2D74F2225U9D2NOPR6KS6PRF","A33Z6BHAJUGCHY","382GHPVPHSDM8N0F9141EAH7F0K34Z","","912.7000000029802","img/land1.png","75","916.5","2","0","2","2","0.8,0.2,0.2,0.2,0.8,0.2,0.2,0.2,0.8","0.2,0.8,0.2,0.2,0.2,0.8,0.8,0.2,0.2","3","",""
"","html-keyboard-response","338","198620","0.0-338.0","3RYC5T2D74F2225U9D2NOPR6KS6PRF","A33Z6BHAJUGCHY","382GHPVPHSDM8N0F9141EAH7F0K34Z","","null","<img src=""img/land1.png"" style=""width:200px;border:14px solid red;"">","null","","","","","","","","","",""
"","image-keyboard-response","339","199201","0.0-339.0","3RYC5T2D74F2225U9D2NOPR6KS6PRF","A33Z6BHAJUGCHY","382GHPVPHSDM8N0F9141EAH7F0K34Z","","574.5","img/land3.png","74","580.2000000029802","1","1","3","2","0.8,0.2,0.2,0.2,0.8,0.2,0.2,0.2,0.8","0.2,0.8,0.2,0.2,0.2,0.8,0.8,0.2,0.2","3","",""
"","html-keyboard-response","340","199508","0.0-340.0","3RYC5T2D74F2225U9D2NOPR6KS6PRF","A33Z6BHAJUGCHY","382GHPVPHSDM8N0F9141EAH7F0K34Z","","null","<img src=""img/land3.png"" style=""width:200px; border:14px solid green;"">","null","","","","","","","","","",""
"","image-keyboard-response","341","199933","0.0-341.0","3RYC5T2D74F2225U9D2NOPR6KS6PRF","A33Z6BHAJUGCHY","382GHPVPHSDM8N0F9141EAH7F0K34Z","","418.6000000089407","img/land1.png","74","424.69999998807907","1","0","2","2","0.8,0.2,0.2,0.2,0.8,0.2,0.2,0.2,0.8","0.2,0.8,0.2,0.2,0.2,0.8,0.8,0.2,0.2","3","",""
"","html-keyboard-response","342","200239","0.0-342.0","3RYC5T2D74F2225U9D2NOPR6KS6PRF","A33Z6BHAJUGCHY","382GHPVPHSDM8N0F9141EAH7F0K34Z","","null","<img src=""img/land1.png"" style=""width:200px;border:14px solid red;"">","null","","","","","","","","","",""
"","image-keyboard-response","343","201273","0.0-343.0","3RYC5T2D74F2225U9D2NOPR6KS6PRF","A33Z6BHAJUGCHY","382GHPVPHSDM8N0F9141EAH7F0K34Z","","1025.7000000029802","img/land5.png","75","1032.2999999970198","2","0","1","2","0.8,0.2,0.2,0.2,0.8,0.2,0.2,0.2,0.8","0.2,0.8,0.2,0.2,0.2,0.8,0.8,0.2,0.2","3","",""
"","html-keyboard-response","344","201579","0.0-344.0","3RYC5T2D74F2225U9D2NOPR6KS6PRF","A33Z6BHAJUGCHY","382GHPVPHSDM8N0F9141EAH7F0K34Z","","null","<img src=""img/land5.png"" style=""width:200px;border:14px solid red;"">","null","","","","","","","","","",""
"","image-keyboard-response","345","201928","0.0-345.0","3RYC5T2D74F2225U9D2NOPR6KS6PRF","A33Z6BHAJUGCHY","382GHPVPHSDM8N0F9141EAH7F0K34Z","","342.59999999403954","img/land5.png","75","349.29999999701977","2","1","1","2","0.8,0.2,0.2,0.2,0.8,0.2,0.2,0.2,0.8","0.2,0.8,0.2,0.2,0.2,0.8,0.8,0.2,0.2","3","",""
"","html-keyboard-response","346","202235","0.0-346.0","3RYC5T2D74F2225U9D2NOPR6KS6PRF","A33Z6BHAJUGCHY","382GHPVPHSDM8N0F9141EAH7F0K34Z","","null","<img src=""img/land5.png"" style=""width:200px; border:14px solid green;"">","null","","","","","","","","","",""
"","image-keyboard-response","347","203065","0.0-347.0","3RYC5T2D74F2225U9D2NOPR6KS6PRF","A33Z6BHAJUGCHY","382GHPVPHSDM8N0F9141EAH7F0K34Z","","823.7999999970198","img/land1.png","76","829.2000000029802","3","1","2","2","0.8,0.2,0.2,0.2,0.8,0.2,0.2,0.2,0.8","0.2,0.8,0.2,0.2,0.2,0.8,0.8,0.2,0.2","3","",""
"","html-keyboard-response","348","203373","0.0-348.0","3RYC5T2D74F2225U9D2NOPR6KS6PRF","A33Z6BHAJUGCHY","382GHPVPHSDM8N0F9141EAH7F0K34Z","","null","<img src=""img/land1.png"" style=""width:200px; border:14px solid green;"">","null","","","","","","","","","",""
"","image-keyboard-response","349","204328","0.0-349.0","3RYC5T2D74F2225U9D2NOPR6KS6PRF","A33Z6BHAJUGCHY","382GHPVPHSDM8N0F9141EAH7F0K34Z","","949.5999999940395","img/land5.png","75","954.2999999970198","2","1","1","2","0.8,0.2,0.2,0.2,0.8,0.2,0.2,0.2,0.8","0.2,0.8,0.2,0.2,0.2,0.8,0.8,0.2,0.2","3","",""
"","html-keyboard-response","350","204636","0.0-350.0","3RYC5T2D74F2225U9D2NOPR6KS6PRF","A33Z6BHAJUGCHY","382GHPVPHSDM8N0F9141EAH7F0K34Z","","null","<img src=""img/land5.png"" style=""width:200px; border:14px solid green;"">","null","","","","","","","","","",""
"","image-keyboard-response","351","204939","0.0-351.0","3RYC5T2D74F2225U9D2NOPR6KS6PRF","A33Z6BHAJUGCHY","382GHPVPHSDM8N0F9141EAH7F0K34Z","","295.70000000298023","img/land5.png","75","301.8999999910593","2","1","1","2","0.8,0.2,0.2,0.2,0.8,0.2,0.2,0.2,0.8","0.2,0.8,0.2,0.2,0.2,0.8,0.8,0.2,0.2","3","",""
"","html-keyboard-response","352","205246","0.0-352.0","3RYC5T2D74F2225U9D2NOPR6KS6PRF","A33Z6BHAJUGCHY","382GHPVPHSDM8N0F9141EAH7F0K34Z","","null","<img src=""img/land5.png"" style=""width:200px; border:14px solid green;"">","null","","","","","","","","","",""
"","image-keyboard-response","353","205538","0.0-353.0","3RYC5T2D74F2225U9D2NOPR6KS6PRF","A33Z6BHAJUGCHY","382GHPVPHSDM8N0F9141EAH7F0K34Z","","285.29999999701977","img/land5.png","75","290.79999999701977","2","1","1","2","0.8,0.2,0.2,0.2,0.8,0.2,0.2,0.2,0.8","0.2,0.8,0.2,0.2,0.2,0.8,0.8,0.2,0.2","3","",""
"","html-keyboard-response","354","205843","0.0-354.0","3RYC5T2D74F2225U9D2NOPR6KS6PRF","A33Z6BHAJUGCHY","382GHPVPHSDM8N0F9141EAH7F0K34Z","","null","<img src=""img/land5.png"" style=""width:200px; border:14px solid green;"">","null","","","","","","","","","",""
