"success","trial_type","trial_index","time_elapsed","internal_node_id","assignmentID","mturkID","hitID","view_history","rt","stimulus","key_press","reactionTime","a","r","s","cond","reward_cond","reward_cond_actual","reward_matrix_idx","responses","question_order"
"true","fullscreen","0","24942","0.0-0.0","3WR9XG3T64X6VQZW2FCTGAPBSLT74M","A346UAH34GVOZX","30UZJB2POHY4464FN6NBJ2NLFWF354","","","","","","","","","","","","","",""
"","instructions","1","84303","0.0-1.0","3WR9XG3T64X6VQZW2FCTGAPBSLT74M","A346UAH34GVOZX","30UZJB2POHY4464FN6NBJ2NLFWF354","[{""page_index"":0,""viewing_time"":8291.5},{""page_index"":1,""viewing_time"":4640.10000038147},{""page_index"":2,""viewing_time"":4607.39999961853},{""page_index"":3,""viewing_time"":11913.5},{""page_index"":4,""viewing_time"":12573.5},{""page_index"":5,""viewing_time"":13485.300000190735},{""page_index"":6,""viewing_time"":3847.0999999046326}]","59358.90000009537","","","","","","","","","","","",""
"","image-keyboard-response","2","85172","0.0-2.0","3WR9XG3T64X6VQZW2FCTGAPBSLT74M","A346UAH34GVOZX","30UZJB2POHY4464FN6NBJ2NLFWF354","","868","img/land1.png","74","869.5","1","0","1","2","0.8,0.2,0.2,0.2,0.8,0.2,0.2,0.2,0.8","0.2,0.8,0.2,0.2,0.2,0.8,0.8,0.2,0.2","3","",""
"","html-keyboard-response","3","85489","0.0-3.0","3WR9XG3T64X6VQZW2FCTGAPBSLT74M","A346UAH34GVOZX","30UZJB2POHY4464FN6NBJ2NLFWF354","","null","<img src=""img/land1.png"" style=""width:200px;border:14px solid red;"">","null","","","","","","","","","",""
"","image-keyboard-response","4","85941","0.0-4.0","3WR9XG3T64X6VQZW2FCTGAPBSLT74M","A346UAH34GVOZX","30UZJB2POHY4464FN6NBJ2NLFWF354","","451.09999990463257","img/land1.png","75","452.2999997138977","2","1","1","2","0.8,0.2,0.2,0.2,0.8,0.2,0.2,0.2,0.8","0.2,0.8,0.2,0.2,0.2,0.8,0.8,0.2,0.2","3","",""
"","html-keyboard-response","5","86243","0.0-5.0","3WR9XG3T64X6VQZW2FCTGAPBSLT74M","A346UAH34GVOZX","30UZJB2POHY4464FN6NBJ2NLFWF354","","null","<img src=""img/land1.png"" style=""width:200px; border:14px solid green;"">","null","","","","","","","","","",""
"","image-keyboard-response","6","87272","0.0-6.0","3WR9XG3T64X6VQZW2FCTGAPBSLT74M","A346UAH34GVOZX","30UZJB2POHY4464FN6NBJ2NLFWF354","","1027.3000001907349","img/land1.png","75","1028.4000000953674","2","1","1","2","0.8,0.2,0.2,0.2,0.8,0.2,0.2,0.2,0.8","0.2,0.8,0.2,0.2,0.2,0.8,0.8,0.2,0.2","3","",""
"","html-keyboard-response","7","87574","0.0-7.0","3WR9XG3T64X6VQZW2FCTGAPBSLT74M","A346UAH34GVOZX","30UZJB2POHY4464FN6NBJ2NLFWF354","","null","<img src=""img/land1.png"" style=""width:200px; border:14px solid green;"">","null","","","","","","","","","",""
"","image-keyboard-response","8","88623","0.0-8.0","3WR9XG3T64X6VQZW2FCTGAPBSLT74M","A346UAH34GVOZX","30UZJB2POHY4464FN6NBJ2NLFWF354","","1047.6000003814697","img/land1.png","75","1048.5999999046326","2","0","1","2","0.8,0.2,0.2,0.2,0.8,0.2,0.2,0.2,0.8","0.2,0.8,0.2,0.2,0.2,0.8,0.8,0.2,0.2","3","",""
"","html-keyboard-response","9","88925","0.0-9.0","3WR9XG3T64X6VQZW2FCTGAPBSLT74M","A346UAH34GVOZX","30UZJB2POHY4464FN6NBJ2NLFWF354","","null","<img src=""img/land1.png"" style=""width:200px;border:14px solid red;"">","null","","","","","","","","","",""
"","image-keyboard-response","10","89863","0.0-10.0","3WR9XG3T64X6VQZW2FCTGAPBSLT74M","A346UAH34GVOZX","30UZJB2POHY4464FN6NBJ2NLFWF354","","936.1000003814697","img/land1.png","75","937.1999998092651","2","1","1","2","0.8,0.2,0.2,0.2,0.8,0.2,0.2,0.2,0.8","0.2,0.8,0.2,0.2,0.2,0.8,0.8,0.2,0.2","3","",""
"","html-keyboard-response","11","90166","0.0-11.0","3WR9XG3T64X6VQZW2FCTGAPBSLT74M","A346UAH34GVOZX","30UZJB2POHY4464FN6NBJ2NLFWF354","","null","<img src=""img/land1.png"" style=""width:200px; border:14px solid green;"">","null","","","","","","","","","",""
"","image-keyboard-response","12","91060","0.0-12.0","3WR9XG3T64X6VQZW2FCTGAPBSLT74M","A346UAH34GVOZX","30UZJB2POHY4464FN6NBJ2NLFWF354","","892.6999998092651","img/land1.png","75","893.7000002861023","2","0","1","2","0.8,0.2,0.2,0.2,0.8,0.2,0.2,0.2,0.8","0.2,0.8,0.2,0.2,0.2,0.8,0.8,0.2,0.2","3","",""
"","html-keyboard-response","13","91362","0.0-13.0","3WR9XG3T64X6VQZW2FCTGAPBSLT74M","A346UAH34GVOZX","30UZJB2POHY4464FN6NBJ2NLFWF354","","null","<img src=""img/land1.png"" style=""width:200px;border:14px solid red;"">","null","","","","","","","","","",""
"","image-keyboard-response","14","92094","0.0-14.0","3WR9XG3T64X6VQZW2FCTGAPBSLT74M","A346UAH34GVOZX","30UZJB2POHY4464FN6NBJ2NLFWF354","","730.5","img/land2.png","76","731.1999998092651","3","0","3","2","0.8,0.2,0.2,0.2,0.8,0.2,0.2,0.2,0.8","0.2,0.8,0.2,0.2,0.2,0.8,0.8,0.2,0.2","3","",""
"","html-keyboard-response","15","92396","0.0-15.0","3WR9XG3T64X6VQZW2FCTGAPBSLT74M","A346UAH34GVOZX","30UZJB2POHY4464FN6NBJ2NLFWF354","","null","<img src=""img/land2.png"" style=""width:200px;border:14px solid red;"">","null","","","","","","","","","",""
"","image-keyboard-response","16","93108","0.0-16.0","3WR9XG3T64X6VQZW2FCTGAPBSLT74M","A346UAH34GVOZX","30UZJB2POHY4464FN6NBJ2NLFWF354","","711.1999998092651","img/land1.png","75","712.0999999046326","2","0","1","2","0.8,0.2,0.2,0.2,0.8,0.2,0.2,0.2,0.8","0.2,0.8,0.2,0.2,0.2,0.8,0.8,0.2,0.2","3","",""
"","html-keyboard-response","17","93410","0.0-17.0","3WR9XG3T64X6VQZW2FCTGAPBSLT74M","A346UAH34GVOZX","30UZJB2POHY4464FN6NBJ2NLFWF354","","null","<img src=""img/land1.png"" style=""width:200px;border:14px solid red;"">","null","","","","","","","","","",""
"","image-keyboard-response","18","94095","0.0-18.0","3WR9XG3T64X6VQZW2FCTGAPBSLT74M","A346UAH34GVOZX","30UZJB2POHY4464FN6NBJ2NLFWF354","","683.9000000953674","img/land1.png","75","684.8000001907349","2","1","1","2","0.8,0.2,0.2,0.2,0.8,0.2,0.2,0.2,0.8","0.2,0.8,0.2,0.2,0.2,0.8,0.8,0.2,0.2","3","",""
"","html-keyboard-response","19","94397","0.0-19.0","3WR9XG3T64X6VQZW2FCTGAPBSLT74M","A346UAH34GVOZX","30UZJB2POHY4464FN6NBJ2NLFWF354","","null","<img src=""img/land1.png"" style=""width:200px; border:14px solid green;"">","null","","","","","","","","","",""
"","image-keyboard-response","20","95207","0.0-20.0","3WR9XG3T64X6VQZW2FCTGAPBSLT74M","A346UAH34GVOZX","30UZJB2POHY4464FN6NBJ2NLFWF354","","809.1999998092651","img/land2.png","76","810.1999998092651","3","1","3","2","0.8,0.2,0.2,0.2,0.8,0.2,0.2,0.2,0.8","0.2,0.8,0.2,0.2,0.2,0.8,0.8,0.2,0.2","3","",""
"","html-keyboard-response","21","95510","0.0-21.0","3WR9XG3T64X6VQZW2FCTGAPBSLT74M","A346UAH34GVOZX","30UZJB2POHY4464FN6NBJ2NLFWF354","","null","<img src=""img/land2.png"" style=""width:200px; border:14px solid green;"">","null","","","","","","","","","",""
"","image-keyboard-response","22","96173","0.0-22.0","3WR9XG3T64X6VQZW2FCTGAPBSLT74M","A346UAH34GVOZX","30UZJB2POHY4464FN6NBJ2NLFWF354","","662.7000002861023","img/land1.png","75","663.5999999046326","2","1","1","2","0.8,0.2,0.2,0.2,0.8,0.2,0.2,0.2,0.8","0.2,0.8,0.2,0.2,0.2,0.8,0.8,0.2,0.2","3","",""
"","html-keyboard-response","23","96475","0.0-23.0","3WR9XG3T64X6VQZW2FCTGAPBSLT74M","A346UAH34GVOZX","30UZJB2POHY4464FN6NBJ2NLFWF354","","null","<img src=""img/land1.png"" style=""width:200px; border:14px solid green;"">","null","","","","","","","","","",""
"","image-keyboard-response","24","97063","0.0-24.0","3WR9XG3T64X6VQZW2FCTGAPBSLT74M","A346UAH34GVOZX","30UZJB2POHY4464FN6NBJ2NLFWF354","","586.5","img/land2.png","76","587.4000000953674","3","0","3","2","0.8,0.2,0.2,0.2,0.8,0.2,0.2,0.2,0.8","0.2,0.8,0.2,0.2,0.2,0.8,0.8,0.2,0.2","3","",""
"","html-keyboard-response","25","97364","0.0-25.0","3WR9XG3T64X6VQZW2FCTGAPBSLT74M","A346UAH34GVOZX","30UZJB2POHY4464FN6NBJ2NLFWF354","","null","<img src=""img/land2.png"" style=""width:200px;border:14px solid red;"">","null","","","","","","","","","",""
"","image-keyboard-response","26","97868","0.0-26.0","3WR9XG3T64X6VQZW2FCTGAPBSLT74M","A346UAH34GVOZX","30UZJB2POHY4464FN6NBJ2NLFWF354","","502.59999990463257","img/land2.png","76","503.5","3","0","3","2","0.8,0.2,0.2,0.2,0.8,0.2,0.2,0.2,0.8","0.2,0.8,0.2,0.2,0.2,0.8,0.8,0.2,0.2","3","",""
"","html-keyboard-response","27","98170","0.0-27.0","3WR9XG3T64X6VQZW2FCTGAPBSLT74M","A346UAH34GVOZX","30UZJB2POHY4464FN6NBJ2NLFWF354","","null","<img src=""img/land2.png"" style=""width:200px;border:14px solid red;"">","null","","","","","","","","","",""
"","image-keyboard-response","28","98697","0.0-28.0","3WR9XG3T64X6VQZW2FCTGAPBSLT74M","A346UAH34GVOZX","30UZJB2POHY4464FN6NBJ2NLFWF354","","525.4000000953674","img/land1.png","75","526.2999997138977","2","1","1","2","0.8,0.2,0.2,0.2,0.8,0.2,0.2,0.2,0.8","0.2,0.8,0.2,0.2,0.2,0.8,0.8,0.2,0.2","3","",""
"","html-keyboard-response","29","98999","0.0-29.0","3WR9XG3T64X6VQZW2FCTGAPBSLT74M","A346UAH34GVOZX","30UZJB2POHY4464FN6NBJ2NLFWF354","","null","<img src=""img/land1.png"" style=""width:200px; border:14px solid green;"">","null","","","","","","","","","",""
"","image-keyboard-response","30","99728","0.0-30.0","3WR9XG3T64X6VQZW2FCTGAPBSLT74M","A346UAH34GVOZX","30UZJB2POHY4464FN6NBJ2NLFWF354","","727.2000002861023","img/land2.png","76","728.2999997138977","3","0","3","2","0.8,0.2,0.2,0.2,0.8,0.2,0.2,0.2,0.8","0.2,0.8,0.2,0.2,0.2,0.8,0.8,0.2,0.2","3","",""
"","html-keyboard-response","31","100030","0.0-31.0","3WR9XG3T64X6VQZW2FCTGAPBSLT74M","A346UAH34GVOZX","30UZJB2POHY4464FN6NBJ2NLFWF354","","null","<img src=""img/land2.png"" style=""width:200px;border:14px solid red;"">","null","","","","","","","","","",""
"","image-keyboard-response","32","100554","0.0-32.0","3WR9XG3T64X6VQZW2FCTGAPBSLT74M","A346UAH34GVOZX","30UZJB2POHY4464FN6NBJ2NLFWF354","","522.9000000953674","img/land1.png","75","523.9000000953674","2","1","1","2","0.8,0.2,0.2,0.2,0.8,0.2,0.2,0.2,0.8","0.2,0.8,0.2,0.2,0.2,0.8,0.8,0.2,0.2","3","",""
"","html-keyboard-response","33","100856","0.0-33.0","3WR9XG3T64X6VQZW2FCTGAPBSLT74M","A346UAH34GVOZX","30UZJB2POHY4464FN6NBJ2NLFWF354","","null","<img src=""img/land1.png"" style=""width:200px; border:14px solid green;"">","null","","","","","","","","","",""
"","image-keyboard-response","34","101620","0.0-34.0","3WR9XG3T64X6VQZW2FCTGAPBSLT74M","A346UAH34GVOZX","30UZJB2POHY4464FN6NBJ2NLFWF354","","762.6000003814697","img/land2.png","76","763.5999999046326","3","1","3","2","0.8,0.2,0.2,0.2,0.8,0.2,0.2,0.2,0.8","0.2,0.8,0.2,0.2,0.2,0.8,0.8,0.2,0.2","3","",""
"","html-keyboard-response","35","101923","0.0-35.0","3WR9XG3T64X6VQZW2FCTGAPBSLT74M","A346UAH34GVOZX","30UZJB2POHY4464FN6NBJ2NLFWF354","","null","<img src=""img/land2.png"" style=""width:200px; border:14px solid green;"">","null","","","","","","","","","",""
"","image-keyboard-response","36","102462","0.0-36.0","3WR9XG3T64X6VQZW2FCTGAPBSLT74M","A346UAH34GVOZX","30UZJB2POHY4464FN6NBJ2NLFWF354","","538.4000000953674","img/land1.png","75","539.0999999046326","2","1","1","2","0.8,0.2,0.2,0.2,0.8,0.2,0.2,0.2,0.8","0.2,0.8,0.2,0.2,0.2,0.8,0.8,0.2,0.2","3","",""
"","html-keyboard-response","37","102764","0.0-37.0","3WR9XG3T64X6VQZW2FCTGAPBSLT74M","A346UAH34GVOZX","30UZJB2POHY4464FN6NBJ2NLFWF354","","null","<img src=""img/land1.png"" style=""width:200px; border:14px solid green;"">","null","","","","","","","","","",""
"","image-keyboard-response","38","103343","0.0-38.0","3WR9XG3T64X6VQZW2FCTGAPBSLT74M","A346UAH34GVOZX","30UZJB2POHY4464FN6NBJ2NLFWF354","","577.9000000953674","img/land1.png","75","578.6999998092651","2","1","1","2","0.8,0.2,0.2,0.2,0.8,0.2,0.2,0.2,0.8","0.2,0.8,0.2,0.2,0.2,0.8,0.8,0.2,0.2","3","",""
"","html-keyboard-response","39","103645","0.0-39.0","3WR9XG3T64X6VQZW2FCTGAPBSLT74M","A346UAH34GVOZX","30UZJB2POHY4464FN6NBJ2NLFWF354","","null","<img src=""img/land1.png"" style=""width:200px; border:14px solid green;"">","null","","","","","","","","","",""
"","image-keyboard-response","40","104402","0.0-40.0","3WR9XG3T64X6VQZW2FCTGAPBSLT74M","A346UAH34GVOZX","30UZJB2POHY4464FN6NBJ2NLFWF354","","756.1999998092651","img/land5.png","74","757","1","1","2","2","0.8,0.2,0.2,0.2,0.8,0.2,0.2,0.2,0.8","0.2,0.8,0.2,0.2,0.2,0.8,0.8,0.2,0.2","3","",""
"","html-keyboard-response","41","104703","0.0-41.0","3WR9XG3T64X6VQZW2FCTGAPBSLT74M","A346UAH34GVOZX","30UZJB2POHY4464FN6NBJ2NLFWF354","","null","<img src=""img/land5.png"" style=""width:200px; border:14px solid green;"">","null","","","","","","","","","",""
"","image-keyboard-response","42","105281","0.0-42.0","3WR9XG3T64X6VQZW2FCTGAPBSLT74M","A346UAH34GVOZX","30UZJB2POHY4464FN6NBJ2NLFWF354","","576.8000001907349","img/land1.png","75","577.5999999046326","2","1","1","2","0.8,0.2,0.2,0.2,0.8,0.2,0.2,0.2,0.8","0.2,0.8,0.2,0.2,0.2,0.8,0.8,0.2,0.2","3","",""
"","html-keyboard-response","43","105582","0.0-43.0","3WR9XG3T64X6VQZW2FCTGAPBSLT74M","A346UAH34GVOZX","30UZJB2POHY4464FN6NBJ2NLFWF354","","null","<img src=""img/land1.png"" style=""width:200px; border:14px solid green;"">","null","","","","","","","","","",""
"","image-keyboard-response","44","106170","0.0-44.0","3WR9XG3T64X6VQZW2FCTGAPBSLT74M","A346UAH34GVOZX","30UZJB2POHY4464FN6NBJ2NLFWF354","","587.5","img/land1.png","75","587.9000000953674","2","1","1","2","0.8,0.2,0.2,0.2,0.8,0.2,0.2,0.2,0.8","0.2,0.8,0.2,0.2,0.2,0.8,0.8,0.2,0.2","3","",""
"","html-keyboard-response","45","106472","0.0-45.0","3WR9XG3T64X6VQZW2FCTGAPBSLT74M","A346UAH34GVOZX","30UZJB2POHY4464FN6NBJ2NLFWF354","","null","<img src=""img/land1.png"" style=""width:200px; border:14px solid green;"">","null","","","","","","","","","",""
"","image-keyboard-response","46","107079","0.0-46.0","3WR9XG3T64X6VQZW2FCTGAPBSLT74M","A346UAH34GVOZX","30UZJB2POHY4464FN6NBJ2NLFWF354","","606.7000002861023","img/land1.png","75","607.5999999046326","2","1","1","2","0.8,0.2,0.2,0.2,0.8,0.2,0.2,0.2,0.8","0.2,0.8,0.2,0.2,0.2,0.8,0.8,0.2,0.2","3","",""
"","html-keyboard-response","47","107381","0.0-47.0","3WR9XG3T64X6VQZW2FCTGAPBSLT74M","A346UAH34GVOZX","30UZJB2POHY4464FN6NBJ2NLFWF354","","null","<img src=""img/land1.png"" style=""width:200px; border:14px solid green;"">","null","","","","","","","","","",""
"","image-keyboard-response","48","107998","0.0-48.0","3WR9XG3T64X6VQZW2FCTGAPBSLT74M","A346UAH34GVOZX","30UZJB2POHY4464FN6NBJ2NLFWF354","","615.6000003814697","img/land1.png","75","616.5","2","0","1","2","0.8,0.2,0.2,0.2,0.8,0.2,0.2,0.2,0.8","0.2,0.8,0.2,0.2,0.2,0.8,0.8,0.2,0.2","3","",""
"","html-keyboard-response","49","108299","0.0-49.0","3WR9XG3T64X6VQZW2FCTGAPBSLT74M","A346UAH34GVOZX","30UZJB2POHY4464FN6NBJ2NLFWF354","","null","<img src=""img/land1.png"" style=""width:200px;border:14px solid red;"">","null","","","","","","","","","",""
"","image-keyboard-response","50","109135","0.0-50.0","3WR9XG3T64X6VQZW2FCTGAPBSLT74M","A346UAH34GVOZX","30UZJB2POHY4464FN6NBJ2NLFWF354","","834.3000001907349","img/land5.png","74","835.2000002861023","1","0","2","2","0.8,0.2,0.2,0.2,0.8,0.2,0.2,0.2,0.8","0.2,0.8,0.2,0.2,0.2,0.8,0.8,0.2,0.2","3","",""
"","html-keyboard-response","51","109437","0.0-51.0","3WR9XG3T64X6VQZW2FCTGAPBSLT74M","A346UAH34GVOZX","30UZJB2POHY4464FN6NBJ2NLFWF354","","null","<img src=""img/land5.png"" style=""width:200px;border:14px solid red;"">","null","","","","","","","","","",""
"","image-keyboard-response","52","109903","0.0-52.0","3WR9XG3T64X6VQZW2FCTGAPBSLT74M","A346UAH34GVOZX","30UZJB2POHY4464FN6NBJ2NLFWF354","","464.19999980926514","img/land5.png","74","465.30000019073486","1","0","2","2","0.8,0.2,0.2,0.2,0.8,0.2,0.2,0.2,0.8","0.2,0.8,0.2,0.2,0.2,0.8,0.8,0.2,0.2","3","",""
"","html-keyboard-response","53","110204","0.0-53.0","3WR9XG3T64X6VQZW2FCTGAPBSLT74M","A346UAH34GVOZX","30UZJB2POHY4464FN6NBJ2NLFWF354","","null","<img src=""img/land5.png"" style=""width:200px;border:14px solid red;"">","null","","","","","","","","","",""
"","image-keyboard-response","54","110711","0.0-54.0","3WR9XG3T64X6VQZW2FCTGAPBSLT74M","A346UAH34GVOZX","30UZJB2POHY4464FN6NBJ2NLFWF354","","505.80000019073486","img/land1.png","75","506.30000019073486","2","1","1","2","0.8,0.2,0.2,0.2,0.8,0.2,0.2,0.2,0.8","0.2,0.8,0.2,0.2,0.2,0.8,0.8,0.2,0.2","3","",""
"","html-keyboard-response","55","111012","0.0-55.0","3WR9XG3T64X6VQZW2FCTGAPBSLT74M","A346UAH34GVOZX","30UZJB2POHY4464FN6NBJ2NLFWF354","","null","<img src=""img/land1.png"" style=""width:200px; border:14px solid green;"">","null","","","","","","","","","",""
"","image-keyboard-response","56","111506","0.0-56.0","3WR9XG3T64X6VQZW2FCTGAPBSLT74M","A346UAH34GVOZX","30UZJB2POHY4464FN6NBJ2NLFWF354","","492","img/land1.png","75","492.90000009536743","2","1","1","2","0.8,0.2,0.2,0.2,0.8,0.2,0.2,0.2,0.8","0.2,0.8,0.2,0.2,0.2,0.8,0.8,0.2,0.2","3","",""
"","html-keyboard-response","57","111808","0.0-57.0","3WR9XG3T64X6VQZW2FCTGAPBSLT74M","A346UAH34GVOZX","30UZJB2POHY4464FN6NBJ2NLFWF354","","null","<img src=""img/land1.png"" style=""width:200px; border:14px solid green;"">","null","","","","","","","","","",""
"","image-keyboard-response","58","112337","0.0-58.0","3WR9XG3T64X6VQZW2FCTGAPBSLT74M","A346UAH34GVOZX","30UZJB2POHY4464FN6NBJ2NLFWF354","","528.3000001907349","img/land1.png","75","529.2999997138977","2","1","1","2","0.8,0.2,0.2,0.2,0.8,0.2,0.2,0.2,0.8","0.2,0.8,0.2,0.2,0.2,0.8,0.8,0.2,0.2","3","",""
"","html-keyboard-response","59","112639","0.0-59.0","3WR9XG3T64X6VQZW2FCTGAPBSLT74M","A346UAH34GVOZX","30UZJB2POHY4464FN6NBJ2NLFWF354","","null","<img src=""img/land1.png"" style=""width:200px; border:14px solid green;"">","null","","","","","","","","","",""
"","image-keyboard-response","60","113086","0.0-60.0","3WR9XG3T64X6VQZW2FCTGAPBSLT74M","A346UAH34GVOZX","30UZJB2POHY4464FN6NBJ2NLFWF354","","445.19999980926514","img/land2.png","76","446","3","0","3","2","0.8,0.2,0.2,0.2,0.8,0.2,0.2,0.2,0.8","0.2,0.8,0.2,0.2,0.2,0.8,0.8,0.2,0.2","3","",""
"","html-keyboard-response","61","113388","0.0-61.0","3WR9XG3T64X6VQZW2FCTGAPBSLT74M","A346UAH34GVOZX","30UZJB2POHY4464FN6NBJ2NLFWF354","","null","<img src=""img/land2.png"" style=""width:200px;border:14px solid red;"">","null","","","","","","","","","",""
"","image-keyboard-response","62","114163","0.0-62.0","3WR9XG3T64X6VQZW2FCTGAPBSLT74M","A346UAH34GVOZX","30UZJB2POHY4464FN6NBJ2NLFWF354","","774","img/land1.png","75","774.9000000953674","2","1","1","2","0.8,0.2,0.2,0.2,0.8,0.2,0.2,0.2,0.8","0.2,0.8,0.2,0.2,0.2,0.8,0.8,0.2,0.2","3","",""
"","html-keyboard-response","63","114465","0.0-63.0","3WR9XG3T64X6VQZW2FCTGAPBSLT74M","A346UAH34GVOZX","30UZJB2POHY4464FN6NBJ2NLFWF354","","null","<img src=""img/land1.png"" style=""width:200px; border:14px solid green;"">","null","","","","","","","","","",""
"","image-keyboard-response","64","114917","0.0-64.0","3WR9XG3T64X6VQZW2FCTGAPBSLT74M","A346UAH34GVOZX","30UZJB2POHY4464FN6NBJ2NLFWF354","","451.30000019073486","img/land1.png","75","452.2999997138977","2","1","1","2","0.8,0.2,0.2,0.2,0.8,0.2,0.2,0.2,0.8","0.2,0.8,0.2,0.2,0.2,0.8,0.8,0.2,0.2","3","",""
"","html-keyboard-response","65","115220","0.0-65.0","3WR9XG3T64X6VQZW2FCTGAPBSLT74M","A346UAH34GVOZX","30UZJB2POHY4464FN6NBJ2NLFWF354","","null","<img src=""img/land1.png"" style=""width:200px; border:14px solid green;"">","null","","","","","","","","","",""
"","image-keyboard-response","66","115901","0.0-66.0","3WR9XG3T64X6VQZW2FCTGAPBSLT74M","A346UAH34GVOZX","30UZJB2POHY4464FN6NBJ2NLFWF354","","679.4000000953674","img/land2.png","76","680.3999996185303","3","0","3","2","0.8,0.2,0.2,0.2,0.8,0.2,0.2,0.2,0.8","0.2,0.8,0.2,0.2,0.2,0.8,0.8,0.2,0.2","3","",""
"","html-keyboard-response","67","116206","0.0-67.0","3WR9XG3T64X6VQZW2FCTGAPBSLT74M","A346UAH34GVOZX","30UZJB2POHY4464FN6NBJ2NLFWF354","","null","<img src=""img/land2.png"" style=""width:200px;border:14px solid red;"">","null","","","","","","","","","",""
"","image-keyboard-response","68","116714","0.0-68.0","3WR9XG3T64X6VQZW2FCTGAPBSLT74M","A346UAH34GVOZX","30UZJB2POHY4464FN6NBJ2NLFWF354","","506.90000009536743","img/land1.png","75","508","2","0","1","2","0.8,0.2,0.2,0.2,0.8,0.2,0.2,0.2,0.8","0.2,0.8,0.2,0.2,0.2,0.8,0.8,0.2,0.2","3","",""
"","html-keyboard-response","69","117017","0.0-69.0","3WR9XG3T64X6VQZW2FCTGAPBSLT74M","A346UAH34GVOZX","30UZJB2POHY4464FN6NBJ2NLFWF354","","null","<img src=""img/land1.png"" style=""width:200px;border:14px solid red;"">","null","","","","","","","","","",""
"","image-keyboard-response","70","117493","0.0-70.0","3WR9XG3T64X6VQZW2FCTGAPBSLT74M","A346UAH34GVOZX","30UZJB2POHY4464FN6NBJ2NLFWF354","","474.5","img/land1.png","75","475.5","2","1","1","2","0.8,0.2,0.2,0.2,0.8,0.2,0.2,0.2,0.8","0.2,0.8,0.2,0.2,0.2,0.8,0.8,0.2,0.2","3","",""
"","html-keyboard-response","71","117796","0.0-71.0","3WR9XG3T64X6VQZW2FCTGAPBSLT74M","A346UAH34GVOZX","30UZJB2POHY4464FN6NBJ2NLFWF354","","null","<img src=""img/land1.png"" style=""width:200px; border:14px solid green;"">","null","","","","","","","","","",""
"","image-keyboard-response","72","118293","0.0-72.0","3WR9XG3T64X6VQZW2FCTGAPBSLT74M","A346UAH34GVOZX","30UZJB2POHY4464FN6NBJ2NLFWF354","","496","img/land1.png","75","497.09999990463257","2","1","1","2","0.8,0.2,0.2,0.2,0.8,0.2,0.2,0.2,0.8","0.2,0.8,0.2,0.2,0.2,0.8,0.8,0.2,0.2","3","",""
"","html-keyboard-response","73","118594","0.0-73.0","3WR9XG3T64X6VQZW2FCTGAPBSLT74M","A346UAH34GVOZX","30UZJB2POHY4464FN6NBJ2NLFWF354","","null","<img src=""img/land1.png"" style=""width:200px; border:14px solid green;"">","null","","","","","","","","","",""
"","image-keyboard-response","74","119070","0.0-74.0","3WR9XG3T64X6VQZW2FCTGAPBSLT74M","A346UAH34GVOZX","30UZJB2POHY4464FN6NBJ2NLFWF354","","475","img/land1.png","75","475.80000019073486","2","1","1","2","0.8,0.2,0.2,0.2,0.8,0.2,0.2,0.2,0.8","0.2,0.8,0.2,0.2,0.2,0.8,0.8,0.2,0.2","3","",""
"","html-keyboard-response","75","119372","0.0-75.0","3WR9XG3T64X6VQZW2FCTGAPBSLT74M","A346UAH34GVOZX","30UZJB2POHY4464FN6NBJ2NLFWF354","","null","<img src=""img/land1.png"" style=""width:200px; border:14px solid green;"">","null","","","","","","","","","",""
"","image-keyboard-response","76","119869","0.0-76.0","3WR9XG3T64X6VQZW2FCTGAPBSLT74M","A346UAH34GVOZX","30UZJB2POHY4464FN6NBJ2NLFWF354","","496.19999980926514","img/land1.png","75","497.09999990463257","2","1","1","2","0.8,0.2,0.2,0.2,0.8,0.2,0.2,0.2,0.8","0.2,0.8,0.2,0.2,0.2,0.8,0.8,0.2,0.2","3","",""
"","html-keyboard-response","77","120171","0.0-77.0","3WR9XG3T64X6VQZW2FCTGAPBSLT74M","A346UAH34GVOZX","30UZJB2POHY4464FN6NBJ2NLFWF354","","null","<img src=""img/land1.png"" style=""width:200px; border:14px solid green;"">","null","","","","","","","","","",""
"","image-keyboard-response","78","120880","0.0-78.0","3WR9XG3T64X6VQZW2FCTGAPBSLT74M","A346UAH34GVOZX","30UZJB2POHY4464FN6NBJ2NLFWF354","","707.7999997138977","img/land5.png","74","708.7000002861023","1","0","2","2","0.8,0.2,0.2,0.2,0.8,0.2,0.2,0.2,0.8","0.2,0.8,0.2,0.2,0.2,0.8,0.8,0.2,0.2","3","",""
"","html-keyboard-response","79","121181","0.0-79.0","3WR9XG3T64X6VQZW2FCTGAPBSLT74M","A346UAH34GVOZX","30UZJB2POHY4464FN6NBJ2NLFWF354","","null","<img src=""img/land5.png"" style=""width:200px;border:14px solid red;"">","null","","","","","","","","","",""
"","image-keyboard-response","80","121779","0.0-80.0","3WR9XG3T64X6VQZW2FCTGAPBSLT74M","A346UAH34GVOZX","30UZJB2POHY4464FN6NBJ2NLFWF354","","597.2000002861023","img/land1.png","75","598.1999998092651","2","1","1","2","0.8,0.2,0.2,0.2,0.8,0.2,0.2,0.2,0.8","0.2,0.8,0.2,0.2,0.2,0.8,0.8,0.2,0.2","3","",""
"","html-keyboard-response","81","122081","0.0-81.0","3WR9XG3T64X6VQZW2FCTGAPBSLT74M","A346UAH34GVOZX","30UZJB2POHY4464FN6NBJ2NLFWF354","","null","<img src=""img/land1.png"" style=""width:200px; border:14px solid green;"">","null","","","","","","","","","",""
"","image-keyboard-response","82","122540","0.0-82.0","3WR9XG3T64X6VQZW2FCTGAPBSLT74M","A346UAH34GVOZX","30UZJB2POHY4464FN6NBJ2NLFWF354","","457.5","img/land1.png","75","458.40000009536743","2","1","1","2","0.8,0.2,0.2,0.2,0.8,0.2,0.2,0.2,0.8","0.2,0.8,0.2,0.2,0.2,0.8,0.8,0.2,0.2","3","",""
"","html-keyboard-response","83","122842","0.0-83.0","3WR9XG3T64X6VQZW2FCTGAPBSLT74M","A346UAH34GVOZX","30UZJB2POHY4464FN6NBJ2NLFWF354","","null","<img src=""img/land1.png"" style=""width:200px; border:14px solid green;"">","null","","","","","","","","","",""
"","image-keyboard-response","84","123343","0.0-84.0","3WR9XG3T64X6VQZW2FCTGAPBSLT74M","A346UAH34GVOZX","30UZJB2POHY4464FN6NBJ2NLFWF354","","500.2999997138977","img/land1.png","75","501.30000019073486","2","1","1","2","0.8,0.2,0.2,0.2,0.8,0.2,0.2,0.2,0.8","0.2,0.8,0.2,0.2,0.2,0.8,0.8,0.2,0.2","3","",""
"","html-keyboard-response","85","123646","0.0-85.0","3WR9XG3T64X6VQZW2FCTGAPBSLT74M","A346UAH34GVOZX","30UZJB2POHY4464FN6NBJ2NLFWF354","","null","<img src=""img/land1.png"" style=""width:200px; border:14px solid green;"">","null","","","","","","","","","",""
"","image-keyboard-response","86","124182","0.0-86.0","3WR9XG3T64X6VQZW2FCTGAPBSLT74M","A346UAH34GVOZX","30UZJB2POHY4464FN6NBJ2NLFWF354","","534.5999999046326","img/land1.png","75","535.5","2","1","1","2","0.8,0.2,0.2,0.2,0.8,0.2,0.2,0.2,0.8","0.2,0.8,0.2,0.2,0.2,0.8,0.8,0.2,0.2","3","",""
"","html-keyboard-response","87","124484","0.0-87.0","3WR9XG3T64X6VQZW2FCTGAPBSLT74M","A346UAH34GVOZX","30UZJB2POHY4464FN6NBJ2NLFWF354","","null","<img src=""img/land1.png"" style=""width:200px; border:14px solid green;"">","null","","","","","","","","","",""
"","image-keyboard-response","88","124949","0.0-88.0","3WR9XG3T64X6VQZW2FCTGAPBSLT74M","A346UAH34GVOZX","30UZJB2POHY4464FN6NBJ2NLFWF354","","464.5","img/land1.png","75","465.1000003814697","2","1","1","2","0.8,0.2,0.2,0.2,0.8,0.2,0.2,0.2,0.8","0.2,0.8,0.2,0.2,0.2,0.8,0.8,0.2,0.2","3","",""
"","html-keyboard-response","89","125251","0.0-89.0","3WR9XG3T64X6VQZW2FCTGAPBSLT74M","A346UAH34GVOZX","30UZJB2POHY4464FN6NBJ2NLFWF354","","null","<img src=""img/land1.png"" style=""width:200px; border:14px solid green;"">","null","","","","","","","","","",""
"","image-keyboard-response","90","125986","0.0-90.0","3WR9XG3T64X6VQZW2FCTGAPBSLT74M","A346UAH34GVOZX","30UZJB2POHY4464FN6NBJ2NLFWF354","","733.9000000953674","img/land5.png","74","735.0999999046326","1","0","2","2","0.8,0.2,0.2,0.2,0.8,0.2,0.2,0.2,0.8","0.2,0.8,0.2,0.2,0.2,0.8,0.8,0.2,0.2","3","",""
"","html-keyboard-response","91","126288","0.0-91.0","3WR9XG3T64X6VQZW2FCTGAPBSLT74M","A346UAH34GVOZX","30UZJB2POHY4464FN6NBJ2NLFWF354","","null","<img src=""img/land5.png"" style=""width:200px;border:14px solid red;"">","null","","","","","","","","","",""
"","image-keyboard-response","92","126828","0.0-92.0","3WR9XG3T64X6VQZW2FCTGAPBSLT74M","A346UAH34GVOZX","30UZJB2POHY4464FN6NBJ2NLFWF354","","539.0999999046326","img/land1.png","75","540.3000001907349","2","1","1","2","0.8,0.2,0.2,0.2,0.8,0.2,0.2,0.2,0.8","0.2,0.8,0.2,0.2,0.2,0.8,0.8,0.2,0.2","3","",""
"","html-keyboard-response","93","127129","0.0-93.0","3WR9XG3T64X6VQZW2FCTGAPBSLT74M","A346UAH34GVOZX","30UZJB2POHY4464FN6NBJ2NLFWF354","","null","<img src=""img/land1.png"" style=""width:200px; border:14px solid green;"">","null","","","","","","","","","",""
"","image-keyboard-response","94","128051","0.0-94.0","3WR9XG3T64X6VQZW2FCTGAPBSLT74M","A346UAH34GVOZX","30UZJB2POHY4464FN6NBJ2NLFWF354","","920.1999998092651","img/land2.png","76","921.0999999046326","3","0","3","2","0.8,0.2,0.2,0.2,0.8,0.2,0.2,0.2,0.8","0.2,0.8,0.2,0.2,0.2,0.8,0.8,0.2,0.2","3","",""
"","html-keyboard-response","95","128353","0.0-95.0","3WR9XG3T64X6VQZW2FCTGAPBSLT74M","A346UAH34GVOZX","30UZJB2POHY4464FN6NBJ2NLFWF354","","null","<img src=""img/land2.png"" style=""width:200px;border:14px solid red;"">","null","","","","","","","","","",""
"","image-keyboard-response","96","128744","0.0-96.0","3WR9XG3T64X6VQZW2FCTGAPBSLT74M","A346UAH34GVOZX","30UZJB2POHY4464FN6NBJ2NLFWF354","","390.2999997138977","img/land2.png","76","391","3","0","3","2","0.8,0.2,0.2,0.2,0.8,0.2,0.2,0.2,0.8","0.2,0.8,0.2,0.2,0.2,0.8,0.8,0.2,0.2","3","",""
"","html-keyboard-response","97","129046","0.0-97.0","3WR9XG3T64X6VQZW2FCTGAPBSLT74M","A346UAH34GVOZX","30UZJB2POHY4464FN6NBJ2NLFWF354","","null","<img src=""img/land2.png"" style=""width:200px;border:14px solid red;"">","null","","","","","","","","","",""
"","image-keyboard-response","98","129511","0.0-98.0","3WR9XG3T64X6VQZW2FCTGAPBSLT74M","A346UAH34GVOZX","30UZJB2POHY4464FN6NBJ2NLFWF354","","463.19999980926514","img/land1.png","75","464.1000003814697","2","1","1","2","0.8,0.2,0.2,0.2,0.8,0.2,0.2,0.2,0.8","0.2,0.8,0.2,0.2,0.2,0.8,0.8,0.2,0.2","3","",""
"","html-keyboard-response","99","129812","0.0-99.0","3WR9XG3T64X6VQZW2FCTGAPBSLT74M","A346UAH34GVOZX","30UZJB2POHY4464FN6NBJ2NLFWF354","","null","<img src=""img/land1.png"" style=""width:200px; border:14px solid green;"">","null","","","","","","","","","",""
"","image-keyboard-response","100","130624","0.0-100.0","3WR9XG3T64X6VQZW2FCTGAPBSLT74M","A346UAH34GVOZX","30UZJB2POHY4464FN6NBJ2NLFWF354","","809.9000000953674","img/land2.png","75","810.9000000953674","2","0","3","2","0.8,0.2,0.2,0.2,0.8,0.2,0.2,0.2,0.8","0.2,0.8,0.2,0.2,0.2,0.8,0.8,0.2,0.2","3","",""
"","html-keyboard-response","101","130925","0.0-101.0","3WR9XG3T64X6VQZW2FCTGAPBSLT74M","A346UAH34GVOZX","30UZJB2POHY4464FN6NBJ2NLFWF354","","null","<img src=""img/land2.png"" style=""width:200px;border:14px solid red;"">","null","","","","","","","","","",""
"","image-keyboard-response","102","131763","0.0-102.0","3WR9XG3T64X6VQZW2FCTGAPBSLT74M","A346UAH34GVOZX","30UZJB2POHY4464FN6NBJ2NLFWF354","","837.8000001907349","img/land1.png","75","838.1999998092651","2","0","1","2","0.8,0.2,0.2,0.2,0.8,0.2,0.2,0.2,0.8","0.2,0.8,0.2,0.2,0.2,0.8,0.8,0.2,0.2","3","",""
"","html-keyboard-response","103","132064","0.0-103.0","3WR9XG3T64X6VQZW2FCTGAPBSLT74M","A346UAH34GVOZX","30UZJB2POHY4464FN6NBJ2NLFWF354","","null","<img src=""img/land1.png"" style=""width:200px;border:14px solid red;"">","null","","","","","","","","","",""
"","image-keyboard-response","104","132603","0.0-104.0","3WR9XG3T64X6VQZW2FCTGAPBSLT74M","A346UAH34GVOZX","30UZJB2POHY4464FN6NBJ2NLFWF354","","537.5999999046326","img/land5.png","75","538.5999999046326","2","0","2","2","0.8,0.2,0.2,0.2,0.8,0.2,0.2,0.2,0.8","0.2,0.8,0.2,0.2,0.2,0.8,0.8,0.2,0.2","3","",""
"","html-keyboard-response","105","132905","0.0-105.0","3WR9XG3T64X6VQZW2FCTGAPBSLT74M","A346UAH34GVOZX","30UZJB2POHY4464FN6NBJ2NLFWF354","","null","<img src=""img/land5.png"" style=""width:200px;border:14px solid red;"">","null","","","","","","","","","",""
"","image-keyboard-response","106","133511","0.0-106.0","3WR9XG3T64X6VQZW2FCTGAPBSLT74M","A346UAH34GVOZX","30UZJB2POHY4464FN6NBJ2NLFWF354","","605.0999999046326","img/land1.png","75","605.9000000953674","2","1","1","2","0.8,0.2,0.2,0.2,0.8,0.2,0.2,0.2,0.8","0.2,0.8,0.2,0.2,0.2,0.8,0.8,0.2,0.2","3","",""
"","html-keyboard-response","107","133813","0.0-107.0","3WR9XG3T64X6VQZW2FCTGAPBSLT74M","A346UAH34GVOZX","30UZJB2POHY4464FN6NBJ2NLFWF354","","null","<img src=""img/land1.png"" style=""width:200px; border:14px solid green;"">","null","","","","","","","","","",""
"","image-keyboard-response","108","134526","0.0-108.0","3WR9XG3T64X6VQZW2FCTGAPBSLT74M","A346UAH34GVOZX","30UZJB2POHY4464FN6NBJ2NLFWF354","","712","img/land5.png","74","712.9000000953674","1","0","2","2","0.8,0.2,0.2,0.2,0.8,0.2,0.2,0.2,0.8","0.2,0.8,0.2,0.2,0.2,0.8,0.8,0.2,0.2","3","",""
"","html-keyboard-response","109","134827","0.0-109.0","3WR9XG3T64X6VQZW2FCTGAPBSLT74M","A346UAH34GVOZX","30UZJB2POHY4464FN6NBJ2NLFWF354","","null","<img src=""img/land5.png"" style=""width:200px;border:14px solid red;"">","null","","","","","","","","","",""
"","image-keyboard-response","110","135354","0.0-110.0","3WR9XG3T64X6VQZW2FCTGAPBSLT74M","A346UAH34GVOZX","30UZJB2POHY4464FN6NBJ2NLFWF354","","526.1000003814697","img/land5.png","74","526.6999998092651","1","0","2","2","0.8,0.2,0.2,0.2,0.8,0.2,0.2,0.2,0.8","0.2,0.8,0.2,0.2,0.2,0.8,0.8,0.2,0.2","3","",""
"","html-keyboard-response","111","135657","0.0-111.0","3WR9XG3T64X6VQZW2FCTGAPBSLT74M","A346UAH34GVOZX","30UZJB2POHY4464FN6NBJ2NLFWF354","","null","<img src=""img/land5.png"" style=""width:200px;border:14px solid red;"">","null","","","","","","","","","",""
"","image-keyboard-response","112","136202","0.0-112.0","3WR9XG3T64X6VQZW2FCTGAPBSLT74M","A346UAH34GVOZX","30UZJB2POHY4464FN6NBJ2NLFWF354","","544.1999998092651","img/land1.png","75","545.0999999046326","2","1","1","2","0.8,0.2,0.2,0.2,0.8,0.2,0.2,0.2,0.8","0.2,0.8,0.2,0.2,0.2,0.8,0.8,0.2,0.2","3","",""
"","html-keyboard-response","113","136504","0.0-113.0","3WR9XG3T64X6VQZW2FCTGAPBSLT74M","A346UAH34GVOZX","30UZJB2POHY4464FN6NBJ2NLFWF354","","null","<img src=""img/land1.png"" style=""width:200px; border:14px solid green;"">","null","","","","","","","","","",""
"","image-keyboard-response","114","137201","0.0-114.0","3WR9XG3T64X6VQZW2FCTGAPBSLT74M","A346UAH34GVOZX","30UZJB2POHY4464FN6NBJ2NLFWF354","","696","img/land5.png","74","697","1","0","2","2","0.8,0.2,0.2,0.2,0.8,0.2,0.2,0.2,0.8","0.2,0.8,0.2,0.2,0.2,0.8,0.8,0.2,0.2","3","",""
"","html-keyboard-response","115","137503","0.0-115.0","3WR9XG3T64X6VQZW2FCTGAPBSLT74M","A346UAH34GVOZX","30UZJB2POHY4464FN6NBJ2NLFWF354","","null","<img src=""img/land5.png"" style=""width:200px;border:14px solid red;"">","null","","","","","","","","","",""
"","image-keyboard-response","116","138364","0.0-116.0","3WR9XG3T64X6VQZW2FCTGAPBSLT74M","A346UAH34GVOZX","30UZJB2POHY4464FN6NBJ2NLFWF354","","860.4000000953674","img/land1.png","75","861.5","2","1","1","2","0.8,0.2,0.2,0.2,0.8,0.2,0.2,0.2,0.8","0.2,0.8,0.2,0.2,0.2,0.8,0.8,0.2,0.2","3","",""
"","html-keyboard-response","117","138667","0.0-117.0","3WR9XG3T64X6VQZW2FCTGAPBSLT74M","A346UAH34GVOZX","30UZJB2POHY4464FN6NBJ2NLFWF354","","null","<img src=""img/land1.png"" style=""width:200px; border:14px solid green;"">","null","","","","","","","","","",""
"","image-keyboard-response","118","139423","0.0-118.0","3WR9XG3T64X6VQZW2FCTGAPBSLT74M","A346UAH34GVOZX","30UZJB2POHY4464FN6NBJ2NLFWF354","","755","img/land1.png","75","755.8999996185303","2","1","1","2","0.8,0.2,0.2,0.2,0.8,0.2,0.2,0.2,0.8","0.2,0.8,0.2,0.2,0.2,0.8,0.8,0.2,0.2","3","",""
"","html-keyboard-response","119","139724","0.0-119.0","3WR9XG3T64X6VQZW2FCTGAPBSLT74M","A346UAH34GVOZX","30UZJB2POHY4464FN6NBJ2NLFWF354","","null","<img src=""img/land1.png"" style=""width:200px; border:14px solid green;"">","null","","","","","","","","","",""
"","image-keyboard-response","120","140230","0.0-120.0","3WR9XG3T64X6VQZW2FCTGAPBSLT74M","A346UAH34GVOZX","30UZJB2POHY4464FN6NBJ2NLFWF354","","504.30000019073486","img/land1.png","75","505.2999997138977","2","1","1","2","0.8,0.2,0.2,0.2,0.8,0.2,0.2,0.2,0.8","0.2,0.8,0.2,0.2,0.2,0.8,0.8,0.2,0.2","3","",""
"","html-keyboard-response","121","140531","0.0-121.0","3WR9XG3T64X6VQZW2FCTGAPBSLT74M","A346UAH34GVOZX","30UZJB2POHY4464FN6NBJ2NLFWF354","","null","<img src=""img/land1.png"" style=""width:200px; border:14px solid green;"">","null","","","","","","","","","",""
"","image-keyboard-response","122","141058","0.0-122.0","3WR9XG3T64X6VQZW2FCTGAPBSLT74M","A346UAH34GVOZX","30UZJB2POHY4464FN6NBJ2NLFWF354","","525.2999997138977","img/land1.png","75","526.4000000953674","2","1","1","2","0.8,0.2,0.2,0.2,0.8,0.2,0.2,0.2,0.8","0.2,0.8,0.2,0.2,0.2,0.8,0.8,0.2,0.2","3","",""
"","html-keyboard-response","123","141359","0.0-123.0","3WR9XG3T64X6VQZW2FCTGAPBSLT74M","A346UAH34GVOZX","30UZJB2POHY4464FN6NBJ2NLFWF354","","null","<img src=""img/land1.png"" style=""width:200px; border:14px solid green;"">","null","","","","","","","","","",""
"","image-keyboard-response","124","141810","0.0-124.0","3WR9XG3T64X6VQZW2FCTGAPBSLT74M","A346UAH34GVOZX","30UZJB2POHY4464FN6NBJ2NLFWF354","","450","img/land1.png","75","450.80000019073486","2","1","1","2","0.8,0.2,0.2,0.2,0.8,0.2,0.2,0.2,0.8","0.2,0.8,0.2,0.2,0.2,0.8,0.8,0.2,0.2","3","",""
"","html-keyboard-response","125","142111","0.0-125.0","3WR9XG3T64X6VQZW2FCTGAPBSLT74M","A346UAH34GVOZX","30UZJB2POHY4464FN6NBJ2NLFWF354","","null","<img src=""img/land1.png"" style=""width:200px; border:14px solid green;"">","null","","","","","","","","","",""
"","image-keyboard-response","126","142537","0.0-126.0","3WR9XG3T64X6VQZW2FCTGAPBSLT74M","A346UAH34GVOZX","30UZJB2POHY4464FN6NBJ2NLFWF354","","425.1000003814697","img/land1.png","75","427.09999990463257","2","1","1","2","0.8,0.2,0.2,0.2,0.8,0.2,0.2,0.2,0.8","0.2,0.8,0.2,0.2,0.2,0.8,0.8,0.2,0.2","3","",""
"","html-keyboard-response","127","142840","0.0-127.0","3WR9XG3T64X6VQZW2FCTGAPBSLT74M","A346UAH34GVOZX","30UZJB2POHY4464FN6NBJ2NLFWF354","","null","<img src=""img/land1.png"" style=""width:200px; border:14px solid green;"">","null","","","","","","","","","",""
"","image-keyboard-response","128","143829","0.0-128.0","3WR9XG3T64X6VQZW2FCTGAPBSLT74M","A346UAH34GVOZX","30UZJB2POHY4464FN6NBJ2NLFWF354","","987.7000002861023","img/land2.png","76","988.6999998092651","3","0","3","2","0.8,0.2,0.2,0.2,0.8,0.2,0.2,0.2,0.8","0.2,0.8,0.2,0.2,0.2,0.8,0.8,0.2,0.2","3","",""
"","html-keyboard-response","129","144131","0.0-129.0","3WR9XG3T64X6VQZW2FCTGAPBSLT74M","A346UAH34GVOZX","30UZJB2POHY4464FN6NBJ2NLFWF354","","null","<img src=""img/land2.png"" style=""width:200px;border:14px solid red;"">","null","","","","","","","","","",""
"","image-keyboard-response","130","144590","0.0-130.0","3WR9XG3T64X6VQZW2FCTGAPBSLT74M","A346UAH34GVOZX","30UZJB2POHY4464FN6NBJ2NLFWF354","","458.40000009536743","img/land2.png","75","459.09999990463257","2","1","3","2","0.8,0.2,0.2,0.2,0.8,0.2,0.2,0.2,0.8","0.2,0.8,0.2,0.2,0.2,0.8,0.8,0.2,0.2","3","",""
"","html-keyboard-response","131","144892","0.0-131.0","3WR9XG3T64X6VQZW2FCTGAPBSLT74M","A346UAH34GVOZX","30UZJB2POHY4464FN6NBJ2NLFWF354","","null","<img src=""img/land2.png"" style=""width:200px; border:14px solid green;"">","null","","","","","","","","","",""
"","image-keyboard-response","132","145392","0.0-132.0","3WR9XG3T64X6VQZW2FCTGAPBSLT74M","A346UAH34GVOZX","30UZJB2POHY4464FN6NBJ2NLFWF354","","499.40000009536743","img/land1.png","75","500.30000019073486","2","1","1","2","0.8,0.2,0.2,0.2,0.8,0.2,0.2,0.2,0.8","0.2,0.8,0.2,0.2,0.2,0.8,0.8,0.2,0.2","3","",""
"","html-keyboard-response","133","145694","0.0-133.0","3WR9XG3T64X6VQZW2FCTGAPBSLT74M","A346UAH34GVOZX","30UZJB2POHY4464FN6NBJ2NLFWF354","","null","<img src=""img/land1.png"" style=""width:200px; border:14px solid green;"">","null","","","","","","","","","",""
"","image-keyboard-response","134","146675","0.0-134.0","3WR9XG3T64X6VQZW2FCTGAPBSLT74M","A346UAH34GVOZX","30UZJB2POHY4464FN6NBJ2NLFWF354","","979.7999997138977","img/land2.png","74","980.7000002861023","1","1","3","2","0.8,0.2,0.2,0.2,0.8,0.2,0.2,0.2,0.8","0.2,0.8,0.2,0.2,0.2,0.8,0.8,0.2,0.2","3","",""
"","html-keyboard-response","135","146982","0.0-135.0","3WR9XG3T64X6VQZW2FCTGAPBSLT74M","A346UAH34GVOZX","30UZJB2POHY4464FN6NBJ2NLFWF354","","null","<img src=""img/land2.png"" style=""width:200px; border:14px solid green;"">","null","","","","","","","","","",""
"","image-keyboard-response","136","147707","0.0-136.0","3WR9XG3T64X6VQZW2FCTGAPBSLT74M","A346UAH34GVOZX","30UZJB2POHY4464FN6NBJ2NLFWF354","","723.5999999046326","img/land5.png","74","724.8000001907349","1","0","2","2","0.8,0.2,0.2,0.2,0.8,0.2,0.2,0.2,0.8","0.2,0.8,0.2,0.2,0.2,0.8,0.8,0.2,0.2","3","",""
"","html-keyboard-response","137","148008","0.0-137.0","3WR9XG3T64X6VQZW2FCTGAPBSLT74M","A346UAH34GVOZX","30UZJB2POHY4464FN6NBJ2NLFWF354","","null","<img src=""img/land5.png"" style=""width:200px;border:14px solid red;"">","null","","","","","","","","","",""
"","image-keyboard-response","138","148787","0.0-138.0","3WR9XG3T64X6VQZW2FCTGAPBSLT74M","A346UAH34GVOZX","30UZJB2POHY4464FN6NBJ2NLFWF354","","778","img/land1.png","75","778.8999996185303","2","0","1","2","0.8,0.2,0.2,0.2,0.8,0.2,0.2,0.2,0.8","0.2,0.8,0.2,0.2,0.2,0.8,0.8,0.2,0.2","3","",""
"","html-keyboard-response","139","149088","0.0-139.0","3WR9XG3T64X6VQZW2FCTGAPBSLT74M","A346UAH34GVOZX","30UZJB2POHY4464FN6NBJ2NLFWF354","","null","<img src=""img/land1.png"" style=""width:200px;border:14px solid red;"">","null","","","","","","","","","",""
"","image-keyboard-response","140","150667","0.0-140.0","3WR9XG3T64X6VQZW2FCTGAPBSLT74M","A346UAH34GVOZX","30UZJB2POHY4464FN6NBJ2NLFWF354","","1578.1000003814697","img/land5.png","76","1578.9000000953674","3","1","2","2","0.8,0.2,0.2,0.2,0.8,0.2,0.2,0.2,0.8","0.2,0.8,0.2,0.2,0.2,0.8,0.8,0.2,0.2","3","",""
"","html-keyboard-response","141","150970","0.0-141.0","3WR9XG3T64X6VQZW2FCTGAPBSLT74M","A346UAH34GVOZX","30UZJB2POHY4464FN6NBJ2NLFWF354","","null","<img src=""img/land5.png"" style=""width:200px; border:14px solid green;"">","null","","","","","","","","","",""
"","image-keyboard-response","142","151721","0.0-142.0","3WR9XG3T64X6VQZW2FCTGAPBSLT74M","A346UAH34GVOZX","30UZJB2POHY4464FN6NBJ2NLFWF354","","750.7999997138977","img/land1.png","75","751.4000000953674","2","1","1","2","0.8,0.2,0.2,0.2,0.8,0.2,0.2,0.2,0.8","0.2,0.8,0.2,0.2,0.2,0.8,0.8,0.2,0.2","3","",""
"","html-keyboard-response","143","152031","0.0-143.0","3WR9XG3T64X6VQZW2FCTGAPBSLT74M","A346UAH34GVOZX","30UZJB2POHY4464FN6NBJ2NLFWF354","","null","<img src=""img/land1.png"" style=""width:200px; border:14px solid green;"">","null","","","","","","","","","",""
"","image-keyboard-response","144","152718","0.0-144.0","3WR9XG3T64X6VQZW2FCTGAPBSLT74M","A346UAH34GVOZX","30UZJB2POHY4464FN6NBJ2NLFWF354","","685.6999998092651","img/land1.png","75","686.5999999046326","2","1","1","2","0.8,0.2,0.2,0.2,0.8,0.2,0.2,0.2,0.8","0.2,0.8,0.2,0.2,0.2,0.8,0.8,0.2,0.2","3","",""
"","html-keyboard-response","145","153020","0.0-145.0","3WR9XG3T64X6VQZW2FCTGAPBSLT74M","A346UAH34GVOZX","30UZJB2POHY4464FN6NBJ2NLFWF354","","null","<img src=""img/land1.png"" style=""width:200px; border:14px solid green;"">","null","","","","","","","","","",""
"","image-keyboard-response","146","153645","0.0-146.0","3WR9XG3T64X6VQZW2FCTGAPBSLT74M","A346UAH34GVOZX","30UZJB2POHY4464FN6NBJ2NLFWF354","","623.1999998092651","img/land1.png","75","624.2000002861023","2","0","1","2","0.8,0.2,0.2,0.2,0.8,0.2,0.2,0.2,0.8","0.2,0.8,0.2,0.2,0.2,0.8,0.8,0.2,0.2","3","",""
"","html-keyboard-response","147","153947","0.0-147.0","3WR9XG3T64X6VQZW2FCTGAPBSLT74M","A346UAH34GVOZX","30UZJB2POHY4464FN6NBJ2NLFWF354","","null","<img src=""img/land1.png"" style=""width:200px;border:14px solid red;"">","null","","","","","","","","","",""
"","image-keyboard-response","148","154537","0.0-148.0","3WR9XG3T64X6VQZW2FCTGAPBSLT74M","A346UAH34GVOZX","30UZJB2POHY4464FN6NBJ2NLFWF354","","588.5999999046326","img/land1.png","75","589.3999996185303","2","0","1","2","0.8,0.2,0.2,0.2,0.8,0.2,0.2,0.2,0.8","0.2,0.8,0.2,0.2,0.2,0.8,0.8,0.2,0.2","3","",""
"","html-keyboard-response","149","154839","0.0-149.0","3WR9XG3T64X6VQZW2FCTGAPBSLT74M","A346UAH34GVOZX","30UZJB2POHY4464FN6NBJ2NLFWF354","","null","<img src=""img/land1.png"" style=""width:200px;border:14px solid red;"">","null","","","","","","","","","",""
"","image-keyboard-response","150","155836","0.0-150.0","3WR9XG3T64X6VQZW2FCTGAPBSLT74M","A346UAH34GVOZX","30UZJB2POHY4464FN6NBJ2NLFWF354","","996.8000001907349","img/land2.png","74","997.6999998092651","1","0","3","2","0.8,0.2,0.2,0.2,0.8,0.2,0.2,0.2,0.8","0.2,0.8,0.2,0.2,0.2,0.8,0.8,0.2,0.2","3","",""
"","html-keyboard-response","151","156139","0.0-151.0","3WR9XG3T64X6VQZW2FCTGAPBSLT74M","A346UAH34GVOZX","30UZJB2POHY4464FN6NBJ2NLFWF354","","null","<img src=""img/land2.png"" style=""width:200px;border:14px solid red;"">","null","","","","","","","","","",""
"","image-keyboard-response","152","156799","0.0-152.0","3WR9XG3T64X6VQZW2FCTGAPBSLT74M","A346UAH34GVOZX","30UZJB2POHY4464FN6NBJ2NLFWF354","","658.5999999046326","img/land2.png","75","659.5","2","0","3","2","0.8,0.2,0.2,0.2,0.8,0.2,0.2,0.2,0.8","0.2,0.8,0.2,0.2,0.2,0.8,0.8,0.2,0.2","3","",""
"","html-keyboard-response","153","157101","0.0-153.0","3WR9XG3T64X6VQZW2FCTGAPBSLT74M","A346UAH34GVOZX","30UZJB2POHY4464FN6NBJ2NLFWF354","","null","<img src=""img/land2.png"" style=""width:200px;border:14px solid red;"">","null","","","","","","","","","",""
"","image-keyboard-response","154","157788","0.0-154.0","3WR9XG3T64X6VQZW2FCTGAPBSLT74M","A346UAH34GVOZX","30UZJB2POHY4464FN6NBJ2NLFWF354","","685.6999998092651","img/land1.png","75","686.8000001907349","2","1","1","2","0.8,0.2,0.2,0.2,0.8,0.2,0.2,0.2,0.8","0.2,0.8,0.2,0.2,0.2,0.8,0.8,0.2,0.2","3","",""
"","html-keyboard-response","155","158090","0.0-155.0","3WR9XG3T64X6VQZW2FCTGAPBSLT74M","A346UAH34GVOZX","30UZJB2POHY4464FN6NBJ2NLFWF354","","null","<img src=""img/land1.png"" style=""width:200px; border:14px solid green;"">","null","","","","","","","","","",""
"","image-keyboard-response","156","158803","0.0-156.0","3WR9XG3T64X6VQZW2FCTGAPBSLT74M","A346UAH34GVOZX","30UZJB2POHY4464FN6NBJ2NLFWF354","","711.6999998092651","img/land2.png","76","712.6999998092651","3","0","3","2","0.8,0.2,0.2,0.2,0.8,0.2,0.2,0.2,0.8","0.2,0.8,0.2,0.2,0.2,0.8,0.8,0.2,0.2","3","",""
"","html-keyboard-response","157","159104","0.0-157.0","3WR9XG3T64X6VQZW2FCTGAPBSLT74M","A346UAH34GVOZX","30UZJB2POHY4464FN6NBJ2NLFWF354","","null","<img src=""img/land2.png"" style=""width:200px;border:14px solid red;"">","null","","","","","","","","","",""
"","image-keyboard-response","158","159895","0.0-158.0","3WR9XG3T64X6VQZW2FCTGAPBSLT74M","A346UAH34GVOZX","30UZJB2POHY4464FN6NBJ2NLFWF354","","789.5","img/land1.png","75","790.3000001907349","2","0","1","2","0.8,0.2,0.2,0.2,0.8,0.2,0.2,0.2,0.8","0.2,0.8,0.2,0.2,0.2,0.8,0.8,0.2,0.2","3","",""
"","html-keyboard-response","159","160197","0.0-159.0","3WR9XG3T64X6VQZW2FCTGAPBSLT74M","A346UAH34GVOZX","30UZJB2POHY4464FN6NBJ2NLFWF354","","null","<img src=""img/land1.png"" style=""width:200px;border:14px solid red;"">","null","","","","","","","","","",""
"","image-keyboard-response","160","160653","0.0-160.0","3WR9XG3T64X6VQZW2FCTGAPBSLT74M","A346UAH34GVOZX","30UZJB2POHY4464FN6NBJ2NLFWF354","","454.5","img/land1.png","75","455.2999997138977","2","0","1","2","0.8,0.2,0.2,0.2,0.8,0.2,0.2,0.2,0.8","0.2,0.8,0.2,0.2,0.2,0.8,0.8,0.2,0.2","3","",""
"","html-keyboard-response","161","160955","0.0-161.0","3WR9XG3T64X6VQZW2FCTGAPBSLT74M","A346UAH34GVOZX","30UZJB2POHY4464FN6NBJ2NLFWF354","","null","<img src=""img/land1.png"" style=""width:200px;border:14px solid red;"">","null","","","","","","","","","",""
"","image-keyboard-response","162","161840","0.0-162.0","3WR9XG3T64X6VQZW2FCTGAPBSLT74M","A346UAH34GVOZX","30UZJB2POHY4464FN6NBJ2NLFWF354","","884.2999997138977","img/land5.png","74","885.0999999046326","1","0","2","2","0.8,0.2,0.2,0.2,0.8,0.2,0.2,0.2,0.8","0.2,0.8,0.2,0.2,0.2,0.8,0.8,0.2,0.2","3","",""
"","html-keyboard-response","163","162142","0.0-163.0","3WR9XG3T64X6VQZW2FCTGAPBSLT74M","A346UAH34GVOZX","30UZJB2POHY4464FN6NBJ2NLFWF354","","null","<img src=""img/land5.png"" style=""width:200px;border:14px solid red;"">","null","","","","","","","","","",""
"","image-keyboard-response","164","162845","0.0-164.0","3WR9XG3T64X6VQZW2FCTGAPBSLT74M","A346UAH34GVOZX","30UZJB2POHY4464FN6NBJ2NLFWF354","","702.2999997138977","img/land1.png","75","703.1999998092651","2","1","1","2","0.8,0.2,0.2,0.2,0.8,0.2,0.2,0.2,0.8","0.2,0.8,0.2,0.2,0.2,0.8,0.8,0.2,0.2","3","",""
"","html-keyboard-response","165","163148","0.0-165.0","3WR9XG3T64X6VQZW2FCTGAPBSLT74M","A346UAH34GVOZX","30UZJB2POHY4464FN6NBJ2NLFWF354","","null","<img src=""img/land1.png"" style=""width:200px; border:14px solid green;"">","null","","","","","","","","","",""
"","image-keyboard-response","166","163600","0.0-166.0","3WR9XG3T64X6VQZW2FCTGAPBSLT74M","A346UAH34GVOZX","30UZJB2POHY4464FN6NBJ2NLFWF354","","451","img/land1.png","75","451.7999997138977","2","1","1","2","0.8,0.2,0.2,0.2,0.8,0.2,0.2,0.2,0.8","0.2,0.8,0.2,0.2,0.2,0.8,0.8,0.2,0.2","3","",""
"","html-keyboard-response","167","163902","0.0-167.0","3WR9XG3T64X6VQZW2FCTGAPBSLT74M","A346UAH34GVOZX","30UZJB2POHY4464FN6NBJ2NLFWF354","","null","<img src=""img/land1.png"" style=""width:200px; border:14px solid green;"">","null","","","","","","","","","",""
"","image-keyboard-response","168","165062","0.0-168.0","3WR9XG3T64X6VQZW2FCTGAPBSLT74M","A346UAH34GVOZX","30UZJB2POHY4464FN6NBJ2NLFWF354","","1159","img/land2.png","74","1159.8999996185303","1","1","3","2","0.8,0.2,0.2,0.2,0.8,0.2,0.2,0.2,0.8","0.2,0.8,0.2,0.2,0.2,0.8,0.8,0.2,0.2","3","",""
"","html-keyboard-response","169","165363","0.0-169.0","3WR9XG3T64X6VQZW2FCTGAPBSLT74M","A346UAH34GVOZX","30UZJB2POHY4464FN6NBJ2NLFWF354","","null","<img src=""img/land2.png"" style=""width:200px; border:14px solid green;"">","null","","","","","","","","","",""
"","image-keyboard-response","170","165843","0.0-170.0","3WR9XG3T64X6VQZW2FCTGAPBSLT74M","A346UAH34GVOZX","30UZJB2POHY4464FN6NBJ2NLFWF354","","479","img/land5.png","75","479.80000019073486","2","0","2","2","0.8,0.2,0.2,0.2,0.8,0.2,0.2,0.2,0.8","0.2,0.8,0.2,0.2,0.2,0.8,0.8,0.2,0.2","3","",""
"","html-keyboard-response","171","166144","0.0-171.0","3WR9XG3T64X6VQZW2FCTGAPBSLT74M","A346UAH34GVOZX","30UZJB2POHY4464FN6NBJ2NLFWF354","","null","<img src=""img/land5.png"" style=""width:200px;border:14px solid red;"">","null","","","","","","","","","",""
"","image-keyboard-response","172","166910","0.0-172.0","3WR9XG3T64X6VQZW2FCTGAPBSLT74M","A346UAH34GVOZX","30UZJB2POHY4464FN6NBJ2NLFWF354","","764.6999998092651","img/land1.png","75","765.5999999046326","2","1","1","2","0.8,0.2,0.2,0.2,0.8,0.2,0.2,0.2,0.8","0.2,0.8,0.2,0.2,0.2,0.8,0.8,0.2,0.2","3","",""
"","html-keyboard-response","173","167211","0.0-173.0","3WR9XG3T64X6VQZW2FCTGAPBSLT74M","A346UAH34GVOZX","30UZJB2POHY4464FN6NBJ2NLFWF354","","null","<img src=""img/land1.png"" style=""width:200px; border:14px solid green;"">","null","","","","","","","","","",""
"","image-keyboard-response","174","168122","0.0-174.0","3WR9XG3T64X6VQZW2FCTGAPBSLT74M","A346UAH34GVOZX","30UZJB2POHY4464FN6NBJ2NLFWF354","","909.4000000953674","img/land2.png","74","910.3000001907349","1","1","3","2","0.8,0.2,0.2,0.2,0.8,0.2,0.2,0.2,0.8","0.2,0.8,0.2,0.2,0.2,0.8,0.8,0.2,0.2","3","",""
"","html-keyboard-response","175","168424","0.0-175.0","3WR9XG3T64X6VQZW2FCTGAPBSLT74M","A346UAH34GVOZX","30UZJB2POHY4464FN6NBJ2NLFWF354","","null","<img src=""img/land2.png"" style=""width:200px; border:14px solid green;"">","null","","","","","","","","","",""
"","image-keyboard-response","176","168830","0.0-176.0","3WR9XG3T64X6VQZW2FCTGAPBSLT74M","A346UAH34GVOZX","30UZJB2POHY4464FN6NBJ2NLFWF354","","404.80000019073486","img/land1.png","75","405.8999996185303","2","1","1","2","0.8,0.2,0.2,0.2,0.8,0.2,0.2,0.2,0.8","0.2,0.8,0.2,0.2,0.2,0.8,0.8,0.2,0.2","3","",""
"","html-keyboard-response","177","169132","0.0-177.0","3WR9XG3T64X6VQZW2FCTGAPBSLT74M","A346UAH34GVOZX","30UZJB2POHY4464FN6NBJ2NLFWF354","","null","<img src=""img/land1.png"" style=""width:200px; border:14px solid green;"">","null","","","","","","","","","",""
"","image-keyboard-response","178","169624","0.0-178.0","3WR9XG3T64X6VQZW2FCTGAPBSLT74M","A346UAH34GVOZX","30UZJB2POHY4464FN6NBJ2NLFWF354","","490.80000019073486","img/land1.png","75","491.8999996185303","2","0","1","2","0.8,0.2,0.2,0.2,0.8,0.2,0.2,0.2,0.8","0.2,0.8,0.2,0.2,0.2,0.8,0.8,0.2,0.2","3","",""
"","html-keyboard-response","179","169927","0.0-179.0","3WR9XG3T64X6VQZW2FCTGAPBSLT74M","A346UAH34GVOZX","30UZJB2POHY4464FN6NBJ2NLFWF354","","null","<img src=""img/land1.png"" style=""width:200px;border:14px solid red;"">","null","","","","","","","","","",""
"","image-keyboard-response","180","170356","0.0-180.0","3WR9XG3T64X6VQZW2FCTGAPBSLT74M","A346UAH34GVOZX","30UZJB2POHY4464FN6NBJ2NLFWF354","","427.80000019073486","img/land1.png","75","428.59999990463257","2","0","1","2","0.8,0.2,0.2,0.2,0.8,0.2,0.2,0.2,0.8","0.2,0.8,0.2,0.2,0.2,0.8,0.8,0.2,0.2","3","",""
"","html-keyboard-response","181","170657","0.0-181.0","3WR9XG3T64X6VQZW2FCTGAPBSLT74M","A346UAH34GVOZX","30UZJB2POHY4464FN6NBJ2NLFWF354","","null","<img src=""img/land1.png"" style=""width:200px;border:14px solid red;"">","null","","","","","","","","","",""
"","image-keyboard-response","182","171292","0.0-182.0","3WR9XG3T64X6VQZW2FCTGAPBSLT74M","A346UAH34GVOZX","30UZJB2POHY4464FN6NBJ2NLFWF354","","633.5","img/land5.png","76","634.4000000953674","3","1","2","2","0.8,0.2,0.2,0.2,0.8,0.2,0.2,0.2,0.8","0.2,0.8,0.2,0.2,0.2,0.8,0.8,0.2,0.2","3","",""
"","html-keyboard-response","183","171594","0.0-183.0","3WR9XG3T64X6VQZW2FCTGAPBSLT74M","A346UAH34GVOZX","30UZJB2POHY4464FN6NBJ2NLFWF354","","null","<img src=""img/land5.png"" style=""width:200px; border:14px solid green;"">","null","","","","","","","","","",""
"","image-keyboard-response","184","172165","0.0-184.0","3WR9XG3T64X6VQZW2FCTGAPBSLT74M","A346UAH34GVOZX","30UZJB2POHY4464FN6NBJ2NLFWF354","","570","img/land1.png","75","571","2","1","1","2","0.8,0.2,0.2,0.2,0.8,0.2,0.2,0.2,0.8","0.2,0.8,0.2,0.2,0.2,0.8,0.8,0.2,0.2","3","",""
"","html-keyboard-response","185","172467","0.0-185.0","3WR9XG3T64X6VQZW2FCTGAPBSLT74M","A346UAH34GVOZX","30UZJB2POHY4464FN6NBJ2NLFWF354","","null","<img src=""img/land1.png"" style=""width:200px; border:14px solid green;"">","null","","","","","","","","","",""
"","image-keyboard-response","186","173096","0.0-186.0","3WR9XG3T64X6VQZW2FCTGAPBSLT74M","A346UAH34GVOZX","30UZJB2POHY4464FN6NBJ2NLFWF354","","628.6999998092651","img/land5.png","76","629.4000000953674","3","1","2","2","0.8,0.2,0.2,0.2,0.8,0.2,0.2,0.2,0.8","0.2,0.8,0.2,0.2,0.2,0.8,0.8,0.2,0.2","3","",""
"","html-keyboard-response","187","173398","0.0-187.0","3WR9XG3T64X6VQZW2FCTGAPBSLT74M","A346UAH34GVOZX","30UZJB2POHY4464FN6NBJ2NLFWF354","","null","<img src=""img/land5.png"" style=""width:200px; border:14px solid green;"">","null","","","","","","","","","",""
"","image-keyboard-response","188","173902","0.0-188.0","3WR9XG3T64X6VQZW2FCTGAPBSLT74M","A346UAH34GVOZX","30UZJB2POHY4464FN6NBJ2NLFWF354","","503","img/land1.png","75","504","2","1","1","2","0.8,0.2,0.2,0.2,0.8,0.2,0.2,0.2,0.8","0.2,0.8,0.2,0.2,0.2,0.8,0.8,0.2,0.2","3","",""
"","html-keyboard-response","189","174204","0.0-189.0","3WR9XG3T64X6VQZW2FCTGAPBSLT74M","A346UAH34GVOZX","30UZJB2POHY4464FN6NBJ2NLFWF354","","null","<img src=""img/land1.png"" style=""width:200px; border:14px solid green;"">","null","","","","","","","","","",""
"","image-keyboard-response","190","174977","0.0-190.0","3WR9XG3T64X6VQZW2FCTGAPBSLT74M","A346UAH34GVOZX","30UZJB2POHY4464FN6NBJ2NLFWF354","","772.0999999046326","img/land5.png","76","773.0999999046326","3","1","2","2","0.8,0.2,0.2,0.2,0.8,0.2,0.2,0.2,0.8","0.2,0.8,0.2,0.2,0.2,0.8,0.8,0.2,0.2","3","",""
"","html-keyboard-response","191","175279","0.0-191.0","3WR9XG3T64X6VQZW2FCTGAPBSLT74M","A346UAH34GVOZX","30UZJB2POHY4464FN6NBJ2NLFWF354","","null","<img src=""img/land5.png"" style=""width:200px; border:14px solid green;"">","null","","","","","","","","","",""
"","image-keyboard-response","192","175791","0.0-192.0","3WR9XG3T64X6VQZW2FCTGAPBSLT74M","A346UAH34GVOZX","30UZJB2POHY4464FN6NBJ2NLFWF354","","510.7000002861023","img/land2.png","75","511.59999990463257","2","0","3","2","0.8,0.2,0.2,0.2,0.8,0.2,0.2,0.2,0.8","0.2,0.8,0.2,0.2,0.2,0.8,0.8,0.2,0.2","3","",""
"","html-keyboard-response","193","176092","0.0-193.0","3WR9XG3T64X6VQZW2FCTGAPBSLT74M","A346UAH34GVOZX","30UZJB2POHY4464FN6NBJ2NLFWF354","","null","<img src=""img/land2.png"" style=""width:200px;border:14px solid red;"">","null","","","","","","","","","",""
"","image-keyboard-response","194","177189","0.0-194.0","3WR9XG3T64X6VQZW2FCTGAPBSLT74M","A346UAH34GVOZX","30UZJB2POHY4464FN6NBJ2NLFWF354","","1096.0999999046326","img/land1.png","75","1097.1000003814697","2","1","1","2","0.8,0.2,0.2,0.2,0.8,0.2,0.2,0.2,0.8","0.2,0.8,0.2,0.2,0.2,0.8,0.8,0.2,0.2","3","",""
"","html-keyboard-response","195","177491","0.0-195.0","3WR9XG3T64X6VQZW2FCTGAPBSLT74M","A346UAH34GVOZX","30UZJB2POHY4464FN6NBJ2NLFWF354","","null","<img src=""img/land1.png"" style=""width:200px; border:14px solid green;"">","null","","","","","","","","","",""
"","image-keyboard-response","196","178131","0.0-196.0","3WR9XG3T64X6VQZW2FCTGAPBSLT74M","A346UAH34GVOZX","30UZJB2POHY4464FN6NBJ2NLFWF354","","638.8000001907349","img/land1.png","75","639.6999998092651","2","1","1","2","0.8,0.2,0.2,0.2,0.8,0.2,0.2,0.2,0.8","0.2,0.8,0.2,0.2,0.2,0.8,0.8,0.2,0.2","3","",""
"","html-keyboard-response","197","178433","0.0-197.0","3WR9XG3T64X6VQZW2FCTGAPBSLT74M","A346UAH34GVOZX","30UZJB2POHY4464FN6NBJ2NLFWF354","","null","<img src=""img/land1.png"" style=""width:200px; border:14px solid green;"">","null","","","","","","","","","",""
"","image-keyboard-response","198","179205","0.0-198.0","3WR9XG3T64X6VQZW2FCTGAPBSLT74M","A346UAH34GVOZX","30UZJB2POHY4464FN6NBJ2NLFWF354","","771.1999998092651","img/land5.png","76","772","3","1","2","2","0.8,0.2,0.2,0.2,0.8,0.2,0.2,0.2,0.8","0.2,0.8,0.2,0.2,0.2,0.8,0.8,0.2,0.2","3","",""
"","html-keyboard-response","199","179506","0.0-199.0","3WR9XG3T64X6VQZW2FCTGAPBSLT74M","A346UAH34GVOZX","30UZJB2POHY4464FN6NBJ2NLFWF354","","null","<img src=""img/land5.png"" style=""width:200px; border:14px solid green;"">","null","","","","","","","","","",""
"","image-keyboard-response","200","180168","0.0-200.0","3WR9XG3T64X6VQZW2FCTGAPBSLT74M","A346UAH34GVOZX","30UZJB2POHY4464FN6NBJ2NLFWF354","","660.4000000953674","img/land2.png","74","661.1999998092651","1","1","3","2","0.8,0.2,0.2,0.2,0.8,0.2,0.2,0.2,0.8","0.2,0.8,0.2,0.2,0.2,0.8,0.8,0.2,0.2","3","",""
"","html-keyboard-response","201","180472","0.0-201.0","3WR9XG3T64X6VQZW2FCTGAPBSLT74M","A346UAH34GVOZX","30UZJB2POHY4464FN6NBJ2NLFWF354","","null","<img src=""img/land2.png"" style=""width:200px; border:14px solid green;"">","null","","","","","","","","","",""
"","image-keyboard-response","202","181315","0.0-202.0","3WR9XG3T64X6VQZW2FCTGAPBSLT74M","A346UAH34GVOZX","30UZJB2POHY4464FN6NBJ2NLFWF354","","841.5","img/land2.png","74","842.5","1","1","3","2","0.8,0.2,0.2,0.2,0.8,0.2,0.2,0.2,0.8","0.2,0.8,0.2,0.2,0.2,0.8,0.8,0.2,0.2","3","",""
"","html-keyboard-response","203","181617","0.0-203.0","3WR9XG3T64X6VQZW2FCTGAPBSLT74M","A346UAH34GVOZX","30UZJB2POHY4464FN6NBJ2NLFWF354","","null","<img src=""img/land2.png"" style=""width:200px; border:14px solid green;"">","null","","","","","","","","","",""
"","image-keyboard-response","204","182168","0.0-204.0","3WR9XG3T64X6VQZW2FCTGAPBSLT74M","A346UAH34GVOZX","30UZJB2POHY4464FN6NBJ2NLFWF354","","549.3000001907349","img/land5.png","75","551.0999999046326","2","1","2","2","0.8,0.2,0.2,0.2,0.8,0.2,0.2,0.2,0.8","0.2,0.8,0.2,0.2,0.2,0.8,0.8,0.2,0.2","3","",""
"","html-keyboard-response","205","182471","0.0-205.0","3WR9XG3T64X6VQZW2FCTGAPBSLT74M","A346UAH34GVOZX","30UZJB2POHY4464FN6NBJ2NLFWF354","","null","<img src=""img/land5.png"" style=""width:200px; border:14px solid green;"">","null","","","","","","","","","",""
"","image-keyboard-response","206","183581","0.0-206.0","3WR9XG3T64X6VQZW2FCTGAPBSLT74M","A346UAH34GVOZX","30UZJB2POHY4464FN6NBJ2NLFWF354","","1109.2999997138977","img/land1.png","74","1110.2000002861023","1","0","1","2","0.8,0.2,0.2,0.2,0.8,0.2,0.2,0.2,0.8","0.2,0.8,0.2,0.2,0.2,0.8,0.8,0.2,0.2","3","",""
"","html-keyboard-response","207","183883","0.0-207.0","3WR9XG3T64X6VQZW2FCTGAPBSLT74M","A346UAH34GVOZX","30UZJB2POHY4464FN6NBJ2NLFWF354","","null","<img src=""img/land1.png"" style=""width:200px;border:14px solid red;"">","null","","","","","","","","","",""
"","image-keyboard-response","208","184965","0.0-208.0","3WR9XG3T64X6VQZW2FCTGAPBSLT74M","A346UAH34GVOZX","30UZJB2POHY4464FN6NBJ2NLFWF354","","1080.0999999046326","img/land5.png","76","1081.0999999046326","3","1","2","2","0.8,0.2,0.2,0.2,0.8,0.2,0.2,0.2,0.8","0.2,0.8,0.2,0.2,0.2,0.8,0.8,0.2,0.2","3","",""
"","html-keyboard-response","209","185267","0.0-209.0","3WR9XG3T64X6VQZW2FCTGAPBSLT74M","A346UAH34GVOZX","30UZJB2POHY4464FN6NBJ2NLFWF354","","null","<img src=""img/land5.png"" style=""width:200px; border:14px solid green;"">","null","","","","","","","","","",""
"","image-keyboard-response","210","185937","0.0-210.0","3WR9XG3T64X6VQZW2FCTGAPBSLT74M","A346UAH34GVOZX","30UZJB2POHY4464FN6NBJ2NLFWF354","","668.7999997138977","img/land1.png","75","669.9000000953674","2","0","1","2","0.8,0.2,0.2,0.2,0.8,0.2,0.2,0.2,0.8","0.2,0.8,0.2,0.2,0.2,0.8,0.8,0.2,0.2","3","",""
"","html-keyboard-response","211","186239","0.0-211.0","3WR9XG3T64X6VQZW2FCTGAPBSLT74M","A346UAH34GVOZX","30UZJB2POHY4464FN6NBJ2NLFWF354","","null","<img src=""img/land1.png"" style=""width:200px;border:14px solid red;"">","null","","","","","","","","","",""
"","image-keyboard-response","212","187037","0.0-212.0","3WR9XG3T64X6VQZW2FCTGAPBSLT74M","A346UAH34GVOZX","30UZJB2POHY4464FN6NBJ2NLFWF354","","796.2000002861023","img/land2.png","74","797.1999998092651","1","1","3","2","0.8,0.2,0.2,0.2,0.8,0.2,0.2,0.2,0.8","0.2,0.8,0.2,0.2,0.2,0.8,0.8,0.2,0.2","3","",""
"","html-keyboard-response","213","187338","0.0-213.0","3WR9XG3T64X6VQZW2FCTGAPBSLT74M","A346UAH34GVOZX","30UZJB2POHY4464FN6NBJ2NLFWF354","","null","<img src=""img/land2.png"" style=""width:200px; border:14px solid green;"">","null","","","","","","","","","",""
"","image-keyboard-response","214","188136","0.0-214.0","3WR9XG3T64X6VQZW2FCTGAPBSLT74M","A346UAH34GVOZX","30UZJB2POHY4464FN6NBJ2NLFWF354","","796.2000002861023","img/land5.png","76","797.3000001907349","3","1","2","2","0.8,0.2,0.2,0.2,0.8,0.2,0.2,0.2,0.8","0.2,0.8,0.2,0.2,0.2,0.8,0.8,0.2,0.2","3","",""
"","html-keyboard-response","215","188437","0.0-215.0","3WR9XG3T64X6VQZW2FCTGAPBSLT74M","A346UAH34GVOZX","30UZJB2POHY4464FN6NBJ2NLFWF354","","null","<img src=""img/land5.png"" style=""width:200px; border:14px solid green;"">","null","","","","","","","","","",""
"","image-keyboard-response","216","189076","0.0-216.0","3WR9XG3T64X6VQZW2FCTGAPBSLT74M","A346UAH34GVOZX","30UZJB2POHY4464FN6NBJ2NLFWF354","","637.2000002861023","img/land5.png","76","638.0999999046326","3","1","2","2","0.8,0.2,0.2,0.2,0.8,0.2,0.2,0.2,0.8","0.2,0.8,0.2,0.2,0.2,0.8,0.8,0.2,0.2","3","",""
"","html-keyboard-response","217","189378","0.0-217.0","3WR9XG3T64X6VQZW2FCTGAPBSLT74M","A346UAH34GVOZX","30UZJB2POHY4464FN6NBJ2NLFWF354","","null","<img src=""img/land5.png"" style=""width:200px; border:14px solid green;"">","null","","","","","","","","","",""
"","image-keyboard-response","218","189929","0.0-218.0","3WR9XG3T64X6VQZW2FCTGAPBSLT74M","A346UAH34GVOZX","30UZJB2POHY4464FN6NBJ2NLFWF354","","550.5999999046326","img/land1.png","75","551.7000002861023","2","1","1","2","0.8,0.2,0.2,0.2,0.8,0.2,0.2,0.2,0.8","0.2,0.8,0.2,0.2,0.2,0.8,0.8,0.2,0.2","3","",""
"","html-keyboard-response","219","190232","0.0-219.0","3WR9XG3T64X6VQZW2FCTGAPBSLT74M","A346UAH34GVOZX","30UZJB2POHY4464FN6NBJ2NLFWF354","","null","<img src=""img/land1.png"" style=""width:200px; border:14px solid green;"">","null","","","","","","","","","",""
"","image-keyboard-response","220","190784","0.0-220.0","3WR9XG3T64X6VQZW2FCTGAPBSLT74M","A346UAH34GVOZX","30UZJB2POHY4464FN6NBJ2NLFWF354","","551.5","img/land1.png","75","552.1999998092651","2","1","1","2","0.8,0.2,0.2,0.2,0.8,0.2,0.2,0.2,0.8","0.2,0.8,0.2,0.2,0.2,0.8,0.8,0.2,0.2","3","",""
"","html-keyboard-response","221","191085","0.0-221.0","3WR9XG3T64X6VQZW2FCTGAPBSLT74M","A346UAH34GVOZX","30UZJB2POHY4464FN6NBJ2NLFWF354","","null","<img src=""img/land1.png"" style=""width:200px; border:14px solid green;"">","null","","","","","","","","","",""
"","image-keyboard-response","222","191622","0.0-222.0","3WR9XG3T64X6VQZW2FCTGAPBSLT74M","A346UAH34GVOZX","30UZJB2POHY4464FN6NBJ2NLFWF354","","536.8000001907349","img/land1.png","75","537.3000001907349","2","0","1","2","0.8,0.2,0.2,0.2,0.8,0.2,0.2,0.2,0.8","0.2,0.8,0.2,0.2,0.2,0.8,0.8,0.2,0.2","3","",""
"","html-keyboard-response","223","191925","0.0-223.0","3WR9XG3T64X6VQZW2FCTGAPBSLT74M","A346UAH34GVOZX","30UZJB2POHY4464FN6NBJ2NLFWF354","","null","<img src=""img/land1.png"" style=""width:200px;border:14px solid red;"">","null","","","","","","","","","",""
"","image-keyboard-response","224","192704","0.0-224.0","3WR9XG3T64X6VQZW2FCTGAPBSLT74M","A346UAH34GVOZX","30UZJB2POHY4464FN6NBJ2NLFWF354","","778.2999997138977","img/land2.png","74","779.1000003814697","1","1","3","2","0.8,0.2,0.2,0.2,0.8,0.2,0.2,0.2,0.8","0.2,0.8,0.2,0.2,0.2,0.8,0.8,0.2,0.2","3","",""
"","html-keyboard-response","225","193007","0.0-225.0","3WR9XG3T64X6VQZW2FCTGAPBSLT74M","A346UAH34GVOZX","30UZJB2POHY4464FN6NBJ2NLFWF354","","null","<img src=""img/land2.png"" style=""width:200px; border:14px solid green;"">","null","","","","","","","","","",""
"","image-keyboard-response","226","193608","0.0-226.0","3WR9XG3T64X6VQZW2FCTGAPBSLT74M","A346UAH34GVOZX","30UZJB2POHY4464FN6NBJ2NLFWF354","","599.7000002861023","img/land2.png","74","601.4000000953674","1","1","3","2","0.8,0.2,0.2,0.2,0.8,0.2,0.2,0.2,0.8","0.2,0.8,0.2,0.2,0.2,0.8,0.8,0.2,0.2","3","",""
"","html-keyboard-response","227","193913","0.0-227.0","3WR9XG3T64X6VQZW2FCTGAPBSLT74M","A346UAH34GVOZX","30UZJB2POHY4464FN6NBJ2NLFWF354","","null","<img src=""img/land2.png"" style=""width:200px; border:14px solid green;"">","null","","","","","","","","","",""
"","image-keyboard-response","228","194395","0.0-228.0","3WR9XG3T64X6VQZW2FCTGAPBSLT74M","A346UAH34GVOZX","30UZJB2POHY4464FN6NBJ2NLFWF354","","481.09999990463257","img/land1.png","75","481.80000019073486","2","0","1","2","0.8,0.2,0.2,0.2,0.8,0.2,0.2,0.2,0.8","0.2,0.8,0.2,0.2,0.2,0.8,0.8,0.2,0.2","3","",""
"","html-keyboard-response","229","194696","0.0-229.0","3WR9XG3T64X6VQZW2FCTGAPBSLT74M","A346UAH34GVOZX","30UZJB2POHY4464FN6NBJ2NLFWF354","","null","<img src=""img/land1.png"" style=""width:200px;border:14px solid red;"">","null","","","","","","","","","",""
"","image-keyboard-response","230","195167","0.0-230.0","3WR9XG3T64X6VQZW2FCTGAPBSLT74M","A346UAH34GVOZX","30UZJB2POHY4464FN6NBJ2NLFWF354","","469.80000019073486","img/land1.png","75","470.59999990463257","2","0","1","2","0.8,0.2,0.2,0.2,0.8,0.2,0.2,0.2,0.8","0.2,0.8,0.2,0.2,0.2,0.8,0.8,0.2,0.2","3","",""
"","html-keyboard-response","231","195469","0.0-231.0","3WR9XG3T64X6VQZW2FCTGAPBSLT74M","A346UAH34GVOZX","30UZJB2POHY4464FN6NBJ2NLFWF354","","null","<img src=""img/land1.png"" style=""width:200px;border:14px solid red;"">","null","","","","","","","","","",""
"","image-keyboard-response","232","196123","0.0-232.0","3WR9XG3T64X6VQZW2FCTGAPBSLT74M","A346UAH34GVOZX","30UZJB2POHY4464FN6NBJ2NLFWF354","","652.5999999046326","img/land5.png","76","653.3000001907349","3","0","2","2","0.8,0.2,0.2,0.2,0.8,0.2,0.2,0.2,0.8","0.2,0.8,0.2,0.2,0.2,0.8,0.8,0.2,0.2","3","",""
"","html-keyboard-response","233","196425","0.0-233.0","3WR9XG3T64X6VQZW2FCTGAPBSLT74M","A346UAH34GVOZX","30UZJB2POHY4464FN6NBJ2NLFWF354","","null","<img src=""img/land5.png"" style=""width:200px;border:14px solid red;"">","null","","","","","","","","","",""
"","image-keyboard-response","234","197094","0.0-234.0","3WR9XG3T64X6VQZW2FCTGAPBSLT74M","A346UAH34GVOZX","30UZJB2POHY4464FN6NBJ2NLFWF354","","668.9000000953674","img/land1.png","75","669.5","2","0","1","2","0.8,0.2,0.2,0.2,0.8,0.2,0.2,0.2,0.8","0.2,0.8,0.2,0.2,0.2,0.8,0.8,0.2,0.2","3","",""
"","html-keyboard-response","235","197397","0.0-235.0","3WR9XG3T64X6VQZW2FCTGAPBSLT74M","A346UAH34GVOZX","30UZJB2POHY4464FN6NBJ2NLFWF354","","null","<img src=""img/land1.png"" style=""width:200px;border:14px solid red;"">","null","","","","","","","","","",""
"","image-keyboard-response","236","197877","0.0-236.0","3WR9XG3T64X6VQZW2FCTGAPBSLT74M","A346UAH34GVOZX","30UZJB2POHY4464FN6NBJ2NLFWF354","","479.19999980926514","img/land1.png","75","480","2","1","1","2","0.8,0.2,0.2,0.2,0.8,0.2,0.2,0.2,0.8","0.2,0.8,0.2,0.2,0.2,0.8,0.8,0.2,0.2","3","",""
"","html-keyboard-response","237","198179","0.0-237.0","3WR9XG3T64X6VQZW2FCTGAPBSLT74M","A346UAH34GVOZX","30UZJB2POHY4464FN6NBJ2NLFWF354","","null","<img src=""img/land1.png"" style=""width:200px; border:14px solid green;"">","null","","","","","","","","","",""
"","image-keyboard-response","238","198693","0.0-238.0","3WR9XG3T64X6VQZW2FCTGAPBSLT74M","A346UAH34GVOZX","30UZJB2POHY4464FN6NBJ2NLFWF354","","513.4000000953674","img/land1.png","75","514","2","1","1","2","0.8,0.2,0.2,0.2,0.8,0.2,0.2,0.2,0.8","0.2,0.8,0.2,0.2,0.2,0.8,0.8,0.2,0.2","3","",""
"","html-keyboard-response","239","198994","0.0-239.0","3WR9XG3T64X6VQZW2FCTGAPBSLT74M","A346UAH34GVOZX","30UZJB2POHY4464FN6NBJ2NLFWF354","","null","<img src=""img/land1.png"" style=""width:200px; border:14px solid green;"">","null","","","","","","","","","",""
"","image-keyboard-response","240","199439","0.0-240.0","3WR9XG3T64X6VQZW2FCTGAPBSLT74M","A346UAH34GVOZX","30UZJB2POHY4464FN6NBJ2NLFWF354","","444.2999997138977","img/land1.png","75","445","2","1","1","2","0.8,0.2,0.2,0.2,0.8,0.2,0.2,0.2,0.8","0.2,0.8,0.2,0.2,0.2,0.8,0.8,0.2,0.2","3","",""
"","html-keyboard-response","241","199740","0.0-241.0","3WR9XG3T64X6VQZW2FCTGAPBSLT74M","A346UAH34GVOZX","30UZJB2POHY4464FN6NBJ2NLFWF354","","null","<img src=""img/land1.png"" style=""width:200px; border:14px solid green;"">","null","","","","","","","","","",""
"","image-keyboard-response","242","200265","0.0-242.0","3WR9XG3T64X6VQZW2FCTGAPBSLT74M","A346UAH34GVOZX","30UZJB2POHY4464FN6NBJ2NLFWF354","","523.3000001907349","img/land5.png","76","524.2999997138977","3","1","2","2","0.8,0.2,0.2,0.2,0.8,0.2,0.2,0.2,0.8","0.2,0.8,0.2,0.2,0.2,0.8,0.8,0.2,0.2","3","",""
"","html-keyboard-response","243","200566","0.0-243.0","3WR9XG3T64X6VQZW2FCTGAPBSLT74M","A346UAH34GVOZX","30UZJB2POHY4464FN6NBJ2NLFWF354","","null","<img src=""img/land5.png"" style=""width:200px; border:14px solid green;"">","null","","","","","","","","","",""
"","image-keyboard-response","244","201168","0.0-244.0","3WR9XG3T64X6VQZW2FCTGAPBSLT74M","A346UAH34GVOZX","30UZJB2POHY4464FN6NBJ2NLFWF354","","600.8000001907349","img/land1.png","75","601.7000002861023","2","1","1","2","0.8,0.2,0.2,0.2,0.8,0.2,0.2,0.2,0.8","0.2,0.8,0.2,0.2,0.2,0.8,0.8,0.2,0.2","3","",""
"","html-keyboard-response","245","201470","0.0-245.0","3WR9XG3T64X6VQZW2FCTGAPBSLT74M","A346UAH34GVOZX","30UZJB2POHY4464FN6NBJ2NLFWF354","","null","<img src=""img/land1.png"" style=""width:200px; border:14px solid green;"">","null","","","","","","","","","",""
"","image-keyboard-response","246","201926","0.0-246.0","3WR9XG3T64X6VQZW2FCTGAPBSLT74M","A346UAH34GVOZX","30UZJB2POHY4464FN6NBJ2NLFWF354","","454.90000009536743","img/land1.png","75","455.59999990463257","2","1","1","2","0.8,0.2,0.2,0.2,0.8,0.2,0.2,0.2,0.8","0.2,0.8,0.2,0.2,0.2,0.8,0.8,0.2,0.2","3","",""
"","html-keyboard-response","247","202228","0.0-247.0","3WR9XG3T64X6VQZW2FCTGAPBSLT74M","A346UAH34GVOZX","30UZJB2POHY4464FN6NBJ2NLFWF354","","null","<img src=""img/land1.png"" style=""width:200px; border:14px solid green;"">","null","","","","","","","","","",""
"","image-keyboard-response","248","202769","0.0-248.0","3WR9XG3T64X6VQZW2FCTGAPBSLT74M","A346UAH34GVOZX","30UZJB2POHY4464FN6NBJ2NLFWF354","","540.3000001907349","img/land2.png","74","541.1999998092651","1","0","3","2","0.8,0.2,0.2,0.2,0.8,0.2,0.2,0.2,0.8","0.2,0.8,0.2,0.2,0.2,0.8,0.8,0.2,0.2","3","",""
"","html-keyboard-response","249","203071","0.0-249.0","3WR9XG3T64X6VQZW2FCTGAPBSLT74M","A346UAH34GVOZX","30UZJB2POHY4464FN6NBJ2NLFWF354","","null","<img src=""img/land2.png"" style=""width:200px;border:14px solid red;"">","null","","","","","","","","","",""
"","image-keyboard-response","250","203598","0.0-250.0","3WR9XG3T64X6VQZW2FCTGAPBSLT74M","A346UAH34GVOZX","30UZJB2POHY4464FN6NBJ2NLFWF354","","525.5999999046326","img/land1.png","75","526.5","2","1","1","2","0.8,0.2,0.2,0.2,0.8,0.2,0.2,0.2,0.8","0.2,0.8,0.2,0.2,0.2,0.8,0.8,0.2,0.2","3","",""
"","html-keyboard-response","251","203900","0.0-251.0","3WR9XG3T64X6VQZW2FCTGAPBSLT74M","A346UAH34GVOZX","30UZJB2POHY4464FN6NBJ2NLFWF354","","null","<img src=""img/land1.png"" style=""width:200px; border:14px solid green;"">","null","","","","","","","","","",""
"","image-keyboard-response","252","204506","0.0-252.0","3WR9XG3T64X6VQZW2FCTGAPBSLT74M","A346UAH34GVOZX","30UZJB2POHY4464FN6NBJ2NLFWF354","","605.9000000953674","img/land5.png","76","606.5","3","1","2","2","0.8,0.2,0.2,0.2,0.8,0.2,0.2,0.2,0.8","0.2,0.8,0.2,0.2,0.2,0.8,0.8,0.2,0.2","3","",""
"","html-keyboard-response","253","204808","0.0-253.0","3WR9XG3T64X6VQZW2FCTGAPBSLT74M","A346UAH34GVOZX","30UZJB2POHY4464FN6NBJ2NLFWF354","","null","<img src=""img/land5.png"" style=""width:200px; border:14px solid green;"">","null","","","","","","","","","",""
"","image-keyboard-response","254","205200","0.0-254.0","3WR9XG3T64X6VQZW2FCTGAPBSLT74M","A346UAH34GVOZX","30UZJB2POHY4464FN6NBJ2NLFWF354","","390.80000019073486","img/land5.png","76","391.90000009536743","3","1","2","2","0.8,0.2,0.2,0.2,0.8,0.2,0.2,0.2,0.8","0.2,0.8,0.2,0.2,0.2,0.8,0.8,0.2,0.2","3","",""
"","html-keyboard-response","255","205501","0.0-255.0","3WR9XG3T64X6VQZW2FCTGAPBSLT74M","A346UAH34GVOZX","30UZJB2POHY4464FN6NBJ2NLFWF354","","null","<img src=""img/land5.png"" style=""width:200px; border:14px solid green;"">","null","","","","","","","","","",""
"","image-keyboard-response","256","205978","0.0-256.0","3WR9XG3T64X6VQZW2FCTGAPBSLT74M","A346UAH34GVOZX","30UZJB2POHY4464FN6NBJ2NLFWF354","","475.6000003814697","img/land1.png","75","476.40000009536743","2","1","1","2","0.8,0.2,0.2,0.2,0.8,0.2,0.2,0.2,0.8","0.2,0.8,0.2,0.2,0.2,0.8,0.8,0.2,0.2","3","",""
"","html-keyboard-response","257","206280","0.0-257.0","3WR9XG3T64X6VQZW2FCTGAPBSLT74M","A346UAH34GVOZX","30UZJB2POHY4464FN6NBJ2NLFWF354","","null","<img src=""img/land1.png"" style=""width:200px; border:14px solid green;"">","null","","","","","","","","","",""
"","image-keyboard-response","258","206865","0.0-258.0","3WR9XG3T64X6VQZW2FCTGAPBSLT74M","A346UAH34GVOZX","30UZJB2POHY4464FN6NBJ2NLFWF354","","584.0999999046326","img/land2.png","74","584.9000000953674","1","1","3","2","0.8,0.2,0.2,0.2,0.8,0.2,0.2,0.2,0.8","0.2,0.8,0.2,0.2,0.2,0.8,0.8,0.2,0.2","3","",""
"","html-keyboard-response","259","207168","0.0-259.0","3WR9XG3T64X6VQZW2FCTGAPBSLT74M","A346UAH34GVOZX","30UZJB2POHY4464FN6NBJ2NLFWF354","","null","<img src=""img/land2.png"" style=""width:200px; border:14px solid green;"">","null","","","","","","","","","",""
"","image-keyboard-response","260","207806","0.0-260.0","3WR9XG3T64X6VQZW2FCTGAPBSLT74M","A346UAH34GVOZX","30UZJB2POHY4464FN6NBJ2NLFWF354","","636.7000002861023","img/land1.png","75","637.6999998092651","2","1","1","2","0.8,0.2,0.2,0.2,0.8,0.2,0.2,0.2,0.8","0.2,0.8,0.2,0.2,0.2,0.8,0.8,0.2,0.2","3","",""
"","html-keyboard-response","261","208107","0.0-261.0","3WR9XG3T64X6VQZW2FCTGAPBSLT74M","A346UAH34GVOZX","30UZJB2POHY4464FN6NBJ2NLFWF354","","null","<img src=""img/land1.png"" style=""width:200px; border:14px solid green;"">","null","","","","","","","","","",""
"","image-keyboard-response","262","208760","0.0-262.0","3WR9XG3T64X6VQZW2FCTGAPBSLT74M","A346UAH34GVOZX","30UZJB2POHY4464FN6NBJ2NLFWF354","","652.1999998092651","img/land5.png","76","653.1999998092651","3","1","2","2","0.8,0.2,0.2,0.2,0.8,0.2,0.2,0.2,0.8","0.2,0.8,0.2,0.2,0.2,0.8,0.8,0.2,0.2","3","",""
"","html-keyboard-response","263","209063","0.0-263.0","3WR9XG3T64X6VQZW2FCTGAPBSLT74M","A346UAH34GVOZX","30UZJB2POHY4464FN6NBJ2NLFWF354","","null","<img src=""img/land5.png"" style=""width:200px; border:14px solid green;"">","null","","","","","","","","","",""
"","image-keyboard-response","264","209612","0.0-264.0","3WR9XG3T64X6VQZW2FCTGAPBSLT74M","A346UAH34GVOZX","30UZJB2POHY4464FN6NBJ2NLFWF354","","548.6999998092651","img/land1.png","75","549.5999999046326","2","1","1","2","0.8,0.2,0.2,0.2,0.8,0.2,0.2,0.2,0.8","0.2,0.8,0.2,0.2,0.2,0.8,0.8,0.2,0.2","3","",""
"","html-keyboard-response","265","209914","0.0-265.0","3WR9XG3T64X6VQZW2FCTGAPBSLT74M","A346UAH34GVOZX","30UZJB2POHY4464FN6NBJ2NLFWF354","","null","<img src=""img/land1.png"" style=""width:200px; border:14px solid green;"">","null","","","","","","","","","",""
"","image-keyboard-response","266","210464","0.0-266.0","3WR9XG3T64X6VQZW2FCTGAPBSLT74M","A346UAH34GVOZX","30UZJB2POHY4464FN6NBJ2NLFWF354","","549.4000000953674","img/land5.png","76","550.4000000953674","3","0","2","2","0.8,0.2,0.2,0.2,0.8,0.2,0.2,0.2,0.8","0.2,0.8,0.2,0.2,0.2,0.8,0.8,0.2,0.2","3","",""
"","html-keyboard-response","267","210765","0.0-267.0","3WR9XG3T64X6VQZW2FCTGAPBSLT74M","A346UAH34GVOZX","30UZJB2POHY4464FN6NBJ2NLFWF354","","null","<img src=""img/land5.png"" style=""width:200px;border:14px solid red;"">","null","","","","","","","","","",""
"","image-keyboard-response","268","211383","0.0-268.0","3WR9XG3T64X6VQZW2FCTGAPBSLT74M","A346UAH34GVOZX","30UZJB2POHY4464FN6NBJ2NLFWF354","","616.1999998092651","img/land1.png","75","617.1000003814697","2","1","1","2","0.8,0.2,0.2,0.2,0.8,0.2,0.2,0.2,0.8","0.2,0.8,0.2,0.2,0.2,0.8,0.8,0.2,0.2","3","",""
"","html-keyboard-response","269","211684","0.0-269.0","3WR9XG3T64X6VQZW2FCTGAPBSLT74M","A346UAH34GVOZX","30UZJB2POHY4464FN6NBJ2NLFWF354","","null","<img src=""img/land1.png"" style=""width:200px; border:14px solid green;"">","null","","","","","","","","","",""
"","image-keyboard-response","270","212282","0.0-270.0","3WR9XG3T64X6VQZW2FCTGAPBSLT74M","A346UAH34GVOZX","30UZJB2POHY4464FN6NBJ2NLFWF354","","596.0999999046326","img/land2.png","74","597.2000002861023","1","1","3","2","0.8,0.2,0.2,0.2,0.8,0.2,0.2,0.2,0.8","0.2,0.8,0.2,0.2,0.2,0.8,0.8,0.2,0.2","3","",""
"","html-keyboard-response","271","212589","0.0-271.0","3WR9XG3T64X6VQZW2FCTGAPBSLT74M","A346UAH34GVOZX","30UZJB2POHY4464FN6NBJ2NLFWF354","","null","<img src=""img/land2.png"" style=""width:200px; border:14px solid green;"">","null","","","","","","","","","",""
"","image-keyboard-response","272","213186","0.0-272.0","3WR9XG3T64X6VQZW2FCTGAPBSLT74M","A346UAH34GVOZX","30UZJB2POHY4464FN6NBJ2NLFWF354","","595.7000002861023","img/land1.png","75","596.5","2","1","1","2","0.8,0.2,0.2,0.2,0.8,0.2,0.2,0.2,0.8","0.2,0.8,0.2,0.2,0.2,0.8,0.8,0.2,0.2","3","",""
"","html-keyboard-response","273","213488","0.0-273.0","3WR9XG3T64X6VQZW2FCTGAPBSLT74M","A346UAH34GVOZX","30UZJB2POHY4464FN6NBJ2NLFWF354","","null","<img src=""img/land1.png"" style=""width:200px; border:14px solid green;"">","null","","","","","","","","","",""
"","image-keyboard-response","274","213953","0.0-274.0","3WR9XG3T64X6VQZW2FCTGAPBSLT74M","A346UAH34GVOZX","30UZJB2POHY4464FN6NBJ2NLFWF354","","464.5","img/land1.png","75","465.40000009536743","2","1","1","2","0.8,0.2,0.2,0.2,0.8,0.2,0.2,0.2,0.8","0.2,0.8,0.2,0.2,0.2,0.8,0.8,0.2,0.2","3","",""
"","html-keyboard-response","275","214255","0.0-275.0","3WR9XG3T64X6VQZW2FCTGAPBSLT74M","A346UAH34GVOZX","30UZJB2POHY4464FN6NBJ2NLFWF354","","null","<img src=""img/land1.png"" style=""width:200px; border:14px solid green;"">","null","","","","","","","","","",""
"","image-keyboard-response","276","214737","0.0-276.0","3WR9XG3T64X6VQZW2FCTGAPBSLT74M","A346UAH34GVOZX","30UZJB2POHY4464FN6NBJ2NLFWF354","","480.69999980926514","img/land1.png","75","481.59999990463257","2","0","1","2","0.8,0.2,0.2,0.2,0.8,0.2,0.2,0.2,0.8","0.2,0.8,0.2,0.2,0.2,0.8,0.8,0.2,0.2","3","",""
"","html-keyboard-response","277","215039","0.0-277.0","3WR9XG3T64X6VQZW2FCTGAPBSLT74M","A346UAH34GVOZX","30UZJB2POHY4464FN6NBJ2NLFWF354","","null","<img src=""img/land1.png"" style=""width:200px;border:14px solid red;"">","null","","","","","","","","","",""
"","image-keyboard-response","278","215509","0.0-278.0","3WR9XG3T64X6VQZW2FCTGAPBSLT74M","A346UAH34GVOZX","30UZJB2POHY4464FN6NBJ2NLFWF354","","469.09999990463257","img/land1.png","75","469.90000009536743","2","1","1","2","0.8,0.2,0.2,0.2,0.8,0.2,0.2,0.2,0.8","0.2,0.8,0.2,0.2,0.2,0.8,0.8,0.2,0.2","3","",""
"","html-keyboard-response","279","215811","0.0-279.0","3WR9XG3T64X6VQZW2FCTGAPBSLT74M","A346UAH34GVOZX","30UZJB2POHY4464FN6NBJ2NLFWF354","","null","<img src=""img/land1.png"" style=""width:200px; border:14px solid green;"">","null","","","","","","","","","",""
"","image-keyboard-response","280","216308","0.0-280.0","3WR9XG3T64X6VQZW2FCTGAPBSLT74M","A346UAH34GVOZX","30UZJB2POHY4464FN6NBJ2NLFWF354","","496.59999990463257","img/land1.png","75","497.69999980926514","2","0","1","2","0.8,0.2,0.2,0.2,0.8,0.2,0.2,0.2,0.8","0.2,0.8,0.2,0.2,0.2,0.8,0.8,0.2,0.2","3","",""
"","html-keyboard-response","281","216610","0.0-281.0","3WR9XG3T64X6VQZW2FCTGAPBSLT74M","A346UAH34GVOZX","30UZJB2POHY4464FN6NBJ2NLFWF354","","null","<img src=""img/land1.png"" style=""width:200px;border:14px solid red;"">","null","","","","","","","","","",""
"","image-keyboard-response","282","217206","0.0-282.0","3WR9XG3T64X6VQZW2FCTGAPBSLT74M","A346UAH34GVOZX","30UZJB2POHY4464FN6NBJ2NLFWF354","","594.8999996185303","img/land5.png","76","595.7000002861023","3","1","2","2","0.8,0.2,0.2,0.2,0.8,0.2,0.2,0.2,0.8","0.2,0.8,0.2,0.2,0.2,0.8,0.8,0.2,0.2","3","",""
"","html-keyboard-response","283","217508","0.0-283.0","3WR9XG3T64X6VQZW2FCTGAPBSLT74M","A346UAH34GVOZX","30UZJB2POHY4464FN6NBJ2NLFWF354","","null","<img src=""img/land5.png"" style=""width:200px; border:14px solid green;"">","null","","","","","","","","","",""
"","image-keyboard-response","284","218083","0.0-284.0","3WR9XG3T64X6VQZW2FCTGAPBSLT74M","A346UAH34GVOZX","30UZJB2POHY4464FN6NBJ2NLFWF354","","574","img/land1.png","75","574.9000000953674","2","1","1","2","0.8,0.2,0.2,0.2,0.8,0.2,0.2,0.2,0.8","0.2,0.8,0.2,0.2,0.2,0.8,0.8,0.2,0.2","3","",""
"","html-keyboard-response","285","218385","0.0-285.0","3WR9XG3T64X6VQZW2FCTGAPBSLT74M","A346UAH34GVOZX","30UZJB2POHY4464FN6NBJ2NLFWF354","","null","<img src=""img/land1.png"" style=""width:200px; border:14px solid green;"">","null","","","","","","","","","",""
"","image-keyboard-response","286","218960","0.0-286.0","3WR9XG3T64X6VQZW2FCTGAPBSLT74M","A346UAH34GVOZX","30UZJB2POHY4464FN6NBJ2NLFWF354","","573.8000001907349","img/land2.png","74","574.6999998092651","1","0","3","2","0.8,0.2,0.2,0.2,0.8,0.2,0.2,0.2,0.8","0.2,0.8,0.2,0.2,0.2,0.8,0.8,0.2,0.2","3","",""
"","html-keyboard-response","287","219261","0.0-287.0","3WR9XG3T64X6VQZW2FCTGAPBSLT74M","A346UAH34GVOZX","30UZJB2POHY4464FN6NBJ2NLFWF354","","null","<img src=""img/land2.png"" style=""width:200px;border:14px solid red;"">","null","","","","","","","","","",""
"","image-keyboard-response","288","220192","0.0-288.0","3WR9XG3T64X6VQZW2FCTGAPBSLT74M","A346UAH34GVOZX","30UZJB2POHY4464FN6NBJ2NLFWF354","","929.6999998092651","img/land2.png","76","930.6999998092651","3","1","3","2","0.8,0.2,0.2,0.2,0.8,0.2,0.2,0.2,0.8","0.2,0.8,0.2,0.2,0.2,0.8,0.8,0.2,0.2","3","",""
"","html-keyboard-response","289","220494","0.0-289.0","3WR9XG3T64X6VQZW2FCTGAPBSLT74M","A346UAH34GVOZX","30UZJB2POHY4464FN6NBJ2NLFWF354","","null","<img src=""img/land2.png"" style=""width:200px; border:14px solid green;"">","null","","","","","","","","","",""
"","image-keyboard-response","290","221229","0.0-290.0","3WR9XG3T64X6VQZW2FCTGAPBSLT74M","A346UAH34GVOZX","30UZJB2POHY4464FN6NBJ2NLFWF354","","734.0999999046326","img/land5.png","75","735.0999999046326","2","0","2","2","0.8,0.2,0.2,0.2,0.8,0.2,0.2,0.2,0.8","0.2,0.8,0.2,0.2,0.2,0.8,0.8,0.2,0.2","3","",""
"","html-keyboard-response","291","221530","0.0-291.0","3WR9XG3T64X6VQZW2FCTGAPBSLT74M","A346UAH34GVOZX","30UZJB2POHY4464FN6NBJ2NLFWF354","","null","<img src=""img/land5.png"" style=""width:200px;border:14px solid red;"">","null","","","","","","","","","",""
"","image-keyboard-response","292","222301","0.0-292.0","3WR9XG3T64X6VQZW2FCTGAPBSLT74M","A346UAH34GVOZX","30UZJB2POHY4464FN6NBJ2NLFWF354","","770.2999997138977","img/land1.png","75","771.3000001907349","2","1","1","2","0.8,0.2,0.2,0.2,0.8,0.2,0.2,0.2,0.8","0.2,0.8,0.2,0.2,0.2,0.8,0.8,0.2,0.2","3","",""
"","html-keyboard-response","293","222613","0.0-293.0","3WR9XG3T64X6VQZW2FCTGAPBSLT74M","A346UAH34GVOZX","30UZJB2POHY4464FN6NBJ2NLFWF354","","null","<img src=""img/land1.png"" style=""width:200px; border:14px solid green;"">","null","","","","","","","","","",""
"","image-keyboard-response","294","223078","0.0-294.0","3WR9XG3T64X6VQZW2FCTGAPBSLT74M","A346UAH34GVOZX","30UZJB2POHY4464FN6NBJ2NLFWF354","","463.2999997138977","img/land1.png","75","464","2","1","1","2","0.8,0.2,0.2,0.2,0.8,0.2,0.2,0.2,0.8","0.2,0.8,0.2,0.2,0.2,0.8,0.8,0.2,0.2","3","",""
"","html-keyboard-response","295","223379","0.0-295.0","3WR9XG3T64X6VQZW2FCTGAPBSLT74M","A346UAH34GVOZX","30UZJB2POHY4464FN6NBJ2NLFWF354","","null","<img src=""img/land1.png"" style=""width:200px; border:14px solid green;"">","null","","","","","","","","","",""
"","image-keyboard-response","296","223886","0.0-296.0","3WR9XG3T64X6VQZW2FCTGAPBSLT74M","A346UAH34GVOZX","30UZJB2POHY4464FN6NBJ2NLFWF354","","505.90000009536743","img/land1.png","75","506.80000019073486","2","1","1","2","0.8,0.2,0.2,0.2,0.8,0.2,0.2,0.2,0.8","0.2,0.8,0.2,0.2,0.2,0.8,0.8,0.2,0.2","3","",""
"","html-keyboard-response","297","224188","0.0-297.0","3WR9XG3T64X6VQZW2FCTGAPBSLT74M","A346UAH34GVOZX","30UZJB2POHY4464FN6NBJ2NLFWF354","","null","<img src=""img/land1.png"" style=""width:200px; border:14px solid green;"">","null","","","","","","","","","",""
"","image-keyboard-response","298","224629","0.0-298.0","3WR9XG3T64X6VQZW2FCTGAPBSLT74M","A346UAH34GVOZX","30UZJB2POHY4464FN6NBJ2NLFWF354","","439.59999990463257","img/land1.png","75","440.2000002861023","2","1","1","2","0.8,0.2,0.2,0.2,0.8,0.2,0.2,0.2,0.8","0.2,0.8,0.2,0.2,0.2,0.8,0.8,0.2,0.2","3","",""
"","html-keyboard-response","299","224931","0.0-299.0","3WR9XG3T64X6VQZW2FCTGAPBSLT74M","A346UAH34GVOZX","30UZJB2POHY4464FN6NBJ2NLFWF354","","null","<img src=""img/land1.png"" style=""width:200px; border:14px solid green;"">","null","","","","","","","","","",""
"","image-keyboard-response","300","225452","0.0-300.0","3WR9XG3T64X6VQZW2FCTGAPBSLT74M","A346UAH34GVOZX","30UZJB2POHY4464FN6NBJ2NLFWF354","","520","img/land5.png","76","520.8000001907349","3","1","2","2","0.8,0.2,0.2,0.2,0.8,0.2,0.2,0.2,0.8","0.2,0.8,0.2,0.2,0.2,0.8,0.8,0.2,0.2","3","",""
"","html-keyboard-response","301","225753","0.0-301.0","3WR9XG3T64X6VQZW2FCTGAPBSLT74M","A346UAH34GVOZX","30UZJB2POHY4464FN6NBJ2NLFWF354","","null","<img src=""img/land5.png"" style=""width:200px; border:14px solid green;"">","null","","","","","","","","","",""
"","image-keyboard-response","302","227047","0.0-302.0","3WR9XG3T64X6VQZW2FCTGAPBSLT74M","A346UAH34GVOZX","30UZJB2POHY4464FN6NBJ2NLFWF354","","1293.0999999046326","img/land6.png","74","1294","1","0","3","1","0.8,0.2,0.2,0.2,0.8,0.2,0.2,0.2,0.8","0.8,0.2,0.2,0.2,0.8,0.2,0.2,0.2,0.8","1","",""
"","html-keyboard-response","303","227349","0.0-303.0","3WR9XG3T64X6VQZW2FCTGAPBSLT74M","A346UAH34GVOZX","30UZJB2POHY4464FN6NBJ2NLFWF354","","null","<img src=""img/land6.png"" style=""width:200px;border:14px solid red;"">","null","","","","","","","","","",""
"","image-keyboard-response","304","228171","0.0-304.0","3WR9XG3T64X6VQZW2FCTGAPBSLT74M","A346UAH34GVOZX","30UZJB2POHY4464FN6NBJ2NLFWF354","","821.4000000953674","img/land4.png","76","822.0999999046326","3","0","1","1","0.8,0.2,0.2,0.2,0.8,0.2,0.2,0.2,0.8","0.8,0.2,0.2,0.2,0.8,0.2,0.2,0.2,0.8","1","",""
"","html-keyboard-response","305","228474","0.0-305.0","3WR9XG3T64X6VQZW2FCTGAPBSLT74M","A346UAH34GVOZX","30UZJB2POHY4464FN6NBJ2NLFWF354","","null","<img src=""img/land4.png"" style=""width:200px;border:14px solid red;"">","null","","","","","","","","","",""
"","image-keyboard-response","306","229485","0.0-306.0","3WR9XG3T64X6VQZW2FCTGAPBSLT74M","A346UAH34GVOZX","30UZJB2POHY4464FN6NBJ2NLFWF354","","1009.9000000953674","img/land3.png","75","1011.0999999046326","2","1","2","1","0.8,0.2,0.2,0.2,0.8,0.2,0.2,0.2,0.8","0.8,0.2,0.2,0.2,0.8,0.2,0.2,0.2,0.8","1","",""
"","html-keyboard-response","307","229787","0.0-307.0","3WR9XG3T64X6VQZW2FCTGAPBSLT74M","A346UAH34GVOZX","30UZJB2POHY4464FN6NBJ2NLFWF354","","null","<img src=""img/land3.png"" style=""width:200px; border:14px solid green;"">","null","","","","","","","","","",""
"","image-keyboard-response","308","231133","0.0-308.0","3WR9XG3T64X6VQZW2FCTGAPBSLT74M","A346UAH34GVOZX","30UZJB2POHY4464FN6NBJ2NLFWF354","","1344.5","img/land4.png","75","1345.4000000953674","2","0","1","1","0.8,0.2,0.2,0.2,0.8,0.2,0.2,0.2,0.8","0.8,0.2,0.2,0.2,0.8,0.2,0.2,0.2,0.8","1","",""
"","html-keyboard-response","309","231435","0.0-309.0","3WR9XG3T64X6VQZW2FCTGAPBSLT74M","A346UAH34GVOZX","30UZJB2POHY4464FN6NBJ2NLFWF354","","null","<img src=""img/land4.png"" style=""width:200px;border:14px solid red;"">","null","","","","","","","","","",""
"","image-keyboard-response","310","232066","0.0-310.0","3WR9XG3T64X6VQZW2FCTGAPBSLT74M","A346UAH34GVOZX","30UZJB2POHY4464FN6NBJ2NLFWF354","","630.0999999046326","img/land3.png","75","631.2000002861023","2","0","2","1","0.8,0.2,0.2,0.2,0.8,0.2,0.2,0.2,0.8","0.8,0.2,0.2,0.2,0.8,0.2,0.2,0.2,0.8","1","",""
"","html-keyboard-response","311","232368","0.0-311.0","3WR9XG3T64X6VQZW2FCTGAPBSLT74M","A346UAH34GVOZX","30UZJB2POHY4464FN6NBJ2NLFWF354","","null","<img src=""img/land3.png"" style=""width:200px;border:14px solid red;"">","null","","","","","","","","","",""
"","image-keyboard-response","312","232868","0.0-312.0","3WR9XG3T64X6VQZW2FCTGAPBSLT74M","A346UAH34GVOZX","30UZJB2POHY4464FN6NBJ2NLFWF354","","498.80000019073486","img/land3.png","75","499.7999997138977","2","1","2","1","0.8,0.2,0.2,0.2,0.8,0.2,0.2,0.2,0.8","0.8,0.2,0.2,0.2,0.8,0.2,0.2,0.2,0.8","1","",""
"","html-keyboard-response","313","233170","0.0-313.0","3WR9XG3T64X6VQZW2FCTGAPBSLT74M","A346UAH34GVOZX","30UZJB2POHY4464FN6NBJ2NLFWF354","","null","<img src=""img/land3.png"" style=""width:200px; border:14px solid green;"">","null","","","","","","","","","",""
"","image-keyboard-response","314","233728","0.0-314.0","3WR9XG3T64X6VQZW2FCTGAPBSLT74M","A346UAH34GVOZX","30UZJB2POHY4464FN6NBJ2NLFWF354","","557.1999998092651","img/land4.png","76","558","3","1","1","1","0.8,0.2,0.2,0.2,0.8,0.2,0.2,0.2,0.8","0.8,0.2,0.2,0.2,0.8,0.2,0.2,0.2,0.8","1","",""
"","html-keyboard-response","315","234030","0.0-315.0","3WR9XG3T64X6VQZW2FCTGAPBSLT74M","A346UAH34GVOZX","30UZJB2POHY4464FN6NBJ2NLFWF354","","null","<img src=""img/land4.png"" style=""width:200px; border:14px solid green;"">","null","","","","","","","","","",""
"","image-keyboard-response","316","235036","0.0-316.0","3WR9XG3T64X6VQZW2FCTGAPBSLT74M","A346UAH34GVOZX","30UZJB2POHY4464FN6NBJ2NLFWF354","","1005.0999999046326","img/land6.png","74","1005.9000000953674","1","0","3","1","0.8,0.2,0.2,0.2,0.8,0.2,0.2,0.2,0.8","0.8,0.2,0.2,0.2,0.8,0.2,0.2,0.2,0.8","1","",""
"","html-keyboard-response","317","235338","0.0-317.0","3WR9XG3T64X6VQZW2FCTGAPBSLT74M","A346UAH34GVOZX","30UZJB2POHY4464FN6NBJ2NLFWF354","","null","<img src=""img/land6.png"" style=""width:200px;border:14px solid red;"">","null","","","","","","","","","",""
"","image-keyboard-response","318","235926","0.0-318.0","3WR9XG3T64X6VQZW2FCTGAPBSLT74M","A346UAH34GVOZX","30UZJB2POHY4464FN6NBJ2NLFWF354","","586.9000000953674","img/land6.png","76","587.8000001907349","3","1","3","1","0.8,0.2,0.2,0.2,0.8,0.2,0.2,0.2,0.8","0.8,0.2,0.2,0.2,0.8,0.2,0.2,0.2,0.8","1","",""
"","html-keyboard-response","319","236228","0.0-319.0","3WR9XG3T64X6VQZW2FCTGAPBSLT74M","A346UAH34GVOZX","30UZJB2POHY4464FN6NBJ2NLFWF354","","null","<img src=""img/land6.png"" style=""width:200px; border:14px solid green;"">","null","","","","","","","","","",""
"","image-keyboard-response","320","236912","0.0-320.0","3WR9XG3T64X6VQZW2FCTGAPBSLT74M","A346UAH34GVOZX","30UZJB2POHY4464FN6NBJ2NLFWF354","","682.8000001907349","img/land6.png","76","683.4000000953674","3","1","3","1","0.8,0.2,0.2,0.2,0.8,0.2,0.2,0.2,0.8","0.8,0.2,0.2,0.2,0.8,0.2,0.2,0.2,0.8","1","",""
"","html-keyboard-response","321","237214","0.0-321.0","3WR9XG3T64X6VQZW2FCTGAPBSLT74M","A346UAH34GVOZX","30UZJB2POHY4464FN6NBJ2NLFWF354","","null","<img src=""img/land6.png"" style=""width:200px; border:14px solid green;"">","null","","","","","","","","","",""
"","image-keyboard-response","322","237931","0.0-322.0","3WR9XG3T64X6VQZW2FCTGAPBSLT74M","A346UAH34GVOZX","30UZJB2POHY4464FN6NBJ2NLFWF354","","715.3999996185303","img/land3.png","75","716.5","2","1","2","1","0.8,0.2,0.2,0.2,0.8,0.2,0.2,0.2,0.8","0.8,0.2,0.2,0.2,0.8,0.2,0.2,0.2,0.8","1","",""
"","html-keyboard-response","323","238232","0.0-323.0","3WR9XG3T64X6VQZW2FCTGAPBSLT74M","A346UAH34GVOZX","30UZJB2POHY4464FN6NBJ2NLFWF354","","null","<img src=""img/land3.png"" style=""width:200px; border:14px solid green;"">","null","","","","","","","","","",""
"","image-keyboard-response","324","238741","0.0-324.0","3WR9XG3T64X6VQZW2FCTGAPBSLT74M","A346UAH34GVOZX","30UZJB2POHY4464FN6NBJ2NLFWF354","","506.90000009536743","img/land3.png","75","508","2","1","2","1","0.8,0.2,0.2,0.2,0.8,0.2,0.2,0.2,0.8","0.8,0.2,0.2,0.2,0.8,0.2,0.2,0.2,0.8","1","",""
"","html-keyboard-response","325","239042","0.0-325.0","3WR9XG3T64X6VQZW2FCTGAPBSLT74M","A346UAH34GVOZX","30UZJB2POHY4464FN6NBJ2NLFWF354","","null","<img src=""img/land3.png"" style=""width:200px; border:14px solid green;"">","null","","","","","","","","","",""
"","image-keyboard-response","326","239629","0.0-326.0","3WR9XG3T64X6VQZW2FCTGAPBSLT74M","A346UAH34GVOZX","30UZJB2POHY4464FN6NBJ2NLFWF354","","585.3000001907349","img/land6.png","76","586.4000000953674","3","0","3","1","0.8,0.2,0.2,0.2,0.8,0.2,0.2,0.2,0.8","0.8,0.2,0.2,0.2,0.8,0.2,0.2,0.2,0.8","1","",""
"","html-keyboard-response","327","239930","0.0-327.0","3WR9XG3T64X6VQZW2FCTGAPBSLT74M","A346UAH34GVOZX","30UZJB2POHY4464FN6NBJ2NLFWF354","","null","<img src=""img/land6.png"" style=""width:200px;border:14px solid red;"">","null","","","","","","","","","",""
"","image-keyboard-response","328","240403","0.0-328.0","3WR9XG3T64X6VQZW2FCTGAPBSLT74M","A346UAH34GVOZX","30UZJB2POHY4464FN6NBJ2NLFWF354","","471.09999990463257","img/land4.png","76","472","3","0","1","1","0.8,0.2,0.2,0.2,0.8,0.2,0.2,0.2,0.8","0.8,0.2,0.2,0.2,0.8,0.2,0.2,0.2,0.8","1","",""
"","html-keyboard-response","329","240704","0.0-329.0","3WR9XG3T64X6VQZW2FCTGAPBSLT74M","A346UAH34GVOZX","30UZJB2POHY4464FN6NBJ2NLFWF354","","null","<img src=""img/land4.png"" style=""width:200px;border:14px solid red;"">","null","","","","","","","","","",""
"","image-keyboard-response","330","241167","0.0-330.0","3WR9XG3T64X6VQZW2FCTGAPBSLT74M","A346UAH34GVOZX","30UZJB2POHY4464FN6NBJ2NLFWF354","","461.5","img/land4.png","76","462.7000002861023","3","0","1","1","0.8,0.2,0.2,0.2,0.8,0.2,0.2,0.2,0.8","0.8,0.2,0.2,0.2,0.8,0.2,0.2,0.2,0.8","1","",""
"","html-keyboard-response","331","241469","0.0-331.0","3WR9XG3T64X6VQZW2FCTGAPBSLT74M","A346UAH34GVOZX","30UZJB2POHY4464FN6NBJ2NLFWF354","","null","<img src=""img/land4.png"" style=""width:200px;border:14px solid red;"">","null","","","","","","","","","",""
"","image-keyboard-response","332","241773","0.0-332.0","3WR9XG3T64X6VQZW2FCTGAPBSLT74M","A346UAH34GVOZX","30UZJB2POHY4464FN6NBJ2NLFWF354","","303.09999990463257","img/land4.png","75","303.90000009536743","2","0","1","1","0.8,0.2,0.2,0.2,0.8,0.2,0.2,0.2,0.8","0.8,0.2,0.2,0.2,0.8,0.2,0.2,0.2,0.8","1","",""
"","html-keyboard-response","333","242075","0.0-333.0","3WR9XG3T64X6VQZW2FCTGAPBSLT74M","A346UAH34GVOZX","30UZJB2POHY4464FN6NBJ2NLFWF354","","null","<img src=""img/land4.png"" style=""width:200px;border:14px solid red;"">","null","","","","","","","","","",""
"","image-keyboard-response","334","242515","0.0-334.0","3WR9XG3T64X6VQZW2FCTGAPBSLT74M","A346UAH34GVOZX","30UZJB2POHY4464FN6NBJ2NLFWF354","","437.90000009536743","img/land6.png","74","439.09999990463257","1","1","3","1","0.8,0.2,0.2,0.2,0.8,0.2,0.2,0.2,0.8","0.8,0.2,0.2,0.2,0.8,0.2,0.2,0.2,0.8","1","",""
"","html-keyboard-response","335","242816","0.0-335.0","3WR9XG3T64X6VQZW2FCTGAPBSLT74M","A346UAH34GVOZX","30UZJB2POHY4464FN6NBJ2NLFWF354","","null","<img src=""img/land6.png"" style=""width:200px; border:14px solid green;"">","null","","","","","","","","","",""
"","image-keyboard-response","336","244099","0.0-336.0","3WR9XG3T64X6VQZW2FCTGAPBSLT74M","A346UAH34GVOZX","30UZJB2POHY4464FN6NBJ2NLFWF354","","1281.8000001907349","img/land3.png","75","1282.4000000953674","2","0","2","1","0.8,0.2,0.2,0.2,0.8,0.2,0.2,0.2,0.8","0.8,0.2,0.2,0.2,0.8,0.2,0.2,0.2,0.8","1","",""
"","html-keyboard-response","337","244401","0.0-337.0","3WR9XG3T64X6VQZW2FCTGAPBSLT74M","A346UAH34GVOZX","30UZJB2POHY4464FN6NBJ2NLFWF354","","null","<img src=""img/land3.png"" style=""width:200px;border:14px solid red;"">","null","","","","","","","","","",""
"","image-keyboard-response","338","245059","0.0-338.0","3WR9XG3T64X6VQZW2FCTGAPBSLT74M","A346UAH34GVOZX","30UZJB2POHY4464FN6NBJ2NLFWF354","","657.3000001907349","img/land6.png","74","658","1","1","3","1","0.8,0.2,0.2,0.2,0.8,0.2,0.2,0.2,0.8","0.8,0.2,0.2,0.2,0.8,0.2,0.2,0.2,0.8","1","",""
"","html-keyboard-response","339","245360","0.0-339.0","3WR9XG3T64X6VQZW2FCTGAPBSLT74M","A346UAH34GVOZX","30UZJB2POHY4464FN6NBJ2NLFWF354","","null","<img src=""img/land6.png"" style=""width:200px; border:14px solid green;"">","null","","","","","","","","","",""
"","image-keyboard-response","340","245785","0.0-340.0","3WR9XG3T64X6VQZW2FCTGAPBSLT74M","A346UAH34GVOZX","30UZJB2POHY4464FN6NBJ2NLFWF354","","423.09999990463257","img/land6.png","74","424","1","1","3","1","0.8,0.2,0.2,0.2,0.8,0.2,0.2,0.2,0.8","0.8,0.2,0.2,0.2,0.8,0.2,0.2,0.2,0.8","1","",""
"","html-keyboard-response","341","246087","0.0-341.0","3WR9XG3T64X6VQZW2FCTGAPBSLT74M","A346UAH34GVOZX","30UZJB2POHY4464FN6NBJ2NLFWF354","","null","<img src=""img/land6.png"" style=""width:200px; border:14px solid green;"">","null","","","","","","","","","",""
"","image-keyboard-response","342","246666","0.0-342.0","3WR9XG3T64X6VQZW2FCTGAPBSLT74M","A346UAH34GVOZX","30UZJB2POHY4464FN6NBJ2NLFWF354","","577.5","img/land3.png","75","578.5","2","1","2","1","0.8,0.2,0.2,0.2,0.8,0.2,0.2,0.2,0.8","0.8,0.2,0.2,0.2,0.8,0.2,0.2,0.2,0.8","1","",""
"","html-keyboard-response","343","246969","0.0-343.0","3WR9XG3T64X6VQZW2FCTGAPBSLT74M","A346UAH34GVOZX","30UZJB2POHY4464FN6NBJ2NLFWF354","","null","<img src=""img/land3.png"" style=""width:200px; border:14px solid green;"">","null","","","","","","","","","",""
"","image-keyboard-response","344","247708","0.0-344.0","3WR9XG3T64X6VQZW2FCTGAPBSLT74M","A346UAH34GVOZX","30UZJB2POHY4464FN6NBJ2NLFWF354","","738.6999998092651","img/land4.png","76","739.5999999046326","3","0","1","1","0.8,0.2,0.2,0.2,0.8,0.2,0.2,0.2,0.8","0.8,0.2,0.2,0.2,0.8,0.2,0.2,0.2,0.8","1","",""
"","html-keyboard-response","345","248010","0.0-345.0","3WR9XG3T64X6VQZW2FCTGAPBSLT74M","A346UAH34GVOZX","30UZJB2POHY4464FN6NBJ2NLFWF354","","null","<img src=""img/land4.png"" style=""width:200px;border:14px solid red;"">","null","","","","","","","","","",""
"","image-keyboard-response","346","248444","0.0-346.0","3WR9XG3T64X6VQZW2FCTGAPBSLT74M","A346UAH34GVOZX","30UZJB2POHY4464FN6NBJ2NLFWF354","","432.7999997138977","img/land4.png","76","433.69999980926514","3","1","1","1","0.8,0.2,0.2,0.2,0.8,0.2,0.2,0.2,0.8","0.8,0.2,0.2,0.2,0.8,0.2,0.2,0.2,0.8","1","",""
"","html-keyboard-response","347","248746","0.0-347.0","3WR9XG3T64X6VQZW2FCTGAPBSLT74M","A346UAH34GVOZX","30UZJB2POHY4464FN6NBJ2NLFWF354","","null","<img src=""img/land4.png"" style=""width:200px; border:14px solid green;"">","null","","","","","","","","","",""
"","image-keyboard-response","348","249267","0.0-348.0","3WR9XG3T64X6VQZW2FCTGAPBSLT74M","A346UAH34GVOZX","30UZJB2POHY4464FN6NBJ2NLFWF354","","520.1999998092651","img/land4.png","76","521.1000003814697","3","0","1","1","0.8,0.2,0.2,0.2,0.8,0.2,0.2,0.2,0.8","0.8,0.2,0.2,0.2,0.8,0.2,0.2,0.2,0.8","1","",""
"","html-keyboard-response","349","249569","0.0-349.0","3WR9XG3T64X6VQZW2FCTGAPBSLT74M","A346UAH34GVOZX","30UZJB2POHY4464FN6NBJ2NLFWF354","","null","<img src=""img/land4.png"" style=""width:200px;border:14px solid red;"">","null","","","","","","","","","",""
"","image-keyboard-response","350","250138","0.0-350.0","3WR9XG3T64X6VQZW2FCTGAPBSLT74M","A346UAH34GVOZX","30UZJB2POHY4464FN6NBJ2NLFWF354","","567.5","img/land3.png","75","568.3000001907349","2","1","2","1","0.8,0.2,0.2,0.2,0.8,0.2,0.2,0.2,0.8","0.8,0.2,0.2,0.2,0.8,0.2,0.2,0.2,0.8","1","",""
"","html-keyboard-response","351","250439","0.0-351.0","3WR9XG3T64X6VQZW2FCTGAPBSLT74M","A346UAH34GVOZX","30UZJB2POHY4464FN6NBJ2NLFWF354","","null","<img src=""img/land3.png"" style=""width:200px; border:14px solid green;"">","null","","","","","","","","","",""
"","image-keyboard-response","352","250910","0.0-352.0","3WR9XG3T64X6VQZW2FCTGAPBSLT74M","A346UAH34GVOZX","30UZJB2POHY4464FN6NBJ2NLFWF354","","470.1000003814697","img/land3.png","75","471.09999990463257","2","1","2","1","0.8,0.2,0.2,0.2,0.8,0.2,0.2,0.2,0.8","0.8,0.2,0.2,0.2,0.8,0.2,0.2,0.2,0.8","1","",""
"","html-keyboard-response","353","251212","0.0-353.0","3WR9XG3T64X6VQZW2FCTGAPBSLT74M","A346UAH34GVOZX","30UZJB2POHY4464FN6NBJ2NLFWF354","","null","<img src=""img/land3.png"" style=""width:200px; border:14px solid green;"">","null","","","","","","","","","",""
