"success","trial_type","trial_index","time_elapsed","internal_node_id","assignmentID","mturkID","hitID","view_history","rt","stimulus","key_press","reactionTime","a","r","s","cond","reward_cond","reward_cond_actual","reward_matrix_idx","responses","question_order"
"true","fullscreen","0","2373","0.0-0.0","","","","","","","","","","","","","","","","",""
"","instructions","1","17953","0.0-1.0","","","","[{""page_index"":0,""viewing_time"":2562.600000000093},{""page_index"":1,""viewing_time"":4246.600000000093},{""page_index"":2,""viewing_time"":1699.2999999998137},{""page_index"":3,""viewing_time"":2500.100000000093},{""page_index"":4,""viewing_time"":1268.8999999999069},{""page_index"":5,""viewing_time"":1640.5},{""page_index"":6,""viewing_time"":1655.2000000001863}]","15573.399999999907","","","","","","","","","","","",""
"","image-keyboard-response","2","19388","0.0-2.0","","","","","1433.3000000002794","img/land1.png","74","1435.6000000000931","1","0","1","1","1,0,0,0.25,0.5,0.25,0.25,0.25,0.5","0,1,0,0.5,0.25,0.25,0.25,0.25,0.5","3","",""
"","html-keyboard-response","3","19696","0.0-3.0","","","","","null","<img src=""img/land1.png"" style=""width:200px;border:14px solid red;"">","null","","","","","","","","","",""
"","image-keyboard-response","4","20585","0.0-4.0","","","","","887.2999999998137","img/land2.png","75","888.8999999999069","2","0","2","1","1,0,0,0.25,0.5,0.25,0.25,0.25,0.5","0,1,0,0.5,0.25,0.25,0.25,0.25,0.5","3","",""
"","html-keyboard-response","5","20895","0.0-5.0","","","","","null","<img src=""img/land2.png"" style=""width:200px;border:14px solid red;"">","null","","","","","","","","","",""
"","image-keyboard-response","6","21838","0.0-6.0","","","","","939.5","img/land2.png","74","942.1000000000931","1","0","2","1","1,0,0,0.25,0.5,0.25,0.25,0.25,0.5","0,1,0,0.5,0.25,0.25,0.25,0.25,0.5","3","",""
"","html-keyboard-response","7","22142","0.0-7.0","","","","","null","<img src=""img/land2.png"" style=""width:200px;border:14px solid red;"">","null","","","","","","","","","",""
"","image-keyboard-response","8","23117","0.0-8.0","","","","","972.2999999998137","img/land1.png","76","974.3999999999069","3","0","1","1","1,0,0,0.25,0.5,0.25,0.25,0.25,0.5","0,1,0,0.5,0.25,0.25,0.25,0.25,0.5","3","",""
"","html-keyboard-response","9","23434","0.0-9.0","","","","","null","<img src=""img/land1.png"" style=""width:200px;border:14px solid red;"">","null","","","","","","","","","",""
"","image-keyboard-response","10","25041","0.0-10.0","","","","","1604.8000000002794","img/land3.png","74","1607.4000000003725","1","0","3","1","1,0,0,0.25,0.5,0.25,0.25,0.25,0.5","0,1,0,0.5,0.25,0.25,0.25,0.25,0.5","3","",""
"","html-keyboard-response","11","25350","0.0-11.0","","","","","null","<img src=""img/land3.png"" style=""width:200px;border:14px solid red;"">","null","","","","","","","","","",""
"","image-keyboard-response","12","26733","0.0-12.0","","","","","1380.8999999999069","img/land2.png","74","1382.5","1","0","2","1","1,0,0,0.25,0.5,0.25,0.25,0.25,0.5","0,1,0,0.5,0.25,0.25,0.25,0.25,0.5","3","",""
"","html-keyboard-response","13","27048","0.0-13.0","","","","","null","<img src=""img/land2.png"" style=""width:200px;border:14px solid red;"">","null","","","","","","","","","",""
"","image-keyboard-response","14","27922","0.0-14.0","","","","","870.8999999999069","img/land1.png","74","872.7000000001863","1","0","1","1","1,0,0,0.25,0.5,0.25,0.25,0.25,0.5","0,1,0,0.5,0.25,0.25,0.25,0.25,0.5","3","",""
"","html-keyboard-response","15","28224","0.0-15.0","","","","","null","<img src=""img/land1.png"" style=""width:200px;border:14px solid red;"">","null","","","","","","","","","",""
"","image-keyboard-response","16","30039","0.0-16.0","","","","","1812.7000000001863","img/land1.png","74","1814.8000000002794","1","0","1","1","1,0,0,0.25,0.5,0.25,0.25,0.25,0.5","0,1,0,0.5,0.25,0.25,0.25,0.25,0.5","3","",""
"","html-keyboard-response","17","30342","0.0-17.0","","","","","null","<img src=""img/land1.png"" style=""width:200px;border:14px solid red;"">","null","","","","","","","","","",""
"","image-keyboard-response","18","31786","0.0-18.0","","","","","1443.7000000001863","img/land3.png","76","1444.2000000001863","3","1","3","1","1,0,0,0.25,0.5,0.25,0.25,0.25,0.5","0,1,0,0.5,0.25,0.25,0.25,0.25,0.5","3","",""
"","html-keyboard-response","19","32087","0.0-19.0","","","","","null","<img src=""img/land3.png"" style=""width:200px; border:14px solid green;"">","null","","","","","","","","","",""
"","image-keyboard-response","20","33435","0.0-20.0","","","","","1345.2999999998137","img/land3.png","76","1347.5999999996275","3","1","3","1","1,0,0,0.25,0.5,0.25,0.25,0.25,0.5","0,1,0,0.5,0.25,0.25,0.25,0.25,0.5","3","",""
"","html-keyboard-response","21","33738","0.0-21.0","","","","","null","<img src=""img/land3.png"" style=""width:200px; border:14px solid green;"">","null","","","","","","","","","",""
"","image-keyboard-response","22","34519","0.0-22.0","","","","","778.5","img/land3.png","76","780.1000000000931","3","1","3","1","1,0,0,0.25,0.5,0.25,0.25,0.25,0.5","0,1,0,0.5,0.25,0.25,0.25,0.25,0.5","3","",""
"","html-keyboard-response","23","34823","0.0-23.0","","","","","null","<img src=""img/land3.png"" style=""width:200px; border:14px solid green;"">","null","","","","","","","","","",""
"","image-keyboard-response","24","36199","0.0-24.0","","","","","1373.2000000001863","img/land1.png","74","1375.3999999999069","1","0","1","1","1,0,0,0.25,0.5,0.25,0.25,0.25,0.5","0,1,0,0.5,0.25,0.25,0.25,0.25,0.5","3","",""
"","html-keyboard-response","25","36501","0.0-25.0","","","","","null","<img src=""img/land1.png"" style=""width:200px;border:14px solid red;"">","null","","","","","","","","","",""
"","image-keyboard-response","26","38323","0.0-26.0","","","","","1819","img/land1.png","76","1821.1000000000931","3","0","1","1","1,0,0,0.25,0.5,0.25,0.25,0.25,0.5","0,1,0,0.5,0.25,0.25,0.25,0.25,0.5","3","",""
"","html-keyboard-response","27","38633","0.0-27.0","","","","","null","<img src=""img/land1.png"" style=""width:200px;border:14px solid red;"">","null","","","","","","","","","",""
"","image-keyboard-response","28","39262","0.0-28.0","","","","","627.7000000001863","img/land1.png","75","629.4000000003725","2","1","1","1","1,0,0,0.25,0.5,0.25,0.25,0.25,0.5","0,1,0,0.5,0.25,0.25,0.25,0.25,0.5","3","",""
"","html-keyboard-response","29","39566","0.0-29.0","","","","","null","<img src=""img/land1.png"" style=""width:200px; border:14px solid green;"">","null","","","","","","","","","",""
"","image-keyboard-response","30","41179","0.0-30.0","","","","","1612.2000000001863","img/land3.png","76","1613.7000000001863","3","0","3","1","1,0,0,0.25,0.5,0.25,0.25,0.25,0.5","0,1,0,0.5,0.25,0.25,0.25,0.25,0.5","3","",""
"","html-keyboard-response","31","41484","0.0-31.0","","","","","null","<img src=""img/land3.png"" style=""width:200px;border:14px solid red;"">","null","","","","","","","","","",""
"","image-keyboard-response","32","42097","0.0-32.0","","","","","611","img/land1.png","75","612.5","2","1","1","1","1,0,0,0.25,0.5,0.25,0.25,0.25,0.5","0,1,0,0.5,0.25,0.25,0.25,0.25,0.5","3","",""
"","html-keyboard-response","33","42398","0.0-33.0","","","","","null","<img src=""img/land1.png"" style=""width:200px; border:14px solid green;"">","null","","","","","","","","","",""
"","image-keyboard-response","34","43092","0.0-34.0","","","","","690.7999999998137","img/land1.png","75","693.3000000002794","2","1","1","1","1,0,0,0.25,0.5,0.25,0.25,0.25,0.5","0,1,0,0.5,0.25,0.25,0.25,0.25,0.5","3","",""
"","html-keyboard-response","35","43397","0.0-35.0","","","","","null","<img src=""img/land1.png"" style=""width:200px; border:14px solid green;"">","null","","","","","","","","","",""
"","image-keyboard-response","36","43944","0.0-36.0","","","","","543.5","img/land1.png","75","546.7000000001863","2","1","1","1","1,0,0,0.25,0.5,0.25,0.25,0.25,0.5","0,1,0,0.5,0.25,0.25,0.25,0.25,0.5","3","",""
"","html-keyboard-response","37","44262","0.0-37.0","","","","","null","<img src=""img/land1.png"" style=""width:200px; border:14px solid green;"">","null","","","","","","","","","",""
"","image-keyboard-response","38","45085","0.0-38.0","","","","","820.7999999998137","img/land2.png","74","823.2000000001863","1","0","2","1","1,0,0,0.25,0.5,0.25,0.25,0.25,0.5","0,1,0,0.5,0.25,0.25,0.25,0.25,0.5","3","",""
"","html-keyboard-response","39","45390","0.0-39.0","","","","","null","<img src=""img/land2.png"" style=""width:200px;border:14px solid red;"">","null","","","","","","","","","",""
"","image-keyboard-response","40","46012","0.0-40.0","","","","","617.9000000003725","img/land3.png","76","620.3999999999069","3","1","3","1","1,0,0,0.25,0.5,0.25,0.25,0.25,0.5","0,1,0,0.5,0.25,0.25,0.25,0.25,0.5","3","",""
"","html-keyboard-response","41","46316","0.0-41.0","","","","","null","<img src=""img/land3.png"" style=""width:200px; border:14px solid green;"">","null","","","","","","","","","",""
"","image-keyboard-response","42","46867","0.0-42.0","","","","","549.7999999998137","img/land3.png","76","551.1000000000931","3","0","3","1","1,0,0,0.25,0.5,0.25,0.25,0.25,0.5","0,1,0,0.5,0.25,0.25,0.25,0.25,0.5","3","",""
"","html-keyboard-response","43","47171","0.0-43.0","","","","","null","<img src=""img/land3.png"" style=""width:200px;border:14px solid red;"">","null","","","","","","","","","",""
"","image-keyboard-response","44","47877","0.0-44.0","","","","","703.1000000000931","img/land2.png","74","705.2999999998137","1","1","2","1","1,0,0,0.25,0.5,0.25,0.25,0.25,0.5","0,1,0,0.5,0.25,0.25,0.25,0.25,0.5","3","",""
"","html-keyboard-response","45","48192","0.0-45.0","","","","","null","<img src=""img/land2.png"" style=""width:200px; border:14px solid green;"">","null","","","","","","","","","",""
"","image-keyboard-response","46","48818","0.0-46.0","","","","","622.3999999999069","img/land1.png","75","624.3999999999069","2","1","1","1","1,0,0,0.25,0.5,0.25,0.25,0.25,0.5","0,1,0,0.5,0.25,0.25,0.25,0.25,0.5","3","",""
"","html-keyboard-response","47","49122","0.0-47.0","","","","","null","<img src=""img/land1.png"" style=""width:200px; border:14px solid green;"">","null","","","","","","","","","",""
"","image-keyboard-response","48","49581","0.0-48.0","","","","","458.10000000009313","img/land2.png","74","459.1999999997206","1","1","2","1","1,0,0,0.25,0.5,0.25,0.25,0.25,0.5","0,1,0,0.5,0.25,0.25,0.25,0.25,0.5","3","",""
"","html-keyboard-response","49","49883","0.0-49.0","","","","","null","<img src=""img/land2.png"" style=""width:200px; border:14px solid green;"">","null","","","","","","","","","",""
"","image-keyboard-response","50","50429","0.0-50.0","","","","","543","img/land3.png","76","545.8999999999069","3","1","3","1","1,0,0,0.25,0.5,0.25,0.25,0.25,0.5","0,1,0,0.5,0.25,0.25,0.25,0.25,0.5","3","",""
"","html-keyboard-response","51","50735","0.0-51.0","","","","","null","<img src=""img/land3.png"" style=""width:200px; border:14px solid green;"">","null","","","","","","","","","",""
"","image-keyboard-response","52","51150","0.0-52.0","","","","","413.8000000002794","img/land1.png","75","415.20000000018626","2","1","1","1","1,0,0,0.25,0.5,0.25,0.25,0.25,0.5","0,1,0,0.5,0.25,0.25,0.25,0.25,0.5","3","",""
"","html-keyboard-response","53","51454","0.0-53.0","","","","","null","<img src=""img/land1.png"" style=""width:200px; border:14px solid green;"">","null","","","","","","","","","",""
"","image-keyboard-response","54","52097","0.0-54.0","","","","","640.6000000000931","img/land3.png","76","642.1000000000931","3","1","3","1","1,0,0,0.25,0.5,0.25,0.25,0.25,0.5","0,1,0,0.5,0.25,0.25,0.25,0.25,0.5","3","",""
"","html-keyboard-response","55","52399","0.0-55.0","","","","","null","<img src=""img/land3.png"" style=""width:200px; border:14px solid green;"">","null","","","","","","","","","",""
"","image-keyboard-response","56","52933","0.0-56.0","","","","","531.7000000001863","img/land1.png","75","534","2","1","1","1","1,0,0,0.25,0.5,0.25,0.25,0.25,0.5","0,1,0,0.5,0.25,0.25,0.25,0.25,0.5","3","",""
"","html-keyboard-response","57","53236","0.0-57.0","","","","","null","<img src=""img/land1.png"" style=""width:200px; border:14px solid green;"">","null","","","","","","","","","",""
"","image-keyboard-response","58","53674","0.0-58.0","","","","","436.10000000009313","img/land1.png","75","437.60000000009313","2","1","1","1","1,0,0,0.25,0.5,0.25,0.25,0.25,0.5","0,1,0,0.5,0.25,0.25,0.25,0.25,0.5","3","",""
"","html-keyboard-response","59","53976","0.0-59.0","","","","","null","<img src=""img/land1.png"" style=""width:200px; border:14px solid green;"">","null","","","","","","","","","",""
"","image-keyboard-response","60","54328","0.0-60.0","","","","","349.20000000018626","img/land2.png","74","351.5","1","1","2","1","1,0,0,0.25,0.5,0.25,0.25,0.25,0.5","0,1,0,0.5,0.25,0.25,0.25,0.25,0.5","3","",""
"","html-keyboard-response","61","54632","0.0-61.0","","","","","null","<img src=""img/land2.png"" style=""width:200px; border:14px solid green;"">","null","","","","","","","","","",""
"","image-keyboard-response","62","55069","0.0-62.0","","","","","434.90000000037253","img/land1.png","75","436.40000000037253","2","1","1","1","1,0,0,0.25,0.5,0.25,0.25,0.25,0.5","0,1,0,0.5,0.25,0.25,0.25,0.25,0.5","3","",""
"","html-keyboard-response","63","55372","0.0-63.0","","","","","null","<img src=""img/land1.png"" style=""width:200px; border:14px solid green;"">","null","","","","","","","","","",""
"","image-keyboard-response","64","56044","0.0-64.0","","","","","669.3999999999069","img/land2.png","74","671.3999999999069","1","1","2","1","1,0,0,0.25,0.5,0.25,0.25,0.25,0.5","0,1,0,0.5,0.25,0.25,0.25,0.25,0.5","3","",""
"","html-keyboard-response","65","56359","0.0-65.0","","","","","null","<img src=""img/land2.png"" style=""width:200px; border:14px solid green;"">","null","","","","","","","","","",""
"","image-keyboard-response","66","56690","0.0-66.0","","","","","328.20000000018626","img/land2.png","74","330.5","1","1","2","1","1,0,0,0.25,0.5,0.25,0.25,0.25,0.5","0,1,0,0.5,0.25,0.25,0.25,0.25,0.5","3","",""
"","html-keyboard-response","67","56993","0.0-67.0","","","","","null","<img src=""img/land2.png"" style=""width:200px; border:14px solid green;"">","null","","","","","","","","","",""
"","image-keyboard-response","68","57350","0.0-68.0","","","","","353.89999999990687","img/land2.png","74","356.39999999990687","1","0","2","1","1,0,0,0.25,0.5,0.25,0.25,0.25,0.5","0,1,0,0.5,0.25,0.25,0.25,0.25,0.5","3","",""
"","html-keyboard-response","69","57654","0.0-69.0","","","","","null","<img src=""img/land2.png"" style=""width:200px;border:14px solid red;"">","null","","","","","","","","","",""
"","image-keyboard-response","70","59114","0.0-70.0","","","","","1458.7000000001863","img/land3.png","76","1460.1000000000931","3","1","3","1","1,0,0,0.25,0.5,0.25,0.25,0.25,0.5","0,1,0,0.5,0.25,0.25,0.25,0.25,0.5","3","",""
"","html-keyboard-response","71","59417","0.0-71.0","","","","","null","<img src=""img/land3.png"" style=""width:200px; border:14px solid green;"">","null","","","","","","","","","",""
"","image-keyboard-response","72","59902","0.0-72.0","","","","","482.3000000002794","img/land2.png","75","484.89999999990687","2","1","2","1","1,0,0,0.25,0.5,0.25,0.25,0.25,0.5","0,1,0,0.5,0.25,0.25,0.25,0.25,0.5","3","",""
"","html-keyboard-response","73","60207","0.0-73.0","","","","","null","<img src=""img/land2.png"" style=""width:200px; border:14px solid green;"">","null","","","","","","","","","",""
"","image-keyboard-response","74","61187","0.0-74.0","","","","","977.1000000000931","img/land3.png","76","978.7000000001863","3","0","3","1","1,0,0,0.25,0.5,0.25,0.25,0.25,0.5","0,1,0,0.5,0.25,0.25,0.25,0.25,0.5","3","",""
"","html-keyboard-response","75","61490","0.0-75.0","","","","","null","<img src=""img/land3.png"" style=""width:200px;border:14px solid red;"">","null","","","","","","","","","",""
"","image-keyboard-response","76","62098","0.0-76.0","","","","","606.2000000001863","img/land3.png","76","607.6000000000931","3","1","3","1","1,0,0,0.25,0.5,0.25,0.25,0.25,0.5","0,1,0,0.5,0.25,0.25,0.25,0.25,0.5","3","",""
"","html-keyboard-response","77","62402","0.0-77.0","","","","","null","<img src=""img/land3.png"" style=""width:200px; border:14px solid green;"">","null","","","","","","","","","",""
"","image-keyboard-response","78","62858","0.0-78.0","","","","","453.3000000002794","img/land3.png","76","455.1999999997206","3","0","3","1","1,0,0,0.25,0.5,0.25,0.25,0.25,0.5","0,1,0,0.5,0.25,0.25,0.25,0.25,0.5","3","",""
"","html-keyboard-response","79","63160","0.0-79.0","","","","","null","<img src=""img/land3.png"" style=""width:200px;border:14px solid red;"">","null","","","","","","","","","",""
"","image-keyboard-response","80","63537","0.0-80.0","","","","","375.6999999997206","img/land3.png","76","376.89999999990687","3","1","3","1","1,0,0,0.25,0.5,0.25,0.25,0.25,0.5","0,1,0,0.5,0.25,0.25,0.25,0.25,0.5","3","",""
"","html-keyboard-response","81","63839","0.0-81.0","","","","","null","<img src=""img/land3.png"" style=""width:200px; border:14px solid green;"">","null","","","","","","","","","",""
"","image-keyboard-response","82","64935","0.0-82.0","","","","","1094.7000000001863","img/land2.png","74","1096.4000000003725","1","1","2","1","1,0,0,0.25,0.5,0.25,0.25,0.25,0.5","0,1,0,0.5,0.25,0.25,0.25,0.25,0.5","3","",""
"","html-keyboard-response","83","65239","0.0-83.0","","","","","null","<img src=""img/land2.png"" style=""width:200px; border:14px solid green;"">","null","","","","","","","","","",""
"","image-keyboard-response","84","65683","0.0-84.0","","","","","441.3000000002794","img/land1.png","75","442.89999999990687","2","1","1","1","1,0,0,0.25,0.5,0.25,0.25,0.25,0.5","0,1,0,0.5,0.25,0.25,0.25,0.25,0.5","3","",""
"","html-keyboard-response","85","65986","0.0-85.0","","","","","null","<img src=""img/land1.png"" style=""width:200px; border:14px solid green;"">","null","","","","","","","","","",""
"","image-keyboard-response","86","66708","0.0-86.0","","","","","719.5999999996275","img/land2.png","74","721.7000000001863","1","0","2","1","1,0,0,0.25,0.5,0.25,0.25,0.25,0.5","0,1,0,0.5,0.25,0.25,0.25,0.25,0.5","3","",""
"","html-keyboard-response","87","67010","0.0-87.0","","","","","null","<img src=""img/land2.png"" style=""width:200px;border:14px solid red;"">","null","","","","","","","","","",""
"","image-keyboard-response","88","67663","0.0-88.0","","","","","651.5","img/land3.png","76","653.1000000000931","3","1","3","1","1,0,0,0.25,0.5,0.25,0.25,0.25,0.5","0,1,0,0.5,0.25,0.25,0.25,0.25,0.5","3","",""
"","html-keyboard-response","89","67965","0.0-89.0","","","","","null","<img src=""img/land3.png"" style=""width:200px; border:14px solid green;"">","null","","","","","","","","","",""
"","image-keyboard-response","90","68517","0.0-90.0","","","","","549.2999999998137","img/land1.png","75","551.6000000000931","2","1","1","1","1,0,0,0.25,0.5,0.25,0.25,0.25,0.5","0,1,0,0.5,0.25,0.25,0.25,0.25,0.5","3","",""
"","html-keyboard-response","91","68820","0.0-91.0","","","","","null","<img src=""img/land1.png"" style=""width:200px; border:14px solid green;"">","null","","","","","","","","","",""
"","image-keyboard-response","92","69679","0.0-92.0","","","","","857","img/land2.png","74","858.7999999998137","1","0","2","1","1,0,0,0.25,0.5,0.25,0.25,0.25,0.5","0,1,0,0.5,0.25,0.25,0.25,0.25,0.5","3","",""
"","html-keyboard-response","93","69982","0.0-93.0","","","","","null","<img src=""img/land2.png"" style=""width:200px;border:14px solid red;"">","null","","","","","","","","","",""
"","image-keyboard-response","94","71997","0.0-94.0","","","","","","img/land1.png","","2014.3000000002794","-1","0","1","1","1,0,0,0.25,0.5,0.25,0.25,0.25,0.5","0,1,0,0.5,0.25,0.25,0.25,0.25,0.5","3","",""
"","html-keyboard-response","95","72302","0.0-95.0","","","","","null","<img src=""img/land1.png"" style=""width:200px;border:14px solid red;"">","null","","","","","","","","","",""
"","image-keyboard-response","96","73192","0.0-96.0","","","","","887.7999999998137","img/land2.png","74","889.7000000001863","1","0","2","1","1,0,0,0.25,0.5,0.25,0.25,0.25,0.5","0,1,0,0.5,0.25,0.25,0.25,0.25,0.5","3","",""
"","html-keyboard-response","97","73496","0.0-97.0","","","","","null","<img src=""img/land2.png"" style=""width:200px;border:14px solid red;"">","null","","","","","","","","","",""
"","image-keyboard-response","98","74111","0.0-98.0","","","","","612.7999999998137","img/land1.png","75","614.4000000003725","2","1","1","1","1,0,0,0.25,0.5,0.25,0.25,0.25,0.5","0,1,0,0.5,0.25,0.25,0.25,0.25,0.5","3","",""
"","html-keyboard-response","99","74414","0.0-99.0","","","","","null","<img src=""img/land1.png"" style=""width:200px; border:14px solid green;"">","null","","","","","","","","","",""
"","image-keyboard-response","100","74983","0.0-100.0","","","","","567","img/land2.png","74","569.6000000000931","1","0","2","1","1,0,0,0.25,0.5,0.25,0.25,0.25,0.5","0,1,0,0.5,0.25,0.25,0.25,0.25,0.5","3","",""
"","html-keyboard-response","101","75287","0.0-101.0","","","","","null","<img src=""img/land2.png"" style=""width:200px;border:14px solid red;"">","null","","","","","","","","","",""
"","image-keyboard-response","102","75766","0.0-102.0","","","","","477.29999999981374","img/land3.png","76","479.1999999997206","3","1","3","1","1,0,0,0.25,0.5,0.25,0.25,0.25,0.5","0,1,0,0.5,0.25,0.25,0.25,0.25,0.5","3","",""
"","html-keyboard-response","103","76070","0.0-103.0","","","","","null","<img src=""img/land3.png"" style=""width:200px; border:14px solid green;"">","null","","","","","","","","","",""
"","image-keyboard-response","104","76703","0.0-104.0","","","","","630.6000000000931","img/land1.png","75","632.3000000002794","2","1","1","1","1,0,0,0.25,0.5,0.25,0.25,0.25,0.5","0,1,0,0.5,0.25,0.25,0.25,0.25,0.5","3","",""
"","html-keyboard-response","105","77005","0.0-105.0","","","","","null","<img src=""img/land1.png"" style=""width:200px; border:14px solid green;"">","null","","","","","","","","","",""
"","image-keyboard-response","106","77377","0.0-106.0","","","","","369.60000000009313","img/land1.png","75","371.60000000009313","2","1","1","1","1,0,0,0.25,0.5,0.25,0.25,0.25,0.5","0,1,0,0.5,0.25,0.25,0.25,0.25,0.5","3","",""
"","html-keyboard-response","107","77681","0.0-107.0","","","","","null","<img src=""img/land1.png"" style=""width:200px; border:14px solid green;"">","null","","","","","","","","","",""
"","image-keyboard-response","108","78036","0.0-108.0","","","","","352.89999999990687","img/land1.png","75","355.29999999981374","2","1","1","1","1,0,0,0.25,0.5,0.25,0.25,0.25,0.5","0,1,0,0.5,0.25,0.25,0.25,0.25,0.5","3","",""
"","html-keyboard-response","109","78354","0.0-109.0","","","","","null","<img src=""img/land1.png"" style=""width:200px; border:14px solid green;"">","null","","","","","","","","","",""
"","image-keyboard-response","110","78997","0.0-110.0","","","","","640.8999999999069","img/land2.png","74","642.8999999999069","1","1","2","1","1,0,0,0.25,0.5,0.25,0.25,0.25,0.5","0,1,0,0.5,0.25,0.25,0.25,0.25,0.5","3","",""
"","html-keyboard-response","111","79313","0.0-111.0","","","","","null","<img src=""img/land2.png"" style=""width:200px; border:14px solid green;"">","null","","","","","","","","","",""
"","image-keyboard-response","112","79690","0.0-112.0","","","","","374.1999999997206","img/land2.png","74","375.79999999981374","1","1","2","1","1,0,0,0.25,0.5,0.25,0.25,0.25,0.5","0,1,0,0.5,0.25,0.25,0.25,0.25,0.5","3","",""
"","html-keyboard-response","113","79993","0.0-113.0","","","","","null","<img src=""img/land2.png"" style=""width:200px; border:14px solid green;"">","null","","","","","","","","","",""
"","image-keyboard-response","114","80710","0.0-114.0","","","","","715","img/land3.png","76","717","3","1","3","1","1,0,0,0.25,0.5,0.25,0.25,0.25,0.5","0,1,0,0.5,0.25,0.25,0.25,0.25,0.5","3","",""
"","html-keyboard-response","115","81013","0.0-115.0","","","","","null","<img src=""img/land3.png"" style=""width:200px; border:14px solid green;"">","null","","","","","","","","","",""
"","image-keyboard-response","116","81673","0.0-116.0","","","","","656.8999999999069","img/land2.png","74","658.5","1","0","2","1","1,0,0,0.25,0.5,0.25,0.25,0.25,0.5","0,1,0,0.5,0.25,0.25,0.25,0.25,0.5","3","",""
"","html-keyboard-response","117","81974","0.0-117.0","","","","","null","<img src=""img/land2.png"" style=""width:200px;border:14px solid red;"">","null","","","","","","","","","",""
"","image-keyboard-response","118","82664","0.0-118.0","","","","","688.1000000000931","img/land3.png","74","689.6999999997206","1","0","3","1","1,0,0,0.25,0.5,0.25,0.25,0.25,0.5","0,1,0,0.5,0.25,0.25,0.25,0.25,0.5","3","",""
"","html-keyboard-response","119","82967","0.0-119.0","","","","","null","<img src=""img/land3.png"" style=""width:200px;border:14px solid red;"">","null","","","","","","","","","",""
"","image-keyboard-response","120","83991","0.0-120.0","","","","","1021","img/land2.png","74","1023.1000000000931","1","0","2","1","1,0,0,0.25,0.5,0.25,0.25,0.25,0.5","0,1,0,0.5,0.25,0.25,0.25,0.25,0.5","3","",""
"","html-keyboard-response","121","84305","0.0-121.0","","","","","null","<img src=""img/land2.png"" style=""width:200px;border:14px solid red;"">","null","","","","","","","","","",""
"","image-keyboard-response","122","85310","0.0-122.0","","","","","1003.3999999999069","img/land2.png","74","1004.7000000001863","1","0","2","1","1,0,0,0.25,0.5,0.25,0.25,0.25,0.5","0,1,0,0.5,0.25,0.25,0.25,0.25,0.5","3","",""
"","html-keyboard-response","123","85612","0.0-123.0","","","","","null","<img src=""img/land2.png"" style=""width:200px;border:14px solid red;"">","null","","","","","","","","","",""
"","image-keyboard-response","124","86041","0.0-124.0","","","","","426.29999999981374","img/land3.png","76","428.59999999962747","3","1","3","1","1,0,0,0.25,0.5,0.25,0.25,0.25,0.5","0,1,0,0.5,0.25,0.25,0.25,0.25,0.5","3","",""
"","html-keyboard-response","125","86345","0.0-125.0","","","","","null","<img src=""img/land3.png"" style=""width:200px; border:14px solid green;"">","null","","","","","","","","","",""
"","image-keyboard-response","126","86936","0.0-126.0","","","","","591","img/land2.png","74","591.8999999999069","1","1","2","1","1,0,0,0.25,0.5,0.25,0.25,0.25,0.5","0,1,0,0.5,0.25,0.25,0.25,0.25,0.5","3","",""
"","html-keyboard-response","127","87240","0.0-127.0","","","","","null","<img src=""img/land2.png"" style=""width:200px; border:14px solid green;"">","null","","","","","","","","","",""
"","image-keyboard-response","128","87793","0.0-128.0","","","","","550.3999999999069","img/land3.png","76","553","3","1","3","1","1,0,0,0.25,0.5,0.25,0.25,0.25,0.5","0,1,0,0.5,0.25,0.25,0.25,0.25,0.5","3","",""
"","html-keyboard-response","129","88097","0.0-129.0","","","","","null","<img src=""img/land3.png"" style=""width:200px; border:14px solid green;"">","null","","","","","","","","","",""
"","image-keyboard-response","130","88680","0.0-130.0","","","","","581.5","img/land1.png","75","583.2999999998137","2","1","1","1","1,0,0,0.25,0.5,0.25,0.25,0.25,0.5","0,1,0,0.5,0.25,0.25,0.25,0.25,0.5","3","",""
"","html-keyboard-response","131","88982","0.0-131.0","","","","","null","<img src=""img/land1.png"" style=""width:200px; border:14px solid green;"">","null","","","","","","","","","",""
"","image-keyboard-response","132","89555","0.0-132.0","","","","","570.5","img/land2.png","74","571.7999999998137","1","0","2","1","1,0,0,0.25,0.5,0.25,0.25,0.25,0.5","0,1,0,0.5,0.25,0.25,0.25,0.25,0.5","3","",""
"","html-keyboard-response","133","89857","0.0-133.0","","","","","null","<img src=""img/land2.png"" style=""width:200px;border:14px solid red;"">","null","","","","","","","","","",""
"","image-keyboard-response","134","90356","0.0-134.0","","","","","497.70000000018626","img/land1.png","75","498.70000000018626","2","1","1","1","1,0,0,0.25,0.5,0.25,0.25,0.25,0.5","0,1,0,0.5,0.25,0.25,0.25,0.25,0.5","3","",""
"","html-keyboard-response","135","90658","0.0-135.0","","","","","null","<img src=""img/land1.png"" style=""width:200px; border:14px solid green;"">","null","","","","","","","","","",""
"","image-keyboard-response","136","91014","0.0-136.0","","","","","355.39999999990687","img/land3.png","76","355.89999999990687","3","1","3","1","1,0,0,0.25,0.5,0.25,0.25,0.25,0.5","0,1,0,0.5,0.25,0.25,0.25,0.25,0.5","3","",""
"","html-keyboard-response","137","91317","0.0-137.0","","","","","null","<img src=""img/land3.png"" style=""width:200px; border:14px solid green;"">","null","","","","","","","","","",""
"","image-keyboard-response","138","91766","0.0-138.0","","","","","447.89999999990687","img/land1.png","75","448.5","2","1","1","1","1,0,0,0.25,0.5,0.25,0.25,0.25,0.5","0,1,0,0.5,0.25,0.25,0.25,0.25,0.5","3","",""
"","html-keyboard-response","139","92068","0.0-139.0","","","","","null","<img src=""img/land1.png"" style=""width:200px; border:14px solid green;"">","null","","","","","","","","","",""
"","image-keyboard-response","140","92458","0.0-140.0","","","","","388.5","img/land1.png","75","389.39999999990687","2","1","1","1","1,0,0,0.25,0.5,0.25,0.25,0.25,0.5","0,1,0,0.5,0.25,0.25,0.25,0.25,0.5","3","",""
"","html-keyboard-response","141","92762","0.0-141.0","","","","","null","<img src=""img/land1.png"" style=""width:200px; border:14px solid green;"">","null","","","","","","","","","",""
"","image-keyboard-response","142","93226","0.0-142.0","","","","","463.1999999997206","img/land3.png","76","464.29999999981374","3","0","3","1","1,0,0,0.25,0.5,0.25,0.25,0.25,0.5","0,1,0,0.5,0.25,0.25,0.25,0.25,0.5","3","",""
"","html-keyboard-response","143","93529","0.0-143.0","","","","","null","<img src=""img/land3.png"" style=""width:200px;border:14px solid red;"">","null","","","","","","","","","",""
"","image-keyboard-response","144","93905","0.0-144.0","","","","","372.6999999997206","img/land3.png","76","374.60000000009313","3","1","3","1","1,0,0,0.25,0.5,0.25,0.25,0.25,0.5","0,1,0,0.5,0.25,0.25,0.25,0.25,0.5","3","",""
"","html-keyboard-response","145","94208","0.0-145.0","","","","","null","<img src=""img/land3.png"" style=""width:200px; border:14px solid green;"">","null","","","","","","","","","",""
"","image-keyboard-response","146","94635","0.0-146.0","","","","","423.39999999990687","img/land2.png","74","425.79999999981374","1","1","2","1","1,0,0,0.25,0.5,0.25,0.25,0.25,0.5","0,1,0,0.5,0.25,0.25,0.25,0.25,0.5","3","",""
"","html-keyboard-response","147","94942","0.0-147.0","","","","","null","<img src=""img/land2.png"" style=""width:200px; border:14px solid green;"">","null","","","","","","","","","",""
"","image-keyboard-response","148","95311","0.0-148.0","","","","","366.5","img/land2.png","74","368.70000000018626","1","1","2","1","1,0,0,0.25,0.5,0.25,0.25,0.25,0.5","0,1,0,0.5,0.25,0.25,0.25,0.25,0.5","3","",""
"","html-keyboard-response","149","95614","0.0-149.0","","","","","null","<img src=""img/land2.png"" style=""width:200px; border:14px solid green;"">","null","","","","","","","","","",""
"","image-keyboard-response","150","96136","0.0-150.0","","","","","519.3999999999069","img/land1.png","75","520.8999999999069","2","1","1","1","1,0,0,0.25,0.5,0.25,0.25,0.25,0.5","0,1,0,0.5,0.25,0.25,0.25,0.25,0.5","3","",""
"","html-keyboard-response","151","96437","0.0-151.0","","","","","null","<img src=""img/land1.png"" style=""width:200px; border:14px solid green;"">","null","","","","","","","","","",""
"","image-keyboard-response","152","96822","0.0-152.0","","","","","381.8000000002794","img/land1.png","75","384.60000000009313","2","1","1","1","1,0,0,0.25,0.5,0.25,0.25,0.25,0.5","0,1,0,0.5,0.25,0.25,0.25,0.25,0.5","3","",""
"","html-keyboard-response","153","97125","0.0-153.0","","","","","null","<img src=""img/land1.png"" style=""width:200px; border:14px solid green;"">","null","","","","","","","","","",""
"","image-keyboard-response","154","97724","0.0-154.0","","","","","596","img/land3.png","76","598.1000000000931","3","0","3","1","1,0,0,0.25,0.5,0.25,0.25,0.25,0.5","0,1,0,0.5,0.25,0.25,0.25,0.25,0.5","3","",""
"","html-keyboard-response","155","98027","0.0-155.0","","","","","null","<img src=""img/land3.png"" style=""width:200px;border:14px solid red;"">","null","","","","","","","","","",""
"","image-keyboard-response","156","98441","0.0-156.0","","","","","410.8000000002794","img/land3.png","76","413.40000000037253","3","0","3","1","1,0,0,0.25,0.5,0.25,0.25,0.25,0.5","0,1,0,0.5,0.25,0.25,0.25,0.25,0.5","3","",""
"","html-keyboard-response","157","98745","0.0-157.0","","","","","null","<img src=""img/land3.png"" style=""width:200px;border:14px solid red;"">","null","","","","","","","","","",""
"","image-keyboard-response","158","99154","0.0-158.0","","","","","406.20000000018626","img/land2.png","74","408.70000000018626","1","0","2","1","1,0,0,0.25,0.5,0.25,0.25,0.25,0.5","0,1,0,0.5,0.25,0.25,0.25,0.25,0.5","3","",""
"","html-keyboard-response","159","99457","0.0-159.0","","","","","null","<img src=""img/land2.png"" style=""width:200px;border:14px solid red;"">","null","","","","","","","","","",""
"","image-keyboard-response","160","99925","0.0-160.0","","","","","465.79999999981374","img/land1.png","75","467.39999999990687","2","1","1","1","1,0,0,0.25,0.5,0.25,0.25,0.25,0.5","0,1,0,0.5,0.25,0.25,0.25,0.25,0.5","3","",""
"","html-keyboard-response","161","100231","0.0-161.0","","","","","null","<img src=""img/land1.png"" style=""width:200px; border:14px solid green;"">","null","","","","","","","","","",""
"","image-keyboard-response","162","100716","0.0-162.0","","","","","481.60000000009313","img/land3.png","76","483.39999999990687","3","0","3","1","1,0,0,0.25,0.5,0.25,0.25,0.25,0.5","0,1,0,0.5,0.25,0.25,0.25,0.25,0.5","3","",""
"","html-keyboard-response","163","101019","0.0-163.0","","","","","null","<img src=""img/land3.png"" style=""width:200px;border:14px solid red;"">","null","","","","","","","","","",""
"","image-keyboard-response","164","101421","0.0-164.0","","","","","398.89999999990687","img/land3.png","76","401.70000000018626","3","1","3","1","1,0,0,0.25,0.5,0.25,0.25,0.25,0.5","0,1,0,0.5,0.25,0.25,0.25,0.25,0.5","3","",""
"","html-keyboard-response","165","101725","0.0-165.0","","","","","null","<img src=""img/land3.png"" style=""width:200px; border:14px solid green;"">","null","","","","","","","","","",""
"","image-keyboard-response","166","102294","0.0-166.0","","","","","566.8999999999069","img/land3.png","76","568.5","3","0","3","1","1,0,0,0.25,0.5,0.25,0.25,0.25,0.5","0,1,0,0.5,0.25,0.25,0.25,0.25,0.5","3","",""
"","html-keyboard-response","167","102596","0.0-167.0","","","","","null","<img src=""img/land3.png"" style=""width:200px;border:14px solid red;"">","null","","","","","","","","","",""
"","image-keyboard-response","168","102905","0.0-168.0","","","","","306.6999999997206","img/land3.png","76","308.39999999990687","3","1","3","1","1,0,0,0.25,0.5,0.25,0.25,0.25,0.5","0,1,0,0.5,0.25,0.25,0.25,0.25,0.5","3","",""
"","html-keyboard-response","169","103223","0.0-169.0","","","","","null","<img src=""img/land3.png"" style=""width:200px; border:14px solid green;"">","null","","","","","","","","","",""
"","image-keyboard-response","170","103805","0.0-170.0","","","","","578.6000000000931","img/land2.png","74","580.6999999997206","1","0","2","1","1,0,0,0.25,0.5,0.25,0.25,0.25,0.5","0,1,0,0.5,0.25,0.25,0.25,0.25,0.5","3","",""
"","html-keyboard-response","171","104108","0.0-171.0","","","","","null","<img src=""img/land2.png"" style=""width:200px;border:14px solid red;"">","null","","","","","","","","","",""
"","image-keyboard-response","172","104405","0.0-172.0","","","","","294.5","img/land2.png","74","296.29999999981374","1","1","2","1","1,0,0,0.25,0.5,0.25,0.25,0.25,0.5","0,1,0,0.5,0.25,0.25,0.25,0.25,0.5","3","",""
"","html-keyboard-response","173","104709","0.0-173.0","","","","","null","<img src=""img/land2.png"" style=""width:200px; border:14px solid green;"">","null","","","","","","","","","",""
"","image-keyboard-response","174","105052","0.0-174.0","","","","","339.70000000018626","img/land2.png","74","341.8000000002794","1","0","2","1","1,0,0,0.25,0.5,0.25,0.25,0.25,0.5","0,1,0,0.5,0.25,0.25,0.25,0.25,0.5","3","",""
"","html-keyboard-response","175","105355","0.0-175.0","","","","","null","<img src=""img/land2.png"" style=""width:200px;border:14px solid red;"">","null","","","","","","","","","",""
"","image-keyboard-response","176","105941","0.0-176.0","","","","","585.2000000001863","img/land3.png","76","586.2000000001863","3","0","3","1","1,0,0,0.25,0.5,0.25,0.25,0.25,0.5","0,1,0,0.5,0.25,0.25,0.25,0.25,0.5","3","",""
"","html-keyboard-response","177","106245","0.0-177.0","","","","","null","<img src=""img/land3.png"" style=""width:200px;border:14px solid red;"">","null","","","","","","","","","",""
"","image-keyboard-response","178","106915","0.0-178.0","","","","","667.1000000000931","img/land1.png","75","669.2000000001863","2","1","1","1","1,0,0,0.25,0.5,0.25,0.25,0.25,0.5","0,1,0,0.5,0.25,0.25,0.25,0.25,0.5","3","",""
"","html-keyboard-response","179","107220","0.0-179.0","","","","","null","<img src=""img/land1.png"" style=""width:200px; border:14px solid green;"">","null","","","","","","","","","",""
"","image-keyboard-response","180","107808","0.0-180.0","","","","","586","img/land2.png","74","587.8000000002794","1","1","2","1","1,0,0,0.25,0.5,0.25,0.25,0.25,0.5","0,1,0,0.5,0.25,0.25,0.25,0.25,0.5","3","",""
"","html-keyboard-response","181","108111","0.0-181.0","","","","","null","<img src=""img/land2.png"" style=""width:200px; border:14px solid green;"">","null","","","","","","","","","",""
"","html-keyboard-response","182","111561","0.0-182.0","","","","","","","","","","","","","","","","",""
"","image-keyboard-response","183","113147","0.0-183.0","","","","","1585.3999999999069","img/land4.png","76","1586.2999999998137","3","0","1","2","1,0,0,0.25,0.5,0.25,0.25,0.25,0.5","1,0,0,0.25,0.5,0.25,0.25,0.25,0.5","1","",""
"","html-keyboard-response","184","113457","0.0-184.0","","","","","null","<img src=""img/land4.png"" style=""width:200px;border:14px solid red;"">","null","","","","","","","","","",""
"","image-keyboard-response","185","114129","0.0-185.0","","","","","669.3000000002794","img/land4.png","74","671.1999999997206","1","1","1","2","1,0,0,0.25,0.5,0.25,0.25,0.25,0.5","1,0,0,0.25,0.5,0.25,0.25,0.25,0.5","1","",""
"","html-keyboard-response","186","114431","0.0-186.0","","","","","null","<img src=""img/land4.png"" style=""width:200px; border:14px solid green;"">","null","","","","","","","","","",""
"","image-keyboard-response","187","115454","0.0-187.0","","","","","1019.8999999999069","img/land4.png","74","1021.7000000001863","1","1","1","2","1,0,0,0.25,0.5,0.25,0.25,0.25,0.5","1,0,0,0.25,0.5,0.25,0.25,0.25,0.5","1","",""
"","html-keyboard-response","188","115756","0.0-188.0","","","","","null","<img src=""img/land4.png"" style=""width:200px; border:14px solid green;"">","null","","","","","","","","","",""
"","image-keyboard-response","189","116026","0.0-189.0","","","","","266.10000000009313","img/land4.png","74","268.60000000009313","1","1","1","2","1,0,0,0.25,0.5,0.25,0.25,0.25,0.5","1,0,0,0.25,0.5,0.25,0.25,0.25,0.5","1","",""
"","html-keyboard-response","190","116330","0.0-190.0","","","","","null","<img src=""img/land4.png"" style=""width:200px; border:14px solid green;"">","null","","","","","","","","","",""
"","image-keyboard-response","191","116582","0.0-191.0","","","","","250.60000000009313","img/land4.png","74","251.3000000002794","1","1","1","2","1,0,0,0.25,0.5,0.25,0.25,0.25,0.5","1,0,0,0.25,0.5,0.25,0.25,0.25,0.5","1","",""
"","html-keyboard-response","192","116884","0.0-192.0","","","","","null","<img src=""img/land4.png"" style=""width:200px; border:14px solid green;"">","null","","","","","","","","","",""
"","image-keyboard-response","193","117107","0.0-193.0","","","","","220.20000000018626","img/land4.png","74","221.79999999981374","1","1","1","2","1,0,0,0.25,0.5,0.25,0.25,0.25,0.5","1,0,0,0.25,0.5,0.25,0.25,0.25,0.5","1","",""
"","html-keyboard-response","194","117410","0.0-194.0","","","","","null","<img src=""img/land4.png"" style=""width:200px; border:14px solid green;"">","null","","","","","","","","","",""
"","image-keyboard-response","195","117652","0.0-195.0","","","","","240.20000000018626","img/land4.png","74","241.3000000002794","1","1","1","2","1,0,0,0.25,0.5,0.25,0.25,0.25,0.5","1,0,0,0.25,0.5,0.25,0.25,0.25,0.5","1","",""
"","html-keyboard-response","196","117954","0.0-196.0","","","","","null","<img src=""img/land4.png"" style=""width:200px; border:14px solid green;"">","null","","","","","","","","","",""
"","image-keyboard-response","197","118161","0.0-197.0","","","","","203.29999999981374","img/land6.png","74","205.70000000018626","1","0","3","2","1,0,0,0.25,0.5,0.25,0.25,0.25,0.5","1,0,0,0.25,0.5,0.25,0.25,0.25,0.5","1","",""
"","html-keyboard-response","198","118465","0.0-198.0","","","","","null","<img src=""img/land6.png"" style=""width:200px;border:14px solid red;"">","null","","","","","","","","","",""
"","image-keyboard-response","199","118972","0.0-199.0","","","","","505.39999999990687","img/land6.png","75","507.3000000002794","2","0","3","2","1,0,0,0.25,0.5,0.25,0.25,0.25,0.5","1,0,0,0.25,0.5,0.25,0.25,0.25,0.5","1","",""
"","html-keyboard-response","200","119276","0.0-200.0","","","","","null","<img src=""img/land6.png"" style=""width:200px;border:14px solid red;"">","null","","","","","","","","","",""
"","image-keyboard-response","201","120266","0.0-201.0","","","","","986.3999999999069","img/land4.png","74","989","1","1","1","2","1,0,0,0.25,0.5,0.25,0.25,0.25,0.5","1,0,0,0.25,0.5,0.25,0.25,0.25,0.5","1","",""
"","html-keyboard-response","202","120570","0.0-202.0","","","","","null","<img src=""img/land4.png"" style=""width:200px; border:14px solid green;"">","null","","","","","","","","","",""
"","image-keyboard-response","203","121632","0.0-203.0","","","","","1059.8999999999069","img/land5.png","76","1061.5","3","0","2","2","1,0,0,0.25,0.5,0.25,0.25,0.25,0.5","1,0,0,0.25,0.5,0.25,0.25,0.25,0.5","1","",""
"","html-keyboard-response","204","121936","0.0-204.0","","","","","null","<img src=""img/land5.png"" style=""width:200px;border:14px solid red;"">","null","","","","","","","","","",""
"","image-keyboard-response","205","122965","0.0-205.0","","","","","1026.7999999998137","img/land4.png","74","1028.5999999996275","1","1","1","2","1,0,0,0.25,0.5,0.25,0.25,0.25,0.5","1,0,0,0.25,0.5,0.25,0.25,0.25,0.5","1","",""
"","html-keyboard-response","206","123269","0.0-206.0","","","","","null","<img src=""img/land4.png"" style=""width:200px; border:14px solid green;"">","null","","","","","","","","","",""
"","image-keyboard-response","207","123870","0.0-207.0","","","","","598.1000000000931","img/land6.png","75","600.7000000001863","2","0","3","2","1,0,0,0.25,0.5,0.25,0.25,0.25,0.5","1,0,0,0.25,0.5,0.25,0.25,0.25,0.5","1","",""
"","html-keyboard-response","208","124173","0.0-208.0","","","","","null","<img src=""img/land6.png"" style=""width:200px;border:14px solid red;"">","null","","","","","","","","","",""
"","image-keyboard-response","209","124966","0.0-209.0","","","","","791.1000000000931","img/land4.png","74","792.8000000002794","1","1","1","2","1,0,0,0.25,0.5,0.25,0.25,0.25,0.5","1,0,0,0.25,0.5,0.25,0.25,0.25,0.5","1","",""
"","html-keyboard-response","210","125268","0.0-210.0","","","","","null","<img src=""img/land4.png"" style=""width:200px; border:14px solid green;"">","null","","","","","","","","","",""
"","image-keyboard-response","211","125776","0.0-211.0","","","","","507.20000000018626","img/land4.png","74","507.6999999997206","1","1","1","2","1,0,0,0.25,0.5,0.25,0.25,0.25,0.5","1,0,0,0.25,0.5,0.25,0.25,0.25,0.5","1","",""
"","html-keyboard-response","212","126078","0.0-212.0","","","","","null","<img src=""img/land4.png"" style=""width:200px; border:14px solid green;"">","null","","","","","","","","","",""
"","image-keyboard-response","213","126794","0.0-213.0","","","","","713","img/land5.png","75","714.2999999998137","2","1","2","2","1,0,0,0.25,0.5,0.25,0.25,0.25,0.5","1,0,0,0.25,0.5,0.25,0.25,0.25,0.5","1","",""
"","html-keyboard-response","214","127095","0.0-214.0","","","","","null","<img src=""img/land5.png"" style=""width:200px; border:14px solid green;"">","null","","","","","","","","","",""
"","image-keyboard-response","215","127857","0.0-215.0","","","","","760.1000000000931","img/land5.png","75","761.8999999999069","2","1","2","2","1,0,0,0.25,0.5,0.25,0.25,0.25,0.5","1,0,0,0.25,0.5,0.25,0.25,0.25,0.5","1","",""
"","html-keyboard-response","216","128161","0.0-216.0","","","","","null","<img src=""img/land5.png"" style=""width:200px; border:14px solid green;"">","null","","","","","","","","","",""
"","image-keyboard-response","217","128814","0.0-217.0","","","","","650.1000000000931","img/land4.png","74","651.8999999999069","1","1","1","2","1,0,0,0.25,0.5,0.25,0.25,0.25,0.5","1,0,0,0.25,0.5,0.25,0.25,0.25,0.5","1","",""
"","html-keyboard-response","218","129116","0.0-218.0","","","","","null","<img src=""img/land4.png"" style=""width:200px; border:14px solid green;"">","null","","","","","","","","","",""
"","image-keyboard-response","219","129780","0.0-219.0","","","","","661.1999999997206","img/land6.png","76","663.1000000000931","3","0","3","2","1,0,0,0.25,0.5,0.25,0.25,0.25,0.5","1,0,0,0.25,0.5,0.25,0.25,0.25,0.5","1","",""
"","html-keyboard-response","220","130083","0.0-220.0","","","","","null","<img src=""img/land6.png"" style=""width:200px;border:14px solid red;"">","null","","","","","","","","","",""
"","image-keyboard-response","221","130765","0.0-221.0","","","","","679.3999999999069","img/land6.png","76","681.1000000000931","3","1","3","2","1,0,0,0.25,0.5,0.25,0.25,0.25,0.5","1,0,0,0.25,0.5,0.25,0.25,0.25,0.5","1","",""
"","html-keyboard-response","222","131068","0.0-222.0","","","","","null","<img src=""img/land6.png"" style=""width:200px; border:14px solid green;"">","null","","","","","","","","","",""
"","image-keyboard-response","223","131667","0.0-223.0","","","","","596.5","img/land6.png","76","598.1999999997206","3","1","3","2","1,0,0,0.25,0.5,0.25,0.25,0.25,0.5","1,0,0,0.25,0.5,0.25,0.25,0.25,0.5","1","",""
"","html-keyboard-response","224","131970","0.0-224.0","","","","","null","<img src=""img/land6.png"" style=""width:200px; border:14px solid green;"">","null","","","","","","","","","",""
"","image-keyboard-response","225","132763","0.0-225.0","","","","","792.8000000002794","img/land4.png","74","793.5","1","1","1","2","1,0,0,0.25,0.5,0.25,0.25,0.25,0.5","1,0,0,0.25,0.5,0.25,0.25,0.25,0.5","1","",""
"","html-keyboard-response","226","133066","0.0-226.0","","","","","null","<img src=""img/land4.png"" style=""width:200px; border:14px solid green;"">","null","","","","","","","","","",""
"","image-keyboard-response","227","133397","0.0-227.0","","","","","329.10000000009313","img/land4.png","74","330.89999999990687","1","1","1","2","1,0,0,0.25,0.5,0.25,0.25,0.25,0.5","1,0,0,0.25,0.5,0.25,0.25,0.25,0.5","1","",""
"","html-keyboard-response","228","133699","0.0-228.0","","","","","null","<img src=""img/land4.png"" style=""width:200px; border:14px solid green;"">","null","","","","","","","","","",""
"","image-keyboard-response","229","133947","0.0-229.0","","","","","246.39999999990687","img/land4.png","74","247.89999999990687","1","1","1","2","1,0,0,0.25,0.5,0.25,0.25,0.25,0.5","1,0,0,0.25,0.5,0.25,0.25,0.25,0.5","1","",""
"","html-keyboard-response","230","134251","0.0-230.0","","","","","null","<img src=""img/land4.png"" style=""width:200px; border:14px solid green;"">","null","","","","","","","","","",""
"","image-keyboard-response","231","134522","0.0-231.0","","","","","268.8000000002794","img/land4.png","74","271","1","1","1","2","1,0,0,0.25,0.5,0.25,0.25,0.25,0.5","1,0,0,0.25,0.5,0.25,0.25,0.25,0.5","1","",""
"","html-keyboard-response","232","134826","0.0-232.0","","","","","null","<img src=""img/land4.png"" style=""width:200px; border:14px solid green;"">","null","","","","","","","","","",""
"","image-keyboard-response","233","135110","0.0-233.0","","","","","282.29999999981374","img/land4.png","74","283.70000000018626","1","1","1","2","1,0,0,0.25,0.5,0.25,0.25,0.25,0.5","1,0,0,0.25,0.5,0.25,0.25,0.25,0.5","1","",""
"","html-keyboard-response","234","135412","0.0-234.0","","","","","null","<img src=""img/land4.png"" style=""width:200px; border:14px solid green;"">","null","","","","","","","","","",""
"","image-keyboard-response","235","135773","0.0-235.0","","","","","357.89999999990687","img/land5.png","75","360.60000000009313","2","0","2","2","1,0,0,0.25,0.5,0.25,0.25,0.25,0.5","1,0,0,0.25,0.5,0.25,0.25,0.25,0.5","1","",""
"","html-keyboard-response","236","136077","0.0-236.0","","","","","null","<img src=""img/land5.png"" style=""width:200px;border:14px solid red;"">","null","","","","","","","","","",""
"","image-keyboard-response","237","136466","0.0-237.0","","","","","385.5","img/land5.png","75","387.89999999990687","2","1","2","2","1,0,0,0.25,0.5,0.25,0.25,0.25,0.5","1,0,0,0.25,0.5,0.25,0.25,0.25,0.5","1","",""
"","html-keyboard-response","238","136769","0.0-238.0","","","","","null","<img src=""img/land5.png"" style=""width:200px; border:14px solid green;"">","null","","","","","","","","","",""
"","image-keyboard-response","239","137285","0.0-239.0","","","","","513.6000000000931","img/land6.png","76","515.5999999996275","3","0","3","2","1,0,0,0.25,0.5,0.25,0.25,0.25,0.5","1,0,0,0.25,0.5,0.25,0.25,0.25,0.5","1","",""
"","html-keyboard-response","240","137589","0.0-240.0","","","","","null","<img src=""img/land6.png"" style=""width:200px;border:14px solid red;"">","null","","","","","","","","","",""
"","image-keyboard-response","241","138268","0.0-241.0","","","","","677.1999999997206","img/land4.png","74","678.6000000000931","1","1","1","2","1,0,0,0.25,0.5,0.25,0.25,0.25,0.5","1,0,0,0.25,0.5,0.25,0.25,0.25,0.5","1","",""
"","html-keyboard-response","242","138571","0.0-242.0","","","","","null","<img src=""img/land4.png"" style=""width:200px; border:14px solid green;"">","null","","","","","","","","","",""
"","image-keyboard-response","243","138934","0.0-243.0","","","","","361","img/land4.png","74","362.39999999990687","1","1","1","2","1,0,0,0.25,0.5,0.25,0.25,0.25,0.5","1,0,0,0.25,0.5,0.25,0.25,0.25,0.5","1","",""
"","html-keyboard-response","244","139239","0.0-244.0","","","","","null","<img src=""img/land4.png"" style=""width:200px; border:14px solid green;"">","null","","","","","","","","","",""
"","image-keyboard-response","245","139602","0.0-245.0","","","","","361.10000000009313","img/land4.png","74","362.6999999997206","1","1","1","2","1,0,0,0.25,0.5,0.25,0.25,0.25,0.5","1,0,0,0.25,0.5,0.25,0.25,0.25,0.5","1","",""
"","html-keyboard-response","246","139906","0.0-246.0","","","","","null","<img src=""img/land4.png"" style=""width:200px; border:14px solid green;"">","null","","","","","","","","","",""
"","image-keyboard-response","247","140173","0.0-247.0","","","","","265.09999999962747","img/land4.png","74","267.5","1","1","1","2","1,0,0,0.25,0.5,0.25,0.25,0.25,0.5","1,0,0,0.25,0.5,0.25,0.25,0.25,0.5","1","",""
"","html-keyboard-response","248","140477","0.0-248.0","","","","","null","<img src=""img/land4.png"" style=""width:200px; border:14px solid green;"">","null","","","","","","","","","",""
"","image-keyboard-response","249","140715","0.0-249.0","","","","","235.70000000018626","img/land4.png","74","237.10000000009313","1","1","1","2","1,0,0,0.25,0.5,0.25,0.25,0.25,0.5","1,0,0,0.25,0.5,0.25,0.25,0.25,0.5","1","",""
"","html-keyboard-response","250","141019","0.0-250.0","","","","","null","<img src=""img/land4.png"" style=""width:200px; border:14px solid green;"">","null","","","","","","","","","",""
"","image-keyboard-response","251","141226","0.0-251.0","","","","","203.1999999997206","img/land4.png","74","206.40000000037253","1","1","1","2","1,0,0,0.25,0.5,0.25,0.25,0.25,0.5","1,0,0,0.25,0.5,0.25,0.25,0.25,0.5","1","",""
"","html-keyboard-response","252","141529","0.0-252.0","","","","","null","<img src=""img/land4.png"" style=""width:200px; border:14px solid green;"">","null","","","","","","","","","",""
"","image-keyboard-response","253","141788","0.0-253.0","","","","","255.20000000018626","img/land4.png","74","257.8000000002794","1","1","1","2","1,0,0,0.25,0.5,0.25,0.25,0.25,0.5","1,0,0,0.25,0.5,0.25,0.25,0.25,0.5","1","",""
"","html-keyboard-response","254","142091","0.0-254.0","","","","","null","<img src=""img/land4.png"" style=""width:200px; border:14px solid green;"">","null","","","","","","","","","",""
"","image-keyboard-response","255","142350","0.0-255.0","","","","","256.60000000009313","img/land4.png","74","258.20000000018626","1","1","1","2","1,0,0,0.25,0.5,0.25,0.25,0.25,0.5","1,0,0,0.25,0.5,0.25,0.25,0.25,0.5","1","",""
"","html-keyboard-response","256","142652","0.0-256.0","","","","","null","<img src=""img/land4.png"" style=""width:200px; border:14px solid green;"">","null","","","","","","","","","",""
"","image-keyboard-response","257","143133","0.0-257.0","","","","","479.29999999981374","img/land6.png","75","480.90000000037253","2","0","3","2","1,0,0,0.25,0.5,0.25,0.25,0.25,0.5","1,0,0,0.25,0.5,0.25,0.25,0.25,0.5","1","",""
"","html-keyboard-response","258","143437","0.0-258.0","","","","","null","<img src=""img/land6.png"" style=""width:200px;border:14px solid red;"">","null","","","","","","","","","",""
"","image-keyboard-response","259","144219","0.0-259.0","","","","","779.6999999997206","img/land6.png","76","781.9000000003725","3","0","3","2","1,0,0,0.25,0.5,0.25,0.25,0.25,0.5","1,0,0,0.25,0.5,0.25,0.25,0.25,0.5","1","",""
"","html-keyboard-response","260","144522","0.0-260.0","","","","","null","<img src=""img/land6.png"" style=""width:200px;border:14px solid red;"">","null","","","","","","","","","",""
"","image-keyboard-response","261","145329","0.0-261.0","","","","","803.7000000001863","img/land4.png","74","805.7999999998137","1","1","1","2","1,0,0,0.25,0.5,0.25,0.25,0.25,0.5","1,0,0,0.25,0.5,0.25,0.25,0.25,0.5","1","",""
"","html-keyboard-response","262","145632","0.0-262.0","","","","","null","<img src=""img/land4.png"" style=""width:200px; border:14px solid green;"">","null","","","","","","","","","",""
"","image-keyboard-response","263","146237","0.0-263.0","","","","","603.5","img/land5.png","75","604.8999999999069","2","0","2","2","1,0,0,0.25,0.5,0.25,0.25,0.25,0.5","1,0,0,0.25,0.5,0.25,0.25,0.25,0.5","1","",""
"","html-keyboard-response","264","146555","0.0-264.0","","","","","null","<img src=""img/land5.png"" style=""width:200px;border:14px solid red;"">","null","","","","","","","","","",""
"","image-keyboard-response","265","147063","0.0-265.0","","","","","507.29999999981374","img/land6.png","74","508.60000000009313","1","1","3","2","1,0,0,0.25,0.5,0.25,0.25,0.25,0.5","1,0,0,0.25,0.5,0.25,0.25,0.25,0.5","1","",""
"","html-keyboard-response","266","147367","0.0-266.0","","","","","null","<img src=""img/land6.png"" style=""width:200px; border:14px solid green;"">","null","","","","","","","","","",""
"","image-keyboard-response","267","147814","0.0-267.0","","","","","445.89999999990687","img/land6.png","74","446.8000000002794","1","1","3","2","1,0,0,0.25,0.5,0.25,0.25,0.25,0.5","1,0,0,0.25,0.5,0.25,0.25,0.25,0.5","1","",""
"","html-keyboard-response","268","148117","0.0-268.0","","","","","null","<img src=""img/land6.png"" style=""width:200px; border:14px solid green;"">","null","","","","","","","","","",""
"","image-keyboard-response","269","149031","0.0-269.0","","","","","911.3999999999069","img/land4.png","74","913","1","1","1","2","1,0,0,0.25,0.5,0.25,0.25,0.25,0.5","1,0,0,0.25,0.5,0.25,0.25,0.25,0.5","1","",""
"","html-keyboard-response","270","149333","0.0-270.0","","","","","null","<img src=""img/land4.png"" style=""width:200px; border:14px solid green;"">","null","","","","","","","","","",""
"","image-keyboard-response","271","149939","0.0-271.0","","","","","604.2999999998137","img/land6.png","76","606","3","1","3","2","1,0,0,0.25,0.5,0.25,0.25,0.25,0.5","1,0,0,0.25,0.5,0.25,0.25,0.25,0.5","1","",""
"","html-keyboard-response","272","150244","0.0-272.0","","","","","null","<img src=""img/land6.png"" style=""width:200px; border:14px solid green;"">","null","","","","","","","","","",""
"","image-keyboard-response","273","151155","0.0-273.0","","","","","908.2000000001863","img/land4.png","74","910.5","1","1","1","2","1,0,0,0.25,0.5,0.25,0.25,0.25,0.5","1,0,0,0.25,0.5,0.25,0.25,0.25,0.5","1","",""
"","html-keyboard-response","274","151457","0.0-274.0","","","","","null","<img src=""img/land4.png"" style=""width:200px; border:14px solid green;"">","null","","","","","","","","","",""
"","image-keyboard-response","275","151897","0.0-275.0","","","","","437.29999999981374","img/land6.png","76","439.79999999981374","3","0","3","2","1,0,0,0.25,0.5,0.25,0.25,0.25,0.5","1,0,0,0.25,0.5,0.25,0.25,0.25,0.5","1","",""
"","html-keyboard-response","276","152201","0.0-276.0","","","","","null","<img src=""img/land6.png"" style=""width:200px;border:14px solid red;"">","null","","","","","","","","","",""
"","image-keyboard-response","277","152768","0.0-277.0","","","","","563.6999999997206","img/land4.png","74","565.5","1","1","1","2","1,0,0,0.25,0.5,0.25,0.25,0.25,0.5","1,0,0,0.25,0.5,0.25,0.25,0.25,0.5","1","",""
"","html-keyboard-response","278","153070","0.0-278.0","","","","","null","<img src=""img/land4.png"" style=""width:200px; border:14px solid green;"">","null","","","","","","","","","",""
"","image-keyboard-response","279","153426","0.0-279.0","","","","","355.10000000009313","img/land4.png","74","355.90000000037253","1","1","1","2","1,0,0,0.25,0.5,0.25,0.25,0.25,0.5","1,0,0,0.25,0.5,0.25,0.25,0.25,0.5","1","",""
"","html-keyboard-response","280","153729","0.0-280.0","","","","","null","<img src=""img/land4.png"" style=""width:200px; border:14px solid green;"">","null","","","","","","","","","",""
"","image-keyboard-response","281","154145","0.0-281.0","","","","","412.5","img/land6.png","74","414.70000000018626","1","0","3","2","1,0,0,0.25,0.5,0.25,0.25,0.25,0.5","1,0,0,0.25,0.5,0.25,0.25,0.25,0.5","1","",""
"","html-keyboard-response","282","154447","0.0-282.0","","","","","null","<img src=""img/land6.png"" style=""width:200px;border:14px solid red;"">","null","","","","","","","","","",""
"","image-keyboard-response","283","155313","0.0-283.0","","","","","861.6000000000931","img/land4.png","74","864.3999999999069","1","1","1","2","1,0,0,0.25,0.5,0.25,0.25,0.25,0.5","1,0,0,0.25,0.5,0.25,0.25,0.25,0.5","1","",""
"","html-keyboard-response","284","155620","0.0-284.0","","","","","null","<img src=""img/land4.png"" style=""width:200px; border:14px solid green;"">","null","","","","","","","","","",""
"","image-keyboard-response","285","155993","0.0-285.0","","","","","371.39999999990687","img/land4.png","74","372.70000000018626","1","1","1","2","1,0,0,0.25,0.5,0.25,0.25,0.25,0.5","1,0,0,0.25,0.5,0.25,0.25,0.25,0.5","1","",""
"","html-keyboard-response","286","156297","0.0-286.0","","","","","null","<img src=""img/land4.png"" style=""width:200px; border:14px solid green;"">","null","","","","","","","","","",""
"","image-keyboard-response","287","156565","0.0-287.0","","","","","267","img/land4.png","74","268.10000000009313","1","1","1","2","1,0,0,0.25,0.5,0.25,0.25,0.25,0.5","1,0,0,0.25,0.5,0.25,0.25,0.25,0.5","1","",""
"","html-keyboard-response","288","156868","0.0-288.0","","","","","null","<img src=""img/land4.png"" style=""width:200px; border:14px solid green;"">","null","","","","","","","","","",""
"","image-keyboard-response","289","157133","0.0-289.0","","","","","262.5","img/land4.png","74","264.79999999981374","1","1","1","2","1,0,0,0.25,0.5,0.25,0.25,0.25,0.5","1,0,0,0.25,0.5,0.25,0.25,0.25,0.5","1","",""
"","html-keyboard-response","290","157437","0.0-290.0","","","","","null","<img src=""img/land4.png"" style=""width:200px; border:14px solid green;"">","null","","","","","","","","","",""
"","image-keyboard-response","291","157731","0.0-291.0","","","","","291.20000000018626","img/land4.png","74","293.89999999990687","1","1","1","2","1,0,0,0.25,0.5,0.25,0.25,0.25,0.5","1,0,0,0.25,0.5,0.25,0.25,0.25,0.5","1","",""
"","html-keyboard-response","292","158033","0.0-292.0","","","","","null","<img src=""img/land4.png"" style=""width:200px; border:14px solid green;"">","null","","","","","","","","","",""
"","image-keyboard-response","293","158306","0.0-293.0","","","","","271.59999999962747","img/land4.png","74","272.39999999990687","1","1","1","2","1,0,0,0.25,0.5,0.25,0.25,0.25,0.5","1,0,0,0.25,0.5,0.25,0.25,0.25,0.5","1","",""
"","html-keyboard-response","294","158624","0.0-294.0","","","","","null","<img src=""img/land4.png"" style=""width:200px; border:14px solid green;"">","null","","","","","","","","","",""
"","image-keyboard-response","295","159055","0.0-295.0","","","","","426.89999999990687","img/land5.png","75","430.60000000009313","2","0","2","2","1,0,0,0.25,0.5,0.25,0.25,0.25,0.5","1,0,0,0.25,0.5,0.25,0.25,0.25,0.5","1","",""
"","html-keyboard-response","296","159357","0.0-296.0","","","","","null","<img src=""img/land5.png"" style=""width:200px;border:14px solid red;"">","null","","","","","","","","","",""
"","image-keyboard-response","297","159951","0.0-297.0","","","","","592","img/land5.png","75","593","2","1","2","2","1,0,0,0.25,0.5,0.25,0.25,0.25,0.5","1,0,0,0.25,0.5,0.25,0.25,0.25,0.5","1","",""
"","html-keyboard-response","298","160253","0.0-298.0","","","","","null","<img src=""img/land5.png"" style=""width:200px; border:14px solid green;"">","null","","","","","","","","","",""
"","image-keyboard-response","299","161056","0.0-299.0","","","","","800","img/land4.png","74","802.5","1","1","1","2","1,0,0,0.25,0.5,0.25,0.25,0.25,0.5","1,0,0,0.25,0.5,0.25,0.25,0.25,0.5","1","",""
"","html-keyboard-response","300","161367","0.0-300.0","","","","","null","<img src=""img/land4.png"" style=""width:200px; border:14px solid green;"">","null","","","","","","","","","",""
"","image-keyboard-response","301","161714","0.0-301.0","","","","","345.70000000018626","img/land4.png","74","346.29999999981374","1","1","1","2","1,0,0,0.25,0.5,0.25,0.25,0.25,0.5","1,0,0,0.25,0.5,0.25,0.25,0.25,0.5","1","",""
"","html-keyboard-response","302","162016","0.0-302.0","","","","","null","<img src=""img/land4.png"" style=""width:200px; border:14px solid green;"">","null","","","","","","","","","",""
"","image-keyboard-response","303","162221","0.0-303.0","","","","","201.89999999990687","img/land4.png","74","204.10000000009313","1","1","1","2","1,0,0,0.25,0.5,0.25,0.25,0.25,0.5","1,0,0,0.25,0.5,0.25,0.25,0.25,0.5","1","",""
"","html-keyboard-response","304","162525","0.0-304.0","","","","","null","<img src=""img/land4.png"" style=""width:200px; border:14px solid green;"">","null","","","","","","","","","",""
"","image-keyboard-response","305","163213","0.0-305.0","","","","","685.3999999999069","img/land5.png","75","688","2","1","2","2","1,0,0,0.25,0.5,0.25,0.25,0.25,0.5","1,0,0,0.25,0.5,0.25,0.25,0.25,0.5","1","",""
"","html-keyboard-response","306","163524","0.0-306.0","","","","","null","<img src=""img/land5.png"" style=""width:200px; border:14px solid green;"">","null","","","","","","","","","",""
"","image-keyboard-response","307","164198","0.0-307.0","","","","","673","img/land4.png","74","674.2999999998137","1","1","1","2","1,0,0,0.25,0.5,0.25,0.25,0.25,0.5","1,0,0,0.25,0.5,0.25,0.25,0.25,0.5","1","",""
"","html-keyboard-response","308","164502","0.0-308.0","","","","","null","<img src=""img/land4.png"" style=""width:200px; border:14px solid green;"">","null","","","","","","","","","",""
"","image-keyboard-response","309","165065","0.0-309.0","","","","","560.1999999997206","img/land6.png","76","562.7000000001863","3","1","3","2","1,0,0,0.25,0.5,0.25,0.25,0.25,0.5","1,0,0,0.25,0.5,0.25,0.25,0.25,0.5","1","",""
"","html-keyboard-response","310","165369","0.0-310.0","","","","","null","<img src=""img/land6.png"" style=""width:200px; border:14px solid green;"">","null","","","","","","","","","",""
"","image-keyboard-response","311","165892","0.0-311.0","","","","","520.5","img/land6.png","76","522.7000000001863","3","0","3","2","1,0,0,0.25,0.5,0.25,0.25,0.25,0.5","1,0,0,0.25,0.5,0.25,0.25,0.25,0.5","1","",""
"","html-keyboard-response","312","166195","0.0-312.0","","","","","null","<img src=""img/land6.png"" style=""width:200px;border:14px solid red;"">","null","","","","","","","","","",""
"","image-keyboard-response","313","166867","0.0-313.0","","","","","668.6000000000931","img/land5.png","75","671.1000000000931","2","0","2","2","1,0,0,0.25,0.5,0.25,0.25,0.25,0.5","1,0,0,0.25,0.5,0.25,0.25,0.25,0.5","1","",""
"","html-keyboard-response","314","167170","0.0-314.0","","","","","null","<img src=""img/land5.png"" style=""width:200px;border:14px solid red;"">","null","","","","","","","","","",""
"","image-keyboard-response","315","167758","0.0-315.0","","","","","587","img/land4.png","74","588.1000000000931","1","1","1","2","1,0,0,0.25,0.5,0.25,0.25,0.25,0.5","1,0,0,0.25,0.5,0.25,0.25,0.25,0.5","1","",""
"","html-keyboard-response","316","168062","0.0-316.0","","","","","null","<img src=""img/land4.png"" style=""width:200px; border:14px solid green;"">","null","","","","","","","","","",""
"","image-keyboard-response","317","168456","0.0-317.0","","","","","391.60000000009313","img/land4.png","74","393.39999999990687","1","1","1","2","1,0,0,0.25,0.5,0.25,0.25,0.25,0.5","1,0,0,0.25,0.5,0.25,0.25,0.25,0.5","1","",""
"","html-keyboard-response","318","168760","0.0-318.0","","","","","null","<img src=""img/land4.png"" style=""width:200px; border:14px solid green;"">","null","","","","","","","","","",""
"","image-keyboard-response","319","169052","0.0-319.0","","","","","290.29999999981374","img/land4.png","74","292.09999999962747","1","1","1","2","1,0,0,0.25,0.5,0.25,0.25,0.25,0.5","1,0,0,0.25,0.5,0.25,0.25,0.25,0.5","1","",""
"","html-keyboard-response","320","169357","0.0-320.0","","","","","null","<img src=""img/land4.png"" style=""width:200px; border:14px solid green;"">","null","","","","","","","","","",""
"","image-keyboard-response","321","169837","0.0-321.0","","","","","478.6999999997206","img/land5.png","75","480","2","0","2","2","1,0,0,0.25,0.5,0.25,0.25,0.25,0.5","1,0,0,0.25,0.5,0.25,0.25,0.25,0.5","1","",""
"","html-keyboard-response","322","170140","0.0-322.0","","","","","null","<img src=""img/land5.png"" style=""width:200px;border:14px solid red;"">","null","","","","","","","","","",""
"","image-keyboard-response","323","170661","0.0-323.0","","","","","519.5999999996275","img/land4.png","74","521","1","1","1","2","1,0,0,0.25,0.5,0.25,0.25,0.25,0.5","1,0,0,0.25,0.5,0.25,0.25,0.25,0.5","1","",""
"","html-keyboard-response","324","170964","0.0-324.0","","","","","null","<img src=""img/land4.png"" style=""width:200px; border:14px solid green;"">","null","","","","","","","","","",""
"","image-keyboard-response","325","171425","0.0-325.0","","","","","459.1999999997206","img/land5.png","75","461.3000000002794","2","0","2","2","1,0,0,0.25,0.5,0.25,0.25,0.25,0.5","1,0,0,0.25,0.5,0.25,0.25,0.25,0.5","1","",""
"","html-keyboard-response","326","171740","0.0-326.0","","","","","null","<img src=""img/land5.png"" style=""width:200px;border:14px solid red;"">","null","","","","","","","","","",""
"","image-keyboard-response","327","172223","0.0-327.0","","","","","480.10000000009313","img/land4.png","74","483","1","1","1","2","1,0,0,0.25,0.5,0.25,0.25,0.25,0.5","1,0,0,0.25,0.5,0.25,0.25,0.25,0.5","1","",""
"","html-keyboard-response","328","172527","0.0-328.0","","","","","null","<img src=""img/land4.png"" style=""width:200px; border:14px solid green;"">","null","","","","","","","","","",""
"","image-keyboard-response","329","172961","0.0-329.0","","","","","430.70000000018626","img/land5.png","75","433.39999999990687","2","0","2","2","1,0,0,0.25,0.5,0.25,0.25,0.25,0.5","1,0,0,0.25,0.5,0.25,0.25,0.25,0.5","1","",""
"","html-keyboard-response","330","173265","0.0-330.0","","","","","null","<img src=""img/land5.png"" style=""width:200px;border:14px solid red;"">","null","","","","","","","","","",""
"","image-keyboard-response","331","173569","0.0-331.0","","","","","300.39999999990687","img/land5.png","74","303.1999999997206","1","0","2","2","1,0,0,0.25,0.5,0.25,0.25,0.25,0.5","1,0,0,0.25,0.5,0.25,0.25,0.25,0.5","1","",""
"","html-keyboard-response","332","173872","0.0-332.0","","","","","null","<img src=""img/land5.png"" style=""width:200px;border:14px solid red;"">","null","","","","","","","","","",""
"","image-keyboard-response","333","174382","0.0-333.0","","","","","507.59999999962747","img/land5.png","75","510.10000000009313","2","1","2","2","1,0,0,0.25,0.5,0.25,0.25,0.25,0.5","1,0,0,0.25,0.5,0.25,0.25,0.25,0.5","1","",""
"","html-keyboard-response","334","174686","0.0-334.0","","","","","null","<img src=""img/land5.png"" style=""width:200px; border:14px solid green;"">","null","","","","","","","","","",""
"","image-keyboard-response","335","175333","0.0-335.0","","","","","643.9000000003725","img/land4.png","74","646.8999999999069","1","1","1","2","1,0,0,0.25,0.5,0.25,0.25,0.25,0.5","1,0,0,0.25,0.5,0.25,0.25,0.25,0.5","1","",""
"","html-keyboard-response","336","175638","0.0-336.0","","","","","null","<img src=""img/land4.png"" style=""width:200px; border:14px solid green;"">","null","","","","","","","","","",""
"","image-keyboard-response","337","175986","0.0-337.0","","","","","345.79999999981374","img/land4.png","74","347.70000000018626","1","1","1","2","1,0,0,0.25,0.5,0.25,0.25,0.25,0.5","1,0,0,0.25,0.5,0.25,0.25,0.25,0.5","1","",""
"","html-keyboard-response","338","176289","0.0-338.0","","","","","null","<img src=""img/land4.png"" style=""width:200px; border:14px solid green;"">","null","","","","","","","","","",""
"","image-keyboard-response","339","176714","0.0-339.0","","","","","424.10000000009313","img/land6.png","75","425.10000000009313","2","1","3","2","1,0,0,0.25,0.5,0.25,0.25,0.25,0.5","1,0,0,0.25,0.5,0.25,0.25,0.25,0.5","1","",""
"","html-keyboard-response","340","177016","0.0-340.0","","","","","null","<img src=""img/land6.png"" style=""width:200px; border:14px solid green;"">","null","","","","","","","","","",""
"","image-keyboard-response","341","177447","0.0-341.0","","","","","430","img/land5.png","74","431.5","1","0","2","2","1,0,0,0.25,0.5,0.25,0.25,0.25,0.5","1,0,0,0.25,0.5,0.25,0.25,0.25,0.5","1","",""
"","html-keyboard-response","342","177750","0.0-342.0","","","","","null","<img src=""img/land5.png"" style=""width:200px;border:14px solid red;"">","null","","","","","","","","","",""
"","image-keyboard-response","343","178909","0.0-343.0","","","","","1156.5","img/land4.png","74","1158.3000000002794","1","1","1","2","1,0,0,0.25,0.5,0.25,0.25,0.25,0.5","1,0,0,0.25,0.5,0.25,0.25,0.25,0.5","1","",""
"","html-keyboard-response","344","179212","0.0-344.0","","","","","null","<img src=""img/land4.png"" style=""width:200px; border:14px solid green;"">","null","","","","","","","","","",""
"","image-keyboard-response","345","179525","0.0-345.0","","","","","310.3000000002794","img/land4.png","74","312.89999999990687","1","1","1","2","1,0,0,0.25,0.5,0.25,0.25,0.25,0.5","1,0,0,0.25,0.5,0.25,0.25,0.25,0.5","1","",""
"","html-keyboard-response","346","179830","0.0-346.0","","","","","null","<img src=""img/land4.png"" style=""width:200px; border:14px solid green;"">","null","","","","","","","","","",""
"","image-keyboard-response","347","180299","0.0-347.0","","","","","466.39999999990687","img/land5.png","75","468.5","2","0","2","2","1,0,0,0.25,0.5,0.25,0.25,0.25,0.5","1,0,0,0.25,0.5,0.25,0.25,0.25,0.5","1","",""
"","html-keyboard-response","348","180602","0.0-348.0","","","","","null","<img src=""img/land5.png"" style=""width:200px;border:14px solid red;"">","null","","","","","","","","","",""
"","image-keyboard-response","349","181090","0.0-349.0","","","","","485.1999999997206","img/land6.png","76","487.79999999981374","3","1","3","2","1,0,0,0.25,0.5,0.25,0.25,0.25,0.5","1,0,0,0.25,0.5,0.25,0.25,0.25,0.5","1","",""
"","html-keyboard-response","350","181394","0.0-350.0","","","","","null","<img src=""img/land6.png"" style=""width:200px; border:14px solid green;"">","null","","","","","","","","","",""
"","image-keyboard-response","351","182083","0.0-351.0","","","","","687.3999999999069","img/land5.png","75","688.8999999999069","2","0","2","2","1,0,0,0.25,0.5,0.25,0.25,0.25,0.5","1,0,0,0.25,0.5,0.25,0.25,0.25,0.5","1","",""
"","html-keyboard-response","352","182397","0.0-352.0","","","","","null","<img src=""img/land5.png"" style=""width:200px;border:14px solid red;"">","null","","","","","","","","","",""
"","image-keyboard-response","353","182768","0.0-353.0","","","","","368.20000000018626","img/land4.png","74","369.79999999981374","1","1","1","2","1,0,0,0.25,0.5,0.25,0.25,0.25,0.5","1,0,0,0.25,0.5,0.25,0.25,0.25,0.5","1","",""
"","html-keyboard-response","354","183070","0.0-354.0","","","","","null","<img src=""img/land4.png"" style=""width:200px; border:14px solid green;"">","null","","","","","","","","","",""
"","image-keyboard-response","355","183505","0.0-355.0","","","","","432.90000000037253","img/land6.png","74","434.89999999990687","1","0","3","2","1,0,0,0.25,0.5,0.25,0.25,0.25,0.5","1,0,0,0.25,0.5,0.25,0.25,0.25,0.5","1","",""
"","html-keyboard-response","356","183809","0.0-356.0","","","","","null","<img src=""img/land6.png"" style=""width:200px;border:14px solid red;"">","null","","","","","","","","","",""
"","image-keyboard-response","357","184467","0.0-357.0","","","","","654.9000000003725","img/land4.png","74","657.1999999997206","1","1","1","2","1,0,0,0.25,0.5,0.25,0.25,0.25,0.5","1,0,0,0.25,0.5,0.25,0.25,0.25,0.5","1","",""
"","html-keyboard-response","358","184770","0.0-358.0","","","","","null","<img src=""img/land4.png"" style=""width:200px; border:14px solid green;"">","null","","","","","","","","","",""
"","image-keyboard-response","359","185397","0.0-359.0","","","","","625.5","img/land5.png","75","627.0999999996275","2","0","2","2","1,0,0,0.25,0.5,0.25,0.25,0.25,0.5","1,0,0,0.25,0.5,0.25,0.25,0.25,0.5","1","",""
"","html-keyboard-response","360","185699","0.0-360.0","","","","","null","<img src=""img/land5.png"" style=""width:200px;border:14px solid red;"">","null","","","","","","","","","",""
"","image-keyboard-response","361","186743","0.0-361.0","","","","","1042.6000000000931","img/land4.png","74","1044","1","1","1","2","1,0,0,0.25,0.5,0.25,0.25,0.25,0.5","1,0,0,0.25,0.5,0.25,0.25,0.25,0.5","1","",""
"","html-keyboard-response","362","187047","0.0-362.0","","","","","null","<img src=""img/land4.png"" style=""width:200px; border:14px solid green;"">","null","","","","","","","","","",""
"","image-keyboard-response","363","187443","0.0-363.0","","","","","392.70000000018626","img/land4.png","74","395.6999999997206","1","1","1","2","1,0,0,0.25,0.5,0.25,0.25,0.25,0.5","1,0,0,0.25,0.5,0.25,0.25,0.25,0.5","1","",""
"","html-keyboard-response","364","187748","0.0-364.0","","","","","null","<img src=""img/land4.png"" style=""width:200px; border:14px solid green;"">","null","","","","","","","","","",""
"","image-keyboard-response","365","188245","0.0-365.0","","","","","494.39999999990687","img/land5.png","76","496.5","3","0","2","2","1,0,0,0.25,0.5,0.25,0.25,0.25,0.5","1,0,0,0.25,0.5,0.25,0.25,0.25,0.5","1","",""
"","html-keyboard-response","366","188548","0.0-366.0","","","","","null","<img src=""img/land5.png"" style=""width:200px;border:14px solid red;"">","null","","","","","","","","","",""
"","image-keyboard-response","367","189094","0.0-367.0","","","","","543.3000000002794","img/land4.png","74","545.6000000000931","1","1","1","2","1,0,0,0.25,0.5,0.25,0.25,0.25,0.5","1,0,0,0.25,0.5,0.25,0.25,0.25,0.5","1","",""
"","html-keyboard-response","368","189398","0.0-368.0","","","","","null","<img src=""img/land4.png"" style=""width:200px; border:14px solid green;"">","null","","","","","","","","","",""
"","image-keyboard-response","369","189675","0.0-369.0","","","","","273.29999999981374","img/land4.png","74","275.79999999981374","1","1","1","2","1,0,0,0.25,0.5,0.25,0.25,0.25,0.5","1,0,0,0.25,0.5,0.25,0.25,0.25,0.5","1","",""
"","html-keyboard-response","370","189979","0.0-370.0","","","","","null","<img src=""img/land4.png"" style=""width:200px; border:14px solid green;"">","null","","","","","","","","","",""
"","image-keyboard-response","371","190248","0.0-371.0","","","","","266","img/land4.png","74","268.40000000037253","1","1","1","2","1,0,0,0.25,0.5,0.25,0.25,0.25,0.5","1,0,0,0.25,0.5,0.25,0.25,0.25,0.5","1","",""
"","html-keyboard-response","372","190553","0.0-372.0","","","","","null","<img src=""img/land4.png"" style=""width:200px; border:14px solid green;"">","null","","","","","","","","","",""
"","image-keyboard-response","373","190811","0.0-373.0","","","","","256.6999999997206","img/land4.png","74","258","1","1","1","2","1,0,0,0.25,0.5,0.25,0.25,0.25,0.5","1,0,0,0.25,0.5,0.25,0.25,0.25,0.5","1","",""
"","html-keyboard-response","374","191115","0.0-374.0","","","","","null","<img src=""img/land4.png"" style=""width:200px; border:14px solid green;"">","null","","","","","","","","","",""
"","image-keyboard-response","375","191379","0.0-375.0","","","","","262.5","img/land4.png","74","264","1","1","1","2","1,0,0,0.25,0.5,0.25,0.25,0.25,0.5","1,0,0,0.25,0.5,0.25,0.25,0.25,0.5","1","",""
"","html-keyboard-response","376","191683","0.0-376.0","","","","","null","<img src=""img/land4.png"" style=""width:200px; border:14px solid green;"">","null","","","","","","","","","",""
"","image-keyboard-response","377","191972","0.0-377.0","","","","","287.6999999997206","img/land4.png","74","289.5","1","1","1","2","1,0,0,0.25,0.5,0.25,0.25,0.25,0.5","1,0,0,0.25,0.5,0.25,0.25,0.25,0.5","1","",""
"","html-keyboard-response","378","192275","0.0-378.0","","","","","null","<img src=""img/land4.png"" style=""width:200px; border:14px solid green;"">","null","","","","","","","","","",""
"","image-keyboard-response","379","192542","0.0-379.0","","","","","263","img/land4.png","74","266.10000000009313","1","1","1","2","1,0,0,0.25,0.5,0.25,0.25,0.25,0.5","1,0,0,0.25,0.5,0.25,0.25,0.25,0.5","1","",""
"","html-keyboard-response","380","192846","0.0-380.0","","","","","null","<img src=""img/land4.png"" style=""width:200px; border:14px solid green;"">","null","","","","","","","","","",""
"","image-keyboard-response","381","193262","0.0-381.0","","","","","413.79999999981374","img/land6.png","75","415.89999999990687","2","0","3","2","1,0,0,0.25,0.5,0.25,0.25,0.25,0.5","1,0,0,0.25,0.5,0.25,0.25,0.25,0.5","1","",""
"","html-keyboard-response","382","193578","0.0-382.0","","","","","null","<img src=""img/land6.png"" style=""width:200px;border:14px solid red;"">","null","","","","","","","","","",""
"","image-keyboard-response","383","193817","0.0-383.0","","","","","238.10000000009313","img/land5.png","74","238.8000000002794","1","0","2","2","1,0,0,0.25,0.5,0.25,0.25,0.25,0.5","1,0,0,0.25,0.5,0.25,0.25,0.25,0.5","1","",""
"","html-keyboard-response","384","194120","0.0-384.0","","","","","null","<img src=""img/land5.png"" style=""width:200px;border:14px solid red;"">","null","","","","","","","","","",""
"","image-keyboard-response","385","194794","0.0-385.0","","","","","671.2999999998137","img/land4.png","74","673.1999999997206","1","1","1","2","1,0,0,0.25,0.5,0.25,0.25,0.25,0.5","1,0,0,0.25,0.5,0.25,0.25,0.25,0.5","1","",""
"","html-keyboard-response","386","195097","0.0-386.0","","","","","null","<img src=""img/land4.png"" style=""width:200px; border:14px solid green;"">","null","","","","","","","","","",""
"","image-keyboard-response","387","195430","0.0-387.0","","","","","331.89999999990687","img/land4.png","74","332.8000000002794","1","1","1","2","1,0,0,0.25,0.5,0.25,0.25,0.25,0.5","1,0,0,0.25,0.5,0.25,0.25,0.25,0.5","1","",""
"","html-keyboard-response","388","195733","0.0-388.0","","","","","null","<img src=""img/land4.png"" style=""width:200px; border:14px solid green;"">","null","","","","","","","","","",""
"","image-keyboard-response","389","196023","0.0-389.0","","","","","286.79999999981374","img/land4.png","74","289.29999999981374","1","1","1","2","1,0,0,0.25,0.5,0.25,0.25,0.25,0.5","1,0,0,0.25,0.5,0.25,0.25,0.25,0.5","1","",""
"","html-keyboard-response","390","196326","0.0-390.0","","","","","null","<img src=""img/land4.png"" style=""width:200px; border:14px solid green;"">","null","","","","","","","","","",""
"","image-keyboard-response","391","196574","0.0-391.0","","","","","245.29999999981374","img/land4.png","74","247","1","1","1","2","1,0,0,0.25,0.5,0.25,0.25,0.25,0.5","1,0,0,0.25,0.5,0.25,0.25,0.25,0.5","1","",""
"","html-keyboard-response","392","196876","0.0-392.0","","","","","null","<img src=""img/land4.png"" style=""width:200px; border:14px solid green;"">","null","","","","","","","","","",""
"","image-keyboard-response","393","197071","0.0-393.0","","","","","193.89999999990687","img/land4.png","74","195.5","1","1","1","2","1,0,0,0.25,0.5,0.25,0.25,0.25,0.5","1,0,0,0.25,0.5,0.25,0.25,0.25,0.5","1","",""
"","html-keyboard-response","394","197375","0.0-394.0","","","","","null","<img src=""img/land4.png"" style=""width:200px; border:14px solid green;"">","null","","","","","","","","","",""
"","image-keyboard-response","395","197610","0.0-395.0","","","","","233.39999999990687","img/land4.png","74","234.10000000009313","1","1","1","2","1,0,0,0.25,0.5,0.25,0.25,0.25,0.5","1,0,0,0.25,0.5,0.25,0.25,0.25,0.5","1","",""
"","html-keyboard-response","396","197912","0.0-396.0","","","","","null","<img src=""img/land4.png"" style=""width:200px; border:14px solid green;"">","null","","","","","","","","","",""
"","image-keyboard-response","397","198534","0.0-397.0","","","","","619.5","img/land5.png","75","621.5","2","0","2","2","1,0,0,0.25,0.5,0.25,0.25,0.25,0.5","1,0,0,0.25,0.5,0.25,0.25,0.25,0.5","1","",""
"","html-keyboard-response","398","198848","0.0-398.0","","","","","null","<img src=""img/land5.png"" style=""width:200px;border:14px solid red;"">","null","","","","","","","","","",""
"","image-keyboard-response","399","199390","0.0-399.0","","","","","539.5","img/land4.png","74","541.6000000000931","1","1","1","2","1,0,0,0.25,0.5,0.25,0.25,0.25,0.5","1,0,0,0.25,0.5,0.25,0.25,0.25,0.5","1","",""
"","html-keyboard-response","400","199692","0.0-400.0","","","","","null","<img src=""img/land4.png"" style=""width:200px; border:14px solid green;"">","null","","","","","","","","","",""
"","image-keyboard-response","401","200019","0.0-401.0","","","","","324.89999999990687","img/land4.png","74","326.5","1","1","1","2","1,0,0,0.25,0.5,0.25,0.25,0.25,0.5","1,0,0,0.25,0.5,0.25,0.25,0.25,0.5","1","",""
"","html-keyboard-response","402","200323","0.0-402.0","","","","","null","<img src=""img/land4.png"" style=""width:200px; border:14px solid green;"">","null","","","","","","","","","",""
"","image-keyboard-response","403","200562","0.0-403.0","","","","","238","img/land4.png","74","239.20000000018626","1","1","1","2","1,0,0,0.25,0.5,0.25,0.25,0.25,0.5","1,0,0,0.25,0.5,0.25,0.25,0.25,0.5","1","",""
"","html-keyboard-response","404","200866","0.0-404.0","","","","","null","<img src=""img/land4.png"" style=""width:200px; border:14px solid green;"">","null","","","","","","","","","",""
"","image-keyboard-response","405","201134","0.0-405.0","","","","","264.89999999990687","img/land6.png","74","267.6999999997206","1","1","3","2","1,0,0,0.25,0.5,0.25,0.25,0.25,0.5","1,0,0,0.25,0.5,0.25,0.25,0.25,0.5","1","",""
"","html-keyboard-response","406","201437","0.0-406.0","","","","","null","<img src=""img/land6.png"" style=""width:200px; border:14px solid green;"">","null","","","","","","","","","",""
"","image-keyboard-response","407","202124","0.0-407.0","","","","","683.3000000002794","img/land4.png","74","686.6000000000931","1","1","1","2","1,0,0,0.25,0.5,0.25,0.25,0.25,0.5","1,0,0,0.25,0.5,0.25,0.25,0.25,0.5","1","",""
"","html-keyboard-response","408","202428","0.0-408.0","","","","","null","<img src=""img/land4.png"" style=""width:200px; border:14px solid green;"">","null","","","","","","","","","",""
"","image-keyboard-response","409","202645","0.0-409.0","","","","","214.60000000009313","img/land5.png","74","217.1999999997206","1","0","2","2","1,0,0,0.25,0.5,0.25,0.25,0.25,0.5","1,0,0,0.25,0.5,0.25,0.25,0.25,0.5","1","",""
"","html-keyboard-response","410","202948","0.0-410.0","","","","","null","<img src=""img/land5.png"" style=""width:200px;border:14px solid red;"">","null","","","","","","","","","",""
"","image-keyboard-response","411","203400","0.0-411.0","","","","","448.5","img/land4.png","74","451.1999999997206","1","1","1","2","1,0,0,0.25,0.5,0.25,0.25,0.25,0.5","1,0,0,0.25,0.5,0.25,0.25,0.25,0.5","1","",""
"","html-keyboard-response","412","203705","0.0-412.0","","","","","null","<img src=""img/land4.png"" style=""width:200px; border:14px solid green;"">","null","","","","","","","","","",""
"","image-keyboard-response","413","204100","0.0-413.0","","","","","392","img/land4.png","74","394.09999999962747","1","1","1","2","1,0,0,0.25,0.5,0.25,0.25,0.25,0.5","1,0,0,0.25,0.5,0.25,0.25,0.25,0.5","1","",""
"","html-keyboard-response","414","204402","0.0-414.0","","","","","null","<img src=""img/land4.png"" style=""width:200px; border:14px solid green;"">","null","","","","","","","","","",""
"","image-keyboard-response","415","204676","0.0-415.0","","","","","272","img/land4.png","74","273.6999999997206","1","1","1","2","1,0,0,0.25,0.5,0.25,0.25,0.25,0.5","1,0,0,0.25,0.5,0.25,0.25,0.25,0.5","1","",""
"","html-keyboard-response","416","204978","0.0-416.0","","","","","null","<img src=""img/land4.png"" style=""width:200px; border:14px solid green;"">","null","","","","","","","","","",""
"","image-keyboard-response","417","205571","0.0-417.0","","","","","589.1999999997206","img/land5.png","75","591.9000000003725","2","0","2","2","1,0,0,0.25,0.5,0.25,0.25,0.25,0.5","1,0,0,0.25,0.5,0.25,0.25,0.25,0.5","1","",""
"","html-keyboard-response","418","205876","0.0-418.0","","","","","null","<img src=""img/land5.png"" style=""width:200px;border:14px solid red;"">","null","","","","","","","","","",""
"","image-keyboard-response","419","206264","0.0-419.0","","","","","385.5","img/land4.png","74","387.20000000018626","1","1","1","2","1,0,0,0.25,0.5,0.25,0.25,0.25,0.5","1,0,0,0.25,0.5,0.25,0.25,0.25,0.5","1","",""
"","html-keyboard-response","420","206567","0.0-420.0","","","","","null","<img src=""img/land4.png"" style=""width:200px; border:14px solid green;"">","null","","","","","","","","","",""
"","image-keyboard-response","421","206861","0.0-421.0","","","","","291.79999999981374","img/land4.png","74","293.60000000009313","1","1","1","2","1,0,0,0.25,0.5,0.25,0.25,0.25,0.5","1,0,0,0.25,0.5,0.25,0.25,0.25,0.5","1","",""
"","html-keyboard-response","422","207165","0.0-422.0","","","","","null","<img src=""img/land4.png"" style=""width:200px; border:14px solid green;"">","null","","","","","","","","","",""
"","image-keyboard-response","423","207673","0.0-423.0","","","","","505.29999999981374","img/land5.png","75","507.39999999990687","2","0","2","2","1,0,0,0.25,0.5,0.25,0.25,0.25,0.5","1,0,0,0.25,0.5,0.25,0.25,0.25,0.5","1","",""
"","html-keyboard-response","424","207975","0.0-424.0","","","","","null","<img src=""img/land5.png"" style=""width:200px;border:14px solid red;"">","null","","","","","","","","","",""
"","image-keyboard-response","425","208550","0.0-425.0","","","","","571.8999999999069","img/land5.png","75","574.7000000001863","2","1","2","2","1,0,0,0.25,0.5,0.25,0.25,0.25,0.5","1,0,0,0.25,0.5,0.25,0.25,0.25,0.5","1","",""
"","html-keyboard-response","426","208854","0.0-426.0","","","","","null","<img src=""img/land5.png"" style=""width:200px; border:14px solid green;"">","null","","","","","","","","","",""
"","image-keyboard-response","427","209399","0.0-427.0","","","","","542.7999999998137","img/land5.png","75","544.7000000001863","2","0","2","2","1,0,0,0.25,0.5,0.25,0.25,0.25,0.5","1,0,0,0.25,0.5,0.25,0.25,0.25,0.5","1","",""
"","html-keyboard-response","428","209703","0.0-428.0","","","","","null","<img src=""img/land5.png"" style=""width:200px;border:14px solid red;"">","null","","","","","","","","","",""
"","image-keyboard-response","429","209969","0.0-429.0","","","","","265","img/land6.png","75","267","2","0","3","2","1,0,0,0.25,0.5,0.25,0.25,0.25,0.5","1,0,0,0.25,0.5,0.25,0.25,0.25,0.5","1","",""
"","html-keyboard-response","430","210276","0.0-430.0","","","","","null","<img src=""img/land6.png"" style=""width:200px;border:14px solid red;"">","null","","","","","","","","","",""
"","image-keyboard-response","431","210648","0.0-431.0","","","","","369.8000000002794","img/land6.png","74","371.39999999990687","1","1","3","2","1,0,0,0.25,0.5,0.25,0.25,0.25,0.5","1,0,0,0.25,0.5,0.25,0.25,0.25,0.5","1","",""
"","html-keyboard-response","432","210951","0.0-432.0","","","","","null","<img src=""img/land6.png"" style=""width:200px; border:14px solid green;"">","null","","","","","","","","","",""
"","image-keyboard-response","433","212168","0.0-433.0","","","","","1215.1999999997206","img/land6.png","76","1216.7999999998137","3","1","3","2","1,0,0,0.25,0.5,0.25,0.25,0.25,0.5","1,0,0,0.25,0.5,0.25,0.25,0.25,0.5","1","",""
"","html-keyboard-response","434","212471","0.0-434.0","","","","","null","<img src=""img/land6.png"" style=""width:200px; border:14px solid green;"">","null","","","","","","","","","",""
"","image-keyboard-response","435","213029","0.0-435.0","","","","","554.6999999997206","img/land4.png","74","556.8000000002794","1","1","1","2","1,0,0,0.25,0.5,0.25,0.25,0.25,0.5","1,0,0,0.25,0.5,0.25,0.25,0.25,0.5","1","",""
"","html-keyboard-response","436","213341","0.0-436.0","","","","","null","<img src=""img/land4.png"" style=""width:200px; border:14px solid green;"">","null","","","","","","","","","",""
"","image-keyboard-response","437","213724","0.0-437.0","","","","","382.20000000018626","img/land4.png","74","383.29999999981374","1","1","1","2","1,0,0,0.25,0.5,0.25,0.25,0.25,0.5","1,0,0,0.25,0.5,0.25,0.25,0.25,0.5","1","",""
"","html-keyboard-response","438","214026","0.0-438.0","","","","","null","<img src=""img/land4.png"" style=""width:200px; border:14px solid green;"">","null","","","","","","","","","",""
"","image-keyboard-response","439","214297","0.0-439.0","","","","","268.60000000009313","img/land4.png","74","270.60000000009313","1","1","1","2","1,0,0,0.25,0.5,0.25,0.25,0.25,0.5","1,0,0,0.25,0.5,0.25,0.25,0.25,0.5","1","",""
"","html-keyboard-response","440","214598","0.0-440.0","","","","","null","<img src=""img/land4.png"" style=""width:200px; border:14px solid green;"">","null","","","","","","","","","",""
"","image-keyboard-response","441","214892","0.0-441.0","","","","","290.79999999981374","img/land4.png","74","292.79999999981374","1","1","1","2","1,0,0,0.25,0.5,0.25,0.25,0.25,0.5","1,0,0,0.25,0.5,0.25,0.25,0.25,0.5","1","",""
"","html-keyboard-response","442","215194","0.0-442.0","","","","","null","<img src=""img/land4.png"" style=""width:200px; border:14px solid green;"">","null","","","","","","","","","",""
"","image-keyboard-response","443","215441","0.0-443.0","","","","","243.89999999990687","img/land4.png","74","246.09999999962747","1","1","1","2","1,0,0,0.25,0.5,0.25,0.25,0.25,0.5","1,0,0,0.25,0.5,0.25,0.25,0.25,0.5","1","",""
"","html-keyboard-response","444","215744","0.0-444.0","","","","","null","<img src=""img/land4.png"" style=""width:200px; border:14px solid green;"">","null","","","","","","","","","",""
"","image-keyboard-response","445","216021","0.0-445.0","","","","","273.29999999981374","img/land4.png","74","276.70000000018626","1","1","1","2","1,0,0,0.25,0.5,0.25,0.25,0.25,0.5","1,0,0,0.25,0.5,0.25,0.25,0.25,0.5","1","",""
"","html-keyboard-response","446","216324","0.0-446.0","","","","","null","<img src=""img/land4.png"" style=""width:200px; border:14px solid green;"">","null","","","","","","","","","",""
"","image-keyboard-response","447","216576","0.0-447.0","","","","","249.79999999981374","img/land4.png","74","251","1","1","1","2","1,0,0,0.25,0.5,0.25,0.25,0.25,0.5","1,0,0,0.25,0.5,0.25,0.25,0.25,0.5","1","",""
"","html-keyboard-response","448","216877","0.0-448.0","","","","","null","<img src=""img/land4.png"" style=""width:200px; border:14px solid green;"">","null","","","","","","","","","",""
"","image-keyboard-response","449","217143","0.0-449.0","","","","","263","img/land4.png","74","265.3000000002794","1","1","1","2","1,0,0,0.25,0.5,0.25,0.25,0.25,0.5","1,0,0,0.25,0.5,0.25,0.25,0.25,0.5","1","",""
"","html-keyboard-response","450","217445","0.0-450.0","","","","","null","<img src=""img/land4.png"" style=""width:200px; border:14px solid green;"">","null","","","","","","","","","",""
"","image-keyboard-response","451","217700","0.0-451.0","","","","","253.6999999997206","img/land4.png","74","254.59999999962747","1","1","1","2","1,0,0,0.25,0.5,0.25,0.25,0.25,0.5","1,0,0,0.25,0.5,0.25,0.25,0.25,0.5","1","",""
"","html-keyboard-response","452","218003","0.0-452.0","","","","","null","<img src=""img/land4.png"" style=""width:200px; border:14px solid green;"">","null","","","","","","","","","",""
"","image-keyboard-response","453","218486","0.0-453.0","","","","","480.89999999990687","img/land6.png","76","482.79999999981374","3","1","3","2","1,0,0,0.25,0.5,0.25,0.25,0.25,0.5","1,0,0,0.25,0.5,0.25,0.25,0.25,0.5","1","",""
"","html-keyboard-response","454","218789","0.0-454.0","","","","","null","<img src=""img/land6.png"" style=""width:200px; border:14px solid green;"">","null","","","","","","","","","",""
"","image-keyboard-response","455","219429","0.0-455.0","","","","","636.2000000001863","img/land4.png","74","639.2000000001863","1","1","1","2","1,0,0,0.25,0.5,0.25,0.25,0.25,0.5","1,0,0,0.25,0.5,0.25,0.25,0.25,0.5","1","",""
"","html-keyboard-response","456","219732","0.0-456.0","","","","","null","<img src=""img/land4.png"" style=""width:200px; border:14px solid green;"">","null","","","","","","","","","",""
"","image-keyboard-response","457","220417","0.0-457.0","","","","","681.5","img/land5.png","75","684.7000000001863","2","1","2","2","1,0,0,0.25,0.5,0.25,0.25,0.25,0.5","1,0,0,0.25,0.5,0.25,0.25,0.25,0.5","1","",""
"","html-keyboard-response","458","220720","0.0-458.0","","","","","null","<img src=""img/land5.png"" style=""width:200px; border:14px solid green;"">","null","","","","","","","","","",""
"","image-keyboard-response","459","221200","0.0-459.0","","","","","478.60000000009313","img/land6.png","74","479.89999999990687","1","1","3","2","1,0,0,0.25,0.5,0.25,0.25,0.25,0.5","1,0,0,0.25,0.5,0.25,0.25,0.25,0.5","1","",""
"","html-keyboard-response","460","221504","0.0-460.0","","","","","null","<img src=""img/land6.png"" style=""width:200px; border:14px solid green;"">","null","","","","","","","","","",""
"","image-keyboard-response","461","221944","0.0-461.0","","","","","438.5","img/land5.png","74","439.89999999990687","1","0","2","2","1,0,0,0.25,0.5,0.25,0.25,0.25,0.5","1,0,0,0.25,0.5,0.25,0.25,0.25,0.5","1","",""
"","html-keyboard-response","462","222247","0.0-462.0","","","","","null","<img src=""img/land5.png"" style=""width:200px;border:14px solid red;"">","null","","","","","","","","","",""
"","image-keyboard-response","463","223362","0.0-463.0","","","","","1114.5","img/land6.png","76","1115.3999999999069","3","1","3","2","1,0,0,0.25,0.5,0.25,0.25,0.25,0.5","1,0,0,0.25,0.5,0.25,0.25,0.25,0.5","1","",""
"","html-keyboard-response","464","223664","0.0-464.0","","","","","null","<img src=""img/land6.png"" style=""width:200px; border:14px solid green;"">","null","","","","","","","","","",""
"","image-keyboard-response","465","224055","0.0-465.0","","","","","390.1999999997206","img/land6.png","75","391.39999999990687","2","0","3","2","1,0,0,0.25,0.5,0.25,0.25,0.25,0.5","1,0,0,0.25,0.5,0.25,0.25,0.25,0.5","1","",""
"","html-keyboard-response","466","224360","0.0-466.0","","","","","null","<img src=""img/land6.png"" style=""width:200px;border:14px solid red;"">","null","","","","","","","","","",""
"","image-keyboard-response","467","225302","0.0-467.0","","","","","940.8999999999069","img/land4.png","74","941.8999999999069","1","1","1","2","1,0,0,0.25,0.5,0.25,0.25,0.25,0.5","1,0,0,0.25,0.5,0.25,0.25,0.25,0.5","1","",""
"","html-keyboard-response","468","225604","0.0-468.0","","","","","null","<img src=""img/land4.png"" style=""width:200px; border:14px solid green;"">","null","","","","","","","","","",""
"","image-keyboard-response","469","226134","0.0-469.0","","","","","526.2000000001863","img/land4.png","74","529","1","1","1","2","1,0,0,0.25,0.5,0.25,0.25,0.25,0.5","1,0,0,0.25,0.5,0.25,0.25,0.25,0.5","1","",""
"","html-keyboard-response","470","226445","0.0-470.0","","","","","null","<img src=""img/land4.png"" style=""width:200px; border:14px solid green;"">","null","","","","","","","","","",""
"","image-keyboard-response","471","227132","0.0-471.0","","","","","685.2999999998137","img/land6.png","76","686.6999999997206","3","0","3","2","1,0,0,0.25,0.5,0.25,0.25,0.25,0.5","1,0,0,0.25,0.5,0.25,0.25,0.25,0.5","1","",""
"","html-keyboard-response","472","227435","0.0-472.0","","","","","null","<img src=""img/land6.png"" style=""width:200px;border:14px solid red;"">","null","","","","","","","","","",""
"","image-keyboard-response","473","228187","0.0-473.0","","","","","749.4000000003725","img/land4.png","74","752.1000000000931","1","1","1","2","1,0,0,0.25,0.5,0.25,0.25,0.25,0.5","1,0,0,0.25,0.5,0.25,0.25,0.25,0.5","1","",""
"","html-keyboard-response","474","228492","0.0-474.0","","","","","null","<img src=""img/land4.png"" style=""width:200px; border:14px solid green;"">","null","","","","","","","","","",""
"","image-keyboard-response","475","229033","0.0-475.0","","","","","537.1000000000931","img/land6.png","76","540.1000000000931","3","1","3","2","1,0,0,0.25,0.5,0.25,0.25,0.25,0.5","1,0,0,0.25,0.5,0.25,0.25,0.25,0.5","1","",""
"","html-keyboard-response","476","229335","0.0-476.0","","","","","null","<img src=""img/land6.png"" style=""width:200px; border:14px solid green;"">","null","","","","","","","","","",""
"","image-keyboard-response","477","229833","0.0-477.0","","","","","495.89999999990687","img/land4.png","74","498.20000000018626","1","1","1","2","1,0,0,0.25,0.5,0.25,0.25,0.25,0.5","1,0,0,0.25,0.5,0.25,0.25,0.25,0.5","1","",""
"","html-keyboard-response","478","230137","0.0-478.0","","","","","null","<img src=""img/land4.png"" style=""width:200px; border:14px solid green;"">","null","","","","","","","","","",""
"","image-keyboard-response","479","230493","0.0-479.0","","","","","354.40000000037253","img/land4.png","74","356","1","1","1","2","1,0,0,0.25,0.5,0.25,0.25,0.25,0.5","1,0,0,0.25,0.5,0.25,0.25,0.25,0.5","1","",""
"","html-keyboard-response","480","230796","0.0-480.0","","","","","null","<img src=""img/land4.png"" style=""width:200px; border:14px solid green;"">","null","","","","","","","","","",""
"","image-keyboard-response","481","231304","0.0-481.0","","","","","504.6999999997206","img/land5.png","75","506.89999999990687","2","0","2","2","1,0,0,0.25,0.5,0.25,0.25,0.25,0.5","1,0,0,0.25,0.5,0.25,0.25,0.25,0.5","1","",""
"","html-keyboard-response","482","231607","0.0-482.0","","","","","null","<img src=""img/land5.png"" style=""width:200px;border:14px solid red;"">","null","","","","","","","","","",""
"","instructions","483","234784","0.0-483.0","","","","[{""page_index"":0,""viewing_time"":3175}]","3175.1999999997206","","","","","","","","","","","",""
"","survey-text","484","238096","0.0-484.0-0.0","","","","","3307.100000000093","","","","","","","","","","","{""Q0"":""35""}",""
"","survey-multi-choice","485","240686","0.0-484.0-1.0","","","","","2589.3000000002794","","","","","","","","","","","{""gender"":""F""}","[0]"
"","survey-text","486","252427","0.0-485.0","","","","","11738.19999999972","","","","","","","","","","","{""Q0"":""A34EHWOYRBL6OZ""}",""
