"success","trial_type","trial_index","time_elapsed","internal_node_id","assignmentID","mturkID","hitID","view_history","rt","stimulus","key_press","reactionTime","a","r","s","reward_cond","responses","question_order"
"true","fullscreen","0","3316","0.0-0.0","3180JW2OT5YHB44YHTK0OS0YHWV5J5","A34YDGVZKRJ0LZ","329E6HTMSWO7MPPIUTRHLR63CI0K3O","","","","","","","","","","",""
"","instructions","1","40866","0.0-1.0","3180JW2OT5YHB44YHTK0OS0YHWV5J5","A34YDGVZKRJ0LZ","329E6HTMSWO7MPPIUTRHLR63CI0K3O","[{""page_index"":0,""viewing_time"":5572.5},{""page_index"":1,""viewing_time"":4552.200000047684},{""page_index"":2,""viewing_time"":2232.5},{""page_index"":3,""viewing_time"":5286.399999976158},{""page_index"":4,""viewing_time"":5116.299999952316},{""page_index"":5,""viewing_time"":5712.200000047684},{""page_index"":6,""viewing_time"":9075.799999952316}]","37548.39999997616","","","","","","","","",""
"","image-keyboard-response","2","42163","0.0-2.0","3180JW2OT5YHB44YHTK0OS0YHWV5J5","A34YDGVZKRJ0LZ","329E6HTMSWO7MPPIUTRHLR63CI0K3O","","1296.1999999284744","img/land3.png","74","1297","1","0","3","1,0.5,0.5,0.5,1,0.5,0.5,0.5,1","",""
"","html-keyboard-response","3","42465","0.0-3.0","3180JW2OT5YHB44YHTK0OS0YHWV5J5","A34YDGVZKRJ0LZ","329E6HTMSWO7MPPIUTRHLR63CI0K3O","","null","<img src=""img/land3.png"" style=""width:200px;border:14px solid red;"">","null","","","","","","",""
"","image-keyboard-response","4","43544","0.0-4.0","3180JW2OT5YHB44YHTK0OS0YHWV5J5","A34YDGVZKRJ0LZ","329E6HTMSWO7MPPIUTRHLR63CI0K3O","","1078.1000000238419","img/land1.png","74","1078.7999999523163","1","1","1","1,0.5,0.5,0.5,1,0.5,0.5,0.5,1","",""
"","html-keyboard-response","5","43846","0.0-5.0","3180JW2OT5YHB44YHTK0OS0YHWV5J5","A34YDGVZKRJ0LZ","329E6HTMSWO7MPPIUTRHLR63CI0K3O","","null","<img src=""img/land1.png"" style=""width:200px; border:14px solid green;"">","null","","","","","","",""
"","image-keyboard-response","6","45007","0.0-6.0","3180JW2OT5YHB44YHTK0OS0YHWV5J5","A34YDGVZKRJ0LZ","329E6HTMSWO7MPPIUTRHLR63CI0K3O","","1160.3000000715256","img/land1.png","74","1161.1000000238419","1","1","1","1,0.5,0.5,0.5,1,0.5,0.5,0.5,1","",""
"","html-keyboard-response","7","45309","0.0-7.0","3180JW2OT5YHB44YHTK0OS0YHWV5J5","A34YDGVZKRJ0LZ","329E6HTMSWO7MPPIUTRHLR63CI0K3O","","null","<img src=""img/land1.png"" style=""width:200px; border:14px solid green;"">","null","","","","","","",""
"","image-keyboard-response","8","46362","0.0-8.0","3180JW2OT5YHB44YHTK0OS0YHWV5J5","A34YDGVZKRJ0LZ","329E6HTMSWO7MPPIUTRHLR63CI0K3O","","1051.8999999761581","img/land3.png","76","1052.8999999761581","3","1","3","1,0.5,0.5,0.5,1,0.5,0.5,0.5,1","",""
"","html-keyboard-response","9","46664","0.0-9.0","3180JW2OT5YHB44YHTK0OS0YHWV5J5","A34YDGVZKRJ0LZ","329E6HTMSWO7MPPIUTRHLR63CI0K3O","","null","<img src=""img/land3.png"" style=""width:200px; border:14px solid green;"">","null","","","","","","",""
"","image-keyboard-response","10","48068","0.0-10.0","3180JW2OT5YHB44YHTK0OS0YHWV5J5","A34YDGVZKRJ0LZ","329E6HTMSWO7MPPIUTRHLR63CI0K3O","","1403.3999999761581","img/land2.png","75","1404.1000000238419","2","1","2","1,0.5,0.5,0.5,1,0.5,0.5,0.5,1","",""
"","html-keyboard-response","11","48370","0.0-11.0","3180JW2OT5YHB44YHTK0OS0YHWV5J5","A34YDGVZKRJ0LZ","329E6HTMSWO7MPPIUTRHLR63CI0K3O","","null","<img src=""img/land2.png"" style=""width:200px; border:14px solid green;"">","null","","","","","","",""
"","image-keyboard-response","12","49097","0.0-12.0","3180JW2OT5YHB44YHTK0OS0YHWV5J5","A34YDGVZKRJ0LZ","329E6HTMSWO7MPPIUTRHLR63CI0K3O","","726.1000000238419","img/land1.png","74","726.9000000953674","1","1","1","1,0.5,0.5,0.5,1,0.5,0.5,0.5,1","",""
"","html-keyboard-response","13","49398","0.0-13.0","3180JW2OT5YHB44YHTK0OS0YHWV5J5","A34YDGVZKRJ0LZ","329E6HTMSWO7MPPIUTRHLR63CI0K3O","","null","<img src=""img/land1.png"" style=""width:200px; border:14px solid green;"">","null","","","","","","",""
"","image-keyboard-response","14","49888","0.0-14.0","3180JW2OT5YHB44YHTK0OS0YHWV5J5","A34YDGVZKRJ0LZ","329E6HTMSWO7MPPIUTRHLR63CI0K3O","","488.90000009536743","img/land1.png","74","489.60000002384186","1","1","1","1,0.5,0.5,0.5,1,0.5,0.5,0.5,1","",""
"","html-keyboard-response","15","50189","0.0-15.0","3180JW2OT5YHB44YHTK0OS0YHWV5J5","A34YDGVZKRJ0LZ","329E6HTMSWO7MPPIUTRHLR63CI0K3O","","null","<img src=""img/land1.png"" style=""width:200px; border:14px solid green;"">","null","","","","","","",""
"","image-keyboard-response","16","51978","0.0-16.0","3180JW2OT5YHB44YHTK0OS0YHWV5J5","A34YDGVZKRJ0LZ","329E6HTMSWO7MPPIUTRHLR63CI0K3O","","1788.2999999523163","img/land2.png","75","1788.8999999761581","2","1","2","1,0.5,0.5,0.5,1,0.5,0.5,0.5,1","",""
"","html-keyboard-response","17","52281","0.0-17.0","3180JW2OT5YHB44YHTK0OS0YHWV5J5","A34YDGVZKRJ0LZ","329E6HTMSWO7MPPIUTRHLR63CI0K3O","","null","<img src=""img/land2.png"" style=""width:200px; border:14px solid green;"">","null","","","","","","",""
"","image-keyboard-response","18","52906","0.0-18.0","3180JW2OT5YHB44YHTK0OS0YHWV5J5","A34YDGVZKRJ0LZ","329E6HTMSWO7MPPIUTRHLR63CI0K3O","","624.2999999523163","img/land3.png","76","625.1000000238419","3","1","3","1,0.5,0.5,0.5,1,0.5,0.5,0.5,1","",""
"","html-keyboard-response","19","53207","0.0-19.0","3180JW2OT5YHB44YHTK0OS0YHWV5J5","A34YDGVZKRJ0LZ","329E6HTMSWO7MPPIUTRHLR63CI0K3O","","null","<img src=""img/land3.png"" style=""width:200px; border:14px solid green;"">","null","","","","","","",""
"","image-keyboard-response","20","53903","0.0-20.0","3180JW2OT5YHB44YHTK0OS0YHWV5J5","A34YDGVZKRJ0LZ","329E6HTMSWO7MPPIUTRHLR63CI0K3O","","694.5","img/land1.png","74","695.2999999523163","1","1","1","1,0.5,0.5,0.5,1,0.5,0.5,0.5,1","",""
"","html-keyboard-response","21","54205","0.0-21.0","3180JW2OT5YHB44YHTK0OS0YHWV5J5","A34YDGVZKRJ0LZ","329E6HTMSWO7MPPIUTRHLR63CI0K3O","","null","<img src=""img/land1.png"" style=""width:200px; border:14px solid green;"">","null","","","","","","",""
"","image-keyboard-response","22","54795","0.0-22.0","3180JW2OT5YHB44YHTK0OS0YHWV5J5","A34YDGVZKRJ0LZ","329E6HTMSWO7MPPIUTRHLR63CI0K3O","","590","img/land2.png","75","590.6000000238419","2","1","2","1,0.5,0.5,0.5,1,0.5,0.5,0.5,1","",""
"","html-keyboard-response","23","55096","0.0-23.0","3180JW2OT5YHB44YHTK0OS0YHWV5J5","A34YDGVZKRJ0LZ","329E6HTMSWO7MPPIUTRHLR63CI0K3O","","null","<img src=""img/land2.png"" style=""width:200px; border:14px solid green;"">","null","","","","","","",""
"","image-keyboard-response","24","55441","0.0-24.0","3180JW2OT5YHB44YHTK0OS0YHWV5J5","A34YDGVZKRJ0LZ","329E6HTMSWO7MPPIUTRHLR63CI0K3O","","343.7000000476837","img/land3.png","76","344.3000000715256","3","1","3","1,0.5,0.5,0.5,1,0.5,0.5,0.5,1","",""
"","html-keyboard-response","25","55742","0.0-25.0","3180JW2OT5YHB44YHTK0OS0YHWV5J5","A34YDGVZKRJ0LZ","329E6HTMSWO7MPPIUTRHLR63CI0K3O","","null","<img src=""img/land3.png"" style=""width:200px; border:14px solid green;"">","null","","","","","","",""
"","image-keyboard-response","26","56142","0.0-26.0","3180JW2OT5YHB44YHTK0OS0YHWV5J5","A34YDGVZKRJ0LZ","329E6HTMSWO7MPPIUTRHLR63CI0K3O","","399","img/land2.png","74","399.89999997615814","1","1","2","1,0.5,0.5,0.5,1,0.5,0.5,0.5,1","",""
"","html-keyboard-response","27","56444","0.0-27.0","3180JW2OT5YHB44YHTK0OS0YHWV5J5","A34YDGVZKRJ0LZ","329E6HTMSWO7MPPIUTRHLR63CI0K3O","","null","<img src=""img/land2.png"" style=""width:200px; border:14px solid green;"">","null","","","","","","",""
"","image-keyboard-response","28","57815","0.0-28.0","3180JW2OT5YHB44YHTK0OS0YHWV5J5","A34YDGVZKRJ0LZ","329E6HTMSWO7MPPIUTRHLR63CI0K3O","","1369.5","img/land3.png","76","1370.1000000238419","3","1","3","1,0.5,0.5,0.5,1,0.5,0.5,0.5,1","",""
"","html-keyboard-response","29","58117","0.0-29.0","3180JW2OT5YHB44YHTK0OS0YHWV5J5","A34YDGVZKRJ0LZ","329E6HTMSWO7MPPIUTRHLR63CI0K3O","","null","<img src=""img/land3.png"" style=""width:200px; border:14px solid green;"">","null","","","","","","",""
"","image-keyboard-response","30","58714","0.0-30.0","3180JW2OT5YHB44YHTK0OS0YHWV5J5","A34YDGVZKRJ0LZ","329E6HTMSWO7MPPIUTRHLR63CI0K3O","","596.6999999284744","img/land1.png","74","597.2000000476837","1","1","1","1,0.5,0.5,0.5,1,0.5,0.5,0.5,1","",""
"","html-keyboard-response","31","59017","0.0-31.0","3180JW2OT5YHB44YHTK0OS0YHWV5J5","A34YDGVZKRJ0LZ","329E6HTMSWO7MPPIUTRHLR63CI0K3O","","null","<img src=""img/land1.png"" style=""width:200px; border:14px solid green;"">","null","","","","","","",""
"","image-keyboard-response","32","59485","0.0-32.0","3180JW2OT5YHB44YHTK0OS0YHWV5J5","A34YDGVZKRJ0LZ","329E6HTMSWO7MPPIUTRHLR63CI0K3O","","467.5","img/land1.png","74","468","1","1","1","1,0.5,0.5,0.5,1,0.5,0.5,0.5,1","",""
"","html-keyboard-response","33","59793","0.0-33.0","3180JW2OT5YHB44YHTK0OS0YHWV5J5","A34YDGVZKRJ0LZ","329E6HTMSWO7MPPIUTRHLR63CI0K3O","","null","<img src=""img/land1.png"" style=""width:200px; border:14px solid green;"">","null","","","","","","",""
"","image-keyboard-response","34","60601","0.0-34.0","3180JW2OT5YHB44YHTK0OS0YHWV5J5","A34YDGVZKRJ0LZ","329E6HTMSWO7MPPIUTRHLR63CI0K3O","","807","img/land2.png","75","807.5999999046326","2","1","2","1,0.5,0.5,0.5,1,0.5,0.5,0.5,1","",""
"","html-keyboard-response","35","60902","0.0-35.0","3180JW2OT5YHB44YHTK0OS0YHWV5J5","A34YDGVZKRJ0LZ","329E6HTMSWO7MPPIUTRHLR63CI0K3O","","null","<img src=""img/land2.png"" style=""width:200px; border:14px solid green;"">","null","","","","","","",""
"","image-keyboard-response","36","61359","0.0-36.0","3180JW2OT5YHB44YHTK0OS0YHWV5J5","A34YDGVZKRJ0LZ","329E6HTMSWO7MPPIUTRHLR63CI0K3O","","455.7999999523163","img/land3.png","76","456.5","3","1","3","1,0.5,0.5,0.5,1,0.5,0.5,0.5,1","",""
"","html-keyboard-response","37","61661","0.0-37.0","3180JW2OT5YHB44YHTK0OS0YHWV5J5","A34YDGVZKRJ0LZ","329E6HTMSWO7MPPIUTRHLR63CI0K3O","","null","<img src=""img/land3.png"" style=""width:200px; border:14px solid green;"">","null","","","","","","",""
"","image-keyboard-response","38","62452","0.0-38.0","3180JW2OT5YHB44YHTK0OS0YHWV5J5","A34YDGVZKRJ0LZ","329E6HTMSWO7MPPIUTRHLR63CI0K3O","","791","img/land2.png","75","791.6000000238419","2","1","2","1,0.5,0.5,0.5,1,0.5,0.5,0.5,1","",""
"","html-keyboard-response","39","62755","0.0-39.0","3180JW2OT5YHB44YHTK0OS0YHWV5J5","A34YDGVZKRJ0LZ","329E6HTMSWO7MPPIUTRHLR63CI0K3O","","null","<img src=""img/land2.png"" style=""width:200px; border:14px solid green;"">","null","","","","","","",""
"","image-keyboard-response","40","63158","0.0-40.0","3180JW2OT5YHB44YHTK0OS0YHWV5J5","A34YDGVZKRJ0LZ","329E6HTMSWO7MPPIUTRHLR63CI0K3O","","402.5","img/land2.png","75","403.09999990463257","2","1","2","1,0.5,0.5,0.5,1,0.5,0.5,0.5,1","",""
"","html-keyboard-response","41","63459","0.0-41.0","3180JW2OT5YHB44YHTK0OS0YHWV5J5","A34YDGVZKRJ0LZ","329E6HTMSWO7MPPIUTRHLR63CI0K3O","","null","<img src=""img/land2.png"" style=""width:200px; border:14px solid green;"">","null","","","","","","",""
"","image-keyboard-response","42","63838","0.0-42.0","3180JW2OT5YHB44YHTK0OS0YHWV5J5","A34YDGVZKRJ0LZ","329E6HTMSWO7MPPIUTRHLR63CI0K3O","","377.7999999523163","img/land2.png","75","378.39999997615814","2","1","2","1,0.5,0.5,0.5,1,0.5,0.5,0.5,1","",""
"","html-keyboard-response","43","64149","0.0-43.0","3180JW2OT5YHB44YHTK0OS0YHWV5J5","A34YDGVZKRJ0LZ","329E6HTMSWO7MPPIUTRHLR63CI0K3O","","null","<img src=""img/land2.png"" style=""width:200px; border:14px solid green;"">","null","","","","","","",""
"","image-keyboard-response","44","64799","0.0-44.0","3180JW2OT5YHB44YHTK0OS0YHWV5J5","A34YDGVZKRJ0LZ","329E6HTMSWO7MPPIUTRHLR63CI0K3O","","648.8999999761581","img/land1.png","74","649.5","1","1","1","1,0.5,0.5,0.5,1,0.5,0.5,0.5,1","",""
"","html-keyboard-response","45","65101","0.0-45.0","3180JW2OT5YHB44YHTK0OS0YHWV5J5","A34YDGVZKRJ0LZ","329E6HTMSWO7MPPIUTRHLR63CI0K3O","","null","<img src=""img/land1.png"" style=""width:200px; border:14px solid green;"">","null","","","","","","",""
"","image-keyboard-response","46","66064","0.0-46.0","3180JW2OT5YHB44YHTK0OS0YHWV5J5","A34YDGVZKRJ0LZ","329E6HTMSWO7MPPIUTRHLR63CI0K3O","","962.2000000476837","img/land1.png","74","962.6999999284744","1","1","1","1,0.5,0.5,0.5,1,0.5,0.5,0.5,1","",""
"","html-keyboard-response","47","66378","0.0-47.0","3180JW2OT5YHB44YHTK0OS0YHWV5J5","A34YDGVZKRJ0LZ","329E6HTMSWO7MPPIUTRHLR63CI0K3O","","null","<img src=""img/land1.png"" style=""width:200px; border:14px solid green;"">","null","","","","","","",""
"","image-keyboard-response","48","67184","0.0-48.0","3180JW2OT5YHB44YHTK0OS0YHWV5J5","A34YDGVZKRJ0LZ","329E6HTMSWO7MPPIUTRHLR63CI0K3O","","805.3000000715256","img/land3.png","76","805.8999999761581","3","1","3","1,0.5,0.5,0.5,1,0.5,0.5,0.5,1","",""
"","html-keyboard-response","49","67486","0.0-49.0","3180JW2OT5YHB44YHTK0OS0YHWV5J5","A34YDGVZKRJ0LZ","329E6HTMSWO7MPPIUTRHLR63CI0K3O","","null","<img src=""img/land3.png"" style=""width:200px; border:14px solid green;"">","null","","","","","","",""
"","image-keyboard-response","50","68083","0.0-50.0","3180JW2OT5YHB44YHTK0OS0YHWV5J5","A34YDGVZKRJ0LZ","329E6HTMSWO7MPPIUTRHLR63CI0K3O","","596.5","img/land1.png","74","597.1000000238419","1","1","1","1,0.5,0.5,0.5,1,0.5,0.5,0.5,1","",""
"","html-keyboard-response","51","68385","0.0-51.0","3180JW2OT5YHB44YHTK0OS0YHWV5J5","A34YDGVZKRJ0LZ","329E6HTMSWO7MPPIUTRHLR63CI0K3O","","null","<img src=""img/land1.png"" style=""width:200px; border:14px solid green;"">","null","","","","","","",""
"","image-keyboard-response","52","68750","0.0-52.0","3180JW2OT5YHB44YHTK0OS0YHWV5J5","A34YDGVZKRJ0LZ","329E6HTMSWO7MPPIUTRHLR63CI0K3O","","365.1999999284744","img/land1.png","74","365.7999999523163","1","1","1","1,0.5,0.5,0.5,1,0.5,0.5,0.5,1","",""
"","html-keyboard-response","53","69052","0.0-53.0","3180JW2OT5YHB44YHTK0OS0YHWV5J5","A34YDGVZKRJ0LZ","329E6HTMSWO7MPPIUTRHLR63CI0K3O","","null","<img src=""img/land1.png"" style=""width:200px; border:14px solid green;"">","null","","","","","","",""
"","image-keyboard-response","54","69683","0.0-54.0","3180JW2OT5YHB44YHTK0OS0YHWV5J5","A34YDGVZKRJ0LZ","329E6HTMSWO7MPPIUTRHLR63CI0K3O","","630","img/land3.png","76","630.5","3","1","3","1,0.5,0.5,0.5,1,0.5,0.5,0.5,1","",""
"","html-keyboard-response","55","69985","0.0-55.0","3180JW2OT5YHB44YHTK0OS0YHWV5J5","A34YDGVZKRJ0LZ","329E6HTMSWO7MPPIUTRHLR63CI0K3O","","null","<img src=""img/land3.png"" style=""width:200px; border:14px solid green;"">","null","","","","","","",""
"","image-keyboard-response","56","70310","0.0-56.0","3180JW2OT5YHB44YHTK0OS0YHWV5J5","A34YDGVZKRJ0LZ","329E6HTMSWO7MPPIUTRHLR63CI0K3O","","324.2000000476837","img/land3.png","76","324.89999997615814","3","1","3","1,0.5,0.5,0.5,1,0.5,0.5,0.5,1","",""
"","html-keyboard-response","57","70611","0.0-57.0","3180JW2OT5YHB44YHTK0OS0YHWV5J5","A34YDGVZKRJ0LZ","329E6HTMSWO7MPPIUTRHLR63CI0K3O","","null","<img src=""img/land3.png"" style=""width:200px; border:14px solid green;"">","null","","","","","","",""
"","image-keyboard-response","58","70933","0.0-58.0","3180JW2OT5YHB44YHTK0OS0YHWV5J5","A34YDGVZKRJ0LZ","329E6HTMSWO7MPPIUTRHLR63CI0K3O","","321.6999999284744","img/land3.png","76","322.39999997615814","3","1","3","1,0.5,0.5,0.5,1,0.5,0.5,0.5,1","",""
"","html-keyboard-response","59","71235","0.0-59.0","3180JW2OT5YHB44YHTK0OS0YHWV5J5","A34YDGVZKRJ0LZ","329E6HTMSWO7MPPIUTRHLR63CI0K3O","","null","<img src=""img/land3.png"" style=""width:200px; border:14px solid green;"">","null","","","","","","",""
"","image-keyboard-response","60","71857","0.0-60.0","3180JW2OT5YHB44YHTK0OS0YHWV5J5","A34YDGVZKRJ0LZ","329E6HTMSWO7MPPIUTRHLR63CI0K3O","","621.2999999523163","img/land1.png","74","622.0999999046326","1","1","1","1,0.5,0.5,0.5,1,0.5,0.5,0.5,1","",""
"","html-keyboard-response","61","72159","0.0-61.0","3180JW2OT5YHB44YHTK0OS0YHWV5J5","A34YDGVZKRJ0LZ","329E6HTMSWO7MPPIUTRHLR63CI0K3O","","null","<img src=""img/land1.png"" style=""width:200px; border:14px solid green;"">","null","","","","","","",""
"","image-keyboard-response","62","72462","0.0-62.0","3180JW2OT5YHB44YHTK0OS0YHWV5J5","A34YDGVZKRJ0LZ","329E6HTMSWO7MPPIUTRHLR63CI0K3O","","301.89999997615814","img/land1.png","74","302.5","1","1","1","1,0.5,0.5,0.5,1,0.5,0.5,0.5,1","",""
"","html-keyboard-response","63","72764","0.0-63.0","3180JW2OT5YHB44YHTK0OS0YHWV5J5","A34YDGVZKRJ0LZ","329E6HTMSWO7MPPIUTRHLR63CI0K3O","","null","<img src=""img/land1.png"" style=""width:200px; border:14px solid green;"">","null","","","","","","",""
"","image-keyboard-response","64","72890","0.0-64.0","3180JW2OT5YHB44YHTK0OS0YHWV5J5","A34YDGVZKRJ0LZ","329E6HTMSWO7MPPIUTRHLR63CI0K3O","","125.19999992847443","img/land3.png","74","125.80000007152557","1","0","3","1,0.5,0.5,0.5,1,0.5,0.5,0.5,1","",""
"","html-keyboard-response","65","73192","0.0-65.0","3180JW2OT5YHB44YHTK0OS0YHWV5J5","A34YDGVZKRJ0LZ","329E6HTMSWO7MPPIUTRHLR63CI0K3O","","null","<img src=""img/land3.png"" style=""width:200px;border:14px solid red;"">","null","","","","","","",""
"","image-keyboard-response","66","74044","0.0-66.0","3180JW2OT5YHB44YHTK0OS0YHWV5J5","A34YDGVZKRJ0LZ","329E6HTMSWO7MPPIUTRHLR63CI0K3O","","851.1000000238419","img/land2.png","75","851.7999999523163","2","1","2","1,0.5,0.5,0.5,1,0.5,0.5,0.5,1","",""
"","html-keyboard-response","67","74346","0.0-67.0","3180JW2OT5YHB44YHTK0OS0YHWV5J5","A34YDGVZKRJ0LZ","329E6HTMSWO7MPPIUTRHLR63CI0K3O","","null","<img src=""img/land2.png"" style=""width:200px; border:14px solid green;"">","null","","","","","","",""
"","image-keyboard-response","68","74753","0.0-68.0","3180JW2OT5YHB44YHTK0OS0YHWV5J5","A34YDGVZKRJ0LZ","329E6HTMSWO7MPPIUTRHLR63CI0K3O","","405.60000002384186","img/land2.png","75","406.5","2","1","2","1,0.5,0.5,0.5,1,0.5,0.5,0.5,1","",""
"","html-keyboard-response","69","75054","0.0-69.0","3180JW2OT5YHB44YHTK0OS0YHWV5J5","A34YDGVZKRJ0LZ","329E6HTMSWO7MPPIUTRHLR63CI0K3O","","null","<img src=""img/land2.png"" style=""width:200px; border:14px solid green;"">","null","","","","","","",""
"","image-keyboard-response","70","75611","0.0-70.0","3180JW2OT5YHB44YHTK0OS0YHWV5J5","A34YDGVZKRJ0LZ","329E6HTMSWO7MPPIUTRHLR63CI0K3O","","556.6000000238419","img/land3.png","76","557.1000000238419","3","1","3","1,0.5,0.5,0.5,1,0.5,0.5,0.5,1","",""
"","html-keyboard-response","71","75912","0.0-71.0","3180JW2OT5YHB44YHTK0OS0YHWV5J5","A34YDGVZKRJ0LZ","329E6HTMSWO7MPPIUTRHLR63CI0K3O","","null","<img src=""img/land3.png"" style=""width:200px; border:14px solid green;"">","null","","","","","","",""
"","image-keyboard-response","72","76703","0.0-72.0","3180JW2OT5YHB44YHTK0OS0YHWV5J5","A34YDGVZKRJ0LZ","329E6HTMSWO7MPPIUTRHLR63CI0K3O","","790.1999999284744","img/land1.png","74","790.8999999761581","1","1","1","1,0.5,0.5,0.5,1,0.5,0.5,0.5,1","",""
"","html-keyboard-response","73","77009","0.0-73.0","3180JW2OT5YHB44YHTK0OS0YHWV5J5","A34YDGVZKRJ0LZ","329E6HTMSWO7MPPIUTRHLR63CI0K3O","","null","<img src=""img/land1.png"" style=""width:200px; border:14px solid green;"">","null","","","","","","",""
"","image-keyboard-response","74","77628","0.0-74.0","3180JW2OT5YHB44YHTK0OS0YHWV5J5","A34YDGVZKRJ0LZ","329E6HTMSWO7MPPIUTRHLR63CI0K3O","","618.2000000476837","img/land3.png","76","618.8999999761581","3","1","3","1,0.5,0.5,0.5,1,0.5,0.5,0.5,1","",""
"","html-keyboard-response","75","77930","0.0-75.0","3180JW2OT5YHB44YHTK0OS0YHWV5J5","A34YDGVZKRJ0LZ","329E6HTMSWO7MPPIUTRHLR63CI0K3O","","null","<img src=""img/land3.png"" style=""width:200px; border:14px solid green;"">","null","","","","","","",""
"","image-keyboard-response","76","78464","0.0-76.0","3180JW2OT5YHB44YHTK0OS0YHWV5J5","A34YDGVZKRJ0LZ","329E6HTMSWO7MPPIUTRHLR63CI0K3O","","533.6000000238419","img/land1.png","74","534.3000000715256","1","1","1","1,0.5,0.5,0.5,1,0.5,0.5,0.5,1","",""
"","html-keyboard-response","77","78767","0.0-77.0","3180JW2OT5YHB44YHTK0OS0YHWV5J5","A34YDGVZKRJ0LZ","329E6HTMSWO7MPPIUTRHLR63CI0K3O","","null","<img src=""img/land1.png"" style=""width:200px; border:14px solid green;"">","null","","","","","","",""
"","image-keyboard-response","78","79234","0.0-78.0","3180JW2OT5YHB44YHTK0OS0YHWV5J5","A34YDGVZKRJ0LZ","329E6HTMSWO7MPPIUTRHLR63CI0K3O","","467","img/land1.png","74","467.5","1","1","1","1,0.5,0.5,0.5,1,0.5,0.5,0.5,1","",""
"","html-keyboard-response","79","79535","0.0-79.0","3180JW2OT5YHB44YHTK0OS0YHWV5J5","A34YDGVZKRJ0LZ","329E6HTMSWO7MPPIUTRHLR63CI0K3O","","null","<img src=""img/land1.png"" style=""width:200px; border:14px solid green;"">","null","","","","","","",""
"","image-keyboard-response","80","80154","0.0-80.0","3180JW2OT5YHB44YHTK0OS0YHWV5J5","A34YDGVZKRJ0LZ","329E6HTMSWO7MPPIUTRHLR63CI0K3O","","618.2000000476837","img/land2.png","75","618.5999999046326","2","1","2","1,0.5,0.5,0.5,1,0.5,0.5,0.5,1","",""
"","html-keyboard-response","81","80456","0.0-81.0","3180JW2OT5YHB44YHTK0OS0YHWV5J5","A34YDGVZKRJ0LZ","329E6HTMSWO7MPPIUTRHLR63CI0K3O","","null","<img src=""img/land2.png"" style=""width:200px; border:14px solid green;"">","null","","","","","","",""
"","image-keyboard-response","82","80882","0.0-82.0","3180JW2OT5YHB44YHTK0OS0YHWV5J5","A34YDGVZKRJ0LZ","329E6HTMSWO7MPPIUTRHLR63CI0K3O","","425.39999997615814","img/land2.png","75","426","2","1","2","1,0.5,0.5,0.5,1,0.5,0.5,0.5,1","",""
"","html-keyboard-response","83","81183","0.0-83.0","3180JW2OT5YHB44YHTK0OS0YHWV5J5","A34YDGVZKRJ0LZ","329E6HTMSWO7MPPIUTRHLR63CI0K3O","","null","<img src=""img/land2.png"" style=""width:200px; border:14px solid green;"">","null","","","","","","",""
"","image-keyboard-response","84","81725","0.0-84.0","3180JW2OT5YHB44YHTK0OS0YHWV5J5","A34YDGVZKRJ0LZ","329E6HTMSWO7MPPIUTRHLR63CI0K3O","","541.0999999046326","img/land3.png","76","541.6999999284744","3","1","3","1,0.5,0.5,0.5,1,0.5,0.5,0.5,1","",""
"","html-keyboard-response","85","82026","0.0-85.0","3180JW2OT5YHB44YHTK0OS0YHWV5J5","A34YDGVZKRJ0LZ","329E6HTMSWO7MPPIUTRHLR63CI0K3O","","null","<img src=""img/land3.png"" style=""width:200px; border:14px solid green;"">","null","","","","","","",""
"","image-keyboard-response","86","82405","0.0-86.0","3180JW2OT5YHB44YHTK0OS0YHWV5J5","A34YDGVZKRJ0LZ","329E6HTMSWO7MPPIUTRHLR63CI0K3O","","377.3000000715256","img/land3.png","76","378.2999999523163","3","1","3","1,0.5,0.5,0.5,1,0.5,0.5,0.5,1","",""
"","html-keyboard-response","87","82706","0.0-87.0","3180JW2OT5YHB44YHTK0OS0YHWV5J5","A34YDGVZKRJ0LZ","329E6HTMSWO7MPPIUTRHLR63CI0K3O","","null","<img src=""img/land3.png"" style=""width:200px; border:14px solid green;"">","null","","","","","","",""
"","image-keyboard-response","88","83554","0.0-88.0","3180JW2OT5YHB44YHTK0OS0YHWV5J5","A34YDGVZKRJ0LZ","329E6HTMSWO7MPPIUTRHLR63CI0K3O","","846.6000000238419","img/land2.png","75","847.4000000953674","2","1","2","1,0.5,0.5,0.5,1,0.5,0.5,0.5,1","",""
"","html-keyboard-response","89","83855","0.0-89.0","3180JW2OT5YHB44YHTK0OS0YHWV5J5","A34YDGVZKRJ0LZ","329E6HTMSWO7MPPIUTRHLR63CI0K3O","","null","<img src=""img/land2.png"" style=""width:200px; border:14px solid green;"">","null","","","","","","",""
"","image-keyboard-response","90","84494","0.0-90.0","3180JW2OT5YHB44YHTK0OS0YHWV5J5","A34YDGVZKRJ0LZ","329E6HTMSWO7MPPIUTRHLR63CI0K3O","","638.3999999761581","img/land1.png","74","639.2000000476837","1","1","1","1,0.5,0.5,0.5,1,0.5,0.5,0.5,1","",""
"","html-keyboard-response","91","84796","0.0-91.0","3180JW2OT5YHB44YHTK0OS0YHWV5J5","A34YDGVZKRJ0LZ","329E6HTMSWO7MPPIUTRHLR63CI0K3O","","null","<img src=""img/land1.png"" style=""width:200px; border:14px solid green;"">","null","","","","","","",""
"","image-keyboard-response","92","85224","0.0-92.0","3180JW2OT5YHB44YHTK0OS0YHWV5J5","A34YDGVZKRJ0LZ","329E6HTMSWO7MPPIUTRHLR63CI0K3O","","427.3000000715256","img/land1.png","74","428","1","1","1","1,0.5,0.5,0.5,1,0.5,0.5,0.5,1","",""
"","html-keyboard-response","93","85531","0.0-93.0","3180JW2OT5YHB44YHTK0OS0YHWV5J5","A34YDGVZKRJ0LZ","329E6HTMSWO7MPPIUTRHLR63CI0K3O","","null","<img src=""img/land1.png"" style=""width:200px; border:14px solid green;"">","null","","","","","","",""
"","image-keyboard-response","94","86288","0.0-94.0","3180JW2OT5YHB44YHTK0OS0YHWV5J5","A34YDGVZKRJ0LZ","329E6HTMSWO7MPPIUTRHLR63CI0K3O","","755.8999999761581","img/land3.png","76","756.7000000476837","3","1","3","1,0.5,0.5,0.5,1,0.5,0.5,0.5,1","",""
"","html-keyboard-response","95","86590","0.0-95.0","3180JW2OT5YHB44YHTK0OS0YHWV5J5","A34YDGVZKRJ0LZ","329E6HTMSWO7MPPIUTRHLR63CI0K3O","","null","<img src=""img/land3.png"" style=""width:200px; border:14px solid green;"">","null","","","","","","",""
"","image-keyboard-response","96","87347","0.0-96.0","3180JW2OT5YHB44YHTK0OS0YHWV5J5","A34YDGVZKRJ0LZ","329E6HTMSWO7MPPIUTRHLR63CI0K3O","","756.8000000715256","img/land1.png","74","757.5","1","1","1","1,0.5,0.5,0.5,1,0.5,0.5,0.5,1","",""
"","html-keyboard-response","97","87649","0.0-97.0","3180JW2OT5YHB44YHTK0OS0YHWV5J5","A34YDGVZKRJ0LZ","329E6HTMSWO7MPPIUTRHLR63CI0K3O","","null","<img src=""img/land1.png"" style=""width:200px; border:14px solid green;"">","null","","","","","","",""
"","image-keyboard-response","98","88255","0.0-98.0","3180JW2OT5YHB44YHTK0OS0YHWV5J5","A34YDGVZKRJ0LZ","329E6HTMSWO7MPPIUTRHLR63CI0K3O","","604.8000000715256","img/land3.png","76","605.6000000238419","3","1","3","1,0.5,0.5,0.5,1,0.5,0.5,0.5,1","",""
"","html-keyboard-response","99","88557","0.0-99.0","3180JW2OT5YHB44YHTK0OS0YHWV5J5","A34YDGVZKRJ0LZ","329E6HTMSWO7MPPIUTRHLR63CI0K3O","","null","<img src=""img/land3.png"" style=""width:200px; border:14px solid green;"">","null","","","","","","",""
"","image-keyboard-response","100","89096","0.0-100.0","3180JW2OT5YHB44YHTK0OS0YHWV5J5","A34YDGVZKRJ0LZ","329E6HTMSWO7MPPIUTRHLR63CI0K3O","","538.5","img/land1.png","74","539.1000000238419","1","1","1","1,0.5,0.5,0.5,1,0.5,0.5,0.5,1","",""
"","html-keyboard-response","101","89398","0.0-101.0","3180JW2OT5YHB44YHTK0OS0YHWV5J5","A34YDGVZKRJ0LZ","329E6HTMSWO7MPPIUTRHLR63CI0K3O","","null","<img src=""img/land1.png"" style=""width:200px; border:14px solid green;"">","null","","","","","","",""
"","image-keyboard-response","102","90049","0.0-102.0","3180JW2OT5YHB44YHTK0OS0YHWV5J5","A34YDGVZKRJ0LZ","329E6HTMSWO7MPPIUTRHLR63CI0K3O","","650.2000000476837","img/land2.png","75","650.9000000953674","2","1","2","1,0.5,0.5,0.5,1,0.5,0.5,0.5,1","",""
"","html-keyboard-response","103","90350","0.0-103.0","3180JW2OT5YHB44YHTK0OS0YHWV5J5","A34YDGVZKRJ0LZ","329E6HTMSWO7MPPIUTRHLR63CI0K3O","","null","<img src=""img/land2.png"" style=""width:200px; border:14px solid green;"">","null","","","","","","",""
"","image-keyboard-response","104","91094","0.0-104.0","3180JW2OT5YHB44YHTK0OS0YHWV5J5","A34YDGVZKRJ0LZ","329E6HTMSWO7MPPIUTRHLR63CI0K3O","","743","img/land1.png","74","743.6000000238419","1","1","1","1,0.5,0.5,0.5,1,0.5,0.5,0.5,1","",""
"","html-keyboard-response","105","91395","0.0-105.0","3180JW2OT5YHB44YHTK0OS0YHWV5J5","A34YDGVZKRJ0LZ","329E6HTMSWO7MPPIUTRHLR63CI0K3O","","null","<img src=""img/land1.png"" style=""width:200px; border:14px solid green;"">","null","","","","","","",""
"","image-keyboard-response","106","91843","0.0-106.0","3180JW2OT5YHB44YHTK0OS0YHWV5J5","A34YDGVZKRJ0LZ","329E6HTMSWO7MPPIUTRHLR63CI0K3O","","447.89999997615814","img/land1.png","74","448.60000002384186","1","1","1","1,0.5,0.5,0.5,1,0.5,0.5,0.5,1","",""
"","html-keyboard-response","107","92145","0.0-107.0","3180JW2OT5YHB44YHTK0OS0YHWV5J5","A34YDGVZKRJ0LZ","329E6HTMSWO7MPPIUTRHLR63CI0K3O","","null","<img src=""img/land1.png"" style=""width:200px; border:14px solid green;"">","null","","","","","","",""
"","image-keyboard-response","108","92793","0.0-108.0","3180JW2OT5YHB44YHTK0OS0YHWV5J5","A34YDGVZKRJ0LZ","329E6HTMSWO7MPPIUTRHLR63CI0K3O","","647.2999999523163","img/land3.png","76","648","3","1","3","1,0.5,0.5,0.5,1,0.5,0.5,0.5,1","",""
"","html-keyboard-response","109","93094","0.0-109.0","3180JW2OT5YHB44YHTK0OS0YHWV5J5","A34YDGVZKRJ0LZ","329E6HTMSWO7MPPIUTRHLR63CI0K3O","","null","<img src=""img/land3.png"" style=""width:200px; border:14px solid green;"">","null","","","","","","",""
"","image-keyboard-response","110","93899","0.0-110.0","3180JW2OT5YHB44YHTK0OS0YHWV5J5","A34YDGVZKRJ0LZ","329E6HTMSWO7MPPIUTRHLR63CI0K3O","","804.1000000238419","img/land2.png","75","804.8999999761581","2","1","2","1,0.5,0.5,0.5,1,0.5,0.5,0.5,1","",""
"","html-keyboard-response","111","94201","0.0-111.0","3180JW2OT5YHB44YHTK0OS0YHWV5J5","A34YDGVZKRJ0LZ","329E6HTMSWO7MPPIUTRHLR63CI0K3O","","null","<img src=""img/land2.png"" style=""width:200px; border:14px solid green;"">","null","","","","","","",""
"","image-keyboard-response","112","94649","0.0-112.0","3180JW2OT5YHB44YHTK0OS0YHWV5J5","A34YDGVZKRJ0LZ","329E6HTMSWO7MPPIUTRHLR63CI0K3O","","447.2000000476837","img/land2.png","75","448.09999990463257","2","1","2","1,0.5,0.5,0.5,1,0.5,0.5,0.5,1","",""
"","html-keyboard-response","113","94951","0.0-113.0","3180JW2OT5YHB44YHTK0OS0YHWV5J5","A34YDGVZKRJ0LZ","329E6HTMSWO7MPPIUTRHLR63CI0K3O","","null","<img src=""img/land2.png"" style=""width:200px; border:14px solid green;"">","null","","","","","","",""
"","image-keyboard-response","114","95326","0.0-114.0","3180JW2OT5YHB44YHTK0OS0YHWV5J5","A34YDGVZKRJ0LZ","329E6HTMSWO7MPPIUTRHLR63CI0K3O","","374.7000000476837","img/land2.png","75","375.1999999284744","2","1","2","1,0.5,0.5,0.5,1,0.5,0.5,0.5,1","",""
"","html-keyboard-response","115","95628","0.0-115.0","3180JW2OT5YHB44YHTK0OS0YHWV5J5","A34YDGVZKRJ0LZ","329E6HTMSWO7MPPIUTRHLR63CI0K3O","","null","<img src=""img/land2.png"" style=""width:200px; border:14px solid green;"">","null","","","","","","",""
"","image-keyboard-response","116","96047","0.0-116.0","3180JW2OT5YHB44YHTK0OS0YHWV5J5","A34YDGVZKRJ0LZ","329E6HTMSWO7MPPIUTRHLR63CI0K3O","","418.40000009536743","img/land2.png","75","419.10000002384186","2","1","2","1,0.5,0.5,0.5,1,0.5,0.5,0.5,1","",""
"","html-keyboard-response","117","96349","0.0-117.0","3180JW2OT5YHB44YHTK0OS0YHWV5J5","A34YDGVZKRJ0LZ","329E6HTMSWO7MPPIUTRHLR63CI0K3O","","null","<img src=""img/land2.png"" style=""width:200px; border:14px solid green;"">","null","","","","","","",""
"","image-keyboard-response","118","96750","0.0-118.0","3180JW2OT5YHB44YHTK0OS0YHWV5J5","A34YDGVZKRJ0LZ","329E6HTMSWO7MPPIUTRHLR63CI0K3O","","400.39999997615814","img/land2.png","75","401.2000000476837","2","1","2","1,0.5,0.5,0.5,1,0.5,0.5,0.5,1","",""
"","html-keyboard-response","119","97055","0.0-119.0","3180JW2OT5YHB44YHTK0OS0YHWV5J5","A34YDGVZKRJ0LZ","329E6HTMSWO7MPPIUTRHLR63CI0K3O","","null","<img src=""img/land2.png"" style=""width:200px; border:14px solid green;"">","null","","","","","","",""
"","image-keyboard-response","120","97882","0.0-120.0","3180JW2OT5YHB44YHTK0OS0YHWV5J5","A34YDGVZKRJ0LZ","329E6HTMSWO7MPPIUTRHLR63CI0K3O","","825.9000000953674","img/land3.png","76","826.6999999284744","3","1","3","1,0.5,0.5,0.5,1,0.5,0.5,0.5,1","",""
"","html-keyboard-response","121","98184","0.0-121.0","3180JW2OT5YHB44YHTK0OS0YHWV5J5","A34YDGVZKRJ0LZ","329E6HTMSWO7MPPIUTRHLR63CI0K3O","","null","<img src=""img/land3.png"" style=""width:200px; border:14px solid green;"">","null","","","","","","",""
"","image-keyboard-response","122","98805","0.0-122.0","3180JW2OT5YHB44YHTK0OS0YHWV5J5","A34YDGVZKRJ0LZ","329E6HTMSWO7MPPIUTRHLR63CI0K3O","","620.6000000238419","img/land2.png","74","621.1000000238419","1","1","2","1,0.5,0.5,0.5,1,0.5,0.5,0.5,1","",""
"","html-keyboard-response","123","99106","0.0-123.0","3180JW2OT5YHB44YHTK0OS0YHWV5J5","A34YDGVZKRJ0LZ","329E6HTMSWO7MPPIUTRHLR63CI0K3O","","null","<img src=""img/land2.png"" style=""width:200px; border:14px solid green;"">","null","","","","","","",""
"","image-keyboard-response","124","99830","0.0-124.0","3180JW2OT5YHB44YHTK0OS0YHWV5J5","A34YDGVZKRJ0LZ","329E6HTMSWO7MPPIUTRHLR63CI0K3O","","723.1000000238419","img/land1.png","74","723.8999999761581","1","1","1","1,0.5,0.5,0.5,1,0.5,0.5,0.5,1","",""
"","html-keyboard-response","125","100132","0.0-125.0","3180JW2OT5YHB44YHTK0OS0YHWV5J5","A34YDGVZKRJ0LZ","329E6HTMSWO7MPPIUTRHLR63CI0K3O","","null","<img src=""img/land1.png"" style=""width:200px; border:14px solid green;"">","null","","","","","","",""
"","image-keyboard-response","126","100798","0.0-126.0","3180JW2OT5YHB44YHTK0OS0YHWV5J5","A34YDGVZKRJ0LZ","329E6HTMSWO7MPPIUTRHLR63CI0K3O","","664.7999999523163","img/land2.png","75","665.7000000476837","2","1","2","1,0.5,0.5,0.5,1,0.5,0.5,0.5,1","",""
"","html-keyboard-response","127","101100","0.0-127.0","3180JW2OT5YHB44YHTK0OS0YHWV5J5","A34YDGVZKRJ0LZ","329E6HTMSWO7MPPIUTRHLR63CI0K3O","","null","<img src=""img/land2.png"" style=""width:200px; border:14px solid green;"">","null","","","","","","",""
"","image-keyboard-response","128","101954","0.0-128.0","3180JW2OT5YHB44YHTK0OS0YHWV5J5","A34YDGVZKRJ0LZ","329E6HTMSWO7MPPIUTRHLR63CI0K3O","","853.9000000953674","img/land1.png","74","854.4000000953674","1","1","1","1,0.5,0.5,0.5,1,0.5,0.5,0.5,1","",""
"","html-keyboard-response","129","102255","0.0-129.0","3180JW2OT5YHB44YHTK0OS0YHWV5J5","A34YDGVZKRJ0LZ","329E6HTMSWO7MPPIUTRHLR63CI0K3O","","null","<img src=""img/land1.png"" style=""width:200px; border:14px solid green;"">","null","","","","","","",""
"","image-keyboard-response","130","102840","0.0-130.0","3180JW2OT5YHB44YHTK0OS0YHWV5J5","A34YDGVZKRJ0LZ","329E6HTMSWO7MPPIUTRHLR63CI0K3O","","584.1999999284744","img/land2.png","75","584.6999999284744","2","1","2","1,0.5,0.5,0.5,1,0.5,0.5,0.5,1","",""
"","html-keyboard-response","131","103142","0.0-131.0","3180JW2OT5YHB44YHTK0OS0YHWV5J5","A34YDGVZKRJ0LZ","329E6HTMSWO7MPPIUTRHLR63CI0K3O","","null","<img src=""img/land2.png"" style=""width:200px; border:14px solid green;"">","null","","","","","","",""
"","image-keyboard-response","132","103687","0.0-132.0","3180JW2OT5YHB44YHTK0OS0YHWV5J5","A34YDGVZKRJ0LZ","329E6HTMSWO7MPPIUTRHLR63CI0K3O","","544.8999999761581","img/land1.png","74","545.6000000238419","1","1","1","1,0.5,0.5,0.5,1,0.5,0.5,0.5,1","",""
"","html-keyboard-response","133","103990","0.0-133.0","3180JW2OT5YHB44YHTK0OS0YHWV5J5","A34YDGVZKRJ0LZ","329E6HTMSWO7MPPIUTRHLR63CI0K3O","","null","<img src=""img/land1.png"" style=""width:200px; border:14px solid green;"">","null","","","","","","",""
"","image-keyboard-response","134","104683","0.0-134.0","3180JW2OT5YHB44YHTK0OS0YHWV5J5","A34YDGVZKRJ0LZ","329E6HTMSWO7MPPIUTRHLR63CI0K3O","","692.3000000715256","img/land3.png","76","693.1000000238419","3","1","3","1,0.5,0.5,0.5,1,0.5,0.5,0.5,1","",""
"","html-keyboard-response","135","104984","0.0-135.0","3180JW2OT5YHB44YHTK0OS0YHWV5J5","A34YDGVZKRJ0LZ","329E6HTMSWO7MPPIUTRHLR63CI0K3O","","null","<img src=""img/land3.png"" style=""width:200px; border:14px solid green;"">","null","","","","","","",""
"","image-keyboard-response","136","105384","0.0-136.0","3180JW2OT5YHB44YHTK0OS0YHWV5J5","A34YDGVZKRJ0LZ","329E6HTMSWO7MPPIUTRHLR63CI0K3O","","398.7000000476837","img/land3.png","76","399.2999999523163","3","1","3","1,0.5,0.5,0.5,1,0.5,0.5,0.5,1","",""
"","html-keyboard-response","137","105686","0.0-137.0","3180JW2OT5YHB44YHTK0OS0YHWV5J5","A34YDGVZKRJ0LZ","329E6HTMSWO7MPPIUTRHLR63CI0K3O","","null","<img src=""img/land3.png"" style=""width:200px; border:14px solid green;"">","null","","","","","","",""
"","image-keyboard-response","138","106042","0.0-138.0","3180JW2OT5YHB44YHTK0OS0YHWV5J5","A34YDGVZKRJ0LZ","329E6HTMSWO7MPPIUTRHLR63CI0K3O","","356","img/land3.png","76","356.60000002384186","3","1","3","1,0.5,0.5,0.5,1,0.5,0.5,0.5,1","",""
"","html-keyboard-response","139","106344","0.0-139.0","3180JW2OT5YHB44YHTK0OS0YHWV5J5","A34YDGVZKRJ0LZ","329E6HTMSWO7MPPIUTRHLR63CI0K3O","","null","<img src=""img/land3.png"" style=""width:200px; border:14px solid green;"">","null","","","","","","",""
"","image-keyboard-response","140","106956","0.0-140.0","3180JW2OT5YHB44YHTK0OS0YHWV5J5","A34YDGVZKRJ0LZ","329E6HTMSWO7MPPIUTRHLR63CI0K3O","","610.9000000953674","img/land1.png","74","611.6000000238419","1","1","1","1,0.5,0.5,0.5,1,0.5,0.5,0.5,1","",""
"","html-keyboard-response","141","107260","0.0-141.0","3180JW2OT5YHB44YHTK0OS0YHWV5J5","A34YDGVZKRJ0LZ","329E6HTMSWO7MPPIUTRHLR63CI0K3O","","null","<img src=""img/land1.png"" style=""width:200px; border:14px solid green;"">","null","","","","","","",""
"","image-keyboard-response","142","107664","0.0-142.0","3180JW2OT5YHB44YHTK0OS0YHWV5J5","A34YDGVZKRJ0LZ","329E6HTMSWO7MPPIUTRHLR63CI0K3O","","403.6999999284744","img/land1.png","74","404.40000009536743","1","1","1","1,0.5,0.5,0.5,1,0.5,0.5,0.5,1","",""
"","html-keyboard-response","143","107966","0.0-143.0","3180JW2OT5YHB44YHTK0OS0YHWV5J5","A34YDGVZKRJ0LZ","329E6HTMSWO7MPPIUTRHLR63CI0K3O","","null","<img src=""img/land1.png"" style=""width:200px; border:14px solid green;"">","null","","","","","","",""
"","image-keyboard-response","144","108887","0.0-144.0","3180JW2OT5YHB44YHTK0OS0YHWV5J5","A34YDGVZKRJ0LZ","329E6HTMSWO7MPPIUTRHLR63CI0K3O","","919.5","img/land2.png","75","920","2","1","2","1,0.5,0.5,0.5,1,0.5,0.5,0.5,1","",""
"","html-keyboard-response","145","109189","0.0-145.0","3180JW2OT5YHB44YHTK0OS0YHWV5J5","A34YDGVZKRJ0LZ","329E6HTMSWO7MPPIUTRHLR63CI0K3O","","null","<img src=""img/land2.png"" style=""width:200px; border:14px solid green;"">","null","","","","","","",""
"","image-keyboard-response","146","109512","0.0-146.0","3180JW2OT5YHB44YHTK0OS0YHWV5J5","A34YDGVZKRJ0LZ","329E6HTMSWO7MPPIUTRHLR63CI0K3O","","321.7999999523163","img/land2.png","75","322.3000000715256","2","1","2","1,0.5,0.5,0.5,1,0.5,0.5,0.5,1","",""
"","html-keyboard-response","147","109813","0.0-147.0","3180JW2OT5YHB44YHTK0OS0YHWV5J5","A34YDGVZKRJ0LZ","329E6HTMSWO7MPPIUTRHLR63CI0K3O","","null","<img src=""img/land2.png"" style=""width:200px; border:14px solid green;"">","null","","","","","","",""
"","image-keyboard-response","148","110140","0.0-148.0","3180JW2OT5YHB44YHTK0OS0YHWV5J5","A34YDGVZKRJ0LZ","329E6HTMSWO7MPPIUTRHLR63CI0K3O","","325.89999997615814","img/land2.png","75","326.60000002384186","2","1","2","1,0.5,0.5,0.5,1,0.5,0.5,0.5,1","",""
"","html-keyboard-response","149","110441","0.0-149.0","3180JW2OT5YHB44YHTK0OS0YHWV5J5","A34YDGVZKRJ0LZ","329E6HTMSWO7MPPIUTRHLR63CI0K3O","","null","<img src=""img/land2.png"" style=""width:200px; border:14px solid green;"">","null","","","","","","",""
"","image-keyboard-response","150","111076","0.0-150.0","3180JW2OT5YHB44YHTK0OS0YHWV5J5","A34YDGVZKRJ0LZ","329E6HTMSWO7MPPIUTRHLR63CI0K3O","","634.3000000715256","img/land3.png","76","635.1000000238419","3","1","3","1,0.5,0.5,0.5,1,0.5,0.5,0.5,1","",""
"","html-keyboard-response","151","111377","0.0-151.0","3180JW2OT5YHB44YHTK0OS0YHWV5J5","A34YDGVZKRJ0LZ","329E6HTMSWO7MPPIUTRHLR63CI0K3O","","null","<img src=""img/land3.png"" style=""width:200px; border:14px solid green;"">","null","","","","","","",""
"","image-keyboard-response","152","112605","0.0-152.0","3180JW2OT5YHB44YHTK0OS0YHWV5J5","A34YDGVZKRJ0LZ","329E6HTMSWO7MPPIUTRHLR63CI0K3O","","1226.6000000238419","img/land2.png","75","1227.1000000238419","2","1","2","1,0.5,0.5,0.5,1,0.5,0.5,0.5,1","",""
"","html-keyboard-response","153","112907","0.0-153.0","3180JW2OT5YHB44YHTK0OS0YHWV5J5","A34YDGVZKRJ0LZ","329E6HTMSWO7MPPIUTRHLR63CI0K3O","","null","<img src=""img/land2.png"" style=""width:200px; border:14px solid green;"">","null","","","","","","",""
"","image-keyboard-response","154","113262","0.0-154.0","3180JW2OT5YHB44YHTK0OS0YHWV5J5","A34YDGVZKRJ0LZ","329E6HTMSWO7MPPIUTRHLR63CI0K3O","","354.1999999284744","img/land2.png","75","354.7999999523163","2","1","2","1,0.5,0.5,0.5,1,0.5,0.5,0.5,1","",""
"","html-keyboard-response","155","113563","0.0-155.0","3180JW2OT5YHB44YHTK0OS0YHWV5J5","A34YDGVZKRJ0LZ","329E6HTMSWO7MPPIUTRHLR63CI0K3O","","null","<img src=""img/land2.png"" style=""width:200px; border:14px solid green;"">","null","","","","","","",""
"","image-keyboard-response","156","114097","0.0-156.0","3180JW2OT5YHB44YHTK0OS0YHWV5J5","A34YDGVZKRJ0LZ","329E6HTMSWO7MPPIUTRHLR63CI0K3O","","532.5","img/land3.png","76","533.3000000715256","3","1","3","1,0.5,0.5,0.5,1,0.5,0.5,0.5,1","",""
"","html-keyboard-response","157","114398","0.0-157.0","3180JW2OT5YHB44YHTK0OS0YHWV5J5","A34YDGVZKRJ0LZ","329E6HTMSWO7MPPIUTRHLR63CI0K3O","","null","<img src=""img/land3.png"" style=""width:200px; border:14px solid green;"">","null","","","","","","",""
"","image-keyboard-response","158","114733","0.0-158.0","3180JW2OT5YHB44YHTK0OS0YHWV5J5","A34YDGVZKRJ0LZ","329E6HTMSWO7MPPIUTRHLR63CI0K3O","","333.2999999523163","img/land3.png","76","334","3","1","3","1,0.5,0.5,0.5,1,0.5,0.5,0.5,1","",""
"","html-keyboard-response","159","115034","0.0-159.0","3180JW2OT5YHB44YHTK0OS0YHWV5J5","A34YDGVZKRJ0LZ","329E6HTMSWO7MPPIUTRHLR63CI0K3O","","null","<img src=""img/land3.png"" style=""width:200px; border:14px solid green;"">","null","","","","","","",""
"","image-keyboard-response","160","115784","0.0-160.0","3180JW2OT5YHB44YHTK0OS0YHWV5J5","A34YDGVZKRJ0LZ","329E6HTMSWO7MPPIUTRHLR63CI0K3O","","748.6000000238419","img/land1.png","74","749.2000000476837","1","1","1","1,0.5,0.5,0.5,1,0.5,0.5,0.5,1","",""
"","html-keyboard-response","161","116085","0.0-161.0","3180JW2OT5YHB44YHTK0OS0YHWV5J5","A34YDGVZKRJ0LZ","329E6HTMSWO7MPPIUTRHLR63CI0K3O","","null","<img src=""img/land1.png"" style=""width:200px; border:14px solid green;"">","null","","","","","","",""
"","image-keyboard-response","162","116953","0.0-162.0","3180JW2OT5YHB44YHTK0OS0YHWV5J5","A34YDGVZKRJ0LZ","329E6HTMSWO7MPPIUTRHLR63CI0K3O","","867.5999999046326","img/land2.png","75","868.2000000476837","2","1","2","1,0.5,0.5,0.5,1,0.5,0.5,0.5,1","",""
"","html-keyboard-response","163","117255","0.0-163.0","3180JW2OT5YHB44YHTK0OS0YHWV5J5","A34YDGVZKRJ0LZ","329E6HTMSWO7MPPIUTRHLR63CI0K3O","","null","<img src=""img/land2.png"" style=""width:200px; border:14px solid green;"">","null","","","","","","",""
"","image-keyboard-response","164","117832","0.0-164.0","3180JW2OT5YHB44YHTK0OS0YHWV5J5","A34YDGVZKRJ0LZ","329E6HTMSWO7MPPIUTRHLR63CI0K3O","","576.5","img/land3.png","76","577.1000000238419","3","1","3","1,0.5,0.5,0.5,1,0.5,0.5,0.5,1","",""
"","html-keyboard-response","165","118134","0.0-165.0","3180JW2OT5YHB44YHTK0OS0YHWV5J5","A34YDGVZKRJ0LZ","329E6HTMSWO7MPPIUTRHLR63CI0K3O","","null","<img src=""img/land3.png"" style=""width:200px; border:14px solid green;"">","null","","","","","","",""
"","image-keyboard-response","166","118583","0.0-166.0","3180JW2OT5YHB44YHTK0OS0YHWV5J5","A34YDGVZKRJ0LZ","329E6HTMSWO7MPPIUTRHLR63CI0K3O","","448.89999997615814","img/land3.png","76","449.39999997615814","3","1","3","1,0.5,0.5,0.5,1,0.5,0.5,0.5,1","",""
"","html-keyboard-response","167","118900","0.0-167.0","3180JW2OT5YHB44YHTK0OS0YHWV5J5","A34YDGVZKRJ0LZ","329E6HTMSWO7MPPIUTRHLR63CI0K3O","","null","<img src=""img/land3.png"" style=""width:200px; border:14px solid green;"">","null","","","","","","",""
"","image-keyboard-response","168","119223","0.0-168.0","3180JW2OT5YHB44YHTK0OS0YHWV5J5","A34YDGVZKRJ0LZ","329E6HTMSWO7MPPIUTRHLR63CI0K3O","","322.3000000715256","img/land3.png","76","322.6999999284744","3","1","3","1,0.5,0.5,0.5,1,0.5,0.5,0.5,1","",""
"","html-keyboard-response","169","119524","0.0-169.0","3180JW2OT5YHB44YHTK0OS0YHWV5J5","A34YDGVZKRJ0LZ","329E6HTMSWO7MPPIUTRHLR63CI0K3O","","null","<img src=""img/land3.png"" style=""width:200px; border:14px solid green;"">","null","","","","","","",""
"","html-keyboard-response","170","125247","0.0-170.0","3180JW2OT5YHB44YHTK0OS0YHWV5J5","A34YDGVZKRJ0LZ","329E6HTMSWO7MPPIUTRHLR63CI0K3O","","","","","","","","","","",""
"","image-keyboard-response","171","127200","0.0-171.0","3180JW2OT5YHB44YHTK0OS0YHWV5J5","A34YDGVZKRJ0LZ","329E6HTMSWO7MPPIUTRHLR63CI0K3O","","1951.6000000238419","img/land4.png","74","1952.5999999046326","1","1","1","1,0.5,0.5,0.5,1,0.5,0.5,0.5,1","",""
"","html-keyboard-response","172","127508","0.0-172.0","3180JW2OT5YHB44YHTK0OS0YHWV5J5","A34YDGVZKRJ0LZ","329E6HTMSWO7MPPIUTRHLR63CI0K3O","","null","<img src=""img/land4.png"" style=""width:200px; border:14px solid green;"">","null","","","","","","",""
"","image-keyboard-response","173","128131","0.0-173.0","3180JW2OT5YHB44YHTK0OS0YHWV5J5","A34YDGVZKRJ0LZ","329E6HTMSWO7MPPIUTRHLR63CI0K3O","","622","img/land5.png","75","622.7000000476837","2","1","2","1,0.5,0.5,0.5,1,0.5,0.5,0.5,1","",""
"","html-keyboard-response","174","128433","0.0-174.0","3180JW2OT5YHB44YHTK0OS0YHWV5J5","A34YDGVZKRJ0LZ","329E6HTMSWO7MPPIUTRHLR63CI0K3O","","null","<img src=""img/land5.png"" style=""width:200px; border:14px solid green;"">","null","","","","","","",""
"","image-keyboard-response","175","128832","0.0-175.0","3180JW2OT5YHB44YHTK0OS0YHWV5J5","A34YDGVZKRJ0LZ","329E6HTMSWO7MPPIUTRHLR63CI0K3O","","397.7000000476837","img/land4.png","76","399","3","0","1","1,0.5,0.5,0.5,1,0.5,0.5,0.5,1","",""
"","html-keyboard-response","176","129135","0.0-176.0","3180JW2OT5YHB44YHTK0OS0YHWV5J5","A34YDGVZKRJ0LZ","329E6HTMSWO7MPPIUTRHLR63CI0K3O","","null","<img src=""img/land4.png"" style=""width:200px;border:14px solid red;"">","null","","","","","","",""
"","image-keyboard-response","177","130042","0.0-177.0","3180JW2OT5YHB44YHTK0OS0YHWV5J5","A34YDGVZKRJ0LZ","329E6HTMSWO7MPPIUTRHLR63CI0K3O","","905.5","img/land5.png","74","906.7000000476837","1","0","2","1,0.5,0.5,0.5,1,0.5,0.5,0.5,1","",""
"","html-keyboard-response","178","130343","0.0-178.0","3180JW2OT5YHB44YHTK0OS0YHWV5J5","A34YDGVZKRJ0LZ","329E6HTMSWO7MPPIUTRHLR63CI0K3O","","null","<img src=""img/land5.png"" style=""width:200px;border:14px solid red;"">","null","","","","","","",""
"","image-keyboard-response","179","131368","0.0-179.0","3180JW2OT5YHB44YHTK0OS0YHWV5J5","A34YDGVZKRJ0LZ","329E6HTMSWO7MPPIUTRHLR63CI0K3O","","1023.6000000238419","img/land6.png","74","1024.1000000238419","1","1","3","1,0.5,0.5,0.5,1,0.5,0.5,0.5,1","",""
"","html-keyboard-response","180","131669","0.0-180.0","3180JW2OT5YHB44YHTK0OS0YHWV5J5","A34YDGVZKRJ0LZ","329E6HTMSWO7MPPIUTRHLR63CI0K3O","","null","<img src=""img/land6.png"" style=""width:200px; border:14px solid green;"">","null","","","","","","",""
"","image-keyboard-response","181","132816","0.0-181.0","3180JW2OT5YHB44YHTK0OS0YHWV5J5","A34YDGVZKRJ0LZ","329E6HTMSWO7MPPIUTRHLR63CI0K3O","","1146","img/land5.png","76","1146.6000000238419","3","0","2","1,0.5,0.5,0.5,1,0.5,0.5,0.5,1","",""
"","html-keyboard-response","182","133118","0.0-182.0","3180JW2OT5YHB44YHTK0OS0YHWV5J5","A34YDGVZKRJ0LZ","329E6HTMSWO7MPPIUTRHLR63CI0K3O","","null","<img src=""img/land5.png"" style=""width:200px;border:14px solid red;"">","null","","","","","","",""
"","image-keyboard-response","183","133948","0.0-183.0","3180JW2OT5YHB44YHTK0OS0YHWV5J5","A34YDGVZKRJ0LZ","329E6HTMSWO7MPPIUTRHLR63CI0K3O","","829.3000000715256","img/land4.png","74","830.3000000715256","1","1","1","1,0.5,0.5,0.5,1,0.5,0.5,0.5,1","",""
"","html-keyboard-response","184","134250","0.0-184.0","3180JW2OT5YHB44YHTK0OS0YHWV5J5","A34YDGVZKRJ0LZ","329E6HTMSWO7MPPIUTRHLR63CI0K3O","","null","<img src=""img/land4.png"" style=""width:200px; border:14px solid green;"">","null","","","","","","",""
"","image-keyboard-response","185","134794","0.0-185.0","3180JW2OT5YHB44YHTK0OS0YHWV5J5","A34YDGVZKRJ0LZ","329E6HTMSWO7MPPIUTRHLR63CI0K3O","","543.5","img/land4.png","74","543.7999999523163","1","1","1","1,0.5,0.5,0.5,1,0.5,0.5,0.5,1","",""
"","html-keyboard-response","186","135096","0.0-186.0","3180JW2OT5YHB44YHTK0OS0YHWV5J5","A34YDGVZKRJ0LZ","329E6HTMSWO7MPPIUTRHLR63CI0K3O","","null","<img src=""img/land4.png"" style=""width:200px; border:14px solid green;"">","null","","","","","","",""
"","image-keyboard-response","187","135435","0.0-187.0","3180JW2OT5YHB44YHTK0OS0YHWV5J5","A34YDGVZKRJ0LZ","329E6HTMSWO7MPPIUTRHLR63CI0K3O","","338.60000002384186","img/land4.png","74","339.1999999284744","1","1","1","1,0.5,0.5,0.5,1,0.5,0.5,0.5,1","",""
"","html-keyboard-response","188","135737","0.0-188.0","3180JW2OT5YHB44YHTK0OS0YHWV5J5","A34YDGVZKRJ0LZ","329E6HTMSWO7MPPIUTRHLR63CI0K3O","","null","<img src=""img/land4.png"" style=""width:200px; border:14px solid green;"">","null","","","","","","",""
"","image-keyboard-response","189","136546","0.0-189.0","3180JW2OT5YHB44YHTK0OS0YHWV5J5","A34YDGVZKRJ0LZ","329E6HTMSWO7MPPIUTRHLR63CI0K3O","","808","img/land5.png","75","808.7999999523163","2","1","2","1,0.5,0.5,0.5,1,0.5,0.5,0.5,1","",""
"","html-keyboard-response","190","136847","0.0-190.0","3180JW2OT5YHB44YHTK0OS0YHWV5J5","A34YDGVZKRJ0LZ","329E6HTMSWO7MPPIUTRHLR63CI0K3O","","null","<img src=""img/land5.png"" style=""width:200px; border:14px solid green;"">","null","","","","","","",""
"","image-keyboard-response","191","137679","0.0-191.0","3180JW2OT5YHB44YHTK0OS0YHWV5J5","A34YDGVZKRJ0LZ","329E6HTMSWO7MPPIUTRHLR63CI0K3O","","830.2999999523163","img/land4.png","74","830.8999999761581","1","1","1","1,0.5,0.5,0.5,1,0.5,0.5,0.5,1","",""
"","html-keyboard-response","192","137980","0.0-192.0","3180JW2OT5YHB44YHTK0OS0YHWV5J5","A34YDGVZKRJ0LZ","329E6HTMSWO7MPPIUTRHLR63CI0K3O","","null","<img src=""img/land4.png"" style=""width:200px; border:14px solid green;"">","null","","","","","","",""
"","image-keyboard-response","193","138377","0.0-193.0","3180JW2OT5YHB44YHTK0OS0YHWV5J5","A34YDGVZKRJ0LZ","329E6HTMSWO7MPPIUTRHLR63CI0K3O","","396","img/land4.png","74","396.5","1","1","1","1,0.5,0.5,0.5,1,0.5,0.5,0.5,1","",""
"","html-keyboard-response","194","138678","0.0-194.0","3180JW2OT5YHB44YHTK0OS0YHWV5J5","A34YDGVZKRJ0LZ","329E6HTMSWO7MPPIUTRHLR63CI0K3O","","null","<img src=""img/land4.png"" style=""width:200px; border:14px solid green;"">","null","","","","","","",""
"","image-keyboard-response","195","139258","0.0-195.0","3180JW2OT5YHB44YHTK0OS0YHWV5J5","A34YDGVZKRJ0LZ","329E6HTMSWO7MPPIUTRHLR63CI0K3O","","578.3999999761581","img/land5.png","75","579.0999999046326","2","1","2","1,0.5,0.5,0.5,1,0.5,0.5,0.5,1","",""
"","html-keyboard-response","196","139560","0.0-196.0","3180JW2OT5YHB44YHTK0OS0YHWV5J5","A34YDGVZKRJ0LZ","329E6HTMSWO7MPPIUTRHLR63CI0K3O","","null","<img src=""img/land5.png"" style=""width:200px; border:14px solid green;"">","null","","","","","","",""
"","image-keyboard-response","197","140313","0.0-197.0","3180JW2OT5YHB44YHTK0OS0YHWV5J5","A34YDGVZKRJ0LZ","329E6HTMSWO7MPPIUTRHLR63CI0K3O","","752.6999999284744","img/land4.png","74","753.3999999761581","1","1","1","1,0.5,0.5,0.5,1,0.5,0.5,0.5,1","",""
"","html-keyboard-response","198","140614","0.0-198.0","3180JW2OT5YHB44YHTK0OS0YHWV5J5","A34YDGVZKRJ0LZ","329E6HTMSWO7MPPIUTRHLR63CI0K3O","","null","<img src=""img/land4.png"" style=""width:200px; border:14px solid green;"">","null","","","","","","",""
"","image-keyboard-response","199","141467","0.0-199.0","3180JW2OT5YHB44YHTK0OS0YHWV5J5","A34YDGVZKRJ0LZ","329E6HTMSWO7MPPIUTRHLR63CI0K3O","","851.8999999761581","img/land6.png","76","852.7000000476837","3","1","3","1,0.5,0.5,0.5,1,0.5,0.5,0.5,1","",""
"","html-keyboard-response","200","141768","0.0-200.0","3180JW2OT5YHB44YHTK0OS0YHWV5J5","A34YDGVZKRJ0LZ","329E6HTMSWO7MPPIUTRHLR63CI0K3O","","null","<img src=""img/land6.png"" style=""width:200px; border:14px solid green;"">","null","","","","","","",""
"","image-keyboard-response","201","142174","0.0-201.0","3180JW2OT5YHB44YHTK0OS0YHWV5J5","A34YDGVZKRJ0LZ","329E6HTMSWO7MPPIUTRHLR63CI0K3O","","404.39999997615814","img/land6.png","76","405.3000000715256","3","1","3","1,0.5,0.5,0.5,1,0.5,0.5,0.5,1","",""
"","html-keyboard-response","202","142475","0.0-202.0","3180JW2OT5YHB44YHTK0OS0YHWV5J5","A34YDGVZKRJ0LZ","329E6HTMSWO7MPPIUTRHLR63CI0K3O","","null","<img src=""img/land6.png"" style=""width:200px; border:14px solid green;"">","null","","","","","","",""
"","image-keyboard-response","203","143465","0.0-203.0","3180JW2OT5YHB44YHTK0OS0YHWV5J5","A34YDGVZKRJ0LZ","329E6HTMSWO7MPPIUTRHLR63CI0K3O","","989.1000000238419","img/land5.png","75","989.6999999284744","2","1","2","1,0.5,0.5,0.5,1,0.5,0.5,0.5,1","",""
"","html-keyboard-response","204","143767","0.0-204.0","3180JW2OT5YHB44YHTK0OS0YHWV5J5","A34YDGVZKRJ0LZ","329E6HTMSWO7MPPIUTRHLR63CI0K3O","","null","<img src=""img/land5.png"" style=""width:200px; border:14px solid green;"">","null","","","","","","",""
"","image-keyboard-response","205","144915","0.0-205.0","3180JW2OT5YHB44YHTK0OS0YHWV5J5","A34YDGVZKRJ0LZ","329E6HTMSWO7MPPIUTRHLR63CI0K3O","","1147.9000000953674","img/land6.png","76","1148.5","3","1","3","1,0.5,0.5,0.5,1,0.5,0.5,0.5,1","",""
"","html-keyboard-response","206","145217","0.0-206.0","3180JW2OT5YHB44YHTK0OS0YHWV5J5","A34YDGVZKRJ0LZ","329E6HTMSWO7MPPIUTRHLR63CI0K3O","","null","<img src=""img/land6.png"" style=""width:200px; border:14px solid green;"">","null","","","","","","",""
"","image-keyboard-response","207","145596","0.0-207.0","3180JW2OT5YHB44YHTK0OS0YHWV5J5","A34YDGVZKRJ0LZ","329E6HTMSWO7MPPIUTRHLR63CI0K3O","","377.89999997615814","img/land6.png","76","378.40000009536743","3","1","3","1,0.5,0.5,0.5,1,0.5,0.5,0.5,1","",""
"","html-keyboard-response","208","145897","0.0-208.0","3180JW2OT5YHB44YHTK0OS0YHWV5J5","A34YDGVZKRJ0LZ","329E6HTMSWO7MPPIUTRHLR63CI0K3O","","null","<img src=""img/land6.png"" style=""width:200px; border:14px solid green;"">","null","","","","","","",""
"","image-keyboard-response","209","146772","0.0-209.0","3180JW2OT5YHB44YHTK0OS0YHWV5J5","A34YDGVZKRJ0LZ","329E6HTMSWO7MPPIUTRHLR63CI0K3O","","874","img/land4.png","74","874.8000000715256","1","1","1","1,0.5,0.5,0.5,1,0.5,0.5,0.5,1","",""
"","html-keyboard-response","210","147073","0.0-210.0","3180JW2OT5YHB44YHTK0OS0YHWV5J5","A34YDGVZKRJ0LZ","329E6HTMSWO7MPPIUTRHLR63CI0K3O","","null","<img src=""img/land4.png"" style=""width:200px; border:14px solid green;"">","null","","","","","","",""
"","image-keyboard-response","211","147480","0.0-211.0","3180JW2OT5YHB44YHTK0OS0YHWV5J5","A34YDGVZKRJ0LZ","329E6HTMSWO7MPPIUTRHLR63CI0K3O","","406.1999999284744","img/land4.png","74","406.89999997615814","1","1","1","1,0.5,0.5,0.5,1,0.5,0.5,0.5,1","",""
"","html-keyboard-response","212","147782","0.0-212.0","3180JW2OT5YHB44YHTK0OS0YHWV5J5","A34YDGVZKRJ0LZ","329E6HTMSWO7MPPIUTRHLR63CI0K3O","","null","<img src=""img/land4.png"" style=""width:200px; border:14px solid green;"">","null","","","","","","",""
"","image-keyboard-response","213","148877","0.0-213.0","3180JW2OT5YHB44YHTK0OS0YHWV5J5","A34YDGVZKRJ0LZ","329E6HTMSWO7MPPIUTRHLR63CI0K3O","","1094.6999999284744","img/land5.png","76","1095.2999999523163","3","0","2","1,0.5,0.5,0.5,1,0.5,0.5,0.5,1","",""
"","html-keyboard-response","214","149179","0.0-214.0","3180JW2OT5YHB44YHTK0OS0YHWV5J5","A34YDGVZKRJ0LZ","329E6HTMSWO7MPPIUTRHLR63CI0K3O","","null","<img src=""img/land5.png"" style=""width:200px;border:14px solid red;"">","null","","","","","","",""
"","image-keyboard-response","215","149939","0.0-215.0","3180JW2OT5YHB44YHTK0OS0YHWV5J5","A34YDGVZKRJ0LZ","329E6HTMSWO7MPPIUTRHLR63CI0K3O","","758.6000000238419","img/land4.png","74","759.3000000715256","1","1","1","1,0.5,0.5,0.5,1,0.5,0.5,0.5,1","",""
"","html-keyboard-response","216","150241","0.0-216.0","3180JW2OT5YHB44YHTK0OS0YHWV5J5","A34YDGVZKRJ0LZ","329E6HTMSWO7MPPIUTRHLR63CI0K3O","","null","<img src=""img/land4.png"" style=""width:200px; border:14px solid green;"">","null","","","","","","",""
"","image-keyboard-response","217","150758","0.0-217.0","3180JW2OT5YHB44YHTK0OS0YHWV5J5","A34YDGVZKRJ0LZ","329E6HTMSWO7MPPIUTRHLR63CI0K3O","","516.8999999761581","img/land5.png","75","517.5","2","1","2","1,0.5,0.5,0.5,1,0.5,0.5,0.5,1","",""
"","html-keyboard-response","218","151060","0.0-218.0","3180JW2OT5YHB44YHTK0OS0YHWV5J5","A34YDGVZKRJ0LZ","329E6HTMSWO7MPPIUTRHLR63CI0K3O","","null","<img src=""img/land5.png"" style=""width:200px; border:14px solid green;"">","null","","","","","","",""
"","image-keyboard-response","219","151815","0.0-219.0","3180JW2OT5YHB44YHTK0OS0YHWV5J5","A34YDGVZKRJ0LZ","329E6HTMSWO7MPPIUTRHLR63CI0K3O","","754.2999999523163","img/land4.png","74","754.8000000715256","1","1","1","1,0.5,0.5,0.5,1,0.5,0.5,0.5,1","",""
"","html-keyboard-response","220","152117","0.0-220.0","3180JW2OT5YHB44YHTK0OS0YHWV5J5","A34YDGVZKRJ0LZ","329E6HTMSWO7MPPIUTRHLR63CI0K3O","","null","<img src=""img/land4.png"" style=""width:200px; border:14px solid green;"">","null","","","","","","",""
"","image-keyboard-response","221","152576","0.0-221.0","3180JW2OT5YHB44YHTK0OS0YHWV5J5","A34YDGVZKRJ0LZ","329E6HTMSWO7MPPIUTRHLR63CI0K3O","","457.89999997615814","img/land4.png","74","458.60000002384186","1","1","1","1,0.5,0.5,0.5,1,0.5,0.5,0.5,1","",""
"","html-keyboard-response","222","152878","0.0-222.0","3180JW2OT5YHB44YHTK0OS0YHWV5J5","A34YDGVZKRJ0LZ","329E6HTMSWO7MPPIUTRHLR63CI0K3O","","null","<img src=""img/land4.png"" style=""width:200px; border:14px solid green;"">","null","","","","","","",""
"","image-keyboard-response","223","153655","0.0-223.0","3180JW2OT5YHB44YHTK0OS0YHWV5J5","A34YDGVZKRJ0LZ","329E6HTMSWO7MPPIUTRHLR63CI0K3O","","776.2000000476837","img/land6.png","76","777","3","1","3","1,0.5,0.5,0.5,1,0.5,0.5,0.5,1","",""
"","html-keyboard-response","224","153956","0.0-224.0","3180JW2OT5YHB44YHTK0OS0YHWV5J5","A34YDGVZKRJ0LZ","329E6HTMSWO7MPPIUTRHLR63CI0K3O","","null","<img src=""img/land6.png"" style=""width:200px; border:14px solid green;"">","null","","","","","","",""
"","image-keyboard-response","225","154743","0.0-225.0","3180JW2OT5YHB44YHTK0OS0YHWV5J5","A34YDGVZKRJ0LZ","329E6HTMSWO7MPPIUTRHLR63CI0K3O","","786.1000000238419","img/land4.png","74","786.7999999523163","1","1","1","1,0.5,0.5,0.5,1,0.5,0.5,0.5,1","",""
"","html-keyboard-response","226","155044","0.0-226.0","3180JW2OT5YHB44YHTK0OS0YHWV5J5","A34YDGVZKRJ0LZ","329E6HTMSWO7MPPIUTRHLR63CI0K3O","","null","<img src=""img/land4.png"" style=""width:200px; border:14px solid green;"">","null","","","","","","",""
"","image-keyboard-response","227","155640","0.0-227.0","3180JW2OT5YHB44YHTK0OS0YHWV5J5","A34YDGVZKRJ0LZ","329E6HTMSWO7MPPIUTRHLR63CI0K3O","","594.7999999523163","img/land5.png","75","595.5","2","1","2","1,0.5,0.5,0.5,1,0.5,0.5,0.5,1","",""
"","html-keyboard-response","228","155941","0.0-228.0","3180JW2OT5YHB44YHTK0OS0YHWV5J5","A34YDGVZKRJ0LZ","329E6HTMSWO7MPPIUTRHLR63CI0K3O","","null","<img src=""img/land5.png"" style=""width:200px; border:14px solid green;"">","null","","","","","","",""
"","image-keyboard-response","229","156406","0.0-229.0","3180JW2OT5YHB44YHTK0OS0YHWV5J5","A34YDGVZKRJ0LZ","329E6HTMSWO7MPPIUTRHLR63CI0K3O","","464.1999999284744","img/land5.png","75","464.89999997615814","2","1","2","1,0.5,0.5,0.5,1,0.5,0.5,0.5,1","",""
"","html-keyboard-response","230","156707","0.0-230.0","3180JW2OT5YHB44YHTK0OS0YHWV5J5","A34YDGVZKRJ0LZ","329E6HTMSWO7MPPIUTRHLR63CI0K3O","","null","<img src=""img/land5.png"" style=""width:200px; border:14px solid green;"">","null","","","","","","",""
"","image-keyboard-response","231","157523","0.0-231.0","3180JW2OT5YHB44YHTK0OS0YHWV5J5","A34YDGVZKRJ0LZ","329E6HTMSWO7MPPIUTRHLR63CI0K3O","","815.0999999046326","img/land4.png","74","815.8999999761581","1","1","1","1,0.5,0.5,0.5,1,0.5,0.5,0.5,1","",""
"","html-keyboard-response","232","157824","0.0-232.0","3180JW2OT5YHB44YHTK0OS0YHWV5J5","A34YDGVZKRJ0LZ","329E6HTMSWO7MPPIUTRHLR63CI0K3O","","null","<img src=""img/land4.png"" style=""width:200px; border:14px solid green;"">","null","","","","","","",""
"","image-keyboard-response","233","158237","0.0-233.0","3180JW2OT5YHB44YHTK0OS0YHWV5J5","A34YDGVZKRJ0LZ","329E6HTMSWO7MPPIUTRHLR63CI0K3O","","412.3000000715256","img/land4.png","74","412.7999999523163","1","1","1","1,0.5,0.5,0.5,1,0.5,0.5,0.5,1","",""
"","html-keyboard-response","234","158539","0.0-234.0","3180JW2OT5YHB44YHTK0OS0YHWV5J5","A34YDGVZKRJ0LZ","329E6HTMSWO7MPPIUTRHLR63CI0K3O","","null","<img src=""img/land4.png"" style=""width:200px; border:14px solid green;"">","null","","","","","","",""
"","image-keyboard-response","235","158879","0.0-235.0","3180JW2OT5YHB44YHTK0OS0YHWV5J5","A34YDGVZKRJ0LZ","329E6HTMSWO7MPPIUTRHLR63CI0K3O","","338.6999999284744","img/land4.png","74","339.2000000476837","1","1","1","1,0.5,0.5,0.5,1,0.5,0.5,0.5,1","",""
"","html-keyboard-response","236","159181","0.0-236.0","3180JW2OT5YHB44YHTK0OS0YHWV5J5","A34YDGVZKRJ0LZ","329E6HTMSWO7MPPIUTRHLR63CI0K3O","","null","<img src=""img/land4.png"" style=""width:200px; border:14px solid green;"">","null","","","","","","",""
"","image-keyboard-response","237","159525","0.0-237.0","3180JW2OT5YHB44YHTK0OS0YHWV5J5","A34YDGVZKRJ0LZ","329E6HTMSWO7MPPIUTRHLR63CI0K3O","","343","img/land4.png","74","343.8000000715256","1","1","1","1,0.5,0.5,0.5,1,0.5,0.5,0.5,1","",""
"","html-keyboard-response","238","159827","0.0-238.0","3180JW2OT5YHB44YHTK0OS0YHWV5J5","A34YDGVZKRJ0LZ","329E6HTMSWO7MPPIUTRHLR63CI0K3O","","null","<img src=""img/land4.png"" style=""width:200px; border:14px solid green;"">","null","","","","","","",""
"","image-keyboard-response","239","160161","0.0-239.0","3180JW2OT5YHB44YHTK0OS0YHWV5J5","A34YDGVZKRJ0LZ","329E6HTMSWO7MPPIUTRHLR63CI0K3O","","333.3000000715256","img/land4.png","74","333.89999997615814","1","1","1","1,0.5,0.5,0.5,1,0.5,0.5,0.5,1","",""
"","html-keyboard-response","240","160463","0.0-240.0","3180JW2OT5YHB44YHTK0OS0YHWV5J5","A34YDGVZKRJ0LZ","329E6HTMSWO7MPPIUTRHLR63CI0K3O","","null","<img src=""img/land4.png"" style=""width:200px; border:14px solid green;"">","null","","","","","","",""
"","image-keyboard-response","241","160804","0.0-241.0","3180JW2OT5YHB44YHTK0OS0YHWV5J5","A34YDGVZKRJ0LZ","329E6HTMSWO7MPPIUTRHLR63CI0K3O","","340.5","img/land4.png","74","341.3000000715256","1","1","1","1,0.5,0.5,0.5,1,0.5,0.5,0.5,1","",""
"","html-keyboard-response","242","161106","0.0-242.0","3180JW2OT5YHB44YHTK0OS0YHWV5J5","A34YDGVZKRJ0LZ","329E6HTMSWO7MPPIUTRHLR63CI0K3O","","null","<img src=""img/land4.png"" style=""width:200px; border:14px solid green;"">","null","","","","","","",""
"","image-keyboard-response","243","161966","0.0-243.0","3180JW2OT5YHB44YHTK0OS0YHWV5J5","A34YDGVZKRJ0LZ","329E6HTMSWO7MPPIUTRHLR63CI0K3O","","859.2999999523163","img/land6.png","76","859.7999999523163","3","1","3","1,0.5,0.5,0.5,1,0.5,0.5,0.5,1","",""
"","html-keyboard-response","244","162267","0.0-244.0","3180JW2OT5YHB44YHTK0OS0YHWV5J5","A34YDGVZKRJ0LZ","329E6HTMSWO7MPPIUTRHLR63CI0K3O","","null","<img src=""img/land6.png"" style=""width:200px; border:14px solid green;"">","null","","","","","","",""
"","image-keyboard-response","245","162643","0.0-245.0","3180JW2OT5YHB44YHTK0OS0YHWV5J5","A34YDGVZKRJ0LZ","329E6HTMSWO7MPPIUTRHLR63CI0K3O","","374.60000002384186","img/land6.png","76","375.40000009536743","3","1","3","1,0.5,0.5,0.5,1,0.5,0.5,0.5,1","",""
"","html-keyboard-response","246","162944","0.0-246.0","3180JW2OT5YHB44YHTK0OS0YHWV5J5","A34YDGVZKRJ0LZ","329E6HTMSWO7MPPIUTRHLR63CI0K3O","","null","<img src=""img/land6.png"" style=""width:200px; border:14px solid green;"">","null","","","","","","",""
"","image-keyboard-response","247","163706","0.0-247.0","3180JW2OT5YHB44YHTK0OS0YHWV5J5","A34YDGVZKRJ0LZ","329E6HTMSWO7MPPIUTRHLR63CI0K3O","","760.8999999761581","img/land5.png","75","761.5","2","1","2","1,0.5,0.5,0.5,1,0.5,0.5,0.5,1","",""
"","html-keyboard-response","248","164007","0.0-248.0","3180JW2OT5YHB44YHTK0OS0YHWV5J5","A34YDGVZKRJ0LZ","329E6HTMSWO7MPPIUTRHLR63CI0K3O","","null","<img src=""img/land5.png"" style=""width:200px; border:14px solid green;"">","null","","","","","","",""
"","image-keyboard-response","249","164779","0.0-249.0","3180JW2OT5YHB44YHTK0OS0YHWV5J5","A34YDGVZKRJ0LZ","329E6HTMSWO7MPPIUTRHLR63CI0K3O","","771.2000000476837","img/land6.png","76","771.9000000953674","3","1","3","1,0.5,0.5,0.5,1,0.5,0.5,0.5,1","",""
"","html-keyboard-response","250","165080","0.0-250.0","3180JW2OT5YHB44YHTK0OS0YHWV5J5","A34YDGVZKRJ0LZ","329E6HTMSWO7MPPIUTRHLR63CI0K3O","","null","<img src=""img/land6.png"" style=""width:200px; border:14px solid green;"">","null","","","","","","",""
"","image-keyboard-response","251","165809","0.0-251.0","3180JW2OT5YHB44YHTK0OS0YHWV5J5","A34YDGVZKRJ0LZ","329E6HTMSWO7MPPIUTRHLR63CI0K3O","","727.7999999523163","img/land4.png","74","728.5999999046326","1","1","1","1,0.5,0.5,0.5,1,0.5,0.5,0.5,1","",""
"","html-keyboard-response","252","166110","0.0-252.0","3180JW2OT5YHB44YHTK0OS0YHWV5J5","A34YDGVZKRJ0LZ","329E6HTMSWO7MPPIUTRHLR63CI0K3O","","null","<img src=""img/land4.png"" style=""width:200px; border:14px solid green;"">","null","","","","","","",""
"","image-keyboard-response","253","166902","0.0-253.0","3180JW2OT5YHB44YHTK0OS0YHWV5J5","A34YDGVZKRJ0LZ","329E6HTMSWO7MPPIUTRHLR63CI0K3O","","790.1999999284744","img/land5.png","75","790.7000000476837","2","1","2","1,0.5,0.5,0.5,1,0.5,0.5,0.5,1","",""
"","html-keyboard-response","254","167203","0.0-254.0","3180JW2OT5YHB44YHTK0OS0YHWV5J5","A34YDGVZKRJ0LZ","329E6HTMSWO7MPPIUTRHLR63CI0K3O","","null","<img src=""img/land5.png"" style=""width:200px; border:14px solid green;"">","null","","","","","","",""
"","image-keyboard-response","255","168000","0.0-255.0","3180JW2OT5YHB44YHTK0OS0YHWV5J5","A34YDGVZKRJ0LZ","329E6HTMSWO7MPPIUTRHLR63CI0K3O","","795.6000000238419","img/land4.png","74","796.2000000476837","1","1","1","1,0.5,0.5,0.5,1,0.5,0.5,0.5,1","",""
"","html-keyboard-response","256","168302","0.0-256.0","3180JW2OT5YHB44YHTK0OS0YHWV5J5","A34YDGVZKRJ0LZ","329E6HTMSWO7MPPIUTRHLR63CI0K3O","","null","<img src=""img/land4.png"" style=""width:200px; border:14px solid green;"">","null","","","","","","",""
"","image-keyboard-response","257","169066","0.0-257.0","3180JW2OT5YHB44YHTK0OS0YHWV5J5","A34YDGVZKRJ0LZ","329E6HTMSWO7MPPIUTRHLR63CI0K3O","","763.3000000715256","img/land6.png","76","763.8999999761581","3","1","3","1,0.5,0.5,0.5,1,0.5,0.5,0.5,1","",""
"","html-keyboard-response","258","169368","0.0-258.0","3180JW2OT5YHB44YHTK0OS0YHWV5J5","A34YDGVZKRJ0LZ","329E6HTMSWO7MPPIUTRHLR63CI0K3O","","null","<img src=""img/land6.png"" style=""width:200px; border:14px solid green;"">","null","","","","","","",""
"","image-keyboard-response","259","170164","0.0-259.0","3180JW2OT5YHB44YHTK0OS0YHWV5J5","A34YDGVZKRJ0LZ","329E6HTMSWO7MPPIUTRHLR63CI0K3O","","795.6000000238419","img/land4.png","74","796.3000000715256","1","1","1","1,0.5,0.5,0.5,1,0.5,0.5,0.5,1","",""
"","html-keyboard-response","260","170465","0.0-260.0","3180JW2OT5YHB44YHTK0OS0YHWV5J5","A34YDGVZKRJ0LZ","329E6HTMSWO7MPPIUTRHLR63CI0K3O","","null","<img src=""img/land4.png"" style=""width:200px; border:14px solid green;"">","null","","","","","","",""
"","image-keyboard-response","261","171184","0.0-261.0","3180JW2OT5YHB44YHTK0OS0YHWV5J5","A34YDGVZKRJ0LZ","329E6HTMSWO7MPPIUTRHLR63CI0K3O","","717.5","img/land6.png","76","718.3000000715256","3","1","3","1,0.5,0.5,0.5,1,0.5,0.5,0.5,1","",""
"","html-keyboard-response","262","171486","0.0-262.0","3180JW2OT5YHB44YHTK0OS0YHWV5J5","A34YDGVZKRJ0LZ","329E6HTMSWO7MPPIUTRHLR63CI0K3O","","null","<img src=""img/land6.png"" style=""width:200px; border:14px solid green;"">","null","","","","","","",""
"","image-keyboard-response","263","172197","0.0-263.0","3180JW2OT5YHB44YHTK0OS0YHWV5J5","A34YDGVZKRJ0LZ","329E6HTMSWO7MPPIUTRHLR63CI0K3O","","710.3999999761581","img/land4.png","74","711.1000000238419","1","1","1","1,0.5,0.5,0.5,1,0.5,0.5,0.5,1","",""
"","html-keyboard-response","264","172499","0.0-264.0","3180JW2OT5YHB44YHTK0OS0YHWV5J5","A34YDGVZKRJ0LZ","329E6HTMSWO7MPPIUTRHLR63CI0K3O","","null","<img src=""img/land4.png"" style=""width:200px; border:14px solid green;"">","null","","","","","","",""
"","image-keyboard-response","265","172989","0.0-265.0","3180JW2OT5YHB44YHTK0OS0YHWV5J5","A34YDGVZKRJ0LZ","329E6HTMSWO7MPPIUTRHLR63CI0K3O","","490.2000000476837","img/land4.png","74","490.6999999284744","1","1","1","1,0.5,0.5,0.5,1,0.5,0.5,0.5,1","",""
"","html-keyboard-response","266","173291","0.0-266.0","3180JW2OT5YHB44YHTK0OS0YHWV5J5","A34YDGVZKRJ0LZ","329E6HTMSWO7MPPIUTRHLR63CI0K3O","","null","<img src=""img/land4.png"" style=""width:200px; border:14px solid green;"">","null","","","","","","",""
"","image-keyboard-response","267","173589","0.0-267.0","3180JW2OT5YHB44YHTK0OS0YHWV5J5","A34YDGVZKRJ0LZ","329E6HTMSWO7MPPIUTRHLR63CI0K3O","","297.10000002384186","img/land4.png","74","297.60000002384186","1","1","1","1,0.5,0.5,0.5,1,0.5,0.5,0.5,1","",""
"","html-keyboard-response","268","173891","0.0-268.0","3180JW2OT5YHB44YHTK0OS0YHWV5J5","A34YDGVZKRJ0LZ","329E6HTMSWO7MPPIUTRHLR63CI0K3O","","null","<img src=""img/land4.png"" style=""width:200px; border:14px solid green;"">","null","","","","","","",""
"","image-keyboard-response","269","174218","0.0-269.0","3180JW2OT5YHB44YHTK0OS0YHWV5J5","A34YDGVZKRJ0LZ","329E6HTMSWO7MPPIUTRHLR63CI0K3O","","326.5","img/land5.png","74","327.1999999284744","1","1","2","1,0.5,0.5,0.5,1,0.5,0.5,0.5,1","",""
"","html-keyboard-response","270","174531","0.0-270.0","3180JW2OT5YHB44YHTK0OS0YHWV5J5","A34YDGVZKRJ0LZ","329E6HTMSWO7MPPIUTRHLR63CI0K3O","","null","<img src=""img/land5.png"" style=""width:200px; border:14px solid green;"">","null","","","","","","",""
"","image-keyboard-response","271","175365","0.0-271.0","3180JW2OT5YHB44YHTK0OS0YHWV5J5","A34YDGVZKRJ0LZ","329E6HTMSWO7MPPIUTRHLR63CI0K3O","","832.8999999761581","img/land4.png","74","833.8999999761581","1","1","1","1,0.5,0.5,0.5,1,0.5,0.5,0.5,1","",""
"","html-keyboard-response","272","175667","0.0-272.0","3180JW2OT5YHB44YHTK0OS0YHWV5J5","A34YDGVZKRJ0LZ","329E6HTMSWO7MPPIUTRHLR63CI0K3O","","null","<img src=""img/land4.png"" style=""width:200px; border:14px solid green;"">","null","","","","","","",""
"","image-keyboard-response","273","176330","0.0-273.0","3180JW2OT5YHB44YHTK0OS0YHWV5J5","A34YDGVZKRJ0LZ","329E6HTMSWO7MPPIUTRHLR63CI0K3O","","662","img/land5.png","75","662.7999999523163","2","1","2","1,0.5,0.5,0.5,1,0.5,0.5,0.5,1","",""
"","html-keyboard-response","274","176632","0.0-274.0","3180JW2OT5YHB44YHTK0OS0YHWV5J5","A34YDGVZKRJ0LZ","329E6HTMSWO7MPPIUTRHLR63CI0K3O","","null","<img src=""img/land5.png"" style=""width:200px; border:14px solid green;"">","null","","","","","","",""
"","image-keyboard-response","275","177043","0.0-275.0","3180JW2OT5YHB44YHTK0OS0YHWV5J5","A34YDGVZKRJ0LZ","329E6HTMSWO7MPPIUTRHLR63CI0K3O","","410","img/land5.png","75","410.7000000476837","2","1","2","1,0.5,0.5,0.5,1,0.5,0.5,0.5,1","",""
"","html-keyboard-response","276","177345","0.0-276.0","3180JW2OT5YHB44YHTK0OS0YHWV5J5","A34YDGVZKRJ0LZ","329E6HTMSWO7MPPIUTRHLR63CI0K3O","","null","<img src=""img/land5.png"" style=""width:200px; border:14px solid green;"">","null","","","","","","",""
"","image-keyboard-response","277","178091","0.0-277.0","3180JW2OT5YHB44YHTK0OS0YHWV5J5","A34YDGVZKRJ0LZ","329E6HTMSWO7MPPIUTRHLR63CI0K3O","","745.7000000476837","img/land4.png","74","746.3000000715256","1","1","1","1,0.5,0.5,0.5,1,0.5,0.5,0.5,1","",""
"","html-keyboard-response","278","178392","0.0-278.0","3180JW2OT5YHB44YHTK0OS0YHWV5J5","A34YDGVZKRJ0LZ","329E6HTMSWO7MPPIUTRHLR63CI0K3O","","null","<img src=""img/land4.png"" style=""width:200px; border:14px solid green;"">","null","","","","","","",""
"","image-keyboard-response","279","179115","0.0-279.0","3180JW2OT5YHB44YHTK0OS0YHWV5J5","A34YDGVZKRJ0LZ","329E6HTMSWO7MPPIUTRHLR63CI0K3O","","722.1999999284744","img/land6.png","76","722.8000000715256","3","1","3","1,0.5,0.5,0.5,1,0.5,0.5,0.5,1","",""
"","html-keyboard-response","280","179422","0.0-280.0","3180JW2OT5YHB44YHTK0OS0YHWV5J5","A34YDGVZKRJ0LZ","329E6HTMSWO7MPPIUTRHLR63CI0K3O","","null","<img src=""img/land6.png"" style=""width:200px; border:14px solid green;"">","null","","","","","","",""
"","image-keyboard-response","281","180280","0.0-281.0","3180JW2OT5YHB44YHTK0OS0YHWV5J5","A34YDGVZKRJ0LZ","329E6HTMSWO7MPPIUTRHLR63CI0K3O","","857.1000000238419","img/land4.png","74","857.7000000476837","1","1","1","1,0.5,0.5,0.5,1,0.5,0.5,0.5,1","",""
"","html-keyboard-response","282","180582","0.0-282.0","3180JW2OT5YHB44YHTK0OS0YHWV5J5","A34YDGVZKRJ0LZ","329E6HTMSWO7MPPIUTRHLR63CI0K3O","","null","<img src=""img/land4.png"" style=""width:200px; border:14px solid green;"">","null","","","","","","",""
"","image-keyboard-response","283","181008","0.0-283.0","3180JW2OT5YHB44YHTK0OS0YHWV5J5","A34YDGVZKRJ0LZ","329E6HTMSWO7MPPIUTRHLR63CI0K3O","","425.39999997615814","img/land4.png","74","426","1","1","1","1,0.5,0.5,0.5,1,0.5,0.5,0.5,1","",""
"","html-keyboard-response","284","181310","0.0-284.0","3180JW2OT5YHB44YHTK0OS0YHWV5J5","A34YDGVZKRJ0LZ","329E6HTMSWO7MPPIUTRHLR63CI0K3O","","null","<img src=""img/land4.png"" style=""width:200px; border:14px solid green;"">","null","","","","","","",""
"","image-keyboard-response","285","181627","0.0-285.0","3180JW2OT5YHB44YHTK0OS0YHWV5J5","A34YDGVZKRJ0LZ","329E6HTMSWO7MPPIUTRHLR63CI0K3O","","315.90000009536743","img/land4.png","74","316.60000002384186","1","1","1","1,0.5,0.5,0.5,1,0.5,0.5,0.5,1","",""
"","html-keyboard-response","286","181928","0.0-286.0","3180JW2OT5YHB44YHTK0OS0YHWV5J5","A34YDGVZKRJ0LZ","329E6HTMSWO7MPPIUTRHLR63CI0K3O","","null","<img src=""img/land4.png"" style=""width:200px; border:14px solid green;"">","null","","","","","","",""
"","image-keyboard-response","287","182944","0.0-287.0","3180JW2OT5YHB44YHTK0OS0YHWV5J5","A34YDGVZKRJ0LZ","329E6HTMSWO7MPPIUTRHLR63CI0K3O","","1014.5","img/land6.png","75","1015.2000000476837","2","0","3","1,0.5,0.5,0.5,1,0.5,0.5,0.5,1","",""
"","html-keyboard-response","288","183246","0.0-288.0","3180JW2OT5YHB44YHTK0OS0YHWV5J5","A34YDGVZKRJ0LZ","329E6HTMSWO7MPPIUTRHLR63CI0K3O","","null","<img src=""img/land6.png"" style=""width:200px;border:14px solid red;"">","null","","","","","","",""
"","image-keyboard-response","289","184061","0.0-289.0","3180JW2OT5YHB44YHTK0OS0YHWV5J5","A34YDGVZKRJ0LZ","329E6HTMSWO7MPPIUTRHLR63CI0K3O","","814.3000000715256","img/land4.png","74","815","1","1","1","1,0.5,0.5,0.5,1,0.5,0.5,0.5,1","",""
"","html-keyboard-response","290","184362","0.0-290.0","3180JW2OT5YHB44YHTK0OS0YHWV5J5","A34YDGVZKRJ0LZ","329E6HTMSWO7MPPIUTRHLR63CI0K3O","","null","<img src=""img/land4.png"" style=""width:200px; border:14px solid green;"">","null","","","","","","",""
"","image-keyboard-response","291","184767","0.0-291.0","3180JW2OT5YHB44YHTK0OS0YHWV5J5","A34YDGVZKRJ0LZ","329E6HTMSWO7MPPIUTRHLR63CI0K3O","","404.3000000715256","img/land4.png","74","404.89999997615814","1","1","1","1,0.5,0.5,0.5,1,0.5,0.5,0.5,1","",""
"","html-keyboard-response","292","185069","0.0-292.0","3180JW2OT5YHB44YHTK0OS0YHWV5J5","A34YDGVZKRJ0LZ","329E6HTMSWO7MPPIUTRHLR63CI0K3O","","null","<img src=""img/land4.png"" style=""width:200px; border:14px solid green;"">","null","","","","","","",""
"","image-keyboard-response","293","185380","0.0-293.0","3180JW2OT5YHB44YHTK0OS0YHWV5J5","A34YDGVZKRJ0LZ","329E6HTMSWO7MPPIUTRHLR63CI0K3O","","310.5","img/land4.png","74","311.1999999284744","1","1","1","1,0.5,0.5,0.5,1,0.5,0.5,0.5,1","",""
"","html-keyboard-response","294","185682","0.0-294.0","3180JW2OT5YHB44YHTK0OS0YHWV5J5","A34YDGVZKRJ0LZ","329E6HTMSWO7MPPIUTRHLR63CI0K3O","","null","<img src=""img/land4.png"" style=""width:200px; border:14px solid green;"">","null","","","","","","",""
"","image-keyboard-response","295","186462","0.0-295.0","3180JW2OT5YHB44YHTK0OS0YHWV5J5","A34YDGVZKRJ0LZ","329E6HTMSWO7MPPIUTRHLR63CI0K3O","","778.6000000238419","img/land5.png","75","779.1999999284744","2","1","2","1,0.5,0.5,0.5,1,0.5,0.5,0.5,1","",""
"","html-keyboard-response","296","186764","0.0-296.0","3180JW2OT5YHB44YHTK0OS0YHWV5J5","A34YDGVZKRJ0LZ","329E6HTMSWO7MPPIUTRHLR63CI0K3O","","null","<img src=""img/land5.png"" style=""width:200px; border:14px solid green;"">","null","","","","","","",""
"","image-keyboard-response","297","187459","0.0-297.0","3180JW2OT5YHB44YHTK0OS0YHWV5J5","A34YDGVZKRJ0LZ","329E6HTMSWO7MPPIUTRHLR63CI0K3O","","694.3999999761581","img/land6.png","76","695.2000000476837","3","1","3","1,0.5,0.5,0.5,1,0.5,0.5,0.5,1","",""
"","html-keyboard-response","298","187761","0.0-298.0","3180JW2OT5YHB44YHTK0OS0YHWV5J5","A34YDGVZKRJ0LZ","329E6HTMSWO7MPPIUTRHLR63CI0K3O","","null","<img src=""img/land6.png"" style=""width:200px; border:14px solid green;"">","null","","","","","","",""
"","image-keyboard-response","299","188137","0.0-299.0","3180JW2OT5YHB44YHTK0OS0YHWV5J5","A34YDGVZKRJ0LZ","329E6HTMSWO7MPPIUTRHLR63CI0K3O","","375.2000000476837","img/land6.png","76","375.89999997615814","3","1","3","1,0.5,0.5,0.5,1,0.5,0.5,0.5,1","",""
"","html-keyboard-response","300","188438","0.0-300.0","3180JW2OT5YHB44YHTK0OS0YHWV5J5","A34YDGVZKRJ0LZ","329E6HTMSWO7MPPIUTRHLR63CI0K3O","","null","<img src=""img/land6.png"" style=""width:200px; border:14px solid green;"">","null","","","","","","",""
"","image-keyboard-response","301","188771","0.0-301.0","3180JW2OT5YHB44YHTK0OS0YHWV5J5","A34YDGVZKRJ0LZ","329E6HTMSWO7MPPIUTRHLR63CI0K3O","","331.60000002384186","img/land6.png","76","332.2999999523163","3","1","3","1,0.5,0.5,0.5,1,0.5,0.5,0.5,1","",""
"","html-keyboard-response","302","189072","0.0-302.0","3180JW2OT5YHB44YHTK0OS0YHWV5J5","A34YDGVZKRJ0LZ","329E6HTMSWO7MPPIUTRHLR63CI0K3O","","null","<img src=""img/land6.png"" style=""width:200px; border:14px solid green;"">","null","","","","","","",""
"","image-keyboard-response","303","189708","0.0-303.0","3180JW2OT5YHB44YHTK0OS0YHWV5J5","A34YDGVZKRJ0LZ","329E6HTMSWO7MPPIUTRHLR63CI0K3O","","635","img/land4.png","74","635.6000000238419","1","1","1","1,0.5,0.5,0.5,1,0.5,0.5,0.5,1","",""
"","html-keyboard-response","304","190009","0.0-304.0","3180JW2OT5YHB44YHTK0OS0YHWV5J5","A34YDGVZKRJ0LZ","329E6HTMSWO7MPPIUTRHLR63CI0K3O","","null","<img src=""img/land4.png"" style=""width:200px; border:14px solid green;"">","null","","","","","","",""
"","image-keyboard-response","305","190472","0.0-305.0","3180JW2OT5YHB44YHTK0OS0YHWV5J5","A34YDGVZKRJ0LZ","329E6HTMSWO7MPPIUTRHLR63CI0K3O","","462.6999999284744","img/land4.png","74","463.2000000476837","1","1","1","1,0.5,0.5,0.5,1,0.5,0.5,0.5,1","",""
"","html-keyboard-response","306","190774","0.0-306.0","3180JW2OT5YHB44YHTK0OS0YHWV5J5","A34YDGVZKRJ0LZ","329E6HTMSWO7MPPIUTRHLR63CI0K3O","","null","<img src=""img/land4.png"" style=""width:200px; border:14px solid green;"">","null","","","","","","",""
"","image-keyboard-response","307","191646","0.0-307.0","3180JW2OT5YHB44YHTK0OS0YHWV5J5","A34YDGVZKRJ0LZ","329E6HTMSWO7MPPIUTRHLR63CI0K3O","","871.6000000238419","img/land5.png","75","872.3999999761581","2","1","2","1,0.5,0.5,0.5,1,0.5,0.5,0.5,1","",""
"","html-keyboard-response","308","191948","0.0-308.0","3180JW2OT5YHB44YHTK0OS0YHWV5J5","A34YDGVZKRJ0LZ","329E6HTMSWO7MPPIUTRHLR63CI0K3O","","null","<img src=""img/land5.png"" style=""width:200px; border:14px solid green;"">","null","","","","","","",""
"","image-keyboard-response","309","192973","0.0-309.0","3180JW2OT5YHB44YHTK0OS0YHWV5J5","A34YDGVZKRJ0LZ","329E6HTMSWO7MPPIUTRHLR63CI0K3O","","1024.6999999284744","img/land6.png","76","1025.6000000238419","3","1","3","1,0.5,0.5,0.5,1,0.5,0.5,0.5,1","",""
"","html-keyboard-response","310","193275","0.0-310.0","3180JW2OT5YHB44YHTK0OS0YHWV5J5","A34YDGVZKRJ0LZ","329E6HTMSWO7MPPIUTRHLR63CI0K3O","","null","<img src=""img/land6.png"" style=""width:200px; border:14px solid green;"">","null","","","","","","",""
"","image-keyboard-response","311","194018","0.0-311.0","3180JW2OT5YHB44YHTK0OS0YHWV5J5","A34YDGVZKRJ0LZ","329E6HTMSWO7MPPIUTRHLR63CI0K3O","","742.5999999046326","img/land4.png","74","743.2000000476837","1","1","1","1,0.5,0.5,0.5,1,0.5,0.5,0.5,1","",""
"","html-keyboard-response","312","194319","0.0-312.0","3180JW2OT5YHB44YHTK0OS0YHWV5J5","A34YDGVZKRJ0LZ","329E6HTMSWO7MPPIUTRHLR63CI0K3O","","null","<img src=""img/land4.png"" style=""width:200px; border:14px solid green;"">","null","","","","","","",""
"","image-keyboard-response","313","194801","0.0-313.0","3180JW2OT5YHB44YHTK0OS0YHWV5J5","A34YDGVZKRJ0LZ","329E6HTMSWO7MPPIUTRHLR63CI0K3O","","481","img/land4.png","74","481.5","1","1","1","1,0.5,0.5,0.5,1,0.5,0.5,0.5,1","",""
"","html-keyboard-response","314","195104","0.0-314.0","3180JW2OT5YHB44YHTK0OS0YHWV5J5","A34YDGVZKRJ0LZ","329E6HTMSWO7MPPIUTRHLR63CI0K3O","","null","<img src=""img/land4.png"" style=""width:200px; border:14px solid green;"">","null","","","","","","",""
"","image-keyboard-response","315","195462","0.0-315.0","3180JW2OT5YHB44YHTK0OS0YHWV5J5","A34YDGVZKRJ0LZ","329E6HTMSWO7MPPIUTRHLR63CI0K3O","","357.5","img/land4.png","74","358.10000002384186","1","1","1","1,0.5,0.5,0.5,1,0.5,0.5,0.5,1","",""
"","html-keyboard-response","316","195764","0.0-316.0","3180JW2OT5YHB44YHTK0OS0YHWV5J5","A34YDGVZKRJ0LZ","329E6HTMSWO7MPPIUTRHLR63CI0K3O","","null","<img src=""img/land4.png"" style=""width:200px; border:14px solid green;"">","null","","","","","","",""
"","image-keyboard-response","317","196512","0.0-317.0","3180JW2OT5YHB44YHTK0OS0YHWV5J5","A34YDGVZKRJ0LZ","329E6HTMSWO7MPPIUTRHLR63CI0K3O","","747.3999999761581","img/land5.png","75","747.8999999761581","2","1","2","1,0.5,0.5,0.5,1,0.5,0.5,0.5,1","",""
"","html-keyboard-response","318","196813","0.0-318.0","3180JW2OT5YHB44YHTK0OS0YHWV5J5","A34YDGVZKRJ0LZ","329E6HTMSWO7MPPIUTRHLR63CI0K3O","","null","<img src=""img/land5.png"" style=""width:200px; border:14px solid green;"">","null","","","","","","",""
"","image-keyboard-response","319","197215","0.0-319.0","3180JW2OT5YHB44YHTK0OS0YHWV5J5","A34YDGVZKRJ0LZ","329E6HTMSWO7MPPIUTRHLR63CI0K3O","","400.8000000715256","img/land5.png","75","401.5","2","1","2","1,0.5,0.5,0.5,1,0.5,0.5,0.5,1","",""
"","html-keyboard-response","320","197517","0.0-320.0","3180JW2OT5YHB44YHTK0OS0YHWV5J5","A34YDGVZKRJ0LZ","329E6HTMSWO7MPPIUTRHLR63CI0K3O","","null","<img src=""img/land5.png"" style=""width:200px; border:14px solid green;"">","null","","","","","","",""
"","image-keyboard-response","321","198091","0.0-321.0","3180JW2OT5YHB44YHTK0OS0YHWV5J5","A34YDGVZKRJ0LZ","329E6HTMSWO7MPPIUTRHLR63CI0K3O","","573.2999999523163","img/land6.png","76","573.9000000953674","3","1","3","1,0.5,0.5,0.5,1,0.5,0.5,0.5,1","",""
"","html-keyboard-response","322","198393","0.0-322.0","3180JW2OT5YHB44YHTK0OS0YHWV5J5","A34YDGVZKRJ0LZ","329E6HTMSWO7MPPIUTRHLR63CI0K3O","","null","<img src=""img/land6.png"" style=""width:200px; border:14px solid green;"">","null","","","","","","",""
"","image-keyboard-response","323","199043","0.0-323.0","3180JW2OT5YHB44YHTK0OS0YHWV5J5","A34YDGVZKRJ0LZ","329E6HTMSWO7MPPIUTRHLR63CI0K3O","","648.9000000953674","img/land4.png","74","649.7000000476837","1","1","1","1,0.5,0.5,0.5,1,0.5,0.5,0.5,1","",""
"","html-keyboard-response","324","199345","0.0-324.0","3180JW2OT5YHB44YHTK0OS0YHWV5J5","A34YDGVZKRJ0LZ","329E6HTMSWO7MPPIUTRHLR63CI0K3O","","null","<img src=""img/land4.png"" style=""width:200px; border:14px solid green;"">","null","","","","","","",""
"","image-keyboard-response","325","200100","0.0-325.0","3180JW2OT5YHB44YHTK0OS0YHWV5J5","A34YDGVZKRJ0LZ","329E6HTMSWO7MPPIUTRHLR63CI0K3O","","754.4000000953674","img/land6.png","76","754.8999999761581","3","1","3","1,0.5,0.5,0.5,1,0.5,0.5,0.5,1","",""
"","html-keyboard-response","326","200401","0.0-326.0","3180JW2OT5YHB44YHTK0OS0YHWV5J5","A34YDGVZKRJ0LZ","329E6HTMSWO7MPPIUTRHLR63CI0K3O","","null","<img src=""img/land6.png"" style=""width:200px; border:14px solid green;"">","null","","","","","","",""
"","image-keyboard-response","327","201260","0.0-327.0","3180JW2OT5YHB44YHTK0OS0YHWV5J5","A34YDGVZKRJ0LZ","329E6HTMSWO7MPPIUTRHLR63CI0K3O","","857.6000000238419","img/land5.png","75","858.1000000238419","2","1","2","1,0.5,0.5,0.5,1,0.5,0.5,0.5,1","",""
"","html-keyboard-response","328","201562","0.0-328.0","3180JW2OT5YHB44YHTK0OS0YHWV5J5","A34YDGVZKRJ0LZ","329E6HTMSWO7MPPIUTRHLR63CI0K3O","","null","<img src=""img/land5.png"" style=""width:200px; border:14px solid green;"">","null","","","","","","",""
"","image-keyboard-response","329","202326","0.0-329.0","3180JW2OT5YHB44YHTK0OS0YHWV5J5","A34YDGVZKRJ0LZ","329E6HTMSWO7MPPIUTRHLR63CI0K3O","","762.7999999523163","img/land4.png","74","763.2999999523163","1","1","1","1,0.5,0.5,0.5,1,0.5,0.5,0.5,1","",""
"","html-keyboard-response","330","202628","0.0-330.0","3180JW2OT5YHB44YHTK0OS0YHWV5J5","A34YDGVZKRJ0LZ","329E6HTMSWO7MPPIUTRHLR63CI0K3O","","null","<img src=""img/land4.png"" style=""width:200px; border:14px solid green;"">","null","","","","","","",""
"","image-keyboard-response","331","203365","0.0-331.0","3180JW2OT5YHB44YHTK0OS0YHWV5J5","A34YDGVZKRJ0LZ","329E6HTMSWO7MPPIUTRHLR63CI0K3O","","736.2999999523163","img/land6.png","76","737.2000000476837","3","1","3","1,0.5,0.5,0.5,1,0.5,0.5,0.5,1","",""
"","html-keyboard-response","332","203667","0.0-332.0","3180JW2OT5YHB44YHTK0OS0YHWV5J5","A34YDGVZKRJ0LZ","329E6HTMSWO7MPPIUTRHLR63CI0K3O","","null","<img src=""img/land6.png"" style=""width:200px; border:14px solid green;"">","null","","","","","","",""
"","image-keyboard-response","333","204422","0.0-333.0","3180JW2OT5YHB44YHTK0OS0YHWV5J5","A34YDGVZKRJ0LZ","329E6HTMSWO7MPPIUTRHLR63CI0K3O","","754.5","img/land5.png","75","755","2","1","2","1,0.5,0.5,0.5,1,0.5,0.5,0.5,1","",""
"","html-keyboard-response","334","204723","0.0-334.0","3180JW2OT5YHB44YHTK0OS0YHWV5J5","A34YDGVZKRJ0LZ","329E6HTMSWO7MPPIUTRHLR63CI0K3O","","null","<img src=""img/land5.png"" style=""width:200px; border:14px solid green;"">","null","","","","","","",""
"","image-keyboard-response","335","205421","0.0-335.0","3180JW2OT5YHB44YHTK0OS0YHWV5J5","A34YDGVZKRJ0LZ","329E6HTMSWO7MPPIUTRHLR63CI0K3O","","696.4000000953674","img/land4.png","74","697.1000000238419","1","1","1","1,0.5,0.5,0.5,1,0.5,0.5,0.5,1","",""
"","html-keyboard-response","336","205722","0.0-336.0","3180JW2OT5YHB44YHTK0OS0YHWV5J5","A34YDGVZKRJ0LZ","329E6HTMSWO7MPPIUTRHLR63CI0K3O","","null","<img src=""img/land4.png"" style=""width:200px; border:14px solid green;"">","null","","","","","","",""
"","image-keyboard-response","337","206461","0.0-337.0","3180JW2OT5YHB44YHTK0OS0YHWV5J5","A34YDGVZKRJ0LZ","329E6HTMSWO7MPPIUTRHLR63CI0K3O","","738.5","img/land6.png","76","739.1000000238419","3","1","3","1,0.5,0.5,0.5,1,0.5,0.5,0.5,1","",""
"","html-keyboard-response","338","206762","0.0-338.0","3180JW2OT5YHB44YHTK0OS0YHWV5J5","A34YDGVZKRJ0LZ","329E6HTMSWO7MPPIUTRHLR63CI0K3O","","null","<img src=""img/land6.png"" style=""width:200px; border:14px solid green;"">","null","","","","","","",""
"","instructions","339","210640","0.0-339.0","3180JW2OT5YHB44YHTK0OS0YHWV5J5","A34YDGVZKRJ0LZ","329E6HTMSWO7MPPIUTRHLR63CI0K3O","[{""page_index"":0,""viewing_time"":3876.899999976158}]","3877.100000023842","","","","","","","","",""
"","survey-text","340","214487","0.0-340.0-0.0","3180JW2OT5YHB44YHTK0OS0YHWV5J5","A34YDGVZKRJ0LZ","329E6HTMSWO7MPPIUTRHLR63CI0K3O","","3845","","","","","","","","{""Q0"":""52""}",""
"","survey-multi-choice","341","217552","0.0-340.0-1.0","3180JW2OT5YHB44YHTK0OS0YHWV5J5","A34YDGVZKRJ0LZ","329E6HTMSWO7MPPIUTRHLR63CI0K3O","","3063.7000000476837","","","","","","","","{""gender"":""F""}","[0]"
"","survey-text","342","223935","0.0-341.0","3180JW2OT5YHB44YHTK0OS0YHWV5J5","A34YDGVZKRJ0LZ","329E6HTMSWO7MPPIUTRHLR63CI0K3O","","6381.799999952316","","","","","","","","{""Q0"":""A34YDGVZKRJ0LZ""}",""
