"success","trial_type","trial_index","time_elapsed","internal_node_id","assignmentID","mturkID","hitID","view_history","rt","stimulus","key_press","reactionTime","a","r","s","cond","reward_cond","reward_cond_actual","reward_matrix_idx","responses","question_order"
"true","fullscreen","0","2114","0.0-0.0","32ZKVD547G98F6JIFIJQB7J1X9V3BM","A3774HPOUKYTX7","3MXX6RQ9EVRTFC527Z18RDK8KW6P4R","","","","","","","","","","","","","",""
"","instructions","1","7172","0.0-1.0","32ZKVD547G98F6JIFIJQB7J1X9V3BM","A3774HPOUKYTX7","3MXX6RQ9EVRTFC527Z18RDK8KW6P4R","[{""page_index"":0,""viewing_time"":1001.8000000044703},{""page_index"":1,""viewing_time"":766.3999999985099},{""page_index"":2,""viewing_time"":423.5},{""page_index"":3,""viewing_time"":779.7000000029802},{""page_index"":4,""viewing_time"":920},{""page_index"":5,""viewing_time"":554.5},{""page_index"":6,""viewing_time"":610.5999999940395}]","5056.9000000059605","","","","","","","","","","","",""
"","image-keyboard-response","2","8245","0.0-2.0","32ZKVD547G98F6JIFIJQB7J1X9V3BM","A3774HPOUKYTX7","3MXX6RQ9EVRTFC527Z18RDK8KW6P4R","","1071.1000000014901","img/land3.png","76","1072.4000000059605","3","0","2","1","0.8,0.2,0.2,0.2,0.8,0.2,0.2,0.2,0.8","0.8,0.2,0.2,0.2,0.8,0.2,0.2,0.2,0.8","1","",""
"","html-keyboard-response","3","8548","0.0-3.0","32ZKVD547G98F6JIFIJQB7J1X9V3BM","A3774HPOUKYTX7","3MXX6RQ9EVRTFC527Z18RDK8KW6P4R","","null","<img src=""img/land3.png"" style=""width:200px;border:14px solid red;"">","null","","","","","","","","","",""
"","image-keyboard-response","4","8806","0.0-4.0","32ZKVD547G98F6JIFIJQB7J1X9V3BM","A3774HPOUKYTX7","3MXX6RQ9EVRTFC527Z18RDK8KW6P4R","","256.3999999985099","img/land3.png","74","257.80000000447035","1","0","2","1","0.8,0.2,0.2,0.2,0.8,0.2,0.2,0.2,0.8","0.8,0.2,0.2,0.2,0.8,0.2,0.2,0.2,0.8","1","",""
"","html-keyboard-response","5","9109","0.0-5.0","32ZKVD547G98F6JIFIJQB7J1X9V3BM","A3774HPOUKYTX7","3MXX6RQ9EVRTFC527Z18RDK8KW6P4R","","null","<img src=""img/land3.png"" style=""width:200px;border:14px solid red;"">","null","","","","","","","","","",""
"","image-keyboard-response","6","9144","0.0-6.0","32ZKVD547G98F6JIFIJQB7J1X9V3BM","A3774HPOUKYTX7","3MXX6RQ9EVRTFC527Z18RDK8KW6P4R","","33","img/land3.png","76","34.29999999701977","3","0","2","1","0.8,0.2,0.2,0.2,0.8,0.2,0.2,0.2,0.8","0.8,0.2,0.2,0.2,0.8,0.2,0.2,0.2,0.8","1","",""
"","html-keyboard-response","7","9448","0.0-7.0","32ZKVD547G98F6JIFIJQB7J1X9V3BM","A3774HPOUKYTX7","3MXX6RQ9EVRTFC527Z18RDK8KW6P4R","","null","<img src=""img/land3.png"" style=""width:200px;border:14px solid red;"">","null","","","","","","","","","",""
"","image-keyboard-response","8","9791","0.0-8.0","32ZKVD547G98F6JIFIJQB7J1X9V3BM","A3774HPOUKYTX7","3MXX6RQ9EVRTFC527Z18RDK8KW6P4R","","341.79999999701977","img/land5.png","75","343.09999999403954","2","0","3","1","0.8,0.2,0.2,0.2,0.8,0.2,0.2,0.2,0.8","0.8,0.2,0.2,0.2,0.8,0.2,0.2,0.2,0.8","1","",""
"","html-keyboard-response","9","10092","0.0-9.0","32ZKVD547G98F6JIFIJQB7J1X9V3BM","A3774HPOUKYTX7","3MXX6RQ9EVRTFC527Z18RDK8KW6P4R","","null","<img src=""img/land5.png"" style=""width:200px;border:14px solid red;"">","null","","","","","","","","","",""
"","image-keyboard-response","10","10124","0.0-10.0","32ZKVD547G98F6JIFIJQB7J1X9V3BM","A3774HPOUKYTX7","3MXX6RQ9EVRTFC527Z18RDK8KW6P4R","","30.30000000447035","img/land3.png","74","31.30000000447035","1","0","2","1","0.8,0.2,0.2,0.2,0.8,0.2,0.2,0.2,0.8","0.8,0.2,0.2,0.2,0.8,0.2,0.2,0.2,0.8","1","",""
"","html-keyboard-response","11","10426","0.0-11.0","32ZKVD547G98F6JIFIJQB7J1X9V3BM","A3774HPOUKYTX7","3MXX6RQ9EVRTFC527Z18RDK8KW6P4R","","null","<img src=""img/land3.png"" style=""width:200px;border:14px solid red;"">","null","","","","","","","","","",""
"","image-keyboard-response","12","10590","0.0-12.0","32ZKVD547G98F6JIFIJQB7J1X9V3BM","A3774HPOUKYTX7","3MXX6RQ9EVRTFC527Z18RDK8KW6P4R","","163.29999999701977","img/land1.png","76","164.29999999701977","3","0","1","1","0.8,0.2,0.2,0.2,0.8,0.2,0.2,0.2,0.8","0.8,0.2,0.2,0.2,0.8,0.2,0.2,0.2,0.8","1","",""
"","html-keyboard-response","13","10892","0.0-13.0","32ZKVD547G98F6JIFIJQB7J1X9V3BM","A3774HPOUKYTX7","3MXX6RQ9EVRTFC527Z18RDK8KW6P4R","","null","<img src=""img/land1.png"" style=""width:200px;border:14px solid red;"">","null","","","","","","","","","",""
"","image-keyboard-response","14","10943","0.0-14.0","32ZKVD547G98F6JIFIJQB7J1X9V3BM","A3774HPOUKYTX7","3MXX6RQ9EVRTFC527Z18RDK8KW6P4R","","49.5","img/land5.png","76","50.29999999701977","3","0","3","1","0.8,0.2,0.2,0.2,0.8,0.2,0.2,0.2,0.8","0.8,0.2,0.2,0.2,0.8,0.2,0.2,0.2,0.8","1","",""
"","html-keyboard-response","15","11244","0.0-15.0","32ZKVD547G98F6JIFIJQB7J1X9V3BM","A3774HPOUKYTX7","3MXX6RQ9EVRTFC527Z18RDK8KW6P4R","","null","<img src=""img/land5.png"" style=""width:200px;border:14px solid red;"">","null","","","","","","","","","",""
"","image-keyboard-response","16","11289","0.0-16.0","32ZKVD547G98F6JIFIJQB7J1X9V3BM","A3774HPOUKYTX7","3MXX6RQ9EVRTFC527Z18RDK8KW6P4R","","43.600000001490116","img/land5.png","76","44.5","3","1","3","1","0.8,0.2,0.2,0.2,0.8,0.2,0.2,0.2,0.8","0.8,0.2,0.2,0.2,0.8,0.2,0.2,0.2,0.8","1","",""
"","html-keyboard-response","17","11591","0.0-17.0","32ZKVD547G98F6JIFIJQB7J1X9V3BM","A3774HPOUKYTX7","3MXX6RQ9EVRTFC527Z18RDK8KW6P4R","","null","<img src=""img/land5.png"" style=""width:200px; border:14px solid green;"">","null","","","","","","","","","",""
"","image-keyboard-response","18","11595","0.0-18.0","32ZKVD547G98F6JIFIJQB7J1X9V3BM","A3774HPOUKYTX7","3MXX6RQ9EVRTFC527Z18RDK8KW6P4R","","2.7000000029802322","img/land5.png","76","3.8000000044703484","3","1","3","1","0.8,0.2,0.2,0.2,0.8,0.2,0.2,0.2,0.8","0.8,0.2,0.2,0.2,0.8,0.2,0.2,0.2,0.8","1","",""
"","html-keyboard-response","19","11897","0.0-19.0","32ZKVD547G98F6JIFIJQB7J1X9V3BM","A3774HPOUKYTX7","3MXX6RQ9EVRTFC527Z18RDK8KW6P4R","","null","<img src=""img/land5.png"" style=""width:200px; border:14px solid green;"">","null","","","","","","","","","",""
"","image-keyboard-response","20","11932","0.0-20.0","32ZKVD547G98F6JIFIJQB7J1X9V3BM","A3774HPOUKYTX7","3MXX6RQ9EVRTFC527Z18RDK8KW6P4R","","34.5","img/land1.png","76","35.19999999552965","3","0","1","1","0.8,0.2,0.2,0.2,0.8,0.2,0.2,0.2,0.8","0.8,0.2,0.2,0.2,0.8,0.2,0.2,0.2,0.8","1","",""
"","html-keyboard-response","21","12235","0.0-21.0","32ZKVD547G98F6JIFIJQB7J1X9V3BM","A3774HPOUKYTX7","3MXX6RQ9EVRTFC527Z18RDK8KW6P4R","","null","<img src=""img/land1.png"" style=""width:200px;border:14px solid red;"">","null","","","","","","","","","",""
"","image-keyboard-response","22","12341","0.0-22.0","32ZKVD547G98F6JIFIJQB7J1X9V3BM","A3774HPOUKYTX7","3MXX6RQ9EVRTFC527Z18RDK8KW6P4R","","104.30000000447035","img/land5.png","74","105.10000000149012","1","0","3","1","0.8,0.2,0.2,0.2,0.8,0.2,0.2,0.2,0.8","0.8,0.2,0.2,0.2,0.8,0.2,0.2,0.2,0.8","1","",""
"","html-keyboard-response","23","12642","0.0-23.0","32ZKVD547G98F6JIFIJQB7J1X9V3BM","A3774HPOUKYTX7","3MXX6RQ9EVRTFC527Z18RDK8KW6P4R","","null","<img src=""img/land5.png"" style=""width:200px;border:14px solid red;"">","null","","","","","","","","","",""
"","image-keyboard-response","24","12673","0.0-24.0","32ZKVD547G98F6JIFIJQB7J1X9V3BM","A3774HPOUKYTX7","3MXX6RQ9EVRTFC527Z18RDK8KW6P4R","","29.5","img/land1.png","74","30.5","1","1","1","1","0.8,0.2,0.2,0.2,0.8,0.2,0.2,0.2,0.8","0.8,0.2,0.2,0.2,0.8,0.2,0.2,0.2,0.8","1","",""
"","html-keyboard-response","25","12975","0.0-25.0","32ZKVD547G98F6JIFIJQB7J1X9V3BM","A3774HPOUKYTX7","3MXX6RQ9EVRTFC527Z18RDK8KW6P4R","","null","<img src=""img/land1.png"" style=""width:200px; border:14px solid green;"">","null","","","","","","","","","",""
"","image-keyboard-response","26","12979","0.0-26.0","32ZKVD547G98F6JIFIJQB7J1X9V3BM","A3774HPOUKYTX7","3MXX6RQ9EVRTFC527Z18RDK8KW6P4R","","2.7000000029802322","img/land5.png","74","3.600000001490116","1","1","3","1","0.8,0.2,0.2,0.2,0.8,0.2,0.2,0.2,0.8","0.8,0.2,0.2,0.2,0.8,0.2,0.2,0.2,0.8","1","",""
"","html-keyboard-response","27","13281","0.0-27.0","32ZKVD547G98F6JIFIJQB7J1X9V3BM","A3774HPOUKYTX7","3MXX6RQ9EVRTFC527Z18RDK8KW6P4R","","null","<img src=""img/land5.png"" style=""width:200px; border:14px solid green;"">","null","","","","","","","","","",""
"","image-keyboard-response","28","13327","0.0-28.0","32ZKVD547G98F6JIFIJQB7J1X9V3BM","A3774HPOUKYTX7","3MXX6RQ9EVRTFC527Z18RDK8KW6P4R","","44.600000001490116","img/land3.png","76","45.80000000447035","3","0","2","1","0.8,0.2,0.2,0.2,0.8,0.2,0.2,0.2,0.8","0.8,0.2,0.2,0.2,0.8,0.2,0.2,0.2,0.8","1","",""
"","html-keyboard-response","29","13630","0.0-29.0","32ZKVD547G98F6JIFIJQB7J1X9V3BM","A3774HPOUKYTX7","3MXX6RQ9EVRTFC527Z18RDK8KW6P4R","","null","<img src=""img/land3.png"" style=""width:200px;border:14px solid red;"">","null","","","","","","","","","",""
"","image-keyboard-response","30","13717","0.0-30.0","32ZKVD547G98F6JIFIJQB7J1X9V3BM","A3774HPOUKYTX7","3MXX6RQ9EVRTFC527Z18RDK8KW6P4R","","85.69999999552965","img/land1.png","76","87.30000000447035","3","1","1","1","0.8,0.2,0.2,0.2,0.8,0.2,0.2,0.2,0.8","0.8,0.2,0.2,0.2,0.8,0.2,0.2,0.2,0.8","1","",""
"","html-keyboard-response","31","14020","0.0-31.0","32ZKVD547G98F6JIFIJQB7J1X9V3BM","A3774HPOUKYTX7","3MXX6RQ9EVRTFC527Z18RDK8KW6P4R","","null","<img src=""img/land1.png"" style=""width:200px; border:14px solid green;"">","null","","","","","","","","","",""
"","image-keyboard-response","32","14071","0.0-32.0","32ZKVD547G98F6JIFIJQB7J1X9V3BM","A3774HPOUKYTX7","3MXX6RQ9EVRTFC527Z18RDK8KW6P4R","","49.20000000298023","img/land3.png","74","50","1","0","2","1","0.8,0.2,0.2,0.2,0.8,0.2,0.2,0.2,0.8","0.8,0.2,0.2,0.2,0.8,0.2,0.2,0.2,0.8","1","",""
"","html-keyboard-response","33","14372","0.0-33.0","32ZKVD547G98F6JIFIJQB7J1X9V3BM","A3774HPOUKYTX7","3MXX6RQ9EVRTFC527Z18RDK8KW6P4R","","null","<img src=""img/land3.png"" style=""width:200px;border:14px solid red;"">","null","","","","","","","","","",""
"","image-keyboard-response","34","14599","0.0-34.0","32ZKVD547G98F6JIFIJQB7J1X9V3BM","A3774HPOUKYTX7","3MXX6RQ9EVRTFC527Z18RDK8KW6P4R","","226.10000000149012","img/land3.png","76","227.09999999403954","3","0","2","1","0.8,0.2,0.2,0.2,0.8,0.2,0.2,0.2,0.8","0.8,0.2,0.2,0.2,0.8,0.2,0.2,0.2,0.8","1","",""
"","html-keyboard-response","35","14901","0.0-35.0","32ZKVD547G98F6JIFIJQB7J1X9V3BM","A3774HPOUKYTX7","3MXX6RQ9EVRTFC527Z18RDK8KW6P4R","","null","<img src=""img/land3.png"" style=""width:200px;border:14px solid red;"">","null","","","","","","","","","",""
"","image-keyboard-response","36","14902","0.0-36.0","32ZKVD547G98F6JIFIJQB7J1X9V3BM","A3774HPOUKYTX7","3MXX6RQ9EVRTFC527Z18RDK8KW6P4R","","0.29999999701976776","img/land3.png","76","0.8000000044703484","3","1","2","1","0.8,0.2,0.2,0.2,0.8,0.2,0.2,0.2,0.8","0.8,0.2,0.2,0.2,0.8,0.2,0.2,0.2,0.8","1","",""
"","html-keyboard-response","37","15204","0.0-37.0","32ZKVD547G98F6JIFIJQB7J1X9V3BM","A3774HPOUKYTX7","3MXX6RQ9EVRTFC527Z18RDK8KW6P4R","","null","<img src=""img/land3.png"" style=""width:200px; border:14px solid green;"">","null","","","","","","","","","",""
"","image-keyboard-response","38","15236","0.0-38.0","32ZKVD547G98F6JIFIJQB7J1X9V3BM","A3774HPOUKYTX7","3MXX6RQ9EVRTFC527Z18RDK8KW6P4R","","31.399999998509884","img/land3.png","75","32.19999999552965","2","1","2","1","0.8,0.2,0.2,0.2,0.8,0.2,0.2,0.2,0.8","0.8,0.2,0.2,0.2,0.8,0.2,0.2,0.2,0.8","1","",""
"","html-keyboard-response","39","15539","0.0-39.0","32ZKVD547G98F6JIFIJQB7J1X9V3BM","A3774HPOUKYTX7","3MXX6RQ9EVRTFC527Z18RDK8KW6P4R","","null","<img src=""img/land3.png"" style=""width:200px; border:14px solid green;"">","null","","","","","","","","","",""
"","image-keyboard-response","40","15824","0.0-40.0","32ZKVD547G98F6JIFIJQB7J1X9V3BM","A3774HPOUKYTX7","3MXX6RQ9EVRTFC527Z18RDK8KW6P4R","","283.6000000014901","img/land5.png","76","285.30000000447035","3","1","3","1","0.8,0.2,0.2,0.2,0.8,0.2,0.2,0.2,0.8","0.8,0.2,0.2,0.2,0.8,0.2,0.2,0.2,0.8","1","",""
"","html-keyboard-response","41","16126","0.0-41.0","32ZKVD547G98F6JIFIJQB7J1X9V3BM","A3774HPOUKYTX7","3MXX6RQ9EVRTFC527Z18RDK8KW6P4R","","null","<img src=""img/land5.png"" style=""width:200px; border:14px solid green;"">","null","","","","","","","","","",""
"","image-keyboard-response","42","16151","0.0-42.0","32ZKVD547G98F6JIFIJQB7J1X9V3BM","A3774HPOUKYTX7","3MXX6RQ9EVRTFC527Z18RDK8KW6P4R","","23.200000002980232","img/land3.png","75","24.399999998509884","2","1","2","1","0.8,0.2,0.2,0.2,0.8,0.2,0.2,0.2,0.8","0.8,0.2,0.2,0.2,0.8,0.2,0.2,0.2,0.8","1","",""
"","html-keyboard-response","43","16453","0.0-43.0","32ZKVD547G98F6JIFIJQB7J1X9V3BM","A3774HPOUKYTX7","3MXX6RQ9EVRTFC527Z18RDK8KW6P4R","","null","<img src=""img/land3.png"" style=""width:200px; border:14px solid green;"">","null","","","","","","","","","",""
"","image-keyboard-response","44","16482","0.0-44.0","32ZKVD547G98F6JIFIJQB7J1X9V3BM","A3774HPOUKYTX7","3MXX6RQ9EVRTFC527Z18RDK8KW6P4R","","27.600000001490116","img/land5.png","74","28.600000001490116","1","0","3","1","0.8,0.2,0.2,0.2,0.8,0.2,0.2,0.2,0.8","0.8,0.2,0.2,0.2,0.8,0.2,0.2,0.2,0.8","1","",""
"","html-keyboard-response","45","16785","0.0-45.0","32ZKVD547G98F6JIFIJQB7J1X9V3BM","A3774HPOUKYTX7","3MXX6RQ9EVRTFC527Z18RDK8KW6P4R","","null","<img src=""img/land5.png"" style=""width:200px;border:14px solid red;"">","null","","","","","","","","","",""
"","image-keyboard-response","46","16964","0.0-46.0","32ZKVD547G98F6JIFIJQB7J1X9V3BM","A3774HPOUKYTX7","3MXX6RQ9EVRTFC527Z18RDK8KW6P4R","","177.60000000149012","img/land5.png","76","178.5","3","1","3","1","0.8,0.2,0.2,0.2,0.8,0.2,0.2,0.2,0.8","0.8,0.2,0.2,0.2,0.8,0.2,0.2,0.2,0.8","1","",""
"","html-keyboard-response","47","17265","0.0-47.0","32ZKVD547G98F6JIFIJQB7J1X9V3BM","A3774HPOUKYTX7","3MXX6RQ9EVRTFC527Z18RDK8KW6P4R","","null","<img src=""img/land5.png"" style=""width:200px; border:14px solid green;"">","null","","","","","","","","","",""
"","image-keyboard-response","48","17456","0.0-48.0","32ZKVD547G98F6JIFIJQB7J1X9V3BM","A3774HPOUKYTX7","3MXX6RQ9EVRTFC527Z18RDK8KW6P4R","","190.5","img/land1.png","76","191.29999999701977","3","0","1","1","0.8,0.2,0.2,0.2,0.8,0.2,0.2,0.2,0.8","0.8,0.2,0.2,0.2,0.8,0.2,0.2,0.2,0.8","1","",""
"","html-keyboard-response","49","17759","0.0-49.0","32ZKVD547G98F6JIFIJQB7J1X9V3BM","A3774HPOUKYTX7","3MXX6RQ9EVRTFC527Z18RDK8KW6P4R","","null","<img src=""img/land1.png"" style=""width:200px;border:14px solid red;"">","null","","","","","","","","","",""
"","image-keyboard-response","50","17878","0.0-50.0","32ZKVD547G98F6JIFIJQB7J1X9V3BM","A3774HPOUKYTX7","3MXX6RQ9EVRTFC527Z18RDK8KW6P4R","","114.70000000298023","img/land5.png","74","115.60000000149012","1","1","3","1","0.8,0.2,0.2,0.2,0.8,0.2,0.2,0.2,0.8","0.8,0.2,0.2,0.2,0.8,0.2,0.2,0.2,0.8","1","",""
"","html-keyboard-response","51","18180","0.0-51.0","32ZKVD547G98F6JIFIJQB7J1X9V3BM","A3774HPOUKYTX7","3MXX6RQ9EVRTFC527Z18RDK8KW6P4R","","null","<img src=""img/land5.png"" style=""width:200px; border:14px solid green;"">","null","","","","","","","","","",""
"","image-keyboard-response","52","18233","0.0-52.0","32ZKVD547G98F6JIFIJQB7J1X9V3BM","A3774HPOUKYTX7","3MXX6RQ9EVRTFC527Z18RDK8KW6P4R","","51.899999998509884","img/land5.png","74","52.399999998509884","1","0","3","1","0.8,0.2,0.2,0.2,0.8,0.2,0.2,0.2,0.8","0.8,0.2,0.2,0.2,0.8,0.2,0.2,0.2,0.8","1","",""
"","html-keyboard-response","53","18536","0.0-53.0","32ZKVD547G98F6JIFIJQB7J1X9V3BM","A3774HPOUKYTX7","3MXX6RQ9EVRTFC527Z18RDK8KW6P4R","","null","<img src=""img/land5.png"" style=""width:200px;border:14px solid red;"">","null","","","","","","","","","",""
"","image-keyboard-response","54","18554","0.0-54.0","32ZKVD547G98F6JIFIJQB7J1X9V3BM","A3774HPOUKYTX7","3MXX6RQ9EVRTFC527Z18RDK8KW6P4R","","17.600000001490116","img/land5.png","74","18.399999998509884","1","1","3","1","0.8,0.2,0.2,0.2,0.8,0.2,0.2,0.2,0.8","0.8,0.2,0.2,0.2,0.8,0.2,0.2,0.2,0.8","1","",""
"","html-keyboard-response","55","18856","0.0-55.0","32ZKVD547G98F6JIFIJQB7J1X9V3BM","A3774HPOUKYTX7","3MXX6RQ9EVRTFC527Z18RDK8KW6P4R","","null","<img src=""img/land5.png"" style=""width:200px; border:14px solid green;"">","null","","","","","","","","","",""
"","image-keyboard-response","56","18893","0.0-56.0","32ZKVD547G98F6JIFIJQB7J1X9V3BM","A3774HPOUKYTX7","3MXX6RQ9EVRTFC527Z18RDK8KW6P4R","","35.70000000298023","img/land1.png","76","36.600000001490116","3","0","1","1","0.8,0.2,0.2,0.2,0.8,0.2,0.2,0.2,0.8","0.8,0.2,0.2,0.2,0.8,0.2,0.2,0.2,0.8","1","",""
"","html-keyboard-response","57","19195","0.0-57.0","32ZKVD547G98F6JIFIJQB7J1X9V3BM","A3774HPOUKYTX7","3MXX6RQ9EVRTFC527Z18RDK8KW6P4R","","null","<img src=""img/land1.png"" style=""width:200px;border:14px solid red;"">","null","","","","","","","","","",""
"","image-keyboard-response","58","19309","0.0-58.0","32ZKVD547G98F6JIFIJQB7J1X9V3BM","A3774HPOUKYTX7","3MXX6RQ9EVRTFC527Z18RDK8KW6P4R","","113.5","img/land1.png","76","114.39999999850988","3","0","1","1","0.8,0.2,0.2,0.2,0.8,0.2,0.2,0.2,0.8","0.8,0.2,0.2,0.2,0.8,0.2,0.2,0.2,0.8","1","",""
"","html-keyboard-response","59","19611","0.0-59.0","32ZKVD547G98F6JIFIJQB7J1X9V3BM","A3774HPOUKYTX7","3MXX6RQ9EVRTFC527Z18RDK8KW6P4R","","null","<img src=""img/land1.png"" style=""width:200px;border:14px solid red;"">","null","","","","","","","","","",""
"","image-keyboard-response","60","19722","0.0-60.0","32ZKVD547G98F6JIFIJQB7J1X9V3BM","A3774HPOUKYTX7","3MXX6RQ9EVRTFC527Z18RDK8KW6P4R","","110.20000000298023","img/land5.png","75","111","2","0","3","1","0.8,0.2,0.2,0.2,0.8,0.2,0.2,0.2,0.8","0.8,0.2,0.2,0.2,0.8,0.2,0.2,0.2,0.8","1","",""
"","html-keyboard-response","61","20024","0.0-61.0","32ZKVD547G98F6JIFIJQB7J1X9V3BM","A3774HPOUKYTX7","3MXX6RQ9EVRTFC527Z18RDK8KW6P4R","","null","<img src=""img/land5.png"" style=""width:200px;border:14px solid red;"">","null","","","","","","","","","",""
"","image-keyboard-response","62","20134","0.0-62.0","32ZKVD547G98F6JIFIJQB7J1X9V3BM","A3774HPOUKYTX7","3MXX6RQ9EVRTFC527Z18RDK8KW6P4R","","109.10000000149012","img/land1.png","74","110.10000000149012","1","1","1","1","0.8,0.2,0.2,0.2,0.8,0.2,0.2,0.2,0.8","0.8,0.2,0.2,0.2,0.8,0.2,0.2,0.2,0.8","1","",""
"","html-keyboard-response","63","20436","0.0-63.0","32ZKVD547G98F6JIFIJQB7J1X9V3BM","A3774HPOUKYTX7","3MXX6RQ9EVRTFC527Z18RDK8KW6P4R","","null","<img src=""img/land1.png"" style=""width:200px; border:14px solid green;"">","null","","","","","","","","","",""
"","image-keyboard-response","64","20538","0.0-64.0","32ZKVD547G98F6JIFIJQB7J1X9V3BM","A3774HPOUKYTX7","3MXX6RQ9EVRTFC527Z18RDK8KW6P4R","","101.20000000298023","img/land5.png","76","102","3","1","3","1","0.8,0.2,0.2,0.2,0.8,0.2,0.2,0.2,0.8","0.8,0.2,0.2,0.2,0.8,0.2,0.2,0.2,0.8","1","",""
"","html-keyboard-response","65","20839","0.0-65.0","32ZKVD547G98F6JIFIJQB7J1X9V3BM","A3774HPOUKYTX7","3MXX6RQ9EVRTFC527Z18RDK8KW6P4R","","null","<img src=""img/land5.png"" style=""width:200px; border:14px solid green;"">","null","","","","","","","","","",""
"","image-keyboard-response","66","21070","0.0-66.0","32ZKVD547G98F6JIFIJQB7J1X9V3BM","A3774HPOUKYTX7","3MXX6RQ9EVRTFC527Z18RDK8KW6P4R","","230","img/land1.png","74","230.80000000447035","1","1","1","1","0.8,0.2,0.2,0.2,0.8,0.2,0.2,0.2,0.8","0.8,0.2,0.2,0.2,0.8,0.2,0.2,0.2,0.8","1","",""
"","html-keyboard-response","67","21371","0.0-67.0","32ZKVD547G98F6JIFIJQB7J1X9V3BM","A3774HPOUKYTX7","3MXX6RQ9EVRTFC527Z18RDK8KW6P4R","","null","<img src=""img/land1.png"" style=""width:200px; border:14px solid green;"">","null","","","","","","","","","",""
"","image-keyboard-response","68","21552","0.0-68.0","32ZKVD547G98F6JIFIJQB7J1X9V3BM","A3774HPOUKYTX7","3MXX6RQ9EVRTFC527Z18RDK8KW6P4R","","179.19999999552965","img/land5.png","75","180.20000000298023","2","0","3","1","0.8,0.2,0.2,0.2,0.8,0.2,0.2,0.2,0.8","0.8,0.2,0.2,0.2,0.8,0.2,0.2,0.2,0.8","1","",""
"","html-keyboard-response","69","21854","0.0-69.0","32ZKVD547G98F6JIFIJQB7J1X9V3BM","A3774HPOUKYTX7","3MXX6RQ9EVRTFC527Z18RDK8KW6P4R","","null","<img src=""img/land5.png"" style=""width:200px;border:14px solid red;"">","null","","","","","","","","","",""
"","image-keyboard-response","70","21986","0.0-70.0","32ZKVD547G98F6JIFIJQB7J1X9V3BM","A3774HPOUKYTX7","3MXX6RQ9EVRTFC527Z18RDK8KW6P4R","","131.29999999701977","img/land5.png","75","132.29999999701977","2","0","3","1","0.8,0.2,0.2,0.2,0.8,0.2,0.2,0.2,0.8","0.8,0.2,0.2,0.2,0.8,0.2,0.2,0.2,0.8","1","",""
"","html-keyboard-response","71","22288","0.0-71.0","32ZKVD547G98F6JIFIJQB7J1X9V3BM","A3774HPOUKYTX7","3MXX6RQ9EVRTFC527Z18RDK8KW6P4R","","null","<img src=""img/land5.png"" style=""width:200px;border:14px solid red;"">","null","","","","","","","","","",""
"","image-keyboard-response","72","22370","0.0-72.0","32ZKVD547G98F6JIFIJQB7J1X9V3BM","A3774HPOUKYTX7","3MXX6RQ9EVRTFC527Z18RDK8KW6P4R","","81.10000000149012","img/land5.png","76","82","3","1","3","1","0.8,0.2,0.2,0.2,0.8,0.2,0.2,0.2,0.8","0.8,0.2,0.2,0.2,0.8,0.2,0.2,0.2,0.8","1","",""
"","html-keyboard-response","73","22672","0.0-73.0","32ZKVD547G98F6JIFIJQB7J1X9V3BM","A3774HPOUKYTX7","3MXX6RQ9EVRTFC527Z18RDK8KW6P4R","","null","<img src=""img/land5.png"" style=""width:200px; border:14px solid green;"">","null","","","","","","","","","",""
"","image-keyboard-response","74","22712","0.0-74.0","32ZKVD547G98F6JIFIJQB7J1X9V3BM","A3774HPOUKYTX7","3MXX6RQ9EVRTFC527Z18RDK8KW6P4R","","39.5","img/land3.png","76","40.19999999552965","3","0","2","1","0.8,0.2,0.2,0.2,0.8,0.2,0.2,0.2,0.8","0.8,0.2,0.2,0.2,0.8,0.2,0.2,0.2,0.8","1","",""
"","html-keyboard-response","75","23014","0.0-75.0","32ZKVD547G98F6JIFIJQB7J1X9V3BM","A3774HPOUKYTX7","3MXX6RQ9EVRTFC527Z18RDK8KW6P4R","","null","<img src=""img/land3.png"" style=""width:200px;border:14px solid red;"">","null","","","","","","","","","",""
"","image-keyboard-response","76","23107","0.0-76.0","32ZKVD547G98F6JIFIJQB7J1X9V3BM","A3774HPOUKYTX7","3MXX6RQ9EVRTFC527Z18RDK8KW6P4R","","91.29999999701977","img/land1.png","75","92.60000000149012","2","0","1","1","0.8,0.2,0.2,0.2,0.8,0.2,0.2,0.2,0.8","0.8,0.2,0.2,0.2,0.8,0.2,0.2,0.2,0.8","1","",""
"","html-keyboard-response","77","23409","0.0-77.0","32ZKVD547G98F6JIFIJQB7J1X9V3BM","A3774HPOUKYTX7","3MXX6RQ9EVRTFC527Z18RDK8KW6P4R","","null","<img src=""img/land1.png"" style=""width:200px;border:14px solid red;"">","null","","","","","","","","","",""
"","image-keyboard-response","78","23451","0.0-78.0","32ZKVD547G98F6JIFIJQB7J1X9V3BM","A3774HPOUKYTX7","3MXX6RQ9EVRTFC527Z18RDK8KW6P4R","","40.70000000298023","img/land3.png","74","41.899999998509884","1","1","2","1","0.8,0.2,0.2,0.2,0.8,0.2,0.2,0.2,0.8","0.8,0.2,0.2,0.2,0.8,0.2,0.2,0.2,0.8","1","",""
"","html-keyboard-response","79","23753","0.0-79.0","32ZKVD547G98F6JIFIJQB7J1X9V3BM","A3774HPOUKYTX7","3MXX6RQ9EVRTFC527Z18RDK8KW6P4R","","null","<img src=""img/land3.png"" style=""width:200px; border:14px solid green;"">","null","","","","","","","","","",""
"","image-keyboard-response","80","23801","0.0-80.0","32ZKVD547G98F6JIFIJQB7J1X9V3BM","A3774HPOUKYTX7","3MXX6RQ9EVRTFC527Z18RDK8KW6P4R","","46.399999998509884","img/land3.png","76","47.70000000298023","3","0","2","1","0.8,0.2,0.2,0.2,0.8,0.2,0.2,0.2,0.8","0.8,0.2,0.2,0.2,0.8,0.2,0.2,0.2,0.8","1","",""
"","html-keyboard-response","81","24104","0.0-81.0","32ZKVD547G98F6JIFIJQB7J1X9V3BM","A3774HPOUKYTX7","3MXX6RQ9EVRTFC527Z18RDK8KW6P4R","","null","<img src=""img/land3.png"" style=""width:200px;border:14px solid red;"">","null","","","","","","","","","",""
"","image-keyboard-response","82","24107","0.0-82.0","32ZKVD547G98F6JIFIJQB7J1X9V3BM","A3774HPOUKYTX7","3MXX6RQ9EVRTFC527Z18RDK8KW6P4R","","0.20000000298023224","img/land1.png","74","1.6000000014901161","1","1","1","1","0.8,0.2,0.2,0.2,0.8,0.2,0.2,0.2,0.8","0.8,0.2,0.2,0.2,0.8,0.2,0.2,0.2,0.8","1","",""
"","html-keyboard-response","83","24410","0.0-83.0","32ZKVD547G98F6JIFIJQB7J1X9V3BM","A3774HPOUKYTX7","3MXX6RQ9EVRTFC527Z18RDK8KW6P4R","","null","<img src=""img/land1.png"" style=""width:200px; border:14px solid green;"">","null","","","","","","","","","",""
"","image-keyboard-response","84","24435","0.0-84.0","32ZKVD547G98F6JIFIJQB7J1X9V3BM","A3774HPOUKYTX7","3MXX6RQ9EVRTFC527Z18RDK8KW6P4R","","23.599999994039536","img/land1.png","75","24.600000001490116","2","0","1","1","0.8,0.2,0.2,0.2,0.8,0.2,0.2,0.2,0.8","0.8,0.2,0.2,0.2,0.8,0.2,0.2,0.2,0.8","1","",""
"","html-keyboard-response","85","24737","0.0-85.0","32ZKVD547G98F6JIFIJQB7J1X9V3BM","A3774HPOUKYTX7","3MXX6RQ9EVRTFC527Z18RDK8KW6P4R","","null","<img src=""img/land1.png"" style=""width:200px;border:14px solid red;"">","null","","","","","","","","","",""
"","image-keyboard-response","86","24748","0.0-86.0","32ZKVD547G98F6JIFIJQB7J1X9V3BM","A3774HPOUKYTX7","3MXX6RQ9EVRTFC527Z18RDK8KW6P4R","","9.699999995529652","img/land3.png","76","10.700000002980232","3","0","2","1","0.8,0.2,0.2,0.2,0.8,0.2,0.2,0.2,0.8","0.8,0.2,0.2,0.2,0.8,0.2,0.2,0.2,0.8","1","",""
"","html-keyboard-response","87","25051","0.0-87.0","32ZKVD547G98F6JIFIJQB7J1X9V3BM","A3774HPOUKYTX7","3MXX6RQ9EVRTFC527Z18RDK8KW6P4R","","null","<img src=""img/land3.png"" style=""width:200px;border:14px solid red;"">","null","","","","","","","","","",""
"","image-keyboard-response","88","25060","0.0-88.0","32ZKVD547G98F6JIFIJQB7J1X9V3BM","A3774HPOUKYTX7","3MXX6RQ9EVRTFC527Z18RDK8KW6P4R","","7.899999998509884","img/land3.png","75","9.099999994039536","2","1","2","1","0.8,0.2,0.2,0.2,0.8,0.2,0.2,0.2,0.8","0.8,0.2,0.2,0.2,0.8,0.2,0.2,0.2,0.8","1","",""
"","html-keyboard-response","89","25363","0.0-89.0","32ZKVD547G98F6JIFIJQB7J1X9V3BM","A3774HPOUKYTX7","3MXX6RQ9EVRTFC527Z18RDK8KW6P4R","","null","<img src=""img/land3.png"" style=""width:200px; border:14px solid green;"">","null","","","","","","","","","",""
"","image-keyboard-response","90","25381","0.0-90.0","32ZKVD547G98F6JIFIJQB7J1X9V3BM","A3774HPOUKYTX7","3MXX6RQ9EVRTFC527Z18RDK8KW6P4R","","17.200000002980232","img/land1.png","74","18.200000002980232","1","1","1","1","0.8,0.2,0.2,0.2,0.8,0.2,0.2,0.2,0.8","0.8,0.2,0.2,0.2,0.8,0.2,0.2,0.2,0.8","1","",""
"","html-keyboard-response","91","25684","0.0-91.0","32ZKVD547G98F6JIFIJQB7J1X9V3BM","A3774HPOUKYTX7","3MXX6RQ9EVRTFC527Z18RDK8KW6P4R","","null","<img src=""img/land1.png"" style=""width:200px; border:14px solid green;"">","null","","","","","","","","","",""
"","image-keyboard-response","92","25717","0.0-92.0","32ZKVD547G98F6JIFIJQB7J1X9V3BM","A3774HPOUKYTX7","3MXX6RQ9EVRTFC527Z18RDK8KW6P4R","","31.5","img/land5.png","75","33","2","1","3","1","0.8,0.2,0.2,0.2,0.8,0.2,0.2,0.2,0.8","0.8,0.2,0.2,0.2,0.8,0.2,0.2,0.2,0.8","1","",""
"","html-keyboard-response","93","26019","0.0-93.0","32ZKVD547G98F6JIFIJQB7J1X9V3BM","A3774HPOUKYTX7","3MXX6RQ9EVRTFC527Z18RDK8KW6P4R","","null","<img src=""img/land5.png"" style=""width:200px; border:14px solid green;"">","null","","","","","","","","","",""
"","image-keyboard-response","94","26283","0.0-94.0","32ZKVD547G98F6JIFIJQB7J1X9V3BM","A3774HPOUKYTX7","3MXX6RQ9EVRTFC527Z18RDK8KW6P4R","","262.29999999701977","img/land3.png","76","263.20000000298023","3","0","2","1","0.8,0.2,0.2,0.2,0.8,0.2,0.2,0.2,0.8","0.8,0.2,0.2,0.2,0.8,0.2,0.2,0.2,0.8","1","",""
"","html-keyboard-response","95","26584","0.0-95.0","32ZKVD547G98F6JIFIJQB7J1X9V3BM","A3774HPOUKYTX7","3MXX6RQ9EVRTFC527Z18RDK8KW6P4R","","null","<img src=""img/land3.png"" style=""width:200px;border:14px solid red;"">","null","","","","","","","","","",""
"","image-keyboard-response","96","26663","0.0-96.0","32ZKVD547G98F6JIFIJQB7J1X9V3BM","A3774HPOUKYTX7","3MXX6RQ9EVRTFC527Z18RDK8KW6P4R","","77.09999999403954","img/land1.png","76","78.20000000298023","3","0","1","1","0.8,0.2,0.2,0.2,0.8,0.2,0.2,0.2,0.8","0.8,0.2,0.2,0.2,0.8,0.2,0.2,0.2,0.8","1","",""
"","html-keyboard-response","97","26964","0.0-97.0","32ZKVD547G98F6JIFIJQB7J1X9V3BM","A3774HPOUKYTX7","3MXX6RQ9EVRTFC527Z18RDK8KW6P4R","","null","<img src=""img/land1.png"" style=""width:200px;border:14px solid red;"">","null","","","","","","","","","",""
"","image-keyboard-response","98","27058","0.0-98.0","32ZKVD547G98F6JIFIJQB7J1X9V3BM","A3774HPOUKYTX7","3MXX6RQ9EVRTFC527Z18RDK8KW6P4R","","92.60000000149012","img/land1.png","76","93.40000000596046","3","0","1","1","0.8,0.2,0.2,0.2,0.8,0.2,0.2,0.2,0.8","0.8,0.2,0.2,0.2,0.8,0.2,0.2,0.2,0.8","1","",""
"","html-keyboard-response","99","27360","0.0-99.0","32ZKVD547G98F6JIFIJQB7J1X9V3BM","A3774HPOUKYTX7","3MXX6RQ9EVRTFC527Z18RDK8KW6P4R","","null","<img src=""img/land1.png"" style=""width:200px;border:14px solid red;"">","null","","","","","","","","","",""
"","image-keyboard-response","100","27564","0.0-100.0","32ZKVD547G98F6JIFIJQB7J1X9V3BM","A3774HPOUKYTX7","3MXX6RQ9EVRTFC527Z18RDK8KW6P4R","","203.20000000298023","img/land1.png","76","203.89999999850988","3","1","1","1","0.8,0.2,0.2,0.2,0.8,0.2,0.2,0.2,0.8","0.8,0.2,0.2,0.2,0.8,0.2,0.2,0.2,0.8","1","",""
"","html-keyboard-response","101","27866","0.0-101.0","32ZKVD547G98F6JIFIJQB7J1X9V3BM","A3774HPOUKYTX7","3MXX6RQ9EVRTFC527Z18RDK8KW6P4R","","null","<img src=""img/land1.png"" style=""width:200px; border:14px solid green;"">","null","","","","","","","","","",""
"","image-keyboard-response","102","28042","0.0-102.0","32ZKVD547G98F6JIFIJQB7J1X9V3BM","A3774HPOUKYTX7","3MXX6RQ9EVRTFC527Z18RDK8KW6P4R","","174.59999999403954","img/land5.png","76","175.90000000596046","3","1","3","1","0.8,0.2,0.2,0.2,0.8,0.2,0.2,0.2,0.8","0.8,0.2,0.2,0.2,0.8,0.2,0.2,0.2,0.8","1","",""
"","html-keyboard-response","103","28344","0.0-103.0","32ZKVD547G98F6JIFIJQB7J1X9V3BM","A3774HPOUKYTX7","3MXX6RQ9EVRTFC527Z18RDK8KW6P4R","","null","<img src=""img/land5.png"" style=""width:200px; border:14px solid green;"">","null","","","","","","","","","",""
"","image-keyboard-response","104","28548","0.0-104.0","32ZKVD547G98F6JIFIJQB7J1X9V3BM","A3774HPOUKYTX7","3MXX6RQ9EVRTFC527Z18RDK8KW6P4R","","203.10000000149012","img/land1.png","76","204.10000000149012","3","1","1","1","0.8,0.2,0.2,0.2,0.8,0.2,0.2,0.2,0.8","0.8,0.2,0.2,0.2,0.8,0.2,0.2,0.2,0.8","1","",""
"","html-keyboard-response","105","28850","0.0-105.0","32ZKVD547G98F6JIFIJQB7J1X9V3BM","A3774HPOUKYTX7","3MXX6RQ9EVRTFC527Z18RDK8KW6P4R","","null","<img src=""img/land1.png"" style=""width:200px; border:14px solid green;"">","null","","","","","","","","","",""
"","image-keyboard-response","106","29053","0.0-106.0","32ZKVD547G98F6JIFIJQB7J1X9V3BM","A3774HPOUKYTX7","3MXX6RQ9EVRTFC527Z18RDK8KW6P4R","","201.60000000149012","img/land5.png","75","202.5","2","0","3","1","0.8,0.2,0.2,0.2,0.8,0.2,0.2,0.2,0.8","0.8,0.2,0.2,0.2,0.8,0.2,0.2,0.2,0.8","1","",""
"","html-keyboard-response","107","29355","0.0-107.0","32ZKVD547G98F6JIFIJQB7J1X9V3BM","A3774HPOUKYTX7","3MXX6RQ9EVRTFC527Z18RDK8KW6P4R","","null","<img src=""img/land5.png"" style=""width:200px;border:14px solid red;"">","null","","","","","","","","","",""
"","image-keyboard-response","108","29546","0.0-108.0","32ZKVD547G98F6JIFIJQB7J1X9V3BM","A3774HPOUKYTX7","3MXX6RQ9EVRTFC527Z18RDK8KW6P4R","","190","img/land3.png","76","191.5","3","0","2","1","0.8,0.2,0.2,0.2,0.8,0.2,0.2,0.2,0.8","0.8,0.2,0.2,0.2,0.8,0.2,0.2,0.2,0.8","1","",""
"","html-keyboard-response","109","29850","0.0-109.0","32ZKVD547G98F6JIFIJQB7J1X9V3BM","A3774HPOUKYTX7","3MXX6RQ9EVRTFC527Z18RDK8KW6P4R","","null","<img src=""img/land3.png"" style=""width:200px;border:14px solid red;"">","null","","","","","","","","","",""
"","image-keyboard-response","110","30060","0.0-110.0","32ZKVD547G98F6JIFIJQB7J1X9V3BM","A3774HPOUKYTX7","3MXX6RQ9EVRTFC527Z18RDK8KW6P4R","","208.70000000298023","img/land3.png","75","209.79999999701977","2","1","2","1","0.8,0.2,0.2,0.2,0.8,0.2,0.2,0.2,0.8","0.8,0.2,0.2,0.2,0.8,0.2,0.2,0.2,0.8","1","",""
"","html-keyboard-response","111","30362","0.0-111.0","32ZKVD547G98F6JIFIJQB7J1X9V3BM","A3774HPOUKYTX7","3MXX6RQ9EVRTFC527Z18RDK8KW6P4R","","null","<img src=""img/land3.png"" style=""width:200px; border:14px solid green;"">","null","","","","","","","","","",""
"","image-keyboard-response","112","30609","0.0-112.0","32ZKVD547G98F6JIFIJQB7J1X9V3BM","A3774HPOUKYTX7","3MXX6RQ9EVRTFC527Z18RDK8KW6P4R","","246.30000000447035","img/land1.png","76","247.20000000298023","3","1","1","1","0.8,0.2,0.2,0.2,0.8,0.2,0.2,0.2,0.8","0.8,0.2,0.2,0.2,0.8,0.2,0.2,0.2,0.8","1","",""
"","html-keyboard-response","113","30911","0.0-113.0","32ZKVD547G98F6JIFIJQB7J1X9V3BM","A3774HPOUKYTX7","3MXX6RQ9EVRTFC527Z18RDK8KW6P4R","","null","<img src=""img/land1.png"" style=""width:200px; border:14px solid green;"">","null","","","","","","","","","",""
"","image-keyboard-response","114","31086","0.0-114.0","32ZKVD547G98F6JIFIJQB7J1X9V3BM","A3774HPOUKYTX7","3MXX6RQ9EVRTFC527Z18RDK8KW6P4R","","174.5","img/land5.png","76","175.5","3","1","3","1","0.8,0.2,0.2,0.2,0.8,0.2,0.2,0.2,0.8","0.8,0.2,0.2,0.2,0.8,0.2,0.2,0.2,0.8","1","",""
"","html-keyboard-response","115","31389","0.0-115.0","32ZKVD547G98F6JIFIJQB7J1X9V3BM","A3774HPOUKYTX7","3MXX6RQ9EVRTFC527Z18RDK8KW6P4R","","null","<img src=""img/land5.png"" style=""width:200px; border:14px solid green;"">","null","","","","","","","","","",""
"","image-keyboard-response","116","31603","0.0-116.0","32ZKVD547G98F6JIFIJQB7J1X9V3BM","A3774HPOUKYTX7","3MXX6RQ9EVRTFC527Z18RDK8KW6P4R","","212.5","img/land3.png","76","213.89999999850988","3","0","2","1","0.8,0.2,0.2,0.2,0.8,0.2,0.2,0.2,0.8","0.8,0.2,0.2,0.2,0.8,0.2,0.2,0.2,0.8","1","",""
"","html-keyboard-response","117","31906","0.0-117.0","32ZKVD547G98F6JIFIJQB7J1X9V3BM","A3774HPOUKYTX7","3MXX6RQ9EVRTFC527Z18RDK8KW6P4R","","null","<img src=""img/land3.png"" style=""width:200px;border:14px solid red;"">","null","","","","","","","","","",""
"","image-keyboard-response","118","32071","0.0-118.0","32ZKVD547G98F6JIFIJQB7J1X9V3BM","A3774HPOUKYTX7","3MXX6RQ9EVRTFC527Z18RDK8KW6P4R","","163","img/land1.png","75","163.69999999552965","2","0","1","1","0.8,0.2,0.2,0.2,0.8,0.2,0.2,0.2,0.8","0.8,0.2,0.2,0.2,0.8,0.2,0.2,0.2,0.8","1","",""
"","html-keyboard-response","119","32372","0.0-119.0","32ZKVD547G98F6JIFIJQB7J1X9V3BM","A3774HPOUKYTX7","3MXX6RQ9EVRTFC527Z18RDK8KW6P4R","","null","<img src=""img/land1.png"" style=""width:200px;border:14px solid red;"">","null","","","","","","","","","",""
"","image-keyboard-response","120","32533","0.0-120.0","32ZKVD547G98F6JIFIJQB7J1X9V3BM","A3774HPOUKYTX7","3MXX6RQ9EVRTFC527Z18RDK8KW6P4R","","160.60000000149012","img/land3.png","76","161.60000000149012","3","1","2","1","0.8,0.2,0.2,0.2,0.8,0.2,0.2,0.2,0.8","0.8,0.2,0.2,0.2,0.8,0.2,0.2,0.2,0.8","1","",""
"","html-keyboard-response","121","32835","0.0-121.0","32ZKVD547G98F6JIFIJQB7J1X9V3BM","A3774HPOUKYTX7","3MXX6RQ9EVRTFC527Z18RDK8KW6P4R","","null","<img src=""img/land3.png"" style=""width:200px; border:14px solid green;"">","null","","","","","","","","","",""
"","image-keyboard-response","122","32996","0.0-122.0","32ZKVD547G98F6JIFIJQB7J1X9V3BM","A3774HPOUKYTX7","3MXX6RQ9EVRTFC527Z18RDK8KW6P4R","","160.10000000149012","img/land1.png","75","161.20000000298023","2","0","1","1","0.8,0.2,0.2,0.2,0.8,0.2,0.2,0.2,0.8","0.8,0.2,0.2,0.2,0.8,0.2,0.2,0.2,0.8","1","",""
"","html-keyboard-response","123","33298","0.0-123.0","32ZKVD547G98F6JIFIJQB7J1X9V3BM","A3774HPOUKYTX7","3MXX6RQ9EVRTFC527Z18RDK8KW6P4R","","null","<img src=""img/land1.png"" style=""width:200px;border:14px solid red;"">","null","","","","","","","","","",""
"","image-keyboard-response","124","33361","0.0-124.0","32ZKVD547G98F6JIFIJQB7J1X9V3BM","A3774HPOUKYTX7","3MXX6RQ9EVRTFC527Z18RDK8KW6P4R","","61.399999998509884","img/land1.png","74","62","1","1","1","1","0.8,0.2,0.2,0.2,0.8,0.2,0.2,0.2,0.8","0.8,0.2,0.2,0.2,0.8,0.2,0.2,0.2,0.8","1","",""
"","html-keyboard-response","125","33663","0.0-125.0","32ZKVD547G98F6JIFIJQB7J1X9V3BM","A3774HPOUKYTX7","3MXX6RQ9EVRTFC527Z18RDK8KW6P4R","","null","<img src=""img/land1.png"" style=""width:200px; border:14px solid green;"">","null","","","","","","","","","",""
"","image-keyboard-response","126","33711","0.0-126.0","32ZKVD547G98F6JIFIJQB7J1X9V3BM","A3774HPOUKYTX7","3MXX6RQ9EVRTFC527Z18RDK8KW6P4R","","46.79999999701977","img/land1.png","75","47.79999999701977","2","0","1","1","0.8,0.2,0.2,0.2,0.8,0.2,0.2,0.2,0.8","0.8,0.2,0.2,0.2,0.8,0.2,0.2,0.2,0.8","1","",""
"","html-keyboard-response","127","34014","0.0-127.0","32ZKVD547G98F6JIFIJQB7J1X9V3BM","A3774HPOUKYTX7","3MXX6RQ9EVRTFC527Z18RDK8KW6P4R","","null","<img src=""img/land1.png"" style=""width:200px;border:14px solid red;"">","null","","","","","","","","","",""
"","image-keyboard-response","128","34111","0.0-128.0","32ZKVD547G98F6JIFIJQB7J1X9V3BM","A3774HPOUKYTX7","3MXX6RQ9EVRTFC527Z18RDK8KW6P4R","","96.19999999552965","img/land1.png","75","97.20000000298023","2","1","1","1","0.8,0.2,0.2,0.2,0.8,0.2,0.2,0.2,0.8","0.8,0.2,0.2,0.2,0.8,0.2,0.2,0.2,0.8","1","",""
"","html-keyboard-response","129","34412","0.0-129.0","32ZKVD547G98F6JIFIJQB7J1X9V3BM","A3774HPOUKYTX7","3MXX6RQ9EVRTFC527Z18RDK8KW6P4R","","null","<img src=""img/land1.png"" style=""width:200px; border:14px solid green;"">","null","","","","","","","","","",""
"","image-keyboard-response","130","34487","0.0-130.0","32ZKVD547G98F6JIFIJQB7J1X9V3BM","A3774HPOUKYTX7","3MXX6RQ9EVRTFC527Z18RDK8KW6P4R","","73.39999999850988","img/land5.png","74","74.39999999850988","1","1","3","1","0.8,0.2,0.2,0.2,0.8,0.2,0.2,0.2,0.8","0.8,0.2,0.2,0.2,0.8,0.2,0.2,0.2,0.8","1","",""
"","html-keyboard-response","131","34789","0.0-131.0","32ZKVD547G98F6JIFIJQB7J1X9V3BM","A3774HPOUKYTX7","3MXX6RQ9EVRTFC527Z18RDK8KW6P4R","","null","<img src=""img/land5.png"" style=""width:200px; border:14px solid green;"">","null","","","","","","","","","",""
"","image-keyboard-response","132","34873","0.0-132.0","32ZKVD547G98F6JIFIJQB7J1X9V3BM","A3774HPOUKYTX7","3MXX6RQ9EVRTFC527Z18RDK8KW6P4R","","83","img/land5.png","76","83.79999999701977","3","1","3","1","0.8,0.2,0.2,0.2,0.8,0.2,0.2,0.2,0.8","0.8,0.2,0.2,0.2,0.8,0.2,0.2,0.2,0.8","1","",""
"","html-keyboard-response","133","35175","0.0-133.0","32ZKVD547G98F6JIFIJQB7J1X9V3BM","A3774HPOUKYTX7","3MXX6RQ9EVRTFC527Z18RDK8KW6P4R","","null","<img src=""img/land5.png"" style=""width:200px; border:14px solid green;"">","null","","","","","","","","","",""
"","image-keyboard-response","134","35245","0.0-134.0","32ZKVD547G98F6JIFIJQB7J1X9V3BM","A3774HPOUKYTX7","3MXX6RQ9EVRTFC527Z18RDK8KW6P4R","","68.89999999850988","img/land1.png","75","69.69999999552965","2","0","1","1","0.8,0.2,0.2,0.2,0.8,0.2,0.2,0.2,0.8","0.8,0.2,0.2,0.2,0.8,0.2,0.2,0.2,0.8","1","",""
"","html-keyboard-response","135","35547","0.0-135.0","32ZKVD547G98F6JIFIJQB7J1X9V3BM","A3774HPOUKYTX7","3MXX6RQ9EVRTFC527Z18RDK8KW6P4R","","null","<img src=""img/land1.png"" style=""width:200px;border:14px solid red;"">","null","","","","","","","","","",""
"","image-keyboard-response","136","35834","0.0-136.0","32ZKVD547G98F6JIFIJQB7J1X9V3BM","A3774HPOUKYTX7","3MXX6RQ9EVRTFC527Z18RDK8KW6P4R","","284.8999999985099","img/land3.png","75","286.79999999701977","2","0","2","1","0.8,0.2,0.2,0.2,0.8,0.2,0.2,0.2,0.8","0.8,0.2,0.2,0.2,0.8,0.2,0.2,0.2,0.8","1","",""
"","html-keyboard-response","137","36136","0.0-137.0","32ZKVD547G98F6JIFIJQB7J1X9V3BM","A3774HPOUKYTX7","3MXX6RQ9EVRTFC527Z18RDK8KW6P4R","","null","<img src=""img/land3.png"" style=""width:200px;border:14px solid red;"">","null","","","","","","","","","",""
"","image-keyboard-response","138","36421","0.0-138.0","32ZKVD547G98F6JIFIJQB7J1X9V3BM","A3774HPOUKYTX7","3MXX6RQ9EVRTFC527Z18RDK8KW6P4R","","282.8999999985099","img/land3.png","75","284.6000000014901","2","0","2","1","0.8,0.2,0.2,0.2,0.8,0.2,0.2,0.2,0.8","0.8,0.2,0.2,0.2,0.8,0.2,0.2,0.2,0.8","1","",""
"","html-keyboard-response","139","36724","0.0-139.0","32ZKVD547G98F6JIFIJQB7J1X9V3BM","A3774HPOUKYTX7","3MXX6RQ9EVRTFC527Z18RDK8KW6P4R","","null","<img src=""img/land3.png"" style=""width:200px;border:14px solid red;"">","null","","","","","","","","","",""
"","image-keyboard-response","140","37011","0.0-140.0","32ZKVD547G98F6JIFIJQB7J1X9V3BM","A3774HPOUKYTX7","3MXX6RQ9EVRTFC527Z18RDK8KW6P4R","","285.29999999701977","img/land5.png","75","286.70000000298023","2","0","3","1","0.8,0.2,0.2,0.2,0.8,0.2,0.2,0.2,0.8","0.8,0.2,0.2,0.2,0.8,0.2,0.2,0.2,0.8","1","",""
"","html-keyboard-response","141","37314","0.0-141.0","32ZKVD547G98F6JIFIJQB7J1X9V3BM","A3774HPOUKYTX7","3MXX6RQ9EVRTFC527Z18RDK8KW6P4R","","null","<img src=""img/land5.png"" style=""width:200px;border:14px solid red;"">","null","","","","","","","","","",""
"","image-keyboard-response","142","37602","0.0-142.0","32ZKVD547G98F6JIFIJQB7J1X9V3BM","A3774HPOUKYTX7","3MXX6RQ9EVRTFC527Z18RDK8KW6P4R","","287.3999999985099","img/land3.png","76","288.20000000298023","3","0","2","1","0.8,0.2,0.2,0.2,0.8,0.2,0.2,0.2,0.8","0.8,0.2,0.2,0.2,0.8,0.2,0.2,0.2,0.8","1","",""
"","html-keyboard-response","143","37905","0.0-143.0","32ZKVD547G98F6JIFIJQB7J1X9V3BM","A3774HPOUKYTX7","3MXX6RQ9EVRTFC527Z18RDK8KW6P4R","","null","<img src=""img/land3.png"" style=""width:200px;border:14px solid red;"">","null","","","","","","","","","",""
"","image-keyboard-response","144","38041","0.0-144.0","32ZKVD547G98F6JIFIJQB7J1X9V3BM","A3774HPOUKYTX7","3MXX6RQ9EVRTFC527Z18RDK8KW6P4R","","135.5","img/land3.png","75","136.29999999701977","2","1","2","1","0.8,0.2,0.2,0.2,0.8,0.2,0.2,0.2,0.8","0.8,0.2,0.2,0.2,0.8,0.2,0.2,0.2,0.8","1","",""
"","html-keyboard-response","145","38344","0.0-145.0","32ZKVD547G98F6JIFIJQB7J1X9V3BM","A3774HPOUKYTX7","3MXX6RQ9EVRTFC527Z18RDK8KW6P4R","","null","<img src=""img/land3.png"" style=""width:200px; border:14px solid green;"">","null","","","","","","","","","",""
"","image-keyboard-response","146","38661","0.0-146.0","32ZKVD547G98F6JIFIJQB7J1X9V3BM","A3774HPOUKYTX7","3MXX6RQ9EVRTFC527Z18RDK8KW6P4R","","316.5","img/land3.png","75","317.3999999985099","2","1","2","1","0.8,0.2,0.2,0.2,0.8,0.2,0.2,0.2,0.8","0.8,0.2,0.2,0.2,0.8,0.2,0.2,0.2,0.8","1","",""
"","html-keyboard-response","147","38963","0.0-147.0","32ZKVD547G98F6JIFIJQB7J1X9V3BM","A3774HPOUKYTX7","3MXX6RQ9EVRTFC527Z18RDK8KW6P4R","","null","<img src=""img/land3.png"" style=""width:200px; border:14px solid green;"">","null","","","","","","","","","",""
"","image-keyboard-response","148","39109","0.0-148.0","32ZKVD547G98F6JIFIJQB7J1X9V3BM","A3774HPOUKYTX7","3MXX6RQ9EVRTFC527Z18RDK8KW6P4R","","144.5","img/land3.png","76","145.5","3","0","2","1","0.8,0.2,0.2,0.2,0.8,0.2,0.2,0.2,0.8","0.8,0.2,0.2,0.2,0.8,0.2,0.2,0.2,0.8","1","",""
"","html-keyboard-response","149","39411","0.0-149.0","32ZKVD547G98F6JIFIJQB7J1X9V3BM","A3774HPOUKYTX7","3MXX6RQ9EVRTFC527Z18RDK8KW6P4R","","null","<img src=""img/land3.png"" style=""width:200px;border:14px solid red;"">","null","","","","","","","","","",""
"","image-keyboard-response","150","39456","0.0-150.0","32ZKVD547G98F6JIFIJQB7J1X9V3BM","A3774HPOUKYTX7","3MXX6RQ9EVRTFC527Z18RDK8KW6P4R","","43.099999994039536","img/land1.png","75","44.399999998509884","2","0","1","1","0.8,0.2,0.2,0.2,0.8,0.2,0.2,0.2,0.8","0.8,0.2,0.2,0.2,0.8,0.2,0.2,0.2,0.8","1","",""
"","html-keyboard-response","151","39758","0.0-151.0","32ZKVD547G98F6JIFIJQB7J1X9V3BM","A3774HPOUKYTX7","3MXX6RQ9EVRTFC527Z18RDK8KW6P4R","","null","<img src=""img/land1.png"" style=""width:200px;border:14px solid red;"">","null","","","","","","","","","",""
"","image-keyboard-response","152","39946","0.0-152.0","32ZKVD547G98F6JIFIJQB7J1X9V3BM","A3774HPOUKYTX7","3MXX6RQ9EVRTFC527Z18RDK8KW6P4R","","186.60000000149012","img/land5.png","74","188.10000000149012","1","0","3","1","0.8,0.2,0.2,0.2,0.8,0.2,0.2,0.2,0.8","0.8,0.2,0.2,0.2,0.8,0.2,0.2,0.2,0.8","1","",""
"","html-keyboard-response","153","40249","0.0-153.0","32ZKVD547G98F6JIFIJQB7J1X9V3BM","A3774HPOUKYTX7","3MXX6RQ9EVRTFC527Z18RDK8KW6P4R","","null","<img src=""img/land5.png"" style=""width:200px;border:14px solid red;"">","null","","","","","","","","","",""
"","image-keyboard-response","154","40334","0.0-154.0","32ZKVD547G98F6JIFIJQB7J1X9V3BM","A3774HPOUKYTX7","3MXX6RQ9EVRTFC527Z18RDK8KW6P4R","","84.20000000298023","img/land5.png","75","85.5","2","0","3","1","0.8,0.2,0.2,0.2,0.8,0.2,0.2,0.2,0.8","0.8,0.2,0.2,0.2,0.8,0.2,0.2,0.2,0.8","1","",""
"","html-keyboard-response","155","40638","0.0-155.0","32ZKVD547G98F6JIFIJQB7J1X9V3BM","A3774HPOUKYTX7","3MXX6RQ9EVRTFC527Z18RDK8KW6P4R","","null","<img src=""img/land5.png"" style=""width:200px;border:14px solid red;"">","null","","","","","","","","","",""
"","image-keyboard-response","156","40676","0.0-156.0","32ZKVD547G98F6JIFIJQB7J1X9V3BM","A3774HPOUKYTX7","3MXX6RQ9EVRTFC527Z18RDK8KW6P4R","","37.899999998509884","img/land1.png","74","38.80000000447035","1","1","1","1","0.8,0.2,0.2,0.2,0.8,0.2,0.2,0.2,0.8","0.8,0.2,0.2,0.2,0.8,0.2,0.2,0.2,0.8","1","",""
"","html-keyboard-response","157","40979","0.0-157.0","32ZKVD547G98F6JIFIJQB7J1X9V3BM","A3774HPOUKYTX7","3MXX6RQ9EVRTFC527Z18RDK8KW6P4R","","null","<img src=""img/land1.png"" style=""width:200px; border:14px solid green;"">","null","","","","","","","","","",""
"","image-keyboard-response","158","41031","0.0-158.0","32ZKVD547G98F6JIFIJQB7J1X9V3BM","A3774HPOUKYTX7","3MXX6RQ9EVRTFC527Z18RDK8KW6P4R","","51","img/land1.png","75","51.70000000298023","2","0","1","1","0.8,0.2,0.2,0.2,0.8,0.2,0.2,0.2,0.8","0.8,0.2,0.2,0.2,0.8,0.2,0.2,0.2,0.8","1","",""
"","html-keyboard-response","159","41333","0.0-159.0","32ZKVD547G98F6JIFIJQB7J1X9V3BM","A3774HPOUKYTX7","3MXX6RQ9EVRTFC527Z18RDK8KW6P4R","","null","<img src=""img/land1.png"" style=""width:200px;border:14px solid red;"">","null","","","","","","","","","",""
"","image-keyboard-response","160","41396","0.0-160.0","32ZKVD547G98F6JIFIJQB7J1X9V3BM","A3774HPOUKYTX7","3MXX6RQ9EVRTFC527Z18RDK8KW6P4R","","61.79999999701977","img/land5.png","75","62.900000005960464","2","1","3","1","0.8,0.2,0.2,0.2,0.8,0.2,0.2,0.2,0.8","0.8,0.2,0.2,0.2,0.8,0.2,0.2,0.2,0.8","1","",""
"","html-keyboard-response","161","41698","0.0-161.0","32ZKVD547G98F6JIFIJQB7J1X9V3BM","A3774HPOUKYTX7","3MXX6RQ9EVRTFC527Z18RDK8KW6P4R","","null","<img src=""img/land5.png"" style=""width:200px; border:14px solid green;"">","null","","","","","","","","","",""
"","image-keyboard-response","162","41772","0.0-162.0","32ZKVD547G98F6JIFIJQB7J1X9V3BM","A3774HPOUKYTX7","3MXX6RQ9EVRTFC527Z18RDK8KW6P4R","","73.29999999701977","img/land1.png","75","74.39999999850988","2","0","1","1","0.8,0.2,0.2,0.2,0.8,0.2,0.2,0.2,0.8","0.8,0.2,0.2,0.2,0.8,0.2,0.2,0.2,0.8","1","",""
"","html-keyboard-response","163","42074","0.0-163.0","32ZKVD547G98F6JIFIJQB7J1X9V3BM","A3774HPOUKYTX7","3MXX6RQ9EVRTFC527Z18RDK8KW6P4R","","null","<img src=""img/land1.png"" style=""width:200px;border:14px solid red;"">","null","","","","","","","","","",""
"","image-keyboard-response","164","42206","0.0-164.0","32ZKVD547G98F6JIFIJQB7J1X9V3BM","A3774HPOUKYTX7","3MXX6RQ9EVRTFC527Z18RDK8KW6P4R","","131.10000000149012","img/land5.png","75","131.89999999850988","2","1","3","1","0.8,0.2,0.2,0.2,0.8,0.2,0.2,0.2,0.8","0.8,0.2,0.2,0.2,0.8,0.2,0.2,0.2,0.8","1","",""
"","html-keyboard-response","165","42508","0.0-165.0","32ZKVD547G98F6JIFIJQB7J1X9V3BM","A3774HPOUKYTX7","3MXX6RQ9EVRTFC527Z18RDK8KW6P4R","","null","<img src=""img/land5.png"" style=""width:200px; border:14px solid green;"">","null","","","","","","","","","",""
"","image-keyboard-response","166","42620","0.0-166.0","32ZKVD547G98F6JIFIJQB7J1X9V3BM","A3774HPOUKYTX7","3MXX6RQ9EVRTFC527Z18RDK8KW6P4R","","110.79999999701977","img/land5.png","75","111.79999999701977","2","0","3","1","0.8,0.2,0.2,0.2,0.8,0.2,0.2,0.2,0.8","0.8,0.2,0.2,0.2,0.8,0.2,0.2,0.2,0.8","1","",""
"","html-keyboard-response","167","42922","0.0-167.0","32ZKVD547G98F6JIFIJQB7J1X9V3BM","A3774HPOUKYTX7","3MXX6RQ9EVRTFC527Z18RDK8KW6P4R","","null","<img src=""img/land5.png"" style=""width:200px;border:14px solid red;"">","null","","","","","","","","","",""
"","image-keyboard-response","168","42950","0.0-168.0","32ZKVD547G98F6JIFIJQB7J1X9V3BM","A3774HPOUKYTX7","3MXX6RQ9EVRTFC527Z18RDK8KW6P4R","","26.799999997019768","img/land1.png","74","28","1","1","1","1","0.8,0.2,0.2,0.2,0.8,0.2,0.2,0.2,0.8","0.8,0.2,0.2,0.2,0.8,0.2,0.2,0.2,0.8","1","",""
"","html-keyboard-response","169","43251","0.0-169.0","32ZKVD547G98F6JIFIJQB7J1X9V3BM","A3774HPOUKYTX7","3MXX6RQ9EVRTFC527Z18RDK8KW6P4R","","null","<img src=""img/land1.png"" style=""width:200px; border:14px solid green;"">","null","","","","","","","","","",""
"","image-keyboard-response","170","43401","0.0-170.0","32ZKVD547G98F6JIFIJQB7J1X9V3BM","A3774HPOUKYTX7","3MXX6RQ9EVRTFC527Z18RDK8KW6P4R","","148.70000000298023","img/land1.png","75","149.39999999850988","2","0","1","1","0.8,0.2,0.2,0.2,0.8,0.2,0.2,0.2,0.8","0.8,0.2,0.2,0.2,0.8,0.2,0.2,0.2,0.8","1","",""
"","html-keyboard-response","171","43703","0.0-171.0","32ZKVD547G98F6JIFIJQB7J1X9V3BM","A3774HPOUKYTX7","3MXX6RQ9EVRTFC527Z18RDK8KW6P4R","","null","<img src=""img/land1.png"" style=""width:200px;border:14px solid red;"">","null","","","","","","","","","",""
"","image-keyboard-response","172","43885","0.0-172.0","32ZKVD547G98F6JIFIJQB7J1X9V3BM","A3774HPOUKYTX7","3MXX6RQ9EVRTFC527Z18RDK8KW6P4R","","179.80000000447035","img/land3.png","75","181.70000000298023","2","1","2","1","0.8,0.2,0.2,0.2,0.8,0.2,0.2,0.2,0.8","0.8,0.2,0.2,0.2,0.8,0.2,0.2,0.2,0.8","1","",""
"","html-keyboard-response","173","44187","0.0-173.0","32ZKVD547G98F6JIFIJQB7J1X9V3BM","A3774HPOUKYTX7","3MXX6RQ9EVRTFC527Z18RDK8KW6P4R","","null","<img src=""img/land3.png"" style=""width:200px; border:14px solid green;"">","null","","","","","","","","","",""
"","image-keyboard-response","174","44422","0.0-174.0","32ZKVD547G98F6JIFIJQB7J1X9V3BM","A3774HPOUKYTX7","3MXX6RQ9EVRTFC527Z18RDK8KW6P4R","","234.10000000149012","img/land5.png","76","235.20000000298023","3","1","3","1","0.8,0.2,0.2,0.2,0.8,0.2,0.2,0.2,0.8","0.8,0.2,0.2,0.2,0.8,0.2,0.2,0.2,0.8","1","",""
"","html-keyboard-response","175","44725","0.0-175.0","32ZKVD547G98F6JIFIJQB7J1X9V3BM","A3774HPOUKYTX7","3MXX6RQ9EVRTFC527Z18RDK8KW6P4R","","null","<img src=""img/land5.png"" style=""width:200px; border:14px solid green;"">","null","","","","","","","","","",""
"","image-keyboard-response","176","44801","0.0-176.0","32ZKVD547G98F6JIFIJQB7J1X9V3BM","A3774HPOUKYTX7","3MXX6RQ9EVRTFC527Z18RDK8KW6P4R","","73.70000000298023","img/land3.png","74","75","1","0","2","1","0.8,0.2,0.2,0.2,0.8,0.2,0.2,0.2,0.8","0.8,0.2,0.2,0.2,0.8,0.2,0.2,0.2,0.8","1","",""
"","html-keyboard-response","177","45102","0.0-177.0","32ZKVD547G98F6JIFIJQB7J1X9V3BM","A3774HPOUKYTX7","3MXX6RQ9EVRTFC527Z18RDK8KW6P4R","","null","<img src=""img/land3.png"" style=""width:200px;border:14px solid red;"">","null","","","","","","","","","",""
"","image-keyboard-response","178","45120","0.0-178.0","32ZKVD547G98F6JIFIJQB7J1X9V3BM","A3774HPOUKYTX7","3MXX6RQ9EVRTFC527Z18RDK8KW6P4R","","16.5","img/land3.png","76","17.299999997019768","3","0","2","1","0.8,0.2,0.2,0.2,0.8,0.2,0.2,0.2,0.8","0.8,0.2,0.2,0.2,0.8,0.2,0.2,0.2,0.8","1","",""
"","html-keyboard-response","179","45422","0.0-179.0","32ZKVD547G98F6JIFIJQB7J1X9V3BM","A3774HPOUKYTX7","3MXX6RQ9EVRTFC527Z18RDK8KW6P4R","","null","<img src=""img/land3.png"" style=""width:200px;border:14px solid red;"">","null","","","","","","","","","",""
"","image-keyboard-response","180","45435","0.0-180.0","32ZKVD547G98F6JIFIJQB7J1X9V3BM","A3774HPOUKYTX7","3MXX6RQ9EVRTFC527Z18RDK8KW6P4R","","11.200000002980232","img/land3.png","76","12.5","3","1","2","1","0.8,0.2,0.2,0.2,0.8,0.2,0.2,0.2,0.8","0.8,0.2,0.2,0.2,0.8,0.2,0.2,0.2,0.8","1","",""
"","html-keyboard-response","181","45738","0.0-181.0","32ZKVD547G98F6JIFIJQB7J1X9V3BM","A3774HPOUKYTX7","3MXX6RQ9EVRTFC527Z18RDK8KW6P4R","","null","<img src=""img/land3.png"" style=""width:200px; border:14px solid green;"">","null","","","","","","","","","",""
"","html-keyboard-response","182","47237","0.0-182.0","32ZKVD547G98F6JIFIJQB7J1X9V3BM","A3774HPOUKYTX7","3MXX6RQ9EVRTFC527Z18RDK8KW6P4R","","","","","","","","","","","","","",""
"","image-keyboard-response","183","47400","0.0-183.0","32ZKVD547G98F6JIFIJQB7J1X9V3BM","A3774HPOUKYTX7","3MXX6RQ9EVRTFC527Z18RDK8KW6P4R","","161.20000000298023","img/land6.png","74","162.40000000596046","1","0","3","2","0.8,0.2,0.2,0.2,0.8,0.2,0.2,0.2,0.8","0.8,0.2,0.2,0.2,0.8,0.2,0.2,0.2,0.8","1","",""
"","html-keyboard-response","184","47702","0.0-184.0","32ZKVD547G98F6JIFIJQB7J1X9V3BM","A3774HPOUKYTX7","3MXX6RQ9EVRTFC527Z18RDK8KW6P4R","","null","<img src=""img/land6.png"" style=""width:200px;border:14px solid red;"">","null","","","","","","","","","",""
"","image-keyboard-response","185","47726","0.0-185.0","32ZKVD547G98F6JIFIJQB7J1X9V3BM","A3774HPOUKYTX7","3MXX6RQ9EVRTFC527Z18RDK8KW6P4R","","23.19999999552965","img/land4.png","75","24.099999994039536","2","0","1","2","0.8,0.2,0.2,0.2,0.8,0.2,0.2,0.2,0.8","0.8,0.2,0.2,0.2,0.8,0.2,0.2,0.2,0.8","1","",""
"","html-keyboard-response","186","48028","0.0-186.0","32ZKVD547G98F6JIFIJQB7J1X9V3BM","A3774HPOUKYTX7","3MXX6RQ9EVRTFC527Z18RDK8KW6P4R","","null","<img src=""img/land4.png"" style=""width:200px;border:14px solid red;"">","null","","","","","","","","","",""
"","image-keyboard-response","187","48175","0.0-187.0","32ZKVD547G98F6JIFIJQB7J1X9V3BM","A3774HPOUKYTX7","3MXX6RQ9EVRTFC527Z18RDK8KW6P4R","","146.30000000447035","img/land4.png","76","147.20000000298023","3","1","1","2","0.8,0.2,0.2,0.2,0.8,0.2,0.2,0.2,0.8","0.8,0.2,0.2,0.2,0.8,0.2,0.2,0.2,0.8","1","",""
"","html-keyboard-response","188","48477","0.0-188.0","32ZKVD547G98F6JIFIJQB7J1X9V3BM","A3774HPOUKYTX7","3MXX6RQ9EVRTFC527Z18RDK8KW6P4R","","null","<img src=""img/land4.png"" style=""width:200px; border:14px solid green;"">","null","","","","","","","","","",""
"","image-keyboard-response","189","48558","0.0-189.0","32ZKVD547G98F6JIFIJQB7J1X9V3BM","A3774HPOUKYTX7","3MXX6RQ9EVRTFC527Z18RDK8KW6P4R","","79.79999999701977","img/land6.png","75","80.69999999552965","2","0","3","2","0.8,0.2,0.2,0.2,0.8,0.2,0.2,0.2,0.8","0.8,0.2,0.2,0.2,0.8,0.2,0.2,0.2,0.8","1","",""
"","html-keyboard-response","190","48860","0.0-190.0","32ZKVD547G98F6JIFIJQB7J1X9V3BM","A3774HPOUKYTX7","3MXX6RQ9EVRTFC527Z18RDK8KW6P4R","","null","<img src=""img/land6.png"" style=""width:200px;border:14px solid red;"">","null","","","","","","","","","",""
"","image-keyboard-response","191","49128","0.0-191.0","32ZKVD547G98F6JIFIJQB7J1X9V3BM","A3774HPOUKYTX7","3MXX6RQ9EVRTFC527Z18RDK8KW6P4R","","266.59999999403954","img/land2.png","75","267.40000000596046","2","1","2","2","0.8,0.2,0.2,0.2,0.8,0.2,0.2,0.2,0.8","0.8,0.2,0.2,0.2,0.8,0.2,0.2,0.2,0.8","1","",""
"","html-keyboard-response","192","49430","0.0-192.0","32ZKVD547G98F6JIFIJQB7J1X9V3BM","A3774HPOUKYTX7","3MXX6RQ9EVRTFC527Z18RDK8KW6P4R","","null","<img src=""img/land2.png"" style=""width:200px; border:14px solid green;"">","null","","","","","","","","","",""
"","image-keyboard-response","193","49531","0.0-193.0","32ZKVD547G98F6JIFIJQB7J1X9V3BM","A3774HPOUKYTX7","3MXX6RQ9EVRTFC527Z18RDK8KW6P4R","","100.40000000596046","img/land6.png","74","101.40000000596046","1","1","3","2","0.8,0.2,0.2,0.2,0.8,0.2,0.2,0.2,0.8","0.8,0.2,0.2,0.2,0.8,0.2,0.2,0.2,0.8","1","",""
"","html-keyboard-response","194","49834","0.0-194.0","32ZKVD547G98F6JIFIJQB7J1X9V3BM","A3774HPOUKYTX7","3MXX6RQ9EVRTFC527Z18RDK8KW6P4R","","null","<img src=""img/land6.png"" style=""width:200px; border:14px solid green;"">","null","","","","","","","","","",""
"","image-keyboard-response","195","49844","0.0-195.0","32ZKVD547G98F6JIFIJQB7J1X9V3BM","A3774HPOUKYTX7","3MXX6RQ9EVRTFC527Z18RDK8KW6P4R","","9.100000001490116","img/land4.png","75","9.899999998509884","2","1","1","2","0.8,0.2,0.2,0.2,0.8,0.2,0.2,0.2,0.8","0.8,0.2,0.2,0.2,0.8,0.2,0.2,0.2,0.8","1","",""
"","html-keyboard-response","196","50146","0.0-196.0","32ZKVD547G98F6JIFIJQB7J1X9V3BM","A3774HPOUKYTX7","3MXX6RQ9EVRTFC527Z18RDK8KW6P4R","","null","<img src=""img/land4.png"" style=""width:200px; border:14px solid green;"">","null","","","","","","","","","",""
"","image-keyboard-response","197","50293","0.0-197.0","32ZKVD547G98F6JIFIJQB7J1X9V3BM","A3774HPOUKYTX7","3MXX6RQ9EVRTFC527Z18RDK8KW6P4R","","146.10000000149012","img/land4.png","74","147.10000000149012","1","1","1","2","0.8,0.2,0.2,0.2,0.8,0.2,0.2,0.2,0.8","0.8,0.2,0.2,0.2,0.8,0.2,0.2,0.2,0.8","1","",""
"","html-keyboard-response","198","50595","0.0-198.0","32ZKVD547G98F6JIFIJQB7J1X9V3BM","A3774HPOUKYTX7","3MXX6RQ9EVRTFC527Z18RDK8KW6P4R","","null","<img src=""img/land4.png"" style=""width:200px; border:14px solid green;"">","null","","","","","","","","","",""
"","image-keyboard-response","199","50644","0.0-199.0","32ZKVD547G98F6JIFIJQB7J1X9V3BM","A3774HPOUKYTX7","3MXX6RQ9EVRTFC527Z18RDK8KW6P4R","","48.600000001490116","img/land4.png","75","49.30000000447035","2","0","1","2","0.8,0.2,0.2,0.2,0.8,0.2,0.2,0.2,0.8","0.8,0.2,0.2,0.2,0.8,0.2,0.2,0.2,0.8","1","",""
"","html-keyboard-response","200","50946","0.0-200.0","32ZKVD547G98F6JIFIJQB7J1X9V3BM","A3774HPOUKYTX7","3MXX6RQ9EVRTFC527Z18RDK8KW6P4R","","null","<img src=""img/land4.png"" style=""width:200px;border:14px solid red;"">","null","","","","","","","","","",""
"","image-keyboard-response","201","51102","0.0-201.0","32ZKVD547G98F6JIFIJQB7J1X9V3BM","A3774HPOUKYTX7","3MXX6RQ9EVRTFC527Z18RDK8KW6P4R","","154.5","img/land2.png","76","155.29999999701977","3","0","2","2","0.8,0.2,0.2,0.2,0.8,0.2,0.2,0.2,0.8","0.8,0.2,0.2,0.2,0.8,0.2,0.2,0.2,0.8","1","",""
"","html-keyboard-response","202","51403","0.0-202.0","32ZKVD547G98F6JIFIJQB7J1X9V3BM","A3774HPOUKYTX7","3MXX6RQ9EVRTFC527Z18RDK8KW6P4R","","null","<img src=""img/land2.png"" style=""width:200px;border:14px solid red;"">","null","","","","","","","","","",""
"","image-keyboard-response","203","51418","0.0-203.0","32ZKVD547G98F6JIFIJQB7J1X9V3BM","A3774HPOUKYTX7","3MXX6RQ9EVRTFC527Z18RDK8KW6P4R","","13.399999998509884","img/land6.png","76","14.800000004470348","3","1","3","2","0.8,0.2,0.2,0.2,0.8,0.2,0.2,0.2,0.8","0.8,0.2,0.2,0.2,0.8,0.2,0.2,0.2,0.8","1","",""
"","html-keyboard-response","204","51721","0.0-204.0","32ZKVD547G98F6JIFIJQB7J1X9V3BM","A3774HPOUKYTX7","3MXX6RQ9EVRTFC527Z18RDK8KW6P4R","","null","<img src=""img/land6.png"" style=""width:200px; border:14px solid green;"">","null","","","","","","","","","",""
"","image-keyboard-response","205","51745","0.0-205.0","32ZKVD547G98F6JIFIJQB7J1X9V3BM","A3774HPOUKYTX7","3MXX6RQ9EVRTFC527Z18RDK8KW6P4R","","22.799999997019768","img/land4.png","76","23.599999994039536","3","0","1","2","0.8,0.2,0.2,0.2,0.8,0.2,0.2,0.2,0.8","0.8,0.2,0.2,0.2,0.8,0.2,0.2,0.2,0.8","1","",""
"","html-keyboard-response","206","52047","0.0-206.0","32ZKVD547G98F6JIFIJQB7J1X9V3BM","A3774HPOUKYTX7","3MXX6RQ9EVRTFC527Z18RDK8KW6P4R","","null","<img src=""img/land4.png"" style=""width:200px;border:14px solid red;"">","null","","","","","","","","","",""
"","image-keyboard-response","207","52062","0.0-207.0","32ZKVD547G98F6JIFIJQB7J1X9V3BM","A3774HPOUKYTX7","3MXX6RQ9EVRTFC527Z18RDK8KW6P4R","","14.199999995529652","img/land6.png","75","15","2","0","3","2","0.8,0.2,0.2,0.2,0.8,0.2,0.2,0.2,0.8","0.8,0.2,0.2,0.2,0.8,0.2,0.2,0.2,0.8","1","",""
"","html-keyboard-response","208","52364","0.0-208.0","32ZKVD547G98F6JIFIJQB7J1X9V3BM","A3774HPOUKYTX7","3MXX6RQ9EVRTFC527Z18RDK8KW6P4R","","null","<img src=""img/land6.png"" style=""width:200px;border:14px solid red;"">","null","","","","","","","","","",""
"","image-keyboard-response","209","52610","0.0-209.0","32ZKVD547G98F6JIFIJQB7J1X9V3BM","A3774HPOUKYTX7","3MXX6RQ9EVRTFC527Z18RDK8KW6P4R","","244.69999999552965","img/land4.png","76","245.60000000149012","3","0","1","2","0.8,0.2,0.2,0.2,0.8,0.2,0.2,0.2,0.8","0.8,0.2,0.2,0.2,0.8,0.2,0.2,0.2,0.8","1","",""
"","html-keyboard-response","210","52912","0.0-210.0","32ZKVD547G98F6JIFIJQB7J1X9V3BM","A3774HPOUKYTX7","3MXX6RQ9EVRTFC527Z18RDK8KW6P4R","","null","<img src=""img/land4.png"" style=""width:200px;border:14px solid red;"">","null","","","","","","","","","",""
"","image-keyboard-response","211","53211","0.0-211.0","32ZKVD547G98F6JIFIJQB7J1X9V3BM","A3774HPOUKYTX7","3MXX6RQ9EVRTFC527Z18RDK8KW6P4R","","298","img/land4.png","76","298.79999999701977","3","0","1","2","0.8,0.2,0.2,0.2,0.8,0.2,0.2,0.2,0.8","0.8,0.2,0.2,0.2,0.8,0.2,0.2,0.2,0.8","1","",""
"","html-keyboard-response","212","53512","0.0-212.0","32ZKVD547G98F6JIFIJQB7J1X9V3BM","A3774HPOUKYTX7","3MXX6RQ9EVRTFC527Z18RDK8KW6P4R","","null","<img src=""img/land4.png"" style=""width:200px;border:14px solid red;"">","null","","","","","","","","","",""
"","image-keyboard-response","213","53973","0.0-213.0","32ZKVD547G98F6JIFIJQB7J1X9V3BM","A3774HPOUKYTX7","3MXX6RQ9EVRTFC527Z18RDK8KW6P4R","","459","img/land2.png","75","460.29999999701977","2","1","2","2","0.8,0.2,0.2,0.2,0.8,0.2,0.2,0.2,0.8","0.8,0.2,0.2,0.2,0.8,0.2,0.2,0.2,0.8","1","",""
"","html-keyboard-response","214","54275","0.0-214.0","32ZKVD547G98F6JIFIJQB7J1X9V3BM","A3774HPOUKYTX7","3MXX6RQ9EVRTFC527Z18RDK8KW6P4R","","null","<img src=""img/land2.png"" style=""width:200px; border:14px solid green;"">","null","","","","","","","","","",""
"","image-keyboard-response","215","54358","0.0-215.0","32ZKVD547G98F6JIFIJQB7J1X9V3BM","A3774HPOUKYTX7","3MXX6RQ9EVRTFC527Z18RDK8KW6P4R","","82.40000000596046","img/land4.png","75","83.39999999850988","2","0","1","2","0.8,0.2,0.2,0.2,0.8,0.2,0.2,0.2,0.8","0.8,0.2,0.2,0.2,0.8,0.2,0.2,0.2,0.8","1","",""
"","html-keyboard-response","216","54660","0.0-216.0","32ZKVD547G98F6JIFIJQB7J1X9V3BM","A3774HPOUKYTX7","3MXX6RQ9EVRTFC527Z18RDK8KW6P4R","","null","<img src=""img/land4.png"" style=""width:200px;border:14px solid red;"">","null","","","","","","","","","",""
"","image-keyboard-response","217","54806","0.0-217.0","32ZKVD547G98F6JIFIJQB7J1X9V3BM","A3774HPOUKYTX7","3MXX6RQ9EVRTFC527Z18RDK8KW6P4R","","145.10000000149012","img/land4.png","75","146.30000000447035","2","0","1","2","0.8,0.2,0.2,0.2,0.8,0.2,0.2,0.2,0.8","0.8,0.2,0.2,0.2,0.8,0.2,0.2,0.2,0.8","1","",""
"","html-keyboard-response","218","55109","0.0-218.0","32ZKVD547G98F6JIFIJQB7J1X9V3BM","A3774HPOUKYTX7","3MXX6RQ9EVRTFC527Z18RDK8KW6P4R","","null","<img src=""img/land4.png"" style=""width:200px;border:14px solid red;"">","null","","","","","","","","","",""
"","image-keyboard-response","219","55299","0.0-219.0","32ZKVD547G98F6JIFIJQB7J1X9V3BM","A3774HPOUKYTX7","3MXX6RQ9EVRTFC527Z18RDK8KW6P4R","","189.20000000298023","img/land4.png","76","190","3","1","1","2","0.8,0.2,0.2,0.2,0.8,0.2,0.2,0.2,0.8","0.8,0.2,0.2,0.2,0.8,0.2,0.2,0.2,0.8","1","",""
"","html-keyboard-response","220","55601","0.0-220.0","32ZKVD547G98F6JIFIJQB7J1X9V3BM","A3774HPOUKYTX7","3MXX6RQ9EVRTFC527Z18RDK8KW6P4R","","null","<img src=""img/land4.png"" style=""width:200px; border:14px solid green;"">","null","","","","","","","","","",""
"","image-keyboard-response","221","55835","0.0-221.0","32ZKVD547G98F6JIFIJQB7J1X9V3BM","A3774HPOUKYTX7","3MXX6RQ9EVRTFC527Z18RDK8KW6P4R","","232.60000000149012","img/land4.png","76","234.10000000149012","3","0","1","2","0.8,0.2,0.2,0.2,0.8,0.2,0.2,0.2,0.8","0.8,0.2,0.2,0.2,0.8,0.2,0.2,0.2,0.8","1","",""
"","html-keyboard-response","222","56138","0.0-222.0","32ZKVD547G98F6JIFIJQB7J1X9V3BM","A3774HPOUKYTX7","3MXX6RQ9EVRTFC527Z18RDK8KW6P4R","","null","<img src=""img/land4.png"" style=""width:200px;border:14px solid red;"">","null","","","","","","","","","",""
"","image-keyboard-response","223","56219","0.0-223.0","32ZKVD547G98F6JIFIJQB7J1X9V3BM","A3774HPOUKYTX7","3MXX6RQ9EVRTFC527Z18RDK8KW6P4R","","79.39999999850988","img/land2.png","76","80.80000000447035","3","0","2","2","0.8,0.2,0.2,0.2,0.8,0.2,0.2,0.2,0.8","0.8,0.2,0.2,0.2,0.8,0.2,0.2,0.2,0.8","1","",""
"","html-keyboard-response","224","56521","0.0-224.0","32ZKVD547G98F6JIFIJQB7J1X9V3BM","A3774HPOUKYTX7","3MXX6RQ9EVRTFC527Z18RDK8KW6P4R","","null","<img src=""img/land2.png"" style=""width:200px;border:14px solid red;"">","null","","","","","","","","","",""
"","image-keyboard-response","225","56564","0.0-225.0","32ZKVD547G98F6JIFIJQB7J1X9V3BM","A3774HPOUKYTX7","3MXX6RQ9EVRTFC527Z18RDK8KW6P4R","","42","img/land4.png","74","43.099999994039536","1","1","1","2","0.8,0.2,0.2,0.2,0.8,0.2,0.2,0.2,0.8","0.8,0.2,0.2,0.2,0.8,0.2,0.2,0.2,0.8","1","",""
"","html-keyboard-response","226","56867","0.0-226.0","32ZKVD547G98F6JIFIJQB7J1X9V3BM","A3774HPOUKYTX7","3MXX6RQ9EVRTFC527Z18RDK8KW6P4R","","null","<img src=""img/land4.png"" style=""width:200px; border:14px solid green;"">","null","","","","","","","","","",""
"","image-keyboard-response","227","56912","0.0-227.0","32ZKVD547G98F6JIFIJQB7J1X9V3BM","A3774HPOUKYTX7","3MXX6RQ9EVRTFC527Z18RDK8KW6P4R","","44.600000001490116","img/land4.png","76","45.599999994039536","3","1","1","2","0.8,0.2,0.2,0.2,0.8,0.2,0.2,0.2,0.8","0.8,0.2,0.2,0.2,0.8,0.2,0.2,0.2,0.8","1","",""
"","html-keyboard-response","228","57214","0.0-228.0","32ZKVD547G98F6JIFIJQB7J1X9V3BM","A3774HPOUKYTX7","3MXX6RQ9EVRTFC527Z18RDK8KW6P4R","","null","<img src=""img/land4.png"" style=""width:200px; border:14px solid green;"">","null","","","","","","","","","",""
"","image-keyboard-response","229","57246","0.0-229.0","32ZKVD547G98F6JIFIJQB7J1X9V3BM","A3774HPOUKYTX7","3MXX6RQ9EVRTFC527Z18RDK8KW6P4R","","31.100000001490116","img/land2.png","75","32.100000001490116","2","1","2","2","0.8,0.2,0.2,0.2,0.8,0.2,0.2,0.2,0.8","0.8,0.2,0.2,0.2,0.8,0.2,0.2,0.2,0.8","1","",""
"","html-keyboard-response","230","57548","0.0-230.0","32ZKVD547G98F6JIFIJQB7J1X9V3BM","A3774HPOUKYTX7","3MXX6RQ9EVRTFC527Z18RDK8KW6P4R","","null","<img src=""img/land2.png"" style=""width:200px; border:14px solid green;"">","null","","","","","","","","","",""
"","image-keyboard-response","231","57582","0.0-231.0","32ZKVD547G98F6JIFIJQB7J1X9V3BM","A3774HPOUKYTX7","3MXX6RQ9EVRTFC527Z18RDK8KW6P4R","","32.399999998509884","img/land6.png","74","33.29999999701977","1","0","3","2","0.8,0.2,0.2,0.2,0.8,0.2,0.2,0.2,0.8","0.8,0.2,0.2,0.2,0.8,0.2,0.2,0.2,0.8","1","",""
"","html-keyboard-response","232","57884","0.0-232.0","32ZKVD547G98F6JIFIJQB7J1X9V3BM","A3774HPOUKYTX7","3MXX6RQ9EVRTFC527Z18RDK8KW6P4R","","null","<img src=""img/land6.png"" style=""width:200px;border:14px solid red;"">","null","","","","","","","","","",""
"","image-keyboard-response","233","57918","0.0-233.0","32ZKVD547G98F6JIFIJQB7J1X9V3BM","A3774HPOUKYTX7","3MXX6RQ9EVRTFC527Z18RDK8KW6P4R","","33.5","img/land6.png","74","34.600000001490116","1","0","3","2","0.8,0.2,0.2,0.2,0.8,0.2,0.2,0.2,0.8","0.8,0.2,0.2,0.2,0.8,0.2,0.2,0.2,0.8","1","",""
"","html-keyboard-response","234","58220","0.0-234.0","32ZKVD547G98F6JIFIJQB7J1X9V3BM","A3774HPOUKYTX7","3MXX6RQ9EVRTFC527Z18RDK8KW6P4R","","null","<img src=""img/land6.png"" style=""width:200px;border:14px solid red;"">","null","","","","","","","","","",""
"","image-keyboard-response","235","58321","0.0-235.0","32ZKVD547G98F6JIFIJQB7J1X9V3BM","A3774HPOUKYTX7","3MXX6RQ9EVRTFC527Z18RDK8KW6P4R","","99.09999999403954","img/land4.png","74","100","1","1","1","2","0.8,0.2,0.2,0.2,0.8,0.2,0.2,0.2,0.8","0.8,0.2,0.2,0.2,0.8,0.2,0.2,0.2,0.8","1","",""
"","html-keyboard-response","236","58622","0.0-236.0","32ZKVD547G98F6JIFIJQB7J1X9V3BM","A3774HPOUKYTX7","3MXX6RQ9EVRTFC527Z18RDK8KW6P4R","","null","<img src=""img/land4.png"" style=""width:200px; border:14px solid green;"">","null","","","","","","","","","",""
"","image-keyboard-response","237","58708","0.0-237.0","32ZKVD547G98F6JIFIJQB7J1X9V3BM","A3774HPOUKYTX7","3MXX6RQ9EVRTFC527Z18RDK8KW6P4R","","84.19999999552965","img/land6.png","74","85","1","0","3","2","0.8,0.2,0.2,0.2,0.8,0.2,0.2,0.2,0.8","0.8,0.2,0.2,0.2,0.8,0.2,0.2,0.2,0.8","1","",""
"","html-keyboard-response","238","59009","0.0-238.0","32ZKVD547G98F6JIFIJQB7J1X9V3BM","A3774HPOUKYTX7","3MXX6RQ9EVRTFC527Z18RDK8KW6P4R","","null","<img src=""img/land6.png"" style=""width:200px;border:14px solid red;"">","null","","","","","","","","","",""
"","image-keyboard-response","239","59098","0.0-239.0","32ZKVD547G98F6JIFIJQB7J1X9V3BM","A3774HPOUKYTX7","3MXX6RQ9EVRTFC527Z18RDK8KW6P4R","","88.5","img/land4.png","74","89.39999999850988","1","1","1","2","0.8,0.2,0.2,0.2,0.8,0.2,0.2,0.2,0.8","0.8,0.2,0.2,0.2,0.8,0.2,0.2,0.2,0.8","1","",""
"","html-keyboard-response","240","59400","0.0-240.0","32ZKVD547G98F6JIFIJQB7J1X9V3BM","A3774HPOUKYTX7","3MXX6RQ9EVRTFC527Z18RDK8KW6P4R","","null","<img src=""img/land4.png"" style=""width:200px; border:14px solid green;"">","null","","","","","","","","","",""
"","image-keyboard-response","241","59597","0.0-241.0","32ZKVD547G98F6JIFIJQB7J1X9V3BM","A3774HPOUKYTX7","3MXX6RQ9EVRTFC527Z18RDK8KW6P4R","","196.09999999403954","img/land2.png","75","197","2","0","2","2","0.8,0.2,0.2,0.2,0.8,0.2,0.2,0.2,0.8","0.8,0.2,0.2,0.2,0.8,0.2,0.2,0.2,0.8","1","",""
"","html-keyboard-response","242","59899","0.0-242.0","32ZKVD547G98F6JIFIJQB7J1X9V3BM","A3774HPOUKYTX7","3MXX6RQ9EVRTFC527Z18RDK8KW6P4R","","null","<img src=""img/land2.png"" style=""width:200px;border:14px solid red;"">","null","","","","","","","","","",""
"","image-keyboard-response","243","59929","0.0-243.0","32ZKVD547G98F6JIFIJQB7J1X9V3BM","A3774HPOUKYTX7","3MXX6RQ9EVRTFC527Z18RDK8KW6P4R","","29.100000001490116","img/land2.png","75","29.799999997019768","2","1","2","2","0.8,0.2,0.2,0.2,0.8,0.2,0.2,0.2,0.8","0.8,0.2,0.2,0.2,0.8,0.2,0.2,0.2,0.8","1","",""
"","html-keyboard-response","244","60231","0.0-244.0","32ZKVD547G98F6JIFIJQB7J1X9V3BM","A3774HPOUKYTX7","3MXX6RQ9EVRTFC527Z18RDK8KW6P4R","","null","<img src=""img/land2.png"" style=""width:200px; border:14px solid green;"">","null","","","","","","","","","",""
"","image-keyboard-response","245","60314","0.0-245.0","32ZKVD547G98F6JIFIJQB7J1X9V3BM","A3774HPOUKYTX7","3MXX6RQ9EVRTFC527Z18RDK8KW6P4R","","82.29999999701977","img/land4.png","75","83.20000000298023","2","0","1","2","0.8,0.2,0.2,0.2,0.8,0.2,0.2,0.2,0.8","0.8,0.2,0.2,0.2,0.8,0.2,0.2,0.2,0.8","1","",""
"","html-keyboard-response","246","60615","0.0-246.0","32ZKVD547G98F6JIFIJQB7J1X9V3BM","A3774HPOUKYTX7","3MXX6RQ9EVRTFC527Z18RDK8KW6P4R","","null","<img src=""img/land4.png"" style=""width:200px;border:14px solid red;"">","null","","","","","","","","","",""
"","image-keyboard-response","247","60860","0.0-247.0","32ZKVD547G98F6JIFIJQB7J1X9V3BM","A3774HPOUKYTX7","3MXX6RQ9EVRTFC527Z18RDK8KW6P4R","","243.80000000447035","img/land6.png","75","244.70000000298023","2","0","3","2","0.8,0.2,0.2,0.2,0.8,0.2,0.2,0.2,0.8","0.8,0.2,0.2,0.2,0.8,0.2,0.2,0.2,0.8","1","",""
"","html-keyboard-response","248","61162","0.0-248.0","32ZKVD547G98F6JIFIJQB7J1X9V3BM","A3774HPOUKYTX7","3MXX6RQ9EVRTFC527Z18RDK8KW6P4R","","null","<img src=""img/land6.png"" style=""width:200px;border:14px solid red;"">","null","","","","","","","","","",""
"","image-keyboard-response","249","61321","0.0-249.0","32ZKVD547G98F6JIFIJQB7J1X9V3BM","A3774HPOUKYTX7","3MXX6RQ9EVRTFC527Z18RDK8KW6P4R","","157.5","img/land4.png","74","158.5","1","1","1","2","0.8,0.2,0.2,0.2,0.8,0.2,0.2,0.2,0.8","0.8,0.2,0.2,0.2,0.8,0.2,0.2,0.2,0.8","1","",""
"","html-keyboard-response","250","61623","0.0-250.0","32ZKVD547G98F6JIFIJQB7J1X9V3BM","A3774HPOUKYTX7","3MXX6RQ9EVRTFC527Z18RDK8KW6P4R","","null","<img src=""img/land4.png"" style=""width:200px; border:14px solid green;"">","null","","","","","","","","","",""
"","image-keyboard-response","251","61771","0.0-251.0","32ZKVD547G98F6JIFIJQB7J1X9V3BM","A3774HPOUKYTX7","3MXX6RQ9EVRTFC527Z18RDK8KW6P4R","","145.19999999552965","img/land4.png","75","147.20000000298023","2","1","1","2","0.8,0.2,0.2,0.2,0.8,0.2,0.2,0.2,0.8","0.8,0.2,0.2,0.2,0.8,0.2,0.2,0.2,0.8","1","",""
"","html-keyboard-response","252","62074","0.0-252.0","32ZKVD547G98F6JIFIJQB7J1X9V3BM","A3774HPOUKYTX7","3MXX6RQ9EVRTFC527Z18RDK8KW6P4R","","null","<img src=""img/land4.png"" style=""width:200px; border:14px solid green;"">","null","","","","","","","","","",""
"","image-keyboard-response","253","62183","0.0-253.0","32ZKVD547G98F6JIFIJQB7J1X9V3BM","A3774HPOUKYTX7","3MXX6RQ9EVRTFC527Z18RDK8KW6P4R","","107.5","img/land4.png","75","108.5","2","0","1","2","0.8,0.2,0.2,0.2,0.8,0.2,0.2,0.2,0.8","0.8,0.2,0.2,0.2,0.8,0.2,0.2,0.2,0.8","1","",""
"","html-keyboard-response","254","62485","0.0-254.0","32ZKVD547G98F6JIFIJQB7J1X9V3BM","A3774HPOUKYTX7","3MXX6RQ9EVRTFC527Z18RDK8KW6P4R","","null","<img src=""img/land4.png"" style=""width:200px;border:14px solid red;"">","null","","","","","","","","","",""
"","image-keyboard-response","255","62667","0.0-255.0","32ZKVD547G98F6JIFIJQB7J1X9V3BM","A3774HPOUKYTX7","3MXX6RQ9EVRTFC527Z18RDK8KW6P4R","","181.30000000447035","img/land4.png","75","182","2","0","1","2","0.8,0.2,0.2,0.2,0.8,0.2,0.2,0.2,0.8","0.8,0.2,0.2,0.2,0.8,0.2,0.2,0.2,0.8","1","",""
"","html-keyboard-response","256","62970","0.0-256.0","32ZKVD547G98F6JIFIJQB7J1X9V3BM","A3774HPOUKYTX7","3MXX6RQ9EVRTFC527Z18RDK8KW6P4R","","null","<img src=""img/land4.png"" style=""width:200px;border:14px solid red;"">","null","","","","","","","","","",""
"","image-keyboard-response","257","63184","0.0-257.0","32ZKVD547G98F6JIFIJQB7J1X9V3BM","A3774HPOUKYTX7","3MXX6RQ9EVRTFC527Z18RDK8KW6P4R","","212.89999999850988","img/land6.png","76","213.79999999701977","3","1","3","2","0.8,0.2,0.2,0.2,0.8,0.2,0.2,0.2,0.8","0.8,0.2,0.2,0.2,0.8,0.2,0.2,0.2,0.8","1","",""
"","html-keyboard-response","258","63486","0.0-258.0","32ZKVD547G98F6JIFIJQB7J1X9V3BM","A3774HPOUKYTX7","3MXX6RQ9EVRTFC527Z18RDK8KW6P4R","","null","<img src=""img/land6.png"" style=""width:200px; border:14px solid green;"">","null","","","","","","","","","",""
"","image-keyboard-response","259","63694","0.0-259.0","32ZKVD547G98F6JIFIJQB7J1X9V3BM","A3774HPOUKYTX7","3MXX6RQ9EVRTFC527Z18RDK8KW6P4R","","206.5","img/land4.png","75","208.10000000149012","2","0","1","2","0.8,0.2,0.2,0.2,0.8,0.2,0.2,0.2,0.8","0.8,0.2,0.2,0.2,0.8,0.2,0.2,0.2,0.8","1","",""
"","html-keyboard-response","260","63996","0.0-260.0","32ZKVD547G98F6JIFIJQB7J1X9V3BM","A3774HPOUKYTX7","3MXX6RQ9EVRTFC527Z18RDK8KW6P4R","","null","<img src=""img/land4.png"" style=""width:200px;border:14px solid red;"">","null","","","","","","","","","",""
"","image-keyboard-response","261","64103","0.0-261.0","32ZKVD547G98F6JIFIJQB7J1X9V3BM","A3774HPOUKYTX7","3MXX6RQ9EVRTFC527Z18RDK8KW6P4R","","105.59999999403954","img/land4.png","75","106.40000000596046","2","0","1","2","0.8,0.2,0.2,0.2,0.8,0.2,0.2,0.2,0.8","0.8,0.2,0.2,0.2,0.8,0.2,0.2,0.2,0.8","1","",""
"","html-keyboard-response","262","64405","0.0-262.0","32ZKVD547G98F6JIFIJQB7J1X9V3BM","A3774HPOUKYTX7","3MXX6RQ9EVRTFC527Z18RDK8KW6P4R","","null","<img src=""img/land4.png"" style=""width:200px;border:14px solid red;"">","null","","","","","","","","","",""
"","image-keyboard-response","263","64664","0.0-263.0","32ZKVD547G98F6JIFIJQB7J1X9V3BM","A3774HPOUKYTX7","3MXX6RQ9EVRTFC527Z18RDK8KW6P4R","","257.80000000447035","img/land4.png","75","258.70000000298023","2","0","1","2","0.8,0.2,0.2,0.2,0.8,0.2,0.2,0.2,0.8","0.8,0.2,0.2,0.2,0.8,0.2,0.2,0.2,0.8","1","",""
"","html-keyboard-response","264","64966","0.0-264.0","32ZKVD547G98F6JIFIJQB7J1X9V3BM","A3774HPOUKYTX7","3MXX6RQ9EVRTFC527Z18RDK8KW6P4R","","null","<img src=""img/land4.png"" style=""width:200px;border:14px solid red;"">","null","","","","","","","","","",""
"","image-keyboard-response","265","65106","0.0-265.0","32ZKVD547G98F6JIFIJQB7J1X9V3BM","A3774HPOUKYTX7","3MXX6RQ9EVRTFC527Z18RDK8KW6P4R","","139","img/land4.png","75","139.89999999850988","2","0","1","2","0.8,0.2,0.2,0.2,0.8,0.2,0.2,0.2,0.8","0.8,0.2,0.2,0.2,0.8,0.2,0.2,0.2,0.8","1","",""
"","html-keyboard-response","266","65408","0.0-266.0","32ZKVD547G98F6JIFIJQB7J1X9V3BM","A3774HPOUKYTX7","3MXX6RQ9EVRTFC527Z18RDK8KW6P4R","","null","<img src=""img/land4.png"" style=""width:200px;border:14px solid red;"">","null","","","","","","","","","",""
"","image-keyboard-response","267","65520","0.0-267.0","32ZKVD547G98F6JIFIJQB7J1X9V3BM","A3774HPOUKYTX7","3MXX6RQ9EVRTFC527Z18RDK8KW6P4R","","111.19999999552965","img/land4.png","74","112","1","1","1","2","0.8,0.2,0.2,0.2,0.8,0.2,0.2,0.2,0.8","0.8,0.2,0.2,0.2,0.8,0.2,0.2,0.2,0.8","1","",""
"","html-keyboard-response","268","65822","0.0-268.0","32ZKVD547G98F6JIFIJQB7J1X9V3BM","A3774HPOUKYTX7","3MXX6RQ9EVRTFC527Z18RDK8KW6P4R","","null","<img src=""img/land4.png"" style=""width:200px; border:14px solid green;"">","null","","","","","","","","","",""
"","image-keyboard-response","269","65886","0.0-269.0","32ZKVD547G98F6JIFIJQB7J1X9V3BM","A3774HPOUKYTX7","3MXX6RQ9EVRTFC527Z18RDK8KW6P4R","","59.899999998509884","img/land4.png","76","62.79999999701977","3","0","1","2","0.8,0.2,0.2,0.2,0.8,0.2,0.2,0.2,0.8","0.8,0.2,0.2,0.2,0.8,0.2,0.2,0.2,0.8","1","",""
"","html-keyboard-response","270","66190","0.0-270.0","32ZKVD547G98F6JIFIJQB7J1X9V3BM","A3774HPOUKYTX7","3MXX6RQ9EVRTFC527Z18RDK8KW6P4R","","null","<img src=""img/land4.png"" style=""width:200px;border:14px solid red;"">","null","","","","","","","","","",""
"","image-keyboard-response","271","66374","0.0-271.0","32ZKVD547G98F6JIFIJQB7J1X9V3BM","A3774HPOUKYTX7","3MXX6RQ9EVRTFC527Z18RDK8KW6P4R","","181.5","img/land4.png","74","183","1","1","1","2","0.8,0.2,0.2,0.2,0.8,0.2,0.2,0.2,0.8","0.8,0.2,0.2,0.2,0.8,0.2,0.2,0.2,0.8","1","",""
"","html-keyboard-response","272","66678","0.0-272.0","32ZKVD547G98F6JIFIJQB7J1X9V3BM","A3774HPOUKYTX7","3MXX6RQ9EVRTFC527Z18RDK8KW6P4R","","null","<img src=""img/land4.png"" style=""width:200px; border:14px solid green;"">","null","","","","","","","","","",""
"","image-keyboard-response","273","66950","0.0-273.0","32ZKVD547G98F6JIFIJQB7J1X9V3BM","A3774HPOUKYTX7","3MXX6RQ9EVRTFC527Z18RDK8KW6P4R","","269.1000000014901","img/land4.png","74","271.70000000298023","1","0","1","2","0.8,0.2,0.2,0.2,0.8,0.2,0.2,0.2,0.8","0.8,0.2,0.2,0.2,0.8,0.2,0.2,0.2,0.8","1","",""
"","html-keyboard-response","274","67254","0.0-274.0","32ZKVD547G98F6JIFIJQB7J1X9V3BM","A3774HPOUKYTX7","3MXX6RQ9EVRTFC527Z18RDK8KW6P4R","","null","<img src=""img/land4.png"" style=""width:200px;border:14px solid red;"">","null","","","","","","","","","",""
"","image-keyboard-response","275","67800","0.0-275.0","32ZKVD547G98F6JIFIJQB7J1X9V3BM","A3774HPOUKYTX7","3MXX6RQ9EVRTFC527Z18RDK8KW6P4R","","543.5","img/land2.png","75","545.3999999985099","2","1","2","2","0.8,0.2,0.2,0.2,0.8,0.2,0.2,0.2,0.8","0.8,0.2,0.2,0.2,0.8,0.2,0.2,0.2,0.8","1","",""
"","html-keyboard-response","276","68104","0.0-276.0","32ZKVD547G98F6JIFIJQB7J1X9V3BM","A3774HPOUKYTX7","3MXX6RQ9EVRTFC527Z18RDK8KW6P4R","","null","<img src=""img/land2.png"" style=""width:200px; border:14px solid green;"">","null","","","","","","","","","",""
"","image-keyboard-response","277","68582","0.0-277.0","32ZKVD547G98F6JIFIJQB7J1X9V3BM","A3774HPOUKYTX7","3MXX6RQ9EVRTFC527Z18RDK8KW6P4R","","477.30000000447035","img/land2.png","75","478.30000000447035","2","1","2","2","0.8,0.2,0.2,0.2,0.8,0.2,0.2,0.2,0.8","0.8,0.2,0.2,0.2,0.8,0.2,0.2,0.2,0.8","1","",""
"","html-keyboard-response","278","68884","0.0-278.0","32ZKVD547G98F6JIFIJQB7J1X9V3BM","A3774HPOUKYTX7","3MXX6RQ9EVRTFC527Z18RDK8KW6P4R","","null","<img src=""img/land2.png"" style=""width:200px; border:14px solid green;"">","null","","","","","","","","","",""
"","image-keyboard-response","279","68969","0.0-279.0","32ZKVD547G98F6JIFIJQB7J1X9V3BM","A3774HPOUKYTX7","3MXX6RQ9EVRTFC527Z18RDK8KW6P4R","","84.10000000149012","img/land6.png","75","85","2","0","3","2","0.8,0.2,0.2,0.2,0.8,0.2,0.2,0.2,0.8","0.8,0.2,0.2,0.2,0.8,0.2,0.2,0.2,0.8","1","",""
"","html-keyboard-response","280","69271","0.0-280.0","32ZKVD547G98F6JIFIJQB7J1X9V3BM","A3774HPOUKYTX7","3MXX6RQ9EVRTFC527Z18RDK8KW6P4R","","null","<img src=""img/land6.png"" style=""width:200px;border:14px solid red;"">","null","","","","","","","","","",""
"","image-keyboard-response","281","69289","0.0-281.0","32ZKVD547G98F6JIFIJQB7J1X9V3BM","A3774HPOUKYTX7","3MXX6RQ9EVRTFC527Z18RDK8KW6P4R","","17.5","img/land6.png","75","18.299999997019768","2","0","3","2","0.8,0.2,0.2,0.2,0.8,0.2,0.2,0.2,0.8","0.8,0.2,0.2,0.2,0.8,0.2,0.2,0.2,0.8","1","",""
"","html-keyboard-response","282","69591","0.0-282.0","32ZKVD547G98F6JIFIJQB7J1X9V3BM","A3774HPOUKYTX7","3MXX6RQ9EVRTFC527Z18RDK8KW6P4R","","null","<img src=""img/land6.png"" style=""width:200px;border:14px solid red;"">","null","","","","","","","","","",""
"","image-keyboard-response","283","69732","0.0-283.0","32ZKVD547G98F6JIFIJQB7J1X9V3BM","A3774HPOUKYTX7","3MXX6RQ9EVRTFC527Z18RDK8KW6P4R","","139.5","img/land2.png","75","140.5","2","1","2","2","0.8,0.2,0.2,0.2,0.8,0.2,0.2,0.2,0.8","0.8,0.2,0.2,0.2,0.8,0.2,0.2,0.2,0.8","1","",""
"","html-keyboard-response","284","70033","0.0-284.0","32ZKVD547G98F6JIFIJQB7J1X9V3BM","A3774HPOUKYTX7","3MXX6RQ9EVRTFC527Z18RDK8KW6P4R","","null","<img src=""img/land2.png"" style=""width:200px; border:14px solid green;"">","null","","","","","","","","","",""
"","image-keyboard-response","285","70066","0.0-285.0","32ZKVD547G98F6JIFIJQB7J1X9V3BM","A3774HPOUKYTX7","3MXX6RQ9EVRTFC527Z18RDK8KW6P4R","","31.600000001490116","img/land4.png","76","32.399999998509884","3","0","1","2","0.8,0.2,0.2,0.2,0.8,0.2,0.2,0.2,0.8","0.8,0.2,0.2,0.2,0.8,0.2,0.2,0.2,0.8","1","",""
"","html-keyboard-response","286","70367","0.0-286.0","32ZKVD547G98F6JIFIJQB7J1X9V3BM","A3774HPOUKYTX7","3MXX6RQ9EVRTFC527Z18RDK8KW6P4R","","null","<img src=""img/land4.png"" style=""width:200px;border:14px solid red;"">","null","","","","","","","","","",""
"","image-keyboard-response","287","70435","0.0-287.0","32ZKVD547G98F6JIFIJQB7J1X9V3BM","A3774HPOUKYTX7","3MXX6RQ9EVRTFC527Z18RDK8KW6P4R","","66.5","img/land4.png","76","67.39999999850988","3","1","1","2","0.8,0.2,0.2,0.2,0.8,0.2,0.2,0.2,0.8","0.8,0.2,0.2,0.2,0.8,0.2,0.2,0.2,0.8","1","",""
"","html-keyboard-response","288","70737","0.0-288.0","32ZKVD547G98F6JIFIJQB7J1X9V3BM","A3774HPOUKYTX7","3MXX6RQ9EVRTFC527Z18RDK8KW6P4R","","null","<img src=""img/land4.png"" style=""width:200px; border:14px solid green;"">","null","","","","","","","","","",""
"","image-keyboard-response","289","70773","0.0-289.0","32ZKVD547G98F6JIFIJQB7J1X9V3BM","A3774HPOUKYTX7","3MXX6RQ9EVRTFC527Z18RDK8KW6P4R","","34","img/land4.png","74","35.399999998509884","1","1","1","2","0.8,0.2,0.2,0.2,0.8,0.2,0.2,0.2,0.8","0.8,0.2,0.2,0.2,0.8,0.2,0.2,0.2,0.8","1","",""
"","html-keyboard-response","290","71075","0.0-290.0","32ZKVD547G98F6JIFIJQB7J1X9V3BM","A3774HPOUKYTX7","3MXX6RQ9EVRTFC527Z18RDK8KW6P4R","","null","<img src=""img/land4.png"" style=""width:200px; border:14px solid green;"">","null","","","","","","","","","",""
"","image-keyboard-response","291","71165","0.0-291.0","32ZKVD547G98F6JIFIJQB7J1X9V3BM","A3774HPOUKYTX7","3MXX6RQ9EVRTFC527Z18RDK8KW6P4R","","89.20000000298023","img/land4.png","74","90.20000000298023","1","0","1","2","0.8,0.2,0.2,0.2,0.8,0.2,0.2,0.2,0.8","0.8,0.2,0.2,0.2,0.8,0.2,0.2,0.2,0.8","1","",""
"","html-keyboard-response","292","71466","0.0-292.0","32ZKVD547G98F6JIFIJQB7J1X9V3BM","A3774HPOUKYTX7","3MXX6RQ9EVRTFC527Z18RDK8KW6P4R","","null","<img src=""img/land4.png"" style=""width:200px;border:14px solid red;"">","null","","","","","","","","","",""
"","image-keyboard-response","293","71624","0.0-293.0","32ZKVD547G98F6JIFIJQB7J1X9V3BM","A3774HPOUKYTX7","3MXX6RQ9EVRTFC527Z18RDK8KW6P4R","","156.79999999701977","img/land2.png","75","157.70000000298023","2","0","2","2","0.8,0.2,0.2,0.2,0.8,0.2,0.2,0.2,0.8","0.8,0.2,0.2,0.2,0.8,0.2,0.2,0.2,0.8","1","",""
"","html-keyboard-response","294","71927","0.0-294.0","32ZKVD547G98F6JIFIJQB7J1X9V3BM","A3774HPOUKYTX7","3MXX6RQ9EVRTFC527Z18RDK8KW6P4R","","null","<img src=""img/land2.png"" style=""width:200px;border:14px solid red;"">","null","","","","","","","","","",""
"","image-keyboard-response","295","72068","0.0-295.0","32ZKVD547G98F6JIFIJQB7J1X9V3BM","A3774HPOUKYTX7","3MXX6RQ9EVRTFC527Z18RDK8KW6P4R","","139.5","img/land4.png","75","140.5","2","0","1","2","0.8,0.2,0.2,0.2,0.8,0.2,0.2,0.2,0.8","0.8,0.2,0.2,0.2,0.8,0.2,0.2,0.2,0.8","1","",""
"","html-keyboard-response","296","72370","0.0-296.0","32ZKVD547G98F6JIFIJQB7J1X9V3BM","A3774HPOUKYTX7","3MXX6RQ9EVRTFC527Z18RDK8KW6P4R","","null","<img src=""img/land4.png"" style=""width:200px;border:14px solid red;"">","null","","","","","","","","","",""
"","image-keyboard-response","297","72557","0.0-297.0","32ZKVD547G98F6JIFIJQB7J1X9V3BM","A3774HPOUKYTX7","3MXX6RQ9EVRTFC527Z18RDK8KW6P4R","","185.60000000149012","img/land4.png","75","186.70000000298023","2","1","1","2","0.8,0.2,0.2,0.2,0.8,0.2,0.2,0.2,0.8","0.8,0.2,0.2,0.2,0.8,0.2,0.2,0.2,0.8","1","",""
"","html-keyboard-response","298","72858","0.0-298.0","32ZKVD547G98F6JIFIJQB7J1X9V3BM","A3774HPOUKYTX7","3MXX6RQ9EVRTFC527Z18RDK8KW6P4R","","null","<img src=""img/land4.png"" style=""width:200px; border:14px solid green;"">","null","","","","","","","","","",""
"","image-keyboard-response","299","72979","0.0-299.0","32ZKVD547G98F6JIFIJQB7J1X9V3BM","A3774HPOUKYTX7","3MXX6RQ9EVRTFC527Z18RDK8KW6P4R","","119.10000000149012","img/land4.png","74","120.10000000149012","1","1","1","2","0.8,0.2,0.2,0.2,0.8,0.2,0.2,0.2,0.8","0.8,0.2,0.2,0.2,0.8,0.2,0.2,0.2,0.8","1","",""
"","html-keyboard-response","300","73280","0.0-300.0","32ZKVD547G98F6JIFIJQB7J1X9V3BM","A3774HPOUKYTX7","3MXX6RQ9EVRTFC527Z18RDK8KW6P4R","","null","<img src=""img/land4.png"" style=""width:200px; border:14px solid green;"">","null","","","","","","","","","",""
"","image-keyboard-response","301","73574","0.0-301.0","32ZKVD547G98F6JIFIJQB7J1X9V3BM","A3774HPOUKYTX7","3MXX6RQ9EVRTFC527Z18RDK8KW6P4R","","293.19999999552965","img/land2.png","74","294.20000000298023","1","0","2","2","0.8,0.2,0.2,0.2,0.8,0.2,0.2,0.2,0.8","0.8,0.2,0.2,0.2,0.8,0.2,0.2,0.2,0.8","1","",""
"","html-keyboard-response","302","73876","0.0-302.0","32ZKVD547G98F6JIFIJQB7J1X9V3BM","A3774HPOUKYTX7","3MXX6RQ9EVRTFC527Z18RDK8KW6P4R","","null","<img src=""img/land2.png"" style=""width:200px;border:14px solid red;"">","null","","","","","","","","","",""
"","image-keyboard-response","303","74087","0.0-303.0","32ZKVD547G98F6JIFIJQB7J1X9V3BM","A3774HPOUKYTX7","3MXX6RQ9EVRTFC527Z18RDK8KW6P4R","","209.79999999701977","img/land4.png","74","211.39999999850988","1","1","1","2","0.8,0.2,0.2,0.2,0.8,0.2,0.2,0.2,0.8","0.8,0.2,0.2,0.2,0.8,0.2,0.2,0.2,0.8","1","",""
"","html-keyboard-response","304","74390","0.0-304.0","32ZKVD547G98F6JIFIJQB7J1X9V3BM","A3774HPOUKYTX7","3MXX6RQ9EVRTFC527Z18RDK8KW6P4R","","null","<img src=""img/land4.png"" style=""width:200px; border:14px solid green;"">","null","","","","","","","","","",""
"","image-keyboard-response","305","74526","0.0-305.0","32ZKVD547G98F6JIFIJQB7J1X9V3BM","A3774HPOUKYTX7","3MXX6RQ9EVRTFC527Z18RDK8KW6P4R","","134.79999999701977","img/land2.png","74","136.20000000298023","1","0","2","2","0.8,0.2,0.2,0.2,0.8,0.2,0.2,0.2,0.8","0.8,0.2,0.2,0.2,0.8,0.2,0.2,0.2,0.8","1","",""
"","html-keyboard-response","306","74829","0.0-306.0","32ZKVD547G98F6JIFIJQB7J1X9V3BM","A3774HPOUKYTX7","3MXX6RQ9EVRTFC527Z18RDK8KW6P4R","","null","<img src=""img/land2.png"" style=""width:200px;border:14px solid red;"">","null","","","","","","","","","",""
"","image-keyboard-response","307","74931","0.0-307.0","32ZKVD547G98F6JIFIJQB7J1X9V3BM","A3774HPOUKYTX7","3MXX6RQ9EVRTFC527Z18RDK8KW6P4R","","100.89999999850988","img/land6.png","74","102.30000000447035","1","0","3","2","0.8,0.2,0.2,0.2,0.8,0.2,0.2,0.2,0.8","0.8,0.2,0.2,0.2,0.8,0.2,0.2,0.2,0.8","1","",""
"","html-keyboard-response","308","75233","0.0-308.0","32ZKVD547G98F6JIFIJQB7J1X9V3BM","A3774HPOUKYTX7","3MXX6RQ9EVRTFC527Z18RDK8KW6P4R","","null","<img src=""img/land6.png"" style=""width:200px;border:14px solid red;"">","null","","","","","","","","","",""
"","image-keyboard-response","309","75332","0.0-309.0","32ZKVD547G98F6JIFIJQB7J1X9V3BM","A3774HPOUKYTX7","3MXX6RQ9EVRTFC527Z18RDK8KW6P4R","","97.09999999403954","img/land4.png","74","98.5","1","1","1","2","0.8,0.2,0.2,0.2,0.8,0.2,0.2,0.2,0.8","0.8,0.2,0.2,0.2,0.8,0.2,0.2,0.2,0.8","1","",""
"","html-keyboard-response","310","75634","0.0-310.0","32ZKVD547G98F6JIFIJQB7J1X9V3BM","A3774HPOUKYTX7","3MXX6RQ9EVRTFC527Z18RDK8KW6P4R","","null","<img src=""img/land4.png"" style=""width:200px; border:14px solid green;"">","null","","","","","","","","","",""
"","image-keyboard-response","311","75682","0.0-311.0","32ZKVD547G98F6JIFIJQB7J1X9V3BM","A3774HPOUKYTX7","3MXX6RQ9EVRTFC527Z18RDK8KW6P4R","","47","img/land6.png","74","47.600000001490116","1","0","3","2","0.8,0.2,0.2,0.2,0.8,0.2,0.2,0.2,0.8","0.8,0.2,0.2,0.2,0.8,0.2,0.2,0.2,0.8","1","",""
"","html-keyboard-response","312","75983","0.0-312.0","32ZKVD547G98F6JIFIJQB7J1X9V3BM","A3774HPOUKYTX7","3MXX6RQ9EVRTFC527Z18RDK8KW6P4R","","null","<img src=""img/land6.png"" style=""width:200px;border:14px solid red;"">","null","","","","","","","","","",""
"","image-keyboard-response","313","76041","0.0-313.0","32ZKVD547G98F6JIFIJQB7J1X9V3BM","A3774HPOUKYTX7","3MXX6RQ9EVRTFC527Z18RDK8KW6P4R","","57.19999999552965","img/land4.png","74","59.19999999552965","1","0","1","2","0.8,0.2,0.2,0.2,0.8,0.2,0.2,0.2,0.8","0.8,0.2,0.2,0.2,0.8,0.2,0.2,0.2,0.8","1","",""
"","html-keyboard-response","314","76344","0.0-314.0","32ZKVD547G98F6JIFIJQB7J1X9V3BM","A3774HPOUKYTX7","3MXX6RQ9EVRTFC527Z18RDK8KW6P4R","","null","<img src=""img/land4.png"" style=""width:200px;border:14px solid red;"">","null","","","","","","","","","",""
"","image-keyboard-response","315","76466","0.0-315.0","32ZKVD547G98F6JIFIJQB7J1X9V3BM","A3774HPOUKYTX7","3MXX6RQ9EVRTFC527Z18RDK8KW6P4R","","121.69999999552965","img/land6.png","74","122.79999999701977","1","0","3","2","0.8,0.2,0.2,0.2,0.8,0.2,0.2,0.2,0.8","0.8,0.2,0.2,0.2,0.8,0.2,0.2,0.2,0.8","1","",""
"","html-keyboard-response","316","76769","0.0-316.0","32ZKVD547G98F6JIFIJQB7J1X9V3BM","A3774HPOUKYTX7","3MXX6RQ9EVRTFC527Z18RDK8KW6P4R","","null","<img src=""img/land6.png"" style=""width:200px;border:14px solid red;"">","null","","","","","","","","","",""
"","image-keyboard-response","317","76937","0.0-317.0","32ZKVD547G98F6JIFIJQB7J1X9V3BM","A3774HPOUKYTX7","3MXX6RQ9EVRTFC527Z18RDK8KW6P4R","","166.60000000149012","img/land6.png","74","167.39999999850988","1","0","3","2","0.8,0.2,0.2,0.2,0.8,0.2,0.2,0.2,0.8","0.8,0.2,0.2,0.2,0.8,0.2,0.2,0.2,0.8","1","",""
"","html-keyboard-response","318","77239","0.0-318.0","32ZKVD547G98F6JIFIJQB7J1X9V3BM","A3774HPOUKYTX7","3MXX6RQ9EVRTFC527Z18RDK8KW6P4R","","null","<img src=""img/land6.png"" style=""width:200px;border:14px solid red;"">","null","","","","","","","","","",""
"","image-keyboard-response","319","77298","0.0-319.0","32ZKVD547G98F6JIFIJQB7J1X9V3BM","A3774HPOUKYTX7","3MXX6RQ9EVRTFC527Z18RDK8KW6P4R","","58","img/land4.png","74","58.899999998509884","1","1","1","2","0.8,0.2,0.2,0.2,0.8,0.2,0.2,0.2,0.8","0.8,0.2,0.2,0.2,0.8,0.2,0.2,0.2,0.8","1","",""
"","html-keyboard-response","320","77600","0.0-320.0","32ZKVD547G98F6JIFIJQB7J1X9V3BM","A3774HPOUKYTX7","3MXX6RQ9EVRTFC527Z18RDK8KW6P4R","","null","<img src=""img/land4.png"" style=""width:200px; border:14px solid green;"">","null","","","","","","","","","",""
"","image-keyboard-response","321","77634","0.0-321.0","32ZKVD547G98F6JIFIJQB7J1X9V3BM","A3774HPOUKYTX7","3MXX6RQ9EVRTFC527Z18RDK8KW6P4R","","33.5","img/land2.png","74","34.19999999552965","1","0","2","2","0.8,0.2,0.2,0.2,0.8,0.2,0.2,0.2,0.8","0.8,0.2,0.2,0.2,0.8,0.2,0.2,0.2,0.8","1","",""
"","html-keyboard-response","322","77937","0.0-322.0","32ZKVD547G98F6JIFIJQB7J1X9V3BM","A3774HPOUKYTX7","3MXX6RQ9EVRTFC527Z18RDK8KW6P4R","","null","<img src=""img/land2.png"" style=""width:200px;border:14px solid red;"">","null","","","","","","","","","",""
"","image-keyboard-response","323","78092","0.0-323.0","32ZKVD547G98F6JIFIJQB7J1X9V3BM","A3774HPOUKYTX7","3MXX6RQ9EVRTFC527Z18RDK8KW6P4R","","154.39999999850988","img/land4.png","76","155.30000000447035","3","0","1","2","0.8,0.2,0.2,0.2,0.8,0.2,0.2,0.2,0.8","0.8,0.2,0.2,0.2,0.8,0.2,0.2,0.2,0.8","1","",""
"","html-keyboard-response","324","78395","0.0-324.0","32ZKVD547G98F6JIFIJQB7J1X9V3BM","A3774HPOUKYTX7","3MXX6RQ9EVRTFC527Z18RDK8KW6P4R","","null","<img src=""img/land4.png"" style=""width:200px;border:14px solid red;"">","null","","","","","","","","","",""
"","image-keyboard-response","325","78488","0.0-325.0","32ZKVD547G98F6JIFIJQB7J1X9V3BM","A3774HPOUKYTX7","3MXX6RQ9EVRTFC527Z18RDK8KW6P4R","","92.59999999403954","img/land2.png","76","93.5","3","0","2","2","0.8,0.2,0.2,0.2,0.8,0.2,0.2,0.2,0.8","0.8,0.2,0.2,0.2,0.8,0.2,0.2,0.2,0.8","1","",""
"","html-keyboard-response","326","78790","0.0-326.0","32ZKVD547G98F6JIFIJQB7J1X9V3BM","A3774HPOUKYTX7","3MXX6RQ9EVRTFC527Z18RDK8KW6P4R","","null","<img src=""img/land2.png"" style=""width:200px;border:14px solid red;"">","null","","","","","","","","","",""
"","image-keyboard-response","327","78980","0.0-327.0","32ZKVD547G98F6JIFIJQB7J1X9V3BM","A3774HPOUKYTX7","3MXX6RQ9EVRTFC527Z18RDK8KW6P4R","","189","img/land4.png","74","190","1","1","1","2","0.8,0.2,0.2,0.2,0.8,0.2,0.2,0.2,0.8","0.8,0.2,0.2,0.2,0.8,0.2,0.2,0.2,0.8","1","",""
"","html-keyboard-response","328","79282","0.0-328.0","32ZKVD547G98F6JIFIJQB7J1X9V3BM","A3774HPOUKYTX7","3MXX6RQ9EVRTFC527Z18RDK8KW6P4R","","null","<img src=""img/land4.png"" style=""width:200px; border:14px solid green;"">","null","","","","","","","","","",""
"","image-keyboard-response","329","79326","0.0-329.0","32ZKVD547G98F6JIFIJQB7J1X9V3BM","A3774HPOUKYTX7","3MXX6RQ9EVRTFC527Z18RDK8KW6P4R","","43","img/land4.png","76","43.900000005960464","3","0","1","2","0.8,0.2,0.2,0.2,0.8,0.2,0.2,0.2,0.8","0.8,0.2,0.2,0.2,0.8,0.2,0.2,0.2,0.8","1","",""
"","html-keyboard-response","330","79629","0.0-330.0","32ZKVD547G98F6JIFIJQB7J1X9V3BM","A3774HPOUKYTX7","3MXX6RQ9EVRTFC527Z18RDK8KW6P4R","","null","<img src=""img/land4.png"" style=""width:200px;border:14px solid red;"">","null","","","","","","","","","",""
"","image-keyboard-response","331","79732","0.0-331.0","32ZKVD547G98F6JIFIJQB7J1X9V3BM","A3774HPOUKYTX7","3MXX6RQ9EVRTFC527Z18RDK8KW6P4R","","101.70000000298023","img/land6.png","76","102.89999999850988","3","1","3","2","0.8,0.2,0.2,0.2,0.8,0.2,0.2,0.2,0.8","0.8,0.2,0.2,0.2,0.8,0.2,0.2,0.2,0.8","1","",""
"","html-keyboard-response","332","80034","0.0-332.0","32ZKVD547G98F6JIFIJQB7J1X9V3BM","A3774HPOUKYTX7","3MXX6RQ9EVRTFC527Z18RDK8KW6P4R","","null","<img src=""img/land6.png"" style=""width:200px; border:14px solid green;"">","null","","","","","","","","","",""
"","image-keyboard-response","333","80049","0.0-333.0","32ZKVD547G98F6JIFIJQB7J1X9V3BM","A3774HPOUKYTX7","3MXX6RQ9EVRTFC527Z18RDK8KW6P4R","","13.5","img/land6.png","75","14.5","2","0","3","2","0.8,0.2,0.2,0.2,0.8,0.2,0.2,0.2,0.8","0.8,0.2,0.2,0.2,0.8,0.2,0.2,0.2,0.8","1","",""
"","html-keyboard-response","334","80351","0.0-334.0","32ZKVD547G98F6JIFIJQB7J1X9V3BM","A3774HPOUKYTX7","3MXX6RQ9EVRTFC527Z18RDK8KW6P4R","","null","<img src=""img/land6.png"" style=""width:200px;border:14px solid red;"">","null","","","","","","","","","",""
"","image-keyboard-response","335","80363","0.0-335.0","32ZKVD547G98F6JIFIJQB7J1X9V3BM","A3774HPOUKYTX7","3MXX6RQ9EVRTFC527Z18RDK8KW6P4R","","10.799999997019768","img/land4.png","75","11.699999995529652","2","0","1","2","0.8,0.2,0.2,0.2,0.8,0.2,0.2,0.2,0.8","0.8,0.2,0.2,0.2,0.8,0.2,0.2,0.2,0.8","1","",""
"","html-keyboard-response","336","80666","0.0-336.0","32ZKVD547G98F6JIFIJQB7J1X9V3BM","A3774HPOUKYTX7","3MXX6RQ9EVRTFC527Z18RDK8KW6P4R","","null","<img src=""img/land4.png"" style=""width:200px;border:14px solid red;"">","null","","","","","","","","","",""
"","image-keyboard-response","337","80747","0.0-337.0","32ZKVD547G98F6JIFIJQB7J1X9V3BM","A3774HPOUKYTX7","3MXX6RQ9EVRTFC527Z18RDK8KW6P4R","","80.20000000298023","img/land2.png","75","81.39999999850988","2","1","2","2","0.8,0.2,0.2,0.2,0.8,0.2,0.2,0.2,0.8","0.8,0.2,0.2,0.2,0.8,0.2,0.2,0.2,0.8","1","",""
"","html-keyboard-response","338","81049","0.0-338.0","32ZKVD547G98F6JIFIJQB7J1X9V3BM","A3774HPOUKYTX7","3MXX6RQ9EVRTFC527Z18RDK8KW6P4R","","null","<img src=""img/land2.png"" style=""width:200px; border:14px solid green;"">","null","","","","","","","","","",""
"","image-keyboard-response","339","81086","0.0-339.0","32ZKVD547G98F6JIFIJQB7J1X9V3BM","A3774HPOUKYTX7","3MXX6RQ9EVRTFC527Z18RDK8KW6P4R","","36.30000000447035","img/land6.png","75","37.30000000447035","2","0","3","2","0.8,0.2,0.2,0.2,0.8,0.2,0.2,0.2,0.8","0.8,0.2,0.2,0.2,0.8,0.2,0.2,0.2,0.8","1","",""
"","html-keyboard-response","340","81389","0.0-340.0","32ZKVD547G98F6JIFIJQB7J1X9V3BM","A3774HPOUKYTX7","3MXX6RQ9EVRTFC527Z18RDK8KW6P4R","","null","<img src=""img/land6.png"" style=""width:200px;border:14px solid red;"">","null","","","","","","","","","",""
"","image-keyboard-response","341","81546","0.0-341.0","32ZKVD547G98F6JIFIJQB7J1X9V3BM","A3774HPOUKYTX7","3MXX6RQ9EVRTFC527Z18RDK8KW6P4R","","155.89999999850988","img/land4.png","75","157","2","0","1","2","0.8,0.2,0.2,0.2,0.8,0.2,0.2,0.2,0.8","0.8,0.2,0.2,0.2,0.8,0.2,0.2,0.2,0.8","1","",""
"","html-keyboard-response","342","81848","0.0-342.0","32ZKVD547G98F6JIFIJQB7J1X9V3BM","A3774HPOUKYTX7","3MXX6RQ9EVRTFC527Z18RDK8KW6P4R","","null","<img src=""img/land4.png"" style=""width:200px;border:14px solid red;"">","null","","","","","","","","","",""
"","image-keyboard-response","343","81910","0.0-343.0","32ZKVD547G98F6JIFIJQB7J1X9V3BM","A3774HPOUKYTX7","3MXX6RQ9EVRTFC527Z18RDK8KW6P4R","","60.79999999701977","img/land4.png","74","61.80000000447035","1","1","1","2","0.8,0.2,0.2,0.2,0.8,0.2,0.2,0.2,0.8","0.8,0.2,0.2,0.2,0.8,0.2,0.2,0.2,0.8","1","",""
"","html-keyboard-response","344","82212","0.0-344.0","32ZKVD547G98F6JIFIJQB7J1X9V3BM","A3774HPOUKYTX7","3MXX6RQ9EVRTFC527Z18RDK8KW6P4R","","null","<img src=""img/land4.png"" style=""width:200px; border:14px solid green;"">","null","","","","","","","","","",""
"","image-keyboard-response","345","82236","0.0-345.0","32ZKVD547G98F6JIFIJQB7J1X9V3BM","A3774HPOUKYTX7","3MXX6RQ9EVRTFC527Z18RDK8KW6P4R","","23.200000002980232","img/land4.png","75","24","2","0","1","2","0.8,0.2,0.2,0.2,0.8,0.2,0.2,0.2,0.8","0.8,0.2,0.2,0.2,0.8,0.2,0.2,0.2,0.8","1","",""
"","html-keyboard-response","346","82539","0.0-346.0","32ZKVD547G98F6JIFIJQB7J1X9V3BM","A3774HPOUKYTX7","3MXX6RQ9EVRTFC527Z18RDK8KW6P4R","","null","<img src=""img/land4.png"" style=""width:200px;border:14px solid red;"">","null","","","","","","","","","",""
"","image-keyboard-response","347","82636","0.0-347.0","32ZKVD547G98F6JIFIJQB7J1X9V3BM","A3774HPOUKYTX7","3MXX6RQ9EVRTFC527Z18RDK8KW6P4R","","95.70000000298023","img/land6.png","75","96.80000000447035","2","0","3","2","0.8,0.2,0.2,0.2,0.8,0.2,0.2,0.2,0.8","0.8,0.2,0.2,0.2,0.8,0.2,0.2,0.2,0.8","1","",""
"","html-keyboard-response","348","82938","0.0-348.0","32ZKVD547G98F6JIFIJQB7J1X9V3BM","A3774HPOUKYTX7","3MXX6RQ9EVRTFC527Z18RDK8KW6P4R","","null","<img src=""img/land6.png"" style=""width:200px;border:14px solid red;"">","null","","","","","","","","","",""
"","image-keyboard-response","349","83113","0.0-349.0","32ZKVD547G98F6JIFIJQB7J1X9V3BM","A3774HPOUKYTX7","3MXX6RQ9EVRTFC527Z18RDK8KW6P4R","","174","img/land4.png","74","174.89999999850988","1","1","1","2","0.8,0.2,0.2,0.2,0.8,0.2,0.2,0.2,0.8","0.8,0.2,0.2,0.2,0.8,0.2,0.2,0.2,0.8","1","",""
"","html-keyboard-response","350","83416","0.0-350.0","32ZKVD547G98F6JIFIJQB7J1X9V3BM","A3774HPOUKYTX7","3MXX6RQ9EVRTFC527Z18RDK8KW6P4R","","null","<img src=""img/land4.png"" style=""width:200px; border:14px solid green;"">","null","","","","","","","","","",""
"","image-keyboard-response","351","83828","0.0-351.0","32ZKVD547G98F6JIFIJQB7J1X9V3BM","A3774HPOUKYTX7","3MXX6RQ9EVRTFC527Z18RDK8KW6P4R","","411.1000000014901","img/land4.png","76","412","3","1","1","2","0.8,0.2,0.2,0.2,0.8,0.2,0.2,0.2,0.8","0.8,0.2,0.2,0.2,0.8,0.2,0.2,0.2,0.8","1","",""
"","html-keyboard-response","352","84129","0.0-352.0","32ZKVD547G98F6JIFIJQB7J1X9V3BM","A3774HPOUKYTX7","3MXX6RQ9EVRTFC527Z18RDK8KW6P4R","","null","<img src=""img/land4.png"" style=""width:200px; border:14px solid green;"">","null","","","","","","","","","",""
"","image-keyboard-response","353","84390","0.0-353.0","32ZKVD547G98F6JIFIJQB7J1X9V3BM","A3774HPOUKYTX7","3MXX6RQ9EVRTFC527Z18RDK8KW6P4R","","259.3999999985099","img/land2.png","74","260.59999999403954","1","0","2","2","0.8,0.2,0.2,0.2,0.8,0.2,0.2,0.2,0.8","0.8,0.2,0.2,0.2,0.8,0.2,0.2,0.2,0.8","1","",""
"","html-keyboard-response","354","84691","0.0-354.0","32ZKVD547G98F6JIFIJQB7J1X9V3BM","A3774HPOUKYTX7","3MXX6RQ9EVRTFC527Z18RDK8KW6P4R","","null","<img src=""img/land2.png"" style=""width:200px;border:14px solid red;"">","null","","","","","","","","","",""
"","image-keyboard-response","355","84865","0.0-355.0","32ZKVD547G98F6JIFIJQB7J1X9V3BM","A3774HPOUKYTX7","3MXX6RQ9EVRTFC527Z18RDK8KW6P4R","","173","img/land2.png","74","173.89999999850988","1","0","2","2","0.8,0.2,0.2,0.2,0.8,0.2,0.2,0.2,0.8","0.8,0.2,0.2,0.2,0.8,0.2,0.2,0.2,0.8","1","",""
"","html-keyboard-response","356","85167","0.0-356.0","32ZKVD547G98F6JIFIJQB7J1X9V3BM","A3774HPOUKYTX7","3MXX6RQ9EVRTFC527Z18RDK8KW6P4R","","null","<img src=""img/land2.png"" style=""width:200px;border:14px solid red;"">","null","","","","","","","","","",""
