"success","trial_type","trial_index","time_elapsed","internal_node_id","assignmentID","mturkID","hitID","view_history","rt","stimulus","key_press","reactionTime","a","r","s","cond","reward_cond","reward_cond_actual","reward_matrix_idx","responses","question_order"
"true","fullscreen","0","20980","0.0-0.0","39ASUFLU6YTI272G9YS4JVEQ72PXEY","A37OUZOGQKGMW0","382GHPVPHSDM8N0F9141EAH7F0K34Z","","","","","","","","","","","","","",""
"","instructions","1","161775","0.0-1.0","39ASUFLU6YTI272G9YS4JVEQ72PXEY","A37OUZOGQKGMW0","382GHPVPHSDM8N0F9141EAH7F0K34Z","[{""page_index"":0,""viewing_time"":18028.600000023842},{""page_index"":1,""viewing_time"":13604.299999952316},{""page_index"":2,""viewing_time"":24288.200000047684},{""page_index"":3,""viewing_time"":19293.599999964237},{""page_index"":4,""viewing_time"":15199.900000035763},{""page_index"":5,""viewing_time"":36367.89999997616},{""page_index"":6,""viewing_time"":14010}]","140793.19999998808","","","","","","","","","","","",""
"","image-keyboard-response","2","163777","0.0-2.0","39ASUFLU6YTI272G9YS4JVEQ72PXEY","A37OUZOGQKGMW0","382GHPVPHSDM8N0F9141EAH7F0K34Z","","","img/land1.png","","2001.9000000357628","-1","0","1","2","0.8,0.2,0.2,0.2,0.8,0.2,0.2,0.2,0.8","0.8,0.2,0.2,0.2,0.8,0.2,0.2,0.2,0.8","1","",""
"","html-keyboard-response","3","164080","0.0-3.0","39ASUFLU6YTI272G9YS4JVEQ72PXEY","A37OUZOGQKGMW0","382GHPVPHSDM8N0F9141EAH7F0K34Z","","null","<img src=""img/land1.png"" style=""width:200px;border:14px solid red;"">","null","","","","","","","","","",""
"","image-keyboard-response","4","166082","0.0-4.0","39ASUFLU6YTI272G9YS4JVEQ72PXEY","A37OUZOGQKGMW0","382GHPVPHSDM8N0F9141EAH7F0K34Z","","","img/land5.png","","2001.3999999761581","-1","0","2","2","0.8,0.2,0.2,0.2,0.8,0.2,0.2,0.2,0.8","0.8,0.2,0.2,0.2,0.8,0.2,0.2,0.2,0.8","1","",""
"","html-keyboard-response","5","166384","0.0-5.0","39ASUFLU6YTI272G9YS4JVEQ72PXEY","A37OUZOGQKGMW0","382GHPVPHSDM8N0F9141EAH7F0K34Z","","null","<img src=""img/land5.png"" style=""width:200px;border:14px solid red;"">","null","","","","","","","","","",""
"","image-keyboard-response","6","168386","0.0-6.0","39ASUFLU6YTI272G9YS4JVEQ72PXEY","A37OUZOGQKGMW0","382GHPVPHSDM8N0F9141EAH7F0K34Z","","","img/land1.png","","2001.5","-1","0","1","2","0.8,0.2,0.2,0.2,0.8,0.2,0.2,0.2,0.8","0.8,0.2,0.2,0.2,0.8,0.2,0.2,0.2,0.8","1","",""
"","html-keyboard-response","7","168689","0.0-7.0","39ASUFLU6YTI272G9YS4JVEQ72PXEY","A37OUZOGQKGMW0","382GHPVPHSDM8N0F9141EAH7F0K34Z","","null","<img src=""img/land1.png"" style=""width:200px;border:14px solid red;"">","null","","","","","","","","","",""
"","image-keyboard-response","8","170078","0.0-8.0","39ASUFLU6YTI272G9YS4JVEQ72PXEY","A37OUZOGQKGMW0","382GHPVPHSDM8N0F9141EAH7F0K34Z","","1387.800000011921","img/land1.png","75","1389.0999999642372","2","0","1","2","0.8,0.2,0.2,0.2,0.8,0.2,0.2,0.2,0.8","0.8,0.2,0.2,0.2,0.8,0.2,0.2,0.2,0.8","1","",""
"","html-keyboard-response","9","170380","0.0-9.0","39ASUFLU6YTI272G9YS4JVEQ72PXEY","A37OUZOGQKGMW0","382GHPVPHSDM8N0F9141EAH7F0K34Z","","null","<img src=""img/land1.png"" style=""width:200px;border:14px solid red;"">","null","","","","","","","","","",""
"","image-keyboard-response","10","171465","0.0-10.0","39ASUFLU6YTI272G9YS4JVEQ72PXEY","A37OUZOGQKGMW0","382GHPVPHSDM8N0F9141EAH7F0K34Z","","1083.199999988079","img/land3.png","75","1084","2","0","3","2","0.8,0.2,0.2,0.2,0.8,0.2,0.2,0.2,0.8","0.8,0.2,0.2,0.2,0.8,0.2,0.2,0.2,0.8","1","",""
"","html-keyboard-response","11","171767","0.0-11.0","39ASUFLU6YTI272G9YS4JVEQ72PXEY","A37OUZOGQKGMW0","382GHPVPHSDM8N0F9141EAH7F0K34Z","","null","<img src=""img/land3.png"" style=""width:200px;border:14px solid red;"">","null","","","","","","","","","",""
"","image-keyboard-response","12","172277","0.0-12.0","39ASUFLU6YTI272G9YS4JVEQ72PXEY","A37OUZOGQKGMW0","382GHPVPHSDM8N0F9141EAH7F0K34Z","","509.10000002384186","img/land3.png","74","510.10000002384186","1","0","3","2","0.8,0.2,0.2,0.2,0.8,0.2,0.2,0.2,0.8","0.8,0.2,0.2,0.2,0.8,0.2,0.2,0.2,0.8","1","",""
"","html-keyboard-response","13","172579","0.0-13.0","39ASUFLU6YTI272G9YS4JVEQ72PXEY","A37OUZOGQKGMW0","382GHPVPHSDM8N0F9141EAH7F0K34Z","","null","<img src=""img/land3.png"" style=""width:200px;border:14px solid red;"">","null","","","","","","","","","",""
"","image-keyboard-response","14","173802","0.0-14.0","39ASUFLU6YTI272G9YS4JVEQ72PXEY","A37OUZOGQKGMW0","382GHPVPHSDM8N0F9141EAH7F0K34Z","","1221.5999999642372","img/land1.png","74","1222.5","1","1","1","2","0.8,0.2,0.2,0.2,0.8,0.2,0.2,0.2,0.8","0.8,0.2,0.2,0.2,0.8,0.2,0.2,0.2,0.8","1","",""
"","html-keyboard-response","15","174104","0.0-15.0","39ASUFLU6YTI272G9YS4JVEQ72PXEY","A37OUZOGQKGMW0","382GHPVPHSDM8N0F9141EAH7F0K34Z","","null","<img src=""img/land1.png"" style=""width:200px; border:14px solid green;"">","null","","","","","","","","","",""
"","image-keyboard-response","16","175636","0.0-16.0","39ASUFLU6YTI272G9YS4JVEQ72PXEY","A37OUZOGQKGMW0","382GHPVPHSDM8N0F9141EAH7F0K34Z","","1531.2999999523163","img/land3.png","74","1532.199999988079","1","0","3","2","0.8,0.2,0.2,0.2,0.8,0.2,0.2,0.2,0.8","0.8,0.2,0.2,0.2,0.8,0.2,0.2,0.2,0.8","1","",""
"","html-keyboard-response","17","175938","0.0-17.0","39ASUFLU6YTI272G9YS4JVEQ72PXEY","A37OUZOGQKGMW0","382GHPVPHSDM8N0F9141EAH7F0K34Z","","null","<img src=""img/land3.png"" style=""width:200px;border:14px solid red;"">","null","","","","","","","","","",""
"","image-keyboard-response","18","177491","0.0-18.0","39ASUFLU6YTI272G9YS4JVEQ72PXEY","A37OUZOGQKGMW0","382GHPVPHSDM8N0F9141EAH7F0K34Z","","1551.8999999761581","img/land3.png","76","1552.800000011921","3","1","3","2","0.8,0.2,0.2,0.2,0.8,0.2,0.2,0.2,0.8","0.8,0.2,0.2,0.2,0.8,0.2,0.2,0.2,0.8","1","",""
"","html-keyboard-response","19","177799","0.0-19.0","39ASUFLU6YTI272G9YS4JVEQ72PXEY","A37OUZOGQKGMW0","382GHPVPHSDM8N0F9141EAH7F0K34Z","","null","<img src=""img/land3.png"" style=""width:200px; border:14px solid green;"">","null","","","","","","","","","",""
"","image-keyboard-response","20","179421","0.0-20.0","39ASUFLU6YTI272G9YS4JVEQ72PXEY","A37OUZOGQKGMW0","382GHPVPHSDM8N0F9141EAH7F0K34Z","","1620.9000000357628","img/land3.png","76","1621.8999999761581","3","1","3","2","0.8,0.2,0.2,0.2,0.8,0.2,0.2,0.2,0.8","0.8,0.2,0.2,0.2,0.8,0.2,0.2,0.2,0.8","1","",""
"","html-keyboard-response","21","179723","0.0-21.0","39ASUFLU6YTI272G9YS4JVEQ72PXEY","A37OUZOGQKGMW0","382GHPVPHSDM8N0F9141EAH7F0K34Z","","null","<img src=""img/land3.png"" style=""width:200px; border:14px solid green;"">","null","","","","","","","","","",""
"","image-keyboard-response","22","180923","0.0-22.0","39ASUFLU6YTI272G9YS4JVEQ72PXEY","A37OUZOGQKGMW0","382GHPVPHSDM8N0F9141EAH7F0K34Z","","1198.9000000357628","img/land1.png","74","1199.699999988079","1","1","1","2","0.8,0.2,0.2,0.2,0.8,0.2,0.2,0.2,0.8","0.8,0.2,0.2,0.2,0.8,0.2,0.2,0.2,0.8","1","",""
"","html-keyboard-response","23","181225","0.0-23.0","39ASUFLU6YTI272G9YS4JVEQ72PXEY","A37OUZOGQKGMW0","382GHPVPHSDM8N0F9141EAH7F0K34Z","","null","<img src=""img/land1.png"" style=""width:200px; border:14px solid green;"">","null","","","","","","","","","",""
"","image-keyboard-response","24","182800","0.0-24.0","39ASUFLU6YTI272G9YS4JVEQ72PXEY","A37OUZOGQKGMW0","382GHPVPHSDM8N0F9141EAH7F0K34Z","","1574.3999999761581","img/land1.png","74","1575.1000000238419","1","1","1","2","0.8,0.2,0.2,0.2,0.8,0.2,0.2,0.2,0.8","0.8,0.2,0.2,0.2,0.8,0.2,0.2,0.2,0.8","1","",""
"","html-keyboard-response","25","183102","0.0-25.0","39ASUFLU6YTI272G9YS4JVEQ72PXEY","A37OUZOGQKGMW0","382GHPVPHSDM8N0F9141EAH7F0K34Z","","null","<img src=""img/land1.png"" style=""width:200px; border:14px solid green;"">","null","","","","","","","","","",""
"","image-keyboard-response","26","184121","0.0-26.0","39ASUFLU6YTI272G9YS4JVEQ72PXEY","A37OUZOGQKGMW0","382GHPVPHSDM8N0F9141EAH7F0K34Z","","1018.2999999523163","img/land1.png","74","1019.2999999523163","1","1","1","2","0.8,0.2,0.2,0.2,0.8,0.2,0.2,0.2,0.8","0.8,0.2,0.2,0.2,0.8,0.2,0.2,0.2,0.8","1","",""
"","html-keyboard-response","27","184422","0.0-27.0","39ASUFLU6YTI272G9YS4JVEQ72PXEY","A37OUZOGQKGMW0","382GHPVPHSDM8N0F9141EAH7F0K34Z","","null","<img src=""img/land1.png"" style=""width:200px; border:14px solid green;"">","null","","","","","","","","","",""
"","image-keyboard-response","28","185445","0.0-28.0","39ASUFLU6YTI272G9YS4JVEQ72PXEY","A37OUZOGQKGMW0","382GHPVPHSDM8N0F9141EAH7F0K34Z","","1021.9000000357628","img/land1.png","74","1022.7000000476837","1","0","1","2","0.8,0.2,0.2,0.2,0.8,0.2,0.2,0.2,0.8","0.8,0.2,0.2,0.2,0.8,0.2,0.2,0.2,0.8","1","",""
"","html-keyboard-response","29","185748","0.0-29.0","39ASUFLU6YTI272G9YS4JVEQ72PXEY","A37OUZOGQKGMW0","382GHPVPHSDM8N0F9141EAH7F0K34Z","","null","<img src=""img/land1.png"" style=""width:200px;border:14px solid red;"">","null","","","","","","","","","",""
"","image-keyboard-response","30","187751","0.0-30.0","39ASUFLU6YTI272G9YS4JVEQ72PXEY","A37OUZOGQKGMW0","382GHPVPHSDM8N0F9141EAH7F0K34Z","","","img/land1.png","","2002.199999988079","-1","0","1","2","0.8,0.2,0.2,0.2,0.8,0.2,0.2,0.2,0.8","0.8,0.2,0.2,0.2,0.8,0.2,0.2,0.2,0.8","1","",""
"","html-keyboard-response","31","188052","0.0-31.0","39ASUFLU6YTI272G9YS4JVEQ72PXEY","A37OUZOGQKGMW0","382GHPVPHSDM8N0F9141EAH7F0K34Z","","null","<img src=""img/land1.png"" style=""width:200px;border:14px solid red;"">","null","","","","","","","","","",""
"","image-keyboard-response","32","189138","0.0-32.0","39ASUFLU6YTI272G9YS4JVEQ72PXEY","A37OUZOGQKGMW0","382GHPVPHSDM8N0F9141EAH7F0K34Z","","1084.699999988079","img/land3.png","76","1085.4000000357628","3","0","3","2","0.8,0.2,0.2,0.2,0.8,0.2,0.2,0.2,0.8","0.8,0.2,0.2,0.2,0.8,0.2,0.2,0.2,0.8","1","",""
"","html-keyboard-response","33","189440","0.0-33.0","39ASUFLU6YTI272G9YS4JVEQ72PXEY","A37OUZOGQKGMW0","382GHPVPHSDM8N0F9141EAH7F0K34Z","","null","<img src=""img/land3.png"" style=""width:200px;border:14px solid red;"">","null","","","","","","","","","",""
"","image-keyboard-response","34","190492","0.0-34.0","39ASUFLU6YTI272G9YS4JVEQ72PXEY","A37OUZOGQKGMW0","382GHPVPHSDM8N0F9141EAH7F0K34Z","","1051.2000000476837","img/land3.png","75","1052.0999999642372","2","0","3","2","0.8,0.2,0.2,0.2,0.8,0.2,0.2,0.2,0.8","0.8,0.2,0.2,0.2,0.8,0.2,0.2,0.2,0.8","1","",""
"","html-keyboard-response","35","190795","0.0-35.0","39ASUFLU6YTI272G9YS4JVEQ72PXEY","A37OUZOGQKGMW0","382GHPVPHSDM8N0F9141EAH7F0K34Z","","null","<img src=""img/land3.png"" style=""width:200px;border:14px solid red;"">","null","","","","","","","","","",""
"","image-keyboard-response","36","191640","0.0-36.0","39ASUFLU6YTI272G9YS4JVEQ72PXEY","A37OUZOGQKGMW0","382GHPVPHSDM8N0F9141EAH7F0K34Z","","843.5999999642372","img/land5.png","76","844.3999999761581","3","0","2","2","0.8,0.2,0.2,0.2,0.8,0.2,0.2,0.2,0.8","0.8,0.2,0.2,0.2,0.8,0.2,0.2,0.2,0.8","1","",""
"","html-keyboard-response","37","191941","0.0-37.0","39ASUFLU6YTI272G9YS4JVEQ72PXEY","A37OUZOGQKGMW0","382GHPVPHSDM8N0F9141EAH7F0K34Z","","null","<img src=""img/land5.png"" style=""width:200px;border:14px solid red;"">","null","","","","","","","","","",""
"","image-keyboard-response","38","192786","0.0-38.0","39ASUFLU6YTI272G9YS4JVEQ72PXEY","A37OUZOGQKGMW0","382GHPVPHSDM8N0F9141EAH7F0K34Z","","842.6000000238419","img/land1.png","74","843.5999999642372","1","1","1","2","0.8,0.2,0.2,0.2,0.8,0.2,0.2,0.2,0.8","0.8,0.2,0.2,0.2,0.8,0.2,0.2,0.2,0.8","1","",""
"","html-keyboard-response","39","193088","0.0-39.0","39ASUFLU6YTI272G9YS4JVEQ72PXEY","A37OUZOGQKGMW0","382GHPVPHSDM8N0F9141EAH7F0K34Z","","null","<img src=""img/land1.png"" style=""width:200px; border:14px solid green;"">","null","","","","","","","","","",""
"","image-keyboard-response","40","194568","0.0-40.0","39ASUFLU6YTI272G9YS4JVEQ72PXEY","A37OUZOGQKGMW0","382GHPVPHSDM8N0F9141EAH7F0K34Z","","1479.300000011921","img/land3.png","75","1480.1000000238419","2","0","3","2","0.8,0.2,0.2,0.2,0.8,0.2,0.2,0.2,0.8","0.8,0.2,0.2,0.2,0.8,0.2,0.2,0.2,0.8","1","",""
"","html-keyboard-response","41","194870","0.0-41.0","39ASUFLU6YTI272G9YS4JVEQ72PXEY","A37OUZOGQKGMW0","382GHPVPHSDM8N0F9141EAH7F0K34Z","","null","<img src=""img/land3.png"" style=""width:200px;border:14px solid red;"">","null","","","","","","","","","",""
"","image-keyboard-response","42","195606","0.0-42.0","39ASUFLU6YTI272G9YS4JVEQ72PXEY","A37OUZOGQKGMW0","382GHPVPHSDM8N0F9141EAH7F0K34Z","","734.8999999761581","img/land1.png","74","735.8000000119209","1","1","1","2","0.8,0.2,0.2,0.2,0.8,0.2,0.2,0.2,0.8","0.8,0.2,0.2,0.2,0.8,0.2,0.2,0.2,0.8","1","",""
"","html-keyboard-response","43","195914","0.0-43.0","39ASUFLU6YTI272G9YS4JVEQ72PXEY","A37OUZOGQKGMW0","382GHPVPHSDM8N0F9141EAH7F0K34Z","","null","<img src=""img/land1.png"" style=""width:200px; border:14px solid green;"">","null","","","","","","","","","",""
"","image-keyboard-response","44","196860","0.0-44.0","39ASUFLU6YTI272G9YS4JVEQ72PXEY","A37OUZOGQKGMW0","382GHPVPHSDM8N0F9141EAH7F0K34Z","","944.4000000357628","img/land1.png","74","945.8000000119209","1","1","1","2","0.8,0.2,0.2,0.2,0.8,0.2,0.2,0.2,0.8","0.8,0.2,0.2,0.2,0.8,0.2,0.2,0.2,0.8","1","",""
"","html-keyboard-response","45","197161","0.0-45.0","39ASUFLU6YTI272G9YS4JVEQ72PXEY","A37OUZOGQKGMW0","382GHPVPHSDM8N0F9141EAH7F0K34Z","","null","<img src=""img/land1.png"" style=""width:200px; border:14px solid green;"">","null","","","","","","","","","",""
"","image-keyboard-response","46","198063","0.0-46.0","39ASUFLU6YTI272G9YS4JVEQ72PXEY","A37OUZOGQKGMW0","382GHPVPHSDM8N0F9141EAH7F0K34Z","","900.4000000357628","img/land1.png","74","901.3000000119209","1","1","1","2","0.8,0.2,0.2,0.2,0.8,0.2,0.2,0.2,0.8","0.8,0.2,0.2,0.2,0.8,0.2,0.2,0.2,0.8","1","",""
"","html-keyboard-response","47","198364","0.0-47.0","39ASUFLU6YTI272G9YS4JVEQ72PXEY","A37OUZOGQKGMW0","382GHPVPHSDM8N0F9141EAH7F0K34Z","","null","<img src=""img/land1.png"" style=""width:200px; border:14px solid green;"">","null","","","","","","","","","",""
"","image-keyboard-response","48","199285","0.0-48.0","39ASUFLU6YTI272G9YS4JVEQ72PXEY","A37OUZOGQKGMW0","382GHPVPHSDM8N0F9141EAH7F0K34Z","","920.1999999880791","img/land1.png","74","920.9000000357628","1","1","1","2","0.8,0.2,0.2,0.2,0.8,0.2,0.2,0.2,0.8","0.8,0.2,0.2,0.2,0.8,0.2,0.2,0.2,0.8","1","",""
"","html-keyboard-response","49","199587","0.0-49.0","39ASUFLU6YTI272G9YS4JVEQ72PXEY","A37OUZOGQKGMW0","382GHPVPHSDM8N0F9141EAH7F0K34Z","","null","<img src=""img/land1.png"" style=""width:200px; border:14px solid green;"">","null","","","","","","","","","",""
"","image-keyboard-response","50","200297","0.0-50.0","39ASUFLU6YTI272G9YS4JVEQ72PXEY","A37OUZOGQKGMW0","382GHPVPHSDM8N0F9141EAH7F0K34Z","","708.2999999523163","img/land1.png","74","709.3000000119209","1","0","1","2","0.8,0.2,0.2,0.2,0.8,0.2,0.2,0.2,0.8","0.8,0.2,0.2,0.2,0.8,0.2,0.2,0.2,0.8","1","",""
"","html-keyboard-response","51","200599","0.0-51.0","39ASUFLU6YTI272G9YS4JVEQ72PXEY","A37OUZOGQKGMW0","382GHPVPHSDM8N0F9141EAH7F0K34Z","","null","<img src=""img/land1.png"" style=""width:200px;border:14px solid red;"">","null","","","","","","","","","",""
"","image-keyboard-response","52","201694","0.0-52.0","39ASUFLU6YTI272G9YS4JVEQ72PXEY","A37OUZOGQKGMW0","382GHPVPHSDM8N0F9141EAH7F0K34Z","","1094","img/land5.png","76","1094.9000000357628","3","1","2","2","0.8,0.2,0.2,0.2,0.8,0.2,0.2,0.2,0.8","0.8,0.2,0.2,0.2,0.8,0.2,0.2,0.2,0.8","1","",""
"","html-keyboard-response","53","201995","0.0-53.0","39ASUFLU6YTI272G9YS4JVEQ72PXEY","A37OUZOGQKGMW0","382GHPVPHSDM8N0F9141EAH7F0K34Z","","null","<img src=""img/land5.png"" style=""width:200px; border:14px solid green;"">","null","","","","","","","","","",""
"","image-keyboard-response","54","203183","0.0-54.0","39ASUFLU6YTI272G9YS4JVEQ72PXEY","A37OUZOGQKGMW0","382GHPVPHSDM8N0F9141EAH7F0K34Z","","1187.0999999642372","img/land1.png","74","1187.8999999761581","1","0","1","2","0.8,0.2,0.2,0.2,0.8,0.2,0.2,0.2,0.8","0.8,0.2,0.2,0.2,0.8,0.2,0.2,0.2,0.8","1","",""
"","html-keyboard-response","55","203485","0.0-55.0","39ASUFLU6YTI272G9YS4JVEQ72PXEY","A37OUZOGQKGMW0","382GHPVPHSDM8N0F9141EAH7F0K34Z","","null","<img src=""img/land1.png"" style=""width:200px;border:14px solid red;"">","null","","","","","","","","","",""
"","image-keyboard-response","56","204201","0.0-56.0","39ASUFLU6YTI272G9YS4JVEQ72PXEY","A37OUZOGQKGMW0","382GHPVPHSDM8N0F9141EAH7F0K34Z","","715.8999999761581","img/land3.png","76","716.5999999642372","3","1","3","2","0.8,0.2,0.2,0.2,0.8,0.2,0.2,0.2,0.8","0.8,0.2,0.2,0.2,0.8,0.2,0.2,0.2,0.8","1","",""
"","html-keyboard-response","57","204502","0.0-57.0","39ASUFLU6YTI272G9YS4JVEQ72PXEY","A37OUZOGQKGMW0","382GHPVPHSDM8N0F9141EAH7F0K34Z","","null","<img src=""img/land3.png"" style=""width:200px; border:14px solid green;"">","null","","","","","","","","","",""
"","image-keyboard-response","58","205784","0.0-58.0","39ASUFLU6YTI272G9YS4JVEQ72PXEY","A37OUZOGQKGMW0","382GHPVPHSDM8N0F9141EAH7F0K34Z","","1280","img/land1.png","76","1281.0999999642372","3","0","1","2","0.8,0.2,0.2,0.2,0.8,0.2,0.2,0.2,0.8","0.8,0.2,0.2,0.2,0.8,0.2,0.2,0.2,0.8","1","",""
"","html-keyboard-response","59","206087","0.0-59.0","39ASUFLU6YTI272G9YS4JVEQ72PXEY","A37OUZOGQKGMW0","382GHPVPHSDM8N0F9141EAH7F0K34Z","","null","<img src=""img/land1.png"" style=""width:200px;border:14px solid red;"">","null","","","","","","","","","",""
"","image-keyboard-response","60","206894","0.0-60.0","39ASUFLU6YTI272G9YS4JVEQ72PXEY","A37OUZOGQKGMW0","382GHPVPHSDM8N0F9141EAH7F0K34Z","","806","img/land1.png","74","807.1999999880791","1","1","1","2","0.8,0.2,0.2,0.2,0.8,0.2,0.2,0.2,0.8","0.8,0.2,0.2,0.2,0.8,0.2,0.2,0.2,0.8","1","",""
"","html-keyboard-response","61","207195","0.0-61.0","39ASUFLU6YTI272G9YS4JVEQ72PXEY","A37OUZOGQKGMW0","382GHPVPHSDM8N0F9141EAH7F0K34Z","","null","<img src=""img/land1.png"" style=""width:200px; border:14px solid green;"">","null","","","","","","","","","",""
"","image-keyboard-response","62","208011","0.0-62.0","39ASUFLU6YTI272G9YS4JVEQ72PXEY","A37OUZOGQKGMW0","382GHPVPHSDM8N0F9141EAH7F0K34Z","","814.8000000119209","img/land1.png","74","815.6000000238419","1","1","1","2","0.8,0.2,0.2,0.2,0.8,0.2,0.2,0.2,0.8","0.8,0.2,0.2,0.2,0.8,0.2,0.2,0.2,0.8","1","",""
"","html-keyboard-response","63","208313","0.0-63.0","39ASUFLU6YTI272G9YS4JVEQ72PXEY","A37OUZOGQKGMW0","382GHPVPHSDM8N0F9141EAH7F0K34Z","","null","<img src=""img/land1.png"" style=""width:200px; border:14px solid green;"">","null","","","","","","","","","",""
"","image-keyboard-response","64","209094","0.0-64.0","39ASUFLU6YTI272G9YS4JVEQ72PXEY","A37OUZOGQKGMW0","382GHPVPHSDM8N0F9141EAH7F0K34Z","","780.0999999642372","img/land3.png","76","780.8000000119209","3","1","3","2","0.8,0.2,0.2,0.2,0.8,0.2,0.2,0.2,0.8","0.8,0.2,0.2,0.2,0.8,0.2,0.2,0.2,0.8","1","",""
"","html-keyboard-response","65","209396","0.0-65.0","39ASUFLU6YTI272G9YS4JVEQ72PXEY","A37OUZOGQKGMW0","382GHPVPHSDM8N0F9141EAH7F0K34Z","","null","<img src=""img/land3.png"" style=""width:200px; border:14px solid green;"">","null","","","","","","","","","",""
"","image-keyboard-response","66","210307","0.0-66.0","39ASUFLU6YTI272G9YS4JVEQ72PXEY","A37OUZOGQKGMW0","382GHPVPHSDM8N0F9141EAH7F0K34Z","","910.1999999880791","img/land5.png","76","911.1999999880791","3","0","2","2","0.8,0.2,0.2,0.2,0.8,0.2,0.2,0.2,0.8","0.8,0.2,0.2,0.2,0.8,0.2,0.2,0.2,0.8","1","",""
"","html-keyboard-response","67","210609","0.0-67.0","39ASUFLU6YTI272G9YS4JVEQ72PXEY","A37OUZOGQKGMW0","382GHPVPHSDM8N0F9141EAH7F0K34Z","","null","<img src=""img/land5.png"" style=""width:200px;border:14px solid red;"">","null","","","","","","","","","",""
"","image-keyboard-response","68","211496","0.0-68.0","39ASUFLU6YTI272G9YS4JVEQ72PXEY","A37OUZOGQKGMW0","382GHPVPHSDM8N0F9141EAH7F0K34Z","","886","img/land1.png","74","886.9000000357628","1","1","1","2","0.8,0.2,0.2,0.2,0.8,0.2,0.2,0.2,0.8","0.8,0.2,0.2,0.2,0.8,0.2,0.2,0.2,0.8","1","",""
"","html-keyboard-response","69","211798","0.0-69.0","39ASUFLU6YTI272G9YS4JVEQ72PXEY","A37OUZOGQKGMW0","382GHPVPHSDM8N0F9141EAH7F0K34Z","","null","<img src=""img/land1.png"" style=""width:200px; border:14px solid green;"">","null","","","","","","","","","",""
"","image-keyboard-response","70","212576","0.0-70.0","39ASUFLU6YTI272G9YS4JVEQ72PXEY","A37OUZOGQKGMW0","382GHPVPHSDM8N0F9141EAH7F0K34Z","","778","img/land1.png","74","778.8999999761581","1","1","1","2","0.8,0.2,0.2,0.2,0.8,0.2,0.2,0.2,0.8","0.8,0.2,0.2,0.2,0.8,0.2,0.2,0.2,0.8","1","",""
"","html-keyboard-response","71","212878","0.0-71.0","39ASUFLU6YTI272G9YS4JVEQ72PXEY","A37OUZOGQKGMW0","382GHPVPHSDM8N0F9141EAH7F0K34Z","","null","<img src=""img/land1.png"" style=""width:200px; border:14px solid green;"">","null","","","","","","","","","",""
"","image-keyboard-response","72","213880","0.0-72.0","39ASUFLU6YTI272G9YS4JVEQ72PXEY","A37OUZOGQKGMW0","382GHPVPHSDM8N0F9141EAH7F0K34Z","","1000.1999999880791","img/land1.png","74","1001.1000000238419","1","1","1","2","0.8,0.2,0.2,0.2,0.8,0.2,0.2,0.2,0.8","0.8,0.2,0.2,0.2,0.8,0.2,0.2,0.2,0.8","1","",""
"","html-keyboard-response","73","214182","0.0-73.0","39ASUFLU6YTI272G9YS4JVEQ72PXEY","A37OUZOGQKGMW0","382GHPVPHSDM8N0F9141EAH7F0K34Z","","null","<img src=""img/land1.png"" style=""width:200px; border:14px solid green;"">","null","","","","","","","","","",""
"","image-keyboard-response","74","215031","0.0-74.0","39ASUFLU6YTI272G9YS4JVEQ72PXEY","A37OUZOGQKGMW0","382GHPVPHSDM8N0F9141EAH7F0K34Z","","848","img/land1.png","74","849","1","1","1","2","0.8,0.2,0.2,0.2,0.8,0.2,0.2,0.2,0.8","0.8,0.2,0.2,0.2,0.8,0.2,0.2,0.2,0.8","1","",""
"","html-keyboard-response","75","215333","0.0-75.0","39ASUFLU6YTI272G9YS4JVEQ72PXEY","A37OUZOGQKGMW0","382GHPVPHSDM8N0F9141EAH7F0K34Z","","null","<img src=""img/land1.png"" style=""width:200px; border:14px solid green;"">","null","","","","","","","","","",""
"","image-keyboard-response","76","216123","0.0-76.0","39ASUFLU6YTI272G9YS4JVEQ72PXEY","A37OUZOGQKGMW0","382GHPVPHSDM8N0F9141EAH7F0K34Z","","789.8000000119209","img/land1.png","74","790.5","1","1","1","2","0.8,0.2,0.2,0.2,0.8,0.2,0.2,0.2,0.8","0.8,0.2,0.2,0.2,0.8,0.2,0.2,0.2,0.8","1","",""
"","html-keyboard-response","77","216426","0.0-77.0","39ASUFLU6YTI272G9YS4JVEQ72PXEY","A37OUZOGQKGMW0","382GHPVPHSDM8N0F9141EAH7F0K34Z","","null","<img src=""img/land1.png"" style=""width:200px; border:14px solid green;"">","null","","","","","","","","","",""
"","image-keyboard-response","78","217389","0.0-78.0","39ASUFLU6YTI272G9YS4JVEQ72PXEY","A37OUZOGQKGMW0","382GHPVPHSDM8N0F9141EAH7F0K34Z","","961.8999999761581","img/land1.png","74","962.9000000357628","1","0","1","2","0.8,0.2,0.2,0.2,0.8,0.2,0.2,0.2,0.8","0.8,0.2,0.2,0.2,0.8,0.2,0.2,0.2,0.8","1","",""
"","html-keyboard-response","79","217691","0.0-79.0","39ASUFLU6YTI272G9YS4JVEQ72PXEY","A37OUZOGQKGMW0","382GHPVPHSDM8N0F9141EAH7F0K34Z","","null","<img src=""img/land1.png"" style=""width:200px;border:14px solid red;"">","null","","","","","","","","","",""
"","image-keyboard-response","80","218813","0.0-80.0","39ASUFLU6YTI272G9YS4JVEQ72PXEY","A37OUZOGQKGMW0","382GHPVPHSDM8N0F9141EAH7F0K34Z","","1121.1000000238419","img/land1.png","74","1121.8999999761581","1","1","1","2","0.8,0.2,0.2,0.2,0.8,0.2,0.2,0.2,0.8","0.8,0.2,0.2,0.2,0.8,0.2,0.2,0.2,0.8","1","",""
"","html-keyboard-response","81","219115","0.0-81.0","39ASUFLU6YTI272G9YS4JVEQ72PXEY","A37OUZOGQKGMW0","382GHPVPHSDM8N0F9141EAH7F0K34Z","","null","<img src=""img/land1.png"" style=""width:200px; border:14px solid green;"">","null","","","","","","","","","",""
"","image-keyboard-response","82","220618","0.0-82.0","39ASUFLU6YTI272G9YS4JVEQ72PXEY","A37OUZOGQKGMW0","382GHPVPHSDM8N0F9141EAH7F0K34Z","","1501.699999988079","img/land5.png","75","1502.7000000476837","2","0","2","2","0.8,0.2,0.2,0.2,0.8,0.2,0.2,0.2,0.8","0.8,0.2,0.2,0.2,0.8,0.2,0.2,0.2,0.8","1","",""
"","html-keyboard-response","83","220919","0.0-83.0","39ASUFLU6YTI272G9YS4JVEQ72PXEY","A37OUZOGQKGMW0","382GHPVPHSDM8N0F9141EAH7F0K34Z","","null","<img src=""img/land5.png"" style=""width:200px;border:14px solid red;"">","null","","","","","","","","","",""
"","image-keyboard-response","84","221465","0.0-84.0","39ASUFLU6YTI272G9YS4JVEQ72PXEY","A37OUZOGQKGMW0","382GHPVPHSDM8N0F9141EAH7F0K34Z","","544.9000000357628","img/land5.png","75","545.8000000119209","2","0","2","2","0.8,0.2,0.2,0.2,0.8,0.2,0.2,0.2,0.8","0.8,0.2,0.2,0.2,0.8,0.2,0.2,0.2,0.8","1","",""
"","html-keyboard-response","85","221768","0.0-85.0","39ASUFLU6YTI272G9YS4JVEQ72PXEY","A37OUZOGQKGMW0","382GHPVPHSDM8N0F9141EAH7F0K34Z","","null","<img src=""img/land5.png"" style=""width:200px;border:14px solid red;"">","null","","","","","","","","","",""
"","image-keyboard-response","86","222626","0.0-86.0","39ASUFLU6YTI272G9YS4JVEQ72PXEY","A37OUZOGQKGMW0","382GHPVPHSDM8N0F9141EAH7F0K34Z","","857.5","img/land1.png","74","858.4000000357628","1","1","1","2","0.8,0.2,0.2,0.2,0.8,0.2,0.2,0.2,0.8","0.8,0.2,0.2,0.2,0.8,0.2,0.2,0.2,0.8","1","",""
"","html-keyboard-response","87","222928","0.0-87.0","39ASUFLU6YTI272G9YS4JVEQ72PXEY","A37OUZOGQKGMW0","382GHPVPHSDM8N0F9141EAH7F0K34Z","","null","<img src=""img/land1.png"" style=""width:200px; border:14px solid green;"">","null","","","","","","","","","",""
"","image-keyboard-response","88","223820","0.0-88.0","39ASUFLU6YTI272G9YS4JVEQ72PXEY","A37OUZOGQKGMW0","382GHPVPHSDM8N0F9141EAH7F0K34Z","","890.5","img/land5.png","75","891.1999999880791","2","1","2","2","0.8,0.2,0.2,0.2,0.8,0.2,0.2,0.2,0.8","0.8,0.2,0.2,0.2,0.8,0.2,0.2,0.2,0.8","1","",""
"","html-keyboard-response","89","224122","0.0-89.0","39ASUFLU6YTI272G9YS4JVEQ72PXEY","A37OUZOGQKGMW0","382GHPVPHSDM8N0F9141EAH7F0K34Z","","null","<img src=""img/land5.png"" style=""width:200px; border:14px solid green;"">","null","","","","","","","","","",""
"","image-keyboard-response","90","224975","0.0-90.0","39ASUFLU6YTI272G9YS4JVEQ72PXEY","A37OUZOGQKGMW0","382GHPVPHSDM8N0F9141EAH7F0K34Z","","851.5","img/land5.png","75","852.5","2","1","2","2","0.8,0.2,0.2,0.2,0.8,0.2,0.2,0.2,0.8","0.8,0.2,0.2,0.2,0.8,0.2,0.2,0.2,0.8","1","",""
"","html-keyboard-response","91","225276","0.0-91.0","39ASUFLU6YTI272G9YS4JVEQ72PXEY","A37OUZOGQKGMW0","382GHPVPHSDM8N0F9141EAH7F0K34Z","","null","<img src=""img/land5.png"" style=""width:200px; border:14px solid green;"">","null","","","","","","","","","",""
"","image-keyboard-response","92","226371","0.0-92.0","39ASUFLU6YTI272G9YS4JVEQ72PXEY","A37OUZOGQKGMW0","382GHPVPHSDM8N0F9141EAH7F0K34Z","","1093.6000000238419","img/land3.png","76","1094.5","3","1","3","2","0.8,0.2,0.2,0.2,0.8,0.2,0.2,0.2,0.8","0.8,0.2,0.2,0.2,0.8,0.2,0.2,0.2,0.8","1","",""
"","html-keyboard-response","93","226673","0.0-93.0","39ASUFLU6YTI272G9YS4JVEQ72PXEY","A37OUZOGQKGMW0","382GHPVPHSDM8N0F9141EAH7F0K34Z","","null","<img src=""img/land3.png"" style=""width:200px; border:14px solid green;"">","null","","","","","","","","","",""
"","image-keyboard-response","94","227351","0.0-94.0","39ASUFLU6YTI272G9YS4JVEQ72PXEY","A37OUZOGQKGMW0","382GHPVPHSDM8N0F9141EAH7F0K34Z","","676.5999999642372","img/land3.png","76","677.6000000238419","3","1","3","2","0.8,0.2,0.2,0.2,0.8,0.2,0.2,0.2,0.8","0.8,0.2,0.2,0.2,0.8,0.2,0.2,0.2,0.8","1","",""
"","html-keyboard-response","95","227653","0.0-95.0","39ASUFLU6YTI272G9YS4JVEQ72PXEY","A37OUZOGQKGMW0","382GHPVPHSDM8N0F9141EAH7F0K34Z","","null","<img src=""img/land3.png"" style=""width:200px; border:14px solid green;"">","null","","","","","","","","","",""
"","image-keyboard-response","96","228472","0.0-96.0","39ASUFLU6YTI272G9YS4JVEQ72PXEY","A37OUZOGQKGMW0","382GHPVPHSDM8N0F9141EAH7F0K34Z","","818","img/land1.png","74","818.8999999761581","1","1","1","2","0.8,0.2,0.2,0.2,0.8,0.2,0.2,0.2,0.8","0.8,0.2,0.2,0.2,0.8,0.2,0.2,0.2,0.8","1","",""
"","html-keyboard-response","97","228774","0.0-97.0","39ASUFLU6YTI272G9YS4JVEQ72PXEY","A37OUZOGQKGMW0","382GHPVPHSDM8N0F9141EAH7F0K34Z","","null","<img src=""img/land1.png"" style=""width:200px; border:14px solid green;"">","null","","","","","","","","","",""
"","image-keyboard-response","98","229470","0.0-98.0","39ASUFLU6YTI272G9YS4JVEQ72PXEY","A37OUZOGQKGMW0","382GHPVPHSDM8N0F9141EAH7F0K34Z","","694.8000000119209","img/land1.png","74","695.6999999880791","1","1","1","2","0.8,0.2,0.2,0.2,0.8,0.2,0.2,0.2,0.8","0.8,0.2,0.2,0.2,0.8,0.2,0.2,0.2,0.8","1","",""
"","html-keyboard-response","99","229771","0.0-99.0","39ASUFLU6YTI272G9YS4JVEQ72PXEY","A37OUZOGQKGMW0","382GHPVPHSDM8N0F9141EAH7F0K34Z","","null","<img src=""img/land1.png"" style=""width:200px; border:14px solid green;"">","null","","","","","","","","","",""
"","image-keyboard-response","100","230784","0.0-100.0","39ASUFLU6YTI272G9YS4JVEQ72PXEY","A37OUZOGQKGMW0","382GHPVPHSDM8N0F9141EAH7F0K34Z","","1012.0999999642372","img/land5.png","75","1012.8999999761581","2","1","2","2","0.8,0.2,0.2,0.2,0.8,0.2,0.2,0.2,0.8","0.8,0.2,0.2,0.2,0.8,0.2,0.2,0.2,0.8","1","",""
"","html-keyboard-response","101","231086","0.0-101.0","39ASUFLU6YTI272G9YS4JVEQ72PXEY","A37OUZOGQKGMW0","382GHPVPHSDM8N0F9141EAH7F0K34Z","","null","<img src=""img/land5.png"" style=""width:200px; border:14px solid green;"">","null","","","","","","","","","",""
"","image-keyboard-response","102","231836","0.0-102.0","39ASUFLU6YTI272G9YS4JVEQ72PXEY","A37OUZOGQKGMW0","382GHPVPHSDM8N0F9141EAH7F0K34Z","","748.5999999642372","img/land1.png","74","749.6000000238419","1","0","1","2","0.8,0.2,0.2,0.2,0.8,0.2,0.2,0.2,0.8","0.8,0.2,0.2,0.2,0.8,0.2,0.2,0.2,0.8","1","",""
"","html-keyboard-response","103","232138","0.0-103.0","39ASUFLU6YTI272G9YS4JVEQ72PXEY","A37OUZOGQKGMW0","382GHPVPHSDM8N0F9141EAH7F0K34Z","","null","<img src=""img/land1.png"" style=""width:200px;border:14px solid red;"">","null","","","","","","","","","",""
"","image-keyboard-response","104","232933","0.0-104.0","39ASUFLU6YTI272G9YS4JVEQ72PXEY","A37OUZOGQKGMW0","382GHPVPHSDM8N0F9141EAH7F0K34Z","","793.6000000238419","img/land1.png","74","794.5","1","1","1","2","0.8,0.2,0.2,0.2,0.8,0.2,0.2,0.2,0.8","0.8,0.2,0.2,0.2,0.8,0.2,0.2,0.2,0.8","1","",""
"","html-keyboard-response","105","233234","0.0-105.0","39ASUFLU6YTI272G9YS4JVEQ72PXEY","A37OUZOGQKGMW0","382GHPVPHSDM8N0F9141EAH7F0K34Z","","null","<img src=""img/land1.png"" style=""width:200px; border:14px solid green;"">","null","","","","","","","","","",""
"","image-keyboard-response","106","233963","0.0-106.0","39ASUFLU6YTI272G9YS4JVEQ72PXEY","A37OUZOGQKGMW0","382GHPVPHSDM8N0F9141EAH7F0K34Z","","727.3999999761581","img/land1.png","74","728.0999999642372","1","1","1","2","0.8,0.2,0.2,0.2,0.8,0.2,0.2,0.2,0.8","0.8,0.2,0.2,0.2,0.8,0.2,0.2,0.2,0.8","1","",""
"","html-keyboard-response","107","234264","0.0-107.0","39ASUFLU6YTI272G9YS4JVEQ72PXEY","A37OUZOGQKGMW0","382GHPVPHSDM8N0F9141EAH7F0K34Z","","null","<img src=""img/land1.png"" style=""width:200px; border:14px solid green;"">","null","","","","","","","","","",""
"","image-keyboard-response","108","235221","0.0-108.0","39ASUFLU6YTI272G9YS4JVEQ72PXEY","A37OUZOGQKGMW0","382GHPVPHSDM8N0F9141EAH7F0K34Z","","955.3999999761581","img/land3.png","76","956.3000000119209","3","1","3","2","0.8,0.2,0.2,0.2,0.8,0.2,0.2,0.2,0.8","0.8,0.2,0.2,0.2,0.8,0.2,0.2,0.2,0.8","1","",""
"","html-keyboard-response","109","235530","0.0-109.0","39ASUFLU6YTI272G9YS4JVEQ72PXEY","A37OUZOGQKGMW0","382GHPVPHSDM8N0F9141EAH7F0K34Z","","null","<img src=""img/land3.png"" style=""width:200px; border:14px solid green;"">","null","","","","","","","","","",""
"","image-keyboard-response","110","236298","0.0-110.0","39ASUFLU6YTI272G9YS4JVEQ72PXEY","A37OUZOGQKGMW0","382GHPVPHSDM8N0F9141EAH7F0K34Z","","765.8999999761581","img/land1.png","74","766.9000000357628","1","1","1","2","0.8,0.2,0.2,0.2,0.8,0.2,0.2,0.2,0.8","0.8,0.2,0.2,0.2,0.8,0.2,0.2,0.2,0.8","1","",""
"","html-keyboard-response","111","236600","0.0-111.0","39ASUFLU6YTI272G9YS4JVEQ72PXEY","A37OUZOGQKGMW0","382GHPVPHSDM8N0F9141EAH7F0K34Z","","null","<img src=""img/land1.png"" style=""width:200px; border:14px solid green;"">","null","","","","","","","","","",""
"","image-keyboard-response","112","237259","0.0-112.0","39ASUFLU6YTI272G9YS4JVEQ72PXEY","A37OUZOGQKGMW0","382GHPVPHSDM8N0F9141EAH7F0K34Z","","658.3999999761581","img/land3.png","76","659.4000000357628","3","0","3","2","0.8,0.2,0.2,0.2,0.8,0.2,0.2,0.2,0.8","0.8,0.2,0.2,0.2,0.8,0.2,0.2,0.2,0.8","1","",""
"","html-keyboard-response","113","237561","0.0-113.0","39ASUFLU6YTI272G9YS4JVEQ72PXEY","A37OUZOGQKGMW0","382GHPVPHSDM8N0F9141EAH7F0K34Z","","null","<img src=""img/land3.png"" style=""width:200px;border:14px solid red;"">","null","","","","","","","","","",""
"","image-keyboard-response","114","238421","0.0-114.0","39ASUFLU6YTI272G9YS4JVEQ72PXEY","A37OUZOGQKGMW0","382GHPVPHSDM8N0F9141EAH7F0K34Z","","859","img/land1.png","74","860","1","1","1","2","0.8,0.2,0.2,0.2,0.8,0.2,0.2,0.2,0.8","0.8,0.2,0.2,0.2,0.8,0.2,0.2,0.2,0.8","1","",""
"","html-keyboard-response","115","238723","0.0-115.0","39ASUFLU6YTI272G9YS4JVEQ72PXEY","A37OUZOGQKGMW0","382GHPVPHSDM8N0F9141EAH7F0K34Z","","null","<img src=""img/land1.png"" style=""width:200px; border:14px solid green;"">","null","","","","","","","","","",""
"","image-keyboard-response","116","239553","0.0-116.0","39ASUFLU6YTI272G9YS4JVEQ72PXEY","A37OUZOGQKGMW0","382GHPVPHSDM8N0F9141EAH7F0K34Z","","828.1999999880791","img/land1.png","74","829.1999999880791","1","1","1","2","0.8,0.2,0.2,0.2,0.8,0.2,0.2,0.2,0.8","0.8,0.2,0.2,0.2,0.8,0.2,0.2,0.2,0.8","1","",""
"","html-keyboard-response","117","239864","0.0-117.0","39ASUFLU6YTI272G9YS4JVEQ72PXEY","A37OUZOGQKGMW0","382GHPVPHSDM8N0F9141EAH7F0K34Z","","null","<img src=""img/land1.png"" style=""width:200px; border:14px solid green;"">","null","","","","","","","","","",""
"","image-keyboard-response","118","240404","0.0-118.0","39ASUFLU6YTI272G9YS4JVEQ72PXEY","A37OUZOGQKGMW0","382GHPVPHSDM8N0F9141EAH7F0K34Z","","538.6000000238419","img/land1.png","74","539.3999999761581","1","0","1","2","0.8,0.2,0.2,0.2,0.8,0.2,0.2,0.2,0.8","0.8,0.2,0.2,0.2,0.8,0.2,0.2,0.2,0.8","1","",""
"","html-keyboard-response","119","240717","0.0-119.0","39ASUFLU6YTI272G9YS4JVEQ72PXEY","A37OUZOGQKGMW0","382GHPVPHSDM8N0F9141EAH7F0K34Z","","null","<img src=""img/land1.png"" style=""width:200px;border:14px solid red;"">","null","","","","","","","","","",""
"","image-keyboard-response","120","241524","0.0-120.0","39ASUFLU6YTI272G9YS4JVEQ72PXEY","A37OUZOGQKGMW0","382GHPVPHSDM8N0F9141EAH7F0K34Z","","805.1999999880791","img/land1.png","74","806.1999999880791","1","1","1","2","0.8,0.2,0.2,0.2,0.8,0.2,0.2,0.2,0.8","0.8,0.2,0.2,0.2,0.8,0.2,0.2,0.2,0.8","1","",""
"","html-keyboard-response","121","241825","0.0-121.0","39ASUFLU6YTI272G9YS4JVEQ72PXEY","A37OUZOGQKGMW0","382GHPVPHSDM8N0F9141EAH7F0K34Z","","null","<img src=""img/land1.png"" style=""width:200px; border:14px solid green;"">","null","","","","","","","","","",""
"","image-keyboard-response","122","242794","0.0-122.0","39ASUFLU6YTI272G9YS4JVEQ72PXEY","A37OUZOGQKGMW0","382GHPVPHSDM8N0F9141EAH7F0K34Z","","967.7000000476837","img/land5.png","75","968.6000000238419","2","1","2","2","0.8,0.2,0.2,0.2,0.8,0.2,0.2,0.2,0.8","0.8,0.2,0.2,0.2,0.8,0.2,0.2,0.2,0.8","1","",""
"","html-keyboard-response","123","243096","0.0-123.0","39ASUFLU6YTI272G9YS4JVEQ72PXEY","A37OUZOGQKGMW0","382GHPVPHSDM8N0F9141EAH7F0K34Z","","null","<img src=""img/land5.png"" style=""width:200px; border:14px solid green;"">","null","","","","","","","","","",""
"","image-keyboard-response","124","243773","0.0-124.0","39ASUFLU6YTI272G9YS4JVEQ72PXEY","A37OUZOGQKGMW0","382GHPVPHSDM8N0F9141EAH7F0K34Z","","676.1999999880791","img/land5.png","75","677.4000000357628","2","1","2","2","0.8,0.2,0.2,0.2,0.8,0.2,0.2,0.2,0.8","0.8,0.2,0.2,0.2,0.8,0.2,0.2,0.2,0.8","1","",""
"","html-keyboard-response","125","244075","0.0-125.0","39ASUFLU6YTI272G9YS4JVEQ72PXEY","A37OUZOGQKGMW0","382GHPVPHSDM8N0F9141EAH7F0K34Z","","null","<img src=""img/land5.png"" style=""width:200px; border:14px solid green;"">","null","","","","","","","","","",""
"","image-keyboard-response","126","244822","0.0-126.0","39ASUFLU6YTI272G9YS4JVEQ72PXEY","A37OUZOGQKGMW0","382GHPVPHSDM8N0F9141EAH7F0K34Z","","745.6000000238419","img/land1.png","74","746.5","1","1","1","2","0.8,0.2,0.2,0.2,0.8,0.2,0.2,0.2,0.8","0.8,0.2,0.2,0.2,0.8,0.2,0.2,0.2,0.8","1","",""
"","html-keyboard-response","127","245124","0.0-127.0","39ASUFLU6YTI272G9YS4JVEQ72PXEY","A37OUZOGQKGMW0","382GHPVPHSDM8N0F9141EAH7F0K34Z","","null","<img src=""img/land1.png"" style=""width:200px; border:14px solid green;"">","null","","","","","","","","","",""
"","image-keyboard-response","128","245803","0.0-128.0","39ASUFLU6YTI272G9YS4JVEQ72PXEY","A37OUZOGQKGMW0","382GHPVPHSDM8N0F9141EAH7F0K34Z","","677.8999999761581","img/land1.png","74","678.8000000119209","1","1","1","2","0.8,0.2,0.2,0.2,0.8,0.2,0.2,0.2,0.8","0.8,0.2,0.2,0.2,0.8,0.2,0.2,0.2,0.8","1","",""
"","html-keyboard-response","129","246106","0.0-129.0","39ASUFLU6YTI272G9YS4JVEQ72PXEY","A37OUZOGQKGMW0","382GHPVPHSDM8N0F9141EAH7F0K34Z","","null","<img src=""img/land1.png"" style=""width:200px; border:14px solid green;"">","null","","","","","","","","","",""
"","image-keyboard-response","130","246895","0.0-130.0","39ASUFLU6YTI272G9YS4JVEQ72PXEY","A37OUZOGQKGMW0","382GHPVPHSDM8N0F9141EAH7F0K34Z","","787.8000000119209","img/land5.png","75","788.5","2","1","2","2","0.8,0.2,0.2,0.2,0.8,0.2,0.2,0.2,0.8","0.8,0.2,0.2,0.2,0.8,0.2,0.2,0.2,0.8","1","",""
"","html-keyboard-response","131","247196","0.0-131.0","39ASUFLU6YTI272G9YS4JVEQ72PXEY","A37OUZOGQKGMW0","382GHPVPHSDM8N0F9141EAH7F0K34Z","","null","<img src=""img/land5.png"" style=""width:200px; border:14px solid green;"">","null","","","","","","","","","",""
"","image-keyboard-response","132","247954","0.0-132.0","39ASUFLU6YTI272G9YS4JVEQ72PXEY","A37OUZOGQKGMW0","382GHPVPHSDM8N0F9141EAH7F0K34Z","","755.6000000238419","img/land1.png","74","756.5","1","1","1","2","0.8,0.2,0.2,0.2,0.8,0.2,0.2,0.2,0.8","0.8,0.2,0.2,0.2,0.8,0.2,0.2,0.2,0.8","1","",""
"","html-keyboard-response","133","248255","0.0-133.0","39ASUFLU6YTI272G9YS4JVEQ72PXEY","A37OUZOGQKGMW0","382GHPVPHSDM8N0F9141EAH7F0K34Z","","null","<img src=""img/land1.png"" style=""width:200px; border:14px solid green;"">","null","","","","","","","","","",""
"","image-keyboard-response","134","249064","0.0-134.0","39ASUFLU6YTI272G9YS4JVEQ72PXEY","A37OUZOGQKGMW0","382GHPVPHSDM8N0F9141EAH7F0K34Z","","807.1000000238419","img/land1.png","74","808.1999999880791","1","1","1","2","0.8,0.2,0.2,0.2,0.8,0.2,0.2,0.2,0.8","0.8,0.2,0.2,0.2,0.8,0.2,0.2,0.2,0.8","1","",""
"","html-keyboard-response","135","249365","0.0-135.0","39ASUFLU6YTI272G9YS4JVEQ72PXEY","A37OUZOGQKGMW0","382GHPVPHSDM8N0F9141EAH7F0K34Z","","null","<img src=""img/land1.png"" style=""width:200px; border:14px solid green;"">","null","","","","","","","","","",""
"","image-keyboard-response","136","250037","0.0-136.0","39ASUFLU6YTI272G9YS4JVEQ72PXEY","A37OUZOGQKGMW0","382GHPVPHSDM8N0F9141EAH7F0K34Z","","670.9000000357628","img/land1.png","74","671.6999999880791","1","0","1","2","0.8,0.2,0.2,0.2,0.8,0.2,0.2,0.2,0.8","0.8,0.2,0.2,0.2,0.8,0.2,0.2,0.2,0.8","1","",""
"","html-keyboard-response","137","250340","0.0-137.0","39ASUFLU6YTI272G9YS4JVEQ72PXEY","A37OUZOGQKGMW0","382GHPVPHSDM8N0F9141EAH7F0K34Z","","null","<img src=""img/land1.png"" style=""width:200px;border:14px solid red;"">","null","","","","","","","","","",""
"","image-keyboard-response","138","251054","0.0-138.0","39ASUFLU6YTI272G9YS4JVEQ72PXEY","A37OUZOGQKGMW0","382GHPVPHSDM8N0F9141EAH7F0K34Z","","713","img/land1.png","74","713.6999999880791","1","1","1","2","0.8,0.2,0.2,0.2,0.8,0.2,0.2,0.2,0.8","0.8,0.2,0.2,0.2,0.8,0.2,0.2,0.2,0.8","1","",""
"","html-keyboard-response","139","251355","0.0-139.0","39ASUFLU6YTI272G9YS4JVEQ72PXEY","A37OUZOGQKGMW0","382GHPVPHSDM8N0F9141EAH7F0K34Z","","null","<img src=""img/land1.png"" style=""width:200px; border:14px solid green;"">","null","","","","","","","","","",""
"","image-keyboard-response","140","252167","0.0-140.0","39ASUFLU6YTI272G9YS4JVEQ72PXEY","A37OUZOGQKGMW0","382GHPVPHSDM8N0F9141EAH7F0K34Z","","810.6999999880791","img/land5.png","75","811.6999999880791","2","0","2","2","0.8,0.2,0.2,0.2,0.8,0.2,0.2,0.2,0.8","0.8,0.2,0.2,0.2,0.8,0.2,0.2,0.2,0.8","1","",""
"","html-keyboard-response","141","252468","0.0-141.0","39ASUFLU6YTI272G9YS4JVEQ72PXEY","A37OUZOGQKGMW0","382GHPVPHSDM8N0F9141EAH7F0K34Z","","null","<img src=""img/land5.png"" style=""width:200px;border:14px solid red;"">","null","","","","","","","","","",""
"","image-keyboard-response","142","253074","0.0-142.0","39ASUFLU6YTI272G9YS4JVEQ72PXEY","A37OUZOGQKGMW0","382GHPVPHSDM8N0F9141EAH7F0K34Z","","604.6000000238419","img/land1.png","75","605.5","2","0","1","2","0.8,0.2,0.2,0.2,0.8,0.2,0.2,0.2,0.8","0.8,0.2,0.2,0.2,0.8,0.2,0.2,0.2,0.8","1","",""
"","html-keyboard-response","143","253376","0.0-143.0","39ASUFLU6YTI272G9YS4JVEQ72PXEY","A37OUZOGQKGMW0","382GHPVPHSDM8N0F9141EAH7F0K34Z","","null","<img src=""img/land1.png"" style=""width:200px;border:14px solid red;"">","null","","","","","","","","","",""
"","image-keyboard-response","144","254006","0.0-144.0","39ASUFLU6YTI272G9YS4JVEQ72PXEY","A37OUZOGQKGMW0","382GHPVPHSDM8N0F9141EAH7F0K34Z","","628.3999999761581","img/land1.png","74","629.3999999761581","1","1","1","2","0.8,0.2,0.2,0.2,0.8,0.2,0.2,0.2,0.8","0.8,0.2,0.2,0.2,0.8,0.2,0.2,0.2,0.8","1","",""
"","html-keyboard-response","145","254308","0.0-145.0","39ASUFLU6YTI272G9YS4JVEQ72PXEY","A37OUZOGQKGMW0","382GHPVPHSDM8N0F9141EAH7F0K34Z","","null","<img src=""img/land1.png"" style=""width:200px; border:14px solid green;"">","null","","","","","","","","","",""
"","image-keyboard-response","146","255215","0.0-146.0","39ASUFLU6YTI272G9YS4JVEQ72PXEY","A37OUZOGQKGMW0","382GHPVPHSDM8N0F9141EAH7F0K34Z","","906","img/land3.png","76","906.8000000119209","3","1","3","2","0.8,0.2,0.2,0.2,0.8,0.2,0.2,0.2,0.8","0.8,0.2,0.2,0.2,0.8,0.2,0.2,0.2,0.8","1","",""
"","html-keyboard-response","147","255516","0.0-147.0","39ASUFLU6YTI272G9YS4JVEQ72PXEY","A37OUZOGQKGMW0","382GHPVPHSDM8N0F9141EAH7F0K34Z","","null","<img src=""img/land3.png"" style=""width:200px; border:14px solid green;"">","null","","","","","","","","","",""
"","image-keyboard-response","148","256204","0.0-148.0","39ASUFLU6YTI272G9YS4JVEQ72PXEY","A37OUZOGQKGMW0","382GHPVPHSDM8N0F9141EAH7F0K34Z","","686.1000000238419","img/land3.png","76","687.1000000238419","3","0","3","2","0.8,0.2,0.2,0.2,0.8,0.2,0.2,0.2,0.8","0.8,0.2,0.2,0.2,0.8,0.2,0.2,0.2,0.8","1","",""
"","html-keyboard-response","149","256505","0.0-149.0","39ASUFLU6YTI272G9YS4JVEQ72PXEY","A37OUZOGQKGMW0","382GHPVPHSDM8N0F9141EAH7F0K34Z","","null","<img src=""img/land3.png"" style=""width:200px;border:14px solid red;"">","null","","","","","","","","","",""
"","image-keyboard-response","150","257568","0.0-150.0","39ASUFLU6YTI272G9YS4JVEQ72PXEY","A37OUZOGQKGMW0","382GHPVPHSDM8N0F9141EAH7F0K34Z","","1061.5","img/land5.png","75","1062.300000011921","2","1","2","2","0.8,0.2,0.2,0.2,0.8,0.2,0.2,0.2,0.8","0.8,0.2,0.2,0.2,0.8,0.2,0.2,0.2,0.8","1","",""
"","html-keyboard-response","151","257876","0.0-151.0","39ASUFLU6YTI272G9YS4JVEQ72PXEY","A37OUZOGQKGMW0","382GHPVPHSDM8N0F9141EAH7F0K34Z","","null","<img src=""img/land5.png"" style=""width:200px; border:14px solid green;"">","null","","","","","","","","","",""
"","image-keyboard-response","152","258485","0.0-152.0","39ASUFLU6YTI272G9YS4JVEQ72PXEY","A37OUZOGQKGMW0","382GHPVPHSDM8N0F9141EAH7F0K34Z","","608.0999999642372","img/land5.png","75","609","2","1","2","2","0.8,0.2,0.2,0.2,0.8,0.2,0.2,0.2,0.8","0.8,0.2,0.2,0.2,0.8,0.2,0.2,0.2,0.8","1","",""
"","html-keyboard-response","153","258787","0.0-153.0","39ASUFLU6YTI272G9YS4JVEQ72PXEY","A37OUZOGQKGMW0","382GHPVPHSDM8N0F9141EAH7F0K34Z","","null","<img src=""img/land5.png"" style=""width:200px; border:14px solid green;"">","null","","","","","","","","","",""
"","image-keyboard-response","154","259756","0.0-154.0","39ASUFLU6YTI272G9YS4JVEQ72PXEY","A37OUZOGQKGMW0","382GHPVPHSDM8N0F9141EAH7F0K34Z","","967.0999999642372","img/land3.png","76","968.1000000238419","3","1","3","2","0.8,0.2,0.2,0.2,0.8,0.2,0.2,0.2,0.8","0.8,0.2,0.2,0.2,0.8,0.2,0.2,0.2,0.8","1","",""
"","html-keyboard-response","155","260058","0.0-155.0","39ASUFLU6YTI272G9YS4JVEQ72PXEY","A37OUZOGQKGMW0","382GHPVPHSDM8N0F9141EAH7F0K34Z","","null","<img src=""img/land3.png"" style=""width:200px; border:14px solid green;"">","null","","","","","","","","","",""
"","image-keyboard-response","156","260817","0.0-156.0","39ASUFLU6YTI272G9YS4JVEQ72PXEY","A37OUZOGQKGMW0","382GHPVPHSDM8N0F9141EAH7F0K34Z","","757.3999999761581","img/land1.png","74","758.0999999642372","1","0","1","2","0.8,0.2,0.2,0.2,0.8,0.2,0.2,0.2,0.8","0.8,0.2,0.2,0.2,0.8,0.2,0.2,0.2,0.8","1","",""
"","html-keyboard-response","157","261118","0.0-157.0","39ASUFLU6YTI272G9YS4JVEQ72PXEY","A37OUZOGQKGMW0","382GHPVPHSDM8N0F9141EAH7F0K34Z","","null","<img src=""img/land1.png"" style=""width:200px;border:14px solid red;"">","null","","","","","","","","","",""
"","image-keyboard-response","158","262018","0.0-158.0","39ASUFLU6YTI272G9YS4JVEQ72PXEY","A37OUZOGQKGMW0","382GHPVPHSDM8N0F9141EAH7F0K34Z","","898.6999999880791","img/land1.png","74","899.3999999761581","1","1","1","2","0.8,0.2,0.2,0.2,0.8,0.2,0.2,0.2,0.8","0.8,0.2,0.2,0.2,0.8,0.2,0.2,0.2,0.8","1","",""
"","html-keyboard-response","159","262319","0.0-159.0","39ASUFLU6YTI272G9YS4JVEQ72PXEY","A37OUZOGQKGMW0","382GHPVPHSDM8N0F9141EAH7F0K34Z","","null","<img src=""img/land1.png"" style=""width:200px; border:14px solid green;"">","null","","","","","","","","","",""
"","image-keyboard-response","160","262998","0.0-160.0","39ASUFLU6YTI272G9YS4JVEQ72PXEY","A37OUZOGQKGMW0","382GHPVPHSDM8N0F9141EAH7F0K34Z","","677.8000000119209","img/land3.png","76","678.9000000357628","3","0","3","2","0.8,0.2,0.2,0.2,0.8,0.2,0.2,0.2,0.8","0.8,0.2,0.2,0.2,0.8,0.2,0.2,0.2,0.8","1","",""
"","html-keyboard-response","161","263301","0.0-161.0","39ASUFLU6YTI272G9YS4JVEQ72PXEY","A37OUZOGQKGMW0","382GHPVPHSDM8N0F9141EAH7F0K34Z","","null","<img src=""img/land3.png"" style=""width:200px;border:14px solid red;"">","null","","","","","","","","","",""
"","image-keyboard-response","162","264324","0.0-162.0","39ASUFLU6YTI272G9YS4JVEQ72PXEY","A37OUZOGQKGMW0","382GHPVPHSDM8N0F9141EAH7F0K34Z","","1022","img/land5.png","75","1023","2","1","2","2","0.8,0.2,0.2,0.2,0.8,0.2,0.2,0.2,0.8","0.8,0.2,0.2,0.2,0.8,0.2,0.2,0.2,0.8","1","",""
"","html-keyboard-response","163","264625","0.0-163.0","39ASUFLU6YTI272G9YS4JVEQ72PXEY","A37OUZOGQKGMW0","382GHPVPHSDM8N0F9141EAH7F0K34Z","","null","<img src=""img/land5.png"" style=""width:200px; border:14px solid green;"">","null","","","","","","","","","",""
"","image-keyboard-response","164","265600","0.0-164.0","39ASUFLU6YTI272G9YS4JVEQ72PXEY","A37OUZOGQKGMW0","382GHPVPHSDM8N0F9141EAH7F0K34Z","","973.8000000119209","img/land3.png","76","974.5","3","1","3","2","0.8,0.2,0.2,0.2,0.8,0.2,0.2,0.2,0.8","0.8,0.2,0.2,0.2,0.8,0.2,0.2,0.2,0.8","1","",""
"","html-keyboard-response","165","265902","0.0-165.0","39ASUFLU6YTI272G9YS4JVEQ72PXEY","A37OUZOGQKGMW0","382GHPVPHSDM8N0F9141EAH7F0K34Z","","null","<img src=""img/land3.png"" style=""width:200px; border:14px solid green;"">","null","","","","","","","","","",""
"","image-keyboard-response","166","266923","0.0-166.0","39ASUFLU6YTI272G9YS4JVEQ72PXEY","A37OUZOGQKGMW0","382GHPVPHSDM8N0F9141EAH7F0K34Z","","1019.9000000357628","img/land1.png","74","1020.8000000119209","1","0","1","2","0.8,0.2,0.2,0.2,0.8,0.2,0.2,0.2,0.8","0.8,0.2,0.2,0.2,0.8,0.2,0.2,0.2,0.8","1","",""
"","html-keyboard-response","167","267224","0.0-167.0","39ASUFLU6YTI272G9YS4JVEQ72PXEY","A37OUZOGQKGMW0","382GHPVPHSDM8N0F9141EAH7F0K34Z","","null","<img src=""img/land1.png"" style=""width:200px;border:14px solid red;"">","null","","","","","","","","","",""
"","image-keyboard-response","168","267980","0.0-168.0","39ASUFLU6YTI272G9YS4JVEQ72PXEY","A37OUZOGQKGMW0","382GHPVPHSDM8N0F9141EAH7F0K34Z","","755.5","img/land1.png","74","756.2999999523163","1","1","1","2","0.8,0.2,0.2,0.2,0.8,0.2,0.2,0.2,0.8","0.8,0.2,0.2,0.2,0.8,0.2,0.2,0.2,0.8","1","",""
"","html-keyboard-response","169","268283","0.0-169.0","39ASUFLU6YTI272G9YS4JVEQ72PXEY","A37OUZOGQKGMW0","382GHPVPHSDM8N0F9141EAH7F0K34Z","","null","<img src=""img/land1.png"" style=""width:200px; border:14px solid green;"">","null","","","","","","","","","",""
"","image-keyboard-response","170","269125","0.0-170.0","39ASUFLU6YTI272G9YS4JVEQ72PXEY","A37OUZOGQKGMW0","382GHPVPHSDM8N0F9141EAH7F0K34Z","","842.1999999880791","img/land1.png","74","843.1000000238419","1","1","1","2","0.8,0.2,0.2,0.2,0.8,0.2,0.2,0.2,0.8","0.8,0.2,0.2,0.2,0.8,0.2,0.2,0.2,0.8","1","",""
"","html-keyboard-response","171","269426","0.0-171.0","39ASUFLU6YTI272G9YS4JVEQ72PXEY","A37OUZOGQKGMW0","382GHPVPHSDM8N0F9141EAH7F0K34Z","","null","<img src=""img/land1.png"" style=""width:200px; border:14px solid green;"">","null","","","","","","","","","",""
"","image-keyboard-response","172","270193","0.0-172.0","39ASUFLU6YTI272G9YS4JVEQ72PXEY","A37OUZOGQKGMW0","382GHPVPHSDM8N0F9141EAH7F0K34Z","","765.1999999880791","img/land5.png","75","766.1999999880791","2","1","2","2","0.8,0.2,0.2,0.2,0.8,0.2,0.2,0.2,0.8","0.8,0.2,0.2,0.2,0.8,0.2,0.2,0.2,0.8","1","",""
"","html-keyboard-response","173","270494","0.0-173.0","39ASUFLU6YTI272G9YS4JVEQ72PXEY","A37OUZOGQKGMW0","382GHPVPHSDM8N0F9141EAH7F0K34Z","","null","<img src=""img/land5.png"" style=""width:200px; border:14px solid green;"">","null","","","","","","","","","",""
"","image-keyboard-response","174","271265","0.0-174.0","39ASUFLU6YTI272G9YS4JVEQ72PXEY","A37OUZOGQKGMW0","382GHPVPHSDM8N0F9141EAH7F0K34Z","","769.8999999761581","img/land1.png","74","770.6999999880791","1","1","1","2","0.8,0.2,0.2,0.2,0.8,0.2,0.2,0.2,0.8","0.8,0.2,0.2,0.2,0.8,0.2,0.2,0.2,0.8","1","",""
"","html-keyboard-response","175","271566","0.0-175.0","39ASUFLU6YTI272G9YS4JVEQ72PXEY","A37OUZOGQKGMW0","382GHPVPHSDM8N0F9141EAH7F0K34Z","","null","<img src=""img/land1.png"" style=""width:200px; border:14px solid green;"">","null","","","","","","","","","",""
"","image-keyboard-response","176","272356","0.0-176.0","39ASUFLU6YTI272G9YS4JVEQ72PXEY","A37OUZOGQKGMW0","382GHPVPHSDM8N0F9141EAH7F0K34Z","","789.4000000357628","img/land1.png","74","790.1000000238419","1","1","1","2","0.8,0.2,0.2,0.2,0.8,0.2,0.2,0.2,0.8","0.8,0.2,0.2,0.2,0.8,0.2,0.2,0.2,0.8","1","",""
"","html-keyboard-response","177","272659","0.0-177.0","39ASUFLU6YTI272G9YS4JVEQ72PXEY","A37OUZOGQKGMW0","382GHPVPHSDM8N0F9141EAH7F0K34Z","","null","<img src=""img/land1.png"" style=""width:200px; border:14px solid green;"">","null","","","","","","","","","",""
"","image-keyboard-response","178","273361","0.0-178.0","39ASUFLU6YTI272G9YS4JVEQ72PXEY","A37OUZOGQKGMW0","382GHPVPHSDM8N0F9141EAH7F0K34Z","","701","img/land1.png","74","701.8999999761581","1","1","1","2","0.8,0.2,0.2,0.2,0.8,0.2,0.2,0.2,0.8","0.8,0.2,0.2,0.2,0.8,0.2,0.2,0.2,0.8","1","",""
"","html-keyboard-response","179","273662","0.0-179.0","39ASUFLU6YTI272G9YS4JVEQ72PXEY","A37OUZOGQKGMW0","382GHPVPHSDM8N0F9141EAH7F0K34Z","","null","<img src=""img/land1.png"" style=""width:200px; border:14px solid green;"">","null","","","","","","","","","",""
"","image-keyboard-response","180","274312","0.0-180.0","39ASUFLU6YTI272G9YS4JVEQ72PXEY","A37OUZOGQKGMW0","382GHPVPHSDM8N0F9141EAH7F0K34Z","","648.3999999761581","img/land1.png","74","649.3000000119209","1","1","1","2","0.8,0.2,0.2,0.2,0.8,0.2,0.2,0.2,0.8","0.8,0.2,0.2,0.2,0.8,0.2,0.2,0.2,0.8","1","",""
"","html-keyboard-response","181","274623","0.0-181.0","39ASUFLU6YTI272G9YS4JVEQ72PXEY","A37OUZOGQKGMW0","382GHPVPHSDM8N0F9141EAH7F0K34Z","","null","<img src=""img/land1.png"" style=""width:200px; border:14px solid green;"">","null","","","","","","","","","",""
"","image-keyboard-response","182","275319","0.0-182.0","39ASUFLU6YTI272G9YS4JVEQ72PXEY","A37OUZOGQKGMW0","382GHPVPHSDM8N0F9141EAH7F0K34Z","","694.2999999523163","img/land1.png","74","695.1999999880791","1","1","1","2","0.8,0.2,0.2,0.2,0.8,0.2,0.2,0.2,0.8","0.8,0.2,0.2,0.2,0.8,0.2,0.2,0.2,0.8","1","",""
"","html-keyboard-response","183","275621","0.0-183.0","39ASUFLU6YTI272G9YS4JVEQ72PXEY","A37OUZOGQKGMW0","382GHPVPHSDM8N0F9141EAH7F0K34Z","","null","<img src=""img/land1.png"" style=""width:200px; border:14px solid green;"">","null","","","","","","","","","",""
"","image-keyboard-response","184","276285","0.0-184.0","39ASUFLU6YTI272G9YS4JVEQ72PXEY","A37OUZOGQKGMW0","382GHPVPHSDM8N0F9141EAH7F0K34Z","","663.1000000238419","img/land5.png","75","663.9000000357628","2","1","2","2","0.8,0.2,0.2,0.2,0.8,0.2,0.2,0.2,0.8","0.8,0.2,0.2,0.2,0.8,0.2,0.2,0.2,0.8","1","",""
"","html-keyboard-response","185","276586","0.0-185.0","39ASUFLU6YTI272G9YS4JVEQ72PXEY","A37OUZOGQKGMW0","382GHPVPHSDM8N0F9141EAH7F0K34Z","","null","<img src=""img/land5.png"" style=""width:200px; border:14px solid green;"">","null","","","","","","","","","",""
"","image-keyboard-response","186","277491","0.0-186.0","39ASUFLU6YTI272G9YS4JVEQ72PXEY","A37OUZOGQKGMW0","382GHPVPHSDM8N0F9141EAH7F0K34Z","","903.6000000238419","img/land1.png","74","904.5999999642372","1","0","1","2","0.8,0.2,0.2,0.2,0.8,0.2,0.2,0.2,0.8","0.8,0.2,0.2,0.2,0.8,0.2,0.2,0.2,0.8","1","",""
"","html-keyboard-response","187","277792","0.0-187.0","39ASUFLU6YTI272G9YS4JVEQ72PXEY","A37OUZOGQKGMW0","382GHPVPHSDM8N0F9141EAH7F0K34Z","","null","<img src=""img/land1.png"" style=""width:200px;border:14px solid red;"">","null","","","","","","","","","",""
"","image-keyboard-response","188","278661","0.0-188.0","39ASUFLU6YTI272G9YS4JVEQ72PXEY","A37OUZOGQKGMW0","382GHPVPHSDM8N0F9141EAH7F0K34Z","","867.6999999880791","img/land1.png","74","868.5","1","1","1","2","0.8,0.2,0.2,0.2,0.8,0.2,0.2,0.2,0.8","0.8,0.2,0.2,0.2,0.8,0.2,0.2,0.2,0.8","1","",""
"","html-keyboard-response","189","278964","0.0-189.0","39ASUFLU6YTI272G9YS4JVEQ72PXEY","A37OUZOGQKGMW0","382GHPVPHSDM8N0F9141EAH7F0K34Z","","null","<img src=""img/land1.png"" style=""width:200px; border:14px solid green;"">","null","","","","","","","","","",""
"","image-keyboard-response","190","279796","0.0-190.0","39ASUFLU6YTI272G9YS4JVEQ72PXEY","A37OUZOGQKGMW0","382GHPVPHSDM8N0F9141EAH7F0K34Z","","831.3000000119209","img/land5.png","75","832.1999999880791","2","0","2","2","0.8,0.2,0.2,0.2,0.8,0.2,0.2,0.2,0.8","0.8,0.2,0.2,0.2,0.8,0.2,0.2,0.2,0.8","1","",""
"","html-keyboard-response","191","280098","0.0-191.0","39ASUFLU6YTI272G9YS4JVEQ72PXEY","A37OUZOGQKGMW0","382GHPVPHSDM8N0F9141EAH7F0K34Z","","null","<img src=""img/land5.png"" style=""width:200px;border:14px solid red;"">","null","","","","","","","","","",""
"","image-keyboard-response","192","280823","0.0-192.0","39ASUFLU6YTI272G9YS4JVEQ72PXEY","A37OUZOGQKGMW0","382GHPVPHSDM8N0F9141EAH7F0K34Z","","724.2000000476837","img/land1.png","74","725.0999999642372","1","0","1","2","0.8,0.2,0.2,0.2,0.8,0.2,0.2,0.2,0.8","0.8,0.2,0.2,0.2,0.8,0.2,0.2,0.2,0.8","1","",""
"","html-keyboard-response","193","281124","0.0-193.0","39ASUFLU6YTI272G9YS4JVEQ72PXEY","A37OUZOGQKGMW0","382GHPVPHSDM8N0F9141EAH7F0K34Z","","null","<img src=""img/land1.png"" style=""width:200px;border:14px solid red;"">","null","","","","","","","","","",""
"","image-keyboard-response","194","282096","0.0-194.0","39ASUFLU6YTI272G9YS4JVEQ72PXEY","A37OUZOGQKGMW0","382GHPVPHSDM8N0F9141EAH7F0K34Z","","970.6000000238419","img/land1.png","74","971.3999999761581","1","0","1","2","0.8,0.2,0.2,0.2,0.8,0.2,0.2,0.2,0.8","0.8,0.2,0.2,0.2,0.8,0.2,0.2,0.2,0.8","1","",""
"","html-keyboard-response","195","282398","0.0-195.0","39ASUFLU6YTI272G9YS4JVEQ72PXEY","A37OUZOGQKGMW0","382GHPVPHSDM8N0F9141EAH7F0K34Z","","null","<img src=""img/land1.png"" style=""width:200px;border:14px solid red;"">","null","","","","","","","","","",""
"","image-keyboard-response","196","283356","0.0-196.0","39ASUFLU6YTI272G9YS4JVEQ72PXEY","A37OUZOGQKGMW0","382GHPVPHSDM8N0F9141EAH7F0K34Z","","957","img/land3.png","76","958.0999999642372","3","1","3","2","0.8,0.2,0.2,0.2,0.8,0.2,0.2,0.2,0.8","0.8,0.2,0.2,0.2,0.8,0.2,0.2,0.2,0.8","1","",""
"","html-keyboard-response","197","283658","0.0-197.0","39ASUFLU6YTI272G9YS4JVEQ72PXEY","A37OUZOGQKGMW0","382GHPVPHSDM8N0F9141EAH7F0K34Z","","null","<img src=""img/land3.png"" style=""width:200px; border:14px solid green;"">","null","","","","","","","","","",""
"","image-keyboard-response","198","284331","0.0-198.0","39ASUFLU6YTI272G9YS4JVEQ72PXEY","A37OUZOGQKGMW0","382GHPVPHSDM8N0F9141EAH7F0K34Z","","672.6999999880791","img/land1.png","74","673.5","1","1","1","2","0.8,0.2,0.2,0.2,0.8,0.2,0.2,0.2,0.8","0.8,0.2,0.2,0.2,0.8,0.2,0.2,0.2,0.8","1","",""
"","html-keyboard-response","199","284634","0.0-199.0","39ASUFLU6YTI272G9YS4JVEQ72PXEY","A37OUZOGQKGMW0","382GHPVPHSDM8N0F9141EAH7F0K34Z","","null","<img src=""img/land1.png"" style=""width:200px; border:14px solid green;"">","null","","","","","","","","","",""
"","image-keyboard-response","200","285290","0.0-200.0","39ASUFLU6YTI272G9YS4JVEQ72PXEY","A37OUZOGQKGMW0","382GHPVPHSDM8N0F9141EAH7F0K34Z","","655.6999999880791","img/land1.png","74","656.3999999761581","1","1","1","2","0.8,0.2,0.2,0.2,0.8,0.2,0.2,0.2,0.8","0.8,0.2,0.2,0.2,0.8,0.2,0.2,0.2,0.8","1","",""
"","html-keyboard-response","201","285592","0.0-201.0","39ASUFLU6YTI272G9YS4JVEQ72PXEY","A37OUZOGQKGMW0","382GHPVPHSDM8N0F9141EAH7F0K34Z","","null","<img src=""img/land1.png"" style=""width:200px; border:14px solid green;"">","null","","","","","","","","","",""
"","image-keyboard-response","202","286388","0.0-202.0","39ASUFLU6YTI272G9YS4JVEQ72PXEY","A37OUZOGQKGMW0","382GHPVPHSDM8N0F9141EAH7F0K34Z","","794.6999999880791","img/land1.png","74","795.5","1","1","1","2","0.8,0.2,0.2,0.2,0.8,0.2,0.2,0.2,0.8","0.8,0.2,0.2,0.2,0.8,0.2,0.2,0.2,0.8","1","",""
"","html-keyboard-response","203","286690","0.0-203.0","39ASUFLU6YTI272G9YS4JVEQ72PXEY","A37OUZOGQKGMW0","382GHPVPHSDM8N0F9141EAH7F0K34Z","","null","<img src=""img/land1.png"" style=""width:200px; border:14px solid green;"">","null","","","","","","","","","",""
"","image-keyboard-response","204","287247","0.0-204.0","39ASUFLU6YTI272G9YS4JVEQ72PXEY","A37OUZOGQKGMW0","382GHPVPHSDM8N0F9141EAH7F0K34Z","","555.8000000119209","img/land3.png","76","556.8000000119209","3","0","3","2","0.8,0.2,0.2,0.2,0.8,0.2,0.2,0.2,0.8","0.8,0.2,0.2,0.2,0.8,0.2,0.2,0.2,0.8","1","",""
"","html-keyboard-response","205","287550","0.0-205.0","39ASUFLU6YTI272G9YS4JVEQ72PXEY","A37OUZOGQKGMW0","382GHPVPHSDM8N0F9141EAH7F0K34Z","","null","<img src=""img/land3.png"" style=""width:200px;border:14px solid red;"">","null","","","","","","","","","",""
"","image-keyboard-response","206","288208","0.0-206.0","39ASUFLU6YTI272G9YS4JVEQ72PXEY","A37OUZOGQKGMW0","382GHPVPHSDM8N0F9141EAH7F0K34Z","","656","img/land1.png","74","657","1","1","1","2","0.8,0.2,0.2,0.2,0.8,0.2,0.2,0.2,0.8","0.8,0.2,0.2,0.2,0.8,0.2,0.2,0.2,0.8","1","",""
"","html-keyboard-response","207","288510","0.0-207.0","39ASUFLU6YTI272G9YS4JVEQ72PXEY","A37OUZOGQKGMW0","382GHPVPHSDM8N0F9141EAH7F0K34Z","","null","<img src=""img/land1.png"" style=""width:200px; border:14px solid green;"">","null","","","","","","","","","",""
"","image-keyboard-response","208","289219","0.0-208.0","39ASUFLU6YTI272G9YS4JVEQ72PXEY","A37OUZOGQKGMW0","382GHPVPHSDM8N0F9141EAH7F0K34Z","","709.1000000238419","img/land1.png","74","709.8999999761581","1","1","1","2","0.8,0.2,0.2,0.2,0.8,0.2,0.2,0.2,0.8","0.8,0.2,0.2,0.2,0.8,0.2,0.2,0.2,0.8","1","",""
"","html-keyboard-response","209","289521","0.0-209.0","39ASUFLU6YTI272G9YS4JVEQ72PXEY","A37OUZOGQKGMW0","382GHPVPHSDM8N0F9141EAH7F0K34Z","","null","<img src=""img/land1.png"" style=""width:200px; border:14px solid green;"">","null","","","","","","","","","",""
"","image-keyboard-response","210","290047","0.0-210.0","39ASUFLU6YTI272G9YS4JVEQ72PXEY","A37OUZOGQKGMW0","382GHPVPHSDM8N0F9141EAH7F0K34Z","","523.1999999880791","img/land1.png","74","524.3000000119209","1","1","1","2","0.8,0.2,0.2,0.2,0.8,0.2,0.2,0.2,0.8","0.8,0.2,0.2,0.2,0.8,0.2,0.2,0.2,0.8","1","",""
"","html-keyboard-response","211","290349","0.0-211.0","39ASUFLU6YTI272G9YS4JVEQ72PXEY","A37OUZOGQKGMW0","382GHPVPHSDM8N0F9141EAH7F0K34Z","","null","<img src=""img/land1.png"" style=""width:200px; border:14px solid green;"">","null","","","","","","","","","",""
"","image-keyboard-response","212","291056","0.0-212.0","39ASUFLU6YTI272G9YS4JVEQ72PXEY","A37OUZOGQKGMW0","382GHPVPHSDM8N0F9141EAH7F0K34Z","","706.5999999642372","img/land1.png","74","707.2000000476837","1","0","1","2","0.8,0.2,0.2,0.2,0.8,0.2,0.2,0.2,0.8","0.8,0.2,0.2,0.2,0.8,0.2,0.2,0.2,0.8","1","",""
"","html-keyboard-response","213","291358","0.0-213.0","39ASUFLU6YTI272G9YS4JVEQ72PXEY","A37OUZOGQKGMW0","382GHPVPHSDM8N0F9141EAH7F0K34Z","","null","<img src=""img/land1.png"" style=""width:200px;border:14px solid red;"">","null","","","","","","","","","",""
"","image-keyboard-response","214","292210","0.0-214.0","39ASUFLU6YTI272G9YS4JVEQ72PXEY","A37OUZOGQKGMW0","382GHPVPHSDM8N0F9141EAH7F0K34Z","","850.2999999523163","img/land5.png","75","851.0999999642372","2","1","2","2","0.8,0.2,0.2,0.2,0.8,0.2,0.2,0.2,0.8","0.8,0.2,0.2,0.2,0.8,0.2,0.2,0.2,0.8","1","",""
"","html-keyboard-response","215","292511","0.0-215.0","39ASUFLU6YTI272G9YS4JVEQ72PXEY","A37OUZOGQKGMW0","382GHPVPHSDM8N0F9141EAH7F0K34Z","","null","<img src=""img/land5.png"" style=""width:200px; border:14px solid green;"">","null","","","","","","","","","",""
"","image-keyboard-response","216","293249","0.0-216.0","39ASUFLU6YTI272G9YS4JVEQ72PXEY","A37OUZOGQKGMW0","382GHPVPHSDM8N0F9141EAH7F0K34Z","","736.8999999761581","img/land1.png","74","737.8999999761581","1","1","1","2","0.8,0.2,0.2,0.2,0.8,0.2,0.2,0.2,0.8","0.8,0.2,0.2,0.2,0.8,0.2,0.2,0.2,0.8","1","",""
"","html-keyboard-response","217","293550","0.0-217.0","39ASUFLU6YTI272G9YS4JVEQ72PXEY","A37OUZOGQKGMW0","382GHPVPHSDM8N0F9141EAH7F0K34Z","","null","<img src=""img/land1.png"" style=""width:200px; border:14px solid green;"">","null","","","","","","","","","",""
"","image-keyboard-response","218","294415","0.0-218.0","39ASUFLU6YTI272G9YS4JVEQ72PXEY","A37OUZOGQKGMW0","382GHPVPHSDM8N0F9141EAH7F0K34Z","","864.6000000238419","img/land3.png","76","865.3999999761581","3","1","3","2","0.8,0.2,0.2,0.2,0.8,0.2,0.2,0.2,0.8","0.8,0.2,0.2,0.2,0.8,0.2,0.2,0.2,0.8","1","",""
"","html-keyboard-response","219","294717","0.0-219.0","39ASUFLU6YTI272G9YS4JVEQ72PXEY","A37OUZOGQKGMW0","382GHPVPHSDM8N0F9141EAH7F0K34Z","","null","<img src=""img/land3.png"" style=""width:200px; border:14px solid green;"">","null","","","","","","","","","",""
"","image-keyboard-response","220","295489","0.0-220.0","39ASUFLU6YTI272G9YS4JVEQ72PXEY","A37OUZOGQKGMW0","382GHPVPHSDM8N0F9141EAH7F0K34Z","","770.6999999880791","img/land3.png","76","771.6000000238419","3","1","3","2","0.8,0.2,0.2,0.2,0.8,0.2,0.2,0.2,0.8","0.8,0.2,0.2,0.2,0.8,0.2,0.2,0.2,0.8","1","",""
"","html-keyboard-response","221","295794","0.0-221.0","39ASUFLU6YTI272G9YS4JVEQ72PXEY","A37OUZOGQKGMW0","382GHPVPHSDM8N0F9141EAH7F0K34Z","","null","<img src=""img/land3.png"" style=""width:200px; border:14px solid green;"">","null","","","","","","","","","",""
"","image-keyboard-response","222","296512","0.0-222.0","39ASUFLU6YTI272G9YS4JVEQ72PXEY","A37OUZOGQKGMW0","382GHPVPHSDM8N0F9141EAH7F0K34Z","","717.3000000119209","img/land3.png","76","718.1999999880791","3","1","3","2","0.8,0.2,0.2,0.2,0.8,0.2,0.2,0.2,0.8","0.8,0.2,0.2,0.2,0.8,0.2,0.2,0.2,0.8","1","",""
"","html-keyboard-response","223","296814","0.0-223.0","39ASUFLU6YTI272G9YS4JVEQ72PXEY","A37OUZOGQKGMW0","382GHPVPHSDM8N0F9141EAH7F0K34Z","","null","<img src=""img/land3.png"" style=""width:200px; border:14px solid green;"">","null","","","","","","","","","",""
"","image-keyboard-response","224","297880","0.0-224.0","39ASUFLU6YTI272G9YS4JVEQ72PXEY","A37OUZOGQKGMW0","382GHPVPHSDM8N0F9141EAH7F0K34Z","","1065.0999999642372","img/land5.png","75","1065.9000000357628","2","1","2","2","0.8,0.2,0.2,0.2,0.8,0.2,0.2,0.2,0.8","0.8,0.2,0.2,0.2,0.8,0.2,0.2,0.2,0.8","1","",""
"","html-keyboard-response","225","298182","0.0-225.0","39ASUFLU6YTI272G9YS4JVEQ72PXEY","A37OUZOGQKGMW0","382GHPVPHSDM8N0F9141EAH7F0K34Z","","null","<img src=""img/land5.png"" style=""width:200px; border:14px solid green;"">","null","","","","","","","","","",""
"","image-keyboard-response","226","298845","0.0-226.0","39ASUFLU6YTI272G9YS4JVEQ72PXEY","A37OUZOGQKGMW0","382GHPVPHSDM8N0F9141EAH7F0K34Z","","662.1000000238419","img/land5.png","75","663","2","0","2","2","0.8,0.2,0.2,0.2,0.8,0.2,0.2,0.2,0.8","0.8,0.2,0.2,0.2,0.8,0.2,0.2,0.2,0.8","1","",""
"","html-keyboard-response","227","299148","0.0-227.0","39ASUFLU6YTI272G9YS4JVEQ72PXEY","A37OUZOGQKGMW0","382GHPVPHSDM8N0F9141EAH7F0K34Z","","null","<img src=""img/land5.png"" style=""width:200px;border:14px solid red;"">","null","","","","","","","","","",""
"","image-keyboard-response","228","299907","0.0-228.0","39ASUFLU6YTI272G9YS4JVEQ72PXEY","A37OUZOGQKGMW0","382GHPVPHSDM8N0F9141EAH7F0K34Z","","758.8000000119209","img/land1.png","74","759.8000000119209","1","1","1","2","0.8,0.2,0.2,0.2,0.8,0.2,0.2,0.2,0.8","0.8,0.2,0.2,0.2,0.8,0.2,0.2,0.2,0.8","1","",""
"","html-keyboard-response","229","300216","0.0-229.0","39ASUFLU6YTI272G9YS4JVEQ72PXEY","A37OUZOGQKGMW0","382GHPVPHSDM8N0F9141EAH7F0K34Z","","null","<img src=""img/land1.png"" style=""width:200px; border:14px solid green;"">","null","","","","","","","","","",""
"","image-keyboard-response","230","300849","0.0-230.0","39ASUFLU6YTI272G9YS4JVEQ72PXEY","A37OUZOGQKGMW0","382GHPVPHSDM8N0F9141EAH7F0K34Z","","631.3999999761581","img/land1.png","74","632.2000000476837","1","0","1","2","0.8,0.2,0.2,0.2,0.8,0.2,0.2,0.2,0.8","0.8,0.2,0.2,0.2,0.8,0.2,0.2,0.2,0.8","1","",""
"","html-keyboard-response","231","301150","0.0-231.0","39ASUFLU6YTI272G9YS4JVEQ72PXEY","A37OUZOGQKGMW0","382GHPVPHSDM8N0F9141EAH7F0K34Z","","null","<img src=""img/land1.png"" style=""width:200px;border:14px solid red;"">","null","","","","","","","","","",""
"","image-keyboard-response","232","302448","0.0-232.0","39ASUFLU6YTI272G9YS4JVEQ72PXEY","A37OUZOGQKGMW0","382GHPVPHSDM8N0F9141EAH7F0K34Z","","1296.2999999523163","img/land5.png","75","1297.4000000357628","2","1","2","2","0.8,0.2,0.2,0.2,0.8,0.2,0.2,0.2,0.8","0.8,0.2,0.2,0.2,0.8,0.2,0.2,0.2,0.8","1","",""
"","html-keyboard-response","233","302750","0.0-233.0","39ASUFLU6YTI272G9YS4JVEQ72PXEY","A37OUZOGQKGMW0","382GHPVPHSDM8N0F9141EAH7F0K34Z","","null","<img src=""img/land5.png"" style=""width:200px; border:14px solid green;"">","null","","","","","","","","","",""
"","image-keyboard-response","234","303584","0.0-234.0","39ASUFLU6YTI272G9YS4JVEQ72PXEY","A37OUZOGQKGMW0","382GHPVPHSDM8N0F9141EAH7F0K34Z","","832.5","img/land1.png","74","833.6999999880791","1","0","1","2","0.8,0.2,0.2,0.2,0.8,0.2,0.2,0.2,0.8","0.8,0.2,0.2,0.2,0.8,0.2,0.2,0.2,0.8","1","",""
"","html-keyboard-response","235","303886","0.0-235.0","39ASUFLU6YTI272G9YS4JVEQ72PXEY","A37OUZOGQKGMW0","382GHPVPHSDM8N0F9141EAH7F0K34Z","","null","<img src=""img/land1.png"" style=""width:200px;border:14px solid red;"">","null","","","","","","","","","",""
"","image-keyboard-response","236","304909","0.0-236.0","39ASUFLU6YTI272G9YS4JVEQ72PXEY","A37OUZOGQKGMW0","382GHPVPHSDM8N0F9141EAH7F0K34Z","","1021.5999999642372","img/land3.png","76","1022.5","3","1","3","2","0.8,0.2,0.2,0.2,0.8,0.2,0.2,0.2,0.8","0.8,0.2,0.2,0.2,0.8,0.2,0.2,0.2,0.8","1","",""
"","html-keyboard-response","237","305210","0.0-237.0","39ASUFLU6YTI272G9YS4JVEQ72PXEY","A37OUZOGQKGMW0","382GHPVPHSDM8N0F9141EAH7F0K34Z","","null","<img src=""img/land3.png"" style=""width:200px; border:14px solid green;"">","null","","","","","","","","","",""
"","image-keyboard-response","238","305981","0.0-238.0","39ASUFLU6YTI272G9YS4JVEQ72PXEY","A37OUZOGQKGMW0","382GHPVPHSDM8N0F9141EAH7F0K34Z","","769.3000000119209","img/land1.png","74","770.3000000119209","1","1","1","2","0.8,0.2,0.2,0.2,0.8,0.2,0.2,0.2,0.8","0.8,0.2,0.2,0.2,0.8,0.2,0.2,0.2,0.8","1","",""
"","html-keyboard-response","239","306284","0.0-239.0","39ASUFLU6YTI272G9YS4JVEQ72PXEY","A37OUZOGQKGMW0","382GHPVPHSDM8N0F9141EAH7F0K34Z","","null","<img src=""img/land1.png"" style=""width:200px; border:14px solid green;"">","null","","","","","","","","","",""
"","image-keyboard-response","240","307122","0.0-240.0","39ASUFLU6YTI272G9YS4JVEQ72PXEY","A37OUZOGQKGMW0","382GHPVPHSDM8N0F9141EAH7F0K34Z","","836.5","img/land1.png","74","837.5","1","1","1","2","0.8,0.2,0.2,0.2,0.8,0.2,0.2,0.2,0.8","0.8,0.2,0.2,0.2,0.8,0.2,0.2,0.2,0.8","1","",""
"","html-keyboard-response","241","307423","0.0-241.0","39ASUFLU6YTI272G9YS4JVEQ72PXEY","A37OUZOGQKGMW0","382GHPVPHSDM8N0F9141EAH7F0K34Z","","null","<img src=""img/land1.png"" style=""width:200px; border:14px solid green;"">","null","","","","","","","","","",""
"","image-keyboard-response","242","308150","0.0-242.0","39ASUFLU6YTI272G9YS4JVEQ72PXEY","A37OUZOGQKGMW0","382GHPVPHSDM8N0F9141EAH7F0K34Z","","725.5","img/land1.png","74","726.5","1","0","1","2","0.8,0.2,0.2,0.2,0.8,0.2,0.2,0.2,0.8","0.8,0.2,0.2,0.2,0.8,0.2,0.2,0.2,0.8","1","",""
"","html-keyboard-response","243","308452","0.0-243.0","39ASUFLU6YTI272G9YS4JVEQ72PXEY","A37OUZOGQKGMW0","382GHPVPHSDM8N0F9141EAH7F0K34Z","","null","<img src=""img/land1.png"" style=""width:200px;border:14px solid red;"">","null","","","","","","","","","",""
"","image-keyboard-response","244","309145","0.0-244.0","39ASUFLU6YTI272G9YS4JVEQ72PXEY","A37OUZOGQKGMW0","382GHPVPHSDM8N0F9141EAH7F0K34Z","","692.3000000119209","img/land3.png","76","693.3000000119209","3","1","3","2","0.8,0.2,0.2,0.2,0.8,0.2,0.2,0.2,0.8","0.8,0.2,0.2,0.2,0.8,0.2,0.2,0.2,0.8","1","",""
"","html-keyboard-response","245","309447","0.0-245.0","39ASUFLU6YTI272G9YS4JVEQ72PXEY","A37OUZOGQKGMW0","382GHPVPHSDM8N0F9141EAH7F0K34Z","","null","<img src=""img/land3.png"" style=""width:200px; border:14px solid green;"">","null","","","","","","","","","",""
"","image-keyboard-response","246","310234","0.0-246.0","39ASUFLU6YTI272G9YS4JVEQ72PXEY","A37OUZOGQKGMW0","382GHPVPHSDM8N0F9141EAH7F0K34Z","","785.3999999761581","img/land1.png","74","786.3000000119209","1","1","1","2","0.8,0.2,0.2,0.2,0.8,0.2,0.2,0.2,0.8","0.8,0.2,0.2,0.2,0.8,0.2,0.2,0.2,0.8","1","",""
"","html-keyboard-response","247","310537","0.0-247.0","39ASUFLU6YTI272G9YS4JVEQ72PXEY","A37OUZOGQKGMW0","382GHPVPHSDM8N0F9141EAH7F0K34Z","","null","<img src=""img/land1.png"" style=""width:200px; border:14px solid green;"">","null","","","","","","","","","",""
"","image-keyboard-response","248","311246","0.0-248.0","39ASUFLU6YTI272G9YS4JVEQ72PXEY","A37OUZOGQKGMW0","382GHPVPHSDM8N0F9141EAH7F0K34Z","","708.4000000357628","img/land1.png","74","709","1","0","1","2","0.8,0.2,0.2,0.2,0.8,0.2,0.2,0.2,0.8","0.8,0.2,0.2,0.2,0.8,0.2,0.2,0.2,0.8","1","",""
"","html-keyboard-response","249","311549","0.0-249.0","39ASUFLU6YTI272G9YS4JVEQ72PXEY","A37OUZOGQKGMW0","382GHPVPHSDM8N0F9141EAH7F0K34Z","","null","<img src=""img/land1.png"" style=""width:200px;border:14px solid red;"">","null","","","","","","","","","",""
"","image-keyboard-response","250","312269","0.0-250.0","39ASUFLU6YTI272G9YS4JVEQ72PXEY","A37OUZOGQKGMW0","382GHPVPHSDM8N0F9141EAH7F0K34Z","","720","img/land3.png","76","720.8000000119209","3","1","3","2","0.8,0.2,0.2,0.2,0.8,0.2,0.2,0.2,0.8","0.8,0.2,0.2,0.2,0.8,0.2,0.2,0.2,0.8","1","",""
"","html-keyboard-response","251","312572","0.0-251.0","39ASUFLU6YTI272G9YS4JVEQ72PXEY","A37OUZOGQKGMW0","382GHPVPHSDM8N0F9141EAH7F0K34Z","","null","<img src=""img/land3.png"" style=""width:200px; border:14px solid green;"">","null","","","","","","","","","",""
"","image-keyboard-response","252","313296","0.0-252.0","39ASUFLU6YTI272G9YS4JVEQ72PXEY","A37OUZOGQKGMW0","382GHPVPHSDM8N0F9141EAH7F0K34Z","","723.5","img/land1.png","74","724.3000000119209","1","1","1","2","0.8,0.2,0.2,0.2,0.8,0.2,0.2,0.2,0.8","0.8,0.2,0.2,0.2,0.8,0.2,0.2,0.2,0.8","1","",""
"","html-keyboard-response","253","313598","0.0-253.0","39ASUFLU6YTI272G9YS4JVEQ72PXEY","A37OUZOGQKGMW0","382GHPVPHSDM8N0F9141EAH7F0K34Z","","null","<img src=""img/land1.png"" style=""width:200px; border:14px solid green;"">","null","","","","","","","","","",""
"","image-keyboard-response","254","314597","0.0-254.0","39ASUFLU6YTI272G9YS4JVEQ72PXEY","A37OUZOGQKGMW0","382GHPVPHSDM8N0F9141EAH7F0K34Z","","997.3000000119209","img/land5.png","75","998.1999999880791","2","1","2","2","0.8,0.2,0.2,0.2,0.8,0.2,0.2,0.2,0.8","0.8,0.2,0.2,0.2,0.8,0.2,0.2,0.2,0.8","1","",""
"","html-keyboard-response","255","314899","0.0-255.0","39ASUFLU6YTI272G9YS4JVEQ72PXEY","A37OUZOGQKGMW0","382GHPVPHSDM8N0F9141EAH7F0K34Z","","null","<img src=""img/land5.png"" style=""width:200px; border:14px solid green;"">","null","","","","","","","","","",""
"","image-keyboard-response","256","315534","0.0-256.0","39ASUFLU6YTI272G9YS4JVEQ72PXEY","A37OUZOGQKGMW0","382GHPVPHSDM8N0F9141EAH7F0K34Z","","633.6000000238419","img/land1.png","74","634.6999999880791","1","1","1","2","0.8,0.2,0.2,0.2,0.8,0.2,0.2,0.2,0.8","0.8,0.2,0.2,0.2,0.8,0.2,0.2,0.2,0.8","1","",""
"","html-keyboard-response","257","315836","0.0-257.0","39ASUFLU6YTI272G9YS4JVEQ72PXEY","A37OUZOGQKGMW0","382GHPVPHSDM8N0F9141EAH7F0K34Z","","null","<img src=""img/land1.png"" style=""width:200px; border:14px solid green;"">","null","","","","","","","","","",""
"","image-keyboard-response","258","316480","0.0-258.0","39ASUFLU6YTI272G9YS4JVEQ72PXEY","A37OUZOGQKGMW0","382GHPVPHSDM8N0F9141EAH7F0K34Z","","643.3000000119209","img/land1.png","74","644.1999999880791","1","1","1","2","0.8,0.2,0.2,0.2,0.8,0.2,0.2,0.2,0.8","0.8,0.2,0.2,0.2,0.8,0.2,0.2,0.2,0.8","1","",""
"","html-keyboard-response","259","316783","0.0-259.0","39ASUFLU6YTI272G9YS4JVEQ72PXEY","A37OUZOGQKGMW0","382GHPVPHSDM8N0F9141EAH7F0K34Z","","null","<img src=""img/land1.png"" style=""width:200px; border:14px solid green;"">","null","","","","","","","","","",""
"","image-keyboard-response","260","317619","0.0-260.0","39ASUFLU6YTI272G9YS4JVEQ72PXEY","A37OUZOGQKGMW0","382GHPVPHSDM8N0F9141EAH7F0K34Z","","835","img/land3.png","76","836","3","1","3","2","0.8,0.2,0.2,0.2,0.8,0.2,0.2,0.2,0.8","0.8,0.2,0.2,0.2,0.8,0.2,0.2,0.2,0.8","1","",""
"","html-keyboard-response","261","317921","0.0-261.0","39ASUFLU6YTI272G9YS4JVEQ72PXEY","A37OUZOGQKGMW0","382GHPVPHSDM8N0F9141EAH7F0K34Z","","null","<img src=""img/land3.png"" style=""width:200px; border:14px solid green;"">","null","","","","","","","","","",""
"","image-keyboard-response","262","318672","0.0-262.0","39ASUFLU6YTI272G9YS4JVEQ72PXEY","A37OUZOGQKGMW0","382GHPVPHSDM8N0F9141EAH7F0K34Z","","749.8999999761581","img/land1.png","74","750.6999999880791","1","1","1","2","0.8,0.2,0.2,0.2,0.8,0.2,0.2,0.2,0.8","0.8,0.2,0.2,0.2,0.8,0.2,0.2,0.2,0.8","1","",""
"","html-keyboard-response","263","318975","0.0-263.0","39ASUFLU6YTI272G9YS4JVEQ72PXEY","A37OUZOGQKGMW0","382GHPVPHSDM8N0F9141EAH7F0K34Z","","null","<img src=""img/land1.png"" style=""width:200px; border:14px solid green;"">","null","","","","","","","","","",""
"","image-keyboard-response","264","319566","0.0-264.0","39ASUFLU6YTI272G9YS4JVEQ72PXEY","A37OUZOGQKGMW0","382GHPVPHSDM8N0F9141EAH7F0K34Z","","589.6999999880791","img/land1.png","74","590.6000000238419","1","1","1","2","0.8,0.2,0.2,0.2,0.8,0.2,0.2,0.2,0.8","0.8,0.2,0.2,0.2,0.8,0.2,0.2,0.2,0.8","1","",""
"","html-keyboard-response","265","319872","0.0-265.0","39ASUFLU6YTI272G9YS4JVEQ72PXEY","A37OUZOGQKGMW0","382GHPVPHSDM8N0F9141EAH7F0K34Z","","null","<img src=""img/land1.png"" style=""width:200px; border:14px solid green;"">","null","","","","","","","","","",""
"","image-keyboard-response","266","320602","0.0-266.0","39ASUFLU6YTI272G9YS4JVEQ72PXEY","A37OUZOGQKGMW0","382GHPVPHSDM8N0F9141EAH7F0K34Z","","728.5999999642372","img/land1.png","74","729.6000000238419","1","0","1","2","0.8,0.2,0.2,0.2,0.8,0.2,0.2,0.2,0.8","0.8,0.2,0.2,0.2,0.8,0.2,0.2,0.2,0.8","1","",""
"","html-keyboard-response","267","320903","0.0-267.0","39ASUFLU6YTI272G9YS4JVEQ72PXEY","A37OUZOGQKGMW0","382GHPVPHSDM8N0F9141EAH7F0K34Z","","null","<img src=""img/land1.png"" style=""width:200px;border:14px solid red;"">","null","","","","","","","","","",""
"","image-keyboard-response","268","321676","0.0-268.0","39ASUFLU6YTI272G9YS4JVEQ72PXEY","A37OUZOGQKGMW0","382GHPVPHSDM8N0F9141EAH7F0K34Z","","771.8999999761581","img/land3.png","76","772.6999999880791","3","1","3","2","0.8,0.2,0.2,0.2,0.8,0.2,0.2,0.2,0.8","0.8,0.2,0.2,0.2,0.8,0.2,0.2,0.2,0.8","1","",""
"","html-keyboard-response","269","321978","0.0-269.0","39ASUFLU6YTI272G9YS4JVEQ72PXEY","A37OUZOGQKGMW0","382GHPVPHSDM8N0F9141EAH7F0K34Z","","null","<img src=""img/land3.png"" style=""width:200px; border:14px solid green;"">","null","","","","","","","","","",""
"","image-keyboard-response","270","322914","0.0-270.0","39ASUFLU6YTI272G9YS4JVEQ72PXEY","A37OUZOGQKGMW0","382GHPVPHSDM8N0F9141EAH7F0K34Z","","935.6999999880791","img/land5.png","75","936.5","2","0","2","2","0.8,0.2,0.2,0.2,0.8,0.2,0.2,0.2,0.8","0.8,0.2,0.2,0.2,0.8,0.2,0.2,0.2,0.8","1","",""
"","html-keyboard-response","271","323216","0.0-271.0","39ASUFLU6YTI272G9YS4JVEQ72PXEY","A37OUZOGQKGMW0","382GHPVPHSDM8N0F9141EAH7F0K34Z","","null","<img src=""img/land5.png"" style=""width:200px;border:14px solid red;"">","null","","","","","","","","","",""
"","image-keyboard-response","272","323908","0.0-272.0","39ASUFLU6YTI272G9YS4JVEQ72PXEY","A37OUZOGQKGMW0","382GHPVPHSDM8N0F9141EAH7F0K34Z","","690.2999999523163","img/land1.png","74","691.0999999642372","1","1","1","2","0.8,0.2,0.2,0.2,0.8,0.2,0.2,0.2,0.8","0.8,0.2,0.2,0.2,0.8,0.2,0.2,0.2,0.8","1","",""
"","html-keyboard-response","273","324209","0.0-273.0","39ASUFLU6YTI272G9YS4JVEQ72PXEY","A37OUZOGQKGMW0","382GHPVPHSDM8N0F9141EAH7F0K34Z","","null","<img src=""img/land1.png"" style=""width:200px; border:14px solid green;"">","null","","","","","","","","","",""
"","image-keyboard-response","274","324862","0.0-274.0","39ASUFLU6YTI272G9YS4JVEQ72PXEY","A37OUZOGQKGMW0","382GHPVPHSDM8N0F9141EAH7F0K34Z","","651.4000000357628","img/land1.png","74","652.1999999880791","1","1","1","2","0.8,0.2,0.2,0.2,0.8,0.2,0.2,0.2,0.8","0.8,0.2,0.2,0.2,0.8,0.2,0.2,0.2,0.8","1","",""
"","html-keyboard-response","275","325167","0.0-275.0","39ASUFLU6YTI272G9YS4JVEQ72PXEY","A37OUZOGQKGMW0","382GHPVPHSDM8N0F9141EAH7F0K34Z","","null","<img src=""img/land1.png"" style=""width:200px; border:14px solid green;"">","null","","","","","","","","","",""
"","image-keyboard-response","276","326038","0.0-276.0","39ASUFLU6YTI272G9YS4JVEQ72PXEY","A37OUZOGQKGMW0","382GHPVPHSDM8N0F9141EAH7F0K34Z","","869.8999999761581","img/land1.png","74","871","1","1","1","2","0.8,0.2,0.2,0.2,0.8,0.2,0.2,0.2,0.8","0.8,0.2,0.2,0.2,0.8,0.2,0.2,0.2,0.8","1","",""
"","html-keyboard-response","277","326340","0.0-277.0","39ASUFLU6YTI272G9YS4JVEQ72PXEY","A37OUZOGQKGMW0","382GHPVPHSDM8N0F9141EAH7F0K34Z","","null","<img src=""img/land1.png"" style=""width:200px; border:14px solid green;"">","null","","","","","","","","","",""
"","image-keyboard-response","278","326978","0.0-278.0","39ASUFLU6YTI272G9YS4JVEQ72PXEY","A37OUZOGQKGMW0","382GHPVPHSDM8N0F9141EAH7F0K34Z","","637.0999999642372","img/land1.png","74","638.1000000238419","1","1","1","2","0.8,0.2,0.2,0.2,0.8,0.2,0.2,0.2,0.8","0.8,0.2,0.2,0.2,0.8,0.2,0.2,0.2,0.8","1","",""
"","html-keyboard-response","279","327280","0.0-279.0","39ASUFLU6YTI272G9YS4JVEQ72PXEY","A37OUZOGQKGMW0","382GHPVPHSDM8N0F9141EAH7F0K34Z","","null","<img src=""img/land1.png"" style=""width:200px; border:14px solid green;"">","null","","","","","","","","","",""
"","image-keyboard-response","280","328149","0.0-280.0","39ASUFLU6YTI272G9YS4JVEQ72PXEY","A37OUZOGQKGMW0","382GHPVPHSDM8N0F9141EAH7F0K34Z","","867.8000000119209","img/land5.png","75","868.8999999761581","2","1","2","2","0.8,0.2,0.2,0.2,0.8,0.2,0.2,0.2,0.8","0.8,0.2,0.2,0.2,0.8,0.2,0.2,0.2,0.8","1","",""
"","html-keyboard-response","281","328452","0.0-281.0","39ASUFLU6YTI272G9YS4JVEQ72PXEY","A37OUZOGQKGMW0","382GHPVPHSDM8N0F9141EAH7F0K34Z","","null","<img src=""img/land5.png"" style=""width:200px; border:14px solid green;"">","null","","","","","","","","","",""
"","image-keyboard-response","282","329217","0.0-282.0","39ASUFLU6YTI272G9YS4JVEQ72PXEY","A37OUZOGQKGMW0","382GHPVPHSDM8N0F9141EAH7F0K34Z","","763.2999999523163","img/land1.png","74","764.1999999880791","1","1","1","2","0.8,0.2,0.2,0.2,0.8,0.2,0.2,0.2,0.8","0.8,0.2,0.2,0.2,0.8,0.2,0.2,0.2,0.8","1","",""
"","html-keyboard-response","283","329519","0.0-283.0","39ASUFLU6YTI272G9YS4JVEQ72PXEY","A37OUZOGQKGMW0","382GHPVPHSDM8N0F9141EAH7F0K34Z","","null","<img src=""img/land1.png"" style=""width:200px; border:14px solid green;"">","null","","","","","","","","","",""
"","image-keyboard-response","284","330294","0.0-284.0","39ASUFLU6YTI272G9YS4JVEQ72PXEY","A37OUZOGQKGMW0","382GHPVPHSDM8N0F9141EAH7F0K34Z","","773.8000000119209","img/land5.png","75","774.6999999880791","2","1","2","2","0.8,0.2,0.2,0.2,0.8,0.2,0.2,0.2,0.8","0.8,0.2,0.2,0.2,0.8,0.2,0.2,0.2,0.8","1","",""
"","html-keyboard-response","285","330596","0.0-285.0","39ASUFLU6YTI272G9YS4JVEQ72PXEY","A37OUZOGQKGMW0","382GHPVPHSDM8N0F9141EAH7F0K34Z","","null","<img src=""img/land5.png"" style=""width:200px; border:14px solid green;"">","null","","","","","","","","","",""
"","image-keyboard-response","286","331262","0.0-286.0","39ASUFLU6YTI272G9YS4JVEQ72PXEY","A37OUZOGQKGMW0","382GHPVPHSDM8N0F9141EAH7F0K34Z","","665.0999999642372","img/land1.png","74","665.8999999761581","1","1","1","2","0.8,0.2,0.2,0.2,0.8,0.2,0.2,0.2,0.8","0.8,0.2,0.2,0.2,0.8,0.2,0.2,0.2,0.8","1","",""
"","html-keyboard-response","287","331564","0.0-287.0","39ASUFLU6YTI272G9YS4JVEQ72PXEY","A37OUZOGQKGMW0","382GHPVPHSDM8N0F9141EAH7F0K34Z","","null","<img src=""img/land1.png"" style=""width:200px; border:14px solid green;"">","null","","","","","","","","","",""
"","image-keyboard-response","288","332189","0.0-288.0","39ASUFLU6YTI272G9YS4JVEQ72PXEY","A37OUZOGQKGMW0","382GHPVPHSDM8N0F9141EAH7F0K34Z","","624.0999999642372","img/land1.png","74","625.1999999880791","1","1","1","2","0.8,0.2,0.2,0.2,0.8,0.2,0.2,0.2,0.8","0.8,0.2,0.2,0.2,0.8,0.2,0.2,0.2,0.8","1","",""
"","html-keyboard-response","289","332491","0.0-289.0","39ASUFLU6YTI272G9YS4JVEQ72PXEY","A37OUZOGQKGMW0","382GHPVPHSDM8N0F9141EAH7F0K34Z","","null","<img src=""img/land1.png"" style=""width:200px; border:14px solid green;"">","null","","","","","","","","","",""
"","image-keyboard-response","290","333338","0.0-290.0","39ASUFLU6YTI272G9YS4JVEQ72PXEY","A37OUZOGQKGMW0","382GHPVPHSDM8N0F9141EAH7F0K34Z","","846","img/land3.png","76","846.8000000119209","3","1","3","2","0.8,0.2,0.2,0.2,0.8,0.2,0.2,0.2,0.8","0.8,0.2,0.2,0.2,0.8,0.2,0.2,0.2,0.8","1","",""
"","html-keyboard-response","291","333639","0.0-291.0","39ASUFLU6YTI272G9YS4JVEQ72PXEY","A37OUZOGQKGMW0","382GHPVPHSDM8N0F9141EAH7F0K34Z","","null","<img src=""img/land3.png"" style=""width:200px; border:14px solid green;"">","null","","","","","","","","","",""
"","image-keyboard-response","292","334073","0.0-292.0","39ASUFLU6YTI272G9YS4JVEQ72PXEY","A37OUZOGQKGMW0","382GHPVPHSDM8N0F9141EAH7F0K34Z","","433.60000002384186","img/land5.png","76","434.2999999523163","3","1","2","2","0.8,0.2,0.2,0.2,0.8,0.2,0.2,0.2,0.8","0.8,0.2,0.2,0.2,0.8,0.2,0.2,0.2,0.8","1","",""
"","html-keyboard-response","293","334375","0.0-293.0","39ASUFLU6YTI272G9YS4JVEQ72PXEY","A37OUZOGQKGMW0","382GHPVPHSDM8N0F9141EAH7F0K34Z","","null","<img src=""img/land5.png"" style=""width:200px; border:14px solid green;"">","null","","","","","","","","","",""
"","image-keyboard-response","294","335202","0.0-294.0","39ASUFLU6YTI272G9YS4JVEQ72PXEY","A37OUZOGQKGMW0","382GHPVPHSDM8N0F9141EAH7F0K34Z","","825.6999999880791","img/land1.png","74","826.6000000238419","1","0","1","2","0.8,0.2,0.2,0.2,0.8,0.2,0.2,0.2,0.8","0.8,0.2,0.2,0.2,0.8,0.2,0.2,0.2,0.8","1","",""
"","html-keyboard-response","295","335503","0.0-295.0","39ASUFLU6YTI272G9YS4JVEQ72PXEY","A37OUZOGQKGMW0","382GHPVPHSDM8N0F9141EAH7F0K34Z","","null","<img src=""img/land1.png"" style=""width:200px;border:14px solid red;"">","null","","","","","","","","","",""
"","image-keyboard-response","296","336282","0.0-296.0","39ASUFLU6YTI272G9YS4JVEQ72PXEY","A37OUZOGQKGMW0","382GHPVPHSDM8N0F9141EAH7F0K34Z","","777.6000000238419","img/land5.png","75","778.5","2","0","2","2","0.8,0.2,0.2,0.2,0.8,0.2,0.2,0.2,0.8","0.8,0.2,0.2,0.2,0.8,0.2,0.2,0.2,0.8","1","",""
"","html-keyboard-response","297","336584","0.0-297.0","39ASUFLU6YTI272G9YS4JVEQ72PXEY","A37OUZOGQKGMW0","382GHPVPHSDM8N0F9141EAH7F0K34Z","","null","<img src=""img/land5.png"" style=""width:200px;border:14px solid red;"">","null","","","","","","","","","",""
"","image-keyboard-response","298","337266","0.0-298.0","39ASUFLU6YTI272G9YS4JVEQ72PXEY","A37OUZOGQKGMW0","382GHPVPHSDM8N0F9141EAH7F0K34Z","","680.8000000119209","img/land1.png","75","681.6999999880791","2","0","1","2","0.8,0.2,0.2,0.2,0.8,0.2,0.2,0.2,0.8","0.8,0.2,0.2,0.2,0.8,0.2,0.2,0.2,0.8","1","",""
"","html-keyboard-response","299","337568","0.0-299.0","39ASUFLU6YTI272G9YS4JVEQ72PXEY","A37OUZOGQKGMW0","382GHPVPHSDM8N0F9141EAH7F0K34Z","","null","<img src=""img/land1.png"" style=""width:200px;border:14px solid red;"">","null","","","","","","","","","",""
"","image-keyboard-response","300","338655","0.0-300.0","39ASUFLU6YTI272G9YS4JVEQ72PXEY","A37OUZOGQKGMW0","382GHPVPHSDM8N0F9141EAH7F0K34Z","","1085.8999999761581","img/land5.png","75","1086.8999999761581","2","1","2","2","0.8,0.2,0.2,0.2,0.8,0.2,0.2,0.2,0.8","0.8,0.2,0.2,0.2,0.8,0.2,0.2,0.2,0.8","1","",""
"","html-keyboard-response","301","338956","0.0-301.0","39ASUFLU6YTI272G9YS4JVEQ72PXEY","A37OUZOGQKGMW0","382GHPVPHSDM8N0F9141EAH7F0K34Z","","null","<img src=""img/land5.png"" style=""width:200px; border:14px solid green;"">","null","","","","","","","","","",""
"","image-keyboard-response","302","340958","0.0-302.0","39ASUFLU6YTI272G9YS4JVEQ72PXEY","A37OUZOGQKGMW0","382GHPVPHSDM8N0F9141EAH7F0K34Z","","","img/land6.png","","2002.2000000476837","-1","0","1","1","0.8,0.2,0.2,0.2,0.8,0.2,0.2,0.2,0.8","0.8,0.2,0.2,0.2,0.8,0.2,0.2,0.2,0.8","1","",""
"","html-keyboard-response","303","341260","0.0-303.0","39ASUFLU6YTI272G9YS4JVEQ72PXEY","A37OUZOGQKGMW0","382GHPVPHSDM8N0F9141EAH7F0K34Z","","null","<img src=""img/land6.png"" style=""width:200px;border:14px solid red;"">","null","","","","","","","","","",""
"","image-keyboard-response","304","341560","0.0-304.0","39ASUFLU6YTI272G9YS4JVEQ72PXEY","A37OUZOGQKGMW0","382GHPVPHSDM8N0F9141EAH7F0K34Z","","299.19999998807907","img/land4.png","75","300","2","0","3","1","0.8,0.2,0.2,0.2,0.8,0.2,0.2,0.2,0.8","0.8,0.2,0.2,0.2,0.8,0.2,0.2,0.2,0.8","1","",""
"","html-keyboard-response","305","341862","0.0-305.0","39ASUFLU6YTI272G9YS4JVEQ72PXEY","A37OUZOGQKGMW0","382GHPVPHSDM8N0F9141EAH7F0K34Z","","null","<img src=""img/land4.png"" style=""width:200px;border:14px solid red;"">","null","","","","","","","","","",""
"","image-keyboard-response","306","342575","0.0-306.0","39ASUFLU6YTI272G9YS4JVEQ72PXEY","A37OUZOGQKGMW0","382GHPVPHSDM8N0F9141EAH7F0K34Z","","712","img/land6.png","74","712.8999999761581","1","1","1","1","0.8,0.2,0.2,0.2,0.8,0.2,0.2,0.2,0.8","0.8,0.2,0.2,0.2,0.8,0.2,0.2,0.2,0.8","1","",""
"","html-keyboard-response","307","342876","0.0-307.0","39ASUFLU6YTI272G9YS4JVEQ72PXEY","A37OUZOGQKGMW0","382GHPVPHSDM8N0F9141EAH7F0K34Z","","null","<img src=""img/land6.png"" style=""width:200px; border:14px solid green;"">","null","","","","","","","","","",""
"","image-keyboard-response","308","343680","0.0-308.0","39ASUFLU6YTI272G9YS4JVEQ72PXEY","A37OUZOGQKGMW0","382GHPVPHSDM8N0F9141EAH7F0K34Z","","803.1999999880791","img/land6.png","74","804.0999999642372","1","1","1","1","0.8,0.2,0.2,0.2,0.8,0.2,0.2,0.2,0.8","0.8,0.2,0.2,0.2,0.8,0.2,0.2,0.2,0.8","1","",""
"","html-keyboard-response","309","343982","0.0-309.0","39ASUFLU6YTI272G9YS4JVEQ72PXEY","A37OUZOGQKGMW0","382GHPVPHSDM8N0F9141EAH7F0K34Z","","null","<img src=""img/land6.png"" style=""width:200px; border:14px solid green;"">","null","","","","","","","","","",""
"","image-keyboard-response","310","344810","0.0-310.0","39ASUFLU6YTI272G9YS4JVEQ72PXEY","A37OUZOGQKGMW0","382GHPVPHSDM8N0F9141EAH7F0K34Z","","826.6000000238419","img/land4.png","76","827.8000000119209","3","0","3","1","0.8,0.2,0.2,0.2,0.8,0.2,0.2,0.2,0.8","0.8,0.2,0.2,0.2,0.8,0.2,0.2,0.2,0.8","1","",""
"","html-keyboard-response","311","345112","0.0-311.0","39ASUFLU6YTI272G9YS4JVEQ72PXEY","A37OUZOGQKGMW0","382GHPVPHSDM8N0F9141EAH7F0K34Z","","null","<img src=""img/land4.png"" style=""width:200px;border:14px solid red;"">","null","","","","","","","","","",""
"","image-keyboard-response","312","345751","0.0-312.0","39ASUFLU6YTI272G9YS4JVEQ72PXEY","A37OUZOGQKGMW0","382GHPVPHSDM8N0F9141EAH7F0K34Z","","637.3999999761581","img/land6.png","76","638.3999999761581","3","0","1","1","0.8,0.2,0.2,0.2,0.8,0.2,0.2,0.2,0.8","0.8,0.2,0.2,0.2,0.8,0.2,0.2,0.2,0.8","1","",""
"","html-keyboard-response","313","346052","0.0-313.0","39ASUFLU6YTI272G9YS4JVEQ72PXEY","A37OUZOGQKGMW0","382GHPVPHSDM8N0F9141EAH7F0K34Z","","null","<img src=""img/land6.png"" style=""width:200px;border:14px solid red;"">","null","","","","","","","","","",""
"","image-keyboard-response","314","346703","0.0-314.0","39ASUFLU6YTI272G9YS4JVEQ72PXEY","A37OUZOGQKGMW0","382GHPVPHSDM8N0F9141EAH7F0K34Z","","650.0999999642372","img/land6.png","76","650.8000000119209","3","0","1","1","0.8,0.2,0.2,0.2,0.8,0.2,0.2,0.2,0.8","0.8,0.2,0.2,0.2,0.8,0.2,0.2,0.2,0.8","1","",""
"","html-keyboard-response","315","347004","0.0-315.0","39ASUFLU6YTI272G9YS4JVEQ72PXEY","A37OUZOGQKGMW0","382GHPVPHSDM8N0F9141EAH7F0K34Z","","null","<img src=""img/land6.png"" style=""width:200px;border:14px solid red;"">","null","","","","","","","","","",""
"","image-keyboard-response","316","348038","0.0-316.0","39ASUFLU6YTI272G9YS4JVEQ72PXEY","A37OUZOGQKGMW0","382GHPVPHSDM8N0F9141EAH7F0K34Z","","1032.5","img/land4.png","76","1033.2999999523163","3","1","3","1","0.8,0.2,0.2,0.2,0.8,0.2,0.2,0.2,0.8","0.8,0.2,0.2,0.2,0.8,0.2,0.2,0.2,0.8","1","",""
"","html-keyboard-response","317","348340","0.0-317.0","39ASUFLU6YTI272G9YS4JVEQ72PXEY","A37OUZOGQKGMW0","382GHPVPHSDM8N0F9141EAH7F0K34Z","","null","<img src=""img/land4.png"" style=""width:200px; border:14px solid green;"">","null","","","","","","","","","",""
"","image-keyboard-response","318","349080","0.0-318.0","39ASUFLU6YTI272G9YS4JVEQ72PXEY","A37OUZOGQKGMW0","382GHPVPHSDM8N0F9141EAH7F0K34Z","","739","img/land6.png","76","740","3","0","1","1","0.8,0.2,0.2,0.2,0.8,0.2,0.2,0.2,0.8","0.8,0.2,0.2,0.2,0.8,0.2,0.2,0.2,0.8","1","",""
"","html-keyboard-response","319","349382","0.0-319.0","39ASUFLU6YTI272G9YS4JVEQ72PXEY","A37OUZOGQKGMW0","382GHPVPHSDM8N0F9141EAH7F0K34Z","","null","<img src=""img/land6.png"" style=""width:200px;border:14px solid red;"">","null","","","","","","","","","",""
"","image-keyboard-response","320","349928","0.0-320.0","39ASUFLU6YTI272G9YS4JVEQ72PXEY","A37OUZOGQKGMW0","382GHPVPHSDM8N0F9141EAH7F0K34Z","","544.6999999880791","img/land6.png","74","545.6000000238419","1","1","1","1","0.8,0.2,0.2,0.2,0.8,0.2,0.2,0.2,0.8","0.8,0.2,0.2,0.2,0.8,0.2,0.2,0.2,0.8","1","",""
"","html-keyboard-response","321","350230","0.0-321.0","39ASUFLU6YTI272G9YS4JVEQ72PXEY","A37OUZOGQKGMW0","382GHPVPHSDM8N0F9141EAH7F0K34Z","","null","<img src=""img/land6.png"" style=""width:200px; border:14px solid green;"">","null","","","","","","","","","",""
"","image-keyboard-response","322","351213","0.0-322.0","39ASUFLU6YTI272G9YS4JVEQ72PXEY","A37OUZOGQKGMW0","382GHPVPHSDM8N0F9141EAH7F0K34Z","","982.2000000476837","img/land4.png","76","983.1000000238419","3","0","3","1","0.8,0.2,0.2,0.2,0.8,0.2,0.2,0.2,0.8","0.8,0.2,0.2,0.2,0.8,0.2,0.2,0.2,0.8","1","",""
"","html-keyboard-response","323","351516","0.0-323.0","39ASUFLU6YTI272G9YS4JVEQ72PXEY","A37OUZOGQKGMW0","382GHPVPHSDM8N0F9141EAH7F0K34Z","","null","<img src=""img/land4.png"" style=""width:200px;border:14px solid red;"">","null","","","","","","","","","",""
"","image-keyboard-response","324","352293","0.0-324.0","39ASUFLU6YTI272G9YS4JVEQ72PXEY","A37OUZOGQKGMW0","382GHPVPHSDM8N0F9141EAH7F0K34Z","","775.7999999523163","img/land4.png","76","776.8000000119209","3","1","3","1","0.8,0.2,0.2,0.2,0.8,0.2,0.2,0.2,0.8","0.8,0.2,0.2,0.2,0.8,0.2,0.2,0.2,0.8","1","",""
"","html-keyboard-response","325","352595","0.0-325.0","39ASUFLU6YTI272G9YS4JVEQ72PXEY","A37OUZOGQKGMW0","382GHPVPHSDM8N0F9141EAH7F0K34Z","","null","<img src=""img/land4.png"" style=""width:200px; border:14px solid green;"">","null","","","","","","","","","",""
"","image-keyboard-response","326","353407","0.0-326.0","39ASUFLU6YTI272G9YS4JVEQ72PXEY","A37OUZOGQKGMW0","382GHPVPHSDM8N0F9141EAH7F0K34Z","","810.8000000119209","img/land4.png","76","811.8000000119209","3","0","3","1","0.8,0.2,0.2,0.2,0.8,0.2,0.2,0.2,0.8","0.8,0.2,0.2,0.2,0.8,0.2,0.2,0.2,0.8","1","",""
"","html-keyboard-response","327","353709","0.0-327.0","39ASUFLU6YTI272G9YS4JVEQ72PXEY","A37OUZOGQKGMW0","382GHPVPHSDM8N0F9141EAH7F0K34Z","","null","<img src=""img/land4.png"" style=""width:200px;border:14px solid red;"">","null","","","","","","","","","",""
"","image-keyboard-response","328","355217","0.0-328.0","39ASUFLU6YTI272G9YS4JVEQ72PXEY","A37OUZOGQKGMW0","382GHPVPHSDM8N0F9141EAH7F0K34Z","","1507.0999999642372","img/land2.png","75","1508","2","1","2","1","0.8,0.2,0.2,0.2,0.8,0.2,0.2,0.2,0.8","0.8,0.2,0.2,0.2,0.8,0.2,0.2,0.2,0.8","1","",""
"","html-keyboard-response","329","355519","0.0-329.0","39ASUFLU6YTI272G9YS4JVEQ72PXEY","A37OUZOGQKGMW0","382GHPVPHSDM8N0F9141EAH7F0K34Z","","null","<img src=""img/land2.png"" style=""width:200px; border:14px solid green;"">","null","","","","","","","","","",""
"","image-keyboard-response","330","356627","0.0-330.0","39ASUFLU6YTI272G9YS4JVEQ72PXEY","A37OUZOGQKGMW0","382GHPVPHSDM8N0F9141EAH7F0K34Z","","1106.800000011921","img/land6.png","74","1107.8999999761581","1","1","1","1","0.8,0.2,0.2,0.2,0.8,0.2,0.2,0.2,0.8","0.8,0.2,0.2,0.2,0.8,0.2,0.2,0.2,0.8","1","",""
"","html-keyboard-response","331","356931","0.0-331.0","39ASUFLU6YTI272G9YS4JVEQ72PXEY","A37OUZOGQKGMW0","382GHPVPHSDM8N0F9141EAH7F0K34Z","","null","<img src=""img/land6.png"" style=""width:200px; border:14px solid green;"">","null","","","","","","","","","",""
"","image-keyboard-response","332","357909","0.0-332.0","39ASUFLU6YTI272G9YS4JVEQ72PXEY","A37OUZOGQKGMW0","382GHPVPHSDM8N0F9141EAH7F0K34Z","","977.2999999523163","img/land2.png","75","978.1999999880791","2","0","2","1","0.8,0.2,0.2,0.2,0.8,0.2,0.2,0.2,0.8","0.8,0.2,0.2,0.2,0.8,0.2,0.2,0.2,0.8","1","",""
"","html-keyboard-response","333","358212","0.0-333.0","39ASUFLU6YTI272G9YS4JVEQ72PXEY","A37OUZOGQKGMW0","382GHPVPHSDM8N0F9141EAH7F0K34Z","","null","<img src=""img/land2.png"" style=""width:200px;border:14px solid red;"">","null","","","","","","","","","",""
"","image-keyboard-response","334","359054","0.0-334.0","39ASUFLU6YTI272G9YS4JVEQ72PXEY","A37OUZOGQKGMW0","382GHPVPHSDM8N0F9141EAH7F0K34Z","","841.3000000119209","img/land4.png","74","842.3000000119209","1","0","3","1","0.8,0.2,0.2,0.2,0.8,0.2,0.2,0.2,0.8","0.8,0.2,0.2,0.2,0.8,0.2,0.2,0.2,0.8","1","",""
"","html-keyboard-response","335","359356","0.0-335.0","39ASUFLU6YTI272G9YS4JVEQ72PXEY","A37OUZOGQKGMW0","382GHPVPHSDM8N0F9141EAH7F0K34Z","","null","<img src=""img/land4.png"" style=""width:200px;border:14px solid red;"">","null","","","","","","","","","",""
"","image-keyboard-response","336","360250","0.0-336.0","39ASUFLU6YTI272G9YS4JVEQ72PXEY","A37OUZOGQKGMW0","382GHPVPHSDM8N0F9141EAH7F0K34Z","","891.3999999761581","img/land6.png","75","893.5999999642372","2","0","1","1","0.8,0.2,0.2,0.2,0.8,0.2,0.2,0.2,0.8","0.8,0.2,0.2,0.2,0.8,0.2,0.2,0.2,0.8","1","",""
"","html-keyboard-response","337","360552","0.0-337.0","39ASUFLU6YTI272G9YS4JVEQ72PXEY","A37OUZOGQKGMW0","382GHPVPHSDM8N0F9141EAH7F0K34Z","","null","<img src=""img/land6.png"" style=""width:200px;border:14px solid red;"">","null","","","","","","","","","",""
"","image-keyboard-response","338","361689","0.0-338.0","39ASUFLU6YTI272G9YS4JVEQ72PXEY","A37OUZOGQKGMW0","382GHPVPHSDM8N0F9141EAH7F0K34Z","","1136.300000011921","img/land4.png","74","1137","1","0","3","1","0.8,0.2,0.2,0.2,0.8,0.2,0.2,0.2,0.8","0.8,0.2,0.2,0.2,0.8,0.2,0.2,0.2,0.8","1","",""
"","html-keyboard-response","339","361992","0.0-339.0","39ASUFLU6YTI272G9YS4JVEQ72PXEY","A37OUZOGQKGMW0","382GHPVPHSDM8N0F9141EAH7F0K34Z","","null","<img src=""img/land4.png"" style=""width:200px;border:14px solid red;"">","null","","","","","","","","","",""
"","image-keyboard-response","340","363280","0.0-340.0","39ASUFLU6YTI272G9YS4JVEQ72PXEY","A37OUZOGQKGMW0","382GHPVPHSDM8N0F9141EAH7F0K34Z","","1287.2000000476837","img/land6.png","74","1288.2000000476837","1","0","1","1","0.8,0.2,0.2,0.2,0.8,0.2,0.2,0.2,0.8","0.8,0.2,0.2,0.2,0.8,0.2,0.2,0.2,0.8","1","",""
"","html-keyboard-response","341","363582","0.0-341.0","39ASUFLU6YTI272G9YS4JVEQ72PXEY","A37OUZOGQKGMW0","382GHPVPHSDM8N0F9141EAH7F0K34Z","","null","<img src=""img/land6.png"" style=""width:200px;border:14px solid red;"">","null","","","","","","","","","",""
"","image-keyboard-response","342","364424","0.0-342.0","39ASUFLU6YTI272G9YS4JVEQ72PXEY","A37OUZOGQKGMW0","382GHPVPHSDM8N0F9141EAH7F0K34Z","","840.6999999880791","img/land2.png","75","841.8000000119209","2","1","2","1","0.8,0.2,0.2,0.2,0.8,0.2,0.2,0.2,0.8","0.8,0.2,0.2,0.2,0.8,0.2,0.2,0.2,0.8","1","",""
"","html-keyboard-response","343","364725","0.0-343.0","39ASUFLU6YTI272G9YS4JVEQ72PXEY","A37OUZOGQKGMW0","382GHPVPHSDM8N0F9141EAH7F0K34Z","","null","<img src=""img/land2.png"" style=""width:200px; border:14px solid green;"">","null","","","","","","","","","",""
"","image-keyboard-response","344","365614","0.0-344.0","39ASUFLU6YTI272G9YS4JVEQ72PXEY","A37OUZOGQKGMW0","382GHPVPHSDM8N0F9141EAH7F0K34Z","","887.7000000476837","img/land2.png","75","888.3999999761581","2","0","2","1","0.8,0.2,0.2,0.2,0.8,0.2,0.2,0.2,0.8","0.8,0.2,0.2,0.2,0.8,0.2,0.2,0.2,0.8","1","",""
"","html-keyboard-response","345","365916","0.0-345.0","39ASUFLU6YTI272G9YS4JVEQ72PXEY","A37OUZOGQKGMW0","382GHPVPHSDM8N0F9141EAH7F0K34Z","","null","<img src=""img/land2.png"" style=""width:200px;border:14px solid red;"">","null","","","","","","","","","",""
"","image-keyboard-response","346","366898","0.0-346.0","39ASUFLU6YTI272G9YS4JVEQ72PXEY","A37OUZOGQKGMW0","382GHPVPHSDM8N0F9141EAH7F0K34Z","","980.4000000357628","img/land4.png","76","981.3999999761581","3","1","3","1","0.8,0.2,0.2,0.2,0.8,0.2,0.2,0.2,0.8","0.8,0.2,0.2,0.2,0.8,0.2,0.2,0.2,0.8","1","",""
"","html-keyboard-response","347","367200","0.0-347.0","39ASUFLU6YTI272G9YS4JVEQ72PXEY","A37OUZOGQKGMW0","382GHPVPHSDM8N0F9141EAH7F0K34Z","","null","<img src=""img/land4.png"" style=""width:200px; border:14px solid green;"">","null","","","","","","","","","",""
"","image-keyboard-response","348","367959","0.0-348.0","39ASUFLU6YTI272G9YS4JVEQ72PXEY","A37OUZOGQKGMW0","382GHPVPHSDM8N0F9141EAH7F0K34Z","","757.3000000119209","img/land6.png","74","758.4000000357628","1","1","1","1","0.8,0.2,0.2,0.2,0.8,0.2,0.2,0.2,0.8","0.8,0.2,0.2,0.2,0.8,0.2,0.2,0.2,0.8","1","",""
"","html-keyboard-response","349","368262","0.0-349.0","39ASUFLU6YTI272G9YS4JVEQ72PXEY","A37OUZOGQKGMW0","382GHPVPHSDM8N0F9141EAH7F0K34Z","","null","<img src=""img/land6.png"" style=""width:200px; border:14px solid green;"">","null","","","","","","","","","",""
"","image-keyboard-response","350","368987","0.0-350.0","39ASUFLU6YTI272G9YS4JVEQ72PXEY","A37OUZOGQKGMW0","382GHPVPHSDM8N0F9141EAH7F0K34Z","","723.8000000119209","img/land4.png","76","724.8999999761581","3","1","3","1","0.8,0.2,0.2,0.2,0.8,0.2,0.2,0.2,0.8","0.8,0.2,0.2,0.2,0.8,0.2,0.2,0.2,0.8","1","",""
"","html-keyboard-response","351","369289","0.0-351.0","39ASUFLU6YTI272G9YS4JVEQ72PXEY","A37OUZOGQKGMW0","382GHPVPHSDM8N0F9141EAH7F0K34Z","","null","<img src=""img/land4.png"" style=""width:200px; border:14px solid green;"">","null","","","","","","","","","",""
"","image-keyboard-response","352","370315","0.0-352.0","39ASUFLU6YTI272G9YS4JVEQ72PXEY","A37OUZOGQKGMW0","382GHPVPHSDM8N0F9141EAH7F0K34Z","","1025.3999999761581","img/land2.png","75","1026.300000011921","2","1","2","1","0.8,0.2,0.2,0.2,0.8,0.2,0.2,0.2,0.8","0.8,0.2,0.2,0.2,0.8,0.2,0.2,0.2,0.8","1","",""
"","html-keyboard-response","353","370620","0.0-353.0","39ASUFLU6YTI272G9YS4JVEQ72PXEY","A37OUZOGQKGMW0","382GHPVPHSDM8N0F9141EAH7F0K34Z","","null","<img src=""img/land2.png"" style=""width:200px; border:14px solid green;"">","null","","","","","","","","","",""
