"success","trial_type","trial_index","time_elapsed","internal_node_id","assignmentID","mturkID","hitID","view_history","rt","stimulus","key_press","reactionTime","a","r","s","cond","reward_cond","reward_cond_actual","reward_matrix_idx","responses","question_order"
"true","fullscreen","0","3149","0.0-0.0","36U2A8VAG2LAOCK0AGP904Y4T91KY5","A37QFZ8I1TGH2C","3XT3KXP24ZKFDDMCDS43FE3AU9W6IW","","","","","","","","","","","","","",""
"","instructions","1","21438","0.0-1.0","36U2A8VAG2LAOCK0AGP904Y4T91KY5","A37QFZ8I1TGH2C","3XT3KXP24ZKFDDMCDS43FE3AU9W6IW","[{""page_index"":0,""viewing_time"":5333},{""page_index"":1,""viewing_time"":1168},{""page_index"":2,""viewing_time"":1415.699999988079},{""page_index"":3,""viewing_time"":4000.600000023842},{""page_index"":4,""viewing_time"":2503.399999976158},{""page_index"":5,""viewing_time"":1902},{""page_index"":6,""viewing_time"":1964}]","18287","","","","","","","","","","","",""
"","image-keyboard-response","2","22229","0.0-2.0","36U2A8VAG2LAOCK0AGP904Y4T91KY5","A37QFZ8I1TGH2C","3XT3KXP24ZKFDDMCDS43FE3AU9W6IW","","789.6000000238419","img/land1.png","75","791.1999999880791","2","0","1","2","0.8,0.2,0.2,0.2,0.8,0.2,0.2,0.2,0.8","0.8,0.2,0.2,0.2,0.8,0.2,0.2,0.2,0.8","1","",""
"","html-keyboard-response","3","22544","0.0-3.0","36U2A8VAG2LAOCK0AGP904Y4T91KY5","A37QFZ8I1TGH2C","3XT3KXP24ZKFDDMCDS43FE3AU9W6IW","","null","<img src=""img/land1.png"" style=""width:200px;border:14px solid red;"">","null","","","","","","","","","",""
"","image-keyboard-response","4","23508","0.0-4.0","36U2A8VAG2LAOCK0AGP904Y4T91KY5","A37QFZ8I1TGH2C","3XT3KXP24ZKFDDMCDS43FE3AU9W6IW","","962.5","img/land1.png","74","963.7000000476837","1","0","1","2","0.8,0.2,0.2,0.2,0.8,0.2,0.2,0.2,0.8","0.8,0.2,0.2,0.2,0.8,0.2,0.2,0.2,0.8","1","",""
"","html-keyboard-response","5","23811","0.0-5.0","36U2A8VAG2LAOCK0AGP904Y4T91KY5","A37QFZ8I1TGH2C","3XT3KXP24ZKFDDMCDS43FE3AU9W6IW","","null","<img src=""img/land1.png"" style=""width:200px;border:14px solid red;"">","null","","","","","","","","","",""
"","image-keyboard-response","6","24260","0.0-6.0","36U2A8VAG2LAOCK0AGP904Y4T91KY5","A37QFZ8I1TGH2C","3XT3KXP24ZKFDDMCDS43FE3AU9W6IW","","448","img/land1.png","76","449.0999999642372","3","0","1","2","0.8,0.2,0.2,0.2,0.8,0.2,0.2,0.2,0.8","0.8,0.2,0.2,0.2,0.8,0.2,0.2,0.2,0.8","1","",""
"","html-keyboard-response","7","24575","0.0-7.0","36U2A8VAG2LAOCK0AGP904Y4T91KY5","A37QFZ8I1TGH2C","3XT3KXP24ZKFDDMCDS43FE3AU9W6IW","","null","<img src=""img/land1.png"" style=""width:200px;border:14px solid red;"">","null","","","","","","","","","",""
"","image-keyboard-response","8","25269","0.0-8.0","36U2A8VAG2LAOCK0AGP904Y4T91KY5","A37QFZ8I1TGH2C","3XT3KXP24ZKFDDMCDS43FE3AU9W6IW","","692.0999999642372","img/land1.png","75","693.4000000357628","2","0","1","2","0.8,0.2,0.2,0.2,0.8,0.2,0.2,0.2,0.8","0.8,0.2,0.2,0.2,0.8,0.2,0.2,0.2,0.8","1","",""
"","html-keyboard-response","9","25580","0.0-9.0","36U2A8VAG2LAOCK0AGP904Y4T91KY5","A37QFZ8I1TGH2C","3XT3KXP24ZKFDDMCDS43FE3AU9W6IW","","null","<img src=""img/land1.png"" style=""width:200px;border:14px solid red;"">","null","","","","","","","","","",""
"","image-keyboard-response","10","26750","0.0-10.0","36U2A8VAG2LAOCK0AGP904Y4T91KY5","A37QFZ8I1TGH2C","3XT3KXP24ZKFDDMCDS43FE3AU9W6IW","","1168.199999988079","img/land5.png","74","1169.300000011921","1","1","3","2","0.8,0.2,0.2,0.2,0.8,0.2,0.2,0.2,0.8","0.8,0.2,0.2,0.2,0.8,0.2,0.2,0.2,0.8","1","",""
"","html-keyboard-response","11","27057","0.0-11.0","36U2A8VAG2LAOCK0AGP904Y4T91KY5","A37QFZ8I1TGH2C","3XT3KXP24ZKFDDMCDS43FE3AU9W6IW","","null","<img src=""img/land5.png"" style=""width:200px; border:14px solid green;"">","null","","","","","","","","","",""
"","image-keyboard-response","12","27932","0.0-12.0","36U2A8VAG2LAOCK0AGP904Y4T91KY5","A37QFZ8I1TGH2C","3XT3KXP24ZKFDDMCDS43FE3AU9W6IW","","874.1999999880791","img/land6.png","76","875.2000000476837","3","1","2","2","0.8,0.2,0.2,0.2,0.8,0.2,0.2,0.2,0.8","0.8,0.2,0.2,0.2,0.8,0.2,0.2,0.2,0.8","1","",""
"","html-keyboard-response","13","28234","0.0-13.0","36U2A8VAG2LAOCK0AGP904Y4T91KY5","A37QFZ8I1TGH2C","3XT3KXP24ZKFDDMCDS43FE3AU9W6IW","","null","<img src=""img/land6.png"" style=""width:200px; border:14px solid green;"">","null","","","","","","","","","",""
"","image-keyboard-response","14","29030","0.0-14.0","36U2A8VAG2LAOCK0AGP904Y4T91KY5","A37QFZ8I1TGH2C","3XT3KXP24ZKFDDMCDS43FE3AU9W6IW","","794.5","img/land1.png","75","795.5","2","0","1","2","0.8,0.2,0.2,0.2,0.8,0.2,0.2,0.2,0.8","0.8,0.2,0.2,0.2,0.8,0.2,0.2,0.2,0.8","1","",""
"","html-keyboard-response","15","29336","0.0-15.0","36U2A8VAG2LAOCK0AGP904Y4T91KY5","A37QFZ8I1TGH2C","3XT3KXP24ZKFDDMCDS43FE3AU9W6IW","","null","<img src=""img/land1.png"" style=""width:200px;border:14px solid red;"">","null","","","","","","","","","",""
"","image-keyboard-response","16","29892","0.0-16.0","36U2A8VAG2LAOCK0AGP904Y4T91KY5","A37QFZ8I1TGH2C","3XT3KXP24ZKFDDMCDS43FE3AU9W6IW","","555","img/land1.png","76","556.0999999642372","3","0","1","2","0.8,0.2,0.2,0.2,0.8,0.2,0.2,0.2,0.8","0.8,0.2,0.2,0.2,0.8,0.2,0.2,0.2,0.8","1","",""
"","html-keyboard-response","17","30194","0.0-17.0","36U2A8VAG2LAOCK0AGP904Y4T91KY5","A37QFZ8I1TGH2C","3XT3KXP24ZKFDDMCDS43FE3AU9W6IW","","null","<img src=""img/land1.png"" style=""width:200px;border:14px solid red;"">","null","","","","","","","","","",""
"","image-keyboard-response","18","30444","0.0-18.0","36U2A8VAG2LAOCK0AGP904Y4T91KY5","A37QFZ8I1TGH2C","3XT3KXP24ZKFDDMCDS43FE3AU9W6IW","","248.80000001192093","img/land1.png","74","250.10000002384186","1","1","1","2","0.8,0.2,0.2,0.2,0.8,0.2,0.2,0.2,0.8","0.8,0.2,0.2,0.2,0.8,0.2,0.2,0.2,0.8","1","",""
"","html-keyboard-response","19","30746","0.0-19.0","36U2A8VAG2LAOCK0AGP904Y4T91KY5","A37QFZ8I1TGH2C","3XT3KXP24ZKFDDMCDS43FE3AU9W6IW","","null","<img src=""img/land1.png"" style=""width:200px; border:14px solid green;"">","null","","","","","","","","","",""
"","image-keyboard-response","20","32428","0.0-20.0","36U2A8VAG2LAOCK0AGP904Y4T91KY5","A37QFZ8I1TGH2C","3XT3KXP24ZKFDDMCDS43FE3AU9W6IW","","1680.699999988079","img/land5.png","74","1681.6000000238419","1","0","3","2","0.8,0.2,0.2,0.2,0.8,0.2,0.2,0.2,0.8","0.8,0.2,0.2,0.2,0.8,0.2,0.2,0.2,0.8","1","",""
"","html-keyboard-response","21","32729","0.0-21.0","36U2A8VAG2LAOCK0AGP904Y4T91KY5","A37QFZ8I1TGH2C","3XT3KXP24ZKFDDMCDS43FE3AU9W6IW","","null","<img src=""img/land5.png"" style=""width:200px;border:14px solid red;"">","null","","","","","","","","","",""
"","image-keyboard-response","22","33692","0.0-22.0","36U2A8VAG2LAOCK0AGP904Y4T91KY5","A37QFZ8I1TGH2C","3XT3KXP24ZKFDDMCDS43FE3AU9W6IW","","961.3999999761581","img/land1.png","74","962.3000000119209","1","0","1","2","0.8,0.2,0.2,0.2,0.8,0.2,0.2,0.2,0.8","0.8,0.2,0.2,0.2,0.8,0.2,0.2,0.2,0.8","1","",""
"","html-keyboard-response","23","33994","0.0-23.0","36U2A8VAG2LAOCK0AGP904Y4T91KY5","A37QFZ8I1TGH2C","3XT3KXP24ZKFDDMCDS43FE3AU9W6IW","","null","<img src=""img/land1.png"" style=""width:200px;border:14px solid red;"">","null","","","","","","","","","",""
"","image-keyboard-response","24","35028","0.0-24.0","36U2A8VAG2LAOCK0AGP904Y4T91KY5","A37QFZ8I1TGH2C","3XT3KXP24ZKFDDMCDS43FE3AU9W6IW","","1032.5999999642372","img/land5.png","76","1033.800000011921","3","0","3","2","0.8,0.2,0.2,0.2,0.8,0.2,0.2,0.2,0.8","0.8,0.2,0.2,0.2,0.8,0.2,0.2,0.2,0.8","1","",""
"","html-keyboard-response","25","35329","0.0-25.0","36U2A8VAG2LAOCK0AGP904Y4T91KY5","A37QFZ8I1TGH2C","3XT3KXP24ZKFDDMCDS43FE3AU9W6IW","","null","<img src=""img/land5.png"" style=""width:200px;border:14px solid red;"">","null","","","","","","","","","",""
"","image-keyboard-response","26","36020","0.0-26.0","36U2A8VAG2LAOCK0AGP904Y4T91KY5","A37QFZ8I1TGH2C","3XT3KXP24ZKFDDMCDS43FE3AU9W6IW","","689.3999999761581","img/land6.png","75","690.1999999880791","2","0","2","2","0.8,0.2,0.2,0.2,0.8,0.2,0.2,0.2,0.8","0.8,0.2,0.2,0.2,0.8,0.2,0.2,0.2,0.8","1","",""
"","html-keyboard-response","27","36322","0.0-27.0","36U2A8VAG2LAOCK0AGP904Y4T91KY5","A37QFZ8I1TGH2C","3XT3KXP24ZKFDDMCDS43FE3AU9W6IW","","null","<img src=""img/land6.png"" style=""width:200px;border:14px solid red;"">","null","","","","","","","","","",""
"","image-keyboard-response","28","36772","0.0-28.0","36U2A8VAG2LAOCK0AGP904Y4T91KY5","A37QFZ8I1TGH2C","3XT3KXP24ZKFDDMCDS43FE3AU9W6IW","","448.9000000357628","img/land6.png","75","450","2","1","2","2","0.8,0.2,0.2,0.2,0.8,0.2,0.2,0.2,0.8","0.8,0.2,0.2,0.2,0.8,0.2,0.2,0.2,0.8","1","",""
"","html-keyboard-response","29","37075","0.0-29.0","36U2A8VAG2LAOCK0AGP904Y4T91KY5","A37QFZ8I1TGH2C","3XT3KXP24ZKFDDMCDS43FE3AU9W6IW","","null","<img src=""img/land6.png"" style=""width:200px; border:14px solid green;"">","null","","","","","","","","","",""
"","image-keyboard-response","30","38284","0.0-30.0","36U2A8VAG2LAOCK0AGP904Y4T91KY5","A37QFZ8I1TGH2C","3XT3KXP24ZKFDDMCDS43FE3AU9W6IW","","1207.199999988079","img/land5.png","76","1208.5","3","1","3","2","0.8,0.2,0.2,0.2,0.8,0.2,0.2,0.2,0.8","0.8,0.2,0.2,0.2,0.8,0.2,0.2,0.2,0.8","1","",""
"","html-keyboard-response","31","38587","0.0-31.0","36U2A8VAG2LAOCK0AGP904Y4T91KY5","A37QFZ8I1TGH2C","3XT3KXP24ZKFDDMCDS43FE3AU9W6IW","","null","<img src=""img/land5.png"" style=""width:200px; border:14px solid green;"">","null","","","","","","","","","",""
"","image-keyboard-response","32","39484","0.0-32.0","36U2A8VAG2LAOCK0AGP904Y4T91KY5","A37QFZ8I1TGH2C","3XT3KXP24ZKFDDMCDS43FE3AU9W6IW","","895","img/land1.png","75","896.0999999642372","2","0","1","2","0.8,0.2,0.2,0.2,0.8,0.2,0.2,0.2,0.8","0.8,0.2,0.2,0.2,0.8,0.2,0.2,0.2,0.8","1","",""
"","html-keyboard-response","33","39785","0.0-33.0","36U2A8VAG2LAOCK0AGP904Y4T91KY5","A37QFZ8I1TGH2C","3XT3KXP24ZKFDDMCDS43FE3AU9W6IW","","null","<img src=""img/land1.png"" style=""width:200px;border:14px solid red;"">","null","","","","","","","","","",""
"","image-keyboard-response","34","39948","0.0-34.0","36U2A8VAG2LAOCK0AGP904Y4T91KY5","A37QFZ8I1TGH2C","3XT3KXP24ZKFDDMCDS43FE3AU9W6IW","","162","img/land6.png","75","163","2","1","2","2","0.8,0.2,0.2,0.2,0.8,0.2,0.2,0.2,0.8","0.8,0.2,0.2,0.2,0.8,0.2,0.2,0.2,0.8","1","",""
"","html-keyboard-response","35","40251","0.0-35.0","36U2A8VAG2LAOCK0AGP904Y4T91KY5","A37QFZ8I1TGH2C","3XT3KXP24ZKFDDMCDS43FE3AU9W6IW","","null","<img src=""img/land6.png"" style=""width:200px; border:14px solid green;"">","null","","","","","","","","","",""
"","image-keyboard-response","36","41484","0.0-36.0","36U2A8VAG2LAOCK0AGP904Y4T91KY5","A37QFZ8I1TGH2C","3XT3KXP24ZKFDDMCDS43FE3AU9W6IW","","1231.6000000238419","img/land1.png","74","1232.6000000238419","1","1","1","2","0.8,0.2,0.2,0.2,0.8,0.2,0.2,0.2,0.8","0.8,0.2,0.2,0.2,0.8,0.2,0.2,0.2,0.8","1","",""
"","html-keyboard-response","37","41785","0.0-37.0","36U2A8VAG2LAOCK0AGP904Y4T91KY5","A37QFZ8I1TGH2C","3XT3KXP24ZKFDDMCDS43FE3AU9W6IW","","null","<img src=""img/land1.png"" style=""width:200px; border:14px solid green;"">","null","","","","","","","","","",""
"","image-keyboard-response","38","42388","0.0-38.0","36U2A8VAG2LAOCK0AGP904Y4T91KY5","A37QFZ8I1TGH2C","3XT3KXP24ZKFDDMCDS43FE3AU9W6IW","","601","img/land1.png","74","602.1999999880791","1","1","1","2","0.8,0.2,0.2,0.2,0.8,0.2,0.2,0.2,0.8","0.8,0.2,0.2,0.2,0.8,0.2,0.2,0.2,0.8","1","",""
"","html-keyboard-response","39","42689","0.0-39.0","36U2A8VAG2LAOCK0AGP904Y4T91KY5","A37QFZ8I1TGH2C","3XT3KXP24ZKFDDMCDS43FE3AU9W6IW","","null","<img src=""img/land1.png"" style=""width:200px; border:14px solid green;"">","null","","","","","","","","","",""
"","image-keyboard-response","40","43836","0.0-40.0","36U2A8VAG2LAOCK0AGP904Y4T91KY5","A37QFZ8I1TGH2C","3XT3KXP24ZKFDDMCDS43FE3AU9W6IW","","1145.8999999761581","img/land6.png","76","1146.699999988079","3","0","2","2","0.8,0.2,0.2,0.2,0.8,0.2,0.2,0.2,0.8","0.8,0.2,0.2,0.2,0.8,0.2,0.2,0.2,0.8","1","",""
"","html-keyboard-response","41","44139","0.0-41.0","36U2A8VAG2LAOCK0AGP904Y4T91KY5","A37QFZ8I1TGH2C","3XT3KXP24ZKFDDMCDS43FE3AU9W6IW","","null","<img src=""img/land6.png"" style=""width:200px;border:14px solid red;"">","null","","","","","","","","","",""
"","image-keyboard-response","42","44948","0.0-42.0","36U2A8VAG2LAOCK0AGP904Y4T91KY5","A37QFZ8I1TGH2C","3XT3KXP24ZKFDDMCDS43FE3AU9W6IW","","808","img/land1.png","74","808.7999999523163","1","1","1","2","0.8,0.2,0.2,0.2,0.8,0.2,0.2,0.2,0.8","0.8,0.2,0.2,0.2,0.8,0.2,0.2,0.2,0.8","1","",""
"","html-keyboard-response","43","45250","0.0-43.0","36U2A8VAG2LAOCK0AGP904Y4T91KY5","A37QFZ8I1TGH2C","3XT3KXP24ZKFDDMCDS43FE3AU9W6IW","","null","<img src=""img/land1.png"" style=""width:200px; border:14px solid green;"">","null","","","","","","","","","",""
"","image-keyboard-response","44","45780","0.0-44.0","36U2A8VAG2LAOCK0AGP904Y4T91KY5","A37QFZ8I1TGH2C","3XT3KXP24ZKFDDMCDS43FE3AU9W6IW","","528.6000000238419","img/land1.png","74","529.8000000119209","1","1","1","2","0.8,0.2,0.2,0.2,0.8,0.2,0.2,0.2,0.8","0.8,0.2,0.2,0.2,0.8,0.2,0.2,0.2,0.8","1","",""
"","html-keyboard-response","45","46083","0.0-45.0","36U2A8VAG2LAOCK0AGP904Y4T91KY5","A37QFZ8I1TGH2C","3XT3KXP24ZKFDDMCDS43FE3AU9W6IW","","null","<img src=""img/land1.png"" style=""width:200px; border:14px solid green;"">","null","","","","","","","","","",""
"","image-keyboard-response","46","46524","0.0-46.0","36U2A8VAG2LAOCK0AGP904Y4T91KY5","A37QFZ8I1TGH2C","3XT3KXP24ZKFDDMCDS43FE3AU9W6IW","","440.10000002384186","img/land1.png","74","441.39999997615814","1","1","1","2","0.8,0.2,0.2,0.2,0.8,0.2,0.2,0.2,0.8","0.8,0.2,0.2,0.2,0.8,0.2,0.2,0.2,0.8","1","",""
"","html-keyboard-response","47","46827","0.0-47.0","36U2A8VAG2LAOCK0AGP904Y4T91KY5","A37QFZ8I1TGH2C","3XT3KXP24ZKFDDMCDS43FE3AU9W6IW","","null","<img src=""img/land1.png"" style=""width:200px; border:14px solid green;"">","null","","","","","","","","","",""
"","image-keyboard-response","48","47740","0.0-48.0","36U2A8VAG2LAOCK0AGP904Y4T91KY5","A37QFZ8I1TGH2C","3XT3KXP24ZKFDDMCDS43FE3AU9W6IW","","910.9000000357628","img/land6.png","75","912","2","1","2","2","0.8,0.2,0.2,0.2,0.8,0.2,0.2,0.2,0.8","0.8,0.2,0.2,0.2,0.8,0.2,0.2,0.2,0.8","1","",""
"","html-keyboard-response","49","48041","0.0-49.0","36U2A8VAG2LAOCK0AGP904Y4T91KY5","A37QFZ8I1TGH2C","3XT3KXP24ZKFDDMCDS43FE3AU9W6IW","","null","<img src=""img/land6.png"" style=""width:200px; border:14px solid green;"">","null","","","","","","","","","",""
"","image-keyboard-response","50","48492","0.0-50.0","36U2A8VAG2LAOCK0AGP904Y4T91KY5","A37QFZ8I1TGH2C","3XT3KXP24ZKFDDMCDS43FE3AU9W6IW","","449.10000002384186","img/land6.png","75","450.0999999642372","2","1","2","2","0.8,0.2,0.2,0.2,0.8,0.2,0.2,0.2,0.8","0.8,0.2,0.2,0.2,0.8,0.2,0.2,0.2,0.8","1","",""
"","html-keyboard-response","51","48794","0.0-51.0","36U2A8VAG2LAOCK0AGP904Y4T91KY5","A37QFZ8I1TGH2C","3XT3KXP24ZKFDDMCDS43FE3AU9W6IW","","null","<img src=""img/land6.png"" style=""width:200px; border:14px solid green;"">","null","","","","","","","","","",""
"","image-keyboard-response","52","48996","0.0-52.0","36U2A8VAG2LAOCK0AGP904Y4T91KY5","A37QFZ8I1TGH2C","3XT3KXP24ZKFDDMCDS43FE3AU9W6IW","","201","img/land1.png","75","201.89999997615814","2","0","1","2","0.8,0.2,0.2,0.2,0.8,0.2,0.2,0.2,0.8","0.8,0.2,0.2,0.2,0.8,0.2,0.2,0.2,0.8","1","",""
"","html-keyboard-response","53","49299","0.0-53.0","36U2A8VAG2LAOCK0AGP904Y4T91KY5","A37QFZ8I1TGH2C","3XT3KXP24ZKFDDMCDS43FE3AU9W6IW","","null","<img src=""img/land1.png"" style=""width:200px;border:14px solid red;"">","null","","","","","","","","","",""
"","image-keyboard-response","54","50348","0.0-54.0","36U2A8VAG2LAOCK0AGP904Y4T91KY5","A37QFZ8I1TGH2C","3XT3KXP24ZKFDDMCDS43FE3AU9W6IW","","1047.800000011921","img/land1.png","74","1048.6000000238419","1","1","1","2","0.8,0.2,0.2,0.2,0.8,0.2,0.2,0.2,0.8","0.8,0.2,0.2,0.2,0.8,0.2,0.2,0.2,0.8","1","",""
"","html-keyboard-response","55","50649","0.0-55.0","36U2A8VAG2LAOCK0AGP904Y4T91KY5","A37QFZ8I1TGH2C","3XT3KXP24ZKFDDMCDS43FE3AU9W6IW","","null","<img src=""img/land1.png"" style=""width:200px; border:14px solid green;"">","null","","","","","","","","","",""
"","image-keyboard-response","56","51387","0.0-56.0","36U2A8VAG2LAOCK0AGP904Y4T91KY5","A37QFZ8I1TGH2C","3XT3KXP24ZKFDDMCDS43FE3AU9W6IW","","737","img/land1.png","74","737.8999999761581","1","1","1","2","0.8,0.2,0.2,0.2,0.8,0.2,0.2,0.2,0.8","0.8,0.2,0.2,0.2,0.8,0.2,0.2,0.2,0.8","1","",""
"","html-keyboard-response","57","51689","0.0-57.0","36U2A8VAG2LAOCK0AGP904Y4T91KY5","A37QFZ8I1TGH2C","3XT3KXP24ZKFDDMCDS43FE3AU9W6IW","","null","<img src=""img/land1.png"" style=""width:200px; border:14px solid green;"">","null","","","","","","","","","",""
"","image-keyboard-response","58","52491","0.0-58.0","36U2A8VAG2LAOCK0AGP904Y4T91KY5","A37QFZ8I1TGH2C","3XT3KXP24ZKFDDMCDS43FE3AU9W6IW","","801.1999999880791","img/land5.png","76","802.3999999761581","3","1","3","2","0.8,0.2,0.2,0.2,0.8,0.2,0.2,0.2,0.8","0.8,0.2,0.2,0.2,0.8,0.2,0.2,0.2,0.8","1","",""
"","html-keyboard-response","59","52793","0.0-59.0","36U2A8VAG2LAOCK0AGP904Y4T91KY5","A37QFZ8I1TGH2C","3XT3KXP24ZKFDDMCDS43FE3AU9W6IW","","null","<img src=""img/land5.png"" style=""width:200px; border:14px solid green;"">","null","","","","","","","","","",""
"","image-keyboard-response","60","54428","0.0-60.0","36U2A8VAG2LAOCK0AGP904Y4T91KY5","A37QFZ8I1TGH2C","3XT3KXP24ZKFDDMCDS43FE3AU9W6IW","","1633.199999988079","img/land6.png","74","1634.6000000238419","1","0","2","2","0.8,0.2,0.2,0.2,0.8,0.2,0.2,0.2,0.8","0.8,0.2,0.2,0.2,0.8,0.2,0.2,0.2,0.8","1","",""
"","html-keyboard-response","61","54730","0.0-61.0","36U2A8VAG2LAOCK0AGP904Y4T91KY5","A37QFZ8I1TGH2C","3XT3KXP24ZKFDDMCDS43FE3AU9W6IW","","null","<img src=""img/land6.png"" style=""width:200px;border:14px solid red;"">","null","","","","","","","","","",""
"","image-keyboard-response","62","55772","0.0-62.0","36U2A8VAG2LAOCK0AGP904Y4T91KY5","A37QFZ8I1TGH2C","3XT3KXP24ZKFDDMCDS43FE3AU9W6IW","","1040.3999999761581","img/land1.png","74","1041.300000011921","1","0","1","2","0.8,0.2,0.2,0.2,0.8,0.2,0.2,0.2,0.8","0.8,0.2,0.2,0.2,0.8,0.2,0.2,0.2,0.8","1","",""
"","html-keyboard-response","63","56073","0.0-63.0","36U2A8VAG2LAOCK0AGP904Y4T91KY5","A37QFZ8I1TGH2C","3XT3KXP24ZKFDDMCDS43FE3AU9W6IW","","null","<img src=""img/land1.png"" style=""width:200px;border:14px solid red;"">","null","","","","","","","","","",""
"","image-keyboard-response","64","56843","0.0-64.0","36U2A8VAG2LAOCK0AGP904Y4T91KY5","A37QFZ8I1TGH2C","3XT3KXP24ZKFDDMCDS43FE3AU9W6IW","","769","img/land1.png","75","769.8999999761581","2","1","1","2","0.8,0.2,0.2,0.2,0.8,0.2,0.2,0.2,0.8","0.8,0.2,0.2,0.2,0.8,0.2,0.2,0.2,0.8","1","",""
"","html-keyboard-response","65","57145","0.0-65.0","36U2A8VAG2LAOCK0AGP904Y4T91KY5","A37QFZ8I1TGH2C","3XT3KXP24ZKFDDMCDS43FE3AU9W6IW","","null","<img src=""img/land1.png"" style=""width:200px; border:14px solid green;"">","null","","","","","","","","","",""
"","image-keyboard-response","66","57604","0.0-66.0","36U2A8VAG2LAOCK0AGP904Y4T91KY5","A37QFZ8I1TGH2C","3XT3KXP24ZKFDDMCDS43FE3AU9W6IW","","457.89999997615814","img/land1.png","75","459.10000002384186","2","0","1","2","0.8,0.2,0.2,0.2,0.8,0.2,0.2,0.2,0.8","0.8,0.2,0.2,0.2,0.8,0.2,0.2,0.2,0.8","1","",""
"","html-keyboard-response","67","57907","0.0-67.0","36U2A8VAG2LAOCK0AGP904Y4T91KY5","A37QFZ8I1TGH2C","3XT3KXP24ZKFDDMCDS43FE3AU9W6IW","","null","<img src=""img/land1.png"" style=""width:200px;border:14px solid red;"">","null","","","","","","","","","",""
"","image-keyboard-response","68","58988","0.0-68.0","36U2A8VAG2LAOCK0AGP904Y4T91KY5","A37QFZ8I1TGH2C","3XT3KXP24ZKFDDMCDS43FE3AU9W6IW","","1080","img/land1.png","75","1081.0999999642372","2","1","1","2","0.8,0.2,0.2,0.2,0.8,0.2,0.2,0.2,0.8","0.8,0.2,0.2,0.2,0.8,0.2,0.2,0.2,0.8","1","",""
"","html-keyboard-response","69","59292","0.0-69.0","36U2A8VAG2LAOCK0AGP904Y4T91KY5","A37QFZ8I1TGH2C","3XT3KXP24ZKFDDMCDS43FE3AU9W6IW","","null","<img src=""img/land1.png"" style=""width:200px; border:14px solid green;"">","null","","","","","","","","","",""
"","image-keyboard-response","70","59987","0.0-70.0","36U2A8VAG2LAOCK0AGP904Y4T91KY5","A37QFZ8I1TGH2C","3XT3KXP24ZKFDDMCDS43FE3AU9W6IW","","694.8999999761581","img/land1.png","75","695.6000000238419","2","0","1","2","0.8,0.2,0.2,0.2,0.8,0.2,0.2,0.2,0.8","0.8,0.2,0.2,0.2,0.8,0.2,0.2,0.2,0.8","1","",""
"","html-keyboard-response","71","60289","0.0-71.0","36U2A8VAG2LAOCK0AGP904Y4T91KY5","A37QFZ8I1TGH2C","3XT3KXP24ZKFDDMCDS43FE3AU9W6IW","","null","<img src=""img/land1.png"" style=""width:200px;border:14px solid red;"">","null","","","","","","","","","",""
"","image-keyboard-response","72","61011","0.0-72.0","36U2A8VAG2LAOCK0AGP904Y4T91KY5","A37QFZ8I1TGH2C","3XT3KXP24ZKFDDMCDS43FE3AU9W6IW","","720.8999999761581","img/land5.png","76","721.8999999761581","3","1","3","2","0.8,0.2,0.2,0.2,0.8,0.2,0.2,0.2,0.8","0.8,0.2,0.2,0.2,0.8,0.2,0.2,0.2,0.8","1","",""
"","html-keyboard-response","73","61313","0.0-73.0","36U2A8VAG2LAOCK0AGP904Y4T91KY5","A37QFZ8I1TGH2C","3XT3KXP24ZKFDDMCDS43FE3AU9W6IW","","null","<img src=""img/land5.png"" style=""width:200px; border:14px solid green;"">","null","","","","","","","","","",""
"","image-keyboard-response","74","62198","0.0-74.0","36U2A8VAG2LAOCK0AGP904Y4T91KY5","A37QFZ8I1TGH2C","3XT3KXP24ZKFDDMCDS43FE3AU9W6IW","","883","img/land6.png","74","884.0999999642372","1","0","2","2","0.8,0.2,0.2,0.2,0.8,0.2,0.2,0.2,0.8","0.8,0.2,0.2,0.2,0.8,0.2,0.2,0.2,0.8","1","",""
"","html-keyboard-response","75","62499","0.0-75.0","36U2A8VAG2LAOCK0AGP904Y4T91KY5","A37QFZ8I1TGH2C","3XT3KXP24ZKFDDMCDS43FE3AU9W6IW","","null","<img src=""img/land6.png"" style=""width:200px;border:14px solid red;"">","null","","","","","","","","","",""
"","image-keyboard-response","76","63438","0.0-76.0","36U2A8VAG2LAOCK0AGP904Y4T91KY5","A37QFZ8I1TGH2C","3XT3KXP24ZKFDDMCDS43FE3AU9W6IW","","937.1999999880791","img/land1.png","76","938.1999999880791","3","0","1","2","0.8,0.2,0.2,0.2,0.8,0.2,0.2,0.2,0.8","0.8,0.2,0.2,0.2,0.8,0.2,0.2,0.2,0.8","1","",""
"","html-keyboard-response","77","63740","0.0-77.0","36U2A8VAG2LAOCK0AGP904Y4T91KY5","A37QFZ8I1TGH2C","3XT3KXP24ZKFDDMCDS43FE3AU9W6IW","","null","<img src=""img/land1.png"" style=""width:200px;border:14px solid red;"">","null","","","","","","","","","",""
"","image-keyboard-response","78","64149","0.0-78.0","36U2A8VAG2LAOCK0AGP904Y4T91KY5","A37QFZ8I1TGH2C","3XT3KXP24ZKFDDMCDS43FE3AU9W6IW","","408.7999999523163","img/land1.png","74","409.5999999642372","1","1","1","2","0.8,0.2,0.2,0.2,0.8,0.2,0.2,0.2,0.8","0.8,0.2,0.2,0.2,0.8,0.2,0.2,0.2,0.8","1","",""
"","html-keyboard-response","79","64451","0.0-79.0","36U2A8VAG2LAOCK0AGP904Y4T91KY5","A37QFZ8I1TGH2C","3XT3KXP24ZKFDDMCDS43FE3AU9W6IW","","null","<img src=""img/land1.png"" style=""width:200px; border:14px solid green;"">","null","","","","","","","","","",""
"","image-keyboard-response","80","64956","0.0-80.0","36U2A8VAG2LAOCK0AGP904Y4T91KY5","A37QFZ8I1TGH2C","3XT3KXP24ZKFDDMCDS43FE3AU9W6IW","","503","img/land1.png","74","504.30000001192093","1","1","1","2","0.8,0.2,0.2,0.2,0.8,0.2,0.2,0.2,0.8","0.8,0.2,0.2,0.2,0.8,0.2,0.2,0.2,0.8","1","",""
"","html-keyboard-response","81","65257","0.0-81.0","36U2A8VAG2LAOCK0AGP904Y4T91KY5","A37QFZ8I1TGH2C","3XT3KXP24ZKFDDMCDS43FE3AU9W6IW","","null","<img src=""img/land1.png"" style=""width:200px; border:14px solid green;"">","null","","","","","","","","","",""
"","image-keyboard-response","82","66236","0.0-82.0","36U2A8VAG2LAOCK0AGP904Y4T91KY5","A37QFZ8I1TGH2C","3XT3KXP24ZKFDDMCDS43FE3AU9W6IW","","977.3000000119209","img/land6.png","76","978.5","3","0","2","2","0.8,0.2,0.2,0.2,0.8,0.2,0.2,0.2,0.8","0.8,0.2,0.2,0.2,0.8,0.2,0.2,0.2,0.8","1","",""
"","html-keyboard-response","83","66537","0.0-83.0","36U2A8VAG2LAOCK0AGP904Y4T91KY5","A37QFZ8I1TGH2C","3XT3KXP24ZKFDDMCDS43FE3AU9W6IW","","null","<img src=""img/land6.png"" style=""width:200px;border:14px solid red;"">","null","","","","","","","","","",""
"","image-keyboard-response","84","67116","0.0-84.0","36U2A8VAG2LAOCK0AGP904Y4T91KY5","A37QFZ8I1TGH2C","3XT3KXP24ZKFDDMCDS43FE3AU9W6IW","","577.3000000119209","img/land6.png","75","578.3000000119209","2","0","2","2","0.8,0.2,0.2,0.2,0.8,0.2,0.2,0.2,0.8","0.8,0.2,0.2,0.2,0.8,0.2,0.2,0.2,0.8","1","",""
"","html-keyboard-response","85","67418","0.0-85.0","36U2A8VAG2LAOCK0AGP904Y4T91KY5","A37QFZ8I1TGH2C","3XT3KXP24ZKFDDMCDS43FE3AU9W6IW","","null","<img src=""img/land6.png"" style=""width:200px;border:14px solid red;"">","null","","","","","","","","","",""
"","image-keyboard-response","86","67700","0.0-86.0","36U2A8VAG2LAOCK0AGP904Y4T91KY5","A37QFZ8I1TGH2C","3XT3KXP24ZKFDDMCDS43FE3AU9W6IW","","280.60000002384186","img/land1.png","74","281.60000002384186","1","1","1","2","0.8,0.2,0.2,0.2,0.8,0.2,0.2,0.2,0.8","0.8,0.2,0.2,0.2,0.8,0.2,0.2,0.2,0.8","1","",""
"","html-keyboard-response","87","68003","0.0-87.0","36U2A8VAG2LAOCK0AGP904Y4T91KY5","A37QFZ8I1TGH2C","3XT3KXP24ZKFDDMCDS43FE3AU9W6IW","","null","<img src=""img/land1.png"" style=""width:200px; border:14px solid green;"">","null","","","","","","","","","",""
"","image-keyboard-response","88","68691","0.0-88.0","36U2A8VAG2LAOCK0AGP904Y4T91KY5","A37QFZ8I1TGH2C","3XT3KXP24ZKFDDMCDS43FE3AU9W6IW","","687.5","img/land1.png","74","688.4000000357628","1","1","1","2","0.8,0.2,0.2,0.2,0.8,0.2,0.2,0.2,0.8","0.8,0.2,0.2,0.2,0.8,0.2,0.2,0.2,0.8","1","",""
"","html-keyboard-response","89","68994","0.0-89.0","36U2A8VAG2LAOCK0AGP904Y4T91KY5","A37QFZ8I1TGH2C","3XT3KXP24ZKFDDMCDS43FE3AU9W6IW","","null","<img src=""img/land1.png"" style=""width:200px; border:14px solid green;"">","null","","","","","","","","","",""
"","image-keyboard-response","90","69451","0.0-90.0","36U2A8VAG2LAOCK0AGP904Y4T91KY5","A37QFZ8I1TGH2C","3XT3KXP24ZKFDDMCDS43FE3AU9W6IW","","455.80000001192093","img/land1.png","74","457","1","0","1","2","0.8,0.2,0.2,0.2,0.8,0.2,0.2,0.2,0.8","0.8,0.2,0.2,0.2,0.8,0.2,0.2,0.2,0.8","1","",""
"","html-keyboard-response","91","69754","0.0-91.0","36U2A8VAG2LAOCK0AGP904Y4T91KY5","A37QFZ8I1TGH2C","3XT3KXP24ZKFDDMCDS43FE3AU9W6IW","","null","<img src=""img/land1.png"" style=""width:200px;border:14px solid red;"">","null","","","","","","","","","",""
"","image-keyboard-response","92","70675","0.0-92.0","36U2A8VAG2LAOCK0AGP904Y4T91KY5","A37QFZ8I1TGH2C","3XT3KXP24ZKFDDMCDS43FE3AU9W6IW","","920.1999999880791","img/land1.png","74","921.4000000357628","1","1","1","2","0.8,0.2,0.2,0.2,0.8,0.2,0.2,0.2,0.8","0.8,0.2,0.2,0.2,0.8,0.2,0.2,0.2,0.8","1","",""
"","html-keyboard-response","93","70977","0.0-93.0","36U2A8VAG2LAOCK0AGP904Y4T91KY5","A37QFZ8I1TGH2C","3XT3KXP24ZKFDDMCDS43FE3AU9W6IW","","null","<img src=""img/land1.png"" style=""width:200px; border:14px solid green;"">","null","","","","","","","","","",""
"","image-keyboard-response","94","71948","0.0-94.0","36U2A8VAG2LAOCK0AGP904Y4T91KY5","A37QFZ8I1TGH2C","3XT3KXP24ZKFDDMCDS43FE3AU9W6IW","","969.9000000357628","img/land5.png","75","971","2","0","3","2","0.8,0.2,0.2,0.2,0.8,0.2,0.2,0.2,0.8","0.8,0.2,0.2,0.2,0.8,0.2,0.2,0.2,0.8","1","",""
"","html-keyboard-response","95","72249","0.0-95.0","36U2A8VAG2LAOCK0AGP904Y4T91KY5","A37QFZ8I1TGH2C","3XT3KXP24ZKFDDMCDS43FE3AU9W6IW","","null","<img src=""img/land5.png"" style=""width:200px;border:14px solid red;"">","null","","","","","","","","","",""
"","image-keyboard-response","96","73044","0.0-96.0","36U2A8VAG2LAOCK0AGP904Y4T91KY5","A37QFZ8I1TGH2C","3XT3KXP24ZKFDDMCDS43FE3AU9W6IW","","793.1000000238419","img/land1.png","74","794.1999999880791","1","1","1","2","0.8,0.2,0.2,0.2,0.8,0.2,0.2,0.2,0.8","0.8,0.2,0.2,0.2,0.8,0.2,0.2,0.2,0.8","1","",""
"","html-keyboard-response","97","73345","0.0-97.0","36U2A8VAG2LAOCK0AGP904Y4T91KY5","A37QFZ8I1TGH2C","3XT3KXP24ZKFDDMCDS43FE3AU9W6IW","","null","<img src=""img/land1.png"" style=""width:200px; border:14px solid green;"">","null","","","","","","","","","",""
"","image-keyboard-response","98","74036","0.0-98.0","36U2A8VAG2LAOCK0AGP904Y4T91KY5","A37QFZ8I1TGH2C","3XT3KXP24ZKFDDMCDS43FE3AU9W6IW","","688.8000000119209","img/land1.png","74","690.1000000238419","1","0","1","2","0.8,0.2,0.2,0.2,0.8,0.2,0.2,0.2,0.8","0.8,0.2,0.2,0.2,0.8,0.2,0.2,0.2,0.8","1","",""
"","html-keyboard-response","99","74338","0.0-99.0","36U2A8VAG2LAOCK0AGP904Y4T91KY5","A37QFZ8I1TGH2C","3XT3KXP24ZKFDDMCDS43FE3AU9W6IW","","null","<img src=""img/land1.png"" style=""width:200px;border:14px solid red;"">","null","","","","","","","","","",""
"","image-keyboard-response","100","75043","0.0-100.0","36U2A8VAG2LAOCK0AGP904Y4T91KY5","A37QFZ8I1TGH2C","3XT3KXP24ZKFDDMCDS43FE3AU9W6IW","","704.5","img/land1.png","74","705.3000000119209","1","1","1","2","0.8,0.2,0.2,0.2,0.8,0.2,0.2,0.2,0.8","0.8,0.2,0.2,0.2,0.8,0.2,0.2,0.2,0.8","1","",""
"","html-keyboard-response","101","75345","0.0-101.0","36U2A8VAG2LAOCK0AGP904Y4T91KY5","A37QFZ8I1TGH2C","3XT3KXP24ZKFDDMCDS43FE3AU9W6IW","","null","<img src=""img/land1.png"" style=""width:200px; border:14px solid green;"">","null","","","","","","","","","",""
"","image-keyboard-response","102","76172","0.0-102.0","36U2A8VAG2LAOCK0AGP904Y4T91KY5","A37QFZ8I1TGH2C","3XT3KXP24ZKFDDMCDS43FE3AU9W6IW","","825.7000000476837","img/land6.png","76","826.5999999642372","3","0","2","2","0.8,0.2,0.2,0.2,0.8,0.2,0.2,0.2,0.8","0.8,0.2,0.2,0.2,0.8,0.2,0.2,0.2,0.8","1","",""
"","html-keyboard-response","103","76474","0.0-103.0","36U2A8VAG2LAOCK0AGP904Y4T91KY5","A37QFZ8I1TGH2C","3XT3KXP24ZKFDDMCDS43FE3AU9W6IW","","null","<img src=""img/land6.png"" style=""width:200px;border:14px solid red;"">","null","","","","","","","","","",""
"","image-keyboard-response","104","77588","0.0-104.0","36U2A8VAG2LAOCK0AGP904Y4T91KY5","A37QFZ8I1TGH2C","3XT3KXP24ZKFDDMCDS43FE3AU9W6IW","","1112.699999988079","img/land5.png","75","1113.7000000476837","2","0","3","2","0.8,0.2,0.2,0.2,0.8,0.2,0.2,0.2,0.8","0.8,0.2,0.2,0.2,0.8,0.2,0.2,0.2,0.8","1","",""
"","html-keyboard-response","105","77889","0.0-105.0","36U2A8VAG2LAOCK0AGP904Y4T91KY5","A37QFZ8I1TGH2C","3XT3KXP24ZKFDDMCDS43FE3AU9W6IW","","null","<img src=""img/land5.png"" style=""width:200px;border:14px solid red;"">","null","","","","","","","","","",""
"","image-keyboard-response","106","79067","0.0-106.0","36U2A8VAG2LAOCK0AGP904Y4T91KY5","A37QFZ8I1TGH2C","3XT3KXP24ZKFDDMCDS43FE3AU9W6IW","","1176.5999999642372","img/land1.png","74","1177.9000000357628","1","1","1","2","0.8,0.2,0.2,0.2,0.8,0.2,0.2,0.2,0.8","0.8,0.2,0.2,0.2,0.8,0.2,0.2,0.2,0.8","1","",""
"","html-keyboard-response","107","79369","0.0-107.0","36U2A8VAG2LAOCK0AGP904Y4T91KY5","A37QFZ8I1TGH2C","3XT3KXP24ZKFDDMCDS43FE3AU9W6IW","","null","<img src=""img/land1.png"" style=""width:200px; border:14px solid green;"">","null","","","","","","","","","",""
"","image-keyboard-response","108","79836","0.0-108.0","36U2A8VAG2LAOCK0AGP904Y4T91KY5","A37QFZ8I1TGH2C","3XT3KXP24ZKFDDMCDS43FE3AU9W6IW","","465.80000001192093","img/land1.png","74","467","1","1","1","2","0.8,0.2,0.2,0.2,0.8,0.2,0.2,0.2,0.8","0.8,0.2,0.2,0.2,0.8,0.2,0.2,0.2,0.8","1","",""
"","html-keyboard-response","109","80138","0.0-109.0","36U2A8VAG2LAOCK0AGP904Y4T91KY5","A37QFZ8I1TGH2C","3XT3KXP24ZKFDDMCDS43FE3AU9W6IW","","null","<img src=""img/land1.png"" style=""width:200px; border:14px solid green;"">","null","","","","","","","","","",""
"","image-keyboard-response","110","80796","0.0-110.0","36U2A8VAG2LAOCK0AGP904Y4T91KY5","A37QFZ8I1TGH2C","3XT3KXP24ZKFDDMCDS43FE3AU9W6IW","","655.6999999880791","img/land1.png","74","657","1","1","1","2","0.8,0.2,0.2,0.2,0.8,0.2,0.2,0.2,0.8","0.8,0.2,0.2,0.2,0.8,0.2,0.2,0.2,0.8","1","",""
"","html-keyboard-response","111","81098","0.0-111.0","36U2A8VAG2LAOCK0AGP904Y4T91KY5","A37QFZ8I1TGH2C","3XT3KXP24ZKFDDMCDS43FE3AU9W6IW","","null","<img src=""img/land1.png"" style=""width:200px; border:14px solid green;"">","null","","","","","","","","","",""
"","image-keyboard-response","112","81876","0.0-112.0","36U2A8VAG2LAOCK0AGP904Y4T91KY5","A37QFZ8I1TGH2C","3XT3KXP24ZKFDDMCDS43FE3AU9W6IW","","776.6000000238419","img/land6.png","74","777.8999999761581","1","0","2","2","0.8,0.2,0.2,0.2,0.8,0.2,0.2,0.2,0.8","0.8,0.2,0.2,0.2,0.8,0.2,0.2,0.2,0.8","1","",""
"","html-keyboard-response","113","82178","0.0-113.0","36U2A8VAG2LAOCK0AGP904Y4T91KY5","A37QFZ8I1TGH2C","3XT3KXP24ZKFDDMCDS43FE3AU9W6IW","","null","<img src=""img/land6.png"" style=""width:200px;border:14px solid red;"">","null","","","","","","","","","",""
"","image-keyboard-response","114","83243","0.0-114.0","36U2A8VAG2LAOCK0AGP904Y4T91KY5","A37QFZ8I1TGH2C","3XT3KXP24ZKFDDMCDS43FE3AU9W6IW","","1063.5999999642372","img/land5.png","74","1064.5999999642372","1","0","3","2","0.8,0.2,0.2,0.2,0.8,0.2,0.2,0.2,0.8","0.8,0.2,0.2,0.2,0.8,0.2,0.2,0.2,0.8","1","",""
"","html-keyboard-response","115","83544","0.0-115.0","36U2A8VAG2LAOCK0AGP904Y4T91KY5","A37QFZ8I1TGH2C","3XT3KXP24ZKFDDMCDS43FE3AU9W6IW","","null","<img src=""img/land5.png"" style=""width:200px;border:14px solid red;"">","null","","","","","","","","","",""
"","image-keyboard-response","116","84459","0.0-116.0","36U2A8VAG2LAOCK0AGP904Y4T91KY5","A37QFZ8I1TGH2C","3XT3KXP24ZKFDDMCDS43FE3AU9W6IW","","913.6000000238419","img/land1.png","74","914.4000000357628","1","1","1","2","0.8,0.2,0.2,0.2,0.8,0.2,0.2,0.2,0.8","0.8,0.2,0.2,0.2,0.8,0.2,0.2,0.2,0.8","1","",""
"","html-keyboard-response","117","84760","0.0-117.0","36U2A8VAG2LAOCK0AGP904Y4T91KY5","A37QFZ8I1TGH2C","3XT3KXP24ZKFDDMCDS43FE3AU9W6IW","","null","<img src=""img/land1.png"" style=""width:200px; border:14px solid green;"">","null","","","","","","","","","",""
"","image-keyboard-response","118","85485","0.0-118.0","36U2A8VAG2LAOCK0AGP904Y4T91KY5","A37QFZ8I1TGH2C","3XT3KXP24ZKFDDMCDS43FE3AU9W6IW","","723.5","img/land5.png","76","724.7000000476837","3","1","3","2","0.8,0.2,0.2,0.2,0.8,0.2,0.2,0.2,0.8","0.8,0.2,0.2,0.2,0.8,0.2,0.2,0.2,0.8","1","",""
"","html-keyboard-response","119","85788","0.0-119.0","36U2A8VAG2LAOCK0AGP904Y4T91KY5","A37QFZ8I1TGH2C","3XT3KXP24ZKFDDMCDS43FE3AU9W6IW","","null","<img src=""img/land5.png"" style=""width:200px; border:14px solid green;"">","null","","","","","","","","","",""
"","image-keyboard-response","120","86580","0.0-120.0","36U2A8VAG2LAOCK0AGP904Y4T91KY5","A37QFZ8I1TGH2C","3XT3KXP24ZKFDDMCDS43FE3AU9W6IW","","790.0999999642372","img/land1.png","74","791.5999999642372","1","1","1","2","0.8,0.2,0.2,0.2,0.8,0.2,0.2,0.2,0.8","0.8,0.2,0.2,0.2,0.8,0.2,0.2,0.2,0.8","1","",""
"","html-keyboard-response","121","86882","0.0-121.0","36U2A8VAG2LAOCK0AGP904Y4T91KY5","A37QFZ8I1TGH2C","3XT3KXP24ZKFDDMCDS43FE3AU9W6IW","","null","<img src=""img/land1.png"" style=""width:200px; border:14px solid green;"">","null","","","","","","","","","",""
"","image-keyboard-response","122","87500","0.0-122.0","36U2A8VAG2LAOCK0AGP904Y4T91KY5","A37QFZ8I1TGH2C","3XT3KXP24ZKFDDMCDS43FE3AU9W6IW","","616.8999999761581","img/land5.png","76","618.1000000238419","3","1","3","2","0.8,0.2,0.2,0.2,0.8,0.2,0.2,0.2,0.8","0.8,0.2,0.2,0.2,0.8,0.2,0.2,0.2,0.8","1","",""
"","html-keyboard-response","123","87801","0.0-123.0","36U2A8VAG2LAOCK0AGP904Y4T91KY5","A37QFZ8I1TGH2C","3XT3KXP24ZKFDDMCDS43FE3AU9W6IW","","null","<img src=""img/land5.png"" style=""width:200px; border:14px solid green;"">","null","","","","","","","","","",""
"","image-keyboard-response","124","89044","0.0-124.0","36U2A8VAG2LAOCK0AGP904Y4T91KY5","A37QFZ8I1TGH2C","3XT3KXP24ZKFDDMCDS43FE3AU9W6IW","","1241.199999988079","img/land6.png","76","1242.199999988079","3","0","2","2","0.8,0.2,0.2,0.2,0.8,0.2,0.2,0.2,0.8","0.8,0.2,0.2,0.2,0.8,0.2,0.2,0.2,0.8","1","",""
"","html-keyboard-response","125","89360","0.0-125.0","36U2A8VAG2LAOCK0AGP904Y4T91KY5","A37QFZ8I1TGH2C","3XT3KXP24ZKFDDMCDS43FE3AU9W6IW","","null","<img src=""img/land6.png"" style=""width:200px;border:14px solid red;"">","null","","","","","","","","","",""
"","image-keyboard-response","126","89779","0.0-126.0","36U2A8VAG2LAOCK0AGP904Y4T91KY5","A37QFZ8I1TGH2C","3XT3KXP24ZKFDDMCDS43FE3AU9W6IW","","418","img/land6.png","75","418.80000001192093","2","1","2","2","0.8,0.2,0.2,0.2,0.8,0.2,0.2,0.2,0.8","0.8,0.2,0.2,0.2,0.8,0.2,0.2,0.2,0.8","1","",""
"","html-keyboard-response","127","90081","0.0-127.0","36U2A8VAG2LAOCK0AGP904Y4T91KY5","A37QFZ8I1TGH2C","3XT3KXP24ZKFDDMCDS43FE3AU9W6IW","","null","<img src=""img/land6.png"" style=""width:200px; border:14px solid green;"">","null","","","","","","","","","",""
"","image-keyboard-response","128","90923","0.0-128.0","36U2A8VAG2LAOCK0AGP904Y4T91KY5","A37QFZ8I1TGH2C","3XT3KXP24ZKFDDMCDS43FE3AU9W6IW","","841.3000000119209","img/land5.png","76","842.2000000476837","3","1","3","2","0.8,0.2,0.2,0.2,0.8,0.2,0.2,0.2,0.8","0.8,0.2,0.2,0.2,0.8,0.2,0.2,0.2,0.8","1","",""
"","html-keyboard-response","129","91225","0.0-129.0","36U2A8VAG2LAOCK0AGP904Y4T91KY5","A37QFZ8I1TGH2C","3XT3KXP24ZKFDDMCDS43FE3AU9W6IW","","null","<img src=""img/land5.png"" style=""width:200px; border:14px solid green;"">","null","","","","","","","","","",""
"","image-keyboard-response","130","92019","0.0-130.0","36U2A8VAG2LAOCK0AGP904Y4T91KY5","A37QFZ8I1TGH2C","3XT3KXP24ZKFDDMCDS43FE3AU9W6IW","","792.8999999761581","img/land1.png","74","793.9000000357628","1","1","1","2","0.8,0.2,0.2,0.2,0.8,0.2,0.2,0.2,0.8","0.8,0.2,0.2,0.2,0.8,0.2,0.2,0.2,0.8","1","",""
"","html-keyboard-response","131","92321","0.0-131.0","36U2A8VAG2LAOCK0AGP904Y4T91KY5","A37QFZ8I1TGH2C","3XT3KXP24ZKFDDMCDS43FE3AU9W6IW","","null","<img src=""img/land1.png"" style=""width:200px; border:14px solid green;"">","null","","","","","","","","","",""
"","image-keyboard-response","132","92875","0.0-132.0","36U2A8VAG2LAOCK0AGP904Y4T91KY5","A37QFZ8I1TGH2C","3XT3KXP24ZKFDDMCDS43FE3AU9W6IW","","552.6000000238419","img/land1.png","74","553.5999999642372","1","1","1","2","0.8,0.2,0.2,0.2,0.8,0.2,0.2,0.2,0.8","0.8,0.2,0.2,0.2,0.8,0.2,0.2,0.2,0.8","1","",""
"","html-keyboard-response","133","93176","0.0-133.0","36U2A8VAG2LAOCK0AGP904Y4T91KY5","A37QFZ8I1TGH2C","3XT3KXP24ZKFDDMCDS43FE3AU9W6IW","","null","<img src=""img/land1.png"" style=""width:200px; border:14px solid green;"">","null","","","","","","","","","",""
"","image-keyboard-response","134","93653","0.0-134.0","36U2A8VAG2LAOCK0AGP904Y4T91KY5","A37QFZ8I1TGH2C","3XT3KXP24ZKFDDMCDS43FE3AU9W6IW","","475.60000002384186","img/land1.png","74","476.30000001192093","1","0","1","2","0.8,0.2,0.2,0.2,0.8,0.2,0.2,0.2,0.8","0.8,0.2,0.2,0.2,0.8,0.2,0.2,0.2,0.8","1","",""
"","html-keyboard-response","135","93954","0.0-135.0","36U2A8VAG2LAOCK0AGP904Y4T91KY5","A37QFZ8I1TGH2C","3XT3KXP24ZKFDDMCDS43FE3AU9W6IW","","null","<img src=""img/land1.png"" style=""width:200px;border:14px solid red;"">","null","","","","","","","","","",""
"","image-keyboard-response","136","94771","0.0-136.0","36U2A8VAG2LAOCK0AGP904Y4T91KY5","A37QFZ8I1TGH2C","3XT3KXP24ZKFDDMCDS43FE3AU9W6IW","","815","img/land6.png","75","816.1000000238419","2","1","2","2","0.8,0.2,0.2,0.2,0.8,0.2,0.2,0.2,0.8","0.8,0.2,0.2,0.2,0.8,0.2,0.2,0.2,0.8","1","",""
"","html-keyboard-response","137","95072","0.0-137.0","36U2A8VAG2LAOCK0AGP904Y4T91KY5","A37QFZ8I1TGH2C","3XT3KXP24ZKFDDMCDS43FE3AU9W6IW","","null","<img src=""img/land6.png"" style=""width:200px; border:14px solid green;"">","null","","","","","","","","","",""
"","image-keyboard-response","138","96011","0.0-138.0","36U2A8VAG2LAOCK0AGP904Y4T91KY5","A37QFZ8I1TGH2C","3XT3KXP24ZKFDDMCDS43FE3AU9W6IW","","937.3999999761581","img/land1.png","74","938.6000000238419","1","1","1","2","0.8,0.2,0.2,0.2,0.8,0.2,0.2,0.2,0.8","0.8,0.2,0.2,0.2,0.8,0.2,0.2,0.2,0.8","1","",""
"","html-keyboard-response","139","96314","0.0-139.0","36U2A8VAG2LAOCK0AGP904Y4T91KY5","A37QFZ8I1TGH2C","3XT3KXP24ZKFDDMCDS43FE3AU9W6IW","","null","<img src=""img/land1.png"" style=""width:200px; border:14px solid green;"">","null","","","","","","","","","",""
"","image-keyboard-response","140","96803","0.0-140.0","36U2A8VAG2LAOCK0AGP904Y4T91KY5","A37QFZ8I1TGH2C","3XT3KXP24ZKFDDMCDS43FE3AU9W6IW","","488.30000001192093","img/land1.png","74","489.2999999523163","1","0","1","2","0.8,0.2,0.2,0.2,0.8,0.2,0.2,0.2,0.8","0.8,0.2,0.2,0.2,0.8,0.2,0.2,0.2,0.8","1","",""
"","html-keyboard-response","141","97105","0.0-141.0","36U2A8VAG2LAOCK0AGP904Y4T91KY5","A37QFZ8I1TGH2C","3XT3KXP24ZKFDDMCDS43FE3AU9W6IW","","null","<img src=""img/land1.png"" style=""width:200px;border:14px solid red;"">","null","","","","","","","","","",""
"","image-keyboard-response","142","97891","0.0-142.0","36U2A8VAG2LAOCK0AGP904Y4T91KY5","A37QFZ8I1TGH2C","3XT3KXP24ZKFDDMCDS43FE3AU9W6IW","","785.6000000238419","img/land1.png","74","786.5999999642372","1","1","1","2","0.8,0.2,0.2,0.2,0.8,0.2,0.2,0.2,0.8","0.8,0.2,0.2,0.2,0.8,0.2,0.2,0.2,0.8","1","",""
"","html-keyboard-response","143","98194","0.0-143.0","36U2A8VAG2LAOCK0AGP904Y4T91KY5","A37QFZ8I1TGH2C","3XT3KXP24ZKFDDMCDS43FE3AU9W6IW","","null","<img src=""img/land1.png"" style=""width:200px; border:14px solid green;"">","null","","","","","","","","","",""
"","image-keyboard-response","144","98995","0.0-144.0","36U2A8VAG2LAOCK0AGP904Y4T91KY5","A37QFZ8I1TGH2C","3XT3KXP24ZKFDDMCDS43FE3AU9W6IW","","799.7999999523163","img/land1.png","74","800.8000000119209","1","1","1","2","0.8,0.2,0.2,0.2,0.8,0.2,0.2,0.2,0.8","0.8,0.2,0.2,0.2,0.8,0.2,0.2,0.2,0.8","1","",""
"","html-keyboard-response","145","99297","0.0-145.0","36U2A8VAG2LAOCK0AGP904Y4T91KY5","A37QFZ8I1TGH2C","3XT3KXP24ZKFDDMCDS43FE3AU9W6IW","","null","<img src=""img/land1.png"" style=""width:200px; border:14px solid green;"">","null","","","","","","","","","",""
"","image-keyboard-response","146","100419","0.0-146.0","36U2A8VAG2LAOCK0AGP904Y4T91KY5","A37QFZ8I1TGH2C","3XT3KXP24ZKFDDMCDS43FE3AU9W6IW","","1120.800000011921","img/land6.png","75","1122","2","0","2","2","0.8,0.2,0.2,0.2,0.8,0.2,0.2,0.2,0.8","0.8,0.2,0.2,0.2,0.8,0.2,0.2,0.2,0.8","1","",""
"","html-keyboard-response","147","100721","0.0-147.0","36U2A8VAG2LAOCK0AGP904Y4T91KY5","A37QFZ8I1TGH2C","3XT3KXP24ZKFDDMCDS43FE3AU9W6IW","","null","<img src=""img/land6.png"" style=""width:200px;border:14px solid red;"">","null","","","","","","","","","",""
"","image-keyboard-response","148","101331","0.0-148.0","36U2A8VAG2LAOCK0AGP904Y4T91KY5","A37QFZ8I1TGH2C","3XT3KXP24ZKFDDMCDS43FE3AU9W6IW","","608.2999999523163","img/land1.png","74","609.3000000119209","1","1","1","2","0.8,0.2,0.2,0.2,0.8,0.2,0.2,0.2,0.8","0.8,0.2,0.2,0.2,0.8,0.2,0.2,0.2,0.8","1","",""
"","html-keyboard-response","149","101633","0.0-149.0","36U2A8VAG2LAOCK0AGP904Y4T91KY5","A37QFZ8I1TGH2C","3XT3KXP24ZKFDDMCDS43FE3AU9W6IW","","null","<img src=""img/land1.png"" style=""width:200px; border:14px solid green;"">","null","","","","","","","","","",""
"","image-keyboard-response","150","102069","0.0-150.0","36U2A8VAG2LAOCK0AGP904Y4T91KY5","A37QFZ8I1TGH2C","3XT3KXP24ZKFDDMCDS43FE3AU9W6IW","","435.2000000476837","img/land1.png","74","436.19999998807907","1","1","1","2","0.8,0.2,0.2,0.2,0.8,0.2,0.2,0.2,0.8","0.8,0.2,0.2,0.2,0.8,0.2,0.2,0.2,0.8","1","",""
"","html-keyboard-response","151","102371","0.0-151.0","36U2A8VAG2LAOCK0AGP904Y4T91KY5","A37QFZ8I1TGH2C","3XT3KXP24ZKFDDMCDS43FE3AU9W6IW","","null","<img src=""img/land1.png"" style=""width:200px; border:14px solid green;"">","null","","","","","","","","","",""
"","image-keyboard-response","152","103083","0.0-152.0","36U2A8VAG2LAOCK0AGP904Y4T91KY5","A37QFZ8I1TGH2C","3XT3KXP24ZKFDDMCDS43FE3AU9W6IW","","710.8000000119209","img/land5.png","76","711.5999999642372","3","0","3","2","0.8,0.2,0.2,0.2,0.8,0.2,0.2,0.2,0.8","0.8,0.2,0.2,0.2,0.8,0.2,0.2,0.2,0.8","1","",""
"","html-keyboard-response","153","103385","0.0-153.0","36U2A8VAG2LAOCK0AGP904Y4T91KY5","A37QFZ8I1TGH2C","3XT3KXP24ZKFDDMCDS43FE3AU9W6IW","","null","<img src=""img/land5.png"" style=""width:200px;border:14px solid red;"">","null","","","","","","","","","",""
"","image-keyboard-response","154","104587","0.0-154.0","36U2A8VAG2LAOCK0AGP904Y4T91KY5","A37QFZ8I1TGH2C","3XT3KXP24ZKFDDMCDS43FE3AU9W6IW","","1200.2999999523163","img/land6.png","76","1201.199999988079","3","0","2","2","0.8,0.2,0.2,0.2,0.8,0.2,0.2,0.2,0.8","0.8,0.2,0.2,0.2,0.8,0.2,0.2,0.2,0.8","1","",""
"","html-keyboard-response","155","104888","0.0-155.0","36U2A8VAG2LAOCK0AGP904Y4T91KY5","A37QFZ8I1TGH2C","3XT3KXP24ZKFDDMCDS43FE3AU9W6IW","","null","<img src=""img/land6.png"" style=""width:200px;border:14px solid red;"">","null","","","","","","","","","",""
"","image-keyboard-response","156","105539","0.0-156.0","36U2A8VAG2LAOCK0AGP904Y4T91KY5","A37QFZ8I1TGH2C","3XT3KXP24ZKFDDMCDS43FE3AU9W6IW","","649.6999999880791","img/land1.png","74","650.7000000476837","1","1","1","2","0.8,0.2,0.2,0.2,0.8,0.2,0.2,0.2,0.8","0.8,0.2,0.2,0.2,0.8,0.2,0.2,0.2,0.8","1","",""
"","html-keyboard-response","157","105841","0.0-157.0","36U2A8VAG2LAOCK0AGP904Y4T91KY5","A37QFZ8I1TGH2C","3XT3KXP24ZKFDDMCDS43FE3AU9W6IW","","null","<img src=""img/land1.png"" style=""width:200px; border:14px solid green;"">","null","","","","","","","","","",""
"","image-keyboard-response","158","106531","0.0-158.0","36U2A8VAG2LAOCK0AGP904Y4T91KY5","A37QFZ8I1TGH2C","3XT3KXP24ZKFDDMCDS43FE3AU9W6IW","","688.6000000238419","img/land6.png","75","690","2","1","2","2","0.8,0.2,0.2,0.2,0.8,0.2,0.2,0.2,0.8","0.8,0.2,0.2,0.2,0.8,0.2,0.2,0.2,0.8","1","",""
"","html-keyboard-response","159","106841","0.0-159.0","36U2A8VAG2LAOCK0AGP904Y4T91KY5","A37QFZ8I1TGH2C","3XT3KXP24ZKFDDMCDS43FE3AU9W6IW","","null","<img src=""img/land6.png"" style=""width:200px; border:14px solid green;"">","null","","","","","","","","","",""
"","image-keyboard-response","160","107955","0.0-160.0","36U2A8VAG2LAOCK0AGP904Y4T91KY5","A37QFZ8I1TGH2C","3XT3KXP24ZKFDDMCDS43FE3AU9W6IW","","1112.7000000476837","img/land5.png","76","1113.699999988079","3","1","3","2","0.8,0.2,0.2,0.2,0.8,0.2,0.2,0.2,0.8","0.8,0.2,0.2,0.2,0.8,0.2,0.2,0.2,0.8","1","",""
"","html-keyboard-response","161","108257","0.0-161.0","36U2A8VAG2LAOCK0AGP904Y4T91KY5","A37QFZ8I1TGH2C","3XT3KXP24ZKFDDMCDS43FE3AU9W6IW","","null","<img src=""img/land5.png"" style=""width:200px; border:14px solid green;"">","null","","","","","","","","","",""
"","image-keyboard-response","162","108827","0.0-162.0","36U2A8VAG2LAOCK0AGP904Y4T91KY5","A37QFZ8I1TGH2C","3XT3KXP24ZKFDDMCDS43FE3AU9W6IW","","568.3999999761581","img/land5.png","76","569.6999999880791","3","1","3","2","0.8,0.2,0.2,0.2,0.8,0.2,0.2,0.2,0.8","0.8,0.2,0.2,0.2,0.8,0.2,0.2,0.2,0.8","1","",""
"","html-keyboard-response","163","109128","0.0-163.0","36U2A8VAG2LAOCK0AGP904Y4T91KY5","A37QFZ8I1TGH2C","3XT3KXP24ZKFDDMCDS43FE3AU9W6IW","","null","<img src=""img/land5.png"" style=""width:200px; border:14px solid green;"">","null","","","","","","","","","",""
"","image-keyboard-response","164","109803","0.0-164.0","36U2A8VAG2LAOCK0AGP904Y4T91KY5","A37QFZ8I1TGH2C","3XT3KXP24ZKFDDMCDS43FE3AU9W6IW","","673.4000000357628","img/land1.png","74","674.5999999642372","1","0","1","2","0.8,0.2,0.2,0.2,0.8,0.2,0.2,0.2,0.8","0.8,0.2,0.2,0.2,0.8,0.2,0.2,0.2,0.8","1","",""
"","html-keyboard-response","165","110105","0.0-165.0","36U2A8VAG2LAOCK0AGP904Y4T91KY5","A37QFZ8I1TGH2C","3XT3KXP24ZKFDDMCDS43FE3AU9W6IW","","null","<img src=""img/land1.png"" style=""width:200px;border:14px solid red;"">","null","","","","","","","","","",""
"","image-keyboard-response","166","110963","0.0-166.0","36U2A8VAG2LAOCK0AGP904Y4T91KY5","A37QFZ8I1TGH2C","3XT3KXP24ZKFDDMCDS43FE3AU9W6IW","","856.4000000357628","img/land5.png","76","857.6000000238419","3","1","3","2","0.8,0.2,0.2,0.2,0.8,0.2,0.2,0.2,0.8","0.8,0.2,0.2,0.2,0.8,0.2,0.2,0.2,0.8","1","",""
"","html-keyboard-response","167","111278","0.0-167.0","36U2A8VAG2LAOCK0AGP904Y4T91KY5","A37QFZ8I1TGH2C","3XT3KXP24ZKFDDMCDS43FE3AU9W6IW","","null","<img src=""img/land5.png"" style=""width:200px; border:14px solid green;"">","null","","","","","","","","","",""
"","image-keyboard-response","168","112181","0.0-168.0","36U2A8VAG2LAOCK0AGP904Y4T91KY5","A37QFZ8I1TGH2C","3XT3KXP24ZKFDDMCDS43FE3AU9W6IW","","901.1999999880791","img/land1.png","74","902.4000000357628","1","1","1","2","0.8,0.2,0.2,0.2,0.8,0.2,0.2,0.2,0.8","0.8,0.2,0.2,0.2,0.8,0.2,0.2,0.2,0.8","1","",""
"","html-keyboard-response","169","112482","0.0-169.0","36U2A8VAG2LAOCK0AGP904Y4T91KY5","A37QFZ8I1TGH2C","3XT3KXP24ZKFDDMCDS43FE3AU9W6IW","","null","<img src=""img/land1.png"" style=""width:200px; border:14px solid green;"">","null","","","","","","","","","",""
"","image-keyboard-response","170","113251","0.0-170.0","36U2A8VAG2LAOCK0AGP904Y4T91KY5","A37QFZ8I1TGH2C","3XT3KXP24ZKFDDMCDS43FE3AU9W6IW","","767.3000000119209","img/land6.png","75","768.2000000476837","2","1","2","2","0.8,0.2,0.2,0.2,0.8,0.2,0.2,0.2,0.8","0.8,0.2,0.2,0.2,0.8,0.2,0.2,0.2,0.8","1","",""
"","html-keyboard-response","171","113552","0.0-171.0","36U2A8VAG2LAOCK0AGP904Y4T91KY5","A37QFZ8I1TGH2C","3XT3KXP24ZKFDDMCDS43FE3AU9W6IW","","null","<img src=""img/land6.png"" style=""width:200px; border:14px solid green;"">","null","","","","","","","","","",""
"","image-keyboard-response","172","114291","0.0-172.0","36U2A8VAG2LAOCK0AGP904Y4T91KY5","A37QFZ8I1TGH2C","3XT3KXP24ZKFDDMCDS43FE3AU9W6IW","","737","img/land5.png","76","738.1000000238419","3","1","3","2","0.8,0.2,0.2,0.2,0.8,0.2,0.2,0.2,0.8","0.8,0.2,0.2,0.2,0.8,0.2,0.2,0.2,0.8","1","",""
"","html-keyboard-response","173","114593","0.0-173.0","36U2A8VAG2LAOCK0AGP904Y4T91KY5","A37QFZ8I1TGH2C","3XT3KXP24ZKFDDMCDS43FE3AU9W6IW","","null","<img src=""img/land5.png"" style=""width:200px; border:14px solid green;"">","null","","","","","","","","","",""
"","image-keyboard-response","174","115235","0.0-174.0","36U2A8VAG2LAOCK0AGP904Y4T91KY5","A37QFZ8I1TGH2C","3XT3KXP24ZKFDDMCDS43FE3AU9W6IW","","641.2000000476837","img/land1.png","74","642.2000000476837","1","0","1","2","0.8,0.2,0.2,0.2,0.8,0.2,0.2,0.2,0.8","0.8,0.2,0.2,0.2,0.8,0.2,0.2,0.2,0.8","1","",""
"","html-keyboard-response","175","115538","0.0-175.0","36U2A8VAG2LAOCK0AGP904Y4T91KY5","A37QFZ8I1TGH2C","3XT3KXP24ZKFDDMCDS43FE3AU9W6IW","","null","<img src=""img/land1.png"" style=""width:200px;border:14px solid red;"">","null","","","","","","","","","",""
"","image-keyboard-response","176","116395","0.0-176.0","36U2A8VAG2LAOCK0AGP904Y4T91KY5","A37QFZ8I1TGH2C","3XT3KXP24ZKFDDMCDS43FE3AU9W6IW","","855.6999999880791","img/land6.png","75","856.8000000119209","2","1","2","2","0.8,0.2,0.2,0.2,0.8,0.2,0.2,0.2,0.8","0.8,0.2,0.2,0.2,0.8,0.2,0.2,0.2,0.8","1","",""
"","html-keyboard-response","177","116696","0.0-177.0","36U2A8VAG2LAOCK0AGP904Y4T91KY5","A37QFZ8I1TGH2C","3XT3KXP24ZKFDDMCDS43FE3AU9W6IW","","null","<img src=""img/land6.png"" style=""width:200px; border:14px solid green;"">","null","","","","","","","","","",""
"","image-keyboard-response","178","117403","0.0-178.0","36U2A8VAG2LAOCK0AGP904Y4T91KY5","A37QFZ8I1TGH2C","3XT3KXP24ZKFDDMCDS43FE3AU9W6IW","","706.3000000119209","img/land1.png","74","707.3999999761581","1","1","1","2","0.8,0.2,0.2,0.2,0.8,0.2,0.2,0.2,0.8","0.8,0.2,0.2,0.2,0.8,0.2,0.2,0.2,0.8","1","",""
"","html-keyboard-response","179","117704","0.0-179.0","36U2A8VAG2LAOCK0AGP904Y4T91KY5","A37QFZ8I1TGH2C","3XT3KXP24ZKFDDMCDS43FE3AU9W6IW","","null","<img src=""img/land1.png"" style=""width:200px; border:14px solid green;"">","null","","","","","","","","","",""
"","image-keyboard-response","180","118195","0.0-180.0","36U2A8VAG2LAOCK0AGP904Y4T91KY5","A37QFZ8I1TGH2C","3XT3KXP24ZKFDDMCDS43FE3AU9W6IW","","488.5999999642372","img/land1.png","74","490","1","1","1","2","0.8,0.2,0.2,0.2,0.8,0.2,0.2,0.2,0.8","0.8,0.2,0.2,0.2,0.8,0.2,0.2,0.2,0.8","1","",""
"","html-keyboard-response","181","118497","0.0-181.0","36U2A8VAG2LAOCK0AGP904Y4T91KY5","A37QFZ8I1TGH2C","3XT3KXP24ZKFDDMCDS43FE3AU9W6IW","","null","<img src=""img/land1.png"" style=""width:200px; border:14px solid green;"">","null","","","","","","","","","",""
"","image-keyboard-response","182","118955","0.0-182.0","36U2A8VAG2LAOCK0AGP904Y4T91KY5","A37QFZ8I1TGH2C","3XT3KXP24ZKFDDMCDS43FE3AU9W6IW","","456.39999997615814","img/land1.png","74","457.69999998807907","1","1","1","2","0.8,0.2,0.2,0.2,0.8,0.2,0.2,0.2,0.8","0.8,0.2,0.2,0.2,0.8,0.2,0.2,0.2,0.8","1","",""
"","html-keyboard-response","183","119257","0.0-183.0","36U2A8VAG2LAOCK0AGP904Y4T91KY5","A37QFZ8I1TGH2C","3XT3KXP24ZKFDDMCDS43FE3AU9W6IW","","null","<img src=""img/land1.png"" style=""width:200px; border:14px solid green;"">","null","","","","","","","","","",""
"","image-keyboard-response","184","120037","0.0-184.0","36U2A8VAG2LAOCK0AGP904Y4T91KY5","A37QFZ8I1TGH2C","3XT3KXP24ZKFDDMCDS43FE3AU9W6IW","","779","img/land5.png","76","779.8999999761581","3","1","3","2","0.8,0.2,0.2,0.2,0.8,0.2,0.2,0.2,0.8","0.8,0.2,0.2,0.2,0.8,0.2,0.2,0.2,0.8","1","",""
"","html-keyboard-response","185","120339","0.0-185.0","36U2A8VAG2LAOCK0AGP904Y4T91KY5","A37QFZ8I1TGH2C","3XT3KXP24ZKFDDMCDS43FE3AU9W6IW","","null","<img src=""img/land5.png"" style=""width:200px; border:14px solid green;"">","null","","","","","","","","","",""
"","image-keyboard-response","186","121251","0.0-186.0","36U2A8VAG2LAOCK0AGP904Y4T91KY5","A37QFZ8I1TGH2C","3XT3KXP24ZKFDDMCDS43FE3AU9W6IW","","910.4000000357628","img/land6.png","75","911.6000000238419","2","1","2","2","0.8,0.2,0.2,0.2,0.8,0.2,0.2,0.2,0.8","0.8,0.2,0.2,0.2,0.8,0.2,0.2,0.2,0.8","1","",""
"","html-keyboard-response","187","121553","0.0-187.0","36U2A8VAG2LAOCK0AGP904Y4T91KY5","A37QFZ8I1TGH2C","3XT3KXP24ZKFDDMCDS43FE3AU9W6IW","","null","<img src=""img/land6.png"" style=""width:200px; border:14px solid green;"">","null","","","","","","","","","",""
"","image-keyboard-response","188","122219","0.0-188.0","36U2A8VAG2LAOCK0AGP904Y4T91KY5","A37QFZ8I1TGH2C","3XT3KXP24ZKFDDMCDS43FE3AU9W6IW","","664.7000000476837","img/land1.png","74","665.6000000238419","1","0","1","2","0.8,0.2,0.2,0.2,0.8,0.2,0.2,0.2,0.8","0.8,0.2,0.2,0.2,0.8,0.2,0.2,0.2,0.8","1","",""
"","html-keyboard-response","189","122520","0.0-189.0","36U2A8VAG2LAOCK0AGP904Y4T91KY5","A37QFZ8I1TGH2C","3XT3KXP24ZKFDDMCDS43FE3AU9W6IW","","null","<img src=""img/land1.png"" style=""width:200px;border:14px solid red;"">","null","","","","","","","","","",""
"","image-keyboard-response","190","122875","0.0-190.0","36U2A8VAG2LAOCK0AGP904Y4T91KY5","A37QFZ8I1TGH2C","3XT3KXP24ZKFDDMCDS43FE3AU9W6IW","","353.5","img/land1.png","74","354.60000002384186","1","1","1","2","0.8,0.2,0.2,0.2,0.8,0.2,0.2,0.2,0.8","0.8,0.2,0.2,0.2,0.8,0.2,0.2,0.2,0.8","1","",""
"","html-keyboard-response","191","123177","0.0-191.0","36U2A8VAG2LAOCK0AGP904Y4T91KY5","A37QFZ8I1TGH2C","3XT3KXP24ZKFDDMCDS43FE3AU9W6IW","","null","<img src=""img/land1.png"" style=""width:200px; border:14px solid green;"">","null","","","","","","","","","",""
"","image-keyboard-response","192","123594","0.0-192.0","36U2A8VAG2LAOCK0AGP904Y4T91KY5","A37QFZ8I1TGH2C","3XT3KXP24ZKFDDMCDS43FE3AU9W6IW","","416.30000001192093","img/land1.png","74","417.4000000357628","1","1","1","2","0.8,0.2,0.2,0.2,0.8,0.2,0.2,0.2,0.8","0.8,0.2,0.2,0.2,0.8,0.2,0.2,0.2,0.8","1","",""
"","html-keyboard-response","193","123904","0.0-193.0","36U2A8VAG2LAOCK0AGP904Y4T91KY5","A37QFZ8I1TGH2C","3XT3KXP24ZKFDDMCDS43FE3AU9W6IW","","null","<img src=""img/land1.png"" style=""width:200px; border:14px solid green;"">","null","","","","","","","","","",""
"","image-keyboard-response","194","125251","0.0-194.0","36U2A8VAG2LAOCK0AGP904Y4T91KY5","A37QFZ8I1TGH2C","3XT3KXP24ZKFDDMCDS43FE3AU9W6IW","","1346","img/land6.png","75","1347.199999988079","2","1","2","2","0.8,0.2,0.2,0.2,0.8,0.2,0.2,0.2,0.8","0.8,0.2,0.2,0.2,0.8,0.2,0.2,0.2,0.8","1","",""
"","html-keyboard-response","195","125553","0.0-195.0","36U2A8VAG2LAOCK0AGP904Y4T91KY5","A37QFZ8I1TGH2C","3XT3KXP24ZKFDDMCDS43FE3AU9W6IW","","null","<img src=""img/land6.png"" style=""width:200px; border:14px solid green;"">","null","","","","","","","","","",""
"","image-keyboard-response","196","126211","0.0-196.0","36U2A8VAG2LAOCK0AGP904Y4T91KY5","A37QFZ8I1TGH2C","3XT3KXP24ZKFDDMCDS43FE3AU9W6IW","","656.1999999880791","img/land5.png","76","657.3000000119209","3","1","3","2","0.8,0.2,0.2,0.2,0.8,0.2,0.2,0.2,0.8","0.8,0.2,0.2,0.2,0.8,0.2,0.2,0.2,0.8","1","",""
"","html-keyboard-response","197","126513","0.0-197.0","36U2A8VAG2LAOCK0AGP904Y4T91KY5","A37QFZ8I1TGH2C","3XT3KXP24ZKFDDMCDS43FE3AU9W6IW","","null","<img src=""img/land5.png"" style=""width:200px; border:14px solid green;"">","null","","","","","","","","","",""
"","image-keyboard-response","198","127355","0.0-198.0","36U2A8VAG2LAOCK0AGP904Y4T91KY5","A37QFZ8I1TGH2C","3XT3KXP24ZKFDDMCDS43FE3AU9W6IW","","840","img/land1.png","74","841","1","1","1","2","0.8,0.2,0.2,0.2,0.8,0.2,0.2,0.2,0.8","0.8,0.2,0.2,0.2,0.8,0.2,0.2,0.2,0.8","1","",""
"","html-keyboard-response","199","127657","0.0-199.0","36U2A8VAG2LAOCK0AGP904Y4T91KY5","A37QFZ8I1TGH2C","3XT3KXP24ZKFDDMCDS43FE3AU9W6IW","","null","<img src=""img/land1.png"" style=""width:200px; border:14px solid green;"">","null","","","","","","","","","",""
"","image-keyboard-response","200","128332","0.0-200.0","36U2A8VAG2LAOCK0AGP904Y4T91KY5","A37QFZ8I1TGH2C","3XT3KXP24ZKFDDMCDS43FE3AU9W6IW","","672.8999999761581","img/land6.png","75","674","2","1","2","2","0.8,0.2,0.2,0.2,0.8,0.2,0.2,0.2,0.8","0.8,0.2,0.2,0.2,0.8,0.2,0.2,0.2,0.8","1","",""
"","html-keyboard-response","201","128633","0.0-201.0","36U2A8VAG2LAOCK0AGP904Y4T91KY5","A37QFZ8I1TGH2C","3XT3KXP24ZKFDDMCDS43FE3AU9W6IW","","null","<img src=""img/land6.png"" style=""width:200px; border:14px solid green;"">","null","","","","","","","","","",""
"","image-keyboard-response","202","129363","0.0-202.0","36U2A8VAG2LAOCK0AGP904Y4T91KY5","A37QFZ8I1TGH2C","3XT3KXP24ZKFDDMCDS43FE3AU9W6IW","","728.6000000238419","img/land5.png","76","729.5999999642372","3","1","3","2","0.8,0.2,0.2,0.2,0.8,0.2,0.2,0.2,0.8","0.8,0.2,0.2,0.2,0.8,0.2,0.2,0.2,0.8","1","",""
"","html-keyboard-response","203","129667","0.0-203.0","36U2A8VAG2LAOCK0AGP904Y4T91KY5","A37QFZ8I1TGH2C","3XT3KXP24ZKFDDMCDS43FE3AU9W6IW","","null","<img src=""img/land5.png"" style=""width:200px; border:14px solid green;"">","null","","","","","","","","","",""
"","image-keyboard-response","204","130522","0.0-204.0","36U2A8VAG2LAOCK0AGP904Y4T91KY5","A37QFZ8I1TGH2C","3XT3KXP24ZKFDDMCDS43FE3AU9W6IW","","854.2999999523163","img/land6.png","75","855.5","2","0","2","2","0.8,0.2,0.2,0.2,0.8,0.2,0.2,0.2,0.8","0.8,0.2,0.2,0.2,0.8,0.2,0.2,0.2,0.8","1","",""
"","html-keyboard-response","205","130824","0.0-205.0","36U2A8VAG2LAOCK0AGP904Y4T91KY5","A37QFZ8I1TGH2C","3XT3KXP24ZKFDDMCDS43FE3AU9W6IW","","null","<img src=""img/land6.png"" style=""width:200px;border:14px solid red;"">","null","","","","","","","","","",""
"","image-keyboard-response","206","131482","0.0-206.0","36U2A8VAG2LAOCK0AGP904Y4T91KY5","A37QFZ8I1TGH2C","3XT3KXP24ZKFDDMCDS43FE3AU9W6IW","","657.3000000119209","img/land1.png","74","658","1","1","1","2","0.8,0.2,0.2,0.2,0.8,0.2,0.2,0.2,0.8","0.8,0.2,0.2,0.2,0.8,0.2,0.2,0.2,0.8","1","",""
"","html-keyboard-response","207","131783","0.0-207.0","36U2A8VAG2LAOCK0AGP904Y4T91KY5","A37QFZ8I1TGH2C","3XT3KXP24ZKFDDMCDS43FE3AU9W6IW","","null","<img src=""img/land1.png"" style=""width:200px; border:14px solid green;"">","null","","","","","","","","","",""
"","image-keyboard-response","208","132242","0.0-208.0","36U2A8VAG2LAOCK0AGP904Y4T91KY5","A37QFZ8I1TGH2C","3XT3KXP24ZKFDDMCDS43FE3AU9W6IW","","458","img/land1.png","74","458.80000001192093","1","1","1","2","0.8,0.2,0.2,0.2,0.8,0.2,0.2,0.2,0.8","0.8,0.2,0.2,0.2,0.8,0.2,0.2,0.2,0.8","1","",""
"","html-keyboard-response","209","132544","0.0-209.0","36U2A8VAG2LAOCK0AGP904Y4T91KY5","A37QFZ8I1TGH2C","3XT3KXP24ZKFDDMCDS43FE3AU9W6IW","","null","<img src=""img/land1.png"" style=""width:200px; border:14px solid green;"">","null","","","","","","","","","",""
"","image-keyboard-response","210","132962","0.0-210.0","36U2A8VAG2LAOCK0AGP904Y4T91KY5","A37QFZ8I1TGH2C","3XT3KXP24ZKFDDMCDS43FE3AU9W6IW","","416.9000000357628","img/land1.png","74","418.19999998807907","1","1","1","2","0.8,0.2,0.2,0.2,0.8,0.2,0.2,0.2,0.8","0.8,0.2,0.2,0.2,0.8,0.2,0.2,0.2,0.8","1","",""
"","html-keyboard-response","211","133264","0.0-211.0","36U2A8VAG2LAOCK0AGP904Y4T91KY5","A37QFZ8I1TGH2C","3XT3KXP24ZKFDDMCDS43FE3AU9W6IW","","null","<img src=""img/land1.png"" style=""width:200px; border:14px solid green;"">","null","","","","","","","","","",""
"","image-keyboard-response","212","134586","0.0-212.0","36U2A8VAG2LAOCK0AGP904Y4T91KY5","A37QFZ8I1TGH2C","3XT3KXP24ZKFDDMCDS43FE3AU9W6IW","","1321.0999999642372","img/land6.png","75","1322.4000000357628","2","1","2","2","0.8,0.2,0.2,0.2,0.8,0.2,0.2,0.2,0.8","0.8,0.2,0.2,0.2,0.8,0.2,0.2,0.2,0.8","1","",""
"","html-keyboard-response","213","134888","0.0-213.0","36U2A8VAG2LAOCK0AGP904Y4T91KY5","A37QFZ8I1TGH2C","3XT3KXP24ZKFDDMCDS43FE3AU9W6IW","","null","<img src=""img/land6.png"" style=""width:200px; border:14px solid green;"">","null","","","","","","","","","",""
"","image-keyboard-response","214","135571","0.0-214.0","36U2A8VAG2LAOCK0AGP904Y4T91KY5","A37QFZ8I1TGH2C","3XT3KXP24ZKFDDMCDS43FE3AU9W6IW","","681.1000000238419","img/land5.png","76","681.8999999761581","3","1","3","2","0.8,0.2,0.2,0.2,0.8,0.2,0.2,0.2,0.8","0.8,0.2,0.2,0.2,0.8,0.2,0.2,0.2,0.8","1","",""
"","html-keyboard-response","215","135872","0.0-215.0","36U2A8VAG2LAOCK0AGP904Y4T91KY5","A37QFZ8I1TGH2C","3XT3KXP24ZKFDDMCDS43FE3AU9W6IW","","null","<img src=""img/land5.png"" style=""width:200px; border:14px solid green;"">","null","","","","","","","","","",""
"","image-keyboard-response","216","136506","0.0-216.0","36U2A8VAG2LAOCK0AGP904Y4T91KY5","A37QFZ8I1TGH2C","3XT3KXP24ZKFDDMCDS43FE3AU9W6IW","","633.6000000238419","img/land1.png","74","634.5999999642372","1","1","1","2","0.8,0.2,0.2,0.2,0.8,0.2,0.2,0.2,0.8","0.8,0.2,0.2,0.2,0.8,0.2,0.2,0.2,0.8","1","",""
"","html-keyboard-response","217","136809","0.0-217.0","36U2A8VAG2LAOCK0AGP904Y4T91KY5","A37QFZ8I1TGH2C","3XT3KXP24ZKFDDMCDS43FE3AU9W6IW","","null","<img src=""img/land1.png"" style=""width:200px; border:14px solid green;"">","null","","","","","","","","","",""
"","image-keyboard-response","218","137234","0.0-218.0","36U2A8VAG2LAOCK0AGP904Y4T91KY5","A37QFZ8I1TGH2C","3XT3KXP24ZKFDDMCDS43FE3AU9W6IW","","424.4000000357628","img/land1.png","74","425.5999999642372","1","1","1","2","0.8,0.2,0.2,0.2,0.8,0.2,0.2,0.2,0.8","0.8,0.2,0.2,0.2,0.8,0.2,0.2,0.2,0.8","1","",""
"","html-keyboard-response","219","137536","0.0-219.0","36U2A8VAG2LAOCK0AGP904Y4T91KY5","A37QFZ8I1TGH2C","3XT3KXP24ZKFDDMCDS43FE3AU9W6IW","","null","<img src=""img/land1.png"" style=""width:200px; border:14px solid green;"">","null","","","","","","","","","",""
"","image-keyboard-response","220","138298","0.0-220.0","36U2A8VAG2LAOCK0AGP904Y4T91KY5","A37QFZ8I1TGH2C","3XT3KXP24ZKFDDMCDS43FE3AU9W6IW","","760.3999999761581","img/land5.png","76","761.8000000119209","3","1","3","2","0.8,0.2,0.2,0.2,0.8,0.2,0.2,0.2,0.8","0.8,0.2,0.2,0.2,0.8,0.2,0.2,0.2,0.8","1","",""
"","html-keyboard-response","221","138600","0.0-221.0","36U2A8VAG2LAOCK0AGP904Y4T91KY5","A37QFZ8I1TGH2C","3XT3KXP24ZKFDDMCDS43FE3AU9W6IW","","null","<img src=""img/land5.png"" style=""width:200px; border:14px solid green;"">","null","","","","","","","","","",""
"","image-keyboard-response","222","139403","0.0-222.0","36U2A8VAG2LAOCK0AGP904Y4T91KY5","A37QFZ8I1TGH2C","3XT3KXP24ZKFDDMCDS43FE3AU9W6IW","","801.6999999880791","img/land6.png","75","802.6999999880791","2","0","2","2","0.8,0.2,0.2,0.2,0.8,0.2,0.2,0.2,0.8","0.8,0.2,0.2,0.2,0.8,0.2,0.2,0.2,0.8","1","",""
"","html-keyboard-response","223","139705","0.0-223.0","36U2A8VAG2LAOCK0AGP904Y4T91KY5","A37QFZ8I1TGH2C","3XT3KXP24ZKFDDMCDS43FE3AU9W6IW","","null","<img src=""img/land6.png"" style=""width:200px;border:14px solid red;"">","null","","","","","","","","","",""
"","image-keyboard-response","224","140467","0.0-224.0","36U2A8VAG2LAOCK0AGP904Y4T91KY5","A37QFZ8I1TGH2C","3XT3KXP24ZKFDDMCDS43FE3AU9W6IW","","761","img/land1.png","74","762.1000000238419","1","1","1","2","0.8,0.2,0.2,0.2,0.8,0.2,0.2,0.2,0.8","0.8,0.2,0.2,0.2,0.8,0.2,0.2,0.2,0.8","1","",""
"","html-keyboard-response","225","140768","0.0-225.0","36U2A8VAG2LAOCK0AGP904Y4T91KY5","A37QFZ8I1TGH2C","3XT3KXP24ZKFDDMCDS43FE3AU9W6IW","","null","<img src=""img/land1.png"" style=""width:200px; border:14px solid green;"">","null","","","","","","","","","",""
"","image-keyboard-response","226","141307","0.0-226.0","36U2A8VAG2LAOCK0AGP904Y4T91KY5","A37QFZ8I1TGH2C","3XT3KXP24ZKFDDMCDS43FE3AU9W6IW","","537.1999999880791","img/land1.png","74","538.1000000238419","1","1","1","2","0.8,0.2,0.2,0.2,0.8,0.2,0.2,0.2,0.8","0.8,0.2,0.2,0.2,0.8,0.2,0.2,0.2,0.8","1","",""
"","html-keyboard-response","227","141609","0.0-227.0","36U2A8VAG2LAOCK0AGP904Y4T91KY5","A37QFZ8I1TGH2C","3XT3KXP24ZKFDDMCDS43FE3AU9W6IW","","null","<img src=""img/land1.png"" style=""width:200px; border:14px solid green;"">","null","","","","","","","","","",""
"","image-keyboard-response","228","141986","0.0-228.0","36U2A8VAG2LAOCK0AGP904Y4T91KY5","A37QFZ8I1TGH2C","3XT3KXP24ZKFDDMCDS43FE3AU9W6IW","","376.30000001192093","img/land1.png","74","377.19999998807907","1","1","1","2","0.8,0.2,0.2,0.2,0.8,0.2,0.2,0.2,0.8","0.8,0.2,0.2,0.2,0.8,0.2,0.2,0.2,0.8","1","",""
"","html-keyboard-response","229","142288","0.0-229.0","36U2A8VAG2LAOCK0AGP904Y4T91KY5","A37QFZ8I1TGH2C","3XT3KXP24ZKFDDMCDS43FE3AU9W6IW","","null","<img src=""img/land1.png"" style=""width:200px; border:14px solid green;"">","null","","","","","","","","","",""
"","image-keyboard-response","230","142699","0.0-230.0","36U2A8VAG2LAOCK0AGP904Y4T91KY5","A37QFZ8I1TGH2C","3XT3KXP24ZKFDDMCDS43FE3AU9W6IW","","409","img/land1.png","74","410.19999998807907","1","1","1","2","0.8,0.2,0.2,0.2,0.8,0.2,0.2,0.2,0.8","0.8,0.2,0.2,0.2,0.8,0.2,0.2,0.2,0.8","1","",""
"","html-keyboard-response","231","143001","0.0-231.0","36U2A8VAG2LAOCK0AGP904Y4T91KY5","A37QFZ8I1TGH2C","3XT3KXP24ZKFDDMCDS43FE3AU9W6IW","","null","<img src=""img/land1.png"" style=""width:200px; border:14px solid green;"">","null","","","","","","","","","",""
"","image-keyboard-response","232","143475","0.0-232.0","36U2A8VAG2LAOCK0AGP904Y4T91KY5","A37QFZ8I1TGH2C","3XT3KXP24ZKFDDMCDS43FE3AU9W6IW","","472.5","img/land1.png","74","473.60000002384186","1","1","1","2","0.8,0.2,0.2,0.2,0.8,0.2,0.2,0.2,0.8","0.8,0.2,0.2,0.2,0.8,0.2,0.2,0.2,0.8","1","",""
"","html-keyboard-response","233","143776","0.0-233.0","36U2A8VAG2LAOCK0AGP904Y4T91KY5","A37QFZ8I1TGH2C","3XT3KXP24ZKFDDMCDS43FE3AU9W6IW","","null","<img src=""img/land1.png"" style=""width:200px; border:14px solid green;"">","null","","","","","","","","","",""
"","image-keyboard-response","234","144275","0.0-234.0","36U2A8VAG2LAOCK0AGP904Y4T91KY5","A37QFZ8I1TGH2C","3XT3KXP24ZKFDDMCDS43FE3AU9W6IW","","497.10000002384186","img/land1.png","74","498","1","1","1","2","0.8,0.2,0.2,0.2,0.8,0.2,0.2,0.2,0.8","0.8,0.2,0.2,0.2,0.8,0.2,0.2,0.2,0.8","1","",""
"","html-keyboard-response","235","144577","0.0-235.0","36U2A8VAG2LAOCK0AGP904Y4T91KY5","A37QFZ8I1TGH2C","3XT3KXP24ZKFDDMCDS43FE3AU9W6IW","","null","<img src=""img/land1.png"" style=""width:200px; border:14px solid green;"">","null","","","","","","","","","",""
"","image-keyboard-response","236","145218","0.0-236.0","36U2A8VAG2LAOCK0AGP904Y4T91KY5","A37QFZ8I1TGH2C","3XT3KXP24ZKFDDMCDS43FE3AU9W6IW","","640.1999999880791","img/land5.png","76","641.5","3","1","3","2","0.8,0.2,0.2,0.2,0.8,0.2,0.2,0.2,0.8","0.8,0.2,0.2,0.2,0.8,0.2,0.2,0.2,0.8","1","",""
"","html-keyboard-response","237","145520","0.0-237.0","36U2A8VAG2LAOCK0AGP904Y4T91KY5","A37QFZ8I1TGH2C","3XT3KXP24ZKFDDMCDS43FE3AU9W6IW","","null","<img src=""img/land5.png"" style=""width:200px; border:14px solid green;"">","null","","","","","","","","","",""
"","image-keyboard-response","238","146202","0.0-238.0","36U2A8VAG2LAOCK0AGP904Y4T91KY5","A37QFZ8I1TGH2C","3XT3KXP24ZKFDDMCDS43FE3AU9W6IW","","680.5999999642372","img/land1.png","74","681.6999999880791","1","1","1","2","0.8,0.2,0.2,0.2,0.8,0.2,0.2,0.2,0.8","0.8,0.2,0.2,0.2,0.8,0.2,0.2,0.2,0.8","1","",""
"","html-keyboard-response","239","146504","0.0-239.0","36U2A8VAG2LAOCK0AGP904Y4T91KY5","A37QFZ8I1TGH2C","3XT3KXP24ZKFDDMCDS43FE3AU9W6IW","","null","<img src=""img/land1.png"" style=""width:200px; border:14px solid green;"">","null","","","","","","","","","",""
"","image-keyboard-response","240","147483","0.0-240.0","36U2A8VAG2LAOCK0AGP904Y4T91KY5","A37QFZ8I1TGH2C","3XT3KXP24ZKFDDMCDS43FE3AU9W6IW","","977.8000000119209","img/land1.png","74","978.9000000357628","1","1","1","2","0.8,0.2,0.2,0.2,0.8,0.2,0.2,0.2,0.8","0.8,0.2,0.2,0.2,0.8,0.2,0.2,0.2,0.8","1","",""
"","html-keyboard-response","241","147785","0.0-241.0","36U2A8VAG2LAOCK0AGP904Y4T91KY5","A37QFZ8I1TGH2C","3XT3KXP24ZKFDDMCDS43FE3AU9W6IW","","null","<img src=""img/land1.png"" style=""width:200px; border:14px solid green;"">","null","","","","","","","","","",""
"","image-keyboard-response","242","148266","0.0-242.0","36U2A8VAG2LAOCK0AGP904Y4T91KY5","A37QFZ8I1TGH2C","3XT3KXP24ZKFDDMCDS43FE3AU9W6IW","","480.7999999523163","img/land1.png","74","481.5999999642372","1","1","1","2","0.8,0.2,0.2,0.2,0.8,0.2,0.2,0.2,0.8","0.8,0.2,0.2,0.2,0.8,0.2,0.2,0.2,0.8","1","",""
"","html-keyboard-response","243","148568","0.0-243.0","36U2A8VAG2LAOCK0AGP904Y4T91KY5","A37QFZ8I1TGH2C","3XT3KXP24ZKFDDMCDS43FE3AU9W6IW","","null","<img src=""img/land1.png"" style=""width:200px; border:14px solid green;"">","null","","","","","","","","","",""
"","image-keyboard-response","244","148866","0.0-244.0","36U2A8VAG2LAOCK0AGP904Y4T91KY5","A37QFZ8I1TGH2C","3XT3KXP24ZKFDDMCDS43FE3AU9W6IW","","296.89999997615814","img/land1.png","74","297.5999999642372","1","0","1","2","0.8,0.2,0.2,0.2,0.8,0.2,0.2,0.2,0.8","0.8,0.2,0.2,0.2,0.8,0.2,0.2,0.2,0.8","1","",""
"","html-keyboard-response","245","149167","0.0-245.0","36U2A8VAG2LAOCK0AGP904Y4T91KY5","A37QFZ8I1TGH2C","3XT3KXP24ZKFDDMCDS43FE3AU9W6IW","","null","<img src=""img/land1.png"" style=""width:200px;border:14px solid red;"">","null","","","","","","","","","",""
"","image-keyboard-response","246","149915","0.0-246.0","36U2A8VAG2LAOCK0AGP904Y4T91KY5","A37QFZ8I1TGH2C","3XT3KXP24ZKFDDMCDS43FE3AU9W6IW","","746.6999999880791","img/land5.png","76","747.5","3","0","3","2","0.8,0.2,0.2,0.2,0.8,0.2,0.2,0.2,0.8","0.8,0.2,0.2,0.2,0.8,0.2,0.2,0.2,0.8","1","",""
"","html-keyboard-response","247","150218","0.0-247.0","36U2A8VAG2LAOCK0AGP904Y4T91KY5","A37QFZ8I1TGH2C","3XT3KXP24ZKFDDMCDS43FE3AU9W6IW","","null","<img src=""img/land5.png"" style=""width:200px;border:14px solid red;"">","null","","","","","","","","","",""
"","image-keyboard-response","248","150890","0.0-248.0","36U2A8VAG2LAOCK0AGP904Y4T91KY5","A37QFZ8I1TGH2C","3XT3KXP24ZKFDDMCDS43FE3AU9W6IW","","671.1999999880791","img/land1.png","74","671.9000000357628","1","1","1","2","0.8,0.2,0.2,0.2,0.8,0.2,0.2,0.2,0.8","0.8,0.2,0.2,0.2,0.8,0.2,0.2,0.2,0.8","1","",""
"","html-keyboard-response","249","151192","0.0-249.0","36U2A8VAG2LAOCK0AGP904Y4T91KY5","A37QFZ8I1TGH2C","3XT3KXP24ZKFDDMCDS43FE3AU9W6IW","","null","<img src=""img/land1.png"" style=""width:200px; border:14px solid green;"">","null","","","","","","","","","",""
"","image-keyboard-response","250","151770","0.0-250.0","36U2A8VAG2LAOCK0AGP904Y4T91KY5","A37QFZ8I1TGH2C","3XT3KXP24ZKFDDMCDS43FE3AU9W6IW","","577.1000000238419","img/land1.png","74","578.0999999642372","1","1","1","2","0.8,0.2,0.2,0.2,0.8,0.2,0.2,0.2,0.8","0.8,0.2,0.2,0.2,0.8,0.2,0.2,0.2,0.8","1","",""
"","html-keyboard-response","251","152072","0.0-251.0","36U2A8VAG2LAOCK0AGP904Y4T91KY5","A37QFZ8I1TGH2C","3XT3KXP24ZKFDDMCDS43FE3AU9W6IW","","null","<img src=""img/land1.png"" style=""width:200px; border:14px solid green;"">","null","","","","","","","","","",""
"","image-keyboard-response","252","152547","0.0-252.0","36U2A8VAG2LAOCK0AGP904Y4T91KY5","A37QFZ8I1TGH2C","3XT3KXP24ZKFDDMCDS43FE3AU9W6IW","","473.5","img/land1.png","74","474.5","1","1","1","2","0.8,0.2,0.2,0.2,0.8,0.2,0.2,0.2,0.8","0.8,0.2,0.2,0.2,0.8,0.2,0.2,0.2,0.8","1","",""
"","html-keyboard-response","253","152849","0.0-253.0","36U2A8VAG2LAOCK0AGP904Y4T91KY5","A37QFZ8I1TGH2C","3XT3KXP24ZKFDDMCDS43FE3AU9W6IW","","null","<img src=""img/land1.png"" style=""width:200px; border:14px solid green;"">","null","","","","","","","","","",""
"","image-keyboard-response","254","153562","0.0-254.0","36U2A8VAG2LAOCK0AGP904Y4T91KY5","A37QFZ8I1TGH2C","3XT3KXP24ZKFDDMCDS43FE3AU9W6IW","","712.4000000357628","img/land5.png","76","713.3000000119209","3","1","3","2","0.8,0.2,0.2,0.2,0.8,0.2,0.2,0.2,0.8","0.8,0.2,0.2,0.2,0.8,0.2,0.2,0.2,0.8","1","",""
"","html-keyboard-response","255","153863","0.0-255.0","36U2A8VAG2LAOCK0AGP904Y4T91KY5","A37QFZ8I1TGH2C","3XT3KXP24ZKFDDMCDS43FE3AU9W6IW","","null","<img src=""img/land5.png"" style=""width:200px; border:14px solid green;"">","null","","","","","","","","","",""
"","image-keyboard-response","256","154563","0.0-256.0","36U2A8VAG2LAOCK0AGP904Y4T91KY5","A37QFZ8I1TGH2C","3XT3KXP24ZKFDDMCDS43FE3AU9W6IW","","698.1000000238419","img/land1.png","74","699.1000000238419","1","0","1","2","0.8,0.2,0.2,0.2,0.8,0.2,0.2,0.2,0.8","0.8,0.2,0.2,0.2,0.8,0.2,0.2,0.2,0.8","1","",""
"","html-keyboard-response","257","154865","0.0-257.0","36U2A8VAG2LAOCK0AGP904Y4T91KY5","A37QFZ8I1TGH2C","3XT3KXP24ZKFDDMCDS43FE3AU9W6IW","","null","<img src=""img/land1.png"" style=""width:200px;border:14px solid red;"">","null","","","","","","","","","",""
"","image-keyboard-response","258","155586","0.0-258.0","36U2A8VAG2LAOCK0AGP904Y4T91KY5","A37QFZ8I1TGH2C","3XT3KXP24ZKFDDMCDS43FE3AU9W6IW","","720.6999999880791","img/land5.png","76","721.6999999880791","3","1","3","2","0.8,0.2,0.2,0.2,0.8,0.2,0.2,0.2,0.8","0.8,0.2,0.2,0.2,0.8,0.2,0.2,0.2,0.8","1","",""
"","html-keyboard-response","259","155889","0.0-259.0","36U2A8VAG2LAOCK0AGP904Y4T91KY5","A37QFZ8I1TGH2C","3XT3KXP24ZKFDDMCDS43FE3AU9W6IW","","null","<img src=""img/land5.png"" style=""width:200px; border:14px solid green;"">","null","","","","","","","","","",""
"","image-keyboard-response","260","156466","0.0-260.0","36U2A8VAG2LAOCK0AGP904Y4T91KY5","A37QFZ8I1TGH2C","3XT3KXP24ZKFDDMCDS43FE3AU9W6IW","","576.4000000357628","img/land1.png","74","577.6999999880791","1","1","1","2","0.8,0.2,0.2,0.2,0.8,0.2,0.2,0.2,0.8","0.8,0.2,0.2,0.2,0.8,0.2,0.2,0.2,0.8","1","",""
"","html-keyboard-response","261","156768","0.0-261.0","36U2A8VAG2LAOCK0AGP904Y4T91KY5","A37QFZ8I1TGH2C","3XT3KXP24ZKFDDMCDS43FE3AU9W6IW","","null","<img src=""img/land1.png"" style=""width:200px; border:14px solid green;"">","null","","","","","","","","","",""
"","image-keyboard-response","262","157395","0.0-262.0","36U2A8VAG2LAOCK0AGP904Y4T91KY5","A37QFZ8I1TGH2C","3XT3KXP24ZKFDDMCDS43FE3AU9W6IW","","625.1000000238419","img/land6.png","75","626.0999999642372","2","1","2","2","0.8,0.2,0.2,0.2,0.8,0.2,0.2,0.2,0.8","0.8,0.2,0.2,0.2,0.8,0.2,0.2,0.2,0.8","1","",""
"","html-keyboard-response","263","157697","0.0-263.0","36U2A8VAG2LAOCK0AGP904Y4T91KY5","A37QFZ8I1TGH2C","3XT3KXP24ZKFDDMCDS43FE3AU9W6IW","","null","<img src=""img/land6.png"" style=""width:200px; border:14px solid green;"">","null","","","","","","","","","",""
"","image-keyboard-response","264","158267","0.0-264.0","36U2A8VAG2LAOCK0AGP904Y4T91KY5","A37QFZ8I1TGH2C","3XT3KXP24ZKFDDMCDS43FE3AU9W6IW","","567.9000000357628","img/land1.png","74","569.1999999880791","1","1","1","2","0.8,0.2,0.2,0.2,0.8,0.2,0.2,0.2,0.8","0.8,0.2,0.2,0.2,0.8,0.2,0.2,0.2,0.8","1","",""
"","html-keyboard-response","265","158569","0.0-265.0","36U2A8VAG2LAOCK0AGP904Y4T91KY5","A37QFZ8I1TGH2C","3XT3KXP24ZKFDDMCDS43FE3AU9W6IW","","null","<img src=""img/land1.png"" style=""width:200px; border:14px solid green;"">","null","","","","","","","","","",""
"","image-keyboard-response","266","159027","0.0-266.0","36U2A8VAG2LAOCK0AGP904Y4T91KY5","A37QFZ8I1TGH2C","3XT3KXP24ZKFDDMCDS43FE3AU9W6IW","","456.69999998807907","img/land1.png","74","457.69999998807907","1","1","1","2","0.8,0.2,0.2,0.2,0.8,0.2,0.2,0.2,0.8","0.8,0.2,0.2,0.2,0.8,0.2,0.2,0.2,0.8","1","",""
"","html-keyboard-response","267","159329","0.0-267.0","36U2A8VAG2LAOCK0AGP904Y4T91KY5","A37QFZ8I1TGH2C","3XT3KXP24ZKFDDMCDS43FE3AU9W6IW","","null","<img src=""img/land1.png"" style=""width:200px; border:14px solid green;"">","null","","","","","","","","","",""
"","image-keyboard-response","268","159755","0.0-268.0","36U2A8VAG2LAOCK0AGP904Y4T91KY5","A37QFZ8I1TGH2C","3XT3KXP24ZKFDDMCDS43FE3AU9W6IW","","424.5","img/land1.png","74","425.39999997615814","1","0","1","2","0.8,0.2,0.2,0.2,0.8,0.2,0.2,0.2,0.8","0.8,0.2,0.2,0.2,0.8,0.2,0.2,0.2,0.8","1","",""
"","html-keyboard-response","269","160063","0.0-269.0","36U2A8VAG2LAOCK0AGP904Y4T91KY5","A37QFZ8I1TGH2C","3XT3KXP24ZKFDDMCDS43FE3AU9W6IW","","null","<img src=""img/land1.png"" style=""width:200px;border:14px solid red;"">","null","","","","","","","","","",""
"","image-keyboard-response","270","160578","0.0-270.0","36U2A8VAG2LAOCK0AGP904Y4T91KY5","A37QFZ8I1TGH2C","3XT3KXP24ZKFDDMCDS43FE3AU9W6IW","","515","img/land1.png","74","515.9000000357628","1","1","1","2","0.8,0.2,0.2,0.2,0.8,0.2,0.2,0.2,0.8","0.8,0.2,0.2,0.2,0.8,0.2,0.2,0.2,0.8","1","",""
"","html-keyboard-response","271","160881","0.0-271.0","36U2A8VAG2LAOCK0AGP904Y4T91KY5","A37QFZ8I1TGH2C","3XT3KXP24ZKFDDMCDS43FE3AU9W6IW","","null","<img src=""img/land1.png"" style=""width:200px; border:14px solid green;"">","null","","","","","","","","","",""
"","image-keyboard-response","272","161506","0.0-272.0","36U2A8VAG2LAOCK0AGP904Y4T91KY5","A37QFZ8I1TGH2C","3XT3KXP24ZKFDDMCDS43FE3AU9W6IW","","624.8999999761581","img/land5.png","76","625.8000000119209","3","1","3","2","0.8,0.2,0.2,0.2,0.8,0.2,0.2,0.2,0.8","0.8,0.2,0.2,0.2,0.8,0.2,0.2,0.2,0.8","1","",""
"","html-keyboard-response","273","161808","0.0-273.0","36U2A8VAG2LAOCK0AGP904Y4T91KY5","A37QFZ8I1TGH2C","3XT3KXP24ZKFDDMCDS43FE3AU9W6IW","","null","<img src=""img/land5.png"" style=""width:200px; border:14px solid green;"">","null","","","","","","","","","",""
"","image-keyboard-response","274","162450","0.0-274.0","36U2A8VAG2LAOCK0AGP904Y4T91KY5","A37QFZ8I1TGH2C","3XT3KXP24ZKFDDMCDS43FE3AU9W6IW","","641.3000000119209","img/land1.png","74","642.2000000476837","1","0","1","2","0.8,0.2,0.2,0.2,0.8,0.2,0.2,0.2,0.8","0.8,0.2,0.2,0.2,0.8,0.2,0.2,0.2,0.8","1","",""
"","html-keyboard-response","275","162752","0.0-275.0","36U2A8VAG2LAOCK0AGP904Y4T91KY5","A37QFZ8I1TGH2C","3XT3KXP24ZKFDDMCDS43FE3AU9W6IW","","null","<img src=""img/land1.png"" style=""width:200px;border:14px solid red;"">","null","","","","","","","","","",""
"","image-keyboard-response","276","163074","0.0-276.0","36U2A8VAG2LAOCK0AGP904Y4T91KY5","A37QFZ8I1TGH2C","3XT3KXP24ZKFDDMCDS43FE3AU9W6IW","","320.9000000357628","img/land1.png","74","321.89999997615814","1","1","1","2","0.8,0.2,0.2,0.2,0.8,0.2,0.2,0.2,0.8","0.8,0.2,0.2,0.2,0.8,0.2,0.2,0.2,0.8","1","",""
"","html-keyboard-response","277","163376","0.0-277.0","36U2A8VAG2LAOCK0AGP904Y4T91KY5","A37QFZ8I1TGH2C","3XT3KXP24ZKFDDMCDS43FE3AU9W6IW","","null","<img src=""img/land1.png"" style=""width:200px; border:14px solid green;"">","null","","","","","","","","","",""
"","image-keyboard-response","278","164139","0.0-278.0","36U2A8VAG2LAOCK0AGP904Y4T91KY5","A37QFZ8I1TGH2C","3XT3KXP24ZKFDDMCDS43FE3AU9W6IW","","761.2999999523163","img/land5.png","76","762.5999999642372","3","1","3","2","0.8,0.2,0.2,0.2,0.8,0.2,0.2,0.2,0.8","0.8,0.2,0.2,0.2,0.8,0.2,0.2,0.2,0.8","1","",""
"","html-keyboard-response","279","164441","0.0-279.0","36U2A8VAG2LAOCK0AGP904Y4T91KY5","A37QFZ8I1TGH2C","3XT3KXP24ZKFDDMCDS43FE3AU9W6IW","","null","<img src=""img/land5.png"" style=""width:200px; border:14px solid green;"">","null","","","","","","","","","",""
"","image-keyboard-response","280","165178","0.0-280.0","36U2A8VAG2LAOCK0AGP904Y4T91KY5","A37QFZ8I1TGH2C","3XT3KXP24ZKFDDMCDS43FE3AU9W6IW","","736.0999999642372","img/land1.png","74","737.5","1","1","1","2","0.8,0.2,0.2,0.2,0.8,0.2,0.2,0.2,0.8","0.8,0.2,0.2,0.2,0.8,0.2,0.2,0.2,0.8","1","",""
"","html-keyboard-response","281","165493","0.0-281.0","36U2A8VAG2LAOCK0AGP904Y4T91KY5","A37QFZ8I1TGH2C","3XT3KXP24ZKFDDMCDS43FE3AU9W6IW","","null","<img src=""img/land1.png"" style=""width:200px; border:14px solid green;"">","null","","","","","","","","","",""
"","image-keyboard-response","282","166067","0.0-282.0","36U2A8VAG2LAOCK0AGP904Y4T91KY5","A37QFZ8I1TGH2C","3XT3KXP24ZKFDDMCDS43FE3AU9W6IW","","572.4000000357628","img/land1.png","74","573.7000000476837","1","1","1","2","0.8,0.2,0.2,0.2,0.8,0.2,0.2,0.2,0.8","0.8,0.2,0.2,0.2,0.8,0.2,0.2,0.2,0.8","1","",""
"","html-keyboard-response","283","166368","0.0-283.0","36U2A8VAG2LAOCK0AGP904Y4T91KY5","A37QFZ8I1TGH2C","3XT3KXP24ZKFDDMCDS43FE3AU9W6IW","","null","<img src=""img/land1.png"" style=""width:200px; border:14px solid green;"">","null","","","","","","","","","",""
"","image-keyboard-response","284","166739","0.0-284.0","36U2A8VAG2LAOCK0AGP904Y4T91KY5","A37QFZ8I1TGH2C","3XT3KXP24ZKFDDMCDS43FE3AU9W6IW","","369","img/land1.png","74","370.10000002384186","1","1","1","2","0.8,0.2,0.2,0.2,0.8,0.2,0.2,0.2,0.8","0.8,0.2,0.2,0.2,0.8,0.2,0.2,0.2,0.8","1","",""
"","html-keyboard-response","285","167040","0.0-285.0","36U2A8VAG2LAOCK0AGP904Y4T91KY5","A37QFZ8I1TGH2C","3XT3KXP24ZKFDDMCDS43FE3AU9W6IW","","null","<img src=""img/land1.png"" style=""width:200px; border:14px solid green;"">","null","","","","","","","","","",""
"","image-keyboard-response","286","167730","0.0-286.0","36U2A8VAG2LAOCK0AGP904Y4T91KY5","A37QFZ8I1TGH2C","3XT3KXP24ZKFDDMCDS43FE3AU9W6IW","","688.2000000476837","img/land6.png","75","689.3999999761581","2","1","2","2","0.8,0.2,0.2,0.2,0.8,0.2,0.2,0.2,0.8","0.8,0.2,0.2,0.2,0.8,0.2,0.2,0.2,0.8","1","",""
"","html-keyboard-response","287","168031","0.0-287.0","36U2A8VAG2LAOCK0AGP904Y4T91KY5","A37QFZ8I1TGH2C","3XT3KXP24ZKFDDMCDS43FE3AU9W6IW","","null","<img src=""img/land6.png"" style=""width:200px; border:14px solid green;"">","null","","","","","","","","","",""
"","image-keyboard-response","288","168723","0.0-288.0","36U2A8VAG2LAOCK0AGP904Y4T91KY5","A37QFZ8I1TGH2C","3XT3KXP24ZKFDDMCDS43FE3AU9W6IW","","690.1000000238419","img/land5.png","76","691","3","1","3","2","0.8,0.2,0.2,0.2,0.8,0.2,0.2,0.2,0.8","0.8,0.2,0.2,0.2,0.8,0.2,0.2,0.2,0.8","1","",""
"","html-keyboard-response","289","169024","0.0-289.0","36U2A8VAG2LAOCK0AGP904Y4T91KY5","A37QFZ8I1TGH2C","3XT3KXP24ZKFDDMCDS43FE3AU9W6IW","","null","<img src=""img/land5.png"" style=""width:200px; border:14px solid green;"">","null","","","","","","","","","",""
"","image-keyboard-response","290","169651","0.0-290.0","36U2A8VAG2LAOCK0AGP904Y4T91KY5","A37QFZ8I1TGH2C","3XT3KXP24ZKFDDMCDS43FE3AU9W6IW","","624.6000000238419","img/land5.png","76","626","3","1","3","2","0.8,0.2,0.2,0.2,0.8,0.2,0.2,0.2,0.8","0.8,0.2,0.2,0.2,0.8,0.2,0.2,0.2,0.8","1","",""
"","html-keyboard-response","291","169952","0.0-291.0","36U2A8VAG2LAOCK0AGP904Y4T91KY5","A37QFZ8I1TGH2C","3XT3KXP24ZKFDDMCDS43FE3AU9W6IW","","null","<img src=""img/land5.png"" style=""width:200px; border:14px solid green;"">","null","","","","","","","","","",""
"","image-keyboard-response","292","170730","0.0-292.0","36U2A8VAG2LAOCK0AGP904Y4T91KY5","A37QFZ8I1TGH2C","3XT3KXP24ZKFDDMCDS43FE3AU9W6IW","","776.9000000357628","img/land6.png","75","777.8999999761581","2","1","2","2","0.8,0.2,0.2,0.2,0.8,0.2,0.2,0.2,0.8","0.8,0.2,0.2,0.2,0.8,0.2,0.2,0.2,0.8","1","",""
"","html-keyboard-response","293","171032","0.0-293.0","36U2A8VAG2LAOCK0AGP904Y4T91KY5","A37QFZ8I1TGH2C","3XT3KXP24ZKFDDMCDS43FE3AU9W6IW","","null","<img src=""img/land6.png"" style=""width:200px; border:14px solid green;"">","null","","","","","","","","","",""
"","image-keyboard-response","294","171690","0.0-294.0","36U2A8VAG2LAOCK0AGP904Y4T91KY5","A37QFZ8I1TGH2C","3XT3KXP24ZKFDDMCDS43FE3AU9W6IW","","657.2000000476837","img/land1.png","74","658.0999999642372","1","1","1","2","0.8,0.2,0.2,0.2,0.8,0.2,0.2,0.2,0.8","0.8,0.2,0.2,0.2,0.8,0.2,0.2,0.2,0.8","1","",""
"","html-keyboard-response","295","171992","0.0-295.0","36U2A8VAG2LAOCK0AGP904Y4T91KY5","A37QFZ8I1TGH2C","3XT3KXP24ZKFDDMCDS43FE3AU9W6IW","","null","<img src=""img/land1.png"" style=""width:200px; border:14px solid green;"">","null","","","","","","","","","",""
"","image-keyboard-response","296","172658","0.0-296.0","36U2A8VAG2LAOCK0AGP904Y4T91KY5","A37QFZ8I1TGH2C","3XT3KXP24ZKFDDMCDS43FE3AU9W6IW","","664.4000000357628","img/land1.png","74","665.5","1","1","1","2","0.8,0.2,0.2,0.2,0.8,0.2,0.2,0.2,0.8","0.8,0.2,0.2,0.2,0.8,0.2,0.2,0.2,0.8","1","",""
"","html-keyboard-response","297","172960","0.0-297.0","36U2A8VAG2LAOCK0AGP904Y4T91KY5","A37QFZ8I1TGH2C","3XT3KXP24ZKFDDMCDS43FE3AU9W6IW","","null","<img src=""img/land1.png"" style=""width:200px; border:14px solid green;"">","null","","","","","","","","","",""
"","image-keyboard-response","298","173178","0.0-298.0","36U2A8VAG2LAOCK0AGP904Y4T91KY5","A37QFZ8I1TGH2C","3XT3KXP24ZKFDDMCDS43FE3AU9W6IW","","217.10000002384186","img/land1.png","74","217.89999997615814","1","0","1","2","0.8,0.2,0.2,0.2,0.8,0.2,0.2,0.2,0.8","0.8,0.2,0.2,0.2,0.8,0.2,0.2,0.2,0.8","1","",""
"","html-keyboard-response","299","173481","0.0-299.0","36U2A8VAG2LAOCK0AGP904Y4T91KY5","A37QFZ8I1TGH2C","3XT3KXP24ZKFDDMCDS43FE3AU9W6IW","","null","<img src=""img/land1.png"" style=""width:200px;border:14px solid red;"">","null","","","","","","","","","",""
"","image-keyboard-response","300","173850","0.0-300.0","36U2A8VAG2LAOCK0AGP904Y4T91KY5","A37QFZ8I1TGH2C","3XT3KXP24ZKFDDMCDS43FE3AU9W6IW","","367.9000000357628","img/land1.png","74","369.10000002384186","1","0","1","2","0.8,0.2,0.2,0.2,0.8,0.2,0.2,0.2,0.8","0.8,0.2,0.2,0.2,0.8,0.2,0.2,0.2,0.8","1","",""
"","html-keyboard-response","301","174152","0.0-301.0","36U2A8VAG2LAOCK0AGP904Y4T91KY5","A37QFZ8I1TGH2C","3XT3KXP24ZKFDDMCDS43FE3AU9W6IW","","null","<img src=""img/land1.png"" style=""width:200px;border:14px solid red;"">","null","","","","","","","","","",""
"","image-keyboard-response","302","174427","0.0-302.0","36U2A8VAG2LAOCK0AGP904Y4T91KY5","A37QFZ8I1TGH2C","3XT3KXP24ZKFDDMCDS43FE3AU9W6IW","","273.10000002384186","img/land2.png","74","274.5","1","1","1","1","0.8,0.2,0.2,0.2,0.8,0.2,0.2,0.2,0.8","0.8,0.2,0.2,0.2,0.8,0.2,0.2,0.2,0.8","1","",""
"","html-keyboard-response","303","174742","0.0-303.0","36U2A8VAG2LAOCK0AGP904Y4T91KY5","A37QFZ8I1TGH2C","3XT3KXP24ZKFDDMCDS43FE3AU9W6IW","","null","<img src=""img/land2.png"" style=""width:200px; border:14px solid green;"">","null","","","","","","","","","",""
"","image-keyboard-response","304","175898","0.0-304.0","36U2A8VAG2LAOCK0AGP904Y4T91KY5","A37QFZ8I1TGH2C","3XT3KXP24ZKFDDMCDS43FE3AU9W6IW","","1154.800000011921","img/land3.png","76","1156","3","1","2","1","0.8,0.2,0.2,0.2,0.8,0.2,0.2,0.2,0.8","0.8,0.2,0.2,0.2,0.8,0.2,0.2,0.2,0.8","1","",""
"","html-keyboard-response","305","176200","0.0-305.0","36U2A8VAG2LAOCK0AGP904Y4T91KY5","A37QFZ8I1TGH2C","3XT3KXP24ZKFDDMCDS43FE3AU9W6IW","","null","<img src=""img/land3.png"" style=""width:200px; border:14px solid green;"">","null","","","","","","","","","",""
"","image-keyboard-response","306","176834","0.0-306.0","36U2A8VAG2LAOCK0AGP904Y4T91KY5","A37QFZ8I1TGH2C","3XT3KXP24ZKFDDMCDS43FE3AU9W6IW","","632.1999999880791","img/land4.png","75","633.3000000119209","2","0","3","1","0.8,0.2,0.2,0.2,0.8,0.2,0.2,0.2,0.8","0.8,0.2,0.2,0.2,0.8,0.2,0.2,0.2,0.8","1","",""
"","html-keyboard-response","307","177135","0.0-307.0","36U2A8VAG2LAOCK0AGP904Y4T91KY5","A37QFZ8I1TGH2C","3XT3KXP24ZKFDDMCDS43FE3AU9W6IW","","null","<img src=""img/land4.png"" style=""width:200px;border:14px solid red;"">","null","","","","","","","","","",""
"","image-keyboard-response","308","177722","0.0-308.0","36U2A8VAG2LAOCK0AGP904Y4T91KY5","A37QFZ8I1TGH2C","3XT3KXP24ZKFDDMCDS43FE3AU9W6IW","","586.0999999642372","img/land3.png","76","587.1999999880791","3","1","2","1","0.8,0.2,0.2,0.2,0.8,0.2,0.2,0.2,0.8","0.8,0.2,0.2,0.2,0.8,0.2,0.2,0.2,0.8","1","",""
"","html-keyboard-response","309","178025","0.0-309.0","36U2A8VAG2LAOCK0AGP904Y4T91KY5","A37QFZ8I1TGH2C","3XT3KXP24ZKFDDMCDS43FE3AU9W6IW","","null","<img src=""img/land3.png"" style=""width:200px; border:14px solid green;"">","null","","","","","","","","","",""
"","image-keyboard-response","310","178546","0.0-310.0","36U2A8VAG2LAOCK0AGP904Y4T91KY5","A37QFZ8I1TGH2C","3XT3KXP24ZKFDDMCDS43FE3AU9W6IW","","519.8999999761581","img/land3.png","76","521","3","0","2","1","0.8,0.2,0.2,0.2,0.8,0.2,0.2,0.2,0.8","0.8,0.2,0.2,0.2,0.8,0.2,0.2,0.2,0.8","1","",""
"","html-keyboard-response","311","178848","0.0-311.0","36U2A8VAG2LAOCK0AGP904Y4T91KY5","A37QFZ8I1TGH2C","3XT3KXP24ZKFDDMCDS43FE3AU9W6IW","","null","<img src=""img/land3.png"" style=""width:200px;border:14px solid red;"">","null","","","","","","","","","",""
"","image-keyboard-response","312","179667","0.0-312.0","36U2A8VAG2LAOCK0AGP904Y4T91KY5","A37QFZ8I1TGH2C","3XT3KXP24ZKFDDMCDS43FE3AU9W6IW","","817.5999999642372","img/land2.png","74","818.5","1","0","1","1","0.8,0.2,0.2,0.2,0.8,0.2,0.2,0.2,0.8","0.8,0.2,0.2,0.2,0.8,0.2,0.2,0.2,0.8","1","",""
"","html-keyboard-response","313","179968","0.0-313.0","36U2A8VAG2LAOCK0AGP904Y4T91KY5","A37QFZ8I1TGH2C","3XT3KXP24ZKFDDMCDS43FE3AU9W6IW","","null","<img src=""img/land2.png"" style=""width:200px;border:14px solid red;"">","null","","","","","","","","","",""
"","image-keyboard-response","314","181058","0.0-314.0","36U2A8VAG2LAOCK0AGP904Y4T91KY5","A37QFZ8I1TGH2C","3XT3KXP24ZKFDDMCDS43FE3AU9W6IW","","1089","img/land4.png","74","1089.8999999761581","1","0","3","1","0.8,0.2,0.2,0.2,0.8,0.2,0.2,0.2,0.8","0.8,0.2,0.2,0.2,0.8,0.2,0.2,0.2,0.8","1","",""
"","html-keyboard-response","315","181360","0.0-315.0","36U2A8VAG2LAOCK0AGP904Y4T91KY5","A37QFZ8I1TGH2C","3XT3KXP24ZKFDDMCDS43FE3AU9W6IW","","null","<img src=""img/land4.png"" style=""width:200px;border:14px solid red;"">","null","","","","","","","","","",""
"","image-keyboard-response","316","182322","0.0-316.0","36U2A8VAG2LAOCK0AGP904Y4T91KY5","A37QFZ8I1TGH2C","3XT3KXP24ZKFDDMCDS43FE3AU9W6IW","","961.1999999880791","img/land2.png","74","962.0999999642372","1","1","1","1","0.8,0.2,0.2,0.2,0.8,0.2,0.2,0.2,0.8","0.8,0.2,0.2,0.2,0.8,0.2,0.2,0.2,0.8","1","",""
"","html-keyboard-response","317","182637","0.0-317.0","36U2A8VAG2LAOCK0AGP904Y4T91KY5","A37QFZ8I1TGH2C","3XT3KXP24ZKFDDMCDS43FE3AU9W6IW","","null","<img src=""img/land2.png"" style=""width:200px; border:14px solid green;"">","null","","","","","","","","","",""
"","image-keyboard-response","318","183163","0.0-318.0","36U2A8VAG2LAOCK0AGP904Y4T91KY5","A37QFZ8I1TGH2C","3XT3KXP24ZKFDDMCDS43FE3AU9W6IW","","524","img/land2.png","74","525.0999999642372","1","1","1","1","0.8,0.2,0.2,0.2,0.8,0.2,0.2,0.2,0.8","0.8,0.2,0.2,0.2,0.8,0.2,0.2,0.2,0.8","1","",""
"","html-keyboard-response","319","183465","0.0-319.0","36U2A8VAG2LAOCK0AGP904Y4T91KY5","A37QFZ8I1TGH2C","3XT3KXP24ZKFDDMCDS43FE3AU9W6IW","","null","<img src=""img/land2.png"" style=""width:200px; border:14px solid green;"">","null","","","","","","","","","",""
"","image-keyboard-response","320","184362","0.0-320.0","36U2A8VAG2LAOCK0AGP904Y4T91KY5","A37QFZ8I1TGH2C","3XT3KXP24ZKFDDMCDS43FE3AU9W6IW","","895.6999999880791","img/land3.png","76","896.8000000119209","3","0","2","1","0.8,0.2,0.2,0.2,0.8,0.2,0.2,0.2,0.8","0.8,0.2,0.2,0.2,0.8,0.2,0.2,0.2,0.8","1","",""
"","html-keyboard-response","321","184664","0.0-321.0","36U2A8VAG2LAOCK0AGP904Y4T91KY5","A37QFZ8I1TGH2C","3XT3KXP24ZKFDDMCDS43FE3AU9W6IW","","null","<img src=""img/land3.png"" style=""width:200px;border:14px solid red;"">","null","","","","","","","","","",""
"","image-keyboard-response","322","185050","0.0-322.0","36U2A8VAG2LAOCK0AGP904Y4T91KY5","A37QFZ8I1TGH2C","3XT3KXP24ZKFDDMCDS43FE3AU9W6IW","","385","img/land3.png","75","385.80000001192093","2","1","2","1","0.8,0.2,0.2,0.2,0.8,0.2,0.2,0.2,0.8","0.8,0.2,0.2,0.2,0.8,0.2,0.2,0.2,0.8","1","",""
"","html-keyboard-response","323","185353","0.0-323.0","36U2A8VAG2LAOCK0AGP904Y4T91KY5","A37QFZ8I1TGH2C","3XT3KXP24ZKFDDMCDS43FE3AU9W6IW","","null","<img src=""img/land3.png"" style=""width:200px; border:14px solid green;"">","null","","","","","","","","","",""
"","image-keyboard-response","324","185858","0.0-324.0","36U2A8VAG2LAOCK0AGP904Y4T91KY5","A37QFZ8I1TGH2C","3XT3KXP24ZKFDDMCDS43FE3AU9W6IW","","504.5","img/land3.png","75","505.4000000357628","2","1","2","1","0.8,0.2,0.2,0.2,0.8,0.2,0.2,0.2,0.8","0.8,0.2,0.2,0.2,0.8,0.2,0.2,0.2,0.8","1","",""
"","html-keyboard-response","325","186160","0.0-325.0","36U2A8VAG2LAOCK0AGP904Y4T91KY5","A37QFZ8I1TGH2C","3XT3KXP24ZKFDDMCDS43FE3AU9W6IW","","null","<img src=""img/land3.png"" style=""width:200px; border:14px solid green;"">","null","","","","","","","","","",""
"","image-keyboard-response","326","187138","0.0-326.0","36U2A8VAG2LAOCK0AGP904Y4T91KY5","A37QFZ8I1TGH2C","3XT3KXP24ZKFDDMCDS43FE3AU9W6IW","","976.6000000238419","img/land2.png","74","978.6000000238419","1","0","1","1","0.8,0.2,0.2,0.2,0.8,0.2,0.2,0.2,0.8","0.8,0.2,0.2,0.2,0.8,0.2,0.2,0.2,0.8","1","",""
"","html-keyboard-response","327","187441","0.0-327.0","36U2A8VAG2LAOCK0AGP904Y4T91KY5","A37QFZ8I1TGH2C","3XT3KXP24ZKFDDMCDS43FE3AU9W6IW","","null","<img src=""img/land2.png"" style=""width:200px;border:14px solid red;"">","null","","","","","","","","","",""
"","image-keyboard-response","328","188562","0.0-328.0","36U2A8VAG2LAOCK0AGP904Y4T91KY5","A37QFZ8I1TGH2C","3XT3KXP24ZKFDDMCDS43FE3AU9W6IW","","1119.8999999761581","img/land4.png","74","1121","1","0","3","1","0.8,0.2,0.2,0.2,0.8,0.2,0.2,0.2,0.8","0.8,0.2,0.2,0.2,0.8,0.2,0.2,0.2,0.8","1","",""
"","html-keyboard-response","329","188864","0.0-329.0","36U2A8VAG2LAOCK0AGP904Y4T91KY5","A37QFZ8I1TGH2C","3XT3KXP24ZKFDDMCDS43FE3AU9W6IW","","null","<img src=""img/land4.png"" style=""width:200px;border:14px solid red;"">","null","","","","","","","","","",""
"","image-keyboard-response","330","189706","0.0-330.0","36U2A8VAG2LAOCK0AGP904Y4T91KY5","A37QFZ8I1TGH2C","3XT3KXP24ZKFDDMCDS43FE3AU9W6IW","","840.4000000357628","img/land2.png","75","841.6000000238419","2","0","1","1","0.8,0.2,0.2,0.2,0.8,0.2,0.2,0.2,0.8","0.8,0.2,0.2,0.2,0.8,0.2,0.2,0.2,0.8","1","",""
"","html-keyboard-response","331","190007","0.0-331.0","36U2A8VAG2LAOCK0AGP904Y4T91KY5","A37QFZ8I1TGH2C","3XT3KXP24ZKFDDMCDS43FE3AU9W6IW","","null","<img src=""img/land2.png"" style=""width:200px;border:14px solid red;"">","null","","","","","","","","","",""
"","image-keyboard-response","332","191114","0.0-332.0","36U2A8VAG2LAOCK0AGP904Y4T91KY5","A37QFZ8I1TGH2C","3XT3KXP24ZKFDDMCDS43FE3AU9W6IW","","1105.3999999761581","img/land3.png","76","1106.5","3","0","2","1","0.8,0.2,0.2,0.2,0.8,0.2,0.2,0.2,0.8","0.8,0.2,0.2,0.2,0.8,0.2,0.2,0.2,0.8","1","",""
"","html-keyboard-response","333","191416","0.0-333.0","36U2A8VAG2LAOCK0AGP904Y4T91KY5","A37QFZ8I1TGH2C","3XT3KXP24ZKFDDMCDS43FE3AU9W6IW","","null","<img src=""img/land3.png"" style=""width:200px;border:14px solid red;"">","null","","","","","","","","","",""
"","image-keyboard-response","334","192642","0.0-334.0","36U2A8VAG2LAOCK0AGP904Y4T91KY5","A37QFZ8I1TGH2C","3XT3KXP24ZKFDDMCDS43FE3AU9W6IW","","1224.199999988079","img/land4.png","76","1225.3999999761581","3","1","3","1","0.8,0.2,0.2,0.2,0.8,0.2,0.2,0.2,0.8","0.8,0.2,0.2,0.2,0.8,0.2,0.2,0.2,0.8","1","",""
"","html-keyboard-response","335","192944","0.0-335.0","36U2A8VAG2LAOCK0AGP904Y4T91KY5","A37QFZ8I1TGH2C","3XT3KXP24ZKFDDMCDS43FE3AU9W6IW","","null","<img src=""img/land4.png"" style=""width:200px; border:14px solid green;"">","null","","","","","","","","","",""
"","image-keyboard-response","336","194146","0.0-336.0","36U2A8VAG2LAOCK0AGP904Y4T91KY5","A37QFZ8I1TGH2C","3XT3KXP24ZKFDDMCDS43FE3AU9W6IW","","1201.199999988079","img/land2.png","74","1202.0999999642372","1","1","1","1","0.8,0.2,0.2,0.2,0.8,0.2,0.2,0.2,0.8","0.8,0.2,0.2,0.2,0.8,0.2,0.2,0.2,0.8","1","",""
"","html-keyboard-response","337","194449","0.0-337.0","36U2A8VAG2LAOCK0AGP904Y4T91KY5","A37QFZ8I1TGH2C","3XT3KXP24ZKFDDMCDS43FE3AU9W6IW","","null","<img src=""img/land2.png"" style=""width:200px; border:14px solid green;"">","null","","","","","","","","","",""
"","image-keyboard-response","338","195098","0.0-338.0","36U2A8VAG2LAOCK0AGP904Y4T91KY5","A37QFZ8I1TGH2C","3XT3KXP24ZKFDDMCDS43FE3AU9W6IW","","647.9000000357628","img/land3.png","75","649.1000000238419","2","1","2","1","0.8,0.2,0.2,0.2,0.8,0.2,0.2,0.2,0.8","0.8,0.2,0.2,0.2,0.8,0.2,0.2,0.2,0.8","1","",""
"","html-keyboard-response","339","195400","0.0-339.0","36U2A8VAG2LAOCK0AGP904Y4T91KY5","A37QFZ8I1TGH2C","3XT3KXP24ZKFDDMCDS43FE3AU9W6IW","","null","<img src=""img/land3.png"" style=""width:200px; border:14px solid green;"">","null","","","","","","","","","",""
"","image-keyboard-response","340","196179","0.0-340.0","36U2A8VAG2LAOCK0AGP904Y4T91KY5","A37QFZ8I1TGH2C","3XT3KXP24ZKFDDMCDS43FE3AU9W6IW","","777.7999999523163","img/land3.png","75","778.6999999880791","2","0","2","1","0.8,0.2,0.2,0.2,0.8,0.2,0.2,0.2,0.8","0.8,0.2,0.2,0.2,0.8,0.2,0.2,0.2,0.8","1","",""
"","html-keyboard-response","341","196481","0.0-341.0","36U2A8VAG2LAOCK0AGP904Y4T91KY5","A37QFZ8I1TGH2C","3XT3KXP24ZKFDDMCDS43FE3AU9W6IW","","null","<img src=""img/land3.png"" style=""width:200px;border:14px solid red;"">","null","","","","","","","","","",""
"","image-keyboard-response","342","197354","0.0-342.0","36U2A8VAG2LAOCK0AGP904Y4T91KY5","A37QFZ8I1TGH2C","3XT3KXP24ZKFDDMCDS43FE3AU9W6IW","","871.6999999880791","img/land2.png","74","872.8000000119209","1","0","1","1","0.8,0.2,0.2,0.2,0.8,0.2,0.2,0.2,0.8","0.8,0.2,0.2,0.2,0.8,0.2,0.2,0.2,0.8","1","",""
"","html-keyboard-response","343","197655","0.0-343.0","36U2A8VAG2LAOCK0AGP904Y4T91KY5","A37QFZ8I1TGH2C","3XT3KXP24ZKFDDMCDS43FE3AU9W6IW","","null","<img src=""img/land2.png"" style=""width:200px;border:14px solid red;"">","null","","","","","","","","","",""
"","image-keyboard-response","344","198826","0.0-344.0","36U2A8VAG2LAOCK0AGP904Y4T91KY5","A37QFZ8I1TGH2C","3XT3KXP24ZKFDDMCDS43FE3AU9W6IW","","1169.5","img/land4.png","76","1170.6000000238419","3","1","3","1","0.8,0.2,0.2,0.2,0.8,0.2,0.2,0.2,0.8","0.8,0.2,0.2,0.2,0.8,0.2,0.2,0.2,0.8","1","",""
"","html-keyboard-response","345","199129","0.0-345.0","36U2A8VAG2LAOCK0AGP904Y4T91KY5","A37QFZ8I1TGH2C","3XT3KXP24ZKFDDMCDS43FE3AU9W6IW","","null","<img src=""img/land4.png"" style=""width:200px; border:14px solid green;"">","null","","","","","","","","","",""
"","image-keyboard-response","346","199586","0.0-346.0","36U2A8VAG2LAOCK0AGP904Y4T91KY5","A37QFZ8I1TGH2C","3XT3KXP24ZKFDDMCDS43FE3AU9W6IW","","456.30000001192093","img/land4.png","76","457.30000001192093","3","1","3","1","0.8,0.2,0.2,0.2,0.8,0.2,0.2,0.2,0.8","0.8,0.2,0.2,0.2,0.8,0.2,0.2,0.2,0.8","1","",""
"","html-keyboard-response","347","199889","0.0-347.0","36U2A8VAG2LAOCK0AGP904Y4T91KY5","A37QFZ8I1TGH2C","3XT3KXP24ZKFDDMCDS43FE3AU9W6IW","","null","<img src=""img/land4.png"" style=""width:200px; border:14px solid green;"">","null","","","","","","","","","",""
"","image-keyboard-response","348","200890","0.0-348.0","36U2A8VAG2LAOCK0AGP904Y4T91KY5","A37QFZ8I1TGH2C","3XT3KXP24ZKFDDMCDS43FE3AU9W6IW","","999.5","img/land2.png","74","1000.6000000238419","1","1","1","1","0.8,0.2,0.2,0.2,0.8,0.2,0.2,0.2,0.8","0.8,0.2,0.2,0.2,0.8,0.2,0.2,0.2,0.8","1","",""
"","html-keyboard-response","349","201191","0.0-349.0","36U2A8VAG2LAOCK0AGP904Y4T91KY5","A37QFZ8I1TGH2C","3XT3KXP24ZKFDDMCDS43FE3AU9W6IW","","null","<img src=""img/land2.png"" style=""width:200px; border:14px solid green;"">","null","","","","","","","","","",""
"","image-keyboard-response","350","202464","0.0-350.0","36U2A8VAG2LAOCK0AGP904Y4T91KY5","A37QFZ8I1TGH2C","3XT3KXP24ZKFDDMCDS43FE3AU9W6IW","","1271.300000011921","img/land4.png","74","1272.199999988079","1","0","3","1","0.8,0.2,0.2,0.2,0.8,0.2,0.2,0.2,0.8","0.8,0.2,0.2,0.2,0.8,0.2,0.2,0.2,0.8","1","",""
"","html-keyboard-response","351","202766","0.0-351.0","36U2A8VAG2LAOCK0AGP904Y4T91KY5","A37QFZ8I1TGH2C","3XT3KXP24ZKFDDMCDS43FE3AU9W6IW","","null","<img src=""img/land4.png"" style=""width:200px;border:14px solid red;"">","null","","","","","","","","","",""
"","image-keyboard-response","352","203330","0.0-352.0","36U2A8VAG2LAOCK0AGP904Y4T91KY5","A37QFZ8I1TGH2C","3XT3KXP24ZKFDDMCDS43FE3AU9W6IW","","563.1999999880791","img/land4.png","76","564.1000000238419","3","1","3","1","0.8,0.2,0.2,0.2,0.8,0.2,0.2,0.2,0.8","0.8,0.2,0.2,0.2,0.8,0.2,0.2,0.2,0.8","1","",""
"","html-keyboard-response","353","203631","0.0-353.0","36U2A8VAG2LAOCK0AGP904Y4T91KY5","A37QFZ8I1TGH2C","3XT3KXP24ZKFDDMCDS43FE3AU9W6IW","","null","<img src=""img/land4.png"" style=""width:200px; border:14px solid green;"">","null","","","","","","","","","",""
"","image-keyboard-response","354","204570","0.0-354.0","36U2A8VAG2LAOCK0AGP904Y4T91KY5","A37QFZ8I1TGH2C","3XT3KXP24ZKFDDMCDS43FE3AU9W6IW","","937.4000000357628","img/land3.png","76","938.6000000238419","3","1","2","1","0.8,0.2,0.2,0.2,0.8,0.2,0.2,0.2,0.8","0.8,0.2,0.2,0.2,0.8,0.2,0.2,0.2,0.8","1","",""
