"success","trial_type","trial_index","time_elapsed","internal_node_id","assignmentID","mturkID","hitID","view_history","rt","stimulus","key_press","reactionTime","a","r","s","cond","reward_cond","reward_cond_actual","reward_matrix_idx","responses","question_order"
"true","fullscreen","0","2475","0.0-0.0","3TUI152ZZC9Z997SBW2XI3Z3LPWQ17","A38YRR6XIUXMRB","3MXX6RQ9EVRTFC527Z18RDK8KW6P4R","","","","","","","","","","","","","",""
"","instructions","1","19312","0.0-1.0","3TUI152ZZC9Z997SBW2XI3Z3LPWQ17","A38YRR6XIUXMRB","3MXX6RQ9EVRTFC527Z18RDK8KW6P4R","[{""page_index"":0,""viewing_time"":2456.9000000953674},{""page_index"":1,""viewing_time"":1824.2000000476837},{""page_index"":2,""viewing_time"":2040.2999999523163},{""page_index"":3,""viewing_time"":6527.400000095367},{""page_index"":4,""viewing_time"":1368.6999998092651},{""page_index"":5,""viewing_time"":1167.6000001430511},{""page_index"":6,""viewing_time"":1449.2999999523163}]","16834.900000095367","","","","","","","","","","","",""
"","image-keyboard-response","2","20383","0.0-2.0","3TUI152ZZC9Z997SBW2XI3Z3LPWQ17","A38YRR6XIUXMRB","3MXX6RQ9EVRTFC527Z18RDK8KW6P4R","","1068.8999998569489","img/land5.png","76","1070.6000001430511","3","1","1","2","0.8,0.2,0.2,0.2,0.8,0.2,0.2,0.2,0.8","0.8,0.2,0.2,0.2,0.8,0.2,0.2,0.2,0.8","1","",""
"","html-keyboard-response","3","20696","0.0-3.0","3TUI152ZZC9Z997SBW2XI3Z3LPWQ17","A38YRR6XIUXMRB","3MXX6RQ9EVRTFC527Z18RDK8KW6P4R","","null","<img src=""img/land5.png"" style=""width:200px; border:14px solid green;"">","null","","","","","","","","","",""
"","image-keyboard-response","4","21405","0.0-4.0","3TUI152ZZC9Z997SBW2XI3Z3LPWQ17","A38YRR6XIUXMRB","3MXX6RQ9EVRTFC527Z18RDK8KW6P4R","","707","img/land3.png","75","708.8999998569489","2","1","2","2","0.8,0.2,0.2,0.2,0.8,0.2,0.2,0.2,0.8","0.8,0.2,0.2,0.2,0.8,0.2,0.2,0.2,0.8","1","",""
"","html-keyboard-response","5","21721","0.0-5.0","3TUI152ZZC9Z997SBW2XI3Z3LPWQ17","A38YRR6XIUXMRB","3MXX6RQ9EVRTFC527Z18RDK8KW6P4R","","null","<img src=""img/land3.png"" style=""width:200px; border:14px solid green;"">","null","","","","","","","","","",""
"","image-keyboard-response","6","22275","0.0-6.0","3TUI152ZZC9Z997SBW2XI3Z3LPWQ17","A38YRR6XIUXMRB","3MXX6RQ9EVRTFC527Z18RDK8KW6P4R","","550.7000000476837","img/land5.png","75","553.3999998569489","2","0","1","2","0.8,0.2,0.2,0.2,0.8,0.2,0.2,0.2,0.8","0.8,0.2,0.2,0.2,0.8,0.2,0.2,0.2,0.8","1","",""
"","html-keyboard-response","7","22591","0.0-7.0","3TUI152ZZC9Z997SBW2XI3Z3LPWQ17","A38YRR6XIUXMRB","3MXX6RQ9EVRTFC527Z18RDK8KW6P4R","","null","<img src=""img/land5.png"" style=""width:200px;border:14px solid red;"">","null","","","","","","","","","",""
"","image-keyboard-response","8","22917","0.0-8.0","3TUI152ZZC9Z997SBW2XI3Z3LPWQ17","A38YRR6XIUXMRB","3MXX6RQ9EVRTFC527Z18RDK8KW6P4R","","324","img/land5.png","76","325.60000014305115","3","0","1","2","0.8,0.2,0.2,0.2,0.8,0.2,0.2,0.2,0.8","0.8,0.2,0.2,0.2,0.8,0.2,0.2,0.2,0.8","1","",""
"","html-keyboard-response","9","23223","0.0-9.0","3TUI152ZZC9Z997SBW2XI3Z3LPWQ17","A38YRR6XIUXMRB","3MXX6RQ9EVRTFC527Z18RDK8KW6P4R","","null","<img src=""img/land5.png"" style=""width:200px;border:14px solid red;"">","null","","","","","","","","","",""
"","image-keyboard-response","10","23620","0.0-10.0","3TUI152ZZC9Z997SBW2XI3Z3LPWQ17","A38YRR6XIUXMRB","3MXX6RQ9EVRTFC527Z18RDK8KW6P4R","","395.5","img/land5.png","76","397.09999990463257","3","0","1","2","0.8,0.2,0.2,0.2,0.8,0.2,0.2,0.2,0.8","0.8,0.2,0.2,0.2,0.8,0.2,0.2,0.2,0.8","1","",""
"","html-keyboard-response","11","23931","0.0-11.0","3TUI152ZZC9Z997SBW2XI3Z3LPWQ17","A38YRR6XIUXMRB","3MXX6RQ9EVRTFC527Z18RDK8KW6P4R","","null","<img src=""img/land5.png"" style=""width:200px;border:14px solid red;"">","null","","","","","","","","","",""
"","image-keyboard-response","12","24201","0.0-12.0","3TUI152ZZC9Z997SBW2XI3Z3LPWQ17","A38YRR6XIUXMRB","3MXX6RQ9EVRTFC527Z18RDK8KW6P4R","","266.5","img/land5.png","74","269.10000014305115","1","1","1","2","0.8,0.2,0.2,0.2,0.8,0.2,0.2,0.2,0.8","0.8,0.2,0.2,0.2,0.8,0.2,0.2,0.2,0.8","1","",""
"","html-keyboard-response","13","24506","0.0-13.0","3TUI152ZZC9Z997SBW2XI3Z3LPWQ17","A38YRR6XIUXMRB","3MXX6RQ9EVRTFC527Z18RDK8KW6P4R","","null","<img src=""img/land5.png"" style=""width:200px; border:14px solid green;"">","null","","","","","","","","","",""
"","image-keyboard-response","14","25263","0.0-14.0","3TUI152ZZC9Z997SBW2XI3Z3LPWQ17","A38YRR6XIUXMRB","3MXX6RQ9EVRTFC527Z18RDK8KW6P4R","","755.4000000953674","img/land4.png","74","756.4000000953674","1","0","3","2","0.8,0.2,0.2,0.2,0.8,0.2,0.2,0.2,0.8","0.8,0.2,0.2,0.2,0.8,0.2,0.2,0.2,0.8","1","",""
"","html-keyboard-response","15","25567","0.0-15.0","3TUI152ZZC9Z997SBW2XI3Z3LPWQ17","A38YRR6XIUXMRB","3MXX6RQ9EVRTFC527Z18RDK8KW6P4R","","null","<img src=""img/land4.png"" style=""width:200px;border:14px solid red;"">","null","","","","","","","","","",""
"","image-keyboard-response","16","26053","0.0-16.0","3TUI152ZZC9Z997SBW2XI3Z3LPWQ17","A38YRR6XIUXMRB","3MXX6RQ9EVRTFC527Z18RDK8KW6P4R","","483.2999999523163","img/land3.png","74","485","1","1","2","2","0.8,0.2,0.2,0.2,0.8,0.2,0.2,0.2,0.8","0.8,0.2,0.2,0.2,0.8,0.2,0.2,0.2,0.8","1","",""
"","html-keyboard-response","17","26359","0.0-17.0","3TUI152ZZC9Z997SBW2XI3Z3LPWQ17","A38YRR6XIUXMRB","3MXX6RQ9EVRTFC527Z18RDK8KW6P4R","","null","<img src=""img/land3.png"" style=""width:200px; border:14px solid green;"">","null","","","","","","","","","",""
"","image-keyboard-response","18","26703","0.0-18.0","3TUI152ZZC9Z997SBW2XI3Z3LPWQ17","A38YRR6XIUXMRB","3MXX6RQ9EVRTFC527Z18RDK8KW6P4R","","341.2999999523163","img/land3.png","76","343.39999985694885","3","0","2","2","0.8,0.2,0.2,0.2,0.8,0.2,0.2,0.2,0.8","0.8,0.2,0.2,0.2,0.8,0.2,0.2,0.2,0.8","1","",""
"","html-keyboard-response","19","27012","0.0-19.0","3TUI152ZZC9Z997SBW2XI3Z3LPWQ17","A38YRR6XIUXMRB","3MXX6RQ9EVRTFC527Z18RDK8KW6P4R","","null","<img src=""img/land3.png"" style=""width:200px;border:14px solid red;"">","null","","","","","","","","","",""
"","image-keyboard-response","20","27474","0.0-20.0","3TUI152ZZC9Z997SBW2XI3Z3LPWQ17","A38YRR6XIUXMRB","3MXX6RQ9EVRTFC527Z18RDK8KW6P4R","","459.5","img/land5.png","75","460.89999985694885","2","0","1","2","0.8,0.2,0.2,0.2,0.8,0.2,0.2,0.2,0.8","0.8,0.2,0.2,0.2,0.8,0.2,0.2,0.2,0.8","1","",""
"","html-keyboard-response","21","27787","0.0-21.0","3TUI152ZZC9Z997SBW2XI3Z3LPWQ17","A38YRR6XIUXMRB","3MXX6RQ9EVRTFC527Z18RDK8KW6P4R","","null","<img src=""img/land5.png"" style=""width:200px;border:14px solid red;"">","null","","","","","","","","","",""
"","image-keyboard-response","22","28272","0.0-22.0","3TUI152ZZC9Z997SBW2XI3Z3LPWQ17","A38YRR6XIUXMRB","3MXX6RQ9EVRTFC527Z18RDK8KW6P4R","","483.7000000476837","img/land3.png","74","484.90000009536743","1","0","2","2","0.8,0.2,0.2,0.2,0.8,0.2,0.2,0.2,0.8","0.8,0.2,0.2,0.2,0.8,0.2,0.2,0.2,0.8","1","",""
"","html-keyboard-response","23","28576","0.0-23.0","3TUI152ZZC9Z997SBW2XI3Z3LPWQ17","A38YRR6XIUXMRB","3MXX6RQ9EVRTFC527Z18RDK8KW6P4R","","null","<img src=""img/land3.png"" style=""width:200px;border:14px solid red;"">","null","","","","","","","","","",""
"","image-keyboard-response","24","29078","0.0-24.0","3TUI152ZZC9Z997SBW2XI3Z3LPWQ17","A38YRR6XIUXMRB","3MXX6RQ9EVRTFC527Z18RDK8KW6P4R","","499.7999999523163","img/land5.png","75","500.7999999523163","2","0","1","2","0.8,0.2,0.2,0.2,0.8,0.2,0.2,0.2,0.8","0.8,0.2,0.2,0.2,0.8,0.2,0.2,0.2,0.8","1","",""
"","html-keyboard-response","25","29381","0.0-25.0","3TUI152ZZC9Z997SBW2XI3Z3LPWQ17","A38YRR6XIUXMRB","3MXX6RQ9EVRTFC527Z18RDK8KW6P4R","","null","<img src=""img/land5.png"" style=""width:200px;border:14px solid red;"">","null","","","","","","","","","",""
"","image-keyboard-response","26","29865","0.0-26.0","3TUI152ZZC9Z997SBW2XI3Z3LPWQ17","A38YRR6XIUXMRB","3MXX6RQ9EVRTFC527Z18RDK8KW6P4R","","482.40000009536743","img/land4.png","76","483.7000000476837","3","1","3","2","0.8,0.2,0.2,0.2,0.8,0.2,0.2,0.2,0.8","0.8,0.2,0.2,0.2,0.8,0.2,0.2,0.2,0.8","1","",""
"","html-keyboard-response","27","30168","0.0-27.0","3TUI152ZZC9Z997SBW2XI3Z3LPWQ17","A38YRR6XIUXMRB","3MXX6RQ9EVRTFC527Z18RDK8KW6P4R","","null","<img src=""img/land4.png"" style=""width:200px; border:14px solid green;"">","null","","","","","","","","","",""
"","image-keyboard-response","28","30630","0.0-28.0","3TUI152ZZC9Z997SBW2XI3Z3LPWQ17","A38YRR6XIUXMRB","3MXX6RQ9EVRTFC527Z18RDK8KW6P4R","","459.90000009536743","img/land5.png","76","461.59999990463257","3","0","1","2","0.8,0.2,0.2,0.2,0.8,0.2,0.2,0.2,0.8","0.8,0.2,0.2,0.2,0.8,0.2,0.2,0.2,0.8","1","",""
"","html-keyboard-response","29","30933","0.0-29.0","3TUI152ZZC9Z997SBW2XI3Z3LPWQ17","A38YRR6XIUXMRB","3MXX6RQ9EVRTFC527Z18RDK8KW6P4R","","null","<img src=""img/land5.png"" style=""width:200px;border:14px solid red;"">","null","","","","","","","","","",""
"","image-keyboard-response","30","31656","0.0-30.0","3TUI152ZZC9Z997SBW2XI3Z3LPWQ17","A38YRR6XIUXMRB","3MXX6RQ9EVRTFC527Z18RDK8KW6P4R","","720.5999999046326","img/land3.png","75","722.0999999046326","2","1","2","2","0.8,0.2,0.2,0.2,0.8,0.2,0.2,0.2,0.8","0.8,0.2,0.2,0.2,0.8,0.2,0.2,0.2,0.8","1","",""
"","html-keyboard-response","31","31959","0.0-31.0","3TUI152ZZC9Z997SBW2XI3Z3LPWQ17","A38YRR6XIUXMRB","3MXX6RQ9EVRTFC527Z18RDK8KW6P4R","","null","<img src=""img/land3.png"" style=""width:200px; border:14px solid green;"">","null","","","","","","","","","",""
"","image-keyboard-response","32","32658","0.0-32.0","3TUI152ZZC9Z997SBW2XI3Z3LPWQ17","A38YRR6XIUXMRB","3MXX6RQ9EVRTFC527Z18RDK8KW6P4R","","696.7000000476837","img/land5.png","76","698.0999999046326","3","1","1","2","0.8,0.2,0.2,0.2,0.8,0.2,0.2,0.2,0.8","0.8,0.2,0.2,0.2,0.8,0.2,0.2,0.2,0.8","1","",""
"","html-keyboard-response","33","32960","0.0-33.0","3TUI152ZZC9Z997SBW2XI3Z3LPWQ17","A38YRR6XIUXMRB","3MXX6RQ9EVRTFC527Z18RDK8KW6P4R","","null","<img src=""img/land5.png"" style=""width:200px; border:14px solid green;"">","null","","","","","","","","","",""
"","image-keyboard-response","34","33607","0.0-34.0","3TUI152ZZC9Z997SBW2XI3Z3LPWQ17","A38YRR6XIUXMRB","3MXX6RQ9EVRTFC527Z18RDK8KW6P4R","","644.5","img/land4.png","74","645.9000000953674","1","0","3","2","0.8,0.2,0.2,0.2,0.8,0.2,0.2,0.2,0.8","0.8,0.2,0.2,0.2,0.8,0.2,0.2,0.2,0.8","1","",""
"","html-keyboard-response","35","33910","0.0-35.0","3TUI152ZZC9Z997SBW2XI3Z3LPWQ17","A38YRR6XIUXMRB","3MXX6RQ9EVRTFC527Z18RDK8KW6P4R","","null","<img src=""img/land4.png"" style=""width:200px;border:14px solid red;"">","null","","","","","","","","","",""
"","image-keyboard-response","36","34345","0.0-36.0","3TUI152ZZC9Z997SBW2XI3Z3LPWQ17","A38YRR6XIUXMRB","3MXX6RQ9EVRTFC527Z18RDK8KW6P4R","","432.2000000476837","img/land5.png","75","434.5","2","0","1","2","0.8,0.2,0.2,0.2,0.8,0.2,0.2,0.2,0.8","0.8,0.2,0.2,0.2,0.8,0.2,0.2,0.2,0.8","1","",""
"","html-keyboard-response","37","34647","0.0-37.0","3TUI152ZZC9Z997SBW2XI3Z3LPWQ17","A38YRR6XIUXMRB","3MXX6RQ9EVRTFC527Z18RDK8KW6P4R","","null","<img src=""img/land5.png"" style=""width:200px;border:14px solid red;"">","null","","","","","","","","","",""
"","image-keyboard-response","38","35212","0.0-38.0","3TUI152ZZC9Z997SBW2XI3Z3LPWQ17","A38YRR6XIUXMRB","3MXX6RQ9EVRTFC527Z18RDK8KW6P4R","","563.0999999046326","img/land4.png","74","564.7000000476837","1","0","3","2","0.8,0.2,0.2,0.2,0.8,0.2,0.2,0.2,0.8","0.8,0.2,0.2,0.2,0.8,0.2,0.2,0.2,0.8","1","",""
"","html-keyboard-response","39","35515","0.0-39.0","3TUI152ZZC9Z997SBW2XI3Z3LPWQ17","A38YRR6XIUXMRB","3MXX6RQ9EVRTFC527Z18RDK8KW6P4R","","null","<img src=""img/land4.png"" style=""width:200px;border:14px solid red;"">","null","","","","","","","","","",""
"","image-keyboard-response","40","35947","0.0-40.0","3TUI152ZZC9Z997SBW2XI3Z3LPWQ17","A38YRR6XIUXMRB","3MXX6RQ9EVRTFC527Z18RDK8KW6P4R","","429.7000000476837","img/land5.png","76","431.2999999523163","3","0","1","2","0.8,0.2,0.2,0.2,0.8,0.2,0.2,0.2,0.8","0.8,0.2,0.2,0.2,0.8,0.2,0.2,0.2,0.8","1","",""
"","html-keyboard-response","41","36250","0.0-41.0","3TUI152ZZC9Z997SBW2XI3Z3LPWQ17","A38YRR6XIUXMRB","3MXX6RQ9EVRTFC527Z18RDK8KW6P4R","","null","<img src=""img/land5.png"" style=""width:200px;border:14px solid red;"">","null","","","","","","","","","",""
"","image-keyboard-response","42","36782","0.0-42.0","3TUI152ZZC9Z997SBW2XI3Z3LPWQ17","A38YRR6XIUXMRB","3MXX6RQ9EVRTFC527Z18RDK8KW6P4R","","530","img/land5.png","74","531.6000001430511","1","1","1","2","0.8,0.2,0.2,0.2,0.8,0.2,0.2,0.2,0.8","0.8,0.2,0.2,0.2,0.8,0.2,0.2,0.2,0.8","1","",""
"","html-keyboard-response","43","37084","0.0-43.0","3TUI152ZZC9Z997SBW2XI3Z3LPWQ17","A38YRR6XIUXMRB","3MXX6RQ9EVRTFC527Z18RDK8KW6P4R","","null","<img src=""img/land5.png"" style=""width:200px; border:14px solid green;"">","null","","","","","","","","","",""
"","image-keyboard-response","44","37435","0.0-44.0","3TUI152ZZC9Z997SBW2XI3Z3LPWQ17","A38YRR6XIUXMRB","3MXX6RQ9EVRTFC527Z18RDK8KW6P4R","","348.2999999523163","img/land5.png","74","349.7999999523163","1","1","1","2","0.8,0.2,0.2,0.2,0.8,0.2,0.2,0.2,0.8","0.8,0.2,0.2,0.2,0.8,0.2,0.2,0.2,0.8","1","",""
"","html-keyboard-response","45","37738","0.0-45.0","3TUI152ZZC9Z997SBW2XI3Z3LPWQ17","A38YRR6XIUXMRB","3MXX6RQ9EVRTFC527Z18RDK8KW6P4R","","null","<img src=""img/land5.png"" style=""width:200px; border:14px solid green;"">","null","","","","","","","","","",""
"","image-keyboard-response","46","38080","0.0-46.0","3TUI152ZZC9Z997SBW2XI3Z3LPWQ17","A38YRR6XIUXMRB","3MXX6RQ9EVRTFC527Z18RDK8KW6P4R","","339.5","img/land5.png","74","341","1","0","1","2","0.8,0.2,0.2,0.2,0.8,0.2,0.2,0.2,0.8","0.8,0.2,0.2,0.2,0.8,0.2,0.2,0.2,0.8","1","",""
"","html-keyboard-response","47","38383","0.0-47.0","3TUI152ZZC9Z997SBW2XI3Z3LPWQ17","A38YRR6XIUXMRB","3MXX6RQ9EVRTFC527Z18RDK8KW6P4R","","null","<img src=""img/land5.png"" style=""width:200px;border:14px solid red;"">","null","","","","","","","","","",""
"","image-keyboard-response","48","38875","0.0-48.0","3TUI152ZZC9Z997SBW2XI3Z3LPWQ17","A38YRR6XIUXMRB","3MXX6RQ9EVRTFC527Z18RDK8KW6P4R","","488.7000000476837","img/land5.png","75","491.2999999523163","2","0","1","2","0.8,0.2,0.2,0.2,0.8,0.2,0.2,0.2,0.8","0.8,0.2,0.2,0.2,0.8,0.2,0.2,0.2,0.8","1","",""
"","html-keyboard-response","49","39179","0.0-49.0","3TUI152ZZC9Z997SBW2XI3Z3LPWQ17","A38YRR6XIUXMRB","3MXX6RQ9EVRTFC527Z18RDK8KW6P4R","","null","<img src=""img/land5.png"" style=""width:200px;border:14px solid red;"">","null","","","","","","","","","",""
"","image-keyboard-response","50","39505","0.0-50.0","3TUI152ZZC9Z997SBW2XI3Z3LPWQ17","A38YRR6XIUXMRB","3MXX6RQ9EVRTFC527Z18RDK8KW6P4R","","323.7999999523163","img/land5.png","74","325","1","1","1","2","0.8,0.2,0.2,0.2,0.8,0.2,0.2,0.2,0.8","0.8,0.2,0.2,0.2,0.8,0.2,0.2,0.2,0.8","1","",""
"","html-keyboard-response","51","39808","0.0-51.0","3TUI152ZZC9Z997SBW2XI3Z3LPWQ17","A38YRR6XIUXMRB","3MXX6RQ9EVRTFC527Z18RDK8KW6P4R","","null","<img src=""img/land5.png"" style=""width:200px; border:14px solid green;"">","null","","","","","","","","","",""
"","image-keyboard-response","52","40114","0.0-52.0","3TUI152ZZC9Z997SBW2XI3Z3LPWQ17","A38YRR6XIUXMRB","3MXX6RQ9EVRTFC527Z18RDK8KW6P4R","","304.19999980926514","img/land5.png","74","305.5","1","0","1","2","0.8,0.2,0.2,0.2,0.8,0.2,0.2,0.2,0.8","0.8,0.2,0.2,0.2,0.8,0.2,0.2,0.2,0.8","1","",""
"","html-keyboard-response","53","40417","0.0-53.0","3TUI152ZZC9Z997SBW2XI3Z3LPWQ17","A38YRR6XIUXMRB","3MXX6RQ9EVRTFC527Z18RDK8KW6P4R","","null","<img src=""img/land5.png"" style=""width:200px;border:14px solid red;"">","null","","","","","","","","","",""
"","image-keyboard-response","54","41130","0.0-54.0","3TUI152ZZC9Z997SBW2XI3Z3LPWQ17","A38YRR6XIUXMRB","3MXX6RQ9EVRTFC527Z18RDK8KW6P4R","","710.2000000476837","img/land4.png","76","711.9000000953674","3","1","3","2","0.8,0.2,0.2,0.2,0.8,0.2,0.2,0.2,0.8","0.8,0.2,0.2,0.2,0.8,0.2,0.2,0.2,0.8","1","",""
"","html-keyboard-response","55","41432","0.0-55.0","3TUI152ZZC9Z997SBW2XI3Z3LPWQ17","A38YRR6XIUXMRB","3MXX6RQ9EVRTFC527Z18RDK8KW6P4R","","null","<img src=""img/land4.png"" style=""width:200px; border:14px solid green;"">","null","","","","","","","","","",""
"","image-keyboard-response","56","42106","0.0-56.0","3TUI152ZZC9Z997SBW2XI3Z3LPWQ17","A38YRR6XIUXMRB","3MXX6RQ9EVRTFC527Z18RDK8KW6P4R","","672.2999999523163","img/land5.png","74","673.4000000953674","1","1","1","2","0.8,0.2,0.2,0.2,0.8,0.2,0.2,0.2,0.8","0.8,0.2,0.2,0.2,0.8,0.2,0.2,0.2,0.8","1","",""
"","html-keyboard-response","57","42411","0.0-57.0","3TUI152ZZC9Z997SBW2XI3Z3LPWQ17","A38YRR6XIUXMRB","3MXX6RQ9EVRTFC527Z18RDK8KW6P4R","","null","<img src=""img/land5.png"" style=""width:200px; border:14px solid green;"">","null","","","","","","","","","",""
"","image-keyboard-response","58","43001","0.0-58.0","3TUI152ZZC9Z997SBW2XI3Z3LPWQ17","A38YRR6XIUXMRB","3MXX6RQ9EVRTFC527Z18RDK8KW6P4R","","586.2999999523163","img/land3.png","75","589.2000000476837","2","1","2","2","0.8,0.2,0.2,0.2,0.8,0.2,0.2,0.2,0.8","0.8,0.2,0.2,0.2,0.8,0.2,0.2,0.2,0.8","1","",""
"","html-keyboard-response","59","43303","0.0-59.0","3TUI152ZZC9Z997SBW2XI3Z3LPWQ17","A38YRR6XIUXMRB","3MXX6RQ9EVRTFC527Z18RDK8KW6P4R","","null","<img src=""img/land3.png"" style=""width:200px; border:14px solid green;"">","null","","","","","","","","","",""
"","image-keyboard-response","60","43744","0.0-60.0","3TUI152ZZC9Z997SBW2XI3Z3LPWQ17","A38YRR6XIUXMRB","3MXX6RQ9EVRTFC527Z18RDK8KW6P4R","","439.40000009536743","img/land3.png","75","440.7000000476837","2","1","2","2","0.8,0.2,0.2,0.2,0.8,0.2,0.2,0.2,0.8","0.8,0.2,0.2,0.2,0.8,0.2,0.2,0.2,0.8","1","",""
"","html-keyboard-response","61","44047","0.0-61.0","3TUI152ZZC9Z997SBW2XI3Z3LPWQ17","A38YRR6XIUXMRB","3MXX6RQ9EVRTFC527Z18RDK8KW6P4R","","null","<img src=""img/land3.png"" style=""width:200px; border:14px solid green;"">","null","","","","","","","","","",""
"","image-keyboard-response","62","44452","0.0-62.0","3TUI152ZZC9Z997SBW2XI3Z3LPWQ17","A38YRR6XIUXMRB","3MXX6RQ9EVRTFC527Z18RDK8KW6P4R","","402.80000019073486","img/land3.png","75","404.2000000476837","2","1","2","2","0.8,0.2,0.2,0.2,0.8,0.2,0.2,0.2,0.8","0.8,0.2,0.2,0.2,0.8,0.2,0.2,0.2,0.8","1","",""
"","html-keyboard-response","63","44754","0.0-63.0","3TUI152ZZC9Z997SBW2XI3Z3LPWQ17","A38YRR6XIUXMRB","3MXX6RQ9EVRTFC527Z18RDK8KW6P4R","","null","<img src=""img/land3.png"" style=""width:200px; border:14px solid green;"">","null","","","","","","","","","",""
"","image-keyboard-response","64","45587","0.0-64.0","3TUI152ZZC9Z997SBW2XI3Z3LPWQ17","A38YRR6XIUXMRB","3MXX6RQ9EVRTFC527Z18RDK8KW6P4R","","830.1999998092651","img/land4.png","76","831.5","3","1","3","2","0.8,0.2,0.2,0.2,0.8,0.2,0.2,0.2,0.8","0.8,0.2,0.2,0.2,0.8,0.2,0.2,0.2,0.8","1","",""
"","html-keyboard-response","65","45889","0.0-65.0","3TUI152ZZC9Z997SBW2XI3Z3LPWQ17","A38YRR6XIUXMRB","3MXX6RQ9EVRTFC527Z18RDK8KW6P4R","","null","<img src=""img/land4.png"" style=""width:200px; border:14px solid green;"">","null","","","","","","","","","",""
"","image-keyboard-response","66","46520","0.0-66.0","3TUI152ZZC9Z997SBW2XI3Z3LPWQ17","A38YRR6XIUXMRB","3MXX6RQ9EVRTFC527Z18RDK8KW6P4R","","629.2000000476837","img/land5.png","74","630.7999999523163","1","1","1","2","0.8,0.2,0.2,0.2,0.8,0.2,0.2,0.2,0.8","0.8,0.2,0.2,0.2,0.8,0.2,0.2,0.2,0.8","1","",""
"","html-keyboard-response","67","46823","0.0-67.0","3TUI152ZZC9Z997SBW2XI3Z3LPWQ17","A38YRR6XIUXMRB","3MXX6RQ9EVRTFC527Z18RDK8KW6P4R","","null","<img src=""img/land5.png"" style=""width:200px; border:14px solid green;"">","null","","","","","","","","","",""
"","image-keyboard-response","68","47174","0.0-68.0","3TUI152ZZC9Z997SBW2XI3Z3LPWQ17","A38YRR6XIUXMRB","3MXX6RQ9EVRTFC527Z18RDK8KW6P4R","","349.2000000476837","img/land5.png","74","350.5","1","1","1","2","0.8,0.2,0.2,0.2,0.8,0.2,0.2,0.2,0.8","0.8,0.2,0.2,0.2,0.8,0.2,0.2,0.2,0.8","1","",""
"","html-keyboard-response","69","47476","0.0-69.0","3TUI152ZZC9Z997SBW2XI3Z3LPWQ17","A38YRR6XIUXMRB","3MXX6RQ9EVRTFC527Z18RDK8KW6P4R","","null","<img src=""img/land5.png"" style=""width:200px; border:14px solid green;"">","null","","","","","","","","","",""
"","image-keyboard-response","70","48063","0.0-70.0","3TUI152ZZC9Z997SBW2XI3Z3LPWQ17","A38YRR6XIUXMRB","3MXX6RQ9EVRTFC527Z18RDK8KW6P4R","","584.7000000476837","img/land4.png","76","586.0999999046326","3","1","3","2","0.8,0.2,0.2,0.2,0.8,0.2,0.2,0.2,0.8","0.8,0.2,0.2,0.2,0.8,0.2,0.2,0.2,0.8","1","",""
"","html-keyboard-response","71","48378","0.0-71.0","3TUI152ZZC9Z997SBW2XI3Z3LPWQ17","A38YRR6XIUXMRB","3MXX6RQ9EVRTFC527Z18RDK8KW6P4R","","null","<img src=""img/land4.png"" style=""width:200px; border:14px solid green;"">","null","","","","","","","","","",""
"","image-keyboard-response","72","48590","0.0-72.0","3TUI152ZZC9Z997SBW2XI3Z3LPWQ17","A38YRR6XIUXMRB","3MXX6RQ9EVRTFC527Z18RDK8KW6P4R","","208.79999995231628","img/land4.png","76","210.59999990463257","3","0","3","2","0.8,0.2,0.2,0.2,0.8,0.2,0.2,0.2,0.8","0.8,0.2,0.2,0.2,0.8,0.2,0.2,0.2,0.8","1","",""
"","html-keyboard-response","73","48893","0.0-73.0","3TUI152ZZC9Z997SBW2XI3Z3LPWQ17","A38YRR6XIUXMRB","3MXX6RQ9EVRTFC527Z18RDK8KW6P4R","","null","<img src=""img/land4.png"" style=""width:200px;border:14px solid red;"">","null","","","","","","","","","",""
"","image-keyboard-response","74","49240","0.0-74.0","3TUI152ZZC9Z997SBW2XI3Z3LPWQ17","A38YRR6XIUXMRB","3MXX6RQ9EVRTFC527Z18RDK8KW6P4R","","344","img/land4.png","75","346","2","0","3","2","0.8,0.2,0.2,0.2,0.8,0.2,0.2,0.2,0.8","0.8,0.2,0.2,0.2,0.8,0.2,0.2,0.2,0.8","1","",""
"","html-keyboard-response","75","49542","0.0-75.0","3TUI152ZZC9Z997SBW2XI3Z3LPWQ17","A38YRR6XIUXMRB","3MXX6RQ9EVRTFC527Z18RDK8KW6P4R","","null","<img src=""img/land4.png"" style=""width:200px;border:14px solid red;"">","null","","","","","","","","","",""
"","image-keyboard-response","76","50071","0.0-76.0","3TUI152ZZC9Z997SBW2XI3Z3LPWQ17","A38YRR6XIUXMRB","3MXX6RQ9EVRTFC527Z18RDK8KW6P4R","","527","img/land5.png","76","528.2999999523163","3","1","1","2","0.8,0.2,0.2,0.2,0.8,0.2,0.2,0.2,0.8","0.8,0.2,0.2,0.2,0.8,0.2,0.2,0.2,0.8","1","",""
"","html-keyboard-response","77","50375","0.0-77.0","3TUI152ZZC9Z997SBW2XI3Z3LPWQ17","A38YRR6XIUXMRB","3MXX6RQ9EVRTFC527Z18RDK8KW6P4R","","null","<img src=""img/land5.png"" style=""width:200px; border:14px solid green;"">","null","","","","","","","","","",""
"","image-keyboard-response","78","50756","0.0-78.0","3TUI152ZZC9Z997SBW2XI3Z3LPWQ17","A38YRR6XIUXMRB","3MXX6RQ9EVRTFC527Z18RDK8KW6P4R","","379.7000000476837","img/land5.png","74","381","1","1","1","2","0.8,0.2,0.2,0.2,0.8,0.2,0.2,0.2,0.8","0.8,0.2,0.2,0.2,0.8,0.2,0.2,0.2,0.8","1","",""
"","html-keyboard-response","79","51058","0.0-79.0","3TUI152ZZC9Z997SBW2XI3Z3LPWQ17","A38YRR6XIUXMRB","3MXX6RQ9EVRTFC527Z18RDK8KW6P4R","","null","<img src=""img/land5.png"" style=""width:200px; border:14px solid green;"">","null","","","","","","","","","",""
"","image-keyboard-response","80","51370","0.0-80.0","3TUI152ZZC9Z997SBW2XI3Z3LPWQ17","A38YRR6XIUXMRB","3MXX6RQ9EVRTFC527Z18RDK8KW6P4R","","310","img/land5.png","74","311.2999999523163","1","1","1","2","0.8,0.2,0.2,0.2,0.8,0.2,0.2,0.2,0.8","0.8,0.2,0.2,0.2,0.8,0.2,0.2,0.2,0.8","1","",""
"","html-keyboard-response","81","51686","0.0-81.0","3TUI152ZZC9Z997SBW2XI3Z3LPWQ17","A38YRR6XIUXMRB","3MXX6RQ9EVRTFC527Z18RDK8KW6P4R","","null","<img src=""img/land5.png"" style=""width:200px; border:14px solid green;"">","null","","","","","","","","","",""
"","image-keyboard-response","82","51919","0.0-82.0","3TUI152ZZC9Z997SBW2XI3Z3LPWQ17","A38YRR6XIUXMRB","3MXX6RQ9EVRTFC527Z18RDK8KW6P4R","","230.79999995231628","img/land5.png","74","232.20000004768372","1","1","1","2","0.8,0.2,0.2,0.2,0.8,0.2,0.2,0.2,0.8","0.8,0.2,0.2,0.2,0.8,0.2,0.2,0.2,0.8","1","",""
"","html-keyboard-response","83","52222","0.0-83.0","3TUI152ZZC9Z997SBW2XI3Z3LPWQ17","A38YRR6XIUXMRB","3MXX6RQ9EVRTFC527Z18RDK8KW6P4R","","null","<img src=""img/land5.png"" style=""width:200px; border:14px solid green;"">","null","","","","","","","","","",""
"","image-keyboard-response","84","52801","0.0-84.0","3TUI152ZZC9Z997SBW2XI3Z3LPWQ17","A38YRR6XIUXMRB","3MXX6RQ9EVRTFC527Z18RDK8KW6P4R","","577.4000000953674","img/land4.png","76","578.8999998569489","3","1","3","2","0.8,0.2,0.2,0.2,0.8,0.2,0.2,0.2,0.8","0.8,0.2,0.2,0.2,0.8,0.2,0.2,0.2,0.8","1","",""
"","html-keyboard-response","85","53115","0.0-85.0","3TUI152ZZC9Z997SBW2XI3Z3LPWQ17","A38YRR6XIUXMRB","3MXX6RQ9EVRTFC527Z18RDK8KW6P4R","","null","<img src=""img/land4.png"" style=""width:200px; border:14px solid green;"">","null","","","","","","","","","",""
"","image-keyboard-response","86","53808","0.0-86.0","3TUI152ZZC9Z997SBW2XI3Z3LPWQ17","A38YRR6XIUXMRB","3MXX6RQ9EVRTFC527Z18RDK8KW6P4R","","690.8999998569489","img/land5.png","74","692.0999999046326","1","1","1","2","0.8,0.2,0.2,0.2,0.8,0.2,0.2,0.2,0.8","0.8,0.2,0.2,0.2,0.8,0.2,0.2,0.2,0.8","1","",""
"","html-keyboard-response","87","54109","0.0-87.0","3TUI152ZZC9Z997SBW2XI3Z3LPWQ17","A38YRR6XIUXMRB","3MXX6RQ9EVRTFC527Z18RDK8KW6P4R","","null","<img src=""img/land5.png"" style=""width:200px; border:14px solid green;"">","null","","","","","","","","","",""
"","image-keyboard-response","88","54459","0.0-88.0","3TUI152ZZC9Z997SBW2XI3Z3LPWQ17","A38YRR6XIUXMRB","3MXX6RQ9EVRTFC527Z18RDK8KW6P4R","","347.40000009536743","img/land5.png","74","349","1","1","1","2","0.8,0.2,0.2,0.2,0.8,0.2,0.2,0.2,0.8","0.8,0.2,0.2,0.2,0.8,0.2,0.2,0.2,0.8","1","",""
"","html-keyboard-response","89","54762","0.0-89.0","3TUI152ZZC9Z997SBW2XI3Z3LPWQ17","A38YRR6XIUXMRB","3MXX6RQ9EVRTFC527Z18RDK8KW6P4R","","null","<img src=""img/land5.png"" style=""width:200px; border:14px solid green;"">","null","","","","","","","","","",""
"","image-keyboard-response","90","55250","0.0-90.0","3TUI152ZZC9Z997SBW2XI3Z3LPWQ17","A38YRR6XIUXMRB","3MXX6RQ9EVRTFC527Z18RDK8KW6P4R","","485","img/land4.png","76","487","3","1","3","2","0.8,0.2,0.2,0.2,0.8,0.2,0.2,0.2,0.8","0.8,0.2,0.2,0.2,0.8,0.2,0.2,0.2,0.8","1","",""
"","html-keyboard-response","91","55553","0.0-91.0","3TUI152ZZC9Z997SBW2XI3Z3LPWQ17","A38YRR6XIUXMRB","3MXX6RQ9EVRTFC527Z18RDK8KW6P4R","","null","<img src=""img/land4.png"" style=""width:200px; border:14px solid green;"">","null","","","","","","","","","",""
"","image-keyboard-response","92","56214","0.0-92.0","3TUI152ZZC9Z997SBW2XI3Z3LPWQ17","A38YRR6XIUXMRB","3MXX6RQ9EVRTFC527Z18RDK8KW6P4R","","659.8999998569489","img/land3.png","75","661.0999999046326","2","1","2","2","0.8,0.2,0.2,0.2,0.8,0.2,0.2,0.2,0.8","0.8,0.2,0.2,0.2,0.8,0.2,0.2,0.2,0.8","1","",""
"","html-keyboard-response","93","56516","0.0-93.0","3TUI152ZZC9Z997SBW2XI3Z3LPWQ17","A38YRR6XIUXMRB","3MXX6RQ9EVRTFC527Z18RDK8KW6P4R","","null","<img src=""img/land3.png"" style=""width:200px; border:14px solid green;"">","null","","","","","","","","","",""
"","image-keyboard-response","94","57215","0.0-94.0","3TUI152ZZC9Z997SBW2XI3Z3LPWQ17","A38YRR6XIUXMRB","3MXX6RQ9EVRTFC527Z18RDK8KW6P4R","","696.7000000476837","img/land4.png","76","697.8000001907349","3","1","3","2","0.8,0.2,0.2,0.2,0.8,0.2,0.2,0.2,0.8","0.8,0.2,0.2,0.2,0.8,0.2,0.2,0.2,0.8","1","",""
"","html-keyboard-response","95","57518","0.0-95.0","3TUI152ZZC9Z997SBW2XI3Z3LPWQ17","A38YRR6XIUXMRB","3MXX6RQ9EVRTFC527Z18RDK8KW6P4R","","null","<img src=""img/land4.png"" style=""width:200px; border:14px solid green;"">","null","","","","","","","","","",""
"","image-keyboard-response","96","57825","0.0-96.0","3TUI152ZZC9Z997SBW2XI3Z3LPWQ17","A38YRR6XIUXMRB","3MXX6RQ9EVRTFC527Z18RDK8KW6P4R","","304.59999990463257","img/land4.png","76","306.09999990463257","3","1","3","2","0.8,0.2,0.2,0.2,0.8,0.2,0.2,0.2,0.8","0.8,0.2,0.2,0.2,0.8,0.2,0.2,0.2,0.8","1","",""
"","html-keyboard-response","97","58128","0.0-97.0","3TUI152ZZC9Z997SBW2XI3Z3LPWQ17","A38YRR6XIUXMRB","3MXX6RQ9EVRTFC527Z18RDK8KW6P4R","","null","<img src=""img/land4.png"" style=""width:200px; border:14px solid green;"">","null","","","","","","","","","",""
"","image-keyboard-response","98","58710","0.0-98.0","3TUI152ZZC9Z997SBW2XI3Z3LPWQ17","A38YRR6XIUXMRB","3MXX6RQ9EVRTFC527Z18RDK8KW6P4R","","579.4000000953674","img/land5.png","75","580.6999998092651","2","0","1","2","0.8,0.2,0.2,0.2,0.8,0.2,0.2,0.2,0.8","0.8,0.2,0.2,0.2,0.8,0.2,0.2,0.2,0.8","1","",""
"","html-keyboard-response","99","59013","0.0-99.0","3TUI152ZZC9Z997SBW2XI3Z3LPWQ17","A38YRR6XIUXMRB","3MXX6RQ9EVRTFC527Z18RDK8KW6P4R","","null","<img src=""img/land5.png"" style=""width:200px;border:14px solid red;"">","null","","","","","","","","","",""
"","image-keyboard-response","100","59238","0.0-100.0","3TUI152ZZC9Z997SBW2XI3Z3LPWQ17","A38YRR6XIUXMRB","3MXX6RQ9EVRTFC527Z18RDK8KW6P4R","","222.40000009536743","img/land5.png","74","224.59999990463257","1","0","1","2","0.8,0.2,0.2,0.2,0.8,0.2,0.2,0.2,0.8","0.8,0.2,0.2,0.2,0.8,0.2,0.2,0.2,0.8","1","",""
"","html-keyboard-response","101","59541","0.0-101.0","3TUI152ZZC9Z997SBW2XI3Z3LPWQ17","A38YRR6XIUXMRB","3MXX6RQ9EVRTFC527Z18RDK8KW6P4R","","null","<img src=""img/land5.png"" style=""width:200px;border:14px solid red;"">","null","","","","","","","","","",""
"","image-keyboard-response","102","59933","0.0-102.0","3TUI152ZZC9Z997SBW2XI3Z3LPWQ17","A38YRR6XIUXMRB","3MXX6RQ9EVRTFC527Z18RDK8KW6P4R","","389.39999985694885","img/land5.png","74","391.09999990463257","1","1","1","2","0.8,0.2,0.2,0.2,0.8,0.2,0.2,0.2,0.8","0.8,0.2,0.2,0.2,0.8,0.2,0.2,0.2,0.8","1","",""
"","html-keyboard-response","103","60236","0.0-103.0","3TUI152ZZC9Z997SBW2XI3Z3LPWQ17","A38YRR6XIUXMRB","3MXX6RQ9EVRTFC527Z18RDK8KW6P4R","","null","<img src=""img/land5.png"" style=""width:200px; border:14px solid green;"">","null","","","","","","","","","",""
"","image-keyboard-response","104","60567","0.0-104.0","3TUI152ZZC9Z997SBW2XI3Z3LPWQ17","A38YRR6XIUXMRB","3MXX6RQ9EVRTFC527Z18RDK8KW6P4R","","329","img/land5.png","74","330.5","1","1","1","2","0.8,0.2,0.2,0.2,0.8,0.2,0.2,0.2,0.8","0.8,0.2,0.2,0.2,0.8,0.2,0.2,0.2,0.8","1","",""
"","html-keyboard-response","105","60871","0.0-105.0","3TUI152ZZC9Z997SBW2XI3Z3LPWQ17","A38YRR6XIUXMRB","3MXX6RQ9EVRTFC527Z18RDK8KW6P4R","","null","<img src=""img/land5.png"" style=""width:200px; border:14px solid green;"">","null","","","","","","","","","",""
"","image-keyboard-response","106","61069","0.0-106.0","3TUI152ZZC9Z997SBW2XI3Z3LPWQ17","A38YRR6XIUXMRB","3MXX6RQ9EVRTFC527Z18RDK8KW6P4R","","196.29999995231628","img/land5.png","74","197.70000004768372","1","1","1","2","0.8,0.2,0.2,0.2,0.8,0.2,0.2,0.2,0.8","0.8,0.2,0.2,0.2,0.8,0.2,0.2,0.2,0.8","1","",""
"","html-keyboard-response","107","61372","0.0-107.0","3TUI152ZZC9Z997SBW2XI3Z3LPWQ17","A38YRR6XIUXMRB","3MXX6RQ9EVRTFC527Z18RDK8KW6P4R","","null","<img src=""img/land5.png"" style=""width:200px; border:14px solid green;"">","null","","","","","","","","","",""
"","image-keyboard-response","108","61585","0.0-108.0","3TUI152ZZC9Z997SBW2XI3Z3LPWQ17","A38YRR6XIUXMRB","3MXX6RQ9EVRTFC527Z18RDK8KW6P4R","","211","img/land5.png","74","212.70000004768372","1","1","1","2","0.8,0.2,0.2,0.2,0.8,0.2,0.2,0.2,0.8","0.8,0.2,0.2,0.2,0.8,0.2,0.2,0.2,0.8","1","",""
"","html-keyboard-response","109","61888","0.0-109.0","3TUI152ZZC9Z997SBW2XI3Z3LPWQ17","A38YRR6XIUXMRB","3MXX6RQ9EVRTFC527Z18RDK8KW6P4R","","null","<img src=""img/land5.png"" style=""width:200px; border:14px solid green;"">","null","","","","","","","","","",""
"","image-keyboard-response","110","62148","0.0-110.0","3TUI152ZZC9Z997SBW2XI3Z3LPWQ17","A38YRR6XIUXMRB","3MXX6RQ9EVRTFC527Z18RDK8KW6P4R","","257.2999999523163","img/land5.png","74","259.2000000476837","1","0","1","2","0.8,0.2,0.2,0.2,0.8,0.2,0.2,0.2,0.8","0.8,0.2,0.2,0.2,0.8,0.2,0.2,0.2,0.8","1","",""
"","html-keyboard-response","111","62450","0.0-111.0","3TUI152ZZC9Z997SBW2XI3Z3LPWQ17","A38YRR6XIUXMRB","3MXX6RQ9EVRTFC527Z18RDK8KW6P4R","","null","<img src=""img/land5.png"" style=""width:200px;border:14px solid red;"">","null","","","","","","","","","",""
"","image-keyboard-response","112","63239","0.0-112.0","3TUI152ZZC9Z997SBW2XI3Z3LPWQ17","A38YRR6XIUXMRB","3MXX6RQ9EVRTFC527Z18RDK8KW6P4R","","787.5999999046326","img/land5.png","76","788.5","3","0","1","2","0.8,0.2,0.2,0.2,0.8,0.2,0.2,0.2,0.8","0.8,0.2,0.2,0.2,0.8,0.2,0.2,0.2,0.8","1","",""
"","html-keyboard-response","113","63542","0.0-113.0","3TUI152ZZC9Z997SBW2XI3Z3LPWQ17","A38YRR6XIUXMRB","3MXX6RQ9EVRTFC527Z18RDK8KW6P4R","","null","<img src=""img/land5.png"" style=""width:200px;border:14px solid red;"">","null","","","","","","","","","",""
"","image-keyboard-response","114","64273","0.0-114.0","3TUI152ZZC9Z997SBW2XI3Z3LPWQ17","A38YRR6XIUXMRB","3MXX6RQ9EVRTFC527Z18RDK8KW6P4R","","729.4000000953674","img/land5.png","74","731","1","1","1","2","0.8,0.2,0.2,0.2,0.8,0.2,0.2,0.2,0.8","0.8,0.2,0.2,0.2,0.8,0.2,0.2,0.2,0.8","1","",""
"","html-keyboard-response","115","64576","0.0-115.0","3TUI152ZZC9Z997SBW2XI3Z3LPWQ17","A38YRR6XIUXMRB","3MXX6RQ9EVRTFC527Z18RDK8KW6P4R","","null","<img src=""img/land5.png"" style=""width:200px; border:14px solid green;"">","null","","","","","","","","","",""
"","image-keyboard-response","116","64823","0.0-116.0","3TUI152ZZC9Z997SBW2XI3Z3LPWQ17","A38YRR6XIUXMRB","3MXX6RQ9EVRTFC527Z18RDK8KW6P4R","","245.40000009536743","img/land5.png","74","246.79999995231628","1","1","1","2","0.8,0.2,0.2,0.2,0.8,0.2,0.2,0.2,0.8","0.8,0.2,0.2,0.2,0.8,0.2,0.2,0.2,0.8","1","",""
"","html-keyboard-response","117","65126","0.0-117.0","3TUI152ZZC9Z997SBW2XI3Z3LPWQ17","A38YRR6XIUXMRB","3MXX6RQ9EVRTFC527Z18RDK8KW6P4R","","null","<img src=""img/land5.png"" style=""width:200px; border:14px solid green;"">","null","","","","","","","","","",""
"","image-keyboard-response","118","65304","0.0-118.0","3TUI152ZZC9Z997SBW2XI3Z3LPWQ17","A38YRR6XIUXMRB","3MXX6RQ9EVRTFC527Z18RDK8KW6P4R","","175.79999995231628","img/land4.png","74","177","1","0","3","2","0.8,0.2,0.2,0.2,0.8,0.2,0.2,0.2,0.8","0.8,0.2,0.2,0.2,0.8,0.2,0.2,0.2,0.8","1","",""
"","html-keyboard-response","119","65606","0.0-119.0","3TUI152ZZC9Z997SBW2XI3Z3LPWQ17","A38YRR6XIUXMRB","3MXX6RQ9EVRTFC527Z18RDK8KW6P4R","","null","<img src=""img/land4.png"" style=""width:200px;border:14px solid red;"">","null","","","","","","","","","",""
"","image-keyboard-response","120","65883","0.0-120.0","3TUI152ZZC9Z997SBW2XI3Z3LPWQ17","A38YRR6XIUXMRB","3MXX6RQ9EVRTFC527Z18RDK8KW6P4R","","274.90000009536743","img/land3.png","76","276.10000014305115","3","0","2","2","0.8,0.2,0.2,0.2,0.8,0.2,0.2,0.2,0.8","0.8,0.2,0.2,0.2,0.8,0.2,0.2,0.2,0.8","1","",""
"","html-keyboard-response","121","66186","0.0-121.0","3TUI152ZZC9Z997SBW2XI3Z3LPWQ17","A38YRR6XIUXMRB","3MXX6RQ9EVRTFC527Z18RDK8KW6P4R","","null","<img src=""img/land3.png"" style=""width:200px;border:14px solid red;"">","null","","","","","","","","","",""
"","image-keyboard-response","122","66347","0.0-122.0","3TUI152ZZC9Z997SBW2XI3Z3LPWQ17","A38YRR6XIUXMRB","3MXX6RQ9EVRTFC527Z18RDK8KW6P4R","","158.59999990463257","img/land5.png","75","160.10000014305115","2","1","1","2","0.8,0.2,0.2,0.2,0.8,0.2,0.2,0.2,0.8","0.8,0.2,0.2,0.2,0.8,0.2,0.2,0.2,0.8","1","",""
"","html-keyboard-response","123","66650","0.0-123.0","3TUI152ZZC9Z997SBW2XI3Z3LPWQ17","A38YRR6XIUXMRB","3MXX6RQ9EVRTFC527Z18RDK8KW6P4R","","null","<img src=""img/land5.png"" style=""width:200px; border:14px solid green;"">","null","","","","","","","","","",""
"","image-keyboard-response","124","67344","0.0-124.0","3TUI152ZZC9Z997SBW2XI3Z3LPWQ17","A38YRR6XIUXMRB","3MXX6RQ9EVRTFC527Z18RDK8KW6P4R","","692.5","img/land3.png","75","693.7000000476837","2","1","2","2","0.8,0.2,0.2,0.2,0.8,0.2,0.2,0.2,0.8","0.8,0.2,0.2,0.2,0.8,0.2,0.2,0.2,0.8","1","",""
"","html-keyboard-response","125","67647","0.0-125.0","3TUI152ZZC9Z997SBW2XI3Z3LPWQ17","A38YRR6XIUXMRB","3MXX6RQ9EVRTFC527Z18RDK8KW6P4R","","null","<img src=""img/land3.png"" style=""width:200px; border:14px solid green;"">","null","","","","","","","","","",""
"","image-keyboard-response","126","68160","0.0-126.0","3TUI152ZZC9Z997SBW2XI3Z3LPWQ17","A38YRR6XIUXMRB","3MXX6RQ9EVRTFC527Z18RDK8KW6P4R","","510.7000000476837","img/land4.png","76","512.2000000476837","3","1","3","2","0.8,0.2,0.2,0.2,0.8,0.2,0.2,0.2,0.8","0.8,0.2,0.2,0.2,0.8,0.2,0.2,0.2,0.8","1","",""
"","html-keyboard-response","127","68462","0.0-127.0","3TUI152ZZC9Z997SBW2XI3Z3LPWQ17","A38YRR6XIUXMRB","3MXX6RQ9EVRTFC527Z18RDK8KW6P4R","","null","<img src=""img/land4.png"" style=""width:200px; border:14px solid green;"">","null","","","","","","","","","",""
"","image-keyboard-response","128","69047","0.0-128.0","3TUI152ZZC9Z997SBW2XI3Z3LPWQ17","A38YRR6XIUXMRB","3MXX6RQ9EVRTFC527Z18RDK8KW6P4R","","580.8000001907349","img/land3.png","75","583.0999999046326","2","0","2","2","0.8,0.2,0.2,0.2,0.8,0.2,0.2,0.2,0.8","0.8,0.2,0.2,0.2,0.8,0.2,0.2,0.2,0.8","1","",""
"","html-keyboard-response","129","69349","0.0-129.0","3TUI152ZZC9Z997SBW2XI3Z3LPWQ17","A38YRR6XIUXMRB","3MXX6RQ9EVRTFC527Z18RDK8KW6P4R","","null","<img src=""img/land3.png"" style=""width:200px;border:14px solid red;"">","null","","","","","","","","","",""
"","image-keyboard-response","130","70211","0.0-130.0","3TUI152ZZC9Z997SBW2XI3Z3LPWQ17","A38YRR6XIUXMRB","3MXX6RQ9EVRTFC527Z18RDK8KW6P4R","","859.7999999523163","img/land5.png","74","861.2000000476837","1","1","1","2","0.8,0.2,0.2,0.2,0.8,0.2,0.2,0.2,0.8","0.8,0.2,0.2,0.2,0.8,0.2,0.2,0.2,0.8","1","",""
"","html-keyboard-response","131","70514","0.0-131.0","3TUI152ZZC9Z997SBW2XI3Z3LPWQ17","A38YRR6XIUXMRB","3MXX6RQ9EVRTFC527Z18RDK8KW6P4R","","null","<img src=""img/land5.png"" style=""width:200px; border:14px solid green;"">","null","","","","","","","","","",""
"","image-keyboard-response","132","70890","0.0-132.0","3TUI152ZZC9Z997SBW2XI3Z3LPWQ17","A38YRR6XIUXMRB","3MXX6RQ9EVRTFC527Z18RDK8KW6P4R","","374.59999990463257","img/land5.png","74","375.89999985694885","1","1","1","2","0.8,0.2,0.2,0.2,0.8,0.2,0.2,0.2,0.8","0.8,0.2,0.2,0.2,0.8,0.2,0.2,0.2,0.8","1","",""
"","html-keyboard-response","133","71194","0.0-133.0","3TUI152ZZC9Z997SBW2XI3Z3LPWQ17","A38YRR6XIUXMRB","3MXX6RQ9EVRTFC527Z18RDK8KW6P4R","","null","<img src=""img/land5.png"" style=""width:200px; border:14px solid green;"">","null","","","","","","","","","",""
"","image-keyboard-response","134","71593","0.0-134.0","3TUI152ZZC9Z997SBW2XI3Z3LPWQ17","A38YRR6XIUXMRB","3MXX6RQ9EVRTFC527Z18RDK8KW6P4R","","396.5","img/land5.png","74","397.7000000476837","1","1","1","2","0.8,0.2,0.2,0.2,0.8,0.2,0.2,0.2,0.8","0.8,0.2,0.2,0.2,0.8,0.2,0.2,0.2,0.8","1","",""
"","html-keyboard-response","135","71895","0.0-135.0","3TUI152ZZC9Z997SBW2XI3Z3LPWQ17","A38YRR6XIUXMRB","3MXX6RQ9EVRTFC527Z18RDK8KW6P4R","","null","<img src=""img/land5.png"" style=""width:200px; border:14px solid green;"">","null","","","","","","","","","",""
"","image-keyboard-response","136","72270","0.0-136.0","3TUI152ZZC9Z997SBW2XI3Z3LPWQ17","A38YRR6XIUXMRB","3MXX6RQ9EVRTFC527Z18RDK8KW6P4R","","373.19999980926514","img/land5.png","74","374.7000000476837","1","0","1","2","0.8,0.2,0.2,0.2,0.8,0.2,0.2,0.2,0.8","0.8,0.2,0.2,0.2,0.8,0.2,0.2,0.2,0.8","1","",""
"","html-keyboard-response","137","72573","0.0-137.0","3TUI152ZZC9Z997SBW2XI3Z3LPWQ17","A38YRR6XIUXMRB","3MXX6RQ9EVRTFC527Z18RDK8KW6P4R","","null","<img src=""img/land5.png"" style=""width:200px;border:14px solid red;"">","null","","","","","","","","","",""
"","image-keyboard-response","138","72939","0.0-138.0","3TUI152ZZC9Z997SBW2XI3Z3LPWQ17","A38YRR6XIUXMRB","3MXX6RQ9EVRTFC527Z18RDK8KW6P4R","","365","img/land5.png","74","366","1","1","1","2","0.8,0.2,0.2,0.2,0.8,0.2,0.2,0.2,0.8","0.8,0.2,0.2,0.2,0.8,0.2,0.2,0.2,0.8","1","",""
"","html-keyboard-response","139","73242","0.0-139.0","3TUI152ZZC9Z997SBW2XI3Z3LPWQ17","A38YRR6XIUXMRB","3MXX6RQ9EVRTFC527Z18RDK8KW6P4R","","null","<img src=""img/land5.png"" style=""width:200px; border:14px solid green;"">","null","","","","","","","","","",""
"","image-keyboard-response","140","73854","0.0-140.0","3TUI152ZZC9Z997SBW2XI3Z3LPWQ17","A38YRR6XIUXMRB","3MXX6RQ9EVRTFC527Z18RDK8KW6P4R","","610.0999999046326","img/land4.png","76","611.6000001430511","3","1","3","2","0.8,0.2,0.2,0.2,0.8,0.2,0.2,0.2,0.8","0.8,0.2,0.2,0.2,0.8,0.2,0.2,0.2,0.8","1","",""
"","html-keyboard-response","141","74157","0.0-141.0","3TUI152ZZC9Z997SBW2XI3Z3LPWQ17","A38YRR6XIUXMRB","3MXX6RQ9EVRTFC527Z18RDK8KW6P4R","","null","<img src=""img/land4.png"" style=""width:200px; border:14px solid green;"">","null","","","","","","","","","",""
"","image-keyboard-response","142","74884","0.0-142.0","3TUI152ZZC9Z997SBW2XI3Z3LPWQ17","A38YRR6XIUXMRB","3MXX6RQ9EVRTFC527Z18RDK8KW6P4R","","725.7999999523163","img/land5.png","74","727.0999999046326","1","0","1","2","0.8,0.2,0.2,0.2,0.8,0.2,0.2,0.2,0.8","0.8,0.2,0.2,0.2,0.8,0.2,0.2,0.2,0.8","1","",""
"","html-keyboard-response","143","75188","0.0-143.0","3TUI152ZZC9Z997SBW2XI3Z3LPWQ17","A38YRR6XIUXMRB","3MXX6RQ9EVRTFC527Z18RDK8KW6P4R","","null","<img src=""img/land5.png"" style=""width:200px;border:14px solid red;"">","null","","","","","","","","","",""
"","image-keyboard-response","144","75533","0.0-144.0","3TUI152ZZC9Z997SBW2XI3Z3LPWQ17","A38YRR6XIUXMRB","3MXX6RQ9EVRTFC527Z18RDK8KW6P4R","","343.2999999523163","img/land5.png","74","344.7999999523163","1","0","1","2","0.8,0.2,0.2,0.2,0.8,0.2,0.2,0.2,0.8","0.8,0.2,0.2,0.2,0.8,0.2,0.2,0.2,0.8","1","",""
"","html-keyboard-response","145","75835","0.0-145.0","3TUI152ZZC9Z997SBW2XI3Z3LPWQ17","A38YRR6XIUXMRB","3MXX6RQ9EVRTFC527Z18RDK8KW6P4R","","null","<img src=""img/land5.png"" style=""width:200px;border:14px solid red;"">","null","","","","","","","","","",""
"","image-keyboard-response","146","76116","0.0-146.0","3TUI152ZZC9Z997SBW2XI3Z3LPWQ17","A38YRR6XIUXMRB","3MXX6RQ9EVRTFC527Z18RDK8KW6P4R","","278.7999999523163","img/land5.png","74","280.2999999523163","1","1","1","2","0.8,0.2,0.2,0.2,0.8,0.2,0.2,0.2,0.8","0.8,0.2,0.2,0.2,0.8,0.2,0.2,0.2,0.8","1","",""
"","html-keyboard-response","147","76421","0.0-147.0","3TUI152ZZC9Z997SBW2XI3Z3LPWQ17","A38YRR6XIUXMRB","3MXX6RQ9EVRTFC527Z18RDK8KW6P4R","","null","<img src=""img/land5.png"" style=""width:200px; border:14px solid green;"">","null","","","","","","","","","",""
"","image-keyboard-response","148","77025","0.0-148.0","3TUI152ZZC9Z997SBW2XI3Z3LPWQ17","A38YRR6XIUXMRB","3MXX6RQ9EVRTFC527Z18RDK8KW6P4R","","601.8999998569489","img/land3.png","75","603.1000001430511","2","1","2","2","0.8,0.2,0.2,0.2,0.8,0.2,0.2,0.2,0.8","0.8,0.2,0.2,0.2,0.8,0.2,0.2,0.2,0.8","1","",""
"","html-keyboard-response","149","77328","0.0-149.0","3TUI152ZZC9Z997SBW2XI3Z3LPWQ17","A38YRR6XIUXMRB","3MXX6RQ9EVRTFC527Z18RDK8KW6P4R","","null","<img src=""img/land3.png"" style=""width:200px; border:14px solid green;"">","null","","","","","","","","","",""
"","image-keyboard-response","150","78102","0.0-150.0","3TUI152ZZC9Z997SBW2XI3Z3LPWQ17","A38YRR6XIUXMRB","3MXX6RQ9EVRTFC527Z18RDK8KW6P4R","","772.7000000476837","img/land5.png","74","773.9000000953674","1","1","1","2","0.8,0.2,0.2,0.2,0.8,0.2,0.2,0.2,0.8","0.8,0.2,0.2,0.2,0.8,0.2,0.2,0.2,0.8","1","",""
"","html-keyboard-response","151","78405","0.0-151.0","3TUI152ZZC9Z997SBW2XI3Z3LPWQ17","A38YRR6XIUXMRB","3MXX6RQ9EVRTFC527Z18RDK8KW6P4R","","null","<img src=""img/land5.png"" style=""width:200px; border:14px solid green;"">","null","","","","","","","","","",""
"","image-keyboard-response","152","78683","0.0-152.0","3TUI152ZZC9Z997SBW2XI3Z3LPWQ17","A38YRR6XIUXMRB","3MXX6RQ9EVRTFC527Z18RDK8KW6P4R","","275.2000000476837","img/land5.png","74","277.09999990463257","1","1","1","2","0.8,0.2,0.2,0.2,0.8,0.2,0.2,0.2,0.8","0.8,0.2,0.2,0.2,0.8,0.2,0.2,0.2,0.8","1","",""
"","html-keyboard-response","153","78985","0.0-153.0","3TUI152ZZC9Z997SBW2XI3Z3LPWQ17","A38YRR6XIUXMRB","3MXX6RQ9EVRTFC527Z18RDK8KW6P4R","","null","<img src=""img/land5.png"" style=""width:200px; border:14px solid green;"">","null","","","","","","","","","",""
"","image-keyboard-response","154","79281","0.0-154.0","3TUI152ZZC9Z997SBW2XI3Z3LPWQ17","A38YRR6XIUXMRB","3MXX6RQ9EVRTFC527Z18RDK8KW6P4R","","294","img/land5.png","74","295.7000000476837","1","1","1","2","0.8,0.2,0.2,0.2,0.8,0.2,0.2,0.2,0.8","0.8,0.2,0.2,0.2,0.8,0.2,0.2,0.2,0.8","1","",""
"","html-keyboard-response","155","79583","0.0-155.0","3TUI152ZZC9Z997SBW2XI3Z3LPWQ17","A38YRR6XIUXMRB","3MXX6RQ9EVRTFC527Z18RDK8KW6P4R","","null","<img src=""img/land5.png"" style=""width:200px; border:14px solid green;"">","null","","","","","","","","","",""
"","image-keyboard-response","156","79795","0.0-156.0","3TUI152ZZC9Z997SBW2XI3Z3LPWQ17","A38YRR6XIUXMRB","3MXX6RQ9EVRTFC527Z18RDK8KW6P4R","","208.90000009536743","img/land3.png","74","211.19999980926514","1","0","2","2","0.8,0.2,0.2,0.2,0.8,0.2,0.2,0.2,0.8","0.8,0.2,0.2,0.2,0.8,0.2,0.2,0.2,0.8","1","",""
"","html-keyboard-response","157","80099","0.0-157.0","3TUI152ZZC9Z997SBW2XI3Z3LPWQ17","A38YRR6XIUXMRB","3MXX6RQ9EVRTFC527Z18RDK8KW6P4R","","null","<img src=""img/land3.png"" style=""width:200px;border:14px solid red;"">","null","","","","","","","","","",""
"","image-keyboard-response","158","80625","0.0-158.0","3TUI152ZZC9Z997SBW2XI3Z3LPWQ17","A38YRR6XIUXMRB","3MXX6RQ9EVRTFC527Z18RDK8KW6P4R","","522.7000000476837","img/land3.png","75","524.4000000953674","2","1","2","2","0.8,0.2,0.2,0.2,0.8,0.2,0.2,0.2,0.8","0.8,0.2,0.2,0.2,0.8,0.2,0.2,0.2,0.8","1","",""
"","html-keyboard-response","159","80929","0.0-159.0","3TUI152ZZC9Z997SBW2XI3Z3LPWQ17","A38YRR6XIUXMRB","3MXX6RQ9EVRTFC527Z18RDK8KW6P4R","","null","<img src=""img/land3.png"" style=""width:200px; border:14px solid green;"">","null","","","","","","","","","",""
"","image-keyboard-response","160","81506","0.0-160.0","3TUI152ZZC9Z997SBW2XI3Z3LPWQ17","A38YRR6XIUXMRB","3MXX6RQ9EVRTFC527Z18RDK8KW6P4R","","574.2000000476837","img/land5.png","74","575.5999999046326","1","1","1","2","0.8,0.2,0.2,0.2,0.8,0.2,0.2,0.2,0.8","0.8,0.2,0.2,0.2,0.8,0.2,0.2,0.2,0.8","1","",""
"","html-keyboard-response","161","81808","0.0-161.0","3TUI152ZZC9Z997SBW2XI3Z3LPWQ17","A38YRR6XIUXMRB","3MXX6RQ9EVRTFC527Z18RDK8KW6P4R","","null","<img src=""img/land5.png"" style=""width:200px; border:14px solid green;"">","null","","","","","","","","","",""
"","image-keyboard-response","162","82147","0.0-162.0","3TUI152ZZC9Z997SBW2XI3Z3LPWQ17","A38YRR6XIUXMRB","3MXX6RQ9EVRTFC527Z18RDK8KW6P4R","","336.90000009536743","img/land4.png","74","338.10000014305115","1","0","3","2","0.8,0.2,0.2,0.2,0.8,0.2,0.2,0.2,0.8","0.8,0.2,0.2,0.2,0.8,0.2,0.2,0.2,0.8","1","",""
"","html-keyboard-response","163","82449","0.0-163.0","3TUI152ZZC9Z997SBW2XI3Z3LPWQ17","A38YRR6XIUXMRB","3MXX6RQ9EVRTFC527Z18RDK8KW6P4R","","null","<img src=""img/land4.png"" style=""width:200px;border:14px solid red;"">","null","","","","","","","","","",""
"","image-keyboard-response","164","83118","0.0-164.0","3TUI152ZZC9Z997SBW2XI3Z3LPWQ17","A38YRR6XIUXMRB","3MXX6RQ9EVRTFC527Z18RDK8KW6P4R","","666.7999999523163","img/land5.png","74","668.7999999523163","1","0","1","2","0.8,0.2,0.2,0.2,0.8,0.2,0.2,0.2,0.8","0.8,0.2,0.2,0.2,0.8,0.2,0.2,0.2,0.8","1","",""
"","html-keyboard-response","165","83421","0.0-165.0","3TUI152ZZC9Z997SBW2XI3Z3LPWQ17","A38YRR6XIUXMRB","3MXX6RQ9EVRTFC527Z18RDK8KW6P4R","","null","<img src=""img/land5.png"" style=""width:200px;border:14px solid red;"">","null","","","","","","","","","",""
"","image-keyboard-response","166","83828","0.0-166.0","3TUI152ZZC9Z997SBW2XI3Z3LPWQ17","A38YRR6XIUXMRB","3MXX6RQ9EVRTFC527Z18RDK8KW6P4R","","403.80000019073486","img/land3.png","75","405.5","2","0","2","2","0.8,0.2,0.2,0.2,0.8,0.2,0.2,0.2,0.8","0.8,0.2,0.2,0.2,0.8,0.2,0.2,0.2,0.8","1","",""
"","html-keyboard-response","167","84131","0.0-167.0","3TUI152ZZC9Z997SBW2XI3Z3LPWQ17","A38YRR6XIUXMRB","3MXX6RQ9EVRTFC527Z18RDK8KW6P4R","","null","<img src=""img/land3.png"" style=""width:200px;border:14px solid red;"">","null","","","","","","","","","",""
"","image-keyboard-response","168","84531","0.0-168.0","3TUI152ZZC9Z997SBW2XI3Z3LPWQ17","A38YRR6XIUXMRB","3MXX6RQ9EVRTFC527Z18RDK8KW6P4R","","398.30000019073486","img/land3.png","75","400.19999980926514","2","1","2","2","0.8,0.2,0.2,0.2,0.8,0.2,0.2,0.2,0.8","0.8,0.2,0.2,0.2,0.8,0.2,0.2,0.2,0.8","1","",""
"","html-keyboard-response","169","84840","0.0-169.0","3TUI152ZZC9Z997SBW2XI3Z3LPWQ17","A38YRR6XIUXMRB","3MXX6RQ9EVRTFC527Z18RDK8KW6P4R","","null","<img src=""img/land3.png"" style=""width:200px; border:14px solid green;"">","null","","","","","","","","","",""
"","image-keyboard-response","170","85430","0.0-170.0","3TUI152ZZC9Z997SBW2XI3Z3LPWQ17","A38YRR6XIUXMRB","3MXX6RQ9EVRTFC527Z18RDK8KW6P4R","","587.1999998092651","img/land4.png","76","588.9000000953674","3","1","3","2","0.8,0.2,0.2,0.2,0.8,0.2,0.2,0.2,0.8","0.8,0.2,0.2,0.2,0.8,0.2,0.2,0.2,0.8","1","",""
"","html-keyboard-response","171","85733","0.0-171.0","3TUI152ZZC9Z997SBW2XI3Z3LPWQ17","A38YRR6XIUXMRB","3MXX6RQ9EVRTFC527Z18RDK8KW6P4R","","null","<img src=""img/land4.png"" style=""width:200px; border:14px solid green;"">","null","","","","","","","","","",""
"","image-keyboard-response","172","86287","0.0-172.0","3TUI152ZZC9Z997SBW2XI3Z3LPWQ17","A38YRR6XIUXMRB","3MXX6RQ9EVRTFC527Z18RDK8KW6P4R","","551.5","img/land5.png","74","554","1","0","1","2","0.8,0.2,0.2,0.2,0.8,0.2,0.2,0.2,0.8","0.8,0.2,0.2,0.2,0.8,0.2,0.2,0.2,0.8","1","",""
"","html-keyboard-response","173","86590","0.0-173.0","3TUI152ZZC9Z997SBW2XI3Z3LPWQ17","A38YRR6XIUXMRB","3MXX6RQ9EVRTFC527Z18RDK8KW6P4R","","null","<img src=""img/land5.png"" style=""width:200px;border:14px solid red;"">","null","","","","","","","","","",""
"","image-keyboard-response","174","87215","0.0-174.0","3TUI152ZZC9Z997SBW2XI3Z3LPWQ17","A38YRR6XIUXMRB","3MXX6RQ9EVRTFC527Z18RDK8KW6P4R","","623.2000000476837","img/land3.png","75","624.2999999523163","2","1","2","2","0.8,0.2,0.2,0.2,0.8,0.2,0.2,0.2,0.8","0.8,0.2,0.2,0.2,0.8,0.2,0.2,0.2,0.8","1","",""
"","html-keyboard-response","175","87517","0.0-175.0","3TUI152ZZC9Z997SBW2XI3Z3LPWQ17","A38YRR6XIUXMRB","3MXX6RQ9EVRTFC527Z18RDK8KW6P4R","","null","<img src=""img/land3.png"" style=""width:200px; border:14px solid green;"">","null","","","","","","","","","",""
"","image-keyboard-response","176","87986","0.0-176.0","3TUI152ZZC9Z997SBW2XI3Z3LPWQ17","A38YRR6XIUXMRB","3MXX6RQ9EVRTFC527Z18RDK8KW6P4R","","466.2000000476837","img/land5.png","76","467.7000000476837","3","0","1","2","0.8,0.2,0.2,0.2,0.8,0.2,0.2,0.2,0.8","0.8,0.2,0.2,0.2,0.8,0.2,0.2,0.2,0.8","1","",""
"","html-keyboard-response","177","88289","0.0-177.0","3TUI152ZZC9Z997SBW2XI3Z3LPWQ17","A38YRR6XIUXMRB","3MXX6RQ9EVRTFC527Z18RDK8KW6P4R","","null","<img src=""img/land5.png"" style=""width:200px;border:14px solid red;"">","null","","","","","","","","","",""
"","image-keyboard-response","178","88594","0.0-178.0","3TUI152ZZC9Z997SBW2XI3Z3LPWQ17","A38YRR6XIUXMRB","3MXX6RQ9EVRTFC527Z18RDK8KW6P4R","","302","img/land3.png","74","304.2000000476837","1","0","2","2","0.8,0.2,0.2,0.2,0.8,0.2,0.2,0.2,0.8","0.8,0.2,0.2,0.2,0.8,0.2,0.2,0.2,0.8","1","",""
"","html-keyboard-response","179","88897","0.0-179.0","3TUI152ZZC9Z997SBW2XI3Z3LPWQ17","A38YRR6XIUXMRB","3MXX6RQ9EVRTFC527Z18RDK8KW6P4R","","null","<img src=""img/land3.png"" style=""width:200px;border:14px solid red;"">","null","","","","","","","","","",""
"","image-keyboard-response","180","89734","0.0-180.0","3TUI152ZZC9Z997SBW2XI3Z3LPWQ17","A38YRR6XIUXMRB","3MXX6RQ9EVRTFC527Z18RDK8KW6P4R","","834.5999999046326","img/land5.png","74","836.0999999046326","1","1","1","2","0.8,0.2,0.2,0.2,0.8,0.2,0.2,0.2,0.8","0.8,0.2,0.2,0.2,0.8,0.2,0.2,0.2,0.8","1","",""
"","html-keyboard-response","181","90036","0.0-181.0","3TUI152ZZC9Z997SBW2XI3Z3LPWQ17","A38YRR6XIUXMRB","3MXX6RQ9EVRTFC527Z18RDK8KW6P4R","","null","<img src=""img/land5.png"" style=""width:200px; border:14px solid green;"">","null","","","","","","","","","",""
"","image-keyboard-response","182","90458","0.0-182.0","3TUI152ZZC9Z997SBW2XI3Z3LPWQ17","A38YRR6XIUXMRB","3MXX6RQ9EVRTFC527Z18RDK8KW6P4R","","419.40000009536743","img/land5.png","74","420.7000000476837","1","1","1","2","0.8,0.2,0.2,0.2,0.8,0.2,0.2,0.2,0.8","0.8,0.2,0.2,0.2,0.8,0.2,0.2,0.2,0.8","1","",""
"","html-keyboard-response","183","90762","0.0-183.0","3TUI152ZZC9Z997SBW2XI3Z3LPWQ17","A38YRR6XIUXMRB","3MXX6RQ9EVRTFC527Z18RDK8KW6P4R","","null","<img src=""img/land5.png"" style=""width:200px; border:14px solid green;"">","null","","","","","","","","","",""
"","image-keyboard-response","184","91180","0.0-184.0","3TUI152ZZC9Z997SBW2XI3Z3LPWQ17","A38YRR6XIUXMRB","3MXX6RQ9EVRTFC527Z18RDK8KW6P4R","","415.7999999523163","img/land5.png","74","417.89999985694885","1","1","1","2","0.8,0.2,0.2,0.2,0.8,0.2,0.2,0.2,0.8","0.8,0.2,0.2,0.2,0.8,0.2,0.2,0.2,0.8","1","",""
"","html-keyboard-response","185","91483","0.0-185.0","3TUI152ZZC9Z997SBW2XI3Z3LPWQ17","A38YRR6XIUXMRB","3MXX6RQ9EVRTFC527Z18RDK8KW6P4R","","null","<img src=""img/land5.png"" style=""width:200px; border:14px solid green;"">","null","","","","","","","","","",""
"","image-keyboard-response","186","91879","0.0-186.0","3TUI152ZZC9Z997SBW2XI3Z3LPWQ17","A38YRR6XIUXMRB","3MXX6RQ9EVRTFC527Z18RDK8KW6P4R","","394.90000009536743","img/land5.png","74","396","1","1","1","2","0.8,0.2,0.2,0.2,0.8,0.2,0.2,0.2,0.8","0.8,0.2,0.2,0.2,0.8,0.2,0.2,0.2,0.8","1","",""
"","html-keyboard-response","187","92181","0.0-187.0","3TUI152ZZC9Z997SBW2XI3Z3LPWQ17","A38YRR6XIUXMRB","3MXX6RQ9EVRTFC527Z18RDK8KW6P4R","","null","<img src=""img/land5.png"" style=""width:200px; border:14px solid green;"">","null","","","","","","","","","",""
"","image-keyboard-response","188","92915","0.0-188.0","3TUI152ZZC9Z997SBW2XI3Z3LPWQ17","A38YRR6XIUXMRB","3MXX6RQ9EVRTFC527Z18RDK8KW6P4R","","731.5","img/land4.png","76","732.8999998569489","3","1","3","2","0.8,0.2,0.2,0.2,0.8,0.2,0.2,0.2,0.8","0.8,0.2,0.2,0.2,0.8,0.2,0.2,0.2,0.8","1","",""
"","html-keyboard-response","189","93237","0.0-189.0","3TUI152ZZC9Z997SBW2XI3Z3LPWQ17","A38YRR6XIUXMRB","3MXX6RQ9EVRTFC527Z18RDK8KW6P4R","","null","<img src=""img/land4.png"" style=""width:200px; border:14px solid green;"">","null","","","","","","","","","",""
"","image-keyboard-response","190","94460","0.0-190.0","3TUI152ZZC9Z997SBW2XI3Z3LPWQ17","A38YRR6XIUXMRB","3MXX6RQ9EVRTFC527Z18RDK8KW6P4R","","1221.6000001430511","img/land5.png","74","1222.7000000476837","1","0","1","2","0.8,0.2,0.2,0.2,0.8,0.2,0.2,0.2,0.8","0.8,0.2,0.2,0.2,0.8,0.2,0.2,0.2,0.8","1","",""
"","html-keyboard-response","191","94765","0.0-191.0","3TUI152ZZC9Z997SBW2XI3Z3LPWQ17","A38YRR6XIUXMRB","3MXX6RQ9EVRTFC527Z18RDK8KW6P4R","","null","<img src=""img/land5.png"" style=""width:200px;border:14px solid red;"">","null","","","","","","","","","",""
"","image-keyboard-response","192","95233","0.0-192.0","3TUI152ZZC9Z997SBW2XI3Z3LPWQ17","A38YRR6XIUXMRB","3MXX6RQ9EVRTFC527Z18RDK8KW6P4R","","465.7999999523163","img/land5.png","74","467.2999999523163","1","1","1","2","0.8,0.2,0.2,0.2,0.8,0.2,0.2,0.2,0.8","0.8,0.2,0.2,0.2,0.8,0.2,0.2,0.2,0.8","1","",""
"","html-keyboard-response","193","95536","0.0-193.0","3TUI152ZZC9Z997SBW2XI3Z3LPWQ17","A38YRR6XIUXMRB","3MXX6RQ9EVRTFC527Z18RDK8KW6P4R","","null","<img src=""img/land5.png"" style=""width:200px; border:14px solid green;"">","null","","","","","","","","","",""
"","image-keyboard-response","194","96206","0.0-194.0","3TUI152ZZC9Z997SBW2XI3Z3LPWQ17","A38YRR6XIUXMRB","3MXX6RQ9EVRTFC527Z18RDK8KW6P4R","","668.7000000476837","img/land5.png","74","670","1","0","1","2","0.8,0.2,0.2,0.2,0.8,0.2,0.2,0.2,0.8","0.8,0.2,0.2,0.2,0.8,0.2,0.2,0.2,0.8","1","",""
"","html-keyboard-response","195","96509","0.0-195.0","3TUI152ZZC9Z997SBW2XI3Z3LPWQ17","A38YRR6XIUXMRB","3MXX6RQ9EVRTFC527Z18RDK8KW6P4R","","null","<img src=""img/land5.png"" style=""width:200px;border:14px solid red;"">","null","","","","","","","","","",""
"","image-keyboard-response","196","97104","0.0-196.0","3TUI152ZZC9Z997SBW2XI3Z3LPWQ17","A38YRR6XIUXMRB","3MXX6RQ9EVRTFC527Z18RDK8KW6P4R","","592.9000000953674","img/land5.png","76","594.5","3","0","1","2","0.8,0.2,0.2,0.2,0.8,0.2,0.2,0.2,0.8","0.8,0.2,0.2,0.2,0.8,0.2,0.2,0.2,0.8","1","",""
"","html-keyboard-response","197","97408","0.0-197.0","3TUI152ZZC9Z997SBW2XI3Z3LPWQ17","A38YRR6XIUXMRB","3MXX6RQ9EVRTFC527Z18RDK8KW6P4R","","null","<img src=""img/land5.png"" style=""width:200px;border:14px solid red;"">","null","","","","","","","","","",""
"","image-keyboard-response","198","97895","0.0-198.0","3TUI152ZZC9Z997SBW2XI3Z3LPWQ17","A38YRR6XIUXMRB","3MXX6RQ9EVRTFC527Z18RDK8KW6P4R","","484.09999990463257","img/land4.png","74","485.59999990463257","1","0","3","2","0.8,0.2,0.2,0.2,0.8,0.2,0.2,0.2,0.8","0.8,0.2,0.2,0.2,0.8,0.2,0.2,0.2,0.8","1","",""
"","html-keyboard-response","199","98198","0.0-199.0","3TUI152ZZC9Z997SBW2XI3Z3LPWQ17","A38YRR6XIUXMRB","3MXX6RQ9EVRTFC527Z18RDK8KW6P4R","","null","<img src=""img/land4.png"" style=""width:200px;border:14px solid red;"">","null","","","","","","","","","",""
"","image-keyboard-response","200","98974","0.0-200.0","3TUI152ZZC9Z997SBW2XI3Z3LPWQ17","A38YRR6XIUXMRB","3MXX6RQ9EVRTFC527Z18RDK8KW6P4R","","774.5","img/land4.png","74","775.7999999523163","1","0","3","2","0.8,0.2,0.2,0.2,0.8,0.2,0.2,0.2,0.8","0.8,0.2,0.2,0.2,0.8,0.2,0.2,0.2,0.8","1","",""
"","html-keyboard-response","201","99277","0.0-201.0","3TUI152ZZC9Z997SBW2XI3Z3LPWQ17","A38YRR6XIUXMRB","3MXX6RQ9EVRTFC527Z18RDK8KW6P4R","","null","<img src=""img/land4.png"" style=""width:200px;border:14px solid red;"">","null","","","","","","","","","",""
"","image-keyboard-response","202","99515","0.0-202.0","3TUI152ZZC9Z997SBW2XI3Z3LPWQ17","A38YRR6XIUXMRB","3MXX6RQ9EVRTFC527Z18RDK8KW6P4R","","236.09999990463257","img/land4.png","76","237.5","3","1","3","2","0.8,0.2,0.2,0.2,0.8,0.2,0.2,0.2,0.8","0.8,0.2,0.2,0.2,0.8,0.2,0.2,0.2,0.8","1","",""
"","html-keyboard-response","203","99822","0.0-203.0","3TUI152ZZC9Z997SBW2XI3Z3LPWQ17","A38YRR6XIUXMRB","3MXX6RQ9EVRTFC527Z18RDK8KW6P4R","","null","<img src=""img/land4.png"" style=""width:200px; border:14px solid green;"">","null","","","","","","","","","",""
"","image-keyboard-response","204","100521","0.0-204.0","3TUI152ZZC9Z997SBW2XI3Z3LPWQ17","A38YRR6XIUXMRB","3MXX6RQ9EVRTFC527Z18RDK8KW6P4R","","696.9000000953674","img/land5.png","74","698.1000001430511","1","1","1","2","0.8,0.2,0.2,0.2,0.8,0.2,0.2,0.2,0.8","0.8,0.2,0.2,0.2,0.8,0.2,0.2,0.2,0.8","1","",""
"","html-keyboard-response","205","100824","0.0-205.0","3TUI152ZZC9Z997SBW2XI3Z3LPWQ17","A38YRR6XIUXMRB","3MXX6RQ9EVRTFC527Z18RDK8KW6P4R","","null","<img src=""img/land5.png"" style=""width:200px; border:14px solid green;"">","null","","","","","","","","","",""
"","image-keyboard-response","206","101197","0.0-206.0","3TUI152ZZC9Z997SBW2XI3Z3LPWQ17","A38YRR6XIUXMRB","3MXX6RQ9EVRTFC527Z18RDK8KW6P4R","","369.2999999523163","img/land5.png","74","372.2999999523163","1","1","1","2","0.8,0.2,0.2,0.2,0.8,0.2,0.2,0.2,0.8","0.8,0.2,0.2,0.2,0.8,0.2,0.2,0.2,0.8","1","",""
"","html-keyboard-response","207","101500","0.0-207.0","3TUI152ZZC9Z997SBW2XI3Z3LPWQ17","A38YRR6XIUXMRB","3MXX6RQ9EVRTFC527Z18RDK8KW6P4R","","null","<img src=""img/land5.png"" style=""width:200px; border:14px solid green;"">","null","","","","","","","","","",""
"","image-keyboard-response","208","102084","0.0-208.0","3TUI152ZZC9Z997SBW2XI3Z3LPWQ17","A38YRR6XIUXMRB","3MXX6RQ9EVRTFC527Z18RDK8KW6P4R","","581.2000000476837","img/land3.png","75","582.6000001430511","2","1","2","2","0.8,0.2,0.2,0.2,0.8,0.2,0.2,0.2,0.8","0.8,0.2,0.2,0.2,0.8,0.2,0.2,0.2,0.8","1","",""
"","html-keyboard-response","209","102386","0.0-209.0","3TUI152ZZC9Z997SBW2XI3Z3LPWQ17","A38YRR6XIUXMRB","3MXX6RQ9EVRTFC527Z18RDK8KW6P4R","","null","<img src=""img/land3.png"" style=""width:200px; border:14px solid green;"">","null","","","","","","","","","",""
"","image-keyboard-response","210","103047","0.0-210.0","3TUI152ZZC9Z997SBW2XI3Z3LPWQ17","A38YRR6XIUXMRB","3MXX6RQ9EVRTFC527Z18RDK8KW6P4R","","658.7999999523163","img/land5.png","74","660.1000001430511","1","1","1","2","0.8,0.2,0.2,0.2,0.8,0.2,0.2,0.2,0.8","0.8,0.2,0.2,0.2,0.8,0.2,0.2,0.2,0.8","1","",""
"","html-keyboard-response","211","103349","0.0-211.0","3TUI152ZZC9Z997SBW2XI3Z3LPWQ17","A38YRR6XIUXMRB","3MXX6RQ9EVRTFC527Z18RDK8KW6P4R","","null","<img src=""img/land5.png"" style=""width:200px; border:14px solid green;"">","null","","","","","","","","","",""
"","image-keyboard-response","212","103766","0.0-212.0","3TUI152ZZC9Z997SBW2XI3Z3LPWQ17","A38YRR6XIUXMRB","3MXX6RQ9EVRTFC527Z18RDK8KW6P4R","","415.09999990463257","img/land5.png","74","416","1","0","1","2","0.8,0.2,0.2,0.2,0.8,0.2,0.2,0.2,0.8","0.8,0.2,0.2,0.2,0.8,0.2,0.2,0.2,0.8","1","",""
"","html-keyboard-response","213","104069","0.0-213.0","3TUI152ZZC9Z997SBW2XI3Z3LPWQ17","A38YRR6XIUXMRB","3MXX6RQ9EVRTFC527Z18RDK8KW6P4R","","null","<img src=""img/land5.png"" style=""width:200px;border:14px solid red;"">","null","","","","","","","","","",""
"","image-keyboard-response","214","104477","0.0-214.0","3TUI152ZZC9Z997SBW2XI3Z3LPWQ17","A38YRR6XIUXMRB","3MXX6RQ9EVRTFC527Z18RDK8KW6P4R","","406.7000000476837","img/land5.png","74","408","1","1","1","2","0.8,0.2,0.2,0.2,0.8,0.2,0.2,0.2,0.8","0.8,0.2,0.2,0.2,0.8,0.2,0.2,0.2,0.8","1","",""
"","html-keyboard-response","215","104780","0.0-215.0","3TUI152ZZC9Z997SBW2XI3Z3LPWQ17","A38YRR6XIUXMRB","3MXX6RQ9EVRTFC527Z18RDK8KW6P4R","","null","<img src=""img/land5.png"" style=""width:200px; border:14px solid green;"">","null","","","","","","","","","",""
"","image-keyboard-response","216","105305","0.0-216.0","3TUI152ZZC9Z997SBW2XI3Z3LPWQ17","A38YRR6XIUXMRB","3MXX6RQ9EVRTFC527Z18RDK8KW6P4R","","523.3999998569489","img/land3.png","75","524.5999999046326","2","1","2","2","0.8,0.2,0.2,0.2,0.8,0.2,0.2,0.2,0.8","0.8,0.2,0.2,0.2,0.8,0.2,0.2,0.2,0.8","1","",""
"","html-keyboard-response","217","105609","0.0-217.0","3TUI152ZZC9Z997SBW2XI3Z3LPWQ17","A38YRR6XIUXMRB","3MXX6RQ9EVRTFC527Z18RDK8KW6P4R","","null","<img src=""img/land3.png"" style=""width:200px; border:14px solid green;"">","null","","","","","","","","","",""
"","image-keyboard-response","218","105944","0.0-218.0","3TUI152ZZC9Z997SBW2XI3Z3LPWQ17","A38YRR6XIUXMRB","3MXX6RQ9EVRTFC527Z18RDK8KW6P4R","","333.5","img/land3.png","75","334.59999990463257","2","1","2","2","0.8,0.2,0.2,0.2,0.8,0.2,0.2,0.2,0.8","0.8,0.2,0.2,0.2,0.8,0.2,0.2,0.2,0.8","1","",""
"","html-keyboard-response","219","106247","0.0-219.0","3TUI152ZZC9Z997SBW2XI3Z3LPWQ17","A38YRR6XIUXMRB","3MXX6RQ9EVRTFC527Z18RDK8KW6P4R","","null","<img src=""img/land3.png"" style=""width:200px; border:14px solid green;"">","null","","","","","","","","","",""
"","image-keyboard-response","220","106616","0.0-220.0","3TUI152ZZC9Z997SBW2XI3Z3LPWQ17","A38YRR6XIUXMRB","3MXX6RQ9EVRTFC527Z18RDK8KW6P4R","","366.59999990463257","img/land3.png","75","368.10000014305115","2","1","2","2","0.8,0.2,0.2,0.2,0.8,0.2,0.2,0.2,0.8","0.8,0.2,0.2,0.2,0.8,0.2,0.2,0.2,0.8","1","",""
"","html-keyboard-response","221","106919","0.0-221.0","3TUI152ZZC9Z997SBW2XI3Z3LPWQ17","A38YRR6XIUXMRB","3MXX6RQ9EVRTFC527Z18RDK8KW6P4R","","null","<img src=""img/land3.png"" style=""width:200px; border:14px solid green;"">","null","","","","","","","","","",""
"","image-keyboard-response","222","107543","0.0-222.0","3TUI152ZZC9Z997SBW2XI3Z3LPWQ17","A38YRR6XIUXMRB","3MXX6RQ9EVRTFC527Z18RDK8KW6P4R","","622.2999999523163","img/land5.png","74","623.5","1","1","1","2","0.8,0.2,0.2,0.2,0.8,0.2,0.2,0.2,0.8","0.8,0.2,0.2,0.2,0.8,0.2,0.2,0.2,0.8","1","",""
"","html-keyboard-response","223","107846","0.0-223.0","3TUI152ZZC9Z997SBW2XI3Z3LPWQ17","A38YRR6XIUXMRB","3MXX6RQ9EVRTFC527Z18RDK8KW6P4R","","null","<img src=""img/land5.png"" style=""width:200px; border:14px solid green;"">","null","","","","","","","","","",""
"","image-keyboard-response","224","108191","0.0-224.0","3TUI152ZZC9Z997SBW2XI3Z3LPWQ17","A38YRR6XIUXMRB","3MXX6RQ9EVRTFC527Z18RDK8KW6P4R","","342.09999990463257","img/land5.png","74","343.7999999523163","1","0","1","2","0.8,0.2,0.2,0.2,0.8,0.2,0.2,0.2,0.8","0.8,0.2,0.2,0.2,0.8,0.2,0.2,0.2,0.8","1","",""
"","html-keyboard-response","225","108493","0.0-225.0","3TUI152ZZC9Z997SBW2XI3Z3LPWQ17","A38YRR6XIUXMRB","3MXX6RQ9EVRTFC527Z18RDK8KW6P4R","","null","<img src=""img/land5.png"" style=""width:200px;border:14px solid red;"">","null","","","","","","","","","",""
"","image-keyboard-response","226","108912","0.0-226.0","3TUI152ZZC9Z997SBW2XI3Z3LPWQ17","A38YRR6XIUXMRB","3MXX6RQ9EVRTFC527Z18RDK8KW6P4R","","417.2999999523163","img/land5.png","74","418.5","1","1","1","2","0.8,0.2,0.2,0.2,0.8,0.2,0.2,0.2,0.8","0.8,0.2,0.2,0.2,0.8,0.2,0.2,0.2,0.8","1","",""
"","html-keyboard-response","227","109215","0.0-227.0","3TUI152ZZC9Z997SBW2XI3Z3LPWQ17","A38YRR6XIUXMRB","3MXX6RQ9EVRTFC527Z18RDK8KW6P4R","","null","<img src=""img/land5.png"" style=""width:200px; border:14px solid green;"">","null","","","","","","","","","",""
"","image-keyboard-response","228","109939","0.0-228.0","3TUI152ZZC9Z997SBW2XI3Z3LPWQ17","A38YRR6XIUXMRB","3MXX6RQ9EVRTFC527Z18RDK8KW6P4R","","722.5","img/land4.png","76","723.8999998569489","3","1","3","2","0.8,0.2,0.2,0.2,0.8,0.2,0.2,0.2,0.8","0.8,0.2,0.2,0.2,0.8,0.2,0.2,0.2,0.8","1","",""
"","html-keyboard-response","229","110242","0.0-229.0","3TUI152ZZC9Z997SBW2XI3Z3LPWQ17","A38YRR6XIUXMRB","3MXX6RQ9EVRTFC527Z18RDK8KW6P4R","","null","<img src=""img/land4.png"" style=""width:200px; border:14px solid green;"">","null","","","","","","","","","",""
"","image-keyboard-response","230","110859","0.0-230.0","3TUI152ZZC9Z997SBW2XI3Z3LPWQ17","A38YRR6XIUXMRB","3MXX6RQ9EVRTFC527Z18RDK8KW6P4R","","614.7000000476837","img/land5.png","74","616","1","0","1","2","0.8,0.2,0.2,0.2,0.8,0.2,0.2,0.2,0.8","0.8,0.2,0.2,0.2,0.8,0.2,0.2,0.2,0.8","1","",""
"","html-keyboard-response","231","111162","0.0-231.0","3TUI152ZZC9Z997SBW2XI3Z3LPWQ17","A38YRR6XIUXMRB","3MXX6RQ9EVRTFC527Z18RDK8KW6P4R","","null","<img src=""img/land5.png"" style=""width:200px;border:14px solid red;"">","null","","","","","","","","","",""
"","image-keyboard-response","232","111616","0.0-232.0","3TUI152ZZC9Z997SBW2XI3Z3LPWQ17","A38YRR6XIUXMRB","3MXX6RQ9EVRTFC527Z18RDK8KW6P4R","","450.59999990463257","img/land5.png","74","452.2000000476837","1","1","1","2","0.8,0.2,0.2,0.2,0.8,0.2,0.2,0.2,0.8","0.8,0.2,0.2,0.2,0.8,0.2,0.2,0.2,0.8","1","",""
"","html-keyboard-response","233","111917","0.0-233.0","3TUI152ZZC9Z997SBW2XI3Z3LPWQ17","A38YRR6XIUXMRB","3MXX6RQ9EVRTFC527Z18RDK8KW6P4R","","null","<img src=""img/land5.png"" style=""width:200px; border:14px solid green;"">","null","","","","","","","","","",""
"","image-keyboard-response","234","112316","0.0-234.0","3TUI152ZZC9Z997SBW2XI3Z3LPWQ17","A38YRR6XIUXMRB","3MXX6RQ9EVRTFC527Z18RDK8KW6P4R","","395.59999990463257","img/land5.png","74","398.60000014305115","1","0","1","2","0.8,0.2,0.2,0.2,0.8,0.2,0.2,0.2,0.8","0.8,0.2,0.2,0.2,0.8,0.2,0.2,0.2,0.8","1","",""
"","html-keyboard-response","235","112620","0.0-235.0","3TUI152ZZC9Z997SBW2XI3Z3LPWQ17","A38YRR6XIUXMRB","3MXX6RQ9EVRTFC527Z18RDK8KW6P4R","","null","<img src=""img/land5.png"" style=""width:200px;border:14px solid red;"">","null","","","","","","","","","",""
"","image-keyboard-response","236","113194","0.0-236.0","3TUI152ZZC9Z997SBW2XI3Z3LPWQ17","A38YRR6XIUXMRB","3MXX6RQ9EVRTFC527Z18RDK8KW6P4R","","572","img/land3.png","75","573.3000001907349","2","1","2","2","0.8,0.2,0.2,0.2,0.8,0.2,0.2,0.2,0.8","0.8,0.2,0.2,0.2,0.8,0.2,0.2,0.2,0.8","1","",""
"","html-keyboard-response","237","113497","0.0-237.0","3TUI152ZZC9Z997SBW2XI3Z3LPWQ17","A38YRR6XIUXMRB","3MXX6RQ9EVRTFC527Z18RDK8KW6P4R","","null","<img src=""img/land3.png"" style=""width:200px; border:14px solid green;"">","null","","","","","","","","","",""
"","image-keyboard-response","238","114165","0.0-238.0","3TUI152ZZC9Z997SBW2XI3Z3LPWQ17","A38YRR6XIUXMRB","3MXX6RQ9EVRTFC527Z18RDK8KW6P4R","","664.7999999523163","img/land5.png","74","666.3000001907349","1","1","1","2","0.8,0.2,0.2,0.2,0.8,0.2,0.2,0.2,0.8","0.8,0.2,0.2,0.2,0.8,0.2,0.2,0.2,0.8","1","",""
"","html-keyboard-response","239","114468","0.0-239.0","3TUI152ZZC9Z997SBW2XI3Z3LPWQ17","A38YRR6XIUXMRB","3MXX6RQ9EVRTFC527Z18RDK8KW6P4R","","null","<img src=""img/land5.png"" style=""width:200px; border:14px solid green;"">","null","","","","","","","","","",""
"","image-keyboard-response","240","114865","0.0-240.0","3TUI152ZZC9Z997SBW2XI3Z3LPWQ17","A38YRR6XIUXMRB","3MXX6RQ9EVRTFC527Z18RDK8KW6P4R","","395.2000000476837","img/land5.png","74","396.69999980926514","1","1","1","2","0.8,0.2,0.2,0.2,0.8,0.2,0.2,0.2,0.8","0.8,0.2,0.2,0.2,0.8,0.2,0.2,0.2,0.8","1","",""
"","html-keyboard-response","241","115168","0.0-241.0","3TUI152ZZC9Z997SBW2XI3Z3LPWQ17","A38YRR6XIUXMRB","3MXX6RQ9EVRTFC527Z18RDK8KW6P4R","","null","<img src=""img/land5.png"" style=""width:200px; border:14px solid green;"">","null","","","","","","","","","",""
"","image-keyboard-response","242","115517","0.0-242.0","3TUI152ZZC9Z997SBW2XI3Z3LPWQ17","A38YRR6XIUXMRB","3MXX6RQ9EVRTFC527Z18RDK8KW6P4R","","346.60000014305115","img/land5.png","74","348","1","1","1","2","0.8,0.2,0.2,0.2,0.8,0.2,0.2,0.2,0.8","0.8,0.2,0.2,0.2,0.8,0.2,0.2,0.2,0.8","1","",""
"","html-keyboard-response","243","115819","0.0-243.0","3TUI152ZZC9Z997SBW2XI3Z3LPWQ17","A38YRR6XIUXMRB","3MXX6RQ9EVRTFC527Z18RDK8KW6P4R","","null","<img src=""img/land5.png"" style=""width:200px; border:14px solid green;"">","null","","","","","","","","","",""
"","image-keyboard-response","244","116146","0.0-244.0","3TUI152ZZC9Z997SBW2XI3Z3LPWQ17","A38YRR6XIUXMRB","3MXX6RQ9EVRTFC527Z18RDK8KW6P4R","","324.10000014305115","img/land5.png","74","325.89999985694885","1","0","1","2","0.8,0.2,0.2,0.2,0.8,0.2,0.2,0.2,0.8","0.8,0.2,0.2,0.2,0.8,0.2,0.2,0.2,0.8","1","",""
"","html-keyboard-response","245","116448","0.0-245.0","3TUI152ZZC9Z997SBW2XI3Z3LPWQ17","A38YRR6XIUXMRB","3MXX6RQ9EVRTFC527Z18RDK8KW6P4R","","null","<img src=""img/land5.png"" style=""width:200px;border:14px solid red;"">","null","","","","","","","","","",""
"","image-keyboard-response","246","116998","0.0-246.0","3TUI152ZZC9Z997SBW2XI3Z3LPWQ17","A38YRR6XIUXMRB","3MXX6RQ9EVRTFC527Z18RDK8KW6P4R","","548.7999999523163","img/land3.png","75","550","2","0","2","2","0.8,0.2,0.2,0.2,0.8,0.2,0.2,0.2,0.8","0.8,0.2,0.2,0.2,0.8,0.2,0.2,0.2,0.8","1","",""
"","html-keyboard-response","247","117301","0.0-247.0","3TUI152ZZC9Z997SBW2XI3Z3LPWQ17","A38YRR6XIUXMRB","3MXX6RQ9EVRTFC527Z18RDK8KW6P4R","","null","<img src=""img/land3.png"" style=""width:200px;border:14px solid red;"">","null","","","","","","","","","",""
"","image-keyboard-response","248","117859","0.0-248.0","3TUI152ZZC9Z997SBW2XI3Z3LPWQ17","A38YRR6XIUXMRB","3MXX6RQ9EVRTFC527Z18RDK8KW6P4R","","555.7999999523163","img/land3.png","75","557.0999999046326","2","1","2","2","0.8,0.2,0.2,0.2,0.8,0.2,0.2,0.2,0.8","0.8,0.2,0.2,0.2,0.8,0.2,0.2,0.2,0.8","1","",""
"","html-keyboard-response","249","118161","0.0-249.0","3TUI152ZZC9Z997SBW2XI3Z3LPWQ17","A38YRR6XIUXMRB","3MXX6RQ9EVRTFC527Z18RDK8KW6P4R","","null","<img src=""img/land3.png"" style=""width:200px; border:14px solid green;"">","null","","","","","","","","","",""
"","image-keyboard-response","250","118850","0.0-250.0","3TUI152ZZC9Z997SBW2XI3Z3LPWQ17","A38YRR6XIUXMRB","3MXX6RQ9EVRTFC527Z18RDK8KW6P4R","","687.5","img/land5.png","74","688.7999999523163","1","1","1","2","0.8,0.2,0.2,0.2,0.8,0.2,0.2,0.2,0.8","0.8,0.2,0.2,0.2,0.8,0.2,0.2,0.2,0.8","1","",""
"","html-keyboard-response","251","119154","0.0-251.0","3TUI152ZZC9Z997SBW2XI3Z3LPWQ17","A38YRR6XIUXMRB","3MXX6RQ9EVRTFC527Z18RDK8KW6P4R","","null","<img src=""img/land5.png"" style=""width:200px; border:14px solid green;"">","null","","","","","","","","","",""
"","image-keyboard-response","252","119546","0.0-252.0","3TUI152ZZC9Z997SBW2XI3Z3LPWQ17","A38YRR6XIUXMRB","3MXX6RQ9EVRTFC527Z18RDK8KW6P4R","","390.69999980926514","img/land5.png","74","391.7999999523163","1","0","1","2","0.8,0.2,0.2,0.2,0.8,0.2,0.2,0.2,0.8","0.8,0.2,0.2,0.2,0.8,0.2,0.2,0.2,0.8","1","",""
"","html-keyboard-response","253","119848","0.0-253.0","3TUI152ZZC9Z997SBW2XI3Z3LPWQ17","A38YRR6XIUXMRB","3MXX6RQ9EVRTFC527Z18RDK8KW6P4R","","null","<img src=""img/land5.png"" style=""width:200px;border:14px solid red;"">","null","","","","","","","","","",""
"","image-keyboard-response","254","120761","0.0-254.0","3TUI152ZZC9Z997SBW2XI3Z3LPWQ17","A38YRR6XIUXMRB","3MXX6RQ9EVRTFC527Z18RDK8KW6P4R","","909.6999998092651","img/land5.png","74","912.2000000476837","1","1","1","2","0.8,0.2,0.2,0.2,0.8,0.2,0.2,0.2,0.8","0.8,0.2,0.2,0.2,0.8,0.2,0.2,0.2,0.8","1","",""
"","html-keyboard-response","255","121064","0.0-255.0","3TUI152ZZC9Z997SBW2XI3Z3LPWQ17","A38YRR6XIUXMRB","3MXX6RQ9EVRTFC527Z18RDK8KW6P4R","","null","<img src=""img/land5.png"" style=""width:200px; border:14px solid green;"">","null","","","","","","","","","",""
"","image-keyboard-response","256","121538","0.0-256.0","3TUI152ZZC9Z997SBW2XI3Z3LPWQ17","A38YRR6XIUXMRB","3MXX6RQ9EVRTFC527Z18RDK8KW6P4R","","472.5","img/land5.png","74","473.7999999523163","1","1","1","2","0.8,0.2,0.2,0.2,0.8,0.2,0.2,0.2,0.8","0.8,0.2,0.2,0.2,0.8,0.2,0.2,0.2,0.8","1","",""
"","html-keyboard-response","257","121840","0.0-257.0","3TUI152ZZC9Z997SBW2XI3Z3LPWQ17","A38YRR6XIUXMRB","3MXX6RQ9EVRTFC527Z18RDK8KW6P4R","","null","<img src=""img/land5.png"" style=""width:200px; border:14px solid green;"">","null","","","","","","","","","",""
"","image-keyboard-response","258","122442","0.0-258.0","3TUI152ZZC9Z997SBW2XI3Z3LPWQ17","A38YRR6XIUXMRB","3MXX6RQ9EVRTFC527Z18RDK8KW6P4R","","600","img/land4.png","75","601.4000000953674","2","0","3","2","0.8,0.2,0.2,0.2,0.8,0.2,0.2,0.2,0.8","0.8,0.2,0.2,0.2,0.8,0.2,0.2,0.2,0.8","1","",""
"","html-keyboard-response","259","122746","0.0-259.0","3TUI152ZZC9Z997SBW2XI3Z3LPWQ17","A38YRR6XIUXMRB","3MXX6RQ9EVRTFC527Z18RDK8KW6P4R","","null","<img src=""img/land4.png"" style=""width:200px;border:14px solid red;"">","null","","","","","","","","","",""
"","image-keyboard-response","260","122878","0.0-260.0","3TUI152ZZC9Z997SBW2XI3Z3LPWQ17","A38YRR6XIUXMRB","3MXX6RQ9EVRTFC527Z18RDK8KW6P4R","","130.30000019073486","img/land4.png","76","131.69999980926514","3","1","3","2","0.8,0.2,0.2,0.2,0.8,0.2,0.2,0.2,0.8","0.8,0.2,0.2,0.2,0.8,0.2,0.2,0.2,0.8","1","",""
"","html-keyboard-response","261","123181","0.0-261.0","3TUI152ZZC9Z997SBW2XI3Z3LPWQ17","A38YRR6XIUXMRB","3MXX6RQ9EVRTFC527Z18RDK8KW6P4R","","null","<img src=""img/land4.png"" style=""width:200px; border:14px solid green;"">","null","","","","","","","","","",""
"","image-keyboard-response","262","123469","0.0-262.0","3TUI152ZZC9Z997SBW2XI3Z3LPWQ17","A38YRR6XIUXMRB","3MXX6RQ9EVRTFC527Z18RDK8KW6P4R","","285.90000009536743","img/land5.png","76","287.59999990463257","3","0","1","2","0.8,0.2,0.2,0.2,0.8,0.2,0.2,0.2,0.8","0.8,0.2,0.2,0.2,0.8,0.2,0.2,0.2,0.8","1","",""
"","html-keyboard-response","263","123772","0.0-263.0","3TUI152ZZC9Z997SBW2XI3Z3LPWQ17","A38YRR6XIUXMRB","3MXX6RQ9EVRTFC527Z18RDK8KW6P4R","","null","<img src=""img/land5.png"" style=""width:200px;border:14px solid red;"">","null","","","","","","","","","",""
"","image-keyboard-response","264","124103","0.0-264.0","3TUI152ZZC9Z997SBW2XI3Z3LPWQ17","A38YRR6XIUXMRB","3MXX6RQ9EVRTFC527Z18RDK8KW6P4R","","328.60000014305115","img/land5.png","74","331.09999990463257","1","1","1","2","0.8,0.2,0.2,0.2,0.8,0.2,0.2,0.2,0.8","0.8,0.2,0.2,0.2,0.8,0.2,0.2,0.2,0.8","1","",""
"","html-keyboard-response","265","124407","0.0-265.0","3TUI152ZZC9Z997SBW2XI3Z3LPWQ17","A38YRR6XIUXMRB","3MXX6RQ9EVRTFC527Z18RDK8KW6P4R","","null","<img src=""img/land5.png"" style=""width:200px; border:14px solid green;"">","null","","","","","","","","","",""
"","image-keyboard-response","266","124720","0.0-266.0","3TUI152ZZC9Z997SBW2XI3Z3LPWQ17","A38YRR6XIUXMRB","3MXX6RQ9EVRTFC527Z18RDK8KW6P4R","","310.90000009536743","img/land5.png","74","312.2999999523163","1","1","1","2","0.8,0.2,0.2,0.2,0.8,0.2,0.2,0.2,0.8","0.8,0.2,0.2,0.2,0.8,0.2,0.2,0.2,0.8","1","",""
"","html-keyboard-response","267","125023","0.0-267.0","3TUI152ZZC9Z997SBW2XI3Z3LPWQ17","A38YRR6XIUXMRB","3MXX6RQ9EVRTFC527Z18RDK8KW6P4R","","null","<img src=""img/land5.png"" style=""width:200px; border:14px solid green;"">","null","","","","","","","","","",""
"","image-keyboard-response","268","125415","0.0-268.0","3TUI152ZZC9Z997SBW2XI3Z3LPWQ17","A38YRR6XIUXMRB","3MXX6RQ9EVRTFC527Z18RDK8KW6P4R","","390.60000014305115","img/land5.png","74","391.7999999523163","1","0","1","2","0.8,0.2,0.2,0.2,0.8,0.2,0.2,0.2,0.8","0.8,0.2,0.2,0.2,0.8,0.2,0.2,0.2,0.8","1","",""
"","html-keyboard-response","269","125717","0.0-269.0","3TUI152ZZC9Z997SBW2XI3Z3LPWQ17","A38YRR6XIUXMRB","3MXX6RQ9EVRTFC527Z18RDK8KW6P4R","","null","<img src=""img/land5.png"" style=""width:200px;border:14px solid red;"">","null","","","","","","","","","",""
"","image-keyboard-response","270","126470","0.0-270.0","3TUI152ZZC9Z997SBW2XI3Z3LPWQ17","A38YRR6XIUXMRB","3MXX6RQ9EVRTFC527Z18RDK8KW6P4R","","751.5","img/land5.png","74","752.9000000953674","1","0","1","2","0.8,0.2,0.2,0.2,0.8,0.2,0.2,0.2,0.8","0.8,0.2,0.2,0.2,0.8,0.2,0.2,0.2,0.8","1","",""
"","html-keyboard-response","271","126772","0.0-271.0","3TUI152ZZC9Z997SBW2XI3Z3LPWQ17","A38YRR6XIUXMRB","3MXX6RQ9EVRTFC527Z18RDK8KW6P4R","","null","<img src=""img/land5.png"" style=""width:200px;border:14px solid red;"">","null","","","","","","","","","",""
"","image-keyboard-response","272","127482","0.0-272.0","3TUI152ZZC9Z997SBW2XI3Z3LPWQ17","A38YRR6XIUXMRB","3MXX6RQ9EVRTFC527Z18RDK8KW6P4R","","706.9000000953674","img/land4.png","76","708.6000001430511","3","1","3","2","0.8,0.2,0.2,0.2,0.8,0.2,0.2,0.2,0.8","0.8,0.2,0.2,0.2,0.8,0.2,0.2,0.2,0.8","1","",""
"","html-keyboard-response","273","127785","0.0-273.0","3TUI152ZZC9Z997SBW2XI3Z3LPWQ17","A38YRR6XIUXMRB","3MXX6RQ9EVRTFC527Z18RDK8KW6P4R","","null","<img src=""img/land4.png"" style=""width:200px; border:14px solid green;"">","null","","","","","","","","","",""
"","image-keyboard-response","274","128518","0.0-274.0","3TUI152ZZC9Z997SBW2XI3Z3LPWQ17","A38YRR6XIUXMRB","3MXX6RQ9EVRTFC527Z18RDK8KW6P4R","","730.5","img/land4.png","76","732.0999999046326","3","1","3","2","0.8,0.2,0.2,0.2,0.8,0.2,0.2,0.2,0.8","0.8,0.2,0.2,0.2,0.8,0.2,0.2,0.2,0.8","1","",""
"","html-keyboard-response","275","128821","0.0-275.0","3TUI152ZZC9Z997SBW2XI3Z3LPWQ17","A38YRR6XIUXMRB","3MXX6RQ9EVRTFC527Z18RDK8KW6P4R","","null","<img src=""img/land4.png"" style=""width:200px; border:14px solid green;"">","null","","","","","","","","","",""
"","image-keyboard-response","276","128985","0.0-276.0","3TUI152ZZC9Z997SBW2XI3Z3LPWQ17","A38YRR6XIUXMRB","3MXX6RQ9EVRTFC527Z18RDK8KW6P4R","","163.20000004768372","img/land5.png","76","164.60000014305115","3","0","1","2","0.8,0.2,0.2,0.2,0.8,0.2,0.2,0.2,0.8","0.8,0.2,0.2,0.2,0.8,0.2,0.2,0.2,0.8","1","",""
"","html-keyboard-response","277","129294","0.0-277.0","3TUI152ZZC9Z997SBW2XI3Z3LPWQ17","A38YRR6XIUXMRB","3MXX6RQ9EVRTFC527Z18RDK8KW6P4R","","null","<img src=""img/land5.png"" style=""width:200px;border:14px solid red;"">","null","","","","","","","","","",""
"","image-keyboard-response","278","129738","0.0-278.0","3TUI152ZZC9Z997SBW2XI3Z3LPWQ17","A38YRR6XIUXMRB","3MXX6RQ9EVRTFC527Z18RDK8KW6P4R","","441.5","img/land3.png","74","442.90000009536743","1","0","2","2","0.8,0.2,0.2,0.2,0.8,0.2,0.2,0.2,0.8","0.8,0.2,0.2,0.2,0.8,0.2,0.2,0.2,0.8","1","",""
"","html-keyboard-response","279","130041","0.0-279.0","3TUI152ZZC9Z997SBW2XI3Z3LPWQ17","A38YRR6XIUXMRB","3MXX6RQ9EVRTFC527Z18RDK8KW6P4R","","null","<img src=""img/land3.png"" style=""width:200px;border:14px solid red;"">","null","","","","","","","","","",""
"","image-keyboard-response","280","130247","0.0-280.0","3TUI152ZZC9Z997SBW2XI3Z3LPWQ17","A38YRR6XIUXMRB","3MXX6RQ9EVRTFC527Z18RDK8KW6P4R","","203","img/land4.png","75","205.70000004768372","2","0","3","2","0.8,0.2,0.2,0.2,0.8,0.2,0.2,0.2,0.8","0.8,0.2,0.2,0.2,0.8,0.2,0.2,0.2,0.8","1","",""
"","html-keyboard-response","281","130549","0.0-281.0","3TUI152ZZC9Z997SBW2XI3Z3LPWQ17","A38YRR6XIUXMRB","3MXX6RQ9EVRTFC527Z18RDK8KW6P4R","","null","<img src=""img/land4.png"" style=""width:200px;border:14px solid red;"">","null","","","","","","","","","",""
"","image-keyboard-response","282","131236","0.0-282.0","3TUI152ZZC9Z997SBW2XI3Z3LPWQ17","A38YRR6XIUXMRB","3MXX6RQ9EVRTFC527Z18RDK8KW6P4R","","683.7000000476837","img/land5.png","74","686","1","1","1","2","0.8,0.2,0.2,0.2,0.8,0.2,0.2,0.2,0.8","0.8,0.2,0.2,0.2,0.8,0.2,0.2,0.2,0.8","1","",""
"","html-keyboard-response","283","131547","0.0-283.0","3TUI152ZZC9Z997SBW2XI3Z3LPWQ17","A38YRR6XIUXMRB","3MXX6RQ9EVRTFC527Z18RDK8KW6P4R","","null","<img src=""img/land5.png"" style=""width:200px; border:14px solid green;"">","null","","","","","","","","","",""
"","image-keyboard-response","284","131838","0.0-284.0","3TUI152ZZC9Z997SBW2XI3Z3LPWQ17","A38YRR6XIUXMRB","3MXX6RQ9EVRTFC527Z18RDK8KW6P4R","","289.7000000476837","img/land4.png","74","291","1","0","3","2","0.8,0.2,0.2,0.2,0.8,0.2,0.2,0.2,0.8","0.8,0.2,0.2,0.2,0.8,0.2,0.2,0.2,0.8","1","",""
"","html-keyboard-response","285","132141","0.0-285.0","3TUI152ZZC9Z997SBW2XI3Z3LPWQ17","A38YRR6XIUXMRB","3MXX6RQ9EVRTFC527Z18RDK8KW6P4R","","null","<img src=""img/land4.png"" style=""width:200px;border:14px solid red;"">","null","","","","","","","","","",""
"","image-keyboard-response","286","132621","0.0-286.0","3TUI152ZZC9Z997SBW2XI3Z3LPWQ17","A38YRR6XIUXMRB","3MXX6RQ9EVRTFC527Z18RDK8KW6P4R","","477.2999999523163","img/land5.png","76","478.7999999523163","3","0","1","2","0.8,0.2,0.2,0.2,0.8,0.2,0.2,0.2,0.8","0.8,0.2,0.2,0.2,0.8,0.2,0.2,0.2,0.8","1","",""
"","html-keyboard-response","287","132923","0.0-287.0","3TUI152ZZC9Z997SBW2XI3Z3LPWQ17","A38YRR6XIUXMRB","3MXX6RQ9EVRTFC527Z18RDK8KW6P4R","","null","<img src=""img/land5.png"" style=""width:200px;border:14px solid red;"">","null","","","","","","","","","",""
"","image-keyboard-response","288","134112","0.0-288.0","3TUI152ZZC9Z997SBW2XI3Z3LPWQ17","A38YRR6XIUXMRB","3MXX6RQ9EVRTFC527Z18RDK8KW6P4R","","1186.1999998092651","img/land3.png","75","1187.5999999046326","2","1","2","2","0.8,0.2,0.2,0.2,0.8,0.2,0.2,0.2,0.8","0.8,0.2,0.2,0.2,0.8,0.2,0.2,0.2,0.8","1","",""
"","html-keyboard-response","289","134415","0.0-289.0","3TUI152ZZC9Z997SBW2XI3Z3LPWQ17","A38YRR6XIUXMRB","3MXX6RQ9EVRTFC527Z18RDK8KW6P4R","","null","<img src=""img/land3.png"" style=""width:200px; border:14px solid green;"">","null","","","","","","","","","",""
"","image-keyboard-response","290","135077","0.0-290.0","3TUI152ZZC9Z997SBW2XI3Z3LPWQ17","A38YRR6XIUXMRB","3MXX6RQ9EVRTFC527Z18RDK8KW6P4R","","659.5","img/land5.png","74","660.7000000476837","1","1","1","2","0.8,0.2,0.2,0.2,0.8,0.2,0.2,0.2,0.8","0.8,0.2,0.2,0.2,0.8,0.2,0.2,0.2,0.8","1","",""
"","html-keyboard-response","291","135379","0.0-291.0","3TUI152ZZC9Z997SBW2XI3Z3LPWQ17","A38YRR6XIUXMRB","3MXX6RQ9EVRTFC527Z18RDK8KW6P4R","","null","<img src=""img/land5.png"" style=""width:200px; border:14px solid green;"">","null","","","","","","","","","",""
"","image-keyboard-response","292","136030","0.0-292.0","3TUI152ZZC9Z997SBW2XI3Z3LPWQ17","A38YRR6XIUXMRB","3MXX6RQ9EVRTFC527Z18RDK8KW6P4R","","649.3999998569489","img/land4.png","76","650.7000000476837","3","1","3","2","0.8,0.2,0.2,0.2,0.8,0.2,0.2,0.2,0.8","0.8,0.2,0.2,0.2,0.8,0.2,0.2,0.2,0.8","1","",""
"","html-keyboard-response","293","136333","0.0-293.0","3TUI152ZZC9Z997SBW2XI3Z3LPWQ17","A38YRR6XIUXMRB","3MXX6RQ9EVRTFC527Z18RDK8KW6P4R","","null","<img src=""img/land4.png"" style=""width:200px; border:14px solid green;"">","null","","","","","","","","","",""
"","image-keyboard-response","294","137000","0.0-294.0","3TUI152ZZC9Z997SBW2XI3Z3LPWQ17","A38YRR6XIUXMRB","3MXX6RQ9EVRTFC527Z18RDK8KW6P4R","","664.2000000476837","img/land3.png","75","666","2","1","2","2","0.8,0.2,0.2,0.2,0.8,0.2,0.2,0.2,0.8","0.8,0.2,0.2,0.2,0.8,0.2,0.2,0.2,0.8","1","",""
"","html-keyboard-response","295","137303","0.0-295.0","3TUI152ZZC9Z997SBW2XI3Z3LPWQ17","A38YRR6XIUXMRB","3MXX6RQ9EVRTFC527Z18RDK8KW6P4R","","null","<img src=""img/land3.png"" style=""width:200px; border:14px solid green;"">","null","","","","","","","","","",""
"","image-keyboard-response","296","137767","0.0-296.0","3TUI152ZZC9Z997SBW2XI3Z3LPWQ17","A38YRR6XIUXMRB","3MXX6RQ9EVRTFC527Z18RDK8KW6P4R","","460.7000000476837","img/land3.png","75","462.39999985694885","2","1","2","2","0.8,0.2,0.2,0.2,0.8,0.2,0.2,0.2,0.8","0.8,0.2,0.2,0.2,0.8,0.2,0.2,0.2,0.8","1","",""
"","html-keyboard-response","297","138070","0.0-297.0","3TUI152ZZC9Z997SBW2XI3Z3LPWQ17","A38YRR6XIUXMRB","3MXX6RQ9EVRTFC527Z18RDK8KW6P4R","","null","<img src=""img/land3.png"" style=""width:200px; border:14px solid green;"">","null","","","","","","","","","",""
"","image-keyboard-response","298","138733","0.0-298.0","3TUI152ZZC9Z997SBW2XI3Z3LPWQ17","A38YRR6XIUXMRB","3MXX6RQ9EVRTFC527Z18RDK8KW6P4R","","661.6999998092651","img/land5.png","74","663.2999999523163","1","1","1","2","0.8,0.2,0.2,0.2,0.8,0.2,0.2,0.2,0.8","0.8,0.2,0.2,0.2,0.8,0.2,0.2,0.2,0.8","1","",""
"","html-keyboard-response","299","139036","0.0-299.0","3TUI152ZZC9Z997SBW2XI3Z3LPWQ17","A38YRR6XIUXMRB","3MXX6RQ9EVRTFC527Z18RDK8KW6P4R","","null","<img src=""img/land5.png"" style=""width:200px; border:14px solid green;"">","null","","","","","","","","","",""
"","image-keyboard-response","300","139419","0.0-300.0","3TUI152ZZC9Z997SBW2XI3Z3LPWQ17","A38YRR6XIUXMRB","3MXX6RQ9EVRTFC527Z18RDK8KW6P4R","","381.7000000476837","img/land5.png","74","382.89999985694885","1","1","1","2","0.8,0.2,0.2,0.2,0.8,0.2,0.2,0.2,0.8","0.8,0.2,0.2,0.2,0.8,0.2,0.2,0.2,0.8","1","",""
"","html-keyboard-response","301","139722","0.0-301.0","3TUI152ZZC9Z997SBW2XI3Z3LPWQ17","A38YRR6XIUXMRB","3MXX6RQ9EVRTFC527Z18RDK8KW6P4R","","null","<img src=""img/land5.png"" style=""width:200px; border:14px solid green;"">","null","","","","","","","","","",""
"","image-keyboard-response","302","140639","0.0-302.0","3TUI152ZZC9Z997SBW2XI3Z3LPWQ17","A38YRR6XIUXMRB","3MXX6RQ9EVRTFC527Z18RDK8KW6P4R","","915.2999999523163","img/land2.png","76","916.7000000476837","3","1","3","1","0.8,0.2,0.2,0.2,0.8,0.2,0.2,0.2,0.8","0.8,0.2,0.2,0.2,0.8,0.2,0.2,0.2,0.8","1","",""
"","html-keyboard-response","303","140942","0.0-303.0","3TUI152ZZC9Z997SBW2XI3Z3LPWQ17","A38YRR6XIUXMRB","3MXX6RQ9EVRTFC527Z18RDK8KW6P4R","","null","<img src=""img/land2.png"" style=""width:200px; border:14px solid green;"">","null","","","","","","","","","",""
"","image-keyboard-response","304","141623","0.0-304.0","3TUI152ZZC9Z997SBW2XI3Z3LPWQ17","A38YRR6XIUXMRB","3MXX6RQ9EVRTFC527Z18RDK8KW6P4R","","678.3999998569489","img/land1.png","76","679.7000000476837","3","0","1","1","0.8,0.2,0.2,0.2,0.8,0.2,0.2,0.2,0.8","0.8,0.2,0.2,0.2,0.8,0.2,0.2,0.2,0.8","1","",""
"","html-keyboard-response","305","141925","0.0-305.0","3TUI152ZZC9Z997SBW2XI3Z3LPWQ17","A38YRR6XIUXMRB","3MXX6RQ9EVRTFC527Z18RDK8KW6P4R","","null","<img src=""img/land1.png"" style=""width:200px;border:14px solid red;"">","null","","","","","","","","","",""
"","image-keyboard-response","306","142292","0.0-306.0","3TUI152ZZC9Z997SBW2XI3Z3LPWQ17","A38YRR6XIUXMRB","3MXX6RQ9EVRTFC527Z18RDK8KW6P4R","","363.39999985694885","img/land1.png","75","366.7000000476837","2","1","1","1","0.8,0.2,0.2,0.2,0.8,0.2,0.2,0.2,0.8","0.8,0.2,0.2,0.2,0.8,0.2,0.2,0.2,0.8","1","",""
"","html-keyboard-response","307","142596","0.0-307.0","3TUI152ZZC9Z997SBW2XI3Z3LPWQ17","A38YRR6XIUXMRB","3MXX6RQ9EVRTFC527Z18RDK8KW6P4R","","null","<img src=""img/land1.png"" style=""width:200px; border:14px solid green;"">","null","","","","","","","","","",""
"","image-keyboard-response","308","143288","0.0-308.0","3TUI152ZZC9Z997SBW2XI3Z3LPWQ17","A38YRR6XIUXMRB","3MXX6RQ9EVRTFC527Z18RDK8KW6P4R","","689.9000000953674","img/land2.png","76","692","3","1","3","1","0.8,0.2,0.2,0.2,0.8,0.2,0.2,0.2,0.8","0.8,0.2,0.2,0.2,0.8,0.2,0.2,0.2,0.8","1","",""
"","html-keyboard-response","309","143593","0.0-309.0","3TUI152ZZC9Z997SBW2XI3Z3LPWQ17","A38YRR6XIUXMRB","3MXX6RQ9EVRTFC527Z18RDK8KW6P4R","","null","<img src=""img/land2.png"" style=""width:200px; border:14px solid green;"">","null","","","","","","","","","",""
"","image-keyboard-response","310","144021","0.0-310.0","3TUI152ZZC9Z997SBW2XI3Z3LPWQ17","A38YRR6XIUXMRB","3MXX6RQ9EVRTFC527Z18RDK8KW6P4R","","425.2000000476837","img/land2.png","76","426.7999999523163","3","1","3","1","0.8,0.2,0.2,0.2,0.8,0.2,0.2,0.2,0.8","0.8,0.2,0.2,0.2,0.8,0.2,0.2,0.2,0.8","1","",""
"","html-keyboard-response","311","144323","0.0-311.0","3TUI152ZZC9Z997SBW2XI3Z3LPWQ17","A38YRR6XIUXMRB","3MXX6RQ9EVRTFC527Z18RDK8KW6P4R","","null","<img src=""img/land2.png"" style=""width:200px; border:14px solid green;"">","null","","","","","","","","","",""
"","image-keyboard-response","312","144896","0.0-312.0","3TUI152ZZC9Z997SBW2XI3Z3LPWQ17","A38YRR6XIUXMRB","3MXX6RQ9EVRTFC527Z18RDK8KW6P4R","","571.2000000476837","img/land6.png","75","572.4000000953674","2","1","2","1","0.8,0.2,0.2,0.2,0.8,0.2,0.2,0.2,0.8","0.8,0.2,0.2,0.2,0.8,0.2,0.2,0.2,0.8","1","",""
"","html-keyboard-response","313","145199","0.0-313.0","3TUI152ZZC9Z997SBW2XI3Z3LPWQ17","A38YRR6XIUXMRB","3MXX6RQ9EVRTFC527Z18RDK8KW6P4R","","null","<img src=""img/land6.png"" style=""width:200px; border:14px solid green;"">","null","","","","","","","","","",""
"","image-keyboard-response","314","145725","0.0-314.0","3TUI152ZZC9Z997SBW2XI3Z3LPWQ17","A38YRR6XIUXMRB","3MXX6RQ9EVRTFC527Z18RDK8KW6P4R","","523.9000000953674","img/land2.png","76","525.5","3","1","3","1","0.8,0.2,0.2,0.2,0.8,0.2,0.2,0.2,0.8","0.8,0.2,0.2,0.2,0.8,0.2,0.2,0.2,0.8","1","",""
"","html-keyboard-response","315","146028","0.0-315.0","3TUI152ZZC9Z997SBW2XI3Z3LPWQ17","A38YRR6XIUXMRB","3MXX6RQ9EVRTFC527Z18RDK8KW6P4R","","null","<img src=""img/land2.png"" style=""width:200px; border:14px solid green;"">","null","","","","","","","","","",""
"","image-keyboard-response","316","146350","0.0-316.0","3TUI152ZZC9Z997SBW2XI3Z3LPWQ17","A38YRR6XIUXMRB","3MXX6RQ9EVRTFC527Z18RDK8KW6P4R","","320.2000000476837","img/land2.png","76","321.59999990463257","3","1","3","1","0.8,0.2,0.2,0.2,0.8,0.2,0.2,0.2,0.8","0.8,0.2,0.2,0.2,0.8,0.2,0.2,0.2,0.8","1","",""
"","html-keyboard-response","317","146652","0.0-317.0","3TUI152ZZC9Z997SBW2XI3Z3LPWQ17","A38YRR6XIUXMRB","3MXX6RQ9EVRTFC527Z18RDK8KW6P4R","","null","<img src=""img/land2.png"" style=""width:200px; border:14px solid green;"">","null","","","","","","","","","",""
"","image-keyboard-response","318","147110","0.0-318.0","3TUI152ZZC9Z997SBW2XI3Z3LPWQ17","A38YRR6XIUXMRB","3MXX6RQ9EVRTFC527Z18RDK8KW6P4R","","455.7999999523163","img/land1.png","75","457.10000014305115","2","0","1","1","0.8,0.2,0.2,0.2,0.8,0.2,0.2,0.2,0.8","0.8,0.2,0.2,0.2,0.8,0.2,0.2,0.2,0.8","1","",""
"","html-keyboard-response","319","147417","0.0-319.0","3TUI152ZZC9Z997SBW2XI3Z3LPWQ17","A38YRR6XIUXMRB","3MXX6RQ9EVRTFC527Z18RDK8KW6P4R","","null","<img src=""img/land1.png"" style=""width:200px;border:14px solid red;"">","null","","","","","","","","","",""
"","image-keyboard-response","320","148353","0.0-320.0","3TUI152ZZC9Z997SBW2XI3Z3LPWQ17","A38YRR6XIUXMRB","3MXX6RQ9EVRTFC527Z18RDK8KW6P4R","","934","img/land6.png","75","935.2000000476837","2","1","2","1","0.8,0.2,0.2,0.2,0.8,0.2,0.2,0.2,0.8","0.8,0.2,0.2,0.2,0.8,0.2,0.2,0.2,0.8","1","",""
"","html-keyboard-response","321","148655","0.0-321.0","3TUI152ZZC9Z997SBW2XI3Z3LPWQ17","A38YRR6XIUXMRB","3MXX6RQ9EVRTFC527Z18RDK8KW6P4R","","null","<img src=""img/land6.png"" style=""width:200px; border:14px solid green;"">","null","","","","","","","","","",""
"","image-keyboard-response","322","149020","0.0-322.0","3TUI152ZZC9Z997SBW2XI3Z3LPWQ17","A38YRR6XIUXMRB","3MXX6RQ9EVRTFC527Z18RDK8KW6P4R","","363","img/land6.png","75","364.39999985694885","2","1","2","1","0.8,0.2,0.2,0.2,0.8,0.2,0.2,0.2,0.8","0.8,0.2,0.2,0.2,0.8,0.2,0.2,0.2,0.8","1","",""
"","html-keyboard-response","323","149323","0.0-323.0","3TUI152ZZC9Z997SBW2XI3Z3LPWQ17","A38YRR6XIUXMRB","3MXX6RQ9EVRTFC527Z18RDK8KW6P4R","","null","<img src=""img/land6.png"" style=""width:200px; border:14px solid green;"">","null","","","","","","","","","",""
"","image-keyboard-response","324","149816","0.0-324.0","3TUI152ZZC9Z997SBW2XI3Z3LPWQ17","A38YRR6XIUXMRB","3MXX6RQ9EVRTFC527Z18RDK8KW6P4R","","491.60000014305115","img/land1.png","74","492.89999985694885","1","0","1","1","0.8,0.2,0.2,0.2,0.8,0.2,0.2,0.2,0.8","0.8,0.2,0.2,0.2,0.8,0.2,0.2,0.2,0.8","1","",""
"","html-keyboard-response","325","150119","0.0-325.0","3TUI152ZZC9Z997SBW2XI3Z3LPWQ17","A38YRR6XIUXMRB","3MXX6RQ9EVRTFC527Z18RDK8KW6P4R","","null","<img src=""img/land1.png"" style=""width:200px;border:14px solid red;"">","null","","","","","","","","","",""
"","image-keyboard-response","326","150533","0.0-326.0","3TUI152ZZC9Z997SBW2XI3Z3LPWQ17","A38YRR6XIUXMRB","3MXX6RQ9EVRTFC527Z18RDK8KW6P4R","","412.2000000476837","img/land2.png","74","413.5","1","1","3","1","0.8,0.2,0.2,0.2,0.8,0.2,0.2,0.2,0.8","0.8,0.2,0.2,0.2,0.8,0.2,0.2,0.2,0.8","1","",""
"","html-keyboard-response","327","150836","0.0-327.0","3TUI152ZZC9Z997SBW2XI3Z3LPWQ17","A38YRR6XIUXMRB","3MXX6RQ9EVRTFC527Z18RDK8KW6P4R","","null","<img src=""img/land2.png"" style=""width:200px; border:14px solid green;"">","null","","","","","","","","","",""
"","image-keyboard-response","328","151329","0.0-328.0","3TUI152ZZC9Z997SBW2XI3Z3LPWQ17","A38YRR6XIUXMRB","3MXX6RQ9EVRTFC527Z18RDK8KW6P4R","","488.69999980926514","img/land1.png","76","491.40000009536743","3","0","1","1","0.8,0.2,0.2,0.2,0.8,0.2,0.2,0.2,0.8","0.8,0.2,0.2,0.2,0.8,0.2,0.2,0.2,0.8","1","",""
"","html-keyboard-response","329","151632","0.0-329.0","3TUI152ZZC9Z997SBW2XI3Z3LPWQ17","A38YRR6XIUXMRB","3MXX6RQ9EVRTFC527Z18RDK8KW6P4R","","null","<img src=""img/land1.png"" style=""width:200px;border:14px solid red;"">","null","","","","","","","","","",""
"","image-keyboard-response","330","152419","0.0-330.0","3TUI152ZZC9Z997SBW2XI3Z3LPWQ17","A38YRR6XIUXMRB","3MXX6RQ9EVRTFC527Z18RDK8KW6P4R","","784.5999999046326","img/land6.png","75","786.4000000953674","2","1","2","1","0.8,0.2,0.2,0.2,0.8,0.2,0.2,0.2,0.8","0.8,0.2,0.2,0.2,0.8,0.2,0.2,0.2,0.8","1","",""
"","html-keyboard-response","331","152722","0.0-331.0","3TUI152ZZC9Z997SBW2XI3Z3LPWQ17","A38YRR6XIUXMRB","3MXX6RQ9EVRTFC527Z18RDK8KW6P4R","","null","<img src=""img/land6.png"" style=""width:200px; border:14px solid green;"">","null","","","","","","","","","",""
"","image-keyboard-response","332","153536","0.0-332.0","3TUI152ZZC9Z997SBW2XI3Z3LPWQ17","A38YRR6XIUXMRB","3MXX6RQ9EVRTFC527Z18RDK8KW6P4R","","812.5999999046326","img/land2.png","76","813.9000000953674","3","1","3","1","0.8,0.2,0.2,0.2,0.8,0.2,0.2,0.2,0.8","0.8,0.2,0.2,0.2,0.8,0.2,0.2,0.2,0.8","1","",""
"","html-keyboard-response","333","153838","0.0-333.0","3TUI152ZZC9Z997SBW2XI3Z3LPWQ17","A38YRR6XIUXMRB","3MXX6RQ9EVRTFC527Z18RDK8KW6P4R","","null","<img src=""img/land2.png"" style=""width:200px; border:14px solid green;"">","null","","","","","","","","","",""
"","image-keyboard-response","334","154398","0.0-334.0","3TUI152ZZC9Z997SBW2XI3Z3LPWQ17","A38YRR6XIUXMRB","3MXX6RQ9EVRTFC527Z18RDK8KW6P4R","","558.0999999046326","img/land1.png","75","559.6999998092651","2","1","1","1","0.8,0.2,0.2,0.2,0.8,0.2,0.2,0.2,0.8","0.8,0.2,0.2,0.2,0.8,0.2,0.2,0.2,0.8","1","",""
"","html-keyboard-response","335","154701","0.0-335.0","3TUI152ZZC9Z997SBW2XI3Z3LPWQ17","A38YRR6XIUXMRB","3MXX6RQ9EVRTFC527Z18RDK8KW6P4R","","null","<img src=""img/land1.png"" style=""width:200px; border:14px solid green;"">","null","","","","","","","","","",""
"","image-keyboard-response","336","155091","0.0-336.0","3TUI152ZZC9Z997SBW2XI3Z3LPWQ17","A38YRR6XIUXMRB","3MXX6RQ9EVRTFC527Z18RDK8KW6P4R","","388.2999999523163","img/land1.png","75","389.40000009536743","2","1","1","1","0.8,0.2,0.2,0.2,0.8,0.2,0.2,0.2,0.8","0.8,0.2,0.2,0.2,0.8,0.2,0.2,0.2,0.8","1","",""
"","html-keyboard-response","337","155394","0.0-337.0","3TUI152ZZC9Z997SBW2XI3Z3LPWQ17","A38YRR6XIUXMRB","3MXX6RQ9EVRTFC527Z18RDK8KW6P4R","","null","<img src=""img/land1.png"" style=""width:200px; border:14px solid green;"">","null","","","","","","","","","",""
"","image-keyboard-response","338","155939","0.0-338.0","3TUI152ZZC9Z997SBW2XI3Z3LPWQ17","A38YRR6XIUXMRB","3MXX6RQ9EVRTFC527Z18RDK8KW6P4R","","542.5","img/land6.png","76","544.5999999046326","3","1","2","1","0.8,0.2,0.2,0.2,0.8,0.2,0.2,0.2,0.8","0.8,0.2,0.2,0.2,0.8,0.2,0.2,0.2,0.8","1","",""
"","html-keyboard-response","339","156243","0.0-339.0","3TUI152ZZC9Z997SBW2XI3Z3LPWQ17","A38YRR6XIUXMRB","3MXX6RQ9EVRTFC527Z18RDK8KW6P4R","","null","<img src=""img/land6.png"" style=""width:200px; border:14px solid green;"">","null","","","","","","","","","",""
"","image-keyboard-response","340","156638","0.0-340.0","3TUI152ZZC9Z997SBW2XI3Z3LPWQ17","A38YRR6XIUXMRB","3MXX6RQ9EVRTFC527Z18RDK8KW6P4R","","392.2999999523163","img/land6.png","76","394.5","3","0","2","1","0.8,0.2,0.2,0.2,0.8,0.2,0.2,0.2,0.8","0.8,0.2,0.2,0.2,0.8,0.2,0.2,0.2,0.8","1","",""
"","html-keyboard-response","341","156940","0.0-341.0","3TUI152ZZC9Z997SBW2XI3Z3LPWQ17","A38YRR6XIUXMRB","3MXX6RQ9EVRTFC527Z18RDK8KW6P4R","","null","<img src=""img/land6.png"" style=""width:200px;border:14px solid red;"">","null","","","","","","","","","",""
"","image-keyboard-response","342","157239","0.0-342.0","3TUI152ZZC9Z997SBW2XI3Z3LPWQ17","A38YRR6XIUXMRB","3MXX6RQ9EVRTFC527Z18RDK8KW6P4R","","297","img/land1.png","75","298.2999999523163","2","0","1","1","0.8,0.2,0.2,0.2,0.8,0.2,0.2,0.2,0.8","0.8,0.2,0.2,0.2,0.8,0.2,0.2,0.2,0.8","1","",""
"","html-keyboard-response","343","157542","0.0-343.0","3TUI152ZZC9Z997SBW2XI3Z3LPWQ17","A38YRR6XIUXMRB","3MXX6RQ9EVRTFC527Z18RDK8KW6P4R","","null","<img src=""img/land1.png"" style=""width:200px;border:14px solid red;"">","null","","","","","","","","","",""
"","image-keyboard-response","344","158256","0.0-344.0","3TUI152ZZC9Z997SBW2XI3Z3LPWQ17","A38YRR6XIUXMRB","3MXX6RQ9EVRTFC527Z18RDK8KW6P4R","","710.4000000953674","img/land6.png","75","713.4000000953674","2","1","2","1","0.8,0.2,0.2,0.2,0.8,0.2,0.2,0.2,0.8","0.8,0.2,0.2,0.2,0.8,0.2,0.2,0.2,0.8","1","",""
"","html-keyboard-response","345","158578","0.0-345.0","3TUI152ZZC9Z997SBW2XI3Z3LPWQ17","A38YRR6XIUXMRB","3MXX6RQ9EVRTFC527Z18RDK8KW6P4R","","null","<img src=""img/land6.png"" style=""width:200px; border:14px solid green;"">","null","","","","","","","","","",""
"","image-keyboard-response","346","159280","0.0-346.0","3TUI152ZZC9Z997SBW2XI3Z3LPWQ17","A38YRR6XIUXMRB","3MXX6RQ9EVRTFC527Z18RDK8KW6P4R","","700.9000000953674","img/land2.png","74","702.0999999046326","1","0","3","1","0.8,0.2,0.2,0.2,0.8,0.2,0.2,0.2,0.8","0.8,0.2,0.2,0.2,0.8,0.2,0.2,0.2,0.8","1","",""
"","html-keyboard-response","347","159583","0.0-347.0","3TUI152ZZC9Z997SBW2XI3Z3LPWQ17","A38YRR6XIUXMRB","3MXX6RQ9EVRTFC527Z18RDK8KW6P4R","","null","<img src=""img/land2.png"" style=""width:200px;border:14px solid red;"">","null","","","","","","","","","",""
"","image-keyboard-response","348","160010","0.0-348.0","3TUI152ZZC9Z997SBW2XI3Z3LPWQ17","A38YRR6XIUXMRB","3MXX6RQ9EVRTFC527Z18RDK8KW6P4R","","424.40000009536743","img/land2.png","76","425.90000009536743","3","1","3","1","0.8,0.2,0.2,0.2,0.8,0.2,0.2,0.2,0.8","0.8,0.2,0.2,0.2,0.8,0.2,0.2,0.2,0.8","1","",""
"","html-keyboard-response","349","160314","0.0-349.0","3TUI152ZZC9Z997SBW2XI3Z3LPWQ17","A38YRR6XIUXMRB","3MXX6RQ9EVRTFC527Z18RDK8KW6P4R","","null","<img src=""img/land2.png"" style=""width:200px; border:14px solid green;"">","null","","","","","","","","","",""
"","image-keyboard-response","350","160620","0.0-350.0","3TUI152ZZC9Z997SBW2XI3Z3LPWQ17","A38YRR6XIUXMRB","3MXX6RQ9EVRTFC527Z18RDK8KW6P4R","","302.7000000476837","img/land2.png","76","305.40000009536743","3","1","3","1","0.8,0.2,0.2,0.2,0.8,0.2,0.2,0.2,0.8","0.8,0.2,0.2,0.2,0.8,0.2,0.2,0.2,0.8","1","",""
"","html-keyboard-response","351","160922","0.0-351.0","3TUI152ZZC9Z997SBW2XI3Z3LPWQ17","A38YRR6XIUXMRB","3MXX6RQ9EVRTFC527Z18RDK8KW6P4R","","null","<img src=""img/land2.png"" style=""width:200px; border:14px solid green;"">","null","","","","","","","","","",""
"","image-keyboard-response","352","161522","0.0-352.0","3TUI152ZZC9Z997SBW2XI3Z3LPWQ17","A38YRR6XIUXMRB","3MXX6RQ9EVRTFC527Z18RDK8KW6P4R","","598.5999999046326","img/land6.png","74","599.7000000476837","1","0","2","1","0.8,0.2,0.2,0.2,0.8,0.2,0.2,0.2,0.8","0.8,0.2,0.2,0.2,0.8,0.2,0.2,0.2,0.8","1","",""
"","html-keyboard-response","353","161826","0.0-353.0","3TUI152ZZC9Z997SBW2XI3Z3LPWQ17","A38YRR6XIUXMRB","3MXX6RQ9EVRTFC527Z18RDK8KW6P4R","","null","<img src=""img/land6.png"" style=""width:200px;border:14px solid red;"">","null","","","","","","","","","",""
"","image-keyboard-response","354","162161","0.0-354.0","3TUI152ZZC9Z997SBW2XI3Z3LPWQ17","A38YRR6XIUXMRB","3MXX6RQ9EVRTFC527Z18RDK8KW6P4R","","333","img/land6.png","75","334.69999980926514","2","1","2","1","0.8,0.2,0.2,0.2,0.8,0.2,0.2,0.2,0.8","0.8,0.2,0.2,0.2,0.8,0.2,0.2,0.2,0.8","1","",""
