"success","trial_type","trial_index","time_elapsed","internal_node_id","assignmentID","mturkID","hitID","view_history","rt","stimulus","key_press","reactionTime","a","r","s","cond","reward_cond","reward_cond_actual","reward_matrix_idx","responses","question_order"
"true","fullscreen","0","6944","0.0-0.0","39GAF6DQWSMREH39XVW7OQYB2IDV1A","A39C1BN9ZSQ0R2","3P520RYKCHSO30HY2QJC6BDLS9Z5UE","","","","","","","","","","","","","",""
"","instructions","1","20806","0.0-1.0","39GAF6DQWSMREH39XVW7OQYB2IDV1A","A39C1BN9ZSQ0R2","3P520RYKCHSO30HY2QJC6BDLS9Z5UE","[{""page_index"":0,""viewing_time"":3391.600000143051},{""page_index"":1,""viewing_time"":1266.7999999523163},{""page_index"":2,""viewing_time"":570.3999998569489},{""page_index"":3,""viewing_time"":2231.5},{""page_index"":4,""viewing_time"":2246.4000000953674},{""page_index"":5,""viewing_time"":1640.0999999046326},{""page_index"":6,""viewing_time"":2513}]","13860.100000143051","","","","","","","","","","","",""
"","image-keyboard-response","2","22258","0.0-2.0","39GAF6DQWSMREH39XVW7OQYB2IDV1A","A39C1BN9ZSQ0R2","3P520RYKCHSO30HY2QJC6BDLS9Z5UE","","1450.7000000476837","img/land2.png","75","1452.2999999523163","2","0","2","2","0.8,0.2,0.2,0.2,0.8,0.2,0.2,0.2,0.8","0.8,0.2,0.2,0.2,0.8,0.2,0.2,0.2,0.8","1","",""
"","html-keyboard-response","3","22562","0.0-3.0","39GAF6DQWSMREH39XVW7OQYB2IDV1A","A39C1BN9ZSQ0R2","3P520RYKCHSO30HY2QJC6BDLS9Z5UE","","null","<img src=""img/land2.png"" style=""width:200px;border:14px solid red;"">","null","","","","","","","","","",""
"","image-keyboard-response","4","23349","0.0-4.0","39GAF6DQWSMREH39XVW7OQYB2IDV1A","A39C1BN9ZSQ0R2","3P520RYKCHSO30HY2QJC6BDLS9Z5UE","","784.7000000476837","img/land2.png","76","786.2999999523163","3","1","2","2","0.8,0.2,0.2,0.2,0.8,0.2,0.2,0.2,0.8","0.8,0.2,0.2,0.2,0.8,0.2,0.2,0.2,0.8","1","",""
"","html-keyboard-response","5","23671","0.0-5.0","39GAF6DQWSMREH39XVW7OQYB2IDV1A","A39C1BN9ZSQ0R2","3P520RYKCHSO30HY2QJC6BDLS9Z5UE","","null","<img src=""img/land2.png"" style=""width:200px; border:14px solid green;"">","null","","","","","","","","","",""
"","image-keyboard-response","6","24535","0.0-6.0","39GAF6DQWSMREH39XVW7OQYB2IDV1A","A39C1BN9ZSQ0R2","3P520RYKCHSO30HY2QJC6BDLS9Z5UE","","862","img/land5.png","75","863.2000000476837","2","0","1","2","0.8,0.2,0.2,0.2,0.8,0.2,0.2,0.2,0.8","0.8,0.2,0.2,0.2,0.8,0.2,0.2,0.2,0.8","1","",""
"","html-keyboard-response","7","24846","0.0-7.0","39GAF6DQWSMREH39XVW7OQYB2IDV1A","A39C1BN9ZSQ0R2","3P520RYKCHSO30HY2QJC6BDLS9Z5UE","","null","<img src=""img/land5.png"" style=""width:200px;border:14px solid red;"">","null","","","","","","","","","",""
"","image-keyboard-response","8","25402","0.0-8.0","39GAF6DQWSMREH39XVW7OQYB2IDV1A","A39C1BN9ZSQ0R2","3P520RYKCHSO30HY2QJC6BDLS9Z5UE","","554","img/land2.png","76","555.8999998569489","3","0","2","2","0.8,0.2,0.2,0.2,0.8,0.2,0.2,0.2,0.8","0.8,0.2,0.2,0.2,0.8,0.2,0.2,0.2,0.8","1","",""
"","html-keyboard-response","9","25709","0.0-9.0","39GAF6DQWSMREH39XVW7OQYB2IDV1A","A39C1BN9ZSQ0R2","3P520RYKCHSO30HY2QJC6BDLS9Z5UE","","null","<img src=""img/land2.png"" style=""width:200px;border:14px solid red;"">","null","","","","","","","","","",""
"","image-keyboard-response","10","26798","0.0-10.0","39GAF6DQWSMREH39XVW7OQYB2IDV1A","A39C1BN9ZSQ0R2","3P520RYKCHSO30HY2QJC6BDLS9Z5UE","","1087.2999999523163","img/land5.png","74","1088.7000000476837","1","1","1","2","0.8,0.2,0.2,0.2,0.8,0.2,0.2,0.2,0.8","0.8,0.2,0.2,0.2,0.8,0.2,0.2,0.2,0.8","1","",""
"","html-keyboard-response","11","27117","0.0-11.0","39GAF6DQWSMREH39XVW7OQYB2IDV1A","A39C1BN9ZSQ0R2","3P520RYKCHSO30HY2QJC6BDLS9Z5UE","","null","<img src=""img/land5.png"" style=""width:200px; border:14px solid green;"">","null","","","","","","","","","",""
"","image-keyboard-response","12","27605","0.0-12.0","39GAF6DQWSMREH39XVW7OQYB2IDV1A","A39C1BN9ZSQ0R2","3P520RYKCHSO30HY2QJC6BDLS9Z5UE","","486.10000014305115","img/land5.png","74","487.39999985694885","1","1","1","2","0.8,0.2,0.2,0.2,0.8,0.2,0.2,0.2,0.8","0.8,0.2,0.2,0.2,0.8,0.2,0.2,0.2,0.8","1","",""
"","html-keyboard-response","13","27907","0.0-13.0","39GAF6DQWSMREH39XVW7OQYB2IDV1A","A39C1BN9ZSQ0R2","3P520RYKCHSO30HY2QJC6BDLS9Z5UE","","null","<img src=""img/land5.png"" style=""width:200px; border:14px solid green;"">","null","","","","","","","","","",""
"","image-keyboard-response","14","29527","0.0-14.0","39GAF6DQWSMREH39XVW7OQYB2IDV1A","A39C1BN9ZSQ0R2","3P520RYKCHSO30HY2QJC6BDLS9Z5UE","","1618.1000001430511","img/land4.png","75","1619.2000000476837","2","0","3","2","0.8,0.2,0.2,0.2,0.8,0.2,0.2,0.2,0.8","0.8,0.2,0.2,0.2,0.8,0.2,0.2,0.2,0.8","1","",""
"","html-keyboard-response","15","29835","0.0-15.0","39GAF6DQWSMREH39XVW7OQYB2IDV1A","A39C1BN9ZSQ0R2","3P520RYKCHSO30HY2QJC6BDLS9Z5UE","","null","<img src=""img/land4.png"" style=""width:200px;border:14px solid red;"">","null","","","","","","","","","",""
"","image-keyboard-response","16","30735","0.0-16.0","39GAF6DQWSMREH39XVW7OQYB2IDV1A","A39C1BN9ZSQ0R2","3P520RYKCHSO30HY2QJC6BDLS9Z5UE","","898.2000000476837","img/land4.png","75","899.2999999523163","2","0","3","2","0.8,0.2,0.2,0.2,0.8,0.2,0.2,0.2,0.8","0.8,0.2,0.2,0.2,0.8,0.2,0.2,0.2,0.8","1","",""
"","html-keyboard-response","17","31048","0.0-17.0","39GAF6DQWSMREH39XVW7OQYB2IDV1A","A39C1BN9ZSQ0R2","3P520RYKCHSO30HY2QJC6BDLS9Z5UE","","null","<img src=""img/land4.png"" style=""width:200px;border:14px solid red;"">","null","","","","","","","","","",""
"","image-keyboard-response","18","32177","0.0-18.0","39GAF6DQWSMREH39XVW7OQYB2IDV1A","A39C1BN9ZSQ0R2","3P520RYKCHSO30HY2QJC6BDLS9Z5UE","","1128.2000000476837","img/land5.png","74","1129","1","1","1","2","0.8,0.2,0.2,0.2,0.8,0.2,0.2,0.2,0.8","0.8,0.2,0.2,0.2,0.8,0.2,0.2,0.2,0.8","1","",""
"","html-keyboard-response","19","32494","0.0-19.0","39GAF6DQWSMREH39XVW7OQYB2IDV1A","A39C1BN9ZSQ0R2","3P520RYKCHSO30HY2QJC6BDLS9Z5UE","","null","<img src=""img/land5.png"" style=""width:200px; border:14px solid green;"">","null","","","","","","","","","",""
"","image-keyboard-response","20","32887","0.0-20.0","39GAF6DQWSMREH39XVW7OQYB2IDV1A","A39C1BN9ZSQ0R2","3P520RYKCHSO30HY2QJC6BDLS9Z5UE","","390.7999999523163","img/land5.png","74","392.40000009536743","1","0","1","2","0.8,0.2,0.2,0.2,0.8,0.2,0.2,0.2,0.8","0.8,0.2,0.2,0.2,0.8,0.2,0.2,0.2,0.8","1","",""
"","html-keyboard-response","21","33196","0.0-21.0","39GAF6DQWSMREH39XVW7OQYB2IDV1A","A39C1BN9ZSQ0R2","3P520RYKCHSO30HY2QJC6BDLS9Z5UE","","null","<img src=""img/land5.png"" style=""width:200px;border:14px solid red;"">","null","","","","","","","","","",""
"","image-keyboard-response","22","33693","0.0-22.0","39GAF6DQWSMREH39XVW7OQYB2IDV1A","A39C1BN9ZSQ0R2","3P520RYKCHSO30HY2QJC6BDLS9Z5UE","","495.5","img/land5.png","74","496.89999985694885","1","1","1","2","0.8,0.2,0.2,0.2,0.8,0.2,0.2,0.2,0.8","0.8,0.2,0.2,0.2,0.8,0.2,0.2,0.2,0.8","1","",""
"","html-keyboard-response","23","33998","0.0-23.0","39GAF6DQWSMREH39XVW7OQYB2IDV1A","A39C1BN9ZSQ0R2","3P520RYKCHSO30HY2QJC6BDLS9Z5UE","","null","<img src=""img/land5.png"" style=""width:200px; border:14px solid green;"">","null","","","","","","","","","",""
"","image-keyboard-response","24","34389","0.0-24.0","39GAF6DQWSMREH39XVW7OQYB2IDV1A","A39C1BN9ZSQ0R2","3P520RYKCHSO30HY2QJC6BDLS9Z5UE","","389.09999990463257","img/land5.png","74","390.2000000476837","1","0","1","2","0.8,0.2,0.2,0.2,0.8,0.2,0.2,0.2,0.8","0.8,0.2,0.2,0.2,0.8,0.2,0.2,0.2,0.8","1","",""
"","html-keyboard-response","25","34697","0.0-25.0","39GAF6DQWSMREH39XVW7OQYB2IDV1A","A39C1BN9ZSQ0R2","3P520RYKCHSO30HY2QJC6BDLS9Z5UE","","null","<img src=""img/land5.png"" style=""width:200px;border:14px solid red;"">","null","","","","","","","","","",""
"","image-keyboard-response","26","35840","0.0-26.0","39GAF6DQWSMREH39XVW7OQYB2IDV1A","A39C1BN9ZSQ0R2","3P520RYKCHSO30HY2QJC6BDLS9Z5UE","","1140.6000001430511","img/land4.png","76","1142.2000000476837","3","0","3","2","0.8,0.2,0.2,0.2,0.8,0.2,0.2,0.2,0.8","0.8,0.2,0.2,0.2,0.8,0.2,0.2,0.2,0.8","1","",""
"","html-keyboard-response","27","36142","0.0-27.0","39GAF6DQWSMREH39XVW7OQYB2IDV1A","A39C1BN9ZSQ0R2","3P520RYKCHSO30HY2QJC6BDLS9Z5UE","","null","<img src=""img/land4.png"" style=""width:200px;border:14px solid red;"">","null","","","","","","","","","",""
"","image-keyboard-response","28","36862","0.0-28.0","39GAF6DQWSMREH39XVW7OQYB2IDV1A","A39C1BN9ZSQ0R2","3P520RYKCHSO30HY2QJC6BDLS9Z5UE","","719.0999999046326","img/land5.png","74","720.2999999523163","1","0","1","2","0.8,0.2,0.2,0.2,0.8,0.2,0.2,0.2,0.8","0.8,0.2,0.2,0.2,0.8,0.2,0.2,0.2,0.8","1","",""
"","html-keyboard-response","29","37169","0.0-29.0","39GAF6DQWSMREH39XVW7OQYB2IDV1A","A39C1BN9ZSQ0R2","3P520RYKCHSO30HY2QJC6BDLS9Z5UE","","null","<img src=""img/land5.png"" style=""width:200px;border:14px solid red;"">","null","","","","","","","","","",""
"","image-keyboard-response","30","37708","0.0-30.0","39GAF6DQWSMREH39XVW7OQYB2IDV1A","A39C1BN9ZSQ0R2","3P520RYKCHSO30HY2QJC6BDLS9Z5UE","","537","img/land5.png","74","538.2999999523163","1","0","1","2","0.8,0.2,0.2,0.2,0.8,0.2,0.2,0.2,0.8","0.8,0.2,0.2,0.2,0.8,0.2,0.2,0.2,0.8","1","",""
"","html-keyboard-response","31","38020","0.0-31.0","39GAF6DQWSMREH39XVW7OQYB2IDV1A","A39C1BN9ZSQ0R2","3P520RYKCHSO30HY2QJC6BDLS9Z5UE","","null","<img src=""img/land5.png"" style=""width:200px;border:14px solid red;"">","null","","","","","","","","","",""
"","image-keyboard-response","32","39085","0.0-32.0","39GAF6DQWSMREH39XVW7OQYB2IDV1A","A39C1BN9ZSQ0R2","3P520RYKCHSO30HY2QJC6BDLS9Z5UE","","1063.2000000476837","img/land2.png","76","1064.2000000476837","3","0","2","2","0.8,0.2,0.2,0.2,0.8,0.2,0.2,0.2,0.8","0.8,0.2,0.2,0.2,0.8,0.2,0.2,0.2,0.8","1","",""
"","html-keyboard-response","33","39393","0.0-33.0","39GAF6DQWSMREH39XVW7OQYB2IDV1A","A39C1BN9ZSQ0R2","3P520RYKCHSO30HY2QJC6BDLS9Z5UE","","null","<img src=""img/land2.png"" style=""width:200px;border:14px solid red;"">","null","","","","","","","","","",""
"","image-keyboard-response","34","39996","0.0-34.0","39GAF6DQWSMREH39XVW7OQYB2IDV1A","A39C1BN9ZSQ0R2","3P520RYKCHSO30HY2QJC6BDLS9Z5UE","","601.2000000476837","img/land5.png","74","602.6000001430511","1","1","1","2","0.8,0.2,0.2,0.2,0.8,0.2,0.2,0.2,0.8","0.8,0.2,0.2,0.2,0.8,0.2,0.2,0.2,0.8","1","",""
"","html-keyboard-response","35","40311","0.0-35.0","39GAF6DQWSMREH39XVW7OQYB2IDV1A","A39C1BN9ZSQ0R2","3P520RYKCHSO30HY2QJC6BDLS9Z5UE","","null","<img src=""img/land5.png"" style=""width:200px; border:14px solid green;"">","null","","","","","","","","","",""
"","image-keyboard-response","36","41739","0.0-36.0","39GAF6DQWSMREH39XVW7OQYB2IDV1A","A39C1BN9ZSQ0R2","3P520RYKCHSO30HY2QJC6BDLS9Z5UE","","1425.7000000476837","img/land4.png","75","1426.8999998569489","2","1","3","2","0.8,0.2,0.2,0.2,0.8,0.2,0.2,0.2,0.8","0.8,0.2,0.2,0.2,0.8,0.2,0.2,0.2,0.8","1","",""
"","html-keyboard-response","37","42043","0.0-37.0","39GAF6DQWSMREH39XVW7OQYB2IDV1A","A39C1BN9ZSQ0R2","3P520RYKCHSO30HY2QJC6BDLS9Z5UE","","null","<img src=""img/land4.png"" style=""width:200px; border:14px solid green;"">","null","","","","","","","","","",""
"","image-keyboard-response","38","43646","0.0-38.0","39GAF6DQWSMREH39XVW7OQYB2IDV1A","A39C1BN9ZSQ0R2","3P520RYKCHSO30HY2QJC6BDLS9Z5UE","","1601.2999999523163","img/land2.png","76","1602.5","3","0","2","2","0.8,0.2,0.2,0.2,0.8,0.2,0.2,0.2,0.8","0.8,0.2,0.2,0.2,0.8,0.2,0.2,0.2,0.8","1","",""
"","html-keyboard-response","39","43955","0.0-39.0","39GAF6DQWSMREH39XVW7OQYB2IDV1A","A39C1BN9ZSQ0R2","3P520RYKCHSO30HY2QJC6BDLS9Z5UE","","null","<img src=""img/land2.png"" style=""width:200px;border:14px solid red;"">","null","","","","","","","","","",""
"","image-keyboard-response","40","44582","0.0-40.0","39GAF6DQWSMREH39XVW7OQYB2IDV1A","A39C1BN9ZSQ0R2","3P520RYKCHSO30HY2QJC6BDLS9Z5UE","","625.3999998569489","img/land5.png","74","626.7999999523163","1","1","1","2","0.8,0.2,0.2,0.2,0.8,0.2,0.2,0.2,0.8","0.8,0.2,0.2,0.2,0.8,0.2,0.2,0.2,0.8","1","",""
"","html-keyboard-response","41","44888","0.0-41.0","39GAF6DQWSMREH39XVW7OQYB2IDV1A","A39C1BN9ZSQ0R2","3P520RYKCHSO30HY2QJC6BDLS9Z5UE","","null","<img src=""img/land5.png"" style=""width:200px; border:14px solid green;"">","null","","","","","","","","","",""
"","image-keyboard-response","42","45499","0.0-42.0","39GAF6DQWSMREH39XVW7OQYB2IDV1A","A39C1BN9ZSQ0R2","3P520RYKCHSO30HY2QJC6BDLS9Z5UE","","608.7000000476837","img/land4.png","75","610.0999999046326","2","0","3","2","0.8,0.2,0.2,0.2,0.8,0.2,0.2,0.2,0.8","0.8,0.2,0.2,0.2,0.8,0.2,0.2,0.2,0.8","1","",""
"","html-keyboard-response","43","45812","0.0-43.0","39GAF6DQWSMREH39XVW7OQYB2IDV1A","A39C1BN9ZSQ0R2","3P520RYKCHSO30HY2QJC6BDLS9Z5UE","","null","<img src=""img/land4.png"" style=""width:200px;border:14px solid red;"">","null","","","","","","","","","",""
"","image-keyboard-response","44","46264","0.0-44.0","39GAF6DQWSMREH39XVW7OQYB2IDV1A","A39C1BN9ZSQ0R2","3P520RYKCHSO30HY2QJC6BDLS9Z5UE","","451","img/land4.png","75","452.2999999523163","2","0","3","2","0.8,0.2,0.2,0.2,0.8,0.2,0.2,0.2,0.8","0.8,0.2,0.2,0.2,0.8,0.2,0.2,0.2,0.8","1","",""
"","html-keyboard-response","45","46578","0.0-45.0","39GAF6DQWSMREH39XVW7OQYB2IDV1A","A39C1BN9ZSQ0R2","3P520RYKCHSO30HY2QJC6BDLS9Z5UE","","null","<img src=""img/land4.png"" style=""width:200px;border:14px solid red;"">","null","","","","","","","","","",""
"","image-keyboard-response","46","47211","0.0-46.0","39GAF6DQWSMREH39XVW7OQYB2IDV1A","A39C1BN9ZSQ0R2","3P520RYKCHSO30HY2QJC6BDLS9Z5UE","","630.9000000953674","img/land5.png","74","632.2999999523163","1","0","1","2","0.8,0.2,0.2,0.2,0.8,0.2,0.2,0.2,0.8","0.8,0.2,0.2,0.2,0.8,0.2,0.2,0.2,0.8","1","",""
"","html-keyboard-response","47","47513","0.0-47.0","39GAF6DQWSMREH39XVW7OQYB2IDV1A","A39C1BN9ZSQ0R2","3P520RYKCHSO30HY2QJC6BDLS9Z5UE","","null","<img src=""img/land5.png"" style=""width:200px;border:14px solid red;"">","null","","","","","","","","","",""
"","image-keyboard-response","48","47947","0.0-48.0","39GAF6DQWSMREH39XVW7OQYB2IDV1A","A39C1BN9ZSQ0R2","3P520RYKCHSO30HY2QJC6BDLS9Z5UE","","432.2999999523163","img/land5.png","74","433.7000000476837","1","1","1","2","0.8,0.2,0.2,0.2,0.8,0.2,0.2,0.2,0.8","0.8,0.2,0.2,0.2,0.8,0.2,0.2,0.2,0.8","1","",""
"","html-keyboard-response","49","48253","0.0-49.0","39GAF6DQWSMREH39XVW7OQYB2IDV1A","A39C1BN9ZSQ0R2","3P520RYKCHSO30HY2QJC6BDLS9Z5UE","","null","<img src=""img/land5.png"" style=""width:200px; border:14px solid green;"">","null","","","","","","","","","",""
"","image-keyboard-response","50","49459","0.0-50.0","39GAF6DQWSMREH39XVW7OQYB2IDV1A","A39C1BN9ZSQ0R2","3P520RYKCHSO30HY2QJC6BDLS9Z5UE","","1204.2000000476837","img/land2.png","75","1205.6999998092651","2","0","2","2","0.8,0.2,0.2,0.2,0.8,0.2,0.2,0.2,0.8","0.8,0.2,0.2,0.2,0.8,0.2,0.2,0.2,0.8","1","",""
"","html-keyboard-response","51","49763","0.0-51.0","39GAF6DQWSMREH39XVW7OQYB2IDV1A","A39C1BN9ZSQ0R2","3P520RYKCHSO30HY2QJC6BDLS9Z5UE","","null","<img src=""img/land2.png"" style=""width:200px;border:14px solid red;"">","null","","","","","","","","","",""
"","image-keyboard-response","52","50330","0.0-52.0","39GAF6DQWSMREH39XVW7OQYB2IDV1A","A39C1BN9ZSQ0R2","3P520RYKCHSO30HY2QJC6BDLS9Z5UE","","566","img/land5.png","74","567.2000000476837","1","1","1","2","0.8,0.2,0.2,0.2,0.8,0.2,0.2,0.2,0.8","0.8,0.2,0.2,0.2,0.8,0.2,0.2,0.2,0.8","1","",""
"","html-keyboard-response","53","50642","0.0-53.0","39GAF6DQWSMREH39XVW7OQYB2IDV1A","A39C1BN9ZSQ0R2","3P520RYKCHSO30HY2QJC6BDLS9Z5UE","","null","<img src=""img/land5.png"" style=""width:200px; border:14px solid green;"">","null","","","","","","","","","",""
"","image-keyboard-response","54","51086","0.0-54.0","39GAF6DQWSMREH39XVW7OQYB2IDV1A","A39C1BN9ZSQ0R2","3P520RYKCHSO30HY2QJC6BDLS9Z5UE","","441.7000000476837","img/land5.png","74","443.5","1","1","1","2","0.8,0.2,0.2,0.2,0.8,0.2,0.2,0.2,0.8","0.8,0.2,0.2,0.2,0.8,0.2,0.2,0.2,0.8","1","",""
"","html-keyboard-response","55","51394","0.0-55.0","39GAF6DQWSMREH39XVW7OQYB2IDV1A","A39C1BN9ZSQ0R2","3P520RYKCHSO30HY2QJC6BDLS9Z5UE","","null","<img src=""img/land5.png"" style=""width:200px; border:14px solid green;"">","null","","","","","","","","","",""
"","image-keyboard-response","56","51768","0.0-56.0","39GAF6DQWSMREH39XVW7OQYB2IDV1A","A39C1BN9ZSQ0R2","3P520RYKCHSO30HY2QJC6BDLS9Z5UE","","372.40000009536743","img/land5.png","74","373.7000000476837","1","1","1","2","0.8,0.2,0.2,0.2,0.8,0.2,0.2,0.2,0.8","0.8,0.2,0.2,0.2,0.8,0.2,0.2,0.2,0.8","1","",""
"","html-keyboard-response","57","52072","0.0-57.0","39GAF6DQWSMREH39XVW7OQYB2IDV1A","A39C1BN9ZSQ0R2","3P520RYKCHSO30HY2QJC6BDLS9Z5UE","","null","<img src=""img/land5.png"" style=""width:200px; border:14px solid green;"">","null","","","","","","","","","",""
"","image-keyboard-response","58","52412","0.0-58.0","39GAF6DQWSMREH39XVW7OQYB2IDV1A","A39C1BN9ZSQ0R2","3P520RYKCHSO30HY2QJC6BDLS9Z5UE","","339.10000014305115","img/land5.png","74","340.40000009536743","1","1","1","2","0.8,0.2,0.2,0.2,0.8,0.2,0.2,0.2,0.8","0.8,0.2,0.2,0.2,0.8,0.2,0.2,0.2,0.8","1","",""
"","html-keyboard-response","59","52727","0.0-59.0","39GAF6DQWSMREH39XVW7OQYB2IDV1A","A39C1BN9ZSQ0R2","3P520RYKCHSO30HY2QJC6BDLS9Z5UE","","null","<img src=""img/land5.png"" style=""width:200px; border:14px solid green;"">","null","","","","","","","","","",""
"","image-keyboard-response","60","53841","0.0-60.0","39GAF6DQWSMREH39XVW7OQYB2IDV1A","A39C1BN9ZSQ0R2","3P520RYKCHSO30HY2QJC6BDLS9Z5UE","","1112.0999999046326","img/land4.png","75","1113.5","2","0","3","2","0.8,0.2,0.2,0.2,0.8,0.2,0.2,0.2,0.8","0.8,0.2,0.2,0.2,0.8,0.2,0.2,0.2,0.8","1","",""
"","html-keyboard-response","61","54151","0.0-61.0","39GAF6DQWSMREH39XVW7OQYB2IDV1A","A39C1BN9ZSQ0R2","3P520RYKCHSO30HY2QJC6BDLS9Z5UE","","null","<img src=""img/land4.png"" style=""width:200px;border:14px solid red;"">","null","","","","","","","","","",""
"","image-keyboard-response","62","54865","0.0-62.0","39GAF6DQWSMREH39XVW7OQYB2IDV1A","A39C1BN9ZSQ0R2","3P520RYKCHSO30HY2QJC6BDLS9Z5UE","","713.2999999523163","img/land4.png","75","714.5","2","1","3","2","0.8,0.2,0.2,0.2,0.8,0.2,0.2,0.2,0.8","0.8,0.2,0.2,0.2,0.8,0.2,0.2,0.2,0.8","1","",""
"","html-keyboard-response","63","55180","0.0-63.0","39GAF6DQWSMREH39XVW7OQYB2IDV1A","A39C1BN9ZSQ0R2","3P520RYKCHSO30HY2QJC6BDLS9Z5UE","","null","<img src=""img/land4.png"" style=""width:200px; border:14px solid green;"">","null","","","","","","","","","",""
"","image-keyboard-response","64","55749","0.0-64.0","39GAF6DQWSMREH39XVW7OQYB2IDV1A","A39C1BN9ZSQ0R2","3P520RYKCHSO30HY2QJC6BDLS9Z5UE","","567.2000000476837","img/land4.png","75","568.5999999046326","2","1","3","2","0.8,0.2,0.2,0.2,0.8,0.2,0.2,0.2,0.8","0.8,0.2,0.2,0.2,0.8,0.2,0.2,0.2,0.8","1","",""
"","html-keyboard-response","65","56060","0.0-65.0","39GAF6DQWSMREH39XVW7OQYB2IDV1A","A39C1BN9ZSQ0R2","3P520RYKCHSO30HY2QJC6BDLS9Z5UE","","null","<img src=""img/land4.png"" style=""width:200px; border:14px solid green;"">","null","","","","","","","","","",""
"","image-keyboard-response","66","56704","0.0-66.0","39GAF6DQWSMREH39XVW7OQYB2IDV1A","A39C1BN9ZSQ0R2","3P520RYKCHSO30HY2QJC6BDLS9Z5UE","","642.3000001907349","img/land5.png","74","643.8999998569489","1","1","1","2","0.8,0.2,0.2,0.2,0.8,0.2,0.2,0.2,0.8","0.8,0.2,0.2,0.2,0.8,0.2,0.2,0.2,0.8","1","",""
"","html-keyboard-response","67","57014","0.0-67.0","39GAF6DQWSMREH39XVW7OQYB2IDV1A","A39C1BN9ZSQ0R2","3P520RYKCHSO30HY2QJC6BDLS9Z5UE","","null","<img src=""img/land5.png"" style=""width:200px; border:14px solid green;"">","null","","","","","","","","","",""
"","image-keyboard-response","68","57429","0.0-68.0","39GAF6DQWSMREH39XVW7OQYB2IDV1A","A39C1BN9ZSQ0R2","3P520RYKCHSO30HY2QJC6BDLS9Z5UE","","412.89999985694885","img/land5.png","74","414.2999999523163","1","1","1","2","0.8,0.2,0.2,0.2,0.8,0.2,0.2,0.2,0.8","0.8,0.2,0.2,0.2,0.8,0.2,0.2,0.2,0.8","1","",""
"","html-keyboard-response","69","57738","0.0-69.0","39GAF6DQWSMREH39XVW7OQYB2IDV1A","A39C1BN9ZSQ0R2","3P520RYKCHSO30HY2QJC6BDLS9Z5UE","","null","<img src=""img/land5.png"" style=""width:200px; border:14px solid green;"">","null","","","","","","","","","",""
"","image-keyboard-response","70","58661","0.0-70.0","39GAF6DQWSMREH39XVW7OQYB2IDV1A","A39C1BN9ZSQ0R2","3P520RYKCHSO30HY2QJC6BDLS9Z5UE","","921.8999998569489","img/land4.png","75","923.6000001430511","2","0","3","2","0.8,0.2,0.2,0.2,0.8,0.2,0.2,0.2,0.8","0.8,0.2,0.2,0.2,0.8,0.2,0.2,0.2,0.8","1","",""
"","html-keyboard-response","71","58981","0.0-71.0","39GAF6DQWSMREH39XVW7OQYB2IDV1A","A39C1BN9ZSQ0R2","3P520RYKCHSO30HY2QJC6BDLS9Z5UE","","null","<img src=""img/land4.png"" style=""width:200px;border:14px solid red;"">","null","","","","","","","","","",""
"","image-keyboard-response","72","59558","0.0-72.0","39GAF6DQWSMREH39XVW7OQYB2IDV1A","A39C1BN9ZSQ0R2","3P520RYKCHSO30HY2QJC6BDLS9Z5UE","","575.8999998569489","img/land5.png","74","576.8999998569489","1","1","1","2","0.8,0.2,0.2,0.2,0.8,0.2,0.2,0.2,0.8","0.8,0.2,0.2,0.2,0.8,0.2,0.2,0.2,0.8","1","",""
"","html-keyboard-response","73","59871","0.0-73.0","39GAF6DQWSMREH39XVW7OQYB2IDV1A","A39C1BN9ZSQ0R2","3P520RYKCHSO30HY2QJC6BDLS9Z5UE","","null","<img src=""img/land5.png"" style=""width:200px; border:14px solid green;"">","null","","","","","","","","","",""
"","image-keyboard-response","74","60254","0.0-74.0","39GAF6DQWSMREH39XVW7OQYB2IDV1A","A39C1BN9ZSQ0R2","3P520RYKCHSO30HY2QJC6BDLS9Z5UE","","381.80000019073486","img/land5.png","74","383","1","0","1","2","0.8,0.2,0.2,0.2,0.8,0.2,0.2,0.2,0.8","0.8,0.2,0.2,0.2,0.8,0.2,0.2,0.2,0.8","1","",""
"","html-keyboard-response","75","60557","0.0-75.0","39GAF6DQWSMREH39XVW7OQYB2IDV1A","A39C1BN9ZSQ0R2","3P520RYKCHSO30HY2QJC6BDLS9Z5UE","","null","<img src=""img/land5.png"" style=""width:200px;border:14px solid red;"">","null","","","","","","","","","",""
"","image-keyboard-response","76","60927","0.0-76.0","39GAF6DQWSMREH39XVW7OQYB2IDV1A","A39C1BN9ZSQ0R2","3P520RYKCHSO30HY2QJC6BDLS9Z5UE","","369.09999990463257","img/land5.png","74","370.10000014305115","1","1","1","2","0.8,0.2,0.2,0.2,0.8,0.2,0.2,0.2,0.8","0.8,0.2,0.2,0.2,0.8,0.2,0.2,0.2,0.8","1","",""
"","html-keyboard-response","77","61237","0.0-77.0","39GAF6DQWSMREH39XVW7OQYB2IDV1A","A39C1BN9ZSQ0R2","3P520RYKCHSO30HY2QJC6BDLS9Z5UE","","null","<img src=""img/land5.png"" style=""width:200px; border:14px solid green;"">","null","","","","","","","","","",""
"","image-keyboard-response","78","61572","0.0-78.0","39GAF6DQWSMREH39XVW7OQYB2IDV1A","A39C1BN9ZSQ0R2","3P520RYKCHSO30HY2QJC6BDLS9Z5UE","","333","img/land5.png","74","335","1","1","1","2","0.8,0.2,0.2,0.2,0.8,0.2,0.2,0.2,0.8","0.8,0.2,0.2,0.2,0.8,0.2,0.2,0.2,0.8","1","",""
"","html-keyboard-response","79","61883","0.0-79.0","39GAF6DQWSMREH39XVW7OQYB2IDV1A","A39C1BN9ZSQ0R2","3P520RYKCHSO30HY2QJC6BDLS9Z5UE","","null","<img src=""img/land5.png"" style=""width:200px; border:14px solid green;"">","null","","","","","","","","","",""
"","image-keyboard-response","80","62583","0.0-80.0","39GAF6DQWSMREH39XVW7OQYB2IDV1A","A39C1BN9ZSQ0R2","3P520RYKCHSO30HY2QJC6BDLS9Z5UE","","698.1000001430511","img/land4.png","75","699.7000000476837","2","0","3","2","0.8,0.2,0.2,0.2,0.8,0.2,0.2,0.2,0.8","0.8,0.2,0.2,0.2,0.8,0.2,0.2,0.2,0.8","1","",""
"","html-keyboard-response","81","62891","0.0-81.0","39GAF6DQWSMREH39XVW7OQYB2IDV1A","A39C1BN9ZSQ0R2","3P520RYKCHSO30HY2QJC6BDLS9Z5UE","","null","<img src=""img/land4.png"" style=""width:200px;border:14px solid red;"">","null","","","","","","","","","",""
"","image-keyboard-response","82","63374","0.0-82.0","39GAF6DQWSMREH39XVW7OQYB2IDV1A","A39C1BN9ZSQ0R2","3P520RYKCHSO30HY2QJC6BDLS9Z5UE","","480.90000009536743","img/land5.png","74","482.39999985694885","1","1","1","2","0.8,0.2,0.2,0.2,0.8,0.2,0.2,0.2,0.8","0.8,0.2,0.2,0.2,0.8,0.2,0.2,0.2,0.8","1","",""
"","html-keyboard-response","83","63686","0.0-83.0","39GAF6DQWSMREH39XVW7OQYB2IDV1A","A39C1BN9ZSQ0R2","3P520RYKCHSO30HY2QJC6BDLS9Z5UE","","null","<img src=""img/land5.png"" style=""width:200px; border:14px solid green;"">","null","","","","","","","","","",""
"","image-keyboard-response","84","63995","0.0-84.0","39GAF6DQWSMREH39XVW7OQYB2IDV1A","A39C1BN9ZSQ0R2","3P520RYKCHSO30HY2QJC6BDLS9Z5UE","","306.7000000476837","img/land5.png","74","308.19999980926514","1","1","1","2","0.8,0.2,0.2,0.2,0.8,0.2,0.2,0.2,0.8","0.8,0.2,0.2,0.2,0.8,0.2,0.2,0.2,0.8","1","",""
"","html-keyboard-response","85","64304","0.0-85.0","39GAF6DQWSMREH39XVW7OQYB2IDV1A","A39C1BN9ZSQ0R2","3P520RYKCHSO30HY2QJC6BDLS9Z5UE","","null","<img src=""img/land5.png"" style=""width:200px; border:14px solid green;"">","null","","","","","","","","","",""
"","image-keyboard-response","86","64652","0.0-86.0","39GAF6DQWSMREH39XVW7OQYB2IDV1A","A39C1BN9ZSQ0R2","3P520RYKCHSO30HY2QJC6BDLS9Z5UE","","346.39999985694885","img/land5.png","74","347.80000019073486","1","1","1","2","0.8,0.2,0.2,0.2,0.8,0.2,0.2,0.2,0.8","0.8,0.2,0.2,0.2,0.8,0.2,0.2,0.2,0.8","1","",""
"","html-keyboard-response","87","64954","0.0-87.0","39GAF6DQWSMREH39XVW7OQYB2IDV1A","A39C1BN9ZSQ0R2","3P520RYKCHSO30HY2QJC6BDLS9Z5UE","","null","<img src=""img/land5.png"" style=""width:200px; border:14px solid green;"">","null","","","","","","","","","",""
"","image-keyboard-response","88","66038","0.0-88.0","39GAF6DQWSMREH39XVW7OQYB2IDV1A","A39C1BN9ZSQ0R2","3P520RYKCHSO30HY2QJC6BDLS9Z5UE","","1082.2999999523163","img/land2.png","76","1083.6999998092651","3","0","2","2","0.8,0.2,0.2,0.2,0.8,0.2,0.2,0.2,0.8","0.8,0.2,0.2,0.2,0.8,0.2,0.2,0.2,0.8","1","",""
"","html-keyboard-response","89","66341","0.0-89.0","39GAF6DQWSMREH39XVW7OQYB2IDV1A","A39C1BN9ZSQ0R2","3P520RYKCHSO30HY2QJC6BDLS9Z5UE","","null","<img src=""img/land2.png"" style=""width:200px;border:14px solid red;"">","null","","","","","","","","","",""
"","image-keyboard-response","90","66924","0.0-90.0","39GAF6DQWSMREH39XVW7OQYB2IDV1A","A39C1BN9ZSQ0R2","3P520RYKCHSO30HY2QJC6BDLS9Z5UE","","581.7000000476837","img/land5.png","74","582.9000000953674","1","1","1","2","0.8,0.2,0.2,0.2,0.8,0.2,0.2,0.2,0.8","0.8,0.2,0.2,0.2,0.8,0.2,0.2,0.2,0.8","1","",""
"","html-keyboard-response","91","67232","0.0-91.0","39GAF6DQWSMREH39XVW7OQYB2IDV1A","A39C1BN9ZSQ0R2","3P520RYKCHSO30HY2QJC6BDLS9Z5UE","","null","<img src=""img/land5.png"" style=""width:200px; border:14px solid green;"">","null","","","","","","","","","",""
"","image-keyboard-response","92","67620","0.0-92.0","39GAF6DQWSMREH39XVW7OQYB2IDV1A","A39C1BN9ZSQ0R2","3P520RYKCHSO30HY2QJC6BDLS9Z5UE","","385.69999980926514","img/land5.png","74","387.40000009536743","1","1","1","2","0.8,0.2,0.2,0.2,0.8,0.2,0.2,0.2,0.8","0.8,0.2,0.2,0.2,0.8,0.2,0.2,0.2,0.8","1","",""
"","html-keyboard-response","93","67930","0.0-93.0","39GAF6DQWSMREH39XVW7OQYB2IDV1A","A39C1BN9ZSQ0R2","3P520RYKCHSO30HY2QJC6BDLS9Z5UE","","null","<img src=""img/land5.png"" style=""width:200px; border:14px solid green;"">","null","","","","","","","","","",""
"","image-keyboard-response","94","68216","0.0-94.0","39GAF6DQWSMREH39XVW7OQYB2IDV1A","A39C1BN9ZSQ0R2","3P520RYKCHSO30HY2QJC6BDLS9Z5UE","","284.7999999523163","img/land5.png","74","286.09999990463257","1","1","1","2","0.8,0.2,0.2,0.2,0.8,0.2,0.2,0.2,0.8","0.8,0.2,0.2,0.2,0.8,0.2,0.2,0.2,0.8","1","",""
"","html-keyboard-response","95","68526","0.0-95.0","39GAF6DQWSMREH39XVW7OQYB2IDV1A","A39C1BN9ZSQ0R2","3P520RYKCHSO30HY2QJC6BDLS9Z5UE","","null","<img src=""img/land5.png"" style=""width:200px; border:14px solid green;"">","null","","","","","","","","","",""
"","image-keyboard-response","96","69116","0.0-96.0","39GAF6DQWSMREH39XVW7OQYB2IDV1A","A39C1BN9ZSQ0R2","3P520RYKCHSO30HY2QJC6BDLS9Z5UE","","588.5999999046326","img/land2.png","76","590","3","0","2","2","0.8,0.2,0.2,0.2,0.8,0.2,0.2,0.2,0.8","0.8,0.2,0.2,0.2,0.8,0.2,0.2,0.2,0.8","1","",""
"","html-keyboard-response","97","69421","0.0-97.0","39GAF6DQWSMREH39XVW7OQYB2IDV1A","A39C1BN9ZSQ0R2","3P520RYKCHSO30HY2QJC6BDLS9Z5UE","","null","<img src=""img/land2.png"" style=""width:200px;border:14px solid red;"">","null","","","","","","","","","",""
"","image-keyboard-response","98","70079","0.0-98.0","39GAF6DQWSMREH39XVW7OQYB2IDV1A","A39C1BN9ZSQ0R2","3P520RYKCHSO30HY2QJC6BDLS9Z5UE","","656.2999999523163","img/land5.png","74","657.5","1","1","1","2","0.8,0.2,0.2,0.2,0.8,0.2,0.2,0.2,0.8","0.8,0.2,0.2,0.2,0.8,0.2,0.2,0.2,0.8","1","",""
"","html-keyboard-response","99","70391","0.0-99.0","39GAF6DQWSMREH39XVW7OQYB2IDV1A","A39C1BN9ZSQ0R2","3P520RYKCHSO30HY2QJC6BDLS9Z5UE","","null","<img src=""img/land5.png"" style=""width:200px; border:14px solid green;"">","null","","","","","","","","","",""
"","image-keyboard-response","100","70855","0.0-100.0","39GAF6DQWSMREH39XVW7OQYB2IDV1A","A39C1BN9ZSQ0R2","3P520RYKCHSO30HY2QJC6BDLS9Z5UE","","462.2000000476837","img/land5.png","74","463.2999999523163","1","1","1","2","0.8,0.2,0.2,0.2,0.8,0.2,0.2,0.2,0.8","0.8,0.2,0.2,0.2,0.8,0.2,0.2,0.2,0.8","1","",""
"","html-keyboard-response","101","71162","0.0-101.0","39GAF6DQWSMREH39XVW7OQYB2IDV1A","A39C1BN9ZSQ0R2","3P520RYKCHSO30HY2QJC6BDLS9Z5UE","","null","<img src=""img/land5.png"" style=""width:200px; border:14px solid green;"">","null","","","","","","","","","",""
"","image-keyboard-response","102","71476","0.0-102.0","39GAF6DQWSMREH39XVW7OQYB2IDV1A","A39C1BN9ZSQ0R2","3P520RYKCHSO30HY2QJC6BDLS9Z5UE","","312.5","img/land5.png","74","313.7999999523163","1","1","1","2","0.8,0.2,0.2,0.2,0.8,0.2,0.2,0.2,0.8","0.8,0.2,0.2,0.2,0.8,0.2,0.2,0.2,0.8","1","",""
"","html-keyboard-response","103","71780","0.0-103.0","39GAF6DQWSMREH39XVW7OQYB2IDV1A","A39C1BN9ZSQ0R2","3P520RYKCHSO30HY2QJC6BDLS9Z5UE","","null","<img src=""img/land5.png"" style=""width:200px; border:14px solid green;"">","null","","","","","","","","","",""
"","image-keyboard-response","104","72102","0.0-104.0","39GAF6DQWSMREH39XVW7OQYB2IDV1A","A39C1BN9ZSQ0R2","3P520RYKCHSO30HY2QJC6BDLS9Z5UE","","319.7999999523163","img/land5.png","74","321.2000000476837","1","1","1","2","0.8,0.2,0.2,0.2,0.8,0.2,0.2,0.2,0.8","0.8,0.2,0.2,0.2,0.8,0.2,0.2,0.2,0.8","1","",""
"","html-keyboard-response","105","72409","0.0-105.0","39GAF6DQWSMREH39XVW7OQYB2IDV1A","A39C1BN9ZSQ0R2","3P520RYKCHSO30HY2QJC6BDLS9Z5UE","","null","<img src=""img/land5.png"" style=""width:200px; border:14px solid green;"">","null","","","","","","","","","",""
"","image-keyboard-response","106","73213","0.0-106.0","39GAF6DQWSMREH39XVW7OQYB2IDV1A","A39C1BN9ZSQ0R2","3P520RYKCHSO30HY2QJC6BDLS9Z5UE","","802.5999999046326","img/land4.png","75","803.7999999523163","2","0","3","2","0.8,0.2,0.2,0.2,0.8,0.2,0.2,0.2,0.8","0.8,0.2,0.2,0.2,0.8,0.2,0.2,0.2,0.8","1","",""
"","html-keyboard-response","107","73521","0.0-107.0","39GAF6DQWSMREH39XVW7OQYB2IDV1A","A39C1BN9ZSQ0R2","3P520RYKCHSO30HY2QJC6BDLS9Z5UE","","null","<img src=""img/land4.png"" style=""width:200px;border:14px solid red;"">","null","","","","","","","","","",""
"","image-keyboard-response","108","74016","0.0-108.0","39GAF6DQWSMREH39XVW7OQYB2IDV1A","A39C1BN9ZSQ0R2","3P520RYKCHSO30HY2QJC6BDLS9Z5UE","","493.30000019073486","img/land5.png","74","495","1","1","1","2","0.8,0.2,0.2,0.2,0.8,0.2,0.2,0.2,0.8","0.8,0.2,0.2,0.2,0.8,0.2,0.2,0.2,0.8","1","",""
"","html-keyboard-response","109","74330","0.0-109.0","39GAF6DQWSMREH39XVW7OQYB2IDV1A","A39C1BN9ZSQ0R2","3P520RYKCHSO30HY2QJC6BDLS9Z5UE","","null","<img src=""img/land5.png"" style=""width:200px; border:14px solid green;"">","null","","","","","","","","","",""
"","image-keyboard-response","110","74879","0.0-110.0","39GAF6DQWSMREH39XVW7OQYB2IDV1A","A39C1BN9ZSQ0R2","3P520RYKCHSO30HY2QJC6BDLS9Z5UE","","548.2000000476837","img/land2.png","75","549.2999999523163","2","1","2","2","0.8,0.2,0.2,0.2,0.8,0.2,0.2,0.2,0.8","0.8,0.2,0.2,0.2,0.8,0.2,0.2,0.2,0.8","1","",""
"","html-keyboard-response","111","75188","0.0-111.0","39GAF6DQWSMREH39XVW7OQYB2IDV1A","A39C1BN9ZSQ0R2","3P520RYKCHSO30HY2QJC6BDLS9Z5UE","","null","<img src=""img/land2.png"" style=""width:200px; border:14px solid green;"">","null","","","","","","","","","",""
"","image-keyboard-response","112","75957","0.0-112.0","39GAF6DQWSMREH39XVW7OQYB2IDV1A","A39C1BN9ZSQ0R2","3P520RYKCHSO30HY2QJC6BDLS9Z5UE","","766.9000000953674","img/land4.png","75","768.5","2","1","3","2","0.8,0.2,0.2,0.2,0.8,0.2,0.2,0.2,0.8","0.8,0.2,0.2,0.2,0.8,0.2,0.2,0.2,0.8","1","",""
"","html-keyboard-response","113","76262","0.0-113.0","39GAF6DQWSMREH39XVW7OQYB2IDV1A","A39C1BN9ZSQ0R2","3P520RYKCHSO30HY2QJC6BDLS9Z5UE","","null","<img src=""img/land4.png"" style=""width:200px; border:14px solid green;"">","null","","","","","","","","","",""
"","image-keyboard-response","114","76681","0.0-114.0","39GAF6DQWSMREH39XVW7OQYB2IDV1A","A39C1BN9ZSQ0R2","3P520RYKCHSO30HY2QJC6BDLS9Z5UE","","418.5","img/land4.png","75","419.7000000476837","2","1","3","2","0.8,0.2,0.2,0.2,0.8,0.2,0.2,0.2,0.8","0.8,0.2,0.2,0.2,0.8,0.2,0.2,0.2,0.8","1","",""
"","html-keyboard-response","115","76994","0.0-115.0","39GAF6DQWSMREH39XVW7OQYB2IDV1A","A39C1BN9ZSQ0R2","3P520RYKCHSO30HY2QJC6BDLS9Z5UE","","null","<img src=""img/land4.png"" style=""width:200px; border:14px solid green;"">","null","","","","","","","","","",""
"","image-keyboard-response","116","77614","0.0-116.0","39GAF6DQWSMREH39XVW7OQYB2IDV1A","A39C1BN9ZSQ0R2","3P520RYKCHSO30HY2QJC6BDLS9Z5UE","","618.8999998569489","img/land5.png","74","620.2999999523163","1","1","1","2","0.8,0.2,0.2,0.2,0.8,0.2,0.2,0.2,0.8","0.8,0.2,0.2,0.2,0.8,0.2,0.2,0.2,0.8","1","",""
"","html-keyboard-response","117","77925","0.0-117.0","39GAF6DQWSMREH39XVW7OQYB2IDV1A","A39C1BN9ZSQ0R2","3P520RYKCHSO30HY2QJC6BDLS9Z5UE","","null","<img src=""img/land5.png"" style=""width:200px; border:14px solid green;"">","null","","","","","","","","","",""
"","image-keyboard-response","118","78294","0.0-118.0","39GAF6DQWSMREH39XVW7OQYB2IDV1A","A39C1BN9ZSQ0R2","3P520RYKCHSO30HY2QJC6BDLS9Z5UE","","367.7999999523163","img/land5.png","74","368.89999985694885","1","1","1","2","0.8,0.2,0.2,0.2,0.8,0.2,0.2,0.2,0.8","0.8,0.2,0.2,0.2,0.8,0.2,0.2,0.2,0.8","1","",""
"","html-keyboard-response","119","78598","0.0-119.0","39GAF6DQWSMREH39XVW7OQYB2IDV1A","A39C1BN9ZSQ0R2","3P520RYKCHSO30HY2QJC6BDLS9Z5UE","","null","<img src=""img/land5.png"" style=""width:200px; border:14px solid green;"">","null","","","","","","","","","",""
"","image-keyboard-response","120","78936","0.0-120.0","39GAF6DQWSMREH39XVW7OQYB2IDV1A","A39C1BN9ZSQ0R2","3P520RYKCHSO30HY2QJC6BDLS9Z5UE","","336.2000000476837","img/land5.png","74","337.2999999523163","1","0","1","2","0.8,0.2,0.2,0.2,0.8,0.2,0.2,0.2,0.8","0.8,0.2,0.2,0.2,0.8,0.2,0.2,0.2,0.8","1","",""
"","html-keyboard-response","121","79240","0.0-121.0","39GAF6DQWSMREH39XVW7OQYB2IDV1A","A39C1BN9ZSQ0R2","3P520RYKCHSO30HY2QJC6BDLS9Z5UE","","null","<img src=""img/land5.png"" style=""width:200px;border:14px solid red;"">","null","","","","","","","","","",""
"","image-keyboard-response","122","79802","0.0-122.0","39GAF6DQWSMREH39XVW7OQYB2IDV1A","A39C1BN9ZSQ0R2","3P520RYKCHSO30HY2QJC6BDLS9Z5UE","","559.5999999046326","img/land2.png","75","561.2999999523163","2","1","2","2","0.8,0.2,0.2,0.2,0.8,0.2,0.2,0.2,0.8","0.8,0.2,0.2,0.2,0.8,0.2,0.2,0.2,0.8","1","",""
"","html-keyboard-response","123","80106","0.0-123.0","39GAF6DQWSMREH39XVW7OQYB2IDV1A","A39C1BN9ZSQ0R2","3P520RYKCHSO30HY2QJC6BDLS9Z5UE","","null","<img src=""img/land2.png"" style=""width:200px; border:14px solid green;"">","null","","","","","","","","","",""
"","image-keyboard-response","124","80467","0.0-124.0","39GAF6DQWSMREH39XVW7OQYB2IDV1A","A39C1BN9ZSQ0R2","3P520RYKCHSO30HY2QJC6BDLS9Z5UE","","359.09999990463257","img/land2.png","75","360.2999999523163","2","1","2","2","0.8,0.2,0.2,0.2,0.8,0.2,0.2,0.2,0.8","0.8,0.2,0.2,0.2,0.8,0.2,0.2,0.2,0.8","1","",""
"","html-keyboard-response","125","80789","0.0-125.0","39GAF6DQWSMREH39XVW7OQYB2IDV1A","A39C1BN9ZSQ0R2","3P520RYKCHSO30HY2QJC6BDLS9Z5UE","","null","<img src=""img/land2.png"" style=""width:200px; border:14px solid green;"">","null","","","","","","","","","",""
"","image-keyboard-response","126","81409","0.0-126.0","39GAF6DQWSMREH39XVW7OQYB2IDV1A","A39C1BN9ZSQ0R2","3P520RYKCHSO30HY2QJC6BDLS9Z5UE","","617.9000000953674","img/land5.png","74","619.7000000476837","1","0","1","2","0.8,0.2,0.2,0.2,0.8,0.2,0.2,0.2,0.8","0.8,0.2,0.2,0.2,0.8,0.2,0.2,0.2,0.8","1","",""
"","html-keyboard-response","127","81714","0.0-127.0","39GAF6DQWSMREH39XVW7OQYB2IDV1A","A39C1BN9ZSQ0R2","3P520RYKCHSO30HY2QJC6BDLS9Z5UE","","null","<img src=""img/land5.png"" style=""width:200px;border:14px solid red;"">","null","","","","","","","","","",""
"","image-keyboard-response","128","82355","0.0-128.0","39GAF6DQWSMREH39XVW7OQYB2IDV1A","A39C1BN9ZSQ0R2","3P520RYKCHSO30HY2QJC6BDLS9Z5UE","","639.5999999046326","img/land4.png","75","641","2","0","3","2","0.8,0.2,0.2,0.2,0.8,0.2,0.2,0.2,0.8","0.8,0.2,0.2,0.2,0.8,0.2,0.2,0.2,0.8","1","",""
"","html-keyboard-response","129","82660","0.0-129.0","39GAF6DQWSMREH39XVW7OQYB2IDV1A","A39C1BN9ZSQ0R2","3P520RYKCHSO30HY2QJC6BDLS9Z5UE","","null","<img src=""img/land4.png"" style=""width:200px;border:14px solid red;"">","null","","","","","","","","","",""
"","image-keyboard-response","130","83041","0.0-130.0","39GAF6DQWSMREH39XVW7OQYB2IDV1A","A39C1BN9ZSQ0R2","3P520RYKCHSO30HY2QJC6BDLS9Z5UE","","379.7999999523163","img/land4.png","75","381.2000000476837","2","0","3","2","0.8,0.2,0.2,0.2,0.8,0.2,0.2,0.2,0.8","0.8,0.2,0.2,0.2,0.8,0.2,0.2,0.2,0.8","1","",""
"","html-keyboard-response","131","83343","0.0-131.0","39GAF6DQWSMREH39XVW7OQYB2IDV1A","A39C1BN9ZSQ0R2","3P520RYKCHSO30HY2QJC6BDLS9Z5UE","","null","<img src=""img/land4.png"" style=""width:200px;border:14px solid red;"">","null","","","","","","","","","",""
"","image-keyboard-response","132","83838","0.0-132.0","39GAF6DQWSMREH39XVW7OQYB2IDV1A","A39C1BN9ZSQ0R2","3P520RYKCHSO30HY2QJC6BDLS9Z5UE","","492.5","img/land5.png","74","493.90000009536743","1","1","1","2","0.8,0.2,0.2,0.2,0.8,0.2,0.2,0.2,0.8","0.8,0.2,0.2,0.2,0.8,0.2,0.2,0.2,0.8","1","",""
"","html-keyboard-response","133","84145","0.0-133.0","39GAF6DQWSMREH39XVW7OQYB2IDV1A","A39C1BN9ZSQ0R2","3P520RYKCHSO30HY2QJC6BDLS9Z5UE","","null","<img src=""img/land5.png"" style=""width:200px; border:14px solid green;"">","null","","","","","","","","","",""
"","image-keyboard-response","134","84703","0.0-134.0","39GAF6DQWSMREH39XVW7OQYB2IDV1A","A39C1BN9ZSQ0R2","3P520RYKCHSO30HY2QJC6BDLS9Z5UE","","556.7000000476837","img/land4.png","75","558.2000000476837","2","0","3","2","0.8,0.2,0.2,0.2,0.8,0.2,0.2,0.2,0.8","0.8,0.2,0.2,0.2,0.8,0.2,0.2,0.2,0.8","1","",""
"","html-keyboard-response","135","85009","0.0-135.0","39GAF6DQWSMREH39XVW7OQYB2IDV1A","A39C1BN9ZSQ0R2","3P520RYKCHSO30HY2QJC6BDLS9Z5UE","","null","<img src=""img/land4.png"" style=""width:200px;border:14px solid red;"">","null","","","","","","","","","",""
"","image-keyboard-response","136","85585","0.0-136.0","39GAF6DQWSMREH39XVW7OQYB2IDV1A","A39C1BN9ZSQ0R2","3P520RYKCHSO30HY2QJC6BDLS9Z5UE","","573.7999999523163","img/land4.png","76","575.2999999523163","3","1","3","2","0.8,0.2,0.2,0.2,0.8,0.2,0.2,0.2,0.8","0.8,0.2,0.2,0.2,0.8,0.2,0.2,0.2,0.8","1","",""
"","html-keyboard-response","137","85903","0.0-137.0","39GAF6DQWSMREH39XVW7OQYB2IDV1A","A39C1BN9ZSQ0R2","3P520RYKCHSO30HY2QJC6BDLS9Z5UE","","null","<img src=""img/land4.png"" style=""width:200px; border:14px solid green;"">","null","","","","","","","","","",""
"","image-keyboard-response","138","86410","0.0-138.0","39GAF6DQWSMREH39XVW7OQYB2IDV1A","A39C1BN9ZSQ0R2","3P520RYKCHSO30HY2QJC6BDLS9Z5UE","","506.09999990463257","img/land5.png","74","507.2000000476837","1","0","1","2","0.8,0.2,0.2,0.2,0.8,0.2,0.2,0.2,0.8","0.8,0.2,0.2,0.2,0.8,0.2,0.2,0.2,0.8","1","",""
"","html-keyboard-response","139","86717","0.0-139.0","39GAF6DQWSMREH39XVW7OQYB2IDV1A","A39C1BN9ZSQ0R2","3P520RYKCHSO30HY2QJC6BDLS9Z5UE","","null","<img src=""img/land5.png"" style=""width:200px;border:14px solid red;"">","null","","","","","","","","","",""
"","image-keyboard-response","140","87371","0.0-140.0","39GAF6DQWSMREH39XVW7OQYB2IDV1A","A39C1BN9ZSQ0R2","3P520RYKCHSO30HY2QJC6BDLS9Z5UE","","651.5999999046326","img/land4.png","76","652.7000000476837","3","1","3","2","0.8,0.2,0.2,0.2,0.8,0.2,0.2,0.2,0.8","0.8,0.2,0.2,0.2,0.8,0.2,0.2,0.2,0.8","1","",""
"","html-keyboard-response","141","87682","0.0-141.0","39GAF6DQWSMREH39XVW7OQYB2IDV1A","A39C1BN9ZSQ0R2","3P520RYKCHSO30HY2QJC6BDLS9Z5UE","","null","<img src=""img/land4.png"" style=""width:200px; border:14px solid green;"">","null","","","","","","","","","",""
"","image-keyboard-response","142","88734","0.0-142.0","39GAF6DQWSMREH39XVW7OQYB2IDV1A","A39C1BN9ZSQ0R2","3P520RYKCHSO30HY2QJC6BDLS9Z5UE","","1050.6000001430511","img/land5.png","74","1052","1","0","1","2","0.8,0.2,0.2,0.2,0.8,0.2,0.2,0.2,0.8","0.8,0.2,0.2,0.2,0.8,0.2,0.2,0.2,0.8","1","",""
"","html-keyboard-response","143","89049","0.0-143.0","39GAF6DQWSMREH39XVW7OQYB2IDV1A","A39C1BN9ZSQ0R2","3P520RYKCHSO30HY2QJC6BDLS9Z5UE","","null","<img src=""img/land5.png"" style=""width:200px;border:14px solid red;"">","null","","","","","","","","","",""
"","image-keyboard-response","144","89594","0.0-144.0","39GAF6DQWSMREH39XVW7OQYB2IDV1A","A39C1BN9ZSQ0R2","3P520RYKCHSO30HY2QJC6BDLS9Z5UE","","541","img/land5.png","74","542.1000001430511","1","0","1","2","0.8,0.2,0.2,0.2,0.8,0.2,0.2,0.2,0.8","0.8,0.2,0.2,0.2,0.8,0.2,0.2,0.2,0.8","1","",""
"","html-keyboard-response","145","89901","0.0-145.0","39GAF6DQWSMREH39XVW7OQYB2IDV1A","A39C1BN9ZSQ0R2","3P520RYKCHSO30HY2QJC6BDLS9Z5UE","","null","<img src=""img/land5.png"" style=""width:200px;border:14px solid red;"">","null","","","","","","","","","",""
"","image-keyboard-response","146","91907","0.0-146.0","39GAF6DQWSMREH39XVW7OQYB2IDV1A","A39C1BN9ZSQ0R2","3P520RYKCHSO30HY2QJC6BDLS9Z5UE","","","img/land2.png","","2005","-1","0","2","2","0.8,0.2,0.2,0.2,0.8,0.2,0.2,0.2,0.8","0.8,0.2,0.2,0.2,0.8,0.2,0.2,0.2,0.8","1","",""
"","html-keyboard-response","147","92215","0.0-147.0","39GAF6DQWSMREH39XVW7OQYB2IDV1A","A39C1BN9ZSQ0R2","3P520RYKCHSO30HY2QJC6BDLS9Z5UE","","null","<img src=""img/land2.png"" style=""width:200px;border:14px solid red;"">","null","","","","","","","","","",""
"","image-keyboard-response","148","93695","0.0-148.0","39GAF6DQWSMREH39XVW7OQYB2IDV1A","A39C1BN9ZSQ0R2","3P520RYKCHSO30HY2QJC6BDLS9Z5UE","","1478.6000001430511","img/land5.png","74","1480","1","1","1","2","0.8,0.2,0.2,0.2,0.8,0.2,0.2,0.2,0.8","0.8,0.2,0.2,0.2,0.8,0.2,0.2,0.2,0.8","1","",""
"","html-keyboard-response","149","94001","0.0-149.0","39GAF6DQWSMREH39XVW7OQYB2IDV1A","A39C1BN9ZSQ0R2","3P520RYKCHSO30HY2QJC6BDLS9Z5UE","","null","<img src=""img/land5.png"" style=""width:200px; border:14px solid green;"">","null","","","","","","","","","",""
"","image-keyboard-response","150","95658","0.0-150.0","39GAF6DQWSMREH39XVW7OQYB2IDV1A","A39C1BN9ZSQ0R2","3P520RYKCHSO30HY2QJC6BDLS9Z5UE","","1654.7999999523163","img/land2.png","76","1656.1999998092651","3","1","2","2","0.8,0.2,0.2,0.2,0.8,0.2,0.2,0.2,0.8","0.8,0.2,0.2,0.2,0.8,0.2,0.2,0.2,0.8","1","",""
"","html-keyboard-response","151","95971","0.0-151.0","39GAF6DQWSMREH39XVW7OQYB2IDV1A","A39C1BN9ZSQ0R2","3P520RYKCHSO30HY2QJC6BDLS9Z5UE","","null","<img src=""img/land2.png"" style=""width:200px; border:14px solid green;"">","null","","","","","","","","","",""
"","image-keyboard-response","152","97481","0.0-152.0","39GAF6DQWSMREH39XVW7OQYB2IDV1A","A39C1BN9ZSQ0R2","3P520RYKCHSO30HY2QJC6BDLS9Z5UE","","1509","img/land4.png","75","1510","2","0","3","2","0.8,0.2,0.2,0.2,0.8,0.2,0.2,0.2,0.8","0.8,0.2,0.2,0.2,0.8,0.2,0.2,0.2,0.8","1","",""
"","html-keyboard-response","153","97785","0.0-153.0","39GAF6DQWSMREH39XVW7OQYB2IDV1A","A39C1BN9ZSQ0R2","3P520RYKCHSO30HY2QJC6BDLS9Z5UE","","null","<img src=""img/land4.png"" style=""width:200px;border:14px solid red;"">","null","","","","","","","","","",""
"","image-keyboard-response","154","98326","0.0-154.0","39GAF6DQWSMREH39XVW7OQYB2IDV1A","A39C1BN9ZSQ0R2","3P520RYKCHSO30HY2QJC6BDLS9Z5UE","","538.7999999523163","img/land5.png","74","540","1","1","1","2","0.8,0.2,0.2,0.2,0.8,0.2,0.2,0.2,0.8","0.8,0.2,0.2,0.2,0.8,0.2,0.2,0.2,0.8","1","",""
"","html-keyboard-response","155","98637","0.0-155.0","39GAF6DQWSMREH39XVW7OQYB2IDV1A","A39C1BN9ZSQ0R2","3P520RYKCHSO30HY2QJC6BDLS9Z5UE","","null","<img src=""img/land5.png"" style=""width:200px; border:14px solid green;"">","null","","","","","","","","","",""
"","image-keyboard-response","156","99544","0.0-156.0","39GAF6DQWSMREH39XVW7OQYB2IDV1A","A39C1BN9ZSQ0R2","3P520RYKCHSO30HY2QJC6BDLS9Z5UE","","905.8999998569489","img/land2.png","76","907.2000000476837","3","0","2","2","0.8,0.2,0.2,0.2,0.8,0.2,0.2,0.2,0.8","0.8,0.2,0.2,0.2,0.8,0.2,0.2,0.2,0.8","1","",""
"","html-keyboard-response","157","99851","0.0-157.0","39GAF6DQWSMREH39XVW7OQYB2IDV1A","A39C1BN9ZSQ0R2","3P520RYKCHSO30HY2QJC6BDLS9Z5UE","","null","<img src=""img/land2.png"" style=""width:200px;border:14px solid red;"">","null","","","","","","","","","",""
"","image-keyboard-response","158","100353","0.0-158.0","39GAF6DQWSMREH39XVW7OQYB2IDV1A","A39C1BN9ZSQ0R2","3P520RYKCHSO30HY2QJC6BDLS9Z5UE","","501.30000019073486","img/land5.png","74","502.7000000476837","1","1","1","2","0.8,0.2,0.2,0.2,0.8,0.2,0.2,0.2,0.8","0.8,0.2,0.2,0.2,0.8,0.2,0.2,0.2,0.8","1","",""
"","html-keyboard-response","159","100668","0.0-159.0","39GAF6DQWSMREH39XVW7OQYB2IDV1A","A39C1BN9ZSQ0R2","3P520RYKCHSO30HY2QJC6BDLS9Z5UE","","null","<img src=""img/land5.png"" style=""width:200px; border:14px solid green;"">","null","","","","","","","","","",""
"","image-keyboard-response","160","101056","0.0-160.0","39GAF6DQWSMREH39XVW7OQYB2IDV1A","A39C1BN9ZSQ0R2","3P520RYKCHSO30HY2QJC6BDLS9Z5UE","","385.7999999523163","img/land5.png","74","387.5","1","1","1","2","0.8,0.2,0.2,0.2,0.8,0.2,0.2,0.2,0.8","0.8,0.2,0.2,0.2,0.8,0.2,0.2,0.2,0.8","1","",""
"","html-keyboard-response","161","101370","0.0-161.0","39GAF6DQWSMREH39XVW7OQYB2IDV1A","A39C1BN9ZSQ0R2","3P520RYKCHSO30HY2QJC6BDLS9Z5UE","","null","<img src=""img/land5.png"" style=""width:200px; border:14px solid green;"">","null","","","","","","","","","",""
"","image-keyboard-response","162","101662","0.0-162.0","39GAF6DQWSMREH39XVW7OQYB2IDV1A","A39C1BN9ZSQ0R2","3P520RYKCHSO30HY2QJC6BDLS9Z5UE","","290.39999985694885","img/land5.png","74","291.5","1","1","1","2","0.8,0.2,0.2,0.2,0.8,0.2,0.2,0.2,0.8","0.8,0.2,0.2,0.2,0.8,0.2,0.2,0.2,0.8","1","",""
"","html-keyboard-response","163","101976","0.0-163.0","39GAF6DQWSMREH39XVW7OQYB2IDV1A","A39C1BN9ZSQ0R2","3P520RYKCHSO30HY2QJC6BDLS9Z5UE","","null","<img src=""img/land5.png"" style=""width:200px; border:14px solid green;"">","null","","","","","","","","","",""
"","image-keyboard-response","164","102276","0.0-164.0","39GAF6DQWSMREH39XVW7OQYB2IDV1A","A39C1BN9ZSQ0R2","3P520RYKCHSO30HY2QJC6BDLS9Z5UE","","299","img/land5.png","74","300.2000000476837","1","1","1","2","0.8,0.2,0.2,0.2,0.8,0.2,0.2,0.2,0.8","0.8,0.2,0.2,0.2,0.8,0.2,0.2,0.2,0.8","1","",""
"","html-keyboard-response","165","102584","0.0-165.0","39GAF6DQWSMREH39XVW7OQYB2IDV1A","A39C1BN9ZSQ0R2","3P520RYKCHSO30HY2QJC6BDLS9Z5UE","","null","<img src=""img/land5.png"" style=""width:200px; border:14px solid green;"">","null","","","","","","","","","",""
"","image-keyboard-response","166","102878","0.0-166.0","39GAF6DQWSMREH39XVW7OQYB2IDV1A","A39C1BN9ZSQ0R2","3P520RYKCHSO30HY2QJC6BDLS9Z5UE","","293","img/land5.png","74","294.39999985694885","1","1","1","2","0.8,0.2,0.2,0.2,0.8,0.2,0.2,0.2,0.8","0.8,0.2,0.2,0.2,0.8,0.2,0.2,0.2,0.8","1","",""
"","html-keyboard-response","167","103185","0.0-167.0","39GAF6DQWSMREH39XVW7OQYB2IDV1A","A39C1BN9ZSQ0R2","3P520RYKCHSO30HY2QJC6BDLS9Z5UE","","null","<img src=""img/land5.png"" style=""width:200px; border:14px solid green;"">","null","","","","","","","","","",""
"","image-keyboard-response","168","103663","0.0-168.0","39GAF6DQWSMREH39XVW7OQYB2IDV1A","A39C1BN9ZSQ0R2","3P520RYKCHSO30HY2QJC6BDLS9Z5UE","","476.39999985694885","img/land4.png","76","478","3","1","3","2","0.8,0.2,0.2,0.2,0.8,0.2,0.2,0.2,0.8","0.8,0.2,0.2,0.2,0.8,0.2,0.2,0.2,0.8","1","",""
"","html-keyboard-response","169","103970","0.0-169.0","39GAF6DQWSMREH39XVW7OQYB2IDV1A","A39C1BN9ZSQ0R2","3P520RYKCHSO30HY2QJC6BDLS9Z5UE","","null","<img src=""img/land4.png"" style=""width:200px; border:14px solid green;"">","null","","","","","","","","","",""
"","image-keyboard-response","170","104484","0.0-170.0","39GAF6DQWSMREH39XVW7OQYB2IDV1A","A39C1BN9ZSQ0R2","3P520RYKCHSO30HY2QJC6BDLS9Z5UE","","512.2999999523163","img/land5.png","74","513.5","1","1","1","2","0.8,0.2,0.2,0.2,0.8,0.2,0.2,0.2,0.8","0.8,0.2,0.2,0.2,0.8,0.2,0.2,0.2,0.8","1","",""
"","html-keyboard-response","171","104797","0.0-171.0","39GAF6DQWSMREH39XVW7OQYB2IDV1A","A39C1BN9ZSQ0R2","3P520RYKCHSO30HY2QJC6BDLS9Z5UE","","null","<img src=""img/land5.png"" style=""width:200px; border:14px solid green;"">","null","","","","","","","","","",""
"","image-keyboard-response","172","105235","0.0-172.0","39GAF6DQWSMREH39XVW7OQYB2IDV1A","A39C1BN9ZSQ0R2","3P520RYKCHSO30HY2QJC6BDLS9Z5UE","","436.7999999523163","img/land4.png","76","438.10000014305115","3","1","3","2","0.8,0.2,0.2,0.2,0.8,0.2,0.2,0.2,0.8","0.8,0.2,0.2,0.2,0.8,0.2,0.2,0.2,0.8","1","",""
"","html-keyboard-response","173","105542","0.0-173.0","39GAF6DQWSMREH39XVW7OQYB2IDV1A","A39C1BN9ZSQ0R2","3P520RYKCHSO30HY2QJC6BDLS9Z5UE","","null","<img src=""img/land4.png"" style=""width:200px; border:14px solid green;"">","null","","","","","","","","","",""
"","image-keyboard-response","174","106082","0.0-174.0","39GAF6DQWSMREH39XVW7OQYB2IDV1A","A39C1BN9ZSQ0R2","3P520RYKCHSO30HY2QJC6BDLS9Z5UE","","538.5","img/land5.png","74","539.7000000476837","1","1","1","2","0.8,0.2,0.2,0.2,0.8,0.2,0.2,0.2,0.8","0.8,0.2,0.2,0.2,0.8,0.2,0.2,0.2,0.8","1","",""
"","html-keyboard-response","175","106393","0.0-175.0","39GAF6DQWSMREH39XVW7OQYB2IDV1A","A39C1BN9ZSQ0R2","3P520RYKCHSO30HY2QJC6BDLS9Z5UE","","null","<img src=""img/land5.png"" style=""width:200px; border:14px solid green;"">","null","","","","","","","","","",""
"","image-keyboard-response","176","106908","0.0-176.0","39GAF6DQWSMREH39XVW7OQYB2IDV1A","A39C1BN9ZSQ0R2","3P520RYKCHSO30HY2QJC6BDLS9Z5UE","","513.5","img/land2.png","76","514.5999999046326","3","1","2","2","0.8,0.2,0.2,0.2,0.8,0.2,0.2,0.2,0.8","0.8,0.2,0.2,0.2,0.8,0.2,0.2,0.2,0.8","1","",""
"","html-keyboard-response","177","107213","0.0-177.0","39GAF6DQWSMREH39XVW7OQYB2IDV1A","A39C1BN9ZSQ0R2","3P520RYKCHSO30HY2QJC6BDLS9Z5UE","","null","<img src=""img/land2.png"" style=""width:200px; border:14px solid green;"">","null","","","","","","","","","",""
"","image-keyboard-response","178","107799","0.0-178.0","39GAF6DQWSMREH39XVW7OQYB2IDV1A","A39C1BN9ZSQ0R2","3P520RYKCHSO30HY2QJC6BDLS9Z5UE","","584.7999999523163","img/land2.png","76","586.2000000476837","3","0","2","2","0.8,0.2,0.2,0.2,0.8,0.2,0.2,0.2,0.8","0.8,0.2,0.2,0.2,0.8,0.2,0.2,0.2,0.8","1","",""
"","html-keyboard-response","179","108109","0.0-179.0","39GAF6DQWSMREH39XVW7OQYB2IDV1A","A39C1BN9ZSQ0R2","3P520RYKCHSO30HY2QJC6BDLS9Z5UE","","null","<img src=""img/land2.png"" style=""width:200px;border:14px solid red;"">","null","","","","","","","","","",""
"","image-keyboard-response","180","108616","0.0-180.0","39GAF6DQWSMREH39XVW7OQYB2IDV1A","A39C1BN9ZSQ0R2","3P520RYKCHSO30HY2QJC6BDLS9Z5UE","","504.7000000476837","img/land5.png","74","506.09999990463257","1","1","1","2","0.8,0.2,0.2,0.2,0.8,0.2,0.2,0.2,0.8","0.8,0.2,0.2,0.2,0.8,0.2,0.2,0.2,0.8","1","",""
"","html-keyboard-response","181","108927","0.0-181.0","39GAF6DQWSMREH39XVW7OQYB2IDV1A","A39C1BN9ZSQ0R2","3P520RYKCHSO30HY2QJC6BDLS9Z5UE","","null","<img src=""img/land5.png"" style=""width:200px; border:14px solid green;"">","null","","","","","","","","","",""
"","image-keyboard-response","182","109322","0.0-182.0","39GAF6DQWSMREH39XVW7OQYB2IDV1A","A39C1BN9ZSQ0R2","3P520RYKCHSO30HY2QJC6BDLS9Z5UE","","393.7999999523163","img/land5.png","74","394.7999999523163","1","1","1","2","0.8,0.2,0.2,0.2,0.8,0.2,0.2,0.2,0.8","0.8,0.2,0.2,0.2,0.8,0.2,0.2,0.2,0.8","1","",""
"","html-keyboard-response","183","109629","0.0-183.0","39GAF6DQWSMREH39XVW7OQYB2IDV1A","A39C1BN9ZSQ0R2","3P520RYKCHSO30HY2QJC6BDLS9Z5UE","","null","<img src=""img/land5.png"" style=""width:200px; border:14px solid green;"">","null","","","","","","","","","",""
"","image-keyboard-response","184","109903","0.0-184.0","39GAF6DQWSMREH39XVW7OQYB2IDV1A","A39C1BN9ZSQ0R2","3P520RYKCHSO30HY2QJC6BDLS9Z5UE","","272.10000014305115","img/land5.png","74","273.5","1","1","1","2","0.8,0.2,0.2,0.2,0.8,0.2,0.2,0.2,0.8","0.8,0.2,0.2,0.2,0.8,0.2,0.2,0.2,0.8","1","",""
"","html-keyboard-response","185","110207","0.0-185.0","39GAF6DQWSMREH39XVW7OQYB2IDV1A","A39C1BN9ZSQ0R2","3P520RYKCHSO30HY2QJC6BDLS9Z5UE","","null","<img src=""img/land5.png"" style=""width:200px; border:14px solid green;"">","null","","","","","","","","","",""
"","image-keyboard-response","186","110698","0.0-186.0","39GAF6DQWSMREH39XVW7OQYB2IDV1A","A39C1BN9ZSQ0R2","3P520RYKCHSO30HY2QJC6BDLS9Z5UE","","489.7999999523163","img/land2.png","76","491.19999980926514","3","0","2","2","0.8,0.2,0.2,0.2,0.8,0.2,0.2,0.2,0.8","0.8,0.2,0.2,0.2,0.8,0.2,0.2,0.2,0.8","1","",""
"","html-keyboard-response","187","111002","0.0-187.0","39GAF6DQWSMREH39XVW7OQYB2IDV1A","A39C1BN9ZSQ0R2","3P520RYKCHSO30HY2QJC6BDLS9Z5UE","","null","<img src=""img/land2.png"" style=""width:200px;border:14px solid red;"">","null","","","","","","","","","",""
"","image-keyboard-response","188","111600","0.0-188.0","39GAF6DQWSMREH39XVW7OQYB2IDV1A","A39C1BN9ZSQ0R2","3P520RYKCHSO30HY2QJC6BDLS9Z5UE","","596","img/land5.png","74","597.4000000953674","1","1","1","2","0.8,0.2,0.2,0.2,0.8,0.2,0.2,0.2,0.8","0.8,0.2,0.2,0.2,0.8,0.2,0.2,0.2,0.8","1","",""
"","html-keyboard-response","189","111906","0.0-189.0","39GAF6DQWSMREH39XVW7OQYB2IDV1A","A39C1BN9ZSQ0R2","3P520RYKCHSO30HY2QJC6BDLS9Z5UE","","null","<img src=""img/land5.png"" style=""width:200px; border:14px solid green;"">","null","","","","","","","","","",""
"","image-keyboard-response","190","112230","0.0-190.0","39GAF6DQWSMREH39XVW7OQYB2IDV1A","A39C1BN9ZSQ0R2","3P520RYKCHSO30HY2QJC6BDLS9Z5UE","","322.30000019073486","img/land5.png","74","323.7000000476837","1","1","1","2","0.8,0.2,0.2,0.2,0.8,0.2,0.2,0.2,0.8","0.8,0.2,0.2,0.2,0.8,0.2,0.2,0.2,0.8","1","",""
"","html-keyboard-response","191","112536","0.0-191.0","39GAF6DQWSMREH39XVW7OQYB2IDV1A","A39C1BN9ZSQ0R2","3P520RYKCHSO30HY2QJC6BDLS9Z5UE","","null","<img src=""img/land5.png"" style=""width:200px; border:14px solid green;"">","null","","","","","","","","","",""
"","image-keyboard-response","192","112791","0.0-192.0","39GAF6DQWSMREH39XVW7OQYB2IDV1A","A39C1BN9ZSQ0R2","3P520RYKCHSO30HY2QJC6BDLS9Z5UE","","253.59999990463257","img/land5.png","74","254.70000004768372","1","1","1","2","0.8,0.2,0.2,0.2,0.8,0.2,0.2,0.2,0.8","0.8,0.2,0.2,0.2,0.8,0.2,0.2,0.2,0.8","1","",""
"","html-keyboard-response","193","113098","0.0-193.0","39GAF6DQWSMREH39XVW7OQYB2IDV1A","A39C1BN9ZSQ0R2","3P520RYKCHSO30HY2QJC6BDLS9Z5UE","","null","<img src=""img/land5.png"" style=""width:200px; border:14px solid green;"">","null","","","","","","","","","",""
"","image-keyboard-response","194","113361","0.0-194.0","39GAF6DQWSMREH39XVW7OQYB2IDV1A","A39C1BN9ZSQ0R2","3P520RYKCHSO30HY2QJC6BDLS9Z5UE","","261.69999980926514","img/land5.png","74","263.10000014305115","1","0","1","2","0.8,0.2,0.2,0.2,0.8,0.2,0.2,0.2,0.8","0.8,0.2,0.2,0.2,0.8,0.2,0.2,0.2,0.8","1","",""
"","html-keyboard-response","195","113669","0.0-195.0","39GAF6DQWSMREH39XVW7OQYB2IDV1A","A39C1BN9ZSQ0R2","3P520RYKCHSO30HY2QJC6BDLS9Z5UE","","null","<img src=""img/land5.png"" style=""width:200px;border:14px solid red;"">","null","","","","","","","","","",""
"","image-keyboard-response","196","113987","0.0-196.0","39GAF6DQWSMREH39XVW7OQYB2IDV1A","A39C1BN9ZSQ0R2","3P520RYKCHSO30HY2QJC6BDLS9Z5UE","","316.7999999523163","img/land5.png","75","318.2000000476837","2","1","1","2","0.8,0.2,0.2,0.2,0.8,0.2,0.2,0.2,0.8","0.8,0.2,0.2,0.2,0.8,0.2,0.2,0.2,0.8","1","",""
"","html-keyboard-response","197","114302","0.0-197.0","39GAF6DQWSMREH39XVW7OQYB2IDV1A","A39C1BN9ZSQ0R2","3P520RYKCHSO30HY2QJC6BDLS9Z5UE","","null","<img src=""img/land5.png"" style=""width:200px; border:14px solid green;"">","null","","","","","","","","","",""
"","image-keyboard-response","198","114879","0.0-198.0","39GAF6DQWSMREH39XVW7OQYB2IDV1A","A39C1BN9ZSQ0R2","3P520RYKCHSO30HY2QJC6BDLS9Z5UE","","574.9000000953674","img/land5.png","74","576.5999999046326","1","1","1","2","0.8,0.2,0.2,0.2,0.8,0.2,0.2,0.2,0.8","0.8,0.2,0.2,0.2,0.8,0.2,0.2,0.2,0.8","1","",""
"","html-keyboard-response","199","115184","0.0-199.0","39GAF6DQWSMREH39XVW7OQYB2IDV1A","A39C1BN9ZSQ0R2","3P520RYKCHSO30HY2QJC6BDLS9Z5UE","","null","<img src=""img/land5.png"" style=""width:200px; border:14px solid green;"">","null","","","","","","","","","",""
"","image-keyboard-response","200","116496","0.0-200.0","39GAF6DQWSMREH39XVW7OQYB2IDV1A","A39C1BN9ZSQ0R2","3P520RYKCHSO30HY2QJC6BDLS9Z5UE","","1311","img/land2.png","76","1312.2999999523163","3","0","2","2","0.8,0.2,0.2,0.2,0.8,0.2,0.2,0.2,0.8","0.8,0.2,0.2,0.2,0.8,0.2,0.2,0.2,0.8","1","",""
"","html-keyboard-response","201","116800","0.0-201.0","39GAF6DQWSMREH39XVW7OQYB2IDV1A","A39C1BN9ZSQ0R2","3P520RYKCHSO30HY2QJC6BDLS9Z5UE","","null","<img src=""img/land2.png"" style=""width:200px;border:14px solid red;"">","null","","","","","","","","","",""
"","image-keyboard-response","202","117347","0.0-202.0","39GAF6DQWSMREH39XVW7OQYB2IDV1A","A39C1BN9ZSQ0R2","3P520RYKCHSO30HY2QJC6BDLS9Z5UE","","545.8999998569489","img/land5.png","74","547.1000001430511","1","1","1","2","0.8,0.2,0.2,0.2,0.8,0.2,0.2,0.2,0.8","0.8,0.2,0.2,0.2,0.8,0.2,0.2,0.2,0.8","1","",""
"","html-keyboard-response","203","117652","0.0-203.0","39GAF6DQWSMREH39XVW7OQYB2IDV1A","A39C1BN9ZSQ0R2","3P520RYKCHSO30HY2QJC6BDLS9Z5UE","","null","<img src=""img/land5.png"" style=""width:200px; border:14px solid green;"">","null","","","","","","","","","",""
"","image-keyboard-response","204","118444","0.0-204.0","39GAF6DQWSMREH39XVW7OQYB2IDV1A","A39C1BN9ZSQ0R2","3P520RYKCHSO30HY2QJC6BDLS9Z5UE","","785.0999999046326","img/land2.png","75","791.2999999523163","2","0","2","2","0.8,0.2,0.2,0.2,0.8,0.2,0.2,0.2,0.8","0.8,0.2,0.2,0.2,0.8,0.2,0.2,0.2,0.8","1","",""
"","html-keyboard-response","205","118753","0.0-205.0","39GAF6DQWSMREH39XVW7OQYB2IDV1A","A39C1BN9ZSQ0R2","3P520RYKCHSO30HY2QJC6BDLS9Z5UE","","null","<img src=""img/land2.png"" style=""width:200px;border:14px solid red;"">","null","","","","","","","","","",""
"","image-keyboard-response","206","119409","0.0-206.0","39GAF6DQWSMREH39XVW7OQYB2IDV1A","A39C1BN9ZSQ0R2","3P520RYKCHSO30HY2QJC6BDLS9Z5UE","","659.3999998569489","img/land2.png","76","660.7999999523163","3","0","2","2","0.8,0.2,0.2,0.2,0.8,0.2,0.2,0.2,0.8","0.8,0.2,0.2,0.2,0.8,0.2,0.2,0.2,0.8","1","",""
"","html-keyboard-response","207","119717","0.0-207.0","39GAF6DQWSMREH39XVW7OQYB2IDV1A","A39C1BN9ZSQ0R2","3P520RYKCHSO30HY2QJC6BDLS9Z5UE","","null","<img src=""img/land2.png"" style=""width:200px;border:14px solid red;"">","null","","","","","","","","","",""
"","image-keyboard-response","208","120174","0.0-208.0","39GAF6DQWSMREH39XVW7OQYB2IDV1A","A39C1BN9ZSQ0R2","3P520RYKCHSO30HY2QJC6BDLS9Z5UE","","455.59999990463257","img/land2.png","76","457.2000000476837","3","0","2","2","0.8,0.2,0.2,0.2,0.8,0.2,0.2,0.2,0.8","0.8,0.2,0.2,0.2,0.8,0.2,0.2,0.2,0.8","1","",""
"","html-keyboard-response","209","120477","0.0-209.0","39GAF6DQWSMREH39XVW7OQYB2IDV1A","A39C1BN9ZSQ0R2","3P520RYKCHSO30HY2QJC6BDLS9Z5UE","","null","<img src=""img/land2.png"" style=""width:200px;border:14px solid red;"">","null","","","","","","","","","",""
"","image-keyboard-response","210","121471","0.0-210.0","39GAF6DQWSMREH39XVW7OQYB2IDV1A","A39C1BN9ZSQ0R2","3P520RYKCHSO30HY2QJC6BDLS9Z5UE","","992.9000000953674","img/land4.png","76","994.0999999046326","3","1","3","2","0.8,0.2,0.2,0.2,0.8,0.2,0.2,0.2,0.8","0.8,0.2,0.2,0.2,0.8,0.2,0.2,0.2,0.8","1","",""
"","html-keyboard-response","211","121781","0.0-211.0","39GAF6DQWSMREH39XVW7OQYB2IDV1A","A39C1BN9ZSQ0R2","3P520RYKCHSO30HY2QJC6BDLS9Z5UE","","null","<img src=""img/land4.png"" style=""width:200px; border:14px solid green;"">","null","","","","","","","","","",""
"","image-keyboard-response","212","122308","0.0-212.0","39GAF6DQWSMREH39XVW7OQYB2IDV1A","A39C1BN9ZSQ0R2","3P520RYKCHSO30HY2QJC6BDLS9Z5UE","","525.5","img/land5.png","74","527","1","1","1","2","0.8,0.2,0.2,0.2,0.8,0.2,0.2,0.2,0.8","0.8,0.2,0.2,0.2,0.8,0.2,0.2,0.2,0.8","1","",""
"","html-keyboard-response","213","122616","0.0-213.0","39GAF6DQWSMREH39XVW7OQYB2IDV1A","A39C1BN9ZSQ0R2","3P520RYKCHSO30HY2QJC6BDLS9Z5UE","","null","<img src=""img/land5.png"" style=""width:200px; border:14px solid green;"">","null","","","","","","","","","",""
"","image-keyboard-response","214","123019","0.0-214.0","39GAF6DQWSMREH39XVW7OQYB2IDV1A","A39C1BN9ZSQ0R2","3P520RYKCHSO30HY2QJC6BDLS9Z5UE","","401.40000009536743","img/land5.png","74","402.5","1","1","1","2","0.8,0.2,0.2,0.2,0.8,0.2,0.2,0.2,0.8","0.8,0.2,0.2,0.2,0.8,0.2,0.2,0.2,0.8","1","",""
"","html-keyboard-response","215","123327","0.0-215.0","39GAF6DQWSMREH39XVW7OQYB2IDV1A","A39C1BN9ZSQ0R2","3P520RYKCHSO30HY2QJC6BDLS9Z5UE","","null","<img src=""img/land5.png"" style=""width:200px; border:14px solid green;"">","null","","","","","","","","","",""
"","image-keyboard-response","216","124652","0.0-216.0","39GAF6DQWSMREH39XVW7OQYB2IDV1A","A39C1BN9ZSQ0R2","3P520RYKCHSO30HY2QJC6BDLS9Z5UE","","1323.1000001430511","img/land2.png","76","1324.5","3","0","2","2","0.8,0.2,0.2,0.2,0.8,0.2,0.2,0.2,0.8","0.8,0.2,0.2,0.2,0.8,0.2,0.2,0.2,0.8","1","",""
"","html-keyboard-response","217","124961","0.0-217.0","39GAF6DQWSMREH39XVW7OQYB2IDV1A","A39C1BN9ZSQ0R2","3P520RYKCHSO30HY2QJC6BDLS9Z5UE","","null","<img src=""img/land2.png"" style=""width:200px;border:14px solid red;"">","null","","","","","","","","","",""
"","image-keyboard-response","218","125432","0.0-218.0","39GAF6DQWSMREH39XVW7OQYB2IDV1A","A39C1BN9ZSQ0R2","3P520RYKCHSO30HY2QJC6BDLS9Z5UE","","469.2999999523163","img/land5.png","74","471.2000000476837","1","1","1","2","0.8,0.2,0.2,0.2,0.8,0.2,0.2,0.2,0.8","0.8,0.2,0.2,0.2,0.8,0.2,0.2,0.2,0.8","1","",""
"","html-keyboard-response","219","125745","0.0-219.0","39GAF6DQWSMREH39XVW7OQYB2IDV1A","A39C1BN9ZSQ0R2","3P520RYKCHSO30HY2QJC6BDLS9Z5UE","","null","<img src=""img/land5.png"" style=""width:200px; border:14px solid green;"">","null","","","","","","","","","",""
"","image-keyboard-response","220","126729","0.0-220.0","39GAF6DQWSMREH39XVW7OQYB2IDV1A","A39C1BN9ZSQ0R2","3P520RYKCHSO30HY2QJC6BDLS9Z5UE","","981.8000001907349","img/land4.png","76","983.8999998569489","3","1","3","2","0.8,0.2,0.2,0.2,0.8,0.2,0.2,0.2,0.8","0.8,0.2,0.2,0.2,0.8,0.2,0.2,0.2,0.8","1","",""
"","html-keyboard-response","221","127037","0.0-221.0","39GAF6DQWSMREH39XVW7OQYB2IDV1A","A39C1BN9ZSQ0R2","3P520RYKCHSO30HY2QJC6BDLS9Z5UE","","null","<img src=""img/land4.png"" style=""width:200px; border:14px solid green;"">","null","","","","","","","","","",""
"","image-keyboard-response","222","127616","0.0-222.0","39GAF6DQWSMREH39XVW7OQYB2IDV1A","A39C1BN9ZSQ0R2","3P520RYKCHSO30HY2QJC6BDLS9Z5UE","","576.5","img/land5.png","74","578.2999999523163","1","0","1","2","0.8,0.2,0.2,0.2,0.8,0.2,0.2,0.2,0.8","0.8,0.2,0.2,0.2,0.8,0.2,0.2,0.2,0.8","1","",""
"","html-keyboard-response","223","127928","0.0-223.0","39GAF6DQWSMREH39XVW7OQYB2IDV1A","A39C1BN9ZSQ0R2","3P520RYKCHSO30HY2QJC6BDLS9Z5UE","","null","<img src=""img/land5.png"" style=""width:200px;border:14px solid red;"">","null","","","","","","","","","",""
"","image-keyboard-response","224","128270","0.0-224.0","39GAF6DQWSMREH39XVW7OQYB2IDV1A","A39C1BN9ZSQ0R2","3P520RYKCHSO30HY2QJC6BDLS9Z5UE","","341.60000014305115","img/land5.png","74","342.5","1","1","1","2","0.8,0.2,0.2,0.2,0.8,0.2,0.2,0.2,0.8","0.8,0.2,0.2,0.2,0.8,0.2,0.2,0.2,0.8","1","",""
"","html-keyboard-response","225","128574","0.0-225.0","39GAF6DQWSMREH39XVW7OQYB2IDV1A","A39C1BN9ZSQ0R2","3P520RYKCHSO30HY2QJC6BDLS9Z5UE","","null","<img src=""img/land5.png"" style=""width:200px; border:14px solid green;"">","null","","","","","","","","","",""
"","image-keyboard-response","226","128882","0.0-226.0","39GAF6DQWSMREH39XVW7OQYB2IDV1A","A39C1BN9ZSQ0R2","3P520RYKCHSO30HY2QJC6BDLS9Z5UE","","306.09999990463257","img/land5.png","74","307.59999990463257","1","1","1","2","0.8,0.2,0.2,0.2,0.8,0.2,0.2,0.2,0.8","0.8,0.2,0.2,0.2,0.8,0.2,0.2,0.2,0.8","1","",""
"","html-keyboard-response","227","129189","0.0-227.0","39GAF6DQWSMREH39XVW7OQYB2IDV1A","A39C1BN9ZSQ0R2","3P520RYKCHSO30HY2QJC6BDLS9Z5UE","","null","<img src=""img/land5.png"" style=""width:200px; border:14px solid green;"">","null","","","","","","","","","",""
"","image-keyboard-response","228","129433","0.0-228.0","39GAF6DQWSMREH39XVW7OQYB2IDV1A","A39C1BN9ZSQ0R2","3P520RYKCHSO30HY2QJC6BDLS9Z5UE","","242.79999995231628","img/land5.png","74","244","1","0","1","2","0.8,0.2,0.2,0.2,0.8,0.2,0.2,0.2,0.8","0.8,0.2,0.2,0.2,0.8,0.2,0.2,0.2,0.8","1","",""
"","html-keyboard-response","229","129739","0.0-229.0","39GAF6DQWSMREH39XVW7OQYB2IDV1A","A39C1BN9ZSQ0R2","3P520RYKCHSO30HY2QJC6BDLS9Z5UE","","null","<img src=""img/land5.png"" style=""width:200px;border:14px solid red;"">","null","","","","","","","","","",""
"","image-keyboard-response","230","130042","0.0-230.0","39GAF6DQWSMREH39XVW7OQYB2IDV1A","A39C1BN9ZSQ0R2","3P520RYKCHSO30HY2QJC6BDLS9Z5UE","","301.7000000476837","img/land5.png","74","303.09999990463257","1","1","1","2","0.8,0.2,0.2,0.2,0.8,0.2,0.2,0.2,0.8","0.8,0.2,0.2,0.2,0.8,0.2,0.2,0.2,0.8","1","",""
"","html-keyboard-response","231","130348","0.0-231.0","39GAF6DQWSMREH39XVW7OQYB2IDV1A","A39C1BN9ZSQ0R2","3P520RYKCHSO30HY2QJC6BDLS9Z5UE","","null","<img src=""img/land5.png"" style=""width:200px; border:14px solid green;"">","null","","","","","","","","","",""
"","image-keyboard-response","232","131230","0.0-232.0","39GAF6DQWSMREH39XVW7OQYB2IDV1A","A39C1BN9ZSQ0R2","3P520RYKCHSO30HY2QJC6BDLS9Z5UE","","880.7999999523163","img/land2.png","76","881.7999999523163","3","0","2","2","0.8,0.2,0.2,0.2,0.8,0.2,0.2,0.2,0.8","0.8,0.2,0.2,0.2,0.8,0.2,0.2,0.2,0.8","1","",""
"","html-keyboard-response","233","131545","0.0-233.0","39GAF6DQWSMREH39XVW7OQYB2IDV1A","A39C1BN9ZSQ0R2","3P520RYKCHSO30HY2QJC6BDLS9Z5UE","","null","<img src=""img/land2.png"" style=""width:200px;border:14px solid red;"">","null","","","","","","","","","",""
"","image-keyboard-response","234","131965","0.0-234.0","39GAF6DQWSMREH39XVW7OQYB2IDV1A","A39C1BN9ZSQ0R2","3P520RYKCHSO30HY2QJC6BDLS9Z5UE","","418","img/land5.png","74","419.09999990463257","1","1","1","2","0.8,0.2,0.2,0.2,0.8,0.2,0.2,0.2,0.8","0.8,0.2,0.2,0.2,0.8,0.2,0.2,0.2,0.8","1","",""
"","html-keyboard-response","235","132277","0.0-235.0","39GAF6DQWSMREH39XVW7OQYB2IDV1A","A39C1BN9ZSQ0R2","3P520RYKCHSO30HY2QJC6BDLS9Z5UE","","null","<img src=""img/land5.png"" style=""width:200px; border:14px solid green;"">","null","","","","","","","","","",""
"","image-keyboard-response","236","132563","0.0-236.0","39GAF6DQWSMREH39XVW7OQYB2IDV1A","A39C1BN9ZSQ0R2","3P520RYKCHSO30HY2QJC6BDLS9Z5UE","","284.09999990463257","img/land5.png","74","285.40000009536743","1","1","1","2","0.8,0.2,0.2,0.2,0.8,0.2,0.2,0.2,0.8","0.8,0.2,0.2,0.2,0.8,0.2,0.2,0.2,0.8","1","",""
"","html-keyboard-response","237","132871","0.0-237.0","39GAF6DQWSMREH39XVW7OQYB2IDV1A","A39C1BN9ZSQ0R2","3P520RYKCHSO30HY2QJC6BDLS9Z5UE","","null","<img src=""img/land5.png"" style=""width:200px; border:14px solid green;"">","null","","","","","","","","","",""
"","image-keyboard-response","238","133737","0.0-238.0","39GAF6DQWSMREH39XVW7OQYB2IDV1A","A39C1BN9ZSQ0R2","3P520RYKCHSO30HY2QJC6BDLS9Z5UE","","864.8000001907349","img/land4.png","75","866","2","1","3","2","0.8,0.2,0.2,0.2,0.8,0.2,0.2,0.2,0.8","0.8,0.2,0.2,0.2,0.8,0.2,0.2,0.2,0.8","1","",""
"","html-keyboard-response","239","134051","0.0-239.0","39GAF6DQWSMREH39XVW7OQYB2IDV1A","A39C1BN9ZSQ0R2","3P520RYKCHSO30HY2QJC6BDLS9Z5UE","","null","<img src=""img/land4.png"" style=""width:200px; border:14px solid green;"">","null","","","","","","","","","",""
"","image-keyboard-response","240","134489","0.0-240.0","39GAF6DQWSMREH39XVW7OQYB2IDV1A","A39C1BN9ZSQ0R2","3P520RYKCHSO30HY2QJC6BDLS9Z5UE","","436.39999985694885","img/land5.png","74","437.7999999523163","1","1","1","2","0.8,0.2,0.2,0.2,0.8,0.2,0.2,0.2,0.8","0.8,0.2,0.2,0.2,0.8,0.2,0.2,0.2,0.8","1","",""
"","html-keyboard-response","241","134791","0.0-241.0","39GAF6DQWSMREH39XVW7OQYB2IDV1A","A39C1BN9ZSQ0R2","3P520RYKCHSO30HY2QJC6BDLS9Z5UE","","null","<img src=""img/land5.png"" style=""width:200px; border:14px solid green;"">","null","","","","","","","","","",""
"","image-keyboard-response","242","135065","0.0-242.0","39GAF6DQWSMREH39XVW7OQYB2IDV1A","A39C1BN9ZSQ0R2","3P520RYKCHSO30HY2QJC6BDLS9Z5UE","","270.90000009536743","img/land5.png","74","273","1","1","1","2","0.8,0.2,0.2,0.2,0.8,0.2,0.2,0.2,0.8","0.8,0.2,0.2,0.2,0.8,0.2,0.2,0.2,0.8","1","",""
"","html-keyboard-response","243","135367","0.0-243.0","39GAF6DQWSMREH39XVW7OQYB2IDV1A","A39C1BN9ZSQ0R2","3P520RYKCHSO30HY2QJC6BDLS9Z5UE","","null","<img src=""img/land5.png"" style=""width:200px; border:14px solid green;"">","null","","","","","","","","","",""
"","image-keyboard-response","244","136357","0.0-244.0","39GAF6DQWSMREH39XVW7OQYB2IDV1A","A39C1BN9ZSQ0R2","3P520RYKCHSO30HY2QJC6BDLS9Z5UE","","988.4000000953674","img/land2.png","76","989.7999999523163","3","0","2","2","0.8,0.2,0.2,0.2,0.8,0.2,0.2,0.2,0.8","0.8,0.2,0.2,0.2,0.8,0.2,0.2,0.2,0.8","1","",""
"","html-keyboard-response","245","136660","0.0-245.0","39GAF6DQWSMREH39XVW7OQYB2IDV1A","A39C1BN9ZSQ0R2","3P520RYKCHSO30HY2QJC6BDLS9Z5UE","","null","<img src=""img/land2.png"" style=""width:200px;border:14px solid red;"">","null","","","","","","","","","",""
"","image-keyboard-response","246","137639","0.0-246.0","39GAF6DQWSMREH39XVW7OQYB2IDV1A","A39C1BN9ZSQ0R2","3P520RYKCHSO30HY2QJC6BDLS9Z5UE","","977.7999999523163","img/land4.png","75","979.2000000476837","2","0","3","2","0.8,0.2,0.2,0.2,0.8,0.2,0.2,0.2,0.8","0.8,0.2,0.2,0.2,0.8,0.2,0.2,0.2,0.8","1","",""
"","html-keyboard-response","247","137945","0.0-247.0","39GAF6DQWSMREH39XVW7OQYB2IDV1A","A39C1BN9ZSQ0R2","3P520RYKCHSO30HY2QJC6BDLS9Z5UE","","null","<img src=""img/land4.png"" style=""width:200px;border:14px solid red;"">","null","","","","","","","","","",""
"","image-keyboard-response","248","138941","0.0-248.0","39GAF6DQWSMREH39XVW7OQYB2IDV1A","A39C1BN9ZSQ0R2","3P520RYKCHSO30HY2QJC6BDLS9Z5UE","","994.0999999046326","img/land5.png","74","995.5","1","1","1","2","0.8,0.2,0.2,0.2,0.8,0.2,0.2,0.2,0.8","0.8,0.2,0.2,0.2,0.8,0.2,0.2,0.2,0.8","1","",""
"","html-keyboard-response","249","139243","0.0-249.0","39GAF6DQWSMREH39XVW7OQYB2IDV1A","A39C1BN9ZSQ0R2","3P520RYKCHSO30HY2QJC6BDLS9Z5UE","","null","<img src=""img/land5.png"" style=""width:200px; border:14px solid green;"">","null","","","","","","","","","",""
"","image-keyboard-response","250","140196","0.0-250.0","39GAF6DQWSMREH39XVW7OQYB2IDV1A","A39C1BN9ZSQ0R2","3P520RYKCHSO30HY2QJC6BDLS9Z5UE","","951.7000000476837","img/land5.png","74","953","1","1","1","2","0.8,0.2,0.2,0.2,0.8,0.2,0.2,0.2,0.8","0.8,0.2,0.2,0.2,0.8,0.2,0.2,0.2,0.8","1","",""
"","html-keyboard-response","251","140499","0.0-251.0","39GAF6DQWSMREH39XVW7OQYB2IDV1A","A39C1BN9ZSQ0R2","3P520RYKCHSO30HY2QJC6BDLS9Z5UE","","null","<img src=""img/land5.png"" style=""width:200px; border:14px solid green;"">","null","","","","","","","","","",""
"","image-keyboard-response","252","140823","0.0-252.0","39GAF6DQWSMREH39XVW7OQYB2IDV1A","A39C1BN9ZSQ0R2","3P520RYKCHSO30HY2QJC6BDLS9Z5UE","","322.40000009536743","img/land5.png","74","323.7000000476837","1","1","1","2","0.8,0.2,0.2,0.2,0.8,0.2,0.2,0.2,0.8","0.8,0.2,0.2,0.2,0.8,0.2,0.2,0.2,0.8","1","",""
"","html-keyboard-response","253","141134","0.0-253.0","39GAF6DQWSMREH39XVW7OQYB2IDV1A","A39C1BN9ZSQ0R2","3P520RYKCHSO30HY2QJC6BDLS9Z5UE","","null","<img src=""img/land5.png"" style=""width:200px; border:14px solid green;"">","null","","","","","","","","","",""
"","image-keyboard-response","254","142112","0.0-254.0","39GAF6DQWSMREH39XVW7OQYB2IDV1A","A39C1BN9ZSQ0R2","3P520RYKCHSO30HY2QJC6BDLS9Z5UE","","975.7999999523163","img/land2.png","75","977.1000001430511","2","1","2","2","0.8,0.2,0.2,0.2,0.8,0.2,0.2,0.2,0.8","0.8,0.2,0.2,0.2,0.8,0.2,0.2,0.2,0.8","1","",""
"","html-keyboard-response","255","142421","0.0-255.0","39GAF6DQWSMREH39XVW7OQYB2IDV1A","A39C1BN9ZSQ0R2","3P520RYKCHSO30HY2QJC6BDLS9Z5UE","","null","<img src=""img/land2.png"" style=""width:200px; border:14px solid green;"">","null","","","","","","","","","",""
"","image-keyboard-response","256","142996","0.0-256.0","39GAF6DQWSMREH39XVW7OQYB2IDV1A","A39C1BN9ZSQ0R2","3P520RYKCHSO30HY2QJC6BDLS9Z5UE","","573.1999998092651","img/land5.png","74","574.5999999046326","1","1","1","2","0.8,0.2,0.2,0.2,0.8,0.2,0.2,0.2,0.8","0.8,0.2,0.2,0.2,0.8,0.2,0.2,0.2,0.8","1","",""
"","html-keyboard-response","257","143300","0.0-257.0","39GAF6DQWSMREH39XVW7OQYB2IDV1A","A39C1BN9ZSQ0R2","3P520RYKCHSO30HY2QJC6BDLS9Z5UE","","null","<img src=""img/land5.png"" style=""width:200px; border:14px solid green;"">","null","","","","","","","","","",""
"","image-keyboard-response","258","144168","0.0-258.0","39GAF6DQWSMREH39XVW7OQYB2IDV1A","A39C1BN9ZSQ0R2","3P520RYKCHSO30HY2QJC6BDLS9Z5UE","","865.5","img/land2.png","75","867.1000001430511","2","1","2","2","0.8,0.2,0.2,0.2,0.8,0.2,0.2,0.2,0.8","0.8,0.2,0.2,0.2,0.8,0.2,0.2,0.2,0.8","1","",""
"","html-keyboard-response","259","144478","0.0-259.0","39GAF6DQWSMREH39XVW7OQYB2IDV1A","A39C1BN9ZSQ0R2","3P520RYKCHSO30HY2QJC6BDLS9Z5UE","","null","<img src=""img/land2.png"" style=""width:200px; border:14px solid green;"">","null","","","","","","","","","",""
"","image-keyboard-response","260","145699","0.0-260.0","39GAF6DQWSMREH39XVW7OQYB2IDV1A","A39C1BN9ZSQ0R2","3P520RYKCHSO30HY2QJC6BDLS9Z5UE","","1219.7999999523163","img/land4.png","76","1221.0999999046326","3","1","3","2","0.8,0.2,0.2,0.2,0.8,0.2,0.2,0.2,0.8","0.8,0.2,0.2,0.2,0.8,0.2,0.2,0.2,0.8","1","",""
"","html-keyboard-response","261","146006","0.0-261.0","39GAF6DQWSMREH39XVW7OQYB2IDV1A","A39C1BN9ZSQ0R2","3P520RYKCHSO30HY2QJC6BDLS9Z5UE","","null","<img src=""img/land4.png"" style=""width:200px; border:14px solid green;"">","null","","","","","","","","","",""
"","image-keyboard-response","262","147117","0.0-262.0","39GAF6DQWSMREH39XVW7OQYB2IDV1A","A39C1BN9ZSQ0R2","3P520RYKCHSO30HY2QJC6BDLS9Z5UE","","1109.6000001430511","img/land5.png","74","1111.1000001430511","1","1","1","2","0.8,0.2,0.2,0.2,0.8,0.2,0.2,0.2,0.8","0.8,0.2,0.2,0.2,0.8,0.2,0.2,0.2,0.8","1","",""
"","html-keyboard-response","263","147432","0.0-263.0","39GAF6DQWSMREH39XVW7OQYB2IDV1A","A39C1BN9ZSQ0R2","3P520RYKCHSO30HY2QJC6BDLS9Z5UE","","null","<img src=""img/land5.png"" style=""width:200px; border:14px solid green;"">","null","","","","","","","","","",""
"","image-keyboard-response","264","148218","0.0-264.0","39GAF6DQWSMREH39XVW7OQYB2IDV1A","A39C1BN9ZSQ0R2","3P520RYKCHSO30HY2QJC6BDLS9Z5UE","","784.2000000476837","img/land4.png","75","785.2999999523163","2","0","3","2","0.8,0.2,0.2,0.2,0.8,0.2,0.2,0.2,0.8","0.8,0.2,0.2,0.2,0.8,0.2,0.2,0.2,0.8","1","",""
"","html-keyboard-response","265","148526","0.0-265.0","39GAF6DQWSMREH39XVW7OQYB2IDV1A","A39C1BN9ZSQ0R2","3P520RYKCHSO30HY2QJC6BDLS9Z5UE","","null","<img src=""img/land4.png"" style=""width:200px;border:14px solid red;"">","null","","","","","","","","","",""
"","image-keyboard-response","266","149130","0.0-266.0","39GAF6DQWSMREH39XVW7OQYB2IDV1A","A39C1BN9ZSQ0R2","3P520RYKCHSO30HY2QJC6BDLS9Z5UE","","602.0999999046326","img/land5.png","74","603.4000000953674","1","1","1","2","0.8,0.2,0.2,0.2,0.8,0.2,0.2,0.2,0.8","0.8,0.2,0.2,0.2,0.8,0.2,0.2,0.2,0.8","1","",""
"","html-keyboard-response","267","149433","0.0-267.0","39GAF6DQWSMREH39XVW7OQYB2IDV1A","A39C1BN9ZSQ0R2","3P520RYKCHSO30HY2QJC6BDLS9Z5UE","","null","<img src=""img/land5.png"" style=""width:200px; border:14px solid green;"">","null","","","","","","","","","",""
"","image-keyboard-response","268","149880","0.0-268.0","39GAF6DQWSMREH39XVW7OQYB2IDV1A","A39C1BN9ZSQ0R2","3P520RYKCHSO30HY2QJC6BDLS9Z5UE","","446.2000000476837","img/land5.png","74","447.2000000476837","1","1","1","2","0.8,0.2,0.2,0.2,0.8,0.2,0.2,0.2,0.8","0.8,0.2,0.2,0.2,0.8,0.2,0.2,0.2,0.8","1","",""
"","html-keyboard-response","269","150196","0.0-269.0","39GAF6DQWSMREH39XVW7OQYB2IDV1A","A39C1BN9ZSQ0R2","3P520RYKCHSO30HY2QJC6BDLS9Z5UE","","null","<img src=""img/land5.png"" style=""width:200px; border:14px solid green;"">","null","","","","","","","","","",""
"","image-keyboard-response","270","151484","0.0-270.0","39GAF6DQWSMREH39XVW7OQYB2IDV1A","A39C1BN9ZSQ0R2","3P520RYKCHSO30HY2QJC6BDLS9Z5UE","","1286.0999999046326","img/land5.png","74","1287.4000000953674","1","1","1","2","0.8,0.2,0.2,0.2,0.8,0.2,0.2,0.2,0.8","0.8,0.2,0.2,0.2,0.8,0.2,0.2,0.2,0.8","1","",""
"","html-keyboard-response","271","151792","0.0-271.0","39GAF6DQWSMREH39XVW7OQYB2IDV1A","A39C1BN9ZSQ0R2","3P520RYKCHSO30HY2QJC6BDLS9Z5UE","","null","<img src=""img/land5.png"" style=""width:200px; border:14px solid green;"">","null","","","","","","","","","",""
"","image-keyboard-response","272","152725","0.0-272.0","39GAF6DQWSMREH39XVW7OQYB2IDV1A","A39C1BN9ZSQ0R2","3P520RYKCHSO30HY2QJC6BDLS9Z5UE","","931.7999999523163","img/land5.png","74","933.1000001430511","1","0","1","2","0.8,0.2,0.2,0.2,0.8,0.2,0.2,0.2,0.8","0.8,0.2,0.2,0.2,0.8,0.2,0.2,0.2,0.8","1","",""
"","html-keyboard-response","273","153034","0.0-273.0","39GAF6DQWSMREH39XVW7OQYB2IDV1A","A39C1BN9ZSQ0R2","3P520RYKCHSO30HY2QJC6BDLS9Z5UE","","null","<img src=""img/land5.png"" style=""width:200px;border:14px solid red;"">","null","","","","","","","","","",""
"","image-keyboard-response","274","153465","0.0-274.0","39GAF6DQWSMREH39XVW7OQYB2IDV1A","A39C1BN9ZSQ0R2","3P520RYKCHSO30HY2QJC6BDLS9Z5UE","","429.7999999523163","img/land5.png","74","431.19999980926514","1","1","1","2","0.8,0.2,0.2,0.2,0.8,0.2,0.2,0.2,0.8","0.8,0.2,0.2,0.2,0.8,0.2,0.2,0.2,0.8","1","",""
"","html-keyboard-response","275","153781","0.0-275.0","39GAF6DQWSMREH39XVW7OQYB2IDV1A","A39C1BN9ZSQ0R2","3P520RYKCHSO30HY2QJC6BDLS9Z5UE","","null","<img src=""img/land5.png"" style=""width:200px; border:14px solid green;"">","null","","","","","","","","","",""
"","image-keyboard-response","276","154026","0.0-276.0","39GAF6DQWSMREH39XVW7OQYB2IDV1A","A39C1BN9ZSQ0R2","3P520RYKCHSO30HY2QJC6BDLS9Z5UE","","243.39999985694885","img/land2.png","74","244.59999990463257","1","1","2","2","0.8,0.2,0.2,0.2,0.8,0.2,0.2,0.2,0.8","0.8,0.2,0.2,0.2,0.8,0.2,0.2,0.2,0.8","1","",""
"","html-keyboard-response","277","154330","0.0-277.0","39GAF6DQWSMREH39XVW7OQYB2IDV1A","A39C1BN9ZSQ0R2","3P520RYKCHSO30HY2QJC6BDLS9Z5UE","","null","<img src=""img/land2.png"" style=""width:200px; border:14px solid green;"">","null","","","","","","","","","",""
"","image-keyboard-response","278","155173","0.0-278.0","39GAF6DQWSMREH39XVW7OQYB2IDV1A","A39C1BN9ZSQ0R2","3P520RYKCHSO30HY2QJC6BDLS9Z5UE","","842.0999999046326","img/land5.png","74","843.5","1","1","1","2","0.8,0.2,0.2,0.2,0.8,0.2,0.2,0.2,0.8","0.8,0.2,0.2,0.2,0.8,0.2,0.2,0.2,0.8","1","",""
"","html-keyboard-response","279","155484","0.0-279.0","39GAF6DQWSMREH39XVW7OQYB2IDV1A","A39C1BN9ZSQ0R2","3P520RYKCHSO30HY2QJC6BDLS9Z5UE","","null","<img src=""img/land5.png"" style=""width:200px; border:14px solid green;"">","null","","","","","","","","","",""
"","image-keyboard-response","280","155834","0.0-280.0","39GAF6DQWSMREH39XVW7OQYB2IDV1A","A39C1BN9ZSQ0R2","3P520RYKCHSO30HY2QJC6BDLS9Z5UE","","347.2000000476837","img/land5.png","74","349.10000014305115","1","0","1","2","0.8,0.2,0.2,0.2,0.8,0.2,0.2,0.2,0.8","0.8,0.2,0.2,0.2,0.8,0.2,0.2,0.2,0.8","1","",""
"","html-keyboard-response","281","156138","0.0-281.0","39GAF6DQWSMREH39XVW7OQYB2IDV1A","A39C1BN9ZSQ0R2","3P520RYKCHSO30HY2QJC6BDLS9Z5UE","","null","<img src=""img/land5.png"" style=""width:200px;border:14px solid red;"">","null","","","","","","","","","",""
"","image-keyboard-response","282","156600","0.0-282.0","39GAF6DQWSMREH39XVW7OQYB2IDV1A","A39C1BN9ZSQ0R2","3P520RYKCHSO30HY2QJC6BDLS9Z5UE","","460.7000000476837","img/land2.png","74","462","1","1","2","2","0.8,0.2,0.2,0.2,0.8,0.2,0.2,0.2,0.8","0.8,0.2,0.2,0.2,0.8,0.2,0.2,0.2,0.8","1","",""
"","html-keyboard-response","283","156904","0.0-283.0","39GAF6DQWSMREH39XVW7OQYB2IDV1A","A39C1BN9ZSQ0R2","3P520RYKCHSO30HY2QJC6BDLS9Z5UE","","null","<img src=""img/land2.png"" style=""width:200px; border:14px solid green;"">","null","","","","","","","","","",""
"","image-keyboard-response","284","157316","0.0-284.0","39GAF6DQWSMREH39XVW7OQYB2IDV1A","A39C1BN9ZSQ0R2","3P520RYKCHSO30HY2QJC6BDLS9Z5UE","","409.5","img/land5.png","74","410.7000000476837","1","0","1","2","0.8,0.2,0.2,0.2,0.8,0.2,0.2,0.2,0.8","0.8,0.2,0.2,0.2,0.8,0.2,0.2,0.2,0.8","1","",""
"","html-keyboard-response","285","157624","0.0-285.0","39GAF6DQWSMREH39XVW7OQYB2IDV1A","A39C1BN9ZSQ0R2","3P520RYKCHSO30HY2QJC6BDLS9Z5UE","","null","<img src=""img/land5.png"" style=""width:200px;border:14px solid red;"">","null","","","","","","","","","",""
"","image-keyboard-response","286","157886","0.0-286.0","39GAF6DQWSMREH39XVW7OQYB2IDV1A","A39C1BN9ZSQ0R2","3P520RYKCHSO30HY2QJC6BDLS9Z5UE","","260.09999990463257","img/land5.png","74","261.40000009536743","1","1","1","2","0.8,0.2,0.2,0.2,0.8,0.2,0.2,0.2,0.8","0.8,0.2,0.2,0.2,0.8,0.2,0.2,0.2,0.8","1","",""
"","html-keyboard-response","287","158195","0.0-287.0","39GAF6DQWSMREH39XVW7OQYB2IDV1A","A39C1BN9ZSQ0R2","3P520RYKCHSO30HY2QJC6BDLS9Z5UE","","null","<img src=""img/land5.png"" style=""width:200px; border:14px solid green;"">","null","","","","","","","","","",""
"","image-keyboard-response","288","158477","0.0-288.0","39GAF6DQWSMREH39XVW7OQYB2IDV1A","A39C1BN9ZSQ0R2","3P520RYKCHSO30HY2QJC6BDLS9Z5UE","","279.59999990463257","img/land4.png","74","280.90000009536743","1","0","3","2","0.8,0.2,0.2,0.2,0.8,0.2,0.2,0.2,0.8","0.8,0.2,0.2,0.2,0.8,0.2,0.2,0.2,0.8","1","",""
"","html-keyboard-response","289","158782","0.0-289.0","39GAF6DQWSMREH39XVW7OQYB2IDV1A","A39C1BN9ZSQ0R2","3P520RYKCHSO30HY2QJC6BDLS9Z5UE","","null","<img src=""img/land4.png"" style=""width:200px;border:14px solid red;"">","null","","","","","","","","","",""
"","image-keyboard-response","290","159258","0.0-290.0","39GAF6DQWSMREH39XVW7OQYB2IDV1A","A39C1BN9ZSQ0R2","3P520RYKCHSO30HY2QJC6BDLS9Z5UE","","474.59999990463257","img/land5.png","74","476","1","1","1","2","0.8,0.2,0.2,0.2,0.8,0.2,0.2,0.2,0.8","0.8,0.2,0.2,0.2,0.8,0.2,0.2,0.2,0.8","1","",""
"","html-keyboard-response","291","159575","0.0-291.0","39GAF6DQWSMREH39XVW7OQYB2IDV1A","A39C1BN9ZSQ0R2","3P520RYKCHSO30HY2QJC6BDLS9Z5UE","","null","<img src=""img/land5.png"" style=""width:200px; border:14px solid green;"">","null","","","","","","","","","",""
"","image-keyboard-response","292","159934","0.0-292.0","39GAF6DQWSMREH39XVW7OQYB2IDV1A","A39C1BN9ZSQ0R2","3P520RYKCHSO30HY2QJC6BDLS9Z5UE","","357.09999990463257","img/land5.png","74","358.5","1","1","1","2","0.8,0.2,0.2,0.2,0.8,0.2,0.2,0.2,0.8","0.8,0.2,0.2,0.2,0.8,0.2,0.2,0.2,0.8","1","",""
"","html-keyboard-response","293","160237","0.0-293.0","39GAF6DQWSMREH39XVW7OQYB2IDV1A","A39C1BN9ZSQ0R2","3P520RYKCHSO30HY2QJC6BDLS9Z5UE","","null","<img src=""img/land5.png"" style=""width:200px; border:14px solid green;"">","null","","","","","","","","","",""
"","image-keyboard-response","294","160735","0.0-294.0","39GAF6DQWSMREH39XVW7OQYB2IDV1A","A39C1BN9ZSQ0R2","3P520RYKCHSO30HY2QJC6BDLS9Z5UE","","496.5","img/land2.png","74","497.7000000476837","1","0","2","2","0.8,0.2,0.2,0.2,0.8,0.2,0.2,0.2,0.8","0.8,0.2,0.2,0.2,0.8,0.2,0.2,0.2,0.8","1","",""
"","html-keyboard-response","295","161040","0.0-295.0","39GAF6DQWSMREH39XVW7OQYB2IDV1A","A39C1BN9ZSQ0R2","3P520RYKCHSO30HY2QJC6BDLS9Z5UE","","null","<img src=""img/land2.png"" style=""width:200px;border:14px solid red;"">","null","","","","","","","","","",""
"","image-keyboard-response","296","162228","0.0-296.0","39GAF6DQWSMREH39XVW7OQYB2IDV1A","A39C1BN9ZSQ0R2","3P520RYKCHSO30HY2QJC6BDLS9Z5UE","","1186.5999999046326","img/land4.png","76","1188","3","1","3","2","0.8,0.2,0.2,0.2,0.8,0.2,0.2,0.2,0.8","0.8,0.2,0.2,0.2,0.8,0.2,0.2,0.2,0.8","1","",""
"","html-keyboard-response","297","162537","0.0-297.0","39GAF6DQWSMREH39XVW7OQYB2IDV1A","A39C1BN9ZSQ0R2","3P520RYKCHSO30HY2QJC6BDLS9Z5UE","","null","<img src=""img/land4.png"" style=""width:200px; border:14px solid green;"">","null","","","","","","","","","",""
"","image-keyboard-response","298","163686","0.0-298.0","39GAF6DQWSMREH39XVW7OQYB2IDV1A","A39C1BN9ZSQ0R2","3P520RYKCHSO30HY2QJC6BDLS9Z5UE","","1148.2000000476837","img/land2.png","76","1149.5999999046326","3","0","2","2","0.8,0.2,0.2,0.2,0.8,0.2,0.2,0.2,0.8","0.8,0.2,0.2,0.2,0.8,0.2,0.2,0.2,0.8","1","",""
"","html-keyboard-response","299","163996","0.0-299.0","39GAF6DQWSMREH39XVW7OQYB2IDV1A","A39C1BN9ZSQ0R2","3P520RYKCHSO30HY2QJC6BDLS9Z5UE","","null","<img src=""img/land2.png"" style=""width:200px;border:14px solid red;"">","null","","","","","","","","","",""
"","image-keyboard-response","300","164457","0.0-300.0","39GAF6DQWSMREH39XVW7OQYB2IDV1A","A39C1BN9ZSQ0R2","3P520RYKCHSO30HY2QJC6BDLS9Z5UE","","459.2000000476837","img/land5.png","74","460.39999985694885","1","1","1","2","0.8,0.2,0.2,0.2,0.8,0.2,0.2,0.2,0.8","0.8,0.2,0.2,0.2,0.8,0.2,0.2,0.2,0.8","1","",""
"","html-keyboard-response","301","164766","0.0-301.0","39GAF6DQWSMREH39XVW7OQYB2IDV1A","A39C1BN9ZSQ0R2","3P520RYKCHSO30HY2QJC6BDLS9Z5UE","","null","<img src=""img/land5.png"" style=""width:200px; border:14px solid green;"">","null","","","","","","","","","",""
"","image-keyboard-response","302","166776","0.0-302.0","39GAF6DQWSMREH39XVW7OQYB2IDV1A","A39C1BN9ZSQ0R2","3P520RYKCHSO30HY2QJC6BDLS9Z5UE","","","img/land6.png","","2009.7000000476837","-1","0","1","1","0.8,0.2,0.2,0.2,0.8,0.2,0.2,0.2,0.8","0.8,0.2,0.2,0.2,0.8,0.2,0.2,0.2,0.8","1","",""
"","html-keyboard-response","303","167084","0.0-303.0","39GAF6DQWSMREH39XVW7OQYB2IDV1A","A39C1BN9ZSQ0R2","3P520RYKCHSO30HY2QJC6BDLS9Z5UE","","null","<img src=""img/land6.png"" style=""width:200px;border:14px solid red;"">","null","","","","","","","","","",""
"","image-keyboard-response","304","167950","0.0-304.0","39GAF6DQWSMREH39XVW7OQYB2IDV1A","A39C1BN9ZSQ0R2","3P520RYKCHSO30HY2QJC6BDLS9Z5UE","","865","img/land3.png","75","865.7000000476837","2","0","3","1","0.8,0.2,0.2,0.2,0.8,0.2,0.2,0.2,0.8","0.8,0.2,0.2,0.2,0.8,0.2,0.2,0.2,0.8","1","",""
"","html-keyboard-response","305","168265","0.0-305.0","39GAF6DQWSMREH39XVW7OQYB2IDV1A","A39C1BN9ZSQ0R2","3P520RYKCHSO30HY2QJC6BDLS9Z5UE","","null","<img src=""img/land3.png"" style=""width:200px;border:14px solid red;"">","null","","","","","","","","","",""
"","image-keyboard-response","306","169248","0.0-306.0","39GAF6DQWSMREH39XVW7OQYB2IDV1A","A39C1BN9ZSQ0R2","3P520RYKCHSO30HY2QJC6BDLS9Z5UE","","981.6000001430511","img/land6.png","74","982.8000001907349","1","0","1","1","0.8,0.2,0.2,0.2,0.8,0.2,0.2,0.2,0.8","0.8,0.2,0.2,0.2,0.8,0.2,0.2,0.2,0.8","1","",""
"","html-keyboard-response","307","169554","0.0-307.0","39GAF6DQWSMREH39XVW7OQYB2IDV1A","A39C1BN9ZSQ0R2","3P520RYKCHSO30HY2QJC6BDLS9Z5UE","","null","<img src=""img/land6.png"" style=""width:200px;border:14px solid red;"">","null","","","","","","","","","",""
"","image-keyboard-response","308","171191","0.0-308.0","39GAF6DQWSMREH39XVW7OQYB2IDV1A","A39C1BN9ZSQ0R2","3P520RYKCHSO30HY2QJC6BDLS9Z5UE","","1635.4000000953674","img/land1.png","75","1636.5999999046326","2","1","2","1","0.8,0.2,0.2,0.2,0.8,0.2,0.2,0.2,0.8","0.8,0.2,0.2,0.2,0.8,0.2,0.2,0.2,0.8","1","",""
"","html-keyboard-response","309","171496","0.0-309.0","39GAF6DQWSMREH39XVW7OQYB2IDV1A","A39C1BN9ZSQ0R2","3P520RYKCHSO30HY2QJC6BDLS9Z5UE","","null","<img src=""img/land1.png"" style=""width:200px; border:14px solid green;"">","null","","","","","","","","","",""
"","image-keyboard-response","310","171901","0.0-310.0","39GAF6DQWSMREH39XVW7OQYB2IDV1A","A39C1BN9ZSQ0R2","3P520RYKCHSO30HY2QJC6BDLS9Z5UE","","403.09999990463257","img/land1.png","75","404.69999980926514","2","1","2","1","0.8,0.2,0.2,0.2,0.8,0.2,0.2,0.2,0.8","0.8,0.2,0.2,0.2,0.8,0.2,0.2,0.2,0.8","1","",""
"","html-keyboard-response","311","172207","0.0-311.0","39GAF6DQWSMREH39XVW7OQYB2IDV1A","A39C1BN9ZSQ0R2","3P520RYKCHSO30HY2QJC6BDLS9Z5UE","","null","<img src=""img/land1.png"" style=""width:200px; border:14px solid green;"">","null","","","","","","","","","",""
"","image-keyboard-response","312","172518","0.0-312.0","39GAF6DQWSMREH39XVW7OQYB2IDV1A","A39C1BN9ZSQ0R2","3P520RYKCHSO30HY2QJC6BDLS9Z5UE","","309.40000009536743","img/land1.png","75","310.7999999523163","2","0","2","1","0.8,0.2,0.2,0.2,0.8,0.2,0.2,0.2,0.8","0.8,0.2,0.2,0.2,0.8,0.2,0.2,0.2,0.8","1","",""
"","html-keyboard-response","313","172826","0.0-313.0","39GAF6DQWSMREH39XVW7OQYB2IDV1A","A39C1BN9ZSQ0R2","3P520RYKCHSO30HY2QJC6BDLS9Z5UE","","null","<img src=""img/land1.png"" style=""width:200px;border:14px solid red;"">","null","","","","","","","","","",""
"","image-keyboard-response","314","173620","0.0-314.0","39GAF6DQWSMREH39XVW7OQYB2IDV1A","A39C1BN9ZSQ0R2","3P520RYKCHSO30HY2QJC6BDLS9Z5UE","","792.8000001907349","img/land3.png","76","794.2000000476837","3","1","3","1","0.8,0.2,0.2,0.2,0.8,0.2,0.2,0.2,0.8","0.8,0.2,0.2,0.2,0.8,0.2,0.2,0.2,0.8","1","",""
"","html-keyboard-response","315","173929","0.0-315.0","39GAF6DQWSMREH39XVW7OQYB2IDV1A","A39C1BN9ZSQ0R2","3P520RYKCHSO30HY2QJC6BDLS9Z5UE","","null","<img src=""img/land3.png"" style=""width:200px; border:14px solid green;"">","null","","","","","","","","","",""
"","image-keyboard-response","316","174615","0.0-316.0","39GAF6DQWSMREH39XVW7OQYB2IDV1A","A39C1BN9ZSQ0R2","3P520RYKCHSO30HY2QJC6BDLS9Z5UE","","685.2999999523163","img/land1.png","75","686.3999998569489","2","0","2","1","0.8,0.2,0.2,0.2,0.8,0.2,0.2,0.2,0.8","0.8,0.2,0.2,0.2,0.8,0.2,0.2,0.2,0.8","1","",""
"","html-keyboard-response","317","174930","0.0-317.0","39GAF6DQWSMREH39XVW7OQYB2IDV1A","A39C1BN9ZSQ0R2","3P520RYKCHSO30HY2QJC6BDLS9Z5UE","","null","<img src=""img/land1.png"" style=""width:200px;border:14px solid red;"">","null","","","","","","","","","",""
"","image-keyboard-response","318","175731","0.0-318.0","39GAF6DQWSMREH39XVW7OQYB2IDV1A","A39C1BN9ZSQ0R2","3P520RYKCHSO30HY2QJC6BDLS9Z5UE","","799.1999998092651","img/land3.png","76","800.7000000476837","3","1","3","1","0.8,0.2,0.2,0.2,0.8,0.2,0.2,0.2,0.8","0.8,0.2,0.2,0.2,0.8,0.2,0.2,0.2,0.8","1","",""
"","html-keyboard-response","319","176036","0.0-319.0","39GAF6DQWSMREH39XVW7OQYB2IDV1A","A39C1BN9ZSQ0R2","3P520RYKCHSO30HY2QJC6BDLS9Z5UE","","null","<img src=""img/land3.png"" style=""width:200px; border:14px solid green;"">","null","","","","","","","","","",""
"","image-keyboard-response","320","176772","0.0-320.0","39GAF6DQWSMREH39XVW7OQYB2IDV1A","A39C1BN9ZSQ0R2","3P520RYKCHSO30HY2QJC6BDLS9Z5UE","","734.5999999046326","img/land6.png","74","736","1","1","1","1","0.8,0.2,0.2,0.2,0.8,0.2,0.2,0.2,0.8","0.8,0.2,0.2,0.2,0.8,0.2,0.2,0.2,0.8","1","",""
"","html-keyboard-response","321","177081","0.0-321.0","39GAF6DQWSMREH39XVW7OQYB2IDV1A","A39C1BN9ZSQ0R2","3P520RYKCHSO30HY2QJC6BDLS9Z5UE","","null","<img src=""img/land6.png"" style=""width:200px; border:14px solid green;"">","null","","","","","","","","","",""
"","image-keyboard-response","322","178074","0.0-322.0","39GAF6DQWSMREH39XVW7OQYB2IDV1A","A39C1BN9ZSQ0R2","3P520RYKCHSO30HY2QJC6BDLS9Z5UE","","991.2000000476837","img/land3.png","76","992.6000001430511","3","1","3","1","0.8,0.2,0.2,0.2,0.8,0.2,0.2,0.2,0.8","0.8,0.2,0.2,0.2,0.8,0.2,0.2,0.2,0.8","1","",""
"","html-keyboard-response","323","178386","0.0-323.0","39GAF6DQWSMREH39XVW7OQYB2IDV1A","A39C1BN9ZSQ0R2","3P520RYKCHSO30HY2QJC6BDLS9Z5UE","","null","<img src=""img/land3.png"" style=""width:200px; border:14px solid green;"">","null","","","","","","","","","",""
"","image-keyboard-response","324","178761","0.0-324.0","39GAF6DQWSMREH39XVW7OQYB2IDV1A","A39C1BN9ZSQ0R2","3P520RYKCHSO30HY2QJC6BDLS9Z5UE","","372.89999985694885","img/land3.png","76","374.2999999523163","3","0","3","1","0.8,0.2,0.2,0.2,0.8,0.2,0.2,0.2,0.8","0.8,0.2,0.2,0.2,0.8,0.2,0.2,0.2,0.8","1","",""
"","html-keyboard-response","325","179063","0.0-325.0","39GAF6DQWSMREH39XVW7OQYB2IDV1A","A39C1BN9ZSQ0R2","3P520RYKCHSO30HY2QJC6BDLS9Z5UE","","null","<img src=""img/land3.png"" style=""width:200px;border:14px solid red;"">","null","","","","","","","","","",""
"","image-keyboard-response","326","180172","0.0-326.0","39GAF6DQWSMREH39XVW7OQYB2IDV1A","A39C1BN9ZSQ0R2","3P520RYKCHSO30HY2QJC6BDLS9Z5UE","","1103.5","img/land6.png","74","1105.1000001430511","1","1","1","1","0.8,0.2,0.2,0.2,0.8,0.2,0.2,0.2,0.8","0.8,0.2,0.2,0.2,0.8,0.2,0.2,0.2,0.8","1","",""
"","html-keyboard-response","327","180486","0.0-327.0","39GAF6DQWSMREH39XVW7OQYB2IDV1A","A39C1BN9ZSQ0R2","3P520RYKCHSO30HY2QJC6BDLS9Z5UE","","null","<img src=""img/land6.png"" style=""width:200px; border:14px solid green;"">","null","","","","","","","","","",""
"","image-keyboard-response","328","181051","0.0-328.0","39GAF6DQWSMREH39XVW7OQYB2IDV1A","A39C1BN9ZSQ0R2","3P520RYKCHSO30HY2QJC6BDLS9Z5UE","","564.2000000476837","img/land3.png","76","565.5999999046326","3","1","3","1","0.8,0.2,0.2,0.2,0.8,0.2,0.2,0.2,0.8","0.8,0.2,0.2,0.2,0.8,0.2,0.2,0.2,0.8","1","",""
"","html-keyboard-response","329","181362","0.0-329.0","39GAF6DQWSMREH39XVW7OQYB2IDV1A","A39C1BN9ZSQ0R2","3P520RYKCHSO30HY2QJC6BDLS9Z5UE","","null","<img src=""img/land3.png"" style=""width:200px; border:14px solid green;"">","null","","","","","","","","","",""
"","image-keyboard-response","330","182123","0.0-330.0","39GAF6DQWSMREH39XVW7OQYB2IDV1A","A39C1BN9ZSQ0R2","3P520RYKCHSO30HY2QJC6BDLS9Z5UE","","759.9000000953674","img/land1.png","75","761.3999998569489","2","1","2","1","0.8,0.2,0.2,0.2,0.8,0.2,0.2,0.2,0.8","0.8,0.2,0.2,0.2,0.8,0.2,0.2,0.2,0.8","1","",""
"","html-keyboard-response","331","182439","0.0-331.0","39GAF6DQWSMREH39XVW7OQYB2IDV1A","A39C1BN9ZSQ0R2","3P520RYKCHSO30HY2QJC6BDLS9Z5UE","","null","<img src=""img/land1.png"" style=""width:200px; border:14px solid green;"">","null","","","","","","","","","",""
"","image-keyboard-response","332","184140","0.0-332.0","39GAF6DQWSMREH39XVW7OQYB2IDV1A","A39C1BN9ZSQ0R2","3P520RYKCHSO30HY2QJC6BDLS9Z5UE","","1699.7000000476837","img/land6.png","74","1701.1999998092651","1","0","1","1","0.8,0.2,0.2,0.2,0.8,0.2,0.2,0.2,0.8","0.8,0.2,0.2,0.2,0.8,0.2,0.2,0.2,0.8","1","",""
"","html-keyboard-response","333","184445","0.0-333.0","39GAF6DQWSMREH39XVW7OQYB2IDV1A","A39C1BN9ZSQ0R2","3P520RYKCHSO30HY2QJC6BDLS9Z5UE","","null","<img src=""img/land6.png"" style=""width:200px;border:14px solid red;"">","null","","","","","","","","","",""
"","image-keyboard-response","334","185322","0.0-334.0","39GAF6DQWSMREH39XVW7OQYB2IDV1A","A39C1BN9ZSQ0R2","3P520RYKCHSO30HY2QJC6BDLS9Z5UE","","875.6999998092651","img/land1.png","75","877.2000000476837","2","0","2","1","0.8,0.2,0.2,0.2,0.8,0.2,0.2,0.2,0.8","0.8,0.2,0.2,0.2,0.8,0.2,0.2,0.2,0.8","1","",""
"","html-keyboard-response","335","185638","0.0-335.0","39GAF6DQWSMREH39XVW7OQYB2IDV1A","A39C1BN9ZSQ0R2","3P520RYKCHSO30HY2QJC6BDLS9Z5UE","","null","<img src=""img/land1.png"" style=""width:200px;border:14px solid red;"">","null","","","","","","","","","",""
"","image-keyboard-response","336","187204","0.0-336.0","39GAF6DQWSMREH39XVW7OQYB2IDV1A","A39C1BN9ZSQ0R2","3P520RYKCHSO30HY2QJC6BDLS9Z5UE","","1564.7000000476837","img/land6.png","74","1566.5","1","1","1","1","0.8,0.2,0.2,0.2,0.8,0.2,0.2,0.2,0.8","0.8,0.2,0.2,0.2,0.8,0.2,0.2,0.2,0.8","1","",""
"","html-keyboard-response","337","187510","0.0-337.0","39GAF6DQWSMREH39XVW7OQYB2IDV1A","A39C1BN9ZSQ0R2","3P520RYKCHSO30HY2QJC6BDLS9Z5UE","","null","<img src=""img/land6.png"" style=""width:200px; border:14px solid green;"">","null","","","","","","","","","",""
"","image-keyboard-response","338","187929","0.0-338.0","39GAF6DQWSMREH39XVW7OQYB2IDV1A","A39C1BN9ZSQ0R2","3P520RYKCHSO30HY2QJC6BDLS9Z5UE","","418.39999985694885","img/land6.png","74","419.60000014305115","1","1","1","1","0.8,0.2,0.2,0.2,0.8,0.2,0.2,0.2,0.8","0.8,0.2,0.2,0.2,0.8,0.2,0.2,0.2,0.8","1","",""
"","html-keyboard-response","339","188233","0.0-339.0","39GAF6DQWSMREH39XVW7OQYB2IDV1A","A39C1BN9ZSQ0R2","3P520RYKCHSO30HY2QJC6BDLS9Z5UE","","null","<img src=""img/land6.png"" style=""width:200px; border:14px solid green;"">","null","","","","","","","","","",""
"","image-keyboard-response","340","189043","0.0-340.0","39GAF6DQWSMREH39XVW7OQYB2IDV1A","A39C1BN9ZSQ0R2","3P520RYKCHSO30HY2QJC6BDLS9Z5UE","","808","img/land3.png","76","809.6000001430511","3","1","3","1","0.8,0.2,0.2,0.2,0.8,0.2,0.2,0.2,0.8","0.8,0.2,0.2,0.2,0.8,0.2,0.2,0.2,0.8","1","",""
"","html-keyboard-response","341","189350","0.0-341.0","39GAF6DQWSMREH39XVW7OQYB2IDV1A","A39C1BN9ZSQ0R2","3P520RYKCHSO30HY2QJC6BDLS9Z5UE","","null","<img src=""img/land3.png"" style=""width:200px; border:14px solid green;"">","null","","","","","","","","","",""
"","image-keyboard-response","342","189797","0.0-342.0","39GAF6DQWSMREH39XVW7OQYB2IDV1A","A39C1BN9ZSQ0R2","3P520RYKCHSO30HY2QJC6BDLS9Z5UE","","446","img/land6.png","74","447.2000000476837","1","1","1","1","0.8,0.2,0.2,0.2,0.8,0.2,0.2,0.2,0.8","0.8,0.2,0.2,0.2,0.8,0.2,0.2,0.2,0.8","1","",""
"","html-keyboard-response","343","190103","0.0-343.0","39GAF6DQWSMREH39XVW7OQYB2IDV1A","A39C1BN9ZSQ0R2","3P520RYKCHSO30HY2QJC6BDLS9Z5UE","","null","<img src=""img/land6.png"" style=""width:200px; border:14px solid green;"">","null","","","","","","","","","",""
"","image-keyboard-response","344","190610","0.0-344.0","39GAF6DQWSMREH39XVW7OQYB2IDV1A","A39C1BN9ZSQ0R2","3P520RYKCHSO30HY2QJC6BDLS9Z5UE","","506","img/land3.png","76","507.5","3","1","3","1","0.8,0.2,0.2,0.2,0.8,0.2,0.2,0.2,0.8","0.8,0.2,0.2,0.2,0.8,0.2,0.2,0.2,0.8","1","",""
"","html-keyboard-response","345","190921","0.0-345.0","39GAF6DQWSMREH39XVW7OQYB2IDV1A","A39C1BN9ZSQ0R2","3P520RYKCHSO30HY2QJC6BDLS9Z5UE","","null","<img src=""img/land3.png"" style=""width:200px; border:14px solid green;"">","null","","","","","","","","","",""
"","image-keyboard-response","346","191361","0.0-346.0","39GAF6DQWSMREH39XVW7OQYB2IDV1A","A39C1BN9ZSQ0R2","3P520RYKCHSO30HY2QJC6BDLS9Z5UE","","438.7000000476837","img/land3.png","76","440.10000014305115","3","0","3","1","0.8,0.2,0.2,0.2,0.8,0.2,0.2,0.2,0.8","0.8,0.2,0.2,0.2,0.8,0.2,0.2,0.2,0.8","1","",""
"","html-keyboard-response","347","191664","0.0-347.0","39GAF6DQWSMREH39XVW7OQYB2IDV1A","A39C1BN9ZSQ0R2","3P520RYKCHSO30HY2QJC6BDLS9Z5UE","","null","<img src=""img/land3.png"" style=""width:200px;border:14px solid red;"">","null","","","","","","","","","",""
"","image-keyboard-response","348","192507","0.0-348.0","39GAF6DQWSMREH39XVW7OQYB2IDV1A","A39C1BN9ZSQ0R2","3P520RYKCHSO30HY2QJC6BDLS9Z5UE","","840.3000001907349","img/land6.png","74","841.5","1","1","1","1","0.8,0.2,0.2,0.2,0.8,0.2,0.2,0.2,0.8","0.8,0.2,0.2,0.2,0.8,0.2,0.2,0.2,0.8","1","",""
"","html-keyboard-response","349","192811","0.0-349.0","39GAF6DQWSMREH39XVW7OQYB2IDV1A","A39C1BN9ZSQ0R2","3P520RYKCHSO30HY2QJC6BDLS9Z5UE","","null","<img src=""img/land6.png"" style=""width:200px; border:14px solid green;"">","null","","","","","","","","","",""
"","image-keyboard-response","350","193473","0.0-350.0","39GAF6DQWSMREH39XVW7OQYB2IDV1A","A39C1BN9ZSQ0R2","3P520RYKCHSO30HY2QJC6BDLS9Z5UE","","660.5","img/land1.png","75","661.8000001907349","2","1","2","1","0.8,0.2,0.2,0.2,0.8,0.2,0.2,0.2,0.8","0.8,0.2,0.2,0.2,0.8,0.2,0.2,0.2,0.8","1","",""
"","html-keyboard-response","351","193775","0.0-351.0","39GAF6DQWSMREH39XVW7OQYB2IDV1A","A39C1BN9ZSQ0R2","3P520RYKCHSO30HY2QJC6BDLS9Z5UE","","null","<img src=""img/land1.png"" style=""width:200px; border:14px solid green;"">","null","","","","","","","","","",""
"","image-keyboard-response","352","195080","0.0-352.0","39GAF6DQWSMREH39XVW7OQYB2IDV1A","A39C1BN9ZSQ0R2","3P520RYKCHSO30HY2QJC6BDLS9Z5UE","","1302.5999999046326","img/land6.png","74","1304.2000000476837","1","1","1","1","0.8,0.2,0.2,0.2,0.8,0.2,0.2,0.2,0.8","0.8,0.2,0.2,0.2,0.8,0.2,0.2,0.2,0.8","1","",""
"","html-keyboard-response","353","195394","0.0-353.0","39GAF6DQWSMREH39XVW7OQYB2IDV1A","A39C1BN9ZSQ0R2","3P520RYKCHSO30HY2QJC6BDLS9Z5UE","","null","<img src=""img/land6.png"" style=""width:200px; border:14px solid green;"">","null","","","","","","","","","",""
"","image-keyboard-response","354","195762","0.0-354.0","39GAF6DQWSMREH39XVW7OQYB2IDV1A","A39C1BN9ZSQ0R2","3P520RYKCHSO30HY2QJC6BDLS9Z5UE","","366.2999999523163","img/land6.png","74","367.39999985694885","1","0","1","1","0.8,0.2,0.2,0.2,0.8,0.2,0.2,0.2,0.8","0.8,0.2,0.2,0.2,0.8,0.2,0.2,0.2,0.8","1","",""
