"success","trial_type","trial_index","time_elapsed","internal_node_id","assignmentID","mturkID","hitID","view_history","rt","stimulus","key_press","reactionTime","a","r","s","cond","reward_cond","reward_cond_actual","reward_matrix_idx","responses","question_order"
"true","fullscreen","0","4052","0.0-0.0","32KTQ2V7RE1QDZCVNGA9G0XH8HI9M4","A39KKDB8CFBGCC","33J5JKFMK6KTXSND7YBEHDICBQUQ3S","","","","","","","","","","","","","",""
"","instructions","1","60199","0.0-1.0","32KTQ2V7RE1QDZCVNGA9G0XH8HI9M4","A39KKDB8CFBGCC","33J5JKFMK6KTXSND7YBEHDICBQUQ3S","[{""page_index"":0,""viewing_time"":7335},{""page_index"":1,""viewing_time"":8304},{""page_index"":2,""viewing_time"":10371},{""page_index"":3,""viewing_time"":15357},{""page_index"":4,""viewing_time"":6096},{""page_index"":5,""viewing_time"":5686},{""page_index"":6,""viewing_time"":2994}]","56144","","","","","","","","","","","",""
"","image-keyboard-response","2","62202","0.0-2.0","32KTQ2V7RE1QDZCVNGA9G0XH8HI9M4","A39KKDB8CFBGCC","33J5JKFMK6KTXSND7YBEHDICBQUQ3S","","","img/land2.png","","2003","-1","0","2","1","1,0.5,0.5,0.5,1,0.5,0.5,0.5,1","1,0.5,0.5,0.5,1,0.5,0.5,0.5,1","","",""
"","html-keyboard-response","3","62505","0.0-3.0","32KTQ2V7RE1QDZCVNGA9G0XH8HI9M4","A39KKDB8CFBGCC","33J5JKFMK6KTXSND7YBEHDICBQUQ3S","","null","<img src=""img/land2.png"" style=""width:200px;border:14px solid red;"">","null","","","","","","","","","",""
"","image-keyboard-response","4","63603","0.0-4.0","32KTQ2V7RE1QDZCVNGA9G0XH8HI9M4","A39KKDB8CFBGCC","33J5JKFMK6KTXSND7YBEHDICBQUQ3S","","1096","img/land1.png","74","1097","1","1","1","1","1,0.5,0.5,0.5,1,0.5,0.5,0.5,1","1,0.5,0.5,0.5,1,0.5,0.5,0.5,1","","",""
"","html-keyboard-response","5","63905","0.0-5.0","32KTQ2V7RE1QDZCVNGA9G0XH8HI9M4","A39KKDB8CFBGCC","33J5JKFMK6KTXSND7YBEHDICBQUQ3S","","null","<img src=""img/land1.png"" style=""width:200px; border:14px solid green;"">","null","","","","","","","","","",""
"","image-keyboard-response","6","65050","0.0-6.0","32KTQ2V7RE1QDZCVNGA9G0XH8HI9M4","A39KKDB8CFBGCC","33J5JKFMK6KTXSND7YBEHDICBQUQ3S","","1145","img/land2.png","75","1145","2","1","2","1","1,0.5,0.5,0.5,1,0.5,0.5,0.5,1","1,0.5,0.5,0.5,1,0.5,0.5,0.5,1","","",""
"","html-keyboard-response","7","65352","0.0-7.0","32KTQ2V7RE1QDZCVNGA9G0XH8HI9M4","A39KKDB8CFBGCC","33J5JKFMK6KTXSND7YBEHDICBQUQ3S","","null","<img src=""img/land2.png"" style=""width:200px; border:14px solid green;"">","null","","","","","","","","","",""
"","image-keyboard-response","8","66162","0.0-8.0","32KTQ2V7RE1QDZCVNGA9G0XH8HI9M4","A39KKDB8CFBGCC","33J5JKFMK6KTXSND7YBEHDICBQUQ3S","","809","img/land1.png","76","809","3","1","1","1","1,0.5,0.5,0.5,1,0.5,0.5,0.5,1","1,0.5,0.5,0.5,1,0.5,0.5,0.5,1","","",""
"","html-keyboard-response","9","66464","0.0-9.0","32KTQ2V7RE1QDZCVNGA9G0XH8HI9M4","A39KKDB8CFBGCC","33J5JKFMK6KTXSND7YBEHDICBQUQ3S","","null","<img src=""img/land1.png"" style=""width:200px; border:14px solid green;"">","null","","","","","","","","","",""
"","image-keyboard-response","10","67187","0.0-10.0","32KTQ2V7RE1QDZCVNGA9G0XH8HI9M4","A39KKDB8CFBGCC","33J5JKFMK6KTXSND7YBEHDICBQUQ3S","","722","img/land2.png","74","723","1","1","2","1","1,0.5,0.5,0.5,1,0.5,0.5,0.5,1","1,0.5,0.5,0.5,1,0.5,0.5,0.5,1","","",""
"","html-keyboard-response","11","67489","0.0-11.0","32KTQ2V7RE1QDZCVNGA9G0XH8HI9M4","A39KKDB8CFBGCC","33J5JKFMK6KTXSND7YBEHDICBQUQ3S","","null","<img src=""img/land2.png"" style=""width:200px; border:14px solid green;"">","null","","","","","","","","","",""
"","image-keyboard-response","12","68435","0.0-12.0","32KTQ2V7RE1QDZCVNGA9G0XH8HI9M4","A39KKDB8CFBGCC","33J5JKFMK6KTXSND7YBEHDICBQUQ3S","","943","img/land2.png","75","947","2","1","2","1","1,0.5,0.5,0.5,1,0.5,0.5,0.5,1","1,0.5,0.5,0.5,1,0.5,0.5,0.5,1","","",""
"","html-keyboard-response","13","68736","0.0-13.0","32KTQ2V7RE1QDZCVNGA9G0XH8HI9M4","A39KKDB8CFBGCC","33J5JKFMK6KTXSND7YBEHDICBQUQ3S","","null","<img src=""img/land2.png"" style=""width:200px; border:14px solid green;"">","null","","","","","","","","","",""
"","image-keyboard-response","14","69523","0.0-14.0","32KTQ2V7RE1QDZCVNGA9G0XH8HI9M4","A39KKDB8CFBGCC","33J5JKFMK6KTXSND7YBEHDICBQUQ3S","","786","img/land3.png","76","786","3","1","3","1","1,0.5,0.5,0.5,1,0.5,0.5,0.5,1","1,0.5,0.5,0.5,1,0.5,0.5,0.5,1","","",""
"","html-keyboard-response","15","69826","0.0-15.0","32KTQ2V7RE1QDZCVNGA9G0XH8HI9M4","A39KKDB8CFBGCC","33J5JKFMK6KTXSND7YBEHDICBQUQ3S","","null","<img src=""img/land3.png"" style=""width:200px; border:14px solid green;"">","null","","","","","","","","","",""
"","image-keyboard-response","16","70443","0.0-16.0","32KTQ2V7RE1QDZCVNGA9G0XH8HI9M4","A39KKDB8CFBGCC","33J5JKFMK6KTXSND7YBEHDICBQUQ3S","","616","img/land1.png","74","616","1","1","1","1","1,0.5,0.5,0.5,1,0.5,0.5,0.5,1","1,0.5,0.5,0.5,1,0.5,0.5,0.5,1","","",""
"","html-keyboard-response","17","70745","0.0-17.0","32KTQ2V7RE1QDZCVNGA9G0XH8HI9M4","A39KKDB8CFBGCC","33J5JKFMK6KTXSND7YBEHDICBQUQ3S","","null","<img src=""img/land1.png"" style=""width:200px; border:14px solid green;"">","null","","","","","","","","","",""
"","image-keyboard-response","18","71259","0.0-18.0","32KTQ2V7RE1QDZCVNGA9G0XH8HI9M4","A39KKDB8CFBGCC","33J5JKFMK6KTXSND7YBEHDICBQUQ3S","","513","img/land3.png","75","514","2","0","3","1","1,0.5,0.5,0.5,1,0.5,0.5,0.5,1","1,0.5,0.5,0.5,1,0.5,0.5,0.5,1","","",""
"","html-keyboard-response","19","71560","0.0-19.0","32KTQ2V7RE1QDZCVNGA9G0XH8HI9M4","A39KKDB8CFBGCC","33J5JKFMK6KTXSND7YBEHDICBQUQ3S","","null","<img src=""img/land3.png"" style=""width:200px;border:14px solid red;"">","null","","","","","","","","","",""
"","image-keyboard-response","20","72139","0.0-20.0","32KTQ2V7RE1QDZCVNGA9G0XH8HI9M4","A39KKDB8CFBGCC","33J5JKFMK6KTXSND7YBEHDICBQUQ3S","","577","img/land2.png","76","579","3","0","2","1","1,0.5,0.5,0.5,1,0.5,0.5,0.5,1","1,0.5,0.5,0.5,1,0.5,0.5,0.5,1","","",""
"","html-keyboard-response","21","72442","0.0-21.0","32KTQ2V7RE1QDZCVNGA9G0XH8HI9M4","A39KKDB8CFBGCC","33J5JKFMK6KTXSND7YBEHDICBQUQ3S","","null","<img src=""img/land2.png"" style=""width:200px;border:14px solid red;"">","null","","","","","","","","","",""
"","image-keyboard-response","22","73040","0.0-22.0","32KTQ2V7RE1QDZCVNGA9G0XH8HI9M4","A39KKDB8CFBGCC","33J5JKFMK6KTXSND7YBEHDICBQUQ3S","","597","img/land2.png","74","598","1","1","2","1","1,0.5,0.5,0.5,1,0.5,0.5,0.5,1","1,0.5,0.5,0.5,1,0.5,0.5,0.5,1","","",""
"","html-keyboard-response","23","73341","0.0-23.0","32KTQ2V7RE1QDZCVNGA9G0XH8HI9M4","A39KKDB8CFBGCC","33J5JKFMK6KTXSND7YBEHDICBQUQ3S","","null","<img src=""img/land2.png"" style=""width:200px; border:14px solid green;"">","null","","","","","","","","","",""
"","image-keyboard-response","24","75082","0.0-24.0","32KTQ2V7RE1QDZCVNGA9G0XH8HI9M4","A39KKDB8CFBGCC","33J5JKFMK6KTXSND7YBEHDICBQUQ3S","","1738","img/land2.png","74","1740","1","1","2","1","1,0.5,0.5,0.5,1,0.5,0.5,0.5,1","1,0.5,0.5,0.5,1,0.5,0.5,0.5,1","","",""
"","html-keyboard-response","25","75384","0.0-25.0","32KTQ2V7RE1QDZCVNGA9G0XH8HI9M4","A39KKDB8CFBGCC","33J5JKFMK6KTXSND7YBEHDICBQUQ3S","","null","<img src=""img/land2.png"" style=""width:200px; border:14px solid green;"">","null","","","","","","","","","",""
"","image-keyboard-response","26","76090","0.0-26.0","32KTQ2V7RE1QDZCVNGA9G0XH8HI9M4","A39KKDB8CFBGCC","33J5JKFMK6KTXSND7YBEHDICBQUQ3S","","706","img/land3.png","75","707","2","1","3","1","1,0.5,0.5,0.5,1,0.5,0.5,0.5,1","1,0.5,0.5,0.5,1,0.5,0.5,0.5,1","","",""
"","html-keyboard-response","27","76395","0.0-27.0","32KTQ2V7RE1QDZCVNGA9G0XH8HI9M4","A39KKDB8CFBGCC","33J5JKFMK6KTXSND7YBEHDICBQUQ3S","","null","<img src=""img/land3.png"" style=""width:200px; border:14px solid green;"">","null","","","","","","","","","",""
"","image-keyboard-response","28","77203","0.0-28.0","32KTQ2V7RE1QDZCVNGA9G0XH8HI9M4","A39KKDB8CFBGCC","33J5JKFMK6KTXSND7YBEHDICBQUQ3S","","807","img/land2.png","74","809","1","0","2","1","1,0.5,0.5,0.5,1,0.5,0.5,0.5,1","1,0.5,0.5,0.5,1,0.5,0.5,0.5,1","","",""
"","html-keyboard-response","29","77506","0.0-29.0","32KTQ2V7RE1QDZCVNGA9G0XH8HI9M4","A39KKDB8CFBGCC","33J5JKFMK6KTXSND7YBEHDICBQUQ3S","","null","<img src=""img/land2.png"" style=""width:200px;border:14px solid red;"">","null","","","","","","","","","",""
"","image-keyboard-response","30","78139","0.0-30.0","32KTQ2V7RE1QDZCVNGA9G0XH8HI9M4","A39KKDB8CFBGCC","33J5JKFMK6KTXSND7YBEHDICBQUQ3S","","632","img/land1.png","75","632","2","1","1","1","1,0.5,0.5,0.5,1,0.5,0.5,0.5,1","1,0.5,0.5,0.5,1,0.5,0.5,0.5,1","","",""
"","html-keyboard-response","31","78448","0.0-31.0","32KTQ2V7RE1QDZCVNGA9G0XH8HI9M4","A39KKDB8CFBGCC","33J5JKFMK6KTXSND7YBEHDICBQUQ3S","","null","<img src=""img/land1.png"" style=""width:200px; border:14px solid green;"">","null","","","","","","","","","",""
"","image-keyboard-response","32","79066","0.0-32.0","32KTQ2V7RE1QDZCVNGA9G0XH8HI9M4","A39KKDB8CFBGCC","33J5JKFMK6KTXSND7YBEHDICBQUQ3S","","617","img/land1.png","76","617","3","0","1","1","1,0.5,0.5,0.5,1,0.5,0.5,0.5,1","1,0.5,0.5,0.5,1,0.5,0.5,0.5,1","","",""
"","html-keyboard-response","33","79376","0.0-33.0","32KTQ2V7RE1QDZCVNGA9G0XH8HI9M4","A39KKDB8CFBGCC","33J5JKFMK6KTXSND7YBEHDICBQUQ3S","","null","<img src=""img/land1.png"" style=""width:200px;border:14px solid red;"">","null","","","","","","","","","",""
"","image-keyboard-response","34","79843","0.0-34.0","32KTQ2V7RE1QDZCVNGA9G0XH8HI9M4","A39KKDB8CFBGCC","33J5JKFMK6KTXSND7YBEHDICBQUQ3S","","464","img/land3.png","75","466","2","0","3","1","1,0.5,0.5,0.5,1,0.5,0.5,0.5,1","1,0.5,0.5,0.5,1,0.5,0.5,0.5,1","","",""
"","html-keyboard-response","35","80145","0.0-35.0","32KTQ2V7RE1QDZCVNGA9G0XH8HI9M4","A39KKDB8CFBGCC","33J5JKFMK6KTXSND7YBEHDICBQUQ3S","","null","<img src=""img/land3.png"" style=""width:200px;border:14px solid red;"">","null","","","","","","","","","",""
"","image-keyboard-response","36","80482","0.0-36.0","32KTQ2V7RE1QDZCVNGA9G0XH8HI9M4","A39KKDB8CFBGCC","33J5JKFMK6KTXSND7YBEHDICBQUQ3S","","335","img/land1.png","74","336","1","1","1","1","1,0.5,0.5,0.5,1,0.5,0.5,0.5,1","1,0.5,0.5,0.5,1,0.5,0.5,0.5,1","","",""
"","html-keyboard-response","37","80784","0.0-37.0","32KTQ2V7RE1QDZCVNGA9G0XH8HI9M4","A39KKDB8CFBGCC","33J5JKFMK6KTXSND7YBEHDICBQUQ3S","","null","<img src=""img/land1.png"" style=""width:200px; border:14px solid green;"">","null","","","","","","","","","",""
"","image-keyboard-response","38","81178","0.0-38.0","32KTQ2V7RE1QDZCVNGA9G0XH8HI9M4","A39KKDB8CFBGCC","33J5JKFMK6KTXSND7YBEHDICBQUQ3S","","392","img/land2.png","75","393","2","1","2","1","1,0.5,0.5,0.5,1,0.5,0.5,0.5,1","1,0.5,0.5,0.5,1,0.5,0.5,0.5,1","","",""
"","html-keyboard-response","39","81479","0.0-39.0","32KTQ2V7RE1QDZCVNGA9G0XH8HI9M4","A39KKDB8CFBGCC","33J5JKFMK6KTXSND7YBEHDICBQUQ3S","","null","<img src=""img/land2.png"" style=""width:200px; border:14px solid green;"">","null","","","","","","","","","",""
"","image-keyboard-response","40","81850","0.0-40.0","32KTQ2V7RE1QDZCVNGA9G0XH8HI9M4","A39KKDB8CFBGCC","33J5JKFMK6KTXSND7YBEHDICBQUQ3S","","370","img/land2.png","76","370","3","1","2","1","1,0.5,0.5,0.5,1,0.5,0.5,0.5,1","1,0.5,0.5,0.5,1,0.5,0.5,0.5,1","","",""
"","html-keyboard-response","41","82151","0.0-41.0","32KTQ2V7RE1QDZCVNGA9G0XH8HI9M4","A39KKDB8CFBGCC","33J5JKFMK6KTXSND7YBEHDICBQUQ3S","","null","<img src=""img/land2.png"" style=""width:200px; border:14px solid green;"">","null","","","","","","","","","",""
"","image-keyboard-response","42","82507","0.0-42.0","32KTQ2V7RE1QDZCVNGA9G0XH8HI9M4","A39KKDB8CFBGCC","33J5JKFMK6KTXSND7YBEHDICBQUQ3S","","354","img/land3.png","76","356","3","1","3","1","1,0.5,0.5,0.5,1,0.5,0.5,0.5,1","1,0.5,0.5,0.5,1,0.5,0.5,0.5,1","","",""
"","html-keyboard-response","43","82808","0.0-43.0","32KTQ2V7RE1QDZCVNGA9G0XH8HI9M4","A39KKDB8CFBGCC","33J5JKFMK6KTXSND7YBEHDICBQUQ3S","","null","<img src=""img/land3.png"" style=""width:200px; border:14px solid green;"">","null","","","","","","","","","",""
"","image-keyboard-response","44","83139","0.0-44.0","32KTQ2V7RE1QDZCVNGA9G0XH8HI9M4","A39KKDB8CFBGCC","33J5JKFMK6KTXSND7YBEHDICBQUQ3S","","329","img/land3.png","75","330","2","0","3","1","1,0.5,0.5,0.5,1,0.5,0.5,0.5,1","1,0.5,0.5,0.5,1,0.5,0.5,0.5,1","","",""
"","html-keyboard-response","45","83442","0.0-45.0","32KTQ2V7RE1QDZCVNGA9G0XH8HI9M4","A39KKDB8CFBGCC","33J5JKFMK6KTXSND7YBEHDICBQUQ3S","","null","<img src=""img/land3.png"" style=""width:200px;border:14px solid red;"">","null","","","","","","","","","",""
"","image-keyboard-response","46","83725","0.0-46.0","32KTQ2V7RE1QDZCVNGA9G0XH8HI9M4","A39KKDB8CFBGCC","33J5JKFMK6KTXSND7YBEHDICBQUQ3S","","283","img/land2.png","74","284","1","0","2","1","1,0.5,0.5,0.5,1,0.5,0.5,0.5,1","1,0.5,0.5,0.5,1,0.5,0.5,0.5,1","","",""
"","html-keyboard-response","47","84028","0.0-47.0","32KTQ2V7RE1QDZCVNGA9G0XH8HI9M4","A39KKDB8CFBGCC","33J5JKFMK6KTXSND7YBEHDICBQUQ3S","","null","<img src=""img/land2.png"" style=""width:200px;border:14px solid red;"">","null","","","","","","","","","",""
"","image-keyboard-response","48","84234","0.0-48.0","32KTQ2V7RE1QDZCVNGA9G0XH8HI9M4","A39KKDB8CFBGCC","33J5JKFMK6KTXSND7YBEHDICBQUQ3S","","205","img/land3.png","75","207","2","1","3","1","1,0.5,0.5,0.5,1,0.5,0.5,0.5,1","1,0.5,0.5,0.5,1,0.5,0.5,0.5,1","","",""
"","html-keyboard-response","49","84537","0.0-49.0","32KTQ2V7RE1QDZCVNGA9G0XH8HI9M4","A39KKDB8CFBGCC","33J5JKFMK6KTXSND7YBEHDICBQUQ3S","","null","<img src=""img/land3.png"" style=""width:200px; border:14px solid green;"">","null","","","","","","","","","",""
"","image-keyboard-response","50","84835","0.0-50.0","32KTQ2V7RE1QDZCVNGA9G0XH8HI9M4","A39KKDB8CFBGCC","33J5JKFMK6KTXSND7YBEHDICBQUQ3S","","297","img/land3.png","74","297","1","1","3","1","1,0.5,0.5,0.5,1,0.5,0.5,0.5,1","1,0.5,0.5,0.5,1,0.5,0.5,0.5,1","","",""
"","html-keyboard-response","51","85138","0.0-51.0","32KTQ2V7RE1QDZCVNGA9G0XH8HI9M4","A39KKDB8CFBGCC","33J5JKFMK6KTXSND7YBEHDICBQUQ3S","","null","<img src=""img/land3.png"" style=""width:200px; border:14px solid green;"">","null","","","","","","","","","",""
"","image-keyboard-response","52","85156","0.0-52.0","32KTQ2V7RE1QDZCVNGA9G0XH8HI9M4","A39KKDB8CFBGCC","33J5JKFMK6KTXSND7YBEHDICBQUQ3S","","17","img/land1.png","76","18","3","1","1","1","1,0.5,0.5,0.5,1,0.5,0.5,0.5,1","1,0.5,0.5,0.5,1,0.5,0.5,0.5,1","","",""
"","html-keyboard-response","53","85459","0.0-53.0","32KTQ2V7RE1QDZCVNGA9G0XH8HI9M4","A39KKDB8CFBGCC","33J5JKFMK6KTXSND7YBEHDICBQUQ3S","","null","<img src=""img/land1.png"" style=""width:200px; border:14px solid green;"">","null","","","","","","","","","",""
"","image-keyboard-response","54","85483","0.0-54.0","32KTQ2V7RE1QDZCVNGA9G0XH8HI9M4","A39KKDB8CFBGCC","33J5JKFMK6KTXSND7YBEHDICBQUQ3S","","23","img/land2.png","75","24","2","1","2","1","1,0.5,0.5,0.5,1,0.5,0.5,0.5,1","1,0.5,0.5,0.5,1,0.5,0.5,0.5,1","","",""
"","html-keyboard-response","55","85784","0.0-55.0","32KTQ2V7RE1QDZCVNGA9G0XH8HI9M4","A39KKDB8CFBGCC","33J5JKFMK6KTXSND7YBEHDICBQUQ3S","","null","<img src=""img/land2.png"" style=""width:200px; border:14px solid green;"">","null","","","","","","","","","",""
"","image-keyboard-response","56","85811","0.0-56.0","32KTQ2V7RE1QDZCVNGA9G0XH8HI9M4","A39KKDB8CFBGCC","33J5JKFMK6KTXSND7YBEHDICBQUQ3S","","26","img/land3.png","74","27","1","0","3","1","1,0.5,0.5,0.5,1,0.5,0.5,0.5,1","1,0.5,0.5,0.5,1,0.5,0.5,0.5,1","","",""
"","html-keyboard-response","57","86113","0.0-57.0","32KTQ2V7RE1QDZCVNGA9G0XH8HI9M4","A39KKDB8CFBGCC","33J5JKFMK6KTXSND7YBEHDICBQUQ3S","","null","<img src=""img/land3.png"" style=""width:200px;border:14px solid red;"">","null","","","","","","","","","",""
"","image-keyboard-response","58","86282","0.0-58.0","32KTQ2V7RE1QDZCVNGA9G0XH8HI9M4","A39KKDB8CFBGCC","33J5JKFMK6KTXSND7YBEHDICBQUQ3S","","169","img/land1.png","74","169","1","1","1","1","1,0.5,0.5,0.5,1,0.5,0.5,0.5,1","1,0.5,0.5,0.5,1,0.5,0.5,0.5,1","","",""
"","html-keyboard-response","59","86585","0.0-59.0","32KTQ2V7RE1QDZCVNGA9G0XH8HI9M4","A39KKDB8CFBGCC","33J5JKFMK6KTXSND7YBEHDICBQUQ3S","","null","<img src=""img/land1.png"" style=""width:200px; border:14px solid green;"">","null","","","","","","","","","",""
"","image-keyboard-response","60","86714","0.0-60.0","32KTQ2V7RE1QDZCVNGA9G0XH8HI9M4","A39KKDB8CFBGCC","33J5JKFMK6KTXSND7YBEHDICBQUQ3S","","128","img/land3.png","74","128","1","0","3","1","1,0.5,0.5,0.5,1,0.5,0.5,0.5,1","1,0.5,0.5,0.5,1,0.5,0.5,0.5,1","","",""
"","html-keyboard-response","61","87015","0.0-61.0","32KTQ2V7RE1QDZCVNGA9G0XH8HI9M4","A39KKDB8CFBGCC","33J5JKFMK6KTXSND7YBEHDICBQUQ3S","","null","<img src=""img/land3.png"" style=""width:200px;border:14px solid red;"">","null","","","","","","","","","",""
"","image-keyboard-response","62","87146","0.0-62.0","32KTQ2V7RE1QDZCVNGA9G0XH8HI9M4","A39KKDB8CFBGCC","33J5JKFMK6KTXSND7YBEHDICBQUQ3S","","129","img/land1.png","74","130","1","1","1","1","1,0.5,0.5,0.5,1,0.5,0.5,0.5,1","1,0.5,0.5,0.5,1,0.5,0.5,0.5,1","","",""
"","html-keyboard-response","63","87448","0.0-63.0","32KTQ2V7RE1QDZCVNGA9G0XH8HI9M4","A39KKDB8CFBGCC","33J5JKFMK6KTXSND7YBEHDICBQUQ3S","","null","<img src=""img/land1.png"" style=""width:200px; border:14px solid green;"">","null","","","","","","","","","",""
"","image-keyboard-response","64","87525","0.0-64.0","32KTQ2V7RE1QDZCVNGA9G0XH8HI9M4","A39KKDB8CFBGCC","33J5JKFMK6KTXSND7YBEHDICBQUQ3S","","76","img/land3.png","74","76","1","1","3","1","1,0.5,0.5,0.5,1,0.5,0.5,0.5,1","1,0.5,0.5,0.5,1,0.5,0.5,0.5,1","","",""
"","html-keyboard-response","65","87828","0.0-65.0","32KTQ2V7RE1QDZCVNGA9G0XH8HI9M4","A39KKDB8CFBGCC","33J5JKFMK6KTXSND7YBEHDICBQUQ3S","","null","<img src=""img/land3.png"" style=""width:200px; border:14px solid green;"">","null","","","","","","","","","",""
"","image-keyboard-response","66","87923","0.0-66.0","32KTQ2V7RE1QDZCVNGA9G0XH8HI9M4","A39KKDB8CFBGCC","33J5JKFMK6KTXSND7YBEHDICBQUQ3S","","95","img/land1.png","74","96","1","1","1","1","1,0.5,0.5,0.5,1,0.5,0.5,0.5,1","1,0.5,0.5,0.5,1,0.5,0.5,0.5,1","","",""
"","html-keyboard-response","67","88226","0.0-67.0","32KTQ2V7RE1QDZCVNGA9G0XH8HI9M4","A39KKDB8CFBGCC","33J5JKFMK6KTXSND7YBEHDICBQUQ3S","","null","<img src=""img/land1.png"" style=""width:200px; border:14px solid green;"">","null","","","","","","","","","",""
"","image-keyboard-response","68","88340","0.0-68.0","32KTQ2V7RE1QDZCVNGA9G0XH8HI9M4","A39KKDB8CFBGCC","33J5JKFMK6KTXSND7YBEHDICBQUQ3S","","113","img/land1.png","74","114","1","1","1","1","1,0.5,0.5,0.5,1,0.5,0.5,0.5,1","1,0.5,0.5,0.5,1,0.5,0.5,0.5,1","","",""
"","html-keyboard-response","69","88642","0.0-69.0","32KTQ2V7RE1QDZCVNGA9G0XH8HI9M4","A39KKDB8CFBGCC","33J5JKFMK6KTXSND7YBEHDICBQUQ3S","","null","<img src=""img/land1.png"" style=""width:200px; border:14px solid green;"">","null","","","","","","","","","",""
"","image-keyboard-response","70","88762","0.0-70.0","32KTQ2V7RE1QDZCVNGA9G0XH8HI9M4","A39KKDB8CFBGCC","33J5JKFMK6KTXSND7YBEHDICBQUQ3S","","118","img/land1.png","74","119","1","1","1","1","1,0.5,0.5,0.5,1,0.5,0.5,0.5,1","1,0.5,0.5,0.5,1,0.5,0.5,0.5,1","","",""
"","html-keyboard-response","71","89065","0.0-71.0","32KTQ2V7RE1QDZCVNGA9G0XH8HI9M4","A39KKDB8CFBGCC","33J5JKFMK6KTXSND7YBEHDICBQUQ3S","","null","<img src=""img/land1.png"" style=""width:200px; border:14px solid green;"">","null","","","","","","","","","",""
"","image-keyboard-response","72","89162","0.0-72.0","32KTQ2V7RE1QDZCVNGA9G0XH8HI9M4","A39KKDB8CFBGCC","33J5JKFMK6KTXSND7YBEHDICBQUQ3S","","96","img/land3.png","74","98","1","1","3","1","1,0.5,0.5,0.5,1,0.5,0.5,0.5,1","1,0.5,0.5,0.5,1,0.5,0.5,0.5,1","","",""
"","html-keyboard-response","73","89463","0.0-73.0","32KTQ2V7RE1QDZCVNGA9G0XH8HI9M4","A39KKDB8CFBGCC","33J5JKFMK6KTXSND7YBEHDICBQUQ3S","","null","<img src=""img/land3.png"" style=""width:200px; border:14px solid green;"">","null","","","","","","","","","",""
"","image-keyboard-response","74","89578","0.0-74.0","32KTQ2V7RE1QDZCVNGA9G0XH8HI9M4","A39KKDB8CFBGCC","33J5JKFMK6KTXSND7YBEHDICBQUQ3S","","114","img/land3.png","74","114","1","0","3","1","1,0.5,0.5,0.5,1,0.5,0.5,0.5,1","1,0.5,0.5,0.5,1,0.5,0.5,0.5,1","","",""
"","html-keyboard-response","75","89879","0.0-75.0","32KTQ2V7RE1QDZCVNGA9G0XH8HI9M4","A39KKDB8CFBGCC","33J5JKFMK6KTXSND7YBEHDICBQUQ3S","","null","<img src=""img/land3.png"" style=""width:200px;border:14px solid red;"">","null","","","","","","","","","",""
"","image-keyboard-response","76","89962","0.0-76.0","32KTQ2V7RE1QDZCVNGA9G0XH8HI9M4","A39KKDB8CFBGCC","33J5JKFMK6KTXSND7YBEHDICBQUQ3S","","82","img/land1.png","74","83","1","1","1","1","1,0.5,0.5,0.5,1,0.5,0.5,0.5,1","1,0.5,0.5,0.5,1,0.5,0.5,0.5,1","","",""
"","html-keyboard-response","77","90263","0.0-77.0","32KTQ2V7RE1QDZCVNGA9G0XH8HI9M4","A39KKDB8CFBGCC","33J5JKFMK6KTXSND7YBEHDICBQUQ3S","","null","<img src=""img/land1.png"" style=""width:200px; border:14px solid green;"">","null","","","","","","","","","",""
"","image-keyboard-response","78","90349","0.0-78.0","32KTQ2V7RE1QDZCVNGA9G0XH8HI9M4","A39KKDB8CFBGCC","33J5JKFMK6KTXSND7YBEHDICBQUQ3S","","84","img/land3.png","74","85","1","1","3","1","1,0.5,0.5,0.5,1,0.5,0.5,0.5,1","1,0.5,0.5,0.5,1,0.5,0.5,0.5,1","","",""
"","html-keyboard-response","79","90651","0.0-79.0","32KTQ2V7RE1QDZCVNGA9G0XH8HI9M4","A39KKDB8CFBGCC","33J5JKFMK6KTXSND7YBEHDICBQUQ3S","","null","<img src=""img/land3.png"" style=""width:200px; border:14px solid green;"">","null","","","","","","","","","",""
"","image-keyboard-response","80","90762","0.0-80.0","32KTQ2V7RE1QDZCVNGA9G0XH8HI9M4","A39KKDB8CFBGCC","33J5JKFMK6KTXSND7YBEHDICBQUQ3S","","109","img/land3.png","74","110","1","0","3","1","1,0.5,0.5,0.5,1,0.5,0.5,0.5,1","1,0.5,0.5,0.5,1,0.5,0.5,0.5,1","","",""
"","html-keyboard-response","81","91065","0.0-81.0","32KTQ2V7RE1QDZCVNGA9G0XH8HI9M4","A39KKDB8CFBGCC","33J5JKFMK6KTXSND7YBEHDICBQUQ3S","","null","<img src=""img/land3.png"" style=""width:200px;border:14px solid red;"">","null","","","","","","","","","",""
"","image-keyboard-response","82","91154","0.0-82.0","32KTQ2V7RE1QDZCVNGA9G0XH8HI9M4","A39KKDB8CFBGCC","33J5JKFMK6KTXSND7YBEHDICBQUQ3S","","89","img/land1.png","74","89","1","1","1","1","1,0.5,0.5,0.5,1,0.5,0.5,0.5,1","1,0.5,0.5,0.5,1,0.5,0.5,0.5,1","","",""
"","html-keyboard-response","83","91456","0.0-83.0","32KTQ2V7RE1QDZCVNGA9G0XH8HI9M4","A39KKDB8CFBGCC","33J5JKFMK6KTXSND7YBEHDICBQUQ3S","","null","<img src=""img/land1.png"" style=""width:200px; border:14px solid green;"">","null","","","","","","","","","",""
"","image-keyboard-response","84","91554","0.0-84.0","32KTQ2V7RE1QDZCVNGA9G0XH8HI9M4","A39KKDB8CFBGCC","33J5JKFMK6KTXSND7YBEHDICBQUQ3S","","96","img/land1.png","74","96","1","1","1","1","1,0.5,0.5,0.5,1,0.5,0.5,0.5,1","1,0.5,0.5,0.5,1,0.5,0.5,0.5,1","","",""
"","html-keyboard-response","85","91856","0.0-85.0","32KTQ2V7RE1QDZCVNGA9G0XH8HI9M4","A39KKDB8CFBGCC","33J5JKFMK6KTXSND7YBEHDICBQUQ3S","","null","<img src=""img/land1.png"" style=""width:200px; border:14px solid green;"">","null","","","","","","","","","",""
"","image-keyboard-response","86","91939","0.0-86.0","32KTQ2V7RE1QDZCVNGA9G0XH8HI9M4","A39KKDB8CFBGCC","33J5JKFMK6KTXSND7YBEHDICBQUQ3S","","82","img/land1.png","74","84","1","1","1","1","1,0.5,0.5,0.5,1,0.5,0.5,0.5,1","1,0.5,0.5,0.5,1,0.5,0.5,0.5,1","","",""
"","html-keyboard-response","87","92241","0.0-87.0","32KTQ2V7RE1QDZCVNGA9G0XH8HI9M4","A39KKDB8CFBGCC","33J5JKFMK6KTXSND7YBEHDICBQUQ3S","","null","<img src=""img/land1.png"" style=""width:200px; border:14px solid green;"">","null","","","","","","","","","",""
"","image-keyboard-response","88","92306","0.0-88.0","32KTQ2V7RE1QDZCVNGA9G0XH8HI9M4","A39KKDB8CFBGCC","33J5JKFMK6KTXSND7YBEHDICBQUQ3S","","64","img/land1.png","74","64","1","1","1","1","1,0.5,0.5,0.5,1,0.5,0.5,0.5,1","1,0.5,0.5,0.5,1,0.5,0.5,0.5,1","","",""
"","html-keyboard-response","89","92608","0.0-89.0","32KTQ2V7RE1QDZCVNGA9G0XH8HI9M4","A39KKDB8CFBGCC","33J5JKFMK6KTXSND7YBEHDICBQUQ3S","","null","<img src=""img/land1.png"" style=""width:200px; border:14px solid green;"">","null","","","","","","","","","",""
"","image-keyboard-response","90","92713","0.0-90.0","32KTQ2V7RE1QDZCVNGA9G0XH8HI9M4","A39KKDB8CFBGCC","33J5JKFMK6KTXSND7YBEHDICBQUQ3S","","104","img/land3.png","74","104","1","0","3","1","1,0.5,0.5,0.5,1,0.5,0.5,0.5,1","1,0.5,0.5,0.5,1,0.5,0.5,0.5,1","","",""
"","html-keyboard-response","91","93016","0.0-91.0","32KTQ2V7RE1QDZCVNGA9G0XH8HI9M4","A39KKDB8CFBGCC","33J5JKFMK6KTXSND7YBEHDICBQUQ3S","","null","<img src=""img/land3.png"" style=""width:200px;border:14px solid red;"">","null","","","","","","","","","",""
"","image-keyboard-response","92","93123","0.0-92.0","32KTQ2V7RE1QDZCVNGA9G0XH8HI9M4","A39KKDB8CFBGCC","33J5JKFMK6KTXSND7YBEHDICBQUQ3S","","106","img/land1.png","74","107","1","1","1","1","1,0.5,0.5,0.5,1,0.5,0.5,0.5,1","1,0.5,0.5,0.5,1,0.5,0.5,0.5,1","","",""
"","html-keyboard-response","93","93425","0.0-93.0","32KTQ2V7RE1QDZCVNGA9G0XH8HI9M4","A39KKDB8CFBGCC","33J5JKFMK6KTXSND7YBEHDICBQUQ3S","","null","<img src=""img/land1.png"" style=""width:200px; border:14px solid green;"">","null","","","","","","","","","",""
"","image-keyboard-response","94","93530","0.0-94.0","32KTQ2V7RE1QDZCVNGA9G0XH8HI9M4","A39KKDB8CFBGCC","33J5JKFMK6KTXSND7YBEHDICBQUQ3S","","103","img/land3.png","74","104","1","0","3","1","1,0.5,0.5,0.5,1,0.5,0.5,0.5,1","1,0.5,0.5,0.5,1,0.5,0.5,0.5,1","","",""
"","html-keyboard-response","95","93832","0.0-95.0","32KTQ2V7RE1QDZCVNGA9G0XH8HI9M4","A39KKDB8CFBGCC","33J5JKFMK6KTXSND7YBEHDICBQUQ3S","","null","<img src=""img/land3.png"" style=""width:200px;border:14px solid red;"">","null","","","","","","","","","",""
"","image-keyboard-response","96","93923","0.0-96.0","32KTQ2V7RE1QDZCVNGA9G0XH8HI9M4","A39KKDB8CFBGCC","33J5JKFMK6KTXSND7YBEHDICBQUQ3S","","90","img/land2.png","74","91","1","0","2","1","1,0.5,0.5,0.5,1,0.5,0.5,0.5,1","1,0.5,0.5,0.5,1,0.5,0.5,0.5,1","","",""
"","html-keyboard-response","97","94225","0.0-97.0","32KTQ2V7RE1QDZCVNGA9G0XH8HI9M4","A39KKDB8CFBGCC","33J5JKFMK6KTXSND7YBEHDICBQUQ3S","","null","<img src=""img/land2.png"" style=""width:200px;border:14px solid red;"">","null","","","","","","","","","",""
"","image-keyboard-response","98","94370","0.0-98.0","32KTQ2V7RE1QDZCVNGA9G0XH8HI9M4","A39KKDB8CFBGCC","33J5JKFMK6KTXSND7YBEHDICBQUQ3S","","144","img/land2.png","74","145","1","0","2","1","1,0.5,0.5,0.5,1,0.5,0.5,0.5,1","1,0.5,0.5,0.5,1,0.5,0.5,0.5,1","","",""
"","html-keyboard-response","99","94675","0.0-99.0","32KTQ2V7RE1QDZCVNGA9G0XH8HI9M4","A39KKDB8CFBGCC","33J5JKFMK6KTXSND7YBEHDICBQUQ3S","","null","<img src=""img/land2.png"" style=""width:200px;border:14px solid red;"">","null","","","","","","","","","",""
"","image-keyboard-response","100","94739","0.0-100.0","32KTQ2V7RE1QDZCVNGA9G0XH8HI9M4","A39KKDB8CFBGCC","33J5JKFMK6KTXSND7YBEHDICBQUQ3S","","61","img/land3.png","74","64","1","1","3","1","1,0.5,0.5,0.5,1,0.5,0.5,0.5,1","1,0.5,0.5,0.5,1,0.5,0.5,0.5,1","","",""
"","html-keyboard-response","101","95042","0.0-101.0","32KTQ2V7RE1QDZCVNGA9G0XH8HI9M4","A39KKDB8CFBGCC","33J5JKFMK6KTXSND7YBEHDICBQUQ3S","","null","<img src=""img/land3.png"" style=""width:200px; border:14px solid green;"">","null","","","","","","","","","",""
"","image-keyboard-response","102","95306","0.0-102.0","32KTQ2V7RE1QDZCVNGA9G0XH8HI9M4","A39KKDB8CFBGCC","33J5JKFMK6KTXSND7YBEHDICBQUQ3S","","262","img/land1.png","75","263","2","0","1","1","1,0.5,0.5,0.5,1,0.5,0.5,0.5,1","1,0.5,0.5,0.5,1,0.5,0.5,0.5,1","","",""
"","html-keyboard-response","103","95609","0.0-103.0","32KTQ2V7RE1QDZCVNGA9G0XH8HI9M4","A39KKDB8CFBGCC","33J5JKFMK6KTXSND7YBEHDICBQUQ3S","","null","<img src=""img/land1.png"" style=""width:200px;border:14px solid red;"">","null","","","","","","","","","",""
"","image-keyboard-response","104","95722","0.0-104.0","32KTQ2V7RE1QDZCVNGA9G0XH8HI9M4","A39KKDB8CFBGCC","33J5JKFMK6KTXSND7YBEHDICBQUQ3S","","112","img/land2.png","76","114","3","0","2","1","1,0.5,0.5,0.5,1,0.5,0.5,0.5,1","1,0.5,0.5,0.5,1,0.5,0.5,0.5,1","","",""
"","html-keyboard-response","105","96036","0.0-105.0","32KTQ2V7RE1QDZCVNGA9G0XH8HI9M4","A39KKDB8CFBGCC","33J5JKFMK6KTXSND7YBEHDICBQUQ3S","","null","<img src=""img/land2.png"" style=""width:200px;border:14px solid red;"">","null","","","","","","","","","",""
"","image-keyboard-response","106","96050","0.0-106.0","32KTQ2V7RE1QDZCVNGA9G0XH8HI9M4","A39KKDB8CFBGCC","33J5JKFMK6KTXSND7YBEHDICBQUQ3S","","12","img/land1.png","74","14","1","1","1","1","1,0.5,0.5,0.5,1,0.5,0.5,0.5,1","1,0.5,0.5,0.5,1,0.5,0.5,0.5,1","","",""
"","html-keyboard-response","107","96352","0.0-107.0","32KTQ2V7RE1QDZCVNGA9G0XH8HI9M4","A39KKDB8CFBGCC","33J5JKFMK6KTXSND7YBEHDICBQUQ3S","","null","<img src=""img/land1.png"" style=""width:200px; border:14px solid green;"">","null","","","","","","","","","",""
"","image-keyboard-response","108","96458","0.0-108.0","32KTQ2V7RE1QDZCVNGA9G0XH8HI9M4","A39KKDB8CFBGCC","33J5JKFMK6KTXSND7YBEHDICBQUQ3S","","105","img/land3.png","74","106","1","1","3","1","1,0.5,0.5,0.5,1,0.5,0.5,0.5,1","1,0.5,0.5,0.5,1,0.5,0.5,0.5,1","","",""
"","html-keyboard-response","109","96761","0.0-109.0","32KTQ2V7RE1QDZCVNGA9G0XH8HI9M4","A39KKDB8CFBGCC","33J5JKFMK6KTXSND7YBEHDICBQUQ3S","","null","<img src=""img/land3.png"" style=""width:200px; border:14px solid green;"">","null","","","","","","","","","",""
"","image-keyboard-response","110","97074","0.0-110.0","32KTQ2V7RE1QDZCVNGA9G0XH8HI9M4","A39KKDB8CFBGCC","33J5JKFMK6KTXSND7YBEHDICBQUQ3S","","313","img/land2.png","76","313","3","0","2","1","1,0.5,0.5,0.5,1,0.5,0.5,0.5,1","1,0.5,0.5,0.5,1,0.5,0.5,0.5,1","","",""
"","html-keyboard-response","111","97376","0.0-111.0","32KTQ2V7RE1QDZCVNGA9G0XH8HI9M4","A39KKDB8CFBGCC","33J5JKFMK6KTXSND7YBEHDICBQUQ3S","","null","<img src=""img/land2.png"" style=""width:200px;border:14px solid red;"">","null","","","","","","","","","",""
"","image-keyboard-response","112","97690","0.0-112.0","32KTQ2V7RE1QDZCVNGA9G0XH8HI9M4","A39KKDB8CFBGCC","33J5JKFMK6KTXSND7YBEHDICBQUQ3S","","314","img/land2.png","74","314","1","1","2","1","1,0.5,0.5,0.5,1,0.5,0.5,0.5,1","1,0.5,0.5,0.5,1,0.5,0.5,0.5,1","","",""
"","html-keyboard-response","113","97993","0.0-113.0","32KTQ2V7RE1QDZCVNGA9G0XH8HI9M4","A39KKDB8CFBGCC","33J5JKFMK6KTXSND7YBEHDICBQUQ3S","","null","<img src=""img/land2.png"" style=""width:200px; border:14px solid green;"">","null","","","","","","","","","",""
"","image-keyboard-response","114","98274","0.0-114.0","32KTQ2V7RE1QDZCVNGA9G0XH8HI9M4","A39KKDB8CFBGCC","33J5JKFMK6KTXSND7YBEHDICBQUQ3S","","279","img/land1.png","74","280","1","1","1","1","1,0.5,0.5,0.5,1,0.5,0.5,0.5,1","1,0.5,0.5,0.5,1,0.5,0.5,0.5,1","","",""
"","html-keyboard-response","115","98576","0.0-115.0","32KTQ2V7RE1QDZCVNGA9G0XH8HI9M4","A39KKDB8CFBGCC","33J5JKFMK6KTXSND7YBEHDICBQUQ3S","","null","<img src=""img/land1.png"" style=""width:200px; border:14px solid green;"">","null","","","","","","","","","",""
"","image-keyboard-response","116","98802","0.0-116.0","32KTQ2V7RE1QDZCVNGA9G0XH8HI9M4","A39KKDB8CFBGCC","33J5JKFMK6KTXSND7YBEHDICBQUQ3S","","225","img/land2.png","74","225","1","1","2","1","1,0.5,0.5,0.5,1,0.5,0.5,0.5,1","1,0.5,0.5,0.5,1,0.5,0.5,0.5,1","","",""
"","html-keyboard-response","117","99103","0.0-117.0","32KTQ2V7RE1QDZCVNGA9G0XH8HI9M4","A39KKDB8CFBGCC","33J5JKFMK6KTXSND7YBEHDICBQUQ3S","","null","<img src=""img/land2.png"" style=""width:200px; border:14px solid green;"">","null","","","","","","","","","",""
"","image-keyboard-response","118","99282","0.0-118.0","32KTQ2V7RE1QDZCVNGA9G0XH8HI9M4","A39KKDB8CFBGCC","33J5JKFMK6KTXSND7YBEHDICBQUQ3S","","175","img/land2.png","74","177","1","0","2","1","1,0.5,0.5,0.5,1,0.5,0.5,0.5,1","1,0.5,0.5,0.5,1,0.5,0.5,0.5,1","","",""
"","html-keyboard-response","119","99583","0.0-119.0","32KTQ2V7RE1QDZCVNGA9G0XH8HI9M4","A39KKDB8CFBGCC","33J5JKFMK6KTXSND7YBEHDICBQUQ3S","","null","<img src=""img/land2.png"" style=""width:200px;border:14px solid red;"">","null","","","","","","","","","",""
"","image-keyboard-response","120","99746","0.0-120.0","32KTQ2V7RE1QDZCVNGA9G0XH8HI9M4","A39KKDB8CFBGCC","33J5JKFMK6KTXSND7YBEHDICBQUQ3S","","161","img/land1.png","74","164","1","1","1","1","1,0.5,0.5,0.5,1,0.5,0.5,0.5,1","1,0.5,0.5,0.5,1,0.5,0.5,0.5,1","","",""
"","html-keyboard-response","121","100047","0.0-121.0","32KTQ2V7RE1QDZCVNGA9G0XH8HI9M4","A39KKDB8CFBGCC","33J5JKFMK6KTXSND7YBEHDICBQUQ3S","","null","<img src=""img/land1.png"" style=""width:200px; border:14px solid green;"">","null","","","","","","","","","",""
"","image-keyboard-response","122","100202","0.0-122.0","32KTQ2V7RE1QDZCVNGA9G0XH8HI9M4","A39KKDB8CFBGCC","33J5JKFMK6KTXSND7YBEHDICBQUQ3S","","153","img/land1.png","74","154","1","1","1","1","1,0.5,0.5,0.5,1,0.5,0.5,0.5,1","1,0.5,0.5,0.5,1,0.5,0.5,0.5,1","","",""
"","html-keyboard-response","123","100503","0.0-123.0","32KTQ2V7RE1QDZCVNGA9G0XH8HI9M4","A39KKDB8CFBGCC","33J5JKFMK6KTXSND7YBEHDICBQUQ3S","","null","<img src=""img/land1.png"" style=""width:200px; border:14px solid green;"">","null","","","","","","","","","",""
"","image-keyboard-response","124","100682","0.0-124.0","32KTQ2V7RE1QDZCVNGA9G0XH8HI9M4","A39KKDB8CFBGCC","33J5JKFMK6KTXSND7YBEHDICBQUQ3S","","179","img/land1.png","74","179","1","1","1","1","1,0.5,0.5,0.5,1,0.5,0.5,0.5,1","1,0.5,0.5,0.5,1,0.5,0.5,0.5,1","","",""
"","html-keyboard-response","125","100984","0.0-125.0","32KTQ2V7RE1QDZCVNGA9G0XH8HI9M4","A39KKDB8CFBGCC","33J5JKFMK6KTXSND7YBEHDICBQUQ3S","","null","<img src=""img/land1.png"" style=""width:200px; border:14px solid green;"">","null","","","","","","","","","",""
"","image-keyboard-response","126","101146","0.0-126.0","32KTQ2V7RE1QDZCVNGA9G0XH8HI9M4","A39KKDB8CFBGCC","33J5JKFMK6KTXSND7YBEHDICBQUQ3S","","160","img/land3.png","74","161","1","0","3","1","1,0.5,0.5,0.5,1,0.5,0.5,0.5,1","1,0.5,0.5,0.5,1,0.5,0.5,0.5,1","","",""
"","html-keyboard-response","127","101448","0.0-127.0","32KTQ2V7RE1QDZCVNGA9G0XH8HI9M4","A39KKDB8CFBGCC","33J5JKFMK6KTXSND7YBEHDICBQUQ3S","","null","<img src=""img/land3.png"" style=""width:200px;border:14px solid red;"">","null","","","","","","","","","",""
"","image-keyboard-response","128","101658","0.0-128.0","32KTQ2V7RE1QDZCVNGA9G0XH8HI9M4","A39KKDB8CFBGCC","33J5JKFMK6KTXSND7YBEHDICBQUQ3S","","210","img/land2.png","74","211","1","0","2","1","1,0.5,0.5,0.5,1,0.5,0.5,0.5,1","1,0.5,0.5,0.5,1,0.5,0.5,0.5,1","","",""
"","html-keyboard-response","129","101960","0.0-129.0","32KTQ2V7RE1QDZCVNGA9G0XH8HI9M4","A39KKDB8CFBGCC","33J5JKFMK6KTXSND7YBEHDICBQUQ3S","","null","<img src=""img/land2.png"" style=""width:200px;border:14px solid red;"">","null","","","","","","","","","",""
"","image-keyboard-response","130","102162","0.0-130.0","32KTQ2V7RE1QDZCVNGA9G0XH8HI9M4","A39KKDB8CFBGCC","33J5JKFMK6KTXSND7YBEHDICBQUQ3S","","200","img/land3.png","74","201","1","1","3","1","1,0.5,0.5,0.5,1,0.5,0.5,0.5,1","1,0.5,0.5,0.5,1,0.5,0.5,0.5,1","","",""
"","html-keyboard-response","131","102463","0.0-131.0","32KTQ2V7RE1QDZCVNGA9G0XH8HI9M4","A39KKDB8CFBGCC","33J5JKFMK6KTXSND7YBEHDICBQUQ3S","","null","<img src=""img/land3.png"" style=""width:200px; border:14px solid green;"">","null","","","","","","","","","",""
"","image-keyboard-response","132","102634","0.0-132.0","32KTQ2V7RE1QDZCVNGA9G0XH8HI9M4","A39KKDB8CFBGCC","33J5JKFMK6KTXSND7YBEHDICBQUQ3S","","171","img/land3.png","74","172","1","0","3","1","1,0.5,0.5,0.5,1,0.5,0.5,0.5,1","1,0.5,0.5,0.5,1,0.5,0.5,0.5,1","","",""
"","html-keyboard-response","133","102937","0.0-133.0","32KTQ2V7RE1QDZCVNGA9G0XH8HI9M4","A39KKDB8CFBGCC","33J5JKFMK6KTXSND7YBEHDICBQUQ3S","","null","<img src=""img/land3.png"" style=""width:200px;border:14px solid red;"">","null","","","","","","","","","",""
"","image-keyboard-response","134","103138","0.0-134.0","32KTQ2V7RE1QDZCVNGA9G0XH8HI9M4","A39KKDB8CFBGCC","33J5JKFMK6KTXSND7YBEHDICBQUQ3S","","200","img/land1.png","74","200","1","1","1","1","1,0.5,0.5,0.5,1,0.5,0.5,0.5,1","1,0.5,0.5,0.5,1,0.5,0.5,0.5,1","","",""
"","html-keyboard-response","135","103440","0.0-135.0","32KTQ2V7RE1QDZCVNGA9G0XH8HI9M4","A39KKDB8CFBGCC","33J5JKFMK6KTXSND7YBEHDICBQUQ3S","","null","<img src=""img/land1.png"" style=""width:200px; border:14px solid green;"">","null","","","","","","","","","",""
"","image-keyboard-response","136","103642","0.0-136.0","32KTQ2V7RE1QDZCVNGA9G0XH8HI9M4","A39KKDB8CFBGCC","33J5JKFMK6KTXSND7YBEHDICBQUQ3S","","202","img/land2.png","74","202","1","0","2","1","1,0.5,0.5,0.5,1,0.5,0.5,0.5,1","1,0.5,0.5,0.5,1,0.5,0.5,0.5,1","","",""
"","html-keyboard-response","137","103947","0.0-137.0","32KTQ2V7RE1QDZCVNGA9G0XH8HI9M4","A39KKDB8CFBGCC","33J5JKFMK6KTXSND7YBEHDICBQUQ3S","","null","<img src=""img/land2.png"" style=""width:200px;border:14px solid red;"">","null","","","","","","","","","",""
"","image-keyboard-response","138","103986","0.0-138.0","32KTQ2V7RE1QDZCVNGA9G0XH8HI9M4","A39KKDB8CFBGCC","33J5JKFMK6KTXSND7YBEHDICBQUQ3S","","39","img/land3.png","74","39","1","0","3","1","1,0.5,0.5,0.5,1,0.5,0.5,0.5,1","1,0.5,0.5,0.5,1,0.5,0.5,0.5,1","","",""
"","html-keyboard-response","139","104289","0.0-139.0","32KTQ2V7RE1QDZCVNGA9G0XH8HI9M4","A39KKDB8CFBGCC","33J5JKFMK6KTXSND7YBEHDICBQUQ3S","","null","<img src=""img/land3.png"" style=""width:200px;border:14px solid red;"">","null","","","","","","","","","",""
"","image-keyboard-response","140","104354","0.0-140.0","32KTQ2V7RE1QDZCVNGA9G0XH8HI9M4","A39KKDB8CFBGCC","33J5JKFMK6KTXSND7YBEHDICBQUQ3S","","63","img/land3.png","74","65","1","0","3","1","1,0.5,0.5,0.5,1,0.5,0.5,0.5,1","1,0.5,0.5,0.5,1,0.5,0.5,0.5,1","","",""
"","html-keyboard-response","141","104657","0.0-141.0","32KTQ2V7RE1QDZCVNGA9G0XH8HI9M4","A39KKDB8CFBGCC","33J5JKFMK6KTXSND7YBEHDICBQUQ3S","","null","<img src=""img/land3.png"" style=""width:200px;border:14px solid red;"">","null","","","","","","","","","",""
"","image-keyboard-response","142","104714","0.0-142.0","32KTQ2V7RE1QDZCVNGA9G0XH8HI9M4","A39KKDB8CFBGCC","33J5JKFMK6KTXSND7YBEHDICBQUQ3S","","56","img/land2.png","75","56","2","1","2","1","1,0.5,0.5,0.5,1,0.5,0.5,0.5,1","1,0.5,0.5,0.5,1,0.5,0.5,0.5,1","","",""
"","html-keyboard-response","143","105016","0.0-143.0","32KTQ2V7RE1QDZCVNGA9G0XH8HI9M4","A39KKDB8CFBGCC","33J5JKFMK6KTXSND7YBEHDICBQUQ3S","","null","<img src=""img/land2.png"" style=""width:200px; border:14px solid green;"">","null","","","","","","","","","",""
"","image-keyboard-response","144","105146","0.0-144.0","32KTQ2V7RE1QDZCVNGA9G0XH8HI9M4","A39KKDB8CFBGCC","33J5JKFMK6KTXSND7YBEHDICBQUQ3S","","129","img/land2.png","75","130","2","1","2","1","1,0.5,0.5,0.5,1,0.5,0.5,0.5,1","1,0.5,0.5,0.5,1,0.5,0.5,0.5,1","","",""
"","html-keyboard-response","145","105449","0.0-145.0","32KTQ2V7RE1QDZCVNGA9G0XH8HI9M4","A39KKDB8CFBGCC","33J5JKFMK6KTXSND7YBEHDICBQUQ3S","","null","<img src=""img/land2.png"" style=""width:200px; border:14px solid green;"">","null","","","","","","","","","",""
"","image-keyboard-response","146","105498","0.0-146.0","32KTQ2V7RE1QDZCVNGA9G0XH8HI9M4","A39KKDB8CFBGCC","33J5JKFMK6KTXSND7YBEHDICBQUQ3S","","48","img/land3.png","75","49","2","1","3","1","1,0.5,0.5,0.5,1,0.5,0.5,0.5,1","1,0.5,0.5,0.5,1,0.5,0.5,0.5,1","","",""
"","html-keyboard-response","147","105799","0.0-147.0","32KTQ2V7RE1QDZCVNGA9G0XH8HI9M4","A39KKDB8CFBGCC","33J5JKFMK6KTXSND7YBEHDICBQUQ3S","","null","<img src=""img/land3.png"" style=""width:200px; border:14px solid green;"">","null","","","","","","","","","",""
"","image-keyboard-response","148","105874","0.0-148.0","32KTQ2V7RE1QDZCVNGA9G0XH8HI9M4","A39KKDB8CFBGCC","33J5JKFMK6KTXSND7YBEHDICBQUQ3S","","74","img/land2.png","75","75","2","1","2","1","1,0.5,0.5,0.5,1,0.5,0.5,0.5,1","1,0.5,0.5,0.5,1,0.5,0.5,0.5,1","","",""
"","html-keyboard-response","149","106176","0.0-149.0","32KTQ2V7RE1QDZCVNGA9G0XH8HI9M4","A39KKDB8CFBGCC","33J5JKFMK6KTXSND7YBEHDICBQUQ3S","","null","<img src=""img/land2.png"" style=""width:200px; border:14px solid green;"">","null","","","","","","","","","",""
"","image-keyboard-response","150","106194","0.0-150.0","32KTQ2V7RE1QDZCVNGA9G0XH8HI9M4","A39KKDB8CFBGCC","33J5JKFMK6KTXSND7YBEHDICBQUQ3S","","16","img/land3.png","75","18","2","1","3","1","1,0.5,0.5,0.5,1,0.5,0.5,0.5,1","1,0.5,0.5,0.5,1,0.5,0.5,0.5,1","","",""
"","html-keyboard-response","151","106496","0.0-151.0","32KTQ2V7RE1QDZCVNGA9G0XH8HI9M4","A39KKDB8CFBGCC","33J5JKFMK6KTXSND7YBEHDICBQUQ3S","","null","<img src=""img/land3.png"" style=""width:200px; border:14px solid green;"">","null","","","","","","","","","",""
"","image-keyboard-response","152","106723","0.0-152.0","32KTQ2V7RE1QDZCVNGA9G0XH8HI9M4","A39KKDB8CFBGCC","33J5JKFMK6KTXSND7YBEHDICBQUQ3S","","226","img/land2.png","75","227","2","1","2","1","1,0.5,0.5,0.5,1,0.5,0.5,0.5,1","1,0.5,0.5,0.5,1,0.5,0.5,0.5,1","","",""
"","html-keyboard-response","153","107025","0.0-153.0","32KTQ2V7RE1QDZCVNGA9G0XH8HI9M4","A39KKDB8CFBGCC","33J5JKFMK6KTXSND7YBEHDICBQUQ3S","","null","<img src=""img/land2.png"" style=""width:200px; border:14px solid green;"">","null","","","","","","","","","",""
"","image-keyboard-response","154","107170","0.0-154.0","32KTQ2V7RE1QDZCVNGA9G0XH8HI9M4","A39KKDB8CFBGCC","33J5JKFMK6KTXSND7YBEHDICBQUQ3S","","144","img/land1.png","75","145","2","1","1","1","1,0.5,0.5,0.5,1,0.5,0.5,0.5,1","1,0.5,0.5,0.5,1,0.5,0.5,0.5,1","","",""
"","html-keyboard-response","155","107473","0.0-155.0","32KTQ2V7RE1QDZCVNGA9G0XH8HI9M4","A39KKDB8CFBGCC","33J5JKFMK6KTXSND7YBEHDICBQUQ3S","","null","<img src=""img/land1.png"" style=""width:200px; border:14px solid green;"">","null","","","","","","","","","",""
"","image-keyboard-response","156","107634","0.0-156.0","32KTQ2V7RE1QDZCVNGA9G0XH8HI9M4","A39KKDB8CFBGCC","33J5JKFMK6KTXSND7YBEHDICBQUQ3S","","160","img/land3.png","75","161","2","1","3","1","1,0.5,0.5,0.5,1,0.5,0.5,0.5,1","1,0.5,0.5,0.5,1,0.5,0.5,0.5,1","","",""
"","html-keyboard-response","157","107936","0.0-157.0","32KTQ2V7RE1QDZCVNGA9G0XH8HI9M4","A39KKDB8CFBGCC","33J5JKFMK6KTXSND7YBEHDICBQUQ3S","","null","<img src=""img/land3.png"" style=""width:200px; border:14px solid green;"">","null","","","","","","","","","",""
"","image-keyboard-response","158","108042","0.0-158.0","32KTQ2V7RE1QDZCVNGA9G0XH8HI9M4","A39KKDB8CFBGCC","33J5JKFMK6KTXSND7YBEHDICBQUQ3S","","105","img/land1.png","75","105","2","0","1","1","1,0.5,0.5,0.5,1,0.5,0.5,0.5,1","1,0.5,0.5,0.5,1,0.5,0.5,0.5,1","","",""
"","html-keyboard-response","159","108345","0.0-159.0","32KTQ2V7RE1QDZCVNGA9G0XH8HI9M4","A39KKDB8CFBGCC","33J5JKFMK6KTXSND7YBEHDICBQUQ3S","","null","<img src=""img/land1.png"" style=""width:200px;border:14px solid red;"">","null","","","","","","","","","",""
"","image-keyboard-response","160","108794","0.0-160.0","32KTQ2V7RE1QDZCVNGA9G0XH8HI9M4","A39KKDB8CFBGCC","33J5JKFMK6KTXSND7YBEHDICBQUQ3S","","447","img/land2.png","75","449","2","1","2","1","1,0.5,0.5,0.5,1,0.5,0.5,0.5,1","1,0.5,0.5,0.5,1,0.5,0.5,0.5,1","","",""
"","html-keyboard-response","161","109096","0.0-161.0","32KTQ2V7RE1QDZCVNGA9G0XH8HI9M4","A39KKDB8CFBGCC","33J5JKFMK6KTXSND7YBEHDICBQUQ3S","","null","<img src=""img/land2.png"" style=""width:200px; border:14px solid green;"">","null","","","","","","","","","",""
"","image-keyboard-response","162","109202","0.0-162.0","32KTQ2V7RE1QDZCVNGA9G0XH8HI9M4","A39KKDB8CFBGCC","33J5JKFMK6KTXSND7YBEHDICBQUQ3S","","104","img/land3.png","75","106","2","0","3","1","1,0.5,0.5,0.5,1,0.5,0.5,0.5,1","1,0.5,0.5,0.5,1,0.5,0.5,0.5,1","","",""
"","html-keyboard-response","163","109503","0.0-163.0","32KTQ2V7RE1QDZCVNGA9G0XH8HI9M4","A39KKDB8CFBGCC","33J5JKFMK6KTXSND7YBEHDICBQUQ3S","","null","<img src=""img/land3.png"" style=""width:200px;border:14px solid red;"">","null","","","","","","","","","",""
"","image-keyboard-response","164","109594","0.0-164.0","32KTQ2V7RE1QDZCVNGA9G0XH8HI9M4","A39KKDB8CFBGCC","33J5JKFMK6KTXSND7YBEHDICBQUQ3S","","89","img/land1.png","75","91","2","1","1","1","1,0.5,0.5,0.5,1,0.5,0.5,0.5,1","1,0.5,0.5,0.5,1,0.5,0.5,0.5,1","","",""
"","html-keyboard-response","165","109895","0.0-165.0","32KTQ2V7RE1QDZCVNGA9G0XH8HI9M4","A39KKDB8CFBGCC","33J5JKFMK6KTXSND7YBEHDICBQUQ3S","","null","<img src=""img/land1.png"" style=""width:200px; border:14px solid green;"">","null","","","","","","","","","",""
"","image-keyboard-response","166","109978","0.0-166.0","32KTQ2V7RE1QDZCVNGA9G0XH8HI9M4","A39KKDB8CFBGCC","33J5JKFMK6KTXSND7YBEHDICBQUQ3S","","81","img/land2.png","75","81","2","1","2","1","1,0.5,0.5,0.5,1,0.5,0.5,0.5,1","1,0.5,0.5,0.5,1,0.5,0.5,0.5,1","","",""
"","html-keyboard-response","167","110280","0.0-167.0","32KTQ2V7RE1QDZCVNGA9G0XH8HI9M4","A39KKDB8CFBGCC","33J5JKFMK6KTXSND7YBEHDICBQUQ3S","","null","<img src=""img/land2.png"" style=""width:200px; border:14px solid green;"">","null","","","","","","","","","",""
"","image-keyboard-response","168","110386","0.0-168.0","32KTQ2V7RE1QDZCVNGA9G0XH8HI9M4","A39KKDB8CFBGCC","33J5JKFMK6KTXSND7YBEHDICBQUQ3S","","105","img/land2.png","75","105","2","1","2","1","1,0.5,0.5,0.5,1,0.5,0.5,0.5,1","1,0.5,0.5,0.5,1,0.5,0.5,0.5,1","","",""
"","html-keyboard-response","169","110687","0.0-169.0","32KTQ2V7RE1QDZCVNGA9G0XH8HI9M4","A39KKDB8CFBGCC","33J5JKFMK6KTXSND7YBEHDICBQUQ3S","","null","<img src=""img/land2.png"" style=""width:200px; border:14px solid green;"">","null","","","","","","","","","",""
"","image-keyboard-response","170","110770","0.0-170.0","32KTQ2V7RE1QDZCVNGA9G0XH8HI9M4","A39KKDB8CFBGCC","33J5JKFMK6KTXSND7YBEHDICBQUQ3S","","81","img/land2.png","75","82","2","1","2","1","1,0.5,0.5,0.5,1,0.5,0.5,0.5,1","1,0.5,0.5,0.5,1,0.5,0.5,0.5,1","","",""
"","html-keyboard-response","171","111073","0.0-171.0","32KTQ2V7RE1QDZCVNGA9G0XH8HI9M4","A39KKDB8CFBGCC","33J5JKFMK6KTXSND7YBEHDICBQUQ3S","","null","<img src=""img/land2.png"" style=""width:200px; border:14px solid green;"">","null","","","","","","","","","",""
"","image-keyboard-response","172","111242","0.0-172.0","32KTQ2V7RE1QDZCVNGA9G0XH8HI9M4","A39KKDB8CFBGCC","33J5JKFMK6KTXSND7YBEHDICBQUQ3S","","168","img/land3.png","75","168","2","0","3","1","1,0.5,0.5,0.5,1,0.5,0.5,0.5,1","1,0.5,0.5,0.5,1,0.5,0.5,0.5,1","","",""
"","html-keyboard-response","173","111544","0.0-173.0","32KTQ2V7RE1QDZCVNGA9G0XH8HI9M4","A39KKDB8CFBGCC","33J5JKFMK6KTXSND7YBEHDICBQUQ3S","","null","<img src=""img/land3.png"" style=""width:200px;border:14px solid red;"">","null","","","","","","","","","",""
"","image-keyboard-response","174","111586","0.0-174.0","32KTQ2V7RE1QDZCVNGA9G0XH8HI9M4","A39KKDB8CFBGCC","33J5JKFMK6KTXSND7YBEHDICBQUQ3S","","41","img/land3.png","75","42","2","1","3","1","1,0.5,0.5,0.5,1,0.5,0.5,0.5,1","1,0.5,0.5,0.5,1,0.5,0.5,0.5,1","","",""
"","html-keyboard-response","175","111889","0.0-175.0","32KTQ2V7RE1QDZCVNGA9G0XH8HI9M4","A39KKDB8CFBGCC","33J5JKFMK6KTXSND7YBEHDICBQUQ3S","","null","<img src=""img/land3.png"" style=""width:200px; border:14px solid green;"">","null","","","","","","","","","",""
"","image-keyboard-response","176","112218","0.0-176.0","32KTQ2V7RE1QDZCVNGA9G0XH8HI9M4","A39KKDB8CFBGCC","33J5JKFMK6KTXSND7YBEHDICBQUQ3S","","327","img/land1.png","74","329","1","1","1","1","1,0.5,0.5,0.5,1,0.5,0.5,0.5,1","1,0.5,0.5,0.5,1,0.5,0.5,0.5,1","","",""
"","html-keyboard-response","177","112519","0.0-177.0","32KTQ2V7RE1QDZCVNGA9G0XH8HI9M4","A39KKDB8CFBGCC","33J5JKFMK6KTXSND7YBEHDICBQUQ3S","","null","<img src=""img/land1.png"" style=""width:200px; border:14px solid green;"">","null","","","","","","","","","",""
"","image-keyboard-response","178","112682","0.0-178.0","32KTQ2V7RE1QDZCVNGA9G0XH8HI9M4","A39KKDB8CFBGCC","33J5JKFMK6KTXSND7YBEHDICBQUQ3S","","161","img/land2.png","74","163","1","1","2","1","1,0.5,0.5,0.5,1,0.5,0.5,0.5,1","1,0.5,0.5,0.5,1,0.5,0.5,0.5,1","","",""
"","html-keyboard-response","179","112984","0.0-179.0","32KTQ2V7RE1QDZCVNGA9G0XH8HI9M4","A39KKDB8CFBGCC","33J5JKFMK6KTXSND7YBEHDICBQUQ3S","","null","<img src=""img/land2.png"" style=""width:200px; border:14px solid green;"">","null","","","","","","","","","",""
"","image-keyboard-response","180","113058","0.0-180.0","32KTQ2V7RE1QDZCVNGA9G0XH8HI9M4","A39KKDB8CFBGCC","33J5JKFMK6KTXSND7YBEHDICBQUQ3S","","73","img/land1.png","74","74","1","1","1","1","1,0.5,0.5,0.5,1,0.5,0.5,0.5,1","1,0.5,0.5,0.5,1,0.5,0.5,0.5,1","","",""
"","html-keyboard-response","181","113361","0.0-181.0","32KTQ2V7RE1QDZCVNGA9G0XH8HI9M4","A39KKDB8CFBGCC","33J5JKFMK6KTXSND7YBEHDICBQUQ3S","","null","<img src=""img/land1.png"" style=""width:200px; border:14px solid green;"">","null","","","","","","","","","",""
"","html-keyboard-response","182","116691","0.0-182.0","32KTQ2V7RE1QDZCVNGA9G0XH8HI9M4","A39KKDB8CFBGCC","33J5JKFMK6KTXSND7YBEHDICBQUQ3S","","","","","","","","","","","","","",""
"","image-keyboard-response","183","117354","0.0-183.0","32KTQ2V7RE1QDZCVNGA9G0XH8HI9M4","A39KKDB8CFBGCC","33J5JKFMK6KTXSND7YBEHDICBQUQ3S","","661","img/land6.png","74","662","1","0","3","1","1,0.5,0.5,0.5,1,0.5,0.5,0.5,1","1,0.5,0.5,0.5,1,0.5,0.5,0.5,1","","",""
"","html-keyboard-response","184","117656","0.0-184.0","32KTQ2V7RE1QDZCVNGA9G0XH8HI9M4","A39KKDB8CFBGCC","33J5JKFMK6KTXSND7YBEHDICBQUQ3S","","null","<img src=""img/land6.png"" style=""width:200px;border:14px solid red;"">","null","","","","","","","","","",""
"","image-keyboard-response","185","117802","0.0-185.0","32KTQ2V7RE1QDZCVNGA9G0XH8HI9M4","A39KKDB8CFBGCC","33J5JKFMK6KTXSND7YBEHDICBQUQ3S","","144","img/land4.png","75","145","2","1","1","1","1,0.5,0.5,0.5,1,0.5,0.5,0.5,1","1,0.5,0.5,0.5,1,0.5,0.5,0.5,1","","",""
"","html-keyboard-response","186","118104","0.0-186.0","32KTQ2V7RE1QDZCVNGA9G0XH8HI9M4","A39KKDB8CFBGCC","33J5JKFMK6KTXSND7YBEHDICBQUQ3S","","null","<img src=""img/land4.png"" style=""width:200px; border:14px solid green;"">","null","","","","","","","","","",""
"","image-keyboard-response","187","118130","0.0-187.0","32KTQ2V7RE1QDZCVNGA9G0XH8HI9M4","A39KKDB8CFBGCC","33J5JKFMK6KTXSND7YBEHDICBQUQ3S","","24","img/land6.png","75","26","2","0","3","1","1,0.5,0.5,0.5,1,0.5,0.5,0.5,1","1,0.5,0.5,0.5,1,0.5,0.5,0.5,1","","",""
"","html-keyboard-response","188","118432","0.0-188.0","32KTQ2V7RE1QDZCVNGA9G0XH8HI9M4","A39KKDB8CFBGCC","33J5JKFMK6KTXSND7YBEHDICBQUQ3S","","null","<img src=""img/land6.png"" style=""width:200px;border:14px solid red;"">","null","","","","","","","","","",""
"","image-keyboard-response","189","118513","0.0-189.0","32KTQ2V7RE1QDZCVNGA9G0XH8HI9M4","A39KKDB8CFBGCC","33J5JKFMK6KTXSND7YBEHDICBQUQ3S","","81","img/land5.png","75","82","2","1","2","1","1,0.5,0.5,0.5,1,0.5,0.5,0.5,1","1,0.5,0.5,0.5,1,0.5,0.5,0.5,1","","",""
"","html-keyboard-response","190","118815","0.0-190.0","32KTQ2V7RE1QDZCVNGA9G0XH8HI9M4","A39KKDB8CFBGCC","33J5JKFMK6KTXSND7YBEHDICBQUQ3S","","null","<img src=""img/land5.png"" style=""width:200px; border:14px solid green;"">","null","","","","","","","","","",""
"","image-keyboard-response","191","118842","0.0-191.0","32KTQ2V7RE1QDZCVNGA9G0XH8HI9M4","A39KKDB8CFBGCC","33J5JKFMK6KTXSND7YBEHDICBQUQ3S","","27","img/land4.png","74","28","1","1","1","1","1,0.5,0.5,0.5,1,0.5,0.5,0.5,1","1,0.5,0.5,0.5,1,0.5,0.5,0.5,1","","",""
"","html-keyboard-response","192","119143","0.0-192.0","32KTQ2V7RE1QDZCVNGA9G0XH8HI9M4","A39KKDB8CFBGCC","33J5JKFMK6KTXSND7YBEHDICBQUQ3S","","null","<img src=""img/land4.png"" style=""width:200px; border:14px solid green;"">","null","","","","","","","","","",""
"","image-keyboard-response","193","119322","0.0-193.0","32KTQ2V7RE1QDZCVNGA9G0XH8HI9M4","A39KKDB8CFBGCC","33J5JKFMK6KTXSND7YBEHDICBQUQ3S","","178","img/land6.png","74","178","1","1","3","1","1,0.5,0.5,0.5,1,0.5,0.5,0.5,1","1,0.5,0.5,0.5,1,0.5,0.5,0.5,1","","",""
"","html-keyboard-response","194","119625","0.0-194.0","32KTQ2V7RE1QDZCVNGA9G0XH8HI9M4","A39KKDB8CFBGCC","33J5JKFMK6KTXSND7YBEHDICBQUQ3S","","null","<img src=""img/land6.png"" style=""width:200px; border:14px solid green;"">","null","","","","","","","","","",""
"","image-keyboard-response","195","119674","0.0-195.0","32KTQ2V7RE1QDZCVNGA9G0XH8HI9M4","A39KKDB8CFBGCC","33J5JKFMK6KTXSND7YBEHDICBQUQ3S","","48","img/land5.png","74","49","1","1","2","1","1,0.5,0.5,0.5,1,0.5,0.5,0.5,1","1,0.5,0.5,0.5,1,0.5,0.5,0.5,1","","",""
"","html-keyboard-response","196","119977","0.0-196.0","32KTQ2V7RE1QDZCVNGA9G0XH8HI9M4","A39KKDB8CFBGCC","33J5JKFMK6KTXSND7YBEHDICBQUQ3S","","null","<img src=""img/land5.png"" style=""width:200px; border:14px solid green;"">","null","","","","","","","","","",""
"","image-keyboard-response","197","120034","0.0-197.0","32KTQ2V7RE1QDZCVNGA9G0XH8HI9M4","A39KKDB8CFBGCC","33J5JKFMK6KTXSND7YBEHDICBQUQ3S","","55","img/land5.png","76","58","3","1","2","1","1,0.5,0.5,0.5,1,0.5,0.5,0.5,1","1,0.5,0.5,0.5,1,0.5,0.5,0.5,1","","",""
"","html-keyboard-response","198","120336","0.0-198.0","32KTQ2V7RE1QDZCVNGA9G0XH8HI9M4","A39KKDB8CFBGCC","33J5JKFMK6KTXSND7YBEHDICBQUQ3S","","null","<img src=""img/land5.png"" style=""width:200px; border:14px solid green;"">","null","","","","","","","","","",""
"","image-keyboard-response","199","120458","0.0-199.0","32KTQ2V7RE1QDZCVNGA9G0XH8HI9M4","A39KKDB8CFBGCC","33J5JKFMK6KTXSND7YBEHDICBQUQ3S","","119","img/land5.png","74","122","1","1","2","1","1,0.5,0.5,0.5,1,0.5,0.5,0.5,1","1,0.5,0.5,0.5,1,0.5,0.5,0.5,1","","",""
"","html-keyboard-response","200","120760","0.0-200.0","32KTQ2V7RE1QDZCVNGA9G0XH8HI9M4","A39KKDB8CFBGCC","33J5JKFMK6KTXSND7YBEHDICBQUQ3S","","null","<img src=""img/land5.png"" style=""width:200px; border:14px solid green;"">","null","","","","","","","","","",""
"","image-keyboard-response","201","120802","0.0-201.0","32KTQ2V7RE1QDZCVNGA9G0XH8HI9M4","A39KKDB8CFBGCC","33J5JKFMK6KTXSND7YBEHDICBQUQ3S","","40","img/land5.png","76","40","3","0","2","1","1,0.5,0.5,0.5,1,0.5,0.5,0.5,1","1,0.5,0.5,0.5,1,0.5,0.5,0.5,1","","",""
"","html-keyboard-response","202","121104","0.0-202.0","32KTQ2V7RE1QDZCVNGA9G0XH8HI9M4","A39KKDB8CFBGCC","33J5JKFMK6KTXSND7YBEHDICBQUQ3S","","null","<img src=""img/land5.png"" style=""width:200px;border:14px solid red;"">","null","","","","","","","","","",""
"","image-keyboard-response","203","121218","0.0-203.0","32KTQ2V7RE1QDZCVNGA9G0XH8HI9M4","A39KKDB8CFBGCC","33J5JKFMK6KTXSND7YBEHDICBQUQ3S","","112","img/land5.png","74","113","1","0","2","1","1,0.5,0.5,0.5,1,0.5,0.5,0.5,1","1,0.5,0.5,0.5,1,0.5,0.5,0.5,1","","",""
"","html-keyboard-response","204","121519","0.0-204.0","32KTQ2V7RE1QDZCVNGA9G0XH8HI9M4","A39KKDB8CFBGCC","33J5JKFMK6KTXSND7YBEHDICBQUQ3S","","null","<img src=""img/land5.png"" style=""width:200px;border:14px solid red;"">","null","","","","","","","","","",""
"","image-keyboard-response","205","121578","0.0-205.0","32KTQ2V7RE1QDZCVNGA9G0XH8HI9M4","A39KKDB8CFBGCC","33J5JKFMK6KTXSND7YBEHDICBQUQ3S","","58","img/land5.png","76","58","3","1","2","1","1,0.5,0.5,0.5,1,0.5,0.5,0.5,1","1,0.5,0.5,0.5,1,0.5,0.5,0.5,1","","",""
"","html-keyboard-response","206","121892","0.0-206.0","32KTQ2V7RE1QDZCVNGA9G0XH8HI9M4","A39KKDB8CFBGCC","33J5JKFMK6KTXSND7YBEHDICBQUQ3S","","null","<img src=""img/land5.png"" style=""width:200px; border:14px solid green;"">","null","","","","","","","","","",""
"","image-keyboard-response","207","121962","0.0-207.0","32KTQ2V7RE1QDZCVNGA9G0XH8HI9M4","A39KKDB8CFBGCC","33J5JKFMK6KTXSND7YBEHDICBQUQ3S","","70","img/land5.png","76","70","3","1","2","1","1,0.5,0.5,0.5,1,0.5,0.5,0.5,1","1,0.5,0.5,0.5,1,0.5,0.5,0.5,1","","",""
"","html-keyboard-response","208","122264","0.0-208.0","32KTQ2V7RE1QDZCVNGA9G0XH8HI9M4","A39KKDB8CFBGCC","33J5JKFMK6KTXSND7YBEHDICBQUQ3S","","null","<img src=""img/land5.png"" style=""width:200px; border:14px solid green;"">","null","","","","","","","","","",""
"","image-keyboard-response","209","122330","0.0-209.0","32KTQ2V7RE1QDZCVNGA9G0XH8HI9M4","A39KKDB8CFBGCC","33J5JKFMK6KTXSND7YBEHDICBQUQ3S","","65","img/land6.png","75","65","2","0","3","1","1,0.5,0.5,0.5,1,0.5,0.5,0.5,1","1,0.5,0.5,0.5,1,0.5,0.5,0.5,1","","",""
"","html-keyboard-response","210","122631","0.0-210.0","32KTQ2V7RE1QDZCVNGA9G0XH8HI9M4","A39KKDB8CFBGCC","33J5JKFMK6KTXSND7YBEHDICBQUQ3S","","null","<img src=""img/land6.png"" style=""width:200px;border:14px solid red;"">","null","","","","","","","","","",""
"","image-keyboard-response","211","122675","0.0-211.0","32KTQ2V7RE1QDZCVNGA9G0XH8HI9M4","A39KKDB8CFBGCC","33J5JKFMK6KTXSND7YBEHDICBQUQ3S","","42","img/land4.png","75","43","2","1","1","1","1,0.5,0.5,0.5,1,0.5,0.5,0.5,1","1,0.5,0.5,0.5,1,0.5,0.5,0.5,1","","",""
"","html-keyboard-response","212","122976","0.0-212.0","32KTQ2V7RE1QDZCVNGA9G0XH8HI9M4","A39KKDB8CFBGCC","33J5JKFMK6KTXSND7YBEHDICBQUQ3S","","null","<img src=""img/land4.png"" style=""width:200px; border:14px solid green;"">","null","","","","","","","","","",""
"","image-keyboard-response","213","123042","0.0-213.0","32KTQ2V7RE1QDZCVNGA9G0XH8HI9M4","A39KKDB8CFBGCC","33J5JKFMK6KTXSND7YBEHDICBQUQ3S","","62","img/land5.png","75","64","2","1","2","1","1,0.5,0.5,0.5,1,0.5,0.5,0.5,1","1,0.5,0.5,0.5,1,0.5,0.5,0.5,1","","",""
"","html-keyboard-response","214","123344","0.0-214.0","32KTQ2V7RE1QDZCVNGA9G0XH8HI9M4","A39KKDB8CFBGCC","33J5JKFMK6KTXSND7YBEHDICBQUQ3S","","null","<img src=""img/land5.png"" style=""width:200px; border:14px solid green;"">","null","","","","","","","","","",""
"","image-keyboard-response","215","123507","0.0-215.0","32KTQ2V7RE1QDZCVNGA9G0XH8HI9M4","A39KKDB8CFBGCC","33J5JKFMK6KTXSND7YBEHDICBQUQ3S","","162","img/land6.png","75","162","2","0","3","1","1,0.5,0.5,0.5,1,0.5,0.5,0.5,1","1,0.5,0.5,0.5,1,0.5,0.5,0.5,1","","",""
"","html-keyboard-response","216","123809","0.0-216.0","32KTQ2V7RE1QDZCVNGA9G0XH8HI9M4","A39KKDB8CFBGCC","33J5JKFMK6KTXSND7YBEHDICBQUQ3S","","null","<img src=""img/land6.png"" style=""width:200px;border:14px solid red;"">","null","","","","","","","","","",""
"","image-keyboard-response","217","123913","0.0-217.0","32KTQ2V7RE1QDZCVNGA9G0XH8HI9M4","A39KKDB8CFBGCC","33J5JKFMK6KTXSND7YBEHDICBQUQ3S","","104","img/land5.png","75","105","2","1","2","1","1,0.5,0.5,0.5,1,0.5,0.5,0.5,1","1,0.5,0.5,0.5,1,0.5,0.5,0.5,1","","",""
"","html-keyboard-response","218","124215","0.0-218.0","32KTQ2V7RE1QDZCVNGA9G0XH8HI9M4","A39KKDB8CFBGCC","33J5JKFMK6KTXSND7YBEHDICBQUQ3S","","null","<img src=""img/land5.png"" style=""width:200px; border:14px solid green;"">","null","","","","","","","","","",""
"","image-keyboard-response","219","124220","0.0-219.0","32KTQ2V7RE1QDZCVNGA9G0XH8HI9M4","A39KKDB8CFBGCC","33J5JKFMK6KTXSND7YBEHDICBQUQ3S","","3","img/land5.png","76","4","3","1","2","1","1,0.5,0.5,0.5,1,0.5,0.5,0.5,1","1,0.5,0.5,0.5,1,0.5,0.5,0.5,1","","",""
"","html-keyboard-response","220","124521","0.0-220.0","32KTQ2V7RE1QDZCVNGA9G0XH8HI9M4","A39KKDB8CFBGCC","33J5JKFMK6KTXSND7YBEHDICBQUQ3S","","null","<img src=""img/land5.png"" style=""width:200px; border:14px solid green;"">","null","","","","","","","","","",""
"","image-keyboard-response","221","124602","0.0-221.0","32KTQ2V7RE1QDZCVNGA9G0XH8HI9M4","A39KKDB8CFBGCC","33J5JKFMK6KTXSND7YBEHDICBQUQ3S","","79","img/land6.png","75","80","2","0","3","1","1,0.5,0.5,0.5,1,0.5,0.5,0.5,1","1,0.5,0.5,0.5,1,0.5,0.5,0.5,1","","",""
"","html-keyboard-response","222","124904","0.0-222.0","32KTQ2V7RE1QDZCVNGA9G0XH8HI9M4","A39KKDB8CFBGCC","33J5JKFMK6KTXSND7YBEHDICBQUQ3S","","null","<img src=""img/land6.png"" style=""width:200px;border:14px solid red;"">","null","","","","","","","","","",""
"","image-keyboard-response","223","124954","0.0-223.0","32KTQ2V7RE1QDZCVNGA9G0XH8HI9M4","A39KKDB8CFBGCC","33J5JKFMK6KTXSND7YBEHDICBQUQ3S","","49","img/land5.png","75","50","2","1","2","1","1,0.5,0.5,0.5,1,0.5,0.5,0.5,1","1,0.5,0.5,0.5,1,0.5,0.5,0.5,1","","",""
"","html-keyboard-response","224","125256","0.0-224.0","32KTQ2V7RE1QDZCVNGA9G0XH8HI9M4","A39KKDB8CFBGCC","33J5JKFMK6KTXSND7YBEHDICBQUQ3S","","null","<img src=""img/land5.png"" style=""width:200px; border:14px solid green;"">","null","","","","","","","","","",""
"","image-keyboard-response","225","125378","0.0-225.0","32KTQ2V7RE1QDZCVNGA9G0XH8HI9M4","A39KKDB8CFBGCC","33J5JKFMK6KTXSND7YBEHDICBQUQ3S","","120","img/land5.png","74","121","1","1","2","1","1,0.5,0.5,0.5,1,0.5,0.5,0.5,1","1,0.5,0.5,0.5,1,0.5,0.5,0.5,1","","",""
"","html-keyboard-response","226","125679","0.0-226.0","32KTQ2V7RE1QDZCVNGA9G0XH8HI9M4","A39KKDB8CFBGCC","33J5JKFMK6KTXSND7YBEHDICBQUQ3S","","null","<img src=""img/land5.png"" style=""width:200px; border:14px solid green;"">","null","","","","","","","","","",""
"","image-keyboard-response","227","125795","0.0-227.0","32KTQ2V7RE1QDZCVNGA9G0XH8HI9M4","A39KKDB8CFBGCC","33J5JKFMK6KTXSND7YBEHDICBQUQ3S","","114","img/land5.png","76","117","3","1","2","1","1,0.5,0.5,0.5,1,0.5,0.5,0.5,1","1,0.5,0.5,0.5,1,0.5,0.5,0.5,1","","",""
"","html-keyboard-response","228","126097","0.0-228.0","32KTQ2V7RE1QDZCVNGA9G0XH8HI9M4","A39KKDB8CFBGCC","33J5JKFMK6KTXSND7YBEHDICBQUQ3S","","null","<img src=""img/land5.png"" style=""width:200px; border:14px solid green;"">","null","","","","","","","","","",""
"","image-keyboard-response","229","126106","0.0-229.0","32KTQ2V7RE1QDZCVNGA9G0XH8HI9M4","A39KKDB8CFBGCC","33J5JKFMK6KTXSND7YBEHDICBQUQ3S","","7","img/land5.png","76","8","3","0","2","1","1,0.5,0.5,0.5,1,0.5,0.5,0.5,1","1,0.5,0.5,0.5,1,0.5,0.5,0.5,1","","",""
"","html-keyboard-response","230","126410","0.0-230.0","32KTQ2V7RE1QDZCVNGA9G0XH8HI9M4","A39KKDB8CFBGCC","33J5JKFMK6KTXSND7YBEHDICBQUQ3S","","null","<img src=""img/land5.png"" style=""width:200px;border:14px solid red;"">","null","","","","","","","","","",""
"","image-keyboard-response","231","126426","0.0-231.0","32KTQ2V7RE1QDZCVNGA9G0XH8HI9M4","A39KKDB8CFBGCC","33J5JKFMK6KTXSND7YBEHDICBQUQ3S","","15","img/land6.png","74","17","1","0","3","1","1,0.5,0.5,0.5,1,0.5,0.5,0.5,1","1,0.5,0.5,0.5,1,0.5,0.5,0.5,1","","",""
"","html-keyboard-response","232","126729","0.0-232.0","32KTQ2V7RE1QDZCVNGA9G0XH8HI9M4","A39KKDB8CFBGCC","33J5JKFMK6KTXSND7YBEHDICBQUQ3S","","null","<img src=""img/land6.png"" style=""width:200px;border:14px solid red;"">","null","","","","","","","","","",""
"","image-keyboard-response","233","126826","0.0-233.0","32KTQ2V7RE1QDZCVNGA9G0XH8HI9M4","A39KKDB8CFBGCC","33J5JKFMK6KTXSND7YBEHDICBQUQ3S","","96","img/land5.png","76","97","3","0","2","1","1,0.5,0.5,0.5,1,0.5,0.5,0.5,1","1,0.5,0.5,0.5,1,0.5,0.5,0.5,1","","",""
"","html-keyboard-response","234","127129","0.0-234.0","32KTQ2V7RE1QDZCVNGA9G0XH8HI9M4","A39KKDB8CFBGCC","33J5JKFMK6KTXSND7YBEHDICBQUQ3S","","null","<img src=""img/land5.png"" style=""width:200px;border:14px solid red;"">","null","","","","","","","","","",""
"","image-keyboard-response","235","127194","0.0-235.0","32KTQ2V7RE1QDZCVNGA9G0XH8HI9M4","A39KKDB8CFBGCC","33J5JKFMK6KTXSND7YBEHDICBQUQ3S","","64","img/land5.png","76","65","3","1","2","1","1,0.5,0.5,0.5,1,0.5,0.5,0.5,1","1,0.5,0.5,0.5,1,0.5,0.5,0.5,1","","",""
"","html-keyboard-response","236","127497","0.0-236.0","32KTQ2V7RE1QDZCVNGA9G0XH8HI9M4","A39KKDB8CFBGCC","33J5JKFMK6KTXSND7YBEHDICBQUQ3S","","null","<img src=""img/land5.png"" style=""width:200px; border:14px solid green;"">","null","","","","","","","","","",""
"","image-keyboard-response","237","127586","0.0-237.0","32KTQ2V7RE1QDZCVNGA9G0XH8HI9M4","A39KKDB8CFBGCC","33J5JKFMK6KTXSND7YBEHDICBQUQ3S","","87","img/land6.png","74","88","1","0","3","1","1,0.5,0.5,0.5,1,0.5,0.5,0.5,1","1,0.5,0.5,0.5,1,0.5,0.5,0.5,1","","",""
"","html-keyboard-response","238","127888","0.0-238.0","32KTQ2V7RE1QDZCVNGA9G0XH8HI9M4","A39KKDB8CFBGCC","33J5JKFMK6KTXSND7YBEHDICBQUQ3S","","null","<img src=""img/land6.png"" style=""width:200px;border:14px solid red;"">","null","","","","","","","","","",""
"","image-keyboard-response","239","127994","0.0-239.0","32KTQ2V7RE1QDZCVNGA9G0XH8HI9M4","A39KKDB8CFBGCC","33J5JKFMK6KTXSND7YBEHDICBQUQ3S","","103","img/land4.png","76","106","3","1","1","1","1,0.5,0.5,0.5,1,0.5,0.5,0.5,1","1,0.5,0.5,0.5,1,0.5,0.5,0.5,1","","",""
"","html-keyboard-response","240","128296","0.0-240.0","32KTQ2V7RE1QDZCVNGA9G0XH8HI9M4","A39KKDB8CFBGCC","33J5JKFMK6KTXSND7YBEHDICBQUQ3S","","null","<img src=""img/land4.png"" style=""width:200px; border:14px solid green;"">","null","","","","","","","","","",""
"","image-keyboard-response","241","128418","0.0-241.0","32KTQ2V7RE1QDZCVNGA9G0XH8HI9M4","A39KKDB8CFBGCC","33J5JKFMK6KTXSND7YBEHDICBQUQ3S","","122","img/land4.png","76","122","3","1","1","1","1,0.5,0.5,0.5,1,0.5,0.5,0.5,1","1,0.5,0.5,0.5,1,0.5,0.5,0.5,1","","",""
"","html-keyboard-response","242","128719","0.0-242.0","32KTQ2V7RE1QDZCVNGA9G0XH8HI9M4","A39KKDB8CFBGCC","33J5JKFMK6KTXSND7YBEHDICBQUQ3S","","null","<img src=""img/land4.png"" style=""width:200px; border:14px solid green;"">","null","","","","","","","","","",""
"","image-keyboard-response","243","128794","0.0-243.0","32KTQ2V7RE1QDZCVNGA9G0XH8HI9M4","A39KKDB8CFBGCC","33J5JKFMK6KTXSND7YBEHDICBQUQ3S","","73","img/land6.png","75","74","2","1","3","1","1,0.5,0.5,0.5,1,0.5,0.5,0.5,1","1,0.5,0.5,0.5,1,0.5,0.5,0.5,1","","",""
"","html-keyboard-response","244","129096","0.0-244.0","32KTQ2V7RE1QDZCVNGA9G0XH8HI9M4","A39KKDB8CFBGCC","33J5JKFMK6KTXSND7YBEHDICBQUQ3S","","null","<img src=""img/land6.png"" style=""width:200px; border:14px solid green;"">","null","","","","","","","","","",""
"","image-keyboard-response","245","129162","0.0-245.0","32KTQ2V7RE1QDZCVNGA9G0XH8HI9M4","A39KKDB8CFBGCC","33J5JKFMK6KTXSND7YBEHDICBQUQ3S","","65","img/land5.png","75","66","2","1","2","1","1,0.5,0.5,0.5,1,0.5,0.5,0.5,1","1,0.5,0.5,0.5,1,0.5,0.5,0.5,1","","",""
"","html-keyboard-response","246","129464","0.0-246.0","32KTQ2V7RE1QDZCVNGA9G0XH8HI9M4","A39KKDB8CFBGCC","33J5JKFMK6KTXSND7YBEHDICBQUQ3S","","null","<img src=""img/land5.png"" style=""width:200px; border:14px solid green;"">","null","","","","","","","","","",""
"","image-keyboard-response","247","129578","0.0-247.0","32KTQ2V7RE1QDZCVNGA9G0XH8HI9M4","A39KKDB8CFBGCC","33J5JKFMK6KTXSND7YBEHDICBQUQ3S","","114","img/land6.png","75","114","2","0","3","1","1,0.5,0.5,0.5,1,0.5,0.5,0.5,1","1,0.5,0.5,0.5,1,0.5,0.5,0.5,1","","",""
"","html-keyboard-response","248","129880","0.0-248.0","32KTQ2V7RE1QDZCVNGA9G0XH8HI9M4","A39KKDB8CFBGCC","33J5JKFMK6KTXSND7YBEHDICBQUQ3S","","null","<img src=""img/land6.png"" style=""width:200px;border:14px solid red;"">","null","","","","","","","","","",""
"","image-keyboard-response","249","129962","0.0-249.0","32KTQ2V7RE1QDZCVNGA9G0XH8HI9M4","A39KKDB8CFBGCC","33J5JKFMK6KTXSND7YBEHDICBQUQ3S","","81","img/land5.png","74","81","1","0","2","1","1,0.5,0.5,0.5,1,0.5,0.5,0.5,1","1,0.5,0.5,0.5,1,0.5,0.5,0.5,1","","",""
"","html-keyboard-response","250","130263","0.0-250.0","32KTQ2V7RE1QDZCVNGA9G0XH8HI9M4","A39KKDB8CFBGCC","33J5JKFMK6KTXSND7YBEHDICBQUQ3S","","null","<img src=""img/land5.png"" style=""width:200px;border:14px solid red;"">","null","","","","","","","","","",""
"","image-keyboard-response","251","130482","0.0-251.0","32KTQ2V7RE1QDZCVNGA9G0XH8HI9M4","A39KKDB8CFBGCC","33J5JKFMK6KTXSND7YBEHDICBQUQ3S","","218","img/land5.png","74","218","1","1","2","1","1,0.5,0.5,0.5,1,0.5,0.5,0.5,1","1,0.5,0.5,0.5,1,0.5,0.5,0.5,1","","",""
"","html-keyboard-response","252","130784","0.0-252.0","32KTQ2V7RE1QDZCVNGA9G0XH8HI9M4","A39KKDB8CFBGCC","33J5JKFMK6KTXSND7YBEHDICBQUQ3S","","null","<img src=""img/land5.png"" style=""width:200px; border:14px solid green;"">","null","","","","","","","","","",""
"","image-keyboard-response","253","130842","0.0-253.0","32KTQ2V7RE1QDZCVNGA9G0XH8HI9M4","A39KKDB8CFBGCC","33J5JKFMK6KTXSND7YBEHDICBQUQ3S","","56","img/land5.png","75","58","2","1","2","1","1,0.5,0.5,0.5,1,0.5,0.5,0.5,1","1,0.5,0.5,0.5,1,0.5,0.5,0.5,1","","",""
"","html-keyboard-response","254","131145","0.0-254.0","32KTQ2V7RE1QDZCVNGA9G0XH8HI9M4","A39KKDB8CFBGCC","33J5JKFMK6KTXSND7YBEHDICBQUQ3S","","null","<img src=""img/land5.png"" style=""width:200px; border:14px solid green;"">","null","","","","","","","","","",""
"","image-keyboard-response","255","131242","0.0-255.0","32KTQ2V7RE1QDZCVNGA9G0XH8HI9M4","A39KKDB8CFBGCC","33J5JKFMK6KTXSND7YBEHDICBQUQ3S","","96","img/land6.png","76","97","3","1","3","1","1,0.5,0.5,0.5,1,0.5,0.5,0.5,1","1,0.5,0.5,0.5,1,0.5,0.5,0.5,1","","",""
"","html-keyboard-response","256","131545","0.0-256.0","32KTQ2V7RE1QDZCVNGA9G0XH8HI9M4","A39KKDB8CFBGCC","33J5JKFMK6KTXSND7YBEHDICBQUQ3S","","null","<img src=""img/land6.png"" style=""width:200px; border:14px solid green;"">","null","","","","","","","","","",""
"","image-keyboard-response","257","131610","0.0-257.0","32KTQ2V7RE1QDZCVNGA9G0XH8HI9M4","A39KKDB8CFBGCC","33J5JKFMK6KTXSND7YBEHDICBQUQ3S","","64","img/land5.png","75","65","2","1","2","1","1,0.5,0.5,0.5,1,0.5,0.5,0.5,1","1,0.5,0.5,0.5,1,0.5,0.5,0.5,1","","",""
"","html-keyboard-response","258","131912","0.0-258.0","32KTQ2V7RE1QDZCVNGA9G0XH8HI9M4","A39KKDB8CFBGCC","33J5JKFMK6KTXSND7YBEHDICBQUQ3S","","null","<img src=""img/land5.png"" style=""width:200px; border:14px solid green;"">","null","","","","","","","","","",""
"","image-keyboard-response","259","131914","0.0-259.0","32KTQ2V7RE1QDZCVNGA9G0XH8HI9M4","A39KKDB8CFBGCC","33J5JKFMK6KTXSND7YBEHDICBQUQ3S","","0","img/land4.png","74","1","1","1","1","1","1,0.5,0.5,0.5,1,0.5,0.5,0.5,1","1,0.5,0.5,0.5,1,0.5,0.5,0.5,1","","",""
"","html-keyboard-response","260","132216","0.0-260.0","32KTQ2V7RE1QDZCVNGA9G0XH8HI9M4","A39KKDB8CFBGCC","33J5JKFMK6KTXSND7YBEHDICBQUQ3S","","null","<img src=""img/land4.png"" style=""width:200px; border:14px solid green;"">","null","","","","","","","","","",""
"","image-keyboard-response","261","132291","0.0-261.0","32KTQ2V7RE1QDZCVNGA9G0XH8HI9M4","A39KKDB8CFBGCC","33J5JKFMK6KTXSND7YBEHDICBQUQ3S","","74","img/land5.png","76","75","3","1","2","1","1,0.5,0.5,0.5,1,0.5,0.5,0.5,1","1,0.5,0.5,0.5,1,0.5,0.5,0.5,1","","",""
"","html-keyboard-response","262","132593","0.0-262.0","32KTQ2V7RE1QDZCVNGA9G0XH8HI9M4","A39KKDB8CFBGCC","33J5JKFMK6KTXSND7YBEHDICBQUQ3S","","null","<img src=""img/land5.png"" style=""width:200px; border:14px solid green;"">","null","","","","","","","","","",""
"","image-keyboard-response","263","132626","0.0-263.0","32KTQ2V7RE1QDZCVNGA9G0XH8HI9M4","A39KKDB8CFBGCC","33J5JKFMK6KTXSND7YBEHDICBQUQ3S","","32","img/land5.png","75","33","2","1","2","1","1,0.5,0.5,0.5,1,0.5,0.5,0.5,1","1,0.5,0.5,0.5,1,0.5,0.5,0.5,1","","",""
"","html-keyboard-response","264","132928","0.0-264.0","32KTQ2V7RE1QDZCVNGA9G0XH8HI9M4","A39KKDB8CFBGCC","33J5JKFMK6KTXSND7YBEHDICBQUQ3S","","null","<img src=""img/land5.png"" style=""width:200px; border:14px solid green;"">","null","","","","","","","","","",""
"","image-keyboard-response","265","132970","0.0-265.0","32KTQ2V7RE1QDZCVNGA9G0XH8HI9M4","A39KKDB8CFBGCC","33J5JKFMK6KTXSND7YBEHDICBQUQ3S","","41","img/land5.png","74","42","1","0","2","1","1,0.5,0.5,0.5,1,0.5,0.5,0.5,1","1,0.5,0.5,0.5,1,0.5,0.5,0.5,1","","",""
"","html-keyboard-response","266","133274","0.0-266.0","32KTQ2V7RE1QDZCVNGA9G0XH8HI9M4","A39KKDB8CFBGCC","33J5JKFMK6KTXSND7YBEHDICBQUQ3S","","null","<img src=""img/land5.png"" style=""width:200px;border:14px solid red;"">","null","","","","","","","","","",""
"","image-keyboard-response","267","133394","0.0-267.0","32KTQ2V7RE1QDZCVNGA9G0XH8HI9M4","A39KKDB8CFBGCC","33J5JKFMK6KTXSND7YBEHDICBQUQ3S","","118","img/land5.png","74","120","1","1","2","1","1,0.5,0.5,0.5,1,0.5,0.5,0.5,1","1,0.5,0.5,0.5,1,0.5,0.5,0.5,1","","",""
"","html-keyboard-response","268","133696","0.0-268.0","32KTQ2V7RE1QDZCVNGA9G0XH8HI9M4","A39KKDB8CFBGCC","33J5JKFMK6KTXSND7YBEHDICBQUQ3S","","null","<img src=""img/land5.png"" style=""width:200px; border:14px solid green;"">","null","","","","","","","","","",""
"","image-keyboard-response","269","133842","0.0-269.0","32KTQ2V7RE1QDZCVNGA9G0XH8HI9M4","A39KKDB8CFBGCC","33J5JKFMK6KTXSND7YBEHDICBQUQ3S","","146","img/land5.png","75","147","2","1","2","1","1,0.5,0.5,0.5,1,0.5,0.5,0.5,1","1,0.5,0.5,0.5,1,0.5,0.5,0.5,1","","",""
"","html-keyboard-response","270","134144","0.0-270.0","32KTQ2V7RE1QDZCVNGA9G0XH8HI9M4","A39KKDB8CFBGCC","33J5JKFMK6KTXSND7YBEHDICBQUQ3S","","null","<img src=""img/land5.png"" style=""width:200px; border:14px solid green;"">","null","","","","","","","","","",""
"","image-keyboard-response","271","134249","0.0-271.0","32KTQ2V7RE1QDZCVNGA9G0XH8HI9M4","A39KKDB8CFBGCC","33J5JKFMK6KTXSND7YBEHDICBQUQ3S","","104","img/land5.png","76","105","3","1","2","1","1,0.5,0.5,0.5,1,0.5,0.5,0.5,1","1,0.5,0.5,0.5,1,0.5,0.5,0.5,1","","",""
"","html-keyboard-response","272","134551","0.0-272.0","32KTQ2V7RE1QDZCVNGA9G0XH8HI9M4","A39KKDB8CFBGCC","33J5JKFMK6KTXSND7YBEHDICBQUQ3S","","null","<img src=""img/land5.png"" style=""width:200px; border:14px solid green;"">","null","","","","","","","","","",""
"","image-keyboard-response","273","134634","0.0-273.0","32KTQ2V7RE1QDZCVNGA9G0XH8HI9M4","A39KKDB8CFBGCC","33J5JKFMK6KTXSND7YBEHDICBQUQ3S","","81","img/land5.png","75","82","2","1","2","1","1,0.5,0.5,0.5,1,0.5,0.5,0.5,1","1,0.5,0.5,0.5,1,0.5,0.5,0.5,1","","",""
"","html-keyboard-response","274","134945","0.0-274.0","32KTQ2V7RE1QDZCVNGA9G0XH8HI9M4","A39KKDB8CFBGCC","33J5JKFMK6KTXSND7YBEHDICBQUQ3S","","null","<img src=""img/land5.png"" style=""width:200px; border:14px solid green;"">","null","","","","","","","","","",""
"","image-keyboard-response","275","135011","0.0-275.0","32KTQ2V7RE1QDZCVNGA9G0XH8HI9M4","A39KKDB8CFBGCC","33J5JKFMK6KTXSND7YBEHDICBQUQ3S","","64","img/land6.png","75","66","2","1","3","1","1,0.5,0.5,0.5,1,0.5,0.5,0.5,1","1,0.5,0.5,0.5,1,0.5,0.5,0.5,1","","",""
"","html-keyboard-response","276","135313","0.0-276.0","32KTQ2V7RE1QDZCVNGA9G0XH8HI9M4","A39KKDB8CFBGCC","33J5JKFMK6KTXSND7YBEHDICBQUQ3S","","null","<img src=""img/land6.png"" style=""width:200px; border:14px solid green;"">","null","","","","","","","","","",""
"","image-keyboard-response","277","135514","0.0-277.0","32KTQ2V7RE1QDZCVNGA9G0XH8HI9M4","A39KKDB8CFBGCC","33J5JKFMK6KTXSND7YBEHDICBQUQ3S","","200","img/land5.png","75","200","2","1","2","1","1,0.5,0.5,0.5,1,0.5,0.5,0.5,1","1,0.5,0.5,0.5,1,0.5,0.5,0.5,1","","",""
"","html-keyboard-response","278","135816","0.0-278.0","32KTQ2V7RE1QDZCVNGA9G0XH8HI9M4","A39KKDB8CFBGCC","33J5JKFMK6KTXSND7YBEHDICBQUQ3S","","null","<img src=""img/land5.png"" style=""width:200px; border:14px solid green;"">","null","","","","","","","","","",""
"","image-keyboard-response","279","135914","0.0-279.0","32KTQ2V7RE1QDZCVNGA9G0XH8HI9M4","A39KKDB8CFBGCC","33J5JKFMK6KTXSND7YBEHDICBQUQ3S","","96","img/land6.png","75","97","2","1","3","1","1,0.5,0.5,0.5,1,0.5,0.5,0.5,1","1,0.5,0.5,0.5,1,0.5,0.5,0.5,1","","",""
"","html-keyboard-response","280","136216","0.0-280.0","32KTQ2V7RE1QDZCVNGA9G0XH8HI9M4","A39KKDB8CFBGCC","33J5JKFMK6KTXSND7YBEHDICBQUQ3S","","null","<img src=""img/land6.png"" style=""width:200px; border:14px solid green;"">","null","","","","","","","","","",""
"","image-keyboard-response","281","136354","0.0-281.0","32KTQ2V7RE1QDZCVNGA9G0XH8HI9M4","A39KKDB8CFBGCC","33J5JKFMK6KTXSND7YBEHDICBQUQ3S","","136","img/land5.png","75","137","2","1","2","1","1,0.5,0.5,0.5,1,0.5,0.5,0.5,1","1,0.5,0.5,0.5,1,0.5,0.5,0.5,1","","",""
"","html-keyboard-response","282","136656","0.0-282.0","32KTQ2V7RE1QDZCVNGA9G0XH8HI9M4","A39KKDB8CFBGCC","33J5JKFMK6KTXSND7YBEHDICBQUQ3S","","null","<img src=""img/land5.png"" style=""width:200px; border:14px solid green;"">","null","","","","","","","","","",""
"","image-keyboard-response","283","136690","0.0-283.0","32KTQ2V7RE1QDZCVNGA9G0XH8HI9M4","A39KKDB8CFBGCC","33J5JKFMK6KTXSND7YBEHDICBQUQ3S","","33","img/land4.png","75","34","2","1","1","1","1,0.5,0.5,0.5,1,0.5,0.5,0.5,1","1,0.5,0.5,0.5,1,0.5,0.5,0.5,1","","",""
"","html-keyboard-response","284","136993","0.0-284.0","32KTQ2V7RE1QDZCVNGA9G0XH8HI9M4","A39KKDB8CFBGCC","33J5JKFMK6KTXSND7YBEHDICBQUQ3S","","null","<img src=""img/land4.png"" style=""width:200px; border:14px solid green;"">","null","","","","","","","","","",""
"","image-keyboard-response","285","137162","0.0-285.0","32KTQ2V7RE1QDZCVNGA9G0XH8HI9M4","A39KKDB8CFBGCC","33J5JKFMK6KTXSND7YBEHDICBQUQ3S","","168","img/land6.png","75","169","2","1","3","1","1,0.5,0.5,0.5,1,0.5,0.5,0.5,1","1,0.5,0.5,0.5,1,0.5,0.5,0.5,1","","",""
"","html-keyboard-response","286","137464","0.0-286.0","32KTQ2V7RE1QDZCVNGA9G0XH8HI9M4","A39KKDB8CFBGCC","33J5JKFMK6KTXSND7YBEHDICBQUQ3S","","null","<img src=""img/land6.png"" style=""width:200px; border:14px solid green;"">","null","","","","","","","","","",""
"","image-keyboard-response","287","137538","0.0-287.0","32KTQ2V7RE1QDZCVNGA9G0XH8HI9M4","A39KKDB8CFBGCC","33J5JKFMK6KTXSND7YBEHDICBQUQ3S","","73","img/land4.png","75","74","2","0","1","1","1,0.5,0.5,0.5,1,0.5,0.5,0.5,1","1,0.5,0.5,0.5,1,0.5,0.5,0.5,1","","",""
"","html-keyboard-response","288","137841","0.0-288.0","32KTQ2V7RE1QDZCVNGA9G0XH8HI9M4","A39KKDB8CFBGCC","33J5JKFMK6KTXSND7YBEHDICBQUQ3S","","null","<img src=""img/land4.png"" style=""width:200px;border:14px solid red;"">","null","","","","","","","","","",""
"","image-keyboard-response","289","138018","0.0-289.0","32KTQ2V7RE1QDZCVNGA9G0XH8HI9M4","A39KKDB8CFBGCC","33J5JKFMK6KTXSND7YBEHDICBQUQ3S","","175","img/land4.png","75","176","2","1","1","1","1,0.5,0.5,0.5,1,0.5,0.5,0.5,1","1,0.5,0.5,0.5,1,0.5,0.5,0.5,1","","",""
"","html-keyboard-response","290","138320","0.0-290.0","32KTQ2V7RE1QDZCVNGA9G0XH8HI9M4","A39KKDB8CFBGCC","33J5JKFMK6KTXSND7YBEHDICBQUQ3S","","null","<img src=""img/land4.png"" style=""width:200px; border:14px solid green;"">","null","","","","","","","","","",""
"","image-keyboard-response","291","138442","0.0-291.0","32KTQ2V7RE1QDZCVNGA9G0XH8HI9M4","A39KKDB8CFBGCC","33J5JKFMK6KTXSND7YBEHDICBQUQ3S","","121","img/land5.png","75","122","2","1","2","1","1,0.5,0.5,0.5,1,0.5,0.5,0.5,1","1,0.5,0.5,0.5,1,0.5,0.5,0.5,1","","",""
"","html-keyboard-response","292","138744","0.0-292.0","32KTQ2V7RE1QDZCVNGA9G0XH8HI9M4","A39KKDB8CFBGCC","33J5JKFMK6KTXSND7YBEHDICBQUQ3S","","null","<img src=""img/land5.png"" style=""width:200px; border:14px solid green;"">","null","","","","","","","","","",""
"","image-keyboard-response","293","138914","0.0-293.0","32KTQ2V7RE1QDZCVNGA9G0XH8HI9M4","A39KKDB8CFBGCC","33J5JKFMK6KTXSND7YBEHDICBQUQ3S","","169","img/land5.png","75","171","2","1","2","1","1,0.5,0.5,0.5,1,0.5,0.5,0.5,1","1,0.5,0.5,0.5,1,0.5,0.5,0.5,1","","",""
"","html-keyboard-response","294","139215","0.0-294.0","32KTQ2V7RE1QDZCVNGA9G0XH8HI9M4","A39KKDB8CFBGCC","33J5JKFMK6KTXSND7YBEHDICBQUQ3S","","null","<img src=""img/land5.png"" style=""width:200px; border:14px solid green;"">","null","","","","","","","","","",""
"","image-keyboard-response","295","139346","0.0-295.0","32KTQ2V7RE1QDZCVNGA9G0XH8HI9M4","A39KKDB8CFBGCC","33J5JKFMK6KTXSND7YBEHDICBQUQ3S","","129","img/land5.png","75","130","2","1","2","1","1,0.5,0.5,0.5,1,0.5,0.5,0.5,1","1,0.5,0.5,0.5,1,0.5,0.5,0.5,1","","",""
"","html-keyboard-response","296","139649","0.0-296.0","32KTQ2V7RE1QDZCVNGA9G0XH8HI9M4","A39KKDB8CFBGCC","33J5JKFMK6KTXSND7YBEHDICBQUQ3S","","null","<img src=""img/land5.png"" style=""width:200px; border:14px solid green;"">","null","","","","","","","","","",""
"","image-keyboard-response","297","139978","0.0-297.0","32KTQ2V7RE1QDZCVNGA9G0XH8HI9M4","A39KKDB8CFBGCC","33J5JKFMK6KTXSND7YBEHDICBQUQ3S","","328","img/land4.png","75","328","2","1","1","1","1,0.5,0.5,0.5,1,0.5,0.5,0.5,1","1,0.5,0.5,0.5,1,0.5,0.5,0.5,1","","",""
"","html-keyboard-response","298","140281","0.0-298.0","32KTQ2V7RE1QDZCVNGA9G0XH8HI9M4","A39KKDB8CFBGCC","33J5JKFMK6KTXSND7YBEHDICBQUQ3S","","null","<img src=""img/land4.png"" style=""width:200px; border:14px solid green;"">","null","","","","","","","","","",""
"","image-keyboard-response","299","140346","0.0-299.0","32KTQ2V7RE1QDZCVNGA9G0XH8HI9M4","A39KKDB8CFBGCC","33J5JKFMK6KTXSND7YBEHDICBQUQ3S","","65","img/land5.png","74","65","1","1","2","1","1,0.5,0.5,0.5,1,0.5,0.5,0.5,1","1,0.5,0.5,0.5,1,0.5,0.5,0.5,1","","",""
"","html-keyboard-response","300","140648","0.0-300.0","32KTQ2V7RE1QDZCVNGA9G0XH8HI9M4","A39KKDB8CFBGCC","33J5JKFMK6KTXSND7YBEHDICBQUQ3S","","null","<img src=""img/land5.png"" style=""width:200px; border:14px solid green;"">","null","","","","","","","","","",""
"","image-keyboard-response","301","140666","0.0-301.0","32KTQ2V7RE1QDZCVNGA9G0XH8HI9M4","A39KKDB8CFBGCC","33J5JKFMK6KTXSND7YBEHDICBQUQ3S","","17","img/land5.png","76","18","3","1","2","1","1,0.5,0.5,0.5,1,0.5,0.5,0.5,1","1,0.5,0.5,0.5,1,0.5,0.5,0.5,1","","",""
"","html-keyboard-response","302","140968","0.0-302.0","32KTQ2V7RE1QDZCVNGA9G0XH8HI9M4","A39KKDB8CFBGCC","33J5JKFMK6KTXSND7YBEHDICBQUQ3S","","null","<img src=""img/land5.png"" style=""width:200px; border:14px solid green;"">","null","","","","","","","","","",""
"","image-keyboard-response","303","141050","0.0-303.0","32KTQ2V7RE1QDZCVNGA9G0XH8HI9M4","A39KKDB8CFBGCC","33J5JKFMK6KTXSND7YBEHDICBQUQ3S","","80","img/land5.png","76","81","3","0","2","1","1,0.5,0.5,0.5,1,0.5,0.5,0.5,1","1,0.5,0.5,0.5,1,0.5,0.5,0.5,1","","",""
"","html-keyboard-response","304","141351","0.0-304.0","32KTQ2V7RE1QDZCVNGA9G0XH8HI9M4","A39KKDB8CFBGCC","33J5JKFMK6KTXSND7YBEHDICBQUQ3S","","null","<img src=""img/land5.png"" style=""width:200px;border:14px solid red;"">","null","","","","","","","","","",""
"","image-keyboard-response","305","141433","0.0-305.0","32KTQ2V7RE1QDZCVNGA9G0XH8HI9M4","A39KKDB8CFBGCC","33J5JKFMK6KTXSND7YBEHDICBQUQ3S","","81","img/land6.png","74","82","1","0","3","1","1,0.5,0.5,0.5,1,0.5,0.5,0.5,1","1,0.5,0.5,0.5,1,0.5,0.5,0.5,1","","",""
"","html-keyboard-response","306","141734","0.0-306.0","32KTQ2V7RE1QDZCVNGA9G0XH8HI9M4","A39KKDB8CFBGCC","33J5JKFMK6KTXSND7YBEHDICBQUQ3S","","null","<img src=""img/land6.png"" style=""width:200px;border:14px solid red;"">","null","","","","","","","","","",""
"","image-keyboard-response","307","141741","0.0-307.0","32KTQ2V7RE1QDZCVNGA9G0XH8HI9M4","A39KKDB8CFBGCC","33J5JKFMK6KTXSND7YBEHDICBQUQ3S","","5","img/land5.png","75","5","2","1","2","1","1,0.5,0.5,0.5,1,0.5,0.5,0.5,1","1,0.5,0.5,0.5,1,0.5,0.5,0.5,1","","",""
"","html-keyboard-response","308","142043","0.0-308.0","32KTQ2V7RE1QDZCVNGA9G0XH8HI9M4","A39KKDB8CFBGCC","33J5JKFMK6KTXSND7YBEHDICBQUQ3S","","null","<img src=""img/land5.png"" style=""width:200px; border:14px solid green;"">","null","","","","","","","","","",""
"","image-keyboard-response","309","142097","0.0-309.0","32KTQ2V7RE1QDZCVNGA9G0XH8HI9M4","A39KKDB8CFBGCC","33J5JKFMK6KTXSND7YBEHDICBQUQ3S","","53","img/land5.png","75","54","2","1","2","1","1,0.5,0.5,0.5,1,0.5,0.5,0.5,1","1,0.5,0.5,0.5,1,0.5,0.5,0.5,1","","",""
"","html-keyboard-response","310","142399","0.0-310.0","32KTQ2V7RE1QDZCVNGA9G0XH8HI9M4","A39KKDB8CFBGCC","33J5JKFMK6KTXSND7YBEHDICBQUQ3S","","null","<img src=""img/land5.png"" style=""width:200px; border:14px solid green;"">","null","","","","","","","","","",""
"","image-keyboard-response","311","142562","0.0-311.0","32KTQ2V7RE1QDZCVNGA9G0XH8HI9M4","A39KKDB8CFBGCC","33J5JKFMK6KTXSND7YBEHDICBQUQ3S","","161","img/land5.png","74","163","1","0","2","1","1,0.5,0.5,0.5,1,0.5,0.5,0.5,1","1,0.5,0.5,0.5,1,0.5,0.5,0.5,1","","",""
"","html-keyboard-response","312","142864","0.0-312.0","32KTQ2V7RE1QDZCVNGA9G0XH8HI9M4","A39KKDB8CFBGCC","33J5JKFMK6KTXSND7YBEHDICBQUQ3S","","null","<img src=""img/land5.png"" style=""width:200px;border:14px solid red;"">","null","","","","","","","","","",""
"","image-keyboard-response","313","142907","0.0-313.0","32KTQ2V7RE1QDZCVNGA9G0XH8HI9M4","A39KKDB8CFBGCC","33J5JKFMK6KTXSND7YBEHDICBQUQ3S","","41","img/land6.png","74","42","1","1","3","1","1,0.5,0.5,0.5,1,0.5,0.5,0.5,1","1,0.5,0.5,0.5,1,0.5,0.5,0.5,1","","",""
"","html-keyboard-response","314","143209","0.0-314.0","32KTQ2V7RE1QDZCVNGA9G0XH8HI9M4","A39KKDB8CFBGCC","33J5JKFMK6KTXSND7YBEHDICBQUQ3S","","null","<img src=""img/land6.png"" style=""width:200px; border:14px solid green;"">","null","","","","","","","","","",""
"","image-keyboard-response","315","143274","0.0-315.0","32KTQ2V7RE1QDZCVNGA9G0XH8HI9M4","A39KKDB8CFBGCC","33J5JKFMK6KTXSND7YBEHDICBQUQ3S","","63","img/land5.png","74","64","1","1","2","1","1,0.5,0.5,0.5,1,0.5,0.5,0.5,1","1,0.5,0.5,0.5,1,0.5,0.5,0.5,1","","",""
"","html-keyboard-response","316","143577","0.0-316.0","32KTQ2V7RE1QDZCVNGA9G0XH8HI9M4","A39KKDB8CFBGCC","33J5JKFMK6KTXSND7YBEHDICBQUQ3S","","null","<img src=""img/land5.png"" style=""width:200px; border:14px solid green;"">","null","","","","","","","","","",""
"","image-keyboard-response","317","143578","0.0-317.0","32KTQ2V7RE1QDZCVNGA9G0XH8HI9M4","A39KKDB8CFBGCC","33J5JKFMK6KTXSND7YBEHDICBQUQ3S","","0","img/land4.png","74","0","1","1","1","1","1,0.5,0.5,0.5,1,0.5,0.5,0.5,1","1,0.5,0.5,0.5,1,0.5,0.5,0.5,1","","",""
"","html-keyboard-response","318","143881","0.0-318.0","32KTQ2V7RE1QDZCVNGA9G0XH8HI9M4","A39KKDB8CFBGCC","33J5JKFMK6KTXSND7YBEHDICBQUQ3S","","null","<img src=""img/land4.png"" style=""width:200px; border:14px solid green;"">","null","","","","","","","","","",""
"","image-keyboard-response","319","143930","0.0-319.0","32KTQ2V7RE1QDZCVNGA9G0XH8HI9M4","A39KKDB8CFBGCC","33J5JKFMK6KTXSND7YBEHDICBQUQ3S","","47","img/land6.png","74","49","1","0","3","1","1,0.5,0.5,0.5,1,0.5,0.5,0.5,1","1,0.5,0.5,0.5,1,0.5,0.5,0.5,1","","",""
"","html-keyboard-response","320","144231","0.0-320.0","32KTQ2V7RE1QDZCVNGA9G0XH8HI9M4","A39KKDB8CFBGCC","33J5JKFMK6KTXSND7YBEHDICBQUQ3S","","null","<img src=""img/land6.png"" style=""width:200px;border:14px solid red;"">","null","","","","","","","","","",""
"","image-keyboard-response","321","144249","0.0-321.0","32KTQ2V7RE1QDZCVNGA9G0XH8HI9M4","A39KKDB8CFBGCC","33J5JKFMK6KTXSND7YBEHDICBQUQ3S","","18","img/land4.png","74","18","1","1","1","1","1,0.5,0.5,0.5,1,0.5,0.5,0.5,1","1,0.5,0.5,0.5,1,0.5,0.5,0.5,1","","",""
"","html-keyboard-response","322","144551","0.0-322.0","32KTQ2V7RE1QDZCVNGA9G0XH8HI9M4","A39KKDB8CFBGCC","33J5JKFMK6KTXSND7YBEHDICBQUQ3S","","null","<img src=""img/land4.png"" style=""width:200px; border:14px solid green;"">","null","","","","","","","","","",""
"","image-keyboard-response","323","144586","0.0-323.0","32KTQ2V7RE1QDZCVNGA9G0XH8HI9M4","A39KKDB8CFBGCC","33J5JKFMK6KTXSND7YBEHDICBQUQ3S","","34","img/land5.png","74","35","1","0","2","1","1,0.5,0.5,0.5,1,0.5,0.5,0.5,1","1,0.5,0.5,0.5,1,0.5,0.5,0.5,1","","",""
"","html-keyboard-response","324","144888","0.0-324.0","32KTQ2V7RE1QDZCVNGA9G0XH8HI9M4","A39KKDB8CFBGCC","33J5JKFMK6KTXSND7YBEHDICBQUQ3S","","null","<img src=""img/land5.png"" style=""width:200px;border:14px solid red;"">","null","","","","","","","","","",""
"","image-keyboard-response","325","144898","0.0-325.0","32KTQ2V7RE1QDZCVNGA9G0XH8HI9M4","A39KKDB8CFBGCC","33J5JKFMK6KTXSND7YBEHDICBQUQ3S","","9","img/land6.png","74","11","1","1","3","1","1,0.5,0.5,0.5,1,0.5,0.5,0.5,1","1,0.5,0.5,0.5,1,0.5,0.5,0.5,1","","",""
"","html-keyboard-response","326","145201","0.0-326.0","32KTQ2V7RE1QDZCVNGA9G0XH8HI9M4","A39KKDB8CFBGCC","33J5JKFMK6KTXSND7YBEHDICBQUQ3S","","null","<img src=""img/land6.png"" style=""width:200px; border:14px solid green;"">","null","","","","","","","","","",""
"","image-keyboard-response","327","145266","0.0-327.0","32KTQ2V7RE1QDZCVNGA9G0XH8HI9M4","A39KKDB8CFBGCC","33J5JKFMK6KTXSND7YBEHDICBQUQ3S","","64","img/land5.png","74","65","1","1","2","1","1,0.5,0.5,0.5,1,0.5,0.5,0.5,1","1,0.5,0.5,0.5,1,0.5,0.5,0.5,1","","",""
"","html-keyboard-response","328","145579","0.0-328.0","32KTQ2V7RE1QDZCVNGA9G0XH8HI9M4","A39KKDB8CFBGCC","33J5JKFMK6KTXSND7YBEHDICBQUQ3S","","null","<img src=""img/land5.png"" style=""width:200px; border:14px solid green;"">","null","","","","","","","","","",""
"","image-keyboard-response","329","145618","0.0-329.0","32KTQ2V7RE1QDZCVNGA9G0XH8HI9M4","A39KKDB8CFBGCC","33J5JKFMK6KTXSND7YBEHDICBQUQ3S","","39","img/land5.png","74","40","1","1","2","1","1,0.5,0.5,0.5,1,0.5,0.5,0.5,1","1,0.5,0.5,0.5,1,0.5,0.5,0.5,1","","",""
"","html-keyboard-response","330","145921","0.0-330.0","32KTQ2V7RE1QDZCVNGA9G0XH8HI9M4","A39KKDB8CFBGCC","33J5JKFMK6KTXSND7YBEHDICBQUQ3S","","null","<img src=""img/land5.png"" style=""width:200px; border:14px solid green;"">","null","","","","","","","","","",""
"","image-keyboard-response","331","145970","0.0-331.0","32KTQ2V7RE1QDZCVNGA9G0XH8HI9M4","A39KKDB8CFBGCC","33J5JKFMK6KTXSND7YBEHDICBQUQ3S","","48","img/land5.png","74","48","1","0","2","1","1,0.5,0.5,0.5,1,0.5,0.5,0.5,1","1,0.5,0.5,0.5,1,0.5,0.5,0.5,1","","",""
"","html-keyboard-response","332","146271","0.0-332.0","32KTQ2V7RE1QDZCVNGA9G0XH8HI9M4","A39KKDB8CFBGCC","33J5JKFMK6KTXSND7YBEHDICBQUQ3S","","null","<img src=""img/land5.png"" style=""width:200px;border:14px solid red;"">","null","","","","","","","","","",""
"","image-keyboard-response","333","146297","0.0-333.0","32KTQ2V7RE1QDZCVNGA9G0XH8HI9M4","A39KKDB8CFBGCC","33J5JKFMK6KTXSND7YBEHDICBQUQ3S","","23","img/land6.png","74","25","1","1","3","1","1,0.5,0.5,0.5,1,0.5,0.5,0.5,1","1,0.5,0.5,0.5,1,0.5,0.5,0.5,1","","",""
"","html-keyboard-response","334","146599","0.0-334.0","32KTQ2V7RE1QDZCVNGA9G0XH8HI9M4","A39KKDB8CFBGCC","33J5JKFMK6KTXSND7YBEHDICBQUQ3S","","null","<img src=""img/land6.png"" style=""width:200px; border:14px solid green;"">","null","","","","","","","","","",""
"","image-keyboard-response","335","146682","0.0-335.0","32KTQ2V7RE1QDZCVNGA9G0XH8HI9M4","A39KKDB8CFBGCC","33J5JKFMK6KTXSND7YBEHDICBQUQ3S","","81","img/land5.png","75","82","2","1","2","1","1,0.5,0.5,0.5,1,0.5,0.5,0.5,1","1,0.5,0.5,0.5,1,0.5,0.5,0.5,1","","",""
"","html-keyboard-response","336","146983","0.0-336.0","32KTQ2V7RE1QDZCVNGA9G0XH8HI9M4","A39KKDB8CFBGCC","33J5JKFMK6KTXSND7YBEHDICBQUQ3S","","null","<img src=""img/land5.png"" style=""width:200px; border:14px solid green;"">","null","","","","","","","","","",""
"","image-keyboard-response","337","147075","0.0-337.0","32KTQ2V7RE1QDZCVNGA9G0XH8HI9M4","A39KKDB8CFBGCC","33J5JKFMK6KTXSND7YBEHDICBQUQ3S","","91","img/land6.png","75","91","2","0","3","1","1,0.5,0.5,0.5,1,0.5,0.5,0.5,1","1,0.5,0.5,0.5,1,0.5,0.5,0.5,1","","",""
"","html-keyboard-response","338","147378","0.0-338.0","32KTQ2V7RE1QDZCVNGA9G0XH8HI9M4","A39KKDB8CFBGCC","33J5JKFMK6KTXSND7YBEHDICBQUQ3S","","null","<img src=""img/land6.png"" style=""width:200px;border:14px solid red;"">","null","","","","","","","","","",""
"","image-keyboard-response","339","147443","0.0-339.0","32KTQ2V7RE1QDZCVNGA9G0XH8HI9M4","A39KKDB8CFBGCC","33J5JKFMK6KTXSND7YBEHDICBQUQ3S","","63","img/land4.png","75","64","2","0","1","1","1,0.5,0.5,0.5,1,0.5,0.5,0.5,1","1,0.5,0.5,0.5,1,0.5,0.5,0.5,1","","",""
"","html-keyboard-response","340","147745","0.0-340.0","32KTQ2V7RE1QDZCVNGA9G0XH8HI9M4","A39KKDB8CFBGCC","33J5JKFMK6KTXSND7YBEHDICBQUQ3S","","null","<img src=""img/land4.png"" style=""width:200px;border:14px solid red;"">","null","","","","","","","","","",""
"","image-keyboard-response","341","147834","0.0-341.0","32KTQ2V7RE1QDZCVNGA9G0XH8HI9M4","A39KKDB8CFBGCC","33J5JKFMK6KTXSND7YBEHDICBQUQ3S","","87","img/land5.png","75","88","2","1","2","1","1,0.5,0.5,0.5,1,0.5,0.5,0.5,1","1,0.5,0.5,0.5,1,0.5,0.5,0.5,1","","",""
"","html-keyboard-response","342","148136","0.0-342.0","32KTQ2V7RE1QDZCVNGA9G0XH8HI9M4","A39KKDB8CFBGCC","33J5JKFMK6KTXSND7YBEHDICBQUQ3S","","null","<img src=""img/land5.png"" style=""width:200px; border:14px solid green;"">","null","","","","","","","","","",""
"","image-keyboard-response","343","148201","0.0-343.0","32KTQ2V7RE1QDZCVNGA9G0XH8HI9M4","A39KKDB8CFBGCC","33J5JKFMK6KTXSND7YBEHDICBQUQ3S","","64","img/land4.png","75","65","2","0","1","1","1,0.5,0.5,0.5,1,0.5,0.5,0.5,1","1,0.5,0.5,0.5,1,0.5,0.5,0.5,1","","",""
"","html-keyboard-response","344","148503","0.0-344.0","32KTQ2V7RE1QDZCVNGA9G0XH8HI9M4","A39KKDB8CFBGCC","33J5JKFMK6KTXSND7YBEHDICBQUQ3S","","null","<img src=""img/land4.png"" style=""width:200px;border:14px solid red;"">","null","","","","","","","","","",""
"","image-keyboard-response","345","148530","0.0-345.0","32KTQ2V7RE1QDZCVNGA9G0XH8HI9M4","A39KKDB8CFBGCC","33J5JKFMK6KTXSND7YBEHDICBQUQ3S","","25","img/land6.png","75","25","2","1","3","1","1,0.5,0.5,0.5,1,0.5,0.5,0.5,1","1,0.5,0.5,0.5,1,0.5,0.5,0.5,1","","",""
"","html-keyboard-response","346","148832","0.0-346.0","32KTQ2V7RE1QDZCVNGA9G0XH8HI9M4","A39KKDB8CFBGCC","33J5JKFMK6KTXSND7YBEHDICBQUQ3S","","null","<img src=""img/land6.png"" style=""width:200px; border:14px solid green;"">","null","","","","","","","","","",""
"","image-keyboard-response","347","148890","0.0-347.0","32KTQ2V7RE1QDZCVNGA9G0XH8HI9M4","A39KKDB8CFBGCC","33J5JKFMK6KTXSND7YBEHDICBQUQ3S","","56","img/land5.png","75","58","2","1","2","1","1,0.5,0.5,0.5,1,0.5,0.5,0.5,1","1,0.5,0.5,0.5,1,0.5,0.5,0.5,1","","",""
"","html-keyboard-response","348","149192","0.0-348.0","32KTQ2V7RE1QDZCVNGA9G0XH8HI9M4","A39KKDB8CFBGCC","33J5JKFMK6KTXSND7YBEHDICBQUQ3S","","null","<img src=""img/land5.png"" style=""width:200px; border:14px solid green;"">","null","","","","","","","","","",""
"","image-keyboard-response","349","149218","0.0-349.0","32KTQ2V7RE1QDZCVNGA9G0XH8HI9M4","A39KKDB8CFBGCC","33J5JKFMK6KTXSND7YBEHDICBQUQ3S","","25","img/land5.png","75","25","2","1","2","1","1,0.5,0.5,0.5,1,0.5,0.5,0.5,1","1,0.5,0.5,0.5,1,0.5,0.5,0.5,1","","",""
"","html-keyboard-response","350","149525","0.0-350.0","32KTQ2V7RE1QDZCVNGA9G0XH8HI9M4","A39KKDB8CFBGCC","33J5JKFMK6KTXSND7YBEHDICBQUQ3S","","null","<img src=""img/land5.png"" style=""width:200px; border:14px solid green;"">","null","","","","","","","","","",""
"","image-keyboard-response","351","149594","0.0-351.0","32KTQ2V7RE1QDZCVNGA9G0XH8HI9M4","A39KKDB8CFBGCC","33J5JKFMK6KTXSND7YBEHDICBQUQ3S","","67","img/land5.png","75","69","2","1","2","1","1,0.5,0.5,0.5,1,0.5,0.5,0.5,1","1,0.5,0.5,0.5,1,0.5,0.5,0.5,1","","",""
"","html-keyboard-response","352","149896","0.0-352.0","32KTQ2V7RE1QDZCVNGA9G0XH8HI9M4","A39KKDB8CFBGCC","33J5JKFMK6KTXSND7YBEHDICBQUQ3S","","null","<img src=""img/land5.png"" style=""width:200px; border:14px solid green;"">","null","","","","","","","","","",""
"","image-keyboard-response","353","149946","0.0-353.0","32KTQ2V7RE1QDZCVNGA9G0XH8HI9M4","A39KKDB8CFBGCC","33J5JKFMK6KTXSND7YBEHDICBQUQ3S","","49","img/land6.png","75","50","2","0","3","1","1,0.5,0.5,0.5,1,0.5,0.5,0.5,1","1,0.5,0.5,0.5,1,0.5,0.5,0.5,1","","",""
"","html-keyboard-response","354","150248","0.0-354.0","32KTQ2V7RE1QDZCVNGA9G0XH8HI9M4","A39KKDB8CFBGCC","33J5JKFMK6KTXSND7YBEHDICBQUQ3S","","null","<img src=""img/land6.png"" style=""width:200px;border:14px solid red;"">","null","","","","","","","","","",""
"","image-keyboard-response","355","150291","0.0-355.0","32KTQ2V7RE1QDZCVNGA9G0XH8HI9M4","A39KKDB8CFBGCC","33J5JKFMK6KTXSND7YBEHDICBQUQ3S","","42","img/land5.png","75","43","2","1","2","1","1,0.5,0.5,0.5,1,0.5,0.5,0.5,1","1,0.5,0.5,0.5,1,0.5,0.5,0.5,1","","",""
"","html-keyboard-response","356","150594","0.0-356.0","32KTQ2V7RE1QDZCVNGA9G0XH8HI9M4","A39KKDB8CFBGCC","33J5JKFMK6KTXSND7YBEHDICBQUQ3S","","null","<img src=""img/land5.png"" style=""width:200px; border:14px solid green;"">","null","","","","","","","","","",""
"","image-keyboard-response","357","150666","0.0-357.0","32KTQ2V7RE1QDZCVNGA9G0XH8HI9M4","A39KKDB8CFBGCC","33J5JKFMK6KTXSND7YBEHDICBQUQ3S","","70","img/land5.png","75","71","2","1","2","1","1,0.5,0.5,0.5,1,0.5,0.5,0.5,1","1,0.5,0.5,0.5,1,0.5,0.5,0.5,1","","",""
"","html-keyboard-response","358","150967","0.0-358.0","32KTQ2V7RE1QDZCVNGA9G0XH8HI9M4","A39KKDB8CFBGCC","33J5JKFMK6KTXSND7YBEHDICBQUQ3S","","null","<img src=""img/land5.png"" style=""width:200px; border:14px solid green;"">","null","","","","","","","","","",""
"","image-keyboard-response","359","151002","0.0-359.0","32KTQ2V7RE1QDZCVNGA9G0XH8HI9M4","A39KKDB8CFBGCC","33J5JKFMK6KTXSND7YBEHDICBQUQ3S","","34","img/land5.png","75","34","2","1","2","1","1,0.5,0.5,0.5,1,0.5,0.5,0.5,1","1,0.5,0.5,0.5,1,0.5,0.5,0.5,1","","",""
"","html-keyboard-response","360","151303","0.0-360.0","32KTQ2V7RE1QDZCVNGA9G0XH8HI9M4","A39KKDB8CFBGCC","33J5JKFMK6KTXSND7YBEHDICBQUQ3S","","null","<img src=""img/land5.png"" style=""width:200px; border:14px solid green;"">","null","","","","","","","","","",""
"","image-keyboard-response","361","151346","0.0-361.0","32KTQ2V7RE1QDZCVNGA9G0XH8HI9M4","A39KKDB8CFBGCC","33J5JKFMK6KTXSND7YBEHDICBQUQ3S","","43","img/land5.png","75","43","2","1","2","1","1,0.5,0.5,0.5,1,0.5,0.5,0.5,1","1,0.5,0.5,0.5,1,0.5,0.5,0.5,1","","",""
"","html-keyboard-response","362","151647","0.0-362.0","32KTQ2V7RE1QDZCVNGA9G0XH8HI9M4","A39KKDB8CFBGCC","33J5JKFMK6KTXSND7YBEHDICBQUQ3S","","null","<img src=""img/land5.png"" style=""width:200px; border:14px solid green;"">","null","","","","","","","","","",""
"","image-keyboard-response","363","151698","0.0-363.0","32KTQ2V7RE1QDZCVNGA9G0XH8HI9M4","A39KKDB8CFBGCC","33J5JKFMK6KTXSND7YBEHDICBQUQ3S","","49","img/land5.png","75","50","2","1","2","1","1,0.5,0.5,0.5,1,0.5,0.5,0.5,1","1,0.5,0.5,0.5,1,0.5,0.5,0.5,1","","",""
"","html-keyboard-response","364","151999","0.0-364.0","32KTQ2V7RE1QDZCVNGA9G0XH8HI9M4","A39KKDB8CFBGCC","33J5JKFMK6KTXSND7YBEHDICBQUQ3S","","null","<img src=""img/land5.png"" style=""width:200px; border:14px solid green;"">","null","","","","","","","","","",""
"","image-keyboard-response","365","152075","0.0-365.0","32KTQ2V7RE1QDZCVNGA9G0XH8HI9M4","A39KKDB8CFBGCC","33J5JKFMK6KTXSND7YBEHDICBQUQ3S","","74","img/land4.png","75","75","2","1","1","1","1,0.5,0.5,0.5,1,0.5,0.5,0.5,1","1,0.5,0.5,0.5,1,0.5,0.5,0.5,1","","",""
"","html-keyboard-response","366","152378","0.0-366.0","32KTQ2V7RE1QDZCVNGA9G0XH8HI9M4","A39KKDB8CFBGCC","33J5JKFMK6KTXSND7YBEHDICBQUQ3S","","null","<img src=""img/land4.png"" style=""width:200px; border:14px solid green;"">","null","","","","","","","","","",""
"","image-keyboard-response","367","152427","0.0-367.0","32KTQ2V7RE1QDZCVNGA9G0XH8HI9M4","A39KKDB8CFBGCC","33J5JKFMK6KTXSND7YBEHDICBQUQ3S","","47","img/land6.png","75","49","2","1","3","1","1,0.5,0.5,0.5,1,0.5,0.5,0.5,1","1,0.5,0.5,0.5,1,0.5,0.5,0.5,1","","",""
"","html-keyboard-response","368","152729","0.0-368.0","32KTQ2V7RE1QDZCVNGA9G0XH8HI9M4","A39KKDB8CFBGCC","33J5JKFMK6KTXSND7YBEHDICBQUQ3S","","null","<img src=""img/land6.png"" style=""width:200px; border:14px solid green;"">","null","","","","","","","","","",""
"","image-keyboard-response","369","152786","0.0-369.0","32KTQ2V7RE1QDZCVNGA9G0XH8HI9M4","A39KKDB8CFBGCC","33J5JKFMK6KTXSND7YBEHDICBQUQ3S","","55","img/land5.png","75","56","2","1","2","1","1,0.5,0.5,0.5,1,0.5,0.5,0.5,1","1,0.5,0.5,0.5,1,0.5,0.5,0.5,1","","",""
"","html-keyboard-response","370","153088","0.0-370.0","32KTQ2V7RE1QDZCVNGA9G0XH8HI9M4","A39KKDB8CFBGCC","33J5JKFMK6KTXSND7YBEHDICBQUQ3S","","null","<img src=""img/land5.png"" style=""width:200px; border:14px solid green;"">","null","","","","","","","","","",""
"","image-keyboard-response","371","153178","0.0-371.0","32KTQ2V7RE1QDZCVNGA9G0XH8HI9M4","A39KKDB8CFBGCC","33J5JKFMK6KTXSND7YBEHDICBQUQ3S","","89","img/land6.png","75","90","2","0","3","1","1,0.5,0.5,0.5,1,0.5,0.5,0.5,1","1,0.5,0.5,0.5,1,0.5,0.5,0.5,1","","",""
"","html-keyboard-response","372","153485","0.0-372.0","32KTQ2V7RE1QDZCVNGA9G0XH8HI9M4","A39KKDB8CFBGCC","33J5JKFMK6KTXSND7YBEHDICBQUQ3S","","null","<img src=""img/land6.png"" style=""width:200px;border:14px solid red;"">","null","","","","","","","","","",""
"","image-keyboard-response","373","153546","0.0-373.0","32KTQ2V7RE1QDZCVNGA9G0XH8HI9M4","A39KKDB8CFBGCC","33J5JKFMK6KTXSND7YBEHDICBQUQ3S","","59","img/land5.png","75","61","2","1","2","1","1,0.5,0.5,0.5,1,0.5,0.5,0.5,1","1,0.5,0.5,0.5,1,0.5,0.5,0.5,1","","",""
"","html-keyboard-response","374","153849","0.0-374.0","32KTQ2V7RE1QDZCVNGA9G0XH8HI9M4","A39KKDB8CFBGCC","33J5JKFMK6KTXSND7YBEHDICBQUQ3S","","null","<img src=""img/land5.png"" style=""width:200px; border:14px solid green;"">","null","","","","","","","","","",""
"","image-keyboard-response","375","153938","0.0-375.0","32KTQ2V7RE1QDZCVNGA9G0XH8HI9M4","A39KKDB8CFBGCC","33J5JKFMK6KTXSND7YBEHDICBQUQ3S","","87","img/land6.png","75","89","2","1","3","1","1,0.5,0.5,0.5,1,0.5,0.5,0.5,1","1,0.5,0.5,0.5,1,0.5,0.5,0.5,1","","",""
"","html-keyboard-response","376","154241","0.0-376.0","32KTQ2V7RE1QDZCVNGA9G0XH8HI9M4","A39KKDB8CFBGCC","33J5JKFMK6KTXSND7YBEHDICBQUQ3S","","null","<img src=""img/land6.png"" style=""width:200px; border:14px solid green;"">","null","","","","","","","","","",""
"","image-keyboard-response","377","154313","0.0-377.0","32KTQ2V7RE1QDZCVNGA9G0XH8HI9M4","A39KKDB8CFBGCC","33J5JKFMK6KTXSND7YBEHDICBQUQ3S","","71","img/land5.png","75","72","2","1","2","1","1,0.5,0.5,0.5,1,0.5,0.5,0.5,1","1,0.5,0.5,0.5,1,0.5,0.5,0.5,1","","",""
"","html-keyboard-response","378","154614","0.0-378.0","32KTQ2V7RE1QDZCVNGA9G0XH8HI9M4","A39KKDB8CFBGCC","33J5JKFMK6KTXSND7YBEHDICBQUQ3S","","null","<img src=""img/land5.png"" style=""width:200px; border:14px solid green;"">","null","","","","","","","","","",""
"","image-keyboard-response","379","154921","0.0-379.0","32KTQ2V7RE1QDZCVNGA9G0XH8HI9M4","A39KKDB8CFBGCC","33J5JKFMK6KTXSND7YBEHDICBQUQ3S","","306","img/land5.png","74","307","1","0","2","1","1,0.5,0.5,0.5,1,0.5,0.5,0.5,1","1,0.5,0.5,0.5,1,0.5,0.5,0.5,1","","",""
"","html-keyboard-response","380","155225","0.0-380.0","32KTQ2V7RE1QDZCVNGA9G0XH8HI9M4","A39KKDB8CFBGCC","33J5JKFMK6KTXSND7YBEHDICBQUQ3S","","null","<img src=""img/land5.png"" style=""width:200px;border:14px solid red;"">","null","","","","","","","","","",""
