"success","trial_type","trial_index","time_elapsed","internal_node_id","assignmentID","mturkID","hitID","view_history","rt","stimulus","key_press","reactionTime","a","r","s","cond","reward_cond","reward_cond_actual","reward_matrix_idx","responses","question_order"
"true","fullscreen","0","2638","0.0-0.0","3PS7W85Z80OUQU2FWDBL2ES93869T0","A3ADQ2RLQNJQDU","36U4VBVNQOZD8NFWZXWF9CIHKRIURB","","","","","","","","","","","","","",""
"","instructions","1","34425","0.0-1.0","3PS7W85Z80OUQU2FWDBL2ES93869T0","A3ADQ2RLQNJQDU","36U4VBVNQOZD8NFWZXWF9CIHKRIURB","[{""page_index"":0,""viewing_time"":4638.299999999814},{""page_index"":1,""viewing_time"":3816.600000000093},{""page_index"":2,""viewing_time"":4457.600000000093},{""page_index"":3,""viewing_time"":3446.600000000093},{""page_index"":4,""viewing_time"":4293.699999999721},{""page_index"":5,""viewing_time"":10196},{""page_index"":6,""viewing_time"":930}]","31780.5","","","","","","","","","","","",""
"","image-keyboard-response","2","35345","0.0-2.0","3PS7W85Z80OUQU2FWDBL2ES93869T0","A3ADQ2RLQNJQDU","36U4VBVNQOZD8NFWZXWF9CIHKRIURB","","912","img/land6.png","74","918","1","0","1","2","0.8,0.2,0.2,0.2,0.8,0.2,0.2,0.2,0.8","0.2,0.8,0.2,0.2,0.2,0.8,0.8,0.2,0.2","3","",""
"","html-keyboard-response","3","35651","0.0-3.0","3PS7W85Z80OUQU2FWDBL2ES93869T0","A3ADQ2RLQNJQDU","36U4VBVNQOZD8NFWZXWF9CIHKRIURB","","null","<img src=""img/land6.png"" style=""width:200px;border:14px solid red;"">","null","","","","","","","","","",""
"","image-keyboard-response","4","35808","0.0-4.0","3PS7W85Z80OUQU2FWDBL2ES93869T0","A3ADQ2RLQNJQDU","36U4VBVNQOZD8NFWZXWF9CIHKRIURB","","153.20000000018626","img/land6.png","75","156.29999999981374","2","0","1","2","0.8,0.2,0.2,0.2,0.8,0.2,0.2,0.2,0.8","0.2,0.8,0.2,0.2,0.2,0.8,0.8,0.2,0.2","3","",""
"","html-keyboard-response","5","36112","0.0-5.0","3PS7W85Z80OUQU2FWDBL2ES93869T0","A3ADQ2RLQNJQDU","36U4VBVNQOZD8NFWZXWF9CIHKRIURB","","null","<img src=""img/land6.png"" style=""width:200px;border:14px solid red;"">","null","","","","","","","","","",""
"","image-keyboard-response","6","36352","0.0-6.0","3PS7W85Z80OUQU2FWDBL2ES93869T0","A3ADQ2RLQNJQDU","36U4VBVNQOZD8NFWZXWF9CIHKRIURB","","236.60000000009313","img/land1.png","76","239.60000000009313","3","1","2","2","0.8,0.2,0.2,0.2,0.8,0.2,0.2,0.2,0.8","0.2,0.8,0.2,0.2,0.2,0.8,0.8,0.2,0.2","3","",""
"","html-keyboard-response","7","36656","0.0-7.0","3PS7W85Z80OUQU2FWDBL2ES93869T0","A3ADQ2RLQNJQDU","36U4VBVNQOZD8NFWZXWF9CIHKRIURB","","null","<img src=""img/land1.png"" style=""width:200px; border:14px solid green;"">","null","","","","","","","","","",""
"","image-keyboard-response","8","36816","0.0-8.0","3PS7W85Z80OUQU2FWDBL2ES93869T0","A3ADQ2RLQNJQDU","36U4VBVNQOZD8NFWZXWF9CIHKRIURB","","155.6999999997206","img/land1.png","76","158.90000000037253","3","1","2","2","0.8,0.2,0.2,0.2,0.8,0.2,0.2,0.2,0.8","0.2,0.8,0.2,0.2,0.2,0.8,0.8,0.2,0.2","3","",""
"","html-keyboard-response","9","37119","0.0-9.0","3PS7W85Z80OUQU2FWDBL2ES93869T0","A3ADQ2RLQNJQDU","36U4VBVNQOZD8NFWZXWF9CIHKRIURB","","null","<img src=""img/land1.png"" style=""width:200px; border:14px solid green;"">","null","","","","","","","","","",""
"","image-keyboard-response","10","37123","0.0-10.0","3PS7W85Z80OUQU2FWDBL2ES93869T0","A3ADQ2RLQNJQDU","36U4VBVNQOZD8NFWZXWF9CIHKRIURB","","0.5","img/land3.png","76","3.2999999998137355","3","1","3","2","0.8,0.2,0.2,0.2,0.8,0.2,0.2,0.2,0.8","0.2,0.8,0.2,0.2,0.2,0.8,0.8,0.2,0.2","3","",""
"","html-keyboard-response","11","37427","0.0-11.0","3PS7W85Z80OUQU2FWDBL2ES93869T0","A3ADQ2RLQNJQDU","36U4VBVNQOZD8NFWZXWF9CIHKRIURB","","null","<img src=""img/land3.png"" style=""width:200px; border:14px solid green;"">","null","","","","","","","","","",""
"","image-keyboard-response","12","37520","0.0-12.0","3PS7W85Z80OUQU2FWDBL2ES93869T0","A3ADQ2RLQNJQDU","36U4VBVNQOZD8NFWZXWF9CIHKRIURB","","89.10000000009313","img/land3.png","74","92.5","1","1","3","2","0.8,0.2,0.2,0.2,0.8,0.2,0.2,0.2,0.8","0.2,0.8,0.2,0.2,0.2,0.8,0.8,0.2,0.2","3","",""
"","html-keyboard-response","13","37824","0.0-13.0","3PS7W85Z80OUQU2FWDBL2ES93869T0","A3ADQ2RLQNJQDU","36U4VBVNQOZD8NFWZXWF9CIHKRIURB","","null","<img src=""img/land3.png"" style=""width:200px; border:14px solid green;"">","null","","","","","","","","","",""
"","image-keyboard-response","14","37936","0.0-14.0","3PS7W85Z80OUQU2FWDBL2ES93869T0","A3ADQ2RLQNJQDU","36U4VBVNQOZD8NFWZXWF9CIHKRIURB","","108","img/land6.png","76","111.10000000009313","3","0","1","2","0.8,0.2,0.2,0.2,0.8,0.2,0.2,0.2,0.8","0.2,0.8,0.2,0.2,0.2,0.8,0.8,0.2,0.2","3","",""
"","html-keyboard-response","15","38240","0.0-15.0","3PS7W85Z80OUQU2FWDBL2ES93869T0","A3ADQ2RLQNJQDU","36U4VBVNQOZD8NFWZXWF9CIHKRIURB","","null","<img src=""img/land6.png"" style=""width:200px;border:14px solid red;"">","null","","","","","","","","","",""
"","image-keyboard-response","16","38400","0.0-16.0","3PS7W85Z80OUQU2FWDBL2ES93869T0","A3ADQ2RLQNJQDU","36U4VBVNQOZD8NFWZXWF9CIHKRIURB","","156.1999999997206","img/land6.png","74","159.20000000018626","1","0","1","2","0.8,0.2,0.2,0.2,0.8,0.2,0.2,0.2,0.8","0.2,0.8,0.2,0.2,0.2,0.8,0.8,0.2,0.2","3","",""
"","html-keyboard-response","17","38703","0.0-17.0","3PS7W85Z80OUQU2FWDBL2ES93869T0","A3ADQ2RLQNJQDU","36U4VBVNQOZD8NFWZXWF9CIHKRIURB","","null","<img src=""img/land6.png"" style=""width:200px;border:14px solid red;"">","null","","","","","","","","","",""
"","image-keyboard-response","18","38912","0.0-18.0","3PS7W85Z80OUQU2FWDBL2ES93869T0","A3ADQ2RLQNJQDU","36U4VBVNQOZD8NFWZXWF9CIHKRIURB","","205.40000000037253","img/land1.png","76","208.39999999990687","3","0","2","2","0.8,0.2,0.2,0.2,0.8,0.2,0.2,0.2,0.8","0.2,0.8,0.2,0.2,0.2,0.8,0.8,0.2,0.2","3","",""
"","html-keyboard-response","19","39215","0.0-19.0","3PS7W85Z80OUQU2FWDBL2ES93869T0","A3ADQ2RLQNJQDU","36U4VBVNQOZD8NFWZXWF9CIHKRIURB","","null","<img src=""img/land1.png"" style=""width:200px;border:14px solid red;"">","null","","","","","","","","","",""
"","image-keyboard-response","20","39457","0.0-20.0","3PS7W85Z80OUQU2FWDBL2ES93869T0","A3ADQ2RLQNJQDU","36U4VBVNQOZD8NFWZXWF9CIHKRIURB","","237.59999999962747","img/land6.png","76","240.89999999990687","3","0","1","2","0.8,0.2,0.2,0.2,0.8,0.2,0.2,0.2,0.8","0.2,0.8,0.2,0.2,0.2,0.8,0.8,0.2,0.2","3","",""
"","html-keyboard-response","21","39761","0.0-21.0","3PS7W85Z80OUQU2FWDBL2ES93869T0","A3ADQ2RLQNJQDU","36U4VBVNQOZD8NFWZXWF9CIHKRIURB","","null","<img src=""img/land6.png"" style=""width:200px;border:14px solid red;"">","null","","","","","","","","","",""
"","image-keyboard-response","22","39840","0.0-22.0","3PS7W85Z80OUQU2FWDBL2ES93869T0","A3ADQ2RLQNJQDU","36U4VBVNQOZD8NFWZXWF9CIHKRIURB","","75.70000000018626","img/land1.png","75","78.6999999997206","2","0","2","2","0.8,0.2,0.2,0.2,0.8,0.2,0.2,0.2,0.8","0.2,0.8,0.2,0.2,0.2,0.8,0.8,0.2,0.2","3","",""
"","html-keyboard-response","23","40144","0.0-23.0","3PS7W85Z80OUQU2FWDBL2ES93869T0","A3ADQ2RLQNJQDU","36U4VBVNQOZD8NFWZXWF9CIHKRIURB","","null","<img src=""img/land1.png"" style=""width:200px;border:14px solid red;"">","null","","","","","","","","","",""
"","image-keyboard-response","24","40432","0.0-24.0","3PS7W85Z80OUQU2FWDBL2ES93869T0","A3ADQ2RLQNJQDU","36U4VBVNQOZD8NFWZXWF9CIHKRIURB","","284.6999999997206","img/land6.png","75","287","2","1","1","2","0.8,0.2,0.2,0.2,0.8,0.2,0.2,0.2,0.8","0.2,0.8,0.2,0.2,0.2,0.8,0.8,0.2,0.2","3","",""
"","html-keyboard-response","25","40734","0.0-25.0","3PS7W85Z80OUQU2FWDBL2ES93869T0","A3ADQ2RLQNJQDU","36U4VBVNQOZD8NFWZXWF9CIHKRIURB","","null","<img src=""img/land6.png"" style=""width:200px; border:14px solid green;"">","null","","","","","","","","","",""
"","image-keyboard-response","26","40992","0.0-26.0","3PS7W85Z80OUQU2FWDBL2ES93869T0","A3ADQ2RLQNJQDU","36U4VBVNQOZD8NFWZXWF9CIHKRIURB","","255","img/land6.png","75","257.70000000018626","2","1","1","2","0.8,0.2,0.2,0.2,0.8,0.2,0.2,0.2,0.8","0.2,0.8,0.2,0.2,0.2,0.8,0.8,0.2,0.2","3","",""
"","html-keyboard-response","27","41297","0.0-27.0","3PS7W85Z80OUQU2FWDBL2ES93869T0","A3ADQ2RLQNJQDU","36U4VBVNQOZD8NFWZXWF9CIHKRIURB","","null","<img src=""img/land6.png"" style=""width:200px; border:14px solid green;"">","null","","","","","","","","","",""
"","image-keyboard-response","28","41520","0.0-28.0","3PS7W85Z80OUQU2FWDBL2ES93869T0","A3ADQ2RLQNJQDU","36U4VBVNQOZD8NFWZXWF9CIHKRIURB","","220","img/land6.png","74","223.20000000018626","1","0","1","2","0.8,0.2,0.2,0.2,0.8,0.2,0.2,0.2,0.8","0.2,0.8,0.2,0.2,0.2,0.8,0.8,0.2,0.2","3","",""
"","html-keyboard-response","29","41824","0.0-29.0","3PS7W85Z80OUQU2FWDBL2ES93869T0","A3ADQ2RLQNJQDU","36U4VBVNQOZD8NFWZXWF9CIHKRIURB","","null","<img src=""img/land6.png"" style=""width:200px;border:14px solid red;"">","null","","","","","","","","","",""
"","image-keyboard-response","30","41888","0.0-30.0","3PS7W85Z80OUQU2FWDBL2ES93869T0","A3ADQ2RLQNJQDU","36U4VBVNQOZD8NFWZXWF9CIHKRIURB","","59.700000000186265","img/land6.png","74","62.60000000009313","1","0","1","2","0.8,0.2,0.2,0.2,0.8,0.2,0.2,0.2,0.8","0.2,0.8,0.2,0.2,0.2,0.8,0.8,0.2,0.2","3","",""
"","html-keyboard-response","31","42192","0.0-31.0","3PS7W85Z80OUQU2FWDBL2ES93869T0","A3ADQ2RLQNJQDU","36U4VBVNQOZD8NFWZXWF9CIHKRIURB","","null","<img src=""img/land6.png"" style=""width:200px;border:14px solid red;"">","null","","","","","","","","","",""
"","image-keyboard-response","32","42240","0.0-32.0","3PS7W85Z80OUQU2FWDBL2ES93869T0","A3ADQ2RLQNJQDU","36U4VBVNQOZD8NFWZXWF9CIHKRIURB","","44.90000000037253","img/land3.png","75","47.6999999997206","2","0","3","2","0.8,0.2,0.2,0.2,0.8,0.2,0.2,0.2,0.8","0.2,0.8,0.2,0.2,0.2,0.8,0.8,0.2,0.2","3","",""
"","html-keyboard-response","33","42544","0.0-33.0","3PS7W85Z80OUQU2FWDBL2ES93869T0","A3ADQ2RLQNJQDU","36U4VBVNQOZD8NFWZXWF9CIHKRIURB","","null","<img src=""img/land3.png"" style=""width:200px;border:14px solid red;"">","null","","","","","","","","","",""
"","image-keyboard-response","34","42848","0.0-34.0","3PS7W85Z80OUQU2FWDBL2ES93869T0","A3ADQ2RLQNJQDU","36U4VBVNQOZD8NFWZXWF9CIHKRIURB","","301","img/land6.png","76","304","3","0","1","2","0.8,0.2,0.2,0.2,0.8,0.2,0.2,0.2,0.8","0.2,0.8,0.2,0.2,0.2,0.8,0.8,0.2,0.2","3","",""
"","html-keyboard-response","35","43152","0.0-35.0","3PS7W85Z80OUQU2FWDBL2ES93869T0","A3ADQ2RLQNJQDU","36U4VBVNQOZD8NFWZXWF9CIHKRIURB","","null","<img src=""img/land6.png"" style=""width:200px;border:14px solid red;"">","null","","","","","","","","","",""
"","image-keyboard-response","36","43393","0.0-36.0","3PS7W85Z80OUQU2FWDBL2ES93869T0","A3ADQ2RLQNJQDU","36U4VBVNQOZD8NFWZXWF9CIHKRIURB","","238","img/land6.png","76","240.59999999962747","3","0","1","2","0.8,0.2,0.2,0.2,0.8,0.2,0.2,0.2,0.8","0.2,0.8,0.2,0.2,0.2,0.8,0.8,0.2,0.2","3","",""
"","html-keyboard-response","37","43697","0.0-37.0","3PS7W85Z80OUQU2FWDBL2ES93869T0","A3ADQ2RLQNJQDU","36U4VBVNQOZD8NFWZXWF9CIHKRIURB","","null","<img src=""img/land6.png"" style=""width:200px;border:14px solid red;"">","null","","","","","","","","","",""
"","image-keyboard-response","38","43920","0.0-38.0","3PS7W85Z80OUQU2FWDBL2ES93869T0","A3ADQ2RLQNJQDU","36U4VBVNQOZD8NFWZXWF9CIHKRIURB","","219.60000000009313","img/land6.png","76","222.6999999997206","3","0","1","2","0.8,0.2,0.2,0.2,0.8,0.2,0.2,0.2,0.8","0.2,0.8,0.2,0.2,0.2,0.8,0.8,0.2,0.2","3","",""
"","html-keyboard-response","39","44224","0.0-39.0","3PS7W85Z80OUQU2FWDBL2ES93869T0","A3ADQ2RLQNJQDU","36U4VBVNQOZD8NFWZXWF9CIHKRIURB","","null","<img src=""img/land6.png"" style=""width:200px;border:14px solid red;"">","null","","","","","","","","","",""
"","image-keyboard-response","40","44592","0.0-40.0","3PS7W85Z80OUQU2FWDBL2ES93869T0","A3ADQ2RLQNJQDU","36U4VBVNQOZD8NFWZXWF9CIHKRIURB","","364.29999999981374","img/land6.png","76","367.20000000018626","3","0","1","2","0.8,0.2,0.2,0.2,0.8,0.2,0.2,0.2,0.8","0.2,0.8,0.2,0.2,0.2,0.8,0.8,0.2,0.2","3","",""
"","html-keyboard-response","41","44895","0.0-41.0","3PS7W85Z80OUQU2FWDBL2ES93869T0","A3ADQ2RLQNJQDU","36U4VBVNQOZD8NFWZXWF9CIHKRIURB","","null","<img src=""img/land6.png"" style=""width:200px;border:14px solid red;"">","null","","","","","","","","","",""
"","image-keyboard-response","42","45153","0.0-42.0","3PS7W85Z80OUQU2FWDBL2ES93869T0","A3ADQ2RLQNJQDU","36U4VBVNQOZD8NFWZXWF9CIHKRIURB","","253.39999999990687","img/land6.png","75","256.89999999990687","2","1","1","2","0.8,0.2,0.2,0.2,0.8,0.2,0.2,0.2,0.8","0.2,0.8,0.2,0.2,0.2,0.8,0.8,0.2,0.2","3","",""
"","html-keyboard-response","43","45457","0.0-43.0","3PS7W85Z80OUQU2FWDBL2ES93869T0","A3ADQ2RLQNJQDU","36U4VBVNQOZD8NFWZXWF9CIHKRIURB","","null","<img src=""img/land6.png"" style=""width:200px; border:14px solid green;"">","null","","","","","","","","","",""
"","image-keyboard-response","44","45679","0.0-44.0","3PS7W85Z80OUQU2FWDBL2ES93869T0","A3ADQ2RLQNJQDU","36U4VBVNQOZD8NFWZXWF9CIHKRIURB","","218.39999999990687","img/land6.png","75","221.29999999981374","2","1","1","2","0.8,0.2,0.2,0.2,0.8,0.2,0.2,0.2,0.8","0.2,0.8,0.2,0.2,0.2,0.8,0.8,0.2,0.2","3","",""
"","html-keyboard-response","45","45983","0.0-45.0","3PS7W85Z80OUQU2FWDBL2ES93869T0","A3ADQ2RLQNJQDU","36U4VBVNQOZD8NFWZXWF9CIHKRIURB","","null","<img src=""img/land6.png"" style=""width:200px; border:14px solid green;"">","null","","","","","","","","","",""
"","image-keyboard-response","46","46160","0.0-46.0","3PS7W85Z80OUQU2FWDBL2ES93869T0","A3ADQ2RLQNJQDU","36U4VBVNQOZD8NFWZXWF9CIHKRIURB","","173","img/land6.png","75","176.1999999997206","2","1","1","2","0.8,0.2,0.2,0.2,0.8,0.2,0.2,0.2,0.8","0.2,0.8,0.2,0.2,0.2,0.8,0.8,0.2,0.2","3","",""
"","html-keyboard-response","47","46464","0.0-47.0","3PS7W85Z80OUQU2FWDBL2ES93869T0","A3ADQ2RLQNJQDU","36U4VBVNQOZD8NFWZXWF9CIHKRIURB","","null","<img src=""img/land6.png"" style=""width:200px; border:14px solid green;"">","null","","","","","","","","","",""
"","image-keyboard-response","48","46656","0.0-48.0","3PS7W85Z80OUQU2FWDBL2ES93869T0","A3ADQ2RLQNJQDU","36U4VBVNQOZD8NFWZXWF9CIHKRIURB","","188.60000000009313","img/land6.png","75","191.59999999962747","2","1","1","2","0.8,0.2,0.2,0.2,0.8,0.2,0.2,0.2,0.8","0.2,0.8,0.2,0.2,0.2,0.8,0.8,0.2,0.2","3","",""
"","html-keyboard-response","49","46960","0.0-49.0","3PS7W85Z80OUQU2FWDBL2ES93869T0","A3ADQ2RLQNJQDU","36U4VBVNQOZD8NFWZXWF9CIHKRIURB","","null","<img src=""img/land6.png"" style=""width:200px; border:14px solid green;"">","null","","","","","","","","","",""
"","image-keyboard-response","50","47104","0.0-50.0","3PS7W85Z80OUQU2FWDBL2ES93869T0","A3ADQ2RLQNJQDU","36U4VBVNQOZD8NFWZXWF9CIHKRIURB","","140","img/land3.png","75","143.09999999962747","2","1","3","2","0.8,0.2,0.2,0.2,0.8,0.2,0.2,0.2,0.8","0.2,0.8,0.2,0.2,0.2,0.8,0.8,0.2,0.2","3","",""
"","html-keyboard-response","51","47408","0.0-51.0","3PS7W85Z80OUQU2FWDBL2ES93869T0","A3ADQ2RLQNJQDU","36U4VBVNQOZD8NFWZXWF9CIHKRIURB","","null","<img src=""img/land3.png"" style=""width:200px; border:14px solid green;"">","null","","","","","","","","","",""
"","image-keyboard-response","52","47617","0.0-52.0","3PS7W85Z80OUQU2FWDBL2ES93869T0","A3ADQ2RLQNJQDU","36U4VBVNQOZD8NFWZXWF9CIHKRIURB","","205.3000000002794","img/land3.png","75","208.20000000018626","2","0","3","2","0.8,0.2,0.2,0.2,0.8,0.2,0.2,0.2,0.8","0.2,0.8,0.2,0.2,0.2,0.8,0.8,0.2,0.2","3","",""
"","html-keyboard-response","53","47921","0.0-53.0","3PS7W85Z80OUQU2FWDBL2ES93869T0","A3ADQ2RLQNJQDU","36U4VBVNQOZD8NFWZXWF9CIHKRIURB","","null","<img src=""img/land3.png"" style=""width:200px;border:14px solid red;"">","null","","","","","","","","","",""
"","image-keyboard-response","54","48032","0.0-54.0","3PS7W85Z80OUQU2FWDBL2ES93869T0","A3ADQ2RLQNJQDU","36U4VBVNQOZD8NFWZXWF9CIHKRIURB","","107.39999999990687","img/land1.png","75","110.5","2","0","2","2","0.8,0.2,0.2,0.2,0.8,0.2,0.2,0.2,0.8","0.2,0.8,0.2,0.2,0.2,0.8,0.8,0.2,0.2","3","",""
"","html-keyboard-response","55","48336","0.0-55.0","3PS7W85Z80OUQU2FWDBL2ES93869T0","A3ADQ2RLQNJQDU","36U4VBVNQOZD8NFWZXWF9CIHKRIURB","","null","<img src=""img/land1.png"" style=""width:200px;border:14px solid red;"">","null","","","","","","","","","",""
"","image-keyboard-response","56","48495","0.0-56.0","3PS7W85Z80OUQU2FWDBL2ES93869T0","A3ADQ2RLQNJQDU","36U4VBVNQOZD8NFWZXWF9CIHKRIURB","","155.20000000018626","img/land1.png","75","158.5","2","0","2","2","0.8,0.2,0.2,0.2,0.8,0.2,0.2,0.2,0.8","0.2,0.8,0.2,0.2,0.2,0.8,0.8,0.2,0.2","3","",""
"","html-keyboard-response","57","48799","0.0-57.0","3PS7W85Z80OUQU2FWDBL2ES93869T0","A3ADQ2RLQNJQDU","36U4VBVNQOZD8NFWZXWF9CIHKRIURB","","null","<img src=""img/land1.png"" style=""width:200px;border:14px solid red;"">","null","","","","","","","","","",""
"","image-keyboard-response","58","48831","0.0-58.0","3PS7W85Z80OUQU2FWDBL2ES93869T0","A3ADQ2RLQNJQDU","36U4VBVNQOZD8NFWZXWF9CIHKRIURB","","29","img/land1.png","74","31.899999999906868","1","0","2","2","0.8,0.2,0.2,0.2,0.8,0.2,0.2,0.2,0.8","0.2,0.8,0.2,0.2,0.2,0.8,0.8,0.2,0.2","3","",""
"","html-keyboard-response","59","49134","0.0-59.0","3PS7W85Z80OUQU2FWDBL2ES93869T0","A3ADQ2RLQNJQDU","36U4VBVNQOZD8NFWZXWF9CIHKRIURB","","null","<img src=""img/land1.png"" style=""width:200px;border:14px solid red;"">","null","","","","","","","","","",""
"","image-keyboard-response","60","49344","0.0-60.0","3PS7W85Z80OUQU2FWDBL2ES93869T0","A3ADQ2RLQNJQDU","36U4VBVNQOZD8NFWZXWF9CIHKRIURB","","205.6999999997206","img/land6.png","74","208.89999999990687","1","0","1","2","0.8,0.2,0.2,0.2,0.8,0.2,0.2,0.2,0.8","0.2,0.8,0.2,0.2,0.2,0.8,0.8,0.2,0.2","3","",""
"","html-keyboard-response","61","49648","0.0-61.0","3PS7W85Z80OUQU2FWDBL2ES93869T0","A3ADQ2RLQNJQDU","36U4VBVNQOZD8NFWZXWF9CIHKRIURB","","null","<img src=""img/land6.png"" style=""width:200px;border:14px solid red;"">","null","","","","","","","","","",""
"","image-keyboard-response","62","50053","0.0-62.0","3PS7W85Z80OUQU2FWDBL2ES93869T0","A3ADQ2RLQNJQDU","36U4VBVNQOZD8NFWZXWF9CIHKRIURB","","401.6999999997206","img/land1.png","76","405.10000000009313","3","1","2","2","0.8,0.2,0.2,0.2,0.8,0.2,0.2,0.2,0.8","0.2,0.8,0.2,0.2,0.2,0.8,0.8,0.2,0.2","3","",""
"","html-keyboard-response","63","50357","0.0-63.0","3PS7W85Z80OUQU2FWDBL2ES93869T0","A3ADQ2RLQNJQDU","36U4VBVNQOZD8NFWZXWF9CIHKRIURB","","null","<img src=""img/land1.png"" style=""width:200px; border:14px solid green;"">","null","","","","","","","","","",""
"","image-keyboard-response","64","50656","0.0-64.0","3PS7W85Z80OUQU2FWDBL2ES93869T0","A3ADQ2RLQNJQDU","36U4VBVNQOZD8NFWZXWF9CIHKRIURB","","295.59999999962747","img/land6.png","76","298.29999999981374","3","0","1","2","0.8,0.2,0.2,0.2,0.8,0.2,0.2,0.2,0.8","0.2,0.8,0.2,0.2,0.2,0.8,0.8,0.2,0.2","3","",""
"","html-keyboard-response","65","50960","0.0-65.0","3PS7W85Z80OUQU2FWDBL2ES93869T0","A3ADQ2RLQNJQDU","36U4VBVNQOZD8NFWZXWF9CIHKRIURB","","null","<img src=""img/land6.png"" style=""width:200px;border:14px solid red;"">","null","","","","","","","","","",""
"","image-keyboard-response","66","51311","0.0-66.0","3PS7W85Z80OUQU2FWDBL2ES93869T0","A3ADQ2RLQNJQDU","36U4VBVNQOZD8NFWZXWF9CIHKRIURB","","348.1999999997206","img/land3.png","75","350.70000000018626","2","0","3","2","0.8,0.2,0.2,0.2,0.8,0.2,0.2,0.2,0.8","0.2,0.8,0.2,0.2,0.2,0.8,0.8,0.2,0.2","3","",""
"","html-keyboard-response","67","51615","0.0-67.0","3PS7W85Z80OUQU2FWDBL2ES93869T0","A3ADQ2RLQNJQDU","36U4VBVNQOZD8NFWZXWF9CIHKRIURB","","null","<img src=""img/land3.png"" style=""width:200px;border:14px solid red;"">","null","","","","","","","","","",""
"","image-keyboard-response","68","51647","0.0-68.0","3PS7W85Z80OUQU2FWDBL2ES93869T0","A3ADQ2RLQNJQDU","36U4VBVNQOZD8NFWZXWF9CIHKRIURB","","28.600000000093132","img/land1.png","75","31.5","2","1","2","2","0.8,0.2,0.2,0.2,0.8,0.2,0.2,0.2,0.8","0.2,0.8,0.2,0.2,0.2,0.8,0.8,0.2,0.2","3","",""
"","html-keyboard-response","69","51950","0.0-69.0","3PS7W85Z80OUQU2FWDBL2ES93869T0","A3ADQ2RLQNJQDU","36U4VBVNQOZD8NFWZXWF9CIHKRIURB","","null","<img src=""img/land1.png"" style=""width:200px; border:14px solid green;"">","null","","","","","","","","","",""
"","image-keyboard-response","70","52176","0.0-70.0","3PS7W85Z80OUQU2FWDBL2ES93869T0","A3ADQ2RLQNJQDU","36U4VBVNQOZD8NFWZXWF9CIHKRIURB","","222.39999999990687","img/land6.png","75","225.3000000002794","2","0","1","2","0.8,0.2,0.2,0.2,0.8,0.2,0.2,0.2,0.8","0.2,0.8,0.2,0.2,0.2,0.8,0.8,0.2,0.2","3","",""
"","html-keyboard-response","71","52480","0.0-71.0","3PS7W85Z80OUQU2FWDBL2ES93869T0","A3ADQ2RLQNJQDU","36U4VBVNQOZD8NFWZXWF9CIHKRIURB","","null","<img src=""img/land6.png"" style=""width:200px;border:14px solid red;"">","null","","","","","","","","","",""
"","image-keyboard-response","72","52624","0.0-72.0","3PS7W85Z80OUQU2FWDBL2ES93869T0","A3ADQ2RLQNJQDU","36U4VBVNQOZD8NFWZXWF9CIHKRIURB","","140","img/land3.png","75","143","2","1","3","2","0.8,0.2,0.2,0.2,0.8,0.2,0.2,0.2,0.8","0.2,0.8,0.2,0.2,0.2,0.8,0.8,0.2,0.2","3","",""
"","html-keyboard-response","73","52927","0.0-73.0","3PS7W85Z80OUQU2FWDBL2ES93869T0","A3ADQ2RLQNJQDU","36U4VBVNQOZD8NFWZXWF9CIHKRIURB","","null","<img src=""img/land3.png"" style=""width:200px; border:14px solid green;"">","null","","","","","","","","","",""
"","image-keyboard-response","74","52960","0.0-74.0","3PS7W85Z80OUQU2FWDBL2ES93869T0","A3ADQ2RLQNJQDU","36U4VBVNQOZD8NFWZXWF9CIHKRIURB","","29.600000000093132","img/land6.png","75","32.39999999990687","2","1","1","2","0.8,0.2,0.2,0.2,0.8,0.2,0.2,0.2,0.8","0.2,0.8,0.2,0.2,0.2,0.8,0.8,0.2,0.2","3","",""
"","html-keyboard-response","75","53263","0.0-75.0","3PS7W85Z80OUQU2FWDBL2ES93869T0","A3ADQ2RLQNJQDU","36U4VBVNQOZD8NFWZXWF9CIHKRIURB","","null","<img src=""img/land6.png"" style=""width:200px; border:14px solid green;"">","null","","","","","","","","","",""
"","image-keyboard-response","76","53266","0.0-76.0","3PS7W85Z80OUQU2FWDBL2ES93869T0","A3ADQ2RLQNJQDU","36U4VBVNQOZD8NFWZXWF9CIHKRIURB","","0.39999999990686774","img/land6.png","75","2.6999999997206032","2","1","1","2","0.8,0.2,0.2,0.2,0.8,0.2,0.2,0.2,0.8","0.2,0.8,0.2,0.2,0.2,0.8,0.8,0.2,0.2","3","",""
"","html-keyboard-response","77","53569","0.0-77.0","3PS7W85Z80OUQU2FWDBL2ES93869T0","A3ADQ2RLQNJQDU","36U4VBVNQOZD8NFWZXWF9CIHKRIURB","","null","<img src=""img/land6.png"" style=""width:200px; border:14px solid green;"">","null","","","","","","","","","",""
"","image-keyboard-response","78","53920","0.0-78.0","3PS7W85Z80OUQU2FWDBL2ES93869T0","A3ADQ2RLQNJQDU","36U4VBVNQOZD8NFWZXWF9CIHKRIURB","","347.90000000037253","img/land6.png","75","350.29999999981374","2","1","1","2","0.8,0.2,0.2,0.2,0.8,0.2,0.2,0.2,0.8","0.2,0.8,0.2,0.2,0.2,0.8,0.8,0.2,0.2","3","",""
"","html-keyboard-response","79","54223","0.0-79.0","3PS7W85Z80OUQU2FWDBL2ES93869T0","A3ADQ2RLQNJQDU","36U4VBVNQOZD8NFWZXWF9CIHKRIURB","","null","<img src=""img/land6.png"" style=""width:200px; border:14px solid green;"">","null","","","","","","","","","",""
"","image-keyboard-response","80","54368","0.0-80.0","3PS7W85Z80OUQU2FWDBL2ES93869T0","A3ADQ2RLQNJQDU","36U4VBVNQOZD8NFWZXWF9CIHKRIURB","","141","img/land6.png","76","143.89999999990687","3","0","1","2","0.8,0.2,0.2,0.2,0.8,0.2,0.2,0.2,0.8","0.2,0.8,0.2,0.2,0.2,0.8,0.8,0.2,0.2","3","",""
"","html-keyboard-response","81","54671","0.0-81.0","3PS7W85Z80OUQU2FWDBL2ES93869T0","A3ADQ2RLQNJQDU","36U4VBVNQOZD8NFWZXWF9CIHKRIURB","","null","<img src=""img/land6.png"" style=""width:200px;border:14px solid red;"">","null","","","","","","","","","",""
"","image-keyboard-response","82","54719","0.0-82.0","3PS7W85Z80OUQU2FWDBL2ES93869T0","A3ADQ2RLQNJQDU","36U4VBVNQOZD8NFWZXWF9CIHKRIURB","","45.10000000009313","img/land3.png","75","47.89999999990687","2","0","3","2","0.8,0.2,0.2,0.2,0.8,0.2,0.2,0.2,0.8","0.2,0.8,0.2,0.2,0.2,0.8,0.8,0.2,0.2","3","",""
"","html-keyboard-response","83","55022","0.0-83.0","3PS7W85Z80OUQU2FWDBL2ES93869T0","A3ADQ2RLQNJQDU","36U4VBVNQOZD8NFWZXWF9CIHKRIURB","","null","<img src=""img/land3.png"" style=""width:200px;border:14px solid red;"">","null","","","","","","","","","",""
"","image-keyboard-response","84","55328","0.0-84.0","3PS7W85Z80OUQU2FWDBL2ES93869T0","A3ADQ2RLQNJQDU","36U4VBVNQOZD8NFWZXWF9CIHKRIURB","","302.40000000037253","img/land3.png","76","305","3","1","3","2","0.8,0.2,0.2,0.2,0.8,0.2,0.2,0.2,0.8","0.2,0.8,0.2,0.2,0.2,0.8,0.8,0.2,0.2","3","",""
"","html-keyboard-response","85","55631","0.0-85.0","3PS7W85Z80OUQU2FWDBL2ES93869T0","A3ADQ2RLQNJQDU","36U4VBVNQOZD8NFWZXWF9CIHKRIURB","","null","<img src=""img/land3.png"" style=""width:200px; border:14px solid green;"">","null","","","","","","","","","",""
"","image-keyboard-response","86","55775","0.0-86.0","3PS7W85Z80OUQU2FWDBL2ES93869T0","A3ADQ2RLQNJQDU","36U4VBVNQOZD8NFWZXWF9CIHKRIURB","","140.39999999990687","img/land1.png","76","142.89999999990687","3","1","2","2","0.8,0.2,0.2,0.2,0.8,0.2,0.2,0.2,0.8","0.2,0.8,0.2,0.2,0.2,0.8,0.8,0.2,0.2","3","",""
"","html-keyboard-response","87","56078","0.0-87.0","3PS7W85Z80OUQU2FWDBL2ES93869T0","A3ADQ2RLQNJQDU","36U4VBVNQOZD8NFWZXWF9CIHKRIURB","","null","<img src=""img/land1.png"" style=""width:200px; border:14px solid green;"">","null","","","","","","","","","",""
"","image-keyboard-response","88","56320","0.0-88.0","3PS7W85Z80OUQU2FWDBL2ES93869T0","A3ADQ2RLQNJQDU","36U4VBVNQOZD8NFWZXWF9CIHKRIURB","","238.89999999990687","img/land6.png","76","254.8000000002794","3","0","1","2","0.8,0.2,0.2,0.2,0.8,0.2,0.2,0.2,0.8","0.2,0.8,0.2,0.2,0.2,0.8,0.8,0.2,0.2","3","",""
"","html-keyboard-response","89","56638","0.0-89.0","3PS7W85Z80OUQU2FWDBL2ES93869T0","A3ADQ2RLQNJQDU","36U4VBVNQOZD8NFWZXWF9CIHKRIURB","","null","<img src=""img/land6.png"" style=""width:200px;border:14px solid red;"">","null","","","","","","","","","",""
"","image-keyboard-response","90","56960","0.0-90.0","3PS7W85Z80OUQU2FWDBL2ES93869T0","A3ADQ2RLQNJQDU","36U4VBVNQOZD8NFWZXWF9CIHKRIURB","","318.5","img/land6.png","74","321","1","1","1","2","0.8,0.2,0.2,0.2,0.8,0.2,0.2,0.2,0.8","0.2,0.8,0.2,0.2,0.2,0.8,0.8,0.2,0.2","3","",""
"","html-keyboard-response","91","57263","0.0-91.0","3PS7W85Z80OUQU2FWDBL2ES93869T0","A3ADQ2RLQNJQDU","36U4VBVNQOZD8NFWZXWF9CIHKRIURB","","null","<img src=""img/land6.png"" style=""width:200px; border:14px solid green;"">","null","","","","","","","","","",""
"","image-keyboard-response","92","57456","0.0-92.0","3PS7W85Z80OUQU2FWDBL2ES93869T0","A3ADQ2RLQNJQDU","36U4VBVNQOZD8NFWZXWF9CIHKRIURB","","189.20000000018626","img/land6.png","74","192.39999999990687","1","0","1","2","0.8,0.2,0.2,0.2,0.8,0.2,0.2,0.2,0.8","0.2,0.8,0.2,0.2,0.2,0.8,0.8,0.2,0.2","3","",""
"","html-keyboard-response","93","57760","0.0-93.0","3PS7W85Z80OUQU2FWDBL2ES93869T0","A3ADQ2RLQNJQDU","36U4VBVNQOZD8NFWZXWF9CIHKRIURB","","null","<img src=""img/land6.png"" style=""width:200px;border:14px solid red;"">","null","","","","","","","","","",""
"","image-keyboard-response","94","57952","0.0-94.0","3PS7W85Z80OUQU2FWDBL2ES93869T0","A3ADQ2RLQNJQDU","36U4VBVNQOZD8NFWZXWF9CIHKRIURB","","187.6999999997206","img/land6.png","74","190.60000000009313","1","0","1","2","0.8,0.2,0.2,0.2,0.8,0.2,0.2,0.2,0.8","0.2,0.8,0.2,0.2,0.2,0.8,0.8,0.2,0.2","3","",""
"","html-keyboard-response","95","58254","0.0-95.0","3PS7W85Z80OUQU2FWDBL2ES93869T0","A3ADQ2RLQNJQDU","36U4VBVNQOZD8NFWZXWF9CIHKRIURB","","null","<img src=""img/land6.png"" style=""width:200px;border:14px solid red;"">","null","","","","","","","","","",""
"","image-keyboard-response","96","58463","0.0-96.0","3PS7W85Z80OUQU2FWDBL2ES93869T0","A3ADQ2RLQNJQDU","36U4VBVNQOZD8NFWZXWF9CIHKRIURB","","206.5","img/land1.png","75","208.60000000009313","2","1","2","2","0.8,0.2,0.2,0.2,0.8,0.2,0.2,0.2,0.8","0.2,0.8,0.2,0.2,0.2,0.8,0.8,0.2,0.2","3","",""
"","html-keyboard-response","97","58767","0.0-97.0","3PS7W85Z80OUQU2FWDBL2ES93869T0","A3ADQ2RLQNJQDU","36U4VBVNQOZD8NFWZXWF9CIHKRIURB","","null","<img src=""img/land1.png"" style=""width:200px; border:14px solid green;"">","null","","","","","","","","","",""
"","image-keyboard-response","98","58960","0.0-98.0","3PS7W85Z80OUQU2FWDBL2ES93869T0","A3ADQ2RLQNJQDU","36U4VBVNQOZD8NFWZXWF9CIHKRIURB","","190","img/land1.png","75","192.79999999981374","2","0","2","2","0.8,0.2,0.2,0.2,0.8,0.2,0.2,0.2,0.8","0.2,0.8,0.2,0.2,0.2,0.8,0.8,0.2,0.2","3","",""
"","html-keyboard-response","99","59264","0.0-99.0","3PS7W85Z80OUQU2FWDBL2ES93869T0","A3ADQ2RLQNJQDU","36U4VBVNQOZD8NFWZXWF9CIHKRIURB","","null","<img src=""img/land1.png"" style=""width:200px;border:14px solid red;"">","null","","","","","","","","","",""
"","image-keyboard-response","100","59616","0.0-100.0","3PS7W85Z80OUQU2FWDBL2ES93869T0","A3ADQ2RLQNJQDU","36U4VBVNQOZD8NFWZXWF9CIHKRIURB","","349.10000000009313","img/land6.png","74","351.5","1","0","1","2","0.8,0.2,0.2,0.2,0.8,0.2,0.2,0.2,0.8","0.2,0.8,0.2,0.2,0.2,0.8,0.8,0.2,0.2","3","",""
"","html-keyboard-response","101","59919","0.0-101.0","3PS7W85Z80OUQU2FWDBL2ES93869T0","A3ADQ2RLQNJQDU","36U4VBVNQOZD8NFWZXWF9CIHKRIURB","","null","<img src=""img/land6.png"" style=""width:200px;border:14px solid red;"">","null","","","","","","","","","",""
"","image-keyboard-response","102","60128","0.0-102.0","3PS7W85Z80OUQU2FWDBL2ES93869T0","A3ADQ2RLQNJQDU","36U4VBVNQOZD8NFWZXWF9CIHKRIURB","","205","img/land6.png","74","208.10000000009313","1","0","1","2","0.8,0.2,0.2,0.2,0.8,0.2,0.2,0.2,0.8","0.2,0.8,0.2,0.2,0.2,0.8,0.8,0.2,0.2","3","",""
"","html-keyboard-response","103","60432","0.0-103.0","3PS7W85Z80OUQU2FWDBL2ES93869T0","A3ADQ2RLQNJQDU","36U4VBVNQOZD8NFWZXWF9CIHKRIURB","","null","<img src=""img/land6.png"" style=""width:200px;border:14px solid red;"">","null","","","","","","","","","",""
"","image-keyboard-response","104","60880","0.0-104.0","3PS7W85Z80OUQU2FWDBL2ES93869T0","A3ADQ2RLQNJQDU","36U4VBVNQOZD8NFWZXWF9CIHKRIURB","","444.39999999990687","img/land1.png","76","447.3000000002794","3","1","2","2","0.8,0.2,0.2,0.2,0.8,0.2,0.2,0.2,0.8","0.2,0.8,0.2,0.2,0.2,0.8,0.8,0.2,0.2","3","",""
"","html-keyboard-response","105","61184","0.0-105.0","3PS7W85Z80OUQU2FWDBL2ES93869T0","A3ADQ2RLQNJQDU","36U4VBVNQOZD8NFWZXWF9CIHKRIURB","","null","<img src=""img/land1.png"" style=""width:200px; border:14px solid green;"">","null","","","","","","","","","",""
"","image-keyboard-response","106","61248","0.0-106.0","3PS7W85Z80OUQU2FWDBL2ES93869T0","A3ADQ2RLQNJQDU","36U4VBVNQOZD8NFWZXWF9CIHKRIURB","","60.60000000009313","img/land3.png","76","63.89999999990687","3","0","3","2","0.8,0.2,0.2,0.2,0.8,0.2,0.2,0.2,0.8","0.2,0.8,0.2,0.2,0.2,0.8,0.8,0.2,0.2","3","",""
"","html-keyboard-response","107","61552","0.0-107.0","3PS7W85Z80OUQU2FWDBL2ES93869T0","A3ADQ2RLQNJQDU","36U4VBVNQOZD8NFWZXWF9CIHKRIURB","","null","<img src=""img/land3.png"" style=""width:200px;border:14px solid red;"">","null","","","","","","","","","",""
"","image-keyboard-response","108","61648","0.0-108.0","3PS7W85Z80OUQU2FWDBL2ES93869T0","A3ADQ2RLQNJQDU","36U4VBVNQOZD8NFWZXWF9CIHKRIURB","","92.20000000018626","img/land6.png","76","95.20000000018626","3","0","1","2","0.8,0.2,0.2,0.2,0.8,0.2,0.2,0.2,0.8","0.2,0.8,0.2,0.2,0.2,0.8,0.8,0.2,0.2","3","",""
"","html-keyboard-response","109","61952","0.0-109.0","3PS7W85Z80OUQU2FWDBL2ES93869T0","A3ADQ2RLQNJQDU","36U4VBVNQOZD8NFWZXWF9CIHKRIURB","","null","<img src=""img/land6.png"" style=""width:200px;border:14px solid red;"">","null","","","","","","","","","",""
"","image-keyboard-response","110","62240","0.0-110.0","3PS7W85Z80OUQU2FWDBL2ES93869T0","A3ADQ2RLQNJQDU","36U4VBVNQOZD8NFWZXWF9CIHKRIURB","","284.60000000009313","img/land3.png","75","287.70000000018626","2","0","3","2","0.8,0.2,0.2,0.2,0.8,0.2,0.2,0.2,0.8","0.2,0.8,0.2,0.2,0.2,0.8,0.8,0.2,0.2","3","",""
"","html-keyboard-response","111","62544","0.0-111.0","3PS7W85Z80OUQU2FWDBL2ES93869T0","A3ADQ2RLQNJQDU","36U4VBVNQOZD8NFWZXWF9CIHKRIURB","","null","<img src=""img/land3.png"" style=""width:200px;border:14px solid red;"">","null","","","","","","","","","",""
"","image-keyboard-response","112","62624","0.0-112.0","3PS7W85Z80OUQU2FWDBL2ES93869T0","A3ADQ2RLQNJQDU","36U4VBVNQOZD8NFWZXWF9CIHKRIURB","","76.70000000018626","img/land1.png","75","79.89999999990687","2","1","2","2","0.8,0.2,0.2,0.2,0.8,0.2,0.2,0.2,0.8","0.2,0.8,0.2,0.2,0.2,0.8,0.8,0.2,0.2","3","",""
"","html-keyboard-response","113","62928","0.0-113.0","3PS7W85Z80OUQU2FWDBL2ES93869T0","A3ADQ2RLQNJQDU","36U4VBVNQOZD8NFWZXWF9CIHKRIURB","","null","<img src=""img/land1.png"" style=""width:200px; border:14px solid green;"">","null","","","","","","","","","",""
"","image-keyboard-response","114","63041","0.0-114.0","3PS7W85Z80OUQU2FWDBL2ES93869T0","A3ADQ2RLQNJQDU","36U4VBVNQOZD8NFWZXWF9CIHKRIURB","","109.29999999981374","img/land1.png","75","112.79999999981374","2","0","2","2","0.8,0.2,0.2,0.2,0.8,0.2,0.2,0.2,0.8","0.2,0.8,0.2,0.2,0.2,0.8,0.8,0.2,0.2","3","",""
"","html-keyboard-response","115","63345","0.0-115.0","3PS7W85Z80OUQU2FWDBL2ES93869T0","A3ADQ2RLQNJQDU","36U4VBVNQOZD8NFWZXWF9CIHKRIURB","","null","<img src=""img/land1.png"" style=""width:200px;border:14px solid red;"">","null","","","","","","","","","",""
"","image-keyboard-response","116","63536","0.0-116.0","3PS7W85Z80OUQU2FWDBL2ES93869T0","A3ADQ2RLQNJQDU","36U4VBVNQOZD8NFWZXWF9CIHKRIURB","","186.90000000037253","img/land6.png","75","189.79999999981374","2","1","1","2","0.8,0.2,0.2,0.2,0.8,0.2,0.2,0.2,0.8","0.2,0.8,0.2,0.2,0.2,0.8,0.8,0.2,0.2","3","",""
"","html-keyboard-response","117","63840","0.0-117.0","3PS7W85Z80OUQU2FWDBL2ES93869T0","A3ADQ2RLQNJQDU","36U4VBVNQOZD8NFWZXWF9CIHKRIURB","","null","<img src=""img/land6.png"" style=""width:200px; border:14px solid green;"">","null","","","","","","","","","",""
"","image-keyboard-response","118","64080","0.0-118.0","3PS7W85Z80OUQU2FWDBL2ES93869T0","A3ADQ2RLQNJQDU","36U4VBVNQOZD8NFWZXWF9CIHKRIURB","","236.1999999997206","img/land1.png","76","239","3","1","2","2","0.8,0.2,0.2,0.2,0.8,0.2,0.2,0.2,0.8","0.2,0.8,0.2,0.2,0.2,0.8,0.8,0.2,0.2","3","",""
"","html-keyboard-response","119","64383","0.0-119.0","3PS7W85Z80OUQU2FWDBL2ES93869T0","A3ADQ2RLQNJQDU","36U4VBVNQOZD8NFWZXWF9CIHKRIURB","","null","<img src=""img/land1.png"" style=""width:200px; border:14px solid green;"">","null","","","","","","","","","",""
"","image-keyboard-response","120","64416","0.0-120.0","3PS7W85Z80OUQU2FWDBL2ES93869T0","A3ADQ2RLQNJQDU","36U4VBVNQOZD8NFWZXWF9CIHKRIURB","","28.799999999813735","img/land1.png","76","31.800000000279397","3","1","2","2","0.8,0.2,0.2,0.2,0.8,0.2,0.2,0.2,0.8","0.2,0.8,0.2,0.2,0.2,0.8,0.8,0.2,0.2","3","",""
"","html-keyboard-response","121","64719","0.0-121.0","3PS7W85Z80OUQU2FWDBL2ES93869T0","A3ADQ2RLQNJQDU","36U4VBVNQOZD8NFWZXWF9CIHKRIURB","","null","<img src=""img/land1.png"" style=""width:200px; border:14px solid green;"">","null","","","","","","","","","",""
"","image-keyboard-response","122","64863","0.0-122.0","3PS7W85Z80OUQU2FWDBL2ES93869T0","A3ADQ2RLQNJQDU","36U4VBVNQOZD8NFWZXWF9CIHKRIURB","","142.20000000018626","img/land3.png","76","144.10000000009313","3","0","3","2","0.8,0.2,0.2,0.2,0.8,0.2,0.2,0.2,0.8","0.2,0.8,0.2,0.2,0.2,0.8,0.8,0.2,0.2","3","",""
"","html-keyboard-response","123","65166","0.0-123.0","3PS7W85Z80OUQU2FWDBL2ES93869T0","A3ADQ2RLQNJQDU","36U4VBVNQOZD8NFWZXWF9CIHKRIURB","","null","<img src=""img/land3.png"" style=""width:200px;border:14px solid red;"">","null","","","","","","","","","",""
"","image-keyboard-response","124","65520","0.0-124.0","3PS7W85Z80OUQU2FWDBL2ES93869T0","A3ADQ2RLQNJQDU","36U4VBVNQOZD8NFWZXWF9CIHKRIURB","","350.3000000002794","img/land6.png","75","353.1999999997206","2","1","1","2","0.8,0.2,0.2,0.2,0.8,0.2,0.2,0.2,0.8","0.2,0.8,0.2,0.2,0.2,0.8,0.8,0.2,0.2","3","",""
"","html-keyboard-response","125","65823","0.0-125.0","3PS7W85Z80OUQU2FWDBL2ES93869T0","A3ADQ2RLQNJQDU","36U4VBVNQOZD8NFWZXWF9CIHKRIURB","","null","<img src=""img/land6.png"" style=""width:200px; border:14px solid green;"">","null","","","","","","","","","",""
"","image-keyboard-response","126","65904","0.0-126.0","3PS7W85Z80OUQU2FWDBL2ES93869T0","A3ADQ2RLQNJQDU","36U4VBVNQOZD8NFWZXWF9CIHKRIURB","","77.29999999981374","img/land3.png","75","80.40000000037253","2","0","3","2","0.8,0.2,0.2,0.2,0.8,0.2,0.2,0.2,0.8","0.2,0.8,0.2,0.2,0.2,0.8,0.8,0.2,0.2","3","",""
"","html-keyboard-response","127","66208","0.0-127.0","3PS7W85Z80OUQU2FWDBL2ES93869T0","A3ADQ2RLQNJQDU","36U4VBVNQOZD8NFWZXWF9CIHKRIURB","","null","<img src=""img/land3.png"" style=""width:200px;border:14px solid red;"">","null","","","","","","","","","",""
"","image-keyboard-response","128","66273","0.0-128.0","3PS7W85Z80OUQU2FWDBL2ES93869T0","A3ADQ2RLQNJQDU","36U4VBVNQOZD8NFWZXWF9CIHKRIURB","","60.5","img/land6.png","75","63.799999999813735","2","1","1","2","0.8,0.2,0.2,0.2,0.8,0.2,0.2,0.2,0.8","0.2,0.8,0.2,0.2,0.2,0.8,0.8,0.2,0.2","3","",""
"","html-keyboard-response","129","66577","0.0-129.0","3PS7W85Z80OUQU2FWDBL2ES93869T0","A3ADQ2RLQNJQDU","36U4VBVNQOZD8NFWZXWF9CIHKRIURB","","null","<img src=""img/land6.png"" style=""width:200px; border:14px solid green;"">","null","","","","","","","","","",""
"","image-keyboard-response","130","66768","0.0-130.0","3PS7W85Z80OUQU2FWDBL2ES93869T0","A3ADQ2RLQNJQDU","36U4VBVNQOZD8NFWZXWF9CIHKRIURB","","187.70000000018626","img/land6.png","76","190.79999999981374","3","0","1","2","0.8,0.2,0.2,0.2,0.8,0.2,0.2,0.2,0.8","0.2,0.8,0.2,0.2,0.2,0.8,0.8,0.2,0.2","3","",""
"","html-keyboard-response","131","67073","0.0-131.0","3PS7W85Z80OUQU2FWDBL2ES93869T0","A3ADQ2RLQNJQDU","36U4VBVNQOZD8NFWZXWF9CIHKRIURB","","null","<img src=""img/land6.png"" style=""width:200px;border:14px solid red;"">","null","","","","","","","","","",""
"","image-keyboard-response","132","67088","0.0-132.0","3PS7W85Z80OUQU2FWDBL2ES93869T0","A3ADQ2RLQNJQDU","36U4VBVNQOZD8NFWZXWF9CIHKRIURB","","11.600000000093132","img/land3.png","76","14.600000000093132","3","1","3","2","0.8,0.2,0.2,0.2,0.8,0.2,0.2,0.2,0.8","0.2,0.8,0.2,0.2,0.2,0.8,0.8,0.2,0.2","3","",""
"","html-keyboard-response","133","67391","0.0-133.0","3PS7W85Z80OUQU2FWDBL2ES93869T0","A3ADQ2RLQNJQDU","36U4VBVNQOZD8NFWZXWF9CIHKRIURB","","null","<img src=""img/land3.png"" style=""width:200px; border:14px solid green;"">","null","","","","","","","","","",""
"","image-keyboard-response","134","67488","0.0-134.0","3PS7W85Z80OUQU2FWDBL2ES93869T0","A3ADQ2RLQNJQDU","36U4VBVNQOZD8NFWZXWF9CIHKRIURB","","92.89999999990687","img/land6.png","76","95.6999999997206","3","0","1","2","0.8,0.2,0.2,0.2,0.8,0.2,0.2,0.2,0.8","0.2,0.8,0.2,0.2,0.2,0.8,0.8,0.2,0.2","3","",""
"","html-keyboard-response","135","67792","0.0-135.0","3PS7W85Z80OUQU2FWDBL2ES93869T0","A3ADQ2RLQNJQDU","36U4VBVNQOZD8NFWZXWF9CIHKRIURB","","null","<img src=""img/land6.png"" style=""width:200px;border:14px solid red;"">","null","","","","","","","","","",""
"","image-keyboard-response","136","67823","0.0-136.0","3PS7W85Z80OUQU2FWDBL2ES93869T0","A3ADQ2RLQNJQDU","36U4VBVNQOZD8NFWZXWF9CIHKRIURB","","27.299999999813735","img/land6.png","76","30.399999999906868","3","0","1","2","0.8,0.2,0.2,0.2,0.8,0.2,0.2,0.2,0.8","0.2,0.8,0.2,0.2,0.2,0.8,0.8,0.2,0.2","3","",""
"","html-keyboard-response","137","68127","0.0-137.0","3PS7W85Z80OUQU2FWDBL2ES93869T0","A3ADQ2RLQNJQDU","36U4VBVNQOZD8NFWZXWF9CIHKRIURB","","null","<img src=""img/land6.png"" style=""width:200px;border:14px solid red;"">","null","","","","","","","","","",""
"","image-keyboard-response","138","68224","0.0-138.0","3PS7W85Z80OUQU2FWDBL2ES93869T0","A3ADQ2RLQNJQDU","36U4VBVNQOZD8NFWZXWF9CIHKRIURB","","93.09999999962747","img/land6.png","76","96.39999999990687","3","0","1","2","0.8,0.2,0.2,0.2,0.8,0.2,0.2,0.2,0.8","0.2,0.8,0.2,0.2,0.2,0.8,0.8,0.2,0.2","3","",""
"","html-keyboard-response","139","68528","0.0-139.0","3PS7W85Z80OUQU2FWDBL2ES93869T0","A3ADQ2RLQNJQDU","36U4VBVNQOZD8NFWZXWF9CIHKRIURB","","null","<img src=""img/land6.png"" style=""width:200px;border:14px solid red;"">","null","","","","","","","","","",""
"","image-keyboard-response","140","68559","0.0-140.0","3PS7W85Z80OUQU2FWDBL2ES93869T0","A3ADQ2RLQNJQDU","36U4VBVNQOZD8NFWZXWF9CIHKRIURB","","28.100000000093132","img/land6.png","75","31","2","1","1","2","0.8,0.2,0.2,0.2,0.8,0.2,0.2,0.2,0.8","0.2,0.8,0.2,0.2,0.2,0.8,0.8,0.2,0.2","3","",""
"","html-keyboard-response","141","68864","0.0-141.0","3PS7W85Z80OUQU2FWDBL2ES93869T0","A3ADQ2RLQNJQDU","36U4VBVNQOZD8NFWZXWF9CIHKRIURB","","null","<img src=""img/land6.png"" style=""width:200px; border:14px solid green;"">","null","","","","","","","","","",""
"","image-keyboard-response","142","68944","0.0-142.0","3PS7W85Z80OUQU2FWDBL2ES93869T0","A3ADQ2RLQNJQDU","36U4VBVNQOZD8NFWZXWF9CIHKRIURB","","76.20000000018626","img/land6.png","75","79.29999999981374","2","1","1","2","0.8,0.2,0.2,0.2,0.8,0.2,0.2,0.2,0.8","0.2,0.8,0.2,0.2,0.2,0.8,0.8,0.2,0.2","3","",""
"","html-keyboard-response","143","69248","0.0-143.0","3PS7W85Z80OUQU2FWDBL2ES93869T0","A3ADQ2RLQNJQDU","36U4VBVNQOZD8NFWZXWF9CIHKRIURB","","null","<img src=""img/land6.png"" style=""width:200px; border:14px solid green;"">","null","","","","","","","","","",""
"","image-keyboard-response","144","69312","0.0-144.0","3PS7W85Z80OUQU2FWDBL2ES93869T0","A3ADQ2RLQNJQDU","36U4VBVNQOZD8NFWZXWF9CIHKRIURB","","60.5","img/land6.png","75","63.700000000186265","2","1","1","2","0.8,0.2,0.2,0.2,0.8,0.2,0.2,0.2,0.8","0.2,0.8,0.2,0.2,0.2,0.8,0.8,0.2,0.2","3","",""
"","html-keyboard-response","145","69616","0.0-145.0","3PS7W85Z80OUQU2FWDBL2ES93869T0","A3ADQ2RLQNJQDU","36U4VBVNQOZD8NFWZXWF9CIHKRIURB","","null","<img src=""img/land6.png"" style=""width:200px; border:14px solid green;"">","null","","","","","","","","","",""
"","image-keyboard-response","146","69713","0.0-146.0","3PS7W85Z80OUQU2FWDBL2ES93869T0","A3ADQ2RLQNJQDU","36U4VBVNQOZD8NFWZXWF9CIHKRIURB","","93.09999999962747","img/land1.png","75","96.20000000018626","2","0","2","2","0.8,0.2,0.2,0.2,0.8,0.2,0.2,0.2,0.8","0.2,0.8,0.2,0.2,0.2,0.8,0.8,0.2,0.2","3","",""
"","html-keyboard-response","147","70017","0.0-147.0","3PS7W85Z80OUQU2FWDBL2ES93869T0","A3ADQ2RLQNJQDU","36U4VBVNQOZD8NFWZXWF9CIHKRIURB","","null","<img src=""img/land1.png"" style=""width:200px;border:14px solid red;"">","null","","","","","","","","","",""
"","image-keyboard-response","148","70336","0.0-148.0","3PS7W85Z80OUQU2FWDBL2ES93869T0","A3ADQ2RLQNJQDU","36U4VBVNQOZD8NFWZXWF9CIHKRIURB","","315.29999999981374","img/land6.png","76","318.3000000002794","3","0","1","2","0.8,0.2,0.2,0.2,0.8,0.2,0.2,0.2,0.8","0.2,0.8,0.2,0.2,0.2,0.8,0.8,0.2,0.2","3","",""
"","html-keyboard-response","149","70640","0.0-149.0","3PS7W85Z80OUQU2FWDBL2ES93869T0","A3ADQ2RLQNJQDU","36U4VBVNQOZD8NFWZXWF9CIHKRIURB","","null","<img src=""img/land6.png"" style=""width:200px;border:14px solid red;"">","null","","","","","","","","","",""
"","image-keyboard-response","150","70784","0.0-150.0","3PS7W85Z80OUQU2FWDBL2ES93869T0","A3ADQ2RLQNJQDU","36U4VBVNQOZD8NFWZXWF9CIHKRIURB","","141.8000000002794","img/land6.png","76","144.29999999981374","3","0","1","2","0.8,0.2,0.2,0.2,0.8,0.2,0.2,0.2,0.8","0.2,0.8,0.2,0.2,0.2,0.8,0.8,0.2,0.2","3","",""
"","html-keyboard-response","151","71088","0.0-151.0","3PS7W85Z80OUQU2FWDBL2ES93869T0","A3ADQ2RLQNJQDU","36U4VBVNQOZD8NFWZXWF9CIHKRIURB","","null","<img src=""img/land6.png"" style=""width:200px;border:14px solid red;"">","null","","","","","","","","","",""
"","image-keyboard-response","152","71200","0.0-152.0","3PS7W85Z80OUQU2FWDBL2ES93869T0","A3ADQ2RLQNJQDU","36U4VBVNQOZD8NFWZXWF9CIHKRIURB","","108.29999999981374","img/land6.png","76","111.39999999990687","3","0","1","2","0.8,0.2,0.2,0.2,0.8,0.2,0.2,0.2,0.8","0.2,0.8,0.2,0.2,0.2,0.8,0.8,0.2,0.2","3","",""
"","html-keyboard-response","153","71504","0.0-153.0","3PS7W85Z80OUQU2FWDBL2ES93869T0","A3ADQ2RLQNJQDU","36U4VBVNQOZD8NFWZXWF9CIHKRIURB","","null","<img src=""img/land6.png"" style=""width:200px;border:14px solid red;"">","null","","","","","","","","","",""
"","image-keyboard-response","154","71552","0.0-154.0","3PS7W85Z80OUQU2FWDBL2ES93869T0","A3ADQ2RLQNJQDU","36U4VBVNQOZD8NFWZXWF9CIHKRIURB","","44.39999999990687","img/land3.png","76","47.40000000037253","3","1","3","2","0.8,0.2,0.2,0.2,0.8,0.2,0.2,0.2,0.8","0.2,0.8,0.2,0.2,0.2,0.8,0.8,0.2,0.2","3","",""
"","html-keyboard-response","155","71856","0.0-155.0","3PS7W85Z80OUQU2FWDBL2ES93869T0","A3ADQ2RLQNJQDU","36U4VBVNQOZD8NFWZXWF9CIHKRIURB","","null","<img src=""img/land3.png"" style=""width:200px; border:14px solid green;"">","null","","","","","","","","","",""
"","image-keyboard-response","156","71887","0.0-156.0","3PS7W85Z80OUQU2FWDBL2ES93869T0","A3ADQ2RLQNJQDU","36U4VBVNQOZD8NFWZXWF9CIHKRIURB","","27.800000000279397","img/land6.png","74","31","1","0","1","2","0.8,0.2,0.2,0.2,0.8,0.2,0.2,0.2,0.8","0.2,0.8,0.2,0.2,0.2,0.8,0.8,0.2,0.2","3","",""
"","html-keyboard-response","157","72191","0.0-157.0","3PS7W85Z80OUQU2FWDBL2ES93869T0","A3ADQ2RLQNJQDU","36U4VBVNQOZD8NFWZXWF9CIHKRIURB","","null","<img src=""img/land6.png"" style=""width:200px;border:14px solid red;"">","null","","","","","","","","","",""
"","image-keyboard-response","158","72303","0.0-158.0","3PS7W85Z80OUQU2FWDBL2ES93869T0","A3ADQ2RLQNJQDU","36U4VBVNQOZD8NFWZXWF9CIHKRIURB","","108.8000000002794","img/land6.png","74","111.70000000018626","1","1","1","2","0.8,0.2,0.2,0.2,0.8,0.2,0.2,0.2,0.8","0.2,0.8,0.2,0.2,0.2,0.8,0.8,0.2,0.2","3","",""
"","html-keyboard-response","159","72608","0.0-159.0","3PS7W85Z80OUQU2FWDBL2ES93869T0","A3ADQ2RLQNJQDU","36U4VBVNQOZD8NFWZXWF9CIHKRIURB","","null","<img src=""img/land6.png"" style=""width:200px; border:14px solid green;"">","null","","","","","","","","","",""
"","image-keyboard-response","160","72672","0.0-160.0","3PS7W85Z80OUQU2FWDBL2ES93869T0","A3ADQ2RLQNJQDU","36U4VBVNQOZD8NFWZXWF9CIHKRIURB","","60.799999999813735","img/land6.png","74","63.90000000037253","1","0","1","2","0.8,0.2,0.2,0.2,0.8,0.2,0.2,0.2,0.8","0.2,0.8,0.2,0.2,0.2,0.8,0.8,0.2,0.2","3","",""
"","html-keyboard-response","161","72976","0.0-161.0","3PS7W85Z80OUQU2FWDBL2ES93869T0","A3ADQ2RLQNJQDU","36U4VBVNQOZD8NFWZXWF9CIHKRIURB","","null","<img src=""img/land6.png"" style=""width:200px;border:14px solid red;"">","null","","","","","","","","","",""
"","image-keyboard-response","162","73090","0.0-162.0","3PS7W85Z80OUQU2FWDBL2ES93869T0","A3ADQ2RLQNJQDU","36U4VBVNQOZD8NFWZXWF9CIHKRIURB","","109.89999999990687","img/land6.png","74","113","1","1","1","2","0.8,0.2,0.2,0.2,0.8,0.2,0.2,0.2,0.8","0.2,0.8,0.2,0.2,0.2,0.8,0.8,0.2,0.2","3","",""
"","html-keyboard-response","163","73394","0.0-163.0","3PS7W85Z80OUQU2FWDBL2ES93869T0","A3ADQ2RLQNJQDU","36U4VBVNQOZD8NFWZXWF9CIHKRIURB","","null","<img src=""img/land6.png"" style=""width:200px; border:14px solid green;"">","null","","","","","","","","","",""
"","image-keyboard-response","164","73520","0.0-164.0","3PS7W85Z80OUQU2FWDBL2ES93869T0","A3ADQ2RLQNJQDU","36U4VBVNQOZD8NFWZXWF9CIHKRIURB","","121.60000000009313","img/land6.png","74","124.79999999981374","1","0","1","2","0.8,0.2,0.2,0.2,0.8,0.2,0.2,0.2,0.8","0.2,0.8,0.2,0.2,0.2,0.8,0.8,0.2,0.2","3","",""
"","html-keyboard-response","165","73824","0.0-165.0","3PS7W85Z80OUQU2FWDBL2ES93869T0","A3ADQ2RLQNJQDU","36U4VBVNQOZD8NFWZXWF9CIHKRIURB","","null","<img src=""img/land6.png"" style=""width:200px;border:14px solid red;"">","null","","","","","","","","","",""
"","image-keyboard-response","166","73920","0.0-166.0","3PS7W85Z80OUQU2FWDBL2ES93869T0","A3ADQ2RLQNJQDU","36U4VBVNQOZD8NFWZXWF9CIHKRIURB","","92.60000000009313","img/land1.png","74","95.70000000018626","1","1","2","2","0.8,0.2,0.2,0.2,0.8,0.2,0.2,0.2,0.8","0.2,0.8,0.2,0.2,0.2,0.8,0.8,0.2,0.2","3","",""
"","html-keyboard-response","167","74224","0.0-167.0","3PS7W85Z80OUQU2FWDBL2ES93869T0","A3ADQ2RLQNJQDU","36U4VBVNQOZD8NFWZXWF9CIHKRIURB","","null","<img src=""img/land1.png"" style=""width:200px; border:14px solid green;"">","null","","","","","","","","","",""
"","image-keyboard-response","168","74368","0.0-168.0","3PS7W85Z80OUQU2FWDBL2ES93869T0","A3ADQ2RLQNJQDU","36U4VBVNQOZD8NFWZXWF9CIHKRIURB","","140.20000000018626","img/land6.png","74","143.40000000037253","1","0","1","2","0.8,0.2,0.2,0.2,0.8,0.2,0.2,0.2,0.8","0.2,0.8,0.2,0.2,0.2,0.8,0.8,0.2,0.2","3","",""
"","html-keyboard-response","169","74674","0.0-169.0","3PS7W85Z80OUQU2FWDBL2ES93869T0","A3ADQ2RLQNJQDU","36U4VBVNQOZD8NFWZXWF9CIHKRIURB","","null","<img src=""img/land6.png"" style=""width:200px;border:14px solid red;"">","null","","","","","","","","","",""
"","image-keyboard-response","170","74800","0.0-170.0","3PS7W85Z80OUQU2FWDBL2ES93869T0","A3ADQ2RLQNJQDU","36U4VBVNQOZD8NFWZXWF9CIHKRIURB","","122.70000000018626","img/land6.png","74","125.5","1","0","1","2","0.8,0.2,0.2,0.2,0.8,0.2,0.2,0.2,0.8","0.2,0.8,0.2,0.2,0.2,0.8,0.8,0.2,0.2","3","",""
"","html-keyboard-response","171","75104","0.0-171.0","3PS7W85Z80OUQU2FWDBL2ES93869T0","A3ADQ2RLQNJQDU","36U4VBVNQOZD8NFWZXWF9CIHKRIURB","","null","<img src=""img/land6.png"" style=""width:200px;border:14px solid red;"">","null","","","","","","","","","",""
"","image-keyboard-response","172","75201","0.0-172.0","3PS7W85Z80OUQU2FWDBL2ES93869T0","A3ADQ2RLQNJQDU","36U4VBVNQOZD8NFWZXWF9CIHKRIURB","","93","img/land6.png","74","96.10000000009313","1","0","1","2","0.8,0.2,0.2,0.2,0.8,0.2,0.2,0.2,0.8","0.2,0.8,0.2,0.2,0.2,0.8,0.8,0.2,0.2","3","",""
"","html-keyboard-response","173","75505","0.0-173.0","3PS7W85Z80OUQU2FWDBL2ES93869T0","A3ADQ2RLQNJQDU","36U4VBVNQOZD8NFWZXWF9CIHKRIURB","","null","<img src=""img/land6.png"" style=""width:200px;border:14px solid red;"">","null","","","","","","","","","",""
"","image-keyboard-response","174","75632","0.0-174.0","3PS7W85Z80OUQU2FWDBL2ES93869T0","A3ADQ2RLQNJQDU","36U4VBVNQOZD8NFWZXWF9CIHKRIURB","","123","img/land6.png","74","125.89999999990687","1","0","1","2","0.8,0.2,0.2,0.2,0.8,0.2,0.2,0.2,0.8","0.2,0.8,0.2,0.2,0.2,0.8,0.8,0.2,0.2","3","",""
"","html-keyboard-response","175","75936","0.0-175.0","3PS7W85Z80OUQU2FWDBL2ES93869T0","A3ADQ2RLQNJQDU","36U4VBVNQOZD8NFWZXWF9CIHKRIURB","","null","<img src=""img/land6.png"" style=""width:200px;border:14px solid red;"">","null","","","","","","","","","",""
"","image-keyboard-response","176","76064","0.0-176.0","3PS7W85Z80OUQU2FWDBL2ES93869T0","A3ADQ2RLQNJQDU","36U4VBVNQOZD8NFWZXWF9CIHKRIURB","","124.79999999981374","img/land6.png","74","127.89999999990687","1","0","1","2","0.8,0.2,0.2,0.2,0.8,0.2,0.2,0.2,0.8","0.2,0.8,0.2,0.2,0.2,0.8,0.8,0.2,0.2","3","",""
"","html-keyboard-response","177","76369","0.0-177.0","3PS7W85Z80OUQU2FWDBL2ES93869T0","A3ADQ2RLQNJQDU","36U4VBVNQOZD8NFWZXWF9CIHKRIURB","","null","<img src=""img/land6.png"" style=""width:200px;border:14px solid red;"">","null","","","","","","","","","",""
"","image-keyboard-response","178","76576","0.0-178.0","3PS7W85Z80OUQU2FWDBL2ES93869T0","A3ADQ2RLQNJQDU","36U4VBVNQOZD8NFWZXWF9CIHKRIURB","","203.79999999981374","img/land6.png","74","206.79999999981374","1","0","1","2","0.8,0.2,0.2,0.2,0.8,0.2,0.2,0.2,0.8","0.2,0.8,0.2,0.2,0.2,0.8,0.8,0.2,0.2","3","",""
"","html-keyboard-response","179","76880","0.0-179.0","3PS7W85Z80OUQU2FWDBL2ES93869T0","A3ADQ2RLQNJQDU","36U4VBVNQOZD8NFWZXWF9CIHKRIURB","","null","<img src=""img/land6.png"" style=""width:200px;border:14px solid red;"">","null","","","","","","","","","",""
"","image-keyboard-response","180","77040","0.0-180.0","3PS7W85Z80OUQU2FWDBL2ES93869T0","A3ADQ2RLQNJQDU","36U4VBVNQOZD8NFWZXWF9CIHKRIURB","","156.60000000009313","img/land6.png","75","159.60000000009313","2","1","1","2","0.8,0.2,0.2,0.2,0.8,0.2,0.2,0.2,0.8","0.2,0.8,0.2,0.2,0.2,0.8,0.8,0.2,0.2","3","",""
"","html-keyboard-response","181","77344","0.0-181.0","3PS7W85Z80OUQU2FWDBL2ES93869T0","A3ADQ2RLQNJQDU","36U4VBVNQOZD8NFWZXWF9CIHKRIURB","","null","<img src=""img/land6.png"" style=""width:200px; border:14px solid green;"">","null","","","","","","","","","",""
"","image-keyboard-response","182","77520","0.0-182.0","3PS7W85Z80OUQU2FWDBL2ES93869T0","A3ADQ2RLQNJQDU","36U4VBVNQOZD8NFWZXWF9CIHKRIURB","","173.5","img/land6.png","75","176","2","0","1","2","0.8,0.2,0.2,0.2,0.8,0.2,0.2,0.2,0.8","0.2,0.8,0.2,0.2,0.2,0.8,0.8,0.2,0.2","3","",""
"","html-keyboard-response","183","77824","0.0-183.0","3PS7W85Z80OUQU2FWDBL2ES93869T0","A3ADQ2RLQNJQDU","36U4VBVNQOZD8NFWZXWF9CIHKRIURB","","null","<img src=""img/land6.png"" style=""width:200px;border:14px solid red;"">","null","","","","","","","","","",""
"","image-keyboard-response","184","77968","0.0-184.0","3PS7W85Z80OUQU2FWDBL2ES93869T0","A3ADQ2RLQNJQDU","36U4VBVNQOZD8NFWZXWF9CIHKRIURB","","140.10000000009313","img/land6.png","75","143.5","2","1","1","2","0.8,0.2,0.2,0.2,0.8,0.2,0.2,0.2,0.8","0.2,0.8,0.2,0.2,0.2,0.8,0.8,0.2,0.2","3","",""
"","html-keyboard-response","185","78272","0.0-185.0","3PS7W85Z80OUQU2FWDBL2ES93869T0","A3ADQ2RLQNJQDU","36U4VBVNQOZD8NFWZXWF9CIHKRIURB","","null","<img src=""img/land6.png"" style=""width:200px; border:14px solid green;"">","null","","","","","","","","","",""
"","image-keyboard-response","186","78624","0.0-186.0","3PS7W85Z80OUQU2FWDBL2ES93869T0","A3ADQ2RLQNJQDU","36U4VBVNQOZD8NFWZXWF9CIHKRIURB","","349.10000000009313","img/land6.png","76","351.39999999990687","3","0","1","2","0.8,0.2,0.2,0.2,0.8,0.2,0.2,0.2,0.8","0.2,0.8,0.2,0.2,0.2,0.8,0.8,0.2,0.2","3","",""
"","html-keyboard-response","187","78927","0.0-187.0","3PS7W85Z80OUQU2FWDBL2ES93869T0","A3ADQ2RLQNJQDU","36U4VBVNQOZD8NFWZXWF9CIHKRIURB","","null","<img src=""img/land6.png"" style=""width:200px;border:14px solid red;"">","null","","","","","","","","","",""
"","image-keyboard-response","188","79009","0.0-188.0","3PS7W85Z80OUQU2FWDBL2ES93869T0","A3ADQ2RLQNJQDU","36U4VBVNQOZD8NFWZXWF9CIHKRIURB","","77.59999999962747","img/land3.png","76","80.70000000018626","3","0","3","2","0.8,0.2,0.2,0.2,0.8,0.2,0.2,0.2,0.8","0.2,0.8,0.2,0.2,0.2,0.8,0.8,0.2,0.2","3","",""
"","html-keyboard-response","189","79313","0.0-189.0","3PS7W85Z80OUQU2FWDBL2ES93869T0","A3ADQ2RLQNJQDU","36U4VBVNQOZD8NFWZXWF9CIHKRIURB","","null","<img src=""img/land3.png"" style=""width:200px;border:14px solid red;"">","null","","","","","","","","","",""
"","image-keyboard-response","190","79361","0.0-190.0","3PS7W85Z80OUQU2FWDBL2ES93869T0","A3ADQ2RLQNJQDU","36U4VBVNQOZD8NFWZXWF9CIHKRIURB","","44","img/land1.png","76","47.200000000186265","3","1","2","2","0.8,0.2,0.2,0.2,0.8,0.2,0.2,0.2,0.8","0.2,0.8,0.2,0.2,0.2,0.8,0.8,0.2,0.2","3","",""
"","html-keyboard-response","191","79665","0.0-191.0","3PS7W85Z80OUQU2FWDBL2ES93869T0","A3ADQ2RLQNJQDU","36U4VBVNQOZD8NFWZXWF9CIHKRIURB","","null","<img src=""img/land1.png"" style=""width:200px; border:14px solid green;"">","null","","","","","","","","","",""
"","image-keyboard-response","192","79840","0.0-192.0","3PS7W85Z80OUQU2FWDBL2ES93869T0","A3ADQ2RLQNJQDU","36U4VBVNQOZD8NFWZXWF9CIHKRIURB","","171.8000000002794","img/land6.png","75","174.89999999990687","2","1","1","2","0.8,0.2,0.2,0.2,0.8,0.2,0.2,0.2,0.8","0.2,0.8,0.2,0.2,0.2,0.8,0.8,0.2,0.2","3","",""
"","html-keyboard-response","193","80144","0.0-193.0","3PS7W85Z80OUQU2FWDBL2ES93869T0","A3ADQ2RLQNJQDU","36U4VBVNQOZD8NFWZXWF9CIHKRIURB","","null","<img src=""img/land6.png"" style=""width:200px; border:14px solid green;"">","null","","","","","","","","","",""
"","image-keyboard-response","194","80304","0.0-194.0","3PS7W85Z80OUQU2FWDBL2ES93869T0","A3ADQ2RLQNJQDU","36U4VBVNQOZD8NFWZXWF9CIHKRIURB","","156.10000000009313","img/land1.png","75","159.29999999981374","2","1","2","2","0.8,0.2,0.2,0.2,0.8,0.2,0.2,0.2,0.8","0.2,0.8,0.2,0.2,0.2,0.8,0.8,0.2,0.2","3","",""
"","html-keyboard-response","195","80607","0.0-195.0","3PS7W85Z80OUQU2FWDBL2ES93869T0","A3ADQ2RLQNJQDU","36U4VBVNQOZD8NFWZXWF9CIHKRIURB","","null","<img src=""img/land1.png"" style=""width:200px; border:14px solid green;"">","null","","","","","","","","","",""
"","image-keyboard-response","196","80752","0.0-196.0","3PS7W85Z80OUQU2FWDBL2ES93869T0","A3ADQ2RLQNJQDU","36U4VBVNQOZD8NFWZXWF9CIHKRIURB","","141.10000000009313","img/land6.png","75","144.1999999997206","2","1","1","2","0.8,0.2,0.2,0.2,0.8,0.2,0.2,0.2,0.8","0.2,0.8,0.2,0.2,0.2,0.8,0.8,0.2,0.2","3","",""
"","html-keyboard-response","197","81055","0.0-197.0","3PS7W85Z80OUQU2FWDBL2ES93869T0","A3ADQ2RLQNJQDU","36U4VBVNQOZD8NFWZXWF9CIHKRIURB","","null","<img src=""img/land6.png"" style=""width:200px; border:14px solid green;"">","null","","","","","","","","","",""
"","image-keyboard-response","198","81216","0.0-198.0","3PS7W85Z80OUQU2FWDBL2ES93869T0","A3ADQ2RLQNJQDU","36U4VBVNQOZD8NFWZXWF9CIHKRIURB","","157.89999999990687","img/land6.png","75","160","2","1","1","2","0.8,0.2,0.2,0.2,0.8,0.2,0.2,0.2,0.8","0.2,0.8,0.2,0.2,0.2,0.8,0.8,0.2,0.2","3","",""
"","html-keyboard-response","199","81518","0.0-199.0","3PS7W85Z80OUQU2FWDBL2ES93869T0","A3ADQ2RLQNJQDU","36U4VBVNQOZD8NFWZXWF9CIHKRIURB","","null","<img src=""img/land6.png"" style=""width:200px; border:14px solid green;"">","null","","","","","","","","","",""
"","image-keyboard-response","200","81584","0.0-200.0","3PS7W85Z80OUQU2FWDBL2ES93869T0","A3ADQ2RLQNJQDU","36U4VBVNQOZD8NFWZXWF9CIHKRIURB","","62.40000000037253","img/land1.png","75","65.39999999990687","2","0","2","2","0.8,0.2,0.2,0.2,0.8,0.2,0.2,0.2,0.8","0.2,0.8,0.2,0.2,0.2,0.8,0.8,0.2,0.2","3","",""
"","html-keyboard-response","201","81888","0.0-201.0","3PS7W85Z80OUQU2FWDBL2ES93869T0","A3ADQ2RLQNJQDU","36U4VBVNQOZD8NFWZXWF9CIHKRIURB","","null","<img src=""img/land1.png"" style=""width:200px;border:14px solid red;"">","null","","","","","","","","","",""
"","image-keyboard-response","202","82064","0.0-202.0","3PS7W85Z80OUQU2FWDBL2ES93869T0","A3ADQ2RLQNJQDU","36U4VBVNQOZD8NFWZXWF9CIHKRIURB","","172.39999999990687","img/land6.png","75","175.39999999990687","2","1","1","2","0.8,0.2,0.2,0.2,0.8,0.2,0.2,0.2,0.8","0.2,0.8,0.2,0.2,0.2,0.8,0.8,0.2,0.2","3","",""
"","html-keyboard-response","203","82368","0.0-203.0","3PS7W85Z80OUQU2FWDBL2ES93869T0","A3ADQ2RLQNJQDU","36U4VBVNQOZD8NFWZXWF9CIHKRIURB","","null","<img src=""img/land6.png"" style=""width:200px; border:14px solid green;"">","null","","","","","","","","","",""
"","image-keyboard-response","204","82544","0.0-204.0","3PS7W85Z80OUQU2FWDBL2ES93869T0","A3ADQ2RLQNJQDU","36U4VBVNQOZD8NFWZXWF9CIHKRIURB","","172.39999999990687","img/land6.png","76","175.60000000009313","3","1","1","2","0.8,0.2,0.2,0.2,0.8,0.2,0.2,0.2,0.8","0.2,0.8,0.2,0.2,0.2,0.8,0.8,0.2,0.2","3","",""
"","html-keyboard-response","205","82849","0.0-205.0","3PS7W85Z80OUQU2FWDBL2ES93869T0","A3ADQ2RLQNJQDU","36U4VBVNQOZD8NFWZXWF9CIHKRIURB","","null","<img src=""img/land6.png"" style=""width:200px; border:14px solid green;"">","null","","","","","","","","","",""
"","image-keyboard-response","206","82976","0.0-206.0","3PS7W85Z80OUQU2FWDBL2ES93869T0","A3ADQ2RLQNJQDU","36U4VBVNQOZD8NFWZXWF9CIHKRIURB","","124","img/land3.png","76","127.20000000018626","3","0","3","2","0.8,0.2,0.2,0.2,0.8,0.2,0.2,0.2,0.8","0.2,0.8,0.2,0.2,0.2,0.8,0.8,0.2,0.2","3","",""
"","html-keyboard-response","207","83281","0.0-207.0","3PS7W85Z80OUQU2FWDBL2ES93869T0","A3ADQ2RLQNJQDU","36U4VBVNQOZD8NFWZXWF9CIHKRIURB","","null","<img src=""img/land3.png"" style=""width:200px;border:14px solid red;"">","null","","","","","","","","","",""
"","image-keyboard-response","208","83632","0.0-208.0","3PS7W85Z80OUQU2FWDBL2ES93869T0","A3ADQ2RLQNJQDU","36U4VBVNQOZD8NFWZXWF9CIHKRIURB","","345.09999999962747","img/land6.png","75","347.79999999981374","2","1","1","2","0.8,0.2,0.2,0.2,0.8,0.2,0.2,0.2,0.8","0.2,0.8,0.2,0.2,0.2,0.8,0.8,0.2,0.2","3","",""
"","html-keyboard-response","209","83935","0.0-209.0","3PS7W85Z80OUQU2FWDBL2ES93869T0","A3ADQ2RLQNJQDU","36U4VBVNQOZD8NFWZXWF9CIHKRIURB","","null","<img src=""img/land6.png"" style=""width:200px; border:14px solid green;"">","null","","","","","","","","","",""
"","image-keyboard-response","210","84049","0.0-210.0","3PS7W85Z80OUQU2FWDBL2ES93869T0","A3ADQ2RLQNJQDU","36U4VBVNQOZD8NFWZXWF9CIHKRIURB","","110.79999999981374","img/land6.png","75","114.10000000009313","2","1","1","2","0.8,0.2,0.2,0.2,0.8,0.2,0.2,0.2,0.8","0.2,0.8,0.2,0.2,0.2,0.8,0.8,0.2,0.2","3","",""
"","html-keyboard-response","211","84353","0.0-211.0","3PS7W85Z80OUQU2FWDBL2ES93869T0","A3ADQ2RLQNJQDU","36U4VBVNQOZD8NFWZXWF9CIHKRIURB","","null","<img src=""img/land6.png"" style=""width:200px; border:14px solid green;"">","null","","","","","","","","","",""
"","image-keyboard-response","212","84513","0.0-212.0","3PS7W85Z80OUQU2FWDBL2ES93869T0","A3ADQ2RLQNJQDU","36U4VBVNQOZD8NFWZXWF9CIHKRIURB","","155.5","img/land6.png","75","158.79999999981374","2","1","1","2","0.8,0.2,0.2,0.2,0.8,0.2,0.2,0.2,0.8","0.2,0.8,0.2,0.2,0.2,0.8,0.8,0.2,0.2","3","",""
"","html-keyboard-response","213","84817","0.0-213.0","3PS7W85Z80OUQU2FWDBL2ES93869T0","A3ADQ2RLQNJQDU","36U4VBVNQOZD8NFWZXWF9CIHKRIURB","","null","<img src=""img/land6.png"" style=""width:200px; border:14px solid green;"">","null","","","","","","","","","",""
"","image-keyboard-response","214","84960","0.0-214.0","3PS7W85Z80OUQU2FWDBL2ES93869T0","A3ADQ2RLQNJQDU","36U4VBVNQOZD8NFWZXWF9CIHKRIURB","","138.79999999981374","img/land3.png","75","141.60000000009313","2","1","3","2","0.8,0.2,0.2,0.2,0.8,0.2,0.2,0.2,0.8","0.2,0.8,0.2,0.2,0.2,0.8,0.8,0.2,0.2","3","",""
"","html-keyboard-response","215","85263","0.0-215.0","3PS7W85Z80OUQU2FWDBL2ES93869T0","A3ADQ2RLQNJQDU","36U4VBVNQOZD8NFWZXWF9CIHKRIURB","","null","<img src=""img/land3.png"" style=""width:200px; border:14px solid green;"">","null","","","","","","","","","",""
"","image-keyboard-response","216","85312","0.0-216.0","3PS7W85Z80OUQU2FWDBL2ES93869T0","A3ADQ2RLQNJQDU","36U4VBVNQOZD8NFWZXWF9CIHKRIURB","","45.10000000009313","img/land6.png","75","47.8000000002794","2","1","1","2","0.8,0.2,0.2,0.2,0.8,0.2,0.2,0.2,0.8","0.2,0.8,0.2,0.2,0.2,0.8,0.8,0.2,0.2","3","",""
"","html-keyboard-response","217","85615","0.0-217.0","3PS7W85Z80OUQU2FWDBL2ES93869T0","A3ADQ2RLQNJQDU","36U4VBVNQOZD8NFWZXWF9CIHKRIURB","","null","<img src=""img/land6.png"" style=""width:200px; border:14px solid green;"">","null","","","","","","","","","",""
"","image-keyboard-response","218","85618","0.0-218.0","3PS7W85Z80OUQU2FWDBL2ES93869T0","A3ADQ2RLQNJQDU","36U4VBVNQOZD8NFWZXWF9CIHKRIURB","","0.39999999990686774","img/land6.png","75","2.599999999627471","2","0","1","2","0.8,0.2,0.2,0.2,0.8,0.2,0.2,0.2,0.8","0.2,0.8,0.2,0.2,0.2,0.8,0.8,0.2,0.2","3","",""
"","html-keyboard-response","219","85921","0.0-219.0","3PS7W85Z80OUQU2FWDBL2ES93869T0","A3ADQ2RLQNJQDU","36U4VBVNQOZD8NFWZXWF9CIHKRIURB","","null","<img src=""img/land6.png"" style=""width:200px;border:14px solid red;"">","null","","","","","","","","","",""
"","image-keyboard-response","220","86304","0.0-220.0","3PS7W85Z80OUQU2FWDBL2ES93869T0","A3ADQ2RLQNJQDU","36U4VBVNQOZD8NFWZXWF9CIHKRIURB","","379.5","img/land1.png","76","383","3","1","2","2","0.8,0.2,0.2,0.2,0.8,0.2,0.2,0.2,0.8","0.2,0.8,0.2,0.2,0.2,0.8,0.8,0.2,0.2","3","",""
"","html-keyboard-response","221","86610","0.0-221.0","3PS7W85Z80OUQU2FWDBL2ES93869T0","A3ADQ2RLQNJQDU","36U4VBVNQOZD8NFWZXWF9CIHKRIURB","","null","<img src=""img/land1.png"" style=""width:200px; border:14px solid green;"">","null","","","","","","","","","",""
"","image-keyboard-response","222","86736","0.0-222.0","3PS7W85Z80OUQU2FWDBL2ES93869T0","A3ADQ2RLQNJQDU","36U4VBVNQOZD8NFWZXWF9CIHKRIURB","","122.5","img/land1.png","76","125.59999999962747","3","1","2","2","0.8,0.2,0.2,0.2,0.8,0.2,0.2,0.2,0.8","0.2,0.8,0.2,0.2,0.2,0.8,0.8,0.2,0.2","3","",""
"","html-keyboard-response","223","87039","0.0-223.0","3PS7W85Z80OUQU2FWDBL2ES93869T0","A3ADQ2RLQNJQDU","36U4VBVNQOZD8NFWZXWF9CIHKRIURB","","null","<img src=""img/land1.png"" style=""width:200px; border:14px solid green;"">","null","","","","","","","","","",""
"","image-keyboard-response","224","87184","0.0-224.0","3PS7W85Z80OUQU2FWDBL2ES93869T0","A3ADQ2RLQNJQDU","36U4VBVNQOZD8NFWZXWF9CIHKRIURB","","140.8000000002794","img/land6.png","76","144.39999999990687","3","1","1","2","0.8,0.2,0.2,0.2,0.8,0.2,0.2,0.2,0.8","0.2,0.8,0.2,0.2,0.2,0.8,0.8,0.2,0.2","3","",""
"","html-keyboard-response","225","87489","0.0-225.0","3PS7W85Z80OUQU2FWDBL2ES93869T0","A3ADQ2RLQNJQDU","36U4VBVNQOZD8NFWZXWF9CIHKRIURB","","null","<img src=""img/land6.png"" style=""width:200px; border:14px solid green;"">","null","","","","","","","","","",""
"","image-keyboard-response","226","87632","0.0-226.0","3PS7W85Z80OUQU2FWDBL2ES93869T0","A3ADQ2RLQNJQDU","36U4VBVNQOZD8NFWZXWF9CIHKRIURB","","139.89999999990687","img/land6.png","76","142.89999999990687","3","0","1","2","0.8,0.2,0.2,0.2,0.8,0.2,0.2,0.2,0.8","0.2,0.8,0.2,0.2,0.2,0.8,0.8,0.2,0.2","3","",""
"","html-keyboard-response","227","87937","0.0-227.0","3PS7W85Z80OUQU2FWDBL2ES93869T0","A3ADQ2RLQNJQDU","36U4VBVNQOZD8NFWZXWF9CIHKRIURB","","null","<img src=""img/land6.png"" style=""width:200px;border:14px solid red;"">","null","","","","","","","","","",""
"","image-keyboard-response","228","88064","0.0-228.0","3PS7W85Z80OUQU2FWDBL2ES93869T0","A3ADQ2RLQNJQDU","36U4VBVNQOZD8NFWZXWF9CIHKRIURB","","123.60000000009313","img/land6.png","76","126.70000000018626","3","0","1","2","0.8,0.2,0.2,0.2,0.8,0.2,0.2,0.2,0.8","0.2,0.8,0.2,0.2,0.2,0.8,0.8,0.2,0.2","3","",""
"","html-keyboard-response","229","88368","0.0-229.0","3PS7W85Z80OUQU2FWDBL2ES93869T0","A3ADQ2RLQNJQDU","36U4VBVNQOZD8NFWZXWF9CIHKRIURB","","null","<img src=""img/land6.png"" style=""width:200px;border:14px solid red;"">","null","","","","","","","","","",""
"","image-keyboard-response","230","88384","0.0-230.0","3PS7W85Z80OUQU2FWDBL2ES93869T0","A3ADQ2RLQNJQDU","36U4VBVNQOZD8NFWZXWF9CIHKRIURB","","11.899999999906868","img/land6.png","74","15.100000000093132","1","0","1","2","0.8,0.2,0.2,0.2,0.8,0.2,0.2,0.2,0.8","0.2,0.8,0.2,0.2,0.2,0.8,0.8,0.2,0.2","3","",""
"","html-keyboard-response","231","88688","0.0-231.0","3PS7W85Z80OUQU2FWDBL2ES93869T0","A3ADQ2RLQNJQDU","36U4VBVNQOZD8NFWZXWF9CIHKRIURB","","null","<img src=""img/land6.png"" style=""width:200px;border:14px solid red;"">","null","","","","","","","","","",""
"","image-keyboard-response","232","88832","0.0-232.0","3PS7W85Z80OUQU2FWDBL2ES93869T0","A3ADQ2RLQNJQDU","36U4VBVNQOZD8NFWZXWF9CIHKRIURB","","140","img/land3.png","74","143.10000000009313","1","1","3","2","0.8,0.2,0.2,0.2,0.8,0.2,0.2,0.2,0.8","0.2,0.8,0.2,0.2,0.2,0.8,0.8,0.2,0.2","3","",""
"","html-keyboard-response","233","89136","0.0-233.0","3PS7W85Z80OUQU2FWDBL2ES93869T0","A3ADQ2RLQNJQDU","36U4VBVNQOZD8NFWZXWF9CIHKRIURB","","null","<img src=""img/land3.png"" style=""width:200px; border:14px solid green;"">","null","","","","","","","","","",""
"","image-keyboard-response","234","89343","0.0-234.0","3PS7W85Z80OUQU2FWDBL2ES93869T0","A3ADQ2RLQNJQDU","36U4VBVNQOZD8NFWZXWF9CIHKRIURB","","203.59999999962747","img/land3.png","74","206.5","1","1","3","2","0.8,0.2,0.2,0.2,0.8,0.2,0.2,0.2,0.8","0.2,0.8,0.2,0.2,0.2,0.8,0.8,0.2,0.2","3","",""
"","html-keyboard-response","235","89647","0.0-235.0","3PS7W85Z80OUQU2FWDBL2ES93869T0","A3ADQ2RLQNJQDU","36U4VBVNQOZD8NFWZXWF9CIHKRIURB","","null","<img src=""img/land3.png"" style=""width:200px; border:14px solid green;"">","null","","","","","","","","","",""
"","image-keyboard-response","236","89792","0.0-236.0","3PS7W85Z80OUQU2FWDBL2ES93869T0","A3ADQ2RLQNJQDU","36U4VBVNQOZD8NFWZXWF9CIHKRIURB","","141.29999999981374","img/land3.png","74","144.40000000037253","1","1","3","2","0.8,0.2,0.2,0.2,0.8,0.2,0.2,0.2,0.8","0.2,0.8,0.2,0.2,0.2,0.8,0.8,0.2,0.2","3","",""
"","html-keyboard-response","237","90096","0.0-237.0","3PS7W85Z80OUQU2FWDBL2ES93869T0","A3ADQ2RLQNJQDU","36U4VBVNQOZD8NFWZXWF9CIHKRIURB","","null","<img src=""img/land3.png"" style=""width:200px; border:14px solid green;"">","null","","","","","","","","","",""
"","image-keyboard-response","238","90272","0.0-238.0","3PS7W85Z80OUQU2FWDBL2ES93869T0","A3ADQ2RLQNJQDU","36U4VBVNQOZD8NFWZXWF9CIHKRIURB","","172.09999999962747","img/land6.png","74","175.3000000002794","1","0","1","2","0.8,0.2,0.2,0.2,0.8,0.2,0.2,0.2,0.8","0.2,0.8,0.2,0.2,0.2,0.8,0.8,0.2,0.2","3","",""
"","html-keyboard-response","239","90576","0.0-239.0","3PS7W85Z80OUQU2FWDBL2ES93869T0","A3ADQ2RLQNJQDU","36U4VBVNQOZD8NFWZXWF9CIHKRIURB","","null","<img src=""img/land6.png"" style=""width:200px;border:14px solid red;"">","null","","","","","","","","","",""
"","image-keyboard-response","240","90623","0.0-240.0","3PS7W85Z80OUQU2FWDBL2ES93869T0","A3ADQ2RLQNJQDU","36U4VBVNQOZD8NFWZXWF9CIHKRIURB","","43.89999999990687","img/land6.png","75","46.799999999813735","2","1","1","2","0.8,0.2,0.2,0.2,0.8,0.2,0.2,0.2,0.8","0.2,0.8,0.2,0.2,0.2,0.8,0.8,0.2,0.2","3","",""
"","html-keyboard-response","241","90927","0.0-241.0","3PS7W85Z80OUQU2FWDBL2ES93869T0","A3ADQ2RLQNJQDU","36U4VBVNQOZD8NFWZXWF9CIHKRIURB","","null","<img src=""img/land6.png"" style=""width:200px; border:14px solid green;"">","null","","","","","","","","","",""
"","image-keyboard-response","242","91056","0.0-242.0","3PS7W85Z80OUQU2FWDBL2ES93869T0","A3ADQ2RLQNJQDU","36U4VBVNQOZD8NFWZXWF9CIHKRIURB","","125.60000000009313","img/land3.png","75","128.8000000002794","2","0","3","2","0.8,0.2,0.2,0.2,0.8,0.2,0.2,0.2,0.8","0.2,0.8,0.2,0.2,0.2,0.8,0.8,0.2,0.2","3","",""
"","html-keyboard-response","243","91360","0.0-243.0","3PS7W85Z80OUQU2FWDBL2ES93869T0","A3ADQ2RLQNJQDU","36U4VBVNQOZD8NFWZXWF9CIHKRIURB","","null","<img src=""img/land3.png"" style=""width:200px;border:14px solid red;"">","null","","","","","","","","","",""
"","image-keyboard-response","244","91840","0.0-244.0","3PS7W85Z80OUQU2FWDBL2ES93869T0","A3ADQ2RLQNJQDU","36U4VBVNQOZD8NFWZXWF9CIHKRIURB","","475.70000000018626","img/land3.png","76","478.5","3","0","3","2","0.8,0.2,0.2,0.2,0.8,0.2,0.2,0.2,0.8","0.2,0.8,0.2,0.2,0.2,0.8,0.8,0.2,0.2","3","",""
"","html-keyboard-response","245","92144","0.0-245.0","3PS7W85Z80OUQU2FWDBL2ES93869T0","A3ADQ2RLQNJQDU","36U4VBVNQOZD8NFWZXWF9CIHKRIURB","","null","<img src=""img/land3.png"" style=""width:200px;border:14px solid red;"">","null","","","","","","","","","",""
"","image-keyboard-response","246","92272","0.0-246.0","3PS7W85Z80OUQU2FWDBL2ES93869T0","A3ADQ2RLQNJQDU","36U4VBVNQOZD8NFWZXWF9CIHKRIURB","","124.5","img/land6.png","76","127.60000000009313","3","0","1","2","0.8,0.2,0.2,0.2,0.8,0.2,0.2,0.2,0.8","0.2,0.8,0.2,0.2,0.2,0.8,0.8,0.2,0.2","3","",""
"","html-keyboard-response","247","92576","0.0-247.0","3PS7W85Z80OUQU2FWDBL2ES93869T0","A3ADQ2RLQNJQDU","36U4VBVNQOZD8NFWZXWF9CIHKRIURB","","null","<img src=""img/land6.png"" style=""width:200px;border:14px solid red;"">","null","","","","","","","","","",""
"","image-keyboard-response","248","92944","0.0-248.0","3PS7W85Z80OUQU2FWDBL2ES93869T0","A3ADQ2RLQNJQDU","36U4VBVNQOZD8NFWZXWF9CIHKRIURB","","364.20000000018626","img/land6.png","74","367.20000000018626","1","1","1","2","0.8,0.2,0.2,0.2,0.8,0.2,0.2,0.2,0.8","0.2,0.8,0.2,0.2,0.2,0.8,0.8,0.2,0.2","3","",""
"","html-keyboard-response","249","93248","0.0-249.0","3PS7W85Z80OUQU2FWDBL2ES93869T0","A3ADQ2RLQNJQDU","36U4VBVNQOZD8NFWZXWF9CIHKRIURB","","null","<img src=""img/land6.png"" style=""width:200px; border:14px solid green;"">","null","","","","","","","","","",""
"","image-keyboard-response","250","93377","0.0-250.0","3PS7W85Z80OUQU2FWDBL2ES93869T0","A3ADQ2RLQNJQDU","36U4VBVNQOZD8NFWZXWF9CIHKRIURB","","126.20000000018626","img/land6.png","74","129.1999999997206","1","0","1","2","0.8,0.2,0.2,0.2,0.8,0.2,0.2,0.2,0.8","0.2,0.8,0.2,0.2,0.2,0.8,0.8,0.2,0.2","3","",""
"","html-keyboard-response","251","93683","0.0-251.0","3PS7W85Z80OUQU2FWDBL2ES93869T0","A3ADQ2RLQNJQDU","36U4VBVNQOZD8NFWZXWF9CIHKRIURB","","null","<img src=""img/land6.png"" style=""width:200px;border:14px solid red;"">","null","","","","","","","","","",""
"","image-keyboard-response","252","94000","0.0-252.0","3PS7W85Z80OUQU2FWDBL2ES93869T0","A3ADQ2RLQNJQDU","36U4VBVNQOZD8NFWZXWF9CIHKRIURB","","313.60000000009313","img/land6.png","75","316.5","2","1","1","2","0.8,0.2,0.2,0.2,0.8,0.2,0.2,0.2,0.8","0.2,0.8,0.2,0.2,0.2,0.8,0.8,0.2,0.2","3","",""
"","html-keyboard-response","253","94303","0.0-253.0","3PS7W85Z80OUQU2FWDBL2ES93869T0","A3ADQ2RLQNJQDU","36U4VBVNQOZD8NFWZXWF9CIHKRIURB","","null","<img src=""img/land6.png"" style=""width:200px; border:14px solid green;"">","null","","","","","","","","","",""
"","image-keyboard-response","254","94480","0.0-254.0","3PS7W85Z80OUQU2FWDBL2ES93869T0","A3ADQ2RLQNJQDU","36U4VBVNQOZD8NFWZXWF9CIHKRIURB","","173.3000000002794","img/land3.png","75","176.5","2","0","3","2","0.8,0.2,0.2,0.2,0.8,0.2,0.2,0.2,0.8","0.2,0.8,0.2,0.2,0.2,0.8,0.8,0.2,0.2","3","",""
"","html-keyboard-response","255","94784","0.0-255.0","3PS7W85Z80OUQU2FWDBL2ES93869T0","A3ADQ2RLQNJQDU","36U4VBVNQOZD8NFWZXWF9CIHKRIURB","","null","<img src=""img/land3.png"" style=""width:200px;border:14px solid red;"">","null","","","","","","","","","",""
"","image-keyboard-response","256","94847","0.0-256.0","3PS7W85Z80OUQU2FWDBL2ES93869T0","A3ADQ2RLQNJQDU","36U4VBVNQOZD8NFWZXWF9CIHKRIURB","","59.799999999813735","img/land6.png","75","62.700000000186265","2","1","1","2","0.8,0.2,0.2,0.2,0.8,0.2,0.2,0.2,0.8","0.2,0.8,0.2,0.2,0.2,0.8,0.8,0.2,0.2","3","",""
"","html-keyboard-response","257","95151","0.0-257.0","3PS7W85Z80OUQU2FWDBL2ES93869T0","A3ADQ2RLQNJQDU","36U4VBVNQOZD8NFWZXWF9CIHKRIURB","","null","<img src=""img/land6.png"" style=""width:200px; border:14px solid green;"">","null","","","","","","","","","",""
"","image-keyboard-response","258","95424","0.0-258.0","3PS7W85Z80OUQU2FWDBL2ES93869T0","A3ADQ2RLQNJQDU","36U4VBVNQOZD8NFWZXWF9CIHKRIURB","","269.5","img/land1.png","75","272.6999999997206","2","0","2","2","0.8,0.2,0.2,0.2,0.8,0.2,0.2,0.2,0.8","0.2,0.8,0.2,0.2,0.2,0.8,0.8,0.2,0.2","3","",""
"","html-keyboard-response","259","95728","0.0-259.0","3PS7W85Z80OUQU2FWDBL2ES93869T0","A3ADQ2RLQNJQDU","36U4VBVNQOZD8NFWZXWF9CIHKRIURB","","null","<img src=""img/land1.png"" style=""width:200px;border:14px solid red;"">","null","","","","","","","","","",""
"","image-keyboard-response","260","95983","0.0-260.0","3PS7W85Z80OUQU2FWDBL2ES93869T0","A3ADQ2RLQNJQDU","36U4VBVNQOZD8NFWZXWF9CIHKRIURB","","251.8000000002794","img/land1.png","76","254.70000000018626","3","1","2","2","0.8,0.2,0.2,0.2,0.8,0.2,0.2,0.2,0.8","0.2,0.8,0.2,0.2,0.2,0.8,0.8,0.2,0.2","3","",""
"","html-keyboard-response","261","96287","0.0-261.0","3PS7W85Z80OUQU2FWDBL2ES93869T0","A3ADQ2RLQNJQDU","36U4VBVNQOZD8NFWZXWF9CIHKRIURB","","null","<img src=""img/land1.png"" style=""width:200px; border:14px solid green;"">","null","","","","","","","","","",""
"","image-keyboard-response","262","96400","0.0-262.0","3PS7W85Z80OUQU2FWDBL2ES93869T0","A3ADQ2RLQNJQDU","36U4VBVNQOZD8NFWZXWF9CIHKRIURB","","109.40000000037253","img/land6.png","76","112.5","3","0","1","2","0.8,0.2,0.2,0.2,0.8,0.2,0.2,0.2,0.8","0.2,0.8,0.2,0.2,0.2,0.8,0.8,0.2,0.2","3","",""
"","html-keyboard-response","263","96704","0.0-263.0","3PS7W85Z80OUQU2FWDBL2ES93869T0","A3ADQ2RLQNJQDU","36U4VBVNQOZD8NFWZXWF9CIHKRIURB","","null","<img src=""img/land6.png"" style=""width:200px;border:14px solid red;"">","null","","","","","","","","","",""
"","image-keyboard-response","264","96832","0.0-264.0","3PS7W85Z80OUQU2FWDBL2ES93869T0","A3ADQ2RLQNJQDU","36U4VBVNQOZD8NFWZXWF9CIHKRIURB","","124.20000000018626","img/land3.png","76","127.39999999990687","3","0","3","2","0.8,0.2,0.2,0.2,0.8,0.2,0.2,0.2,0.8","0.2,0.8,0.2,0.2,0.2,0.8,0.8,0.2,0.2","3","",""
"","html-keyboard-response","265","97136","0.0-265.0","3PS7W85Z80OUQU2FWDBL2ES93869T0","A3ADQ2RLQNJQDU","36U4VBVNQOZD8NFWZXWF9CIHKRIURB","","null","<img src=""img/land3.png"" style=""width:200px;border:14px solid red;"">","null","","","","","","","","","",""
"","image-keyboard-response","266","97455","0.0-266.0","3PS7W85Z80OUQU2FWDBL2ES93869T0","A3ADQ2RLQNJQDU","36U4VBVNQOZD8NFWZXWF9CIHKRIURB","","315.5","img/land3.png","76","318.5","3","0","3","2","0.8,0.2,0.2,0.2,0.8,0.2,0.2,0.2,0.8","0.2,0.8,0.2,0.2,0.2,0.8,0.8,0.2,0.2","3","",""
"","html-keyboard-response","267","97758","0.0-267.0","3PS7W85Z80OUQU2FWDBL2ES93869T0","A3ADQ2RLQNJQDU","36U4VBVNQOZD8NFWZXWF9CIHKRIURB","","null","<img src=""img/land3.png"" style=""width:200px;border:14px solid red;"">","null","","","","","","","","","",""
"","image-keyboard-response","268","97920","0.0-268.0","3PS7W85Z80OUQU2FWDBL2ES93869T0","A3ADQ2RLQNJQDU","36U4VBVNQOZD8NFWZXWF9CIHKRIURB","","157.60000000009313","img/land1.png","75","160.6999999997206","2","0","2","2","0.8,0.2,0.2,0.2,0.8,0.2,0.2,0.2,0.8","0.2,0.8,0.2,0.2,0.2,0.8,0.8,0.2,0.2","3","",""
"","html-keyboard-response","269","98224","0.0-269.0","3PS7W85Z80OUQU2FWDBL2ES93869T0","A3ADQ2RLQNJQDU","36U4VBVNQOZD8NFWZXWF9CIHKRIURB","","null","<img src=""img/land1.png"" style=""width:200px;border:14px solid red;"">","null","","","","","","","","","",""
"","image-keyboard-response","270","98640","0.0-270.0","3PS7W85Z80OUQU2FWDBL2ES93869T0","A3ADQ2RLQNJQDU","36U4VBVNQOZD8NFWZXWF9CIHKRIURB","","412.60000000009313","img/land6.png","75","415.5","2","1","1","2","0.8,0.2,0.2,0.2,0.8,0.2,0.2,0.2,0.8","0.2,0.8,0.2,0.2,0.2,0.8,0.8,0.2,0.2","3","",""
"","html-keyboard-response","271","98943","0.0-271.0","3PS7W85Z80OUQU2FWDBL2ES93869T0","A3ADQ2RLQNJQDU","36U4VBVNQOZD8NFWZXWF9CIHKRIURB","","null","<img src=""img/land6.png"" style=""width:200px; border:14px solid green;"">","null","","","","","","","","","",""
"","image-keyboard-response","272","99039","0.0-272.0","3PS7W85Z80OUQU2FWDBL2ES93869T0","A3ADQ2RLQNJQDU","36U4VBVNQOZD8NFWZXWF9CIHKRIURB","","92.5","img/land3.png","74","95.39999999990687","1","1","3","2","0.8,0.2,0.2,0.2,0.8,0.2,0.2,0.2,0.8","0.2,0.8,0.2,0.2,0.2,0.8,0.8,0.2,0.2","3","",""
"","html-keyboard-response","273","99344","0.0-273.0","3PS7W85Z80OUQU2FWDBL2ES93869T0","A3ADQ2RLQNJQDU","36U4VBVNQOZD8NFWZXWF9CIHKRIURB","","null","<img src=""img/land3.png"" style=""width:200px; border:14px solid green;"">","null","","","","","","","","","",""
"","image-keyboard-response","274","99536","0.0-274.0","3PS7W85Z80OUQU2FWDBL2ES93869T0","A3ADQ2RLQNJQDU","36U4VBVNQOZD8NFWZXWF9CIHKRIURB","","188.3000000002794","img/land3.png","74","191.29999999981374","1","0","3","2","0.8,0.2,0.2,0.2,0.8,0.2,0.2,0.2,0.8","0.2,0.8,0.2,0.2,0.2,0.8,0.8,0.2,0.2","3","",""
"","html-keyboard-response","275","99839","0.0-275.0","3PS7W85Z80OUQU2FWDBL2ES93869T0","A3ADQ2RLQNJQDU","36U4VBVNQOZD8NFWZXWF9CIHKRIURB","","null","<img src=""img/land3.png"" style=""width:200px;border:14px solid red;"">","null","","","","","","","","","",""
"","image-keyboard-response","276","100111","0.0-276.0","3PS7W85Z80OUQU2FWDBL2ES93869T0","A3ADQ2RLQNJQDU","36U4VBVNQOZD8NFWZXWF9CIHKRIURB","","268.60000000009313","img/land1.png","75","271.29999999981374","2","0","2","2","0.8,0.2,0.2,0.2,0.8,0.2,0.2,0.2,0.8","0.2,0.8,0.2,0.2,0.2,0.8,0.8,0.2,0.2","3","",""
"","html-keyboard-response","277","100415","0.0-277.0","3PS7W85Z80OUQU2FWDBL2ES93869T0","A3ADQ2RLQNJQDU","36U4VBVNQOZD8NFWZXWF9CIHKRIURB","","null","<img src=""img/land1.png"" style=""width:200px;border:14px solid red;"">","null","","","","","","","","","",""
"","image-keyboard-response","278","100561","0.0-278.0","3PS7W85Z80OUQU2FWDBL2ES93869T0","A3ADQ2RLQNJQDU","36U4VBVNQOZD8NFWZXWF9CIHKRIURB","","140.29999999981374","img/land1.png","75","143.39999999990687","2","0","2","2","0.8,0.2,0.2,0.2,0.8,0.2,0.2,0.2,0.8","0.2,0.8,0.2,0.2,0.2,0.8,0.8,0.2,0.2","3","",""
"","html-keyboard-response","279","100865","0.0-279.0","3PS7W85Z80OUQU2FWDBL2ES93869T0","A3ADQ2RLQNJQDU","36U4VBVNQOZD8NFWZXWF9CIHKRIURB","","null","<img src=""img/land1.png"" style=""width:200px;border:14px solid red;"">","null","","","","","","","","","",""
"","image-keyboard-response","280","100928","0.0-280.0","3PS7W85Z80OUQU2FWDBL2ES93869T0","A3ADQ2RLQNJQDU","36U4VBVNQOZD8NFWZXWF9CIHKRIURB","","59.6999999997206","img/land3.png","76","62.700000000186265","3","0","3","2","0.8,0.2,0.2,0.2,0.8,0.2,0.2,0.2,0.8","0.2,0.8,0.2,0.2,0.2,0.8,0.8,0.2,0.2","3","",""
"","html-keyboard-response","281","101232","0.0-281.0","3PS7W85Z80OUQU2FWDBL2ES93869T0","A3ADQ2RLQNJQDU","36U4VBVNQOZD8NFWZXWF9CIHKRIURB","","null","<img src=""img/land3.png"" style=""width:200px;border:14px solid red;"">","null","","","","","","","","","",""
"","image-keyboard-response","282","101424","0.0-282.0","3PS7W85Z80OUQU2FWDBL2ES93869T0","A3ADQ2RLQNJQDU","36U4VBVNQOZD8NFWZXWF9CIHKRIURB","","188.5","img/land6.png","76","191.79999999981374","3","0","1","2","0.8,0.2,0.2,0.2,0.8,0.2,0.2,0.2,0.8","0.2,0.8,0.2,0.2,0.2,0.8,0.8,0.2,0.2","3","",""
"","html-keyboard-response","283","101728","0.0-283.0","3PS7W85Z80OUQU2FWDBL2ES93869T0","A3ADQ2RLQNJQDU","36U4VBVNQOZD8NFWZXWF9CIHKRIURB","","null","<img src=""img/land6.png"" style=""width:200px;border:14px solid red;"">","null","","","","","","","","","",""
"","image-keyboard-response","284","101951","0.0-284.0","3PS7W85Z80OUQU2FWDBL2ES93869T0","A3ADQ2RLQNJQDU","36U4VBVNQOZD8NFWZXWF9CIHKRIURB","","220.29999999981374","img/land6.png","76","222.5","3","0","1","2","0.8,0.2,0.2,0.2,0.8,0.2,0.2,0.2,0.8","0.2,0.8,0.2,0.2,0.2,0.8,0.8,0.2,0.2","3","",""
"","html-keyboard-response","285","102254","0.0-285.0","3PS7W85Z80OUQU2FWDBL2ES93869T0","A3ADQ2RLQNJQDU","36U4VBVNQOZD8NFWZXWF9CIHKRIURB","","null","<img src=""img/land6.png"" style=""width:200px;border:14px solid red;"">","null","","","","","","","","","",""
"","image-keyboard-response","286","102528","0.0-286.0","3PS7W85Z80OUQU2FWDBL2ES93869T0","A3ADQ2RLQNJQDU","36U4VBVNQOZD8NFWZXWF9CIHKRIURB","","271.60000000009313","img/land3.png","75","274","2","0","3","2","0.8,0.2,0.2,0.2,0.8,0.2,0.2,0.2,0.8","0.2,0.8,0.2,0.2,0.2,0.8,0.8,0.2,0.2","3","",""
"","html-keyboard-response","287","102831","0.0-287.0","3PS7W85Z80OUQU2FWDBL2ES93869T0","A3ADQ2RLQNJQDU","36U4VBVNQOZD8NFWZXWF9CIHKRIURB","","null","<img src=""img/land3.png"" style=""width:200px;border:14px solid red;"">","null","","","","","","","","","",""
"","image-keyboard-response","288","103008","0.0-288.0","3PS7W85Z80OUQU2FWDBL2ES93869T0","A3ADQ2RLQNJQDU","36U4VBVNQOZD8NFWZXWF9CIHKRIURB","","173","img/land6.png","75","176.10000000009313","2","0","1","2","0.8,0.2,0.2,0.2,0.8,0.2,0.2,0.2,0.8","0.2,0.8,0.2,0.2,0.2,0.8,0.8,0.2,0.2","3","",""
"","html-keyboard-response","289","103312","0.0-289.0","3PS7W85Z80OUQU2FWDBL2ES93869T0","A3ADQ2RLQNJQDU","36U4VBVNQOZD8NFWZXWF9CIHKRIURB","","null","<img src=""img/land6.png"" style=""width:200px;border:14px solid red;"">","null","","","","","","","","","",""
"","image-keyboard-response","290","103489","0.0-290.0","3PS7W85Z80OUQU2FWDBL2ES93869T0","A3ADQ2RLQNJQDU","36U4VBVNQOZD8NFWZXWF9CIHKRIURB","","173.29999999981374","img/land6.png","75","176","2","1","1","2","0.8,0.2,0.2,0.2,0.8,0.2,0.2,0.2,0.8","0.2,0.8,0.2,0.2,0.2,0.8,0.8,0.2,0.2","3","",""
"","html-keyboard-response","291","103792","0.0-291.0","3PS7W85Z80OUQU2FWDBL2ES93869T0","A3ADQ2RLQNJQDU","36U4VBVNQOZD8NFWZXWF9CIHKRIURB","","null","<img src=""img/land6.png"" style=""width:200px; border:14px solid green;"">","null","","","","","","","","","",""
"","image-keyboard-response","292","103984","0.0-292.0","3PS7W85Z80OUQU2FWDBL2ES93869T0","A3ADQ2RLQNJQDU","36U4VBVNQOZD8NFWZXWF9CIHKRIURB","","188.39999999990687","img/land6.png","75","191.20000000018626","2","1","1","2","0.8,0.2,0.2,0.2,0.8,0.2,0.2,0.2,0.8","0.2,0.8,0.2,0.2,0.2,0.8,0.8,0.2,0.2","3","",""
"","html-keyboard-response","293","104287","0.0-293.0","3PS7W85Z80OUQU2FWDBL2ES93869T0","A3ADQ2RLQNJQDU","36U4VBVNQOZD8NFWZXWF9CIHKRIURB","","null","<img src=""img/land6.png"" style=""width:200px; border:14px solid green;"">","null","","","","","","","","","",""
"","image-keyboard-response","294","104527","0.0-294.0","3PS7W85Z80OUQU2FWDBL2ES93869T0","A3ADQ2RLQNJQDU","36U4VBVNQOZD8NFWZXWF9CIHKRIURB","","237.79999999981374","img/land1.png","75","240.29999999981374","2","0","2","2","0.8,0.2,0.2,0.2,0.8,0.2,0.2,0.2,0.8","0.2,0.8,0.2,0.2,0.2,0.8,0.8,0.2,0.2","3","",""
"","html-keyboard-response","295","104831","0.0-295.0","3PS7W85Z80OUQU2FWDBL2ES93869T0","A3ADQ2RLQNJQDU","36U4VBVNQOZD8NFWZXWF9CIHKRIURB","","null","<img src=""img/land1.png"" style=""width:200px;border:14px solid red;"">","null","","","","","","","","","",""
"","image-keyboard-response","296","104834","0.0-296.0","3PS7W85Z80OUQU2FWDBL2ES93869T0","A3ADQ2RLQNJQDU","36U4VBVNQOZD8NFWZXWF9CIHKRIURB","","0.2999999998137355","img/land6.png","74","2.6999999997206032","1","0","1","2","0.8,0.2,0.2,0.2,0.8,0.2,0.2,0.2,0.8","0.2,0.8,0.2,0.2,0.2,0.8,0.8,0.2,0.2","3","",""
"","html-keyboard-response","297","105138","0.0-297.0","3PS7W85Z80OUQU2FWDBL2ES93869T0","A3ADQ2RLQNJQDU","36U4VBVNQOZD8NFWZXWF9CIHKRIURB","","null","<img src=""img/land6.png"" style=""width:200px;border:14px solid red;"">","null","","","","","","","","","",""
"","image-keyboard-response","298","105248","0.0-298.0","3PS7W85Z80OUQU2FWDBL2ES93869T0","A3ADQ2RLQNJQDU","36U4VBVNQOZD8NFWZXWF9CIHKRIURB","","107.10000000009313","img/land6.png","74","110.3000000002794","1","0","1","2","0.8,0.2,0.2,0.2,0.8,0.2,0.2,0.2,0.8","0.2,0.8,0.2,0.2,0.2,0.8,0.8,0.2,0.2","3","",""
"","html-keyboard-response","299","105552","0.0-299.0","3PS7W85Z80OUQU2FWDBL2ES93869T0","A3ADQ2RLQNJQDU","36U4VBVNQOZD8NFWZXWF9CIHKRIURB","","null","<img src=""img/land6.png"" style=""width:200px;border:14px solid red;"">","null","","","","","","","","","",""
"","image-keyboard-response","300","105696","0.0-300.0","3PS7W85Z80OUQU2FWDBL2ES93869T0","A3ADQ2RLQNJQDU","36U4VBVNQOZD8NFWZXWF9CIHKRIURB","","140.70000000018626","img/land6.png","74","143.70000000018626","1","1","1","2","0.8,0.2,0.2,0.2,0.8,0.2,0.2,0.2,0.8","0.2,0.8,0.2,0.2,0.2,0.8,0.8,0.2,0.2","3","",""
"","html-keyboard-response","301","106001","0.0-301.0","3PS7W85Z80OUQU2FWDBL2ES93869T0","A3ADQ2RLQNJQDU","36U4VBVNQOZD8NFWZXWF9CIHKRIURB","","null","<img src=""img/land6.png"" style=""width:200px; border:14px solid green;"">","null","","","","","","","","","",""
"","image-keyboard-response","302","106160","0.0-302.0","3PS7W85Z80OUQU2FWDBL2ES93869T0","A3ADQ2RLQNJQDU","36U4VBVNQOZD8NFWZXWF9CIHKRIURB","","154.89999999990687","img/land2.png","75","158.1999999997206","2","1","2","1","0.8,0.2,0.2,0.2,0.8,0.2,0.2,0.2,0.8","0.8,0.2,0.2,0.2,0.8,0.2,0.2,0.2,0.8","1","",""
"","html-keyboard-response","303","106465","0.0-303.0","3PS7W85Z80OUQU2FWDBL2ES93869T0","A3ADQ2RLQNJQDU","36U4VBVNQOZD8NFWZXWF9CIHKRIURB","","null","<img src=""img/land2.png"" style=""width:200px; border:14px solid green;"">","null","","","","","","","","","",""
"","image-keyboard-response","304","106560","0.0-304.0","3PS7W85Z80OUQU2FWDBL2ES93869T0","A3ADQ2RLQNJQDU","36U4VBVNQOZD8NFWZXWF9CIHKRIURB","","91.39999999990687","img/land2.png","75","94.70000000018626","2","1","2","1","0.8,0.2,0.2,0.2,0.8,0.2,0.2,0.2,0.8","0.8,0.2,0.2,0.2,0.8,0.2,0.2,0.2,0.8","1","",""
"","html-keyboard-response","305","106864","0.0-305.0","3PS7W85Z80OUQU2FWDBL2ES93869T0","A3ADQ2RLQNJQDU","36U4VBVNQOZD8NFWZXWF9CIHKRIURB","","null","<img src=""img/land2.png"" style=""width:200px; border:14px solid green;"">","null","","","","","","","","","",""
"","image-keyboard-response","306","106944","0.0-306.0","3PS7W85Z80OUQU2FWDBL2ES93869T0","A3ADQ2RLQNJQDU","36U4VBVNQOZD8NFWZXWF9CIHKRIURB","","76.20000000018626","img/land4.png","75","79.39999999990687","2","0","3","1","0.8,0.2,0.2,0.2,0.8,0.2,0.2,0.2,0.8","0.8,0.2,0.2,0.2,0.8,0.2,0.2,0.2,0.8","1","",""
"","html-keyboard-response","307","107249","0.0-307.0","3PS7W85Z80OUQU2FWDBL2ES93869T0","A3ADQ2RLQNJQDU","36U4VBVNQOZD8NFWZXWF9CIHKRIURB","","null","<img src=""img/land4.png"" style=""width:200px;border:14px solid red;"">","null","","","","","","","","","",""
"","image-keyboard-response","308","107440","0.0-308.0","3PS7W85Z80OUQU2FWDBL2ES93869T0","A3ADQ2RLQNJQDU","36U4VBVNQOZD8NFWZXWF9CIHKRIURB","","187.8000000002794","img/land2.png","74","190.5","1","0","2","1","0.8,0.2,0.2,0.2,0.8,0.2,0.2,0.2,0.8","0.8,0.2,0.2,0.2,0.8,0.2,0.2,0.2,0.8","1","",""
"","html-keyboard-response","309","107743","0.0-309.0","3PS7W85Z80OUQU2FWDBL2ES93869T0","A3ADQ2RLQNJQDU","36U4VBVNQOZD8NFWZXWF9CIHKRIURB","","null","<img src=""img/land2.png"" style=""width:200px;border:14px solid red;"">","null","","","","","","","","","",""
"","image-keyboard-response","310","107840","0.0-310.0","3PS7W85Z80OUQU2FWDBL2ES93869T0","A3ADQ2RLQNJQDU","36U4VBVNQOZD8NFWZXWF9CIHKRIURB","","92.89999999990687","img/land5.png","74","95.70000000018626","1","1","1","1","0.8,0.2,0.2,0.2,0.8,0.2,0.2,0.2,0.8","0.8,0.2,0.2,0.2,0.8,0.2,0.2,0.2,0.8","1","",""
"","html-keyboard-response","311","108143","0.0-311.0","3PS7W85Z80OUQU2FWDBL2ES93869T0","A3ADQ2RLQNJQDU","36U4VBVNQOZD8NFWZXWF9CIHKRIURB","","null","<img src=""img/land5.png"" style=""width:200px; border:14px solid green;"">","null","","","","","","","","","",""
"","image-keyboard-response","312","108192","0.0-312.0","3PS7W85Z80OUQU2FWDBL2ES93869T0","A3ADQ2RLQNJQDU","36U4VBVNQOZD8NFWZXWF9CIHKRIURB","","45.200000000186265","img/land2.png","74","48.10000000009313","1","0","2","1","0.8,0.2,0.2,0.2,0.8,0.2,0.2,0.2,0.8","0.8,0.2,0.2,0.2,0.8,0.2,0.2,0.2,0.8","1","",""
"","html-keyboard-response","313","108496","0.0-313.0","3PS7W85Z80OUQU2FWDBL2ES93869T0","A3ADQ2RLQNJQDU","36U4VBVNQOZD8NFWZXWF9CIHKRIURB","","null","<img src=""img/land2.png"" style=""width:200px;border:14px solid red;"">","null","","","","","","","","","",""
"","image-keyboard-response","314","108544","0.0-314.0","3PS7W85Z80OUQU2FWDBL2ES93869T0","A3ADQ2RLQNJQDU","36U4VBVNQOZD8NFWZXWF9CIHKRIURB","","45.10000000009313","img/land4.png","74","47.799999999813735","1","0","3","1","0.8,0.2,0.2,0.2,0.8,0.2,0.2,0.2,0.8","0.8,0.2,0.2,0.2,0.8,0.2,0.2,0.2,0.8","1","",""
"","html-keyboard-response","315","108849","0.0-315.0","3PS7W85Z80OUQU2FWDBL2ES93869T0","A3ADQ2RLQNJQDU","36U4VBVNQOZD8NFWZXWF9CIHKRIURB","","null","<img src=""img/land4.png"" style=""width:200px;border:14px solid red;"">","null","","","","","","","","","",""
"","image-keyboard-response","316","108896","0.0-316.0","3PS7W85Z80OUQU2FWDBL2ES93869T0","A3ADQ2RLQNJQDU","36U4VBVNQOZD8NFWZXWF9CIHKRIURB","","44.200000000186265","img/land4.png","76","47.10000000009313","3","1","3","1","0.8,0.2,0.2,0.2,0.8,0.2,0.2,0.2,0.8","0.8,0.2,0.2,0.2,0.8,0.2,0.2,0.2,0.8","1","",""
"","html-keyboard-response","317","109200","0.0-317.0","3PS7W85Z80OUQU2FWDBL2ES93869T0","A3ADQ2RLQNJQDU","36U4VBVNQOZD8NFWZXWF9CIHKRIURB","","null","<img src=""img/land4.png"" style=""width:200px; border:14px solid green;"">","null","","","","","","","","","",""
"","image-keyboard-response","318","109264","0.0-318.0","3PS7W85Z80OUQU2FWDBL2ES93869T0","A3ADQ2RLQNJQDU","36U4VBVNQOZD8NFWZXWF9CIHKRIURB","","60.200000000186265","img/land2.png","76","63.1999999997206","3","0","2","1","0.8,0.2,0.2,0.2,0.8,0.2,0.2,0.2,0.8","0.8,0.2,0.2,0.2,0.8,0.2,0.2,0.2,0.8","1","",""
"","html-keyboard-response","319","109567","0.0-319.0","3PS7W85Z80OUQU2FWDBL2ES93869T0","A3ADQ2RLQNJQDU","36U4VBVNQOZD8NFWZXWF9CIHKRIURB","","null","<img src=""img/land2.png"" style=""width:200px;border:14px solid red;"">","null","","","","","","","","","",""
"","image-keyboard-response","320","109616","0.0-320.0","3PS7W85Z80OUQU2FWDBL2ES93869T0","A3ADQ2RLQNJQDU","36U4VBVNQOZD8NFWZXWF9CIHKRIURB","","45.10000000009313","img/land2.png","76","48.3000000002794","3","0","2","1","0.8,0.2,0.2,0.2,0.8,0.2,0.2,0.2,0.8","0.8,0.2,0.2,0.2,0.8,0.2,0.2,0.2,0.8","1","",""
"","html-keyboard-response","321","109920","0.0-321.0","3PS7W85Z80OUQU2FWDBL2ES93869T0","A3ADQ2RLQNJQDU","36U4VBVNQOZD8NFWZXWF9CIHKRIURB","","null","<img src=""img/land2.png"" style=""width:200px;border:14px solid red;"">","null","","","","","","","","","",""
"","image-keyboard-response","322","109984","0.0-322.0","3PS7W85Z80OUQU2FWDBL2ES93869T0","A3ADQ2RLQNJQDU","36U4VBVNQOZD8NFWZXWF9CIHKRIURB","","59.700000000186265","img/land4.png","76","63.299999999813735","3","1","3","1","0.8,0.2,0.2,0.2,0.8,0.2,0.2,0.2,0.8","0.8,0.2,0.2,0.2,0.8,0.2,0.2,0.2,0.8","1","",""
"","html-keyboard-response","323","110288","0.0-323.0","3PS7W85Z80OUQU2FWDBL2ES93869T0","A3ADQ2RLQNJQDU","36U4VBVNQOZD8NFWZXWF9CIHKRIURB","","null","<img src=""img/land4.png"" style=""width:200px; border:14px solid green;"">","null","","","","","","","","","",""
"","image-keyboard-response","324","110383","0.0-324.0","3PS7W85Z80OUQU2FWDBL2ES93869T0","A3ADQ2RLQNJQDU","36U4VBVNQOZD8NFWZXWF9CIHKRIURB","","91.3000000002794","img/land4.png","76","94.29999999981374","3","1","3","1","0.8,0.2,0.2,0.2,0.8,0.2,0.2,0.2,0.8","0.8,0.2,0.2,0.2,0.8,0.2,0.2,0.2,0.8","1","",""
"","html-keyboard-response","325","110687","0.0-325.0","3PS7W85Z80OUQU2FWDBL2ES93869T0","A3ADQ2RLQNJQDU","36U4VBVNQOZD8NFWZXWF9CIHKRIURB","","null","<img src=""img/land4.png"" style=""width:200px; border:14px solid green;"">","null","","","","","","","","","",""
"","image-keyboard-response","326","110784","0.0-326.0","3PS7W85Z80OUQU2FWDBL2ES93869T0","A3ADQ2RLQNJQDU","36U4VBVNQOZD8NFWZXWF9CIHKRIURB","","93.89999999990687","img/land4.png","76","97","3","1","3","1","0.8,0.2,0.2,0.2,0.8,0.2,0.2,0.2,0.8","0.8,0.2,0.2,0.2,0.8,0.2,0.2,0.2,0.8","1","",""
"","html-keyboard-response","327","111088","0.0-327.0","3PS7W85Z80OUQU2FWDBL2ES93869T0","A3ADQ2RLQNJQDU","36U4VBVNQOZD8NFWZXWF9CIHKRIURB","","null","<img src=""img/land4.png"" style=""width:200px; border:14px solid green;"">","null","","","","","","","","","",""
"","image-keyboard-response","328","111184","0.0-328.0","3PS7W85Z80OUQU2FWDBL2ES93869T0","A3ADQ2RLQNJQDU","36U4VBVNQOZD8NFWZXWF9CIHKRIURB","","93.3000000002794","img/land2.png","76","95.39999999990687","3","0","2","1","0.8,0.2,0.2,0.2,0.8,0.2,0.2,0.2,0.8","0.8,0.2,0.2,0.2,0.8,0.2,0.2,0.2,0.8","1","",""
"","html-keyboard-response","329","111487","0.0-329.0","3PS7W85Z80OUQU2FWDBL2ES93869T0","A3ADQ2RLQNJQDU","36U4VBVNQOZD8NFWZXWF9CIHKRIURB","","null","<img src=""img/land2.png"" style=""width:200px;border:14px solid red;"">","null","","","","","","","","","",""
"","image-keyboard-response","330","111541","0.0-330.0","3PS7W85Z80OUQU2FWDBL2ES93869T0","A3ADQ2RLQNJQDU","36U4VBVNQOZD8NFWZXWF9CIHKRIURB","","49.59999999962747","img/land5.png","76","52.60000000009313","3","0","1","1","0.8,0.2,0.2,0.2,0.8,0.2,0.2,0.2,0.8","0.8,0.2,0.2,0.2,0.8,0.2,0.2,0.2,0.8","1","",""
"","html-keyboard-response","331","111845","0.0-331.0","3PS7W85Z80OUQU2FWDBL2ES93869T0","A3ADQ2RLQNJQDU","36U4VBVNQOZD8NFWZXWF9CIHKRIURB","","null","<img src=""img/land5.png"" style=""width:200px;border:14px solid red;"">","null","","","","","","","","","",""
"","image-keyboard-response","332","112383","0.0-332.0","3PS7W85Z80OUQU2FWDBL2ES93869T0","A3ADQ2RLQNJQDU","36U4VBVNQOZD8NFWZXWF9CIHKRIURB","","535.2999999998137","img/land5.png","75","538.2999999998137","2","0","1","1","0.8,0.2,0.2,0.2,0.8,0.2,0.2,0.2,0.8","0.8,0.2,0.2,0.2,0.8,0.2,0.2,0.2,0.8","1","",""
"","html-keyboard-response","333","112687","0.0-333.0","3PS7W85Z80OUQU2FWDBL2ES93869T0","A3ADQ2RLQNJQDU","36U4VBVNQOZD8NFWZXWF9CIHKRIURB","","null","<img src=""img/land5.png"" style=""width:200px;border:14px solid red;"">","null","","","","","","","","","",""
"","image-keyboard-response","334","112800","0.0-334.0","3PS7W85Z80OUQU2FWDBL2ES93869T0","A3ADQ2RLQNJQDU","36U4VBVNQOZD8NFWZXWF9CIHKRIURB","","109.5","img/land4.png","75","112.39999999990687","2","0","3","1","0.8,0.2,0.2,0.2,0.8,0.2,0.2,0.2,0.8","0.8,0.2,0.2,0.2,0.8,0.2,0.2,0.2,0.8","1","",""
"","html-keyboard-response","335","113103","0.0-335.0","3PS7W85Z80OUQU2FWDBL2ES93869T0","A3ADQ2RLQNJQDU","36U4VBVNQOZD8NFWZXWF9CIHKRIURB","","null","<img src=""img/land4.png"" style=""width:200px;border:14px solid red;"">","null","","","","","","","","","",""
"","image-keyboard-response","336","113328","0.0-336.0","3PS7W85Z80OUQU2FWDBL2ES93869T0","A3ADQ2RLQNJQDU","36U4VBVNQOZD8NFWZXWF9CIHKRIURB","","222.90000000037253","img/land5.png","74","225.20000000018626","1","1","1","1","0.8,0.2,0.2,0.2,0.8,0.2,0.2,0.2,0.8","0.8,0.2,0.2,0.2,0.8,0.2,0.2,0.2,0.8","1","",""
"","html-keyboard-response","337","113632","0.0-337.0","3PS7W85Z80OUQU2FWDBL2ES93869T0","A3ADQ2RLQNJQDU","36U4VBVNQOZD8NFWZXWF9CIHKRIURB","","null","<img src=""img/land5.png"" style=""width:200px; border:14px solid green;"">","null","","","","","","","","","",""
"","image-keyboard-response","338","113775","0.0-338.0","3PS7W85Z80OUQU2FWDBL2ES93869T0","A3ADQ2RLQNJQDU","36U4VBVNQOZD8NFWZXWF9CIHKRIURB","","140.6999999997206","img/land5.png","74","143.20000000018626","1","1","1","1","0.8,0.2,0.2,0.2,0.8,0.2,0.2,0.2,0.8","0.8,0.2,0.2,0.2,0.8,0.2,0.2,0.2,0.8","1","",""
"","html-keyboard-response","339","114080","0.0-339.0","3PS7W85Z80OUQU2FWDBL2ES93869T0","A3ADQ2RLQNJQDU","36U4VBVNQOZD8NFWZXWF9CIHKRIURB","","null","<img src=""img/land5.png"" style=""width:200px; border:14px solid green;"">","null","","","","","","","","","",""
"","image-keyboard-response","340","114240","0.0-340.0","3PS7W85Z80OUQU2FWDBL2ES93869T0","A3ADQ2RLQNJQDU","36U4VBVNQOZD8NFWZXWF9CIHKRIURB","","156.6999999997206","img/land4.png","74","160","1","0","3","1","0.8,0.2,0.2,0.2,0.8,0.2,0.2,0.2,0.8","0.8,0.2,0.2,0.2,0.8,0.2,0.2,0.2,0.8","1","",""
"","html-keyboard-response","341","114546","0.0-341.0","3PS7W85Z80OUQU2FWDBL2ES93869T0","A3ADQ2RLQNJQDU","36U4VBVNQOZD8NFWZXWF9CIHKRIURB","","null","<img src=""img/land4.png"" style=""width:200px;border:14px solid red;"">","null","","","","","","","","","",""
"","image-keyboard-response","342","114704","0.0-342.0","3PS7W85Z80OUQU2FWDBL2ES93869T0","A3ADQ2RLQNJQDU","36U4VBVNQOZD8NFWZXWF9CIHKRIURB","","154.5","img/land5.png","76","157.39999999990687","3","0","1","1","0.8,0.2,0.2,0.2,0.8,0.2,0.2,0.2,0.8","0.8,0.2,0.2,0.2,0.8,0.2,0.2,0.2,0.8","1","",""
"","html-keyboard-response","343","115007","0.0-343.0","3PS7W85Z80OUQU2FWDBL2ES93869T0","A3ADQ2RLQNJQDU","36U4VBVNQOZD8NFWZXWF9CIHKRIURB","","null","<img src=""img/land5.png"" style=""width:200px;border:14px solid red;"">","null","","","","","","","","","",""
"","image-keyboard-response","344","115168","0.0-344.0","3PS7W85Z80OUQU2FWDBL2ES93869T0","A3ADQ2RLQNJQDU","36U4VBVNQOZD8NFWZXWF9CIHKRIURB","","156.60000000009313","img/land5.png","76","159.79999999981374","3","0","1","1","0.8,0.2,0.2,0.2,0.8,0.2,0.2,0.2,0.8","0.8,0.2,0.2,0.2,0.8,0.2,0.2,0.2,0.8","1","",""
"","html-keyboard-response","345","115472","0.0-345.0","3PS7W85Z80OUQU2FWDBL2ES93869T0","A3ADQ2RLQNJQDU","36U4VBVNQOZD8NFWZXWF9CIHKRIURB","","null","<img src=""img/land5.png"" style=""width:200px;border:14px solid red;"">","null","","","","","","","","","",""
"","image-keyboard-response","346","115552","0.0-346.0","3PS7W85Z80OUQU2FWDBL2ES93869T0","A3ADQ2RLQNJQDU","36U4VBVNQOZD8NFWZXWF9CIHKRIURB","","76.10000000009313","img/land2.png","76","79","3","0","2","1","0.8,0.2,0.2,0.2,0.8,0.2,0.2,0.2,0.8","0.8,0.2,0.2,0.2,0.8,0.2,0.2,0.2,0.8","1","",""
"","html-keyboard-response","347","115855","0.0-347.0","3PS7W85Z80OUQU2FWDBL2ES93869T0","A3ADQ2RLQNJQDU","36U4VBVNQOZD8NFWZXWF9CIHKRIURB","","null","<img src=""img/land2.png"" style=""width:200px;border:14px solid red;"">","null","","","","","","","","","",""
"","image-keyboard-response","348","116063","0.0-348.0","3PS7W85Z80OUQU2FWDBL2ES93869T0","A3ADQ2RLQNJQDU","36U4VBVNQOZD8NFWZXWF9CIHKRIURB","","204.5","img/land5.png","75","207.5","2","1","1","1","0.8,0.2,0.2,0.2,0.8,0.2,0.2,0.2,0.8","0.8,0.2,0.2,0.2,0.8,0.2,0.2,0.2,0.8","1","",""
"","html-keyboard-response","349","116367","0.0-349.0","3PS7W85Z80OUQU2FWDBL2ES93869T0","A3ADQ2RLQNJQDU","36U4VBVNQOZD8NFWZXWF9CIHKRIURB","","null","<img src=""img/land5.png"" style=""width:200px; border:14px solid green;"">","null","","","","","","","","","",""
"","image-keyboard-response","350","116481","0.0-350.0","3PS7W85Z80OUQU2FWDBL2ES93869T0","A3ADQ2RLQNJQDU","36U4VBVNQOZD8NFWZXWF9CIHKRIURB","","110","img/land4.png","75","113","2","0","3","1","0.8,0.2,0.2,0.2,0.8,0.2,0.2,0.2,0.8","0.8,0.2,0.2,0.2,0.8,0.2,0.2,0.2,0.8","1","",""
"","html-keyboard-response","351","116785","0.0-351.0","3PS7W85Z80OUQU2FWDBL2ES93869T0","A3ADQ2RLQNJQDU","36U4VBVNQOZD8NFWZXWF9CIHKRIURB","","null","<img src=""img/land4.png"" style=""width:200px;border:14px solid red;"">","null","","","","","","","","","",""
"","image-keyboard-response","352","117103","0.0-352.0","3PS7W85Z80OUQU2FWDBL2ES93869T0","A3ADQ2RLQNJQDU","36U4VBVNQOZD8NFWZXWF9CIHKRIURB","","314.70000000018626","img/land4.png","75","317.79999999981374","2","0","3","1","0.8,0.2,0.2,0.2,0.8,0.2,0.2,0.2,0.8","0.8,0.2,0.2,0.2,0.8,0.2,0.2,0.2,0.8","1","",""
"","html-keyboard-response","353","117407","0.0-353.0","3PS7W85Z80OUQU2FWDBL2ES93869T0","A3ADQ2RLQNJQDU","36U4VBVNQOZD8NFWZXWF9CIHKRIURB","","null","<img src=""img/land4.png"" style=""width:200px;border:14px solid red;"">","null","","","","","","","","","",""
"","image-keyboard-response","354","117568","0.0-354.0","3PS7W85Z80OUQU2FWDBL2ES93869T0","A3ADQ2RLQNJQDU","36U4VBVNQOZD8NFWZXWF9CIHKRIURB","","157.6999999997206","img/land2.png","75","160.79999999981374","2","1","2","1","0.8,0.2,0.2,0.2,0.8,0.2,0.2,0.2,0.8","0.8,0.2,0.2,0.2,0.8,0.2,0.2,0.2,0.8","1","",""
"","html-keyboard-response","355","117873","0.0-355.0","3PS7W85Z80OUQU2FWDBL2ES93869T0","A3ADQ2RLQNJQDU","36U4VBVNQOZD8NFWZXWF9CIHKRIURB","","null","<img src=""img/land2.png"" style=""width:200px; border:14px solid green;"">","null","","","","","","","","","",""
