"success","trial_type","trial_index","time_elapsed","internal_node_id","assignmentID","mturkID","hitID","view_history","rt","stimulus","key_press","reactionTime","a","r","s","cond","reward_cond","reward_cond_actual","reward_matrix_idx","responses","question_order"
"true","fullscreen","0","5987","0.0-0.0","3SBEHTYCWOPJIHUCAD4XNOJR1TYYI6","A3AHD1NV5XCOF","3D1UCPY6GGVNRONHL4UEVMXCHLT38H","","","","","","","","","","","","","",""
"","instructions","1","14097","0.0-1.0","3SBEHTYCWOPJIHUCAD4XNOJR1TYYI6","A3AHD1NV5XCOF","3D1UCPY6GGVNRONHL4UEVMXCHLT38H","[{""page_index"":0,""viewing_time"":1296},{""page_index"":1,""viewing_time"":1107},{""page_index"":2,""viewing_time"":856},{""page_index"":3,""viewing_time"":1173},{""page_index"":4,""viewing_time"":1366},{""page_index"":5,""viewing_time"":1145},{""page_index"":6,""viewing_time"":1162}]","8106","","","","","","","","","","","",""
"","image-keyboard-response","2","15778","0.0-2.0","3SBEHTYCWOPJIHUCAD4XNOJR1TYYI6","A3AHD1NV5XCOF","3D1UCPY6GGVNRONHL4UEVMXCHLT38H","","1677","img/land1.png","74","1680","1","0","1","2","0.8,0.2,0.2,0.2,0.8,0.2,0.2,0.2,0.8","0.2,0.2,0.8,0.8,0.2,0.2,0.2,0.8,0.2","2","",""
"","html-keyboard-response","3","16087","0.0-3.0","3SBEHTYCWOPJIHUCAD4XNOJR1TYYI6","A3AHD1NV5XCOF","3D1UCPY6GGVNRONHL4UEVMXCHLT38H","","null","<img src=""img/land1.png"" style=""width:200px;border:14px solid red;"">","null","","","","","","","","","",""
"","image-keyboard-response","4","16128","0.0-4.0","3SBEHTYCWOPJIHUCAD4XNOJR1TYYI6","A3AHD1NV5XCOF","3D1UCPY6GGVNRONHL4UEVMXCHLT38H","","33","img/land2.png","75","38","2","0","2","2","0.8,0.2,0.2,0.2,0.8,0.2,0.2,0.2,0.8","0.2,0.2,0.8,0.8,0.2,0.2,0.2,0.8,0.2","2","",""
"","html-keyboard-response","5","16528","0.0-5.0","3SBEHTYCWOPJIHUCAD4XNOJR1TYYI6","A3AHD1NV5XCOF","3D1UCPY6GGVNRONHL4UEVMXCHLT38H","","null","<img src=""img/land2.png"" style=""width:200px;border:14px solid red;"">","null","","","","","","","","","",""
"","image-keyboard-response","6","16552","0.0-6.0","3SBEHTYCWOPJIHUCAD4XNOJR1TYYI6","A3AHD1NV5XCOF","3D1UCPY6GGVNRONHL4UEVMXCHLT38H","","23","img/land1.png","75","24","2","0","1","2","0.8,0.2,0.2,0.2,0.8,0.2,0.2,0.2,0.8","0.2,0.2,0.8,0.8,0.2,0.2,0.2,0.8,0.2","2","",""
"","html-keyboard-response","7","16853","0.0-7.0","3SBEHTYCWOPJIHUCAD4XNOJR1TYYI6","A3AHD1NV5XCOF","3D1UCPY6GGVNRONHL4UEVMXCHLT38H","","null","<img src=""img/land1.png"" style=""width:200px;border:14px solid red;"">","null","","","","","","","","","",""
"","image-keyboard-response","8","16884","0.0-8.0","3SBEHTYCWOPJIHUCAD4XNOJR1TYYI6","A3AHD1NV5XCOF","3D1UCPY6GGVNRONHL4UEVMXCHLT38H","","29","img/land5.png","74","31","1","0","3","2","0.8,0.2,0.2,0.2,0.8,0.2,0.2,0.2,0.8","0.2,0.2,0.8,0.8,0.2,0.2,0.2,0.8,0.2","2","",""
"","html-keyboard-response","9","17188","0.0-9.0","3SBEHTYCWOPJIHUCAD4XNOJR1TYYI6","A3AHD1NV5XCOF","3D1UCPY6GGVNRONHL4UEVMXCHLT38H","","null","<img src=""img/land5.png"" style=""width:200px;border:14px solid red;"">","null","","","","","","","","","",""
"","image-keyboard-response","10","17215","0.0-10.0","3SBEHTYCWOPJIHUCAD4XNOJR1TYYI6","A3AHD1NV5XCOF","3D1UCPY6GGVNRONHL4UEVMXCHLT38H","","22","img/land5.png","76","25","3","0","3","2","0.8,0.2,0.2,0.2,0.8,0.2,0.2,0.2,0.8","0.2,0.2,0.8,0.8,0.2,0.2,0.2,0.8,0.2","2","",""
"","html-keyboard-response","11","17621","0.0-11.0","3SBEHTYCWOPJIHUCAD4XNOJR1TYYI6","A3AHD1NV5XCOF","3D1UCPY6GGVNRONHL4UEVMXCHLT38H","","null","<img src=""img/land5.png"" style=""width:200px;border:14px solid red;"">","null","","","","","","","","","",""
"","image-keyboard-response","12","17646","0.0-12.0","3SBEHTYCWOPJIHUCAD4XNOJR1TYYI6","A3AHD1NV5XCOF","3D1UCPY6GGVNRONHL4UEVMXCHLT38H","","24","img/land2.png","74","25","1","1","2","2","0.8,0.2,0.2,0.2,0.8,0.2,0.2,0.2,0.8","0.2,0.2,0.8,0.8,0.2,0.2,0.2,0.8,0.2","2","",""
"","html-keyboard-response","13","17949","0.0-13.0","3SBEHTYCWOPJIHUCAD4XNOJR1TYYI6","A3AHD1NV5XCOF","3D1UCPY6GGVNRONHL4UEVMXCHLT38H","","null","<img src=""img/land2.png"" style=""width:200px; border:14px solid green;"">","null","","","","","","","","","",""
"","image-keyboard-response","14","17974","0.0-14.0","3SBEHTYCWOPJIHUCAD4XNOJR1TYYI6","A3AHD1NV5XCOF","3D1UCPY6GGVNRONHL4UEVMXCHLT38H","","22","img/land1.png","74","24","1","0","1","2","0.8,0.2,0.2,0.2,0.8,0.2,0.2,0.2,0.8","0.2,0.2,0.8,0.8,0.2,0.2,0.2,0.8,0.2","2","",""
"","html-keyboard-response","15","18276","0.0-15.0","3SBEHTYCWOPJIHUCAD4XNOJR1TYYI6","A3AHD1NV5XCOF","3D1UCPY6GGVNRONHL4UEVMXCHLT38H","","null","<img src=""img/land1.png"" style=""width:200px;border:14px solid red;"">","null","","","","","","","","","",""
"","image-keyboard-response","16","18294","0.0-16.0","3SBEHTYCWOPJIHUCAD4XNOJR1TYYI6","A3AHD1NV5XCOF","3D1UCPY6GGVNRONHL4UEVMXCHLT38H","","15","img/land2.png","75","17","2","0","2","2","0.8,0.2,0.2,0.2,0.8,0.2,0.2,0.2,0.8","0.2,0.2,0.8,0.8,0.2,0.2,0.2,0.8,0.2","2","",""
"","html-keyboard-response","17","18666","0.0-17.0","3SBEHTYCWOPJIHUCAD4XNOJR1TYYI6","A3AHD1NV5XCOF","3D1UCPY6GGVNRONHL4UEVMXCHLT38H","","null","<img src=""img/land2.png"" style=""width:200px;border:14px solid red;"">","null","","","","","","","","","",""
"","image-keyboard-response","18","18928","0.0-18.0","3SBEHTYCWOPJIHUCAD4XNOJR1TYYI6","A3AHD1NV5XCOF","3D1UCPY6GGVNRONHL4UEVMXCHLT38H","","260","img/land1.png","74","261","1","0","1","2","0.8,0.2,0.2,0.2,0.8,0.2,0.2,0.2,0.8","0.2,0.2,0.8,0.8,0.2,0.2,0.2,0.8,0.2","2","",""
"","html-keyboard-response","19","19231","0.0-19.0","3SBEHTYCWOPJIHUCAD4XNOJR1TYYI6","A3AHD1NV5XCOF","3D1UCPY6GGVNRONHL4UEVMXCHLT38H","","null","<img src=""img/land1.png"" style=""width:200px;border:14px solid red;"">","null","","","","","","","","","",""
"","image-keyboard-response","20","19256","0.0-20.0","3SBEHTYCWOPJIHUCAD4XNOJR1TYYI6","A3AHD1NV5XCOF","3D1UCPY6GGVNRONHL4UEVMXCHLT38H","","22","img/land1.png","76","23","3","1","1","2","0.8,0.2,0.2,0.2,0.8,0.2,0.2,0.2,0.8","0.2,0.2,0.8,0.8,0.2,0.2,0.2,0.8,0.2","2","",""
"","html-keyboard-response","21","19559","0.0-21.0","3SBEHTYCWOPJIHUCAD4XNOJR1TYYI6","A3AHD1NV5XCOF","3D1UCPY6GGVNRONHL4UEVMXCHLT38H","","null","<img src=""img/land1.png"" style=""width:200px; border:14px solid green;"">","null","","","","","","","","","",""
"","image-keyboard-response","22","19653","0.0-22.0","3SBEHTYCWOPJIHUCAD4XNOJR1TYYI6","A3AHD1NV5XCOF","3D1UCPY6GGVNRONHL4UEVMXCHLT38H","","90","img/land1.png","76","92","3","1","1","2","0.8,0.2,0.2,0.2,0.8,0.2,0.2,0.2,0.8","0.2,0.2,0.8,0.8,0.2,0.2,0.2,0.8,0.2","2","",""
"","html-keyboard-response","23","19956","0.0-23.0","3SBEHTYCWOPJIHUCAD4XNOJR1TYYI6","A3AHD1NV5XCOF","3D1UCPY6GGVNRONHL4UEVMXCHLT38H","","null","<img src=""img/land1.png"" style=""width:200px; border:14px solid green;"">","null","","","","","","","","","",""
"","image-keyboard-response","24","20028","0.0-24.0","3SBEHTYCWOPJIHUCAD4XNOJR1TYYI6","A3AHD1NV5XCOF","3D1UCPY6GGVNRONHL4UEVMXCHLT38H","","68","img/land2.png","75","70","2","0","2","2","0.8,0.2,0.2,0.2,0.8,0.2,0.2,0.2,0.8","0.2,0.2,0.8,0.8,0.2,0.2,0.2,0.8,0.2","2","",""
"","html-keyboard-response","25","20437","0.0-25.0","3SBEHTYCWOPJIHUCAD4XNOJR1TYYI6","A3AHD1NV5XCOF","3D1UCPY6GGVNRONHL4UEVMXCHLT38H","","null","<img src=""img/land2.png"" style=""width:200px;border:14px solid red;"">","null","","","","","","","","","",""
"","image-keyboard-response","26","20552","0.0-26.0","3SBEHTYCWOPJIHUCAD4XNOJR1TYYI6","A3AHD1NV5XCOF","3D1UCPY6GGVNRONHL4UEVMXCHLT38H","","114","img/land5.png","74","114","1","0","3","2","0.8,0.2,0.2,0.2,0.8,0.2,0.2,0.2,0.8","0.2,0.2,0.8,0.8,0.2,0.2,0.2,0.8,0.2","2","",""
"","html-keyboard-response","27","20854","0.0-27.0","3SBEHTYCWOPJIHUCAD4XNOJR1TYYI6","A3AHD1NV5XCOF","3D1UCPY6GGVNRONHL4UEVMXCHLT38H","","null","<img src=""img/land5.png"" style=""width:200px;border:14px solid red;"">","null","","","","","","","","","",""
"","image-keyboard-response","28","20893","0.0-28.0","3SBEHTYCWOPJIHUCAD4XNOJR1TYYI6","A3AHD1NV5XCOF","3D1UCPY6GGVNRONHL4UEVMXCHLT38H","","30","img/land1.png","74","31","1","1","1","2","0.8,0.2,0.2,0.2,0.8,0.2,0.2,0.2,0.8","0.2,0.2,0.8,0.8,0.2,0.2,0.2,0.8,0.2","2","",""
"","html-keyboard-response","29","21194","0.0-29.0","3SBEHTYCWOPJIHUCAD4XNOJR1TYYI6","A3AHD1NV5XCOF","3D1UCPY6GGVNRONHL4UEVMXCHLT38H","","null","<img src=""img/land1.png"" style=""width:200px; border:14px solid green;"">","null","","","","","","","","","",""
"","image-keyboard-response","30","21214","0.0-30.0","3SBEHTYCWOPJIHUCAD4XNOJR1TYYI6","A3AHD1NV5XCOF","3D1UCPY6GGVNRONHL4UEVMXCHLT38H","","19","img/land5.png","75","20","2","1","3","2","0.8,0.2,0.2,0.2,0.8,0.2,0.2,0.2,0.8","0.2,0.2,0.8,0.8,0.2,0.2,0.2,0.8,0.2","2","",""
"","html-keyboard-response","31","21516","0.0-31.0","3SBEHTYCWOPJIHUCAD4XNOJR1TYYI6","A3AHD1NV5XCOF","3D1UCPY6GGVNRONHL4UEVMXCHLT38H","","null","<img src=""img/land5.png"" style=""width:200px; border:14px solid green;"">","null","","","","","","","","","",""
"","image-keyboard-response","32","21590","0.0-32.0","3SBEHTYCWOPJIHUCAD4XNOJR1TYYI6","A3AHD1NV5XCOF","3D1UCPY6GGVNRONHL4UEVMXCHLT38H","","71","img/land1.png","76","73","3","1","1","2","0.8,0.2,0.2,0.2,0.8,0.2,0.2,0.2,0.8","0.2,0.2,0.8,0.8,0.2,0.2,0.2,0.8,0.2","2","",""
"","html-keyboard-response","33","21891","0.0-33.0","3SBEHTYCWOPJIHUCAD4XNOJR1TYYI6","A3AHD1NV5XCOF","3D1UCPY6GGVNRONHL4UEVMXCHLT38H","","null","<img src=""img/land1.png"" style=""width:200px; border:14px solid green;"">","null","","","","","","","","","",""
"","image-keyboard-response","34","21974","0.0-34.0","3SBEHTYCWOPJIHUCAD4XNOJR1TYYI6","A3AHD1NV5XCOF","3D1UCPY6GGVNRONHL4UEVMXCHLT38H","","79","img/land2.png","74","80","1","1","2","2","0.8,0.2,0.2,0.2,0.8,0.2,0.2,0.2,0.8","0.2,0.2,0.8,0.8,0.2,0.2,0.2,0.8,0.2","2","",""
"","html-keyboard-response","35","22275","0.0-35.0","3SBEHTYCWOPJIHUCAD4XNOJR1TYYI6","A3AHD1NV5XCOF","3D1UCPY6GGVNRONHL4UEVMXCHLT38H","","null","<img src=""img/land2.png"" style=""width:200px; border:14px solid green;"">","null","","","","","","","","","",""
"","image-keyboard-response","36","22349","0.0-36.0","3SBEHTYCWOPJIHUCAD4XNOJR1TYYI6","A3AHD1NV5XCOF","3D1UCPY6GGVNRONHL4UEVMXCHLT38H","","71","img/land1.png","74","73","1","0","1","2","0.8,0.2,0.2,0.2,0.8,0.2,0.2,0.2,0.8","0.2,0.2,0.8,0.8,0.2,0.2,0.2,0.8,0.2","2","",""
"","html-keyboard-response","37","22685","0.0-37.0","3SBEHTYCWOPJIHUCAD4XNOJR1TYYI6","A3AHD1NV5XCOF","3D1UCPY6GGVNRONHL4UEVMXCHLT38H","","null","<img src=""img/land1.png"" style=""width:200px;border:14px solid red;"">","null","","","","","","","","","",""
"","image-keyboard-response","38","22727","0.0-38.0","3SBEHTYCWOPJIHUCAD4XNOJR1TYYI6","A3AHD1NV5XCOF","3D1UCPY6GGVNRONHL4UEVMXCHLT38H","","41","img/land2.png","76","41","3","0","2","2","0.8,0.2,0.2,0.2,0.8,0.2,0.2,0.2,0.8","0.2,0.2,0.8,0.8,0.2,0.2,0.2,0.8,0.2","2","",""
"","html-keyboard-response","39","23033","0.0-39.0","3SBEHTYCWOPJIHUCAD4XNOJR1TYYI6","A3AHD1NV5XCOF","3D1UCPY6GGVNRONHL4UEVMXCHLT38H","","null","<img src=""img/land2.png"" style=""width:200px;border:14px solid red;"">","null","","","","","","","","","",""
"","image-keyboard-response","40","23070","0.0-40.0","3SBEHTYCWOPJIHUCAD4XNOJR1TYYI6","A3AHD1NV5XCOF","3D1UCPY6GGVNRONHL4UEVMXCHLT38H","","28","img/land5.png","74","35","1","0","3","2","0.8,0.2,0.2,0.2,0.8,0.2,0.2,0.2,0.8","0.2,0.2,0.8,0.8,0.2,0.2,0.2,0.8,0.2","2","",""
"","html-keyboard-response","41","23374","0.0-41.0","3SBEHTYCWOPJIHUCAD4XNOJR1TYYI6","A3AHD1NV5XCOF","3D1UCPY6GGVNRONHL4UEVMXCHLT38H","","null","<img src=""img/land5.png"" style=""width:200px;border:14px solid red;"">","null","","","","","","","","","",""
"","image-keyboard-response","42","23387","0.0-42.0","3SBEHTYCWOPJIHUCAD4XNOJR1TYYI6","A3AHD1NV5XCOF","3D1UCPY6GGVNRONHL4UEVMXCHLT38H","","11","img/land2.png","76","12","3","0","2","2","0.8,0.2,0.2,0.2,0.8,0.2,0.2,0.2,0.8","0.2,0.2,0.8,0.8,0.2,0.2,0.2,0.8,0.2","2","",""
"","html-keyboard-response","43","23689","0.0-43.0","3SBEHTYCWOPJIHUCAD4XNOJR1TYYI6","A3AHD1NV5XCOF","3D1UCPY6GGVNRONHL4UEVMXCHLT38H","","null","<img src=""img/land2.png"" style=""width:200px;border:14px solid red;"">","null","","","","","","","","","",""
"","image-keyboard-response","44","23715","0.0-44.0","3SBEHTYCWOPJIHUCAD4XNOJR1TYYI6","A3AHD1NV5XCOF","3D1UCPY6GGVNRONHL4UEVMXCHLT38H","","25","img/land2.png","74","25","1","1","2","2","0.8,0.2,0.2,0.2,0.8,0.2,0.2,0.2,0.8","0.2,0.2,0.8,0.8,0.2,0.2,0.2,0.8,0.2","2","",""
"","html-keyboard-response","45","24117","0.0-45.0","3SBEHTYCWOPJIHUCAD4XNOJR1TYYI6","A3AHD1NV5XCOF","3D1UCPY6GGVNRONHL4UEVMXCHLT38H","","null","<img src=""img/land2.png"" style=""width:200px; border:14px solid green;"">","null","","","","","","","","","",""
"","image-keyboard-response","46","24148","0.0-46.0","3SBEHTYCWOPJIHUCAD4XNOJR1TYYI6","A3AHD1NV5XCOF","3D1UCPY6GGVNRONHL4UEVMXCHLT38H","","29","img/land1.png","76","30","3","0","1","2","0.8,0.2,0.2,0.2,0.8,0.2,0.2,0.2,0.8","0.2,0.2,0.8,0.8,0.2,0.2,0.2,0.8,0.2","2","",""
"","html-keyboard-response","47","24449","0.0-47.0","3SBEHTYCWOPJIHUCAD4XNOJR1TYYI6","A3AHD1NV5XCOF","3D1UCPY6GGVNRONHL4UEVMXCHLT38H","","null","<img src=""img/land1.png"" style=""width:200px;border:14px solid red;"">","null","","","","","","","","","",""
"","image-keyboard-response","48","24544","0.0-48.0","3SBEHTYCWOPJIHUCAD4XNOJR1TYYI6","A3AHD1NV5XCOF","3D1UCPY6GGVNRONHL4UEVMXCHLT38H","","94","img/land1.png","74","95","1","0","1","2","0.8,0.2,0.2,0.2,0.8,0.2,0.2,0.2,0.8","0.2,0.2,0.8,0.8,0.2,0.2,0.2,0.8,0.2","2","",""
"","html-keyboard-response","49","24847","0.0-49.0","3SBEHTYCWOPJIHUCAD4XNOJR1TYYI6","A3AHD1NV5XCOF","3D1UCPY6GGVNRONHL4UEVMXCHLT38H","","null","<img src=""img/land1.png"" style=""width:200px;border:14px solid red;"">","null","","","","","","","","","",""
"","image-keyboard-response","50","24897","0.0-50.0","3SBEHTYCWOPJIHUCAD4XNOJR1TYYI6","A3AHD1NV5XCOF","3D1UCPY6GGVNRONHL4UEVMXCHLT38H","","49","img/land1.png","76","50","3","1","1","2","0.8,0.2,0.2,0.2,0.8,0.2,0.2,0.2,0.8","0.2,0.2,0.8,0.8,0.2,0.2,0.2,0.8,0.2","2","",""
"","html-keyboard-response","51","25199","0.0-51.0","3SBEHTYCWOPJIHUCAD4XNOJR1TYYI6","A3AHD1NV5XCOF","3D1UCPY6GGVNRONHL4UEVMXCHLT38H","","null","<img src=""img/land1.png"" style=""width:200px; border:14px solid green;"">","null","","","","","","","","","",""
"","image-keyboard-response","52","25299","0.0-52.0","3SBEHTYCWOPJIHUCAD4XNOJR1TYYI6","A3AHD1NV5XCOF","3D1UCPY6GGVNRONHL4UEVMXCHLT38H","","97","img/land1.png","74","99","1","0","1","2","0.8,0.2,0.2,0.2,0.8,0.2,0.2,0.2,0.8","0.2,0.2,0.8,0.8,0.2,0.2,0.2,0.8,0.2","2","",""
"","html-keyboard-response","53","25625","0.0-53.0","3SBEHTYCWOPJIHUCAD4XNOJR1TYYI6","A3AHD1NV5XCOF","3D1UCPY6GGVNRONHL4UEVMXCHLT38H","","null","<img src=""img/land1.png"" style=""width:200px;border:14px solid red;"">","null","","","","","","","","","",""
"","image-keyboard-response","54","25668","0.0-54.0","3SBEHTYCWOPJIHUCAD4XNOJR1TYYI6","A3AHD1NV5XCOF","3D1UCPY6GGVNRONHL4UEVMXCHLT38H","","42","img/land1.png","76","43","3","1","1","2","0.8,0.2,0.2,0.2,0.8,0.2,0.2,0.2,0.8","0.2,0.2,0.8,0.8,0.2,0.2,0.2,0.8,0.2","2","",""
"","html-keyboard-response","55","25969","0.0-55.0","3SBEHTYCWOPJIHUCAD4XNOJR1TYYI6","A3AHD1NV5XCOF","3D1UCPY6GGVNRONHL4UEVMXCHLT38H","","null","<img src=""img/land1.png"" style=""width:200px; border:14px solid green;"">","null","","","","","","","","","",""
"","image-keyboard-response","56","26070","0.0-56.0","3SBEHTYCWOPJIHUCAD4XNOJR1TYYI6","A3AHD1NV5XCOF","3D1UCPY6GGVNRONHL4UEVMXCHLT38H","","100","img/land5.png","76","100","3","0","3","2","0.8,0.2,0.2,0.2,0.8,0.2,0.2,0.2,0.8","0.2,0.2,0.8,0.8,0.2,0.2,0.2,0.8,0.2","2","",""
"","html-keyboard-response","57","26375","0.0-57.0","3SBEHTYCWOPJIHUCAD4XNOJR1TYYI6","A3AHD1NV5XCOF","3D1UCPY6GGVNRONHL4UEVMXCHLT38H","","null","<img src=""img/land5.png"" style=""width:200px;border:14px solid red;"">","null","","","","","","","","","",""
"","image-keyboard-response","58","26386","0.0-58.0","3SBEHTYCWOPJIHUCAD4XNOJR1TYYI6","A3AHD1NV5XCOF","3D1UCPY6GGVNRONHL4UEVMXCHLT38H","","10","img/land1.png","76","11","3","1","1","2","0.8,0.2,0.2,0.2,0.8,0.2,0.2,0.2,0.8","0.2,0.2,0.8,0.8,0.2,0.2,0.2,0.8,0.2","2","",""
"","html-keyboard-response","59","26688","0.0-59.0","3SBEHTYCWOPJIHUCAD4XNOJR1TYYI6","A3AHD1NV5XCOF","3D1UCPY6GGVNRONHL4UEVMXCHLT38H","","null","<img src=""img/land1.png"" style=""width:200px; border:14px solid green;"">","null","","","","","","","","","",""
"","image-keyboard-response","60","26855","0.0-60.0","3SBEHTYCWOPJIHUCAD4XNOJR1TYYI6","A3AHD1NV5XCOF","3D1UCPY6GGVNRONHL4UEVMXCHLT38H","","166","img/land1.png","74","166","1","0","1","2","0.8,0.2,0.2,0.2,0.8,0.2,0.2,0.2,0.8","0.2,0.2,0.8,0.8,0.2,0.2,0.2,0.8,0.2","2","",""
"","html-keyboard-response","61","27157","0.0-61.0","3SBEHTYCWOPJIHUCAD4XNOJR1TYYI6","A3AHD1NV5XCOF","3D1UCPY6GGVNRONHL4UEVMXCHLT38H","","null","<img src=""img/land1.png"" style=""width:200px;border:14px solid red;"">","null","","","","","","","","","",""
"","image-keyboard-response","62","27172","0.0-62.0","3SBEHTYCWOPJIHUCAD4XNOJR1TYYI6","A3AHD1NV5XCOF","3D1UCPY6GGVNRONHL4UEVMXCHLT38H","","12","img/land1.png","74","15","1","1","1","2","0.8,0.2,0.2,0.2,0.8,0.2,0.2,0.2,0.8","0.2,0.2,0.8,0.8,0.2,0.2,0.2,0.8,0.2","2","",""
"","html-keyboard-response","63","27476","0.0-63.0","3SBEHTYCWOPJIHUCAD4XNOJR1TYYI6","A3AHD1NV5XCOF","3D1UCPY6GGVNRONHL4UEVMXCHLT38H","","null","<img src=""img/land1.png"" style=""width:200px; border:14px solid green;"">","null","","","","","","","","","",""
"","image-keyboard-response","64","27949","0.0-64.0","3SBEHTYCWOPJIHUCAD4XNOJR1TYYI6","A3AHD1NV5XCOF","3D1UCPY6GGVNRONHL4UEVMXCHLT38H","","472","img/land5.png","74","473","1","0","3","2","0.8,0.2,0.2,0.2,0.8,0.2,0.2,0.2,0.8","0.2,0.2,0.8,0.8,0.2,0.2,0.2,0.8,0.2","2","",""
"","html-keyboard-response","65","28254","0.0-65.0","3SBEHTYCWOPJIHUCAD4XNOJR1TYYI6","A3AHD1NV5XCOF","3D1UCPY6GGVNRONHL4UEVMXCHLT38H","","null","<img src=""img/land5.png"" style=""width:200px;border:14px solid red;"">","null","","","","","","","","","",""
"","image-keyboard-response","66","28385","0.0-66.0","3SBEHTYCWOPJIHUCAD4XNOJR1TYYI6","A3AHD1NV5XCOF","3D1UCPY6GGVNRONHL4UEVMXCHLT38H","","124","img/land1.png","76","128","3","1","1","2","0.8,0.2,0.2,0.2,0.8,0.2,0.2,0.2,0.8","0.2,0.2,0.8,0.8,0.2,0.2,0.2,0.8,0.2","2","",""
"","html-keyboard-response","67","28687","0.0-67.0","3SBEHTYCWOPJIHUCAD4XNOJR1TYYI6","A3AHD1NV5XCOF","3D1UCPY6GGVNRONHL4UEVMXCHLT38H","","null","<img src=""img/land1.png"" style=""width:200px; border:14px solid green;"">","null","","","","","","","","","",""
"","image-keyboard-response","68","28746","0.0-68.0","3SBEHTYCWOPJIHUCAD4XNOJR1TYYI6","A3AHD1NV5XCOF","3D1UCPY6GGVNRONHL4UEVMXCHLT38H","","58","img/land1.png","74","59","1","0","1","2","0.8,0.2,0.2,0.2,0.8,0.2,0.2,0.2,0.8","0.2,0.2,0.8,0.8,0.2,0.2,0.2,0.8,0.2","2","",""
"","html-keyboard-response","69","29049","0.0-69.0","3SBEHTYCWOPJIHUCAD4XNOJR1TYYI6","A3AHD1NV5XCOF","3D1UCPY6GGVNRONHL4UEVMXCHLT38H","","null","<img src=""img/land1.png"" style=""width:200px;border:14px solid red;"">","null","","","","","","","","","",""
"","image-keyboard-response","70","29115","0.0-70.0","3SBEHTYCWOPJIHUCAD4XNOJR1TYYI6","A3AHD1NV5XCOF","3D1UCPY6GGVNRONHL4UEVMXCHLT38H","","63","img/land1.png","76","64","3","1","1","2","0.8,0.2,0.2,0.2,0.8,0.2,0.2,0.2,0.8","0.2,0.2,0.8,0.8,0.2,0.2,0.2,0.8,0.2","2","",""
"","html-keyboard-response","71","29420","0.0-71.0","3SBEHTYCWOPJIHUCAD4XNOJR1TYYI6","A3AHD1NV5XCOF","3D1UCPY6GGVNRONHL4UEVMXCHLT38H","","null","<img src=""img/land1.png"" style=""width:200px; border:14px solid green;"">","null","","","","","","","","","",""
"","image-keyboard-response","72","29471","0.0-72.0","3SBEHTYCWOPJIHUCAD4XNOJR1TYYI6","A3AHD1NV5XCOF","3D1UCPY6GGVNRONHL4UEVMXCHLT38H","","49","img/land5.png","76","50","3","0","3","2","0.8,0.2,0.2,0.2,0.8,0.2,0.2,0.2,0.8","0.2,0.2,0.8,0.8,0.2,0.2,0.2,0.8,0.2","2","",""
"","html-keyboard-response","73","29803","0.0-73.0","3SBEHTYCWOPJIHUCAD4XNOJR1TYYI6","A3AHD1NV5XCOF","3D1UCPY6GGVNRONHL4UEVMXCHLT38H","","null","<img src=""img/land5.png"" style=""width:200px;border:14px solid red;"">","null","","","","","","","","","",""
"","image-keyboard-response","74","29822","0.0-74.0","3SBEHTYCWOPJIHUCAD4XNOJR1TYYI6","A3AHD1NV5XCOF","3D1UCPY6GGVNRONHL4UEVMXCHLT38H","","18","img/land5.png","74","19","1","0","3","2","0.8,0.2,0.2,0.2,0.8,0.2,0.2,0.2,0.8","0.2,0.2,0.8,0.8,0.2,0.2,0.2,0.8,0.2","2","",""
"","html-keyboard-response","75","30124","0.0-75.0","3SBEHTYCWOPJIHUCAD4XNOJR1TYYI6","A3AHD1NV5XCOF","3D1UCPY6GGVNRONHL4UEVMXCHLT38H","","null","<img src=""img/land5.png"" style=""width:200px;border:14px solid red;"">","null","","","","","","","","","",""
"","image-keyboard-response","76","30166","0.0-76.0","3SBEHTYCWOPJIHUCAD4XNOJR1TYYI6","A3AHD1NV5XCOF","3D1UCPY6GGVNRONHL4UEVMXCHLT38H","","42","img/land2.png","76","42","3","1","2","2","0.8,0.2,0.2,0.2,0.8,0.2,0.2,0.2,0.8","0.2,0.2,0.8,0.8,0.2,0.2,0.2,0.8,0.2","2","",""
"","html-keyboard-response","77","30468","0.0-77.0","3SBEHTYCWOPJIHUCAD4XNOJR1TYYI6","A3AHD1NV5XCOF","3D1UCPY6GGVNRONHL4UEVMXCHLT38H","","null","<img src=""img/land2.png"" style=""width:200px; border:14px solid green;"">","null","","","","","","","","","",""
"","image-keyboard-response","78","30502","0.0-78.0","3SBEHTYCWOPJIHUCAD4XNOJR1TYYI6","A3AHD1NV5XCOF","3D1UCPY6GGVNRONHL4UEVMXCHLT38H","","33","img/land1.png","76","45","3","1","1","2","0.8,0.2,0.2,0.2,0.8,0.2,0.2,0.2,0.8","0.2,0.2,0.8,0.8,0.2,0.2,0.2,0.8,0.2","2","",""
"","html-keyboard-response","79","30817","0.0-79.0","3SBEHTYCWOPJIHUCAD4XNOJR1TYYI6","A3AHD1NV5XCOF","3D1UCPY6GGVNRONHL4UEVMXCHLT38H","","null","<img src=""img/land1.png"" style=""width:200px; border:14px solid green;"">","null","","","","","","","","","",""
"","image-keyboard-response","80","31133","0.0-80.0","3SBEHTYCWOPJIHUCAD4XNOJR1TYYI6","A3AHD1NV5XCOF","3D1UCPY6GGVNRONHL4UEVMXCHLT38H","","312","img/land1.png","75","314","2","0","1","2","0.8,0.2,0.2,0.2,0.8,0.2,0.2,0.2,0.8","0.2,0.2,0.8,0.8,0.2,0.2,0.2,0.8,0.2","2","",""
"","html-keyboard-response","81","31437","0.0-81.0","3SBEHTYCWOPJIHUCAD4XNOJR1TYYI6","A3AHD1NV5XCOF","3D1UCPY6GGVNRONHL4UEVMXCHLT38H","","null","<img src=""img/land1.png"" style=""width:200px;border:14px solid red;"">","null","","","","","","","","","",""
"","image-keyboard-response","82","31453","0.0-82.0","3SBEHTYCWOPJIHUCAD4XNOJR1TYYI6","A3AHD1NV5XCOF","3D1UCPY6GGVNRONHL4UEVMXCHLT38H","","14","img/land1.png","75","15","2","1","1","2","0.8,0.2,0.2,0.2,0.8,0.2,0.2,0.2,0.8","0.2,0.2,0.8,0.8,0.2,0.2,0.2,0.8,0.2","2","",""
"","html-keyboard-response","83","31754","0.0-83.0","3SBEHTYCWOPJIHUCAD4XNOJR1TYYI6","A3AHD1NV5XCOF","3D1UCPY6GGVNRONHL4UEVMXCHLT38H","","null","<img src=""img/land1.png"" style=""width:200px; border:14px solid green;"">","null","","","","","","","","","",""
"","image-keyboard-response","84","31818","0.0-84.0","3SBEHTYCWOPJIHUCAD4XNOJR1TYYI6","A3AHD1NV5XCOF","3D1UCPY6GGVNRONHL4UEVMXCHLT38H","","61","img/land5.png","74","62","1","0","3","2","0.8,0.2,0.2,0.2,0.8,0.2,0.2,0.2,0.8","0.2,0.2,0.8,0.8,0.2,0.2,0.2,0.8,0.2","2","",""
"","html-keyboard-response","85","32141","0.0-85.0","3SBEHTYCWOPJIHUCAD4XNOJR1TYYI6","A3AHD1NV5XCOF","3D1UCPY6GGVNRONHL4UEVMXCHLT38H","","null","<img src=""img/land5.png"" style=""width:200px;border:14px solid red;"">","null","","","","","","","","","",""
"","image-keyboard-response","86","32268","0.0-86.0","3SBEHTYCWOPJIHUCAD4XNOJR1TYYI6","A3AHD1NV5XCOF","3D1UCPY6GGVNRONHL4UEVMXCHLT38H","","126","img/land5.png","74","126","1","1","3","2","0.8,0.2,0.2,0.2,0.8,0.2,0.2,0.2,0.8","0.2,0.2,0.8,0.8,0.2,0.2,0.2,0.8,0.2","2","",""
"","html-keyboard-response","87","32570","0.0-87.0","3SBEHTYCWOPJIHUCAD4XNOJR1TYYI6","A3AHD1NV5XCOF","3D1UCPY6GGVNRONHL4UEVMXCHLT38H","","null","<img src=""img/land5.png"" style=""width:200px; border:14px solid green;"">","null","","","","","","","","","",""
"","image-keyboard-response","88","32626","0.0-88.0","3SBEHTYCWOPJIHUCAD4XNOJR1TYYI6","A3AHD1NV5XCOF","3D1UCPY6GGVNRONHL4UEVMXCHLT38H","","53","img/land1.png","75","56","2","0","1","2","0.8,0.2,0.2,0.2,0.8,0.2,0.2,0.2,0.8","0.2,0.2,0.8,0.8,0.2,0.2,0.2,0.8,0.2","2","",""
"","html-keyboard-response","89","32931","0.0-89.0","3SBEHTYCWOPJIHUCAD4XNOJR1TYYI6","A3AHD1NV5XCOF","3D1UCPY6GGVNRONHL4UEVMXCHLT38H","","null","<img src=""img/land1.png"" style=""width:200px;border:14px solid red;"">","null","","","","","","","","","",""
"","image-keyboard-response","90","32994","0.0-90.0","3SBEHTYCWOPJIHUCAD4XNOJR1TYYI6","A3AHD1NV5XCOF","3D1UCPY6GGVNRONHL4UEVMXCHLT38H","","59","img/land1.png","74","61","1","0","1","2","0.8,0.2,0.2,0.2,0.8,0.2,0.2,0.2,0.8","0.2,0.2,0.8,0.8,0.2,0.2,0.2,0.8,0.2","2","",""
"","html-keyboard-response","91","33380","0.0-91.0","3SBEHTYCWOPJIHUCAD4XNOJR1TYYI6","A3AHD1NV5XCOF","3D1UCPY6GGVNRONHL4UEVMXCHLT38H","","null","<img src=""img/land1.png"" style=""width:200px;border:14px solid red;"">","null","","","","","","","","","",""
"","image-keyboard-response","92","33407","0.0-92.0","3SBEHTYCWOPJIHUCAD4XNOJR1TYYI6","A3AHD1NV5XCOF","3D1UCPY6GGVNRONHL4UEVMXCHLT38H","","25","img/land5.png","76","26","3","1","3","2","0.8,0.2,0.2,0.2,0.8,0.2,0.2,0.2,0.8","0.2,0.2,0.8,0.8,0.2,0.2,0.2,0.8,0.2","2","",""
"","html-keyboard-response","93","33709","0.0-93.0","3SBEHTYCWOPJIHUCAD4XNOJR1TYYI6","A3AHD1NV5XCOF","3D1UCPY6GGVNRONHL4UEVMXCHLT38H","","null","<img src=""img/land5.png"" style=""width:200px; border:14px solid green;"">","null","","","","","","","","","",""
"","image-keyboard-response","94","33784","0.0-94.0","3SBEHTYCWOPJIHUCAD4XNOJR1TYYI6","A3AHD1NV5XCOF","3D1UCPY6GGVNRONHL4UEVMXCHLT38H","","73","img/land1.png","75","74","2","1","1","2","0.8,0.2,0.2,0.2,0.8,0.2,0.2,0.2,0.8","0.2,0.2,0.8,0.8,0.2,0.2,0.2,0.8,0.2","2","",""
"","html-keyboard-response","95","34086","0.0-95.0","3SBEHTYCWOPJIHUCAD4XNOJR1TYYI6","A3AHD1NV5XCOF","3D1UCPY6GGVNRONHL4UEVMXCHLT38H","","null","<img src=""img/land1.png"" style=""width:200px; border:14px solid green;"">","null","","","","","","","","","",""
"","image-keyboard-response","96","34150","0.0-96.0","3SBEHTYCWOPJIHUCAD4XNOJR1TYYI6","A3AHD1NV5XCOF","3D1UCPY6GGVNRONHL4UEVMXCHLT38H","","63","img/land1.png","75","63","2","0","1","2","0.8,0.2,0.2,0.2,0.8,0.2,0.2,0.2,0.8","0.2,0.2,0.8,0.8,0.2,0.2,0.2,0.8,0.2","2","",""
"","html-keyboard-response","97","34457","0.0-97.0","3SBEHTYCWOPJIHUCAD4XNOJR1TYYI6","A3AHD1NV5XCOF","3D1UCPY6GGVNRONHL4UEVMXCHLT38H","","null","<img src=""img/land1.png"" style=""width:200px;border:14px solid red;"">","null","","","","","","","","","",""
"","image-keyboard-response","98","34655","0.0-98.0","3SBEHTYCWOPJIHUCAD4XNOJR1TYYI6","A3AHD1NV5XCOF","3D1UCPY6GGVNRONHL4UEVMXCHLT38H","","196","img/land5.png","75","198","2","1","3","2","0.8,0.2,0.2,0.2,0.8,0.2,0.2,0.2,0.8","0.2,0.2,0.8,0.8,0.2,0.2,0.2,0.8,0.2","2","",""
"","html-keyboard-response","99","34957","0.0-99.0","3SBEHTYCWOPJIHUCAD4XNOJR1TYYI6","A3AHD1NV5XCOF","3D1UCPY6GGVNRONHL4UEVMXCHLT38H","","null","<img src=""img/land5.png"" style=""width:200px; border:14px solid green;"">","null","","","","","","","","","",""
"","image-keyboard-response","100","34971","0.0-100.0","3SBEHTYCWOPJIHUCAD4XNOJR1TYYI6","A3AHD1NV5XCOF","3D1UCPY6GGVNRONHL4UEVMXCHLT38H","","11","img/land1.png","74","13","1","0","1","2","0.8,0.2,0.2,0.2,0.8,0.2,0.2,0.2,0.8","0.2,0.2,0.8,0.8,0.2,0.2,0.2,0.8,0.2","2","",""
"","html-keyboard-response","101","35273","0.0-101.0","3SBEHTYCWOPJIHUCAD4XNOJR1TYYI6","A3AHD1NV5XCOF","3D1UCPY6GGVNRONHL4UEVMXCHLT38H","","null","<img src=""img/land1.png"" style=""width:200px;border:14px solid red;"">","null","","","","","","","","","",""
"","image-keyboard-response","102","35317","0.0-102.0","3SBEHTYCWOPJIHUCAD4XNOJR1TYYI6","A3AHD1NV5XCOF","3D1UCPY6GGVNRONHL4UEVMXCHLT38H","","40","img/land5.png","74","43","1","0","3","2","0.8,0.2,0.2,0.2,0.8,0.2,0.2,0.2,0.8","0.2,0.2,0.8,0.8,0.2,0.2,0.2,0.8,0.2","2","",""
"","html-keyboard-response","103","35634","0.0-103.0","3SBEHTYCWOPJIHUCAD4XNOJR1TYYI6","A3AHD1NV5XCOF","3D1UCPY6GGVNRONHL4UEVMXCHLT38H","","null","<img src=""img/land5.png"" style=""width:200px;border:14px solid red;"">","null","","","","","","","","","",""
"","image-keyboard-response","104","35671","0.0-104.0","3SBEHTYCWOPJIHUCAD4XNOJR1TYYI6","A3AHD1NV5XCOF","3D1UCPY6GGVNRONHL4UEVMXCHLT38H","","36","img/land1.png","76","37","3","1","1","2","0.8,0.2,0.2,0.2,0.8,0.2,0.2,0.2,0.8","0.2,0.2,0.8,0.8,0.2,0.2,0.2,0.8,0.2","2","",""
"","html-keyboard-response","105","35972","0.0-105.0","3SBEHTYCWOPJIHUCAD4XNOJR1TYYI6","A3AHD1NV5XCOF","3D1UCPY6GGVNRONHL4UEVMXCHLT38H","","null","<img src=""img/land1.png"" style=""width:200px; border:14px solid green;"">","null","","","","","","","","","",""
"","image-keyboard-response","106","36011","0.0-106.0","3SBEHTYCWOPJIHUCAD4XNOJR1TYYI6","A3AHD1NV5XCOF","3D1UCPY6GGVNRONHL4UEVMXCHLT38H","","38","img/land1.png","76","39","3","1","1","2","0.8,0.2,0.2,0.2,0.8,0.2,0.2,0.2,0.8","0.2,0.2,0.8,0.8,0.2,0.2,0.2,0.8,0.2","2","",""
"","html-keyboard-response","107","36312","0.0-107.0","3SBEHTYCWOPJIHUCAD4XNOJR1TYYI6","A3AHD1NV5XCOF","3D1UCPY6GGVNRONHL4UEVMXCHLT38H","","null","<img src=""img/land1.png"" style=""width:200px; border:14px solid green;"">","null","","","","","","","","","",""
"","image-keyboard-response","108","36474","0.0-108.0","3SBEHTYCWOPJIHUCAD4XNOJR1TYYI6","A3AHD1NV5XCOF","3D1UCPY6GGVNRONHL4UEVMXCHLT38H","","159","img/land1.png","76","161","3","0","1","2","0.8,0.2,0.2,0.2,0.8,0.2,0.2,0.2,0.8","0.2,0.2,0.8,0.8,0.2,0.2,0.2,0.8,0.2","2","",""
"","html-keyboard-response","109","36780","0.0-109.0","3SBEHTYCWOPJIHUCAD4XNOJR1TYYI6","A3AHD1NV5XCOF","3D1UCPY6GGVNRONHL4UEVMXCHLT38H","","null","<img src=""img/land1.png"" style=""width:200px;border:14px solid red;"">","null","","","","","","","","","",""
"","image-keyboard-response","110","36825","0.0-110.0","3SBEHTYCWOPJIHUCAD4XNOJR1TYYI6","A3AHD1NV5XCOF","3D1UCPY6GGVNRONHL4UEVMXCHLT38H","","43","img/land1.png","75","44","2","0","1","2","0.8,0.2,0.2,0.2,0.8,0.2,0.2,0.2,0.8","0.2,0.2,0.8,0.8,0.2,0.2,0.2,0.8,0.2","2","",""
"","html-keyboard-response","111","37126","0.0-111.0","3SBEHTYCWOPJIHUCAD4XNOJR1TYYI6","A3AHD1NV5XCOF","3D1UCPY6GGVNRONHL4UEVMXCHLT38H","","null","<img src=""img/land1.png"" style=""width:200px;border:14px solid red;"">","null","","","","","","","","","",""
"","image-keyboard-response","112","37143","0.0-112.0","3SBEHTYCWOPJIHUCAD4XNOJR1TYYI6","A3AHD1NV5XCOF","3D1UCPY6GGVNRONHL4UEVMXCHLT38H","","14","img/land1.png","76","16","3","0","1","2","0.8,0.2,0.2,0.2,0.8,0.2,0.2,0.2,0.8","0.2,0.2,0.8,0.8,0.2,0.2,0.2,0.8,0.2","2","",""
"","html-keyboard-response","113","37455","0.0-113.0","3SBEHTYCWOPJIHUCAD4XNOJR1TYYI6","A3AHD1NV5XCOF","3D1UCPY6GGVNRONHL4UEVMXCHLT38H","","null","<img src=""img/land1.png"" style=""width:200px;border:14px solid red;"">","null","","","","","","","","","",""
"","image-keyboard-response","114","37484","0.0-114.0","3SBEHTYCWOPJIHUCAD4XNOJR1TYYI6","A3AHD1NV5XCOF","3D1UCPY6GGVNRONHL4UEVMXCHLT38H","","29","img/land1.png","75","29","2","0","1","2","0.8,0.2,0.2,0.2,0.8,0.2,0.2,0.2,0.8","0.2,0.2,0.8,0.8,0.2,0.2,0.2,0.8,0.2","2","",""
"","html-keyboard-response","115","37787","0.0-115.0","3SBEHTYCWOPJIHUCAD4XNOJR1TYYI6","A3AHD1NV5XCOF","3D1UCPY6GGVNRONHL4UEVMXCHLT38H","","null","<img src=""img/land1.png"" style=""width:200px;border:14px solid red;"">","null","","","","","","","","","",""
"","image-keyboard-response","116","37804","0.0-116.0","3SBEHTYCWOPJIHUCAD4XNOJR1TYYI6","A3AHD1NV5XCOF","3D1UCPY6GGVNRONHL4UEVMXCHLT38H","","14","img/land5.png","75","17","2","0","3","2","0.8,0.2,0.2,0.2,0.8,0.2,0.2,0.2,0.8","0.2,0.2,0.8,0.8,0.2,0.2,0.2,0.8,0.2","2","",""
"","html-keyboard-response","117","38104","0.0-117.0","3SBEHTYCWOPJIHUCAD4XNOJR1TYYI6","A3AHD1NV5XCOF","3D1UCPY6GGVNRONHL4UEVMXCHLT38H","","null","<img src=""img/land5.png"" style=""width:200px;border:14px solid red;"">","null","","","","","","","","","",""
"","image-keyboard-response","118","38125","0.0-118.0","3SBEHTYCWOPJIHUCAD4XNOJR1TYYI6","A3AHD1NV5XCOF","3D1UCPY6GGVNRONHL4UEVMXCHLT38H","","18","img/land2.png","76","20","3","1","2","2","0.8,0.2,0.2,0.2,0.8,0.2,0.2,0.2,0.8","0.2,0.2,0.8,0.8,0.2,0.2,0.2,0.8,0.2","2","",""
"","html-keyboard-response","119","38427","0.0-119.0","3SBEHTYCWOPJIHUCAD4XNOJR1TYYI6","A3AHD1NV5XCOF","3D1UCPY6GGVNRONHL4UEVMXCHLT38H","","null","<img src=""img/land2.png"" style=""width:200px; border:14px solid green;"">","null","","","","","","","","","",""
"","image-keyboard-response","120","38513","0.0-120.0","3SBEHTYCWOPJIHUCAD4XNOJR1TYYI6","A3AHD1NV5XCOF","3D1UCPY6GGVNRONHL4UEVMXCHLT38H","","85","img/land2.png","76","86","3","0","2","2","0.8,0.2,0.2,0.2,0.8,0.2,0.2,0.2,0.8","0.2,0.2,0.8,0.8,0.2,0.2,0.2,0.8,0.2","2","",""
"","html-keyboard-response","121","38815","0.0-121.0","3SBEHTYCWOPJIHUCAD4XNOJR1TYYI6","A3AHD1NV5XCOF","3D1UCPY6GGVNRONHL4UEVMXCHLT38H","","null","<img src=""img/land2.png"" style=""width:200px;border:14px solid red;"">","null","","","","","","","","","",""
"","image-keyboard-response","122","38883","0.0-122.0","3SBEHTYCWOPJIHUCAD4XNOJR1TYYI6","A3AHD1NV5XCOF","3D1UCPY6GGVNRONHL4UEVMXCHLT38H","","67","img/land1.png","74","67","1","0","1","2","0.8,0.2,0.2,0.2,0.8,0.2,0.2,0.2,0.8","0.2,0.2,0.8,0.8,0.2,0.2,0.2,0.8,0.2","2","",""
"","html-keyboard-response","123","39185","0.0-123.0","3SBEHTYCWOPJIHUCAD4XNOJR1TYYI6","A3AHD1NV5XCOF","3D1UCPY6GGVNRONHL4UEVMXCHLT38H","","null","<img src=""img/land1.png"" style=""width:200px;border:14px solid red;"">","null","","","","","","","","","",""
"","image-keyboard-response","124","39409","0.0-124.0","3SBEHTYCWOPJIHUCAD4XNOJR1TYYI6","A3AHD1NV5XCOF","3D1UCPY6GGVNRONHL4UEVMXCHLT38H","","221","img/land1.png","75","223","2","0","1","2","0.8,0.2,0.2,0.2,0.8,0.2,0.2,0.2,0.8","0.2,0.2,0.8,0.8,0.2,0.2,0.2,0.8,0.2","2","",""
"","html-keyboard-response","125","39711","0.0-125.0","3SBEHTYCWOPJIHUCAD4XNOJR1TYYI6","A3AHD1NV5XCOF","3D1UCPY6GGVNRONHL4UEVMXCHLT38H","","null","<img src=""img/land1.png"" style=""width:200px;border:14px solid red;"">","null","","","","","","","","","",""
"","image-keyboard-response","126","39743","0.0-126.0","3SBEHTYCWOPJIHUCAD4XNOJR1TYYI6","A3AHD1NV5XCOF","3D1UCPY6GGVNRONHL4UEVMXCHLT38H","","31","img/land1.png","75","32","2","0","1","2","0.8,0.2,0.2,0.2,0.8,0.2,0.2,0.2,0.8","0.2,0.2,0.8,0.8,0.2,0.2,0.2,0.8,0.2","2","",""
"","html-keyboard-response","127","40045","0.0-127.0","3SBEHTYCWOPJIHUCAD4XNOJR1TYYI6","A3AHD1NV5XCOF","3D1UCPY6GGVNRONHL4UEVMXCHLT38H","","null","<img src=""img/land1.png"" style=""width:200px;border:14px solid red;"">","null","","","","","","","","","",""
"","image-keyboard-response","128","40134","0.0-128.0","3SBEHTYCWOPJIHUCAD4XNOJR1TYYI6","A3AHD1NV5XCOF","3D1UCPY6GGVNRONHL4UEVMXCHLT38H","","86","img/land1.png","75","88","2","0","1","2","0.8,0.2,0.2,0.2,0.8,0.2,0.2,0.2,0.8","0.2,0.2,0.8,0.8,0.2,0.2,0.2,0.8,0.2","2","",""
"","html-keyboard-response","129","40437","0.0-129.0","3SBEHTYCWOPJIHUCAD4XNOJR1TYYI6","A3AHD1NV5XCOF","3D1UCPY6GGVNRONHL4UEVMXCHLT38H","","null","<img src=""img/land1.png"" style=""width:200px;border:14px solid red;"">","null","","","","","","","","","",""
"","image-keyboard-response","130","40474","0.0-130.0","3SBEHTYCWOPJIHUCAD4XNOJR1TYYI6","A3AHD1NV5XCOF","3D1UCPY6GGVNRONHL4UEVMXCHLT38H","","35","img/land2.png","76","35","3","1","2","2","0.8,0.2,0.2,0.2,0.8,0.2,0.2,0.2,0.8","0.2,0.2,0.8,0.8,0.2,0.2,0.2,0.8,0.2","2","",""
"","html-keyboard-response","131","40777","0.0-131.0","3SBEHTYCWOPJIHUCAD4XNOJR1TYYI6","A3AHD1NV5XCOF","3D1UCPY6GGVNRONHL4UEVMXCHLT38H","","null","<img src=""img/land2.png"" style=""width:200px; border:14px solid green;"">","null","","","","","","","","","",""
"","image-keyboard-response","132","40815","0.0-132.0","3SBEHTYCWOPJIHUCAD4XNOJR1TYYI6","A3AHD1NV5XCOF","3D1UCPY6GGVNRONHL4UEVMXCHLT38H","","35","img/land1.png","75","36","2","1","1","2","0.8,0.2,0.2,0.2,0.8,0.2,0.2,0.2,0.8","0.2,0.2,0.8,0.8,0.2,0.2,0.2,0.8,0.2","2","",""
"","html-keyboard-response","133","41228","0.0-133.0","3SBEHTYCWOPJIHUCAD4XNOJR1TYYI6","A3AHD1NV5XCOF","3D1UCPY6GGVNRONHL4UEVMXCHLT38H","","null","<img src=""img/land1.png"" style=""width:200px; border:14px solid green;"">","null","","","","","","","","","",""
"","image-keyboard-response","134","41244","0.0-134.0","3SBEHTYCWOPJIHUCAD4XNOJR1TYYI6","A3AHD1NV5XCOF","3D1UCPY6GGVNRONHL4UEVMXCHLT38H","","13","img/land1.png","74","15","1","0","1","2","0.8,0.2,0.2,0.2,0.8,0.2,0.2,0.2,0.8","0.2,0.2,0.8,0.8,0.2,0.2,0.2,0.8,0.2","2","",""
"","html-keyboard-response","135","41545","0.0-135.0","3SBEHTYCWOPJIHUCAD4XNOJR1TYYI6","A3AHD1NV5XCOF","3D1UCPY6GGVNRONHL4UEVMXCHLT38H","","null","<img src=""img/land1.png"" style=""width:200px;border:14px solid red;"">","null","","","","","","","","","",""
"","image-keyboard-response","136","41565","0.0-136.0","3SBEHTYCWOPJIHUCAD4XNOJR1TYYI6","A3AHD1NV5XCOF","3D1UCPY6GGVNRONHL4UEVMXCHLT38H","","17","img/land2.png","74","19","1","1","2","2","0.8,0.2,0.2,0.2,0.8,0.2,0.2,0.2,0.8","0.2,0.2,0.8,0.8,0.2,0.2,0.2,0.8,0.2","2","",""
"","html-keyboard-response","137","41867","0.0-137.0","3SBEHTYCWOPJIHUCAD4XNOJR1TYYI6","A3AHD1NV5XCOF","3D1UCPY6GGVNRONHL4UEVMXCHLT38H","","null","<img src=""img/land2.png"" style=""width:200px; border:14px solid green;"">","null","","","","","","","","","",""
"","image-keyboard-response","138","42123","0.0-138.0","3SBEHTYCWOPJIHUCAD4XNOJR1TYYI6","A3AHD1NV5XCOF","3D1UCPY6GGVNRONHL4UEVMXCHLT38H","","252","img/land1.png","76","255","3","1","1","2","0.8,0.2,0.2,0.2,0.8,0.2,0.2,0.2,0.8","0.2,0.2,0.8,0.8,0.2,0.2,0.2,0.8,0.2","2","",""
"","html-keyboard-response","139","42427","0.0-139.0","3SBEHTYCWOPJIHUCAD4XNOJR1TYYI6","A3AHD1NV5XCOF","3D1UCPY6GGVNRONHL4UEVMXCHLT38H","","null","<img src=""img/land1.png"" style=""width:200px; border:14px solid green;"">","null","","","","","","","","","",""
"","image-keyboard-response","140","42453","0.0-140.0","3SBEHTYCWOPJIHUCAD4XNOJR1TYYI6","A3AHD1NV5XCOF","3D1UCPY6GGVNRONHL4UEVMXCHLT38H","","25","img/land1.png","75","26","2","0","1","2","0.8,0.2,0.2,0.2,0.8,0.2,0.2,0.2,0.8","0.2,0.2,0.8,0.8,0.2,0.2,0.2,0.8,0.2","2","",""
"","html-keyboard-response","141","42755","0.0-141.0","3SBEHTYCWOPJIHUCAD4XNOJR1TYYI6","A3AHD1NV5XCOF","3D1UCPY6GGVNRONHL4UEVMXCHLT38H","","null","<img src=""img/land1.png"" style=""width:200px;border:14px solid red;"">","null","","","","","","","","","",""
"","image-keyboard-response","142","42982","0.0-142.0","3SBEHTYCWOPJIHUCAD4XNOJR1TYYI6","A3AHD1NV5XCOF","3D1UCPY6GGVNRONHL4UEVMXCHLT38H","","226","img/land1.png","76","226","3","1","1","2","0.8,0.2,0.2,0.2,0.8,0.2,0.2,0.2,0.8","0.2,0.2,0.8,0.8,0.2,0.2,0.2,0.8,0.2","2","",""
"","html-keyboard-response","143","43287","0.0-143.0","3SBEHTYCWOPJIHUCAD4XNOJR1TYYI6","A3AHD1NV5XCOF","3D1UCPY6GGVNRONHL4UEVMXCHLT38H","","null","<img src=""img/land1.png"" style=""width:200px; border:14px solid green;"">","null","","","","","","","","","",""
"","image-keyboard-response","144","43336","0.0-144.0","3SBEHTYCWOPJIHUCAD4XNOJR1TYYI6","A3AHD1NV5XCOF","3D1UCPY6GGVNRONHL4UEVMXCHLT38H","","46","img/land1.png","76","48","3","1","1","2","0.8,0.2,0.2,0.2,0.8,0.2,0.2,0.2,0.8","0.2,0.2,0.8,0.8,0.2,0.2,0.2,0.8,0.2","2","",""
"","html-keyboard-response","145","43637","0.0-145.0","3SBEHTYCWOPJIHUCAD4XNOJR1TYYI6","A3AHD1NV5XCOF","3D1UCPY6GGVNRONHL4UEVMXCHLT38H","","null","<img src=""img/land1.png"" style=""width:200px; border:14px solid green;"">","null","","","","","","","","","",""
"","image-keyboard-response","146","43653","0.0-146.0","3SBEHTYCWOPJIHUCAD4XNOJR1TYYI6","A3AHD1NV5XCOF","3D1UCPY6GGVNRONHL4UEVMXCHLT38H","","15","img/land1.png","75","16","2","1","1","2","0.8,0.2,0.2,0.2,0.8,0.2,0.2,0.2,0.8","0.2,0.2,0.8,0.8,0.2,0.2,0.2,0.8,0.2","2","",""
"","html-keyboard-response","147","43954","0.0-147.0","3SBEHTYCWOPJIHUCAD4XNOJR1TYYI6","A3AHD1NV5XCOF","3D1UCPY6GGVNRONHL4UEVMXCHLT38H","","null","<img src=""img/land1.png"" style=""width:200px; border:14px solid green;"">","null","","","","","","","","","",""
"","image-keyboard-response","148","44018","0.0-148.0","3SBEHTYCWOPJIHUCAD4XNOJR1TYYI6","A3AHD1NV5XCOF","3D1UCPY6GGVNRONHL4UEVMXCHLT38H","","63","img/land1.png","76","64","3","1","1","2","0.8,0.2,0.2,0.2,0.8,0.2,0.2,0.2,0.8","0.2,0.2,0.8,0.8,0.2,0.2,0.2,0.8,0.2","2","",""
"","html-keyboard-response","149","44320","0.0-149.0","3SBEHTYCWOPJIHUCAD4XNOJR1TYYI6","A3AHD1NV5XCOF","3D1UCPY6GGVNRONHL4UEVMXCHLT38H","","null","<img src=""img/land1.png"" style=""width:200px; border:14px solid green;"">","null","","","","","","","","","",""
"","image-keyboard-response","150","44469","0.0-150.0","3SBEHTYCWOPJIHUCAD4XNOJR1TYYI6","A3AHD1NV5XCOF","3D1UCPY6GGVNRONHL4UEVMXCHLT38H","","148","img/land1.png","75","149","2","1","1","2","0.8,0.2,0.2,0.2,0.8,0.2,0.2,0.2,0.8","0.2,0.2,0.8,0.8,0.2,0.2,0.2,0.8,0.2","2","",""
"","html-keyboard-response","151","44771","0.0-151.0","3SBEHTYCWOPJIHUCAD4XNOJR1TYYI6","A3AHD1NV5XCOF","3D1UCPY6GGVNRONHL4UEVMXCHLT38H","","null","<img src=""img/land1.png"" style=""width:200px; border:14px solid green;"">","null","","","","","","","","","",""
"","image-keyboard-response","152","44788","0.0-152.0","3SBEHTYCWOPJIHUCAD4XNOJR1TYYI6","A3AHD1NV5XCOF","3D1UCPY6GGVNRONHL4UEVMXCHLT38H","","15","img/land5.png","75","17","2","1","3","2","0.8,0.2,0.2,0.2,0.8,0.2,0.2,0.2,0.8","0.2,0.2,0.8,0.8,0.2,0.2,0.2,0.8,0.2","2","",""
"","html-keyboard-response","153","45089","0.0-153.0","3SBEHTYCWOPJIHUCAD4XNOJR1TYYI6","A3AHD1NV5XCOF","3D1UCPY6GGVNRONHL4UEVMXCHLT38H","","null","<img src=""img/land5.png"" style=""width:200px; border:14px solid green;"">","null","","","","","","","","","",""
"","image-keyboard-response","154","45141","0.0-154.0","3SBEHTYCWOPJIHUCAD4XNOJR1TYYI6","A3AHD1NV5XCOF","3D1UCPY6GGVNRONHL4UEVMXCHLT38H","","51","img/land1.png","76","52","3","1","1","2","0.8,0.2,0.2,0.2,0.8,0.2,0.2,0.2,0.8","0.2,0.2,0.8,0.8,0.2,0.2,0.2,0.8,0.2","2","",""
"","html-keyboard-response","155","45443","0.0-155.0","3SBEHTYCWOPJIHUCAD4XNOJR1TYYI6","A3AHD1NV5XCOF","3D1UCPY6GGVNRONHL4UEVMXCHLT38H","","null","<img src=""img/land1.png"" style=""width:200px; border:14px solid green;"">","null","","","","","","","","","",""
"","image-keyboard-response","156","45773","0.0-156.0","3SBEHTYCWOPJIHUCAD4XNOJR1TYYI6","A3AHD1NV5XCOF","3D1UCPY6GGVNRONHL4UEVMXCHLT38H","","329","img/land2.png","75","330","2","0","2","2","0.8,0.2,0.2,0.2,0.8,0.2,0.2,0.2,0.8","0.2,0.2,0.8,0.8,0.2,0.2,0.2,0.8,0.2","2","",""
"","html-keyboard-response","157","46074","0.0-157.0","3SBEHTYCWOPJIHUCAD4XNOJR1TYYI6","A3AHD1NV5XCOF","3D1UCPY6GGVNRONHL4UEVMXCHLT38H","","null","<img src=""img/land2.png"" style=""width:200px;border:14px solid red;"">","null","","","","","","","","","",""
"","image-keyboard-response","158","46114","0.0-158.0","3SBEHTYCWOPJIHUCAD4XNOJR1TYYI6","A3AHD1NV5XCOF","3D1UCPY6GGVNRONHL4UEVMXCHLT38H","","37","img/land1.png","74","39","1","0","1","2","0.8,0.2,0.2,0.2,0.8,0.2,0.2,0.2,0.8","0.2,0.2,0.8,0.8,0.2,0.2,0.2,0.8,0.2","2","",""
"","html-keyboard-response","159","46420","0.0-159.0","3SBEHTYCWOPJIHUCAD4XNOJR1TYYI6","A3AHD1NV5XCOF","3D1UCPY6GGVNRONHL4UEVMXCHLT38H","","null","<img src=""img/land1.png"" style=""width:200px;border:14px solid red;"">","null","","","","","","","","","",""
"","image-keyboard-response","160","46424","0.0-160.0","3SBEHTYCWOPJIHUCAD4XNOJR1TYYI6","A3AHD1NV5XCOF","3D1UCPY6GGVNRONHL4UEVMXCHLT38H","","3","img/land1.png","76","3","3","1","1","2","0.8,0.2,0.2,0.2,0.8,0.2,0.2,0.2,0.8","0.2,0.2,0.8,0.8,0.2,0.2,0.2,0.8,0.2","2","",""
"","html-keyboard-response","161","46725","0.0-161.0","3SBEHTYCWOPJIHUCAD4XNOJR1TYYI6","A3AHD1NV5XCOF","3D1UCPY6GGVNRONHL4UEVMXCHLT38H","","null","<img src=""img/land1.png"" style=""width:200px; border:14px solid green;"">","null","","","","","","","","","",""
"","image-keyboard-response","162","46858","0.0-162.0","3SBEHTYCWOPJIHUCAD4XNOJR1TYYI6","A3AHD1NV5XCOF","3D1UCPY6GGVNRONHL4UEVMXCHLT38H","","132","img/land1.png","75","132","2","0","1","2","0.8,0.2,0.2,0.2,0.8,0.2,0.2,0.2,0.8","0.2,0.2,0.8,0.8,0.2,0.2,0.2,0.8,0.2","2","",""
"","html-keyboard-response","163","47162","0.0-163.0","3SBEHTYCWOPJIHUCAD4XNOJR1TYYI6","A3AHD1NV5XCOF","3D1UCPY6GGVNRONHL4UEVMXCHLT38H","","null","<img src=""img/land1.png"" style=""width:200px;border:14px solid red;"">","null","","","","","","","","","",""
"","image-keyboard-response","164","47271","0.0-164.0","3SBEHTYCWOPJIHUCAD4XNOJR1TYYI6","A3AHD1NV5XCOF","3D1UCPY6GGVNRONHL4UEVMXCHLT38H","","102","img/land5.png","75","106","2","1","3","2","0.8,0.2,0.2,0.2,0.8,0.2,0.2,0.2,0.8","0.2,0.2,0.8,0.8,0.2,0.2,0.2,0.8,0.2","2","",""
"","html-keyboard-response","165","47572","0.0-165.0","3SBEHTYCWOPJIHUCAD4XNOJR1TYYI6","A3AHD1NV5XCOF","3D1UCPY6GGVNRONHL4UEVMXCHLT38H","","null","<img src=""img/land5.png"" style=""width:200px; border:14px solid green;"">","null","","","","","","","","","",""
"","image-keyboard-response","166","47698","0.0-166.0","3SBEHTYCWOPJIHUCAD4XNOJR1TYYI6","A3AHD1NV5XCOF","3D1UCPY6GGVNRONHL4UEVMXCHLT38H","","125","img/land2.png","76","127","3","0","2","2","0.8,0.2,0.2,0.2,0.8,0.2,0.2,0.2,0.8","0.2,0.2,0.8,0.8,0.2,0.2,0.2,0.8,0.2","2","",""
"","html-keyboard-response","167","48000","0.0-167.0","3SBEHTYCWOPJIHUCAD4XNOJR1TYYI6","A3AHD1NV5XCOF","3D1UCPY6GGVNRONHL4UEVMXCHLT38H","","null","<img src=""img/land2.png"" style=""width:200px;border:14px solid red;"">","null","","","","","","","","","",""
"","image-keyboard-response","168","48314","0.0-168.0","3SBEHTYCWOPJIHUCAD4XNOJR1TYYI6","A3AHD1NV5XCOF","3D1UCPY6GGVNRONHL4UEVMXCHLT38H","","313","img/land2.png","75","314","2","0","2","2","0.8,0.2,0.2,0.2,0.8,0.2,0.2,0.2,0.8","0.2,0.2,0.8,0.8,0.2,0.2,0.2,0.8,0.2","2","",""
"","html-keyboard-response","169","48616","0.0-169.0","3SBEHTYCWOPJIHUCAD4XNOJR1TYYI6","A3AHD1NV5XCOF","3D1UCPY6GGVNRONHL4UEVMXCHLT38H","","null","<img src=""img/land2.png"" style=""width:200px;border:14px solid red;"">","null","","","","","","","","","",""
"","image-keyboard-response","170","48713","0.0-170.0","3SBEHTYCWOPJIHUCAD4XNOJR1TYYI6","A3AHD1NV5XCOF","3D1UCPY6GGVNRONHL4UEVMXCHLT38H","","94","img/land1.png","75","95","2","0","1","2","0.8,0.2,0.2,0.2,0.8,0.2,0.2,0.2,0.8","0.2,0.2,0.8,0.8,0.2,0.2,0.2,0.8,0.2","2","",""
"","html-keyboard-response","171","49016","0.0-171.0","3SBEHTYCWOPJIHUCAD4XNOJR1TYYI6","A3AHD1NV5XCOF","3D1UCPY6GGVNRONHL4UEVMXCHLT38H","","null","<img src=""img/land1.png"" style=""width:200px;border:14px solid red;"">","null","","","","","","","","","",""
"","image-keyboard-response","172","49106","0.0-172.0","3SBEHTYCWOPJIHUCAD4XNOJR1TYYI6","A3AHD1NV5XCOF","3D1UCPY6GGVNRONHL4UEVMXCHLT38H","","88","img/land2.png","76","89","3","0","2","2","0.8,0.2,0.2,0.2,0.8,0.2,0.2,0.2,0.8","0.2,0.2,0.8,0.8,0.2,0.2,0.2,0.8,0.2","2","",""
"","html-keyboard-response","173","49469","0.0-173.0","3SBEHTYCWOPJIHUCAD4XNOJR1TYYI6","A3AHD1NV5XCOF","3D1UCPY6GGVNRONHL4UEVMXCHLT38H","","null","<img src=""img/land2.png"" style=""width:200px;border:14px solid red;"">","null","","","","","","","","","",""
"","image-keyboard-response","174","49484","0.0-174.0","3SBEHTYCWOPJIHUCAD4XNOJR1TYYI6","A3AHD1NV5XCOF","3D1UCPY6GGVNRONHL4UEVMXCHLT38H","","13","img/land2.png","76","14","3","0","2","2","0.8,0.2,0.2,0.2,0.8,0.2,0.2,0.2,0.8","0.2,0.2,0.8,0.8,0.2,0.2,0.2,0.8,0.2","2","",""
"","html-keyboard-response","175","49785","0.0-175.0","3SBEHTYCWOPJIHUCAD4XNOJR1TYYI6","A3AHD1NV5XCOF","3D1UCPY6GGVNRONHL4UEVMXCHLT38H","","null","<img src=""img/land2.png"" style=""width:200px;border:14px solid red;"">","null","","","","","","","","","",""
"","image-keyboard-response","176","49852","0.0-176.0","3SBEHTYCWOPJIHUCAD4XNOJR1TYYI6","A3AHD1NV5XCOF","3D1UCPY6GGVNRONHL4UEVMXCHLT38H","","66","img/land1.png","76","67","3","0","1","2","0.8,0.2,0.2,0.2,0.8,0.2,0.2,0.2,0.8","0.2,0.2,0.8,0.8,0.2,0.2,0.2,0.8,0.2","2","",""
"","html-keyboard-response","177","50156","0.0-177.0","3SBEHTYCWOPJIHUCAD4XNOJR1TYYI6","A3AHD1NV5XCOF","3D1UCPY6GGVNRONHL4UEVMXCHLT38H","","null","<img src=""img/land1.png"" style=""width:200px;border:14px solid red;"">","null","","","","","","","","","",""
"","image-keyboard-response","178","50194","0.0-178.0","3SBEHTYCWOPJIHUCAD4XNOJR1TYYI6","A3AHD1NV5XCOF","3D1UCPY6GGVNRONHL4UEVMXCHLT38H","","36","img/land1.png","75","37","2","0","1","2","0.8,0.2,0.2,0.2,0.8,0.2,0.2,0.2,0.8","0.2,0.2,0.8,0.8,0.2,0.2,0.2,0.8,0.2","2","",""
"","html-keyboard-response","179","50514","0.0-179.0","3SBEHTYCWOPJIHUCAD4XNOJR1TYYI6","A3AHD1NV5XCOF","3D1UCPY6GGVNRONHL4UEVMXCHLT38H","","null","<img src=""img/land1.png"" style=""width:200px;border:14px solid red;"">","null","","","","","","","","","",""
"","image-keyboard-response","180","50547","0.0-180.0","3SBEHTYCWOPJIHUCAD4XNOJR1TYYI6","A3AHD1NV5XCOF","3D1UCPY6GGVNRONHL4UEVMXCHLT38H","","33","img/land1.png","74","33","1","0","1","2","0.8,0.2,0.2,0.2,0.8,0.2,0.2,0.2,0.8","0.2,0.2,0.8,0.8,0.2,0.2,0.2,0.8,0.2","2","",""
"","html-keyboard-response","181","50858","0.0-181.0","3SBEHTYCWOPJIHUCAD4XNOJR1TYYI6","A3AHD1NV5XCOF","3D1UCPY6GGVNRONHL4UEVMXCHLT38H","","null","<img src=""img/land1.png"" style=""width:200px;border:14px solid red;"">","null","","","","","","","","","",""
"","image-keyboard-response","182","50894","0.0-182.0","3SBEHTYCWOPJIHUCAD4XNOJR1TYYI6","A3AHD1NV5XCOF","3D1UCPY6GGVNRONHL4UEVMXCHLT38H","","33","img/land2.png","76","35","3","0","2","2","0.8,0.2,0.2,0.2,0.8,0.2,0.2,0.2,0.8","0.2,0.2,0.8,0.8,0.2,0.2,0.2,0.8,0.2","2","",""
"","html-keyboard-response","183","51203","0.0-183.0","3SBEHTYCWOPJIHUCAD4XNOJR1TYYI6","A3AHD1NV5XCOF","3D1UCPY6GGVNRONHL4UEVMXCHLT38H","","null","<img src=""img/land2.png"" style=""width:200px;border:14px solid red;"">","null","","","","","","","","","",""
"","image-keyboard-response","184","51237","0.0-184.0","3SBEHTYCWOPJIHUCAD4XNOJR1TYYI6","A3AHD1NV5XCOF","3D1UCPY6GGVNRONHL4UEVMXCHLT38H","","32","img/land1.png","75","34","2","0","1","2","0.8,0.2,0.2,0.2,0.8,0.2,0.2,0.2,0.8","0.2,0.2,0.8,0.8,0.2,0.2,0.2,0.8,0.2","2","",""
"","html-keyboard-response","185","51582","0.0-185.0","3SBEHTYCWOPJIHUCAD4XNOJR1TYYI6","A3AHD1NV5XCOF","3D1UCPY6GGVNRONHL4UEVMXCHLT38H","","null","<img src=""img/land1.png"" style=""width:200px;border:14px solid red;"">","null","","","","","","","","","",""
"","image-keyboard-response","186","51703","0.0-186.0","3SBEHTYCWOPJIHUCAD4XNOJR1TYYI6","A3AHD1NV5XCOF","3D1UCPY6GGVNRONHL4UEVMXCHLT38H","","120","img/land1.png","74","120","1","0","1","2","0.8,0.2,0.2,0.2,0.8,0.2,0.2,0.2,0.8","0.2,0.2,0.8,0.8,0.2,0.2,0.2,0.8,0.2","2","",""
"","html-keyboard-response","187","52005","0.0-187.0","3SBEHTYCWOPJIHUCAD4XNOJR1TYYI6","A3AHD1NV5XCOF","3D1UCPY6GGVNRONHL4UEVMXCHLT38H","","null","<img src=""img/land1.png"" style=""width:200px;border:14px solid red;"">","null","","","","","","","","","",""
"","image-keyboard-response","188","52023","0.0-188.0","3SBEHTYCWOPJIHUCAD4XNOJR1TYYI6","A3AHD1NV5XCOF","3D1UCPY6GGVNRONHL4UEVMXCHLT38H","","17","img/land1.png","74","19","1","0","1","2","0.8,0.2,0.2,0.2,0.8,0.2,0.2,0.2,0.8","0.2,0.2,0.8,0.8,0.2,0.2,0.2,0.8,0.2","2","",""
"","html-keyboard-response","189","52327","0.0-189.0","3SBEHTYCWOPJIHUCAD4XNOJR1TYYI6","A3AHD1NV5XCOF","3D1UCPY6GGVNRONHL4UEVMXCHLT38H","","null","<img src=""img/land1.png"" style=""width:200px;border:14px solid red;"">","null","","","","","","","","","",""
"","image-keyboard-response","190","52343","0.0-190.0","3SBEHTYCWOPJIHUCAD4XNOJR1TYYI6","A3AHD1NV5XCOF","3D1UCPY6GGVNRONHL4UEVMXCHLT38H","","14","img/land1.png","75","16","2","0","1","2","0.8,0.2,0.2,0.2,0.8,0.2,0.2,0.2,0.8","0.2,0.2,0.8,0.8,0.2,0.2,0.2,0.8,0.2","2","",""
"","html-keyboard-response","191","52717","0.0-191.0","3SBEHTYCWOPJIHUCAD4XNOJR1TYYI6","A3AHD1NV5XCOF","3D1UCPY6GGVNRONHL4UEVMXCHLT38H","","null","<img src=""img/land1.png"" style=""width:200px;border:14px solid red;"">","null","","","","","","","","","",""
"","image-keyboard-response","192","52735","0.0-192.0","3SBEHTYCWOPJIHUCAD4XNOJR1TYYI6","A3AHD1NV5XCOF","3D1UCPY6GGVNRONHL4UEVMXCHLT38H","","17","img/land1.png","74","19","1","0","1","2","0.8,0.2,0.2,0.2,0.8,0.2,0.2,0.2,0.8","0.2,0.2,0.8,0.8,0.2,0.2,0.2,0.8,0.2","2","",""
"","html-keyboard-response","193","53039","0.0-193.0","3SBEHTYCWOPJIHUCAD4XNOJR1TYYI6","A3AHD1NV5XCOF","3D1UCPY6GGVNRONHL4UEVMXCHLT38H","","null","<img src=""img/land1.png"" style=""width:200px;border:14px solid red;"">","null","","","","","","","","","",""
"","image-keyboard-response","194","53078","0.0-194.0","3SBEHTYCWOPJIHUCAD4XNOJR1TYYI6","A3AHD1NV5XCOF","3D1UCPY6GGVNRONHL4UEVMXCHLT38H","","35","img/land2.png","74","38","1","1","2","2","0.8,0.2,0.2,0.2,0.8,0.2,0.2,0.2,0.8","0.2,0.2,0.8,0.8,0.2,0.2,0.2,0.8,0.2","2","",""
"","html-keyboard-response","195","53381","0.0-195.0","3SBEHTYCWOPJIHUCAD4XNOJR1TYYI6","A3AHD1NV5XCOF","3D1UCPY6GGVNRONHL4UEVMXCHLT38H","","null","<img src=""img/land2.png"" style=""width:200px; border:14px solid green;"">","null","","","","","","","","","",""
"","image-keyboard-response","196","53464","0.0-196.0","3SBEHTYCWOPJIHUCAD4XNOJR1TYYI6","A3AHD1NV5XCOF","3D1UCPY6GGVNRONHL4UEVMXCHLT38H","","81","img/land2.png","74","83","1","1","2","2","0.8,0.2,0.2,0.2,0.8,0.2,0.2,0.2,0.8","0.2,0.2,0.8,0.8,0.2,0.2,0.2,0.8,0.2","2","",""
"","html-keyboard-response","197","53766","0.0-197.0","3SBEHTYCWOPJIHUCAD4XNOJR1TYYI6","A3AHD1NV5XCOF","3D1UCPY6GGVNRONHL4UEVMXCHLT38H","","null","<img src=""img/land2.png"" style=""width:200px; border:14px solid green;"">","null","","","","","","","","","",""
"","image-keyboard-response","198","53854","0.0-198.0","3SBEHTYCWOPJIHUCAD4XNOJR1TYYI6","A3AHD1NV5XCOF","3D1UCPY6GGVNRONHL4UEVMXCHLT38H","","87","img/land2.png","75","87","2","0","2","2","0.8,0.2,0.2,0.2,0.8,0.2,0.2,0.2,0.8","0.2,0.2,0.8,0.8,0.2,0.2,0.2,0.8,0.2","2","",""
"","html-keyboard-response","199","54156","0.0-199.0","3SBEHTYCWOPJIHUCAD4XNOJR1TYYI6","A3AHD1NV5XCOF","3D1UCPY6GGVNRONHL4UEVMXCHLT38H","","null","<img src=""img/land2.png"" style=""width:200px;border:14px solid red;"">","null","","","","","","","","","",""
"","image-keyboard-response","200","54373","0.0-200.0","3SBEHTYCWOPJIHUCAD4XNOJR1TYYI6","A3AHD1NV5XCOF","3D1UCPY6GGVNRONHL4UEVMXCHLT38H","","216","img/land1.png","76","217","3","1","1","2","0.8,0.2,0.2,0.2,0.8,0.2,0.2,0.2,0.8","0.2,0.2,0.8,0.8,0.2,0.2,0.2,0.8,0.2","2","",""
"","html-keyboard-response","201","54673","0.0-201.0","3SBEHTYCWOPJIHUCAD4XNOJR1TYYI6","A3AHD1NV5XCOF","3D1UCPY6GGVNRONHL4UEVMXCHLT38H","","null","<img src=""img/land1.png"" style=""width:200px; border:14px solid green;"">","null","","","","","","","","","",""
"","image-keyboard-response","202","54693","0.0-202.0","3SBEHTYCWOPJIHUCAD4XNOJR1TYYI6","A3AHD1NV5XCOF","3D1UCPY6GGVNRONHL4UEVMXCHLT38H","","18","img/land1.png","74","19","1","0","1","2","0.8,0.2,0.2,0.2,0.8,0.2,0.2,0.2,0.8","0.2,0.2,0.8,0.8,0.2,0.2,0.2,0.8,0.2","2","",""
"","html-keyboard-response","203","54994","0.0-203.0","3SBEHTYCWOPJIHUCAD4XNOJR1TYYI6","A3AHD1NV5XCOF","3D1UCPY6GGVNRONHL4UEVMXCHLT38H","","null","<img src=""img/land1.png"" style=""width:200px;border:14px solid red;"">","null","","","","","","","","","",""
"","image-keyboard-response","204","55071","0.0-204.0","3SBEHTYCWOPJIHUCAD4XNOJR1TYYI6","A3AHD1NV5XCOF","3D1UCPY6GGVNRONHL4UEVMXCHLT38H","","73","img/land2.png","76","76","3","1","2","2","0.8,0.2,0.2,0.2,0.8,0.2,0.2,0.2,0.8","0.2,0.2,0.8,0.8,0.2,0.2,0.2,0.8,0.2","2","",""
"","html-keyboard-response","205","55372","0.0-205.0","3SBEHTYCWOPJIHUCAD4XNOJR1TYYI6","A3AHD1NV5XCOF","3D1UCPY6GGVNRONHL4UEVMXCHLT38H","","null","<img src=""img/land2.png"" style=""width:200px; border:14px solid green;"">","null","","","","","","","","","",""
"","image-keyboard-response","206","55538","0.0-206.0","3SBEHTYCWOPJIHUCAD4XNOJR1TYYI6","A3AHD1NV5XCOF","3D1UCPY6GGVNRONHL4UEVMXCHLT38H","","161","img/land5.png","75","164","2","1","3","2","0.8,0.2,0.2,0.2,0.8,0.2,0.2,0.2,0.8","0.2,0.2,0.8,0.8,0.2,0.2,0.2,0.8,0.2","2","",""
"","html-keyboard-response","207","55844","0.0-207.0","3SBEHTYCWOPJIHUCAD4XNOJR1TYYI6","A3AHD1NV5XCOF","3D1UCPY6GGVNRONHL4UEVMXCHLT38H","","null","<img src=""img/land5.png"" style=""width:200px; border:14px solid green;"">","null","","","","","","","","","",""
"","image-keyboard-response","208","55908","0.0-208.0","3SBEHTYCWOPJIHUCAD4XNOJR1TYYI6","A3AHD1NV5XCOF","3D1UCPY6GGVNRONHL4UEVMXCHLT38H","","63","img/land1.png","76","64","3","1","1","2","0.8,0.2,0.2,0.2,0.8,0.2,0.2,0.2,0.8","0.2,0.2,0.8,0.8,0.2,0.2,0.2,0.8,0.2","2","",""
"","html-keyboard-response","209","56211","0.0-209.0","3SBEHTYCWOPJIHUCAD4XNOJR1TYYI6","A3AHD1NV5XCOF","3D1UCPY6GGVNRONHL4UEVMXCHLT38H","","null","<img src=""img/land1.png"" style=""width:200px; border:14px solid green;"">","null","","","","","","","","","",""
"","image-keyboard-response","210","56274","0.0-210.0","3SBEHTYCWOPJIHUCAD4XNOJR1TYYI6","A3AHD1NV5XCOF","3D1UCPY6GGVNRONHL4UEVMXCHLT38H","","61","img/land5.png","74","62","1","0","3","2","0.8,0.2,0.2,0.2,0.8,0.2,0.2,0.2,0.8","0.2,0.2,0.8,0.8,0.2,0.2,0.2,0.8,0.2","2","",""
"","html-keyboard-response","211","56577","0.0-211.0","3SBEHTYCWOPJIHUCAD4XNOJR1TYYI6","A3AHD1NV5XCOF","3D1UCPY6GGVNRONHL4UEVMXCHLT38H","","null","<img src=""img/land5.png"" style=""width:200px;border:14px solid red;"">","null","","","","","","","","","",""
"","image-keyboard-response","212","56642","0.0-212.0","3SBEHTYCWOPJIHUCAD4XNOJR1TYYI6","A3AHD1NV5XCOF","3D1UCPY6GGVNRONHL4UEVMXCHLT38H","","63","img/land1.png","74","64","1","0","1","2","0.8,0.2,0.2,0.2,0.8,0.2,0.2,0.2,0.8","0.2,0.2,0.8,0.8,0.2,0.2,0.2,0.8,0.2","2","",""
"","html-keyboard-response","213","56943","0.0-213.0","3SBEHTYCWOPJIHUCAD4XNOJR1TYYI6","A3AHD1NV5XCOF","3D1UCPY6GGVNRONHL4UEVMXCHLT38H","","null","<img src=""img/land1.png"" style=""width:200px;border:14px solid red;"">","null","","","","","","","","","",""
"","image-keyboard-response","214","57235","0.0-214.0","3SBEHTYCWOPJIHUCAD4XNOJR1TYYI6","A3AHD1NV5XCOF","3D1UCPY6GGVNRONHL4UEVMXCHLT38H","","289","img/land5.png","75","291","2","1","3","2","0.8,0.2,0.2,0.2,0.8,0.2,0.2,0.2,0.8","0.2,0.2,0.8,0.8,0.2,0.2,0.2,0.8,0.2","2","",""
"","html-keyboard-response","215","57536","0.0-215.0","3SBEHTYCWOPJIHUCAD4XNOJR1TYYI6","A3AHD1NV5XCOF","3D1UCPY6GGVNRONHL4UEVMXCHLT38H","","null","<img src=""img/land5.png"" style=""width:200px; border:14px solid green;"">","null","","","","","","","","","",""
"","image-keyboard-response","216","57665","0.0-216.0","3SBEHTYCWOPJIHUCAD4XNOJR1TYYI6","A3AHD1NV5XCOF","3D1UCPY6GGVNRONHL4UEVMXCHLT38H","","128","img/land1.png","76","129","3","0","1","2","0.8,0.2,0.2,0.2,0.8,0.2,0.2,0.2,0.8","0.2,0.2,0.8,0.8,0.2,0.2,0.2,0.8,0.2","2","",""
"","html-keyboard-response","217","57968","0.0-217.0","3SBEHTYCWOPJIHUCAD4XNOJR1TYYI6","A3AHD1NV5XCOF","3D1UCPY6GGVNRONHL4UEVMXCHLT38H","","null","<img src=""img/land1.png"" style=""width:200px;border:14px solid red;"">","null","","","","","","","","","",""
"","image-keyboard-response","218","57991","0.0-218.0","3SBEHTYCWOPJIHUCAD4XNOJR1TYYI6","A3AHD1NV5XCOF","3D1UCPY6GGVNRONHL4UEVMXCHLT38H","","21","img/land1.png","76","23","3","1","1","2","0.8,0.2,0.2,0.2,0.8,0.2,0.2,0.2,0.8","0.2,0.2,0.8,0.8,0.2,0.2,0.2,0.8,0.2","2","",""
"","html-keyboard-response","219","58298","0.0-219.0","3SBEHTYCWOPJIHUCAD4XNOJR1TYYI6","A3AHD1NV5XCOF","3D1UCPY6GGVNRONHL4UEVMXCHLT38H","","null","<img src=""img/land1.png"" style=""width:200px; border:14px solid green;"">","null","","","","","","","","","",""
"","image-keyboard-response","220","58461","0.0-220.0","3SBEHTYCWOPJIHUCAD4XNOJR1TYYI6","A3AHD1NV5XCOF","3D1UCPY6GGVNRONHL4UEVMXCHLT38H","","161","img/land1.png","74","162","1","1","1","2","0.8,0.2,0.2,0.2,0.8,0.2,0.2,0.2,0.8","0.2,0.2,0.8,0.8,0.2,0.2,0.2,0.8,0.2","2","",""
"","html-keyboard-response","221","58764","0.0-221.0","3SBEHTYCWOPJIHUCAD4XNOJR1TYYI6","A3AHD1NV5XCOF","3D1UCPY6GGVNRONHL4UEVMXCHLT38H","","null","<img src=""img/land1.png"" style=""width:200px; border:14px solid green;"">","null","","","","","","","","","",""
"","image-keyboard-response","222","58843","0.0-222.0","3SBEHTYCWOPJIHUCAD4XNOJR1TYYI6","A3AHD1NV5XCOF","3D1UCPY6GGVNRONHL4UEVMXCHLT38H","","78","img/land1.png","75","78","2","0","1","2","0.8,0.2,0.2,0.2,0.8,0.2,0.2,0.2,0.8","0.2,0.2,0.8,0.8,0.2,0.2,0.2,0.8,0.2","2","",""
"","html-keyboard-response","223","59144","0.0-223.0","3SBEHTYCWOPJIHUCAD4XNOJR1TYYI6","A3AHD1NV5XCOF","3D1UCPY6GGVNRONHL4UEVMXCHLT38H","","null","<img src=""img/land1.png"" style=""width:200px;border:14px solid red;"">","null","","","","","","","","","",""
"","image-keyboard-response","224","59320","0.0-224.0","3SBEHTYCWOPJIHUCAD4XNOJR1TYYI6","A3AHD1NV5XCOF","3D1UCPY6GGVNRONHL4UEVMXCHLT38H","","174","img/land5.png","76","176","3","1","3","2","0.8,0.2,0.2,0.2,0.8,0.2,0.2,0.2,0.8","0.2,0.2,0.8,0.8,0.2,0.2,0.2,0.8,0.2","2","",""
"","html-keyboard-response","225","59622","0.0-225.0","3SBEHTYCWOPJIHUCAD4XNOJR1TYYI6","A3AHD1NV5XCOF","3D1UCPY6GGVNRONHL4UEVMXCHLT38H","","null","<img src=""img/land5.png"" style=""width:200px; border:14px solid green;"">","null","","","","","","","","","",""
"","image-keyboard-response","226","59653","0.0-226.0","3SBEHTYCWOPJIHUCAD4XNOJR1TYYI6","A3AHD1NV5XCOF","3D1UCPY6GGVNRONHL4UEVMXCHLT38H","","30","img/land1.png","75","31","2","0","1","2","0.8,0.2,0.2,0.2,0.8,0.2,0.2,0.2,0.8","0.2,0.2,0.8,0.8,0.2,0.2,0.2,0.8,0.2","2","",""
"","html-keyboard-response","227","59956","0.0-227.0","3SBEHTYCWOPJIHUCAD4XNOJR1TYYI6","A3AHD1NV5XCOF","3D1UCPY6GGVNRONHL4UEVMXCHLT38H","","null","<img src=""img/land1.png"" style=""width:200px;border:14px solid red;"">","null","","","","","","","","","",""
"","image-keyboard-response","228","60016","0.0-228.0","3SBEHTYCWOPJIHUCAD4XNOJR1TYYI6","A3AHD1NV5XCOF","3D1UCPY6GGVNRONHL4UEVMXCHLT38H","","57","img/land1.png","76","58","3","1","1","2","0.8,0.2,0.2,0.2,0.8,0.2,0.2,0.2,0.8","0.2,0.2,0.8,0.8,0.2,0.2,0.2,0.8,0.2","2","",""
"","html-keyboard-response","229","60370","0.0-229.0","3SBEHTYCWOPJIHUCAD4XNOJR1TYYI6","A3AHD1NV5XCOF","3D1UCPY6GGVNRONHL4UEVMXCHLT38H","","null","<img src=""img/land1.png"" style=""width:200px; border:14px solid green;"">","null","","","","","","","","","",""
"","image-keyboard-response","230","60424","0.0-230.0","3SBEHTYCWOPJIHUCAD4XNOJR1TYYI6","A3AHD1NV5XCOF","3D1UCPY6GGVNRONHL4UEVMXCHLT38H","","52","img/land1.png","76","54","3","1","1","2","0.8,0.2,0.2,0.2,0.8,0.2,0.2,0.2,0.8","0.2,0.2,0.8,0.8,0.2,0.2,0.2,0.8,0.2","2","",""
"","html-keyboard-response","231","60735","0.0-231.0","3SBEHTYCWOPJIHUCAD4XNOJR1TYYI6","A3AHD1NV5XCOF","3D1UCPY6GGVNRONHL4UEVMXCHLT38H","","null","<img src=""img/land1.png"" style=""width:200px; border:14px solid green;"">","null","","","","","","","","","",""
"","image-keyboard-response","232","60803","0.0-232.0","3SBEHTYCWOPJIHUCAD4XNOJR1TYYI6","A3AHD1NV5XCOF","3D1UCPY6GGVNRONHL4UEVMXCHLT38H","","66","img/land5.png","74","67","1","0","3","2","0.8,0.2,0.2,0.2,0.8,0.2,0.2,0.2,0.8","0.2,0.2,0.8,0.8,0.2,0.2,0.2,0.8,0.2","2","",""
"","html-keyboard-response","233","61104","0.0-233.0","3SBEHTYCWOPJIHUCAD4XNOJR1TYYI6","A3AHD1NV5XCOF","3D1UCPY6GGVNRONHL4UEVMXCHLT38H","","null","<img src=""img/land5.png"" style=""width:200px;border:14px solid red;"">","null","","","","","","","","","",""
"","image-keyboard-response","234","61175","0.0-234.0","3SBEHTYCWOPJIHUCAD4XNOJR1TYYI6","A3AHD1NV5XCOF","3D1UCPY6GGVNRONHL4UEVMXCHLT38H","","70","img/land1.png","76","72","3","1","1","2","0.8,0.2,0.2,0.2,0.8,0.2,0.2,0.2,0.8","0.2,0.2,0.8,0.8,0.2,0.2,0.2,0.8,0.2","2","",""
"","html-keyboard-response","235","61478","0.0-235.0","3SBEHTYCWOPJIHUCAD4XNOJR1TYYI6","A3AHD1NV5XCOF","3D1UCPY6GGVNRONHL4UEVMXCHLT38H","","null","<img src=""img/land1.png"" style=""width:200px; border:14px solid green;"">","null","","","","","","","","","",""
"","image-keyboard-response","236","61754","0.0-236.0","3SBEHTYCWOPJIHUCAD4XNOJR1TYYI6","A3AHD1NV5XCOF","3D1UCPY6GGVNRONHL4UEVMXCHLT38H","","275","img/land5.png","74","276","1","1","3","2","0.8,0.2,0.2,0.2,0.8,0.2,0.2,0.2,0.8","0.2,0.2,0.8,0.8,0.2,0.2,0.2,0.8,0.2","2","",""
"","html-keyboard-response","237","62091","0.0-237.0","3SBEHTYCWOPJIHUCAD4XNOJR1TYYI6","A3AHD1NV5XCOF","3D1UCPY6GGVNRONHL4UEVMXCHLT38H","","null","<img src=""img/land5.png"" style=""width:200px; border:14px solid green;"">","null","","","","","","","","","",""
"","image-keyboard-response","238","62175","0.0-238.0","3SBEHTYCWOPJIHUCAD4XNOJR1TYYI6","A3AHD1NV5XCOF","3D1UCPY6GGVNRONHL4UEVMXCHLT38H","","57","img/land1.png","76","57","3","1","1","2","0.8,0.2,0.2,0.2,0.8,0.2,0.2,0.2,0.8","0.2,0.2,0.8,0.8,0.2,0.2,0.2,0.8,0.2","2","",""
"","html-keyboard-response","239","62478","0.0-239.0","3SBEHTYCWOPJIHUCAD4XNOJR1TYYI6","A3AHD1NV5XCOF","3D1UCPY6GGVNRONHL4UEVMXCHLT38H","","null","<img src=""img/land1.png"" style=""width:200px; border:14px solid green;"">","null","","","","","","","","","",""
"","image-keyboard-response","240","62687","0.0-240.0","3SBEHTYCWOPJIHUCAD4XNOJR1TYYI6","A3AHD1NV5XCOF","3D1UCPY6GGVNRONHL4UEVMXCHLT38H","","208","img/land1.png","76","208","3","0","1","2","0.8,0.2,0.2,0.2,0.8,0.2,0.2,0.2,0.8","0.2,0.2,0.8,0.8,0.2,0.2,0.2,0.8,0.2","2","",""
"","html-keyboard-response","241","62989","0.0-241.0","3SBEHTYCWOPJIHUCAD4XNOJR1TYYI6","A3AHD1NV5XCOF","3D1UCPY6GGVNRONHL4UEVMXCHLT38H","","null","<img src=""img/land1.png"" style=""width:200px;border:14px solid red;"">","null","","","","","","","","","",""
"","image-keyboard-response","242","63053","0.0-242.0","3SBEHTYCWOPJIHUCAD4XNOJR1TYYI6","A3AHD1NV5XCOF","3D1UCPY6GGVNRONHL4UEVMXCHLT38H","","62","img/land5.png","76","63","3","0","3","2","0.8,0.2,0.2,0.2,0.8,0.2,0.2,0.2,0.8","0.2,0.2,0.8,0.8,0.2,0.2,0.2,0.8,0.2","2","",""
"","html-keyboard-response","243","63355","0.0-243.0","3SBEHTYCWOPJIHUCAD4XNOJR1TYYI6","A3AHD1NV5XCOF","3D1UCPY6GGVNRONHL4UEVMXCHLT38H","","null","<img src=""img/land5.png"" style=""width:200px;border:14px solid red;"">","null","","","","","","","","","",""
"","image-keyboard-response","244","63457","0.0-244.0","3SBEHTYCWOPJIHUCAD4XNOJR1TYYI6","A3AHD1NV5XCOF","3D1UCPY6GGVNRONHL4UEVMXCHLT38H","","101","img/land2.png","75","101","2","0","2","2","0.8,0.2,0.2,0.2,0.8,0.2,0.2,0.2,0.8","0.2,0.2,0.8,0.8,0.2,0.2,0.2,0.8,0.2","2","",""
"","html-keyboard-response","245","63762","0.0-245.0","3SBEHTYCWOPJIHUCAD4XNOJR1TYYI6","A3AHD1NV5XCOF","3D1UCPY6GGVNRONHL4UEVMXCHLT38H","","null","<img src=""img/land2.png"" style=""width:200px;border:14px solid red;"">","null","","","","","","","","","",""
"","image-keyboard-response","246","63817","0.0-246.0","3SBEHTYCWOPJIHUCAD4XNOJR1TYYI6","A3AHD1NV5XCOF","3D1UCPY6GGVNRONHL4UEVMXCHLT38H","","53","img/land1.png","76","55","3","1","1","2","0.8,0.2,0.2,0.2,0.8,0.2,0.2,0.2,0.8","0.2,0.2,0.8,0.8,0.2,0.2,0.2,0.8,0.2","2","",""
"","html-keyboard-response","247","64143","0.0-247.0","3SBEHTYCWOPJIHUCAD4XNOJR1TYYI6","A3AHD1NV5XCOF","3D1UCPY6GGVNRONHL4UEVMXCHLT38H","","null","<img src=""img/land1.png"" style=""width:200px; border:14px solid green;"">","null","","","","","","","","","",""
"","image-keyboard-response","248","64172","0.0-248.0","3SBEHTYCWOPJIHUCAD4XNOJR1TYYI6","A3AHD1NV5XCOF","3D1UCPY6GGVNRONHL4UEVMXCHLT38H","","28","img/land1.png","76","29","3","1","1","2","0.8,0.2,0.2,0.2,0.8,0.2,0.2,0.2,0.8","0.2,0.2,0.8,0.8,0.2,0.2,0.2,0.8,0.2","2","",""
"","html-keyboard-response","249","64473","0.0-249.0","3SBEHTYCWOPJIHUCAD4XNOJR1TYYI6","A3AHD1NV5XCOF","3D1UCPY6GGVNRONHL4UEVMXCHLT38H","","null","<img src=""img/land1.png"" style=""width:200px; border:14px solid green;"">","null","","","","","","","","","",""
"","image-keyboard-response","250","64516","0.0-250.0","3SBEHTYCWOPJIHUCAD4XNOJR1TYYI6","A3AHD1NV5XCOF","3D1UCPY6GGVNRONHL4UEVMXCHLT38H","","38","img/land1.png","75","42","2","1","1","2","0.8,0.2,0.2,0.2,0.8,0.2,0.2,0.2,0.8","0.2,0.2,0.8,0.8,0.2,0.2,0.2,0.8,0.2","2","",""
"","html-keyboard-response","251","64824","0.0-251.0","3SBEHTYCWOPJIHUCAD4XNOJR1TYYI6","A3AHD1NV5XCOF","3D1UCPY6GGVNRONHL4UEVMXCHLT38H","","null","<img src=""img/land1.png"" style=""width:200px; border:14px solid green;"">","null","","","","","","","","","",""
"","image-keyboard-response","252","64856","0.0-252.0","3SBEHTYCWOPJIHUCAD4XNOJR1TYYI6","A3AHD1NV5XCOF","3D1UCPY6GGVNRONHL4UEVMXCHLT38H","","31","img/land5.png","75","32","2","1","3","2","0.8,0.2,0.2,0.2,0.8,0.2,0.2,0.2,0.8","0.2,0.2,0.8,0.8,0.2,0.2,0.2,0.8,0.2","2","",""
"","html-keyboard-response","253","65170","0.0-253.0","3SBEHTYCWOPJIHUCAD4XNOJR1TYYI6","A3AHD1NV5XCOF","3D1UCPY6GGVNRONHL4UEVMXCHLT38H","","null","<img src=""img/land5.png"" style=""width:200px; border:14px solid green;"">","null","","","","","","","","","",""
"","image-keyboard-response","254","65183","0.0-254.0","3SBEHTYCWOPJIHUCAD4XNOJR1TYYI6","A3AHD1NV5XCOF","3D1UCPY6GGVNRONHL4UEVMXCHLT38H","","11","img/land1.png","74","13","1","1","1","2","0.8,0.2,0.2,0.2,0.8,0.2,0.2,0.2,0.8","0.2,0.2,0.8,0.8,0.2,0.2,0.2,0.8,0.2","2","",""
"","html-keyboard-response","255","65484","0.0-255.0","3SBEHTYCWOPJIHUCAD4XNOJR1TYYI6","A3AHD1NV5XCOF","3D1UCPY6GGVNRONHL4UEVMXCHLT38H","","null","<img src=""img/land1.png"" style=""width:200px; border:14px solid green;"">","null","","","","","","","","","",""
"","image-keyboard-response","256","65601","0.0-256.0","3SBEHTYCWOPJIHUCAD4XNOJR1TYYI6","A3AHD1NV5XCOF","3D1UCPY6GGVNRONHL4UEVMXCHLT38H","","116","img/land5.png","76","118","3","0","3","2","0.8,0.2,0.2,0.2,0.8,0.2,0.2,0.2,0.8","0.2,0.2,0.8,0.8,0.2,0.2,0.2,0.8,0.2","2","",""
"","html-keyboard-response","257","65902","0.0-257.0","3SBEHTYCWOPJIHUCAD4XNOJR1TYYI6","A3AHD1NV5XCOF","3D1UCPY6GGVNRONHL4UEVMXCHLT38H","","null","<img src=""img/land5.png"" style=""width:200px;border:14px solid red;"">","null","","","","","","","","","",""
"","image-keyboard-response","258","65994","0.0-258.0","3SBEHTYCWOPJIHUCAD4XNOJR1TYYI6","A3AHD1NV5XCOF","3D1UCPY6GGVNRONHL4UEVMXCHLT38H","","90","img/land1.png","75","91","2","0","1","2","0.8,0.2,0.2,0.2,0.8,0.2,0.2,0.2,0.8","0.2,0.2,0.8,0.8,0.2,0.2,0.2,0.8,0.2","2","",""
"","html-keyboard-response","259","66297","0.0-259.0","3SBEHTYCWOPJIHUCAD4XNOJR1TYYI6","A3AHD1NV5XCOF","3D1UCPY6GGVNRONHL4UEVMXCHLT38H","","null","<img src=""img/land1.png"" style=""width:200px;border:14px solid red;"">","null","","","","","","","","","",""
"","image-keyboard-response","260","66514","0.0-260.0","3SBEHTYCWOPJIHUCAD4XNOJR1TYYI6","A3AHD1NV5XCOF","3D1UCPY6GGVNRONHL4UEVMXCHLT38H","","216","img/land2.png","75","217","2","1","2","2","0.8,0.2,0.2,0.2,0.8,0.2,0.2,0.2,0.8","0.2,0.2,0.8,0.8,0.2,0.2,0.2,0.8,0.2","2","",""
"","html-keyboard-response","261","66817","0.0-261.0","3SBEHTYCWOPJIHUCAD4XNOJR1TYYI6","A3AHD1NV5XCOF","3D1UCPY6GGVNRONHL4UEVMXCHLT38H","","null","<img src=""img/land2.png"" style=""width:200px; border:14px solid green;"">","null","","","","","","","","","",""
"","image-keyboard-response","262","66926","0.0-262.0","3SBEHTYCWOPJIHUCAD4XNOJR1TYYI6","A3AHD1NV5XCOF","3D1UCPY6GGVNRONHL4UEVMXCHLT38H","","108","img/land1.png","76","109","3","1","1","2","0.8,0.2,0.2,0.2,0.8,0.2,0.2,0.2,0.8","0.2,0.2,0.8,0.8,0.2,0.2,0.2,0.8,0.2","2","",""
"","html-keyboard-response","263","67228","0.0-263.0","3SBEHTYCWOPJIHUCAD4XNOJR1TYYI6","A3AHD1NV5XCOF","3D1UCPY6GGVNRONHL4UEVMXCHLT38H","","null","<img src=""img/land1.png"" style=""width:200px; border:14px solid green;"">","null","","","","","","","","","",""
"","image-keyboard-response","264","67305","0.0-264.0","3SBEHTYCWOPJIHUCAD4XNOJR1TYYI6","A3AHD1NV5XCOF","3D1UCPY6GGVNRONHL4UEVMXCHLT38H","","73","img/land5.png","74","77","1","0","3","2","0.8,0.2,0.2,0.2,0.8,0.2,0.2,0.2,0.8","0.2,0.2,0.8,0.8,0.2,0.2,0.2,0.8,0.2","2","",""
"","html-keyboard-response","265","67608","0.0-265.0","3SBEHTYCWOPJIHUCAD4XNOJR1TYYI6","A3AHD1NV5XCOF","3D1UCPY6GGVNRONHL4UEVMXCHLT38H","","null","<img src=""img/land5.png"" style=""width:200px;border:14px solid red;"">","null","","","","","","","","","",""
"","image-keyboard-response","266","67626","0.0-266.0","3SBEHTYCWOPJIHUCAD4XNOJR1TYYI6","A3AHD1NV5XCOF","3D1UCPY6GGVNRONHL4UEVMXCHLT38H","","16","img/land1.png","74","17","1","1","1","2","0.8,0.2,0.2,0.2,0.8,0.2,0.2,0.2,0.8","0.2,0.2,0.8,0.8,0.2,0.2,0.2,0.8,0.2","2","",""
"","html-keyboard-response","267","68119","0.0-267.0","3SBEHTYCWOPJIHUCAD4XNOJR1TYYI6","A3AHD1NV5XCOF","3D1UCPY6GGVNRONHL4UEVMXCHLT38H","","null","<img src=""img/land1.png"" style=""width:200px; border:14px solid green;"">","null","","","","","","","","","",""
"","image-keyboard-response","268","68143","0.0-268.0","3SBEHTYCWOPJIHUCAD4XNOJR1TYYI6","A3AHD1NV5XCOF","3D1UCPY6GGVNRONHL4UEVMXCHLT38H","","22","img/land1.png","74","23","1","1","1","2","0.8,0.2,0.2,0.2,0.8,0.2,0.2,0.2,0.8","0.2,0.2,0.8,0.8,0.2,0.2,0.2,0.8,0.2","2","",""
"","html-keyboard-response","269","68454","0.0-269.0","3SBEHTYCWOPJIHUCAD4XNOJR1TYYI6","A3AHD1NV5XCOF","3D1UCPY6GGVNRONHL4UEVMXCHLT38H","","null","<img src=""img/land1.png"" style=""width:200px; border:14px solid green;"">","null","","","","","","","","","",""
"","image-keyboard-response","270","68637","0.0-270.0","3SBEHTYCWOPJIHUCAD4XNOJR1TYYI6","A3AHD1NV5XCOF","3D1UCPY6GGVNRONHL4UEVMXCHLT38H","","142","img/land1.png","74","165","1","0","1","2","0.8,0.2,0.2,0.2,0.8,0.2,0.2,0.2,0.8","0.2,0.2,0.8,0.8,0.2,0.2,0.2,0.8,0.2","2","",""
"","html-keyboard-response","271","68939","0.0-271.0","3SBEHTYCWOPJIHUCAD4XNOJR1TYYI6","A3AHD1NV5XCOF","3D1UCPY6GGVNRONHL4UEVMXCHLT38H","","null","<img src=""img/land1.png"" style=""width:200px;border:14px solid red;"">","null","","","","","","","","","",""
"","image-keyboard-response","272","68964","0.0-272.0","3SBEHTYCWOPJIHUCAD4XNOJR1TYYI6","A3AHD1NV5XCOF","3D1UCPY6GGVNRONHL4UEVMXCHLT38H","","23","img/land1.png","76","24","3","1","1","2","0.8,0.2,0.2,0.2,0.8,0.2,0.2,0.2,0.8","0.2,0.2,0.8,0.8,0.2,0.2,0.2,0.8,0.2","2","",""
"","html-keyboard-response","273","69266","0.0-273.0","3SBEHTYCWOPJIHUCAD4XNOJR1TYYI6","A3AHD1NV5XCOF","3D1UCPY6GGVNRONHL4UEVMXCHLT38H","","null","<img src=""img/land1.png"" style=""width:200px; border:14px solid green;"">","null","","","","","","","","","",""
"","image-keyboard-response","274","69359","0.0-274.0","3SBEHTYCWOPJIHUCAD4XNOJR1TYYI6","A3AHD1NV5XCOF","3D1UCPY6GGVNRONHL4UEVMXCHLT38H","","92","img/land2.png","75","93","2","0","2","2","0.8,0.2,0.2,0.2,0.8,0.2,0.2,0.2,0.8","0.2,0.2,0.8,0.8,0.2,0.2,0.2,0.8,0.2","2","",""
"","html-keyboard-response","275","69662","0.0-275.0","3SBEHTYCWOPJIHUCAD4XNOJR1TYYI6","A3AHD1NV5XCOF","3D1UCPY6GGVNRONHL4UEVMXCHLT38H","","null","<img src=""img/land2.png"" style=""width:200px;border:14px solid red;"">","null","","","","","","","","","",""
"","image-keyboard-response","276","69753","0.0-276.0","3SBEHTYCWOPJIHUCAD4XNOJR1TYYI6","A3AHD1NV5XCOF","3D1UCPY6GGVNRONHL4UEVMXCHLT38H","","89","img/land2.png","76","90","3","0","2","2","0.8,0.2,0.2,0.2,0.8,0.2,0.2,0.2,0.8","0.2,0.2,0.8,0.8,0.2,0.2,0.2,0.8,0.2","2","",""
"","html-keyboard-response","277","70135","0.0-277.0","3SBEHTYCWOPJIHUCAD4XNOJR1TYYI6","A3AHD1NV5XCOF","3D1UCPY6GGVNRONHL4UEVMXCHLT38H","","null","<img src=""img/land2.png"" style=""width:200px;border:14px solid red;"">","null","","","","","","","","","",""
"","image-keyboard-response","278","70361","0.0-278.0","3SBEHTYCWOPJIHUCAD4XNOJR1TYYI6","A3AHD1NV5XCOF","3D1UCPY6GGVNRONHL4UEVMXCHLT38H","","209","img/land1.png","75","210","2","0","1","2","0.8,0.2,0.2,0.2,0.8,0.2,0.2,0.2,0.8","0.2,0.2,0.8,0.8,0.2,0.2,0.2,0.8,0.2","2","",""
"","html-keyboard-response","279","70668","0.0-279.0","3SBEHTYCWOPJIHUCAD4XNOJR1TYYI6","A3AHD1NV5XCOF","3D1UCPY6GGVNRONHL4UEVMXCHLT38H","","null","<img src=""img/land1.png"" style=""width:200px;border:14px solid red;"">","null","","","","","","","","","",""
"","image-keyboard-response","280","70726","0.0-280.0","3SBEHTYCWOPJIHUCAD4XNOJR1TYYI6","A3AHD1NV5XCOF","3D1UCPY6GGVNRONHL4UEVMXCHLT38H","","55","img/land2.png","76","58","3","1","2","2","0.8,0.2,0.2,0.2,0.8,0.2,0.2,0.2,0.8","0.2,0.2,0.8,0.8,0.2,0.2,0.2,0.8,0.2","2","",""
"","html-keyboard-response","281","71029","0.0-281.0","3SBEHTYCWOPJIHUCAD4XNOJR1TYYI6","A3AHD1NV5XCOF","3D1UCPY6GGVNRONHL4UEVMXCHLT38H","","null","<img src=""img/land2.png"" style=""width:200px; border:14px solid green;"">","null","","","","","","","","","",""
"","image-keyboard-response","282","71441","0.0-282.0","3SBEHTYCWOPJIHUCAD4XNOJR1TYYI6","A3AHD1NV5XCOF","3D1UCPY6GGVNRONHL4UEVMXCHLT38H","","410","img/land1.png","76","411","3","1","1","2","0.8,0.2,0.2,0.2,0.8,0.2,0.2,0.2,0.8","0.2,0.2,0.8,0.8,0.2,0.2,0.2,0.8,0.2","2","",""
"","html-keyboard-response","283","71747","0.0-283.0","3SBEHTYCWOPJIHUCAD4XNOJR1TYYI6","A3AHD1NV5XCOF","3D1UCPY6GGVNRONHL4UEVMXCHLT38H","","null","<img src=""img/land1.png"" style=""width:200px; border:14px solid green;"">","null","","","","","","","","","",""
"","image-keyboard-response","284","71875","0.0-284.0","3SBEHTYCWOPJIHUCAD4XNOJR1TYYI6","A3AHD1NV5XCOF","3D1UCPY6GGVNRONHL4UEVMXCHLT38H","","122","img/land2.png","76","126","3","0","2","2","0.8,0.2,0.2,0.2,0.8,0.2,0.2,0.2,0.8","0.2,0.2,0.8,0.8,0.2,0.2,0.2,0.8,0.2","2","",""
"","html-keyboard-response","285","72180","0.0-285.0","3SBEHTYCWOPJIHUCAD4XNOJR1TYYI6","A3AHD1NV5XCOF","3D1UCPY6GGVNRONHL4UEVMXCHLT38H","","null","<img src=""img/land2.png"" style=""width:200px;border:14px solid red;"">","null","","","","","","","","","",""
"","image-keyboard-response","286","72230","0.0-286.0","3SBEHTYCWOPJIHUCAD4XNOJR1TYYI6","A3AHD1NV5XCOF","3D1UCPY6GGVNRONHL4UEVMXCHLT38H","","42","img/land5.png","75","45","2","1","3","2","0.8,0.2,0.2,0.2,0.8,0.2,0.2,0.2,0.8","0.2,0.2,0.8,0.8,0.2,0.2,0.2,0.8,0.2","2","",""
"","html-keyboard-response","287","72569","0.0-287.0","3SBEHTYCWOPJIHUCAD4XNOJR1TYYI6","A3AHD1NV5XCOF","3D1UCPY6GGVNRONHL4UEVMXCHLT38H","","null","<img src=""img/land5.png"" style=""width:200px; border:14px solid green;"">","null","","","","","","","","","",""
"","image-keyboard-response","288","72595","0.0-288.0","3SBEHTYCWOPJIHUCAD4XNOJR1TYYI6","A3AHD1NV5XCOF","3D1UCPY6GGVNRONHL4UEVMXCHLT38H","","23","img/land1.png","74","25","1","0","1","2","0.8,0.2,0.2,0.2,0.8,0.2,0.2,0.2,0.8","0.2,0.2,0.8,0.8,0.2,0.2,0.2,0.8,0.2","2","",""
"","html-keyboard-response","289","72920","0.0-289.0","3SBEHTYCWOPJIHUCAD4XNOJR1TYYI6","A3AHD1NV5XCOF","3D1UCPY6GGVNRONHL4UEVMXCHLT38H","","null","<img src=""img/land1.png"" style=""width:200px;border:14px solid red;"">","null","","","","","","","","","",""
"","image-keyboard-response","290","73039","0.0-290.0","3SBEHTYCWOPJIHUCAD4XNOJR1TYYI6","A3AHD1NV5XCOF","3D1UCPY6GGVNRONHL4UEVMXCHLT38H","","118","img/land5.png","76","119","3","0","3","2","0.8,0.2,0.2,0.2,0.8,0.2,0.2,0.2,0.8","0.2,0.2,0.8,0.8,0.2,0.2,0.2,0.8,0.2","2","",""
"","html-keyboard-response","291","73345","0.0-291.0","3SBEHTYCWOPJIHUCAD4XNOJR1TYYI6","A3AHD1NV5XCOF","3D1UCPY6GGVNRONHL4UEVMXCHLT38H","","null","<img src=""img/land5.png"" style=""width:200px;border:14px solid red;"">","null","","","","","","","","","",""
"","image-keyboard-response","292","73375","0.0-292.0","3SBEHTYCWOPJIHUCAD4XNOJR1TYYI6","A3AHD1NV5XCOF","3D1UCPY6GGVNRONHL4UEVMXCHLT38H","","25","img/land1.png","76","26","3","0","1","2","0.8,0.2,0.2,0.2,0.8,0.2,0.2,0.2,0.8","0.2,0.2,0.8,0.8,0.2,0.2,0.2,0.8,0.2","2","",""
"","html-keyboard-response","293","73699","0.0-293.0","3SBEHTYCWOPJIHUCAD4XNOJR1TYYI6","A3AHD1NV5XCOF","3D1UCPY6GGVNRONHL4UEVMXCHLT38H","","null","<img src=""img/land1.png"" style=""width:200px;border:14px solid red;"">","null","","","","","","","","","",""
"","image-keyboard-response","294","73718","0.0-294.0","3SBEHTYCWOPJIHUCAD4XNOJR1TYYI6","A3AHD1NV5XCOF","3D1UCPY6GGVNRONHL4UEVMXCHLT38H","","18","img/land2.png","75","19","2","0","2","2","0.8,0.2,0.2,0.2,0.8,0.2,0.2,0.2,0.8","0.2,0.2,0.8,0.8,0.2,0.2,0.2,0.8,0.2","2","",""
"","html-keyboard-response","295","74025","0.0-295.0","3SBEHTYCWOPJIHUCAD4XNOJR1TYYI6","A3AHD1NV5XCOF","3D1UCPY6GGVNRONHL4UEVMXCHLT38H","","null","<img src=""img/land2.png"" style=""width:200px;border:14px solid red;"">","null","","","","","","","","","",""
"","image-keyboard-response","296","74047","0.0-296.0","3SBEHTYCWOPJIHUCAD4XNOJR1TYYI6","A3AHD1NV5XCOF","3D1UCPY6GGVNRONHL4UEVMXCHLT38H","","16","img/land1.png","74","20","1","0","1","2","0.8,0.2,0.2,0.2,0.8,0.2,0.2,0.2,0.8","0.2,0.2,0.8,0.8,0.2,0.2,0.2,0.8,0.2","2","",""
"","html-keyboard-response","297","74348","0.0-297.0","3SBEHTYCWOPJIHUCAD4XNOJR1TYYI6","A3AHD1NV5XCOF","3D1UCPY6GGVNRONHL4UEVMXCHLT38H","","null","<img src=""img/land1.png"" style=""width:200px;border:14px solid red;"">","null","","","","","","","","","",""
"","image-keyboard-response","298","74415","0.0-298.0","3SBEHTYCWOPJIHUCAD4XNOJR1TYYI6","A3AHD1NV5XCOF","3D1UCPY6GGVNRONHL4UEVMXCHLT38H","","65","img/land1.png","75","66","2","0","1","2","0.8,0.2,0.2,0.2,0.8,0.2,0.2,0.2,0.8","0.2,0.2,0.8,0.8,0.2,0.2,0.2,0.8,0.2","2","",""
"","html-keyboard-response","299","74784","0.0-299.0","3SBEHTYCWOPJIHUCAD4XNOJR1TYYI6","A3AHD1NV5XCOF","3D1UCPY6GGVNRONHL4UEVMXCHLT38H","","null","<img src=""img/land1.png"" style=""width:200px;border:14px solid red;"">","null","","","","","","","","","",""
"","image-keyboard-response","300","74865","0.0-300.0","3SBEHTYCWOPJIHUCAD4XNOJR1TYYI6","A3AHD1NV5XCOF","3D1UCPY6GGVNRONHL4UEVMXCHLT38H","","58","img/land5.png","75","75","2","1","3","2","0.8,0.2,0.2,0.2,0.8,0.2,0.2,0.2,0.8","0.2,0.2,0.8,0.8,0.2,0.2,0.2,0.8,0.2","2","",""
"","html-keyboard-response","301","75230","0.0-301.0","3SBEHTYCWOPJIHUCAD4XNOJR1TYYI6","A3AHD1NV5XCOF","3D1UCPY6GGVNRONHL4UEVMXCHLT38H","","null","<img src=""img/land5.png"" style=""width:200px; border:14px solid green;"">","null","","","","","","","","","",""
"","image-keyboard-response","302","75244","0.0-302.0","3SBEHTYCWOPJIHUCAD4XNOJR1TYYI6","A3AHD1NV5XCOF","3D1UCPY6GGVNRONHL4UEVMXCHLT38H","","12","img/land3.png","76","13","3","1","3","1","0.8,0.2,0.2,0.2,0.8,0.2,0.2,0.2,0.8","0.8,0.2,0.2,0.2,0.8,0.2,0.2,0.2,0.8","1","",""
"","html-keyboard-response","303","75546","0.0-303.0","3SBEHTYCWOPJIHUCAD4XNOJR1TYYI6","A3AHD1NV5XCOF","3D1UCPY6GGVNRONHL4UEVMXCHLT38H","","null","<img src=""img/land3.png"" style=""width:200px; border:14px solid green;"">","null","","","","","","","","","",""
"","image-keyboard-response","304","75585","0.0-304.0","3SBEHTYCWOPJIHUCAD4XNOJR1TYYI6","A3AHD1NV5XCOF","3D1UCPY6GGVNRONHL4UEVMXCHLT38H","","37","img/land4.png","74","39","1","1","1","1","0.8,0.2,0.2,0.2,0.8,0.2,0.2,0.2,0.8","0.8,0.2,0.2,0.2,0.8,0.2,0.2,0.2,0.8","1","",""
"","html-keyboard-response","305","75887","0.0-305.0","3SBEHTYCWOPJIHUCAD4XNOJR1TYYI6","A3AHD1NV5XCOF","3D1UCPY6GGVNRONHL4UEVMXCHLT38H","","null","<img src=""img/land4.png"" style=""width:200px; border:14px solid green;"">","null","","","","","","","","","",""
"","image-keyboard-response","306","75995","0.0-306.0","3SBEHTYCWOPJIHUCAD4XNOJR1TYYI6","A3AHD1NV5XCOF","3D1UCPY6GGVNRONHL4UEVMXCHLT38H","","105","img/land3.png","74","108","1","0","3","1","0.8,0.2,0.2,0.2,0.8,0.2,0.2,0.2,0.8","0.8,0.2,0.2,0.2,0.8,0.2,0.2,0.2,0.8","1","",""
"","html-keyboard-response","307","76362","0.0-307.0","3SBEHTYCWOPJIHUCAD4XNOJR1TYYI6","A3AHD1NV5XCOF","3D1UCPY6GGVNRONHL4UEVMXCHLT38H","","null","<img src=""img/land3.png"" style=""width:200px;border:14px solid red;"">","null","","","","","","","","","",""
"","image-keyboard-response","308","76375","0.0-308.0","3SBEHTYCWOPJIHUCAD4XNOJR1TYYI6","A3AHD1NV5XCOF","3D1UCPY6GGVNRONHL4UEVMXCHLT38H","","12","img/land3.png","74","13","1","0","3","1","0.8,0.2,0.2,0.2,0.8,0.2,0.2,0.2,0.8","0.8,0.2,0.2,0.2,0.8,0.2,0.2,0.2,0.8","1","",""
"","html-keyboard-response","309","76695","0.0-309.0","3SBEHTYCWOPJIHUCAD4XNOJR1TYYI6","A3AHD1NV5XCOF","3D1UCPY6GGVNRONHL4UEVMXCHLT38H","","null","<img src=""img/land3.png"" style=""width:200px;border:14px solid red;"">","null","","","","","","","","","",""
"","image-keyboard-response","310","76723","0.0-310.0","3SBEHTYCWOPJIHUCAD4XNOJR1TYYI6","A3AHD1NV5XCOF","3D1UCPY6GGVNRONHL4UEVMXCHLT38H","","25","img/land3.png","76","27","3","1","3","1","0.8,0.2,0.2,0.2,0.8,0.2,0.2,0.2,0.8","0.8,0.2,0.2,0.2,0.8,0.2,0.2,0.2,0.8","1","",""
"","html-keyboard-response","311","77027","0.0-311.0","3SBEHTYCWOPJIHUCAD4XNOJR1TYYI6","A3AHD1NV5XCOF","3D1UCPY6GGVNRONHL4UEVMXCHLT38H","","null","<img src=""img/land3.png"" style=""width:200px; border:14px solid green;"">","null","","","","","","","","","",""
"","image-keyboard-response","312","77040","0.0-312.0","3SBEHTYCWOPJIHUCAD4XNOJR1TYYI6","A3AHD1NV5XCOF","3D1UCPY6GGVNRONHL4UEVMXCHLT38H","","11","img/land6.png","76","12","3","0","2","1","0.8,0.2,0.2,0.2,0.8,0.2,0.2,0.2,0.8","0.8,0.2,0.2,0.2,0.8,0.2,0.2,0.2,0.8","1","",""
"","html-keyboard-response","313","77342","0.0-313.0","3SBEHTYCWOPJIHUCAD4XNOJR1TYYI6","A3AHD1NV5XCOF","3D1UCPY6GGVNRONHL4UEVMXCHLT38H","","null","<img src=""img/land6.png"" style=""width:200px;border:14px solid red;"">","null","","","","","","","","","",""
"","image-keyboard-response","314","77377","0.0-314.0","3SBEHTYCWOPJIHUCAD4XNOJR1TYYI6","A3AHD1NV5XCOF","3D1UCPY6GGVNRONHL4UEVMXCHLT38H","","31","img/land4.png","76","33","3","0","1","1","0.8,0.2,0.2,0.2,0.8,0.2,0.2,0.2,0.8","0.8,0.2,0.2,0.2,0.8,0.2,0.2,0.2,0.8","1","",""
"","html-keyboard-response","315","77695","0.0-315.0","3SBEHTYCWOPJIHUCAD4XNOJR1TYYI6","A3AHD1NV5XCOF","3D1UCPY6GGVNRONHL4UEVMXCHLT38H","","null","<img src=""img/land4.png"" style=""width:200px;border:14px solid red;"">","null","","","","","","","","","",""
"","image-keyboard-response","316","78057","0.0-316.0","3SBEHTYCWOPJIHUCAD4XNOJR1TYYI6","A3AHD1NV5XCOF","3D1UCPY6GGVNRONHL4UEVMXCHLT38H","","361","img/land3.png","74","362","1","0","3","1","0.8,0.2,0.2,0.2,0.8,0.2,0.2,0.2,0.8","0.8,0.2,0.2,0.2,0.8,0.2,0.2,0.2,0.8","1","",""
"","html-keyboard-response","317","78358","0.0-317.0","3SBEHTYCWOPJIHUCAD4XNOJR1TYYI6","A3AHD1NV5XCOF","3D1UCPY6GGVNRONHL4UEVMXCHLT38H","","null","<img src=""img/land3.png"" style=""width:200px;border:14px solid red;"">","null","","","","","","","","","",""
"","image-keyboard-response","318","78366","0.0-318.0","3SBEHTYCWOPJIHUCAD4XNOJR1TYYI6","A3AHD1NV5XCOF","3D1UCPY6GGVNRONHL4UEVMXCHLT38H","","7","img/land4.png","74","7","1","1","1","1","0.8,0.2,0.2,0.2,0.8,0.2,0.2,0.2,0.8","0.8,0.2,0.2,0.2,0.8,0.2,0.2,0.2,0.8","1","",""
"","html-keyboard-response","319","78669","0.0-319.0","3SBEHTYCWOPJIHUCAD4XNOJR1TYYI6","A3AHD1NV5XCOF","3D1UCPY6GGVNRONHL4UEVMXCHLT38H","","null","<img src=""img/land4.png"" style=""width:200px; border:14px solid green;"">","null","","","","","","","","","",""
"","image-keyboard-response","320","78743","0.0-320.0","3SBEHTYCWOPJIHUCAD4XNOJR1TYYI6","A3AHD1NV5XCOF","3D1UCPY6GGVNRONHL4UEVMXCHLT38H","","67","img/land3.png","76","71","3","1","3","1","0.8,0.2,0.2,0.2,0.8,0.2,0.2,0.2,0.8","0.8,0.2,0.2,0.2,0.8,0.2,0.2,0.2,0.8","1","",""
"","html-keyboard-response","321","79044","0.0-321.0","3SBEHTYCWOPJIHUCAD4XNOJR1TYYI6","A3AHD1NV5XCOF","3D1UCPY6GGVNRONHL4UEVMXCHLT38H","","null","<img src=""img/land3.png"" style=""width:200px; border:14px solid green;"">","null","","","","","","","","","",""
"","image-keyboard-response","322","79164","0.0-322.0","3SBEHTYCWOPJIHUCAD4XNOJR1TYYI6","A3AHD1NV5XCOF","3D1UCPY6GGVNRONHL4UEVMXCHLT38H","","119","img/land3.png","75","119","2","1","3","1","0.8,0.2,0.2,0.2,0.8,0.2,0.2,0.2,0.8","0.8,0.2,0.2,0.2,0.8,0.2,0.2,0.2,0.8","1","",""
"","html-keyboard-response","323","79469","0.0-323.0","3SBEHTYCWOPJIHUCAD4XNOJR1TYYI6","A3AHD1NV5XCOF","3D1UCPY6GGVNRONHL4UEVMXCHLT38H","","null","<img src=""img/land3.png"" style=""width:200px; border:14px solid green;"">","null","","","","","","","","","",""
"","image-keyboard-response","324","79746","0.0-324.0","3SBEHTYCWOPJIHUCAD4XNOJR1TYYI6","A3AHD1NV5XCOF","3D1UCPY6GGVNRONHL4UEVMXCHLT38H","","273","img/land6.png","76","275","3","0","2","1","0.8,0.2,0.2,0.2,0.8,0.2,0.2,0.2,0.8","0.8,0.2,0.2,0.2,0.8,0.2,0.2,0.2,0.8","1","",""
"","html-keyboard-response","325","80047","0.0-325.0","3SBEHTYCWOPJIHUCAD4XNOJR1TYYI6","A3AHD1NV5XCOF","3D1UCPY6GGVNRONHL4UEVMXCHLT38H","","null","<img src=""img/land6.png"" style=""width:200px;border:14px solid red;"">","null","","","","","","","","","",""
"","image-keyboard-response","326","80058","0.0-326.0","3SBEHTYCWOPJIHUCAD4XNOJR1TYYI6","A3AHD1NV5XCOF","3D1UCPY6GGVNRONHL4UEVMXCHLT38H","","9","img/land3.png","76","10","3","1","3","1","0.8,0.2,0.2,0.2,0.8,0.2,0.2,0.2,0.8","0.8,0.2,0.2,0.2,0.8,0.2,0.2,0.2,0.8","1","",""
"","html-keyboard-response","327","80360","0.0-327.0","3SBEHTYCWOPJIHUCAD4XNOJR1TYYI6","A3AHD1NV5XCOF","3D1UCPY6GGVNRONHL4UEVMXCHLT38H","","null","<img src=""img/land3.png"" style=""width:200px; border:14px solid green;"">","null","","","","","","","","","",""
"","image-keyboard-response","328","80388","0.0-328.0","3SBEHTYCWOPJIHUCAD4XNOJR1TYYI6","A3AHD1NV5XCOF","3D1UCPY6GGVNRONHL4UEVMXCHLT38H","","25","img/land4.png","74","27","1","1","1","1","0.8,0.2,0.2,0.2,0.8,0.2,0.2,0.2,0.8","0.8,0.2,0.2,0.2,0.8,0.2,0.2,0.2,0.8","1","",""
"","html-keyboard-response","329","80689","0.0-329.0","3SBEHTYCWOPJIHUCAD4XNOJR1TYYI6","A3AHD1NV5XCOF","3D1UCPY6GGVNRONHL4UEVMXCHLT38H","","null","<img src=""img/land4.png"" style=""width:200px; border:14px solid green;"">","null","","","","","","","","","",""
"","image-keyboard-response","330","80735","0.0-330.0","3SBEHTYCWOPJIHUCAD4XNOJR1TYYI6","A3AHD1NV5XCOF","3D1UCPY6GGVNRONHL4UEVMXCHLT38H","","44","img/land4.png","74","47","1","1","1","1","0.8,0.2,0.2,0.2,0.8,0.2,0.2,0.2,0.8","0.8,0.2,0.2,0.2,0.8,0.2,0.2,0.2,0.8","1","",""
"","html-keyboard-response","331","81064","0.0-331.0","3SBEHTYCWOPJIHUCAD4XNOJR1TYYI6","A3AHD1NV5XCOF","3D1UCPY6GGVNRONHL4UEVMXCHLT38H","","null","<img src=""img/land4.png"" style=""width:200px; border:14px solid green;"">","null","","","","","","","","","",""
"","image-keyboard-response","332","81497","0.0-332.0","3SBEHTYCWOPJIHUCAD4XNOJR1TYYI6","A3AHD1NV5XCOF","3D1UCPY6GGVNRONHL4UEVMXCHLT38H","","431","img/land3.png","76","433","3","1","3","1","0.8,0.2,0.2,0.2,0.8,0.2,0.2,0.2,0.8","0.8,0.2,0.2,0.2,0.8,0.2,0.2,0.2,0.8","1","",""
"","html-keyboard-response","333","81801","0.0-333.0","3SBEHTYCWOPJIHUCAD4XNOJR1TYYI6","A3AHD1NV5XCOF","3D1UCPY6GGVNRONHL4UEVMXCHLT38H","","null","<img src=""img/land3.png"" style=""width:200px; border:14px solid green;"">","null","","","","","","","","","",""
"","image-keyboard-response","334","81824","0.0-334.0","3SBEHTYCWOPJIHUCAD4XNOJR1TYYI6","A3AHD1NV5XCOF","3D1UCPY6GGVNRONHL4UEVMXCHLT38H","","21","img/land6.png","75","23","2","1","2","1","0.8,0.2,0.2,0.2,0.8,0.2,0.2,0.2,0.8","0.8,0.2,0.2,0.2,0.8,0.2,0.2,0.2,0.8","1","",""
"","html-keyboard-response","335","82150","0.0-335.0","3SBEHTYCWOPJIHUCAD4XNOJR1TYYI6","A3AHD1NV5XCOF","3D1UCPY6GGVNRONHL4UEVMXCHLT38H","","null","<img src=""img/land6.png"" style=""width:200px; border:14px solid green;"">","null","","","","","","","","","",""
"","image-keyboard-response","336","82174","0.0-336.0","3SBEHTYCWOPJIHUCAD4XNOJR1TYYI6","A3AHD1NV5XCOF","3D1UCPY6GGVNRONHL4UEVMXCHLT38H","","16","img/land4.png","74","17","1","1","1","1","0.8,0.2,0.2,0.2,0.8,0.2,0.2,0.2,0.8","0.8,0.2,0.2,0.2,0.8,0.2,0.2,0.2,0.8","1","",""
"","html-keyboard-response","337","82575","0.0-337.0","3SBEHTYCWOPJIHUCAD4XNOJR1TYYI6","A3AHD1NV5XCOF","3D1UCPY6GGVNRONHL4UEVMXCHLT38H","","null","<img src=""img/land4.png"" style=""width:200px; border:14px solid green;"">","null","","","","","","","","","",""
"","image-keyboard-response","338","82592","0.0-338.0","3SBEHTYCWOPJIHUCAD4XNOJR1TYYI6","A3AHD1NV5XCOF","3D1UCPY6GGVNRONHL4UEVMXCHLT38H","","15","img/land3.png","76","15","3","1","3","1","0.8,0.2,0.2,0.2,0.8,0.2,0.2,0.2,0.8","0.8,0.2,0.2,0.2,0.8,0.2,0.2,0.2,0.8","1","",""
"","html-keyboard-response","339","82893","0.0-339.0","3SBEHTYCWOPJIHUCAD4XNOJR1TYYI6","A3AHD1NV5XCOF","3D1UCPY6GGVNRONHL4UEVMXCHLT38H","","null","<img src=""img/land3.png"" style=""width:200px; border:14px solid green;"">","null","","","","","","","","","",""
"","image-keyboard-response","340","82933","0.0-340.0","3SBEHTYCWOPJIHUCAD4XNOJR1TYYI6","A3AHD1NV5XCOF","3D1UCPY6GGVNRONHL4UEVMXCHLT38H","","39","img/land3.png","74","40","1","1","3","1","0.8,0.2,0.2,0.2,0.8,0.2,0.2,0.2,0.8","0.8,0.2,0.2,0.2,0.8,0.2,0.2,0.2,0.8","1","",""
"","html-keyboard-response","341","83234","0.0-341.0","3SBEHTYCWOPJIHUCAD4XNOJR1TYYI6","A3AHD1NV5XCOF","3D1UCPY6GGVNRONHL4UEVMXCHLT38H","","null","<img src=""img/land3.png"" style=""width:200px; border:14px solid green;"">","null","","","","","","","","","",""
"","image-keyboard-response","342","83249","0.0-342.0","3SBEHTYCWOPJIHUCAD4XNOJR1TYYI6","A3AHD1NV5XCOF","3D1UCPY6GGVNRONHL4UEVMXCHLT38H","","11","img/land4.png","74","14","1","1","1","1","0.8,0.2,0.2,0.2,0.8,0.2,0.2,0.2,0.8","0.8,0.2,0.2,0.2,0.8,0.2,0.2,0.2,0.8","1","",""
"","html-keyboard-response","343","83565","0.0-343.0","3SBEHTYCWOPJIHUCAD4XNOJR1TYYI6","A3AHD1NV5XCOF","3D1UCPY6GGVNRONHL4UEVMXCHLT38H","","null","<img src=""img/land4.png"" style=""width:200px; border:14px solid green;"">","null","","","","","","","","","",""
"","image-keyboard-response","344","83625","0.0-344.0","3SBEHTYCWOPJIHUCAD4XNOJR1TYYI6","A3AHD1NV5XCOF","3D1UCPY6GGVNRONHL4UEVMXCHLT38H","","52","img/land6.png","74","55","1","0","2","1","0.8,0.2,0.2,0.2,0.8,0.2,0.2,0.2,0.8","0.8,0.2,0.2,0.2,0.8,0.2,0.2,0.2,0.8","1","",""
"","html-keyboard-response","345","83930","0.0-345.0","3SBEHTYCWOPJIHUCAD4XNOJR1TYYI6","A3AHD1NV5XCOF","3D1UCPY6GGVNRONHL4UEVMXCHLT38H","","null","<img src=""img/land6.png"" style=""width:200px;border:14px solid red;"">","null","","","","","","","","","",""
"","image-keyboard-response","346","84066","0.0-346.0","3SBEHTYCWOPJIHUCAD4XNOJR1TYYI6","A3AHD1NV5XCOF","3D1UCPY6GGVNRONHL4UEVMXCHLT38H","","133","img/land4.png","75","134","2","0","1","1","0.8,0.2,0.2,0.2,0.8,0.2,0.2,0.2,0.8","0.8,0.2,0.2,0.2,0.8,0.2,0.2,0.2,0.8","1","",""
"","html-keyboard-response","347","84448","0.0-347.0","3SBEHTYCWOPJIHUCAD4XNOJR1TYYI6","A3AHD1NV5XCOF","3D1UCPY6GGVNRONHL4UEVMXCHLT38H","","null","<img src=""img/land4.png"" style=""width:200px;border:14px solid red;"">","null","","","","","","","","","",""
"","image-keyboard-response","348","84459","0.0-348.0","3SBEHTYCWOPJIHUCAD4XNOJR1TYYI6","A3AHD1NV5XCOF","3D1UCPY6GGVNRONHL4UEVMXCHLT38H","","10","img/land4.png","74","12","1","1","1","1","0.8,0.2,0.2,0.2,0.8,0.2,0.2,0.2,0.8","0.8,0.2,0.2,0.2,0.8,0.2,0.2,0.2,0.8","1","",""
"","html-keyboard-response","349","84761","0.0-349.0","3SBEHTYCWOPJIHUCAD4XNOJR1TYYI6","A3AHD1NV5XCOF","3D1UCPY6GGVNRONHL4UEVMXCHLT38H","","null","<img src=""img/land4.png"" style=""width:200px; border:14px solid green;"">","null","","","","","","","","","",""
"","image-keyboard-response","350","84913","0.0-350.0","3SBEHTYCWOPJIHUCAD4XNOJR1TYYI6","A3AHD1NV5XCOF","3D1UCPY6GGVNRONHL4UEVMXCHLT38H","","150","img/land4.png","75","151","2","1","1","1","0.8,0.2,0.2,0.2,0.8,0.2,0.2,0.2,0.8","0.8,0.2,0.2,0.2,0.8,0.2,0.2,0.2,0.8","1","",""
"","html-keyboard-response","351","85214","0.0-351.0","3SBEHTYCWOPJIHUCAD4XNOJR1TYYI6","A3AHD1NV5XCOF","3D1UCPY6GGVNRONHL4UEVMXCHLT38H","","null","<img src=""img/land4.png"" style=""width:200px; border:14px solid green;"">","null","","","","","","","","","",""
"","image-keyboard-response","352","85260","0.0-352.0","3SBEHTYCWOPJIHUCAD4XNOJR1TYYI6","A3AHD1NV5XCOF","3D1UCPY6GGVNRONHL4UEVMXCHLT38H","","44","img/land4.png","74","46","1","1","1","1","0.8,0.2,0.2,0.2,0.8,0.2,0.2,0.2,0.8","0.8,0.2,0.2,0.2,0.8,0.2,0.2,0.2,0.8","1","",""
"","html-keyboard-response","353","85687","0.0-353.0","3SBEHTYCWOPJIHUCAD4XNOJR1TYYI6","A3AHD1NV5XCOF","3D1UCPY6GGVNRONHL4UEVMXCHLT38H","","null","<img src=""img/land4.png"" style=""width:200px; border:14px solid green;"">","null","","","","","","","","","",""
"","image-keyboard-response","354","85844","0.0-354.0","3SBEHTYCWOPJIHUCAD4XNOJR1TYYI6","A3AHD1NV5XCOF","3D1UCPY6GGVNRONHL4UEVMXCHLT38H","","156","img/land4.png","74","158","1","0","1","1","0.8,0.2,0.2,0.2,0.8,0.2,0.2,0.2,0.8","0.8,0.2,0.2,0.2,0.8,0.2,0.2,0.2,0.8","1","",""
"","html-keyboard-response","355","86145","0.0-355.0","3SBEHTYCWOPJIHUCAD4XNOJR1TYYI6","A3AHD1NV5XCOF","3D1UCPY6GGVNRONHL4UEVMXCHLT38H","","null","<img src=""img/land4.png"" style=""width:200px;border:14px solid red;"">","null","","","","","","","","","",""
"","image-keyboard-response","356","86216","0.0-356.0","3SBEHTYCWOPJIHUCAD4XNOJR1TYYI6","A3AHD1NV5XCOF","3D1UCPY6GGVNRONHL4UEVMXCHLT38H","","68","img/land3.png","75","70","2","0","3","1","0.8,0.2,0.2,0.2,0.8,0.2,0.2,0.2,0.8","0.8,0.2,0.2,0.2,0.8,0.2,0.2,0.2,0.8","1","",""
"","html-keyboard-response","357","86519","0.0-357.0","3SBEHTYCWOPJIHUCAD4XNOJR1TYYI6","A3AHD1NV5XCOF","3D1UCPY6GGVNRONHL4UEVMXCHLT38H","","null","<img src=""img/land3.png"" style=""width:200px;border:14px solid red;"">","null","","","","","","","","","",""
"","image-keyboard-response","358","86769","0.0-358.0","3SBEHTYCWOPJIHUCAD4XNOJR1TYYI6","A3AHD1NV5XCOF","3D1UCPY6GGVNRONHL4UEVMXCHLT38H","","249","img/land3.png","74","251","1","0","3","1","0.8,0.2,0.2,0.2,0.8,0.2,0.2,0.2,0.8","0.8,0.2,0.2,0.2,0.8,0.2,0.2,0.2,0.8","1","",""
"","html-keyboard-response","359","87075","0.0-359.0","3SBEHTYCWOPJIHUCAD4XNOJR1TYYI6","A3AHD1NV5XCOF","3D1UCPY6GGVNRONHL4UEVMXCHLT38H","","null","<img src=""img/land3.png"" style=""width:200px;border:14px solid red;"">","null","","","","","","","","","",""
"","image-keyboard-response","360","87294","0.0-360.0","3SBEHTYCWOPJIHUCAD4XNOJR1TYYI6","A3AHD1NV5XCOF","3D1UCPY6GGVNRONHL4UEVMXCHLT38H","","216","img/land4.png","74","219","1","1","1","1","0.8,0.2,0.2,0.2,0.8,0.2,0.2,0.2,0.8","0.8,0.2,0.2,0.2,0.8,0.2,0.2,0.2,0.8","1","",""
"","html-keyboard-response","361","87697","0.0-361.0","3SBEHTYCWOPJIHUCAD4XNOJR1TYYI6","A3AHD1NV5XCOF","3D1UCPY6GGVNRONHL4UEVMXCHLT38H","","null","<img src=""img/land4.png"" style=""width:200px; border:14px solid green;"">","null","","","","","","","","","",""
"","image-keyboard-response","362","87890","0.0-362.0","3SBEHTYCWOPJIHUCAD4XNOJR1TYYI6","A3AHD1NV5XCOF","3D1UCPY6GGVNRONHL4UEVMXCHLT38H","","192","img/land6.png","75","193","2","1","2","1","0.8,0.2,0.2,0.2,0.8,0.2,0.2,0.2,0.8","0.8,0.2,0.2,0.2,0.8,0.2,0.2,0.2,0.8","1","",""
"","html-keyboard-response","363","88228","0.0-363.0","3SBEHTYCWOPJIHUCAD4XNOJR1TYYI6","A3AHD1NV5XCOF","3D1UCPY6GGVNRONHL4UEVMXCHLT38H","","null","<img src=""img/land6.png"" style=""width:200px; border:14px solid green;"">","null","","","","","","","","","",""
"","image-keyboard-response","364","88445","0.0-364.0","3SBEHTYCWOPJIHUCAD4XNOJR1TYYI6","A3AHD1NV5XCOF","3D1UCPY6GGVNRONHL4UEVMXCHLT38H","","217","img/land4.png","74","218","1","1","1","1","0.8,0.2,0.2,0.2,0.8,0.2,0.2,0.2,0.8","0.8,0.2,0.2,0.2,0.8,0.2,0.2,0.2,0.8","1","",""
"","html-keyboard-response","365","88757","0.0-365.0","3SBEHTYCWOPJIHUCAD4XNOJR1TYYI6","A3AHD1NV5XCOF","3D1UCPY6GGVNRONHL4UEVMXCHLT38H","","null","<img src=""img/land4.png"" style=""width:200px; border:14px solid green;"">","null","","","","","","","","","",""
"","image-keyboard-response","366","88982","0.0-366.0","3SBEHTYCWOPJIHUCAD4XNOJR1TYYI6","A3AHD1NV5XCOF","3D1UCPY6GGVNRONHL4UEVMXCHLT38H","","223","img/land3.png","74","224","1","1","3","1","0.8,0.2,0.2,0.2,0.8,0.2,0.2,0.2,0.8","0.8,0.2,0.2,0.2,0.8,0.2,0.2,0.2,0.8","1","",""
"","html-keyboard-response","367","89283","0.0-367.0","3SBEHTYCWOPJIHUCAD4XNOJR1TYYI6","A3AHD1NV5XCOF","3D1UCPY6GGVNRONHL4UEVMXCHLT38H","","null","<img src=""img/land3.png"" style=""width:200px; border:14px solid green;"">","null","","","","","","","","","",""
"","image-keyboard-response","368","89295","0.0-368.0","3SBEHTYCWOPJIHUCAD4XNOJR1TYYI6","A3AHD1NV5XCOF","3D1UCPY6GGVNRONHL4UEVMXCHLT38H","","11","img/land6.png","74","11","1","0","2","1","0.8,0.2,0.2,0.2,0.8,0.2,0.2,0.2,0.8","0.8,0.2,0.2,0.2,0.8,0.2,0.2,0.2,0.8","1","",""
"","html-keyboard-response","369","89596","0.0-369.0","3SBEHTYCWOPJIHUCAD4XNOJR1TYYI6","A3AHD1NV5XCOF","3D1UCPY6GGVNRONHL4UEVMXCHLT38H","","null","<img src=""img/land6.png"" style=""width:200px;border:14px solid red;"">","null","","","","","","","","","",""
"","image-keyboard-response","370","89624","0.0-370.0","3SBEHTYCWOPJIHUCAD4XNOJR1TYYI6","A3AHD1NV5XCOF","3D1UCPY6GGVNRONHL4UEVMXCHLT38H","","27","img/land3.png","74","28","1","0","3","1","0.8,0.2,0.2,0.2,0.8,0.2,0.2,0.2,0.8","0.8,0.2,0.2,0.2,0.8,0.2,0.2,0.2,0.8","1","",""
"","html-keyboard-response","371","89926","0.0-371.0","3SBEHTYCWOPJIHUCAD4XNOJR1TYYI6","A3AHD1NV5XCOF","3D1UCPY6GGVNRONHL4UEVMXCHLT38H","","null","<img src=""img/land3.png"" style=""width:200px;border:14px solid red;"">","null","","","","","","","","","",""
"","image-keyboard-response","372","89984","0.0-372.0","3SBEHTYCWOPJIHUCAD4XNOJR1TYYI6","A3AHD1NV5XCOF","3D1UCPY6GGVNRONHL4UEVMXCHLT38H","","57","img/land3.png","75","58","2","0","3","1","0.8,0.2,0.2,0.2,0.8,0.2,0.2,0.2,0.8","0.8,0.2,0.2,0.2,0.8,0.2,0.2,0.2,0.8","1","",""
"","html-keyboard-response","373","90299","0.0-373.0","3SBEHTYCWOPJIHUCAD4XNOJR1TYYI6","A3AHD1NV5XCOF","3D1UCPY6GGVNRONHL4UEVMXCHLT38H","","null","<img src=""img/land3.png"" style=""width:200px;border:14px solid red;"">","null","","","","","","","","","",""
