"success","trial_type","trial_index","time_elapsed","internal_node_id","assignmentID","mturkID","hitID","view_history","rt","stimulus","key_press","reactionTime","a","r","warning","s","reward_cond","responses","question_order"
"true","fullscreen","0","2561","0.0-0.0","3IAEQB9FMF6YL1JQ3YLYBUIYU86WDZ","A3AJR1PM02424Y","3FW4EL5A3LANKRP91N782LFHPY722Q","","","","","","","","","","","",""
"","instructions","1","19014","0.0-1.0","3IAEQB9FMF6YL1JQ3YLYBUIYU86WDZ","A3AJR1PM02424Y","3FW4EL5A3LANKRP91N782LFHPY722Q","[{""page_index"":0,""viewing_time"":5316.100000023842},{""page_index"":1,""viewing_time"":2226.100000023842},{""page_index"":2,""viewing_time"":1587.7999999523163},{""page_index"":3,""viewing_time"":1034.2000000476837},{""page_index"":4,""viewing_time"":2233.6999999284744},{""page_index"":5,""viewing_time"":1290.2000000476837},{""page_index"":6,""viewing_time"":1379.5},{""page_index"":7,""viewing_time"":1381.1999999284744}]","16449.899999976158","","","","","","","","","",""
"","image-keyboard-response","2","20030","0.0-2.0","3IAEQB9FMF6YL1JQ3YLYBUIYU86WDZ","A3AJR1PM02424Y","3FW4EL5A3LANKRP91N782LFHPY722Q","","","img/land8.png","","1015.6999999284744","-1","0","true","2","0.8,0.2,0.2,0.2,0.8,0.2,0.2,0.2,0.8","",""
"","html-keyboard-response","3","20340","0.0-3.0","3IAEQB9FMF6YL1JQ3YLYBUIYU86WDZ","A3AJR1PM02424Y","3FW4EL5A3LANKRP91N782LFHPY722Q","","null","<img src=""img/land8.png"" style=""width:200px;border:14px solid red;"">","null","","","","","","","",""
"","html-keyboard-response","4","22438","0.0-4.0-0.0","3IAEQB9FMF6YL1JQ3YLYBUIYU86WDZ","A3AJR1PM02424Y","3FW4EL5A3LANKRP91N782LFHPY722Q","","","","","","","","","","","",""
"","image-keyboard-response","5","23092","0.0-5.0","3IAEQB9FMF6YL1JQ3YLYBUIYU86WDZ","A3AJR1PM02424Y","3FW4EL5A3LANKRP91N782LFHPY722Q","","651.2999999523163","img/land5.png","74","653.1000000238419","1","1","false","3","0.8,0.2,0.2,0.2,0.8,0.2,0.2,0.2,0.8","",""
"","html-keyboard-response","6","23409","0.0-6.0","3IAEQB9FMF6YL1JQ3YLYBUIYU86WDZ","A3AJR1PM02424Y","3FW4EL5A3LANKRP91N782LFHPY722Q","","null","<img src=""img/land5.png"" style=""width:200px; border:14px solid green;"">","null","","","","","","","",""
"","image-keyboard-response","7","24103","0.0-8.0","3IAEQB9FMF6YL1JQ3YLYBUIYU86WDZ","A3AJR1PM02424Y","3FW4EL5A3LANKRP91N782LFHPY722Q","","692.6000000238419","img/land8.png","74","693.8999999761581","1","0","false","2","0.8,0.2,0.2,0.2,0.8,0.2,0.2,0.2,0.8","",""
"","html-keyboard-response","8","24419","0.0-9.0","3IAEQB9FMF6YL1JQ3YLYBUIYU86WDZ","A3AJR1PM02424Y","3FW4EL5A3LANKRP91N782LFHPY722Q","","null","<img src=""img/land8.png"" style=""width:200px;border:14px solid red;"">","null","","","","","","","",""
"","image-keyboard-response","9","25089","0.0-11.0","3IAEQB9FMF6YL1JQ3YLYBUIYU86WDZ","A3AJR1PM02424Y","3FW4EL5A3LANKRP91N782LFHPY722Q","","668.3000000715256","img/land7.png","74","669.6999999284744","1","1","false","1","0.8,0.2,0.2,0.2,0.8,0.2,0.2,0.2,0.8","",""
"","html-keyboard-response","10","25404","0.0-12.0","3IAEQB9FMF6YL1JQ3YLYBUIYU86WDZ","A3AJR1PM02424Y","3FW4EL5A3LANKRP91N782LFHPY722Q","","null","<img src=""img/land7.png"" style=""width:200px; border:14px solid green;"">","null","","","","","","","",""
"","image-keyboard-response","11","26086","0.0-14.0","3IAEQB9FMF6YL1JQ3YLYBUIYU86WDZ","A3AJR1PM02424Y","3FW4EL5A3LANKRP91N782LFHPY722Q","","680.3999999761581","img/land7.png","74","681.7000000476837","1","0","false","1","0.8,0.2,0.2,0.2,0.8,0.2,0.2,0.2,0.8","",""
"","html-keyboard-response","12","26403","0.0-15.0","3IAEQB9FMF6YL1JQ3YLYBUIYU86WDZ","A3AJR1PM02424Y","3FW4EL5A3LANKRP91N782LFHPY722Q","","null","<img src=""img/land7.png"" style=""width:200px;border:14px solid red;"">","null","","","","","","","",""
"","image-keyboard-response","13","27339","0.0-17.0","3IAEQB9FMF6YL1JQ3YLYBUIYU86WDZ","A3AJR1PM02424Y","3FW4EL5A3LANKRP91N782LFHPY722Q","","934.1000000238419","img/land8.png","75","935.5","2","0","false","2","0.8,0.2,0.2,0.2,0.8,0.2,0.2,0.2,0.8","",""
"","html-keyboard-response","14","27650","0.0-18.0","3IAEQB9FMF6YL1JQ3YLYBUIYU86WDZ","A3AJR1PM02424Y","3FW4EL5A3LANKRP91N782LFHPY722Q","","null","<img src=""img/land8.png"" style=""width:200px;border:14px solid red;"">","null","","","","","","","",""
"","image-keyboard-response","15","28302","0.0-20.0","3IAEQB9FMF6YL1JQ3YLYBUIYU86WDZ","A3AJR1PM02424Y","3FW4EL5A3LANKRP91N782LFHPY722Q","","650.2999999523163","img/land5.png","75","651.7000000476837","2","0","false","3","0.8,0.2,0.2,0.2,0.8,0.2,0.2,0.2,0.8","",""
"","html-keyboard-response","16","28619","0.0-21.0","3IAEQB9FMF6YL1JQ3YLYBUIYU86WDZ","A3AJR1PM02424Y","3FW4EL5A3LANKRP91N782LFHPY722Q","","null","<img src=""img/land5.png"" style=""width:200px;border:14px solid red;"">","null","","","","","","","",""
"","image-keyboard-response","17","29317","0.0-23.0","3IAEQB9FMF6YL1JQ3YLYBUIYU86WDZ","A3AJR1PM02424Y","3FW4EL5A3LANKRP91N782LFHPY722Q","","696.3000000715256","img/land8.png","74","697.6000000238419","1","1","false","2","0.8,0.2,0.2,0.2,0.8,0.2,0.2,0.2,0.8","",""
"","html-keyboard-response","18","29628","0.0-24.0","3IAEQB9FMF6YL1JQ3YLYBUIYU86WDZ","A3AJR1PM02424Y","3FW4EL5A3LANKRP91N782LFHPY722Q","","null","<img src=""img/land8.png"" style=""width:200px; border:14px solid green;"">","null","","","","","","","",""
"","image-keyboard-response","19","30430","0.0-26.0","3IAEQB9FMF6YL1JQ3YLYBUIYU86WDZ","A3AJR1PM02424Y","3FW4EL5A3LANKRP91N782LFHPY722Q","","799.8000000715256","img/land7.png","74","801.1999999284744","1","1","false","1","0.8,0.2,0.2,0.2,0.8,0.2,0.2,0.2,0.8","",""
"","html-keyboard-response","20","30736","0.0-27.0","3IAEQB9FMF6YL1JQ3YLYBUIYU86WDZ","A3AJR1PM02424Y","3FW4EL5A3LANKRP91N782LFHPY722Q","","null","<img src=""img/land7.png"" style=""width:200px; border:14px solid green;"">","null","","","","","","","",""
"","image-keyboard-response","21","31584","0.0-29.0","3IAEQB9FMF6YL1JQ3YLYBUIYU86WDZ","A3AJR1PM02424Y","3FW4EL5A3LANKRP91N782LFHPY722Q","","845.8000000715256","img/land5.png","74","847.1000000238419","1","0","false","3","0.8,0.2,0.2,0.2,0.8,0.2,0.2,0.2,0.8","",""
"","html-keyboard-response","22","31892","0.0-30.0","3IAEQB9FMF6YL1JQ3YLYBUIYU86WDZ","A3AJR1PM02424Y","3FW4EL5A3LANKRP91N782LFHPY722Q","","null","<img src=""img/land5.png"" style=""width:200px;border:14px solid red;"">","null","","","","","","","",""
"","image-keyboard-response","23","32613","0.0-32.0","3IAEQB9FMF6YL1JQ3YLYBUIYU86WDZ","A3AJR1PM02424Y","3FW4EL5A3LANKRP91N782LFHPY722Q","","719.6000000238419","img/land8.png","74","720.8999999761581","1","0","false","2","0.8,0.2,0.2,0.2,0.8,0.2,0.2,0.2,0.8","",""
"","html-keyboard-response","24","32918","0.0-33.0","3IAEQB9FMF6YL1JQ3YLYBUIYU86WDZ","A3AJR1PM02424Y","3FW4EL5A3LANKRP91N782LFHPY722Q","","null","<img src=""img/land8.png"" style=""width:200px;border:14px solid red;"">","null","","","","","","","",""
"","image-keyboard-response","25","33150","0.0-35.0","3IAEQB9FMF6YL1JQ3YLYBUIYU86WDZ","A3AJR1PM02424Y","3FW4EL5A3LANKRP91N782LFHPY722Q","","230.29999995231628","img/land5.png","76","231.60000002384186","3","1","false","3","0.8,0.2,0.2,0.2,0.8,0.2,0.2,0.2,0.8","",""
"","html-keyboard-response","26","33454","0.0-36.0","3IAEQB9FMF6YL1JQ3YLYBUIYU86WDZ","A3AJR1PM02424Y","3FW4EL5A3LANKRP91N782LFHPY722Q","","null","<img src=""img/land5.png"" style=""width:200px; border:14px solid green;"">","null","","","","","","","",""
"","image-keyboard-response","27","34363","0.0-38.0","3IAEQB9FMF6YL1JQ3YLYBUIYU86WDZ","A3AJR1PM02424Y","3FW4EL5A3LANKRP91N782LFHPY722Q","","907.1999999284744","img/land7.png","74","909","1","1","false","1","0.8,0.2,0.2,0.2,0.8,0.2,0.2,0.2,0.8","",""
"","html-keyboard-response","28","34673","0.0-39.0","3IAEQB9FMF6YL1JQ3YLYBUIYU86WDZ","A3AJR1PM02424Y","3FW4EL5A3LANKRP91N782LFHPY722Q","","null","<img src=""img/land7.png"" style=""width:200px; border:14px solid green;"">","null","","","","","","","",""
"","image-keyboard-response","29","35203","0.0-41.0","3IAEQB9FMF6YL1JQ3YLYBUIYU86WDZ","A3AJR1PM02424Y","3FW4EL5A3LANKRP91N782LFHPY722Q","","528.8999999761581","img/land7.png","74","530.1000000238419","1","1","false","1","0.8,0.2,0.2,0.2,0.8,0.2,0.2,0.2,0.8","",""
"","html-keyboard-response","30","35508","0.0-42.0","3IAEQB9FMF6YL1JQ3YLYBUIYU86WDZ","A3AJR1PM02424Y","3FW4EL5A3LANKRP91N782LFHPY722Q","","null","<img src=""img/land7.png"" style=""width:200px; border:14px solid green;"">","null","","","","","","","",""
"","image-keyboard-response","31","35909","0.0-44.0","3IAEQB9FMF6YL1JQ3YLYBUIYU86WDZ","A3AJR1PM02424Y","3FW4EL5A3LANKRP91N782LFHPY722Q","","397.89999997615814","img/land7.png","74","400.10000002384186","1","1","false","1","0.8,0.2,0.2,0.2,0.8,0.2,0.2,0.2,0.8","",""
"","html-keyboard-response","32","36212","0.0-45.0","3IAEQB9FMF6YL1JQ3YLYBUIYU86WDZ","A3AJR1PM02424Y","3FW4EL5A3LANKRP91N782LFHPY722Q","","null","<img src=""img/land7.png"" style=""width:200px; border:14px solid green;"">","null","","","","","","","",""
"","image-keyboard-response","33","36514","0.0-47.0","3IAEQB9FMF6YL1JQ3YLYBUIYU86WDZ","A3AJR1PM02424Y","3FW4EL5A3LANKRP91N782LFHPY722Q","","300","img/land7.png","74","301.89999997615814","1","1","false","1","0.8,0.2,0.2,0.2,0.8,0.2,0.2,0.2,0.8","",""
"","html-keyboard-response","34","36821","0.0-48.0","3IAEQB9FMF6YL1JQ3YLYBUIYU86WDZ","A3AJR1PM02424Y","3FW4EL5A3LANKRP91N782LFHPY722Q","","null","<img src=""img/land7.png"" style=""width:200px; border:14px solid green;"">","null","","","","","","","",""
"","image-keyboard-response","35","37455","0.0-50.0","3IAEQB9FMF6YL1JQ3YLYBUIYU86WDZ","A3AJR1PM02424Y","3FW4EL5A3LANKRP91N782LFHPY722Q","","631.3999999761581","img/land5.png","76","633.6999999284744","3","1","false","3","0.8,0.2,0.2,0.2,0.8,0.2,0.2,0.2,0.8","",""
"","html-keyboard-response","36","37762","0.0-51.0","3IAEQB9FMF6YL1JQ3YLYBUIYU86WDZ","A3AJR1PM02424Y","3FW4EL5A3LANKRP91N782LFHPY722Q","","null","<img src=""img/land5.png"" style=""width:200px; border:14px solid green;"">","null","","","","","","","",""
"","image-keyboard-response","37","38451","0.0-53.0","3IAEQB9FMF6YL1JQ3YLYBUIYU86WDZ","A3AJR1PM02424Y","3FW4EL5A3LANKRP91N782LFHPY722Q","","687.2999999523163","img/land8.png","75","688.6000000238419","2","1","false","2","0.8,0.2,0.2,0.2,0.8,0.2,0.2,0.2,0.8","",""
"","html-keyboard-response","38","38761","0.0-54.0","3IAEQB9FMF6YL1JQ3YLYBUIYU86WDZ","A3AJR1PM02424Y","3FW4EL5A3LANKRP91N782LFHPY722Q","","null","<img src=""img/land8.png"" style=""width:200px; border:14px solid green;"">","null","","","","","","","",""
"","image-keyboard-response","39","39212","0.0-56.0","3IAEQB9FMF6YL1JQ3YLYBUIYU86WDZ","A3AJR1PM02424Y","3FW4EL5A3LANKRP91N782LFHPY722Q","","449.89999997615814","img/land8.png","75","451.2000000476837","2","1","false","2","0.8,0.2,0.2,0.2,0.8,0.2,0.2,0.2,0.8","",""
"","html-keyboard-response","40","39515","0.0-57.0","3IAEQB9FMF6YL1JQ3YLYBUIYU86WDZ","A3AJR1PM02424Y","3FW4EL5A3LANKRP91N782LFHPY722Q","","null","<img src=""img/land8.png"" style=""width:200px; border:14px solid green;"">","null","","","","","","","",""
"","image-keyboard-response","41","40186","0.0-59.0","3IAEQB9FMF6YL1JQ3YLYBUIYU86WDZ","A3AJR1PM02424Y","3FW4EL5A3LANKRP91N782LFHPY722Q","","668.2000000476837","img/land5.png","76","670.2000000476837","3","1","false","3","0.8,0.2,0.2,0.2,0.8,0.2,0.2,0.2,0.8","",""
"","html-keyboard-response","42","40495","0.0-60.0","3IAEQB9FMF6YL1JQ3YLYBUIYU86WDZ","A3AJR1PM02424Y","3FW4EL5A3LANKRP91N782LFHPY722Q","","null","<img src=""img/land5.png"" style=""width:200px; border:14px solid green;"">","null","","","","","","","",""
"","image-keyboard-response","43","40979","0.0-62.0","3IAEQB9FMF6YL1JQ3YLYBUIYU86WDZ","A3AJR1PM02424Y","3FW4EL5A3LANKRP91N782LFHPY722Q","","483.2000000476837","img/land5.png","76","485.7000000476837","3","1","false","3","0.8,0.2,0.2,0.2,0.8,0.2,0.2,0.2,0.8","",""
"","html-keyboard-response","44","41284","0.0-63.0","3IAEQB9FMF6YL1JQ3YLYBUIYU86WDZ","A3AJR1PM02424Y","3FW4EL5A3LANKRP91N782LFHPY722Q","","null","<img src=""img/land5.png"" style=""width:200px; border:14px solid green;"">","null","","","","","","","",""
"","image-keyboard-response","45","41773","0.0-65.0","3IAEQB9FMF6YL1JQ3YLYBUIYU86WDZ","A3AJR1PM02424Y","3FW4EL5A3LANKRP91N782LFHPY722Q","","486.8000000715256","img/land5.png","76","488","3","1","false","3","0.8,0.2,0.2,0.2,0.8,0.2,0.2,0.2,0.8","",""
"","html-keyboard-response","46","42079","0.0-66.0","3IAEQB9FMF6YL1JQ3YLYBUIYU86WDZ","A3AJR1PM02424Y","3FW4EL5A3LANKRP91N782LFHPY722Q","","null","<img src=""img/land5.png"" style=""width:200px; border:14px solid green;"">","null","","","","","","","",""
"","image-keyboard-response","47","42823","0.0-68.0","3IAEQB9FMF6YL1JQ3YLYBUIYU86WDZ","A3AJR1PM02424Y","3FW4EL5A3LANKRP91N782LFHPY722Q","","741.3999999761581","img/land7.png","74","743.2999999523163","1","1","false","1","0.8,0.2,0.2,0.2,0.8,0.2,0.2,0.2,0.8","",""
"","html-keyboard-response","48","43132","0.0-69.0","3IAEQB9FMF6YL1JQ3YLYBUIYU86WDZ","A3AJR1PM02424Y","3FW4EL5A3LANKRP91N782LFHPY722Q","","null","<img src=""img/land7.png"" style=""width:200px; border:14px solid green;"">","null","","","","","","","",""
"","image-keyboard-response","49","43786","0.0-71.0","3IAEQB9FMF6YL1JQ3YLYBUIYU86WDZ","A3AJR1PM02424Y","3FW4EL5A3LANKRP91N782LFHPY722Q","","652.2000000476837","img/land5.png","76","653.5","3","0","false","3","0.8,0.2,0.2,0.2,0.8,0.2,0.2,0.2,0.8","",""
"","html-keyboard-response","50","44090","0.0-72.0","3IAEQB9FMF6YL1JQ3YLYBUIYU86WDZ","A3AJR1PM02424Y","3FW4EL5A3LANKRP91N782LFHPY722Q","","null","<img src=""img/land5.png"" style=""width:200px;border:14px solid red;"">","null","","","","","","","",""
"","image-keyboard-response","51","44888","0.0-74.0","3IAEQB9FMF6YL1JQ3YLYBUIYU86WDZ","A3AJR1PM02424Y","3FW4EL5A3LANKRP91N782LFHPY722Q","","795.3999999761581","img/land7.png","74","796.7999999523163","1","1","false","1","0.8,0.2,0.2,0.2,0.8,0.2,0.2,0.2,0.8","",""
"","html-keyboard-response","52","45193","0.0-75.0","3IAEQB9FMF6YL1JQ3YLYBUIYU86WDZ","A3AJR1PM02424Y","3FW4EL5A3LANKRP91N782LFHPY722Q","","null","<img src=""img/land7.png"" style=""width:200px; border:14px solid green;"">","null","","","","","","","",""
"","image-keyboard-response","53","45594","0.0-77.0","3IAEQB9FMF6YL1JQ3YLYBUIYU86WDZ","A3AJR1PM02424Y","3FW4EL5A3LANKRP91N782LFHPY722Q","","398.39999997615814","img/land7.png","74","400.10000002384186","1","1","false","1","0.8,0.2,0.2,0.2,0.8,0.2,0.2,0.2,0.8","",""
"","html-keyboard-response","54","45902","0.0-78.0","3IAEQB9FMF6YL1JQ3YLYBUIYU86WDZ","A3AJR1PM02424Y","3FW4EL5A3LANKRP91N782LFHPY722Q","","null","<img src=""img/land7.png"" style=""width:200px; border:14px solid green;"">","null","","","","","","","",""
"","image-keyboard-response","55","46715","0.0-80.0","3IAEQB9FMF6YL1JQ3YLYBUIYU86WDZ","A3AJR1PM02424Y","3FW4EL5A3LANKRP91N782LFHPY722Q","","811.3000000715256","img/land5.png","76","813.1000000238419","3","1","false","3","0.8,0.2,0.2,0.2,0.8,0.2,0.2,0.2,0.8","",""
"","html-keyboard-response","56","47025","0.0-81.0","3IAEQB9FMF6YL1JQ3YLYBUIYU86WDZ","A3AJR1PM02424Y","3FW4EL5A3LANKRP91N782LFHPY722Q","","null","<img src=""img/land5.png"" style=""width:200px; border:14px solid green;"">","null","","","","","","","",""
"","image-keyboard-response","57","47482","0.0-83.0","3IAEQB9FMF6YL1JQ3YLYBUIYU86WDZ","A3AJR1PM02424Y","3FW4EL5A3LANKRP91N782LFHPY722Q","","455.2999999523163","img/land5.png","76","456.90000009536743","3","0","false","3","0.8,0.2,0.2,0.2,0.8,0.2,0.2,0.2,0.8","",""
"","html-keyboard-response","58","47794","0.0-84.0","3IAEQB9FMF6YL1JQ3YLYBUIYU86WDZ","A3AJR1PM02424Y","3FW4EL5A3LANKRP91N782LFHPY722Q","","null","<img src=""img/land5.png"" style=""width:200px;border:14px solid red;"">","null","","","","","","","",""
"","image-keyboard-response","59","48104","0.0-86.0","3IAEQB9FMF6YL1JQ3YLYBUIYU86WDZ","A3AJR1PM02424Y","3FW4EL5A3LANKRP91N782LFHPY722Q","","308.2000000476837","img/land5.png","76","309.59999990463257","3","1","false","3","0.8,0.2,0.2,0.2,0.8,0.2,0.2,0.2,0.8","",""
"","html-keyboard-response","60","48406","0.0-87.0","3IAEQB9FMF6YL1JQ3YLYBUIYU86WDZ","A3AJR1PM02424Y","3FW4EL5A3LANKRP91N782LFHPY722Q","","null","<img src=""img/land5.png"" style=""width:200px; border:14px solid green;"">","null","","","","","","","",""
"","image-keyboard-response","61","48996","0.0-89.0","3IAEQB9FMF6YL1JQ3YLYBUIYU86WDZ","A3AJR1PM02424Y","3FW4EL5A3LANKRP91N782LFHPY722Q","","587.2000000476837","img/land8.png","75","588.7999999523163","2","1","false","2","0.8,0.2,0.2,0.2,0.8,0.2,0.2,0.2,0.8","",""
"","html-keyboard-response","62","49299","0.0-90.0","3IAEQB9FMF6YL1JQ3YLYBUIYU86WDZ","A3AJR1PM02424Y","3FW4EL5A3LANKRP91N782LFHPY722Q","","null","<img src=""img/land8.png"" style=""width:200px; border:14px solid green;"">","null","","","","","","","",""
"","image-keyboard-response","63","49947","0.0-92.0","3IAEQB9FMF6YL1JQ3YLYBUIYU86WDZ","A3AJR1PM02424Y","3FW4EL5A3LANKRP91N782LFHPY722Q","","646.3999999761581","img/land7.png","74","647.7999999523163","1","1","false","1","0.8,0.2,0.2,0.2,0.8,0.2,0.2,0.2,0.8","",""
"","html-keyboard-response","64","50262","0.0-93.0","3IAEQB9FMF6YL1JQ3YLYBUIYU86WDZ","A3AJR1PM02424Y","3FW4EL5A3LANKRP91N782LFHPY722Q","","null","<img src=""img/land7.png"" style=""width:200px; border:14px solid green;"">","null","","","","","","","",""
"","image-keyboard-response","65","50879","0.0-95.0","3IAEQB9FMF6YL1JQ3YLYBUIYU86WDZ","A3AJR1PM02424Y","3FW4EL5A3LANKRP91N782LFHPY722Q","","614.6000000238419","img/land7.png","74","616.1999999284744","1","1","false","1","0.8,0.2,0.2,0.2,0.8,0.2,0.2,0.2,0.8","",""
"","html-keyboard-response","66","51188","0.0-96.0","3IAEQB9FMF6YL1JQ3YLYBUIYU86WDZ","A3AJR1PM02424Y","3FW4EL5A3LANKRP91N782LFHPY722Q","","null","<img src=""img/land7.png"" style=""width:200px; border:14px solid green;"">","null","","","","","","","",""
"","image-keyboard-response","67","51570","0.0-98.0","3IAEQB9FMF6YL1JQ3YLYBUIYU86WDZ","A3AJR1PM02424Y","3FW4EL5A3LANKRP91N782LFHPY722Q","","380.5","img/land7.png","74","381.89999997615814","1","1","false","1","0.8,0.2,0.2,0.2,0.8,0.2,0.2,0.2,0.8","",""
"","html-keyboard-response","68","51876","0.0-99.0","3IAEQB9FMF6YL1JQ3YLYBUIYU86WDZ","A3AJR1PM02424Y","3FW4EL5A3LANKRP91N782LFHPY722Q","","null","<img src=""img/land7.png"" style=""width:200px; border:14px solid green;"">","null","","","","","","","",""
"","image-keyboard-response","69","52462","0.0-101.0","3IAEQB9FMF6YL1JQ3YLYBUIYU86WDZ","A3AJR1PM02424Y","3FW4EL5A3LANKRP91N782LFHPY722Q","","583.5999999046326","img/land5.png","76","584.8999999761581","3","1","false","3","0.8,0.2,0.2,0.2,0.8,0.2,0.2,0.2,0.8","",""
"","html-keyboard-response","70","52772","0.0-102.0","3IAEQB9FMF6YL1JQ3YLYBUIYU86WDZ","A3AJR1PM02424Y","3FW4EL5A3LANKRP91N782LFHPY722Q","","null","<img src=""img/land5.png"" style=""width:200px; border:14px solid green;"">","null","","","","","","","",""
"","image-keyboard-response","71","53349","0.0-104.0","3IAEQB9FMF6YL1JQ3YLYBUIYU86WDZ","A3AJR1PM02424Y","3FW4EL5A3LANKRP91N782LFHPY722Q","","575.1000000238419","img/land7.png","74","576.6000000238419","1","1","false","1","0.8,0.2,0.2,0.2,0.8,0.2,0.2,0.2,0.8","",""
"","html-keyboard-response","72","53655","0.0-105.0","3IAEQB9FMF6YL1JQ3YLYBUIYU86WDZ","A3AJR1PM02424Y","3FW4EL5A3LANKRP91N782LFHPY722Q","","null","<img src=""img/land7.png"" style=""width:200px; border:14px solid green;"">","null","","","","","","","",""
"","image-keyboard-response","73","54277","0.0-107.0","3IAEQB9FMF6YL1JQ3YLYBUIYU86WDZ","A3AJR1PM02424Y","3FW4EL5A3LANKRP91N782LFHPY722Q","","619.2000000476837","img/land5.png","76","620.7999999523163","3","1","false","3","0.8,0.2,0.2,0.2,0.8,0.2,0.2,0.2,0.8","",""
"","html-keyboard-response","74","54587","0.0-108.0","3IAEQB9FMF6YL1JQ3YLYBUIYU86WDZ","A3AJR1PM02424Y","3FW4EL5A3LANKRP91N782LFHPY722Q","","null","<img src=""img/land5.png"" style=""width:200px; border:14px solid green;"">","null","","","","","","","",""
"","image-keyboard-response","75","55232","0.0-110.0","3IAEQB9FMF6YL1JQ3YLYBUIYU86WDZ","A3AJR1PM02424Y","3FW4EL5A3LANKRP91N782LFHPY722Q","","642.1000000238419","img/land8.png","75","644.0999999046326","2","1","false","2","0.8,0.2,0.2,0.2,0.8,0.2,0.2,0.2,0.8","",""
"","html-keyboard-response","76","55540","0.0-111.0","3IAEQB9FMF6YL1JQ3YLYBUIYU86WDZ","A3AJR1PM02424Y","3FW4EL5A3LANKRP91N782LFHPY722Q","","null","<img src=""img/land8.png"" style=""width:200px; border:14px solid green;"">","null","","","","","","","",""
"","image-keyboard-response","77","56170","0.0-113.0","3IAEQB9FMF6YL1JQ3YLYBUIYU86WDZ","A3AJR1PM02424Y","3FW4EL5A3LANKRP91N782LFHPY722Q","","628.7999999523163","img/land5.png","76","630.2000000476837","3","0","false","3","0.8,0.2,0.2,0.2,0.8,0.2,0.2,0.2,0.8","",""
"","html-keyboard-response","78","56475","0.0-114.0","3IAEQB9FMF6YL1JQ3YLYBUIYU86WDZ","A3AJR1PM02424Y","3FW4EL5A3LANKRP91N782LFHPY722Q","","null","<img src=""img/land5.png"" style=""width:200px;border:14px solid red;"">","null","","","","","","","",""
"","image-keyboard-response","79","57013","0.0-116.0","3IAEQB9FMF6YL1JQ3YLYBUIYU86WDZ","A3AJR1PM02424Y","3FW4EL5A3LANKRP91N782LFHPY722Q","","534.8000000715256","img/land7.png","74","537.3999999761581","1","1","false","1","0.8,0.2,0.2,0.2,0.8,0.2,0.2,0.2,0.8","",""
"","html-keyboard-response","80","57320","0.0-117.0","3IAEQB9FMF6YL1JQ3YLYBUIYU86WDZ","A3AJR1PM02424Y","3FW4EL5A3LANKRP91N782LFHPY722Q","","null","<img src=""img/land7.png"" style=""width:200px; border:14px solid green;"">","null","","","","","","","",""
"","image-keyboard-response","81","58114","0.0-119.0","3IAEQB9FMF6YL1JQ3YLYBUIYU86WDZ","A3AJR1PM02424Y","3FW4EL5A3LANKRP91N782LFHPY722Q","","792.3000000715256","img/land8.png","75","793.6000000238419","2","1","false","2","0.8,0.2,0.2,0.2,0.8,0.2,0.2,0.2,0.8","",""
"","html-keyboard-response","82","58424","0.0-120.0","3IAEQB9FMF6YL1JQ3YLYBUIYU86WDZ","A3AJR1PM02424Y","3FW4EL5A3LANKRP91N782LFHPY722Q","","null","<img src=""img/land8.png"" style=""width:200px; border:14px solid green;"">","null","","","","","","","",""
"","image-keyboard-response","83","58847","0.0-122.0","3IAEQB9FMF6YL1JQ3YLYBUIYU86WDZ","A3AJR1PM02424Y","3FW4EL5A3LANKRP91N782LFHPY722Q","","420.60000002384186","img/land8.png","75","422.6999999284744","2","1","false","2","0.8,0.2,0.2,0.2,0.8,0.2,0.2,0.2,0.8","",""
"","html-keyboard-response","84","59158","0.0-123.0","3IAEQB9FMF6YL1JQ3YLYBUIYU86WDZ","A3AJR1PM02424Y","3FW4EL5A3LANKRP91N782LFHPY722Q","","null","<img src=""img/land8.png"" style=""width:200px; border:14px solid green;"">","null","","","","","","","",""
"","image-keyboard-response","85","59672","0.0-125.0","3IAEQB9FMF6YL1JQ3YLYBUIYU86WDZ","A3AJR1PM02424Y","3FW4EL5A3LANKRP91N782LFHPY722Q","","510.7999999523163","img/land5.png","76","513","3","0","false","3","0.8,0.2,0.2,0.2,0.8,0.2,0.2,0.2,0.8","",""
"","html-keyboard-response","86","59983","0.0-126.0","3IAEQB9FMF6YL1JQ3YLYBUIYU86WDZ","A3AJR1PM02424Y","3FW4EL5A3LANKRP91N782LFHPY722Q","","null","<img src=""img/land5.png"" style=""width:200px;border:14px solid red;"">","null","","","","","","","",""
"","image-keyboard-response","87","60359","0.0-128.0","3IAEQB9FMF6YL1JQ3YLYBUIYU86WDZ","A3AJR1PM02424Y","3FW4EL5A3LANKRP91N782LFHPY722Q","","374.39999997615814","img/land5.png","76","375.7000000476837","3","1","false","3","0.8,0.2,0.2,0.2,0.8,0.2,0.2,0.2,0.8","",""
"","html-keyboard-response","88","60666","0.0-129.0","3IAEQB9FMF6YL1JQ3YLYBUIYU86WDZ","A3AJR1PM02424Y","3FW4EL5A3LANKRP91N782LFHPY722Q","","null","<img src=""img/land5.png"" style=""width:200px; border:14px solid green;"">","null","","","","","","","",""
"","image-keyboard-response","89","61074","0.0-131.0","3IAEQB9FMF6YL1JQ3YLYBUIYU86WDZ","A3AJR1PM02424Y","3FW4EL5A3LANKRP91N782LFHPY722Q","","405.3000000715256","img/land5.png","76","407.1999999284744","3","1","false","3","0.8,0.2,0.2,0.2,0.8,0.2,0.2,0.2,0.8","",""
"","html-keyboard-response","90","61379","0.0-132.0","3IAEQB9FMF6YL1JQ3YLYBUIYU86WDZ","A3AJR1PM02424Y","3FW4EL5A3LANKRP91N782LFHPY722Q","","null","<img src=""img/land5.png"" style=""width:200px; border:14px solid green;"">","null","","","","","","","",""
"","image-keyboard-response","91","61933","0.0-134.0","3IAEQB9FMF6YL1JQ3YLYBUIYU86WDZ","A3AJR1PM02424Y","3FW4EL5A3LANKRP91N782LFHPY722Q","","551.1999999284744","img/land8.png","75","553","2","1","false","2","0.8,0.2,0.2,0.2,0.8,0.2,0.2,0.2,0.8","",""
"","html-keyboard-response","92","62250","0.0-135.0","3IAEQB9FMF6YL1JQ3YLYBUIYU86WDZ","A3AJR1PM02424Y","3FW4EL5A3LANKRP91N782LFHPY722Q","","null","<img src=""img/land8.png"" style=""width:200px; border:14px solid green;"">","null","","","","","","","",""
"","image-keyboard-response","93","62968","0.0-137.0","3IAEQB9FMF6YL1JQ3YLYBUIYU86WDZ","A3AJR1PM02424Y","3FW4EL5A3LANKRP91N782LFHPY722Q","","714.2999999523163","img/land5.png","76","716.8999999761581","3","0","false","3","0.8,0.2,0.2,0.2,0.8,0.2,0.2,0.2,0.8","",""
"","html-keyboard-response","94","63273","0.0-138.0","3IAEQB9FMF6YL1JQ3YLYBUIYU86WDZ","A3AJR1PM02424Y","3FW4EL5A3LANKRP91N782LFHPY722Q","","null","<img src=""img/land5.png"" style=""width:200px;border:14px solid red;"">","null","","","","","","","",""
"","image-keyboard-response","95","63869","0.0-140.0","3IAEQB9FMF6YL1JQ3YLYBUIYU86WDZ","A3AJR1PM02424Y","3FW4EL5A3LANKRP91N782LFHPY722Q","","594.5","img/land7.png","74","596.3999999761581","1","1","false","1","0.8,0.2,0.2,0.2,0.8,0.2,0.2,0.2,0.8","",""
"","html-keyboard-response","96","64178","0.0-141.0","3IAEQB9FMF6YL1JQ3YLYBUIYU86WDZ","A3AJR1PM02424Y","3FW4EL5A3LANKRP91N782LFHPY722Q","","null","<img src=""img/land7.png"" style=""width:200px; border:14px solid green;"">","null","","","","","","","",""
"","image-keyboard-response","97","64864","0.0-143.0","3IAEQB9FMF6YL1JQ3YLYBUIYU86WDZ","A3AJR1PM02424Y","3FW4EL5A3LANKRP91N782LFHPY722Q","","685.2000000476837","img/land8.png","75","686.5","2","0","false","2","0.8,0.2,0.2,0.2,0.8,0.2,0.2,0.2,0.8","",""
"","html-keyboard-response","98","65174","0.0-144.0","3IAEQB9FMF6YL1JQ3YLYBUIYU86WDZ","A3AJR1PM02424Y","3FW4EL5A3LANKRP91N782LFHPY722Q","","null","<img src=""img/land8.png"" style=""width:200px;border:14px solid red;"">","null","","","","","","","",""
"","image-keyboard-response","99","65547","0.0-146.0","3IAEQB9FMF6YL1JQ3YLYBUIYU86WDZ","A3AJR1PM02424Y","3FW4EL5A3LANKRP91N782LFHPY722Q","","370.8000000715256","img/land8.png","75","372.09999990463257","2","1","false","2","0.8,0.2,0.2,0.2,0.8,0.2,0.2,0.2,0.8","",""
"","html-keyboard-response","100","65851","0.0-147.0","3IAEQB9FMF6YL1JQ3YLYBUIYU86WDZ","A3AJR1PM02424Y","3FW4EL5A3LANKRP91N782LFHPY722Q","","null","<img src=""img/land8.png"" style=""width:200px; border:14px solid green;"">","null","","","","","","","",""
"","image-keyboard-response","101","66222","0.0-149.0","3IAEQB9FMF6YL1JQ3YLYBUIYU86WDZ","A3AJR1PM02424Y","3FW4EL5A3LANKRP91N782LFHPY722Q","","369.2999999523163","img/land8.png","75","370.60000002384186","2","0","false","2","0.8,0.2,0.2,0.2,0.8,0.2,0.2,0.2,0.8","",""
"","html-keyboard-response","102","66534","0.0-150.0","3IAEQB9FMF6YL1JQ3YLYBUIYU86WDZ","A3AJR1PM02424Y","3FW4EL5A3LANKRP91N782LFHPY722Q","","null","<img src=""img/land8.png"" style=""width:200px;border:14px solid red;"">","null","","","","","","","",""
"","image-keyboard-response","103","66925","0.0-152.0","3IAEQB9FMF6YL1JQ3YLYBUIYU86WDZ","A3AJR1PM02424Y","3FW4EL5A3LANKRP91N782LFHPY722Q","","389.60000002384186","img/land8.png","75","391.39999997615814","2","1","false","2","0.8,0.2,0.2,0.2,0.8,0.2,0.2,0.2,0.8","",""
"","html-keyboard-response","104","67230","0.0-153.0","3IAEQB9FMF6YL1JQ3YLYBUIYU86WDZ","A3AJR1PM02424Y","3FW4EL5A3LANKRP91N782LFHPY722Q","","null","<img src=""img/land8.png"" style=""width:200px; border:14px solid green;"">","null","","","","","","","",""
"","image-keyboard-response","105","67965","0.0-155.0","3IAEQB9FMF6YL1JQ3YLYBUIYU86WDZ","A3AJR1PM02424Y","3FW4EL5A3LANKRP91N782LFHPY722Q","","733","img/land5.png","76","734.1999999284744","3","0","false","3","0.8,0.2,0.2,0.2,0.8,0.2,0.2,0.2,0.8","",""
"","html-keyboard-response","106","68271","0.0-156.0","3IAEQB9FMF6YL1JQ3YLYBUIYU86WDZ","A3AJR1PM02424Y","3FW4EL5A3LANKRP91N782LFHPY722Q","","null","<img src=""img/land5.png"" style=""width:200px;border:14px solid red;"">","null","","","","","","","",""
"","image-keyboard-response","107","68866","0.0-158.0","3IAEQB9FMF6YL1JQ3YLYBUIYU86WDZ","A3AJR1PM02424Y","3FW4EL5A3LANKRP91N782LFHPY722Q","","593.5999999046326","img/land7.png","74","594.8999999761581","1","1","false","1","0.8,0.2,0.2,0.2,0.8,0.2,0.2,0.2,0.8","",""
"","html-keyboard-response","108","69171","0.0-159.0","3IAEQB9FMF6YL1JQ3YLYBUIYU86WDZ","A3AJR1PM02424Y","3FW4EL5A3LANKRP91N782LFHPY722Q","","null","<img src=""img/land7.png"" style=""width:200px; border:14px solid green;"">","null","","","","","","","",""
"","image-keyboard-response","109","69960","0.0-161.0","3IAEQB9FMF6YL1JQ3YLYBUIYU86WDZ","A3AJR1PM02424Y","3FW4EL5A3LANKRP91N782LFHPY722Q","","786.2000000476837","img/land8.png","75","788.2999999523163","2","0","false","2","0.8,0.2,0.2,0.2,0.8,0.2,0.2,0.2,0.8","",""
"","html-keyboard-response","110","70271","0.0-162.0","3IAEQB9FMF6YL1JQ3YLYBUIYU86WDZ","A3AJR1PM02424Y","3FW4EL5A3LANKRP91N782LFHPY722Q","","null","<img src=""img/land8.png"" style=""width:200px;border:14px solid red;"">","null","","","","","","","",""
"","image-keyboard-response","111","70722","0.0-164.0","3IAEQB9FMF6YL1JQ3YLYBUIYU86WDZ","A3AJR1PM02424Y","3FW4EL5A3LANKRP91N782LFHPY722Q","","447","img/land8.png","75","449.10000002384186","2","0","false","2","0.8,0.2,0.2,0.2,0.8,0.2,0.2,0.2,0.8","",""
"","html-keyboard-response","112","71031","0.0-165.0","3IAEQB9FMF6YL1JQ3YLYBUIYU86WDZ","A3AJR1PM02424Y","3FW4EL5A3LANKRP91N782LFHPY722Q","","null","<img src=""img/land8.png"" style=""width:200px;border:14px solid red;"">","null","","","","","","","",""
"","image-keyboard-response","113","71932","0.0-167.0","3IAEQB9FMF6YL1JQ3YLYBUIYU86WDZ","A3AJR1PM02424Y","3FW4EL5A3LANKRP91N782LFHPY722Q","","899.8999999761581","img/land5.png","76","901.3000000715256","3","1","false","3","0.8,0.2,0.2,0.2,0.8,0.2,0.2,0.2,0.8","",""
"","html-keyboard-response","114","72248","0.0-168.0","3IAEQB9FMF6YL1JQ3YLYBUIYU86WDZ","A3AJR1PM02424Y","3FW4EL5A3LANKRP91N782LFHPY722Q","","null","<img src=""img/land5.png"" style=""width:200px; border:14px solid green;"">","null","","","","","","","",""
"","image-keyboard-response","115","72770","0.0-170.0","3IAEQB9FMF6YL1JQ3YLYBUIYU86WDZ","A3AJR1PM02424Y","3FW4EL5A3LANKRP91N782LFHPY722Q","","519.7999999523163","img/land7.png","74","521","1","1","false","1","0.8,0.2,0.2,0.2,0.8,0.2,0.2,0.2,0.8","",""
"","html-keyboard-response","116","73074","0.0-171.0","3IAEQB9FMF6YL1JQ3YLYBUIYU86WDZ","A3AJR1PM02424Y","3FW4EL5A3LANKRP91N782LFHPY722Q","","null","<img src=""img/land7.png"" style=""width:200px; border:14px solid green;"">","null","","","","","","","",""
"","image-keyboard-response","117","74081","0.0-173.0","3IAEQB9FMF6YL1JQ3YLYBUIYU86WDZ","A3AJR1PM02424Y","3FW4EL5A3LANKRP91N782LFHPY722Q","","","img/land5.png","","1005.2999999523163","-1","0","true","3","0.8,0.2,0.2,0.2,0.8,0.2,0.2,0.2,0.8","",""
"","html-keyboard-response","118","74388","0.0-174.0","3IAEQB9FMF6YL1JQ3YLYBUIYU86WDZ","A3AJR1PM02424Y","3FW4EL5A3LANKRP91N782LFHPY722Q","","null","<img src=""img/land5.png"" style=""width:200px;border:14px solid red;"">","null","","","","","","","",""
"","html-keyboard-response","119","77813","0.0-175.0-0.0","3IAEQB9FMF6YL1JQ3YLYBUIYU86WDZ","A3AJR1PM02424Y","3FW4EL5A3LANKRP91N782LFHPY722Q","","","","","","","","","","","",""
"","image-keyboard-response","120","78488","0.0-176.0","3IAEQB9FMF6YL1JQ3YLYBUIYU86WDZ","A3AJR1PM02424Y","3FW4EL5A3LANKRP91N782LFHPY722Q","","673.5","img/land8.png","75","675","2","1","false","2","0.8,0.2,0.2,0.2,0.8,0.2,0.2,0.2,0.8","",""
"","html-keyboard-response","121","78793","0.0-177.0","3IAEQB9FMF6YL1JQ3YLYBUIYU86WDZ","A3AJR1PM02424Y","3FW4EL5A3LANKRP91N782LFHPY722Q","","null","<img src=""img/land8.png"" style=""width:200px; border:14px solid green;"">","null","","","","","","","",""
"","image-keyboard-response","122","79344","0.0-179.0","3IAEQB9FMF6YL1JQ3YLYBUIYU86WDZ","A3AJR1PM02424Y","3FW4EL5A3LANKRP91N782LFHPY722Q","","549.6000000238419","img/land7.png","74","551","1","1","false","1","0.8,0.2,0.2,0.2,0.8,0.2,0.2,0.2,0.8","",""
"","html-keyboard-response","123","79659","0.0-180.0","3IAEQB9FMF6YL1JQ3YLYBUIYU86WDZ","A3AJR1PM02424Y","3FW4EL5A3LANKRP91N782LFHPY722Q","","null","<img src=""img/land7.png"" style=""width:200px; border:14px solid green;"">","null","","","","","","","",""
"","image-keyboard-response","124","80110","0.0-182.0","3IAEQB9FMF6YL1JQ3YLYBUIYU86WDZ","A3AJR1PM02424Y","3FW4EL5A3LANKRP91N782LFHPY722Q","","449.1999999284744","img/land7.png","74","451.2000000476837","1","1","false","1","0.8,0.2,0.2,0.2,0.8,0.2,0.2,0.2,0.8","",""
"","html-keyboard-response","125","80414","0.0-183.0","3IAEQB9FMF6YL1JQ3YLYBUIYU86WDZ","A3AJR1PM02424Y","3FW4EL5A3LANKRP91N782LFHPY722Q","","null","<img src=""img/land7.png"" style=""width:200px; border:14px solid green;"">","null","","","","","","","",""
"","image-keyboard-response","126","80797","0.0-185.0","3IAEQB9FMF6YL1JQ3YLYBUIYU86WDZ","A3AJR1PM02424Y","3FW4EL5A3LANKRP91N782LFHPY722Q","","381.10000002384186","img/land7.png","74","382.59999990463257","1","1","false","1","0.8,0.2,0.2,0.2,0.8,0.2,0.2,0.2,0.8","",""
"","html-keyboard-response","127","81103","0.0-186.0","3IAEQB9FMF6YL1JQ3YLYBUIYU86WDZ","A3AJR1PM02424Y","3FW4EL5A3LANKRP91N782LFHPY722Q","","null","<img src=""img/land7.png"" style=""width:200px; border:14px solid green;"">","null","","","","","","","",""
"","image-keyboard-response","128","81563","0.0-188.0","3IAEQB9FMF6YL1JQ3YLYBUIYU86WDZ","A3AJR1PM02424Y","3FW4EL5A3LANKRP91N782LFHPY722Q","","458.7999999523163","img/land5.png","76","460.2000000476837","3","1","false","3","0.8,0.2,0.2,0.2,0.8,0.2,0.2,0.2,0.8","",""
"","html-keyboard-response","129","81873","0.0-189.0","3IAEQB9FMF6YL1JQ3YLYBUIYU86WDZ","A3AJR1PM02424Y","3FW4EL5A3LANKRP91N782LFHPY722Q","","null","<img src=""img/land5.png"" style=""width:200px; border:14px solid green;"">","null","","","","","","","",""
"","image-keyboard-response","130","82360","0.0-191.0","3IAEQB9FMF6YL1JQ3YLYBUIYU86WDZ","A3AJR1PM02424Y","3FW4EL5A3LANKRP91N782LFHPY722Q","","485.10000002384186","img/land8.png","75","486.39999997615814","2","0","false","2","0.8,0.2,0.2,0.2,0.8,0.2,0.2,0.2,0.8","",""
"","html-keyboard-response","131","82674","0.0-192.0","3IAEQB9FMF6YL1JQ3YLYBUIYU86WDZ","A3AJR1PM02424Y","3FW4EL5A3LANKRP91N782LFHPY722Q","","null","<img src=""img/land8.png"" style=""width:200px;border:14px solid red;"">","null","","","","","","","",""
"","image-keyboard-response","132","83148","0.0-194.0","3IAEQB9FMF6YL1JQ3YLYBUIYU86WDZ","A3AJR1PM02424Y","3FW4EL5A3LANKRP91N782LFHPY722Q","","472.2999999523163","img/land7.png","74","473.7999999523163","1","1","false","1","0.8,0.2,0.2,0.2,0.8,0.2,0.2,0.2,0.8","",""
"","html-keyboard-response","133","83456","0.0-195.0","3IAEQB9FMF6YL1JQ3YLYBUIYU86WDZ","A3AJR1PM02424Y","3FW4EL5A3LANKRP91N782LFHPY722Q","","null","<img src=""img/land7.png"" style=""width:200px; border:14px solid green;"">","null","","","","","","","",""
"","image-keyboard-response","134","83869","0.0-197.0","3IAEQB9FMF6YL1JQ3YLYBUIYU86WDZ","A3AJR1PM02424Y","3FW4EL5A3LANKRP91N782LFHPY722Q","","410.6999999284744","img/land8.png","75","412.10000002384186","2","1","false","2","0.8,0.2,0.2,0.2,0.8,0.2,0.2,0.2,0.8","",""
"","html-keyboard-response","135","84177","0.0-198.0","3IAEQB9FMF6YL1JQ3YLYBUIYU86WDZ","A3AJR1PM02424Y","3FW4EL5A3LANKRP91N782LFHPY722Q","","null","<img src=""img/land8.png"" style=""width:200px; border:14px solid green;"">","null","","","","","","","",""
"","image-keyboard-response","136","84544","0.0-200.0","3IAEQB9FMF6YL1JQ3YLYBUIYU86WDZ","A3AJR1PM02424Y","3FW4EL5A3LANKRP91N782LFHPY722Q","","365.2999999523163","img/land8.png","75","366.6999999284744","2","1","false","2","0.8,0.2,0.2,0.2,0.8,0.2,0.2,0.2,0.8","",""
"","html-keyboard-response","137","84846","0.0-201.0","3IAEQB9FMF6YL1JQ3YLYBUIYU86WDZ","A3AJR1PM02424Y","3FW4EL5A3LANKRP91N782LFHPY722Q","","null","<img src=""img/land8.png"" style=""width:200px; border:14px solid green;"">","null","","","","","","","",""
"","image-keyboard-response","138","85296","0.0-203.0","3IAEQB9FMF6YL1JQ3YLYBUIYU86WDZ","A3AJR1PM02424Y","3FW4EL5A3LANKRP91N782LFHPY722Q","","447.39999997615814","img/land7.png","74","448.6999999284744","1","0","false","1","0.8,0.2,0.2,0.2,0.8,0.2,0.2,0.2,0.8","",""
"","html-keyboard-response","139","85606","0.0-204.0","3IAEQB9FMF6YL1JQ3YLYBUIYU86WDZ","A3AJR1PM02424Y","3FW4EL5A3LANKRP91N782LFHPY722Q","","null","<img src=""img/land7.png"" style=""width:200px;border:14px solid red;"">","null","","","","","","","",""
"","image-keyboard-response","140","86187","0.0-206.0","3IAEQB9FMF6YL1JQ3YLYBUIYU86WDZ","A3AJR1PM02424Y","3FW4EL5A3LANKRP91N782LFHPY722Q","","579.5","img/land8.png","75","580.7999999523163","2","1","false","2","0.8,0.2,0.2,0.2,0.8,0.2,0.2,0.2,0.8","",""
"","html-keyboard-response","141","86490","0.0-207.0","3IAEQB9FMF6YL1JQ3YLYBUIYU86WDZ","A3AJR1PM02424Y","3FW4EL5A3LANKRP91N782LFHPY722Q","","null","<img src=""img/land8.png"" style=""width:200px; border:14px solid green;"">","null","","","","","","","",""
"","image-keyboard-response","142","86920","0.0-209.0","3IAEQB9FMF6YL1JQ3YLYBUIYU86WDZ","A3AJR1PM02424Y","3FW4EL5A3LANKRP91N782LFHPY722Q","","427.89999997615814","img/land5.png","76","429.39999997615814","3","1","false","3","0.8,0.2,0.2,0.2,0.8,0.2,0.2,0.2,0.8","",""
"","html-keyboard-response","143","87238","0.0-210.0","3IAEQB9FMF6YL1JQ3YLYBUIYU86WDZ","A3AJR1PM02424Y","3FW4EL5A3LANKRP91N782LFHPY722Q","","null","<img src=""img/land5.png"" style=""width:200px; border:14px solid green;"">","null","","","","","","","",""
"","image-keyboard-response","144","87791","0.0-212.0","3IAEQB9FMF6YL1JQ3YLYBUIYU86WDZ","A3AJR1PM02424Y","3FW4EL5A3LANKRP91N782LFHPY722Q","","550.2999999523163","img/land7.png","74","551.7999999523163","1","1","false","1","0.8,0.2,0.2,0.2,0.8,0.2,0.2,0.2,0.8","",""
"","html-keyboard-response","145","88102","0.0-213.0","3IAEQB9FMF6YL1JQ3YLYBUIYU86WDZ","A3AJR1PM02424Y","3FW4EL5A3LANKRP91N782LFHPY722Q","","null","<img src=""img/land7.png"" style=""width:200px; border:14px solid green;"">","null","","","","","","","",""
"","image-keyboard-response","146","88492","0.0-215.0","3IAEQB9FMF6YL1JQ3YLYBUIYU86WDZ","A3AJR1PM02424Y","3FW4EL5A3LANKRP91N782LFHPY722Q","","388.3000000715256","img/land7.png","74","389.89999997615814","1","1","false","1","0.8,0.2,0.2,0.2,0.8,0.2,0.2,0.2,0.8","",""
"","html-keyboard-response","147","88794","0.0-216.0","3IAEQB9FMF6YL1JQ3YLYBUIYU86WDZ","A3AJR1PM02424Y","3FW4EL5A3LANKRP91N782LFHPY722Q","","null","<img src=""img/land7.png"" style=""width:200px; border:14px solid green;"">","null","","","","","","","",""
"","image-keyboard-response","148","89176","0.0-218.0","3IAEQB9FMF6YL1JQ3YLYBUIYU86WDZ","A3AJR1PM02424Y","3FW4EL5A3LANKRP91N782LFHPY722Q","","380.1999999284744","img/land8.png","75","381.5","2","1","false","2","0.8,0.2,0.2,0.2,0.8,0.2,0.2,0.2,0.8","",""
"","html-keyboard-response","149","89492","0.0-219.0","3IAEQB9FMF6YL1JQ3YLYBUIYU86WDZ","A3AJR1PM02424Y","3FW4EL5A3LANKRP91N782LFHPY722Q","","null","<img src=""img/land8.png"" style=""width:200px; border:14px solid green;"">","null","","","","","","","",""
"","image-keyboard-response","150","90092","0.0-221.0","3IAEQB9FMF6YL1JQ3YLYBUIYU86WDZ","A3AJR1PM02424Y","3FW4EL5A3LANKRP91N782LFHPY722Q","","598.1999999284744","img/land7.png","74","599.7000000476837","1","0","false","1","0.8,0.2,0.2,0.2,0.8,0.2,0.2,0.2,0.8","",""
"","html-keyboard-response","151","90395","0.0-222.0","3IAEQB9FMF6YL1JQ3YLYBUIYU86WDZ","A3AJR1PM02424Y","3FW4EL5A3LANKRP91N782LFHPY722Q","","null","<img src=""img/land7.png"" style=""width:200px;border:14px solid red;"">","null","","","","","","","",""
"","image-keyboard-response","152","90994","0.0-224.0","3IAEQB9FMF6YL1JQ3YLYBUIYU86WDZ","A3AJR1PM02424Y","3FW4EL5A3LANKRP91N782LFHPY722Q","","596.6000000238419","img/land8.png","75","598.1999999284744","2","1","false","2","0.8,0.2,0.2,0.2,0.8,0.2,0.2,0.2,0.8","",""
"","html-keyboard-response","153","91296","0.0-225.0","3IAEQB9FMF6YL1JQ3YLYBUIYU86WDZ","A3AJR1PM02424Y","3FW4EL5A3LANKRP91N782LFHPY722Q","","null","<img src=""img/land8.png"" style=""width:200px; border:14px solid green;"">","null","","","","","","","",""
"","image-keyboard-response","154","91760","0.0-227.0","3IAEQB9FMF6YL1JQ3YLYBUIYU86WDZ","A3AJR1PM02424Y","3FW4EL5A3LANKRP91N782LFHPY722Q","","462","img/land8.png","75","463.5","2","1","false","2","0.8,0.2,0.2,0.2,0.8,0.2,0.2,0.2,0.8","",""
"","html-keyboard-response","155","92071","0.0-228.0","3IAEQB9FMF6YL1JQ3YLYBUIYU86WDZ","A3AJR1PM02424Y","3FW4EL5A3LANKRP91N782LFHPY722Q","","null","<img src=""img/land8.png"" style=""width:200px; border:14px solid green;"">","null","","","","","","","",""
"","image-keyboard-response","156","92573","0.0-230.0","3IAEQB9FMF6YL1JQ3YLYBUIYU86WDZ","A3AJR1PM02424Y","3FW4EL5A3LANKRP91N782LFHPY722Q","","500","img/land7.png","74","501.7000000476837","1","1","false","1","0.8,0.2,0.2,0.2,0.8,0.2,0.2,0.2,0.8","",""
"","html-keyboard-response","157","92880","0.0-231.0","3IAEQB9FMF6YL1JQ3YLYBUIYU86WDZ","A3AJR1PM02424Y","3FW4EL5A3LANKRP91N782LFHPY722Q","","null","<img src=""img/land7.png"" style=""width:200px; border:14px solid green;"">","null","","","","","","","",""
"","image-keyboard-response","158","93283","0.0-233.0","3IAEQB9FMF6YL1JQ3YLYBUIYU86WDZ","A3AJR1PM02424Y","3FW4EL5A3LANKRP91N782LFHPY722Q","","401.5","img/land7.png","74","403.2000000476837","1","1","false","1","0.8,0.2,0.2,0.2,0.8,0.2,0.2,0.2,0.8","",""
"","html-keyboard-response","159","93593","0.0-234.0","3IAEQB9FMF6YL1JQ3YLYBUIYU86WDZ","A3AJR1PM02424Y","3FW4EL5A3LANKRP91N782LFHPY722Q","","null","<img src=""img/land7.png"" style=""width:200px; border:14px solid green;"">","null","","","","","","","",""
"","image-keyboard-response","160","94246","0.0-236.0","3IAEQB9FMF6YL1JQ3YLYBUIYU86WDZ","A3AJR1PM02424Y","3FW4EL5A3LANKRP91N782LFHPY722Q","","651.4000000953674","img/land5.png","76","652.8999999761581","3","1","false","3","0.8,0.2,0.2,0.2,0.8,0.2,0.2,0.2,0.8","",""
"","html-keyboard-response","161","94552","0.0-237.0","3IAEQB9FMF6YL1JQ3YLYBUIYU86WDZ","A3AJR1PM02424Y","3FW4EL5A3LANKRP91N782LFHPY722Q","","null","<img src=""img/land5.png"" style=""width:200px; border:14px solid green;"">","null","","","","","","","",""
"","image-keyboard-response","162","95071","0.0-239.0","3IAEQB9FMF6YL1JQ3YLYBUIYU86WDZ","A3AJR1PM02424Y","3FW4EL5A3LANKRP91N782LFHPY722Q","","516.8999999761581","img/land7.png","74","518.8000000715256","1","1","false","1","0.8,0.2,0.2,0.2,0.8,0.2,0.2,0.2,0.8","",""
"","html-keyboard-response","163","95382","0.0-240.0","3IAEQB9FMF6YL1JQ3YLYBUIYU86WDZ","A3AJR1PM02424Y","3FW4EL5A3LANKRP91N782LFHPY722Q","","null","<img src=""img/land7.png"" style=""width:200px; border:14px solid green;"">","null","","","","","","","",""
"","image-keyboard-response","164","95929","0.0-242.0","3IAEQB9FMF6YL1JQ3YLYBUIYU86WDZ","A3AJR1PM02424Y","3FW4EL5A3LANKRP91N782LFHPY722Q","","545.3000000715256","img/land5.png","75","546.6999999284744","2","1","false","3","0.8,0.2,0.2,0.2,0.8,0.2,0.2,0.2,0.8","",""
"","html-keyboard-response","165","96237","0.0-243.0","3IAEQB9FMF6YL1JQ3YLYBUIYU86WDZ","A3AJR1PM02424Y","3FW4EL5A3LANKRP91N782LFHPY722Q","","null","<img src=""img/land5.png"" style=""width:200px; border:14px solid green;"">","null","","","","","","","",""
"","image-keyboard-response","166","96659","0.0-245.0","3IAEQB9FMF6YL1JQ3YLYBUIYU86WDZ","A3AJR1PM02424Y","3FW4EL5A3LANKRP91N782LFHPY722Q","","420.09999990463257","img/land5.png","75","421.2999999523163","2","1","false","3","0.8,0.2,0.2,0.2,0.8,0.2,0.2,0.2,0.8","",""
"","html-keyboard-response","167","96968","0.0-246.0","3IAEQB9FMF6YL1JQ3YLYBUIYU86WDZ","A3AJR1PM02424Y","3FW4EL5A3LANKRP91N782LFHPY722Q","","null","<img src=""img/land5.png"" style=""width:200px; border:14px solid green;"">","null","","","","","","","",""
"","image-keyboard-response","168","97297","0.0-248.0","3IAEQB9FMF6YL1JQ3YLYBUIYU86WDZ","A3AJR1PM02424Y","3FW4EL5A3LANKRP91N782LFHPY722Q","","327.7000000476837","img/land5.png","75","329.10000002384186","2","0","false","3","0.8,0.2,0.2,0.2,0.8,0.2,0.2,0.2,0.8","",""
"","html-keyboard-response","169","97605","0.0-249.0","3IAEQB9FMF6YL1JQ3YLYBUIYU86WDZ","A3AJR1PM02424Y","3FW4EL5A3LANKRP91N782LFHPY722Q","","null","<img src=""img/land5.png"" style=""width:200px;border:14px solid red;"">","null","","","","","","","",""
"","image-keyboard-response","170","98193","0.0-251.0","3IAEQB9FMF6YL1JQ3YLYBUIYU86WDZ","A3AJR1PM02424Y","3FW4EL5A3LANKRP91N782LFHPY722Q","","585.7999999523163","img/land8.png","75","587.2000000476837","2","0","false","2","0.8,0.2,0.2,0.2,0.8,0.2,0.2,0.2,0.8","",""
"","html-keyboard-response","171","98498","0.0-252.0","3IAEQB9FMF6YL1JQ3YLYBUIYU86WDZ","A3AJR1PM02424Y","3FW4EL5A3LANKRP91N782LFHPY722Q","","null","<img src=""img/land8.png"" style=""width:200px;border:14px solid red;"">","null","","","","","","","",""
"","image-keyboard-response","172","98855","0.0-254.0","3IAEQB9FMF6YL1JQ3YLYBUIYU86WDZ","A3AJR1PM02424Y","3FW4EL5A3LANKRP91N782LFHPY722Q","","355.2999999523163","img/land8.png","75","356.7000000476837","2","1","false","2","0.8,0.2,0.2,0.2,0.8,0.2,0.2,0.2,0.8","",""
"","html-keyboard-response","173","99161","0.0-255.0","3IAEQB9FMF6YL1JQ3YLYBUIYU86WDZ","A3AJR1PM02424Y","3FW4EL5A3LANKRP91N782LFHPY722Q","","null","<img src=""img/land8.png"" style=""width:200px; border:14px solid green;"">","null","","","","","","","",""
"","image-keyboard-response","174","99762","0.0-257.0","3IAEQB9FMF6YL1JQ3YLYBUIYU86WDZ","A3AJR1PM02424Y","3FW4EL5A3LANKRP91N782LFHPY722Q","","598.5999999046326","img/land5.png","76","599.8999999761581","3","0","false","3","0.8,0.2,0.2,0.2,0.8,0.2,0.2,0.2,0.8","",""
"","html-keyboard-response","175","100065","0.0-258.0","3IAEQB9FMF6YL1JQ3YLYBUIYU86WDZ","A3AJR1PM02424Y","3FW4EL5A3LANKRP91N782LFHPY722Q","","null","<img src=""img/land5.png"" style=""width:200px;border:14px solid red;"">","null","","","","","","","",""
"","image-keyboard-response","176","100568","0.0-260.0","3IAEQB9FMF6YL1JQ3YLYBUIYU86WDZ","A3AJR1PM02424Y","3FW4EL5A3LANKRP91N782LFHPY722Q","","500.39999997615814","img/land8.png","75","501.89999997615814","2","1","false","2","0.8,0.2,0.2,0.2,0.8,0.2,0.2,0.2,0.8","",""
"","html-keyboard-response","177","100870","0.0-261.0","3IAEQB9FMF6YL1JQ3YLYBUIYU86WDZ","A3AJR1PM02424Y","3FW4EL5A3LANKRP91N782LFHPY722Q","","null","<img src=""img/land8.png"" style=""width:200px; border:14px solid green;"">","null","","","","","","","",""
"","image-keyboard-response","178","101253","0.0-263.0","3IAEQB9FMF6YL1JQ3YLYBUIYU86WDZ","A3AJR1PM02424Y","3FW4EL5A3LANKRP91N782LFHPY722Q","","375.7999999523163","img/land8.png","75","377","2","0","false","2","0.8,0.2,0.2,0.2,0.8,0.2,0.2,0.2,0.8","",""
"","html-keyboard-response","179","101556","0.0-264.0","3IAEQB9FMF6YL1JQ3YLYBUIYU86WDZ","A3AJR1PM02424Y","3FW4EL5A3LANKRP91N782LFHPY722Q","","null","<img src=""img/land8.png"" style=""width:200px;border:14px solid red;"">","null","","","","","","","",""
"","image-keyboard-response","180","102136","0.0-266.0","3IAEQB9FMF6YL1JQ3YLYBUIYU86WDZ","A3AJR1PM02424Y","3FW4EL5A3LANKRP91N782LFHPY722Q","","578","img/land5.png","75","579.2999999523163","2","0","false","3","0.8,0.2,0.2,0.2,0.8,0.2,0.2,0.2,0.8","",""
"","html-keyboard-response","181","102439","0.0-267.0","3IAEQB9FMF6YL1JQ3YLYBUIYU86WDZ","A3AJR1PM02424Y","3FW4EL5A3LANKRP91N782LFHPY722Q","","null","<img src=""img/land5.png"" style=""width:200px;border:14px solid red;"">","null","","","","","","","",""
"","image-keyboard-response","182","103038","0.0-269.0","3IAEQB9FMF6YL1JQ3YLYBUIYU86WDZ","A3AJR1PM02424Y","3FW4EL5A3LANKRP91N782LFHPY722Q","","597","img/land7.png","74","598.3999999761581","1","0","false","1","0.8,0.2,0.2,0.2,0.8,0.2,0.2,0.2,0.8","",""
"","html-keyboard-response","183","103344","0.0-270.0","3IAEQB9FMF6YL1JQ3YLYBUIYU86WDZ","A3AJR1PM02424Y","3FW4EL5A3LANKRP91N782LFHPY722Q","","null","<img src=""img/land7.png"" style=""width:200px;border:14px solid red;"">","null","","","","","","","",""
"","html-keyboard-response","184","105343","0.0-272.0","3IAEQB9FMF6YL1JQ3YLYBUIYU86WDZ","A3AJR1PM02424Y","3FW4EL5A3LANKRP91N782LFHPY722Q","","","","","","","","","","","",""
"","image-keyboard-response","185","105981","0.0-273.0","3IAEQB9FMF6YL1JQ3YLYBUIYU86WDZ","A3AJR1PM02424Y","3FW4EL5A3LANKRP91N782LFHPY722Q","","635.5","img/land6.png","74","637.0999999046326","1","0","false","1","0.6,0.6,0,0,0.6,0.6,0.6,0,0.6","",""
"","html-keyboard-response","186","106286","0.0-274.0","3IAEQB9FMF6YL1JQ3YLYBUIYU86WDZ","A3AJR1PM02424Y","3FW4EL5A3LANKRP91N782LFHPY722Q","","null","<img src=""img/land6.png"" style=""width:200px;border:14px solid red;"">","null","","","","","","","",""
"","image-keyboard-response","187","106992","0.0-276.0","3IAEQB9FMF6YL1JQ3YLYBUIYU86WDZ","A3AJR1PM02424Y","3FW4EL5A3LANKRP91N782LFHPY722Q","","704.3999999761581","img/land9.png","75","705.7000000476837","2","1","false","2","0.6,0.6,0,0,0.6,0.6,0.6,0,0.6","",""
"","html-keyboard-response","188","107300","0.0-277.0","3IAEQB9FMF6YL1JQ3YLYBUIYU86WDZ","A3AJR1PM02424Y","3FW4EL5A3LANKRP91N782LFHPY722Q","","null","<img src=""img/land9.png"" style=""width:200px; border:14px solid green;"">","null","","","","","","","",""
"","image-keyboard-response","189","108010","0.0-279.0","3IAEQB9FMF6YL1JQ3YLYBUIYU86WDZ","A3AJR1PM02424Y","3FW4EL5A3LANKRP91N782LFHPY722Q","","707.8000000715256","img/land1.png","76","709.1999999284744","3","0","false","3","0.6,0.6,0,0,0.6,0.6,0.6,0,0.6","",""
"","html-keyboard-response","190","108317","0.0-280.0","3IAEQB9FMF6YL1JQ3YLYBUIYU86WDZ","A3AJR1PM02424Y","3FW4EL5A3LANKRP91N782LFHPY722Q","","null","<img src=""img/land1.png"" style=""width:200px;border:14px solid red;"">","null","","","","","","","",""
"","image-keyboard-response","191","108881","0.0-282.0","3IAEQB9FMF6YL1JQ3YLYBUIYU86WDZ","A3AJR1PM02424Y","3FW4EL5A3LANKRP91N782LFHPY722Q","","561.7999999523163","img/land9.png","75","563.3000000715256","2","0","false","2","0.6,0.6,0,0,0.6,0.6,0.6,0,0.6","",""
"","html-keyboard-response","192","109186","0.0-283.0","3IAEQB9FMF6YL1JQ3YLYBUIYU86WDZ","A3AJR1PM02424Y","3FW4EL5A3LANKRP91N782LFHPY722Q","","null","<img src=""img/land9.png"" style=""width:200px;border:14px solid red;"">","null","","","","","","","",""
"","image-keyboard-response","193","109973","0.0-285.0","3IAEQB9FMF6YL1JQ3YLYBUIYU86WDZ","A3AJR1PM02424Y","3FW4EL5A3LANKRP91N782LFHPY722Q","","785","img/land1.png","75","786.6000000238419","2","0","false","3","0.6,0.6,0,0,0.6,0.6,0.6,0,0.6","",""
"","html-keyboard-response","194","110276","0.0-286.0","3IAEQB9FMF6YL1JQ3YLYBUIYU86WDZ","A3AJR1PM02424Y","3FW4EL5A3LANKRP91N782LFHPY722Q","","null","<img src=""img/land1.png"" style=""width:200px;border:14px solid red;"">","null","","","","","","","",""
"","image-keyboard-response","195","110898","0.0-288.0","3IAEQB9FMF6YL1JQ3YLYBUIYU86WDZ","A3AJR1PM02424Y","3FW4EL5A3LANKRP91N782LFHPY722Q","","620.7000000476837","img/land9.png","75","622.2999999523163","2","1","false","2","0.6,0.6,0,0,0.6,0.6,0.6,0,0.6","",""
"","html-keyboard-response","196","111204","0.0-289.0","3IAEQB9FMF6YL1JQ3YLYBUIYU86WDZ","A3AJR1PM02424Y","3FW4EL5A3LANKRP91N782LFHPY722Q","","null","<img src=""img/land9.png"" style=""width:200px; border:14px solid green;"">","null","","","","","","","",""
"","image-keyboard-response","197","111836","0.0-291.0","3IAEQB9FMF6YL1JQ3YLYBUIYU86WDZ","A3AJR1PM02424Y","3FW4EL5A3LANKRP91N782LFHPY722Q","","630.5","img/land1.png","75","631.6999999284744","2","0","false","3","0.6,0.6,0,0,0.6,0.6,0.6,0,0.6","",""
"","html-keyboard-response","198","112145","0.0-292.0","3IAEQB9FMF6YL1JQ3YLYBUIYU86WDZ","A3AJR1PM02424Y","3FW4EL5A3LANKRP91N782LFHPY722Q","","null","<img src=""img/land1.png"" style=""width:200px;border:14px solid red;"">","null","","","","","","","",""
"","image-keyboard-response","199","112559","0.0-294.0","3IAEQB9FMF6YL1JQ3YLYBUIYU86WDZ","A3AJR1PM02424Y","3FW4EL5A3LANKRP91N782LFHPY722Q","","411.8000000715256","img/land9.png","75","413.39999997615814","2","0","false","2","0.6,0.6,0,0,0.6,0.6,0.6,0,0.6","",""
"","html-keyboard-response","200","112866","0.0-295.0","3IAEQB9FMF6YL1JQ3YLYBUIYU86WDZ","A3AJR1PM02424Y","3FW4EL5A3LANKRP91N782LFHPY722Q","","null","<img src=""img/land9.png"" style=""width:200px;border:14px solid red;"">","null","","","","","","","",""
"","image-keyboard-response","201","113237","0.0-297.0","3IAEQB9FMF6YL1JQ3YLYBUIYU86WDZ","A3AJR1PM02424Y","3FW4EL5A3LANKRP91N782LFHPY722Q","","369.60000002384186","img/land9.png","75","370.89999997615814","2","0","false","2","0.6,0.6,0,0,0.6,0.6,0.6,0,0.6","",""
"","html-keyboard-response","202","113543","0.0-298.0","3IAEQB9FMF6YL1JQ3YLYBUIYU86WDZ","A3AJR1PM02424Y","3FW4EL5A3LANKRP91N782LFHPY722Q","","null","<img src=""img/land9.png"" style=""width:200px;border:14px solid red;"">","null","","","","","","","",""
"","image-keyboard-response","203","114376","0.0-300.0","3IAEQB9FMF6YL1JQ3YLYBUIYU86WDZ","A3AJR1PM02424Y","3FW4EL5A3LANKRP91N782LFHPY722Q","","831","img/land1.png","75","832.3999999761581","2","0","false","3","0.6,0.6,0,0,0.6,0.6,0.6,0,0.6","",""
"","html-keyboard-response","204","114683","0.0-301.0","3IAEQB9FMF6YL1JQ3YLYBUIYU86WDZ","A3AJR1PM02424Y","3FW4EL5A3LANKRP91N782LFHPY722Q","","null","<img src=""img/land1.png"" style=""width:200px;border:14px solid red;"">","null","","","","","","","",""
"","image-keyboard-response","205","115452","0.0-303.0","3IAEQB9FMF6YL1JQ3YLYBUIYU86WDZ","A3AJR1PM02424Y","3FW4EL5A3LANKRP91N782LFHPY722Q","","767.2000000476837","img/land6.png","75","768.6000000238419","2","1","false","1","0.6,0.6,0,0,0.6,0.6,0.6,0,0.6","",""
"","html-keyboard-response","206","115756","0.0-304.0","3IAEQB9FMF6YL1JQ3YLYBUIYU86WDZ","A3AJR1PM02424Y","3FW4EL5A3LANKRP91N782LFHPY722Q","","null","<img src=""img/land6.png"" style=""width:200px; border:14px solid green;"">","null","","","","","","","",""
"","image-keyboard-response","207","116390","0.0-306.0","3IAEQB9FMF6YL1JQ3YLYBUIYU86WDZ","A3AJR1PM02424Y","3FW4EL5A3LANKRP91N782LFHPY722Q","","632.6999999284744","img/land9.png","74","634.2000000476837","1","0","false","2","0.6,0.6,0,0,0.6,0.6,0.6,0,0.6","",""
"","html-keyboard-response","208","116696","0.0-307.0","3IAEQB9FMF6YL1JQ3YLYBUIYU86WDZ","A3AJR1PM02424Y","3FW4EL5A3LANKRP91N782LFHPY722Q","","null","<img src=""img/land9.png"" style=""width:200px;border:14px solid red;"">","null","","","","","","","",""
"","image-keyboard-response","209","117152","0.0-309.0","3IAEQB9FMF6YL1JQ3YLYBUIYU86WDZ","A3AJR1PM02424Y","3FW4EL5A3LANKRP91N782LFHPY722Q","","454.8000000715256","img/land9.png","74","456.2999999523163","1","0","false","2","0.6,0.6,0,0,0.6,0.6,0.6,0,0.6","",""
"","html-keyboard-response","210","117456","0.0-310.0","3IAEQB9FMF6YL1JQ3YLYBUIYU86WDZ","A3AJR1PM02424Y","3FW4EL5A3LANKRP91N782LFHPY722Q","","null","<img src=""img/land9.png"" style=""width:200px;border:14px solid red;"">","null","","","","","","","",""
"","image-keyboard-response","211","118393","0.0-312.0","3IAEQB9FMF6YL1JQ3YLYBUIYU86WDZ","A3AJR1PM02424Y","3FW4EL5A3LANKRP91N782LFHPY722Q","","934.5","img/land1.png","75","936.1999999284744","2","0","false","3","0.6,0.6,0,0,0.6,0.6,0.6,0,0.6","",""
"","html-keyboard-response","212","118695","0.0-313.0","3IAEQB9FMF6YL1JQ3YLYBUIYU86WDZ","A3AJR1PM02424Y","3FW4EL5A3LANKRP91N782LFHPY722Q","","null","<img src=""img/land1.png"" style=""width:200px;border:14px solid red;"">","null","","","","","","","",""
"","image-keyboard-response","213","119389","0.0-315.0","3IAEQB9FMF6YL1JQ3YLYBUIYU86WDZ","A3AJR1PM02424Y","3FW4EL5A3LANKRP91N782LFHPY722Q","","692.2000000476837","img/land6.png","75","693.4000000953674","2","1","false","1","0.6,0.6,0,0,0.6,0.6,0.6,0,0.6","",""
"","html-keyboard-response","214","119694","0.0-316.0","3IAEQB9FMF6YL1JQ3YLYBUIYU86WDZ","A3AJR1PM02424Y","3FW4EL5A3LANKRP91N782LFHPY722Q","","null","<img src=""img/land6.png"" style=""width:200px; border:14px solid green;"">","null","","","","","","","",""
"","image-keyboard-response","215","120261","0.0-318.0","3IAEQB9FMF6YL1JQ3YLYBUIYU86WDZ","A3AJR1PM02424Y","3FW4EL5A3LANKRP91N782LFHPY722Q","","564.5","img/land9.png","76","566.1000000238419","3","1","false","2","0.6,0.6,0,0,0.6,0.6,0.6,0,0.6","",""
"","html-keyboard-response","216","120567","0.0-319.0","3IAEQB9FMF6YL1JQ3YLYBUIYU86WDZ","A3AJR1PM02424Y","3FW4EL5A3LANKRP91N782LFHPY722Q","","null","<img src=""img/land9.png"" style=""width:200px; border:14px solid green;"">","null","","","","","","","",""
"","image-keyboard-response","217","120972","0.0-321.0","3IAEQB9FMF6YL1JQ3YLYBUIYU86WDZ","A3AJR1PM02424Y","3FW4EL5A3LANKRP91N782LFHPY722Q","","402.60000002384186","img/land9.png","76","404.09999990463257","3","1","false","2","0.6,0.6,0,0,0.6,0.6,0.6,0,0.6","",""
"","html-keyboard-response","218","121274","0.0-322.0","3IAEQB9FMF6YL1JQ3YLYBUIYU86WDZ","A3AJR1PM02424Y","3FW4EL5A3LANKRP91N782LFHPY722Q","","null","<img src=""img/land9.png"" style=""width:200px; border:14px solid green;"">","null","","","","","","","",""
"","image-keyboard-response","219","121594","0.0-324.0","3IAEQB9FMF6YL1JQ3YLYBUIYU86WDZ","A3AJR1PM02424Y","3FW4EL5A3LANKRP91N782LFHPY722Q","","317.10000002384186","img/land9.png","76","318.60000002384186","3","1","false","2","0.6,0.6,0,0,0.6,0.6,0.6,0,0.6","",""
"","html-keyboard-response","220","121901","0.0-325.0","3IAEQB9FMF6YL1JQ3YLYBUIYU86WDZ","A3AJR1PM02424Y","3FW4EL5A3LANKRP91N782LFHPY722Q","","null","<img src=""img/land9.png"" style=""width:200px; border:14px solid green;"">","null","","","","","","","",""
"","image-keyboard-response","221","122184","0.0-327.0","3IAEQB9FMF6YL1JQ3YLYBUIYU86WDZ","A3AJR1PM02424Y","3FW4EL5A3LANKRP91N782LFHPY722Q","","281.7000000476837","img/land9.png","76","282.90000009536743","3","1","false","2","0.6,0.6,0,0,0.6,0.6,0.6,0,0.6","",""
"","html-keyboard-response","222","122486","0.0-328.0","3IAEQB9FMF6YL1JQ3YLYBUIYU86WDZ","A3AJR1PM02424Y","3FW4EL5A3LANKRP91N782LFHPY722Q","","null","<img src=""img/land9.png"" style=""width:200px; border:14px solid green;"">","null","","","","","","","",""
"","image-keyboard-response","223","122915","0.0-330.0","3IAEQB9FMF6YL1JQ3YLYBUIYU86WDZ","A3AJR1PM02424Y","3FW4EL5A3LANKRP91N782LFHPY722Q","","426.89999997615814","img/land6.png","75","428.39999997615814","2","1","false","1","0.6,0.6,0,0,0.6,0.6,0.6,0,0.6","",""
"","html-keyboard-response","224","123224","0.0-331.0","3IAEQB9FMF6YL1JQ3YLYBUIYU86WDZ","A3AJR1PM02424Y","3FW4EL5A3LANKRP91N782LFHPY722Q","","null","<img src=""img/land6.png"" style=""width:200px; border:14px solid green;"">","null","","","","","","","",""
"","image-keyboard-response","225","123548","0.0-333.0","3IAEQB9FMF6YL1JQ3YLYBUIYU86WDZ","A3AJR1PM02424Y","3FW4EL5A3LANKRP91N782LFHPY722Q","","322.5","img/land6.png","75","323.89999997615814","2","1","false","1","0.6,0.6,0,0,0.6,0.6,0.6,0,0.6","",""
"","html-keyboard-response","226","123852","0.0-334.0","3IAEQB9FMF6YL1JQ3YLYBUIYU86WDZ","A3AJR1PM02424Y","3FW4EL5A3LANKRP91N782LFHPY722Q","","null","<img src=""img/land6.png"" style=""width:200px; border:14px solid green;"">","null","","","","","","","",""
"","image-keyboard-response","227","124500","0.0-336.0","3IAEQB9FMF6YL1JQ3YLYBUIYU86WDZ","A3AJR1PM02424Y","3FW4EL5A3LANKRP91N782LFHPY722Q","","646.4000000953674","img/land9.png","76","647.5999999046326","3","0","false","2","0.6,0.6,0,0,0.6,0.6,0.6,0,0.6","",""
"","html-keyboard-response","228","124806","0.0-337.0","3IAEQB9FMF6YL1JQ3YLYBUIYU86WDZ","A3AJR1PM02424Y","3FW4EL5A3LANKRP91N782LFHPY722Q","","null","<img src=""img/land9.png"" style=""width:200px;border:14px solid red;"">","null","","","","","","","",""
"","image-keyboard-response","229","125325","0.0-339.0","3IAEQB9FMF6YL1JQ3YLYBUIYU86WDZ","A3AJR1PM02424Y","3FW4EL5A3LANKRP91N782LFHPY722Q","","517.7999999523163","img/land6.png","75","518.8999999761581","2","0","false","1","0.6,0.6,0,0,0.6,0.6,0.6,0,0.6","",""
"","html-keyboard-response","230","125634","0.0-340.0","3IAEQB9FMF6YL1JQ3YLYBUIYU86WDZ","A3AJR1PM02424Y","3FW4EL5A3LANKRP91N782LFHPY722Q","","null","<img src=""img/land6.png"" style=""width:200px;border:14px solid red;"">","null","","","","","","","",""
"","image-keyboard-response","231","126112","0.0-342.0","3IAEQB9FMF6YL1JQ3YLYBUIYU86WDZ","A3AJR1PM02424Y","3FW4EL5A3LANKRP91N782LFHPY722Q","","477","img/land9.png","76","478.5","3","0","false","2","0.6,0.6,0,0,0.6,0.6,0.6,0,0.6","",""
"","html-keyboard-response","232","126415","0.0-343.0","3IAEQB9FMF6YL1JQ3YLYBUIYU86WDZ","A3AJR1PM02424Y","3FW4EL5A3LANKRP91N782LFHPY722Q","","null","<img src=""img/land9.png"" style=""width:200px;border:14px solid red;"">","null","","","","","","","",""
"","image-keyboard-response","233","127120","0.0-345.0","3IAEQB9FMF6YL1JQ3YLYBUIYU86WDZ","A3AJR1PM02424Y","3FW4EL5A3LANKRP91N782LFHPY722Q","","702.8999999761581","img/land1.png","76","704.5","3","1","false","3","0.6,0.6,0,0,0.6,0.6,0.6,0,0.6","",""
"","html-keyboard-response","234","127424","0.0-346.0","3IAEQB9FMF6YL1JQ3YLYBUIYU86WDZ","A3AJR1PM02424Y","3FW4EL5A3LANKRP91N782LFHPY722Q","","null","<img src=""img/land1.png"" style=""width:200px; border:14px solid green;"">","null","","","","","","","",""
"","image-keyboard-response","235","127952","0.0-348.0","3IAEQB9FMF6YL1JQ3YLYBUIYU86WDZ","A3AJR1PM02424Y","3FW4EL5A3LANKRP91N782LFHPY722Q","","526.2999999523163","img/land6.png","75","527.8000000715256","2","0","false","1","0.6,0.6,0,0,0.6,0.6,0.6,0,0.6","",""
"","html-keyboard-response","236","128256","0.0-349.0","3IAEQB9FMF6YL1JQ3YLYBUIYU86WDZ","A3AJR1PM02424Y","3FW4EL5A3LANKRP91N782LFHPY722Q","","null","<img src=""img/land6.png"" style=""width:200px;border:14px solid red;"">","null","","","","","","","",""
"","image-keyboard-response","237","128918","0.0-351.0","3IAEQB9FMF6YL1JQ3YLYBUIYU86WDZ","A3AJR1PM02424Y","3FW4EL5A3LANKRP91N782LFHPY722Q","","659.6000000238419","img/land1.png","76","661","3","1","false","3","0.6,0.6,0,0,0.6,0.6,0.6,0,0.6","",""
"","html-keyboard-response","238","129223","0.0-352.0","3IAEQB9FMF6YL1JQ3YLYBUIYU86WDZ","A3AJR1PM02424Y","3FW4EL5A3LANKRP91N782LFHPY722Q","","null","<img src=""img/land1.png"" style=""width:200px; border:14px solid green;"">","null","","","","","","","",""
"","image-keyboard-response","239","129691","0.0-354.0","3IAEQB9FMF6YL1JQ3YLYBUIYU86WDZ","A3AJR1PM02424Y","3FW4EL5A3LANKRP91N782LFHPY722Q","","465.2999999523163","img/land6.png","75","467.5","2","1","false","1","0.6,0.6,0,0,0.6,0.6,0.6,0,0.6","",""
"","html-keyboard-response","240","130000","0.0-355.0","3IAEQB9FMF6YL1JQ3YLYBUIYU86WDZ","A3AJR1PM02424Y","3FW4EL5A3LANKRP91N782LFHPY722Q","","null","<img src=""img/land6.png"" style=""width:200px; border:14px solid green;"">","null","","","","","","","",""
"","image-keyboard-response","241","130359","0.0-357.0","3IAEQB9FMF6YL1JQ3YLYBUIYU86WDZ","A3AJR1PM02424Y","3FW4EL5A3LANKRP91N782LFHPY722Q","","356.39999997615814","img/land6.png","75","358.1999999284744","2","1","false","1","0.6,0.6,0,0,0.6,0.6,0.6,0,0.6","",""
"","html-keyboard-response","242","130666","0.0-358.0","3IAEQB9FMF6YL1JQ3YLYBUIYU86WDZ","A3AJR1PM02424Y","3FW4EL5A3LANKRP91N782LFHPY722Q","","null","<img src=""img/land6.png"" style=""width:200px; border:14px solid green;"">","null","","","","","","","",""
"","image-keyboard-response","243","130985","0.0-360.0","3IAEQB9FMF6YL1JQ3YLYBUIYU86WDZ","A3AJR1PM02424Y","3FW4EL5A3LANKRP91N782LFHPY722Q","","316.5","img/land6.png","75","318.09999990463257","2","0","false","1","0.6,0.6,0,0,0.6,0.6,0.6,0,0.6","",""
"","html-keyboard-response","244","131291","0.0-361.0","3IAEQB9FMF6YL1JQ3YLYBUIYU86WDZ","A3AJR1PM02424Y","3FW4EL5A3LANKRP91N782LFHPY722Q","","null","<img src=""img/land6.png"" style=""width:200px;border:14px solid red;"">","null","","","","","","","",""
"","image-keyboard-response","245","131761","0.0-363.0","3IAEQB9FMF6YL1JQ3YLYBUIYU86WDZ","A3AJR1PM02424Y","3FW4EL5A3LANKRP91N782LFHPY722Q","","467.2000000476837","img/land6.png","75","469.10000002384186","2","0","false","1","0.6,0.6,0,0,0.6,0.6,0.6,0,0.6","",""
"","html-keyboard-response","246","132071","0.0-364.0","3IAEQB9FMF6YL1JQ3YLYBUIYU86WDZ","A3AJR1PM02424Y","3FW4EL5A3LANKRP91N782LFHPY722Q","","null","<img src=""img/land6.png"" style=""width:200px;border:14px solid red;"">","null","","","","","","","",""
"","image-keyboard-response","247","132763","0.0-366.0","3IAEQB9FMF6YL1JQ3YLYBUIYU86WDZ","A3AJR1PM02424Y","3FW4EL5A3LANKRP91N782LFHPY722Q","","691","img/land6.png","75","692.2999999523163","2","1","false","1","0.6,0.6,0,0,0.6,0.6,0.6,0,0.6","",""
"","html-keyboard-response","248","133066","0.0-367.0","3IAEQB9FMF6YL1JQ3YLYBUIYU86WDZ","A3AJR1PM02424Y","3FW4EL5A3LANKRP91N782LFHPY722Q","","null","<img src=""img/land6.png"" style=""width:200px; border:14px solid green;"">","null","","","","","","","",""
"","image-keyboard-response","249","133419","0.0-369.0","3IAEQB9FMF6YL1JQ3YLYBUIYU86WDZ","A3AJR1PM02424Y","3FW4EL5A3LANKRP91N782LFHPY722Q","","351.2999999523163","img/land6.png","75","352.60000002384186","2","1","false","1","0.6,0.6,0,0,0.6,0.6,0.6,0,0.6","",""
"","html-keyboard-response","250","133726","0.0-370.0","3IAEQB9FMF6YL1JQ3YLYBUIYU86WDZ","A3AJR1PM02424Y","3FW4EL5A3LANKRP91N782LFHPY722Q","","null","<img src=""img/land6.png"" style=""width:200px; border:14px solid green;"">","null","","","","","","","",""
"","image-keyboard-response","251","134156","0.0-372.0","3IAEQB9FMF6YL1JQ3YLYBUIYU86WDZ","A3AJR1PM02424Y","3FW4EL5A3LANKRP91N782LFHPY722Q","","428.6999999284744","img/land6.png","75","430.10000002384186","2","1","false","1","0.6,0.6,0,0,0.6,0.6,0.6,0,0.6","",""
"","html-keyboard-response","252","134461","0.0-373.0","3IAEQB9FMF6YL1JQ3YLYBUIYU86WDZ","A3AJR1PM02424Y","3FW4EL5A3LANKRP91N782LFHPY722Q","","null","<img src=""img/land6.png"" style=""width:200px; border:14px solid green;"">","null","","","","","","","",""
"","image-keyboard-response","253","134892","0.0-375.0","3IAEQB9FMF6YL1JQ3YLYBUIYU86WDZ","A3AJR1PM02424Y","3FW4EL5A3LANKRP91N782LFHPY722Q","","428.89999997615814","img/land6.png","75","430.2999999523163","2","1","false","1","0.6,0.6,0,0,0.6,0.6,0.6,0,0.6","",""
"","html-keyboard-response","254","135197","0.0-376.0","3IAEQB9FMF6YL1JQ3YLYBUIYU86WDZ","A3AJR1PM02424Y","3FW4EL5A3LANKRP91N782LFHPY722Q","","null","<img src=""img/land6.png"" style=""width:200px; border:14px solid green;"">","null","","","","","","","",""
"","image-keyboard-response","255","136064","0.0-378.0","3IAEQB9FMF6YL1JQ3YLYBUIYU86WDZ","A3AJR1PM02424Y","3FW4EL5A3LANKRP91N782LFHPY722Q","","865.2000000476837","img/land9.png","76","866.6000000238419","3","0","false","2","0.6,0.6,0,0,0.6,0.6,0.6,0,0.6","",""
"","html-keyboard-response","256","136368","0.0-379.0","3IAEQB9FMF6YL1JQ3YLYBUIYU86WDZ","A3AJR1PM02424Y","3FW4EL5A3LANKRP91N782LFHPY722Q","","null","<img src=""img/land9.png"" style=""width:200px;border:14px solid red;"">","null","","","","","","","",""
"","image-keyboard-response","257","136756","0.0-381.0","3IAEQB9FMF6YL1JQ3YLYBUIYU86WDZ","A3AJR1PM02424Y","3FW4EL5A3LANKRP91N782LFHPY722Q","","386","img/land9.png","74","387.40000009536743","1","0","false","2","0.6,0.6,0,0,0.6,0.6,0.6,0,0.6","",""
"","html-keyboard-response","258","137060","0.0-382.0","3IAEQB9FMF6YL1JQ3YLYBUIYU86WDZ","A3AJR1PM02424Y","3FW4EL5A3LANKRP91N782LFHPY722Q","","null","<img src=""img/land9.png"" style=""width:200px;border:14px solid red;"">","null","","","","","","","",""
"","image-keyboard-response","259","137662","0.0-384.0","3IAEQB9FMF6YL1JQ3YLYBUIYU86WDZ","A3AJR1PM02424Y","3FW4EL5A3LANKRP91N782LFHPY722Q","","600.3999999761581","img/land6.png","75","601.6000000238419","2","0","false","1","0.6,0.6,0,0,0.6,0.6,0.6,0,0.6","",""
"","html-keyboard-response","260","137972","0.0-385.0","3IAEQB9FMF6YL1JQ3YLYBUIYU86WDZ","A3AJR1PM02424Y","3FW4EL5A3LANKRP91N782LFHPY722Q","","null","<img src=""img/land6.png"" style=""width:200px;border:14px solid red;"">","null","","","","","","","",""
"","image-keyboard-response","261","138979","0.0-387.0","3IAEQB9FMF6YL1JQ3YLYBUIYU86WDZ","A3AJR1PM02424Y","3FW4EL5A3LANKRP91N782LFHPY722Q","","","img/land9.png","","1006.7000000476837","-1","0","true","2","0.6,0.6,0,0,0.6,0.6,0.6,0,0.6","",""
"","html-keyboard-response","262","139288","0.0-388.0","3IAEQB9FMF6YL1JQ3YLYBUIYU86WDZ","A3AJR1PM02424Y","3FW4EL5A3LANKRP91N782LFHPY722Q","","null","<img src=""img/land9.png"" style=""width:200px;border:14px solid red;"">","null","","","","","","","",""
"","html-keyboard-response","263","140667","0.0-389.0-0.0","3IAEQB9FMF6YL1JQ3YLYBUIYU86WDZ","A3AJR1PM02424Y","3FW4EL5A3LANKRP91N782LFHPY722Q","","","","","","","","","","","",""
"","image-keyboard-response","264","141675","0.0-390.0","3IAEQB9FMF6YL1JQ3YLYBUIYU86WDZ","A3AJR1PM02424Y","3FW4EL5A3LANKRP91N782LFHPY722Q","","","img/land9.png","","1007.5","-1","0","true","2","0.6,0.6,0,0,0.6,0.6,0.6,0,0.6","",""
"","html-keyboard-response","265","141978","0.0-391.0","3IAEQB9FMF6YL1JQ3YLYBUIYU86WDZ","A3AJR1PM02424Y","3FW4EL5A3LANKRP91N782LFHPY722Q","","null","<img src=""img/land9.png"" style=""width:200px;border:14px solid red;"">","null","","","","","","","",""
"","html-keyboard-response","266","143926","0.0-392.0-0.0","3IAEQB9FMF6YL1JQ3YLYBUIYU86WDZ","A3AJR1PM02424Y","3FW4EL5A3LANKRP91N782LFHPY722Q","","","","","","","","","","","",""
"","image-keyboard-response","267","144226","0.0-393.0","3IAEQB9FMF6YL1JQ3YLYBUIYU86WDZ","A3AJR1PM02424Y","3FW4EL5A3LANKRP91N782LFHPY722Q","","298.2000000476837","img/land6.png","76","299.7999999523163","3","0","false","1","0.6,0.6,0,0,0.6,0.6,0.6,0,0.6","",""
"","html-keyboard-response","268","144533","0.0-394.0","3IAEQB9FMF6YL1JQ3YLYBUIYU86WDZ","A3AJR1PM02424Y","3FW4EL5A3LANKRP91N782LFHPY722Q","","null","<img src=""img/land6.png"" style=""width:200px;border:14px solid red;"">","null","","","","","","","",""
"","image-keyboard-response","269","144759","0.0-396.0","3IAEQB9FMF6YL1JQ3YLYBUIYU86WDZ","A3AJR1PM02424Y","3FW4EL5A3LANKRP91N782LFHPY722Q","","224.20000004768372","img/land1.png","75","226.09999990463257","2","0","false","3","0.6,0.6,0,0,0.6,0.6,0.6,0,0.6","",""
"","html-keyboard-response","270","145071","0.0-397.0","3IAEQB9FMF6YL1JQ3YLYBUIYU86WDZ","A3AJR1PM02424Y","3FW4EL5A3LANKRP91N782LFHPY722Q","","null","<img src=""img/land1.png"" style=""width:200px;border:14px solid red;"">","null","","","","","","","",""
"","image-keyboard-response","271","145569","0.0-399.0","3IAEQB9FMF6YL1JQ3YLYBUIYU86WDZ","A3AJR1PM02424Y","3FW4EL5A3LANKRP91N782LFHPY722Q","","495.2000000476837","img/land1.png","76","497.7000000476837","3","1","false","3","0.6,0.6,0,0,0.6,0.6,0.6,0,0.6","",""
"","html-keyboard-response","272","145872","0.0-400.0","3IAEQB9FMF6YL1JQ3YLYBUIYU86WDZ","A3AJR1PM02424Y","3FW4EL5A3LANKRP91N782LFHPY722Q","","null","<img src=""img/land1.png"" style=""width:200px; border:14px solid green;"">","null","","","","","","","",""
"","image-keyboard-response","273","146239","0.0-402.0","3IAEQB9FMF6YL1JQ3YLYBUIYU86WDZ","A3AJR1PM02424Y","3FW4EL5A3LANKRP91N782LFHPY722Q","","366.09999990463257","img/land1.png","75","367.5","2","0","false","3","0.6,0.6,0,0,0.6,0.6,0.6,0,0.6","",""
"","html-keyboard-response","274","146542","0.0-403.0","3IAEQB9FMF6YL1JQ3YLYBUIYU86WDZ","A3AJR1PM02424Y","3FW4EL5A3LANKRP91N782LFHPY722Q","","null","<img src=""img/land1.png"" style=""width:200px;border:14px solid red;"">","null","","","","","","","",""
"","image-keyboard-response","275","146613","0.0-405.0","3IAEQB9FMF6YL1JQ3YLYBUIYU86WDZ","A3AJR1PM02424Y","3FW4EL5A3LANKRP91N782LFHPY722Q","","69","img/land1.png","76","70.60000002384186","3","1","false","3","0.6,0.6,0,0,0.6,0.6,0.6,0,0.6","",""
"","html-keyboard-response","276","146916","0.0-406.0","3IAEQB9FMF6YL1JQ3YLYBUIYU86WDZ","A3AJR1PM02424Y","3FW4EL5A3LANKRP91N782LFHPY722Q","","null","<img src=""img/land1.png"" style=""width:200px; border:14px solid green;"">","null","","","","","","","",""
"","image-keyboard-response","277","147206","0.0-408.0","3IAEQB9FMF6YL1JQ3YLYBUIYU86WDZ","A3AJR1PM02424Y","3FW4EL5A3LANKRP91N782LFHPY722Q","","287.60000002384186","img/land1.png","76","289.1999999284744","3","0","false","3","0.6,0.6,0,0,0.6,0.6,0.6,0,0.6","",""
"","html-keyboard-response","278","147509","0.0-409.0","3IAEQB9FMF6YL1JQ3YLYBUIYU86WDZ","A3AJR1PM02424Y","3FW4EL5A3LANKRP91N782LFHPY722Q","","null","<img src=""img/land1.png"" style=""width:200px;border:14px solid red;"">","null","","","","","","","",""
"","image-keyboard-response","279","147967","0.0-411.0","3IAEQB9FMF6YL1JQ3YLYBUIYU86WDZ","A3AJR1PM02424Y","3FW4EL5A3LANKRP91N782LFHPY722Q","","456.2000000476837","img/land6.png","75","457.7000000476837","2","1","false","1","0.6,0.6,0,0,0.6,0.6,0.6,0,0.6","",""
"","html-keyboard-response","280","148274","0.0-412.0","3IAEQB9FMF6YL1JQ3YLYBUIYU86WDZ","A3AJR1PM02424Y","3FW4EL5A3LANKRP91N782LFHPY722Q","","null","<img src=""img/land6.png"" style=""width:200px; border:14px solid green;"">","null","","","","","","","",""
"","image-keyboard-response","281","148753","0.0-414.0","3IAEQB9FMF6YL1JQ3YLYBUIYU86WDZ","A3AJR1PM02424Y","3FW4EL5A3LANKRP91N782LFHPY722Q","","476.8000000715256","img/land1.png","76","478.2000000476837","3","0","false","3","0.6,0.6,0,0,0.6,0.6,0.6,0,0.6","",""
"","html-keyboard-response","282","149057","0.0-415.0","3IAEQB9FMF6YL1JQ3YLYBUIYU86WDZ","A3AJR1PM02424Y","3FW4EL5A3LANKRP91N782LFHPY722Q","","null","<img src=""img/land1.png"" style=""width:200px;border:14px solid red;"">","null","","","","","","","",""
"","image-keyboard-response","283","149333","0.0-417.0","3IAEQB9FMF6YL1JQ3YLYBUIYU86WDZ","A3AJR1PM02424Y","3FW4EL5A3LANKRP91N782LFHPY722Q","","274.2999999523163","img/land1.png","76","275.5","3","1","false","3","0.6,0.6,0,0,0.6,0.6,0.6,0,0.6","",""
"","html-keyboard-response","284","149641","0.0-418.0","3IAEQB9FMF6YL1JQ3YLYBUIYU86WDZ","A3AJR1PM02424Y","3FW4EL5A3LANKRP91N782LFHPY722Q","","null","<img src=""img/land1.png"" style=""width:200px; border:14px solid green;"">","null","","","","","","","",""
"","image-keyboard-response","285","150026","0.0-420.0","3IAEQB9FMF6YL1JQ3YLYBUIYU86WDZ","A3AJR1PM02424Y","3FW4EL5A3LANKRP91N782LFHPY722Q","","380.89999997615814","img/land6.png","75","383.8000000715256","2","1","false","1","0.6,0.6,0,0,0.6,0.6,0.6,0,0.6","",""
"","html-keyboard-response","286","150334","0.0-421.0","3IAEQB9FMF6YL1JQ3YLYBUIYU86WDZ","A3AJR1PM02424Y","3FW4EL5A3LANKRP91N782LFHPY722Q","","null","<img src=""img/land6.png"" style=""width:200px; border:14px solid green;"">","null","","","","","","","",""
"","image-keyboard-response","287","150928","0.0-423.0","3IAEQB9FMF6YL1JQ3YLYBUIYU86WDZ","A3AJR1PM02424Y","3FW4EL5A3LANKRP91N782LFHPY722Q","","591.9000000953674","img/land9.png","74","594","1","0","false","2","0.6,0.6,0,0,0.6,0.6,0.6,0,0.6","",""
"","html-keyboard-response","288","151233","0.0-424.0","3IAEQB9FMF6YL1JQ3YLYBUIYU86WDZ","A3AJR1PM02424Y","3FW4EL5A3LANKRP91N782LFHPY722Q","","null","<img src=""img/land9.png"" style=""width:200px;border:14px solid red;"">","null","","","","","","","",""
"","image-keyboard-response","289","151814","0.0-426.0","3IAEQB9FMF6YL1JQ3YLYBUIYU86WDZ","A3AJR1PM02424Y","3FW4EL5A3LANKRP91N782LFHPY722Q","","578.6999999284744","img/land1.png","75","580","2","0","false","3","0.6,0.6,0,0,0.6,0.6,0.6,0,0.6","",""
"","html-keyboard-response","290","152128","0.0-427.0","3IAEQB9FMF6YL1JQ3YLYBUIYU86WDZ","A3AJR1PM02424Y","3FW4EL5A3LANKRP91N782LFHPY722Q","","null","<img src=""img/land1.png"" style=""width:200px;border:14px solid red;"">","null","","","","","","","",""
"","image-keyboard-response","291","152386","0.0-429.0","3IAEQB9FMF6YL1JQ3YLYBUIYU86WDZ","A3AJR1PM02424Y","3FW4EL5A3LANKRP91N782LFHPY722Q","","255.60000002384186","img/land6.png","76","257.60000002384186","3","0","false","1","0.6,0.6,0,0,0.6,0.6,0.6,0,0.6","",""
"","html-keyboard-response","292","152696","0.0-430.0","3IAEQB9FMF6YL1JQ3YLYBUIYU86WDZ","A3AJR1PM02424Y","3FW4EL5A3LANKRP91N782LFHPY722Q","","null","<img src=""img/land6.png"" style=""width:200px;border:14px solid red;"">","null","","","","","","","",""
"","image-keyboard-response","293","153003","0.0-432.0","3IAEQB9FMF6YL1JQ3YLYBUIYU86WDZ","A3AJR1PM02424Y","3FW4EL5A3LANKRP91N782LFHPY722Q","","303.10000002384186","img/land1.png","75","306","2","0","false","3","0.6,0.6,0,0,0.6,0.6,0.6,0,0.6","",""
"","html-keyboard-response","294","153307","0.0-433.0","3IAEQB9FMF6YL1JQ3YLYBUIYU86WDZ","A3AJR1PM02424Y","3FW4EL5A3LANKRP91N782LFHPY722Q","","null","<img src=""img/land1.png"" style=""width:200px;border:14px solid red;"">","null","","","","","","","",""
"","image-keyboard-response","295","153962","0.0-435.0","3IAEQB9FMF6YL1JQ3YLYBUIYU86WDZ","A3AJR1PM02424Y","3FW4EL5A3LANKRP91N782LFHPY722Q","","653.5","img/land9.png","74","654.7999999523163","1","0","false","2","0.6,0.6,0,0,0.6,0.6,0.6,0,0.6","",""
"","html-keyboard-response","296","154266","0.0-436.0","3IAEQB9FMF6YL1JQ3YLYBUIYU86WDZ","A3AJR1PM02424Y","3FW4EL5A3LANKRP91N782LFHPY722Q","","null","<img src=""img/land9.png"" style=""width:200px;border:14px solid red;"">","null","","","","","","","",""
"","image-keyboard-response","297","154779","0.0-438.0","3IAEQB9FMF6YL1JQ3YLYBUIYU86WDZ","A3AJR1PM02424Y","3FW4EL5A3LANKRP91N782LFHPY722Q","","511.7000000476837","img/land1.png","75","512.8999999761581","2","0","false","3","0.6,0.6,0,0,0.6,0.6,0.6,0,0.6","",""
"","html-keyboard-response","298","155082","0.0-439.0","3IAEQB9FMF6YL1JQ3YLYBUIYU86WDZ","A3AJR1PM02424Y","3FW4EL5A3LANKRP91N782LFHPY722Q","","null","<img src=""img/land1.png"" style=""width:200px;border:14px solid red;"">","null","","","","","","","",""
"","image-keyboard-response","299","155581","0.0-441.0","3IAEQB9FMF6YL1JQ3YLYBUIYU86WDZ","A3AJR1PM02424Y","3FW4EL5A3LANKRP91N782LFHPY722Q","","497.3000000715256","img/land9.png","75","498.6999999284744","2","0","false","2","0.6,0.6,0,0,0.6,0.6,0.6,0,0.6","",""
"","html-keyboard-response","300","155888","0.0-442.0","3IAEQB9FMF6YL1JQ3YLYBUIYU86WDZ","A3AJR1PM02424Y","3FW4EL5A3LANKRP91N782LFHPY722Q","","null","<img src=""img/land9.png"" style=""width:200px;border:14px solid red;"">","null","","","","","","","",""
"","image-keyboard-response","301","156417","0.0-444.0","3IAEQB9FMF6YL1JQ3YLYBUIYU86WDZ","A3AJR1PM02424Y","3FW4EL5A3LANKRP91N782LFHPY722Q","","527.0999999046326","img/land1.png","75","528.6000000238419","2","0","false","3","0.6,0.6,0,0,0.6,0.6,0.6,0,0.6","",""
"","html-keyboard-response","302","156728","0.0-445.0","3IAEQB9FMF6YL1JQ3YLYBUIYU86WDZ","A3AJR1PM02424Y","3FW4EL5A3LANKRP91N782LFHPY722Q","","null","<img src=""img/land1.png"" style=""width:200px;border:14px solid red;"">","null","","","","","","","",""
"","image-keyboard-response","303","157189","0.0-447.0","3IAEQB9FMF6YL1JQ3YLYBUIYU86WDZ","A3AJR1PM02424Y","3FW4EL5A3LANKRP91N782LFHPY722Q","","458.3000000715256","img/land1.png","76","460.5","3","0","false","3","0.6,0.6,0,0,0.6,0.6,0.6,0,0.6","",""
"","html-keyboard-response","304","157496","0.0-448.0","3IAEQB9FMF6YL1JQ3YLYBUIYU86WDZ","A3AJR1PM02424Y","3FW4EL5A3LANKRP91N782LFHPY722Q","","null","<img src=""img/land1.png"" style=""width:200px;border:14px solid red;"">","null","","","","","","","",""
"","image-keyboard-response","305","158171","0.0-450.0","3IAEQB9FMF6YL1JQ3YLYBUIYU86WDZ","A3AJR1PM02424Y","3FW4EL5A3LANKRP91N782LFHPY722Q","","672.6000000238419","img/land9.png","74","674.1000000238419","1","0","false","2","0.6,0.6,0,0,0.6,0.6,0.6,0,0.6","",""
"","html-keyboard-response","306","158475","0.0-451.0","3IAEQB9FMF6YL1JQ3YLYBUIYU86WDZ","A3AJR1PM02424Y","3FW4EL5A3LANKRP91N782LFHPY722Q","","null","<img src=""img/land9.png"" style=""width:200px;border:14px solid red;"">","null","","","","","","","",""
"","image-keyboard-response","307","159019","0.0-453.0","3IAEQB9FMF6YL1JQ3YLYBUIYU86WDZ","A3AJR1PM02424Y","3FW4EL5A3LANKRP91N782LFHPY722Q","","542.2999999523163","img/land1.png","74","543.6000000238419","1","1","false","3","0.6,0.6,0,0,0.6,0.6,0.6,0,0.6","",""
"","html-keyboard-response","308","159327","0.0-454.0","3IAEQB9FMF6YL1JQ3YLYBUIYU86WDZ","A3AJR1PM02424Y","3FW4EL5A3LANKRP91N782LFHPY722Q","","null","<img src=""img/land1.png"" style=""width:200px; border:14px solid green;"">","null","","","","","","","",""
"","image-keyboard-response","309","159782","0.0-456.0","3IAEQB9FMF6YL1JQ3YLYBUIYU86WDZ","A3AJR1PM02424Y","3FW4EL5A3LANKRP91N782LFHPY722Q","","450.89999997615814","img/land1.png","74","453.6999999284744","1","1","false","3","0.6,0.6,0,0,0.6,0.6,0.6,0,0.6","",""
"","html-keyboard-response","310","160090","0.0-457.0","3IAEQB9FMF6YL1JQ3YLYBUIYU86WDZ","A3AJR1PM02424Y","3FW4EL5A3LANKRP91N782LFHPY722Q","","null","<img src=""img/land1.png"" style=""width:200px; border:14px solid green;"">","null","","","","","","","",""
"","image-keyboard-response","311","160876","0.0-459.0","3IAEQB9FMF6YL1JQ3YLYBUIYU86WDZ","A3AJR1PM02424Y","3FW4EL5A3LANKRP91N782LFHPY722Q","","784.2999999523163","img/land9.png","74","785.5","1","0","false","2","0.6,0.6,0,0,0.6,0.6,0.6,0,0.6","",""
"","html-keyboard-response","312","161182","0.0-460.0","3IAEQB9FMF6YL1JQ3YLYBUIYU86WDZ","A3AJR1PM02424Y","3FW4EL5A3LANKRP91N782LFHPY722Q","","null","<img src=""img/land9.png"" style=""width:200px;border:14px solid red;"">","null","","","","","","","",""
"","image-keyboard-response","313","161726","0.0-462.0","3IAEQB9FMF6YL1JQ3YLYBUIYU86WDZ","A3AJR1PM02424Y","3FW4EL5A3LANKRP91N782LFHPY722Q","","534.2999999523163","img/land1.png","74","535.6000000238419","1","1","false","3","0.6,0.6,0,0,0.6,0.6,0.6,0,0.6","",""
"","html-keyboard-response","314","162032","0.0-463.0","3IAEQB9FMF6YL1JQ3YLYBUIYU86WDZ","A3AJR1PM02424Y","3FW4EL5A3LANKRP91N782LFHPY722Q","","null","<img src=""img/land1.png"" style=""width:200px; border:14px solid green;"">","null","","","","","","","",""
"","image-keyboard-response","315","162630","0.0-465.0","3IAEQB9FMF6YL1JQ3YLYBUIYU86WDZ","A3AJR1PM02424Y","3FW4EL5A3LANKRP91N782LFHPY722Q","","594.2999999523163","img/land9.png","74","596.8999999761581","1","0","false","2","0.6,0.6,0,0,0.6,0.6,0.6,0,0.6","",""
"","html-keyboard-response","316","162940","0.0-466.0","3IAEQB9FMF6YL1JQ3YLYBUIYU86WDZ","A3AJR1PM02424Y","3FW4EL5A3LANKRP91N782LFHPY722Q","","null","<img src=""img/land9.png"" style=""width:200px;border:14px solid red;"">","null","","","","","","","",""
"","image-keyboard-response","317","163592","0.0-468.0","3IAEQB9FMF6YL1JQ3YLYBUIYU86WDZ","A3AJR1PM02424Y","3FW4EL5A3LANKRP91N782LFHPY722Q","","648.5999999046326","img/land6.png","75","650.6000000238419","2","0","false","1","0.6,0.6,0,0,0.6,0.6,0.6,0,0.6","",""
"","html-keyboard-response","318","163898","0.0-469.0","3IAEQB9FMF6YL1JQ3YLYBUIYU86WDZ","A3AJR1PM02424Y","3FW4EL5A3LANKRP91N782LFHPY722Q","","null","<img src=""img/land6.png"" style=""width:200px;border:14px solid red;"">","null","","","","","","","",""
"","image-keyboard-response","319","164613","0.0-471.0","3IAEQB9FMF6YL1JQ3YLYBUIYU86WDZ","A3AJR1PM02424Y","3FW4EL5A3LANKRP91N782LFHPY722Q","","713.4000000953674","img/land1.png","74","714.6999999284744","1","1","false","3","0.6,0.6,0,0,0.6,0.6,0.6,0,0.6","",""
"","html-keyboard-response","320","164918","0.0-472.0","3IAEQB9FMF6YL1JQ3YLYBUIYU86WDZ","A3AJR1PM02424Y","3FW4EL5A3LANKRP91N782LFHPY722Q","","null","<img src=""img/land1.png"" style=""width:200px; border:14px solid green;"">","null","","","","","","","",""
"","image-keyboard-response","321","165469","0.0-474.0","3IAEQB9FMF6YL1JQ3YLYBUIYU86WDZ","A3AJR1PM02424Y","3FW4EL5A3LANKRP91N782LFHPY722Q","","547.7000000476837","img/land6.png","76","550","3","0","false","1","0.6,0.6,0,0,0.6,0.6,0.6,0,0.6","",""
"","html-keyboard-response","322","165774","0.0-475.0","3IAEQB9FMF6YL1JQ3YLYBUIYU86WDZ","A3AJR1PM02424Y","3FW4EL5A3LANKRP91N782LFHPY722Q","","null","<img src=""img/land6.png"" style=""width:200px;border:14px solid red;"">","null","","","","","","","",""
"","image-keyboard-response","323","166082","0.0-477.0","3IAEQB9FMF6YL1JQ3YLYBUIYU86WDZ","A3AJR1PM02424Y","3FW4EL5A3LANKRP91N782LFHPY722Q","","304.1999999284744","img/land6.png","75","306.8000000715256","2","1","false","1","0.6,0.6,0,0,0.6,0.6,0.6,0,0.6","",""
"","html-keyboard-response","324","166391","0.0-478.0","3IAEQB9FMF6YL1JQ3YLYBUIYU86WDZ","A3AJR1PM02424Y","3FW4EL5A3LANKRP91N782LFHPY722Q","","null","<img src=""img/land6.png"" style=""width:200px; border:14px solid green;"">","null","","","","","","","",""
"","image-keyboard-response","325","166692","0.0-480.0","3IAEQB9FMF6YL1JQ3YLYBUIYU86WDZ","A3AJR1PM02424Y","3FW4EL5A3LANKRP91N782LFHPY722Q","","297.60000002384186","img/land6.png","75","299.7000000476837","2","1","false","1","0.6,0.6,0,0,0.6,0.6,0.6,0,0.6","",""
"","html-keyboard-response","326","166997","0.0-481.0","3IAEQB9FMF6YL1JQ3YLYBUIYU86WDZ","A3AJR1PM02424Y","3FW4EL5A3LANKRP91N782LFHPY722Q","","null","<img src=""img/land6.png"" style=""width:200px; border:14px solid green;"">","null","","","","","","","",""
"","image-keyboard-response","327","167563","0.0-483.0","3IAEQB9FMF6YL1JQ3YLYBUIYU86WDZ","A3AJR1PM02424Y","3FW4EL5A3LANKRP91N782LFHPY722Q","","564.6000000238419","img/land1.png","74","565.8999999761581","1","0","false","3","0.6,0.6,0,0,0.6,0.6,0.6,0,0.6","",""
"","html-keyboard-response","328","167868","0.0-484.0","3IAEQB9FMF6YL1JQ3YLYBUIYU86WDZ","A3AJR1PM02424Y","3FW4EL5A3LANKRP91N782LFHPY722Q","","null","<img src=""img/land1.png"" style=""width:200px;border:14px solid red;"">","null","","","","","","","",""
"","image-keyboard-response","329","167980","0.0-486.0","3IAEQB9FMF6YL1JQ3YLYBUIYU86WDZ","A3AJR1PM02424Y","3FW4EL5A3LANKRP91N782LFHPY722Q","","108.89999997615814","img/land6.png","74","111.29999995231628","1","1","false","1","0.6,0.6,0,0,0.6,0.6,0.6,0,0.6","",""
"","html-keyboard-response","330","168287","0.0-487.0","3IAEQB9FMF6YL1JQ3YLYBUIYU86WDZ","A3AJR1PM02424Y","3FW4EL5A3LANKRP91N782LFHPY722Q","","null","<img src=""img/land6.png"" style=""width:200px; border:14px solid green;"">","null","","","","","","","",""
"","image-keyboard-response","331","169224","0.0-489.0","3IAEQB9FMF6YL1JQ3YLYBUIYU86WDZ","A3AJR1PM02424Y","3FW4EL5A3LANKRP91N782LFHPY722Q","","933.0999999046326","img/land1.png","75","936","2","0","false","3","0.6,0.6,0,0,0.6,0.6,0.6,0,0.6","",""
"","html-keyboard-response","332","169533","0.0-490.0","3IAEQB9FMF6YL1JQ3YLYBUIYU86WDZ","A3AJR1PM02424Y","3FW4EL5A3LANKRP91N782LFHPY722Q","","null","<img src=""img/land1.png"" style=""width:200px;border:14px solid red;"">","null","","","","","","","",""
"","image-keyboard-response","333","169802","0.0-492.0","3IAEQB9FMF6YL1JQ3YLYBUIYU86WDZ","A3AJR1PM02424Y","3FW4EL5A3LANKRP91N782LFHPY722Q","","266.10000002384186","img/land1.png","75","268","2","0","false","3","0.6,0.6,0,0,0.6,0.6,0.6,0,0.6","",""
"","html-keyboard-response","334","170107","0.0-493.0","3IAEQB9FMF6YL1JQ3YLYBUIYU86WDZ","A3AJR1PM02424Y","3FW4EL5A3LANKRP91N782LFHPY722Q","","null","<img src=""img/land1.png"" style=""width:200px;border:14px solid red;"">","null","","","","","","","",""
"","image-keyboard-response","335","170218","0.0-495.0","3IAEQB9FMF6YL1JQ3YLYBUIYU86WDZ","A3AJR1PM02424Y","3FW4EL5A3LANKRP91N782LFHPY722Q","","109.89999997615814","img/land9.png","75","111.39999997615814","2","0","false","2","0.6,0.6,0,0,0.6,0.6,0.6,0,0.6","",""
"","html-keyboard-response","336","170529","0.0-496.0","3IAEQB9FMF6YL1JQ3YLYBUIYU86WDZ","A3AJR1PM02424Y","3FW4EL5A3LANKRP91N782LFHPY722Q","","null","<img src=""img/land9.png"" style=""width:200px;border:14px solid red;"">","null","","","","","","","",""
"","image-keyboard-response","337","170765","0.0-498.0","3IAEQB9FMF6YL1JQ3YLYBUIYU86WDZ","A3AJR1PM02424Y","3FW4EL5A3LANKRP91N782LFHPY722Q","","231.69999992847443","img/land9.png","74","233.89999997615814","1","0","false","2","0.6,0.6,0,0,0.6,0.6,0.6,0,0.6","",""
"","html-keyboard-response","338","171070","0.0-499.0","3IAEQB9FMF6YL1JQ3YLYBUIYU86WDZ","A3AJR1PM02424Y","3FW4EL5A3LANKRP91N782LFHPY722Q","","null","<img src=""img/land9.png"" style=""width:200px;border:14px solid red;"">","null","","","","","","","",""
"","image-keyboard-response","339","171756","0.0-501.0","3IAEQB9FMF6YL1JQ3YLYBUIYU86WDZ","A3AJR1PM02424Y","3FW4EL5A3LANKRP91N782LFHPY722Q","","684.6999999284744","img/land9.png","74","686.2000000476837","1","0","false","2","0.6,0.6,0,0,0.6,0.6,0.6,0,0.6","",""
"","html-keyboard-response","340","172067","0.0-502.0","3IAEQB9FMF6YL1JQ3YLYBUIYU86WDZ","A3AJR1PM02424Y","3FW4EL5A3LANKRP91N782LFHPY722Q","","null","<img src=""img/land9.png"" style=""width:200px;border:14px solid red;"">","null","","","","","","","",""
"","image-keyboard-response","341","173064","0.0-504.0","3IAEQB9FMF6YL1JQ3YLYBUIYU86WDZ","A3AJR1PM02424Y","3FW4EL5A3LANKRP91N782LFHPY722Q","","995.2999999523163","img/land1.png","74","996.6000000238419","1","1","false","3","0.6,0.6,0,0,0.6,0.6,0.6,0,0.6","",""
"","html-keyboard-response","342","173373","0.0-505.0","3IAEQB9FMF6YL1JQ3YLYBUIYU86WDZ","A3AJR1PM02424Y","3FW4EL5A3LANKRP91N782LFHPY722Q","","null","<img src=""img/land1.png"" style=""width:200px; border:14px solid green;"">","null","","","","","","","",""
"","image-keyboard-response","343","173836","0.0-507.0","3IAEQB9FMF6YL1JQ3YLYBUIYU86WDZ","A3AJR1PM02424Y","3FW4EL5A3LANKRP91N782LFHPY722Q","","461.3000000715256","img/land9.png","74","462.59999990463257","1","0","false","2","0.6,0.6,0,0,0.6,0.6,0.6,0,0.6","",""
"","html-keyboard-response","344","174139","0.0-508.0","3IAEQB9FMF6YL1JQ3YLYBUIYU86WDZ","A3AJR1PM02424Y","3FW4EL5A3LANKRP91N782LFHPY722Q","","null","<img src=""img/land9.png"" style=""width:200px;border:14px solid red;"">","null","","","","","","","",""
"","image-keyboard-response","345","174593","0.0-510.0","3IAEQB9FMF6YL1JQ3YLYBUIYU86WDZ","A3AJR1PM02424Y","3FW4EL5A3LANKRP91N782LFHPY722Q","","451.5","img/land9.png","75","453.8000000715256","2","0","false","2","0.6,0.6,0,0,0.6,0.6,0.6,0,0.6","",""
"","html-keyboard-response","346","174897","0.0-511.0","3IAEQB9FMF6YL1JQ3YLYBUIYU86WDZ","A3AJR1PM02424Y","3FW4EL5A3LANKRP91N782LFHPY722Q","","null","<img src=""img/land9.png"" style=""width:200px;border:14px solid red;"">","null","","","","","","","",""
"","image-keyboard-response","347","175060","0.0-513.0","3IAEQB9FMF6YL1JQ3YLYBUIYU86WDZ","A3AJR1PM02424Y","3FW4EL5A3LANKRP91N782LFHPY722Q","","159.89999997615814","img/land6.png","76","161.90000009536743","3","0","false","1","0.6,0.6,0,0,0.6,0.6,0.6,0,0.6","",""
"","html-keyboard-response","348","175379","0.0-514.0","3IAEQB9FMF6YL1JQ3YLYBUIYU86WDZ","A3AJR1PM02424Y","3FW4EL5A3LANKRP91N782LFHPY722Q","","null","<img src=""img/land6.png"" style=""width:200px;border:14px solid red;"">","null","","","","","","","",""
"","image-keyboard-response","349","176070","0.0-516.0","3IAEQB9FMF6YL1JQ3YLYBUIYU86WDZ","A3AJR1PM02424Y","3FW4EL5A3LANKRP91N782LFHPY722Q","","687.8999999761581","img/land1.png","74","689.8000000715256","1","0","false","3","0.6,0.6,0,0,0.6,0.6,0.6,0,0.6","",""
"","html-keyboard-response","350","176373","0.0-517.0","3IAEQB9FMF6YL1JQ3YLYBUIYU86WDZ","A3AJR1PM02424Y","3FW4EL5A3LANKRP91N782LFHPY722Q","","null","<img src=""img/land1.png"" style=""width:200px;border:14px solid red;"">","null","","","","","","","",""
"","image-keyboard-response","351","176512","0.0-519.0","3IAEQB9FMF6YL1JQ3YLYBUIYU86WDZ","A3AJR1PM02424Y","3FW4EL5A3LANKRP91N782LFHPY722Q","","137.10000002384186","img/land9.png","74","139.10000002384186","1","0","false","2","0.6,0.6,0,0,0.6,0.6,0.6,0,0.6","",""
"","html-keyboard-response","352","176820","0.0-520.0","3IAEQB9FMF6YL1JQ3YLYBUIYU86WDZ","A3AJR1PM02424Y","3FW4EL5A3LANKRP91N782LFHPY722Q","","null","<img src=""img/land9.png"" style=""width:200px;border:14px solid red;"">","null","","","","","","","",""
"","image-keyboard-response","353","177458","0.0-522.0","3IAEQB9FMF6YL1JQ3YLYBUIYU86WDZ","A3AJR1PM02424Y","3FW4EL5A3LANKRP91N782LFHPY722Q","","636.1999999284744","img/land6.png","75","637.6000000238419","2","1","false","1","0.6,0.6,0,0,0.6,0.6,0.6,0,0.6","",""
"","html-keyboard-response","354","177764","0.0-523.0","3IAEQB9FMF6YL1JQ3YLYBUIYU86WDZ","A3AJR1PM02424Y","3FW4EL5A3LANKRP91N782LFHPY722Q","","null","<img src=""img/land6.png"" style=""width:200px; border:14px solid green;"">","null","","","","","","","",""
"","image-keyboard-response","355","178647","0.0-525.0","3IAEQB9FMF6YL1JQ3YLYBUIYU86WDZ","A3AJR1PM02424Y","3FW4EL5A3LANKRP91N782LFHPY722Q","","880.7999999523163","img/land9.png","74","882.4000000953674","1","0","false","2","0.6,0.6,0,0,0.6,0.6,0.6,0,0.6","",""
"","html-keyboard-response","356","178953","0.0-526.0","3IAEQB9FMF6YL1JQ3YLYBUIYU86WDZ","A3AJR1PM02424Y","3FW4EL5A3LANKRP91N782LFHPY722Q","","null","<img src=""img/land9.png"" style=""width:200px;border:14px solid red;"">","null","","","","","","","",""
"","image-keyboard-response","357","179383","0.0-528.0","3IAEQB9FMF6YL1JQ3YLYBUIYU86WDZ","A3AJR1PM02424Y","3FW4EL5A3LANKRP91N782LFHPY722Q","","428.60000002384186","img/land6.png","75","430.5","2","0","false","1","0.6,0.6,0,0,0.6,0.6,0.6,0,0.6","",""
"","html-keyboard-response","358","179689","0.0-529.0","3IAEQB9FMF6YL1JQ3YLYBUIYU86WDZ","A3AJR1PM02424Y","3FW4EL5A3LANKRP91N782LFHPY722Q","","null","<img src=""img/land6.png"" style=""width:200px;border:14px solid red;"">","null","","","","","","","",""
"","image-keyboard-response","359","179974","0.0-531.0","3IAEQB9FMF6YL1JQ3YLYBUIYU86WDZ","A3AJR1PM02424Y","3FW4EL5A3LANKRP91N782LFHPY722Q","","281.60000002384186","img/land6.png","76","283.7999999523163","3","0","false","1","0.6,0.6,0,0,0.6,0.6,0.6,0,0.6","",""
"","html-keyboard-response","360","180281","0.0-532.0","3IAEQB9FMF6YL1JQ3YLYBUIYU86WDZ","A3AJR1PM02424Y","3FW4EL5A3LANKRP91N782LFHPY722Q","","null","<img src=""img/land6.png"" style=""width:200px;border:14px solid red;"">","null","","","","","","","",""
"","image-keyboard-response","361","180931","0.0-534.0","3IAEQB9FMF6YL1JQ3YLYBUIYU86WDZ","A3AJR1PM02424Y","3FW4EL5A3LANKRP91N782LFHPY722Q","","646.5","img/land1.png","74","648.5999999046326","1","0","false","3","0.6,0.6,0,0,0.6,0.6,0.6,0,0.6","",""
"","html-keyboard-response","362","181239","0.0-535.0","3IAEQB9FMF6YL1JQ3YLYBUIYU86WDZ","A3AJR1PM02424Y","3FW4EL5A3LANKRP91N782LFHPY722Q","","null","<img src=""img/land1.png"" style=""width:200px;border:14px solid red;"">","null","","","","","","","",""
"","image-keyboard-response","363","181667","0.0-537.0","3IAEQB9FMF6YL1JQ3YLYBUIYU86WDZ","A3AJR1PM02424Y","3FW4EL5A3LANKRP91N782LFHPY722Q","","426","img/land1.png","74","427.7999999523163","1","0","false","3","0.6,0.6,0,0,0.6,0.6,0.6,0,0.6","",""
"","html-keyboard-response","364","181982","0.0-538.0","3IAEQB9FMF6YL1JQ3YLYBUIYU86WDZ","A3AJR1PM02424Y","3FW4EL5A3LANKRP91N782LFHPY722Q","","null","<img src=""img/land1.png"" style=""width:200px;border:14px solid red;"">","null","","","","","","","",""
"","image-keyboard-response","365","182551","0.0-540.0","3IAEQB9FMF6YL1JQ3YLYBUIYU86WDZ","A3AJR1PM02424Y","3FW4EL5A3LANKRP91N782LFHPY722Q","","566.1000000238419","img/land6.png","75","568.2000000476837","2","1","false","1","0.6,0.6,0,0,0.6,0.6,0.6,0,0.6","",""
"","html-keyboard-response","366","182861","0.0-541.0","3IAEQB9FMF6YL1JQ3YLYBUIYU86WDZ","A3AJR1PM02424Y","3FW4EL5A3LANKRP91N782LFHPY722Q","","null","<img src=""img/land6.png"" style=""width:200px; border:14px solid green;"">","null","","","","","","","",""
"","html-keyboard-response","367","184377","0.0-543.0","3IAEQB9FMF6YL1JQ3YLYBUIYU86WDZ","A3AJR1PM02424Y","3FW4EL5A3LANKRP91N782LFHPY722Q","","","","","","","","","","","",""
"","image-keyboard-response","368","184955","0.0-544.0","3IAEQB9FMF6YL1JQ3YLYBUIYU86WDZ","A3AJR1PM02424Y","3FW4EL5A3LANKRP91N782LFHPY722Q","","575","img/land2.png","74","577.2000000476837","1","1","false","1","0.8,0.8,0.2,0.2,0.8,0.8,0.8,0.2,0.8","",""
"","html-keyboard-response","369","185265","0.0-545.0","3IAEQB9FMF6YL1JQ3YLYBUIYU86WDZ","A3AJR1PM02424Y","3FW4EL5A3LANKRP91N782LFHPY722Q","","null","<img src=""img/land2.png"" style=""width:200px; border:14px solid green;"">","null","","","","","","","",""
"","image-keyboard-response","370","185624","0.0-547.0","3IAEQB9FMF6YL1JQ3YLYBUIYU86WDZ","A3AJR1PM02424Y","3FW4EL5A3LANKRP91N782LFHPY722Q","","355.5","img/land2.png","74","357.60000002384186","1","1","false","1","0.8,0.8,0.2,0.2,0.8,0.8,0.8,0.2,0.8","",""
"","html-keyboard-response","371","185930","0.0-548.0","3IAEQB9FMF6YL1JQ3YLYBUIYU86WDZ","A3AJR1PM02424Y","3FW4EL5A3LANKRP91N782LFHPY722Q","","null","<img src=""img/land2.png"" style=""width:200px; border:14px solid green;"">","null","","","","","","","",""
"","image-keyboard-response","372","186623","0.0-550.0","3IAEQB9FMF6YL1JQ3YLYBUIYU86WDZ","A3AJR1PM02424Y","3FW4EL5A3LANKRP91N782LFHPY722Q","","690.8999999761581","img/land4.png","75","692.8999999761581","2","1","false","2","0.8,0.8,0.2,0.2,0.8,0.8,0.8,0.2,0.8","",""
"","html-keyboard-response","373","186930","0.0-551.0","3IAEQB9FMF6YL1JQ3YLYBUIYU86WDZ","A3AJR1PM02424Y","3FW4EL5A3LANKRP91N782LFHPY722Q","","null","<img src=""img/land4.png"" style=""width:200px; border:14px solid green;"">","null","","","","","","","",""
"","image-keyboard-response","374","187359","0.0-553.0","3IAEQB9FMF6YL1JQ3YLYBUIYU86WDZ","A3AJR1PM02424Y","3FW4EL5A3LANKRP91N782LFHPY722Q","","427.1999999284744","img/land4.png","75","428.60000002384186","2","1","false","2","0.8,0.8,0.2,0.2,0.8,0.8,0.8,0.2,0.8","",""
"","html-keyboard-response","375","187662","0.0-554.0","3IAEQB9FMF6YL1JQ3YLYBUIYU86WDZ","A3AJR1PM02424Y","3FW4EL5A3LANKRP91N782LFHPY722Q","","null","<img src=""img/land4.png"" style=""width:200px; border:14px solid green;"">","null","","","","","","","",""
"","image-keyboard-response","376","188100","0.0-556.0","3IAEQB9FMF6YL1JQ3YLYBUIYU86WDZ","A3AJR1PM02424Y","3FW4EL5A3LANKRP91N782LFHPY722Q","","436.10000002384186","img/land3.png","76","437.5","3","0","false","3","0.8,0.8,0.2,0.2,0.8,0.8,0.8,0.2,0.8","",""
"","html-keyboard-response","377","188410","0.0-557.0","3IAEQB9FMF6YL1JQ3YLYBUIYU86WDZ","A3AJR1PM02424Y","3FW4EL5A3LANKRP91N782LFHPY722Q","","null","<img src=""img/land3.png"" style=""width:200px;border:14px solid red;"">","null","","","","","","","",""
"","image-keyboard-response","378","188729","0.0-559.0","3IAEQB9FMF6YL1JQ3YLYBUIYU86WDZ","A3AJR1PM02424Y","3FW4EL5A3LANKRP91N782LFHPY722Q","","315.1999999284744","img/land3.png","76","318","3","0","false","3","0.8,0.8,0.2,0.2,0.8,0.8,0.8,0.2,0.8","",""
"","html-keyboard-response","379","189039","0.0-560.0","3IAEQB9FMF6YL1JQ3YLYBUIYU86WDZ","A3AJR1PM02424Y","3FW4EL5A3LANKRP91N782LFHPY722Q","","null","<img src=""img/land3.png"" style=""width:200px;border:14px solid red;"">","null","","","","","","","",""
"","image-keyboard-response","380","189922","0.0-562.0","3IAEQB9FMF6YL1JQ3YLYBUIYU86WDZ","A3AJR1PM02424Y","3FW4EL5A3LANKRP91N782LFHPY722Q","","882.2000000476837","img/land2.png","76","883.5","3","0","false","1","0.8,0.8,0.2,0.2,0.8,0.8,0.8,0.2,0.8","",""
"","html-keyboard-response","381","190232","0.0-563.0","3IAEQB9FMF6YL1JQ3YLYBUIYU86WDZ","A3AJR1PM02424Y","3FW4EL5A3LANKRP91N782LFHPY722Q","","null","<img src=""img/land2.png"" style=""width:200px;border:14px solid red;"">","null","","","","","","","",""
"","image-keyboard-response","382","190408","0.0-565.0","3IAEQB9FMF6YL1JQ3YLYBUIYU86WDZ","A3AJR1PM02424Y","3FW4EL5A3LANKRP91N782LFHPY722Q","","173.29999995231628","img/land2.png","76","175.39999997615814","3","0","false","1","0.8,0.8,0.2,0.2,0.8,0.8,0.8,0.2,0.8","",""
"","html-keyboard-response","383","190714","0.0-566.0","3IAEQB9FMF6YL1JQ3YLYBUIYU86WDZ","A3AJR1PM02424Y","3FW4EL5A3LANKRP91N782LFHPY722Q","","null","<img src=""img/land2.png"" style=""width:200px;border:14px solid red;"">","null","","","","","","","",""
"","image-keyboard-response","384","191531","0.0-568.0","3IAEQB9FMF6YL1JQ3YLYBUIYU86WDZ","A3AJR1PM02424Y","3FW4EL5A3LANKRP91N782LFHPY722Q","","815.3000000715256","img/land3.png","76","817.3999999761581","3","1","false","3","0.8,0.8,0.2,0.2,0.8,0.8,0.8,0.2,0.8","",""
"","html-keyboard-response","385","191840","0.0-569.0","3IAEQB9FMF6YL1JQ3YLYBUIYU86WDZ","A3AJR1PM02424Y","3FW4EL5A3LANKRP91N782LFHPY722Q","","null","<img src=""img/land3.png"" style=""width:200px; border:14px solid green;"">","null","","","","","","","",""
"","image-keyboard-response","386","192847","0.0-571.0","3IAEQB9FMF6YL1JQ3YLYBUIYU86WDZ","A3AJR1PM02424Y","3FW4EL5A3LANKRP91N782LFHPY722Q","","","img/land4.png","","1006.1000000238419","-1","0","true","2","0.8,0.8,0.2,0.2,0.8,0.8,0.8,0.2,0.8","",""
"","html-keyboard-response","387","193162","0.0-572.0","3IAEQB9FMF6YL1JQ3YLYBUIYU86WDZ","A3AJR1PM02424Y","3FW4EL5A3LANKRP91N782LFHPY722Q","","null","<img src=""img/land4.png"" style=""width:200px;border:14px solid red;"">","null","","","","","","","",""
"","html-keyboard-response","388","194060","0.0-573.0-0.0","3IAEQB9FMF6YL1JQ3YLYBUIYU86WDZ","A3AJR1PM02424Y","3FW4EL5A3LANKRP91N782LFHPY722Q","","","","","","","","","","","",""
