"success","trial_type","trial_index","time_elapsed","internal_node_id","assignmentID","mturkID","hitID","view_history","rt","stimulus","key_press","reactionTime","chosenAction","reward","warning","responses","question_order"
"true","fullscreen","0","2530","0.0-0.0","3C44YUNSI2B81SMPRC73J0A218ZDPB","A3AU8PZ6HHBCVT","39WSF6KUV27TMEQUH506BZR9N6KEO1","","","","","","","","","",""
"","instructions","1","13708","0.0-1.0","3C44YUNSI2B81SMPRC73J0A218ZDPB","A3AU8PZ6HHBCVT","39WSF6KUV27TMEQUH506BZR9N6KEO1","[{""page_index"":0,""viewing_time"":1673},{""page_index"":1,""viewing_time"":1291.9000000059605},{""page_index"":2,""viewing_time"":1080.7000000178814},{""page_index"":3,""viewing_time"":1141.3999999761581},{""page_index"":4,""viewing_time"":2632.5},{""page_index"":5,""viewing_time"":1207.2000000178814},{""page_index"":6,""viewing_time"":1049.5999999940395},{""page_index"":7,""viewing_time"":1081.5}]","11162.700000017881","","","","","","","",""
"","image-keyboard-response","2","14719","0.0-2.0","3C44YUNSI2B81SMPRC73J0A218ZDPB","A3AU8PZ6HHBCVT","39WSF6KUV27TMEQUH506BZR9N6KEO1","","","img/land7.png","","1009.6000000238419","-1","0","true","",""
"","html-keyboard-response","3","15029","0.0-3.0","3C44YUNSI2B81SMPRC73J0A218ZDPB","A3AU8PZ6HHBCVT","39WSF6KUV27TMEQUH506BZR9N6KEO1","","null","<img src=""img/land7.png"" style=""width:200px;border:14px solid red;"">","null","","","","","",""
"","html-keyboard-response","4","20938","0.0-4.0-0.0","3C44YUNSI2B81SMPRC73J0A218ZDPB","A3AU8PZ6HHBCVT","39WSF6KUV27TMEQUH506BZR9N6KEO1","","","","","","","","","",""
"","image-keyboard-response","5","21190","0.0-5.0","3C44YUNSI2B81SMPRC73J0A218ZDPB","A3AU8PZ6HHBCVT","39WSF6KUV27TMEQUH506BZR9N6KEO1","","242.40000000596046","img/land3.png","74","250.2000000178814","74","0","false","",""
"","html-keyboard-response","6","21501","0.0-6.0","3C44YUNSI2B81SMPRC73J0A218ZDPB","A3AU8PZ6HHBCVT","39WSF6KUV27TMEQUH506BZR9N6KEO1","","null","<img src=""img/land3.png"" style=""width:200px;border:14px solid red;"">","null","","","","","",""
"","image-keyboard-response","7","21856","0.0-8.0","3C44YUNSI2B81SMPRC73J0A218ZDPB","A3AU8PZ6HHBCVT","39WSF6KUV27TMEQUH506BZR9N6KEO1","","344.30000001192093","img/land3.png","76","350.5","76","1","false","",""
"","html-keyboard-response","8","22165","0.0-9.0","3C44YUNSI2B81SMPRC73J0A218ZDPB","A3AU8PZ6HHBCVT","39WSF6KUV27TMEQUH506BZR9N6KEO1","","null","<img src=""img/land3.png"" style=""width:200px; border:14px solid green;"">","null","","","","","",""
"","image-keyboard-response","9","22266","0.0-11.0","3C44YUNSI2B81SMPRC73J0A218ZDPB","A3AU8PZ6HHBCVT","39WSF6KUV27TMEQUH506BZR9N6KEO1","","94.59999999403954","img/land3.png","75","98.89999997615814","75","1","false","",""
"","html-keyboard-response","10","22574","0.0-12.0","3C44YUNSI2B81SMPRC73J0A218ZDPB","A3AU8PZ6HHBCVT","39WSF6KUV27TMEQUH506BZR9N6KEO1","","null","<img src=""img/land3.png"" style=""width:200px; border:14px solid green;"">","null","","","","","",""
"","image-keyboard-response","11","22693","0.0-14.0","3C44YUNSI2B81SMPRC73J0A218ZDPB","A3AU8PZ6HHBCVT","39WSF6KUV27TMEQUH506BZR9N6KEO1","","111.09999999403954","img/land3.png","76","116.59999999403954","76","1","false","",""
"","html-keyboard-response","12","23005","0.0-15.0","3C44YUNSI2B81SMPRC73J0A218ZDPB","A3AU8PZ6HHBCVT","39WSF6KUV27TMEQUH506BZR9N6KEO1","","null","<img src=""img/land3.png"" style=""width:200px; border:14px solid green;"">","null","","","","","",""
"","image-keyboard-response","13","23194","0.0-17.0","3C44YUNSI2B81SMPRC73J0A218ZDPB","A3AU8PZ6HHBCVT","39WSF6KUV27TMEQUH506BZR9N6KEO1","","183.2000000178814","img/land2.png","75","186.7000000178814","75","0","false","",""
"","html-keyboard-response","14","23501","0.0-18.0","3C44YUNSI2B81SMPRC73J0A218ZDPB","A3AU8PZ6HHBCVT","39WSF6KUV27TMEQUH506BZR9N6KEO1","","null","<img src=""img/land2.png"" style=""width:200px;border:14px solid red;"">","null","","","","","",""
"","image-keyboard-response","15","23729","0.0-20.0","3C44YUNSI2B81SMPRC73J0A218ZDPB","A3AU8PZ6HHBCVT","39WSF6KUV27TMEQUH506BZR9N6KEO1","","216.90000000596046","img/land7.png","74","223","74","1","false","",""
"","html-keyboard-response","16","24038","0.0-21.0","3C44YUNSI2B81SMPRC73J0A218ZDPB","A3AU8PZ6HHBCVT","39WSF6KUV27TMEQUH506BZR9N6KEO1","","null","<img src=""img/land7.png"" style=""width:200px; border:14px solid green;"">","null","","","","","",""
"","image-keyboard-response","17","24081","0.0-23.0","3C44YUNSI2B81SMPRC73J0A218ZDPB","A3AU8PZ6HHBCVT","39WSF6KUV27TMEQUH506BZR9N6KEO1","","34.5","img/land3.png","75","40.20000001788139","75","0","false","",""
"","html-keyboard-response","18","24392","0.0-24.0","3C44YUNSI2B81SMPRC73J0A218ZDPB","A3AU8PZ6HHBCVT","39WSF6KUV27TMEQUH506BZR9N6KEO1","","null","<img src=""img/land3.png"" style=""width:200px;border:14px solid red;"">","null","","","","","",""
"","image-keyboard-response","19","24483","0.0-26.0","3C44YUNSI2B81SMPRC73J0A218ZDPB","A3AU8PZ6HHBCVT","39WSF6KUV27TMEQUH506BZR9N6KEO1","","82.90000000596046","img/land2.png","76","88.5","76","0","false","",""
"","html-keyboard-response","20","24792","0.0-27.0","3C44YUNSI2B81SMPRC73J0A218ZDPB","A3AU8PZ6HHBCVT","39WSF6KUV27TMEQUH506BZR9N6KEO1","","null","<img src=""img/land2.png"" style=""width:200px;border:14px solid red;"">","null","","","","","",""
"","image-keyboard-response","21","24864","0.0-29.0","3C44YUNSI2B81SMPRC73J0A218ZDPB","A3AU8PZ6HHBCVT","39WSF6KUV27TMEQUH506BZR9N6KEO1","","64.90000000596046","img/land3.png","74","70.5","74","0","false","",""
"","html-keyboard-response","22","25174","0.0-30.0","3C44YUNSI2B81SMPRC73J0A218ZDPB","A3AU8PZ6HHBCVT","39WSF6KUV27TMEQUH506BZR9N6KEO1","","null","<img src=""img/land3.png"" style=""width:200px;border:14px solid red;"">","null","","","","","",""
"","image-keyboard-response","23","25341","0.0-32.0","3C44YUNSI2B81SMPRC73J0A218ZDPB","A3AU8PZ6HHBCVT","39WSF6KUV27TMEQUH506BZR9N6KEO1","","155.59999999403954","img/land7.png","75","163.90000000596046","75","0","false","",""
"","html-keyboard-response","24","25649","0.0-33.0","3C44YUNSI2B81SMPRC73J0A218ZDPB","A3AU8PZ6HHBCVT","39WSF6KUV27TMEQUH506BZR9N6KEO1","","null","<img src=""img/land7.png"" style=""width:200px;border:14px solid red;"">","null","","","","","",""
"","image-keyboard-response","25","25793","0.0-35.0","3C44YUNSI2B81SMPRC73J0A218ZDPB","A3AU8PZ6HHBCVT","39WSF6KUV27TMEQUH506BZR9N6KEO1","","137.09999999403954","img/land2.png","74","141.30000001192093","74","1","false","",""
"","html-keyboard-response","26","26099","0.0-36.0","3C44YUNSI2B81SMPRC73J0A218ZDPB","A3AU8PZ6HHBCVT","39WSF6KUV27TMEQUH506BZR9N6KEO1","","null","<img src=""img/land2.png"" style=""width:200px; border:14px solid green;"">","null","","","","","",""
"","image-keyboard-response","27","26444","0.0-38.0","3C44YUNSI2B81SMPRC73J0A218ZDPB","A3AU8PZ6HHBCVT","39WSF6KUV27TMEQUH506BZR9N6KEO1","","337.09999999403954","img/land7.png","75","342.30000001192093","75","1","false","",""
"","html-keyboard-response","28","26753","0.0-39.0","3C44YUNSI2B81SMPRC73J0A218ZDPB","A3AU8PZ6HHBCVT","39WSF6KUV27TMEQUH506BZR9N6KEO1","","null","<img src=""img/land7.png"" style=""width:200px; border:14px solid green;"">","null","","","","","",""
"","image-keyboard-response","29","27135","0.0-41.0","3C44YUNSI2B81SMPRC73J0A218ZDPB","A3AU8PZ6HHBCVT","39WSF6KUV27TMEQUH506BZR9N6KEO1","","375.09999999403954","img/land2.png","75","380.5","75","0","false","",""
"","html-keyboard-response","30","27445","0.0-42.0","3C44YUNSI2B81SMPRC73J0A218ZDPB","A3AU8PZ6HHBCVT","39WSF6KUV27TMEQUH506BZR9N6KEO1","","null","<img src=""img/land2.png"" style=""width:200px;border:14px solid red;"">","null","","","","","",""
"","image-keyboard-response","31","27608","0.0-44.0","3C44YUNSI2B81SMPRC73J0A218ZDPB","A3AU8PZ6HHBCVT","39WSF6KUV27TMEQUH506BZR9N6KEO1","","155.80000001192093","img/land3.png","75","161.19999998807907","75","1","false","",""
"","html-keyboard-response","32","27917","0.0-45.0","3C44YUNSI2B81SMPRC73J0A218ZDPB","A3AU8PZ6HHBCVT","39WSF6KUV27TMEQUH506BZR9N6KEO1","","null","<img src=""img/land3.png"" style=""width:200px; border:14px solid green;"">","null","","","","","",""
"","image-keyboard-response","33","28129","0.0-47.0","3C44YUNSI2B81SMPRC73J0A218ZDPB","A3AU8PZ6HHBCVT","39WSF6KUV27TMEQUH506BZR9N6KEO1","","201.40000000596046","img/land7.png","75","208.7000000178814","75","0","false","",""
"","html-keyboard-response","34","28442","0.0-48.0","3C44YUNSI2B81SMPRC73J0A218ZDPB","A3AU8PZ6HHBCVT","39WSF6KUV27TMEQUH506BZR9N6KEO1","","null","<img src=""img/land7.png"" style=""width:200px;border:14px solid red;"">","null","","","","","",""
"","image-keyboard-response","35","28583","0.0-50.0","3C44YUNSI2B81SMPRC73J0A218ZDPB","A3AU8PZ6HHBCVT","39WSF6KUV27TMEQUH506BZR9N6KEO1","","130.2999999821186","img/land3.png","74","135.5","74","0","false","",""
"","html-keyboard-response","36","28890","0.0-51.0","3C44YUNSI2B81SMPRC73J0A218ZDPB","A3AU8PZ6HHBCVT","39WSF6KUV27TMEQUH506BZR9N6KEO1","","null","<img src=""img/land3.png"" style=""width:200px;border:14px solid red;"">","null","","","","","",""
"","image-keyboard-response","37","28999","0.0-53.0","3C44YUNSI2B81SMPRC73J0A218ZDPB","A3AU8PZ6HHBCVT","39WSF6KUV27TMEQUH506BZR9N6KEO1","","100.19999998807907","img/land7.png","76","107.19999998807907","76","0","false","",""
"","html-keyboard-response","38","29310","0.0-54.0","3C44YUNSI2B81SMPRC73J0A218ZDPB","A3AU8PZ6HHBCVT","39WSF6KUV27TMEQUH506BZR9N6KEO1","","null","<img src=""img/land7.png"" style=""width:200px;border:14px solid red;"">","null","","","","","",""
"","image-keyboard-response","39","29481","0.0-56.0","3C44YUNSI2B81SMPRC73J0A218ZDPB","A3AU8PZ6HHBCVT","39WSF6KUV27TMEQUH506BZR9N6KEO1","","160.2999999821186","img/land3.png","75","168.59999999403954","75","1","false","",""
"","html-keyboard-response","40","29787","0.0-57.0","3C44YUNSI2B81SMPRC73J0A218ZDPB","A3AU8PZ6HHBCVT","39WSF6KUV27TMEQUH506BZR9N6KEO1","","null","<img src=""img/land3.png"" style=""width:200px; border:14px solid green;"">","null","","","","","",""
"","image-keyboard-response","41","29863","0.0-59.0","3C44YUNSI2B81SMPRC73J0A218ZDPB","A3AU8PZ6HHBCVT","39WSF6KUV27TMEQUH506BZR9N6KEO1","","68.40000000596046","img/land2.png","74","73.59999999403954","74","1","false","",""
"","html-keyboard-response","42","30170","0.0-60.0","3C44YUNSI2B81SMPRC73J0A218ZDPB","A3AU8PZ6HHBCVT","39WSF6KUV27TMEQUH506BZR9N6KEO1","","null","<img src=""img/land2.png"" style=""width:200px; border:14px solid green;"">","null","","","","","",""
"","image-keyboard-response","43","30215","0.0-62.0","3C44YUNSI2B81SMPRC73J0A218ZDPB","A3AU8PZ6HHBCVT","39WSF6KUV27TMEQUH506BZR9N6KEO1","","35.19999998807907","img/land2.png","75","38.599999994039536","75","0","false","",""
"","html-keyboard-response","44","30521","0.0-63.0","3C44YUNSI2B81SMPRC73J0A218ZDPB","A3AU8PZ6HHBCVT","39WSF6KUV27TMEQUH506BZR9N6KEO1","","null","<img src=""img/land2.png"" style=""width:200px;border:14px solid red;"">","null","","","","","",""
"","image-keyboard-response","45","30538","0.0-65.0","3C44YUNSI2B81SMPRC73J0A218ZDPB","A3AU8PZ6HHBCVT","39WSF6KUV27TMEQUH506BZR9N6KEO1","","5.200000017881393","img/land2.png","75","12.299999982118607","75","0","false","",""
"","html-keyboard-response","46","30846","0.0-66.0","3C44YUNSI2B81SMPRC73J0A218ZDPB","A3AU8PZ6HHBCVT","39WSF6KUV27TMEQUH506BZR9N6KEO1","","null","<img src=""img/land2.png"" style=""width:200px;border:14px solid red;"">","null","","","","","",""
"","image-keyboard-response","47","31029","0.0-68.0","3C44YUNSI2B81SMPRC73J0A218ZDPB","A3AU8PZ6HHBCVT","39WSF6KUV27TMEQUH506BZR9N6KEO1","","176.40000000596046","img/land2.png","76","180.7000000178814","76","0","false","",""
"","html-keyboard-response","48","31337","0.0-69.0","3C44YUNSI2B81SMPRC73J0A218ZDPB","A3AU8PZ6HHBCVT","39WSF6KUV27TMEQUH506BZR9N6KEO1","","null","<img src=""img/land2.png"" style=""width:200px;border:14px solid red;"">","null","","","","","",""
"","image-keyboard-response","49","31413","0.0-71.0","3C44YUNSI2B81SMPRC73J0A218ZDPB","A3AU8PZ6HHBCVT","39WSF6KUV27TMEQUH506BZR9N6KEO1","","67.80000001192093","img/land2.png","76","74.5","76","0","false","",""
"","html-keyboard-response","50","31722","0.0-72.0","3C44YUNSI2B81SMPRC73J0A218ZDPB","A3AU8PZ6HHBCVT","39WSF6KUV27TMEQUH506BZR9N6KEO1","","null","<img src=""img/land2.png"" style=""width:200px;border:14px solid red;"">","null","","","","","",""
"","image-keyboard-response","51","31781","0.0-74.0","3C44YUNSI2B81SMPRC73J0A218ZDPB","A3AU8PZ6HHBCVT","39WSF6KUV27TMEQUH506BZR9N6KEO1","","50.70000001788139","img/land7.png","74","56.5","74","0","false","",""
"","html-keyboard-response","52","32090","0.0-75.0","3C44YUNSI2B81SMPRC73J0A218ZDPB","A3AU8PZ6HHBCVT","39WSF6KUV27TMEQUH506BZR9N6KEO1","","null","<img src=""img/land7.png"" style=""width:200px;border:14px solid red;"">","null","","","","","",""
"","image-keyboard-response","53","32196","0.0-77.0","3C44YUNSI2B81SMPRC73J0A218ZDPB","A3AU8PZ6HHBCVT","39WSF6KUV27TMEQUH506BZR9N6KEO1","","91.80000001192093","img/land3.png","75","102","75","0","false","",""
"","html-keyboard-response","54","32506","0.0-78.0","3C44YUNSI2B81SMPRC73J0A218ZDPB","A3AU8PZ6HHBCVT","39WSF6KUV27TMEQUH506BZR9N6KEO1","","null","<img src=""img/land3.png"" style=""width:200px;border:14px solid red;"">","null","","","","","",""
"","image-keyboard-response","55","32583","0.0-80.0","3C44YUNSI2B81SMPRC73J0A218ZDPB","A3AU8PZ6HHBCVT","39WSF6KUV27TMEQUH506BZR9N6KEO1","","65.90000000596046","img/land2.png","75","73.69999998807907","75","0","false","",""
"","html-keyboard-response","56","32893","0.0-81.0","3C44YUNSI2B81SMPRC73J0A218ZDPB","A3AU8PZ6HHBCVT","39WSF6KUV27TMEQUH506BZR9N6KEO1","","null","<img src=""img/land2.png"" style=""width:200px;border:14px solid red;"">","null","","","","","",""
"","image-keyboard-response","57","33046","0.0-83.0","3C44YUNSI2B81SMPRC73J0A218ZDPB","A3AU8PZ6HHBCVT","39WSF6KUV27TMEQUH506BZR9N6KEO1","","143.7000000178814","img/land3.png","75","149.09999999403954","75","0","false","",""
"","html-keyboard-response","58","33351","0.0-84.0","3C44YUNSI2B81SMPRC73J0A218ZDPB","A3AU8PZ6HHBCVT","39WSF6KUV27TMEQUH506BZR9N6KEO1","","null","<img src=""img/land3.png"" style=""width:200px;border:14px solid red;"">","null","","","","","",""
"","image-keyboard-response","59","33362","0.0-86.0","3C44YUNSI2B81SMPRC73J0A218ZDPB","A3AU8PZ6HHBCVT","39WSF6KUV27TMEQUH506BZR9N6KEO1","","6.0999999940395355","img/land7.png","74","9.700000017881393","74","0","false","",""
"","html-keyboard-response","60","33669","0.0-87.0","3C44YUNSI2B81SMPRC73J0A218ZDPB","A3AU8PZ6HHBCVT","39WSF6KUV27TMEQUH506BZR9N6KEO1","","null","<img src=""img/land7.png"" style=""width:200px;border:14px solid red;"">","null","","","","","",""
"","image-keyboard-response","61","33889","0.0-89.0","3C44YUNSI2B81SMPRC73J0A218ZDPB","A3AU8PZ6HHBCVT","39WSF6KUV27TMEQUH506BZR9N6KEO1","","212.30000001192093","img/land2.png","75","217.30000001192093","75","1","false","",""
"","html-keyboard-response","62","34195","0.0-90.0","3C44YUNSI2B81SMPRC73J0A218ZDPB","A3AU8PZ6HHBCVT","39WSF6KUV27TMEQUH506BZR9N6KEO1","","null","<img src=""img/land2.png"" style=""width:200px; border:14px solid green;"">","null","","","","","",""
"","image-keyboard-response","63","34413","0.0-92.0","3C44YUNSI2B81SMPRC73J0A218ZDPB","A3AU8PZ6HHBCVT","39WSF6KUV27TMEQUH506BZR9N6KEO1","","208.59999999403954","img/land7.png","75","215.5","75","1","false","",""
"","html-keyboard-response","64","34721","0.0-93.0","3C44YUNSI2B81SMPRC73J0A218ZDPB","A3AU8PZ6HHBCVT","39WSF6KUV27TMEQUH506BZR9N6KEO1","","null","<img src=""img/land7.png"" style=""width:200px; border:14px solid green;"">","null","","","","","",""
"","image-keyboard-response","65","34804","0.0-95.0","3C44YUNSI2B81SMPRC73J0A218ZDPB","A3AU8PZ6HHBCVT","39WSF6KUV27TMEQUH506BZR9N6KEO1","","74.90000000596046","img/land3.png","76","80.30000001192093","76","1","false","",""
"","html-keyboard-response","66","35114","0.0-96.0","3C44YUNSI2B81SMPRC73J0A218ZDPB","A3AU8PZ6HHBCVT","39WSF6KUV27TMEQUH506BZR9N6KEO1","","null","<img src=""img/land3.png"" style=""width:200px; border:14px solid green;"">","null","","","","","",""
"","image-keyboard-response","67","35159","0.0-98.0","3C44YUNSI2B81SMPRC73J0A218ZDPB","A3AU8PZ6HHBCVT","39WSF6KUV27TMEQUH506BZR9N6KEO1","","36.20000001788139","img/land3.png","75","41.10000002384186","75","0","false","",""
"","html-keyboard-response","68","35466","0.0-99.0","3C44YUNSI2B81SMPRC73J0A218ZDPB","A3AU8PZ6HHBCVT","39WSF6KUV27TMEQUH506BZR9N6KEO1","","null","<img src=""img/land3.png"" style=""width:200px;border:14px solid red;"">","null","","","","","",""
"","image-keyboard-response","69","35536","0.0-101.0","3C44YUNSI2B81SMPRC73J0A218ZDPB","A3AU8PZ6HHBCVT","39WSF6KUV27TMEQUH506BZR9N6KEO1","","57.599999994039536","img/land2.png","75","64.09999999403954","75","0","false","",""
"","html-keyboard-response","70","35847","0.0-102.0","3C44YUNSI2B81SMPRC73J0A218ZDPB","A3AU8PZ6HHBCVT","39WSF6KUV27TMEQUH506BZR9N6KEO1","","null","<img src=""img/land2.png"" style=""width:200px;border:14px solid red;"">","null","","","","","",""
"","image-keyboard-response","71","35888","0.0-104.0","3C44YUNSI2B81SMPRC73J0A218ZDPB","A3AU8PZ6HHBCVT","39WSF6KUV27TMEQUH506BZR9N6KEO1","","32.099999994039536","img/land7.png","75","36.099999994039536","75","1","false","",""
"","html-keyboard-response","72","36198","0.0-105.0","3C44YUNSI2B81SMPRC73J0A218ZDPB","A3AU8PZ6HHBCVT","39WSF6KUV27TMEQUH506BZR9N6KEO1","","null","<img src=""img/land7.png"" style=""width:200px; border:14px solid green;"">","null","","","","","",""
"","image-keyboard-response","73","36219","0.0-107.0","3C44YUNSI2B81SMPRC73J0A218ZDPB","A3AU8PZ6HHBCVT","39WSF6KUV27TMEQUH506BZR9N6KEO1","","7.5999999940395355","img/land7.png","75","16.099999994039536","75","1","false","",""
"","html-keyboard-response","74","36529","0.0-108.0","3C44YUNSI2B81SMPRC73J0A218ZDPB","A3AU8PZ6HHBCVT","39WSF6KUV27TMEQUH506BZR9N6KEO1","","null","<img src=""img/land7.png"" style=""width:200px; border:14px solid green;"">","null","","","","","",""
"","image-keyboard-response","75","36609","0.0-110.0","3C44YUNSI2B81SMPRC73J0A218ZDPB","A3AU8PZ6HHBCVT","39WSF6KUV27TMEQUH506BZR9N6KEO1","","72.80000001192093","img/land2.png","75","77.40000000596046","75","0","false","",""
"","html-keyboard-response","76","36917","0.0-111.0","3C44YUNSI2B81SMPRC73J0A218ZDPB","A3AU8PZ6HHBCVT","39WSF6KUV27TMEQUH506BZR9N6KEO1","","null","<img src=""img/land2.png"" style=""width:200px;border:14px solid red;"">","null","","","","","",""
"","image-keyboard-response","77","36943","0.0-113.0","3C44YUNSI2B81SMPRC73J0A218ZDPB","A3AU8PZ6HHBCVT","39WSF6KUV27TMEQUH506BZR9N6KEO1","","20.400000005960464","img/land3.png","74","23.900000005960464","74","0","false","",""
"","html-keyboard-response","78","37253","0.0-114.0","3C44YUNSI2B81SMPRC73J0A218ZDPB","A3AU8PZ6HHBCVT","39WSF6KUV27TMEQUH506BZR9N6KEO1","","null","<img src=""img/land3.png"" style=""width:200px;border:14px solid red;"">","null","","","","","",""
"","image-keyboard-response","79","37327","0.0-116.0","3C44YUNSI2B81SMPRC73J0A218ZDPB","A3AU8PZ6HHBCVT","39WSF6KUV27TMEQUH506BZR9N6KEO1","","62.80000001192093","img/land7.png","74","68.30000001192093","74","1","false","",""
"","html-keyboard-response","80","37636","0.0-117.0","3C44YUNSI2B81SMPRC73J0A218ZDPB","A3AU8PZ6HHBCVT","39WSF6KUV27TMEQUH506BZR9N6KEO1","","null","<img src=""img/land7.png"" style=""width:200px; border:14px solid green;"">","null","","","","","",""
"","image-keyboard-response","81","37698","0.0-119.0","3C44YUNSI2B81SMPRC73J0A218ZDPB","A3AU8PZ6HHBCVT","39WSF6KUV27TMEQUH506BZR9N6KEO1","","54","img/land7.png","75","58.400000005960464","75","1","false","",""
"","html-keyboard-response","82","38007","0.0-120.0","3C44YUNSI2B81SMPRC73J0A218ZDPB","A3AU8PZ6HHBCVT","39WSF6KUV27TMEQUH506BZR9N6KEO1","","null","<img src=""img/land7.png"" style=""width:200px; border:14px solid green;"">","null","","","","","",""
"","image-keyboard-response","83","38045","0.0-122.0","3C44YUNSI2B81SMPRC73J0A218ZDPB","A3AU8PZ6HHBCVT","39WSF6KUV27TMEQUH506BZR9N6KEO1","","27.399999976158142","img/land3.png","75","31.700000017881393","75","0","false","",""
"","html-keyboard-response","84","38352","0.0-123.0","3C44YUNSI2B81SMPRC73J0A218ZDPB","A3AU8PZ6HHBCVT","39WSF6KUV27TMEQUH506BZR9N6KEO1","","null","<img src=""img/land3.png"" style=""width:200px;border:14px solid red;"">","null","","","","","",""
"","image-keyboard-response","85","38458","0.0-125.0","3C44YUNSI2B81SMPRC73J0A218ZDPB","A3AU8PZ6HHBCVT","39WSF6KUV27TMEQUH506BZR9N6KEO1","","94.2000000178814","img/land2.png","74","103.90000000596046","74","1","false","",""
"","html-keyboard-response","86","38763","0.0-126.0","3C44YUNSI2B81SMPRC73J0A218ZDPB","A3AU8PZ6HHBCVT","39WSF6KUV27TMEQUH506BZR9N6KEO1","","null","<img src=""img/land2.png"" style=""width:200px; border:14px solid green;"">","null","","","","","",""
"","image-keyboard-response","87","38943","0.0-128.0","3C44YUNSI2B81SMPRC73J0A218ZDPB","A3AU8PZ6HHBCVT","39WSF6KUV27TMEQUH506BZR9N6KEO1","","169","img/land3.png","76","176.40000000596046","76","1","false","",""
"","html-keyboard-response","88","39249","0.0-129.0","3C44YUNSI2B81SMPRC73J0A218ZDPB","A3AU8PZ6HHBCVT","39WSF6KUV27TMEQUH506BZR9N6KEO1","","null","<img src=""img/land3.png"" style=""width:200px; border:14px solid green;"">","null","","","","","",""
"","image-keyboard-response","89","39286","0.0-131.0","3C44YUNSI2B81SMPRC73J0A218ZDPB","A3AU8PZ6HHBCVT","39WSF6KUV27TMEQUH506BZR9N6KEO1","","29.5","img/land3.png","76","35.400000005960464","76","1","false","",""
"","html-keyboard-response","90","39593","0.0-132.0","3C44YUNSI2B81SMPRC73J0A218ZDPB","A3AU8PZ6HHBCVT","39WSF6KUV27TMEQUH506BZR9N6KEO1","","null","<img src=""img/land3.png"" style=""width:200px; border:14px solid green;"">","null","","","","","",""
"","image-keyboard-response","91","39730","0.0-134.0","3C44YUNSI2B81SMPRC73J0A218ZDPB","A3AU8PZ6HHBCVT","39WSF6KUV27TMEQUH506BZR9N6KEO1","","128.5","img/land7.png","76","134.80000001192093","76","0","false","",""
"","html-keyboard-response","92","40036","0.0-135.0","3C44YUNSI2B81SMPRC73J0A218ZDPB","A3AU8PZ6HHBCVT","39WSF6KUV27TMEQUH506BZR9N6KEO1","","null","<img src=""img/land7.png"" style=""width:200px;border:14px solid red;"">","null","","","","","",""
"","image-keyboard-response","93","40188","0.0-137.0","3C44YUNSI2B81SMPRC73J0A218ZDPB","A3AU8PZ6HHBCVT","39WSF6KUV27TMEQUH506BZR9N6KEO1","","143.40000000596046","img/land2.png","75","149.59999999403954","75","0","false","",""
"","html-keyboard-response","94","40497","0.0-138.0","3C44YUNSI2B81SMPRC73J0A218ZDPB","A3AU8PZ6HHBCVT","39WSF6KUV27TMEQUH506BZR9N6KEO1","","null","<img src=""img/land2.png"" style=""width:200px;border:14px solid red;"">","null","","","","","",""
"","image-keyboard-response","95","40645","0.0-140.0","3C44YUNSI2B81SMPRC73J0A218ZDPB","A3AU8PZ6HHBCVT","39WSF6KUV27TMEQUH506BZR9N6KEO1","","139.5","img/land3.png","75","145.80000001192093","75","1","false","",""
"","html-keyboard-response","96","40956","0.0-141.0","3C44YUNSI2B81SMPRC73J0A218ZDPB","A3AU8PZ6HHBCVT","39WSF6KUV27TMEQUH506BZR9N6KEO1","","null","<img src=""img/land3.png"" style=""width:200px; border:14px solid green;"">","null","","","","","",""
"","image-keyboard-response","97","40969","0.0-143.0","3C44YUNSI2B81SMPRC73J0A218ZDPB","A3AU8PZ6HHBCVT","39WSF6KUV27TMEQUH506BZR9N6KEO1","","4.0999999940395355","img/land3.png","74","9.300000011920929","74","0","false","",""
"","html-keyboard-response","98","41276","0.0-144.0","3C44YUNSI2B81SMPRC73J0A218ZDPB","A3AU8PZ6HHBCVT","39WSF6KUV27TMEQUH506BZR9N6KEO1","","null","<img src=""img/land3.png"" style=""width:200px;border:14px solid red;"">","null","","","","","",""
"","image-keyboard-response","99","41415","0.0-146.0","3C44YUNSI2B81SMPRC73J0A218ZDPB","A3AU8PZ6HHBCVT","39WSF6KUV27TMEQUH506BZR9N6KEO1","","131.69999998807907","img/land3.png","76","135.5","76","1","false","",""
"","html-keyboard-response","100","41723","0.0-147.0","3C44YUNSI2B81SMPRC73J0A218ZDPB","A3AU8PZ6HHBCVT","39WSF6KUV27TMEQUH506BZR9N6KEO1","","null","<img src=""img/land3.png"" style=""width:200px; border:14px solid green;"">","null","","","","","",""
"","image-keyboard-response","101","41889","0.0-149.0","3C44YUNSI2B81SMPRC73J0A218ZDPB","A3AU8PZ6HHBCVT","39WSF6KUV27TMEQUH506BZR9N6KEO1","","154.40000000596046","img/land7.png","74","159.90000000596046","74","0","false","",""
"","html-keyboard-response","102","42197","0.0-150.0","3C44YUNSI2B81SMPRC73J0A218ZDPB","A3AU8PZ6HHBCVT","39WSF6KUV27TMEQUH506BZR9N6KEO1","","null","<img src=""img/land7.png"" style=""width:200px;border:14px solid red;"">","null","","","","","",""
"","image-keyboard-response","103","42233","0.0-152.0","3C44YUNSI2B81SMPRC73J0A218ZDPB","A3AU8PZ6HHBCVT","39WSF6KUV27TMEQUH506BZR9N6KEO1","","26","img/land7.png","76","30.400000005960464","76","0","false","",""
"","html-keyboard-response","104","42542","0.0-153.0","3C44YUNSI2B81SMPRC73J0A218ZDPB","A3AU8PZ6HHBCVT","39WSF6KUV27TMEQUH506BZR9N6KEO1","","null","<img src=""img/land7.png"" style=""width:200px;border:14px solid red;"">","null","","","","","",""
"","image-keyboard-response","105","42553","0.0-155.0","3C44YUNSI2B81SMPRC73J0A218ZDPB","A3AU8PZ6HHBCVT","39WSF6KUV27TMEQUH506BZR9N6KEO1","","0.4000000059604645","img/land3.png","75","4.299999982118607","75","0","false","",""
"","html-keyboard-response","106","42861","0.0-156.0","3C44YUNSI2B81SMPRC73J0A218ZDPB","A3AU8PZ6HHBCVT","39WSF6KUV27TMEQUH506BZR9N6KEO1","","null","<img src=""img/land3.png"" style=""width:200px;border:14px solid red;"">","null","","","","","",""
"","image-keyboard-response","107","43030","0.0-158.0","3C44YUNSI2B81SMPRC73J0A218ZDPB","A3AU8PZ6HHBCVT","39WSF6KUV27TMEQUH506BZR9N6KEO1","","164.40000000596046","img/land3.png","75","168","75","0","false","",""
"","html-keyboard-response","108","43340","0.0-159.0","3C44YUNSI2B81SMPRC73J0A218ZDPB","A3AU8PZ6HHBCVT","39WSF6KUV27TMEQUH506BZR9N6KEO1","","null","<img src=""img/land3.png"" style=""width:200px;border:14px solid red;"">","null","","","","","",""
"","image-keyboard-response","109","43406","0.0-161.0","3C44YUNSI2B81SMPRC73J0A218ZDPB","A3AU8PZ6HHBCVT","39WSF6KUV27TMEQUH506BZR9N6KEO1","","53.80000001192093","img/land3.png","76","60.80000001192093","76","1","false","",""
"","html-keyboard-response","110","43714","0.0-162.0","3C44YUNSI2B81SMPRC73J0A218ZDPB","A3AU8PZ6HHBCVT","39WSF6KUV27TMEQUH506BZR9N6KEO1","","null","<img src=""img/land3.png"" style=""width:200px; border:14px solid green;"">","null","","","","","",""
"","image-keyboard-response","111","43876","0.0-164.0","3C44YUNSI2B81SMPRC73J0A218ZDPB","A3AU8PZ6HHBCVT","39WSF6KUV27TMEQUH506BZR9N6KEO1","","155.09999999403954","img/land3.png","74","159.5","74","1","false","",""
"","html-keyboard-response","112","44184","0.0-165.0","3C44YUNSI2B81SMPRC73J0A218ZDPB","A3AU8PZ6HHBCVT","39WSF6KUV27TMEQUH506BZR9N6KEO1","","null","<img src=""img/land3.png"" style=""width:200px; border:14px solid green;"">","null","","","","","",""
"","image-keyboard-response","113","44316","0.0-167.0","3C44YUNSI2B81SMPRC73J0A218ZDPB","A3AU8PZ6HHBCVT","39WSF6KUV27TMEQUH506BZR9N6KEO1","","118.7000000178814","img/land2.png","74","125.40000000596046","74","0","false","",""
"","html-keyboard-response","114","44624","0.0-168.0","3C44YUNSI2B81SMPRC73J0A218ZDPB","A3AU8PZ6HHBCVT","39WSF6KUV27TMEQUH506BZR9N6KEO1","","null","<img src=""img/land2.png"" style=""width:200px;border:14px solid red;"">","null","","","","","",""
"","image-keyboard-response","115","44726","0.0-170.0","3C44YUNSI2B81SMPRC73J0A218ZDPB","A3AU8PZ6HHBCVT","39WSF6KUV27TMEQUH506BZR9N6KEO1","","89.19999998807907","img/land7.png","76","95.40000000596046","76","0","false","",""
"","html-keyboard-response","116","45032","0.0-171.0","3C44YUNSI2B81SMPRC73J0A218ZDPB","A3AU8PZ6HHBCVT","39WSF6KUV27TMEQUH506BZR9N6KEO1","","null","<img src=""img/land7.png"" style=""width:200px;border:14px solid red;"">","null","","","","","",""
"","image-keyboard-response","117","45183","0.0-173.0","3C44YUNSI2B81SMPRC73J0A218ZDPB","A3AU8PZ6HHBCVT","39WSF6KUV27TMEQUH506BZR9N6KEO1","","142.90000000596046","img/land2.png","75","149.5","75","0","false","",""
"","html-keyboard-response","118","45492","0.0-174.0","3C44YUNSI2B81SMPRC73J0A218ZDPB","A3AU8PZ6HHBCVT","39WSF6KUV27TMEQUH506BZR9N6KEO1","","null","<img src=""img/land2.png"" style=""width:200px;border:14px solid red;"">","null","","","","","",""
"","image-keyboard-response","119","45712","0.0-176.0","3C44YUNSI2B81SMPRC73J0A218ZDPB","A3AU8PZ6HHBCVT","39WSF6KUV27TMEQUH506BZR9N6KEO1","","209.40000000596046","img/land2.png","76","216.5","76","1","false","",""
"","html-keyboard-response","120","46021","0.0-177.0","3C44YUNSI2B81SMPRC73J0A218ZDPB","A3AU8PZ6HHBCVT","39WSF6KUV27TMEQUH506BZR9N6KEO1","","null","<img src=""img/land2.png"" style=""width:200px; border:14px solid green;"">","null","","","","","",""
"","image-keyboard-response","121","46036","0.0-179.0","3C44YUNSI2B81SMPRC73J0A218ZDPB","A3AU8PZ6HHBCVT","39WSF6KUV27TMEQUH506BZR9N6KEO1","","10.400000005960464","img/land7.png","75","13.400000005960464","75","1","false","",""
"","html-keyboard-response","122","46342","0.0-180.0","3C44YUNSI2B81SMPRC73J0A218ZDPB","A3AU8PZ6HHBCVT","39WSF6KUV27TMEQUH506BZR9N6KEO1","","null","<img src=""img/land7.png"" style=""width:200px; border:14px solid green;"">","null","","","","","",""
"","image-keyboard-response","123","46453","0.0-182.0","3C44YUNSI2B81SMPRC73J0A218ZDPB","A3AU8PZ6HHBCVT","39WSF6KUV27TMEQUH506BZR9N6KEO1","","97.90000000596046","img/land2.png","75","107","75","0","false","",""
"","html-keyboard-response","124","46760","0.0-183.0","3C44YUNSI2B81SMPRC73J0A218ZDPB","A3AU8PZ6HHBCVT","39WSF6KUV27TMEQUH506BZR9N6KEO1","","null","<img src=""img/land2.png"" style=""width:200px;border:14px solid red;"">","null","","","","","",""
"","image-keyboard-response","125","46772","0.0-185.0","3C44YUNSI2B81SMPRC73J0A218ZDPB","A3AU8PZ6HHBCVT","39WSF6KUV27TMEQUH506BZR9N6KEO1","","7.9000000059604645","img/land7.png","75","11.599999994039536","75","1","false","",""
"","html-keyboard-response","126","47081","0.0-186.0","3C44YUNSI2B81SMPRC73J0A218ZDPB","A3AU8PZ6HHBCVT","39WSF6KUV27TMEQUH506BZR9N6KEO1","","null","<img src=""img/land7.png"" style=""width:200px; border:14px solid green;"">","null","","","","","",""
"","image-keyboard-response","127","47197","0.0-188.0","3C44YUNSI2B81SMPRC73J0A218ZDPB","A3AU8PZ6HHBCVT","39WSF6KUV27TMEQUH506BZR9N6KEO1","","110.5","img/land7.png","76","114","76","0","false","",""
"","html-keyboard-response","128","47507","0.0-189.0","3C44YUNSI2B81SMPRC73J0A218ZDPB","A3AU8PZ6HHBCVT","39WSF6KUV27TMEQUH506BZR9N6KEO1","","null","<img src=""img/land7.png"" style=""width:200px;border:14px solid red;"">","null","","","","","",""
"","image-keyboard-response","129","47517","0.0-191.0","3C44YUNSI2B81SMPRC73J0A218ZDPB","A3AU8PZ6HHBCVT","39WSF6KUV27TMEQUH506BZR9N6KEO1","","0.30000001192092896","img/land7.png","76","3.800000011920929","76","0","false","",""
"","html-keyboard-response","130","47824","0.0-192.0","3C44YUNSI2B81SMPRC73J0A218ZDPB","A3AU8PZ6HHBCVT","39WSF6KUV27TMEQUH506BZR9N6KEO1","","null","<img src=""img/land7.png"" style=""width:200px;border:14px solid red;"">","null","","","","","",""
"","image-keyboard-response","131","47848","0.0-194.0","3C44YUNSI2B81SMPRC73J0A218ZDPB","A3AU8PZ6HHBCVT","39WSF6KUV27TMEQUH506BZR9N6KEO1","","16.400000005960464","img/land7.png","74","21.599999994039536","74","0","false","",""
"","html-keyboard-response","132","48155","0.0-195.0","3C44YUNSI2B81SMPRC73J0A218ZDPB","A3AU8PZ6HHBCVT","39WSF6KUV27TMEQUH506BZR9N6KEO1","","null","<img src=""img/land7.png"" style=""width:200px;border:14px solid red;"">","null","","","","","",""
"","image-keyboard-response","133","48207","0.0-197.0","3C44YUNSI2B81SMPRC73J0A218ZDPB","A3AU8PZ6HHBCVT","39WSF6KUV27TMEQUH506BZR9N6KEO1","","43.79999998211861","img/land7.png","75","49.29999998211861","75","1","false","",""
"","html-keyboard-response","134","48514","0.0-198.0","3C44YUNSI2B81SMPRC73J0A218ZDPB","A3AU8PZ6HHBCVT","39WSF6KUV27TMEQUH506BZR9N6KEO1","","null","<img src=""img/land7.png"" style=""width:200px; border:14px solid green;"">","null","","","","","",""
"","image-keyboard-response","135","48642","0.0-200.0","3C44YUNSI2B81SMPRC73J0A218ZDPB","A3AU8PZ6HHBCVT","39WSF6KUV27TMEQUH506BZR9N6KEO1","","119.40000000596046","img/land2.png","75","125.60000002384186","75","1","false","",""
"","html-keyboard-response","136","48951","0.0-201.0","3C44YUNSI2B81SMPRC73J0A218ZDPB","A3AU8PZ6HHBCVT","39WSF6KUV27TMEQUH506BZR9N6KEO1","","null","<img src=""img/land2.png"" style=""width:200px; border:14px solid green;"">","null","","","","","",""
"","image-keyboard-response","137","49057","0.0-203.0","3C44YUNSI2B81SMPRC73J0A218ZDPB","A3AU8PZ6HHBCVT","39WSF6KUV27TMEQUH506BZR9N6KEO1","","98.69999998807907","img/land3.png","74","102.7000000178814","74","0","false","",""
"","html-keyboard-response","138","49368","0.0-204.0","3C44YUNSI2B81SMPRC73J0A218ZDPB","A3AU8PZ6HHBCVT","39WSF6KUV27TMEQUH506BZR9N6KEO1","","null","<img src=""img/land3.png"" style=""width:200px;border:14px solid red;"">","null","","","","","",""
"","image-keyboard-response","139","49389","0.0-206.0","3C44YUNSI2B81SMPRC73J0A218ZDPB","A3AU8PZ6HHBCVT","39WSF6KUV27TMEQUH506BZR9N6KEO1","","8.899999976158142","img/land7.png","74","15.600000023841858","74","0","false","",""
"","html-keyboard-response","140","49695","0.0-207.0","3C44YUNSI2B81SMPRC73J0A218ZDPB","A3AU8PZ6HHBCVT","39WSF6KUV27TMEQUH506BZR9N6KEO1","","null","<img src=""img/land7.png"" style=""width:200px;border:14px solid red;"">","null","","","","","",""
"","image-keyboard-response","141","49908","0.0-209.0","3C44YUNSI2B81SMPRC73J0A218ZDPB","A3AU8PZ6HHBCVT","39WSF6KUV27TMEQUH506BZR9N6KEO1","","205.30000001192093","img/land2.png","76","212.40000000596046","76","0","false","",""
"","html-keyboard-response","142","50216","0.0-210.0","3C44YUNSI2B81SMPRC73J0A218ZDPB","A3AU8PZ6HHBCVT","39WSF6KUV27TMEQUH506BZR9N6KEO1","","null","<img src=""img/land2.png"" style=""width:200px;border:14px solid red;"">","null","","","","","",""
"","image-keyboard-response","143","50237","0.0-212.0","3C44YUNSI2B81SMPRC73J0A218ZDPB","A3AU8PZ6HHBCVT","39WSF6KUV27TMEQUH506BZR9N6KEO1","","17.299999982118607","img/land7.png","75","20.099999994039536","75","1","false","",""
"","html-keyboard-response","144","50546","0.0-213.0","3C44YUNSI2B81SMPRC73J0A218ZDPB","A3AU8PZ6HHBCVT","39WSF6KUV27TMEQUH506BZR9N6KEO1","","null","<img src=""img/land7.png"" style=""width:200px; border:14px solid green;"">","null","","","","","",""
"","image-keyboard-response","145","50568","0.0-215.0","3C44YUNSI2B81SMPRC73J0A218ZDPB","A3AU8PZ6HHBCVT","39WSF6KUV27TMEQUH506BZR9N6KEO1","","13.700000017881393","img/land7.png","74","17.30000001192093","74","0","false","",""
"","html-keyboard-response","146","50877","0.0-216.0","3C44YUNSI2B81SMPRC73J0A218ZDPB","A3AU8PZ6HHBCVT","39WSF6KUV27TMEQUH506BZR9N6KEO1","","null","<img src=""img/land7.png"" style=""width:200px;border:14px solid red;"">","null","","","","","",""
"","image-keyboard-response","147","50914","0.0-218.0","3C44YUNSI2B81SMPRC73J0A218ZDPB","A3AU8PZ6HHBCVT","39WSF6KUV27TMEQUH506BZR9N6KEO1","","27.599999994039536","img/land2.png","75","32.900000005960464","75","1","false","",""
"","html-keyboard-response","148","51221","0.0-219.0","3C44YUNSI2B81SMPRC73J0A218ZDPB","A3AU8PZ6HHBCVT","39WSF6KUV27TMEQUH506BZR9N6KEO1","","null","<img src=""img/land2.png"" style=""width:200px; border:14px solid green;"">","null","","","","","",""
"","image-keyboard-response","149","51242","0.0-221.0","3C44YUNSI2B81SMPRC73J0A218ZDPB","A3AU8PZ6HHBCVT","39WSF6KUV27TMEQUH506BZR9N6KEO1","","13.099999994039536","img/land2.png","75","16.599999994039536","75","0","false","",""
"","html-keyboard-response","150","51553","0.0-222.0","3C44YUNSI2B81SMPRC73J0A218ZDPB","A3AU8PZ6HHBCVT","39WSF6KUV27TMEQUH506BZR9N6KEO1","","null","<img src=""img/land2.png"" style=""width:200px;border:14px solid red;"">","null","","","","","",""
"","image-keyboard-response","151","51698","0.0-224.0","3C44YUNSI2B81SMPRC73J0A218ZDPB","A3AU8PZ6HHBCVT","39WSF6KUV27TMEQUH506BZR9N6KEO1","","138.40000000596046","img/land2.png","74","143.69999998807907","74","1","false","",""
"","html-keyboard-response","152","52015","0.0-225.0","3C44YUNSI2B81SMPRC73J0A218ZDPB","A3AU8PZ6HHBCVT","39WSF6KUV27TMEQUH506BZR9N6KEO1","","null","<img src=""img/land2.png"" style=""width:200px; border:14px solid green;"">","null","","","","","",""
"","image-keyboard-response","153","52188","0.0-227.0","3C44YUNSI2B81SMPRC73J0A218ZDPB","A3AU8PZ6HHBCVT","39WSF6KUV27TMEQUH506BZR9N6KEO1","","164.90000000596046","img/land2.png","74","171.5","74","1","false","",""
"","html-keyboard-response","154","52496","0.0-228.0","3C44YUNSI2B81SMPRC73J0A218ZDPB","A3AU8PZ6HHBCVT","39WSF6KUV27TMEQUH506BZR9N6KEO1","","null","<img src=""img/land2.png"" style=""width:200px; border:14px solid green;"">","null","","","","","",""
"","image-keyboard-response","155","52575","0.0-230.0","3C44YUNSI2B81SMPRC73J0A218ZDPB","A3AU8PZ6HHBCVT","39WSF6KUV27TMEQUH506BZR9N6KEO1","","70.59999999403954","img/land2.png","76","78.60000002384186","76","0","false","",""
"","html-keyboard-response","156","52884","0.0-231.0","3C44YUNSI2B81SMPRC73J0A218ZDPB","A3AU8PZ6HHBCVT","39WSF6KUV27TMEQUH506BZR9N6KEO1","","null","<img src=""img/land2.png"" style=""width:200px;border:14px solid red;"">","null","","","","","",""
"","image-keyboard-response","157","52896","0.0-233.0","3C44YUNSI2B81SMPRC73J0A218ZDPB","A3AU8PZ6HHBCVT","39WSF6KUV27TMEQUH506BZR9N6KEO1","","0.699999988079071","img/land2.png","76","3.300000011920929","76","0","false","",""
"","html-keyboard-response","158","53202","0.0-234.0","3C44YUNSI2B81SMPRC73J0A218ZDPB","A3AU8PZ6HHBCVT","39WSF6KUV27TMEQUH506BZR9N6KEO1","","null","<img src=""img/land2.png"" style=""width:200px;border:14px solid red;"">","null","","","","","",""
"","image-keyboard-response","159","53214","0.0-236.0","3C44YUNSI2B81SMPRC73J0A218ZDPB","A3AU8PZ6HHBCVT","39WSF6KUV27TMEQUH506BZR9N6KEO1","","2.2999999821186066","img/land7.png","75","7.9000000059604645","75","1","false","",""
"","html-keyboard-response","160","53520","0.0-237.0","3C44YUNSI2B81SMPRC73J0A218ZDPB","A3AU8PZ6HHBCVT","39WSF6KUV27TMEQUH506BZR9N6KEO1","","null","<img src=""img/land7.png"" style=""width:200px; border:14px solid green;"">","null","","","","","",""
"","image-keyboard-response","161","53554","0.0-239.0","3C44YUNSI2B81SMPRC73J0A218ZDPB","A3AU8PZ6HHBCVT","39WSF6KUV27TMEQUH506BZR9N6KEO1","","23","img/land2.png","74","28.400000005960464","74","1","false","",""
"","html-keyboard-response","162","53868","0.0-240.0","3C44YUNSI2B81SMPRC73J0A218ZDPB","A3AU8PZ6HHBCVT","39WSF6KUV27TMEQUH506BZR9N6KEO1","","null","<img src=""img/land2.png"" style=""width:200px; border:14px solid green;"">","null","","","","","",""
"","image-keyboard-response","163","53902","0.0-242.0","3C44YUNSI2B81SMPRC73J0A218ZDPB","A3AU8PZ6HHBCVT","39WSF6KUV27TMEQUH506BZR9N6KEO1","","27","img/land2.png","74","32","74","1","false","",""
"","html-keyboard-response","164","54211","0.0-243.0","3C44YUNSI2B81SMPRC73J0A218ZDPB","A3AU8PZ6HHBCVT","39WSF6KUV27TMEQUH506BZR9N6KEO1","","null","<img src=""img/land2.png"" style=""width:200px; border:14px solid green;"">","null","","","","","",""
"","image-keyboard-response","165","54244","0.0-245.0","3C44YUNSI2B81SMPRC73J0A218ZDPB","A3AU8PZ6HHBCVT","39WSF6KUV27TMEQUH506BZR9N6KEO1","","26.5","img/land7.png","74","30.200000017881393","74","0","false","",""
"","html-keyboard-response","166","54551","0.0-246.0","3C44YUNSI2B81SMPRC73J0A218ZDPB","A3AU8PZ6HHBCVT","39WSF6KUV27TMEQUH506BZR9N6KEO1","","null","<img src=""img/land7.png"" style=""width:200px;border:14px solid red;"">","null","","","","","",""
"","image-keyboard-response","167","54717","0.0-248.0","3C44YUNSI2B81SMPRC73J0A218ZDPB","A3AU8PZ6HHBCVT","39WSF6KUV27TMEQUH506BZR9N6KEO1","","156.89999997615814","img/land7.png","75","162.5","75","1","false","",""
"","html-keyboard-response","168","55025","0.0-249.0","3C44YUNSI2B81SMPRC73J0A218ZDPB","A3AU8PZ6HHBCVT","39WSF6KUV27TMEQUH506BZR9N6KEO1","","null","<img src=""img/land7.png"" style=""width:200px; border:14px solid green;"">","null","","","","","",""
"","image-keyboard-response","169","55061","0.0-251.0","3C44YUNSI2B81SMPRC73J0A218ZDPB","A3AU8PZ6HHBCVT","39WSF6KUV27TMEQUH506BZR9N6KEO1","","28.799999982118607","img/land3.png","75","33.900000005960464","75","0","false","",""
"","html-keyboard-response","170","55372","0.0-252.0","3C44YUNSI2B81SMPRC73J0A218ZDPB","A3AU8PZ6HHBCVT","39WSF6KUV27TMEQUH506BZR9N6KEO1","","null","<img src=""img/land3.png"" style=""width:200px;border:14px solid red;"">","null","","","","","",""
"","image-keyboard-response","171","55456","0.0-254.0","3C44YUNSI2B81SMPRC73J0A218ZDPB","A3AU8PZ6HHBCVT","39WSF6KUV27TMEQUH506BZR9N6KEO1","","72.80000001192093","img/land2.png","76","78.7000000178814","76","0","false","",""
"","html-keyboard-response","172","55763","0.0-255.0","3C44YUNSI2B81SMPRC73J0A218ZDPB","A3AU8PZ6HHBCVT","39WSF6KUV27TMEQUH506BZR9N6KEO1","","null","<img src=""img/land2.png"" style=""width:200px;border:14px solid red;"">","null","","","","","",""
"","image-keyboard-response","173","56189","0.0-257.0","3C44YUNSI2B81SMPRC73J0A218ZDPB","A3AU8PZ6HHBCVT","39WSF6KUV27TMEQUH506BZR9N6KEO1","","414.80000001192093","img/land3.png","76","422.40000000596046","76","1","false","",""
"","html-keyboard-response","174","56496","0.0-258.0","3C44YUNSI2B81SMPRC73J0A218ZDPB","A3AU8PZ6HHBCVT","39WSF6KUV27TMEQUH506BZR9N6KEO1","","null","<img src=""img/land3.png"" style=""width:200px; border:14px solid green;"">","null","","","","","",""
"","image-keyboard-response","175","56656","0.0-260.0","3C44YUNSI2B81SMPRC73J0A218ZDPB","A3AU8PZ6HHBCVT","39WSF6KUV27TMEQUH506BZR9N6KEO1","","147.80000001192093","img/land3.png","74","157.7999999821186","74","0","false","",""
"","html-keyboard-response","176","56963","0.0-261.0","3C44YUNSI2B81SMPRC73J0A218ZDPB","A3AU8PZ6HHBCVT","39WSF6KUV27TMEQUH506BZR9N6KEO1","","null","<img src=""img/land3.png"" style=""width:200px;border:14px solid red;"">","null","","","","","",""
"","image-keyboard-response","177","56973","0.0-263.0","3C44YUNSI2B81SMPRC73J0A218ZDPB","A3AU8PZ6HHBCVT","39WSF6KUV27TMEQUH506BZR9N6KEO1","","0.5","img/land3.png","74","7.199999988079071","74","1","false","",""
"","html-keyboard-response","178","57280","0.0-264.0","3C44YUNSI2B81SMPRC73J0A218ZDPB","A3AU8PZ6HHBCVT","39WSF6KUV27TMEQUH506BZR9N6KEO1","","null","<img src=""img/land3.png"" style=""width:200px; border:14px solid green;"">","null","","","","","",""
"","image-keyboard-response","179","57420","0.0-266.0","3C44YUNSI2B81SMPRC73J0A218ZDPB","A3AU8PZ6HHBCVT","39WSF6KUV27TMEQUH506BZR9N6KEO1","","131.30000001192093","img/land7.png","74","137.2999999821186","74","0","false","",""
"","html-keyboard-response","180","57731","0.0-267.0","3C44YUNSI2B81SMPRC73J0A218ZDPB","A3AU8PZ6HHBCVT","39WSF6KUV27TMEQUH506BZR9N6KEO1","","null","<img src=""img/land7.png"" style=""width:200px;border:14px solid red;"">","null","","","","","",""
"","image-keyboard-response","181","58135","0.0-269.0","3C44YUNSI2B81SMPRC73J0A218ZDPB","A3AU8PZ6HHBCVT","39WSF6KUV27TMEQUH506BZR9N6KEO1","","391.2999999821186","img/land3.png","75","397.2000000178814","75","0","false","",""
"","html-keyboard-response","182","58444","0.0-270.0","3C44YUNSI2B81SMPRC73J0A218ZDPB","A3AU8PZ6HHBCVT","39WSF6KUV27TMEQUH506BZR9N6KEO1","","null","<img src=""img/land3.png"" style=""width:200px;border:14px solid red;"">","null","","","","","",""
"","html-keyboard-response","183","76422","0.0-272.0","3C44YUNSI2B81SMPRC73J0A218ZDPB","A3AU8PZ6HHBCVT","39WSF6KUV27TMEQUH506BZR9N6KEO1","","","","","","","","","",""
"","image-keyboard-response","184","77014","0.0-273.0","3C44YUNSI2B81SMPRC73J0A218ZDPB","A3AU8PZ6HHBCVT","39WSF6KUV27TMEQUH506BZR9N6KEO1","","585","img/land4.png","75","591.9000000059605","75","0","false","",""
"","html-keyboard-response","185","77323","0.0-274.0","3C44YUNSI2B81SMPRC73J0A218ZDPB","A3AU8PZ6HHBCVT","39WSF6KUV27TMEQUH506BZR9N6KEO1","","null","<img src=""img/land4.png"" style=""width:200px;border:14px solid red;"">","null","","","","","",""
"","image-keyboard-response","186","77546","0.0-276.0","3C44YUNSI2B81SMPRC73J0A218ZDPB","A3AU8PZ6HHBCVT","39WSF6KUV27TMEQUH506BZR9N6KEO1","","212.09999999403954","img/land5.png","74","216.69999998807907","74","1","false","",""
"","html-keyboard-response","187","77857","0.0-277.0","3C44YUNSI2B81SMPRC73J0A218ZDPB","A3AU8PZ6HHBCVT","39WSF6KUV27TMEQUH506BZR9N6KEO1","","null","<img src=""img/land5.png"" style=""width:200px; border:14px solid green;"">","null","","","","","",""
"","image-keyboard-response","188","78089","0.0-279.0","3C44YUNSI2B81SMPRC73J0A218ZDPB","A3AU8PZ6HHBCVT","39WSF6KUV27TMEQUH506BZR9N6KEO1","","223.19999998807907","img/land5.png","74","230.2999999821186","74","0","false","",""
"","html-keyboard-response","189","78396","0.0-280.0","3C44YUNSI2B81SMPRC73J0A218ZDPB","A3AU8PZ6HHBCVT","39WSF6KUV27TMEQUH506BZR9N6KEO1","","null","<img src=""img/land5.png"" style=""width:200px;border:14px solid red;"">","null","","","","","",""
"","image-keyboard-response","190","78614","0.0-282.0","3C44YUNSI2B81SMPRC73J0A218ZDPB","A3AU8PZ6HHBCVT","39WSF6KUV27TMEQUH506BZR9N6KEO1","","210.19999998807907","img/land4.png","75","214.39999997615814","75","0","false","",""
"","html-keyboard-response","191","78922","0.0-283.0","3C44YUNSI2B81SMPRC73J0A218ZDPB","A3AU8PZ6HHBCVT","39WSF6KUV27TMEQUH506BZR9N6KEO1","","null","<img src=""img/land4.png"" style=""width:200px;border:14px solid red;"">","null","","","","","",""
"","image-keyboard-response","192","79014","0.0-285.0","3C44YUNSI2B81SMPRC73J0A218ZDPB","A3AU8PZ6HHBCVT","39WSF6KUV27TMEQUH506BZR9N6KEO1","","84","img/land4.png","75","89.90000000596046","75","0","false","",""
"","html-keyboard-response","193","79321","0.0-286.0","3C44YUNSI2B81SMPRC73J0A218ZDPB","A3AU8PZ6HHBCVT","39WSF6KUV27TMEQUH506BZR9N6KEO1","","null","<img src=""img/land4.png"" style=""width:200px;border:14px solid red;"">","null","","","","","",""
"","image-keyboard-response","194","79338","0.0-288.0","3C44YUNSI2B81SMPRC73J0A218ZDPB","A3AU8PZ6HHBCVT","39WSF6KUV27TMEQUH506BZR9N6KEO1","","8.599999994039536","img/land4.png","76","14.300000011920929","76","0","false","",""
"","html-keyboard-response","195","79644","0.0-289.0","3C44YUNSI2B81SMPRC73J0A218ZDPB","A3AU8PZ6HHBCVT","39WSF6KUV27TMEQUH506BZR9N6KEO1","","null","<img src=""img/land4.png"" style=""width:200px;border:14px solid red;"">","null","","","","","",""
"","image-keyboard-response","196","79799","0.0-291.0","3C44YUNSI2B81SMPRC73J0A218ZDPB","A3AU8PZ6HHBCVT","39WSF6KUV27TMEQUH506BZR9N6KEO1","","146.90000000596046","img/land4.png","75","154.2999999821186","75","0","false","",""
"","html-keyboard-response","197","80106","0.0-292.0","3C44YUNSI2B81SMPRC73J0A218ZDPB","A3AU8PZ6HHBCVT","39WSF6KUV27TMEQUH506BZR9N6KEO1","","null","<img src=""img/land4.png"" style=""width:200px;border:14px solid red;"">","null","","","","","",""
"","image-keyboard-response","198","80121","0.0-294.0","3C44YUNSI2B81SMPRC73J0A218ZDPB","A3AU8PZ6HHBCVT","39WSF6KUV27TMEQUH506BZR9N6KEO1","","4.5999999940395355","img/land5.png","74","10.5","74","1","false","",""
"","html-keyboard-response","199","80430","0.0-295.0","3C44YUNSI2B81SMPRC73J0A218ZDPB","A3AU8PZ6HHBCVT","39WSF6KUV27TMEQUH506BZR9N6KEO1","","null","<img src=""img/land5.png"" style=""width:200px; border:14px solid green;"">","null","","","","","",""
"","image-keyboard-response","200","80708","0.0-297.0","3C44YUNSI2B81SMPRC73J0A218ZDPB","A3AU8PZ6HHBCVT","39WSF6KUV27TMEQUH506BZR9N6KEO1","","266.40000000596046","img/land9.png","74","271.90000000596046","74","1","false","",""
"","html-keyboard-response","201","81015","0.0-298.0","3C44YUNSI2B81SMPRC73J0A218ZDPB","A3AU8PZ6HHBCVT","39WSF6KUV27TMEQUH506BZR9N6KEO1","","null","<img src=""img/land9.png"" style=""width:200px; border:14px solid green;"">","null","","","","","",""
"","image-keyboard-response","202","81294","0.0-300.0","3C44YUNSI2B81SMPRC73J0A218ZDPB","A3AU8PZ6HHBCVT","39WSF6KUV27TMEQUH506BZR9N6KEO1","","271.80000001192093","img/land5.png","75","277.69999998807907","75","0","false","",""
"","html-keyboard-response","203","81604","0.0-301.0","3C44YUNSI2B81SMPRC73J0A218ZDPB","A3AU8PZ6HHBCVT","39WSF6KUV27TMEQUH506BZR9N6KEO1","","null","<img src=""img/land5.png"" style=""width:200px;border:14px solid red;"">","null","","","","","",""
"","image-keyboard-response","204","81616","0.0-303.0","3C44YUNSI2B81SMPRC73J0A218ZDPB","A3AU8PZ6HHBCVT","39WSF6KUV27TMEQUH506BZR9N6KEO1","","0.7000000178813934","img/land4.png","76","3.4000000059604645","76","1","false","",""
"","html-keyboard-response","205","81923","0.0-304.0","3C44YUNSI2B81SMPRC73J0A218ZDPB","A3AU8PZ6HHBCVT","39WSF6KUV27TMEQUH506BZR9N6KEO1","","null","<img src=""img/land4.png"" style=""width:200px; border:14px solid green;"">","null","","","","","",""
"","image-keyboard-response","206","82016","0.0-306.0","3C44YUNSI2B81SMPRC73J0A218ZDPB","A3AU8PZ6HHBCVT","39WSF6KUV27TMEQUH506BZR9N6KEO1","","83.7999999821186","img/land9.png","74","87.89999997615814","74","0","false","",""
"","html-keyboard-response","207","82323","0.0-307.0","3C44YUNSI2B81SMPRC73J0A218ZDPB","A3AU8PZ6HHBCVT","39WSF6KUV27TMEQUH506BZR9N6KEO1","","null","<img src=""img/land9.png"" style=""width:200px;border:14px solid red;"">","null","","","","","",""
"","image-keyboard-response","208","82390","0.0-309.0","3C44YUNSI2B81SMPRC73J0A218ZDPB","A3AU8PZ6HHBCVT","39WSF6KUV27TMEQUH506BZR9N6KEO1","","55.099999994039536","img/land5.png","74","62.19999998807907","74","0","false","",""
"","html-keyboard-response","209","82698","0.0-310.0","3C44YUNSI2B81SMPRC73J0A218ZDPB","A3AU8PZ6HHBCVT","39WSF6KUV27TMEQUH506BZR9N6KEO1","","null","<img src=""img/land5.png"" style=""width:200px;border:14px solid red;"">","null","","","","","",""
"","image-keyboard-response","210","82754","0.0-312.0","3C44YUNSI2B81SMPRC73J0A218ZDPB","A3AU8PZ6HHBCVT","39WSF6KUV27TMEQUH506BZR9N6KEO1","","48.69999998807907","img/land9.png","74","53.400000005960464","74","0","false","",""
"","html-keyboard-response","211","83063","0.0-313.0","3C44YUNSI2B81SMPRC73J0A218ZDPB","A3AU8PZ6HHBCVT","39WSF6KUV27TMEQUH506BZR9N6KEO1","","null","<img src=""img/land9.png"" style=""width:200px;border:14px solid red;"">","null","","","","","",""
"","image-keyboard-response","212","83071","0.0-315.0","3C44YUNSI2B81SMPRC73J0A218ZDPB","A3AU8PZ6HHBCVT","39WSF6KUV27TMEQUH506BZR9N6KEO1","","0.800000011920929","img/land4.png","74","4.199999988079071","74","1","false","",""
"","html-keyboard-response","213","83380","0.0-316.0","3C44YUNSI2B81SMPRC73J0A218ZDPB","A3AU8PZ6HHBCVT","39WSF6KUV27TMEQUH506BZR9N6KEO1","","null","<img src=""img/land4.png"" style=""width:200px; border:14px solid green;"">","null","","","","","",""
"","image-keyboard-response","214","83390","0.0-318.0","3C44YUNSI2B81SMPRC73J0A218ZDPB","A3AU8PZ6HHBCVT","39WSF6KUV27TMEQUH506BZR9N6KEO1","","0.4000000059604645","img/land4.png","75","6.100000023841858","75","1","false","",""
"","html-keyboard-response","215","83698","0.0-319.0","3C44YUNSI2B81SMPRC73J0A218ZDPB","A3AU8PZ6HHBCVT","39WSF6KUV27TMEQUH506BZR9N6KEO1","","null","<img src=""img/land4.png"" style=""width:200px; border:14px solid green;"">","null","","","","","",""
"","image-keyboard-response","216","83808","0.0-321.0","3C44YUNSI2B81SMPRC73J0A218ZDPB","A3AU8PZ6HHBCVT","39WSF6KUV27TMEQUH506BZR9N6KEO1","","91.2999999821186","img/land4.png","74","104.7000000178814","74","1","false","",""
"","html-keyboard-response","217","84116","0.0-322.0","3C44YUNSI2B81SMPRC73J0A218ZDPB","A3AU8PZ6HHBCVT","39WSF6KUV27TMEQUH506BZR9N6KEO1","","null","<img src=""img/land4.png"" style=""width:200px; border:14px solid green;"">","null","","","","","",""
"","image-keyboard-response","218","84134","0.0-324.0","3C44YUNSI2B81SMPRC73J0A218ZDPB","A3AU8PZ6HHBCVT","39WSF6KUV27TMEQUH506BZR9N6KEO1","","11.100000023841858","img/land9.png","75","14.400000005960464","75","0","false","",""
"","html-keyboard-response","219","84440","0.0-325.0","3C44YUNSI2B81SMPRC73J0A218ZDPB","A3AU8PZ6HHBCVT","39WSF6KUV27TMEQUH506BZR9N6KEO1","","null","<img src=""img/land9.png"" style=""width:200px;border:14px solid red;"">","null","","","","","",""
"","image-keyboard-response","220","84592","0.0-327.0","3C44YUNSI2B81SMPRC73J0A218ZDPB","A3AU8PZ6HHBCVT","39WSF6KUV27TMEQUH506BZR9N6KEO1","","143.69999998807907","img/land4.png","75","149.80000001192093","75","0","false","",""
"","html-keyboard-response","221","84901","0.0-328.0","3C44YUNSI2B81SMPRC73J0A218ZDPB","A3AU8PZ6HHBCVT","39WSF6KUV27TMEQUH506BZR9N6KEO1","","null","<img src=""img/land4.png"" style=""width:200px;border:14px solid red;"">","null","","","","","",""
"","image-keyboard-response","222","84916","0.0-330.0","3C44YUNSI2B81SMPRC73J0A218ZDPB","A3AU8PZ6HHBCVT","39WSF6KUV27TMEQUH506BZR9N6KEO1","","5.199999988079071","img/land5.png","74","12.199999988079071","74","0","false","",""
"","html-keyboard-response","223","85228","0.0-331.0","3C44YUNSI2B81SMPRC73J0A218ZDPB","A3AU8PZ6HHBCVT","39WSF6KUV27TMEQUH506BZR9N6KEO1","","null","<img src=""img/land5.png"" style=""width:200px;border:14px solid red;"">","null","","","","","",""
"","image-keyboard-response","224","85254","0.0-333.0","3C44YUNSI2B81SMPRC73J0A218ZDPB","A3AU8PZ6HHBCVT","39WSF6KUV27TMEQUH506BZR9N6KEO1","","20.599999994039536","img/land9.png","74","24.30000001192093","74","0","false","",""
"","html-keyboard-response","225","85563","0.0-334.0","3C44YUNSI2B81SMPRC73J0A218ZDPB","A3AU8PZ6HHBCVT","39WSF6KUV27TMEQUH506BZR9N6KEO1","","null","<img src=""img/land9.png"" style=""width:200px;border:14px solid red;"">","null","","","","","",""
"","image-keyboard-response","226","85661","0.0-336.0","3C44YUNSI2B81SMPRC73J0A218ZDPB","A3AU8PZ6HHBCVT","39WSF6KUV27TMEQUH506BZR9N6KEO1","","87.5","img/land9.png","75","94.40000000596046","75","1","false","",""
"","html-keyboard-response","227","85971","0.0-337.0","3C44YUNSI2B81SMPRC73J0A218ZDPB","A3AU8PZ6HHBCVT","39WSF6KUV27TMEQUH506BZR9N6KEO1","","null","<img src=""img/land9.png"" style=""width:200px; border:14px solid green;"">","null","","","","","",""
"","image-keyboard-response","228","86026","0.0-339.0","3C44YUNSI2B81SMPRC73J0A218ZDPB","A3AU8PZ6HHBCVT","39WSF6KUV27TMEQUH506BZR9N6KEO1","","43.10000002384186","img/land5.png","75","49","75","0","false","",""
"","html-keyboard-response","229","86332","0.0-340.0","3C44YUNSI2B81SMPRC73J0A218ZDPB","A3AU8PZ6HHBCVT","39WSF6KUV27TMEQUH506BZR9N6KEO1","","null","<img src=""img/land5.png"" style=""width:200px;border:14px solid red;"">","null","","","","","",""
"","image-keyboard-response","230","86389","0.0-342.0","3C44YUNSI2B81SMPRC73J0A218ZDPB","A3AU8PZ6HHBCVT","39WSF6KUV27TMEQUH506BZR9N6KEO1","","50.400000005960464","img/land4.png","74","54.80000001192093","74","0","false","",""
"","html-keyboard-response","231","86695","0.0-343.0","3C44YUNSI2B81SMPRC73J0A218ZDPB","A3AU8PZ6HHBCVT","39WSF6KUV27TMEQUH506BZR9N6KEO1","","null","<img src=""img/land4.png"" style=""width:200px;border:14px solid red;"">","null","","","","","",""
"","image-keyboard-response","232","86704","0.0-345.0","3C44YUNSI2B81SMPRC73J0A218ZDPB","A3AU8PZ6HHBCVT","39WSF6KUV27TMEQUH506BZR9N6KEO1","","0.5999999940395355","img/land4.png","75","4.5999999940395355","75","0","false","",""
"","html-keyboard-response","233","87011","0.0-346.0","3C44YUNSI2B81SMPRC73J0A218ZDPB","A3AU8PZ6HHBCVT","39WSF6KUV27TMEQUH506BZR9N6KEO1","","null","<img src=""img/land4.png"" style=""width:200px;border:14px solid red;"">","null","","","","","",""
"","image-keyboard-response","234","87047","0.0-348.0","3C44YUNSI2B81SMPRC73J0A218ZDPB","A3AU8PZ6HHBCVT","39WSF6KUV27TMEQUH506BZR9N6KEO1","","26.80000001192093","img/land9.png","74","30.899999976158142","74","1","false","",""
"","html-keyboard-response","235","87354","0.0-349.0","3C44YUNSI2B81SMPRC73J0A218ZDPB","A3AU8PZ6HHBCVT","39WSF6KUV27TMEQUH506BZR9N6KEO1","","null","<img src=""img/land9.png"" style=""width:200px; border:14px solid green;"">","null","","","","","",""
"","image-keyboard-response","236","87587","0.0-351.0","3C44YUNSI2B81SMPRC73J0A218ZDPB","A3AU8PZ6HHBCVT","39WSF6KUV27TMEQUH506BZR9N6KEO1","","225.5","img/land4.png","75","230.2000000178814","75","0","false","",""
"","html-keyboard-response","237","87897","0.0-352.0","3C44YUNSI2B81SMPRC73J0A218ZDPB","A3AU8PZ6HHBCVT","39WSF6KUV27TMEQUH506BZR9N6KEO1","","null","<img src=""img/land4.png"" style=""width:200px;border:14px solid red;"">","null","","","","","",""
"","image-keyboard-response","238","87964","0.0-354.0","3C44YUNSI2B81SMPRC73J0A218ZDPB","A3AU8PZ6HHBCVT","39WSF6KUV27TMEQUH506BZR9N6KEO1","","55.099999994039536","img/land5.png","75","61.69999998807907","75","0","false","",""
"","html-keyboard-response","239","88273","0.0-355.0","3C44YUNSI2B81SMPRC73J0A218ZDPB","A3AU8PZ6HHBCVT","39WSF6KUV27TMEQUH506BZR9N6KEO1","","null","<img src=""img/land5.png"" style=""width:200px;border:14px solid red;"">","null","","","","","",""
"","image-keyboard-response","240","88301","0.0-357.0","3C44YUNSI2B81SMPRC73J0A218ZDPB","A3AU8PZ6HHBCVT","39WSF6KUV27TMEQUH506BZR9N6KEO1","","18.400000005960464","img/land5.png","75","22.399999976158142","75","1","false","",""
"","html-keyboard-response","241","88610","0.0-358.0","3C44YUNSI2B81SMPRC73J0A218ZDPB","A3AU8PZ6HHBCVT","39WSF6KUV27TMEQUH506BZR9N6KEO1","","null","<img src=""img/land5.png"" style=""width:200px; border:14px solid green;"">","null","","","","","",""
"","image-keyboard-response","242","88733","0.0-360.0","3C44YUNSI2B81SMPRC73J0A218ZDPB","A3AU8PZ6HHBCVT","39WSF6KUV27TMEQUH506BZR9N6KEO1","","113.30000001192093","img/land9.png","74","118.90000000596046","74","1","false","",""
"","html-keyboard-response","243","89041","0.0-361.0","3C44YUNSI2B81SMPRC73J0A218ZDPB","A3AU8PZ6HHBCVT","39WSF6KUV27TMEQUH506BZR9N6KEO1","","null","<img src=""img/land9.png"" style=""width:200px; border:14px solid green;"">","null","","","","","",""
"","image-keyboard-response","244","89112","0.0-363.0","3C44YUNSI2B81SMPRC73J0A218ZDPB","A3AU8PZ6HHBCVT","39WSF6KUV27TMEQUH506BZR9N6KEO1","","58.80000001192093","img/land9.png","75","69.2999999821186","75","1","false","",""
"","html-keyboard-response","245","89420","0.0-364.0","3C44YUNSI2B81SMPRC73J0A218ZDPB","A3AU8PZ6HHBCVT","39WSF6KUV27TMEQUH506BZR9N6KEO1","","null","<img src=""img/land9.png"" style=""width:200px; border:14px solid green;"">","null","","","","","",""
"","image-keyboard-response","246","89494","0.0-366.0","3C44YUNSI2B81SMPRC73J0A218ZDPB","A3AU8PZ6HHBCVT","39WSF6KUV27TMEQUH506BZR9N6KEO1","","63.60000002384186","img/land4.png","75","71.40000000596046","75","0","false","",""
"","html-keyboard-response","247","89803","0.0-367.0","3C44YUNSI2B81SMPRC73J0A218ZDPB","A3AU8PZ6HHBCVT","39WSF6KUV27TMEQUH506BZR9N6KEO1","","null","<img src=""img/land4.png"" style=""width:200px;border:14px solid red;"">","null","","","","","",""
"","image-keyboard-response","248","89866","0.0-369.0","3C44YUNSI2B81SMPRC73J0A218ZDPB","A3AU8PZ6HHBCVT","39WSF6KUV27TMEQUH506BZR9N6KEO1","","54.400000005960464","img/land5.png","74","60.29999998211861","74","0","false","",""
"","html-keyboard-response","249","90176","0.0-370.0","3C44YUNSI2B81SMPRC73J0A218ZDPB","A3AU8PZ6HHBCVT","39WSF6KUV27TMEQUH506BZR9N6KEO1","","null","<img src=""img/land5.png"" style=""width:200px;border:14px solid red;"">","null","","","","","",""
"","image-keyboard-response","250","90196","0.0-372.0","3C44YUNSI2B81SMPRC73J0A218ZDPB","A3AU8PZ6HHBCVT","39WSF6KUV27TMEQUH506BZR9N6KEO1","","15.099999994039536","img/land9.png","76","17.69999998807907","76","0","false","",""
"","html-keyboard-response","251","90505","0.0-373.0","3C44YUNSI2B81SMPRC73J0A218ZDPB","A3AU8PZ6HHBCVT","39WSF6KUV27TMEQUH506BZR9N6KEO1","","null","<img src=""img/land9.png"" style=""width:200px;border:14px solid red;"">","null","","","","","",""
"","image-keyboard-response","252","90555","0.0-375.0","3C44YUNSI2B81SMPRC73J0A218ZDPB","A3AU8PZ6HHBCVT","39WSF6KUV27TMEQUH506BZR9N6KEO1","","40.60000002384186","img/land5.png","75","46","75","1","false","",""
"","html-keyboard-response","253","90867","0.0-376.0","3C44YUNSI2B81SMPRC73J0A218ZDPB","A3AU8PZ6HHBCVT","39WSF6KUV27TMEQUH506BZR9N6KEO1","","null","<img src=""img/land5.png"" style=""width:200px; border:14px solid green;"">","null","","","","","",""
"","image-keyboard-response","254","90956","0.0-378.0","3C44YUNSI2B81SMPRC73J0A218ZDPB","A3AU8PZ6HHBCVT","39WSF6KUV27TMEQUH506BZR9N6KEO1","","78.7000000178814","img/land9.png","74","84.40000000596046","74","1","false","",""
"","html-keyboard-response","255","91263","0.0-379.0","3C44YUNSI2B81SMPRC73J0A218ZDPB","A3AU8PZ6HHBCVT","39WSF6KUV27TMEQUH506BZR9N6KEO1","","null","<img src=""img/land9.png"" style=""width:200px; border:14px solid green;"">","null","","","","","",""
"","image-keyboard-response","256","91334","0.0-381.0","3C44YUNSI2B81SMPRC73J0A218ZDPB","A3AU8PZ6HHBCVT","39WSF6KUV27TMEQUH506BZR9N6KEO1","","61.599999994039536","img/land9.png","75","68.39999997615814","75","1","false","",""
"","html-keyboard-response","257","91647","0.0-382.0","3C44YUNSI2B81SMPRC73J0A218ZDPB","A3AU8PZ6HHBCVT","39WSF6KUV27TMEQUH506BZR9N6KEO1","","null","<img src=""img/land9.png"" style=""width:200px; border:14px solid green;"">","null","","","","","",""
"","image-keyboard-response","258","91782","0.0-384.0","3C44YUNSI2B81SMPRC73J0A218ZDPB","A3AU8PZ6HHBCVT","39WSF6KUV27TMEQUH506BZR9N6KEO1","","125.40000000596046","img/land5.png","74","131.90000000596046","74","0","false","",""
"","html-keyboard-response","259","92090","0.0-385.0","3C44YUNSI2B81SMPRC73J0A218ZDPB","A3AU8PZ6HHBCVT","39WSF6KUV27TMEQUH506BZR9N6KEO1","","null","<img src=""img/land5.png"" style=""width:200px;border:14px solid red;"">","null","","","","","",""
"","image-keyboard-response","260","92167","0.0-387.0","3C44YUNSI2B81SMPRC73J0A218ZDPB","A3AU8PZ6HHBCVT","39WSF6KUV27TMEQUH506BZR9N6KEO1","","64.40000000596046","img/land4.png","74","72.40000000596046","74","1","false","",""
"","html-keyboard-response","261","92474","0.0-388.0","3C44YUNSI2B81SMPRC73J0A218ZDPB","A3AU8PZ6HHBCVT","39WSF6KUV27TMEQUH506BZR9N6KEO1","","null","<img src=""img/land4.png"" style=""width:200px; border:14px solid green;"">","null","","","","","",""
"","image-keyboard-response","262","92535","0.0-390.0","3C44YUNSI2B81SMPRC73J0A218ZDPB","A3AU8PZ6HHBCVT","39WSF6KUV27TMEQUH506BZR9N6KEO1","","53.900000005960464","img/land5.png","76","58.599999994039536","76","1","false","",""
"","html-keyboard-response","263","92845","0.0-391.0","3C44YUNSI2B81SMPRC73J0A218ZDPB","A3AU8PZ6HHBCVT","39WSF6KUV27TMEQUH506BZR9N6KEO1","","null","<img src=""img/land5.png"" style=""width:200px; border:14px solid green;"">","null","","","","","",""
"","image-keyboard-response","264","92853","0.0-393.0","3C44YUNSI2B81SMPRC73J0A218ZDPB","A3AU8PZ6HHBCVT","39WSF6KUV27TMEQUH506BZR9N6KEO1","","0.4000000059604645","img/land9.png","74","2.899999976158142","74","1","false","",""
"","html-keyboard-response","265","93158","0.0-394.0","3C44YUNSI2B81SMPRC73J0A218ZDPB","A3AU8PZ6HHBCVT","39WSF6KUV27TMEQUH506BZR9N6KEO1","","null","<img src=""img/land9.png"" style=""width:200px; border:14px solid green;"">","null","","","","","",""
"","image-keyboard-response","266","93281","0.0-396.0","3C44YUNSI2B81SMPRC73J0A218ZDPB","A3AU8PZ6HHBCVT","39WSF6KUV27TMEQUH506BZR9N6KEO1","","117.59999999403954","img/land5.png","74","122.30000001192093","74","0","false","",""
"","html-keyboard-response","267","93588","0.0-397.0","3C44YUNSI2B81SMPRC73J0A218ZDPB","A3AU8PZ6HHBCVT","39WSF6KUV27TMEQUH506BZR9N6KEO1","","null","<img src=""img/land5.png"" style=""width:200px;border:14px solid red;"">","null","","","","","",""
"","image-keyboard-response","268","93608","0.0-399.0","3C44YUNSI2B81SMPRC73J0A218ZDPB","A3AU8PZ6HHBCVT","39WSF6KUV27TMEQUH506BZR9N6KEO1","","12.400000005960464","img/land4.png","75","16","75","0","false","",""
"","html-keyboard-response","269","93917","0.0-400.0","3C44YUNSI2B81SMPRC73J0A218ZDPB","A3AU8PZ6HHBCVT","39WSF6KUV27TMEQUH506BZR9N6KEO1","","null","<img src=""img/land4.png"" style=""width:200px;border:14px solid red;"">","null","","","","","",""
"","image-keyboard-response","270","93956","0.0-402.0","3C44YUNSI2B81SMPRC73J0A218ZDPB","A3AU8PZ6HHBCVT","39WSF6KUV27TMEQUH506BZR9N6KEO1","","30.80000001192093","img/land5.png","75","35.19999998807907","75","1","false","",""
"","html-keyboard-response","271","94264","0.0-403.0","3C44YUNSI2B81SMPRC73J0A218ZDPB","A3AU8PZ6HHBCVT","39WSF6KUV27TMEQUH506BZR9N6KEO1","","null","<img src=""img/land5.png"" style=""width:200px; border:14px solid green;"">","null","","","","","",""
"","image-keyboard-response","272","94290","0.0-405.0","3C44YUNSI2B81SMPRC73J0A218ZDPB","A3AU8PZ6HHBCVT","39WSF6KUV27TMEQUH506BZR9N6KEO1","","20","img/land5.png","74","23.200000017881393","74","0","false","",""
"","html-keyboard-response","273","94599","0.0-406.0","3C44YUNSI2B81SMPRC73J0A218ZDPB","A3AU8PZ6HHBCVT","39WSF6KUV27TMEQUH506BZR9N6KEO1","","null","<img src=""img/land5.png"" style=""width:200px;border:14px solid red;"">","null","","","","","",""
"","image-keyboard-response","274","94611","0.0-408.0","3C44YUNSI2B81SMPRC73J0A218ZDPB","A3AU8PZ6HHBCVT","39WSF6KUV27TMEQUH506BZR9N6KEO1","","0.9000000059604645","img/land9.png","76","3.7999999821186066","76","0","false","",""
"","html-keyboard-response","275","94918","0.0-409.0","3C44YUNSI2B81SMPRC73J0A218ZDPB","A3AU8PZ6HHBCVT","39WSF6KUV27TMEQUH506BZR9N6KEO1","","null","<img src=""img/land9.png"" style=""width:200px;border:14px solid red;"">","null","","","","","",""
"","image-keyboard-response","276","94990","0.0-411.0","3C44YUNSI2B81SMPRC73J0A218ZDPB","A3AU8PZ6HHBCVT","39WSF6KUV27TMEQUH506BZR9N6KEO1","","61.20000001788139","img/land4.png","74","66.30000001192093","74","1","false","",""
"","html-keyboard-response","277","95299","0.0-412.0","3C44YUNSI2B81SMPRC73J0A218ZDPB","A3AU8PZ6HHBCVT","39WSF6KUV27TMEQUH506BZR9N6KEO1","","null","<img src=""img/land4.png"" style=""width:200px; border:14px solid green;"">","null","","","","","",""
"","image-keyboard-response","278","95429","0.0-414.0","3C44YUNSI2B81SMPRC73J0A218ZDPB","A3AU8PZ6HHBCVT","39WSF6KUV27TMEQUH506BZR9N6KEO1","","117.30000001192093","img/land4.png","76","125.90000000596046","76","1","false","",""
"","html-keyboard-response","279","95737","0.0-415.0","3C44YUNSI2B81SMPRC73J0A218ZDPB","A3AU8PZ6HHBCVT","39WSF6KUV27TMEQUH506BZR9N6KEO1","","null","<img src=""img/land4.png"" style=""width:200px; border:14px solid green;"">","null","","","","","",""
"","image-keyboard-response","280","95792","0.0-417.0","3C44YUNSI2B81SMPRC73J0A218ZDPB","A3AU8PZ6HHBCVT","39WSF6KUV27TMEQUH506BZR9N6KEO1","","47.20000001788139","img/land9.png","75","52.900000005960464","75","1","false","",""
"","html-keyboard-response","281","96100","0.0-418.0","3C44YUNSI2B81SMPRC73J0A218ZDPB","A3AU8PZ6HHBCVT","39WSF6KUV27TMEQUH506BZR9N6KEO1","","null","<img src=""img/land9.png"" style=""width:200px; border:14px solid green;"">","null","","","","","",""
"","image-keyboard-response","282","96192","0.0-420.0","3C44YUNSI2B81SMPRC73J0A218ZDPB","A3AU8PZ6HHBCVT","39WSF6KUV27TMEQUH506BZR9N6KEO1","","82.69999998807907","img/land9.png","75","86.40000000596046","75","1","false","",""
"","html-keyboard-response","283","96499","0.0-421.0","3C44YUNSI2B81SMPRC73J0A218ZDPB","A3AU8PZ6HHBCVT","39WSF6KUV27TMEQUH506BZR9N6KEO1","","null","<img src=""img/land9.png"" style=""width:200px; border:14px solid green;"">","null","","","","","",""
"","image-keyboard-response","284","96554","0.0-423.0","3C44YUNSI2B81SMPRC73J0A218ZDPB","A3AU8PZ6HHBCVT","39WSF6KUV27TMEQUH506BZR9N6KEO1","","44.79999998211861","img/land5.png","76","49.400000005960464","76","1","false","",""
"","html-keyboard-response","285","96861","0.0-424.0","3C44YUNSI2B81SMPRC73J0A218ZDPB","A3AU8PZ6HHBCVT","39WSF6KUV27TMEQUH506BZR9N6KEO1","","null","<img src=""img/land5.png"" style=""width:200px; border:14px solid green;"">","null","","","","","",""
"","image-keyboard-response","286","96972","0.0-426.0","3C44YUNSI2B81SMPRC73J0A218ZDPB","A3AU8PZ6HHBCVT","39WSF6KUV27TMEQUH506BZR9N6KEO1","","103.7000000178814","img/land5.png","75","107.2000000178814","75","1","false","",""
"","html-keyboard-response","287","97281","0.0-427.0","3C44YUNSI2B81SMPRC73J0A218ZDPB","A3AU8PZ6HHBCVT","39WSF6KUV27TMEQUH506BZR9N6KEO1","","null","<img src=""img/land5.png"" style=""width:200px; border:14px solid green;"">","null","","","","","",""
"","image-keyboard-response","288","97328","0.0-429.0","3C44YUNSI2B81SMPRC73J0A218ZDPB","A3AU8PZ6HHBCVT","39WSF6KUV27TMEQUH506BZR9N6KEO1","","37.69999998807907","img/land9.png","74","43.099999994039536","74","1","false","",""
"","html-keyboard-response","289","97637","0.0-430.0","3C44YUNSI2B81SMPRC73J0A218ZDPB","A3AU8PZ6HHBCVT","39WSF6KUV27TMEQUH506BZR9N6KEO1","","null","<img src=""img/land9.png"" style=""width:200px; border:14px solid green;"">","null","","","","","",""
"","image-keyboard-response","290","97709","0.0-432.0","3C44YUNSI2B81SMPRC73J0A218ZDPB","A3AU8PZ6HHBCVT","39WSF6KUV27TMEQUH506BZR9N6KEO1","","59.5","img/land4.png","75","68.19999998807907","75","0","false","",""
"","html-keyboard-response","291","98016","0.0-433.0","3C44YUNSI2B81SMPRC73J0A218ZDPB","A3AU8PZ6HHBCVT","39WSF6KUV27TMEQUH506BZR9N6KEO1","","null","<img src=""img/land4.png"" style=""width:200px;border:14px solid red;"">","null","","","","","",""
"","image-keyboard-response","292","98183","0.0-435.0","3C44YUNSI2B81SMPRC73J0A218ZDPB","A3AU8PZ6HHBCVT","39WSF6KUV27TMEQUH506BZR9N6KEO1","","161.19999998807907","img/land9.png","76","166.2000000178814","76","0","false","",""
"","html-keyboard-response","293","98494","0.0-436.0","3C44YUNSI2B81SMPRC73J0A218ZDPB","A3AU8PZ6HHBCVT","39WSF6KUV27TMEQUH506BZR9N6KEO1","","null","<img src=""img/land9.png"" style=""width:200px;border:14px solid red;"">","null","","","","","",""
"","image-keyboard-response","294","98578","0.0-438.0","3C44YUNSI2B81SMPRC73J0A218ZDPB","A3AU8PZ6HHBCVT","39WSF6KUV27TMEQUH506BZR9N6KEO1","","76.5","img/land5.png","75","80.7999999821186","75","0","false","",""
"","html-keyboard-response","295","98888","0.0-439.0","3C44YUNSI2B81SMPRC73J0A218ZDPB","A3AU8PZ6HHBCVT","39WSF6KUV27TMEQUH506BZR9N6KEO1","","null","<img src=""img/land5.png"" style=""width:200px;border:14px solid red;"">","null","","","","","",""
"","image-keyboard-response","296","99010","0.0-441.0","3C44YUNSI2B81SMPRC73J0A218ZDPB","A3AU8PZ6HHBCVT","39WSF6KUV27TMEQUH506BZR9N6KEO1","","112.19999998807907","img/land5.png","75","118.7999999821186","75","1","false","",""
"","html-keyboard-response","297","99321","0.0-442.0","3C44YUNSI2B81SMPRC73J0A218ZDPB","A3AU8PZ6HHBCVT","39WSF6KUV27TMEQUH506BZR9N6KEO1","","null","<img src=""img/land5.png"" style=""width:200px; border:14px solid green;"">","null","","","","","",""
"","image-keyboard-response","298","99336","0.0-444.0","3C44YUNSI2B81SMPRC73J0A218ZDPB","A3AU8PZ6HHBCVT","39WSF6KUV27TMEQUH506BZR9N6KEO1","","3.899999976158142","img/land4.png","75","7.799999982118607","75","0","false","",""
"","html-keyboard-response","299","99643","0.0-445.0","3C44YUNSI2B81SMPRC73J0A218ZDPB","A3AU8PZ6HHBCVT","39WSF6KUV27TMEQUH506BZR9N6KEO1","","null","<img src=""img/land4.png"" style=""width:200px;border:14px solid red;"">","null","","","","","",""
"","image-keyboard-response","300","99791","0.0-447.0","3C44YUNSI2B81SMPRC73J0A218ZDPB","A3AU8PZ6HHBCVT","39WSF6KUV27TMEQUH506BZR9N6KEO1","","138.19999998807907","img/land5.png","75","144.2000000178814","75","1","false","",""
"","html-keyboard-response","301","100101","0.0-448.0","3C44YUNSI2B81SMPRC73J0A218ZDPB","A3AU8PZ6HHBCVT","39WSF6KUV27TMEQUH506BZR9N6KEO1","","null","<img src=""img/land5.png"" style=""width:200px; border:14px solid green;"">","null","","","","","",""
"","image-keyboard-response","302","100172","0.0-450.0","3C44YUNSI2B81SMPRC73J0A218ZDPB","A3AU8PZ6HHBCVT","39WSF6KUV27TMEQUH506BZR9N6KEO1","","58.69999998807907","img/land4.png","75","64.69999998807907","75","0","false","",""
"","html-keyboard-response","303","100479","0.0-451.0","3C44YUNSI2B81SMPRC73J0A218ZDPB","A3AU8PZ6HHBCVT","39WSF6KUV27TMEQUH506BZR9N6KEO1","","null","<img src=""img/land4.png"" style=""width:200px;border:14px solid red;"">","null","","","","","",""
"","image-keyboard-response","304","100499","0.0-453.0","3C44YUNSI2B81SMPRC73J0A218ZDPB","A3AU8PZ6HHBCVT","39WSF6KUV27TMEQUH506BZR9N6KEO1","","12.5","img/land9.png","75","16.19999998807907","75","1","false","",""
"","html-keyboard-response","305","100806","0.0-454.0","3C44YUNSI2B81SMPRC73J0A218ZDPB","A3AU8PZ6HHBCVT","39WSF6KUV27TMEQUH506BZR9N6KEO1","","null","<img src=""img/land9.png"" style=""width:200px; border:14px solid green;"">","null","","","","","",""
"","image-keyboard-response","306","100848","0.0-456.0","3C44YUNSI2B81SMPRC73J0A218ZDPB","A3AU8PZ6HHBCVT","39WSF6KUV27TMEQUH506BZR9N6KEO1","","31.099999994039536","img/land5.png","75","36.30000001192093","75","1","false","",""
"","html-keyboard-response","307","101156","0.0-457.0","3C44YUNSI2B81SMPRC73J0A218ZDPB","A3AU8PZ6HHBCVT","39WSF6KUV27TMEQUH506BZR9N6KEO1","","null","<img src=""img/land5.png"" style=""width:200px; border:14px solid green;"">","null","","","","","",""
"","image-keyboard-response","308","101197","0.0-459.0","3C44YUNSI2B81SMPRC73J0A218ZDPB","A3AU8PZ6HHBCVT","39WSF6KUV27TMEQUH506BZR9N6KEO1","","34.19999998807907","img/land9.png","74","39.60000002384186","74","1","false","",""
"","html-keyboard-response","309","101508","0.0-460.0","3C44YUNSI2B81SMPRC73J0A218ZDPB","A3AU8PZ6HHBCVT","39WSF6KUV27TMEQUH506BZR9N6KEO1","","null","<img src=""img/land9.png"" style=""width:200px; border:14px solid green;"">","null","","","","","",""
"","image-keyboard-response","310","101559","0.0-462.0","3C44YUNSI2B81SMPRC73J0A218ZDPB","A3AU8PZ6HHBCVT","39WSF6KUV27TMEQUH506BZR9N6KEO1","","43.5","img/land5.png","76","49.19999998807907","76","1","false","",""
"","html-keyboard-response","311","101868","0.0-463.0","3C44YUNSI2B81SMPRC73J0A218ZDPB","A3AU8PZ6HHBCVT","39WSF6KUV27TMEQUH506BZR9N6KEO1","","null","<img src=""img/land5.png"" style=""width:200px; border:14px solid green;"">","null","","","","","",""
"","image-keyboard-response","312","101983","0.0-465.0","3C44YUNSI2B81SMPRC73J0A218ZDPB","A3AU8PZ6HHBCVT","39WSF6KUV27TMEQUH506BZR9N6KEO1","","99.40000000596046","img/land4.png","76","108.5","76","0","false","",""
"","html-keyboard-response","313","102293","0.0-466.0","3C44YUNSI2B81SMPRC73J0A218ZDPB","A3AU8PZ6HHBCVT","39WSF6KUV27TMEQUH506BZR9N6KEO1","","null","<img src=""img/land4.png"" style=""width:200px;border:14px solid red;"">","null","","","","","",""
"","image-keyboard-response","314","102355","0.0-468.0","3C44YUNSI2B81SMPRC73J0A218ZDPB","A3AU8PZ6HHBCVT","39WSF6KUV27TMEQUH506BZR9N6KEO1","","54.099999994039536","img/land4.png","74","58.400000005960464","74","1","false","",""
"","html-keyboard-response","315","102663","0.0-469.0","3C44YUNSI2B81SMPRC73J0A218ZDPB","A3AU8PZ6HHBCVT","39WSF6KUV27TMEQUH506BZR9N6KEO1","","null","<img src=""img/land4.png"" style=""width:200px; border:14px solid green;"">","null","","","","","",""
"","image-keyboard-response","316","102697","0.0-471.0","3C44YUNSI2B81SMPRC73J0A218ZDPB","A3AU8PZ6HHBCVT","39WSF6KUV27TMEQUH506BZR9N6KEO1","","24.899999976158142","img/land4.png","75","29.299999982118607","75","0","false","",""
"","html-keyboard-response","317","103007","0.0-472.0","3C44YUNSI2B81SMPRC73J0A218ZDPB","A3AU8PZ6HHBCVT","39WSF6KUV27TMEQUH506BZR9N6KEO1","","null","<img src=""img/land4.png"" style=""width:200px;border:14px solid red;"">","null","","","","","",""
"","image-keyboard-response","318","103075","0.0-474.0","3C44YUNSI2B81SMPRC73J0A218ZDPB","A3AU8PZ6HHBCVT","39WSF6KUV27TMEQUH506BZR9N6KEO1","","58","img/land5.png","75","65.09999999403954","75","1","false","",""
"","html-keyboard-response","319","103385","0.0-475.0","3C44YUNSI2B81SMPRC73J0A218ZDPB","A3AU8PZ6HHBCVT","39WSF6KUV27TMEQUH506BZR9N6KEO1","","null","<img src=""img/land5.png"" style=""width:200px; border:14px solid green;"">","null","","","","","",""
"","image-keyboard-response","320","103458","0.0-477.0","3C44YUNSI2B81SMPRC73J0A218ZDPB","A3AU8PZ6HHBCVT","39WSF6KUV27TMEQUH506BZR9N6KEO1","","62","img/land5.png","75","68.69999998807907","75","1","false","",""
"","html-keyboard-response","321","103766","0.0-478.0","3C44YUNSI2B81SMPRC73J0A218ZDPB","A3AU8PZ6HHBCVT","39WSF6KUV27TMEQUH506BZR9N6KEO1","","null","<img src=""img/land5.png"" style=""width:200px; border:14px solid green;"">","null","","","","","",""
"","image-keyboard-response","322","103818","0.0-480.0","3C44YUNSI2B81SMPRC73J0A218ZDPB","A3AU8PZ6HHBCVT","39WSF6KUV27TMEQUH506BZR9N6KEO1","","42.79999998211861","img/land9.png","75","49","75","1","false","",""
"","html-keyboard-response","323","104126","0.0-481.0","3C44YUNSI2B81SMPRC73J0A218ZDPB","A3AU8PZ6HHBCVT","39WSF6KUV27TMEQUH506BZR9N6KEO1","","null","<img src=""img/land9.png"" style=""width:200px; border:14px solid green;"">","null","","","","","",""
"","image-keyboard-response","324","104218","0.0-483.0","3C44YUNSI2B81SMPRC73J0A218ZDPB","A3AU8PZ6HHBCVT","39WSF6KUV27TMEQUH506BZR9N6KEO1","","80.40000000596046","img/land9.png","74","86.7000000178814","74","1","false","",""
"","html-keyboard-response","325","104530","0.0-484.0","3C44YUNSI2B81SMPRC73J0A218ZDPB","A3AU8PZ6HHBCVT","39WSF6KUV27TMEQUH506BZR9N6KEO1","","null","<img src=""img/land9.png"" style=""width:200px; border:14px solid green;"">","null","","","","","",""
"","image-keyboard-response","326","104540","0.0-486.0","3C44YUNSI2B81SMPRC73J0A218ZDPB","A3AU8PZ6HHBCVT","39WSF6KUV27TMEQUH506BZR9N6KEO1","","0.5","img/land5.png","75","5.5","75","1","false","",""
"","html-keyboard-response","327","104849","0.0-487.0","3C44YUNSI2B81SMPRC73J0A218ZDPB","A3AU8PZ6HHBCVT","39WSF6KUV27TMEQUH506BZR9N6KEO1","","null","<img src=""img/land5.png"" style=""width:200px; border:14px solid green;"">","null","","","","","",""
"","image-keyboard-response","328","105118","0.0-489.0","3C44YUNSI2B81SMPRC73J0A218ZDPB","A3AU8PZ6HHBCVT","39WSF6KUV27TMEQUH506BZR9N6KEO1","","260.80000001192093","img/land4.png","76","265.69999998807907","76","1","false","",""
"","html-keyboard-response","329","105425","0.0-490.0","3C44YUNSI2B81SMPRC73J0A218ZDPB","A3AU8PZ6HHBCVT","39WSF6KUV27TMEQUH506BZR9N6KEO1","","null","<img src=""img/land4.png"" style=""width:200px; border:14px solid green;"">","null","","","","","",""
"","image-keyboard-response","330","105517","0.0-492.0","3C44YUNSI2B81SMPRC73J0A218ZDPB","A3AU8PZ6HHBCVT","39WSF6KUV27TMEQUH506BZR9N6KEO1","","81.09999999403954","img/land9.png","76","87.30000001192093","76","0","false","",""
"","html-keyboard-response","331","105824","0.0-493.0","3C44YUNSI2B81SMPRC73J0A218ZDPB","A3AU8PZ6HHBCVT","39WSF6KUV27TMEQUH506BZR9N6KEO1","","null","<img src=""img/land9.png"" style=""width:200px;border:14px solid red;"">","null","","","","","",""
"","image-keyboard-response","332","106022","0.0-495.0","3C44YUNSI2B81SMPRC73J0A218ZDPB","A3AU8PZ6HHBCVT","39WSF6KUV27TMEQUH506BZR9N6KEO1","","191.89999997615814","img/land9.png","75","195.19999998807907","75","0","false","",""
"","html-keyboard-response","333","106329","0.0-496.0","3C44YUNSI2B81SMPRC73J0A218ZDPB","A3AU8PZ6HHBCVT","39WSF6KUV27TMEQUH506BZR9N6KEO1","","null","<img src=""img/land9.png"" style=""width:200px;border:14px solid red;"">","null","","","","","",""
"","image-keyboard-response","334","106379","0.0-498.0","3C44YUNSI2B81SMPRC73J0A218ZDPB","A3AU8PZ6HHBCVT","39WSF6KUV27TMEQUH506BZR9N6KEO1","","43.900000005960464","img/land5.png","74","49.099999994039536","74","0","false","",""
"","html-keyboard-response","335","106688","0.0-499.0","3C44YUNSI2B81SMPRC73J0A218ZDPB","A3AU8PZ6HHBCVT","39WSF6KUV27TMEQUH506BZR9N6KEO1","","null","<img src=""img/land5.png"" style=""width:200px;border:14px solid red;"">","null","","","","","",""
"","image-keyboard-response","336","106710","0.0-501.0","3C44YUNSI2B81SMPRC73J0A218ZDPB","A3AU8PZ6HHBCVT","39WSF6KUV27TMEQUH506BZR9N6KEO1","","15.199999988079071","img/land9.png","75","19","75","0","false","",""
"","html-keyboard-response","337","107016","0.0-502.0","3C44YUNSI2B81SMPRC73J0A218ZDPB","A3AU8PZ6HHBCVT","39WSF6KUV27TMEQUH506BZR9N6KEO1","","null","<img src=""img/land9.png"" style=""width:200px;border:14px solid red;"">","null","","","","","",""
"","image-keyboard-response","338","107075","0.0-504.0","3C44YUNSI2B81SMPRC73J0A218ZDPB","A3AU8PZ6HHBCVT","39WSF6KUV27TMEQUH506BZR9N6KEO1","","51.099999994039536","img/land9.png","74","57.29999998211861","74","1","false","",""
"","html-keyboard-response","339","107385","0.0-505.0","3C44YUNSI2B81SMPRC73J0A218ZDPB","A3AU8PZ6HHBCVT","39WSF6KUV27TMEQUH506BZR9N6KEO1","","null","<img src=""img/land9.png"" style=""width:200px; border:14px solid green;"">","null","","","","","",""
"","image-keyboard-response","340","107402","0.0-507.0","3C44YUNSI2B81SMPRC73J0A218ZDPB","A3AU8PZ6HHBCVT","39WSF6KUV27TMEQUH506BZR9N6KEO1","","6.199999988079071","img/land4.png","75","9.599999994039536","75","1","false","",""
"","html-keyboard-response","341","107710","0.0-508.0","3C44YUNSI2B81SMPRC73J0A218ZDPB","A3AU8PZ6HHBCVT","39WSF6KUV27TMEQUH506BZR9N6KEO1","","null","<img src=""img/land4.png"" style=""width:200px; border:14px solid green;"">","null","","","","","",""
"","image-keyboard-response","342","107778","0.0-510.0","3C44YUNSI2B81SMPRC73J0A218ZDPB","A3AU8PZ6HHBCVT","39WSF6KUV27TMEQUH506BZR9N6KEO1","","58.099999994039536","img/land5.png","76","67.7999999821186","76","1","false","",""
"","html-keyboard-response","343","108092","0.0-511.0","3C44YUNSI2B81SMPRC73J0A218ZDPB","A3AU8PZ6HHBCVT","39WSF6KUV27TMEQUH506BZR9N6KEO1","","null","<img src=""img/land5.png"" style=""width:200px; border:14px solid green;"">","null","","","","","",""
"","image-keyboard-response","344","108194","0.0-513.0","3C44YUNSI2B81SMPRC73J0A218ZDPB","A3AU8PZ6HHBCVT","39WSF6KUV27TMEQUH506BZR9N6KEO1","","94","img/land4.png","75","98","75","0","false","",""
"","html-keyboard-response","345","108504","0.0-514.0","3C44YUNSI2B81SMPRC73J0A218ZDPB","A3AU8PZ6HHBCVT","39WSF6KUV27TMEQUH506BZR9N6KEO1","","null","<img src=""img/land4.png"" style=""width:200px;border:14px solid red;"">","null","","","","","",""
"","image-keyboard-response","346","108559","0.0-516.0","3C44YUNSI2B81SMPRC73J0A218ZDPB","A3AU8PZ6HHBCVT","39WSF6KUV27TMEQUH506BZR9N6KEO1","","46.099999994039536","img/land9.png","74","52.400000005960464","74","0","false","",""
"","html-keyboard-response","347","108869","0.0-517.0","3C44YUNSI2B81SMPRC73J0A218ZDPB","A3AU8PZ6HHBCVT","39WSF6KUV27TMEQUH506BZR9N6KEO1","","null","<img src=""img/land9.png"" style=""width:200px;border:14px solid red;"">","null","","","","","",""
"","image-keyboard-response","348","108887","0.0-519.0","3C44YUNSI2B81SMPRC73J0A218ZDPB","A3AU8PZ6HHBCVT","39WSF6KUV27TMEQUH506BZR9N6KEO1","","8.300000011920929","img/land5.png","76","12.700000017881393","76","1","false","",""
"","html-keyboard-response","349","109194","0.0-520.0","3C44YUNSI2B81SMPRC73J0A218ZDPB","A3AU8PZ6HHBCVT","39WSF6KUV27TMEQUH506BZR9N6KEO1","","null","<img src=""img/land5.png"" style=""width:200px; border:14px solid green;"">","null","","","","","",""
"","image-keyboard-response","350","109280","0.0-522.0","3C44YUNSI2B81SMPRC73J0A218ZDPB","A3AU8PZ6HHBCVT","39WSF6KUV27TMEQUH506BZR9N6KEO1","","74.7999999821186","img/land4.png","76","84.2000000178814","76","1","false","",""
"","html-keyboard-response","351","109588","0.0-523.0","3C44YUNSI2B81SMPRC73J0A218ZDPB","A3AU8PZ6HHBCVT","39WSF6KUV27TMEQUH506BZR9N6KEO1","","null","<img src=""img/land4.png"" style=""width:200px; border:14px solid green;"">","null","","","","","",""
"","image-keyboard-response","352","109614","0.0-525.0","3C44YUNSI2B81SMPRC73J0A218ZDPB","A3AU8PZ6HHBCVT","39WSF6KUV27TMEQUH506BZR9N6KEO1","","16","img/land4.png","75","22.099999994039536","75","0","false","",""
"","html-keyboard-response","353","109923","0.0-526.0","3C44YUNSI2B81SMPRC73J0A218ZDPB","A3AU8PZ6HHBCVT","39WSF6KUV27TMEQUH506BZR9N6KEO1","","null","<img src=""img/land4.png"" style=""width:200px;border:14px solid red;"">","null","","","","","",""
"","image-keyboard-response","354","110004","0.0-528.0","3C44YUNSI2B81SMPRC73J0A218ZDPB","A3AU8PZ6HHBCVT","39WSF6KUV27TMEQUH506BZR9N6KEO1","","68.59999999403954","img/land4.png","75","76.40000000596046","75","0","false","",""
"","html-keyboard-response","355","110318","0.0-529.0","3C44YUNSI2B81SMPRC73J0A218ZDPB","A3AU8PZ6HHBCVT","39WSF6KUV27TMEQUH506BZR9N6KEO1","","null","<img src=""img/land4.png"" style=""width:200px;border:14px solid red;"">","null","","","","","",""
"","image-keyboard-response","356","110382","0.0-531.0","3C44YUNSI2B81SMPRC73J0A218ZDPB","A3AU8PZ6HHBCVT","39WSF6KUV27TMEQUH506BZR9N6KEO1","","53.69999998807907","img/land5.png","74","59.900000005960464","74","0","false","",""
"","html-keyboard-response","357","110692","0.0-532.0","3C44YUNSI2B81SMPRC73J0A218ZDPB","A3AU8PZ6HHBCVT","39WSF6KUV27TMEQUH506BZR9N6KEO1","","null","<img src=""img/land5.png"" style=""width:200px;border:14px solid red;"">","null","","","","","",""
"","image-keyboard-response","358","110727","0.0-534.0","3C44YUNSI2B81SMPRC73J0A218ZDPB","A3AU8PZ6HHBCVT","39WSF6KUV27TMEQUH506BZR9N6KEO1","","25.099999994039536","img/land9.png","75","30.799999982118607","75","1","false","",""
"","html-keyboard-response","359","111035","0.0-535.0","3C44YUNSI2B81SMPRC73J0A218ZDPB","A3AU8PZ6HHBCVT","39WSF6KUV27TMEQUH506BZR9N6KEO1","","null","<img src=""img/land9.png"" style=""width:200px; border:14px solid green;"">","null","","","","","",""
"","image-keyboard-response","360","111106","0.0-537.0","3C44YUNSI2B81SMPRC73J0A218ZDPB","A3AU8PZ6HHBCVT","39WSF6KUV27TMEQUH506BZR9N6KEO1","","59.400000005960464","img/land9.png","75","66.5","75","0","false","",""
"","html-keyboard-response","361","111414","0.0-538.0","3C44YUNSI2B81SMPRC73J0A218ZDPB","A3AU8PZ6HHBCVT","39WSF6KUV27TMEQUH506BZR9N6KEO1","","null","<img src=""img/land9.png"" style=""width:200px;border:14px solid red;"">","null","","","","","",""
"","image-keyboard-response","362","111446","0.0-540.0","3C44YUNSI2B81SMPRC73J0A218ZDPB","A3AU8PZ6HHBCVT","39WSF6KUV27TMEQUH506BZR9N6KEO1","","27.700000017881393","img/land9.png","76","30.80000001192093","76","0","false","",""
"","html-keyboard-response","363","111752","0.0-541.0","3C44YUNSI2B81SMPRC73J0A218ZDPB","A3AU8PZ6HHBCVT","39WSF6KUV27TMEQUH506BZR9N6KEO1","","null","<img src=""img/land9.png"" style=""width:200px;border:14px solid red;"">","null","","","","","",""
"","html-keyboard-response","364","125571","0.0-543.0","3C44YUNSI2B81SMPRC73J0A218ZDPB","A3AU8PZ6HHBCVT","39WSF6KUV27TMEQUH506BZR9N6KEO1","","","","","","","","","",""
"","image-keyboard-response","365","126247","0.0-544.0","3C44YUNSI2B81SMPRC73J0A218ZDPB","A3AU8PZ6HHBCVT","39WSF6KUV27TMEQUH506BZR9N6KEO1","","668.5999999940395","img/land1.png","75","674.0999999940395","75","1","false","",""
"","html-keyboard-response","366","126558","0.0-545.0","3C44YUNSI2B81SMPRC73J0A218ZDPB","A3AU8PZ6HHBCVT","39WSF6KUV27TMEQUH506BZR9N6KEO1","","null","<img src=""img/land1.png"" style=""width:200px; border:14px solid green;"">","null","","","","","",""
"","image-keyboard-response","367","126635","0.0-547.0","3C44YUNSI2B81SMPRC73J0A218ZDPB","A3AU8PZ6HHBCVT","39WSF6KUV27TMEQUH506BZR9N6KEO1","","69.2999999821186","img/land8.png","75","73.7999999821186","75","1","false","",""
"","html-keyboard-response","368","126944","0.0-548.0","3C44YUNSI2B81SMPRC73J0A218ZDPB","A3AU8PZ6HHBCVT","39WSF6KUV27TMEQUH506BZR9N6KEO1","","null","<img src=""img/land8.png"" style=""width:200px; border:14px solid green;"">","null","","","","","",""
"","image-keyboard-response","369","127012","0.0-550.0","3C44YUNSI2B81SMPRC73J0A218ZDPB","A3AU8PZ6HHBCVT","39WSF6KUV27TMEQUH506BZR9N6KEO1","","61.5","img/land6.png","75","65.10000002384186","75","0","false","",""
"","html-keyboard-response","370","127319","0.0-551.0","3C44YUNSI2B81SMPRC73J0A218ZDPB","A3AU8PZ6HHBCVT","39WSF6KUV27TMEQUH506BZR9N6KEO1","","null","<img src=""img/land6.png"" style=""width:200px;border:14px solid red;"">","null","","","","","",""
"","image-keyboard-response","371","127443","0.0-553.0","3C44YUNSI2B81SMPRC73J0A218ZDPB","A3AU8PZ6HHBCVT","39WSF6KUV27TMEQUH506BZR9N6KEO1","","115.7999999821186","img/land8.png","74","119.2000000178814","74","0","false","",""
"","html-keyboard-response","372","127747","0.0-554.0","3C44YUNSI2B81SMPRC73J0A218ZDPB","A3AU8PZ6HHBCVT","39WSF6KUV27TMEQUH506BZR9N6KEO1","","null","<img src=""img/land8.png"" style=""width:200px;border:14px solid red;"">","null","","","","","",""
"","image-keyboard-response","373","127787","0.0-556.0","3C44YUNSI2B81SMPRC73J0A218ZDPB","A3AU8PZ6HHBCVT","39WSF6KUV27TMEQUH506BZR9N6KEO1","","34.19999998807907","img/land6.png","74","38.30000001192093","74","1","false","",""
"","html-keyboard-response","374","128096","0.0-557.0","3C44YUNSI2B81SMPRC73J0A218ZDPB","A3AU8PZ6HHBCVT","39WSF6KUV27TMEQUH506BZR9N6KEO1","","null","<img src=""img/land6.png"" style=""width:200px; border:14px solid green;"">","null","","","","","",""
"","image-keyboard-response","375","128190","0.0-559.0","3C44YUNSI2B81SMPRC73J0A218ZDPB","A3AU8PZ6HHBCVT","39WSF6KUV27TMEQUH506BZR9N6KEO1","","86.5","img/land8.png","76","91","76","1","false","",""
"","html-keyboard-response","376","128498","0.0-560.0","3C44YUNSI2B81SMPRC73J0A218ZDPB","A3AU8PZ6HHBCVT","39WSF6KUV27TMEQUH506BZR9N6KEO1","","null","<img src=""img/land8.png"" style=""width:200px; border:14px solid green;"">","null","","","","","",""
"","image-keyboard-response","377","128551","0.0-562.0","3C44YUNSI2B81SMPRC73J0A218ZDPB","A3AU8PZ6HHBCVT","39WSF6KUV27TMEQUH506BZR9N6KEO1","","41.80000001192093","img/land8.png","75","48.79999998211861","75","0","false","",""
"","html-keyboard-response","378","128862","0.0-563.0","3C44YUNSI2B81SMPRC73J0A218ZDPB","A3AU8PZ6HHBCVT","39WSF6KUV27TMEQUH506BZR9N6KEO1","","null","<img src=""img/land8.png"" style=""width:200px;border:14px solid red;"">","null","","","","","",""
"","image-keyboard-response","379","128900","0.0-565.0","3C44YUNSI2B81SMPRC73J0A218ZDPB","A3AU8PZ6HHBCVT","39WSF6KUV27TMEQUH506BZR9N6KEO1","","25.599999994039536","img/land8.png","74","31.399999976158142","74","0","false","",""
"","html-keyboard-response","380","129207","0.0-566.0","3C44YUNSI2B81SMPRC73J0A218ZDPB","A3AU8PZ6HHBCVT","39WSF6KUV27TMEQUH506BZR9N6KEO1","","null","<img src=""img/land8.png"" style=""width:200px;border:14px solid red;"">","null","","","","","",""
"","image-keyboard-response","381","129267","0.0-568.0","3C44YUNSI2B81SMPRC73J0A218ZDPB","A3AU8PZ6HHBCVT","39WSF6KUV27TMEQUH506BZR9N6KEO1","","50.5","img/land6.png","75","58.099999994039536","75","0","false","",""
"","html-keyboard-response","382","129574","0.0-569.0","3C44YUNSI2B81SMPRC73J0A218ZDPB","A3AU8PZ6HHBCVT","39WSF6KUV27TMEQUH506BZR9N6KEO1","","null","<img src=""img/land6.png"" style=""width:200px;border:14px solid red;"">","null","","","","","",""
"","image-keyboard-response","383","129609","0.0-571.0","3C44YUNSI2B81SMPRC73J0A218ZDPB","A3AU8PZ6HHBCVT","39WSF6KUV27TMEQUH506BZR9N6KEO1","","26.099999994039536","img/land1.png","74","31","74","1","false","",""
"","html-keyboard-response","384","129917","0.0-572.0","3C44YUNSI2B81SMPRC73J0A218ZDPB","A3AU8PZ6HHBCVT","39WSF6KUV27TMEQUH506BZR9N6KEO1","","null","<img src=""img/land1.png"" style=""width:200px; border:14px solid green;"">","null","","","","","",""
"","image-keyboard-response","385","129934","0.0-574.0","3C44YUNSI2B81SMPRC73J0A218ZDPB","A3AU8PZ6HHBCVT","39WSF6KUV27TMEQUH506BZR9N6KEO1","","8.800000011920929","img/land8.png","74","13","74","0","false","",""
"","html-keyboard-response","386","130240","0.0-575.0","3C44YUNSI2B81SMPRC73J0A218ZDPB","A3AU8PZ6HHBCVT","39WSF6KUV27TMEQUH506BZR9N6KEO1","","null","<img src=""img/land8.png"" style=""width:200px;border:14px solid red;"">","null","","","","","",""
"","image-keyboard-response","387","130262","0.0-577.0","3C44YUNSI2B81SMPRC73J0A218ZDPB","A3AU8PZ6HHBCVT","39WSF6KUV27TMEQUH506BZR9N6KEO1","","15.5","img/land8.png","75","19.900000005960464","75","1","false","",""
"","html-keyboard-response","388","130569","0.0-578.0","3C44YUNSI2B81SMPRC73J0A218ZDPB","A3AU8PZ6HHBCVT","39WSF6KUV27TMEQUH506BZR9N6KEO1","","null","<img src=""img/land8.png"" style=""width:200px; border:14px solid green;"">","null","","","","","",""
"","image-keyboard-response","389","130641","0.0-580.0","3C44YUNSI2B81SMPRC73J0A218ZDPB","A3AU8PZ6HHBCVT","39WSF6KUV27TMEQUH506BZR9N6KEO1","","68.09999999403954","img/land8.png","75","71","75","1","false","",""
"","html-keyboard-response","390","130949","0.0-581.0","3C44YUNSI2B81SMPRC73J0A218ZDPB","A3AU8PZ6HHBCVT","39WSF6KUV27TMEQUH506BZR9N6KEO1","","null","<img src=""img/land8.png"" style=""width:200px; border:14px solid green;"">","null","","","","","",""
"","image-keyboard-response","391","131034","0.0-583.0","3C44YUNSI2B81SMPRC73J0A218ZDPB","A3AU8PZ6HHBCVT","39WSF6KUV27TMEQUH506BZR9N6KEO1","","77.2999999821186","img/land6.png","75","81.30000001192093","75","0","false","",""
"","html-keyboard-response","392","131343","0.0-584.0","3C44YUNSI2B81SMPRC73J0A218ZDPB","A3AU8PZ6HHBCVT","39WSF6KUV27TMEQUH506BZR9N6KEO1","","null","<img src=""img/land6.png"" style=""width:200px;border:14px solid red;"">","null","","","","","",""
"","image-keyboard-response","393","131354","0.0-586.0","3C44YUNSI2B81SMPRC73J0A218ZDPB","A3AU8PZ6HHBCVT","39WSF6KUV27TMEQUH506BZR9N6KEO1","","0.29999998211860657","img/land8.png","76","5.200000017881393","76","0","false","",""
"","html-keyboard-response","394","131662","0.0-587.0","3C44YUNSI2B81SMPRC73J0A218ZDPB","A3AU8PZ6HHBCVT","39WSF6KUV27TMEQUH506BZR9N6KEO1","","null","<img src=""img/land8.png"" style=""width:200px;border:14px solid red;"">","null","","","","","",""
"","image-keyboard-response","395","131709","0.0-589.0","3C44YUNSI2B81SMPRC73J0A218ZDPB","A3AU8PZ6HHBCVT","39WSF6KUV27TMEQUH506BZR9N6KEO1","","34.5","img/land6.png","76","40.5","76","1","false","",""
"","html-keyboard-response","396","132016","0.0-590.0","3C44YUNSI2B81SMPRC73J0A218ZDPB","A3AU8PZ6HHBCVT","39WSF6KUV27TMEQUH506BZR9N6KEO1","","null","<img src=""img/land6.png"" style=""width:200px; border:14px solid green;"">","null","","","","","",""
"","image-keyboard-response","397","132151","0.0-592.0","3C44YUNSI2B81SMPRC73J0A218ZDPB","A3AU8PZ6HHBCVT","39WSF6KUV27TMEQUH506BZR9N6KEO1","","126","img/land6.png","74","131.80000001192093","74","1","false","",""
"","html-keyboard-response","398","132459","0.0-593.0","3C44YUNSI2B81SMPRC73J0A218ZDPB","A3AU8PZ6HHBCVT","39WSF6KUV27TMEQUH506BZR9N6KEO1","","null","<img src=""img/land6.png"" style=""width:200px; border:14px solid green;"">","null","","","","","",""
"","image-keyboard-response","399","132607","0.0-595.0","3C44YUNSI2B81SMPRC73J0A218ZDPB","A3AU8PZ6HHBCVT","39WSF6KUV27TMEQUH506BZR9N6KEO1","","132.40000000596046","img/land6.png","74","139.80000001192093","74","1","false","",""
"","html-keyboard-response","400","132915","0.0-596.0","3C44YUNSI2B81SMPRC73J0A218ZDPB","A3AU8PZ6HHBCVT","39WSF6KUV27TMEQUH506BZR9N6KEO1","","null","<img src=""img/land6.png"" style=""width:200px; border:14px solid green;"">","null","","","","","",""
"","image-keyboard-response","401","132927","0.0-598.0","3C44YUNSI2B81SMPRC73J0A218ZDPB","A3AU8PZ6HHBCVT","39WSF6KUV27TMEQUH506BZR9N6KEO1","","0.800000011920929","img/land8.png","74","4.300000011920929","74","0","false","",""
"","html-keyboard-response","402","133234","0.0-599.0","3C44YUNSI2B81SMPRC73J0A218ZDPB","A3AU8PZ6HHBCVT","39WSF6KUV27TMEQUH506BZR9N6KEO1","","null","<img src=""img/land8.png"" style=""width:200px;border:14px solid red;"">","null","","","","","",""
"","image-keyboard-response","403","133420","0.0-601.0","3C44YUNSI2B81SMPRC73J0A218ZDPB","A3AU8PZ6HHBCVT","39WSF6KUV27TMEQUH506BZR9N6KEO1","","178.69999998807907","img/land6.png","76","184.7999999821186","76","1","false","",""
"","html-keyboard-response","404","133729","0.0-602.0","3C44YUNSI2B81SMPRC73J0A218ZDPB","A3AU8PZ6HHBCVT","39WSF6KUV27TMEQUH506BZR9N6KEO1","","null","<img src=""img/land6.png"" style=""width:200px; border:14px solid green;"">","null","","","","","",""
"","image-keyboard-response","405","133961","0.0-604.0","3C44YUNSI2B81SMPRC73J0A218ZDPB","A3AU8PZ6HHBCVT","39WSF6KUV27TMEQUH506BZR9N6KEO1","","223.09999999403954","img/land1.png","74","227","74","1","false","",""
"","html-keyboard-response","406","134270","0.0-605.0","3C44YUNSI2B81SMPRC73J0A218ZDPB","A3AU8PZ6HHBCVT","39WSF6KUV27TMEQUH506BZR9N6KEO1","","null","<img src=""img/land1.png"" style=""width:200px; border:14px solid green;"">","null","","","","","",""
"","image-keyboard-response","407","134447","0.0-607.0","3C44YUNSI2B81SMPRC73J0A218ZDPB","A3AU8PZ6HHBCVT","39WSF6KUV27TMEQUH506BZR9N6KEO1","","169.40000000596046","img/land1.png","75","174.09999999403954","75","1","false","",""
"","html-keyboard-response","408","134753","0.0-608.0","3C44YUNSI2B81SMPRC73J0A218ZDPB","A3AU8PZ6HHBCVT","39WSF6KUV27TMEQUH506BZR9N6KEO1","","null","<img src=""img/land1.png"" style=""width:200px; border:14px solid green;"">","null","","","","","",""
"","image-keyboard-response","409","135021","0.0-610.0","3C44YUNSI2B81SMPRC73J0A218ZDPB","A3AU8PZ6HHBCVT","39WSF6KUV27TMEQUH506BZR9N6KEO1","","262.60000002384186","img/land1.png","75","267.30000001192093","75","1","false","",""
"","html-keyboard-response","410","135328","0.0-611.0","3C44YUNSI2B81SMPRC73J0A218ZDPB","A3AU8PZ6HHBCVT","39WSF6KUV27TMEQUH506BZR9N6KEO1","","null","<img src=""img/land1.png"" style=""width:200px; border:14px solid green;"">","null","","","","","",""
"","image-keyboard-response","411","135446","0.0-613.0","3C44YUNSI2B81SMPRC73J0A218ZDPB","A3AU8PZ6HHBCVT","39WSF6KUV27TMEQUH506BZR9N6KEO1","","108.5","img/land8.png","75","115.80000001192093","75","1","false","",""
"","html-keyboard-response","412","135754","0.0-614.0","3C44YUNSI2B81SMPRC73J0A218ZDPB","A3AU8PZ6HHBCVT","39WSF6KUV27TMEQUH506BZR9N6KEO1","","null","<img src=""img/land8.png"" style=""width:200px; border:14px solid green;"">","null","","","","","",""
"","image-keyboard-response","413","135828","0.0-616.0","3C44YUNSI2B81SMPRC73J0A218ZDPB","A3AU8PZ6HHBCVT","39WSF6KUV27TMEQUH506BZR9N6KEO1","","61.400000005960464","img/land1.png","74","68.80000001192093","74","0","false","",""
"","html-keyboard-response","414","136137","0.0-617.0","3C44YUNSI2B81SMPRC73J0A218ZDPB","A3AU8PZ6HHBCVT","39WSF6KUV27TMEQUH506BZR9N6KEO1","","null","<img src=""img/land1.png"" style=""width:200px;border:14px solid red;"">","null","","","","","",""
"","image-keyboard-response","415","136230","0.0-619.0","3C44YUNSI2B81SMPRC73J0A218ZDPB","A3AU8PZ6HHBCVT","39WSF6KUV27TMEQUH506BZR9N6KEO1","","86","img/land1.png","74","89.2999999821186","74","0","false","",""
"","html-keyboard-response","416","136537","0.0-620.0","3C44YUNSI2B81SMPRC73J0A218ZDPB","A3AU8PZ6HHBCVT","39WSF6KUV27TMEQUH506BZR9N6KEO1","","null","<img src=""img/land1.png"" style=""width:200px;border:14px solid red;"">","null","","","","","",""
"","image-keyboard-response","417","136664","0.0-622.0","3C44YUNSI2B81SMPRC73J0A218ZDPB","A3AU8PZ6HHBCVT","39WSF6KUV27TMEQUH506BZR9N6KEO1","","115.09999999403954","img/land1.png","76","121.59999999403954","76","0","false","",""
"","html-keyboard-response","418","136970","0.0-623.0","3C44YUNSI2B81SMPRC73J0A218ZDPB","A3AU8PZ6HHBCVT","39WSF6KUV27TMEQUH506BZR9N6KEO1","","null","<img src=""img/land1.png"" style=""width:200px;border:14px solid red;"">","null","","","","","",""
"","image-keyboard-response","419","137116","0.0-625.0","3C44YUNSI2B81SMPRC73J0A218ZDPB","A3AU8PZ6HHBCVT","39WSF6KUV27TMEQUH506BZR9N6KEO1","","139.19999998807907","img/land6.png","76","146.40000000596046","76","1","false","",""
"","html-keyboard-response","420","137431","0.0-626.0","3C44YUNSI2B81SMPRC73J0A218ZDPB","A3AU8PZ6HHBCVT","39WSF6KUV27TMEQUH506BZR9N6KEO1","","null","<img src=""img/land6.png"" style=""width:200px; border:14px solid green;"">","null","","","","","",""
"","image-keyboard-response","421","137663","0.0-628.0","3C44YUNSI2B81SMPRC73J0A218ZDPB","A3AU8PZ6HHBCVT","39WSF6KUV27TMEQUH506BZR9N6KEO1","","224.7000000178814","img/land6.png","75","230.5","75","0","false","",""
"","html-keyboard-response","422","137970","0.0-629.0","3C44YUNSI2B81SMPRC73J0A218ZDPB","A3AU8PZ6HHBCVT","39WSF6KUV27TMEQUH506BZR9N6KEO1","","null","<img src=""img/land6.png"" style=""width:200px;border:14px solid red;"">","null","","","","","",""
"","image-keyboard-response","423","138060","0.0-631.0","3C44YUNSI2B81SMPRC73J0A218ZDPB","A3AU8PZ6HHBCVT","39WSF6KUV27TMEQUH506BZR9N6KEO1","","76.59999999403954","img/land6.png","74","87.30000001192093","74","1","false","",""
