"success","trial_type","trial_index","time_elapsed","internal_node_id","assignmentID","mturkID","hitID","view_history","rt","stimulus","key_press","reactionTime","a","r","warning","s","reward_cond","responses","question_order"
"true","fullscreen","0","2074","0.0-0.0","37WLF8U1WQC85SAU4XUHHDEBRVH6KP","A3AY0315YWWNXY","3A3KKYU7P33Z3BR9PPFZ5194ZCQMWU","","","","","","","","","","","",""
"","instructions","1","18511","0.0-1.0","37WLF8U1WQC85SAU4XUHHDEBRVH6KP","A3AY0315YWWNXY","3A3KKYU7P33Z3BR9PPFZ5194ZCQMWU","[{""page_index"":0,""viewing_time"":6015.799999952316},{""page_index"":1,""viewing_time"":1128},{""page_index"":2,""viewing_time"":734.2000000476837},{""page_index"":3,""viewing_time"":739.0999999642372},{""page_index"":4,""viewing_time"":4216.5},{""page_index"":5,""viewing_time"":1482.199999988079},{""page_index"":6,""viewing_time"":984.1000000238419},{""page_index"":7,""viewing_time"":1135.1000000238419}]","16435.599999964237","","","","","","","","","",""
"","image-keyboard-response","2","18985","0.0-2.0","37WLF8U1WQC85SAU4XUHHDEBRVH6KP","A3AY0315YWWNXY","3A3KKYU7P33Z3BR9PPFZ5194ZCQMWU","","473.5","img/land3.png","74","474.5","1","0","false","2","1,1,0,0,1,1,1,0,1","",""
"","html-keyboard-response","3","19294","0.0-3.0","37WLF8U1WQC85SAU4XUHHDEBRVH6KP","A3AY0315YWWNXY","3A3KKYU7P33Z3BR9PPFZ5194ZCQMWU","","null","<img src=""img/land3.png"" style=""width:200px;border:14px solid red;"">","null","","","","","","","",""
"","image-keyboard-response","4","19819","0.0-5.0","37WLF8U1WQC85SAU4XUHHDEBRVH6KP","A3AY0315YWWNXY","3A3KKYU7P33Z3BR9PPFZ5194ZCQMWU","","524.6000000238419","img/land4.png","74","525.1999999880791","1","1","false","3","1,1,0,0,1,1,1,0,1","",""
"","html-keyboard-response","5","20131","0.0-6.0","37WLF8U1WQC85SAU4XUHHDEBRVH6KP","A3AY0315YWWNXY","3A3KKYU7P33Z3BR9PPFZ5194ZCQMWU","","null","<img src=""img/land4.png"" style=""width:200px; border:14px solid green;"">","null","","","","","","","",""
"","image-keyboard-response","6","20637","0.0-8.0","37WLF8U1WQC85SAU4XUHHDEBRVH6KP","A3AY0315YWWNXY","3A3KKYU7P33Z3BR9PPFZ5194ZCQMWU","","505.30000001192093","img/land1.png","75","505.89999997615814","2","1","false","1","1,1,0,0,1,1,1,0,1","",""
"","html-keyboard-response","7","20939","0.0-9.0","37WLF8U1WQC85SAU4XUHHDEBRVH6KP","A3AY0315YWWNXY","3A3KKYU7P33Z3BR9PPFZ5194ZCQMWU","","null","<img src=""img/land1.png"" style=""width:200px; border:14px solid green;"">","null","","","","","","","",""
"","image-keyboard-response","8","21349","0.0-11.0","37WLF8U1WQC85SAU4XUHHDEBRVH6KP","A3AY0315YWWNXY","3A3KKYU7P33Z3BR9PPFZ5194ZCQMWU","","409.39999997615814","img/land1.png","75","410.0999999642372","2","1","false","1","1,1,0,0,1,1,1,0,1","",""
"","html-keyboard-response","9","21651","0.0-12.0","37WLF8U1WQC85SAU4XUHHDEBRVH6KP","A3AY0315YWWNXY","3A3KKYU7P33Z3BR9PPFZ5194ZCQMWU","","null","<img src=""img/land1.png"" style=""width:200px; border:14px solid green;"">","null","","","","","","","",""
"","image-keyboard-response","10","22149","0.0-14.0","37WLF8U1WQC85SAU4XUHHDEBRVH6KP","A3AY0315YWWNXY","3A3KKYU7P33Z3BR9PPFZ5194ZCQMWU","","497.80000001192093","img/land3.png","74","498.60000002384186","1","0","false","2","1,1,0,0,1,1,1,0,1","",""
"","html-keyboard-response","11","22458","0.0-15.0","37WLF8U1WQC85SAU4XUHHDEBRVH6KP","A3AY0315YWWNXY","3A3KKYU7P33Z3BR9PPFZ5194ZCQMWU","","null","<img src=""img/land3.png"" style=""width:200px;border:14px solid red;"">","null","","","","","","","",""
"","image-keyboard-response","12","23123","0.0-17.0","37WLF8U1WQC85SAU4XUHHDEBRVH6KP","A3AY0315YWWNXY","3A3KKYU7P33Z3BR9PPFZ5194ZCQMWU","","664.2000000476837","img/land4.png","76","664.9000000357628","3","1","false","3","1,1,0,0,1,1,1,0,1","",""
"","html-keyboard-response","13","23436","0.0-18.0","37WLF8U1WQC85SAU4XUHHDEBRVH6KP","A3AY0315YWWNXY","3A3KKYU7P33Z3BR9PPFZ5194ZCQMWU","","null","<img src=""img/land4.png"" style=""width:200px; border:14px solid green;"">","null","","","","","","","",""
"","image-keyboard-response","14","24165","0.0-20.0","37WLF8U1WQC85SAU4XUHHDEBRVH6KP","A3AY0315YWWNXY","3A3KKYU7P33Z3BR9PPFZ5194ZCQMWU","","728.9000000357628","img/land3.png","74","729.5","1","0","false","2","1,1,0,0,1,1,1,0,1","",""
"","html-keyboard-response","15","24475","0.0-21.0","37WLF8U1WQC85SAU4XUHHDEBRVH6KP","A3AY0315YWWNXY","3A3KKYU7P33Z3BR9PPFZ5194ZCQMWU","","null","<img src=""img/land3.png"" style=""width:200px;border:14px solid red;"">","null","","","","","","","",""
"","image-keyboard-response","16","25065","0.0-23.0","37WLF8U1WQC85SAU4XUHHDEBRVH6KP","A3AY0315YWWNXY","3A3KKYU7P33Z3BR9PPFZ5194ZCQMWU","","589.3999999761581","img/land4.png","76","590.0999999642372","3","1","false","3","1,1,0,0,1,1,1,0,1","",""
"","html-keyboard-response","17","25375","0.0-24.0","37WLF8U1WQC85SAU4XUHHDEBRVH6KP","A3AY0315YWWNXY","3A3KKYU7P33Z3BR9PPFZ5194ZCQMWU","","null","<img src=""img/land4.png"" style=""width:200px; border:14px solid green;"">","null","","","","","","","",""
"","image-keyboard-response","18","25771","0.0-26.0","37WLF8U1WQC85SAU4XUHHDEBRVH6KP","A3AY0315YWWNXY","3A3KKYU7P33Z3BR9PPFZ5194ZCQMWU","","395.39999997615814","img/land3.png","75","396.39999997615814","2","1","false","2","1,1,0,0,1,1,1,0,1","",""
"","html-keyboard-response","19","26073","0.0-27.0","37WLF8U1WQC85SAU4XUHHDEBRVH6KP","A3AY0315YWWNXY","3A3KKYU7P33Z3BR9PPFZ5194ZCQMWU","","null","<img src=""img/land3.png"" style=""width:200px; border:14px solid green;"">","null","","","","","","","",""
"","image-keyboard-response","20","26535","0.0-29.0","37WLF8U1WQC85SAU4XUHHDEBRVH6KP","A3AY0315YWWNXY","3A3KKYU7P33Z3BR9PPFZ5194ZCQMWU","","461.39999997615814","img/land3.png","75","462.19999998807907","2","1","false","2","1,1,0,0,1,1,1,0,1","",""
"","html-keyboard-response","21","26847","0.0-30.0","37WLF8U1WQC85SAU4XUHHDEBRVH6KP","A3AY0315YWWNXY","3A3KKYU7P33Z3BR9PPFZ5194ZCQMWU","","null","<img src=""img/land3.png"" style=""width:200px; border:14px solid green;"">","null","","","","","","","",""
"","image-keyboard-response","22","27161","0.0-32.0","37WLF8U1WQC85SAU4XUHHDEBRVH6KP","A3AY0315YWWNXY","3A3KKYU7P33Z3BR9PPFZ5194ZCQMWU","","313.19999998807907","img/land3.png","75","313.80000001192093","2","1","false","2","1,1,0,0,1,1,1,0,1","",""
"","html-keyboard-response","23","27469","0.0-33.0","37WLF8U1WQC85SAU4XUHHDEBRVH6KP","A3AY0315YWWNXY","3A3KKYU7P33Z3BR9PPFZ5194ZCQMWU","","null","<img src=""img/land3.png"" style=""width:200px; border:14px solid green;"">","null","","","","","","","",""
"","image-keyboard-response","24","28119","0.0-35.0","37WLF8U1WQC85SAU4XUHHDEBRVH6KP","A3AY0315YWWNXY","3A3KKYU7P33Z3BR9PPFZ5194ZCQMWU","","649.1999999880791","img/land1.png","74","649.8999999761581","1","1","false","1","1,1,0,0,1,1,1,0,1","",""
"","html-keyboard-response","25","28421","0.0-36.0","37WLF8U1WQC85SAU4XUHHDEBRVH6KP","A3AY0315YWWNXY","3A3KKYU7P33Z3BR9PPFZ5194ZCQMWU","","null","<img src=""img/land1.png"" style=""width:200px; border:14px solid green;"">","null","","","","","","","",""
"","image-keyboard-response","26","28969","0.0-38.0","37WLF8U1WQC85SAU4XUHHDEBRVH6KP","A3AY0315YWWNXY","3A3KKYU7P33Z3BR9PPFZ5194ZCQMWU","","547.1999999880791","img/land4.png","76","547.8000000119209","3","1","false","3","1,1,0,0,1,1,1,0,1","",""
"","html-keyboard-response","27","29271","0.0-39.0","37WLF8U1WQC85SAU4XUHHDEBRVH6KP","A3AY0315YWWNXY","3A3KKYU7P33Z3BR9PPFZ5194ZCQMWU","","null","<img src=""img/land4.png"" style=""width:200px; border:14px solid green;"">","null","","","","","","","",""
"","image-keyboard-response","28","29659","0.0-41.0","37WLF8U1WQC85SAU4XUHHDEBRVH6KP","A3AY0315YWWNXY","3A3KKYU7P33Z3BR9PPFZ5194ZCQMWU","","387","img/land3.png","75","387.60000002384186","2","1","false","2","1,1,0,0,1,1,1,0,1","",""
"","html-keyboard-response","29","29961","0.0-42.0","37WLF8U1WQC85SAU4XUHHDEBRVH6KP","A3AY0315YWWNXY","3A3KKYU7P33Z3BR9PPFZ5194ZCQMWU","","null","<img src=""img/land3.png"" style=""width:200px; border:14px solid green;"">","null","","","","","","","",""
"","image-keyboard-response","30","30927","0.0-44.0","37WLF8U1WQC85SAU4XUHHDEBRVH6KP","A3AY0315YWWNXY","3A3KKYU7P33Z3BR9PPFZ5194ZCQMWU","","966.1000000238419","img/land4.png","76","966.6999999880791","3","1","false","3","1,1,0,0,1,1,1,0,1","",""
"","html-keyboard-response","31","31229","0.0-45.0","37WLF8U1WQC85SAU4XUHHDEBRVH6KP","A3AY0315YWWNXY","3A3KKYU7P33Z3BR9PPFZ5194ZCQMWU","","null","<img src=""img/land4.png"" style=""width:200px; border:14px solid green;"">","null","","","","","","","",""
"","image-keyboard-response","32","31669","0.0-47.0","37WLF8U1WQC85SAU4XUHHDEBRVH6KP","A3AY0315YWWNXY","3A3KKYU7P33Z3BR9PPFZ5194ZCQMWU","","439.60000002384186","img/land4.png","76","440.30000001192093","3","1","false","3","1,1,0,0,1,1,1,0,1","",""
"","html-keyboard-response","33","31971","0.0-48.0","37WLF8U1WQC85SAU4XUHHDEBRVH6KP","A3AY0315YWWNXY","3A3KKYU7P33Z3BR9PPFZ5194ZCQMWU","","null","<img src=""img/land4.png"" style=""width:200px; border:14px solid green;"">","null","","","","","","","",""
"","image-keyboard-response","34","32953","0.0-50.0","37WLF8U1WQC85SAU4XUHHDEBRVH6KP","A3AY0315YWWNXY","3A3KKYU7P33Z3BR9PPFZ5194ZCQMWU","","981.1000000238419","img/land1.png","74","981.8999999761581","1","1","false","1","1,1,0,0,1,1,1,0,1","",""
"","html-keyboard-response","35","33254","0.0-51.0","37WLF8U1WQC85SAU4XUHHDEBRVH6KP","A3AY0315YWWNXY","3A3KKYU7P33Z3BR9PPFZ5194ZCQMWU","","null","<img src=""img/land1.png"" style=""width:200px; border:14px solid green;"">","null","","","","","","","",""
"","image-keyboard-response","36","33611","0.0-53.0","37WLF8U1WQC85SAU4XUHHDEBRVH6KP","A3AY0315YWWNXY","3A3KKYU7P33Z3BR9PPFZ5194ZCQMWU","","356.39999997615814","img/land1.png","74","357.19999998807907","1","1","false","1","1,1,0,0,1,1,1,0,1","",""
"","html-keyboard-response","37","33913","0.0-54.0","37WLF8U1WQC85SAU4XUHHDEBRVH6KP","A3AY0315YWWNXY","3A3KKYU7P33Z3BR9PPFZ5194ZCQMWU","","null","<img src=""img/land1.png"" style=""width:200px; border:14px solid green;"">","null","","","","","","","",""
"","image-keyboard-response","38","34389","0.0-56.0","37WLF8U1WQC85SAU4XUHHDEBRVH6KP","A3AY0315YWWNXY","3A3KKYU7P33Z3BR9PPFZ5194ZCQMWU","","475.30000001192093","img/land3.png","75","475.80000001192093","2","1","false","2","1,1,0,0,1,1,1,0,1","",""
"","html-keyboard-response","39","34690","0.0-57.0","37WLF8U1WQC85SAU4XUHHDEBRVH6KP","A3AY0315YWWNXY","3A3KKYU7P33Z3BR9PPFZ5194ZCQMWU","","null","<img src=""img/land3.png"" style=""width:200px; border:14px solid green;"">","null","","","","","","","",""
"","image-keyboard-response","40","35251","0.0-59.0","37WLF8U1WQC85SAU4XUHHDEBRVH6KP","A3AY0315YWWNXY","3A3KKYU7P33Z3BR9PPFZ5194ZCQMWU","","560.3999999761581","img/land4.png","76","561","3","1","false","3","1,1,0,0,1,1,1,0,1","",""
"","html-keyboard-response","41","35552","0.0-60.0","37WLF8U1WQC85SAU4XUHHDEBRVH6KP","A3AY0315YWWNXY","3A3KKYU7P33Z3BR9PPFZ5194ZCQMWU","","null","<img src=""img/land4.png"" style=""width:200px; border:14px solid green;"">","null","","","","","","","",""
"","image-keyboard-response","42","36439","0.0-62.0","37WLF8U1WQC85SAU4XUHHDEBRVH6KP","A3AY0315YWWNXY","3A3KKYU7P33Z3BR9PPFZ5194ZCQMWU","","886.1000000238419","img/land3.png","75","886.6999999880791","2","1","false","2","1,1,0,0,1,1,1,0,1","",""
"","html-keyboard-response","43","36741","0.0-63.0","37WLF8U1WQC85SAU4XUHHDEBRVH6KP","A3AY0315YWWNXY","3A3KKYU7P33Z3BR9PPFZ5194ZCQMWU","","null","<img src=""img/land3.png"" style=""width:200px; border:14px solid green;"">","null","","","","","","","",""
"","image-keyboard-response","44","37065","0.0-65.0","37WLF8U1WQC85SAU4XUHHDEBRVH6KP","A3AY0315YWWNXY","3A3KKYU7P33Z3BR9PPFZ5194ZCQMWU","","323.5","img/land3.png","75","324.19999998807907","2","1","false","2","1,1,0,0,1,1,1,0,1","",""
"","html-keyboard-response","45","37367","0.0-66.0","37WLF8U1WQC85SAU4XUHHDEBRVH6KP","A3AY0315YWWNXY","3A3KKYU7P33Z3BR9PPFZ5194ZCQMWU","","null","<img src=""img/land3.png"" style=""width:200px; border:14px solid green;"">","null","","","","","","","",""
"","image-keyboard-response","46","38009","0.0-68.0","37WLF8U1WQC85SAU4XUHHDEBRVH6KP","A3AY0315YWWNXY","3A3KKYU7P33Z3BR9PPFZ5194ZCQMWU","","641.3000000119209","img/land1.png","74","641.8999999761581","1","1","false","1","1,1,0,0,1,1,1,0,1","",""
"","html-keyboard-response","47","38311","0.0-69.0","37WLF8U1WQC85SAU4XUHHDEBRVH6KP","A3AY0315YWWNXY","3A3KKYU7P33Z3BR9PPFZ5194ZCQMWU","","null","<img src=""img/land1.png"" style=""width:200px; border:14px solid green;"">","null","","","","","","","",""
"","image-keyboard-response","48","38951","0.0-71.0","37WLF8U1WQC85SAU4XUHHDEBRVH6KP","A3AY0315YWWNXY","3A3KKYU7P33Z3BR9PPFZ5194ZCQMWU","","639.6000000238419","img/land3.png","76","640.1000000238419","3","1","false","2","1,1,0,0,1,1,1,0,1","",""
"","html-keyboard-response","49","39252","0.0-72.0","37WLF8U1WQC85SAU4XUHHDEBRVH6KP","A3AY0315YWWNXY","3A3KKYU7P33Z3BR9PPFZ5194ZCQMWU","","null","<img src=""img/land3.png"" style=""width:200px; border:14px solid green;"">","null","","","","","","","",""
"","image-keyboard-response","50","40254","0.0-74.0","37WLF8U1WQC85SAU4XUHHDEBRVH6KP","A3AY0315YWWNXY","3A3KKYU7P33Z3BR9PPFZ5194ZCQMWU","","","img/land4.png","","1001.2000000476837","-1","0","true","3","1,1,0,0,1,1,1,0,1","",""
"","html-keyboard-response","51","40555","0.0-75.0","37WLF8U1WQC85SAU4XUHHDEBRVH6KP","A3AY0315YWWNXY","3A3KKYU7P33Z3BR9PPFZ5194ZCQMWU","","null","<img src=""img/land4.png"" style=""width:200px;border:14px solid red;"">","null","","","","","","","",""
"","html-keyboard-response","52","46872","0.0-76.0-0.0","37WLF8U1WQC85SAU4XUHHDEBRVH6KP","A3AY0315YWWNXY","3A3KKYU7P33Z3BR9PPFZ5194ZCQMWU","","","","","","","","","","","",""
"","image-keyboard-response","53","47309","0.0-77.0","37WLF8U1WQC85SAU4XUHHDEBRVH6KP","A3AY0315YWWNXY","3A3KKYU7P33Z3BR9PPFZ5194ZCQMWU","","435.69999998807907","img/land3.png","76","436.9000000357628","3","1","false","2","1,1,0,0,1,1,1,0,1","",""
"","html-keyboard-response","54","47610","0.0-78.0","37WLF8U1WQC85SAU4XUHHDEBRVH6KP","A3AY0315YWWNXY","3A3KKYU7P33Z3BR9PPFZ5194ZCQMWU","","null","<img src=""img/land3.png"" style=""width:200px; border:14px solid green;"">","null","","","","","","","",""
"","image-keyboard-response","55","47881","0.0-80.0","37WLF8U1WQC85SAU4XUHHDEBRVH6KP","A3AY0315YWWNXY","3A3KKYU7P33Z3BR9PPFZ5194ZCQMWU","","270","img/land4.png","76","270.69999998807907","3","1","false","3","1,1,0,0,1,1,1,0,1","",""
"","html-keyboard-response","56","48182","0.0-81.0","37WLF8U1WQC85SAU4XUHHDEBRVH6KP","A3AY0315YWWNXY","3A3KKYU7P33Z3BR9PPFZ5194ZCQMWU","","null","<img src=""img/land4.png"" style=""width:200px; border:14px solid green;"">","null","","","","","","","",""
"","image-keyboard-response","57","48533","0.0-83.0","37WLF8U1WQC85SAU4XUHHDEBRVH6KP","A3AY0315YWWNXY","3A3KKYU7P33Z3BR9PPFZ5194ZCQMWU","","350.10000002384186","img/land1.png","75","350.80000001192093","2","1","false","1","1,1,0,0,1,1,1,0,1","",""
"","html-keyboard-response","58","48835","0.0-84.0","37WLF8U1WQC85SAU4XUHHDEBRVH6KP","A3AY0315YWWNXY","3A3KKYU7P33Z3BR9PPFZ5194ZCQMWU","","null","<img src=""img/land1.png"" style=""width:200px; border:14px solid green;"">","null","","","","","","","",""
"","image-keyboard-response","59","49083","0.0-86.0","37WLF8U1WQC85SAU4XUHHDEBRVH6KP","A3AY0315YWWNXY","3A3KKYU7P33Z3BR9PPFZ5194ZCQMWU","","247.5","img/land1.png","75","248.0999999642372","2","1","false","1","1,1,0,0,1,1,1,0,1","",""
"","html-keyboard-response","60","49384","0.0-87.0","37WLF8U1WQC85SAU4XUHHDEBRVH6KP","A3AY0315YWWNXY","3A3KKYU7P33Z3BR9PPFZ5194ZCQMWU","","null","<img src=""img/land1.png"" style=""width:200px; border:14px solid green;"">","null","","","","","","","",""
"","image-keyboard-response","61","49643","0.0-89.0","37WLF8U1WQC85SAU4XUHHDEBRVH6KP","A3AY0315YWWNXY","3A3KKYU7P33Z3BR9PPFZ5194ZCQMWU","","258","img/land4.png","75","258.60000002384186","2","0","false","3","1,1,0,0,1,1,1,0,1","",""
"","html-keyboard-response","62","49945","0.0-90.0","37WLF8U1WQC85SAU4XUHHDEBRVH6KP","A3AY0315YWWNXY","3A3KKYU7P33Z3BR9PPFZ5194ZCQMWU","","null","<img src=""img/land4.png"" style=""width:200px;border:14px solid red;"">","null","","","","","","","",""
"","image-keyboard-response","63","50171","0.0-92.0","37WLF8U1WQC85SAU4XUHHDEBRVH6KP","A3AY0315YWWNXY","3A3KKYU7P33Z3BR9PPFZ5194ZCQMWU","","225.5","img/land1.png","76","226.30000001192093","3","0","false","1","1,1,0,0,1,1,1,0,1","",""
"","html-keyboard-response","64","50473","0.0-93.0","37WLF8U1WQC85SAU4XUHHDEBRVH6KP","A3AY0315YWWNXY","3A3KKYU7P33Z3BR9PPFZ5194ZCQMWU","","null","<img src=""img/land1.png"" style=""width:200px;border:14px solid red;"">","null","","","","","","","",""
"","image-keyboard-response","65","50677","0.0-95.0","37WLF8U1WQC85SAU4XUHHDEBRVH6KP","A3AY0315YWWNXY","3A3KKYU7P33Z3BR9PPFZ5194ZCQMWU","","203.4000000357628","img/land4.png","74","204.19999998807907","1","1","false","3","1,1,0,0,1,1,1,0,1","",""
"","html-keyboard-response","66","50979","0.0-96.0","37WLF8U1WQC85SAU4XUHHDEBRVH6KP","A3AY0315YWWNXY","3A3KKYU7P33Z3BR9PPFZ5194ZCQMWU","","null","<img src=""img/land4.png"" style=""width:200px; border:14px solid green;"">","null","","","","","","","",""
"","image-keyboard-response","67","51263","0.0-98.0","37WLF8U1WQC85SAU4XUHHDEBRVH6KP","A3AY0315YWWNXY","3A3KKYU7P33Z3BR9PPFZ5194ZCQMWU","","283.10000002384186","img/land1.png","74","283.69999998807907","1","1","false","1","1,1,0,0,1,1,1,0,1","",""
"","html-keyboard-response","68","51565","0.0-99.0","37WLF8U1WQC85SAU4XUHHDEBRVH6KP","A3AY0315YWWNXY","3A3KKYU7P33Z3BR9PPFZ5194ZCQMWU","","null","<img src=""img/land1.png"" style=""width:200px; border:14px solid green;"">","null","","","","","","","",""
"","image-keyboard-response","69","51825","0.0-101.0","37WLF8U1WQC85SAU4XUHHDEBRVH6KP","A3AY0315YWWNXY","3A3KKYU7P33Z3BR9PPFZ5194ZCQMWU","","259.60000002384186","img/land3.png","74","260.4000000357628","1","0","false","2","1,1,0,0,1,1,1,0,1","",""
"","html-keyboard-response","70","52126","0.0-102.0","37WLF8U1WQC85SAU4XUHHDEBRVH6KP","A3AY0315YWWNXY","3A3KKYU7P33Z3BR9PPFZ5194ZCQMWU","","null","<img src=""img/land3.png"" style=""width:200px;border:14px solid red;"">","null","","","","","","","",""
"","image-keyboard-response","71","52283","0.0-104.0","37WLF8U1WQC85SAU4XUHHDEBRVH6KP","A3AY0315YWWNXY","3A3KKYU7P33Z3BR9PPFZ5194ZCQMWU","","156.19999998807907","img/land1.png","75","156.80000001192093","2","1","false","1","1,1,0,0,1,1,1,0,1","",""
"","html-keyboard-response","72","52585","0.0-105.0","37WLF8U1WQC85SAU4XUHHDEBRVH6KP","A3AY0315YWWNXY","3A3KKYU7P33Z3BR9PPFZ5194ZCQMWU","","null","<img src=""img/land1.png"" style=""width:200px; border:14px solid green;"">","null","","","","","","","",""
"","image-keyboard-response","73","52819","0.0-107.0","37WLF8U1WQC85SAU4XUHHDEBRVH6KP","A3AY0315YWWNXY","3A3KKYU7P33Z3BR9PPFZ5194ZCQMWU","","233.69999998807907","img/land3.png","76","234.39999997615814","3","1","false","2","1,1,0,0,1,1,1,0,1","",""
"","html-keyboard-response","74","53120","0.0-108.0","37WLF8U1WQC85SAU4XUHHDEBRVH6KP","A3AY0315YWWNXY","3A3KKYU7P33Z3BR9PPFZ5194ZCQMWU","","null","<img src=""img/land3.png"" style=""width:200px; border:14px solid green;"">","null","","","","","","","",""
"","image-keyboard-response","75","53331","0.0-110.0","37WLF8U1WQC85SAU4XUHHDEBRVH6KP","A3AY0315YWWNXY","3A3KKYU7P33Z3BR9PPFZ5194ZCQMWU","","210.30000001192093","img/land1.png","76","211","3","0","false","1","1,1,0,0,1,1,1,0,1","",""
"","html-keyboard-response","76","53633","0.0-111.0","37WLF8U1WQC85SAU4XUHHDEBRVH6KP","A3AY0315YWWNXY","3A3KKYU7P33Z3BR9PPFZ5194ZCQMWU","","null","<img src=""img/land1.png"" style=""width:200px;border:14px solid red;"">","null","","","","","","","",""
"","image-keyboard-response","77","53867","0.0-113.0","37WLF8U1WQC85SAU4XUHHDEBRVH6KP","A3AY0315YWWNXY","3A3KKYU7P33Z3BR9PPFZ5194ZCQMWU","","233.69999998807907","img/land1.png","75","234.20000004768372","2","1","false","1","1,1,0,0,1,1,1,0,1","",""
"","html-keyboard-response","78","54168","0.0-114.0","37WLF8U1WQC85SAU4XUHHDEBRVH6KP","A3AY0315YWWNXY","3A3KKYU7P33Z3BR9PPFZ5194ZCQMWU","","null","<img src=""img/land1.png"" style=""width:200px; border:14px solid green;"">","null","","","","","","","",""
"","image-keyboard-response","79","54379","0.0-116.0","37WLF8U1WQC85SAU4XUHHDEBRVH6KP","A3AY0315YWWNXY","3A3KKYU7P33Z3BR9PPFZ5194ZCQMWU","","210.39999997615814","img/land1.png","74","211","1","1","false","1","1,1,0,0,1,1,1,0,1","",""
"","html-keyboard-response","80","54681","0.0-117.0","37WLF8U1WQC85SAU4XUHHDEBRVH6KP","A3AY0315YWWNXY","3A3KKYU7P33Z3BR9PPFZ5194ZCQMWU","","null","<img src=""img/land1.png"" style=""width:200px; border:14px solid green;"">","null","","","","","","","",""
"","image-keyboard-response","81","54899","0.0-119.0","37WLF8U1WQC85SAU4XUHHDEBRVH6KP","A3AY0315YWWNXY","3A3KKYU7P33Z3BR9PPFZ5194ZCQMWU","","217.5","img/land4.png","74","218.0999999642372","1","1","false","3","1,1,0,0,1,1,1,0,1","",""
"","html-keyboard-response","82","55201","0.0-120.0","37WLF8U1WQC85SAU4XUHHDEBRVH6KP","A3AY0315YWWNXY","3A3KKYU7P33Z3BR9PPFZ5194ZCQMWU","","null","<img src=""img/land4.png"" style=""width:200px; border:14px solid green;"">","null","","","","","","","",""
"","image-keyboard-response","83","55349","0.0-122.0","37WLF8U1WQC85SAU4XUHHDEBRVH6KP","A3AY0315YWWNXY","3A3KKYU7P33Z3BR9PPFZ5194ZCQMWU","","147.10000002384186","img/land3.png","75","147.5999999642372","2","1","false","2","1,1,0,0,1,1,1,0,1","",""
"","html-keyboard-response","84","55651","0.0-123.0","37WLF8U1WQC85SAU4XUHHDEBRVH6KP","A3AY0315YWWNXY","3A3KKYU7P33Z3BR9PPFZ5194ZCQMWU","","null","<img src=""img/land3.png"" style=""width:200px; border:14px solid green;"">","null","","","","","","","",""
"","image-keyboard-response","85","55889","0.0-125.0","37WLF8U1WQC85SAU4XUHHDEBRVH6KP","A3AY0315YWWNXY","3A3KKYU7P33Z3BR9PPFZ5194ZCQMWU","","237.69999998807907","img/land4.png","76","238.4000000357628","3","1","false","3","1,1,0,0,1,1,1,0,1","",""
"","html-keyboard-response","86","56190","0.0-126.0","37WLF8U1WQC85SAU4XUHHDEBRVH6KP","A3AY0315YWWNXY","3A3KKYU7P33Z3BR9PPFZ5194ZCQMWU","","null","<img src=""img/land4.png"" style=""width:200px; border:14px solid green;"">","null","","","","","","","",""
"","image-keyboard-response","87","56379","0.0-128.0","37WLF8U1WQC85SAU4XUHHDEBRVH6KP","A3AY0315YWWNXY","3A3KKYU7P33Z3BR9PPFZ5194ZCQMWU","","188.30000001192093","img/land4.png","75","188.9000000357628","2","0","false","3","1,1,0,0,1,1,1,0,1","",""
"","html-keyboard-response","88","56681","0.0-129.0","37WLF8U1WQC85SAU4XUHHDEBRVH6KP","A3AY0315YWWNXY","3A3KKYU7P33Z3BR9PPFZ5194ZCQMWU","","null","<img src=""img/land4.png"" style=""width:200px;border:14px solid red;"">","null","","","","","","","",""
"","image-keyboard-response","89","56811","0.0-131.0","37WLF8U1WQC85SAU4XUHHDEBRVH6KP","A3AY0315YWWNXY","3A3KKYU7P33Z3BR9PPFZ5194ZCQMWU","","130.10000002384186","img/land4.png","74","130.80000001192093","1","1","false","3","1,1,0,0,1,1,1,0,1","",""
"","html-keyboard-response","90","57113","0.0-132.0","37WLF8U1WQC85SAU4XUHHDEBRVH6KP","A3AY0315YWWNXY","3A3KKYU7P33Z3BR9PPFZ5194ZCQMWU","","null","<img src=""img/land4.png"" style=""width:200px; border:14px solid green;"">","null","","","","","","","",""
"","image-keyboard-response","91","57335","0.0-134.0","37WLF8U1WQC85SAU4XUHHDEBRVH6KP","A3AY0315YWWNXY","3A3KKYU7P33Z3BR9PPFZ5194ZCQMWU","","221.5","img/land1.png","74","222.10000002384186","1","1","false","1","1,1,0,0,1,1,1,0,1","",""
"","html-keyboard-response","92","57636","0.0-135.0","37WLF8U1WQC85SAU4XUHHDEBRVH6KP","A3AY0315YWWNXY","3A3KKYU7P33Z3BR9PPFZ5194ZCQMWU","","null","<img src=""img/land1.png"" style=""width:200px; border:14px solid green;"">","null","","","","","","","",""
"","image-keyboard-response","93","57847","0.0-137.0","37WLF8U1WQC85SAU4XUHHDEBRVH6KP","A3AY0315YWWNXY","3A3KKYU7P33Z3BR9PPFZ5194ZCQMWU","","210","img/land4.png","74","210.69999998807907","1","1","false","3","1,1,0,0,1,1,1,0,1","",""
"","html-keyboard-response","94","58149","0.0-138.0","37WLF8U1WQC85SAU4XUHHDEBRVH6KP","A3AY0315YWWNXY","3A3KKYU7P33Z3BR9PPFZ5194ZCQMWU","","null","<img src=""img/land4.png"" style=""width:200px; border:14px solid green;"">","null","","","","","","","",""
"","image-keyboard-response","95","58347","0.0-140.0","37WLF8U1WQC85SAU4XUHHDEBRVH6KP","A3AY0315YWWNXY","3A3KKYU7P33Z3BR9PPFZ5194ZCQMWU","","197.5","img/land3.png","75","198.19999998807907","2","1","false","2","1,1,0,0,1,1,1,0,1","",""
"","html-keyboard-response","96","58648","0.0-141.0","37WLF8U1WQC85SAU4XUHHDEBRVH6KP","A3AY0315YWWNXY","3A3KKYU7P33Z3BR9PPFZ5194ZCQMWU","","null","<img src=""img/land3.png"" style=""width:200px; border:14px solid green;"">","null","","","","","","","",""
"","image-keyboard-response","97","58855","0.0-143.0","37WLF8U1WQC85SAU4XUHHDEBRVH6KP","A3AY0315YWWNXY","3A3KKYU7P33Z3BR9PPFZ5194ZCQMWU","","206","img/land3.png","76","206.5999999642372","3","1","false","2","1,1,0,0,1,1,1,0,1","",""
"","html-keyboard-response","98","59156","0.0-144.0","37WLF8U1WQC85SAU4XUHHDEBRVH6KP","A3AY0315YWWNXY","3A3KKYU7P33Z3BR9PPFZ5194ZCQMWU","","null","<img src=""img/land3.png"" style=""width:200px; border:14px solid green;"">","null","","","","","","","",""
"","image-keyboard-response","99","59383","0.0-146.0","37WLF8U1WQC85SAU4XUHHDEBRVH6KP","A3AY0315YWWNXY","3A3KKYU7P33Z3BR9PPFZ5194ZCQMWU","","226.19999998807907","img/land1.png","76","226.80000001192093","3","0","false","1","1,1,0,0,1,1,1,0,1","",""
"","html-keyboard-response","100","59684","0.0-147.0","37WLF8U1WQC85SAU4XUHHDEBRVH6KP","A3AY0315YWWNXY","3A3KKYU7P33Z3BR9PPFZ5194ZCQMWU","","null","<img src=""img/land1.png"" style=""width:200px;border:14px solid red;"">","null","","","","","","","",""
"","image-keyboard-response","101","59847","0.0-149.0","37WLF8U1WQC85SAU4XUHHDEBRVH6KP","A3AY0315YWWNXY","3A3KKYU7P33Z3BR9PPFZ5194ZCQMWU","","162.30000001192093","img/land1.png","75","162.80000001192093","2","1","false","1","1,1,0,0,1,1,1,0,1","",""
"","html-keyboard-response","102","60148","0.0-150.0","37WLF8U1WQC85SAU4XUHHDEBRVH6KP","A3AY0315YWWNXY","3A3KKYU7P33Z3BR9PPFZ5194ZCQMWU","","null","<img src=""img/land1.png"" style=""width:200px; border:14px solid green;"">","null","","","","","","","",""
"","image-keyboard-response","103","60309","0.0-152.0","37WLF8U1WQC85SAU4XUHHDEBRVH6KP","A3AY0315YWWNXY","3A3KKYU7P33Z3BR9PPFZ5194ZCQMWU","","160.4000000357628","img/land1.png","75","161.0999999642372","2","1","false","1","1,1,0,0,1,1,1,0,1","",""
"","html-keyboard-response","104","60610","0.0-153.0","37WLF8U1WQC85SAU4XUHHDEBRVH6KP","A3AY0315YWWNXY","3A3KKYU7P33Z3BR9PPFZ5194ZCQMWU","","null","<img src=""img/land1.png"" style=""width:200px; border:14px solid green;"">","null","","","","","","","",""
"","image-keyboard-response","105","60767","0.0-155.0","37WLF8U1WQC85SAU4XUHHDEBRVH6KP","A3AY0315YWWNXY","3A3KKYU7P33Z3BR9PPFZ5194ZCQMWU","","155.80000001192093","img/land4.png","74","156.5","1","1","false","3","1,1,0,0,1,1,1,0,1","",""
"","html-keyboard-response","106","61068","0.0-156.0","37WLF8U1WQC85SAU4XUHHDEBRVH6KP","A3AY0315YWWNXY","3A3KKYU7P33Z3BR9PPFZ5194ZCQMWU","","null","<img src=""img/land4.png"" style=""width:200px; border:14px solid green;"">","null","","","","","","","",""
"","image-keyboard-response","107","61213","0.0-158.0","37WLF8U1WQC85SAU4XUHHDEBRVH6KP","A3AY0315YWWNXY","3A3KKYU7P33Z3BR9PPFZ5194ZCQMWU","","144.10000002384186","img/land1.png","75","144.80000001192093","2","1","false","1","1,1,0,0,1,1,1,0,1","",""
"","html-keyboard-response","108","61514","0.0-159.0","37WLF8U1WQC85SAU4XUHHDEBRVH6KP","A3AY0315YWWNXY","3A3KKYU7P33Z3BR9PPFZ5194ZCQMWU","","null","<img src=""img/land1.png"" style=""width:200px; border:14px solid green;"">","null","","","","","","","",""
"","image-keyboard-response","109","61709","0.0-161.0","37WLF8U1WQC85SAU4XUHHDEBRVH6KP","A3AY0315YWWNXY","3A3KKYU7P33Z3BR9PPFZ5194ZCQMWU","","194.19999998807907","img/land4.png","74","194.79999995231628","1","1","false","3","1,1,0,0,1,1,1,0,1","",""
"","html-keyboard-response","110","62011","0.0-162.0","37WLF8U1WQC85SAU4XUHHDEBRVH6KP","A3AY0315YWWNXY","3A3KKYU7P33Z3BR9PPFZ5194ZCQMWU","","null","<img src=""img/land4.png"" style=""width:200px; border:14px solid green;"">","null","","","","","","","",""
"","image-keyboard-response","111","62247","0.0-164.0","37WLF8U1WQC85SAU4XUHHDEBRVH6KP","A3AY0315YWWNXY","3A3KKYU7P33Z3BR9PPFZ5194ZCQMWU","","235.10000002384186","img/land4.png","74","235.69999998807907","1","1","false","3","1,1,0,0,1,1,1,0,1","",""
"","html-keyboard-response","112","62548","0.0-165.0","37WLF8U1WQC85SAU4XUHHDEBRVH6KP","A3AY0315YWWNXY","3A3KKYU7P33Z3BR9PPFZ5194ZCQMWU","","null","<img src=""img/land4.png"" style=""width:200px; border:14px solid green;"">","null","","","","","","","",""
"","image-keyboard-response","113","62671","0.0-167.0","37WLF8U1WQC85SAU4XUHHDEBRVH6KP","A3AY0315YWWNXY","3A3KKYU7P33Z3BR9PPFZ5194ZCQMWU","","122.30000001192093","img/land3.png","74","122.90000003576279","1","0","false","2","1,1,0,0,1,1,1,0,1","",""
"","html-keyboard-response","114","62973","0.0-168.0","37WLF8U1WQC85SAU4XUHHDEBRVH6KP","A3AY0315YWWNXY","3A3KKYU7P33Z3BR9PPFZ5194ZCQMWU","","null","<img src=""img/land3.png"" style=""width:200px;border:14px solid red;"">","null","","","","","","","",""
"","image-keyboard-response","115","63237","0.0-170.0","37WLF8U1WQC85SAU4XUHHDEBRVH6KP","A3AY0315YWWNXY","3A3KKYU7P33Z3BR9PPFZ5194ZCQMWU","","263.39999997615814","img/land1.png","75","264","2","1","false","1","1,1,0,0,1,1,1,0,1","",""
"","html-keyboard-response","116","63538","0.0-171.0","37WLF8U1WQC85SAU4XUHHDEBRVH6KP","A3AY0315YWWNXY","3A3KKYU7P33Z3BR9PPFZ5194ZCQMWU","","null","<img src=""img/land1.png"" style=""width:200px; border:14px solid green;"">","null","","","","","","","",""
"","image-keyboard-response","117","63693","0.0-173.0","37WLF8U1WQC85SAU4XUHHDEBRVH6KP","A3AY0315YWWNXY","3A3KKYU7P33Z3BR9PPFZ5194ZCQMWU","","154.39999997615814","img/land3.png","76","155","3","1","false","2","1,1,0,0,1,1,1,0,1","",""
"","html-keyboard-response","118","63995","0.0-174.0","37WLF8U1WQC85SAU4XUHHDEBRVH6KP","A3AY0315YWWNXY","3A3KKYU7P33Z3BR9PPFZ5194ZCQMWU","","null","<img src=""img/land3.png"" style=""width:200px; border:14px solid green;"">","null","","","","","","","",""
"","image-keyboard-response","119","64191","0.0-176.0","37WLF8U1WQC85SAU4XUHHDEBRVH6KP","A3AY0315YWWNXY","3A3KKYU7P33Z3BR9PPFZ5194ZCQMWU","","195.39999997615814","img/land1.png","75","196.0999999642372","2","1","false","1","1,1,0,0,1,1,1,0,1","",""
"","html-keyboard-response","120","64493","0.0-177.0","37WLF8U1WQC85SAU4XUHHDEBRVH6KP","A3AY0315YWWNXY","3A3KKYU7P33Z3BR9PPFZ5194ZCQMWU","","null","<img src=""img/land1.png"" style=""width:200px; border:14px solid green;"">","null","","","","","","","",""
"","image-keyboard-response","121","64641","0.0-179.0","37WLF8U1WQC85SAU4XUHHDEBRVH6KP","A3AY0315YWWNXY","3A3KKYU7P33Z3BR9PPFZ5194ZCQMWU","","147.60000002384186","img/land3.png","76","148.19999998807907","3","1","false","2","1,1,0,0,1,1,1,0,1","",""
"","html-keyboard-response","122","64943","0.0-180.0","37WLF8U1WQC85SAU4XUHHDEBRVH6KP","A3AY0315YWWNXY","3A3KKYU7P33Z3BR9PPFZ5194ZCQMWU","","null","<img src=""img/land3.png"" style=""width:200px; border:14px solid green;"">","null","","","","","","","",""
"","image-keyboard-response","123","65063","0.0-182.0","37WLF8U1WQC85SAU4XUHHDEBRVH6KP","A3AY0315YWWNXY","3A3KKYU7P33Z3BR9PPFZ5194ZCQMWU","","119.5","img/land1.png","75","120.19999998807907","2","1","false","1","1,1,0,0,1,1,1,0,1","",""
"","html-keyboard-response","124","65364","0.0-183.0","37WLF8U1WQC85SAU4XUHHDEBRVH6KP","A3AY0315YWWNXY","3A3KKYU7P33Z3BR9PPFZ5194ZCQMWU","","null","<img src=""img/land1.png"" style=""width:200px; border:14px solid green;"">","null","","","","","","","",""
"","image-keyboard-response","125","65499","0.0-185.0","37WLF8U1WQC85SAU4XUHHDEBRVH6KP","A3AY0315YWWNXY","3A3KKYU7P33Z3BR9PPFZ5194ZCQMWU","","134.30000001192093","img/land1.png","75","134.89999997615814","2","1","false","1","1,1,0,0,1,1,1,0,1","",""
"","html-keyboard-response","126","65801","0.0-186.0","37WLF8U1WQC85SAU4XUHHDEBRVH6KP","A3AY0315YWWNXY","3A3KKYU7P33Z3BR9PPFZ5194ZCQMWU","","null","<img src=""img/land1.png"" style=""width:200px; border:14px solid green;"">","null","","","","","","","",""
"","image-keyboard-response","127","65969","0.0-188.0","37WLF8U1WQC85SAU4XUHHDEBRVH6KP","A3AY0315YWWNXY","3A3KKYU7P33Z3BR9PPFZ5194ZCQMWU","","167.39999997615814","img/land1.png","75","168","2","1","false","1","1,1,0,0,1,1,1,0,1","",""
"","html-keyboard-response","128","66271","0.0-189.0","37WLF8U1WQC85SAU4XUHHDEBRVH6KP","A3AY0315YWWNXY","3A3KKYU7P33Z3BR9PPFZ5194ZCQMWU","","null","<img src=""img/land1.png"" style=""width:200px; border:14px solid green;"">","null","","","","","","","",""
"","image-keyboard-response","129","66461","0.0-191.0","37WLF8U1WQC85SAU4XUHHDEBRVH6KP","A3AY0315YWWNXY","3A3KKYU7P33Z3BR9PPFZ5194ZCQMWU","","189.60000002384186","img/land4.png","75","190.0999999642372","2","0","false","3","1,1,0,0,1,1,1,0,1","",""
"","html-keyboard-response","130","66762","0.0-192.0","37WLF8U1WQC85SAU4XUHHDEBRVH6KP","A3AY0315YWWNXY","3A3KKYU7P33Z3BR9PPFZ5194ZCQMWU","","null","<img src=""img/land4.png"" style=""width:200px;border:14px solid red;"">","null","","","","","","","",""
"","image-keyboard-response","131","66839","0.0-194.0","37WLF8U1WQC85SAU4XUHHDEBRVH6KP","A3AY0315YWWNXY","3A3KKYU7P33Z3BR9PPFZ5194ZCQMWU","","76.20000004768372","img/land4.png","74","76.89999997615814","1","1","false","3","1,1,0,0,1,1,1,0,1","",""
"","html-keyboard-response","132","67141","0.0-195.0","37WLF8U1WQC85SAU4XUHHDEBRVH6KP","A3AY0315YWWNXY","3A3KKYU7P33Z3BR9PPFZ5194ZCQMWU","","null","<img src=""img/land4.png"" style=""width:200px; border:14px solid green;"">","null","","","","","","","",""
"","image-keyboard-response","133","67341","0.0-197.0","37WLF8U1WQC85SAU4XUHHDEBRVH6KP","A3AY0315YWWNXY","3A3KKYU7P33Z3BR9PPFZ5194ZCQMWU","","198.9000000357628","img/land3.png","74","199.80000001192093","1","0","false","2","1,1,0,0,1,1,1,0,1","",""
"","html-keyboard-response","134","67643","0.0-198.0","37WLF8U1WQC85SAU4XUHHDEBRVH6KP","A3AY0315YWWNXY","3A3KKYU7P33Z3BR9PPFZ5194ZCQMWU","","null","<img src=""img/land3.png"" style=""width:200px;border:14px solid red;"">","null","","","","","","","",""
"","image-keyboard-response","135","67821","0.0-200.0","37WLF8U1WQC85SAU4XUHHDEBRVH6KP","A3AY0315YWWNXY","3A3KKYU7P33Z3BR9PPFZ5194ZCQMWU","","177.10000002384186","img/land4.png","76","177.80000001192093","3","1","false","3","1,1,0,0,1,1,1,0,1","",""
"","html-keyboard-response","136","68122","0.0-201.0","37WLF8U1WQC85SAU4XUHHDEBRVH6KP","A3AY0315YWWNXY","3A3KKYU7P33Z3BR9PPFZ5194ZCQMWU","","null","<img src=""img/land4.png"" style=""width:200px; border:14px solid green;"">","null","","","","","","","",""
"","image-keyboard-response","137","68299","0.0-203.0","37WLF8U1WQC85SAU4XUHHDEBRVH6KP","A3AY0315YWWNXY","3A3KKYU7P33Z3BR9PPFZ5194ZCQMWU","","176.39999997615814","img/land4.png","76","177.0999999642372","3","1","false","3","1,1,0,0,1,1,1,0,1","",""
"","html-keyboard-response","138","68601","0.0-204.0","37WLF8U1WQC85SAU4XUHHDEBRVH6KP","A3AY0315YWWNXY","3A3KKYU7P33Z3BR9PPFZ5194ZCQMWU","","null","<img src=""img/land4.png"" style=""width:200px; border:14px solid green;"">","null","","","","","","","",""
"","image-keyboard-response","139","68717","0.0-206.0","37WLF8U1WQC85SAU4XUHHDEBRVH6KP","A3AY0315YWWNXY","3A3KKYU7P33Z3BR9PPFZ5194ZCQMWU","","115.60000002384186","img/land3.png","75","116.19999998807907","2","1","false","2","1,1,0,0,1,1,1,0,1","",""
"","html-keyboard-response","140","69019","0.0-207.0","37WLF8U1WQC85SAU4XUHHDEBRVH6KP","A3AY0315YWWNXY","3A3KKYU7P33Z3BR9PPFZ5194ZCQMWU","","null","<img src=""img/land3.png"" style=""width:200px; border:14px solid green;"">","null","","","","","","","",""
"","image-keyboard-response","141","69159","0.0-209.0","37WLF8U1WQC85SAU4XUHHDEBRVH6KP","A3AY0315YWWNXY","3A3KKYU7P33Z3BR9PPFZ5194ZCQMWU","","139.69999998807907","img/land1.png","76","140.39999997615814","3","0","false","1","1,1,0,0,1,1,1,0,1","",""
"","html-keyboard-response","142","69460","0.0-210.0","37WLF8U1WQC85SAU4XUHHDEBRVH6KP","A3AY0315YWWNXY","3A3KKYU7P33Z3BR9PPFZ5194ZCQMWU","","null","<img src=""img/land1.png"" style=""width:200px;border:14px solid red;"">","null","","","","","","","",""
"","image-keyboard-response","143","69619","0.0-212.0","37WLF8U1WQC85SAU4XUHHDEBRVH6KP","A3AY0315YWWNXY","3A3KKYU7P33Z3BR9PPFZ5194ZCQMWU","","158.30000001192093","img/land1.png","74","159.10000002384186","1","1","false","1","1,1,0,0,1,1,1,0,1","",""
"","html-keyboard-response","144","69921","0.0-213.0","37WLF8U1WQC85SAU4XUHHDEBRVH6KP","A3AY0315YWWNXY","3A3KKYU7P33Z3BR9PPFZ5194ZCQMWU","","null","<img src=""img/land1.png"" style=""width:200px; border:14px solid green;"">","null","","","","","","","",""
"","image-keyboard-response","145","70041","0.0-215.0","37WLF8U1WQC85SAU4XUHHDEBRVH6KP","A3AY0315YWWNXY","3A3KKYU7P33Z3BR9PPFZ5194ZCQMWU","","119.39999997615814","img/land3.png","75","120.09999996423721","2","1","false","2","1,1,0,0,1,1,1,0,1","",""
"","html-keyboard-response","146","70342","0.0-216.0","37WLF8U1WQC85SAU4XUHHDEBRVH6KP","A3AY0315YWWNXY","3A3KKYU7P33Z3BR9PPFZ5194ZCQMWU","","null","<img src=""img/land3.png"" style=""width:200px; border:14px solid green;"">","null","","","","","","","",""
"","image-keyboard-response","147","70539","0.0-218.0","37WLF8U1WQC85SAU4XUHHDEBRVH6KP","A3AY0315YWWNXY","3A3KKYU7P33Z3BR9PPFZ5194ZCQMWU","","195.69999998807907","img/land3.png","75","196.30000001192093","2","1","false","2","1,1,0,0,1,1,1,0,1","",""
"","html-keyboard-response","148","70841","0.0-219.0","37WLF8U1WQC85SAU4XUHHDEBRVH6KP","A3AY0315YWWNXY","3A3KKYU7P33Z3BR9PPFZ5194ZCQMWU","","null","<img src=""img/land3.png"" style=""width:200px; border:14px solid green;"">","null","","","","","","","",""
"","image-keyboard-response","149","70933","0.0-221.0","37WLF8U1WQC85SAU4XUHHDEBRVH6KP","A3AY0315YWWNXY","3A3KKYU7P33Z3BR9PPFZ5194ZCQMWU","","91.5","img/land3.png","75","92.19999998807907","2","1","false","2","1,1,0,0,1,1,1,0,1","",""
"","html-keyboard-response","150","71234","0.0-222.0","37WLF8U1WQC85SAU4XUHHDEBRVH6KP","A3AY0315YWWNXY","3A3KKYU7P33Z3BR9PPFZ5194ZCQMWU","","null","<img src=""img/land3.png"" style=""width:200px; border:14px solid green;"">","null","","","","","","","",""
"","image-keyboard-response","151","71435","0.0-224.0","37WLF8U1WQC85SAU4XUHHDEBRVH6KP","A3AY0315YWWNXY","3A3KKYU7P33Z3BR9PPFZ5194ZCQMWU","","200.19999998807907","img/land3.png","75","200.80000001192093","2","1","false","2","1,1,0,0,1,1,1,0,1","",""
"","html-keyboard-response","152","71736","0.0-225.0","37WLF8U1WQC85SAU4XUHHDEBRVH6KP","A3AY0315YWWNXY","3A3KKYU7P33Z3BR9PPFZ5194ZCQMWU","","null","<img src=""img/land3.png"" style=""width:200px; border:14px solid green;"">","null","","","","","","","",""
"","image-keyboard-response","153","71907","0.0-227.0","37WLF8U1WQC85SAU4XUHHDEBRVH6KP","A3AY0315YWWNXY","3A3KKYU7P33Z3BR9PPFZ5194ZCQMWU","","170.30000001192093","img/land4.png","75","171","2","0","false","3","1,1,0,0,1,1,1,0,1","",""
"","html-keyboard-response","154","72208","0.0-228.0","37WLF8U1WQC85SAU4XUHHDEBRVH6KP","A3AY0315YWWNXY","3A3KKYU7P33Z3BR9PPFZ5194ZCQMWU","","null","<img src=""img/land4.png"" style=""width:200px;border:14px solid red;"">","null","","","","","","","",""
"","image-keyboard-response","155","72305","0.0-230.0","37WLF8U1WQC85SAU4XUHHDEBRVH6KP","A3AY0315YWWNXY","3A3KKYU7P33Z3BR9PPFZ5194ZCQMWU","","95.69999998807907","img/land1.png","76","96.5","3","0","false","1","1,1,0,0,1,1,1,0,1","",""
"","html-keyboard-response","156","72607","0.0-231.0","37WLF8U1WQC85SAU4XUHHDEBRVH6KP","A3AY0315YWWNXY","3A3KKYU7P33Z3BR9PPFZ5194ZCQMWU","","null","<img src=""img/land1.png"" style=""width:200px;border:14px solid red;"">","null","","","","","","","",""
"","image-keyboard-response","157","72725","0.0-233.0","37WLF8U1WQC85SAU4XUHHDEBRVH6KP","A3AY0315YWWNXY","3A3KKYU7P33Z3BR9PPFZ5194ZCQMWU","","117.5","img/land4.png","74","118.19999998807907","1","1","false","3","1,1,0,0,1,1,1,0,1","",""
"","html-keyboard-response","158","73027","0.0-234.0","37WLF8U1WQC85SAU4XUHHDEBRVH6KP","A3AY0315YWWNXY","3A3KKYU7P33Z3BR9PPFZ5194ZCQMWU","","null","<img src=""img/land4.png"" style=""width:200px; border:14px solid green;"">","null","","","","","","","",""
"","image-keyboard-response","159","73169","0.0-236.0","37WLF8U1WQC85SAU4XUHHDEBRVH6KP","A3AY0315YWWNXY","3A3KKYU7P33Z3BR9PPFZ5194ZCQMWU","","141.5999999642372","img/land4.png","75","142.30000001192093","2","0","false","3","1,1,0,0,1,1,1,0,1","",""
"","html-keyboard-response","160","73470","0.0-237.0","37WLF8U1WQC85SAU4XUHHDEBRVH6KP","A3AY0315YWWNXY","3A3KKYU7P33Z3BR9PPFZ5194ZCQMWU","","null","<img src=""img/land4.png"" style=""width:200px;border:14px solid red;"">","null","","","","","","","",""
"","image-keyboard-response","161","73569","0.0-239.0","37WLF8U1WQC85SAU4XUHHDEBRVH6KP","A3AY0315YWWNXY","3A3KKYU7P33Z3BR9PPFZ5194ZCQMWU","","98.39999997615814","img/land4.png","74","98.89999997615814","1","1","false","3","1,1,0,0,1,1,1,0,1","",""
"","html-keyboard-response","162","73871","0.0-240.0","37WLF8U1WQC85SAU4XUHHDEBRVH6KP","A3AY0315YWWNXY","3A3KKYU7P33Z3BR9PPFZ5194ZCQMWU","","null","<img src=""img/land4.png"" style=""width:200px; border:14px solid green;"">","null","","","","","","","",""
"","image-keyboard-response","163","73985","0.0-242.0","37WLF8U1WQC85SAU4XUHHDEBRVH6KP","A3AY0315YWWNXY","3A3KKYU7P33Z3BR9PPFZ5194ZCQMWU","","113.5","img/land4.png","74","114.19999998807907","1","1","false","3","1,1,0,0,1,1,1,0,1","",""
"","html-keyboard-response","164","74286","0.0-243.0","37WLF8U1WQC85SAU4XUHHDEBRVH6KP","A3AY0315YWWNXY","3A3KKYU7P33Z3BR9PPFZ5194ZCQMWU","","null","<img src=""img/land4.png"" style=""width:200px; border:14px solid green;"">","null","","","","","","","",""
"","image-keyboard-response","165","74403","0.0-245.0","37WLF8U1WQC85SAU4XUHHDEBRVH6KP","A3AY0315YWWNXY","3A3KKYU7P33Z3BR9PPFZ5194ZCQMWU","","116.19999998807907","img/land4.png","74","116.90000003576279","1","1","false","3","1,1,0,0,1,1,1,0,1","",""
"","html-keyboard-response","166","74704","0.0-246.0","37WLF8U1WQC85SAU4XUHHDEBRVH6KP","A3AY0315YWWNXY","3A3KKYU7P33Z3BR9PPFZ5194ZCQMWU","","null","<img src=""img/land4.png"" style=""width:200px; border:14px solid green;"">","null","","","","","","","",""
"","image-keyboard-response","167","74829","0.0-248.0","37WLF8U1WQC85SAU4XUHHDEBRVH6KP","A3AY0315YWWNXY","3A3KKYU7P33Z3BR9PPFZ5194ZCQMWU","","124.30000001192093","img/land3.png","74","124.90000003576279","1","0","false","2","1,1,0,0,1,1,1,0,1","",""
"","html-keyboard-response","168","75131","0.0-249.0","37WLF8U1WQC85SAU4XUHHDEBRVH6KP","A3AY0315YWWNXY","3A3KKYU7P33Z3BR9PPFZ5194ZCQMWU","","null","<img src=""img/land3.png"" style=""width:200px;border:14px solid red;"">","null","","","","","","","",""
"","image-keyboard-response","169","75173","0.0-251.0","37WLF8U1WQC85SAU4XUHHDEBRVH6KP","A3AY0315YWWNXY","3A3KKYU7P33Z3BR9PPFZ5194ZCQMWU","","41.299999952316284","img/land3.png","75","42","2","1","false","2","1,1,0,0,1,1,1,0,1","",""
"","html-keyboard-response","170","75474","0.0-252.0","37WLF8U1WQC85SAU4XUHHDEBRVH6KP","A3AY0315YWWNXY","3A3KKYU7P33Z3BR9PPFZ5194ZCQMWU","","null","<img src=""img/land3.png"" style=""width:200px; border:14px solid green;"">","null","","","","","","","",""
"","image-keyboard-response","171","75597","0.0-254.0","37WLF8U1WQC85SAU4XUHHDEBRVH6KP","A3AY0315YWWNXY","3A3KKYU7P33Z3BR9PPFZ5194ZCQMWU","","122","img/land1.png","75","122.69999998807907","2","1","false","1","1,1,0,0,1,1,1,0,1","",""
"","html-keyboard-response","172","75898","0.0-255.0","37WLF8U1WQC85SAU4XUHHDEBRVH6KP","A3AY0315YWWNXY","3A3KKYU7P33Z3BR9PPFZ5194ZCQMWU","","null","<img src=""img/land1.png"" style=""width:200px; border:14px solid green;"">","null","","","","","","","",""
"","image-keyboard-response","173","76163","0.0-257.0","37WLF8U1WQC85SAU4XUHHDEBRVH6KP","A3AY0315YWWNXY","3A3KKYU7P33Z3BR9PPFZ5194ZCQMWU","","264.30000001192093","img/land4.png","74","264.9000000357628","1","1","false","3","1,1,0,0,1,1,1,0,1","",""
"","html-keyboard-response","174","76464","0.0-258.0","37WLF8U1WQC85SAU4XUHHDEBRVH6KP","A3AY0315YWWNXY","3A3KKYU7P33Z3BR9PPFZ5194ZCQMWU","","null","<img src=""img/land4.png"" style=""width:200px; border:14px solid green;"">","null","","","","","","","",""
"","image-keyboard-response","175","76727","0.0-260.0","37WLF8U1WQC85SAU4XUHHDEBRVH6KP","A3AY0315YWWNXY","3A3KKYU7P33Z3BR9PPFZ5194ZCQMWU","","262.19999998807907","img/land3.png","75","262.9000000357628","2","1","false","2","1,1,0,0,1,1,1,0,1","",""
"","html-keyboard-response","176","77028","0.0-261.0","37WLF8U1WQC85SAU4XUHHDEBRVH6KP","A3AY0315YWWNXY","3A3KKYU7P33Z3BR9PPFZ5194ZCQMWU","","null","<img src=""img/land3.png"" style=""width:200px; border:14px solid green;"">","null","","","","","","","",""
"","image-keyboard-response","177","77293","0.0-263.0","37WLF8U1WQC85SAU4XUHHDEBRVH6KP","A3AY0315YWWNXY","3A3KKYU7P33Z3BR9PPFZ5194ZCQMWU","","264.4000000357628","img/land3.png","76","265.0999999642372","3","1","false","2","1,1,0,0,1,1,1,0,1","",""
"","html-keyboard-response","178","77595","0.0-264.0","37WLF8U1WQC85SAU4XUHHDEBRVH6KP","A3AY0315YWWNXY","3A3KKYU7P33Z3BR9PPFZ5194ZCQMWU","","null","<img src=""img/land3.png"" style=""width:200px; border:14px solid green;"">","null","","","","","","","",""
"","image-keyboard-response","179","77749","0.0-266.0","37WLF8U1WQC85SAU4XUHHDEBRVH6KP","A3AY0315YWWNXY","3A3KKYU7P33Z3BR9PPFZ5194ZCQMWU","","153.30000001192093","img/land1.png","75","154","2","1","false","1","1,1,0,0,1,1,1,0,1","",""
"","html-keyboard-response","180","78050","0.0-267.0","37WLF8U1WQC85SAU4XUHHDEBRVH6KP","A3AY0315YWWNXY","3A3KKYU7P33Z3BR9PPFZ5194ZCQMWU","","null","<img src=""img/land1.png"" style=""width:200px; border:14px solid green;"">","null","","","","","","","",""
"","image-keyboard-response","181","78269","0.0-269.0","37WLF8U1WQC85SAU4XUHHDEBRVH6KP","A3AY0315YWWNXY","3A3KKYU7P33Z3BR9PPFZ5194ZCQMWU","","218.39999997615814","img/land1.png","75","219.10000002384186","2","1","false","1","1,1,0,0,1,1,1,0,1","",""
"","html-keyboard-response","182","78571","0.0-270.0","37WLF8U1WQC85SAU4XUHHDEBRVH6KP","A3AY0315YWWNXY","3A3KKYU7P33Z3BR9PPFZ5194ZCQMWU","","null","<img src=""img/land1.png"" style=""width:200px; border:14px solid green;"">","null","","","","","","","",""
"","html-keyboard-response","183","80204","0.0-272.0","37WLF8U1WQC85SAU4XUHHDEBRVH6KP","A3AY0315YWWNXY","3A3KKYU7P33Z3BR9PPFZ5194ZCQMWU","","","","","","","","","","","",""
"","image-keyboard-response","184","80853","0.0-273.0","37WLF8U1WQC85SAU4XUHHDEBRVH6KP","A3AY0315YWWNXY","3A3KKYU7P33Z3BR9PPFZ5194ZCQMWU","","647.7999999523163","img/land2.png","75","648.6000000238419","2","1","false","2","1,0.5,0.5,0.5,1,0.5,0.5,0.5,1","",""
"","html-keyboard-response","185","81155","0.0-274.0","37WLF8U1WQC85SAU4XUHHDEBRVH6KP","A3AY0315YWWNXY","3A3KKYU7P33Z3BR9PPFZ5194ZCQMWU","","null","<img src=""img/land2.png"" style=""width:200px; border:14px solid green;"">","null","","","","","","","",""
"","image-keyboard-response","186","81383","0.0-276.0","37WLF8U1WQC85SAU4XUHHDEBRVH6KP","A3AY0315YWWNXY","3A3KKYU7P33Z3BR9PPFZ5194ZCQMWU","","227.60000002384186","img/land5.png","75","228.4000000357628","2","1","false","3","1,0.5,0.5,0.5,1,0.5,0.5,0.5,1","",""
"","html-keyboard-response","187","81684","0.0-277.0","37WLF8U1WQC85SAU4XUHHDEBRVH6KP","A3AY0315YWWNXY","3A3KKYU7P33Z3BR9PPFZ5194ZCQMWU","","null","<img src=""img/land5.png"" style=""width:200px; border:14px solid green;"">","null","","","","","","","",""
"","image-keyboard-response","188","81869","0.0-279.0","37WLF8U1WQC85SAU4XUHHDEBRVH6KP","A3AY0315YWWNXY","3A3KKYU7P33Z3BR9PPFZ5194ZCQMWU","","184.10000002384186","img/land5.png","75","184.69999998807907","2","1","false","3","1,0.5,0.5,0.5,1,0.5,0.5,0.5,1","",""
"","html-keyboard-response","189","82170","0.0-280.0","37WLF8U1WQC85SAU4XUHHDEBRVH6KP","A3AY0315YWWNXY","3A3KKYU7P33Z3BR9PPFZ5194ZCQMWU","","null","<img src=""img/land5.png"" style=""width:200px; border:14px solid green;"">","null","","","","","","","",""
"","image-keyboard-response","190","82373","0.0-282.0","37WLF8U1WQC85SAU4XUHHDEBRVH6KP","A3AY0315YWWNXY","3A3KKYU7P33Z3BR9PPFZ5194ZCQMWU","","202.39999997615814","img/land2.png","75","202.9000000357628","2","1","false","2","1,0.5,0.5,0.5,1,0.5,0.5,0.5,1","",""
"","html-keyboard-response","191","82674","0.0-283.0","37WLF8U1WQC85SAU4XUHHDEBRVH6KP","A3AY0315YWWNXY","3A3KKYU7P33Z3BR9PPFZ5194ZCQMWU","","null","<img src=""img/land2.png"" style=""width:200px; border:14px solid green;"">","null","","","","","","","",""
"","image-keyboard-response","192","82849","0.0-285.0","37WLF8U1WQC85SAU4XUHHDEBRVH6KP","A3AY0315YWWNXY","3A3KKYU7P33Z3BR9PPFZ5194ZCQMWU","","174.10000002384186","img/land2.png","75","174.80000001192093","2","1","false","2","1,0.5,0.5,0.5,1,0.5,0.5,0.5,1","",""
"","html-keyboard-response","193","83151","0.0-286.0","37WLF8U1WQC85SAU4XUHHDEBRVH6KP","A3AY0315YWWNXY","3A3KKYU7P33Z3BR9PPFZ5194ZCQMWU","","null","<img src=""img/land2.png"" style=""width:200px; border:14px solid green;"">","null","","","","","","","",""
"","image-keyboard-response","194","83311","0.0-288.0","37WLF8U1WQC85SAU4XUHHDEBRVH6KP","A3AY0315YWWNXY","3A3KKYU7P33Z3BR9PPFZ5194ZCQMWU","","159.5","img/land6.png","75","160.39999997615814","2","1","false","1","1,0.5,0.5,0.5,1,0.5,0.5,0.5,1","",""
"","html-keyboard-response","195","83613","0.0-289.0","37WLF8U1WQC85SAU4XUHHDEBRVH6KP","A3AY0315YWWNXY","3A3KKYU7P33Z3BR9PPFZ5194ZCQMWU","","null","<img src=""img/land6.png"" style=""width:200px; border:14px solid green;"">","null","","","","","","","",""
"","image-keyboard-response","196","83803","0.0-291.0","37WLF8U1WQC85SAU4XUHHDEBRVH6KP","A3AY0315YWWNXY","3A3KKYU7P33Z3BR9PPFZ5194ZCQMWU","","189","img/land6.png","75","189.5","2","0","false","1","1,0.5,0.5,0.5,1,0.5,0.5,0.5,1","",""
"","html-keyboard-response","197","84104","0.0-292.0","37WLF8U1WQC85SAU4XUHHDEBRVH6KP","A3AY0315YWWNXY","3A3KKYU7P33Z3BR9PPFZ5194ZCQMWU","","null","<img src=""img/land6.png"" style=""width:200px;border:14px solid red;"">","null","","","","","","","",""
"","image-keyboard-response","198","84345","0.0-294.0","37WLF8U1WQC85SAU4XUHHDEBRVH6KP","A3AY0315YWWNXY","3A3KKYU7P33Z3BR9PPFZ5194ZCQMWU","","240.39999997615814","img/land5.png","75","241.10000002384186","2","0","false","3","1,0.5,0.5,0.5,1,0.5,0.5,0.5,1","",""
"","html-keyboard-response","199","84647","0.0-295.0","37WLF8U1WQC85SAU4XUHHDEBRVH6KP","A3AY0315YWWNXY","3A3KKYU7P33Z3BR9PPFZ5194ZCQMWU","","null","<img src=""img/land5.png"" style=""width:200px;border:14px solid red;"">","null","","","","","","","",""
"","image-keyboard-response","200","84841","0.0-297.0","37WLF8U1WQC85SAU4XUHHDEBRVH6KP","A3AY0315YWWNXY","3A3KKYU7P33Z3BR9PPFZ5194ZCQMWU","","193.19999998807907","img/land2.png","75","193.9000000357628","2","1","false","2","1,0.5,0.5,0.5,1,0.5,0.5,0.5,1","",""
"","html-keyboard-response","201","85143","0.0-298.0","37WLF8U1WQC85SAU4XUHHDEBRVH6KP","A3AY0315YWWNXY","3A3KKYU7P33Z3BR9PPFZ5194ZCQMWU","","null","<img src=""img/land2.png"" style=""width:200px; border:14px solid green;"">","null","","","","","","","",""
"","image-keyboard-response","202","85299","0.0-300.0","37WLF8U1WQC85SAU4XUHHDEBRVH6KP","A3AY0315YWWNXY","3A3KKYU7P33Z3BR9PPFZ5194ZCQMWU","","155.30000001192093","img/land5.png","75","155.89999997615814","2","1","false","3","1,0.5,0.5,0.5,1,0.5,0.5,0.5,1","",""
"","html-keyboard-response","203","85601","0.0-301.0","37WLF8U1WQC85SAU4XUHHDEBRVH6KP","A3AY0315YWWNXY","3A3KKYU7P33Z3BR9PPFZ5194ZCQMWU","","null","<img src=""img/land5.png"" style=""width:200px; border:14px solid green;"">","null","","","","","","","",""
"","image-keyboard-response","204","85727","0.0-303.0","37WLF8U1WQC85SAU4XUHHDEBRVH6KP","A3AY0315YWWNXY","3A3KKYU7P33Z3BR9PPFZ5194ZCQMWU","","125.5","img/land6.png","75","126","2","0","false","1","1,0.5,0.5,0.5,1,0.5,0.5,0.5,1","",""
"","html-keyboard-response","205","86029","0.0-304.0","37WLF8U1WQC85SAU4XUHHDEBRVH6KP","A3AY0315YWWNXY","3A3KKYU7P33Z3BR9PPFZ5194ZCQMWU","","null","<img src=""img/land6.png"" style=""width:200px;border:14px solid red;"">","null","","","","","","","",""
"","image-keyboard-response","206","86153","0.0-306.0","37WLF8U1WQC85SAU4XUHHDEBRVH6KP","A3AY0315YWWNXY","3A3KKYU7P33Z3BR9PPFZ5194ZCQMWU","","123.70000004768372","img/land6.png","75","124.30000001192093","2","0","false","1","1,0.5,0.5,0.5,1,0.5,0.5,0.5,1","",""
"","html-keyboard-response","207","86454","0.0-307.0","37WLF8U1WQC85SAU4XUHHDEBRVH6KP","A3AY0315YWWNXY","3A3KKYU7P33Z3BR9PPFZ5194ZCQMWU","","null","<img src=""img/land6.png"" style=""width:200px;border:14px solid red;"">","null","","","","","","","",""
"","image-keyboard-response","208","86693","0.0-309.0","37WLF8U1WQC85SAU4XUHHDEBRVH6KP","A3AY0315YWWNXY","3A3KKYU7P33Z3BR9PPFZ5194ZCQMWU","","238.10000002384186","img/land2.png","75","238.69999998807907","2","1","false","2","1,0.5,0.5,0.5,1,0.5,0.5,0.5,1","",""
"","html-keyboard-response","209","86995","0.0-310.0","37WLF8U1WQC85SAU4XUHHDEBRVH6KP","A3AY0315YWWNXY","3A3KKYU7P33Z3BR9PPFZ5194ZCQMWU","","null","<img src=""img/land2.png"" style=""width:200px; border:14px solid green;"">","null","","","","","","","",""
"","image-keyboard-response","210","87123","0.0-312.0","37WLF8U1WQC85SAU4XUHHDEBRVH6KP","A3AY0315YWWNXY","3A3KKYU7P33Z3BR9PPFZ5194ZCQMWU","","127.69999998807907","img/land6.png","75","128.4000000357628","2","0","false","1","1,0.5,0.5,0.5,1,0.5,0.5,0.5,1","",""
"","html-keyboard-response","211","87425","0.0-313.0","37WLF8U1WQC85SAU4XUHHDEBRVH6KP","A3AY0315YWWNXY","3A3KKYU7P33Z3BR9PPFZ5194ZCQMWU","","null","<img src=""img/land6.png"" style=""width:200px;border:14px solid red;"">","null","","","","","","","",""
"","image-keyboard-response","212","87555","0.0-315.0","37WLF8U1WQC85SAU4XUHHDEBRVH6KP","A3AY0315YWWNXY","3A3KKYU7P33Z3BR9PPFZ5194ZCQMWU","","129.5999999642372","img/land5.png","76","130","3","1","false","3","1,0.5,0.5,0.5,1,0.5,0.5,0.5,1","",""
"","html-keyboard-response","213","87857","0.0-316.0","37WLF8U1WQC85SAU4XUHHDEBRVH6KP","A3AY0315YWWNXY","3A3KKYU7P33Z3BR9PPFZ5194ZCQMWU","","null","<img src=""img/land5.png"" style=""width:200px; border:14px solid green;"">","null","","","","","","","",""
"","image-keyboard-response","214","87945","0.0-318.0","37WLF8U1WQC85SAU4XUHHDEBRVH6KP","A3AY0315YWWNXY","3A3KKYU7P33Z3BR9PPFZ5194ZCQMWU","","87.39999997615814","img/land2.png","75","88.29999995231628","2","1","false","2","1,0.5,0.5,0.5,1,0.5,0.5,0.5,1","",""
"","html-keyboard-response","215","88247","0.0-319.0","37WLF8U1WQC85SAU4XUHHDEBRVH6KP","A3AY0315YWWNXY","3A3KKYU7P33Z3BR9PPFZ5194ZCQMWU","","null","<img src=""img/land2.png"" style=""width:200px; border:14px solid green;"">","null","","","","","","","",""
"","image-keyboard-response","216","88421","0.0-321.0","37WLF8U1WQC85SAU4XUHHDEBRVH6KP","A3AY0315YWWNXY","3A3KKYU7P33Z3BR9PPFZ5194ZCQMWU","","172","img/land5.png","75","172.69999998807907","2","1","false","3","1,0.5,0.5,0.5,1,0.5,0.5,0.5,1","",""
"","html-keyboard-response","217","88722","0.0-322.0","37WLF8U1WQC85SAU4XUHHDEBRVH6KP","A3AY0315YWWNXY","3A3KKYU7P33Z3BR9PPFZ5194ZCQMWU","","null","<img src=""img/land5.png"" style=""width:200px; border:14px solid green;"">","null","","","","","","","",""
"","image-keyboard-response","218","88961","0.0-324.0","37WLF8U1WQC85SAU4XUHHDEBRVH6KP","A3AY0315YWWNXY","3A3KKYU7P33Z3BR9PPFZ5194ZCQMWU","","238.19999998807907","img/land6.png","75","238.80000001192093","2","1","false","1","1,0.5,0.5,0.5,1,0.5,0.5,0.5,1","",""
"","html-keyboard-response","219","89262","0.0-325.0","37WLF8U1WQC85SAU4XUHHDEBRVH6KP","A3AY0315YWWNXY","3A3KKYU7P33Z3BR9PPFZ5194ZCQMWU","","null","<img src=""img/land6.png"" style=""width:200px; border:14px solid green;"">","null","","","","","","","",""
"","image-keyboard-response","220","89643","0.0-327.0","37WLF8U1WQC85SAU4XUHHDEBRVH6KP","A3AY0315YWWNXY","3A3KKYU7P33Z3BR9PPFZ5194ZCQMWU","","380.30000001192093","img/land2.png","75","380.80000001192093","2","1","false","2","1,0.5,0.5,0.5,1,0.5,0.5,0.5,1","",""
"","html-keyboard-response","221","89945","0.0-328.0","37WLF8U1WQC85SAU4XUHHDEBRVH6KP","A3AY0315YWWNXY","3A3KKYU7P33Z3BR9PPFZ5194ZCQMWU","","null","<img src=""img/land2.png"" style=""width:200px; border:14px solid green;"">","null","","","","","","","",""
"","image-keyboard-response","222","90107","0.0-330.0","37WLF8U1WQC85SAU4XUHHDEBRVH6KP","A3AY0315YWWNXY","3A3KKYU7P33Z3BR9PPFZ5194ZCQMWU","","161.69999998807907","img/land6.png","75","162.4000000357628","2","1","false","1","1,0.5,0.5,0.5,1,0.5,0.5,0.5,1","",""
"","html-keyboard-response","223","90408","0.0-331.0","37WLF8U1WQC85SAU4XUHHDEBRVH6KP","A3AY0315YWWNXY","3A3KKYU7P33Z3BR9PPFZ5194ZCQMWU","","null","<img src=""img/land6.png"" style=""width:200px; border:14px solid green;"">","null","","","","","","","",""
"","image-keyboard-response","224","90551","0.0-333.0","37WLF8U1WQC85SAU4XUHHDEBRVH6KP","A3AY0315YWWNXY","3A3KKYU7P33Z3BR9PPFZ5194ZCQMWU","","142.39999997615814","img/land5.png","75","143","2","1","false","3","1,0.5,0.5,0.5,1,0.5,0.5,0.5,1","",""
"","html-keyboard-response","225","90853","0.0-334.0","37WLF8U1WQC85SAU4XUHHDEBRVH6KP","A3AY0315YWWNXY","3A3KKYU7P33Z3BR9PPFZ5194ZCQMWU","","null","<img src=""img/land5.png"" style=""width:200px; border:14px solid green;"">","null","","","","","","","",""
"","image-keyboard-response","226","90925","0.0-336.0","37WLF8U1WQC85SAU4XUHHDEBRVH6KP","A3AY0315YWWNXY","3A3KKYU7P33Z3BR9PPFZ5194ZCQMWU","","71.5","img/land2.png","75","72.09999996423721","2","1","false","2","1,0.5,0.5,0.5,1,0.5,0.5,0.5,1","",""
"","html-keyboard-response","227","91227","0.0-337.0","37WLF8U1WQC85SAU4XUHHDEBRVH6KP","A3AY0315YWWNXY","3A3KKYU7P33Z3BR9PPFZ5194ZCQMWU","","null","<img src=""img/land2.png"" style=""width:200px; border:14px solid green;"">","null","","","","","","","",""
"","image-keyboard-response","228","91351","0.0-339.0","37WLF8U1WQC85SAU4XUHHDEBRVH6KP","A3AY0315YWWNXY","3A3KKYU7P33Z3BR9PPFZ5194ZCQMWU","","123.60000002384186","img/land2.png","75","124.30000001192093","2","1","false","2","1,0.5,0.5,0.5,1,0.5,0.5,0.5,1","",""
"","html-keyboard-response","229","91652","0.0-340.0","37WLF8U1WQC85SAU4XUHHDEBRVH6KP","A3AY0315YWWNXY","3A3KKYU7P33Z3BR9PPFZ5194ZCQMWU","","null","<img src=""img/land2.png"" style=""width:200px; border:14px solid green;"">","null","","","","","","","",""
"","image-keyboard-response","230","91763","0.0-342.0","37WLF8U1WQC85SAU4XUHHDEBRVH6KP","A3AY0315YWWNXY","3A3KKYU7P33Z3BR9PPFZ5194ZCQMWU","","110.09999996423721","img/land2.png","75","110.80000001192093","2","1","false","2","1,0.5,0.5,0.5,1,0.5,0.5,0.5,1","",""
"","html-keyboard-response","231","92064","0.0-343.0","37WLF8U1WQC85SAU4XUHHDEBRVH6KP","A3AY0315YWWNXY","3A3KKYU7P33Z3BR9PPFZ5194ZCQMWU","","null","<img src=""img/land2.png"" style=""width:200px; border:14px solid green;"">","null","","","","","","","",""
"","image-keyboard-response","232","92179","0.0-345.0","37WLF8U1WQC85SAU4XUHHDEBRVH6KP","A3AY0315YWWNXY","3A3KKYU7P33Z3BR9PPFZ5194ZCQMWU","","114.5","img/land5.png","75","115.10000002384186","2","1","false","3","1,0.5,0.5,0.5,1,0.5,0.5,0.5,1","",""
"","html-keyboard-response","233","92481","0.0-346.0","37WLF8U1WQC85SAU4XUHHDEBRVH6KP","A3AY0315YWWNXY","3A3KKYU7P33Z3BR9PPFZ5194ZCQMWU","","null","<img src=""img/land5.png"" style=""width:200px; border:14px solid green;"">","null","","","","","","","",""
"","image-keyboard-response","234","92603","0.0-348.0","37WLF8U1WQC85SAU4XUHHDEBRVH6KP","A3AY0315YWWNXY","3A3KKYU7P33Z3BR9PPFZ5194ZCQMWU","","121.30000001192093","img/land2.png","75","122","2","1","false","2","1,0.5,0.5,0.5,1,0.5,0.5,0.5,1","",""
"","html-keyboard-response","235","92904","0.0-349.0","37WLF8U1WQC85SAU4XUHHDEBRVH6KP","A3AY0315YWWNXY","3A3KKYU7P33Z3BR9PPFZ5194ZCQMWU","","null","<img src=""img/land2.png"" style=""width:200px; border:14px solid green;"">","null","","","","","","","",""
"","image-keyboard-response","236","93041","0.0-351.0","37WLF8U1WQC85SAU4XUHHDEBRVH6KP","A3AY0315YWWNXY","3A3KKYU7P33Z3BR9PPFZ5194ZCQMWU","","136.20000004768372","img/land6.png","75","136.89999997615814","2","0","false","1","1,0.5,0.5,0.5,1,0.5,0.5,0.5,1","",""
"","html-keyboard-response","237","93342","0.0-352.0","37WLF8U1WQC85SAU4XUHHDEBRVH6KP","A3AY0315YWWNXY","3A3KKYU7P33Z3BR9PPFZ5194ZCQMWU","","null","<img src=""img/land6.png"" style=""width:200px;border:14px solid red;"">","null","","","","","","","",""
"","image-keyboard-response","238","93469","0.0-354.0","37WLF8U1WQC85SAU4XUHHDEBRVH6KP","A3AY0315YWWNXY","3A3KKYU7P33Z3BR9PPFZ5194ZCQMWU","","126.30000001192093","img/land5.png","75","126.89999997615814","2","1","false","3","1,0.5,0.5,0.5,1,0.5,0.5,0.5,1","",""
"","html-keyboard-response","239","93771","0.0-355.0","37WLF8U1WQC85SAU4XUHHDEBRVH6KP","A3AY0315YWWNXY","3A3KKYU7P33Z3BR9PPFZ5194ZCQMWU","","null","<img src=""img/land5.png"" style=""width:200px; border:14px solid green;"">","null","","","","","","","",""
"","image-keyboard-response","240","93773","0.0-357.0","37WLF8U1WQC85SAU4XUHHDEBRVH6KP","A3AY0315YWWNXY","3A3KKYU7P33Z3BR9PPFZ5194ZCQMWU","","1.399999976158142","img/land2.png","75","1.800000011920929","2","1","false","2","1,0.5,0.5,0.5,1,0.5,0.5,0.5,1","",""
"","html-keyboard-response","241","94074","0.0-358.0","37WLF8U1WQC85SAU4XUHHDEBRVH6KP","A3AY0315YWWNXY","3A3KKYU7P33Z3BR9PPFZ5194ZCQMWU","","null","<img src=""img/land2.png"" style=""width:200px; border:14px solid green;"">","null","","","","","","","",""
"","image-keyboard-response","242","94213","0.0-360.0","37WLF8U1WQC85SAU4XUHHDEBRVH6KP","A3AY0315YWWNXY","3A3KKYU7P33Z3BR9PPFZ5194ZCQMWU","","138.10000002384186","img/land2.png","75","138.89999997615814","2","1","false","2","1,0.5,0.5,0.5,1,0.5,0.5,0.5,1","",""
"","html-keyboard-response","243","94515","0.0-361.0","37WLF8U1WQC85SAU4XUHHDEBRVH6KP","A3AY0315YWWNXY","3A3KKYU7P33Z3BR9PPFZ5194ZCQMWU","","null","<img src=""img/land2.png"" style=""width:200px; border:14px solid green;"">","null","","","","","","","",""
"","image-keyboard-response","244","94655","0.0-363.0","37WLF8U1WQC85SAU4XUHHDEBRVH6KP","A3AY0315YWWNXY","3A3KKYU7P33Z3BR9PPFZ5194ZCQMWU","","139.19999998807907","img/land5.png","75","140","2","0","false","3","1,0.5,0.5,0.5,1,0.5,0.5,0.5,1","",""
"","html-keyboard-response","245","94956","0.0-364.0","37WLF8U1WQC85SAU4XUHHDEBRVH6KP","A3AY0315YWWNXY","3A3KKYU7P33Z3BR9PPFZ5194ZCQMWU","","null","<img src=""img/land5.png"" style=""width:200px;border:14px solid red;"">","null","","","","","","","",""
"","image-keyboard-response","246","94957","0.0-366.0","37WLF8U1WQC85SAU4XUHHDEBRVH6KP","A3AY0315YWWNXY","3A3KKYU7P33Z3BR9PPFZ5194ZCQMWU","","0.5","img/land2.png","75","1.0999999642372131","2","1","false","2","1,0.5,0.5,0.5,1,0.5,0.5,0.5,1","",""
"","html-keyboard-response","247","95259","0.0-367.0","37WLF8U1WQC85SAU4XUHHDEBRVH6KP","A3AY0315YWWNXY","3A3KKYU7P33Z3BR9PPFZ5194ZCQMWU","","null","<img src=""img/land2.png"" style=""width:200px; border:14px solid green;"">","null","","","","","","","",""
"","image-keyboard-response","248","95417","0.0-369.0","37WLF8U1WQC85SAU4XUHHDEBRVH6KP","A3AY0315YWWNXY","3A3KKYU7P33Z3BR9PPFZ5194ZCQMWU","","157.20000004768372","img/land5.png","75","157.80000001192093","2","0","false","3","1,0.5,0.5,0.5,1,0.5,0.5,0.5,1","",""
"","html-keyboard-response","249","95718","0.0-370.0","37WLF8U1WQC85SAU4XUHHDEBRVH6KP","A3AY0315YWWNXY","3A3KKYU7P33Z3BR9PPFZ5194ZCQMWU","","null","<img src=""img/land5.png"" style=""width:200px;border:14px solid red;"">","null","","","","","","","",""
"","image-keyboard-response","250","95729","0.0-372.0","37WLF8U1WQC85SAU4XUHHDEBRVH6KP","A3AY0315YWWNXY","3A3KKYU7P33Z3BR9PPFZ5194ZCQMWU","","10","img/land6.png","75","10.600000023841858","2","0","false","1","1,0.5,0.5,0.5,1,0.5,0.5,0.5,1","",""
"","html-keyboard-response","251","96030","0.0-373.0","37WLF8U1WQC85SAU4XUHHDEBRVH6KP","A3AY0315YWWNXY","3A3KKYU7P33Z3BR9PPFZ5194ZCQMWU","","null","<img src=""img/land6.png"" style=""width:200px;border:14px solid red;"">","null","","","","","","","",""
"","image-keyboard-response","252","96035","0.0-375.0","37WLF8U1WQC85SAU4XUHHDEBRVH6KP","A3AY0315YWWNXY","3A3KKYU7P33Z3BR9PPFZ5194ZCQMWU","","4.399999976158142","img/land6.png","75","4.899999976158142","2","0","false","1","1,0.5,0.5,0.5,1,0.5,0.5,0.5,1","",""
"","html-keyboard-response","253","96336","0.0-376.0","37WLF8U1WQC85SAU4XUHHDEBRVH6KP","A3AY0315YWWNXY","3A3KKYU7P33Z3BR9PPFZ5194ZCQMWU","","null","<img src=""img/land6.png"" style=""width:200px;border:14px solid red;"">","null","","","","","","","",""
"","image-keyboard-response","254","96839","0.0-378.0","37WLF8U1WQC85SAU4XUHHDEBRVH6KP","A3AY0315YWWNXY","3A3KKYU7P33Z3BR9PPFZ5194ZCQMWU","","502.0999999642372","img/land5.png","75","502.80000001192093","2","0","false","3","1,0.5,0.5,0.5,1,0.5,0.5,0.5,1","",""
"","html-keyboard-response","255","97140","0.0-379.0","37WLF8U1WQC85SAU4XUHHDEBRVH6KP","A3AY0315YWWNXY","3A3KKYU7P33Z3BR9PPFZ5194ZCQMWU","","null","<img src=""img/land5.png"" style=""width:200px;border:14px solid red;"">","null","","","","","","","",""
"","image-keyboard-response","256","97343","0.0-381.0","37WLF8U1WQC85SAU4XUHHDEBRVH6KP","A3AY0315YWWNXY","3A3KKYU7P33Z3BR9PPFZ5194ZCQMWU","","201.89999997615814","img/land5.png","76","202.5999999642372","3","1","false","3","1,0.5,0.5,0.5,1,0.5,0.5,0.5,1","",""
"","html-keyboard-response","257","97645","0.0-382.0","37WLF8U1WQC85SAU4XUHHDEBRVH6KP","A3AY0315YWWNXY","3A3KKYU7P33Z3BR9PPFZ5194ZCQMWU","","null","<img src=""img/land5.png"" style=""width:200px; border:14px solid green;"">","null","","","","","","","",""
"","image-keyboard-response","258","97737","0.0-384.0","37WLF8U1WQC85SAU4XUHHDEBRVH6KP","A3AY0315YWWNXY","3A3KKYU7P33Z3BR9PPFZ5194ZCQMWU","","91.80000001192093","img/land6.png","76","92.39999997615814","3","0","false","1","1,0.5,0.5,0.5,1,0.5,0.5,0.5,1","",""
"","html-keyboard-response","259","98039","0.0-385.0","37WLF8U1WQC85SAU4XUHHDEBRVH6KP","A3AY0315YWWNXY","3A3KKYU7P33Z3BR9PPFZ5194ZCQMWU","","null","<img src=""img/land6.png"" style=""width:200px;border:14px solid red;"">","null","","","","","","","",""
"","image-keyboard-response","260","98087","0.0-387.0","37WLF8U1WQC85SAU4XUHHDEBRVH6KP","A3AY0315YWWNXY","3A3KKYU7P33Z3BR9PPFZ5194ZCQMWU","","47.30000001192093","img/land6.png","75","48","2","0","false","1","1,0.5,0.5,0.5,1,0.5,0.5,0.5,1","",""
"","html-keyboard-response","261","98389","0.0-388.0","37WLF8U1WQC85SAU4XUHHDEBRVH6KP","A3AY0315YWWNXY","3A3KKYU7P33Z3BR9PPFZ5194ZCQMWU","","null","<img src=""img/land6.png"" style=""width:200px;border:14px solid red;"">","null","","","","","","","",""
"","image-keyboard-response","262","98481","0.0-390.0","37WLF8U1WQC85SAU4XUHHDEBRVH6KP","A3AY0315YWWNXY","3A3KKYU7P33Z3BR9PPFZ5194ZCQMWU","","91.59999996423721","img/land6.png","75","92.40000003576279","2","0","false","1","1,0.5,0.5,0.5,1,0.5,0.5,0.5,1","",""
"","html-keyboard-response","263","98783","0.0-391.0","37WLF8U1WQC85SAU4XUHHDEBRVH6KP","A3AY0315YWWNXY","3A3KKYU7P33Z3BR9PPFZ5194ZCQMWU","","null","<img src=""img/land6.png"" style=""width:200px;border:14px solid red;"">","null","","","","","","","",""
"","image-keyboard-response","264","98815","0.0-393.0","37WLF8U1WQC85SAU4XUHHDEBRVH6KP","A3AY0315YWWNXY","3A3KKYU7P33Z3BR9PPFZ5194ZCQMWU","","31","img/land5.png","74","31.80000001192093","1","1","false","3","1,0.5,0.5,0.5,1,0.5,0.5,0.5,1","",""
"","html-keyboard-response","265","99117","0.0-394.0","37WLF8U1WQC85SAU4XUHHDEBRVH6KP","A3AY0315YWWNXY","3A3KKYU7P33Z3BR9PPFZ5194ZCQMWU","","null","<img src=""img/land5.png"" style=""width:200px; border:14px solid green;"">","null","","","","","","","",""
"","image-keyboard-response","266","99237","0.0-396.0","37WLF8U1WQC85SAU4XUHHDEBRVH6KP","A3AY0315YWWNXY","3A3KKYU7P33Z3BR9PPFZ5194ZCQMWU","","119","img/land5.png","74","120","1","1","false","3","1,0.5,0.5,0.5,1,0.5,0.5,0.5,1","",""
"","html-keyboard-response","267","99543","0.0-397.0","37WLF8U1WQC85SAU4XUHHDEBRVH6KP","A3AY0315YWWNXY","3A3KKYU7P33Z3BR9PPFZ5194ZCQMWU","","null","<img src=""img/land5.png"" style=""width:200px; border:14px solid green;"">","null","","","","","","","",""
"","image-keyboard-response","268","99589","0.0-399.0","37WLF8U1WQC85SAU4XUHHDEBRVH6KP","A3AY0315YWWNXY","3A3KKYU7P33Z3BR9PPFZ5194ZCQMWU","","44.69999998807907","img/land2.png","74","45.39999997615814","1","1","false","2","1,0.5,0.5,0.5,1,0.5,0.5,0.5,1","",""
"","html-keyboard-response","269","99890","0.0-400.0","37WLF8U1WQC85SAU4XUHHDEBRVH6KP","A3AY0315YWWNXY","3A3KKYU7P33Z3BR9PPFZ5194ZCQMWU","","null","<img src=""img/land2.png"" style=""width:200px; border:14px solid green;"">","null","","","","","","","",""
"","image-keyboard-response","270","99983","0.0-402.0","37WLF8U1WQC85SAU4XUHHDEBRVH6KP","A3AY0315YWWNXY","3A3KKYU7P33Z3BR9PPFZ5194ZCQMWU","","92.20000004768372","img/land6.png","75","93","2","0","false","1","1,0.5,0.5,0.5,1,0.5,0.5,0.5,1","",""
"","html-keyboard-response","271","100285","0.0-403.0","37WLF8U1WQC85SAU4XUHHDEBRVH6KP","A3AY0315YWWNXY","3A3KKYU7P33Z3BR9PPFZ5194ZCQMWU","","null","<img src=""img/land6.png"" style=""width:200px;border:14px solid red;"">","null","","","","","","","",""
"","image-keyboard-response","272","100401","0.0-405.0","37WLF8U1WQC85SAU4XUHHDEBRVH6KP","A3AY0315YWWNXY","3A3KKYU7P33Z3BR9PPFZ5194ZCQMWU","","115.30000001192093","img/land2.png","74","115.89999997615814","1","0","false","2","1,0.5,0.5,0.5,1,0.5,0.5,0.5,1","",""
"","html-keyboard-response","273","100703","0.0-406.0","37WLF8U1WQC85SAU4XUHHDEBRVH6KP","A3AY0315YWWNXY","3A3KKYU7P33Z3BR9PPFZ5194ZCQMWU","","null","<img src=""img/land2.png"" style=""width:200px;border:14px solid red;"">","null","","","","","","","",""
"","image-keyboard-response","274","100717","0.0-408.0","37WLF8U1WQC85SAU4XUHHDEBRVH6KP","A3AY0315YWWNXY","3A3KKYU7P33Z3BR9PPFZ5194ZCQMWU","","13.399999976158142","img/land6.png","74","14.199999988079071","1","1","false","1","1,0.5,0.5,0.5,1,0.5,0.5,0.5,1","",""
"","html-keyboard-response","275","101018","0.0-409.0","37WLF8U1WQC85SAU4XUHHDEBRVH6KP","A3AY0315YWWNXY","3A3KKYU7P33Z3BR9PPFZ5194ZCQMWU","","null","<img src=""img/land6.png"" style=""width:200px; border:14px solid green;"">","null","","","","","","","",""
"","image-keyboard-response","276","101399","0.0-411.0","37WLF8U1WQC85SAU4XUHHDEBRVH6KP","A3AY0315YWWNXY","3A3KKYU7P33Z3BR9PPFZ5194ZCQMWU","","379.89999997615814","img/land6.png","75","380.5999999642372","2","1","false","1","1,0.5,0.5,0.5,1,0.5,0.5,0.5,1","",""
"","html-keyboard-response","277","101701","0.0-412.0","37WLF8U1WQC85SAU4XUHHDEBRVH6KP","A3AY0315YWWNXY","3A3KKYU7P33Z3BR9PPFZ5194ZCQMWU","","null","<img src=""img/land6.png"" style=""width:200px; border:14px solid green;"">","null","","","","","","","",""
"","image-keyboard-response","278","102185","0.0-414.0","37WLF8U1WQC85SAU4XUHHDEBRVH6KP","A3AY0315YWWNXY","3A3KKYU7P33Z3BR9PPFZ5194ZCQMWU","","483.7000000476837","img/land6.png","76","484.39999997615814","3","1","false","1","1,0.5,0.5,0.5,1,0.5,0.5,0.5,1","",""
"","html-keyboard-response","279","102487","0.0-415.0","37WLF8U1WQC85SAU4XUHHDEBRVH6KP","A3AY0315YWWNXY","3A3KKYU7P33Z3BR9PPFZ5194ZCQMWU","","null","<img src=""img/land6.png"" style=""width:200px; border:14px solid green;"">","null","","","","","","","",""
"","image-keyboard-response","280","102547","0.0-417.0","37WLF8U1WQC85SAU4XUHHDEBRVH6KP","A3AY0315YWWNXY","3A3KKYU7P33Z3BR9PPFZ5194ZCQMWU","","59.39999997615814","img/land5.png","76","60","3","1","false","3","1,0.5,0.5,0.5,1,0.5,0.5,0.5,1","",""
"","html-keyboard-response","281","102848","0.0-418.0","37WLF8U1WQC85SAU4XUHHDEBRVH6KP","A3AY0315YWWNXY","3A3KKYU7P33Z3BR9PPFZ5194ZCQMWU","","null","<img src=""img/land5.png"" style=""width:200px; border:14px solid green;"">","null","","","","","","","",""
"","image-keyboard-response","282","102933","0.0-420.0","37WLF8U1WQC85SAU4XUHHDEBRVH6KP","A3AY0315YWWNXY","3A3KKYU7P33Z3BR9PPFZ5194ZCQMWU","","83.89999997615814","img/land5.png","76","84.59999996423721","3","1","false","3","1,0.5,0.5,0.5,1,0.5,0.5,0.5,1","",""
"","html-keyboard-response","283","103234","0.0-421.0","37WLF8U1WQC85SAU4XUHHDEBRVH6KP","A3AY0315YWWNXY","3A3KKYU7P33Z3BR9PPFZ5194ZCQMWU","","null","<img src=""img/land5.png"" style=""width:200px; border:14px solid green;"">","null","","","","","","","",""
"","image-keyboard-response","284","103419","0.0-423.0","37WLF8U1WQC85SAU4XUHHDEBRVH6KP","A3AY0315YWWNXY","3A3KKYU7P33Z3BR9PPFZ5194ZCQMWU","","184.30000001192093","img/land5.png","76","185","3","1","false","3","1,0.5,0.5,0.5,1,0.5,0.5,0.5,1","",""
"","html-keyboard-response","285","103721","0.0-424.0","37WLF8U1WQC85SAU4XUHHDEBRVH6KP","A3AY0315YWWNXY","3A3KKYU7P33Z3BR9PPFZ5194ZCQMWU","","null","<img src=""img/land5.png"" style=""width:200px; border:14px solid green;"">","null","","","","","","","",""
"","image-keyboard-response","286","103859","0.0-426.0","37WLF8U1WQC85SAU4XUHHDEBRVH6KP","A3AY0315YWWNXY","3A3KKYU7P33Z3BR9PPFZ5194ZCQMWU","","137.30000001192093","img/land2.png","76","138","3","0","false","2","1,0.5,0.5,0.5,1,0.5,0.5,0.5,1","",""
"","html-keyboard-response","287","104161","0.0-427.0","37WLF8U1WQC85SAU4XUHHDEBRVH6KP","A3AY0315YWWNXY","3A3KKYU7P33Z3BR9PPFZ5194ZCQMWU","","null","<img src=""img/land2.png"" style=""width:200px;border:14px solid red;"">","null","","","","","","","",""
"","image-keyboard-response","288","104225","0.0-429.0","37WLF8U1WQC85SAU4XUHHDEBRVH6KP","A3AY0315YWWNXY","3A3KKYU7P33Z3BR9PPFZ5194ZCQMWU","","63.5","img/land5.png","76","64.19999998807907","3","1","false","3","1,0.5,0.5,0.5,1,0.5,0.5,0.5,1","",""
"","html-keyboard-response","289","104539","0.0-430.0","37WLF8U1WQC85SAU4XUHHDEBRVH6KP","A3AY0315YWWNXY","3A3KKYU7P33Z3BR9PPFZ5194ZCQMWU","","null","<img src=""img/land5.png"" style=""width:200px; border:14px solid green;"">","null","","","","","","","",""
"","image-keyboard-response","290","104805","0.0-432.0","37WLF8U1WQC85SAU4XUHHDEBRVH6KP","A3AY0315YWWNXY","3A3KKYU7P33Z3BR9PPFZ5194ZCQMWU","","265.60000002384186","img/land2.png","75","266.19999998807907","2","1","false","2","1,0.5,0.5,0.5,1,0.5,0.5,0.5,1","",""
"","html-keyboard-response","291","105106","0.0-433.0","37WLF8U1WQC85SAU4XUHHDEBRVH6KP","A3AY0315YWWNXY","3A3KKYU7P33Z3BR9PPFZ5194ZCQMWU","","null","<img src=""img/land2.png"" style=""width:200px; border:14px solid green;"">","null","","","","","","","",""
"","image-keyboard-response","292","105351","0.0-435.0","37WLF8U1WQC85SAU4XUHHDEBRVH6KP","A3AY0315YWWNXY","3A3KKYU7P33Z3BR9PPFZ5194ZCQMWU","","244.19999998807907","img/land2.png","76","245.10000002384186","3","1","false","2","1,0.5,0.5,0.5,1,0.5,0.5,0.5,1","",""
"","html-keyboard-response","293","105653","0.0-436.0","37WLF8U1WQC85SAU4XUHHDEBRVH6KP","A3AY0315YWWNXY","3A3KKYU7P33Z3BR9PPFZ5194ZCQMWU","","null","<img src=""img/land2.png"" style=""width:200px; border:14px solid green;"">","null","","","","","","","",""
"","image-keyboard-response","294","106059","0.0-438.0","37WLF8U1WQC85SAU4XUHHDEBRVH6KP","A3AY0315YWWNXY","3A3KKYU7P33Z3BR9PPFZ5194ZCQMWU","","405.19999998807907","img/land5.png","76","405.69999998807907","3","1","false","3","1,0.5,0.5,0.5,1,0.5,0.5,0.5,1","",""
"","html-keyboard-response","295","106360","0.0-439.0","37WLF8U1WQC85SAU4XUHHDEBRVH6KP","A3AY0315YWWNXY","3A3KKYU7P33Z3BR9PPFZ5194ZCQMWU","","null","<img src=""img/land5.png"" style=""width:200px; border:14px solid green;"">","null","","","","","","","",""
"","image-keyboard-response","296","106387","0.0-441.0","37WLF8U1WQC85SAU4XUHHDEBRVH6KP","A3AY0315YWWNXY","3A3KKYU7P33Z3BR9PPFZ5194ZCQMWU","","26","img/land6.png","76","26.69999998807907","3","0","false","1","1,0.5,0.5,0.5,1,0.5,0.5,0.5,1","",""
"","html-keyboard-response","297","106688","0.0-442.0","37WLF8U1WQC85SAU4XUHHDEBRVH6KP","A3AY0315YWWNXY","3A3KKYU7P33Z3BR9PPFZ5194ZCQMWU","","null","<img src=""img/land6.png"" style=""width:200px;border:14px solid red;"">","null","","","","","","","",""
"","image-keyboard-response","298","106831","0.0-444.0","37WLF8U1WQC85SAU4XUHHDEBRVH6KP","A3AY0315YWWNXY","3A3KKYU7P33Z3BR9PPFZ5194ZCQMWU","","142.19999998807907","img/land6.png","75","142.9000000357628","2","0","false","1","1,0.5,0.5,0.5,1,0.5,0.5,0.5,1","",""
"","html-keyboard-response","299","107133","0.0-445.0","37WLF8U1WQC85SAU4XUHHDEBRVH6KP","A3AY0315YWWNXY","3A3KKYU7P33Z3BR9PPFZ5194ZCQMWU","","null","<img src=""img/land6.png"" style=""width:200px;border:14px solid red;"">","null","","","","","","","",""
"","image-keyboard-response","300","107201","0.0-447.0","37WLF8U1WQC85SAU4XUHHDEBRVH6KP","A3AY0315YWWNXY","3A3KKYU7P33Z3BR9PPFZ5194ZCQMWU","","67.39999997615814","img/land5.png","74","68","1","1","false","3","1,0.5,0.5,0.5,1,0.5,0.5,0.5,1","",""
"","html-keyboard-response","301","107502","0.0-448.0","37WLF8U1WQC85SAU4XUHHDEBRVH6KP","A3AY0315YWWNXY","3A3KKYU7P33Z3BR9PPFZ5194ZCQMWU","","null","<img src=""img/land5.png"" style=""width:200px; border:14px solid green;"">","null","","","","","","","",""
"","image-keyboard-response","302","107613","0.0-450.0","37WLF8U1WQC85SAU4XUHHDEBRVH6KP","A3AY0315YWWNXY","3A3KKYU7P33Z3BR9PPFZ5194ZCQMWU","","110.20000004768372","img/land2.png","75","110.80000001192093","2","1","false","2","1,0.5,0.5,0.5,1,0.5,0.5,0.5,1","",""
"","html-keyboard-response","303","107914","0.0-451.0","37WLF8U1WQC85SAU4XUHHDEBRVH6KP","A3AY0315YWWNXY","3A3KKYU7P33Z3BR9PPFZ5194ZCQMWU","","null","<img src=""img/land2.png"" style=""width:200px; border:14px solid green;"">","null","","","","","","","",""
"","image-keyboard-response","304","107921","0.0-453.0","37WLF8U1WQC85SAU4XUHHDEBRVH6KP","A3AY0315YWWNXY","3A3KKYU7P33Z3BR9PPFZ5194ZCQMWU","","6.5","img/land6.png","75","7.200000047683716","2","1","false","1","1,0.5,0.5,0.5,1,0.5,0.5,0.5,1","",""
"","html-keyboard-response","305","108223","0.0-454.0","37WLF8U1WQC85SAU4XUHHDEBRVH6KP","A3AY0315YWWNXY","3A3KKYU7P33Z3BR9PPFZ5194ZCQMWU","","null","<img src=""img/land6.png"" style=""width:200px; border:14px solid green;"">","null","","","","","","","",""
"","image-keyboard-response","306","108251","0.0-456.0","37WLF8U1WQC85SAU4XUHHDEBRVH6KP","A3AY0315YWWNXY","3A3KKYU7P33Z3BR9PPFZ5194ZCQMWU","","27.5","img/land6.png","75","28.299999952316284","2","1","false","1","1,0.5,0.5,0.5,1,0.5,0.5,0.5,1","",""
"","html-keyboard-response","307","108553","0.0-457.0","37WLF8U1WQC85SAU4XUHHDEBRVH6KP","A3AY0315YWWNXY","3A3KKYU7P33Z3BR9PPFZ5194ZCQMWU","","null","<img src=""img/land6.png"" style=""width:200px; border:14px solid green;"">","null","","","","","","","",""
"","image-keyboard-response","308","108554","0.0-459.0","37WLF8U1WQC85SAU4XUHHDEBRVH6KP","A3AY0315YWWNXY","3A3KKYU7P33Z3BR9PPFZ5194ZCQMWU","","0.5","img/land2.png","75","1.4000000357627869","2","1","false","2","1,0.5,0.5,0.5,1,0.5,0.5,0.5,1","",""
"","html-keyboard-response","309","108855","0.0-460.0","37WLF8U1WQC85SAU4XUHHDEBRVH6KP","A3AY0315YWWNXY","3A3KKYU7P33Z3BR9PPFZ5194ZCQMWU","","null","<img src=""img/land2.png"" style=""width:200px; border:14px solid green;"">","null","","","","","","","",""
"","image-keyboard-response","310","109131","0.0-462.0","37WLF8U1WQC85SAU4XUHHDEBRVH6KP","A3AY0315YWWNXY","3A3KKYU7P33Z3BR9PPFZ5194ZCQMWU","","274.9000000357628","img/land2.png","75","275.5","2","1","false","2","1,0.5,0.5,0.5,1,0.5,0.5,0.5,1","",""
"","html-keyboard-response","311","109433","0.0-463.0","37WLF8U1WQC85SAU4XUHHDEBRVH6KP","A3AY0315YWWNXY","3A3KKYU7P33Z3BR9PPFZ5194ZCQMWU","","null","<img src=""img/land2.png"" style=""width:200px; border:14px solid green;"">","null","","","","","","","",""
"","image-keyboard-response","312","109671","0.0-465.0","37WLF8U1WQC85SAU4XUHHDEBRVH6KP","A3AY0315YWWNXY","3A3KKYU7P33Z3BR9PPFZ5194ZCQMWU","","237.39999997615814","img/land5.png","75","238.10000002384186","2","1","false","3","1,0.5,0.5,0.5,1,0.5,0.5,0.5,1","",""
"","html-keyboard-response","313","109973","0.0-466.0","37WLF8U1WQC85SAU4XUHHDEBRVH6KP","A3AY0315YWWNXY","3A3KKYU7P33Z3BR9PPFZ5194ZCQMWU","","null","<img src=""img/land5.png"" style=""width:200px; border:14px solid green;"">","null","","","","","","","",""
"","image-keyboard-response","314","110207","0.0-468.0","37WLF8U1WQC85SAU4XUHHDEBRVH6KP","A3AY0315YWWNXY","3A3KKYU7P33Z3BR9PPFZ5194ZCQMWU","","233.5","img/land5.png","75","234","2","0","false","3","1,0.5,0.5,0.5,1,0.5,0.5,0.5,1","",""
"","html-keyboard-response","315","110508","0.0-469.0","37WLF8U1WQC85SAU4XUHHDEBRVH6KP","A3AY0315YWWNXY","3A3KKYU7P33Z3BR9PPFZ5194ZCQMWU","","null","<img src=""img/land5.png"" style=""width:200px;border:14px solid red;"">","null","","","","","","","",""
"","image-keyboard-response","316","110639","0.0-471.0","37WLF8U1WQC85SAU4XUHHDEBRVH6KP","A3AY0315YWWNXY","3A3KKYU7P33Z3BR9PPFZ5194ZCQMWU","","129.89999997615814","img/land5.png","76","130.5","3","1","false","3","1,0.5,0.5,0.5,1,0.5,0.5,0.5,1","",""
"","html-keyboard-response","317","110941","0.0-472.0","37WLF8U1WQC85SAU4XUHHDEBRVH6KP","A3AY0315YWWNXY","3A3KKYU7P33Z3BR9PPFZ5194ZCQMWU","","null","<img src=""img/land5.png"" style=""width:200px; border:14px solid green;"">","null","","","","","","","",""
"","image-keyboard-response","318","111071","0.0-474.0","37WLF8U1WQC85SAU4XUHHDEBRVH6KP","A3AY0315YWWNXY","3A3KKYU7P33Z3BR9PPFZ5194ZCQMWU","","129.60000002384186","img/land5.png","76","130.30000001192093","3","1","false","3","1,0.5,0.5,0.5,1,0.5,0.5,0.5,1","",""
"","html-keyboard-response","319","111372","0.0-475.0","37WLF8U1WQC85SAU4XUHHDEBRVH6KP","A3AY0315YWWNXY","3A3KKYU7P33Z3BR9PPFZ5194ZCQMWU","","null","<img src=""img/land5.png"" style=""width:200px; border:14px solid green;"">","null","","","","","","","",""
"","image-keyboard-response","320","111421","0.0-477.0","37WLF8U1WQC85SAU4XUHHDEBRVH6KP","A3AY0315YWWNXY","3A3KKYU7P33Z3BR9PPFZ5194ZCQMWU","","48.19999998807907","img/land2.png","76","48.90000003576279","3","0","false","2","1,0.5,0.5,0.5,1,0.5,0.5,0.5,1","",""
"","html-keyboard-response","321","111723","0.0-478.0","37WLF8U1WQC85SAU4XUHHDEBRVH6KP","A3AY0315YWWNXY","3A3KKYU7P33Z3BR9PPFZ5194ZCQMWU","","null","<img src=""img/land2.png"" style=""width:200px;border:14px solid red;"">","null","","","","","","","",""
"","image-keyboard-response","322","112153","0.0-480.0","37WLF8U1WQC85SAU4XUHHDEBRVH6KP","A3AY0315YWWNXY","3A3KKYU7P33Z3BR9PPFZ5194ZCQMWU","","429.69999998807907","img/land5.png","75","430.2999999523163","2","1","false","3","1,0.5,0.5,0.5,1,0.5,0.5,0.5,1","",""
"","html-keyboard-response","323","112455","0.0-481.0","37WLF8U1WQC85SAU4XUHHDEBRVH6KP","A3AY0315YWWNXY","3A3KKYU7P33Z3BR9PPFZ5194ZCQMWU","","null","<img src=""img/land5.png"" style=""width:200px; border:14px solid green;"">","null","","","","","","","",""
"","image-keyboard-response","324","112589","0.0-483.0","37WLF8U1WQC85SAU4XUHHDEBRVH6KP","A3AY0315YWWNXY","3A3KKYU7P33Z3BR9PPFZ5194ZCQMWU","","133.4000000357628","img/land6.png","75","134","2","1","false","1","1,0.5,0.5,0.5,1,0.5,0.5,0.5,1","",""
"","html-keyboard-response","325","112891","0.0-484.0","37WLF8U1WQC85SAU4XUHHDEBRVH6KP","A3AY0315YWWNXY","3A3KKYU7P33Z3BR9PPFZ5194ZCQMWU","","null","<img src=""img/land6.png"" style=""width:200px; border:14px solid green;"">","null","","","","","","","",""
"","image-keyboard-response","326","112927","0.0-486.0","37WLF8U1WQC85SAU4XUHHDEBRVH6KP","A3AY0315YWWNXY","3A3KKYU7P33Z3BR9PPFZ5194ZCQMWU","","35.60000002384186","img/land2.png","75","36.19999998807907","2","1","false","2","1,0.5,0.5,0.5,1,0.5,0.5,0.5,1","",""
"","html-keyboard-response","327","113228","0.0-487.0","37WLF8U1WQC85SAU4XUHHDEBRVH6KP","A3AY0315YWWNXY","3A3KKYU7P33Z3BR9PPFZ5194ZCQMWU","","null","<img src=""img/land2.png"" style=""width:200px; border:14px solid green;"">","null","","","","","","","",""
"","image-keyboard-response","328","113333","0.0-489.0","37WLF8U1WQC85SAU4XUHHDEBRVH6KP","A3AY0315YWWNXY","3A3KKYU7P33Z3BR9PPFZ5194ZCQMWU","","104.10000002384186","img/land5.png","75","104.90000003576279","2","0","false","3","1,0.5,0.5,0.5,1,0.5,0.5,0.5,1","",""
"","html-keyboard-response","329","113634","0.0-490.0","37WLF8U1WQC85SAU4XUHHDEBRVH6KP","A3AY0315YWWNXY","3A3KKYU7P33Z3BR9PPFZ5194ZCQMWU","","null","<img src=""img/land5.png"" style=""width:200px;border:14px solid red;"">","null","","","","","","","",""
"","image-keyboard-response","330","113701","0.0-492.0","37WLF8U1WQC85SAU4XUHHDEBRVH6KP","A3AY0315YWWNXY","3A3KKYU7P33Z3BR9PPFZ5194ZCQMWU","","65.80000001192093","img/land6.png","74","66.39999997615814","1","1","false","1","1,0.5,0.5,0.5,1,0.5,0.5,0.5,1","",""
"","html-keyboard-response","331","114003","0.0-493.0","37WLF8U1WQC85SAU4XUHHDEBRVH6KP","A3AY0315YWWNXY","3A3KKYU7P33Z3BR9PPFZ5194ZCQMWU","","null","<img src=""img/land6.png"" style=""width:200px; border:14px solid green;"">","null","","","","","","","",""
"","image-keyboard-response","332","114051","0.0-495.0","37WLF8U1WQC85SAU4XUHHDEBRVH6KP","A3AY0315YWWNXY","3A3KKYU7P33Z3BR9PPFZ5194ZCQMWU","","47.5","img/land2.png","74","48.39999997615814","1","0","false","2","1,0.5,0.5,0.5,1,0.5,0.5,0.5,1","",""
"","html-keyboard-response","333","114353","0.0-496.0","37WLF8U1WQC85SAU4XUHHDEBRVH6KP","A3AY0315YWWNXY","3A3KKYU7P33Z3BR9PPFZ5194ZCQMWU","","null","<img src=""img/land2.png"" style=""width:200px;border:14px solid red;"">","null","","","","","","","",""
"","image-keyboard-response","334","114529","0.0-498.0","37WLF8U1WQC85SAU4XUHHDEBRVH6KP","A3AY0315YWWNXY","3A3KKYU7P33Z3BR9PPFZ5194ZCQMWU","","175","img/land6.png","75","175.80000001192093","2","1","false","1","1,0.5,0.5,0.5,1,0.5,0.5,0.5,1","",""
"","html-keyboard-response","335","114830","0.0-499.0","37WLF8U1WQC85SAU4XUHHDEBRVH6KP","A3AY0315YWWNXY","3A3KKYU7P33Z3BR9PPFZ5194ZCQMWU","","null","<img src=""img/land6.png"" style=""width:200px; border:14px solid green;"">","null","","","","","","","",""
"","image-keyboard-response","336","114863","0.0-501.0","37WLF8U1WQC85SAU4XUHHDEBRVH6KP","A3AY0315YWWNXY","3A3KKYU7P33Z3BR9PPFZ5194ZCQMWU","","32.19999998807907","img/land5.png","76","32.89999997615814","3","1","false","3","1,0.5,0.5,0.5,1,0.5,0.5,0.5,1","",""
"","html-keyboard-response","337","115165","0.0-502.0","37WLF8U1WQC85SAU4XUHHDEBRVH6KP","A3AY0315YWWNXY","3A3KKYU7P33Z3BR9PPFZ5194ZCQMWU","","null","<img src=""img/land5.png"" style=""width:200px; border:14px solid green;"">","null","","","","","","","",""
"","image-keyboard-response","338","115197","0.0-504.0","37WLF8U1WQC85SAU4XUHHDEBRVH6KP","A3AY0315YWWNXY","3A3KKYU7P33Z3BR9PPFZ5194ZCQMWU","","31.5","img/land5.png","76","32.19999998807907","3","1","false","3","1,0.5,0.5,0.5,1,0.5,0.5,0.5,1","",""
"","html-keyboard-response","339","115498","0.0-505.0","37WLF8U1WQC85SAU4XUHHDEBRVH6KP","A3AY0315YWWNXY","3A3KKYU7P33Z3BR9PPFZ5194ZCQMWU","","null","<img src=""img/land5.png"" style=""width:200px; border:14px solid green;"">","null","","","","","","","",""
"","image-keyboard-response","340","115579","0.0-507.0","37WLF8U1WQC85SAU4XUHHDEBRVH6KP","A3AY0315YWWNXY","3A3KKYU7P33Z3BR9PPFZ5194ZCQMWU","","79.60000002384186","img/land6.png","76","80.19999998807907","3","0","false","1","1,0.5,0.5,0.5,1,0.5,0.5,0.5,1","",""
"","html-keyboard-response","341","115879","0.0-508.0","37WLF8U1WQC85SAU4XUHHDEBRVH6KP","A3AY0315YWWNXY","3A3KKYU7P33Z3BR9PPFZ5194ZCQMWU","","null","<img src=""img/land6.png"" style=""width:200px;border:14px solid red;"">","null","","","","","","","",""
"","image-keyboard-response","342","115955","0.0-510.0","37WLF8U1WQC85SAU4XUHHDEBRVH6KP","A3AY0315YWWNXY","3A3KKYU7P33Z3BR9PPFZ5194ZCQMWU","","75","img/land6.png","76","75.60000002384186","3","0","false","1","1,0.5,0.5,0.5,1,0.5,0.5,0.5,1","",""
"","html-keyboard-response","343","116257","0.0-511.0","37WLF8U1WQC85SAU4XUHHDEBRVH6KP","A3AY0315YWWNXY","3A3KKYU7P33Z3BR9PPFZ5194ZCQMWU","","null","<img src=""img/land6.png"" style=""width:200px;border:14px solid red;"">","null","","","","","","","",""
"","image-keyboard-response","344","116435","0.0-513.0","37WLF8U1WQC85SAU4XUHHDEBRVH6KP","A3AY0315YWWNXY","3A3KKYU7P33Z3BR9PPFZ5194ZCQMWU","","177.60000002384186","img/land5.png","75","178.30000001192093","2","1","false","3","1,0.5,0.5,0.5,1,0.5,0.5,0.5,1","",""
"","html-keyboard-response","345","116736","0.0-514.0","37WLF8U1WQC85SAU4XUHHDEBRVH6KP","A3AY0315YWWNXY","3A3KKYU7P33Z3BR9PPFZ5194ZCQMWU","","null","<img src=""img/land5.png"" style=""width:200px; border:14px solid green;"">","null","","","","","","","",""
"","image-keyboard-response","346","117037","0.0-516.0","37WLF8U1WQC85SAU4XUHHDEBRVH6KP","A3AY0315YWWNXY","3A3KKYU7P33Z3BR9PPFZ5194ZCQMWU","","300.19999998807907","img/land6.png","75","300.80000001192093","2","1","false","1","1,0.5,0.5,0.5,1,0.5,0.5,0.5,1","",""
"","html-keyboard-response","347","117338","0.0-517.0","37WLF8U1WQC85SAU4XUHHDEBRVH6KP","A3AY0315YWWNXY","3A3KKYU7P33Z3BR9PPFZ5194ZCQMWU","","null","<img src=""img/land6.png"" style=""width:200px; border:14px solid green;"">","null","","","","","","","",""
"","image-keyboard-response","348","117407","0.0-519.0","37WLF8U1WQC85SAU4XUHHDEBRVH6KP","A3AY0315YWWNXY","3A3KKYU7P33Z3BR9PPFZ5194ZCQMWU","","68.10000002384186","img/land6.png","75","68.80000001192093","2","0","false","1","1,0.5,0.5,0.5,1,0.5,0.5,0.5,1","",""
"","html-keyboard-response","349","117709","0.0-520.0","37WLF8U1WQC85SAU4XUHHDEBRVH6KP","A3AY0315YWWNXY","3A3KKYU7P33Z3BR9PPFZ5194ZCQMWU","","null","<img src=""img/land6.png"" style=""width:200px;border:14px solid red;"">","null","","","","","","","",""
"","image-keyboard-response","350","117975","0.0-522.0","37WLF8U1WQC85SAU4XUHHDEBRVH6KP","A3AY0315YWWNXY","3A3KKYU7P33Z3BR9PPFZ5194ZCQMWU","","265.5","img/land2.png","76","266.19999998807907","3","1","false","2","1,0.5,0.5,0.5,1,0.5,0.5,0.5,1","",""
"","html-keyboard-response","351","118277","0.0-523.0","37WLF8U1WQC85SAU4XUHHDEBRVH6KP","A3AY0315YWWNXY","3A3KKYU7P33Z3BR9PPFZ5194ZCQMWU","","null","<img src=""img/land2.png"" style=""width:200px; border:14px solid green;"">","null","","","","","","","",""
"","image-keyboard-response","352","118443","0.0-525.0","37WLF8U1WQC85SAU4XUHHDEBRVH6KP","A3AY0315YWWNXY","3A3KKYU7P33Z3BR9PPFZ5194ZCQMWU","","165.39999997615814","img/land2.png","75","166.10000002384186","2","1","false","2","1,0.5,0.5,0.5,1,0.5,0.5,0.5,1","",""
"","html-keyboard-response","353","118744","0.0-526.0","37WLF8U1WQC85SAU4XUHHDEBRVH6KP","A3AY0315YWWNXY","3A3KKYU7P33Z3BR9PPFZ5194ZCQMWU","","null","<img src=""img/land2.png"" style=""width:200px; border:14px solid green;"">","null","","","","","","","",""
"","image-keyboard-response","354","118863","0.0-528.0","37WLF8U1WQC85SAU4XUHHDEBRVH6KP","A3AY0315YWWNXY","3A3KKYU7P33Z3BR9PPFZ5194ZCQMWU","","118.39999997615814","img/land2.png","74","119.10000002384186","1","0","false","2","1,0.5,0.5,0.5,1,0.5,0.5,0.5,1","",""
"","html-keyboard-response","355","119165","0.0-529.0","37WLF8U1WQC85SAU4XUHHDEBRVH6KP","A3AY0315YWWNXY","3A3KKYU7P33Z3BR9PPFZ5194ZCQMWU","","null","<img src=""img/land2.png"" style=""width:200px;border:14px solid red;"">","null","","","","","","","",""
"","image-keyboard-response","356","119255","0.0-531.0","37WLF8U1WQC85SAU4XUHHDEBRVH6KP","A3AY0315YWWNXY","3A3KKYU7P33Z3BR9PPFZ5194ZCQMWU","","89.60000002384186","img/land6.png","76","90.29999995231628","3","1","false","1","1,0.5,0.5,0.5,1,0.5,0.5,0.5,1","",""
"","html-keyboard-response","357","119556","0.0-532.0","37WLF8U1WQC85SAU4XUHHDEBRVH6KP","A3AY0315YWWNXY","3A3KKYU7P33Z3BR9PPFZ5194ZCQMWU","","null","<img src=""img/land6.png"" style=""width:200px; border:14px solid green;"">","null","","","","","","","",""
"","image-keyboard-response","358","119665","0.0-534.0","37WLF8U1WQC85SAU4XUHHDEBRVH6KP","A3AY0315YWWNXY","3A3KKYU7P33Z3BR9PPFZ5194ZCQMWU","","108.10000002384186","img/land2.png","76","108.80000001192093","3","0","false","2","1,0.5,0.5,0.5,1,0.5,0.5,0.5,1","",""
"","html-keyboard-response","359","119967","0.0-535.0","37WLF8U1WQC85SAU4XUHHDEBRVH6KP","A3AY0315YWWNXY","3A3KKYU7P33Z3BR9PPFZ5194ZCQMWU","","null","<img src=""img/land2.png"" style=""width:200px;border:14px solid red;"">","null","","","","","","","",""
"","image-keyboard-response","360","120129","0.0-537.0","37WLF8U1WQC85SAU4XUHHDEBRVH6KP","A3AY0315YWWNXY","3A3KKYU7P33Z3BR9PPFZ5194ZCQMWU","","161.80000001192093","img/land6.png","75","162.60000002384186","2","0","false","1","1,0.5,0.5,0.5,1,0.5,0.5,0.5,1","",""
"","html-keyboard-response","361","120431","0.0-538.0","37WLF8U1WQC85SAU4XUHHDEBRVH6KP","A3AY0315YWWNXY","3A3KKYU7P33Z3BR9PPFZ5194ZCQMWU","","null","<img src=""img/land6.png"" style=""width:200px;border:14px solid red;"">","null","","","","","","","",""
"","image-keyboard-response","362","120507","0.0-540.0","37WLF8U1WQC85SAU4XUHHDEBRVH6KP","A3AY0315YWWNXY","3A3KKYU7P33Z3BR9PPFZ5194ZCQMWU","","75.39999997615814","img/land2.png","75","76.10000002384186","2","1","false","2","1,0.5,0.5,0.5,1,0.5,0.5,0.5,1","",""
"","html-keyboard-response","363","120808","0.0-541.0","37WLF8U1WQC85SAU4XUHHDEBRVH6KP","A3AY0315YWWNXY","3A3KKYU7P33Z3BR9PPFZ5194ZCQMWU","","null","<img src=""img/land2.png"" style=""width:200px; border:14px solid green;"">","null","","","","","","","",""
"","instructions","364","122396","0.0-543.0","37WLF8U1WQC85SAU4XUHHDEBRVH6KP","A3AY0315YWWNXY","3A3KKYU7P33Z3BR9PPFZ5194ZCQMWU","[{""page_index"":0,""viewing_time"":1587.1000000238419}]","1587.300000011921","","","","","","","","","",""
"","survey-text","365","127808","0.0-544.0-0.0","37WLF8U1WQC85SAU4XUHHDEBRVH6KP","A3AY0315YWWNXY","3A3KKYU7P33Z3BR9PPFZ5194ZCQMWU","","5410.299999952316","","","","","","","","","{""Q0"":""29""}",""
"","survey-multi-choice","366","131445","0.0-544.0-1.0","37WLF8U1WQC85SAU4XUHHDEBRVH6KP","A3AY0315YWWNXY","3A3KKYU7P33Z3BR9PPFZ5194ZCQMWU","","3635.300000011921","","","","","","","","","{""gender"":""M""}","[0]"
"","survey-text","367","136881","0.0-545.0","37WLF8U1WQC85SAU4XUHHDEBRVH6KP","A3AY0315YWWNXY","3A3KKYU7P33Z3BR9PPFZ5194ZCQMWU","","5434.699999988079","","","","","","","","","{""Q0"":""A3AY0315YWWNXY""}",""
