"success","trial_type","trial_index","time_elapsed","internal_node_id","assignmentID","mturkID","hitID","view_history","rt","stimulus","key_press","reactionTime","a","r","warning","s","reward_cond","responses","question_order"
"true","fullscreen","0","4024","0.0-0.0","31HQ4X3T3TWOCWQ9WA9LXINIYKILSS","A3CCFD0700KTPV","3A3KKYU7P33Z3BR9PPFZ5194ZCQMWU","","","","","","","","","","","",""
"","instructions","1","51482","0.0-1.0","31HQ4X3T3TWOCWQ9WA9LXINIYKILSS","A3CCFD0700KTPV","3A3KKYU7P33Z3BR9PPFZ5194ZCQMWU","[{""page_index"":0,""viewing_time"":17588.100000000093},{""page_index"":1,""viewing_time"":7920.09999999986},{""page_index"":2,""viewing_time"":1280.9000000001397},{""page_index"":3,""viewing_time"":947.8999999999069},{""page_index"":4,""viewing_time"":11434.300000000047},{""page_index"":5,""viewing_time"":3879.5},{""page_index"":6,""viewing_time"":1629.3000000000466},{""page_index"":7,""viewing_time"":2773.399999999907}]","47454.5","","","","","","","","","",""
"","image-keyboard-response","2","52485","0.0-2.0","31HQ4X3T3TWOCWQ9WA9LXINIYKILSS","A3CCFD0700KTPV","3A3KKYU7P33Z3BR9PPFZ5194ZCQMWU","","","img/land2.png","","1003.1999999999534","-1","0","true","3","1,0.5,0.5,0.5,1,0.5,0.5,0.5,1","",""
"","html-keyboard-response","3","52788","0.0-3.0","31HQ4X3T3TWOCWQ9WA9LXINIYKILSS","A3CCFD0700KTPV","3A3KKYU7P33Z3BR9PPFZ5194ZCQMWU","","null","<img src=""img/land2.png"" style=""width:200px;border:14px solid red;"">","null","","","","","","","",""
"","html-keyboard-response","4","62307","0.0-4.0-0.0","31HQ4X3T3TWOCWQ9WA9LXINIYKILSS","A3CCFD0700KTPV","3A3KKYU7P33Z3BR9PPFZ5194ZCQMWU","","","","","","","","","","","",""
"","image-keyboard-response","5","62741","0.0-5.0","31HQ4X3T3TWOCWQ9WA9LXINIYKILSS","A3CCFD0700KTPV","3A3KKYU7P33Z3BR9PPFZ5194ZCQMWU","","432.19999999995343","img/land5.png","74","433.69999999995343","1","0","false","2","1,0.5,0.5,0.5,1,0.5,0.5,0.5,1","",""
"","html-keyboard-response","6","63044","0.0-6.0","31HQ4X3T3TWOCWQ9WA9LXINIYKILSS","A3CCFD0700KTPV","3A3KKYU7P33Z3BR9PPFZ5194ZCQMWU","","null","<img src=""img/land5.png"" style=""width:200px;border:14px solid red;"">","null","","","","","","","",""
"","image-keyboard-response","7","63340","0.0-8.0","31HQ4X3T3TWOCWQ9WA9LXINIYKILSS","A3CCFD0700KTPV","3A3KKYU7P33Z3BR9PPFZ5194ZCQMWU","","293.39999999990687","img/land4.png","74","295.0999999998603","1","1","false","1","1,0.5,0.5,0.5,1,0.5,0.5,0.5,1","",""
"","html-keyboard-response","8","63657","0.0-9.0","31HQ4X3T3TWOCWQ9WA9LXINIYKILSS","A3CCFD0700KTPV","3A3KKYU7P33Z3BR9PPFZ5194ZCQMWU","","null","<img src=""img/land4.png"" style=""width:200px; border:14px solid green;"">","null","","","","","","","",""
"","image-keyboard-response","9","63995","0.0-11.0","31HQ4X3T3TWOCWQ9WA9LXINIYKILSS","A3CCFD0700KTPV","3A3KKYU7P33Z3BR9PPFZ5194ZCQMWU","","336.5","img/land2.png","74","337.9000000001397","1","1","false","3","1,0.5,0.5,0.5,1,0.5,0.5,0.5,1","",""
"","html-keyboard-response","10","64298","0.0-12.0","31HQ4X3T3TWOCWQ9WA9LXINIYKILSS","A3CCFD0700KTPV","3A3KKYU7P33Z3BR9PPFZ5194ZCQMWU","","null","<img src=""img/land2.png"" style=""width:200px; border:14px solid green;"">","null","","","","","","","",""
"","image-keyboard-response","11","64668","0.0-14.0","31HQ4X3T3TWOCWQ9WA9LXINIYKILSS","A3CCFD0700KTPV","3A3KKYU7P33Z3BR9PPFZ5194ZCQMWU","","368.10000000009313","img/land4.png","75","369.80000000004657","2","0","false","1","1,0.5,0.5,0.5,1,0.5,0.5,0.5,1","",""
"","html-keyboard-response","12","64972","0.0-15.0","31HQ4X3T3TWOCWQ9WA9LXINIYKILSS","A3CCFD0700KTPV","3A3KKYU7P33Z3BR9PPFZ5194ZCQMWU","","null","<img src=""img/land4.png"" style=""width:200px;border:14px solid red;"">","null","","","","","","","",""
"","image-keyboard-response","13","65452","0.0-17.0","31HQ4X3T3TWOCWQ9WA9LXINIYKILSS","A3CCFD0700KTPV","3A3KKYU7P33Z3BR9PPFZ5194ZCQMWU","","478.19999999995343","img/land5.png","74","479.69999999995343","1","1","false","2","1,0.5,0.5,0.5,1,0.5,0.5,0.5,1","",""
"","html-keyboard-response","14","65755","0.0-18.0","31HQ4X3T3TWOCWQ9WA9LXINIYKILSS","A3CCFD0700KTPV","3A3KKYU7P33Z3BR9PPFZ5194ZCQMWU","","null","<img src=""img/land5.png"" style=""width:200px; border:14px solid green;"">","null","","","","","","","",""
"","image-keyboard-response","15","66131","0.0-20.0","31HQ4X3T3TWOCWQ9WA9LXINIYKILSS","A3CCFD0700KTPV","3A3KKYU7P33Z3BR9PPFZ5194ZCQMWU","","374.69999999995343","img/land5.png","74","375.89999999990687","1","1","false","2","1,0.5,0.5,0.5,1,0.5,0.5,0.5,1","",""
"","html-keyboard-response","16","66433","0.0-21.0","31HQ4X3T3TWOCWQ9WA9LXINIYKILSS","A3CCFD0700KTPV","3A3KKYU7P33Z3BR9PPFZ5194ZCQMWU","","null","<img src=""img/land5.png"" style=""width:200px; border:14px solid green;"">","null","","","","","","","",""
"","image-keyboard-response","17","66811","0.0-23.0","31HQ4X3T3TWOCWQ9WA9LXINIYKILSS","A3CCFD0700KTPV","3A3KKYU7P33Z3BR9PPFZ5194ZCQMWU","","375.89999999990687","img/land4.png","74","377.30000000004657","1","1","false","1","1,0.5,0.5,0.5,1,0.5,0.5,0.5,1","",""
"","html-keyboard-response","18","67113","0.0-24.0","31HQ4X3T3TWOCWQ9WA9LXINIYKILSS","A3CCFD0700KTPV","3A3KKYU7P33Z3BR9PPFZ5194ZCQMWU","","null","<img src=""img/land4.png"" style=""width:200px; border:14px solid green;"">","null","","","","","","","",""
"","image-keyboard-response","19","67436","0.0-26.0","31HQ4X3T3TWOCWQ9WA9LXINIYKILSS","A3CCFD0700KTPV","3A3KKYU7P33Z3BR9PPFZ5194ZCQMWU","","320.4000000001397","img/land2.png","74","321.9000000001397","1","0","false","3","1,0.5,0.5,0.5,1,0.5,0.5,0.5,1","",""
"","html-keyboard-response","20","67739","0.0-27.0","31HQ4X3T3TWOCWQ9WA9LXINIYKILSS","A3CCFD0700KTPV","3A3KKYU7P33Z3BR9PPFZ5194ZCQMWU","","null","<img src=""img/land2.png"" style=""width:200px;border:14px solid red;"">","null","","","","","","","",""
"","image-keyboard-response","21","68060","0.0-29.0","31HQ4X3T3TWOCWQ9WA9LXINIYKILSS","A3CCFD0700KTPV","3A3KKYU7P33Z3BR9PPFZ5194ZCQMWU","","319.5999999998603","img/land4.png","76","320.5999999998603","3","0","false","1","1,0.5,0.5,0.5,1,0.5,0.5,0.5,1","",""
"","html-keyboard-response","22","68363","0.0-30.0","31HQ4X3T3TWOCWQ9WA9LXINIYKILSS","A3CCFD0700KTPV","3A3KKYU7P33Z3BR9PPFZ5194ZCQMWU","","null","<img src=""img/land4.png"" style=""width:200px;border:14px solid red;"">","null","","","","","","","",""
"","image-keyboard-response","23","68700","0.0-32.0","31HQ4X3T3TWOCWQ9WA9LXINIYKILSS","A3CCFD0700KTPV","3A3KKYU7P33Z3BR9PPFZ5194ZCQMWU","","335.5999999998603","img/land5.png","74","337","1","1","false","2","1,0.5,0.5,0.5,1,0.5,0.5,0.5,1","",""
"","html-keyboard-response","24","69003","0.0-33.0","31HQ4X3T3TWOCWQ9WA9LXINIYKILSS","A3CCFD0700KTPV","3A3KKYU7P33Z3BR9PPFZ5194ZCQMWU","","null","<img src=""img/land5.png"" style=""width:200px; border:14px solid green;"">","null","","","","","","","",""
"","image-keyboard-response","25","69363","0.0-35.0","31HQ4X3T3TWOCWQ9WA9LXINIYKILSS","A3CCFD0700KTPV","3A3KKYU7P33Z3BR9PPFZ5194ZCQMWU","","358.89999999990687","img/land4.png","74","360.10000000009313","1","1","false","1","1,0.5,0.5,0.5,1,0.5,0.5,0.5,1","",""
"","html-keyboard-response","26","69666","0.0-36.0","31HQ4X3T3TWOCWQ9WA9LXINIYKILSS","A3CCFD0700KTPV","3A3KKYU7P33Z3BR9PPFZ5194ZCQMWU","","null","<img src=""img/land4.png"" style=""width:200px; border:14px solid green;"">","null","","","","","","","",""
"","image-keyboard-response","27","69995","0.0-38.0","31HQ4X3T3TWOCWQ9WA9LXINIYKILSS","A3CCFD0700KTPV","3A3KKYU7P33Z3BR9PPFZ5194ZCQMWU","","327.20000000018626","img/land5.png","74","328.5","1","1","false","2","1,0.5,0.5,0.5,1,0.5,0.5,0.5,1","",""
"","html-keyboard-response","28","70297","0.0-39.0","31HQ4X3T3TWOCWQ9WA9LXINIYKILSS","A3CCFD0700KTPV","3A3KKYU7P33Z3BR9PPFZ5194ZCQMWU","","null","<img src=""img/land5.png"" style=""width:200px; border:14px solid green;"">","null","","","","","","","",""
"","image-keyboard-response","29","70812","0.0-41.0","31HQ4X3T3TWOCWQ9WA9LXINIYKILSS","A3CCFD0700KTPV","3A3KKYU7P33Z3BR9PPFZ5194ZCQMWU","","512.9000000001397","img/land2.png","74","514.5","1","0","false","3","1,0.5,0.5,0.5,1,0.5,0.5,0.5,1","",""
"","html-keyboard-response","30","71116","0.0-42.0","31HQ4X3T3TWOCWQ9WA9LXINIYKILSS","A3CCFD0700KTPV","3A3KKYU7P33Z3BR9PPFZ5194ZCQMWU","","null","<img src=""img/land2.png"" style=""width:200px;border:14px solid red;"">","null","","","","","","","",""
"","image-keyboard-response","31","71412","0.0-44.0","31HQ4X3T3TWOCWQ9WA9LXINIYKILSS","A3CCFD0700KTPV","3A3KKYU7P33Z3BR9PPFZ5194ZCQMWU","","294.69999999995343","img/land5.png","76","296.0999999998603","3","0","false","2","1,0.5,0.5,0.5,1,0.5,0.5,0.5,1","",""
"","html-keyboard-response","32","71715","0.0-45.0","31HQ4X3T3TWOCWQ9WA9LXINIYKILSS","A3CCFD0700KTPV","3A3KKYU7P33Z3BR9PPFZ5194ZCQMWU","","null","<img src=""img/land5.png"" style=""width:200px;border:14px solid red;"">","null","","","","","","","",""
"","image-keyboard-response","33","72084","0.0-47.0","31HQ4X3T3TWOCWQ9WA9LXINIYKILSS","A3CCFD0700KTPV","3A3KKYU7P33Z3BR9PPFZ5194ZCQMWU","","366.5999999998603","img/land4.png","74","368.4000000001397","1","1","false","1","1,0.5,0.5,0.5,1,0.5,0.5,0.5,1","",""
"","html-keyboard-response","34","72386","0.0-48.0","31HQ4X3T3TWOCWQ9WA9LXINIYKILSS","A3CCFD0700KTPV","3A3KKYU7P33Z3BR9PPFZ5194ZCQMWU","","null","<img src=""img/land4.png"" style=""width:200px; border:14px solid green;"">","null","","","","","","","",""
"","image-keyboard-response","35","72684","0.0-50.0","31HQ4X3T3TWOCWQ9WA9LXINIYKILSS","A3CCFD0700KTPV","3A3KKYU7P33Z3BR9PPFZ5194ZCQMWU","","296.19999999995343","img/land2.png","74","297.69999999995343","1","0","false","3","1,0.5,0.5,0.5,1,0.5,0.5,0.5,1","",""
"","html-keyboard-response","36","72986","0.0-51.0","31HQ4X3T3TWOCWQ9WA9LXINIYKILSS","A3CCFD0700KTPV","3A3KKYU7P33Z3BR9PPFZ5194ZCQMWU","","null","<img src=""img/land2.png"" style=""width:200px;border:14px solid red;"">","null","","","","","","","",""
"","image-keyboard-response","37","73364","0.0-53.0","31HQ4X3T3TWOCWQ9WA9LXINIYKILSS","A3CCFD0700KTPV","3A3KKYU7P33Z3BR9PPFZ5194ZCQMWU","","375.60000000009313","img/land5.png","75","376.69999999995343","2","1","false","2","1,0.5,0.5,0.5,1,0.5,0.5,0.5,1","",""
"","html-keyboard-response","38","73672","0.0-54.0","31HQ4X3T3TWOCWQ9WA9LXINIYKILSS","A3CCFD0700KTPV","3A3KKYU7P33Z3BR9PPFZ5194ZCQMWU","","null","<img src=""img/land5.png"" style=""width:200px; border:14px solid green;"">","null","","","","","","","",""
"","image-keyboard-response","39","74027","0.0-56.0","31HQ4X3T3TWOCWQ9WA9LXINIYKILSS","A3CCFD0700KTPV","3A3KKYU7P33Z3BR9PPFZ5194ZCQMWU","","353.4000000001397","img/land4.png","75","354.89999999990687","2","1","false","1","1,0.5,0.5,0.5,1,0.5,0.5,0.5,1","",""
"","html-keyboard-response","40","74330","0.0-57.0","31HQ4X3T3TWOCWQ9WA9LXINIYKILSS","A3CCFD0700KTPV","3A3KKYU7P33Z3BR9PPFZ5194ZCQMWU","","null","<img src=""img/land4.png"" style=""width:200px; border:14px solid green;"">","null","","","","","","","",""
"","image-keyboard-response","41","74780","0.0-59.0","31HQ4X3T3TWOCWQ9WA9LXINIYKILSS","A3CCFD0700KTPV","3A3KKYU7P33Z3BR9PPFZ5194ZCQMWU","","448.5","img/land4.png","75","449.9000000001397","2","1","false","1","1,0.5,0.5,0.5,1,0.5,0.5,0.5,1","",""
"","html-keyboard-response","42","75083","0.0-60.0","31HQ4X3T3TWOCWQ9WA9LXINIYKILSS","A3CCFD0700KTPV","3A3KKYU7P33Z3BR9PPFZ5194ZCQMWU","","null","<img src=""img/land4.png"" style=""width:200px; border:14px solid green;"">","null","","","","","","","",""
"","image-keyboard-response","43","75451","0.0-62.0","31HQ4X3T3TWOCWQ9WA9LXINIYKILSS","A3CCFD0700KTPV","3A3KKYU7P33Z3BR9PPFZ5194ZCQMWU","","366.4000000001397","img/land2.png","75","367.60000000009313","2","1","false","3","1,0.5,0.5,0.5,1,0.5,0.5,0.5,1","",""
"","html-keyboard-response","44","75753","0.0-63.0","31HQ4X3T3TWOCWQ9WA9LXINIYKILSS","A3CCFD0700KTPV","3A3KKYU7P33Z3BR9PPFZ5194ZCQMWU","","null","<img src=""img/land2.png"" style=""width:200px; border:14px solid green;"">","null","","","","","","","",""
"","image-keyboard-response","45","76132","0.0-65.0","31HQ4X3T3TWOCWQ9WA9LXINIYKILSS","A3CCFD0700KTPV","3A3KKYU7P33Z3BR9PPFZ5194ZCQMWU","","376.69999999995343","img/land4.png","75","378.80000000004657","2","0","false","1","1,0.5,0.5,0.5,1,0.5,0.5,0.5,1","",""
"","html-keyboard-response","46","76436","0.0-66.0","31HQ4X3T3TWOCWQ9WA9LXINIYKILSS","A3CCFD0700KTPV","3A3KKYU7P33Z3BR9PPFZ5194ZCQMWU","","null","<img src=""img/land4.png"" style=""width:200px;border:14px solid red;"">","null","","","","","","","",""
"","image-keyboard-response","47","76644","0.0-68.0","31HQ4X3T3TWOCWQ9WA9LXINIYKILSS","A3CCFD0700KTPV","3A3KKYU7P33Z3BR9PPFZ5194ZCQMWU","","205.39999999990687","img/land2.png","74","207.10000000009313","1","1","false","3","1,0.5,0.5,0.5,1,0.5,0.5,0.5,1","",""
"","html-keyboard-response","48","76947","0.0-69.0","31HQ4X3T3TWOCWQ9WA9LXINIYKILSS","A3CCFD0700KTPV","3A3KKYU7P33Z3BR9PPFZ5194ZCQMWU","","null","<img src=""img/land2.png"" style=""width:200px; border:14px solid green;"">","null","","","","","","","",""
"","image-keyboard-response","49","77260","0.0-71.0","31HQ4X3T3TWOCWQ9WA9LXINIYKILSS","A3CCFD0700KTPV","3A3KKYU7P33Z3BR9PPFZ5194ZCQMWU","","310.5","img/land5.png","74","312.5","1","0","false","2","1,0.5,0.5,0.5,1,0.5,0.5,0.5,1","",""
"","html-keyboard-response","50","77563","0.0-72.0","31HQ4X3T3TWOCWQ9WA9LXINIYKILSS","A3CCFD0700KTPV","3A3KKYU7P33Z3BR9PPFZ5194ZCQMWU","","null","<img src=""img/land5.png"" style=""width:200px;border:14px solid red;"">","null","","","","","","","",""
"","image-keyboard-response","51","77965","0.0-74.0","31HQ4X3T3TWOCWQ9WA9LXINIYKILSS","A3CCFD0700KTPV","3A3KKYU7P33Z3BR9PPFZ5194ZCQMWU","","399.69999999995343","img/land4.png","75","401.20000000018626","2","0","false","1","1,0.5,0.5,0.5,1,0.5,0.5,0.5,1","",""
"","html-keyboard-response","52","78268","0.0-75.0","31HQ4X3T3TWOCWQ9WA9LXINIYKILSS","A3CCFD0700KTPV","3A3KKYU7P33Z3BR9PPFZ5194ZCQMWU","","null","<img src=""img/land4.png"" style=""width:200px;border:14px solid red;"">","null","","","","","","","",""
"","image-keyboard-response","53","78588","0.0-77.0","31HQ4X3T3TWOCWQ9WA9LXINIYKILSS","A3CCFD0700KTPV","3A3KKYU7P33Z3BR9PPFZ5194ZCQMWU","","318.30000000004657","img/land4.png","76","319.80000000004657","3","0","false","1","1,0.5,0.5,0.5,1,0.5,0.5,0.5,1","",""
"","html-keyboard-response","54","78890","0.0-78.0","31HQ4X3T3TWOCWQ9WA9LXINIYKILSS","A3CCFD0700KTPV","3A3KKYU7P33Z3BR9PPFZ5194ZCQMWU","","null","<img src=""img/land4.png"" style=""width:200px;border:14px solid red;"">","null","","","","","","","",""
"","image-keyboard-response","55","79156","0.0-80.0","31HQ4X3T3TWOCWQ9WA9LXINIYKILSS","A3CCFD0700KTPV","3A3KKYU7P33Z3BR9PPFZ5194ZCQMWU","","263.9000000001397","img/land5.png","76","265.30000000004657","3","0","false","2","1,0.5,0.5,0.5,1,0.5,0.5,0.5,1","",""
"","html-keyboard-response","56","79458","0.0-81.0","31HQ4X3T3TWOCWQ9WA9LXINIYKILSS","A3CCFD0700KTPV","3A3KKYU7P33Z3BR9PPFZ5194ZCQMWU","","null","<img src=""img/land5.png"" style=""width:200px;border:14px solid red;"">","null","","","","","","","",""
"","image-keyboard-response","57","79884","0.0-83.0","31HQ4X3T3TWOCWQ9WA9LXINIYKILSS","A3CCFD0700KTPV","3A3KKYU7P33Z3BR9PPFZ5194ZCQMWU","","423.5999999998603","img/land2.png","76","425.19999999995343","3","1","false","3","1,0.5,0.5,0.5,1,0.5,0.5,0.5,1","",""
"","html-keyboard-response","58","80186","0.0-84.0","31HQ4X3T3TWOCWQ9WA9LXINIYKILSS","A3CCFD0700KTPV","3A3KKYU7P33Z3BR9PPFZ5194ZCQMWU","","null","<img src=""img/land2.png"" style=""width:200px; border:14px solid green;"">","null","","","","","","","",""
"","image-keyboard-response","59","80548","0.0-86.0","31HQ4X3T3TWOCWQ9WA9LXINIYKILSS","A3CCFD0700KTPV","3A3KKYU7P33Z3BR9PPFZ5194ZCQMWU","","360.4000000001397","img/land2.png","76","361.79999999981374","3","1","false","3","1,0.5,0.5,0.5,1,0.5,0.5,0.5,1","",""
"","html-keyboard-response","60","80850","0.0-87.0","31HQ4X3T3TWOCWQ9WA9LXINIYKILSS","A3CCFD0700KTPV","3A3KKYU7P33Z3BR9PPFZ5194ZCQMWU","","null","<img src=""img/land2.png"" style=""width:200px; border:14px solid green;"">","null","","","","","","","",""
"","image-keyboard-response","61","81291","0.0-89.0","31HQ4X3T3TWOCWQ9WA9LXINIYKILSS","A3CCFD0700KTPV","3A3KKYU7P33Z3BR9PPFZ5194ZCQMWU","","438.9000000001397","img/land4.png","74","440.30000000004657","1","1","false","1","1,0.5,0.5,0.5,1,0.5,0.5,0.5,1","",""
"","html-keyboard-response","62","81606","0.0-90.0","31HQ4X3T3TWOCWQ9WA9LXINIYKILSS","A3CCFD0700KTPV","3A3KKYU7P33Z3BR9PPFZ5194ZCQMWU","","null","<img src=""img/land4.png"" style=""width:200px; border:14px solid green;"">","null","","","","","","","",""
"","image-keyboard-response","63","81964","0.0-92.0","31HQ4X3T3TWOCWQ9WA9LXINIYKILSS","A3CCFD0700KTPV","3A3KKYU7P33Z3BR9PPFZ5194ZCQMWU","","356.4000000001397","img/land2.png","74","357.79999999981374","1","0","false","3","1,0.5,0.5,0.5,1,0.5,0.5,0.5,1","",""
"","html-keyboard-response","64","82267","0.0-93.0","31HQ4X3T3TWOCWQ9WA9LXINIYKILSS","A3CCFD0700KTPV","3A3KKYU7P33Z3BR9PPFZ5194ZCQMWU","","null","<img src=""img/land2.png"" style=""width:200px;border:14px solid red;"">","null","","","","","","","",""
"","image-keyboard-response","65","82620","0.0-95.0","31HQ4X3T3TWOCWQ9WA9LXINIYKILSS","A3CCFD0700KTPV","3A3KKYU7P33Z3BR9PPFZ5194ZCQMWU","","350.30000000004657","img/land5.png","74","352","1","0","false","2","1,0.5,0.5,0.5,1,0.5,0.5,0.5,1","",""
"","html-keyboard-response","66","82923","0.0-96.0","31HQ4X3T3TWOCWQ9WA9LXINIYKILSS","A3CCFD0700KTPV","3A3KKYU7P33Z3BR9PPFZ5194ZCQMWU","","null","<img src=""img/land5.png"" style=""width:200px;border:14px solid red;"">","null","","","","","","","",""
"","image-keyboard-response","67","83347","0.0-98.0","31HQ4X3T3TWOCWQ9WA9LXINIYKILSS","A3CCFD0700KTPV","3A3KKYU7P33Z3BR9PPFZ5194ZCQMWU","","422.69999999995343","img/land2.png","75","423.80000000004657","2","1","false","3","1,0.5,0.5,0.5,1,0.5,0.5,0.5,1","",""
"","html-keyboard-response","68","83650","0.0-99.0","31HQ4X3T3TWOCWQ9WA9LXINIYKILSS","A3CCFD0700KTPV","3A3KKYU7P33Z3BR9PPFZ5194ZCQMWU","","null","<img src=""img/land2.png"" style=""width:200px; border:14px solid green;"">","null","","","","","","","",""
"","image-keyboard-response","69","84019","0.0-101.0","31HQ4X3T3TWOCWQ9WA9LXINIYKILSS","A3CCFD0700KTPV","3A3KKYU7P33Z3BR9PPFZ5194ZCQMWU","","367.70000000018626","img/land2.png","74","369.10000000009313","1","0","false","3","1,0.5,0.5,0.5,1,0.5,0.5,0.5,1","",""
"","html-keyboard-response","70","84323","0.0-102.0","31HQ4X3T3TWOCWQ9WA9LXINIYKILSS","A3CCFD0700KTPV","3A3KKYU7P33Z3BR9PPFZ5194ZCQMWU","","null","<img src=""img/land2.png"" style=""width:200px;border:14px solid red;"">","null","","","","","","","",""
"","image-keyboard-response","71","84692","0.0-104.0","31HQ4X3T3TWOCWQ9WA9LXINIYKILSS","A3CCFD0700KTPV","3A3KKYU7P33Z3BR9PPFZ5194ZCQMWU","","368","img/land2.png","75","369.39999999990687","2","0","false","3","1,0.5,0.5,0.5,1,0.5,0.5,0.5,1","",""
"","html-keyboard-response","72","84994","0.0-105.0","31HQ4X3T3TWOCWQ9WA9LXINIYKILSS","A3CCFD0700KTPV","3A3KKYU7P33Z3BR9PPFZ5194ZCQMWU","","null","<img src=""img/land2.png"" style=""width:200px;border:14px solid red;"">","null","","","","","","","",""
"","image-keyboard-response","73","85533","0.0-107.0","31HQ4X3T3TWOCWQ9WA9LXINIYKILSS","A3CCFD0700KTPV","3A3KKYU7P33Z3BR9PPFZ5194ZCQMWU","","536.1999999999534","img/land2.png","76","537.9000000001397","3","1","false","3","1,0.5,0.5,0.5,1,0.5,0.5,0.5,1","",""
"","html-keyboard-response","74","85835","0.0-108.0","31HQ4X3T3TWOCWQ9WA9LXINIYKILSS","A3CCFD0700KTPV","3A3KKYU7P33Z3BR9PPFZ5194ZCQMWU","","null","<img src=""img/land2.png"" style=""width:200px; border:14px solid green;"">","null","","","","","","","",""
"","image-keyboard-response","75","86179","0.0-110.0","31HQ4X3T3TWOCWQ9WA9LXINIYKILSS","A3CCFD0700KTPV","3A3KKYU7P33Z3BR9PPFZ5194ZCQMWU","","341.9000000001397","img/land5.png","76","343.10000000009313","3","0","false","2","1,0.5,0.5,0.5,1,0.5,0.5,0.5,1","",""
"","html-keyboard-response","76","86483","0.0-111.0","31HQ4X3T3TWOCWQ9WA9LXINIYKILSS","A3CCFD0700KTPV","3A3KKYU7P33Z3BR9PPFZ5194ZCQMWU","","null","<img src=""img/land5.png"" style=""width:200px;border:14px solid red;"">","null","","","","","","","",""
"","image-keyboard-response","77","86893","0.0-113.0","31HQ4X3T3TWOCWQ9WA9LXINIYKILSS","A3CCFD0700KTPV","3A3KKYU7P33Z3BR9PPFZ5194ZCQMWU","","407.30000000004657","img/land5.png","75","409","2","1","false","2","1,0.5,0.5,0.5,1,0.5,0.5,0.5,1","",""
"","html-keyboard-response","78","87196","0.0-114.0","31HQ4X3T3TWOCWQ9WA9LXINIYKILSS","A3CCFD0700KTPV","3A3KKYU7P33Z3BR9PPFZ5194ZCQMWU","","null","<img src=""img/land5.png"" style=""width:200px; border:14px solid green;"">","null","","","","","","","",""
"","image-keyboard-response","79","87533","0.0-116.0","31HQ4X3T3TWOCWQ9WA9LXINIYKILSS","A3CCFD0700KTPV","3A3KKYU7P33Z3BR9PPFZ5194ZCQMWU","","333.89999999990687","img/land2.png","74","336","1","1","false","3","1,0.5,0.5,0.5,1,0.5,0.5,0.5,1","",""
"","html-keyboard-response","80","87836","0.0-117.0","31HQ4X3T3TWOCWQ9WA9LXINIYKILSS","A3CCFD0700KTPV","3A3KKYU7P33Z3BR9PPFZ5194ZCQMWU","","null","<img src=""img/land2.png"" style=""width:200px; border:14px solid green;"">","null","","","","","","","",""
"","image-keyboard-response","81","88117","0.0-119.0","31HQ4X3T3TWOCWQ9WA9LXINIYKILSS","A3CCFD0700KTPV","3A3KKYU7P33Z3BR9PPFZ5194ZCQMWU","","276.69999999995343","img/land5.png","74","278.39999999990687","1","0","false","2","1,0.5,0.5,0.5,1,0.5,0.5,0.5,1","",""
"","html-keyboard-response","82","88420","0.0-120.0","31HQ4X3T3TWOCWQ9WA9LXINIYKILSS","A3CCFD0700KTPV","3A3KKYU7P33Z3BR9PPFZ5194ZCQMWU","","null","<img src=""img/land5.png"" style=""width:200px;border:14px solid red;"">","null","","","","","","","",""
"","image-keyboard-response","83","88747","0.0-122.0","31HQ4X3T3TWOCWQ9WA9LXINIYKILSS","A3CCFD0700KTPV","3A3KKYU7P33Z3BR9PPFZ5194ZCQMWU","","325.30000000004657","img/land5.png","75","326.60000000009313","2","1","false","2","1,0.5,0.5,0.5,1,0.5,0.5,0.5,1","",""
"","html-keyboard-response","84","89050","0.0-123.0","31HQ4X3T3TWOCWQ9WA9LXINIYKILSS","A3CCFD0700KTPV","3A3KKYU7P33Z3BR9PPFZ5194ZCQMWU","","null","<img src=""img/land5.png"" style=""width:200px; border:14px solid green;"">","null","","","","","","","",""
"","image-keyboard-response","85","89380","0.0-125.0","31HQ4X3T3TWOCWQ9WA9LXINIYKILSS","A3CCFD0700KTPV","3A3KKYU7P33Z3BR9PPFZ5194ZCQMWU","","328","img/land5.png","75","329.4000000001397","2","1","false","2","1,0.5,0.5,0.5,1,0.5,0.5,0.5,1","",""
"","html-keyboard-response","86","89681","0.0-126.0","31HQ4X3T3TWOCWQ9WA9LXINIYKILSS","A3CCFD0700KTPV","3A3KKYU7P33Z3BR9PPFZ5194ZCQMWU","","null","<img src=""img/land5.png"" style=""width:200px; border:14px solid green;"">","null","","","","","","","",""
"","image-keyboard-response","87","90052","0.0-128.0","31HQ4X3T3TWOCWQ9WA9LXINIYKILSS","A3CCFD0700KTPV","3A3KKYU7P33Z3BR9PPFZ5194ZCQMWU","","368.30000000004657","img/land5.png","75","369.9000000001397","2","1","false","2","1,0.5,0.5,0.5,1,0.5,0.5,0.5,1","",""
"","html-keyboard-response","88","90356","0.0-129.0","31HQ4X3T3TWOCWQ9WA9LXINIYKILSS","A3CCFD0700KTPV","3A3KKYU7P33Z3BR9PPFZ5194ZCQMWU","","null","<img src=""img/land5.png"" style=""width:200px; border:14px solid green;"">","null","","","","","","","",""
"","image-keyboard-response","89","90708","0.0-131.0","31HQ4X3T3TWOCWQ9WA9LXINIYKILSS","A3CCFD0700KTPV","3A3KKYU7P33Z3BR9PPFZ5194ZCQMWU","","350.19999999995343","img/land5.png","75","351.39999999990687","2","1","false","2","1,0.5,0.5,0.5,1,0.5,0.5,0.5,1","",""
"","html-keyboard-response","90","91010","0.0-132.0","31HQ4X3T3TWOCWQ9WA9LXINIYKILSS","A3CCFD0700KTPV","3A3KKYU7P33Z3BR9PPFZ5194ZCQMWU","","null","<img src=""img/land5.png"" style=""width:200px; border:14px solid green;"">","null","","","","","","","",""
"","image-keyboard-response","91","91524","0.0-134.0","31HQ4X3T3TWOCWQ9WA9LXINIYKILSS","A3CCFD0700KTPV","3A3KKYU7P33Z3BR9PPFZ5194ZCQMWU","","512.5","img/land4.png","76","513.6000000000931","3","0","false","1","1,0.5,0.5,0.5,1,0.5,0.5,0.5,1","",""
"","html-keyboard-response","92","91826","0.0-135.0","31HQ4X3T3TWOCWQ9WA9LXINIYKILSS","A3CCFD0700KTPV","3A3KKYU7P33Z3BR9PPFZ5194ZCQMWU","","null","<img src=""img/land4.png"" style=""width:200px;border:14px solid red;"">","null","","","","","","","",""
"","image-keyboard-response","93","92212","0.0-137.0","31HQ4X3T3TWOCWQ9WA9LXINIYKILSS","A3CCFD0700KTPV","3A3KKYU7P33Z3BR9PPFZ5194ZCQMWU","","384.39999999990687","img/land2.png","74","385.80000000004657","1","0","false","3","1,0.5,0.5,0.5,1,0.5,0.5,0.5,1","",""
"","html-keyboard-response","94","92515","0.0-138.0","31HQ4X3T3TWOCWQ9WA9LXINIYKILSS","A3CCFD0700KTPV","3A3KKYU7P33Z3BR9PPFZ5194ZCQMWU","","null","<img src=""img/land2.png"" style=""width:200px;border:14px solid red;"">","null","","","","","","","",""
"","image-keyboard-response","95","93044","0.0-140.0","31HQ4X3T3TWOCWQ9WA9LXINIYKILSS","A3CCFD0700KTPV","3A3KKYU7P33Z3BR9PPFZ5194ZCQMWU","","527.3000000000466","img/land2.png","75","529.1000000000931","2","0","false","3","1,0.5,0.5,0.5,1,0.5,0.5,0.5,1","",""
"","html-keyboard-response","96","93347","0.0-141.0","31HQ4X3T3TWOCWQ9WA9LXINIYKILSS","A3CCFD0700KTPV","3A3KKYU7P33Z3BR9PPFZ5194ZCQMWU","","null","<img src=""img/land2.png"" style=""width:200px;border:14px solid red;"">","null","","","","","","","",""
"","image-keyboard-response","97","93788","0.0-143.0","31HQ4X3T3TWOCWQ9WA9LXINIYKILSS","A3CCFD0700KTPV","3A3KKYU7P33Z3BR9PPFZ5194ZCQMWU","","438.70000000018626","img/land5.png","75","440.19999999995343","2","1","false","2","1,0.5,0.5,0.5,1,0.5,0.5,0.5,1","",""
"","html-keyboard-response","98","94091","0.0-144.0","31HQ4X3T3TWOCWQ9WA9LXINIYKILSS","A3CCFD0700KTPV","3A3KKYU7P33Z3BR9PPFZ5194ZCQMWU","","null","<img src=""img/land5.png"" style=""width:200px; border:14px solid green;"">","null","","","","","","","",""
"","image-keyboard-response","99","94477","0.0-146.0","31HQ4X3T3TWOCWQ9WA9LXINIYKILSS","A3CCFD0700KTPV","3A3KKYU7P33Z3BR9PPFZ5194ZCQMWU","","383.79999999981374","img/land4.png","75","385.10000000009313","2","1","false","1","1,0.5,0.5,0.5,1,0.5,0.5,0.5,1","",""
"","html-keyboard-response","100","94779","0.0-147.0","31HQ4X3T3TWOCWQ9WA9LXINIYKILSS","A3CCFD0700KTPV","3A3KKYU7P33Z3BR9PPFZ5194ZCQMWU","","null","<img src=""img/land4.png"" style=""width:200px; border:14px solid green;"">","null","","","","","","","",""
"","image-keyboard-response","101","95164","0.0-149.0","31HQ4X3T3TWOCWQ9WA9LXINIYKILSS","A3CCFD0700KTPV","3A3KKYU7P33Z3BR9PPFZ5194ZCQMWU","","383.5999999998603","img/land4.png","75","384.9000000001397","2","1","false","1","1,0.5,0.5,0.5,1,0.5,0.5,0.5,1","",""
"","html-keyboard-response","102","95469","0.0-150.0","31HQ4X3T3TWOCWQ9WA9LXINIYKILSS","A3CCFD0700KTPV","3A3KKYU7P33Z3BR9PPFZ5194ZCQMWU","","null","<img src=""img/land4.png"" style=""width:200px; border:14px solid green;"">","null","","","","","","","",""
"","image-keyboard-response","103","95797","0.0-152.0","31HQ4X3T3TWOCWQ9WA9LXINIYKILSS","A3CCFD0700KTPV","3A3KKYU7P33Z3BR9PPFZ5194ZCQMWU","","326.19999999995343","img/land5.png","75","328","2","1","false","2","1,0.5,0.5,0.5,1,0.5,0.5,0.5,1","",""
"","html-keyboard-response","104","96100","0.0-153.0","31HQ4X3T3TWOCWQ9WA9LXINIYKILSS","A3CCFD0700KTPV","3A3KKYU7P33Z3BR9PPFZ5194ZCQMWU","","null","<img src=""img/land5.png"" style=""width:200px; border:14px solid green;"">","null","","","","","","","",""
"","image-keyboard-response","105","96517","0.0-155.0","31HQ4X3T3TWOCWQ9WA9LXINIYKILSS","A3CCFD0700KTPV","3A3KKYU7P33Z3BR9PPFZ5194ZCQMWU","","414.10000000009313","img/land5.png","74","416","1","0","false","2","1,0.5,0.5,0.5,1,0.5,0.5,0.5,1","",""
"","html-keyboard-response","106","96820","0.0-156.0","31HQ4X3T3TWOCWQ9WA9LXINIYKILSS","A3CCFD0700KTPV","3A3KKYU7P33Z3BR9PPFZ5194ZCQMWU","","null","<img src=""img/land5.png"" style=""width:200px;border:14px solid red;"">","null","","","","","","","",""
"","image-keyboard-response","107","97172","0.0-158.0","31HQ4X3T3TWOCWQ9WA9LXINIYKILSS","A3CCFD0700KTPV","3A3KKYU7P33Z3BR9PPFZ5194ZCQMWU","","350.29999999981374","img/land5.png","75","351.69999999995343","2","1","false","2","1,0.5,0.5,0.5,1,0.5,0.5,0.5,1","",""
"","html-keyboard-response","108","97474","0.0-159.0","31HQ4X3T3TWOCWQ9WA9LXINIYKILSS","A3CCFD0700KTPV","3A3KKYU7P33Z3BR9PPFZ5194ZCQMWU","","null","<img src=""img/land5.png"" style=""width:200px; border:14px solid green;"">","null","","","","","","","",""
"","image-keyboard-response","109","97813","0.0-161.0","31HQ4X3T3TWOCWQ9WA9LXINIYKILSS","A3CCFD0700KTPV","3A3KKYU7P33Z3BR9PPFZ5194ZCQMWU","","336","img/land5.png","75","337.60000000009313","2","1","false","2","1,0.5,0.5,0.5,1,0.5,0.5,0.5,1","",""
"","html-keyboard-response","110","98116","0.0-162.0","31HQ4X3T3TWOCWQ9WA9LXINIYKILSS","A3CCFD0700KTPV","3A3KKYU7P33Z3BR9PPFZ5194ZCQMWU","","null","<img src=""img/land5.png"" style=""width:200px; border:14px solid green;"">","null","","","","","","","",""
"","image-keyboard-response","111","98573","0.0-164.0","31HQ4X3T3TWOCWQ9WA9LXINIYKILSS","A3CCFD0700KTPV","3A3KKYU7P33Z3BR9PPFZ5194ZCQMWU","","454.60000000009313","img/land4.png","75","456.29999999981374","2","0","false","1","1,0.5,0.5,0.5,1,0.5,0.5,0.5,1","",""
"","html-keyboard-response","112","98876","0.0-165.0","31HQ4X3T3TWOCWQ9WA9LXINIYKILSS","A3CCFD0700KTPV","3A3KKYU7P33Z3BR9PPFZ5194ZCQMWU","","null","<img src=""img/land4.png"" style=""width:200px;border:14px solid red;"">","null","","","","","","","",""
"","image-keyboard-response","113","99052","0.0-167.0","31HQ4X3T3TWOCWQ9WA9LXINIYKILSS","A3CCFD0700KTPV","3A3KKYU7P33Z3BR9PPFZ5194ZCQMWU","","174.39999999990687","img/land4.png","76","175.79999999981374","3","0","false","1","1,0.5,0.5,0.5,1,0.5,0.5,0.5,1","",""
"","html-keyboard-response","114","99354","0.0-168.0","31HQ4X3T3TWOCWQ9WA9LXINIYKILSS","A3CCFD0700KTPV","3A3KKYU7P33Z3BR9PPFZ5194ZCQMWU","","null","<img src=""img/land4.png"" style=""width:200px;border:14px solid red;"">","null","","","","","","","",""
"","image-keyboard-response","115","99653","0.0-170.0","31HQ4X3T3TWOCWQ9WA9LXINIYKILSS","A3CCFD0700KTPV","3A3KKYU7P33Z3BR9PPFZ5194ZCQMWU","","296.8000000002794","img/land4.png","76","298.5","3","1","false","1","1,0.5,0.5,0.5,1,0.5,0.5,0.5,1","",""
"","html-keyboard-response","116","99956","0.0-171.0","31HQ4X3T3TWOCWQ9WA9LXINIYKILSS","A3CCFD0700KTPV","3A3KKYU7P33Z3BR9PPFZ5194ZCQMWU","","null","<img src=""img/land4.png"" style=""width:200px; border:14px solid green;"">","null","","","","","","","",""
"","image-keyboard-response","117","100461","0.0-173.0","31HQ4X3T3TWOCWQ9WA9LXINIYKILSS","A3CCFD0700KTPV","3A3KKYU7P33Z3BR9PPFZ5194ZCQMWU","","502.89999999990687","img/land2.png","75","504.40000000037253","2","0","false","3","1,0.5,0.5,0.5,1,0.5,0.5,0.5,1","",""
"","html-keyboard-response","118","100764","0.0-174.0","31HQ4X3T3TWOCWQ9WA9LXINIYKILSS","A3CCFD0700KTPV","3A3KKYU7P33Z3BR9PPFZ5194ZCQMWU","","null","<img src=""img/land2.png"" style=""width:200px;border:14px solid red;"">","null","","","","","","","",""
"","image-keyboard-response","119","101004","0.0-176.0","31HQ4X3T3TWOCWQ9WA9LXINIYKILSS","A3CCFD0700KTPV","3A3KKYU7P33Z3BR9PPFZ5194ZCQMWU","","238.40000000037253","img/land4.png","75","240","2","0","false","1","1,0.5,0.5,0.5,1,0.5,0.5,0.5,1","",""
"","html-keyboard-response","120","101306","0.0-177.0","31HQ4X3T3TWOCWQ9WA9LXINIYKILSS","A3CCFD0700KTPV","3A3KKYU7P33Z3BR9PPFZ5194ZCQMWU","","null","<img src=""img/land4.png"" style=""width:200px;border:14px solid red;"">","null","","","","","","","",""
"","image-keyboard-response","121","101501","0.0-179.0","31HQ4X3T3TWOCWQ9WA9LXINIYKILSS","A3CCFD0700KTPV","3A3KKYU7P33Z3BR9PPFZ5194ZCQMWU","","192.90000000037253","img/land2.png","75","194.5","2","1","false","3","1,0.5,0.5,0.5,1,0.5,0.5,0.5,1","",""
"","html-keyboard-response","122","101804","0.0-180.0","31HQ4X3T3TWOCWQ9WA9LXINIYKILSS","A3CCFD0700KTPV","3A3KKYU7P33Z3BR9PPFZ5194ZCQMWU","","null","<img src=""img/land2.png"" style=""width:200px; border:14px solid green;"">","null","","","","","","","",""
"","image-keyboard-response","123","101997","0.0-182.0","31HQ4X3T3TWOCWQ9WA9LXINIYKILSS","A3CCFD0700KTPV","3A3KKYU7P33Z3BR9PPFZ5194ZCQMWU","","190.79999999981374","img/land2.png","75","192.70000000018626","2","0","false","3","1,0.5,0.5,0.5,1,0.5,0.5,0.5,1","",""
"","html-keyboard-response","124","102300","0.0-183.0","31HQ4X3T3TWOCWQ9WA9LXINIYKILSS","A3CCFD0700KTPV","3A3KKYU7P33Z3BR9PPFZ5194ZCQMWU","","null","<img src=""img/land2.png"" style=""width:200px;border:14px solid red;"">","null","","","","","","","",""
"","image-keyboard-response","125","102572","0.0-185.0","31HQ4X3T3TWOCWQ9WA9LXINIYKILSS","A3CCFD0700KTPV","3A3KKYU7P33Z3BR9PPFZ5194ZCQMWU","","270.60000000009313","img/land4.png","74","271.60000000009313","1","1","false","1","1,0.5,0.5,0.5,1,0.5,0.5,0.5,1","",""
"","html-keyboard-response","126","102874","0.0-186.0","31HQ4X3T3TWOCWQ9WA9LXINIYKILSS","A3CCFD0700KTPV","3A3KKYU7P33Z3BR9PPFZ5194ZCQMWU","","null","<img src=""img/land4.png"" style=""width:200px; border:14px solid green;"">","null","","","","","","","",""
"","image-keyboard-response","127","103068","0.0-188.0","31HQ4X3T3TWOCWQ9WA9LXINIYKILSS","A3CCFD0700KTPV","3A3KKYU7P33Z3BR9PPFZ5194ZCQMWU","","192.89999999990687","img/land5.png","74","194.10000000009313","1","0","false","2","1,0.5,0.5,0.5,1,0.5,0.5,0.5,1","",""
"","html-keyboard-response","128","103371","0.0-189.0","31HQ4X3T3TWOCWQ9WA9LXINIYKILSS","A3CCFD0700KTPV","3A3KKYU7P33Z3BR9PPFZ5194ZCQMWU","","null","<img src=""img/land5.png"" style=""width:200px;border:14px solid red;"">","null","","","","","","","",""
"","image-keyboard-response","129","103573","0.0-191.0","31HQ4X3T3TWOCWQ9WA9LXINIYKILSS","A3CCFD0700KTPV","3A3KKYU7P33Z3BR9PPFZ5194ZCQMWU","","200.39999999990687","img/land5.png","75","201.6999999997206","2","1","false","2","1,0.5,0.5,0.5,1,0.5,0.5,0.5,1","",""
"","html-keyboard-response","130","103876","0.0-192.0","31HQ4X3T3TWOCWQ9WA9LXINIYKILSS","A3CCFD0700KTPV","3A3KKYU7P33Z3BR9PPFZ5194ZCQMWU","","null","<img src=""img/land5.png"" style=""width:200px; border:14px solid green;"">","null","","","","","","","",""
"","image-keyboard-response","131","104076","0.0-194.0","31HQ4X3T3TWOCWQ9WA9LXINIYKILSS","A3CCFD0700KTPV","3A3KKYU7P33Z3BR9PPFZ5194ZCQMWU","","198.79999999981374","img/land5.png","76","199.8000000002794","3","1","false","2","1,0.5,0.5,0.5,1,0.5,0.5,0.5,1","",""
"","html-keyboard-response","132","104379","0.0-195.0","31HQ4X3T3TWOCWQ9WA9LXINIYKILSS","A3CCFD0700KTPV","3A3KKYU7P33Z3BR9PPFZ5194ZCQMWU","","null","<img src=""img/land5.png"" style=""width:200px; border:14px solid green;"">","null","","","","","","","",""
"","image-keyboard-response","133","104629","0.0-197.0","31HQ4X3T3TWOCWQ9WA9LXINIYKILSS","A3CCFD0700KTPV","3A3KKYU7P33Z3BR9PPFZ5194ZCQMWU","","247.29999999981374","img/land4.png","76","248.89999999990687","3","1","false","1","1,0.5,0.5,0.5,1,0.5,0.5,0.5,1","",""
"","html-keyboard-response","134","104931","0.0-198.0","31HQ4X3T3TWOCWQ9WA9LXINIYKILSS","A3CCFD0700KTPV","3A3KKYU7P33Z3BR9PPFZ5194ZCQMWU","","null","<img src=""img/land4.png"" style=""width:200px; border:14px solid green;"">","null","","","","","","","",""
"","image-keyboard-response","135","105325","0.0-200.0","31HQ4X3T3TWOCWQ9WA9LXINIYKILSS","A3CCFD0700KTPV","3A3KKYU7P33Z3BR9PPFZ5194ZCQMWU","","392.70000000018626","img/land2.png","74","394","1","0","false","3","1,0.5,0.5,0.5,1,0.5,0.5,0.5,1","",""
"","html-keyboard-response","136","105628","0.0-201.0","31HQ4X3T3TWOCWQ9WA9LXINIYKILSS","A3CCFD0700KTPV","3A3KKYU7P33Z3BR9PPFZ5194ZCQMWU","","null","<img src=""img/land2.png"" style=""width:200px;border:14px solid red;"">","null","","","","","","","",""
"","image-keyboard-response","137","106036","0.0-203.0","31HQ4X3T3TWOCWQ9WA9LXINIYKILSS","A3CCFD0700KTPV","3A3KKYU7P33Z3BR9PPFZ5194ZCQMWU","","406.39999999990687","img/land5.png","75","407.8000000002794","2","1","false","2","1,0.5,0.5,0.5,1,0.5,0.5,0.5,1","",""
"","html-keyboard-response","138","106340","0.0-204.0","31HQ4X3T3TWOCWQ9WA9LXINIYKILSS","A3CCFD0700KTPV","3A3KKYU7P33Z3BR9PPFZ5194ZCQMWU","","null","<img src=""img/land5.png"" style=""width:200px; border:14px solid green;"">","null","","","","","","","",""
"","image-keyboard-response","139","106548","0.0-206.0","31HQ4X3T3TWOCWQ9WA9LXINIYKILSS","A3CCFD0700KTPV","3A3KKYU7P33Z3BR9PPFZ5194ZCQMWU","","206.39999999990687","img/land5.png","75","207.70000000018626","2","1","false","2","1,0.5,0.5,0.5,1,0.5,0.5,0.5,1","",""
"","html-keyboard-response","140","106850","0.0-207.0","31HQ4X3T3TWOCWQ9WA9LXINIYKILSS","A3CCFD0700KTPV","3A3KKYU7P33Z3BR9PPFZ5194ZCQMWU","","null","<img src=""img/land5.png"" style=""width:200px; border:14px solid green;"">","null","","","","","","","",""
"","image-keyboard-response","141","107092","0.0-209.0","31HQ4X3T3TWOCWQ9WA9LXINIYKILSS","A3CCFD0700KTPV","3A3KKYU7P33Z3BR9PPFZ5194ZCQMWU","","239.79999999981374","img/land4.png","75","241.10000000009313","2","0","false","1","1,0.5,0.5,0.5,1,0.5,0.5,0.5,1","",""
"","html-keyboard-response","142","107394","0.0-210.0","31HQ4X3T3TWOCWQ9WA9LXINIYKILSS","A3CCFD0700KTPV","3A3KKYU7P33Z3BR9PPFZ5194ZCQMWU","","null","<img src=""img/land4.png"" style=""width:200px;border:14px solid red;"">","null","","","","","","","",""
"","image-keyboard-response","143","107525","0.0-212.0","31HQ4X3T3TWOCWQ9WA9LXINIYKILSS","A3CCFD0700KTPV","3A3KKYU7P33Z3BR9PPFZ5194ZCQMWU","","129.5","img/land2.png","75","130.79999999981374","2","1","false","3","1,0.5,0.5,0.5,1,0.5,0.5,0.5,1","",""
"","html-keyboard-response","144","107827","0.0-213.0","31HQ4X3T3TWOCWQ9WA9LXINIYKILSS","A3CCFD0700KTPV","3A3KKYU7P33Z3BR9PPFZ5194ZCQMWU","","null","<img src=""img/land2.png"" style=""width:200px; border:14px solid green;"">","null","","","","","","","",""
"","image-keyboard-response","145","107941","0.0-215.0","31HQ4X3T3TWOCWQ9WA9LXINIYKILSS","A3CCFD0700KTPV","3A3KKYU7P33Z3BR9PPFZ5194ZCQMWU","","112.39999999990687","img/land4.png","74","114.3000000002794","1","1","false","1","1,0.5,0.5,0.5,1,0.5,0.5,0.5,1","",""
"","html-keyboard-response","146","108244","0.0-216.0","31HQ4X3T3TWOCWQ9WA9LXINIYKILSS","A3CCFD0700KTPV","3A3KKYU7P33Z3BR9PPFZ5194ZCQMWU","","null","<img src=""img/land4.png"" style=""width:200px; border:14px solid green;"">","null","","","","","","","",""
"","image-keyboard-response","147","108453","0.0-218.0","31HQ4X3T3TWOCWQ9WA9LXINIYKILSS","A3CCFD0700KTPV","3A3KKYU7P33Z3BR9PPFZ5194ZCQMWU","","206.79999999981374","img/land4.png","74","208.40000000037253","1","1","false","1","1,0.5,0.5,0.5,1,0.5,0.5,0.5,1","",""
"","html-keyboard-response","148","108757","0.0-219.0","31HQ4X3T3TWOCWQ9WA9LXINIYKILSS","A3CCFD0700KTPV","3A3KKYU7P33Z3BR9PPFZ5194ZCQMWU","","null","<img src=""img/land4.png"" style=""width:200px; border:14px solid green;"">","null","","","","","","","",""
"","image-keyboard-response","149","108988","0.0-221.0","31HQ4X3T3TWOCWQ9WA9LXINIYKILSS","A3CCFD0700KTPV","3A3KKYU7P33Z3BR9PPFZ5194ZCQMWU","","229.89999999990687","img/land2.png","74","230.89999999990687","1","1","false","3","1,0.5,0.5,0.5,1,0.5,0.5,0.5,1","",""
"","html-keyboard-response","150","109290","0.0-222.0","31HQ4X3T3TWOCWQ9WA9LXINIYKILSS","A3CCFD0700KTPV","3A3KKYU7P33Z3BR9PPFZ5194ZCQMWU","","null","<img src=""img/land2.png"" style=""width:200px; border:14px solid green;"">","null","","","","","","","",""
"","image-keyboard-response","151","109436","0.0-224.0","31HQ4X3T3TWOCWQ9WA9LXINIYKILSS","A3CCFD0700KTPV","3A3KKYU7P33Z3BR9PPFZ5194ZCQMWU","","143.70000000018626","img/land2.png","75","145.10000000009313","2","0","false","3","1,0.5,0.5,0.5,1,0.5,0.5,0.5,1","",""
"","html-keyboard-response","152","109738","0.0-225.0","31HQ4X3T3TWOCWQ9WA9LXINIYKILSS","A3CCFD0700KTPV","3A3KKYU7P33Z3BR9PPFZ5194ZCQMWU","","null","<img src=""img/land2.png"" style=""width:200px;border:14px solid red;"">","null","","","","","","","",""
"","image-keyboard-response","153","109894","0.0-227.0","31HQ4X3T3TWOCWQ9WA9LXINIYKILSS","A3CCFD0700KTPV","3A3KKYU7P33Z3BR9PPFZ5194ZCQMWU","","153.20000000018626","img/land2.png","74","155.1999999997206","1","1","false","3","1,0.5,0.5,0.5,1,0.5,0.5,0.5,1","",""
"","html-keyboard-response","154","110197","0.0-228.0","31HQ4X3T3TWOCWQ9WA9LXINIYKILSS","A3CCFD0700KTPV","3A3KKYU7P33Z3BR9PPFZ5194ZCQMWU","","null","<img src=""img/land2.png"" style=""width:200px; border:14px solid green;"">","null","","","","","","","",""
"","image-keyboard-response","155","110300","0.0-230.0","31HQ4X3T3TWOCWQ9WA9LXINIYKILSS","A3CCFD0700KTPV","3A3KKYU7P33Z3BR9PPFZ5194ZCQMWU","","102.39999999990687","img/land4.png","74","103.5","1","1","false","1","1,0.5,0.5,0.5,1,0.5,0.5,0.5,1","",""
"","html-keyboard-response","156","110603","0.0-231.0","31HQ4X3T3TWOCWQ9WA9LXINIYKILSS","A3CCFD0700KTPV","3A3KKYU7P33Z3BR9PPFZ5194ZCQMWU","","null","<img src=""img/land4.png"" style=""width:200px; border:14px solid green;"">","null","","","","","","","",""
"","image-keyboard-response","157","110989","0.0-233.0","31HQ4X3T3TWOCWQ9WA9LXINIYKILSS","A3CCFD0700KTPV","3A3KKYU7P33Z3BR9PPFZ5194ZCQMWU","","384.09999999962747","img/land2.png","74","385.5","1","0","false","3","1,0.5,0.5,0.5,1,0.5,0.5,0.5,1","",""
"","html-keyboard-response","158","111291","0.0-234.0","31HQ4X3T3TWOCWQ9WA9LXINIYKILSS","A3CCFD0700KTPV","3A3KKYU7P33Z3BR9PPFZ5194ZCQMWU","","null","<img src=""img/land2.png"" style=""width:200px;border:14px solid red;"">","null","","","","","","","",""
"","image-keyboard-response","159","111421","0.0-236.0","31HQ4X3T3TWOCWQ9WA9LXINIYKILSS","A3CCFD0700KTPV","3A3KKYU7P33Z3BR9PPFZ5194ZCQMWU","","127.89999999990687","img/land4.png","75","129.29999999981374","2","0","false","1","1,0.5,0.5,0.5,1,0.5,0.5,0.5,1","",""
"","html-keyboard-response","160","111724","0.0-237.0","31HQ4X3T3TWOCWQ9WA9LXINIYKILSS","A3CCFD0700KTPV","3A3KKYU7P33Z3BR9PPFZ5194ZCQMWU","","null","<img src=""img/land4.png"" style=""width:200px;border:14px solid red;"">","null","","","","","","","",""
"","image-keyboard-response","161","112012","0.0-239.0","31HQ4X3T3TWOCWQ9WA9LXINIYKILSS","A3CCFD0700KTPV","3A3KKYU7P33Z3BR9PPFZ5194ZCQMWU","","286.3000000002794","img/land4.png","75","287.5","2","0","false","1","1,0.5,0.5,0.5,1,0.5,0.5,0.5,1","",""
"","html-keyboard-response","162","112314","0.0-240.0","31HQ4X3T3TWOCWQ9WA9LXINIYKILSS","A3CCFD0700KTPV","3A3KKYU7P33Z3BR9PPFZ5194ZCQMWU","","null","<img src=""img/land4.png"" style=""width:200px;border:14px solid red;"">","null","","","","","","","",""
"","image-keyboard-response","163","112446","0.0-242.0","31HQ4X3T3TWOCWQ9WA9LXINIYKILSS","A3CCFD0700KTPV","3A3KKYU7P33Z3BR9PPFZ5194ZCQMWU","","130.10000000009313","img/land5.png","75","131.5","2","1","false","2","1,0.5,0.5,0.5,1,0.5,0.5,0.5,1","",""
"","html-keyboard-response","164","112749","0.0-243.0","31HQ4X3T3TWOCWQ9WA9LXINIYKILSS","A3CCFD0700KTPV","3A3KKYU7P33Z3BR9PPFZ5194ZCQMWU","","null","<img src=""img/land5.png"" style=""width:200px; border:14px solid green;"">","null","","","","","","","",""
"","image-keyboard-response","165","112805","0.0-245.0","31HQ4X3T3TWOCWQ9WA9LXINIYKILSS","A3CCFD0700KTPV","3A3KKYU7P33Z3BR9PPFZ5194ZCQMWU","","54.3000000002794","img/land5.png","76","55.6999999997206","3","0","false","2","1,0.5,0.5,0.5,1,0.5,0.5,0.5,1","",""
"","html-keyboard-response","166","113107","0.0-246.0","31HQ4X3T3TWOCWQ9WA9LXINIYKILSS","A3CCFD0700KTPV","3A3KKYU7P33Z3BR9PPFZ5194ZCQMWU","","null","<img src=""img/land5.png"" style=""width:200px;border:14px solid red;"">","null","","","","","","","",""
"","image-keyboard-response","167","113221","0.0-248.0","31HQ4X3T3TWOCWQ9WA9LXINIYKILSS","A3CCFD0700KTPV","3A3KKYU7P33Z3BR9PPFZ5194ZCQMWU","","112","img/land2.png","76","113.70000000018626","3","1","false","3","1,0.5,0.5,0.5,1,0.5,0.5,0.5,1","",""
"","html-keyboard-response","168","113524","0.0-249.0","31HQ4X3T3TWOCWQ9WA9LXINIYKILSS","A3CCFD0700KTPV","3A3KKYU7P33Z3BR9PPFZ5194ZCQMWU","","null","<img src=""img/land2.png"" style=""width:200px; border:14px solid green;"">","null","","","","","","","",""
"","image-keyboard-response","169","113644","0.0-251.0","31HQ4X3T3TWOCWQ9WA9LXINIYKILSS","A3CCFD0700KTPV","3A3KKYU7P33Z3BR9PPFZ5194ZCQMWU","","118.29999999981374","img/land4.png","75","119.6999999997206","2","0","false","1","1,0.5,0.5,0.5,1,0.5,0.5,0.5,1","",""
"","html-keyboard-response","170","113947","0.0-252.0","31HQ4X3T3TWOCWQ9WA9LXINIYKILSS","A3CCFD0700KTPV","3A3KKYU7P33Z3BR9PPFZ5194ZCQMWU","","null","<img src=""img/land4.png"" style=""width:200px;border:14px solid red;"">","null","","","","","","","",""
"","image-keyboard-response","171","114076","0.0-254.0","31HQ4X3T3TWOCWQ9WA9LXINIYKILSS","A3CCFD0700KTPV","3A3KKYU7P33Z3BR9PPFZ5194ZCQMWU","","127.90000000037253","img/land5.png","74","129","1","0","false","2","1,0.5,0.5,0.5,1,0.5,0.5,0.5,1","",""
"","html-keyboard-response","172","114379","0.0-255.0","31HQ4X3T3TWOCWQ9WA9LXINIYKILSS","A3CCFD0700KTPV","3A3KKYU7P33Z3BR9PPFZ5194ZCQMWU","","null","<img src=""img/land5.png"" style=""width:200px;border:14px solid red;"">","null","","","","","","","",""
"","image-keyboard-response","173","114509","0.0-257.0","31HQ4X3T3TWOCWQ9WA9LXINIYKILSS","A3CCFD0700KTPV","3A3KKYU7P33Z3BR9PPFZ5194ZCQMWU","","126.8000000002794","img/land4.png","74","128.10000000009313","1","1","false","1","1,0.5,0.5,0.5,1,0.5,0.5,0.5,1","",""
"","html-keyboard-response","174","114811","0.0-258.0","31HQ4X3T3TWOCWQ9WA9LXINIYKILSS","A3CCFD0700KTPV","3A3KKYU7P33Z3BR9PPFZ5194ZCQMWU","","null","<img src=""img/land4.png"" style=""width:200px; border:14px solid green;"">","null","","","","","","","",""
"","image-keyboard-response","175","114900","0.0-260.0","31HQ4X3T3TWOCWQ9WA9LXINIYKILSS","A3CCFD0700KTPV","3A3KKYU7P33Z3BR9PPFZ5194ZCQMWU","","87.79999999981374","img/land2.png","74","89","1","1","false","3","1,0.5,0.5,0.5,1,0.5,0.5,0.5,1","",""
"","html-keyboard-response","176","115203","0.0-261.0","31HQ4X3T3TWOCWQ9WA9LXINIYKILSS","A3CCFD0700KTPV","3A3KKYU7P33Z3BR9PPFZ5194ZCQMWU","","null","<img src=""img/land2.png"" style=""width:200px; border:14px solid green;"">","null","","","","","","","",""
"","image-keyboard-response","177","115253","0.0-263.0","31HQ4X3T3TWOCWQ9WA9LXINIYKILSS","A3CCFD0700KTPV","3A3KKYU7P33Z3BR9PPFZ5194ZCQMWU","","48.60000000009313","img/land4.png","75","49.799999999813735","2","0","false","1","1,0.5,0.5,0.5,1,0.5,0.5,0.5,1","",""
"","html-keyboard-response","178","115554","0.0-264.0","31HQ4X3T3TWOCWQ9WA9LXINIYKILSS","A3CCFD0700KTPV","3A3KKYU7P33Z3BR9PPFZ5194ZCQMWU","","null","<img src=""img/land4.png"" style=""width:200px;border:14px solid red;"">","null","","","","","","","",""
"","image-keyboard-response","179","115685","0.0-266.0","31HQ4X3T3TWOCWQ9WA9LXINIYKILSS","A3CCFD0700KTPV","3A3KKYU7P33Z3BR9PPFZ5194ZCQMWU","","128.79999999981374","img/land2.png","75","130.20000000018626","2","1","false","3","1,0.5,0.5,0.5,1,0.5,0.5,0.5,1","",""
"","html-keyboard-response","180","115987","0.0-267.0","31HQ4X3T3TWOCWQ9WA9LXINIYKILSS","A3CCFD0700KTPV","3A3KKYU7P33Z3BR9PPFZ5194ZCQMWU","","null","<img src=""img/land2.png"" style=""width:200px; border:14px solid green;"">","null","","","","","","","",""
"","image-keyboard-response","181","116084","0.0-269.0","31HQ4X3T3TWOCWQ9WA9LXINIYKILSS","A3CCFD0700KTPV","3A3KKYU7P33Z3BR9PPFZ5194ZCQMWU","","95.10000000009313","img/land2.png","75","96.59999999962747","2","0","false","3","1,0.5,0.5,0.5,1,0.5,0.5,0.5,1","",""
"","html-keyboard-response","182","116387","0.0-270.0","31HQ4X3T3TWOCWQ9WA9LXINIYKILSS","A3CCFD0700KTPV","3A3KKYU7P33Z3BR9PPFZ5194ZCQMWU","","null","<img src=""img/land2.png"" style=""width:200px;border:14px solid red;"">","null","","","","","","","",""
"","html-keyboard-response","183","122496","0.0-272.0","31HQ4X3T3TWOCWQ9WA9LXINIYKILSS","A3CCFD0700KTPV","3A3KKYU7P33Z3BR9PPFZ5194ZCQMWU","","","","","","","","","","","",""
"","image-keyboard-response","184","123397","0.0-273.0","31HQ4X3T3TWOCWQ9WA9LXINIYKILSS","A3CCFD0700KTPV","3A3KKYU7P33Z3BR9PPFZ5194ZCQMWU","","898.6999999997206","img/land6.png","74","900.2000000001863","1","1","false","1","1,1,0,0,1,1,1,0,1","",""
"","html-keyboard-response","185","123699","0.0-274.0","31HQ4X3T3TWOCWQ9WA9LXINIYKILSS","A3CCFD0700KTPV","3A3KKYU7P33Z3BR9PPFZ5194ZCQMWU","","null","<img src=""img/land6.png"" style=""width:200px; border:14px solid green;"">","null","","","","","","","",""
"","image-keyboard-response","186","123797","0.0-276.0","31HQ4X3T3TWOCWQ9WA9LXINIYKILSS","A3CCFD0700KTPV","3A3KKYU7P33Z3BR9PPFZ5194ZCQMWU","","96.40000000037253","img/land6.png","74","97.60000000009313","1","1","false","1","1,1,0,0,1,1,1,0,1","",""
"","html-keyboard-response","187","124100","0.0-277.0","31HQ4X3T3TWOCWQ9WA9LXINIYKILSS","A3CCFD0700KTPV","3A3KKYU7P33Z3BR9PPFZ5194ZCQMWU","","null","<img src=""img/land6.png"" style=""width:200px; border:14px solid green;"">","null","","","","","","","",""
"","image-keyboard-response","188","124165","0.0-279.0","31HQ4X3T3TWOCWQ9WA9LXINIYKILSS","A3CCFD0700KTPV","3A3KKYU7P33Z3BR9PPFZ5194ZCQMWU","","62.89999999990687","img/land3.png","74","64.29999999981374","1","1","false","3","1,1,0,0,1,1,1,0,1","",""
"","html-keyboard-response","189","124467","0.0-280.0","31HQ4X3T3TWOCWQ9WA9LXINIYKILSS","A3CCFD0700KTPV","3A3KKYU7P33Z3BR9PPFZ5194ZCQMWU","","null","<img src=""img/land3.png"" style=""width:200px; border:14px solid green;"">","null","","","","","","","",""
"","image-keyboard-response","190","124574","0.0-282.0","31HQ4X3T3TWOCWQ9WA9LXINIYKILSS","A3CCFD0700KTPV","3A3KKYU7P33Z3BR9PPFZ5194ZCQMWU","","104.39999999990687","img/land1.png","75","105.89999999990687","2","1","false","2","1,1,0,0,1,1,1,0,1","",""
"","html-keyboard-response","191","124876","0.0-283.0","31HQ4X3T3TWOCWQ9WA9LXINIYKILSS","A3CCFD0700KTPV","3A3KKYU7P33Z3BR9PPFZ5194ZCQMWU","","null","<img src=""img/land1.png"" style=""width:200px; border:14px solid green;"">","null","","","","","","","",""
"","image-keyboard-response","192","125029","0.0-285.0","31HQ4X3T3TWOCWQ9WA9LXINIYKILSS","A3CCFD0700KTPV","3A3KKYU7P33Z3BR9PPFZ5194ZCQMWU","","151","img/land6.png","75","152.29999999981374","2","1","false","1","1,1,0,0,1,1,1,0,1","",""
"","html-keyboard-response","193","125331","0.0-286.0","31HQ4X3T3TWOCWQ9WA9LXINIYKILSS","A3CCFD0700KTPV","3A3KKYU7P33Z3BR9PPFZ5194ZCQMWU","","null","<img src=""img/land6.png"" style=""width:200px; border:14px solid green;"">","null","","","","","","","",""
"","image-keyboard-response","194","125446","0.0-288.0","31HQ4X3T3TWOCWQ9WA9LXINIYKILSS","A3CCFD0700KTPV","3A3KKYU7P33Z3BR9PPFZ5194ZCQMWU","","113.29999999981374","img/land3.png","75","114.70000000018626","2","0","false","3","1,1,0,0,1,1,1,0,1","",""
"","html-keyboard-response","195","125748","0.0-289.0","31HQ4X3T3TWOCWQ9WA9LXINIYKILSS","A3CCFD0700KTPV","3A3KKYU7P33Z3BR9PPFZ5194ZCQMWU","","null","<img src=""img/land3.png"" style=""width:200px;border:14px solid red;"">","null","","","","","","","",""
"","image-keyboard-response","196","125852","0.0-291.0","31HQ4X3T3TWOCWQ9WA9LXINIYKILSS","A3CCFD0700KTPV","3A3KKYU7P33Z3BR9PPFZ5194ZCQMWU","","103.10000000009313","img/land1.png","75","104.10000000009313","2","1","false","2","1,1,0,0,1,1,1,0,1","",""
"","html-keyboard-response","197","126154","0.0-292.0","31HQ4X3T3TWOCWQ9WA9LXINIYKILSS","A3CCFD0700KTPV","3A3KKYU7P33Z3BR9PPFZ5194ZCQMWU","","null","<img src=""img/land1.png"" style=""width:200px; border:14px solid green;"">","null","","","","","","","",""
"","image-keyboard-response","198","126316","0.0-294.0","31HQ4X3T3TWOCWQ9WA9LXINIYKILSS","A3CCFD0700KTPV","3A3KKYU7P33Z3BR9PPFZ5194ZCQMWU","","159.79999999981374","img/land1.png","76","161.1999999997206","3","1","false","2","1,1,0,0,1,1,1,0,1","",""
"","html-keyboard-response","199","126619","0.0-295.0","31HQ4X3T3TWOCWQ9WA9LXINIYKILSS","A3CCFD0700KTPV","3A3KKYU7P33Z3BR9PPFZ5194ZCQMWU","","null","<img src=""img/land1.png"" style=""width:200px; border:14px solid green;"">","null","","","","","","","",""
"","image-keyboard-response","200","126717","0.0-297.0","31HQ4X3T3TWOCWQ9WA9LXINIYKILSS","A3CCFD0700KTPV","3A3KKYU7P33Z3BR9PPFZ5194ZCQMWU","","96.89999999990687","img/land1.png","76","98.20000000018626","3","1","false","2","1,1,0,0,1,1,1,0,1","",""
"","html-keyboard-response","201","127019","0.0-298.0","31HQ4X3T3TWOCWQ9WA9LXINIYKILSS","A3CCFD0700KTPV","3A3KKYU7P33Z3BR9PPFZ5194ZCQMWU","","null","<img src=""img/land1.png"" style=""width:200px; border:14px solid green;"">","null","","","","","","","",""
"","image-keyboard-response","202","127084","0.0-300.0","31HQ4X3T3TWOCWQ9WA9LXINIYKILSS","A3CCFD0700KTPV","3A3KKYU7P33Z3BR9PPFZ5194ZCQMWU","","63.39999999990687","img/land6.png","76","64.79999999981374","3","0","false","1","1,1,0,0,1,1,1,0,1","",""
"","html-keyboard-response","203","127387","0.0-301.0","31HQ4X3T3TWOCWQ9WA9LXINIYKILSS","A3CCFD0700KTPV","3A3KKYU7P33Z3BR9PPFZ5194ZCQMWU","","null","<img src=""img/land6.png"" style=""width:200px;border:14px solid red;"">","null","","","","","","","",""
"","image-keyboard-response","204","127596","0.0-303.0","31HQ4X3T3TWOCWQ9WA9LXINIYKILSS","A3CCFD0700KTPV","3A3KKYU7P33Z3BR9PPFZ5194ZCQMWU","","208","img/land3.png","75","209.40000000037253","2","0","false","3","1,1,0,0,1,1,1,0,1","",""
"","html-keyboard-response","205","127898","0.0-304.0","31HQ4X3T3TWOCWQ9WA9LXINIYKILSS","A3CCFD0700KTPV","3A3KKYU7P33Z3BR9PPFZ5194ZCQMWU","","null","<img src=""img/land3.png"" style=""width:200px;border:14px solid red;"">","null","","","","","","","",""
"","image-keyboard-response","206","127916","0.0-306.0","31HQ4X3T3TWOCWQ9WA9LXINIYKILSS","A3CCFD0700KTPV","3A3KKYU7P33Z3BR9PPFZ5194ZCQMWU","","16.40000000037253","img/land1.png","75","17.5","2","1","false","2","1,1,0,0,1,1,1,0,1","",""
"","html-keyboard-response","207","128219","0.0-307.0","31HQ4X3T3TWOCWQ9WA9LXINIYKILSS","A3CCFD0700KTPV","3A3KKYU7P33Z3BR9PPFZ5194ZCQMWU","","null","<img src=""img/land1.png"" style=""width:200px; border:14px solid green;"">","null","","","","","","","",""
"","image-keyboard-response","208","128293","0.0-309.0","31HQ4X3T3TWOCWQ9WA9LXINIYKILSS","A3CCFD0700KTPV","3A3KKYU7P33Z3BR9PPFZ5194ZCQMWU","","72.10000000009313","img/land3.png","75","73.6999999997206","2","0","false","3","1,1,0,0,1,1,1,0,1","",""
"","html-keyboard-response","209","128596","0.0-310.0","31HQ4X3T3TWOCWQ9WA9LXINIYKILSS","A3CCFD0700KTPV","3A3KKYU7P33Z3BR9PPFZ5194ZCQMWU","","null","<img src=""img/land3.png"" style=""width:200px;border:14px solid red;"">","null","","","","","","","",""
"","image-keyboard-response","210","128678","0.0-312.0","31HQ4X3T3TWOCWQ9WA9LXINIYKILSS","A3CCFD0700KTPV","3A3KKYU7P33Z3BR9PPFZ5194ZCQMWU","","80.20000000018626","img/land3.png","75","81.6999999997206","2","0","false","3","1,1,0,0,1,1,1,0,1","",""
"","html-keyboard-response","211","128980","0.0-313.0","31HQ4X3T3TWOCWQ9WA9LXINIYKILSS","A3CCFD0700KTPV","3A3KKYU7P33Z3BR9PPFZ5194ZCQMWU","","null","<img src=""img/land3.png"" style=""width:200px;border:14px solid red;"">","null","","","","","","","",""
"","image-keyboard-response","212","129294","0.0-315.0","31HQ4X3T3TWOCWQ9WA9LXINIYKILSS","A3CCFD0700KTPV","3A3KKYU7P33Z3BR9PPFZ5194ZCQMWU","","311.20000000018626","img/land6.png","76","312.79999999981374","3","0","false","1","1,1,0,0,1,1,1,0,1","",""
"","html-keyboard-response","213","129596","0.0-316.0","31HQ4X3T3TWOCWQ9WA9LXINIYKILSS","A3CCFD0700KTPV","3A3KKYU7P33Z3BR9PPFZ5194ZCQMWU","","null","<img src=""img/land6.png"" style=""width:200px;border:14px solid red;"">","null","","","","","","","",""
"","image-keyboard-response","214","129661","0.0-318.0","31HQ4X3T3TWOCWQ9WA9LXINIYKILSS","A3CCFD0700KTPV","3A3KKYU7P33Z3BR9PPFZ5194ZCQMWU","","63.10000000009313","img/land1.png","76","64.5","3","1","false","2","1,1,0,0,1,1,1,0,1","",""
"","html-keyboard-response","215","129963","0.0-319.0","31HQ4X3T3TWOCWQ9WA9LXINIYKILSS","A3CCFD0700KTPV","3A3KKYU7P33Z3BR9PPFZ5194ZCQMWU","","null","<img src=""img/land1.png"" style=""width:200px; border:14px solid green;"">","null","","","","","","","",""
"","image-keyboard-response","216","130125","0.0-321.0","31HQ4X3T3TWOCWQ9WA9LXINIYKILSS","A3CCFD0700KTPV","3A3KKYU7P33Z3BR9PPFZ5194ZCQMWU","","159.79999999981374","img/land1.png","75","161.39999999990687","2","1","false","2","1,1,0,0,1,1,1,0,1","",""
"","html-keyboard-response","217","130427","0.0-322.0","31HQ4X3T3TWOCWQ9WA9LXINIYKILSS","A3CCFD0700KTPV","3A3KKYU7P33Z3BR9PPFZ5194ZCQMWU","","null","<img src=""img/land1.png"" style=""width:200px; border:14px solid green;"">","null","","","","","","","",""
"","image-keyboard-response","218","130476","0.0-324.0","31HQ4X3T3TWOCWQ9WA9LXINIYKILSS","A3CCFD0700KTPV","3A3KKYU7P33Z3BR9PPFZ5194ZCQMWU","","47.8000000002794","img/land6.png","74","49.10000000009313","1","1","false","1","1,1,0,0,1,1,1,0,1","",""
"","html-keyboard-response","219","130779","0.0-325.0","31HQ4X3T3TWOCWQ9WA9LXINIYKILSS","A3CCFD0700KTPV","3A3KKYU7P33Z3BR9PPFZ5194ZCQMWU","","null","<img src=""img/land6.png"" style=""width:200px; border:14px solid green;"">","null","","","","","","","",""
"","image-keyboard-response","220","130868","0.0-327.0","31HQ4X3T3TWOCWQ9WA9LXINIYKILSS","A3CCFD0700KTPV","3A3KKYU7P33Z3BR9PPFZ5194ZCQMWU","","87.39999999990687","img/land6.png","74","88.8000000002794","1","1","false","1","1,1,0,0,1,1,1,0,1","",""
"","html-keyboard-response","221","131171","0.0-328.0","31HQ4X3T3TWOCWQ9WA9LXINIYKILSS","A3CCFD0700KTPV","3A3KKYU7P33Z3BR9PPFZ5194ZCQMWU","","null","<img src=""img/land6.png"" style=""width:200px; border:14px solid green;"">","null","","","","","","","",""
"","image-keyboard-response","222","131237","0.0-330.0","31HQ4X3T3TWOCWQ9WA9LXINIYKILSS","A3CCFD0700KTPV","3A3KKYU7P33Z3BR9PPFZ5194ZCQMWU","","63.10000000009313","img/land3.png","74","65.5","1","1","false","3","1,1,0,0,1,1,1,0,1","",""
"","html-keyboard-response","223","131540","0.0-331.0","31HQ4X3T3TWOCWQ9WA9LXINIYKILSS","A3CCFD0700KTPV","3A3KKYU7P33Z3BR9PPFZ5194ZCQMWU","","null","<img src=""img/land3.png"" style=""width:200px; border:14px solid green;"">","null","","","","","","","",""
"","image-keyboard-response","224","131630","0.0-333.0","31HQ4X3T3TWOCWQ9WA9LXINIYKILSS","A3CCFD0700KTPV","3A3KKYU7P33Z3BR9PPFZ5194ZCQMWU","","87.60000000009313","img/land1.png","75","89.29999999981374","2","1","false","2","1,1,0,0,1,1,1,0,1","",""
"","html-keyboard-response","225","131932","0.0-334.0","31HQ4X3T3TWOCWQ9WA9LXINIYKILSS","A3CCFD0700KTPV","3A3KKYU7P33Z3BR9PPFZ5194ZCQMWU","","null","<img src=""img/land1.png"" style=""width:200px; border:14px solid green;"">","null","","","","","","","",""
"","image-keyboard-response","226","132022","0.0-336.0","31HQ4X3T3TWOCWQ9WA9LXINIYKILSS","A3CCFD0700KTPV","3A3KKYU7P33Z3BR9PPFZ5194ZCQMWU","","87.5","img/land1.png","74","88.90000000037253","1","0","false","2","1,1,0,0,1,1,1,0,1","",""
"","html-keyboard-response","227","132324","0.0-337.0","31HQ4X3T3TWOCWQ9WA9LXINIYKILSS","A3CCFD0700KTPV","3A3KKYU7P33Z3BR9PPFZ5194ZCQMWU","","null","<img src=""img/land1.png"" style=""width:200px;border:14px solid red;"">","null","","","","","","","",""
"","image-keyboard-response","228","132430","0.0-339.0","31HQ4X3T3TWOCWQ9WA9LXINIYKILSS","A3CCFD0700KTPV","3A3KKYU7P33Z3BR9PPFZ5194ZCQMWU","","103","img/land6.png","74","104.70000000018626","1","1","false","1","1,1,0,0,1,1,1,0,1","",""
"","html-keyboard-response","229","132733","0.0-340.0","31HQ4X3T3TWOCWQ9WA9LXINIYKILSS","A3CCFD0700KTPV","3A3KKYU7P33Z3BR9PPFZ5194ZCQMWU","","null","<img src=""img/land6.png"" style=""width:200px; border:14px solid green;"">","null","","","","","","","",""
"","image-keyboard-response","230","133293","0.0-342.0","31HQ4X3T3TWOCWQ9WA9LXINIYKILSS","A3CCFD0700KTPV","3A3KKYU7P33Z3BR9PPFZ5194ZCQMWU","","558.3000000002794","img/land6.png","74","559.6999999997206","1","1","false","1","1,1,0,0,1,1,1,0,1","",""
"","html-keyboard-response","231","133596","0.0-343.0","31HQ4X3T3TWOCWQ9WA9LXINIYKILSS","A3CCFD0700KTPV","3A3KKYU7P33Z3BR9PPFZ5194ZCQMWU","","null","<img src=""img/land6.png"" style=""width:200px; border:14px solid green;"">","null","","","","","","","",""
"","image-keyboard-response","232","133620","0.0-345.0","31HQ4X3T3TWOCWQ9WA9LXINIYKILSS","A3CCFD0700KTPV","3A3KKYU7P33Z3BR9PPFZ5194ZCQMWU","","22.399999999906868","img/land6.png","74","23.5","1","1","false","1","1,1,0,0,1,1,1,0,1","",""
"","html-keyboard-response","233","133922","0.0-346.0","31HQ4X3T3TWOCWQ9WA9LXINIYKILSS","A3CCFD0700KTPV","3A3KKYU7P33Z3BR9PPFZ5194ZCQMWU","","null","<img src=""img/land6.png"" style=""width:200px; border:14px solid green;"">","null","","","","","","","",""
"","image-keyboard-response","234","133965","0.0-348.0","31HQ4X3T3TWOCWQ9WA9LXINIYKILSS","A3CCFD0700KTPV","3A3KKYU7P33Z3BR9PPFZ5194ZCQMWU","","41.09999999962747","img/land3.png","74","42.60000000009313","1","1","false","3","1,1,0,0,1,1,1,0,1","",""
"","html-keyboard-response","235","134268","0.0-349.0","31HQ4X3T3TWOCWQ9WA9LXINIYKILSS","A3CCFD0700KTPV","3A3KKYU7P33Z3BR9PPFZ5194ZCQMWU","","null","<img src=""img/land3.png"" style=""width:200px; border:14px solid green;"">","null","","","","","","","",""
"","image-keyboard-response","236","134325","0.0-351.0","31HQ4X3T3TWOCWQ9WA9LXINIYKILSS","A3CCFD0700KTPV","3A3KKYU7P33Z3BR9PPFZ5194ZCQMWU","","55.200000000186265","img/land1.png","74","56.799999999813735","1","0","false","2","1,1,0,0,1,1,1,0,1","",""
"","html-keyboard-response","237","134628","0.0-352.0","31HQ4X3T3TWOCWQ9WA9LXINIYKILSS","A3CCFD0700KTPV","3A3KKYU7P33Z3BR9PPFZ5194ZCQMWU","","null","<img src=""img/land1.png"" style=""width:200px;border:14px solid red;"">","null","","","","","","","",""
"","image-keyboard-response","238","134685","0.0-354.0","31HQ4X3T3TWOCWQ9WA9LXINIYKILSS","A3CCFD0700KTPV","3A3KKYU7P33Z3BR9PPFZ5194ZCQMWU","","55.3000000002794","img/land6.png","74","56.799999999813735","1","1","false","1","1,1,0,0,1,1,1,0,1","",""
"","html-keyboard-response","239","134988","0.0-355.0","31HQ4X3T3TWOCWQ9WA9LXINIYKILSS","A3CCFD0700KTPV","3A3KKYU7P33Z3BR9PPFZ5194ZCQMWU","","null","<img src=""img/land6.png"" style=""width:200px; border:14px solid green;"">","null","","","","","","","",""
"","image-keyboard-response","240","135062","0.0-357.0","31HQ4X3T3TWOCWQ9WA9LXINIYKILSS","A3CCFD0700KTPV","3A3KKYU7P33Z3BR9PPFZ5194ZCQMWU","","71.70000000018626","img/land1.png","75","73.39999999990687","2","1","false","2","1,1,0,0,1,1,1,0,1","",""
"","html-keyboard-response","241","135364","0.0-358.0","31HQ4X3T3TWOCWQ9WA9LXINIYKILSS","A3CCFD0700KTPV","3A3KKYU7P33Z3BR9PPFZ5194ZCQMWU","","null","<img src=""img/land1.png"" style=""width:200px; border:14px solid green;"">","null","","","","","","","",""
"","image-keyboard-response","242","135412","0.0-360.0","31HQ4X3T3TWOCWQ9WA9LXINIYKILSS","A3CCFD0700KTPV","3A3KKYU7P33Z3BR9PPFZ5194ZCQMWU","","46.299999999813735","img/land1.png","74","47.5","1","0","false","2","1,1,0,0,1,1,1,0,1","",""
"","html-keyboard-response","243","135715","0.0-361.0","31HQ4X3T3TWOCWQ9WA9LXINIYKILSS","A3CCFD0700KTPV","3A3KKYU7P33Z3BR9PPFZ5194ZCQMWU","","null","<img src=""img/land1.png"" style=""width:200px;border:14px solid red;"">","null","","","","","","","",""
"","image-keyboard-response","244","135829","0.0-363.0","31HQ4X3T3TWOCWQ9WA9LXINIYKILSS","A3CCFD0700KTPV","3A3KKYU7P33Z3BR9PPFZ5194ZCQMWU","","112.1999999997206","img/land3.png","75","113.8000000002794","2","0","false","3","1,1,0,0,1,1,1,0,1","",""
"","html-keyboard-response","245","136131","0.0-364.0","31HQ4X3T3TWOCWQ9WA9LXINIYKILSS","A3CCFD0700KTPV","3A3KKYU7P33Z3BR9PPFZ5194ZCQMWU","","null","<img src=""img/land3.png"" style=""width:200px;border:14px solid red;"">","null","","","","","","","",""
"","image-keyboard-response","246","136342","0.0-366.0","31HQ4X3T3TWOCWQ9WA9LXINIYKILSS","A3CCFD0700KTPV","3A3KKYU7P33Z3BR9PPFZ5194ZCQMWU","","208","img/land1.png","74","209.79999999981374","1","0","false","2","1,1,0,0,1,1,1,0,1","",""
"","html-keyboard-response","247","136644","0.0-367.0","31HQ4X3T3TWOCWQ9WA9LXINIYKILSS","A3CCFD0700KTPV","3A3KKYU7P33Z3BR9PPFZ5194ZCQMWU","","null","<img src=""img/land1.png"" style=""width:200px;border:14px solid red;"">","null","","","","","","","",""
"","image-keyboard-response","248","136750","0.0-369.0","31HQ4X3T3TWOCWQ9WA9LXINIYKILSS","A3CCFD0700KTPV","3A3KKYU7P33Z3BR9PPFZ5194ZCQMWU","","103.20000000018626","img/land3.png","74","104.89999999990687","1","1","false","3","1,1,0,0,1,1,1,0,1","",""
"","html-keyboard-response","249","137052","0.0-370.0","31HQ4X3T3TWOCWQ9WA9LXINIYKILSS","A3CCFD0700KTPV","3A3KKYU7P33Z3BR9PPFZ5194ZCQMWU","","null","<img src=""img/land3.png"" style=""width:200px; border:14px solid green;"">","null","","","","","","","",""
"","image-keyboard-response","250","137109","0.0-372.0","31HQ4X3T3TWOCWQ9WA9LXINIYKILSS","A3CCFD0700KTPV","3A3KKYU7P33Z3BR9PPFZ5194ZCQMWU","","54.5","img/land6.png","76","55.90000000037253","3","0","false","1","1,1,0,0,1,1,1,0,1","",""
"","html-keyboard-response","251","137410","0.0-373.0","31HQ4X3T3TWOCWQ9WA9LXINIYKILSS","A3CCFD0700KTPV","3A3KKYU7P33Z3BR9PPFZ5194ZCQMWU","","null","<img src=""img/land6.png"" style=""width:200px;border:14px solid red;"">","null","","","","","","","",""
"","image-keyboard-response","252","137494","0.0-375.0","31HQ4X3T3TWOCWQ9WA9LXINIYKILSS","A3CCFD0700KTPV","3A3KKYU7P33Z3BR9PPFZ5194ZCQMWU","","81.8000000002794","img/land1.png","76","83.39999999990687","3","1","false","2","1,1,0,0,1,1,1,0,1","",""
"","html-keyboard-response","253","137796","0.0-376.0","31HQ4X3T3TWOCWQ9WA9LXINIYKILSS","A3CCFD0700KTPV","3A3KKYU7P33Z3BR9PPFZ5194ZCQMWU","","null","<img src=""img/land1.png"" style=""width:200px; border:14px solid green;"">","null","","","","","","","",""
"","image-keyboard-response","254","137934","0.0-378.0","31HQ4X3T3TWOCWQ9WA9LXINIYKILSS","A3CCFD0700KTPV","3A3KKYU7P33Z3BR9PPFZ5194ZCQMWU","","135.60000000009313","img/land6.png","76","136.79999999981374","3","0","false","1","1,1,0,0,1,1,1,0,1","",""
"","html-keyboard-response","255","138236","0.0-379.0","31HQ4X3T3TWOCWQ9WA9LXINIYKILSS","A3CCFD0700KTPV","3A3KKYU7P33Z3BR9PPFZ5194ZCQMWU","","null","<img src=""img/land6.png"" style=""width:200px;border:14px solid red;"">","null","","","","","","","",""
"","image-keyboard-response","256","138357","0.0-381.0","31HQ4X3T3TWOCWQ9WA9LXINIYKILSS","A3CCFD0700KTPV","3A3KKYU7P33Z3BR9PPFZ5194ZCQMWU","","119.29999999981374","img/land3.png","74","120.60000000009313","1","1","false","3","1,1,0,0,1,1,1,0,1","",""
"","html-keyboard-response","257","138659","0.0-382.0","31HQ4X3T3TWOCWQ9WA9LXINIYKILSS","A3CCFD0700KTPV","3A3KKYU7P33Z3BR9PPFZ5194ZCQMWU","","null","<img src=""img/land3.png"" style=""width:200px; border:14px solid green;"">","null","","","","","","","",""
"","image-keyboard-response","258","138733","0.0-384.0","31HQ4X3T3TWOCWQ9WA9LXINIYKILSS","A3CCFD0700KTPV","3A3KKYU7P33Z3BR9PPFZ5194ZCQMWU","","71.89999999990687","img/land6.png","74","73.20000000018626","1","1","false","1","1,1,0,0,1,1,1,0,1","",""
"","html-keyboard-response","259","139035","0.0-385.0","31HQ4X3T3TWOCWQ9WA9LXINIYKILSS","A3CCFD0700KTPV","3A3KKYU7P33Z3BR9PPFZ5194ZCQMWU","","null","<img src=""img/land6.png"" style=""width:200px; border:14px solid green;"">","null","","","","","","","",""
"","image-keyboard-response","260","139102","0.0-387.0","31HQ4X3T3TWOCWQ9WA9LXINIYKILSS","A3CCFD0700KTPV","3A3KKYU7P33Z3BR9PPFZ5194ZCQMWU","","64.6999999997206","img/land3.png","74","66","1","1","false","3","1,1,0,0,1,1,1,0,1","",""
"","html-keyboard-response","261","139405","0.0-388.0","31HQ4X3T3TWOCWQ9WA9LXINIYKILSS","A3CCFD0700KTPV","3A3KKYU7P33Z3BR9PPFZ5194ZCQMWU","","null","<img src=""img/land3.png"" style=""width:200px; border:14px solid green;"">","null","","","","","","","",""
"","image-keyboard-response","262","139502","0.0-390.0","31HQ4X3T3TWOCWQ9WA9LXINIYKILSS","A3CCFD0700KTPV","3A3KKYU7P33Z3BR9PPFZ5194ZCQMWU","","94.40000000037253","img/land3.png","74","96","1","1","false","3","1,1,0,0,1,1,1,0,1","",""
"","html-keyboard-response","263","139804","0.0-391.0","31HQ4X3T3TWOCWQ9WA9LXINIYKILSS","A3CCFD0700KTPV","3A3KKYU7P33Z3BR9PPFZ5194ZCQMWU","","null","<img src=""img/land3.png"" style=""width:200px; border:14px solid green;"">","null","","","","","","","",""
"","image-keyboard-response","264","139861","0.0-393.0","31HQ4X3T3TWOCWQ9WA9LXINIYKILSS","A3CCFD0700KTPV","3A3KKYU7P33Z3BR9PPFZ5194ZCQMWU","","54.799999999813735","img/land1.png","74","56.10000000009313","1","0","false","2","1,1,0,0,1,1,1,0,1","",""
"","html-keyboard-response","265","140164","0.0-394.0","31HQ4X3T3TWOCWQ9WA9LXINIYKILSS","A3CCFD0700KTPV","3A3KKYU7P33Z3BR9PPFZ5194ZCQMWU","","null","<img src=""img/land1.png"" style=""width:200px;border:14px solid red;"">","null","","","","","","","",""
"","image-keyboard-response","266","140301","0.0-396.0","31HQ4X3T3TWOCWQ9WA9LXINIYKILSS","A3CCFD0700KTPV","3A3KKYU7P33Z3BR9PPFZ5194ZCQMWU","","135.39999999990687","img/land1.png","74","136.5","1","0","false","2","1,1,0,0,1,1,1,0,1","",""
"","html-keyboard-response","267","140603","0.0-397.0","31HQ4X3T3TWOCWQ9WA9LXINIYKILSS","A3CCFD0700KTPV","3A3KKYU7P33Z3BR9PPFZ5194ZCQMWU","","null","<img src=""img/land1.png"" style=""width:200px;border:14px solid red;"">","null","","","","","","","",""
"","image-keyboard-response","268","140607","0.0-399.0","31HQ4X3T3TWOCWQ9WA9LXINIYKILSS","A3CCFD0700KTPV","3A3KKYU7P33Z3BR9PPFZ5194ZCQMWU","","0.2999999998137355","img/land3.png","75","2.2999999998137355","2","0","false","3","1,1,0,0,1,1,1,0,1","",""
"","html-keyboard-response","269","140910","0.0-400.0","31HQ4X3T3TWOCWQ9WA9LXINIYKILSS","A3CCFD0700KTPV","3A3KKYU7P33Z3BR9PPFZ5194ZCQMWU","","null","<img src=""img/land3.png"" style=""width:200px;border:14px solid red;"">","null","","","","","","","",""
"","image-keyboard-response","270","141077","0.0-402.0","31HQ4X3T3TWOCWQ9WA9LXINIYKILSS","A3CCFD0700KTPV","3A3KKYU7P33Z3BR9PPFZ5194ZCQMWU","","165.39999999990687","img/land3.png","75","166.79999999981374","2","0","false","3","1,1,0,0,1,1,1,0,1","",""
"","html-keyboard-response","271","141379","0.0-403.0","31HQ4X3T3TWOCWQ9WA9LXINIYKILSS","A3CCFD0700KTPV","3A3KKYU7P33Z3BR9PPFZ5194ZCQMWU","","null","<img src=""img/land3.png"" style=""width:200px;border:14px solid red;"">","null","","","","","","","",""
"","image-keyboard-response","272","141421","0.0-405.0","31HQ4X3T3TWOCWQ9WA9LXINIYKILSS","A3CCFD0700KTPV","3A3KKYU7P33Z3BR9PPFZ5194ZCQMWU","","40.89999999990687","img/land3.png","76","42","3","1","false","3","1,1,0,0,1,1,1,0,1","",""
"","html-keyboard-response","273","141724","0.0-406.0","31HQ4X3T3TWOCWQ9WA9LXINIYKILSS","A3CCFD0700KTPV","3A3KKYU7P33Z3BR9PPFZ5194ZCQMWU","","null","<img src=""img/land3.png"" style=""width:200px; border:14px solid green;"">","null","","","","","","","",""
"","image-keyboard-response","274","141838","0.0-408.0","31HQ4X3T3TWOCWQ9WA9LXINIYKILSS","A3CCFD0700KTPV","3A3KKYU7P33Z3BR9PPFZ5194ZCQMWU","","112","img/land6.png","76","113.8000000002794","3","0","false","1","1,1,0,0,1,1,1,0,1","",""
"","html-keyboard-response","275","142140","0.0-409.0","31HQ4X3T3TWOCWQ9WA9LXINIYKILSS","A3CCFD0700KTPV","3A3KKYU7P33Z3BR9PPFZ5194ZCQMWU","","null","<img src=""img/land6.png"" style=""width:200px;border:14px solid red;"">","null","","","","","","","",""
"","image-keyboard-response","276","142486","0.0-411.0","31HQ4X3T3TWOCWQ9WA9LXINIYKILSS","A3CCFD0700KTPV","3A3KKYU7P33Z3BR9PPFZ5194ZCQMWU","","343.3000000002794","img/land1.png","75","345.20000000018626","2","1","false","2","1,1,0,0,1,1,1,0,1","",""
"","html-keyboard-response","277","142788","0.0-412.0","31HQ4X3T3TWOCWQ9WA9LXINIYKILSS","A3CCFD0700KTPV","3A3KKYU7P33Z3BR9PPFZ5194ZCQMWU","","null","<img src=""img/land1.png"" style=""width:200px; border:14px solid green;"">","null","","","","","","","",""
"","image-keyboard-response","278","142829","0.0-414.0","31HQ4X3T3TWOCWQ9WA9LXINIYKILSS","A3CCFD0700KTPV","3A3KKYU7P33Z3BR9PPFZ5194ZCQMWU","","38.89999999990687","img/land1.png","74","39.89999999990687","1","0","false","2","1,1,0,0,1,1,1,0,1","",""
"","html-keyboard-response","279","143131","0.0-415.0","31HQ4X3T3TWOCWQ9WA9LXINIYKILSS","A3CCFD0700KTPV","3A3KKYU7P33Z3BR9PPFZ5194ZCQMWU","","null","<img src=""img/land1.png"" style=""width:200px;border:14px solid red;"">","null","","","","","","","",""
"","image-keyboard-response","280","143173","0.0-417.0","31HQ4X3T3TWOCWQ9WA9LXINIYKILSS","A3CCFD0700KTPV","3A3KKYU7P33Z3BR9PPFZ5194ZCQMWU","","39.89999999990687","img/land1.png","74","41.39999999990687","1","0","false","2","1,1,0,0,1,1,1,0,1","",""
"","html-keyboard-response","281","143477","0.0-418.0","31HQ4X3T3TWOCWQ9WA9LXINIYKILSS","A3CCFD0700KTPV","3A3KKYU7P33Z3BR9PPFZ5194ZCQMWU","","null","<img src=""img/land1.png"" style=""width:200px;border:14px solid red;"">","null","","","","","","","",""
"","image-keyboard-response","282","143517","0.0-420.0","31HQ4X3T3TWOCWQ9WA9LXINIYKILSS","A3CCFD0700KTPV","3A3KKYU7P33Z3BR9PPFZ5194ZCQMWU","","38.299999999813735","img/land1.png","74","39.5","1","0","false","2","1,1,0,0,1,1,1,0,1","",""
"","html-keyboard-response","283","143819","0.0-421.0","31HQ4X3T3TWOCWQ9WA9LXINIYKILSS","A3CCFD0700KTPV","3A3KKYU7P33Z3BR9PPFZ5194ZCQMWU","","null","<img src=""img/land1.png"" style=""width:200px;border:14px solid red;"">","null","","","","","","","",""
"","image-keyboard-response","284","143861","0.0-423.0","31HQ4X3T3TWOCWQ9WA9LXINIYKILSS","A3CCFD0700KTPV","3A3KKYU7P33Z3BR9PPFZ5194ZCQMWU","","39.6999999997206","img/land6.png","75","41.200000000186265","2","1","false","1","1,1,0,0,1,1,1,0,1","",""
"","html-keyboard-response","285","144164","0.0-424.0","31HQ4X3T3TWOCWQ9WA9LXINIYKILSS","A3CCFD0700KTPV","3A3KKYU7P33Z3BR9PPFZ5194ZCQMWU","","null","<img src=""img/land6.png"" style=""width:200px; border:14px solid green;"">","null","","","","","","","",""
"","image-keyboard-response","286","144310","0.0-426.0","31HQ4X3T3TWOCWQ9WA9LXINIYKILSS","A3CCFD0700KTPV","3A3KKYU7P33Z3BR9PPFZ5194ZCQMWU","","143.89999999990687","img/land3.png","75","145.60000000009313","2","0","false","3","1,1,0,0,1,1,1,0,1","",""
"","html-keyboard-response","287","144612","0.0-427.0","31HQ4X3T3TWOCWQ9WA9LXINIYKILSS","A3CCFD0700KTPV","3A3KKYU7P33Z3BR9PPFZ5194ZCQMWU","","null","<img src=""img/land3.png"" style=""width:200px;border:14px solid red;"">","null","","","","","","","",""
"","image-keyboard-response","288","144694","0.0-429.0","31HQ4X3T3TWOCWQ9WA9LXINIYKILSS","A3CCFD0700KTPV","3A3KKYU7P33Z3BR9PPFZ5194ZCQMWU","","79.40000000037253","img/land3.png","75","81","2","0","false","3","1,1,0,0,1,1,1,0,1","",""
"","html-keyboard-response","289","144997","0.0-430.0","31HQ4X3T3TWOCWQ9WA9LXINIYKILSS","A3CCFD0700KTPV","3A3KKYU7P33Z3BR9PPFZ5194ZCQMWU","","null","<img src=""img/land3.png"" style=""width:200px;border:14px solid red;"">","null","","","","","","","",""
"","image-keyboard-response","290","145086","0.0-432.0","31HQ4X3T3TWOCWQ9WA9LXINIYKILSS","A3CCFD0700KTPV","3A3KKYU7P33Z3BR9PPFZ5194ZCQMWU","","87.29999999981374","img/land3.png","74","88.89999999990687","1","1","false","3","1,1,0,0,1,1,1,0,1","",""
"","html-keyboard-response","291","145389","0.0-433.0","31HQ4X3T3TWOCWQ9WA9LXINIYKILSS","A3CCFD0700KTPV","3A3KKYU7P33Z3BR9PPFZ5194ZCQMWU","","null","<img src=""img/land3.png"" style=""width:200px; border:14px solid green;"">","null","","","","","","","",""
"","image-keyboard-response","292","145478","0.0-435.0","31HQ4X3T3TWOCWQ9WA9LXINIYKILSS","A3CCFD0700KTPV","3A3KKYU7P33Z3BR9PPFZ5194ZCQMWU","","86.8000000002794","img/land3.png","75","88.29999999981374","2","0","false","3","1,1,0,0,1,1,1,0,1","",""
"","html-keyboard-response","293","145781","0.0-436.0","31HQ4X3T3TWOCWQ9WA9LXINIYKILSS","A3CCFD0700KTPV","3A3KKYU7P33Z3BR9PPFZ5194ZCQMWU","","null","<img src=""img/land3.png"" style=""width:200px;border:14px solid red;"">","null","","","","","","","",""
"","image-keyboard-response","294","145813","0.0-438.0","31HQ4X3T3TWOCWQ9WA9LXINIYKILSS","A3CCFD0700KTPV","3A3KKYU7P33Z3BR9PPFZ5194ZCQMWU","","30","img/land1.png","74","31.300000000279397","1","0","false","2","1,1,0,0,1,1,1,0,1","",""
"","html-keyboard-response","295","146116","0.0-439.0","31HQ4X3T3TWOCWQ9WA9LXINIYKILSS","A3CCFD0700KTPV","3A3KKYU7P33Z3BR9PPFZ5194ZCQMWU","","null","<img src=""img/land1.png"" style=""width:200px;border:14px solid red;"">","null","","","","","","","",""
"","image-keyboard-response","296","146189","0.0-441.0","31HQ4X3T3TWOCWQ9WA9LXINIYKILSS","A3CCFD0700KTPV","3A3KKYU7P33Z3BR9PPFZ5194ZCQMWU","","71.1999999997206","img/land1.png","74","72.70000000018626","1","0","false","2","1,1,0,0,1,1,1,0,1","",""
"","html-keyboard-response","297","146490","0.0-442.0","31HQ4X3T3TWOCWQ9WA9LXINIYKILSS","A3CCFD0700KTPV","3A3KKYU7P33Z3BR9PPFZ5194ZCQMWU","","null","<img src=""img/land1.png"" style=""width:200px;border:14px solid red;"">","null","","","","","","","",""
"","image-keyboard-response","298","146669","0.0-444.0","31HQ4X3T3TWOCWQ9WA9LXINIYKILSS","A3CCFD0700KTPV","3A3KKYU7P33Z3BR9PPFZ5194ZCQMWU","","176.6999999997206","img/land1.png","75","178.20000000018626","2","1","false","2","1,1,0,0,1,1,1,0,1","",""
"","html-keyboard-response","299","146971","0.0-445.0","31HQ4X3T3TWOCWQ9WA9LXINIYKILSS","A3CCFD0700KTPV","3A3KKYU7P33Z3BR9PPFZ5194ZCQMWU","","null","<img src=""img/land1.png"" style=""width:200px; border:14px solid green;"">","null","","","","","","","",""
"","image-keyboard-response","300","147054","0.0-447.0","31HQ4X3T3TWOCWQ9WA9LXINIYKILSS","A3CCFD0700KTPV","3A3KKYU7P33Z3BR9PPFZ5194ZCQMWU","","80.3000000002794","img/land6.png","75","82","2","1","false","1","1,1,0,0,1,1,1,0,1","",""
"","html-keyboard-response","301","147356","0.0-448.0","31HQ4X3T3TWOCWQ9WA9LXINIYKILSS","A3CCFD0700KTPV","3A3KKYU7P33Z3BR9PPFZ5194ZCQMWU","","null","<img src=""img/land6.png"" style=""width:200px; border:14px solid green;"">","null","","","","","","","",""
"","image-keyboard-response","302","147453","0.0-450.0","31HQ4X3T3TWOCWQ9WA9LXINIYKILSS","A3CCFD0700KTPV","3A3KKYU7P33Z3BR9PPFZ5194ZCQMWU","","94.79999999981374","img/land1.png","75","96.20000000018626","2","1","false","2","1,1,0,0,1,1,1,0,1","",""
"","html-keyboard-response","303","147756","0.0-451.0","31HQ4X3T3TWOCWQ9WA9LXINIYKILSS","A3CCFD0700KTPV","3A3KKYU7P33Z3BR9PPFZ5194ZCQMWU","","null","<img src=""img/land1.png"" style=""width:200px; border:14px solid green;"">","null","","","","","","","",""
"","image-keyboard-response","304","147837","0.0-453.0","31HQ4X3T3TWOCWQ9WA9LXINIYKILSS","A3CCFD0700KTPV","3A3KKYU7P33Z3BR9PPFZ5194ZCQMWU","","78.8000000002794","img/land6.png","75","80.09999999962747","2","1","false","1","1,1,0,0,1,1,1,0,1","",""
"","html-keyboard-response","305","148139","0.0-454.0","31HQ4X3T3TWOCWQ9WA9LXINIYKILSS","A3CCFD0700KTPV","3A3KKYU7P33Z3BR9PPFZ5194ZCQMWU","","null","<img src=""img/land6.png"" style=""width:200px; border:14px solid green;"">","null","","","","","","","",""
"","image-keyboard-response","306","148230","0.0-456.0","31HQ4X3T3TWOCWQ9WA9LXINIYKILSS","A3CCFD0700KTPV","3A3KKYU7P33Z3BR9PPFZ5194ZCQMWU","","88.70000000018626","img/land6.png","75","90.5","2","1","false","1","1,1,0,0,1,1,1,0,1","",""
"","html-keyboard-response","307","148532","0.0-457.0","31HQ4X3T3TWOCWQ9WA9LXINIYKILSS","A3CCFD0700KTPV","3A3KKYU7P33Z3BR9PPFZ5194ZCQMWU","","null","<img src=""img/land6.png"" style=""width:200px; border:14px solid green;"">","null","","","","","","","",""
"","image-keyboard-response","308","148614","0.0-459.0","31HQ4X3T3TWOCWQ9WA9LXINIYKILSS","A3CCFD0700KTPV","3A3KKYU7P33Z3BR9PPFZ5194ZCQMWU","","80.1999999997206","img/land3.png","75","81.79999999981374","2","0","false","3","1,1,0,0,1,1,1,0,1","",""
"","html-keyboard-response","309","148917","0.0-460.0","31HQ4X3T3TWOCWQ9WA9LXINIYKILSS","A3CCFD0700KTPV","3A3KKYU7P33Z3BR9PPFZ5194ZCQMWU","","null","<img src=""img/land3.png"" style=""width:200px;border:14px solid red;"">","null","","","","","","","",""
"","image-keyboard-response","310","149102","0.0-462.0","31HQ4X3T3TWOCWQ9WA9LXINIYKILSS","A3CCFD0700KTPV","3A3KKYU7P33Z3BR9PPFZ5194ZCQMWU","","182.5","img/land3.png","74","183.90000000037253","1","1","false","3","1,1,0,0,1,1,1,0,1","",""
"","html-keyboard-response","311","149404","0.0-463.0","31HQ4X3T3TWOCWQ9WA9LXINIYKILSS","A3CCFD0700KTPV","3A3KKYU7P33Z3BR9PPFZ5194ZCQMWU","","null","<img src=""img/land3.png"" style=""width:200px; border:14px solid green;"">","null","","","","","","","",""
"","image-keyboard-response","312","149502","0.0-465.0","31HQ4X3T3TWOCWQ9WA9LXINIYKILSS","A3CCFD0700KTPV","3A3KKYU7P33Z3BR9PPFZ5194ZCQMWU","","96.5","img/land3.png","74","97.90000000037253","1","1","false","3","1,1,0,0,1,1,1,0,1","",""
"","html-keyboard-response","313","149804","0.0-466.0","31HQ4X3T3TWOCWQ9WA9LXINIYKILSS","A3CCFD0700KTPV","3A3KKYU7P33Z3BR9PPFZ5194ZCQMWU","","null","<img src=""img/land3.png"" style=""width:200px; border:14px solid green;"">","null","","","","","","","",""
"","image-keyboard-response","314","149878","0.0-468.0","31HQ4X3T3TWOCWQ9WA9LXINIYKILSS","A3CCFD0700KTPV","3A3KKYU7P33Z3BR9PPFZ5194ZCQMWU","","71.8000000002794","img/land3.png","74","73.5","1","1","false","3","1,1,0,0,1,1,1,0,1","",""
"","html-keyboard-response","315","150181","0.0-469.0","31HQ4X3T3TWOCWQ9WA9LXINIYKILSS","A3CCFD0700KTPV","3A3KKYU7P33Z3BR9PPFZ5194ZCQMWU","","null","<img src=""img/land3.png"" style=""width:200px; border:14px solid green;"">","null","","","","","","","",""
"","image-keyboard-response","316","150237","0.0-471.0","31HQ4X3T3TWOCWQ9WA9LXINIYKILSS","A3CCFD0700KTPV","3A3KKYU7P33Z3BR9PPFZ5194ZCQMWU","","55.10000000009313","img/land1.png","74","56.3000000002794","1","0","false","2","1,1,0,0,1,1,1,0,1","",""
"","html-keyboard-response","317","150540","0.0-472.0","31HQ4X3T3TWOCWQ9WA9LXINIYKILSS","A3CCFD0700KTPV","3A3KKYU7P33Z3BR9PPFZ5194ZCQMWU","","null","<img src=""img/land1.png"" style=""width:200px;border:14px solid red;"">","null","","","","","","","",""
"","image-keyboard-response","318","150662","0.0-474.0","31HQ4X3T3TWOCWQ9WA9LXINIYKILSS","A3CCFD0700KTPV","3A3KKYU7P33Z3BR9PPFZ5194ZCQMWU","","119.29999999981374","img/land1.png","74","120.89999999990687","1","0","false","2","1,1,0,0,1,1,1,0,1","",""
"","html-keyboard-response","319","150964","0.0-475.0","31HQ4X3T3TWOCWQ9WA9LXINIYKILSS","A3CCFD0700KTPV","3A3KKYU7P33Z3BR9PPFZ5194ZCQMWU","","null","<img src=""img/land1.png"" style=""width:200px;border:14px solid red;"">","null","","","","","","","",""
"","image-keyboard-response","320","150974","0.0-477.0","31HQ4X3T3TWOCWQ9WA9LXINIYKILSS","A3CCFD0700KTPV","3A3KKYU7P33Z3BR9PPFZ5194ZCQMWU","","7.7000000001862645","img/land3.png","75","9.399999999906868","2","0","false","3","1,1,0,0,1,1,1,0,1","",""
"","html-keyboard-response","321","151277","0.0-478.0","31HQ4X3T3TWOCWQ9WA9LXINIYKILSS","A3CCFD0700KTPV","3A3KKYU7P33Z3BR9PPFZ5194ZCQMWU","","null","<img src=""img/land3.png"" style=""width:200px;border:14px solid red;"">","null","","","","","","","",""
"","image-keyboard-response","322","151309","0.0-480.0","31HQ4X3T3TWOCWQ9WA9LXINIYKILSS","A3CCFD0700KTPV","3A3KKYU7P33Z3BR9PPFZ5194ZCQMWU","","29.700000000186265","img/land3.png","75","31.200000000186265","2","0","false","3","1,1,0,0,1,1,1,0,1","",""
"","html-keyboard-response","323","151611","0.0-481.0","31HQ4X3T3TWOCWQ9WA9LXINIYKILSS","A3CCFD0700KTPV","3A3KKYU7P33Z3BR9PPFZ5194ZCQMWU","","null","<img src=""img/land3.png"" style=""width:200px;border:14px solid red;"">","null","","","","","","","",""
"","image-keyboard-response","324","151767","0.0-483.0","31HQ4X3T3TWOCWQ9WA9LXINIYKILSS","A3CCFD0700KTPV","3A3KKYU7P33Z3BR9PPFZ5194ZCQMWU","","153.3000000002794","img/land6.png","75","155.70000000018626","2","1","false","1","1,1,0,0,1,1,1,0,1","",""
"","html-keyboard-response","325","152071","0.0-484.0","31HQ4X3T3TWOCWQ9WA9LXINIYKILSS","A3CCFD0700KTPV","3A3KKYU7P33Z3BR9PPFZ5194ZCQMWU","","null","<img src=""img/land6.png"" style=""width:200px; border:14px solid green;"">","null","","","","","","","",""
"","image-keyboard-response","326","152093","0.0-486.0","31HQ4X3T3TWOCWQ9WA9LXINIYKILSS","A3CCFD0700KTPV","3A3KKYU7P33Z3BR9PPFZ5194ZCQMWU","","20.40000000037253","img/land6.png","74","21.59999999962747","1","1","false","1","1,1,0,0,1,1,1,0,1","",""
"","html-keyboard-response","327","152396","0.0-487.0","31HQ4X3T3TWOCWQ9WA9LXINIYKILSS","A3CCFD0700KTPV","3A3KKYU7P33Z3BR9PPFZ5194ZCQMWU","","null","<img src=""img/land6.png"" style=""width:200px; border:14px solid green;"">","null","","","","","","","",""
"","image-keyboard-response","328","152453","0.0-489.0","31HQ4X3T3TWOCWQ9WA9LXINIYKILSS","A3CCFD0700KTPV","3A3KKYU7P33Z3BR9PPFZ5194ZCQMWU","","55","img/land6.png","74","56.5","1","1","false","1","1,1,0,0,1,1,1,0,1","",""
"","html-keyboard-response","329","152755","0.0-490.0","31HQ4X3T3TWOCWQ9WA9LXINIYKILSS","A3CCFD0700KTPV","3A3KKYU7P33Z3BR9PPFZ5194ZCQMWU","","null","<img src=""img/land6.png"" style=""width:200px; border:14px solid green;"">","null","","","","","","","",""
"","image-keyboard-response","330","152789","0.0-492.0","31HQ4X3T3TWOCWQ9WA9LXINIYKILSS","A3CCFD0700KTPV","3A3KKYU7P33Z3BR9PPFZ5194ZCQMWU","","32.299999999813735","img/land6.png","74","33.700000000186265","1","1","false","1","1,1,0,0,1,1,1,0,1","",""
"","html-keyboard-response","331","153093","0.0-493.0","31HQ4X3T3TWOCWQ9WA9LXINIYKILSS","A3CCFD0700KTPV","3A3KKYU7P33Z3BR9PPFZ5194ZCQMWU","","null","<img src=""img/land6.png"" style=""width:200px; border:14px solid green;"">","null","","","","","","","",""
"","image-keyboard-response","332","153166","0.0-495.0","31HQ4X3T3TWOCWQ9WA9LXINIYKILSS","A3CCFD0700KTPV","3A3KKYU7P33Z3BR9PPFZ5194ZCQMWU","","71","img/land1.png","74","72.70000000018626","1","0","false","2","1,1,0,0,1,1,1,0,1","",""
"","html-keyboard-response","333","153468","0.0-496.0","31HQ4X3T3TWOCWQ9WA9LXINIYKILSS","A3CCFD0700KTPV","3A3KKYU7P33Z3BR9PPFZ5194ZCQMWU","","null","<img src=""img/land1.png"" style=""width:200px;border:14px solid red;"">","null","","","","","","","",""
"","image-keyboard-response","334","153510","0.0-498.0","31HQ4X3T3TWOCWQ9WA9LXINIYKILSS","A3CCFD0700KTPV","3A3KKYU7P33Z3BR9PPFZ5194ZCQMWU","","39.5","img/land1.png","74","41","1","0","false","2","1,1,0,0,1,1,1,0,1","",""
"","html-keyboard-response","335","153812","0.0-499.0","31HQ4X3T3TWOCWQ9WA9LXINIYKILSS","A3CCFD0700KTPV","3A3KKYU7P33Z3BR9PPFZ5194ZCQMWU","","null","<img src=""img/land1.png"" style=""width:200px;border:14px solid red;"">","null","","","","","","","",""
"","image-keyboard-response","336","154158","0.0-501.0","31HQ4X3T3TWOCWQ9WA9LXINIYKILSS","A3CCFD0700KTPV","3A3KKYU7P33Z3BR9PPFZ5194ZCQMWU","","344.29999999981374","img/land6.png","75","346.10000000009313","2","1","false","1","1,1,0,0,1,1,1,0,1","",""
"","html-keyboard-response","337","154460","0.0-502.0","31HQ4X3T3TWOCWQ9WA9LXINIYKILSS","A3CCFD0700KTPV","3A3KKYU7P33Z3BR9PPFZ5194ZCQMWU","","null","<img src=""img/land6.png"" style=""width:200px; border:14px solid green;"">","null","","","","","","","",""
"","image-keyboard-response","338","154630","0.0-504.0","31HQ4X3T3TWOCWQ9WA9LXINIYKILSS","A3CCFD0700KTPV","3A3KKYU7P33Z3BR9PPFZ5194ZCQMWU","","167.39999999990687","img/land3.png","76","168.89999999990687","3","1","false","3","1,1,0,0,1,1,1,0,1","",""
"","html-keyboard-response","339","154932","0.0-505.0","31HQ4X3T3TWOCWQ9WA9LXINIYKILSS","A3CCFD0700KTPV","3A3KKYU7P33Z3BR9PPFZ5194ZCQMWU","","null","<img src=""img/land3.png"" style=""width:200px; border:14px solid green;"">","null","","","","","","","",""
"","image-keyboard-response","340","154941","0.0-507.0","31HQ4X3T3TWOCWQ9WA9LXINIYKILSS","A3CCFD0700KTPV","3A3KKYU7P33Z3BR9PPFZ5194ZCQMWU","","7.899999999906868","img/land6.png","76","8.699999999720603","3","0","false","1","1,1,0,0,1,1,1,0,1","",""
"","html-keyboard-response","341","155243","0.0-508.0","31HQ4X3T3TWOCWQ9WA9LXINIYKILSS","A3CCFD0700KTPV","3A3KKYU7P33Z3BR9PPFZ5194ZCQMWU","","null","<img src=""img/land6.png"" style=""width:200px;border:14px solid red;"">","null","","","","","","","",""
"","image-keyboard-response","342","155302","0.0-510.0","31HQ4X3T3TWOCWQ9WA9LXINIYKILSS","A3CCFD0700KTPV","3A3KKYU7P33Z3BR9PPFZ5194ZCQMWU","","57.10000000009313","img/land6.png","76","58.5","3","0","false","1","1,1,0,0,1,1,1,0,1","",""
"","html-keyboard-response","343","155604","0.0-511.0","31HQ4X3T3TWOCWQ9WA9LXINIYKILSS","A3CCFD0700KTPV","3A3KKYU7P33Z3BR9PPFZ5194ZCQMWU","","null","<img src=""img/land6.png"" style=""width:200px;border:14px solid red;"">","null","","","","","","","",""
"","image-keyboard-response","344","155798","0.0-513.0","31HQ4X3T3TWOCWQ9WA9LXINIYKILSS","A3CCFD0700KTPV","3A3KKYU7P33Z3BR9PPFZ5194ZCQMWU","","192.10000000009313","img/land6.png","75","193.60000000009313","2","1","false","1","1,1,0,0,1,1,1,0,1","",""
"","html-keyboard-response","345","156100","0.0-514.0","31HQ4X3T3TWOCWQ9WA9LXINIYKILSS","A3CCFD0700KTPV","3A3KKYU7P33Z3BR9PPFZ5194ZCQMWU","","null","<img src=""img/land6.png"" style=""width:200px; border:14px solid green;"">","null","","","","","","","",""
"","image-keyboard-response","346","156133","0.0-516.0","31HQ4X3T3TWOCWQ9WA9LXINIYKILSS","A3CCFD0700KTPV","3A3KKYU7P33Z3BR9PPFZ5194ZCQMWU","","31.600000000093132","img/land3.png","74","32.89999999990687","1","1","false","3","1,1,0,0,1,1,1,0,1","",""
"","html-keyboard-response","347","156436","0.0-517.0","31HQ4X3T3TWOCWQ9WA9LXINIYKILSS","A3CCFD0700KTPV","3A3KKYU7P33Z3BR9PPFZ5194ZCQMWU","","null","<img src=""img/land3.png"" style=""width:200px; border:14px solid green;"">","null","","","","","","","",""
"","image-keyboard-response","348","156494","0.0-519.0","31HQ4X3T3TWOCWQ9WA9LXINIYKILSS","A3CCFD0700KTPV","3A3KKYU7P33Z3BR9PPFZ5194ZCQMWU","","56.10000000009313","img/land1.png","74","57.90000000037253","1","0","false","2","1,1,0,0,1,1,1,0,1","",""
"","html-keyboard-response","349","156797","0.0-520.0","31HQ4X3T3TWOCWQ9WA9LXINIYKILSS","A3CCFD0700KTPV","3A3KKYU7P33Z3BR9PPFZ5194ZCQMWU","","null","<img src=""img/land1.png"" style=""width:200px;border:14px solid red;"">","null","","","","","","","",""
"","image-keyboard-response","350","156854","0.0-522.0","31HQ4X3T3TWOCWQ9WA9LXINIYKILSS","A3CCFD0700KTPV","3A3KKYU7P33Z3BR9PPFZ5194ZCQMWU","","55","img/land6.png","74","56.5","1","1","false","1","1,1,0,0,1,1,1,0,1","",""
"","html-keyboard-response","351","157156","0.0-523.0","31HQ4X3T3TWOCWQ9WA9LXINIYKILSS","A3CCFD0700KTPV","3A3KKYU7P33Z3BR9PPFZ5194ZCQMWU","","null","<img src=""img/land6.png"" style=""width:200px; border:14px solid green;"">","null","","","","","","","",""
"","image-keyboard-response","352","157286","0.0-525.0","31HQ4X3T3TWOCWQ9WA9LXINIYKILSS","A3CCFD0700KTPV","3A3KKYU7P33Z3BR9PPFZ5194ZCQMWU","","127.70000000018626","img/land6.png","74","129.5","1","1","false","1","1,1,0,0,1,1,1,0,1","",""
"","html-keyboard-response","353","157590","0.0-526.0","31HQ4X3T3TWOCWQ9WA9LXINIYKILSS","A3CCFD0700KTPV","3A3KKYU7P33Z3BR9PPFZ5194ZCQMWU","","null","<img src=""img/land6.png"" style=""width:200px; border:14px solid green;"">","null","","","","","","","",""
"","image-keyboard-response","354","157637","0.0-528.0","31HQ4X3T3TWOCWQ9WA9LXINIYKILSS","A3CCFD0700KTPV","3A3KKYU7P33Z3BR9PPFZ5194ZCQMWU","","45.6999999997206","img/land3.png","74","47.10000000009313","1","1","false","3","1,1,0,0,1,1,1,0,1","",""
"","html-keyboard-response","355","157940","0.0-529.0","31HQ4X3T3TWOCWQ9WA9LXINIYKILSS","A3CCFD0700KTPV","3A3KKYU7P33Z3BR9PPFZ5194ZCQMWU","","null","<img src=""img/land3.png"" style=""width:200px; border:14px solid green;"">","null","","","","","","","",""
"","image-keyboard-response","356","158021","0.0-531.0","31HQ4X3T3TWOCWQ9WA9LXINIYKILSS","A3CCFD0700KTPV","3A3KKYU7P33Z3BR9PPFZ5194ZCQMWU","","79.40000000037253","img/land6.png","75","81.10000000009313","2","1","false","1","1,1,0,0,1,1,1,0,1","",""
"","html-keyboard-response","357","158323","0.0-532.0","31HQ4X3T3TWOCWQ9WA9LXINIYKILSS","A3CCFD0700KTPV","3A3KKYU7P33Z3BR9PPFZ5194ZCQMWU","","null","<img src=""img/land6.png"" style=""width:200px; border:14px solid green;"">","null","","","","","","","",""
"","image-keyboard-response","358","158390","0.0-534.0","31HQ4X3T3TWOCWQ9WA9LXINIYKILSS","A3CCFD0700KTPV","3A3KKYU7P33Z3BR9PPFZ5194ZCQMWU","","65","img/land1.png","75","66.5","2","1","false","2","1,1,0,0,1,1,1,0,1","",""
"","html-keyboard-response","359","158693","0.0-535.0","31HQ4X3T3TWOCWQ9WA9LXINIYKILSS","A3CCFD0700KTPV","3A3KKYU7P33Z3BR9PPFZ5194ZCQMWU","","null","<img src=""img/land1.png"" style=""width:200px; border:14px solid green;"">","null","","","","","","","",""
"","image-keyboard-response","360","158717","0.0-537.0","31HQ4X3T3TWOCWQ9WA9LXINIYKILSS","A3CCFD0700KTPV","3A3KKYU7P33Z3BR9PPFZ5194ZCQMWU","","22.800000000279397","img/land3.png","74","23.90000000037253","1","1","false","3","1,1,0,0,1,1,1,0,1","",""
"","html-keyboard-response","361","159021","0.0-538.0","31HQ4X3T3TWOCWQ9WA9LXINIYKILSS","A3CCFD0700KTPV","3A3KKYU7P33Z3BR9PPFZ5194ZCQMWU","","null","<img src=""img/land3.png"" style=""width:200px; border:14px solid green;"">","null","","","","","","","",""
"","image-keyboard-response","362","159045","0.0-540.0","31HQ4X3T3TWOCWQ9WA9LXINIYKILSS","A3CCFD0700KTPV","3A3KKYU7P33Z3BR9PPFZ5194ZCQMWU","","22.799999999813735","img/land3.png","75","24.300000000279397","2","0","false","3","1,1,0,0,1,1,1,0,1","",""
"","html-keyboard-response","363","159348","0.0-541.0","31HQ4X3T3TWOCWQ9WA9LXINIYKILSS","A3CCFD0700KTPV","3A3KKYU7P33Z3BR9PPFZ5194ZCQMWU","","null","<img src=""img/land3.png"" style=""width:200px;border:14px solid red;"">","null","","","","","","","",""
"","instructions","364","164848","0.0-543.0","31HQ4X3T3TWOCWQ9WA9LXINIYKILSS","A3CCFD0700KTPV","3A3KKYU7P33Z3BR9PPFZ5194ZCQMWU","[{""page_index"":0,""viewing_time"":5498.5999999996275}]","5499","","","","","","","","","",""
"","survey-text","365","168156","0.0-544.0-0.0","31HQ4X3T3TWOCWQ9WA9LXINIYKILSS","A3CCFD0700KTPV","3A3KKYU7P33Z3BR9PPFZ5194ZCQMWU","","3302.5","","","","","","","","","{""Q0"":""71""}",""
"","survey-multi-choice","366","170877","0.0-544.0-1.0","31HQ4X3T3TWOCWQ9WA9LXINIYKILSS","A3CCFD0700KTPV","3A3KKYU7P33Z3BR9PPFZ5194ZCQMWU","","2717.7000000001863","","","","","","","","","{""gender"":""F""}","[0]"
"","survey-text","367","178640","0.0-545.0","31HQ4X3T3TWOCWQ9WA9LXINIYKILSS","A3CCFD0700KTPV","3A3KKYU7P33Z3BR9PPFZ5194ZCQMWU","","7757.600000000093","","","","","","","","","{""Q0"":""A3CCFD0700KTPV""}",""
