"success","trial_type","trial_index","time_elapsed","internal_node_id","assignmentID","mturkID","hitID","view_history","rt","stimulus","key_press","reactionTime","chosenAction","reward","warning","responses","question_order"
"true","fullscreen","0","8543","0.0-0.0","3I2PTA7R3UG1FATEJ68FNIV2QE3QKF","A3CGQOJC28OVGN","3KA7IJSNW6RD0BQBMEBVZRQEUE8BPK","","","","","","","","","",""
"","instructions","1","17363","0.0-1.0","3I2PTA7R3UG1FATEJ68FNIV2QE3QKF","A3CGQOJC28OVGN","3KA7IJSNW6RD0BQBMEBVZRQEUE8BPK","[{""page_index"":0,""viewing_time"":1363.800000011921},{""page_index"":1,""viewing_time"":478.69999998807907},{""page_index"":2,""viewing_time"":352.09999999403954},{""page_index"":3,""viewing_time"":216.90000000596046},{""page_index"":4,""viewing_time"":1536.300000011921},{""page_index"":5,""viewing_time"":1465.4000000059605},{""page_index"":6,""viewing_time"":1336.699999988079},{""page_index"":7,""viewing_time"":2064.800000011921}]","8816.40000000596","","","","","","","",""
"","image-keyboard-response","2","18370","0.0-2.0","3I2PTA7R3UG1FATEJ68FNIV2QE3QKF","A3CGQOJC28OVGN","3KA7IJSNW6RD0BQBMEBVZRQEUE8BPK","","","img/land3.png","","1005.9000000059605","-1","0","true","",""
"","html-keyboard-response","3","18679","0.0-3.0","3I2PTA7R3UG1FATEJ68FNIV2QE3QKF","A3CGQOJC28OVGN","3KA7IJSNW6RD0BQBMEBVZRQEUE8BPK","","null","<img src=""img/land3.png"" style=""width:200px;border:14px solid red;"">","null","","","","","",""
"","html-keyboard-response","4","22711","0.0-4.0-0.0","3I2PTA7R3UG1FATEJ68FNIV2QE3QKF","A3CGQOJC28OVGN","3KA7IJSNW6RD0BQBMEBVZRQEUE8BPK","","","","","","","","","",""
"","image-keyboard-response","5","23120","0.0-5.0","3I2PTA7R3UG1FATEJ68FNIV2QE3QKF","A3CGQOJC28OVGN","3KA7IJSNW6RD0BQBMEBVZRQEUE8BPK","","405.80000001192093","img/land3.png","74","408.2000000178814","74","0","false","",""
"","html-keyboard-response","6","23424","0.0-6.0","3I2PTA7R3UG1FATEJ68FNIV2QE3QKF","A3CGQOJC28OVGN","3KA7IJSNW6RD0BQBMEBVZRQEUE8BPK","","null","<img src=""img/land3.png"" style=""width:200px;border:14px solid red;"">","null","","","","","",""
"","image-keyboard-response","7","23863","0.0-8.0","3I2PTA7R3UG1FATEJ68FNIV2QE3QKF","A3CGQOJC28OVGN","3KA7IJSNW6RD0BQBMEBVZRQEUE8BPK","","436.19999998807907","img/land3.png","75","438.09999999403954","75","0","false","",""
"","html-keyboard-response","8","24167","0.0-9.0","3I2PTA7R3UG1FATEJ68FNIV2QE3QKF","A3CGQOJC28OVGN","3KA7IJSNW6RD0BQBMEBVZRQEUE8BPK","","null","<img src=""img/land3.png"" style=""width:200px;border:14px solid red;"">","null","","","","","",""
"","image-keyboard-response","9","24895","0.0-11.0","3I2PTA7R3UG1FATEJ68FNIV2QE3QKF","A3CGQOJC28OVGN","3KA7IJSNW6RD0BQBMEBVZRQEUE8BPK","","726.1000000238419","img/land1.png","75","727.6000000238419","75","1","false","",""
"","html-keyboard-response","10","25202","0.0-12.0","3I2PTA7R3UG1FATEJ68FNIV2QE3QKF","A3CGQOJC28OVGN","3KA7IJSNW6RD0BQBMEBVZRQEUE8BPK","","null","<img src=""img/land1.png"" style=""width:200px; border:14px solid green;"">","null","","","","","",""
"","image-keyboard-response","11","26206","0.0-14.0","3I2PTA7R3UG1FATEJ68FNIV2QE3QKF","A3CGQOJC28OVGN","3KA7IJSNW6RD0BQBMEBVZRQEUE8BPK","","","img/land6.png","","1003.0999999940395","-1","0","true","",""
"","html-keyboard-response","12","26512","0.0-15.0","3I2PTA7R3UG1FATEJ68FNIV2QE3QKF","A3CGQOJC28OVGN","3KA7IJSNW6RD0BQBMEBVZRQEUE8BPK","","null","<img src=""img/land6.png"" style=""width:200px;border:14px solid red;"">","null","","","","","",""
"","html-keyboard-response","13","27503","0.0-16.0-0.0","3I2PTA7R3UG1FATEJ68FNIV2QE3QKF","A3CGQOJC28OVGN","3KA7IJSNW6RD0BQBMEBVZRQEUE8BPK","","","","","","","","","",""
"","image-keyboard-response","14","28196","0.0-17.0","3I2PTA7R3UG1FATEJ68FNIV2QE3QKF","A3CGQOJC28OVGN","3KA7IJSNW6RD0BQBMEBVZRQEUE8BPK","","690.5999999940395","img/land1.png","75","692.3000000119209","75","1","false","",""
"","html-keyboard-response","15","28508","0.0-18.0","3I2PTA7R3UG1FATEJ68FNIV2QE3QKF","A3CGQOJC28OVGN","3KA7IJSNW6RD0BQBMEBVZRQEUE8BPK","","null","<img src=""img/land1.png"" style=""width:200px; border:14px solid green;"">","null","","","","","",""
"","image-keyboard-response","16","29094","0.0-20.0","3I2PTA7R3UG1FATEJ68FNIV2QE3QKF","A3CGQOJC28OVGN","3KA7IJSNW6RD0BQBMEBVZRQEUE8BPK","","583.3000000119209","img/land3.png","74","585.0999999940395","74","1","false","",""
"","html-keyboard-response","17","29402","0.0-21.0","3I2PTA7R3UG1FATEJ68FNIV2QE3QKF","A3CGQOJC28OVGN","3KA7IJSNW6RD0BQBMEBVZRQEUE8BPK","","null","<img src=""img/land3.png"" style=""width:200px; border:14px solid green;"">","null","","","","","",""
"","image-keyboard-response","18","29924","0.0-23.0","3I2PTA7R3UG1FATEJ68FNIV2QE3QKF","A3CGQOJC28OVGN","3KA7IJSNW6RD0BQBMEBVZRQEUE8BPK","","519.1000000238419","img/land3.png","74","520.9000000059605","74","1","false","",""
"","html-keyboard-response","19","30227","0.0-24.0","3I2PTA7R3UG1FATEJ68FNIV2QE3QKF","A3CGQOJC28OVGN","3KA7IJSNW6RD0BQBMEBVZRQEUE8BPK","","null","<img src=""img/land3.png"" style=""width:200px; border:14px solid green;"">","null","","","","","",""
"","image-keyboard-response","20","30610","0.0-26.0","3I2PTA7R3UG1FATEJ68FNIV2QE3QKF","A3CGQOJC28OVGN","3KA7IJSNW6RD0BQBMEBVZRQEUE8BPK","","380.5","img/land3.png","74","382.19999998807907","74","1","false","",""
"","html-keyboard-response","21","30924","0.0-27.0","3I2PTA7R3UG1FATEJ68FNIV2QE3QKF","A3CGQOJC28OVGN","3KA7IJSNW6RD0BQBMEBVZRQEUE8BPK","","null","<img src=""img/land3.png"" style=""width:200px; border:14px solid green;"">","null","","","","","",""
"","image-keyboard-response","22","31367","0.0-29.0","3I2PTA7R3UG1FATEJ68FNIV2QE3QKF","A3CGQOJC28OVGN","3KA7IJSNW6RD0BQBMEBVZRQEUE8BPK","","440.59999999403954","img/land6.png","75","442.5","75","1","false","",""
"","html-keyboard-response","23","31673","0.0-30.0","3I2PTA7R3UG1FATEJ68FNIV2QE3QKF","A3CGQOJC28OVGN","3KA7IJSNW6RD0BQBMEBVZRQEUE8BPK","","null","<img src=""img/land6.png"" style=""width:200px; border:14px solid green;"">","null","","","","","",""
"","image-keyboard-response","24","32059","0.0-32.0","3I2PTA7R3UG1FATEJ68FNIV2QE3QKF","A3CGQOJC28OVGN","3KA7IJSNW6RD0BQBMEBVZRQEUE8BPK","","383.7000000178814","img/land6.png","75","385.09999999403954","75","0","false","",""
"","html-keyboard-response","25","32368","0.0-33.0","3I2PTA7R3UG1FATEJ68FNIV2QE3QKF","A3CGQOJC28OVGN","3KA7IJSNW6RD0BQBMEBVZRQEUE8BPK","","null","<img src=""img/land6.png"" style=""width:200px;border:14px solid red;"">","null","","","","","",""
"","image-keyboard-response","26","32906","0.0-35.0","3I2PTA7R3UG1FATEJ68FNIV2QE3QKF","A3CGQOJC28OVGN","3KA7IJSNW6RD0BQBMEBVZRQEUE8BPK","","535.9000000059605","img/land1.png","75","537.5","75","0","false","",""
"","html-keyboard-response","27","33212","0.0-36.0","3I2PTA7R3UG1FATEJ68FNIV2QE3QKF","A3CGQOJC28OVGN","3KA7IJSNW6RD0BQBMEBVZRQEUE8BPK","","null","<img src=""img/land1.png"" style=""width:200px;border:14px solid red;"">","null","","","","","",""
"","image-keyboard-response","28","33797","0.0-38.0","3I2PTA7R3UG1FATEJ68FNIV2QE3QKF","A3CGQOJC28OVGN","3KA7IJSNW6RD0BQBMEBVZRQEUE8BPK","","582.8000000119209","img/land3.png","75","584.3000000119209","75","0","false","",""
"","html-keyboard-response","29","34104","0.0-39.0","3I2PTA7R3UG1FATEJ68FNIV2QE3QKF","A3CGQOJC28OVGN","3KA7IJSNW6RD0BQBMEBVZRQEUE8BPK","","null","<img src=""img/land3.png"" style=""width:200px;border:14px solid red;"">","null","","","","","",""
"","image-keyboard-response","30","34702","0.0-41.0","3I2PTA7R3UG1FATEJ68FNIV2QE3QKF","A3CGQOJC28OVGN","3KA7IJSNW6RD0BQBMEBVZRQEUE8BPK","","595.1000000238419","img/land1.png","75","596.5","75","0","false","",""
"","html-keyboard-response","31","35007","0.0-42.0","3I2PTA7R3UG1FATEJ68FNIV2QE3QKF","A3CGQOJC28OVGN","3KA7IJSNW6RD0BQBMEBVZRQEUE8BPK","","null","<img src=""img/land1.png"" style=""width:200px;border:14px solid red;"">","null","","","","","",""
"","image-keyboard-response","32","35582","0.0-44.0","3I2PTA7R3UG1FATEJ68FNIV2QE3QKF","A3CGQOJC28OVGN","3KA7IJSNW6RD0BQBMEBVZRQEUE8BPK","","573.3000000119209","img/land1.png","76","574.7000000178814","76","0","false","",""
"","html-keyboard-response","33","35887","0.0-45.0","3I2PTA7R3UG1FATEJ68FNIV2QE3QKF","A3CGQOJC28OVGN","3KA7IJSNW6RD0BQBMEBVZRQEUE8BPK","","null","<img src=""img/land1.png"" style=""width:200px;border:14px solid red;"">","null","","","","","",""
"","image-keyboard-response","34","36599","0.0-47.0","3I2PTA7R3UG1FATEJ68FNIV2QE3QKF","A3CGQOJC28OVGN","3KA7IJSNW6RD0BQBMEBVZRQEUE8BPK","","711.2000000178814","img/land3.png","74","712.2000000178814","74","1","false","",""
"","html-keyboard-response","35","36905","0.0-48.0","3I2PTA7R3UG1FATEJ68FNIV2QE3QKF","A3CGQOJC28OVGN","3KA7IJSNW6RD0BQBMEBVZRQEUE8BPK","","null","<img src=""img/land3.png"" style=""width:200px; border:14px solid green;"">","null","","","","","",""
"","image-keyboard-response","36","37607","0.0-50.0","3I2PTA7R3UG1FATEJ68FNIV2QE3QKF","A3CGQOJC28OVGN","3KA7IJSNW6RD0BQBMEBVZRQEUE8BPK","","701","img/land6.png","75","702.4000000059605","75","0","false","",""
"","html-keyboard-response","37","37916","0.0-51.0","3I2PTA7R3UG1FATEJ68FNIV2QE3QKF","A3CGQOJC28OVGN","3KA7IJSNW6RD0BQBMEBVZRQEUE8BPK","","null","<img src=""img/land6.png"" style=""width:200px;border:14px solid red;"">","null","","","","","",""
"","image-keyboard-response","38","38581","0.0-53.0","3I2PTA7R3UG1FATEJ68FNIV2QE3QKF","A3CGQOJC28OVGN","3KA7IJSNW6RD0BQBMEBVZRQEUE8BPK","","662.7999999821186","img/land6.png","75","664.5","75","0","false","",""
"","html-keyboard-response","39","38885","0.0-54.0","3I2PTA7R3UG1FATEJ68FNIV2QE3QKF","A3CGQOJC28OVGN","3KA7IJSNW6RD0BQBMEBVZRQEUE8BPK","","null","<img src=""img/land6.png"" style=""width:200px;border:14px solid red;"">","null","","","","","",""
"","image-keyboard-response","40","39757","0.0-56.0","3I2PTA7R3UG1FATEJ68FNIV2QE3QKF","A3CGQOJC28OVGN","3KA7IJSNW6RD0BQBMEBVZRQEUE8BPK","","869.0999999940395","img/land1.png","76","870.6999999880791","76","0","false","",""
"","html-keyboard-response","41","40064","0.0-57.0","3I2PTA7R3UG1FATEJ68FNIV2QE3QKF","A3CGQOJC28OVGN","3KA7IJSNW6RD0BQBMEBVZRQEUE8BPK","","null","<img src=""img/land1.png"" style=""width:200px;border:14px solid red;"">","null","","","","","",""
"","image-keyboard-response","42","40699","0.0-59.0","3I2PTA7R3UG1FATEJ68FNIV2QE3QKF","A3CGQOJC28OVGN","3KA7IJSNW6RD0BQBMEBVZRQEUE8BPK","","632.4000000059605","img/land3.png","74","634.2000000178814","74","1","false","",""
"","html-keyboard-response","43","41008","0.0-60.0","3I2PTA7R3UG1FATEJ68FNIV2QE3QKF","A3CGQOJC28OVGN","3KA7IJSNW6RD0BQBMEBVZRQEUE8BPK","","null","<img src=""img/land3.png"" style=""width:200px; border:14px solid green;"">","null","","","","","",""
"","image-keyboard-response","44","41572","0.0-62.0","3I2PTA7R3UG1FATEJ68FNIV2QE3QKF","A3CGQOJC28OVGN","3KA7IJSNW6RD0BQBMEBVZRQEUE8BPK","","561.2000000178814","img/land1.png","75","562.8999999761581","75","1","false","",""
"","html-keyboard-response","45","41884","0.0-63.0","3I2PTA7R3UG1FATEJ68FNIV2QE3QKF","A3CGQOJC28OVGN","3KA7IJSNW6RD0BQBMEBVZRQEUE8BPK","","null","<img src=""img/land1.png"" style=""width:200px; border:14px solid green;"">","null","","","","","",""
"","image-keyboard-response","46","42361","0.0-65.0","3I2PTA7R3UG1FATEJ68FNIV2QE3QKF","A3CGQOJC28OVGN","3KA7IJSNW6RD0BQBMEBVZRQEUE8BPK","","474.09999999403954","img/land1.png","75","475.90000000596046","75","1","false","",""
"","html-keyboard-response","47","42664","0.0-66.0","3I2PTA7R3UG1FATEJ68FNIV2QE3QKF","A3CGQOJC28OVGN","3KA7IJSNW6RD0BQBMEBVZRQEUE8BPK","","null","<img src=""img/land1.png"" style=""width:200px; border:14px solid green;"">","null","","","","","",""
"","image-keyboard-response","48","43427","0.0-68.0","3I2PTA7R3UG1FATEJ68FNIV2QE3QKF","A3CGQOJC28OVGN","3KA7IJSNW6RD0BQBMEBVZRQEUE8BPK","","760.1999999880791","img/land6.png","76","761.9000000059605","76","1","false","",""
"","html-keyboard-response","49","43747","0.0-69.0","3I2PTA7R3UG1FATEJ68FNIV2QE3QKF","A3CGQOJC28OVGN","3KA7IJSNW6RD0BQBMEBVZRQEUE8BPK","","null","<img src=""img/land6.png"" style=""width:200px; border:14px solid green;"">","null","","","","","",""
"","image-keyboard-response","50","44444","0.0-71.0","3I2PTA7R3UG1FATEJ68FNIV2QE3QKF","A3CGQOJC28OVGN","3KA7IJSNW6RD0BQBMEBVZRQEUE8BPK","","695.3000000119209","img/land1.png","75","696.5999999940395","75","0","false","",""
"","html-keyboard-response","51","44747","0.0-72.0","3I2PTA7R3UG1FATEJ68FNIV2QE3QKF","A3CGQOJC28OVGN","3KA7IJSNW6RD0BQBMEBVZRQEUE8BPK","","null","<img src=""img/land1.png"" style=""width:200px;border:14px solid red;"">","null","","","","","",""
"","image-keyboard-response","52","45426","0.0-74.0","3I2PTA7R3UG1FATEJ68FNIV2QE3QKF","A3CGQOJC28OVGN","3KA7IJSNW6RD0BQBMEBVZRQEUE8BPK","","676.9000000059605","img/land6.png","76","678.0999999940395","76","0","false","",""
"","html-keyboard-response","53","45729","0.0-75.0","3I2PTA7R3UG1FATEJ68FNIV2QE3QKF","A3CGQOJC28OVGN","3KA7IJSNW6RD0BQBMEBVZRQEUE8BPK","","null","<img src=""img/land6.png"" style=""width:200px;border:14px solid red;"">","null","","","","","",""
"","image-keyboard-response","54","46233","0.0-77.0","3I2PTA7R3UG1FATEJ68FNIV2QE3QKF","A3CGQOJC28OVGN","3KA7IJSNW6RD0BQBMEBVZRQEUE8BPK","","501.30000001192093","img/land6.png","76","503.19999998807907","76","1","false","",""
"","html-keyboard-response","55","46538","0.0-78.0","3I2PTA7R3UG1FATEJ68FNIV2QE3QKF","A3CGQOJC28OVGN","3KA7IJSNW6RD0BQBMEBVZRQEUE8BPK","","null","<img src=""img/land6.png"" style=""width:200px; border:14px solid green;"">","null","","","","","",""
"","image-keyboard-response","56","47073","0.0-80.0","3I2PTA7R3UG1FATEJ68FNIV2QE3QKF","A3CGQOJC28OVGN","3KA7IJSNW6RD0BQBMEBVZRQEUE8BPK","","533.5","img/land1.png","75","535","75","1","false","",""
"","html-keyboard-response","57","47377","0.0-81.0","3I2PTA7R3UG1FATEJ68FNIV2QE3QKF","A3CGQOJC28OVGN","3KA7IJSNW6RD0BQBMEBVZRQEUE8BPK","","null","<img src=""img/land1.png"" style=""width:200px; border:14px solid green;"">","null","","","","","",""
"","image-keyboard-response","58","47869","0.0-83.0","3I2PTA7R3UG1FATEJ68FNIV2QE3QKF","A3CGQOJC28OVGN","3KA7IJSNW6RD0BQBMEBVZRQEUE8BPK","","489.2999999821186","img/land6.png","76","490.7999999821186","76","1","false","",""
"","html-keyboard-response","59","48171","0.0-84.0","3I2PTA7R3UG1FATEJ68FNIV2QE3QKF","A3CGQOJC28OVGN","3KA7IJSNW6RD0BQBMEBVZRQEUE8BPK","","null","<img src=""img/land6.png"" style=""width:200px; border:14px solid green;"">","null","","","","","",""
"","image-keyboard-response","60","48864","0.0-86.0","3I2PTA7R3UG1FATEJ68FNIV2QE3QKF","A3CGQOJC28OVGN","3KA7IJSNW6RD0BQBMEBVZRQEUE8BPK","","691.0999999940395","img/land1.png","75","692.1999999880791","75","0","false","",""
"","html-keyboard-response","61","49168","0.0-87.0","3I2PTA7R3UG1FATEJ68FNIV2QE3QKF","A3CGQOJC28OVGN","3KA7IJSNW6RD0BQBMEBVZRQEUE8BPK","","null","<img src=""img/land1.png"" style=""width:200px;border:14px solid red;"">","null","","","","","",""
"","image-keyboard-response","62","49636","0.0-89.0","3I2PTA7R3UG1FATEJ68FNIV2QE3QKF","A3CGQOJC28OVGN","3KA7IJSNW6RD0BQBMEBVZRQEUE8BPK","","465.69999998807907","img/land6.png","76","467.2999999821186","76","1","false","",""
"","html-keyboard-response","63","49939","0.0-90.0","3I2PTA7R3UG1FATEJ68FNIV2QE3QKF","A3CGQOJC28OVGN","3KA7IJSNW6RD0BQBMEBVZRQEUE8BPK","","null","<img src=""img/land6.png"" style=""width:200px; border:14px solid green;"">","null","","","","","",""
"","image-keyboard-response","64","50669","0.0-92.0","3I2PTA7R3UG1FATEJ68FNIV2QE3QKF","A3CGQOJC28OVGN","3KA7IJSNW6RD0BQBMEBVZRQEUE8BPK","","727.8999999761581","img/land3.png","74","729.7999999821186","74","0","false","",""
"","html-keyboard-response","65","50980","0.0-93.0","3I2PTA7R3UG1FATEJ68FNIV2QE3QKF","A3CGQOJC28OVGN","3KA7IJSNW6RD0BQBMEBVZRQEUE8BPK","","null","<img src=""img/land3.png"" style=""width:200px;border:14px solid red;"">","null","","","","","",""
"","image-keyboard-response","66","51702","0.0-95.0","3I2PTA7R3UG1FATEJ68FNIV2QE3QKF","A3CGQOJC28OVGN","3KA7IJSNW6RD0BQBMEBVZRQEUE8BPK","","720.2999999821186","img/land6.png","75","722","75","1","false","",""
"","html-keyboard-response","67","52011","0.0-96.0","3I2PTA7R3UG1FATEJ68FNIV2QE3QKF","A3CGQOJC28OVGN","3KA7IJSNW6RD0BQBMEBVZRQEUE8BPK","","null","<img src=""img/land6.png"" style=""width:200px; border:14px solid green;"">","null","","","","","",""
"","image-keyboard-response","68","52809","0.0-98.0","3I2PTA7R3UG1FATEJ68FNIV2QE3QKF","A3CGQOJC28OVGN","3KA7IJSNW6RD0BQBMEBVZRQEUE8BPK","","795.3999999761581","img/land3.png","74","797.2999999821186","74","1","false","",""
"","html-keyboard-response","69","53114","0.0-99.0","3I2PTA7R3UG1FATEJ68FNIV2QE3QKF","A3CGQOJC28OVGN","3KA7IJSNW6RD0BQBMEBVZRQEUE8BPK","","null","<img src=""img/land3.png"" style=""width:200px; border:14px solid green;"">","null","","","","","",""
"","image-keyboard-response","70","53509","0.0-101.0","3I2PTA7R3UG1FATEJ68FNIV2QE3QKF","A3CGQOJC28OVGN","3KA7IJSNW6RD0BQBMEBVZRQEUE8BPK","","392.5","img/land3.png","74","394.09999999403954","74","1","false","",""
"","html-keyboard-response","71","53817","0.0-102.0","3I2PTA7R3UG1FATEJ68FNIV2QE3QKF","A3CGQOJC28OVGN","3KA7IJSNW6RD0BQBMEBVZRQEUE8BPK","","null","<img src=""img/land3.png"" style=""width:200px; border:14px solid green;"">","null","","","","","",""
"","image-keyboard-response","72","54181","0.0-104.0","3I2PTA7R3UG1FATEJ68FNIV2QE3QKF","A3CGQOJC28OVGN","3KA7IJSNW6RD0BQBMEBVZRQEUE8BPK","","361","img/land3.png","74","362.7000000178814","74","1","false","",""
"","html-keyboard-response","73","54484","0.0-105.0","3I2PTA7R3UG1FATEJ68FNIV2QE3QKF","A3CGQOJC28OVGN","3KA7IJSNW6RD0BQBMEBVZRQEUE8BPK","","null","<img src=""img/land3.png"" style=""width:200px; border:14px solid green;"">","null","","","","","",""
"","image-keyboard-response","74","55161","0.0-107.0","3I2PTA7R3UG1FATEJ68FNIV2QE3QKF","A3CGQOJC28OVGN","3KA7IJSNW6RD0BQBMEBVZRQEUE8BPK","","673.9000000059605","img/land6.png","75","675.6999999880791","75","1","false","",""
"","html-keyboard-response","75","55465","0.0-108.0","3I2PTA7R3UG1FATEJ68FNIV2QE3QKF","A3CGQOJC28OVGN","3KA7IJSNW6RD0BQBMEBVZRQEUE8BPK","","null","<img src=""img/land6.png"" style=""width:200px; border:14px solid green;"">","null","","","","","",""
"","image-keyboard-response","76","56440","0.0-110.0","3I2PTA7R3UG1FATEJ68FNIV2QE3QKF","A3CGQOJC28OVGN","3KA7IJSNW6RD0BQBMEBVZRQEUE8BPK","","972","img/land3.png","74","973.8999999761581","74","1","false","",""
"","html-keyboard-response","77","56754","0.0-111.0","3I2PTA7R3UG1FATEJ68FNIV2QE3QKF","A3CGQOJC28OVGN","3KA7IJSNW6RD0BQBMEBVZRQEUE8BPK","","null","<img src=""img/land3.png"" style=""width:200px; border:14px solid green;"">","null","","","","","",""
"","image-keyboard-response","78","57285","0.0-113.0","3I2PTA7R3UG1FATEJ68FNIV2QE3QKF","A3CGQOJC28OVGN","3KA7IJSNW6RD0BQBMEBVZRQEUE8BPK","","529.0999999940395","img/land3.png","74","530.3000000119209","74","0","false","",""
"","html-keyboard-response","79","57594","0.0-114.0","3I2PTA7R3UG1FATEJ68FNIV2QE3QKF","A3CGQOJC28OVGN","3KA7IJSNW6RD0BQBMEBVZRQEUE8BPK","","null","<img src=""img/land3.png"" style=""width:200px;border:14px solid red;"">","null","","","","","",""
"","image-keyboard-response","80","58113","0.0-116.0","3I2PTA7R3UG1FATEJ68FNIV2QE3QKF","A3CGQOJC28OVGN","3KA7IJSNW6RD0BQBMEBVZRQEUE8BPK","","518.4000000059605","img/land6.png","75","519.4000000059605","75","0","false","",""
"","html-keyboard-response","81","58421","0.0-117.0","3I2PTA7R3UG1FATEJ68FNIV2QE3QKF","A3CGQOJC28OVGN","3KA7IJSNW6RD0BQBMEBVZRQEUE8BPK","","null","<img src=""img/land6.png"" style=""width:200px;border:14px solid red;"">","null","","","","","",""
"","image-keyboard-response","82","59066","0.0-119.0","3I2PTA7R3UG1FATEJ68FNIV2QE3QKF","A3CGQOJC28OVGN","3KA7IJSNW6RD0BQBMEBVZRQEUE8BPK","","642.4000000059605","img/land6.png","75","644.1999999880791","75","1","false","",""
"","html-keyboard-response","83","59377","0.0-120.0","3I2PTA7R3UG1FATEJ68FNIV2QE3QKF","A3CGQOJC28OVGN","3KA7IJSNW6RD0BQBMEBVZRQEUE8BPK","","null","<img src=""img/land6.png"" style=""width:200px; border:14px solid green;"">","null","","","","","",""
"","image-keyboard-response","84","59924","0.0-122.0","3I2PTA7R3UG1FATEJ68FNIV2QE3QKF","A3CGQOJC28OVGN","3KA7IJSNW6RD0BQBMEBVZRQEUE8BPK","","545.4000000059605","img/land1.png","75","546.2999999821186","75","1","false","",""
"","html-keyboard-response","85","60229","0.0-123.0","3I2PTA7R3UG1FATEJ68FNIV2QE3QKF","A3CGQOJC28OVGN","3KA7IJSNW6RD0BQBMEBVZRQEUE8BPK","","null","<img src=""img/land1.png"" style=""width:200px; border:14px solid green;"">","null","","","","","",""
"","image-keyboard-response","86","60996","0.0-125.0","3I2PTA7R3UG1FATEJ68FNIV2QE3QKF","A3CGQOJC28OVGN","3KA7IJSNW6RD0BQBMEBVZRQEUE8BPK","","765.4000000059605","img/land3.png","74","766.7999999821186","74","1","false","",""
"","html-keyboard-response","87","61301","0.0-126.0","3I2PTA7R3UG1FATEJ68FNIV2QE3QKF","A3CGQOJC28OVGN","3KA7IJSNW6RD0BQBMEBVZRQEUE8BPK","","null","<img src=""img/land3.png"" style=""width:200px; border:14px solid green;"">","null","","","","","",""
"","image-keyboard-response","88","61698","0.0-128.0","3I2PTA7R3UG1FATEJ68FNIV2QE3QKF","A3CGQOJC28OVGN","3KA7IJSNW6RD0BQBMEBVZRQEUE8BPK","","395.30000001192093","img/land3.png","74","396.90000000596046","74","1","false","",""
"","html-keyboard-response","89","62006","0.0-129.0","3I2PTA7R3UG1FATEJ68FNIV2QE3QKF","A3CGQOJC28OVGN","3KA7IJSNW6RD0BQBMEBVZRQEUE8BPK","","null","<img src=""img/land3.png"" style=""width:200px; border:14px solid green;"">","null","","","","","",""
"","image-keyboard-response","90","62546","0.0-131.0","3I2PTA7R3UG1FATEJ68FNIV2QE3QKF","A3CGQOJC28OVGN","3KA7IJSNW6RD0BQBMEBVZRQEUE8BPK","","537.5999999940395","img/land6.png","75","539.2000000178814","75","0","false","",""
"","html-keyboard-response","91","62854","0.0-132.0","3I2PTA7R3UG1FATEJ68FNIV2QE3QKF","A3CGQOJC28OVGN","3KA7IJSNW6RD0BQBMEBVZRQEUE8BPK","","null","<img src=""img/land6.png"" style=""width:200px;border:14px solid red;"">","null","","","","","",""
"","image-keyboard-response","92","63152","0.0-134.0","3I2PTA7R3UG1FATEJ68FNIV2QE3QKF","A3CGQOJC28OVGN","3KA7IJSNW6RD0BQBMEBVZRQEUE8BPK","","295","img/land1.png","75","296.7999999821186","75","1","false","",""
"","html-keyboard-response","93","63459","0.0-135.0","3I2PTA7R3UG1FATEJ68FNIV2QE3QKF","A3CGQOJC28OVGN","3KA7IJSNW6RD0BQBMEBVZRQEUE8BPK","","null","<img src=""img/land1.png"" style=""width:200px; border:14px solid green;"">","null","","","","","",""
"","image-keyboard-response","94","63914","0.0-137.0","3I2PTA7R3UG1FATEJ68FNIV2QE3QKF","A3CGQOJC28OVGN","3KA7IJSNW6RD0BQBMEBVZRQEUE8BPK","","452.2999999821186","img/land1.png","75","454","75","0","false","",""
"","html-keyboard-response","95","64219","0.0-138.0","3I2PTA7R3UG1FATEJ68FNIV2QE3QKF","A3CGQOJC28OVGN","3KA7IJSNW6RD0BQBMEBVZRQEUE8BPK","","null","<img src=""img/land1.png"" style=""width:200px;border:14px solid red;"">","null","","","","","",""
"","image-keyboard-response","96","64941","0.0-140.0","3I2PTA7R3UG1FATEJ68FNIV2QE3QKF","A3CGQOJC28OVGN","3KA7IJSNW6RD0BQBMEBVZRQEUE8BPK","","719.4000000059605","img/land3.png","74","720.8000000119209","74","0","false","",""
"","html-keyboard-response","97","65248","0.0-141.0","3I2PTA7R3UG1FATEJ68FNIV2QE3QKF","A3CGQOJC28OVGN","3KA7IJSNW6RD0BQBMEBVZRQEUE8BPK","","null","<img src=""img/land3.png"" style=""width:200px;border:14px solid red;"">","null","","","","","",""
"","image-keyboard-response","98","65808","0.0-143.0","3I2PTA7R3UG1FATEJ68FNIV2QE3QKF","A3CGQOJC28OVGN","3KA7IJSNW6RD0BQBMEBVZRQEUE8BPK","","558.6000000238419","img/land1.png","75","560","75","1","false","",""
"","html-keyboard-response","99","66113","0.0-144.0","3I2PTA7R3UG1FATEJ68FNIV2QE3QKF","A3CGQOJC28OVGN","3KA7IJSNW6RD0BQBMEBVZRQEUE8BPK","","null","<img src=""img/land1.png"" style=""width:200px; border:14px solid green;"">","null","","","","","",""
"","image-keyboard-response","100","66863","0.0-146.0","3I2PTA7R3UG1FATEJ68FNIV2QE3QKF","A3CGQOJC28OVGN","3KA7IJSNW6RD0BQBMEBVZRQEUE8BPK","","747.9000000059605","img/land3.png","74","749.5999999940395","74","1","false","",""
"","html-keyboard-response","101","67166","0.0-147.0","3I2PTA7R3UG1FATEJ68FNIV2QE3QKF","A3CGQOJC28OVGN","3KA7IJSNW6RD0BQBMEBVZRQEUE8BPK","","null","<img src=""img/land3.png"" style=""width:200px; border:14px solid green;"">","null","","","","","",""
"","image-keyboard-response","102","67890","0.0-149.0","3I2PTA7R3UG1FATEJ68FNIV2QE3QKF","A3CGQOJC28OVGN","3KA7IJSNW6RD0BQBMEBVZRQEUE8BPK","","723.1999999880791","img/land1.png","75","724.1999999880791","75","1","false","",""
"","html-keyboard-response","103","68194","0.0-150.0","3I2PTA7R3UG1FATEJ68FNIV2QE3QKF","A3CGQOJC28OVGN","3KA7IJSNW6RD0BQBMEBVZRQEUE8BPK","","null","<img src=""img/land1.png"" style=""width:200px; border:14px solid green;"">","null","","","","","",""
"","image-keyboard-response","104","69215","0.0-152.0","3I2PTA7R3UG1FATEJ68FNIV2QE3QKF","A3CGQOJC28OVGN","3KA7IJSNW6RD0BQBMEBVZRQEUE8BPK","","","img/land6.png","","1020.1999999880791","-1","0","true","",""
"","html-keyboard-response","105","69521","0.0-153.0","3I2PTA7R3UG1FATEJ68FNIV2QE3QKF","A3CGQOJC28OVGN","3KA7IJSNW6RD0BQBMEBVZRQEUE8BPK","","null","<img src=""img/land6.png"" style=""width:200px;border:14px solid red;"">","null","","","","","",""
"","html-keyboard-response","106","71455","0.0-154.0-0.0","3I2PTA7R3UG1FATEJ68FNIV2QE3QKF","A3CGQOJC28OVGN","3KA7IJSNW6RD0BQBMEBVZRQEUE8BPK","","","","","","","","","",""
"","image-keyboard-response","107","72138","0.0-155.0","3I2PTA7R3UG1FATEJ68FNIV2QE3QKF","A3CGQOJC28OVGN","3KA7IJSNW6RD0BQBMEBVZRQEUE8BPK","","680.2999999821186","img/land3.png","74","682.5","74","1","false","",""
"","html-keyboard-response","108","72446","0.0-156.0","3I2PTA7R3UG1FATEJ68FNIV2QE3QKF","A3CGQOJC28OVGN","3KA7IJSNW6RD0BQBMEBVZRQEUE8BPK","","null","<img src=""img/land3.png"" style=""width:200px; border:14px solid green;"">","null","","","","","",""
"","image-keyboard-response","109","73069","0.0-158.0","3I2PTA7R3UG1FATEJ68FNIV2QE3QKF","A3CGQOJC28OVGN","3KA7IJSNW6RD0BQBMEBVZRQEUE8BPK","","621.2000000178814","img/land1.png","75","622.3999999761581","75","0","false","",""
"","html-keyboard-response","110","73373","0.0-159.0","3I2PTA7R3UG1FATEJ68FNIV2QE3QKF","A3CGQOJC28OVGN","3KA7IJSNW6RD0BQBMEBVZRQEUE8BPK","","null","<img src=""img/land1.png"" style=""width:200px;border:14px solid red;"">","null","","","","","",""
"","image-keyboard-response","111","73706","0.0-161.0","3I2PTA7R3UG1FATEJ68FNIV2QE3QKF","A3CGQOJC28OVGN","3KA7IJSNW6RD0BQBMEBVZRQEUE8BPK","","330.90000000596046","img/land1.png","75","332.30000001192093","75","0","false","",""
"","html-keyboard-response","112","74014","0.0-162.0","3I2PTA7R3UG1FATEJ68FNIV2QE3QKF","A3CGQOJC28OVGN","3KA7IJSNW6RD0BQBMEBVZRQEUE8BPK","","null","<img src=""img/land1.png"" style=""width:200px;border:14px solid red;"">","null","","","","","",""
"","image-keyboard-response","113","74554","0.0-164.0","3I2PTA7R3UG1FATEJ68FNIV2QE3QKF","A3CGQOJC28OVGN","3KA7IJSNW6RD0BQBMEBVZRQEUE8BPK","","537","img/land1.png","76","538.8000000119209","76","0","false","",""
"","html-keyboard-response","114","74861","0.0-165.0","3I2PTA7R3UG1FATEJ68FNIV2QE3QKF","A3CGQOJC28OVGN","3KA7IJSNW6RD0BQBMEBVZRQEUE8BPK","","null","<img src=""img/land1.png"" style=""width:200px;border:14px solid red;"">","null","","","","","",""
"","image-keyboard-response","115","75195","0.0-167.0","3I2PTA7R3UG1FATEJ68FNIV2QE3QKF","A3CGQOJC28OVGN","3KA7IJSNW6RD0BQBMEBVZRQEUE8BPK","","332.40000000596046","img/land1.png","75","333.30000001192093","75","0","false","",""
"","html-keyboard-response","116","75498","0.0-168.0","3I2PTA7R3UG1FATEJ68FNIV2QE3QKF","A3CGQOJC28OVGN","3KA7IJSNW6RD0BQBMEBVZRQEUE8BPK","","null","<img src=""img/land1.png"" style=""width:200px;border:14px solid red;"">","null","","","","","",""
"","image-keyboard-response","117","75789","0.0-170.0","3I2PTA7R3UG1FATEJ68FNIV2QE3QKF","A3CGQOJC28OVGN","3KA7IJSNW6RD0BQBMEBVZRQEUE8BPK","","289.19999998807907","img/land1.png","75","290.5","75","0","false","",""
"","html-keyboard-response","118","76099","0.0-171.0","3I2PTA7R3UG1FATEJ68FNIV2QE3QKF","A3CGQOJC28OVGN","3KA7IJSNW6RD0BQBMEBVZRQEUE8BPK","","null","<img src=""img/land1.png"" style=""width:200px;border:14px solid red;"">","null","","","","","",""
"","image-keyboard-response","119","76716","0.0-173.0","3I2PTA7R3UG1FATEJ68FNIV2QE3QKF","A3CGQOJC28OVGN","3KA7IJSNW6RD0BQBMEBVZRQEUE8BPK","","614.7000000178814","img/land3.png","74","616.3000000119209","74","1","false","",""
"","html-keyboard-response","120","77020","0.0-174.0","3I2PTA7R3UG1FATEJ68FNIV2QE3QKF","A3CGQOJC28OVGN","3KA7IJSNW6RD0BQBMEBVZRQEUE8BPK","","null","<img src=""img/land3.png"" style=""width:200px; border:14px solid green;"">","null","","","","","",""
"","image-keyboard-response","121","77642","0.0-176.0","3I2PTA7R3UG1FATEJ68FNIV2QE3QKF","A3CGQOJC28OVGN","3KA7IJSNW6RD0BQBMEBVZRQEUE8BPK","","619.3000000119209","img/land6.png","75","621.1999999880791","75","0","false","",""
"","html-keyboard-response","122","77949","0.0-177.0","3I2PTA7R3UG1FATEJ68FNIV2QE3QKF","A3CGQOJC28OVGN","3KA7IJSNW6RD0BQBMEBVZRQEUE8BPK","","null","<img src=""img/land6.png"" style=""width:200px;border:14px solid red;"">","null","","","","","",""
"","image-keyboard-response","123","78280","0.0-179.0","3I2PTA7R3UG1FATEJ68FNIV2QE3QKF","A3CGQOJC28OVGN","3KA7IJSNW6RD0BQBMEBVZRQEUE8BPK","","327.90000000596046","img/land6.png","75","328.90000000596046","75","1","false","",""
"","html-keyboard-response","124","78586","0.0-180.0","3I2PTA7R3UG1FATEJ68FNIV2QE3QKF","A3CGQOJC28OVGN","3KA7IJSNW6RD0BQBMEBVZRQEUE8BPK","","null","<img src=""img/land6.png"" style=""width:200px; border:14px solid green;"">","null","","","","","",""
"","image-keyboard-response","125","79312","0.0-182.0","3I2PTA7R3UG1FATEJ68FNIV2QE3QKF","A3CGQOJC28OVGN","3KA7IJSNW6RD0BQBMEBVZRQEUE8BPK","","724","img/land3.png","74","725.5","74","0","false","",""
"","html-keyboard-response","126","79624","0.0-183.0","3I2PTA7R3UG1FATEJ68FNIV2QE3QKF","A3CGQOJC28OVGN","3KA7IJSNW6RD0BQBMEBVZRQEUE8BPK","","null","<img src=""img/land3.png"" style=""width:200px;border:14px solid red;"">","null","","","","","",""
"","image-keyboard-response","127","79976","0.0-185.0","3I2PTA7R3UG1FATEJ68FNIV2QE3QKF","A3CGQOJC28OVGN","3KA7IJSNW6RD0BQBMEBVZRQEUE8BPK","","348.7000000178814","img/land3.png","74","350.30000001192093","74","0","false","",""
"","html-keyboard-response","128","80279","0.0-186.0","3I2PTA7R3UG1FATEJ68FNIV2QE3QKF","A3CGQOJC28OVGN","3KA7IJSNW6RD0BQBMEBVZRQEUE8BPK","","null","<img src=""img/land3.png"" style=""width:200px;border:14px solid red;"">","null","","","","","",""
"","image-keyboard-response","129","80559","0.0-188.0","3I2PTA7R3UG1FATEJ68FNIV2QE3QKF","A3CGQOJC28OVGN","3KA7IJSNW6RD0BQBMEBVZRQEUE8BPK","","277.80000001192093","img/land1.png","74","279.19999998807907","74","0","false","",""
"","html-keyboard-response","130","80865","0.0-189.0","3I2PTA7R3UG1FATEJ68FNIV2QE3QKF","A3CGQOJC28OVGN","3KA7IJSNW6RD0BQBMEBVZRQEUE8BPK","","null","<img src=""img/land1.png"" style=""width:200px;border:14px solid red;"">","null","","","","","",""
"","image-keyboard-response","131","81671","0.0-191.0","3I2PTA7R3UG1FATEJ68FNIV2QE3QKF","A3CGQOJC28OVGN","3KA7IJSNW6RD0BQBMEBVZRQEUE8BPK","","804.2000000178814","img/land1.png","76","805.2000000178814","76","0","false","",""
"","html-keyboard-response","132","81980","0.0-192.0","3I2PTA7R3UG1FATEJ68FNIV2QE3QKF","A3CGQOJC28OVGN","3KA7IJSNW6RD0BQBMEBVZRQEUE8BPK","","null","<img src=""img/land1.png"" style=""width:200px;border:14px solid red;"">","null","","","","","",""
"","image-keyboard-response","133","82579","0.0-194.0","3I2PTA7R3UG1FATEJ68FNIV2QE3QKF","A3CGQOJC28OVGN","3KA7IJSNW6RD0BQBMEBVZRQEUE8BPK","","596.6999999880791","img/land6.png","75","598.4000000059605","75","0","false","",""
"","html-keyboard-response","134","82884","0.0-195.0","3I2PTA7R3UG1FATEJ68FNIV2QE3QKF","A3CGQOJC28OVGN","3KA7IJSNW6RD0BQBMEBVZRQEUE8BPK","","null","<img src=""img/land6.png"" style=""width:200px;border:14px solid red;"">","null","","","","","",""
"","image-keyboard-response","135","83273","0.0-197.0","3I2PTA7R3UG1FATEJ68FNIV2QE3QKF","A3CGQOJC28OVGN","3KA7IJSNW6RD0BQBMEBVZRQEUE8BPK","","386.69999998807907","img/land1.png","74","388.40000000596046","74","1","false","",""
"","html-keyboard-response","136","83577","0.0-198.0","3I2PTA7R3UG1FATEJ68FNIV2QE3QKF","A3CGQOJC28OVGN","3KA7IJSNW6RD0BQBMEBVZRQEUE8BPK","","null","<img src=""img/land1.png"" style=""width:200px; border:14px solid green;"">","null","","","","","",""
"","image-keyboard-response","137","84590","0.0-200.0","3I2PTA7R3UG1FATEJ68FNIV2QE3QKF","A3CGQOJC28OVGN","3KA7IJSNW6RD0BQBMEBVZRQEUE8BPK","","","img/land6.png","","1012.2999999821186","-1","0","true","",""
"","html-keyboard-response","138","84893","0.0-201.0","3I2PTA7R3UG1FATEJ68FNIV2QE3QKF","A3CGQOJC28OVGN","3KA7IJSNW6RD0BQBMEBVZRQEUE8BPK","","null","<img src=""img/land6.png"" style=""width:200px;border:14px solid red;"">","null","","","","","",""
"","html-keyboard-response","139","85832","0.0-202.0-0.0","3I2PTA7R3UG1FATEJ68FNIV2QE3QKF","A3CGQOJC28OVGN","3KA7IJSNW6RD0BQBMEBVZRQEUE8BPK","","","","","","","","","",""
"","image-keyboard-response","140","86835","0.0-203.0","3I2PTA7R3UG1FATEJ68FNIV2QE3QKF","A3CGQOJC28OVGN","3KA7IJSNW6RD0BQBMEBVZRQEUE8BPK","","","img/land3.png","","1002.0999999940395","-1","0","true","",""
"","html-keyboard-response","141","87139","0.0-204.0","3I2PTA7R3UG1FATEJ68FNIV2QE3QKF","A3CGQOJC28OVGN","3KA7IJSNW6RD0BQBMEBVZRQEUE8BPK","","null","<img src=""img/land3.png"" style=""width:200px;border:14px solid red;"">","null","","","","","",""
"","html-keyboard-response","142","93655","0.0-205.0-0.0","3I2PTA7R3UG1FATEJ68FNIV2QE3QKF","A3CGQOJC28OVGN","3KA7IJSNW6RD0BQBMEBVZRQEUE8BPK","","","","","","","","","",""
"","image-keyboard-response","143","94426","0.0-206.0","3I2PTA7R3UG1FATEJ68FNIV2QE3QKF","A3CGQOJC28OVGN","3KA7IJSNW6RD0BQBMEBVZRQEUE8BPK","","767.5999999940395","img/land6.png","74","770.3999999761581","74","0","false","",""
"","html-keyboard-response","144","94733","0.0-207.0","3I2PTA7R3UG1FATEJ68FNIV2QE3QKF","A3CGQOJC28OVGN","3KA7IJSNW6RD0BQBMEBVZRQEUE8BPK","","null","<img src=""img/land6.png"" style=""width:200px;border:14px solid red;"">","null","","","","","",""
"","image-keyboard-response","145","95227","0.0-209.0","3I2PTA7R3UG1FATEJ68FNIV2QE3QKF","A3CGQOJC28OVGN","3KA7IJSNW6RD0BQBMEBVZRQEUE8BPK","","491.5","img/land1.png","76","493.30000001192093","76","0","false","",""
"","html-keyboard-response","146","95536","0.0-210.0","3I2PTA7R3UG1FATEJ68FNIV2QE3QKF","A3CGQOJC28OVGN","3KA7IJSNW6RD0BQBMEBVZRQEUE8BPK","","null","<img src=""img/land1.png"" style=""width:200px;border:14px solid red;"">","null","","","","","",""
"","image-keyboard-response","147","96105","0.0-212.0","3I2PTA7R3UG1FATEJ68FNIV2QE3QKF","A3CGQOJC28OVGN","3KA7IJSNW6RD0BQBMEBVZRQEUE8BPK","","566.5999999940395","img/land3.png","74","568.4000000059605","74","1","false","",""
"","html-keyboard-response","148","96414","0.0-213.0","3I2PTA7R3UG1FATEJ68FNIV2QE3QKF","A3CGQOJC28OVGN","3KA7IJSNW6RD0BQBMEBVZRQEUE8BPK","","null","<img src=""img/land3.png"" style=""width:200px; border:14px solid green;"">","null","","","","","",""
"","image-keyboard-response","149","96957","0.0-215.0","3I2PTA7R3UG1FATEJ68FNIV2QE3QKF","A3CGQOJC28OVGN","3KA7IJSNW6RD0BQBMEBVZRQEUE8BPK","","540.3000000119209","img/land6.png","75","541.8000000119209","75","1","false","",""
"","html-keyboard-response","150","97260","0.0-216.0","3I2PTA7R3UG1FATEJ68FNIV2QE3QKF","A3CGQOJC28OVGN","3KA7IJSNW6RD0BQBMEBVZRQEUE8BPK","","null","<img src=""img/land6.png"" style=""width:200px; border:14px solid green;"">","null","","","","","",""
"","image-keyboard-response","151","97803","0.0-218.0","3I2PTA7R3UG1FATEJ68FNIV2QE3QKF","A3CGQOJC28OVGN","3KA7IJSNW6RD0BQBMEBVZRQEUE8BPK","","542.3000000119209","img/land1.png","74","543.0999999940395","74","1","false","",""
"","html-keyboard-response","152","98114","0.0-219.0","3I2PTA7R3UG1FATEJ68FNIV2QE3QKF","A3CGQOJC28OVGN","3KA7IJSNW6RD0BQBMEBVZRQEUE8BPK","","null","<img src=""img/land1.png"" style=""width:200px; border:14px solid green;"">","null","","","","","",""
"","image-keyboard-response","153","98480","0.0-221.0","3I2PTA7R3UG1FATEJ68FNIV2QE3QKF","A3CGQOJC28OVGN","3KA7IJSNW6RD0BQBMEBVZRQEUE8BPK","","364.19999998807907","img/land1.png","74","365.59999999403954","74","0","false","",""
"","html-keyboard-response","154","98797","0.0-222.0","3I2PTA7R3UG1FATEJ68FNIV2QE3QKF","A3CGQOJC28OVGN","3KA7IJSNW6RD0BQBMEBVZRQEUE8BPK","","null","<img src=""img/land1.png"" style=""width:200px;border:14px solid red;"">","null","","","","","",""
"","image-keyboard-response","155","99278","0.0-224.0","3I2PTA7R3UG1FATEJ68FNIV2QE3QKF","A3CGQOJC28OVGN","3KA7IJSNW6RD0BQBMEBVZRQEUE8BPK","","480.40000000596046","img/land3.png","74","481.2999999821186","74","1","false","",""
"","html-keyboard-response","156","99581","0.0-225.0","3I2PTA7R3UG1FATEJ68FNIV2QE3QKF","A3CGQOJC28OVGN","3KA7IJSNW6RD0BQBMEBVZRQEUE8BPK","","null","<img src=""img/land3.png"" style=""width:200px; border:14px solid green;"">","null","","","","","",""
"","image-keyboard-response","157","99986","0.0-227.0","3I2PTA7R3UG1FATEJ68FNIV2QE3QKF","A3CGQOJC28OVGN","3KA7IJSNW6RD0BQBMEBVZRQEUE8BPK","","403.59999999403954","img/land3.png","74","404.80000001192093","74","1","false","",""
"","html-keyboard-response","158","100295","0.0-228.0","3I2PTA7R3UG1FATEJ68FNIV2QE3QKF","A3CGQOJC28OVGN","3KA7IJSNW6RD0BQBMEBVZRQEUE8BPK","","null","<img src=""img/land3.png"" style=""width:200px; border:14px solid green;"">","null","","","","","",""
"","image-keyboard-response","159","100733","0.0-230.0","3I2PTA7R3UG1FATEJ68FNIV2QE3QKF","A3CGQOJC28OVGN","3KA7IJSNW6RD0BQBMEBVZRQEUE8BPK","","435","img/land1.png","74","436.7000000178814","74","1","false","",""
"","html-keyboard-response","160","101040","0.0-231.0","3I2PTA7R3UG1FATEJ68FNIV2QE3QKF","A3CGQOJC28OVGN","3KA7IJSNW6RD0BQBMEBVZRQEUE8BPK","","null","<img src=""img/land1.png"" style=""width:200px; border:14px solid green;"">","null","","","","","",""
"","image-keyboard-response","161","101526","0.0-233.0","3I2PTA7R3UG1FATEJ68FNIV2QE3QKF","A3CGQOJC28OVGN","3KA7IJSNW6RD0BQBMEBVZRQEUE8BPK","","483.09999999403954","img/land6.png","74","484.80000001192093","74","0","false","",""
"","html-keyboard-response","162","101829","0.0-234.0","3I2PTA7R3UG1FATEJ68FNIV2QE3QKF","A3CGQOJC28OVGN","3KA7IJSNW6RD0BQBMEBVZRQEUE8BPK","","null","<img src=""img/land6.png"" style=""width:200px;border:14px solid red;"">","null","","","","","",""
"","image-keyboard-response","163","102378","0.0-236.0","3I2PTA7R3UG1FATEJ68FNIV2QE3QKF","A3CGQOJC28OVGN","3KA7IJSNW6RD0BQBMEBVZRQEUE8BPK","","546.4000000059605","img/land6.png","75","548.2000000178814","75","0","false","",""
"","html-keyboard-response","164","102684","0.0-237.0","3I2PTA7R3UG1FATEJ68FNIV2QE3QKF","A3CGQOJC28OVGN","3KA7IJSNW6RD0BQBMEBVZRQEUE8BPK","","null","<img src=""img/land6.png"" style=""width:200px;border:14px solid red;"">","null","","","","","",""
"","image-keyboard-response","165","103046","0.0-239.0","3I2PTA7R3UG1FATEJ68FNIV2QE3QKF","A3CGQOJC28OVGN","3KA7IJSNW6RD0BQBMEBVZRQEUE8BPK","","359.59999999403954","img/land6.png","75","361.40000000596046","75","1","false","",""
"","html-keyboard-response","166","103353","0.0-240.0","3I2PTA7R3UG1FATEJ68FNIV2QE3QKF","A3CGQOJC28OVGN","3KA7IJSNW6RD0BQBMEBVZRQEUE8BPK","","null","<img src=""img/land6.png"" style=""width:200px; border:14px solid green;"">","null","","","","","",""
"","image-keyboard-response","167","103778","0.0-242.0","3I2PTA7R3UG1FATEJ68FNIV2QE3QKF","A3CGQOJC28OVGN","3KA7IJSNW6RD0BQBMEBVZRQEUE8BPK","","421.90000000596046","img/land6.png","75","423.80000001192093","75","1","false","",""
"","html-keyboard-response","168","104094","0.0-243.0","3I2PTA7R3UG1FATEJ68FNIV2QE3QKF","A3CGQOJC28OVGN","3KA7IJSNW6RD0BQBMEBVZRQEUE8BPK","","null","<img src=""img/land6.png"" style=""width:200px; border:14px solid green;"">","null","","","","","",""
"","image-keyboard-response","169","104636","0.0-245.0","3I2PTA7R3UG1FATEJ68FNIV2QE3QKF","A3CGQOJC28OVGN","3KA7IJSNW6RD0BQBMEBVZRQEUE8BPK","","539.6000000238419","img/land3.png","74","540.9000000059605","74","0","false","",""
"","html-keyboard-response","170","104942","0.0-246.0","3I2PTA7R3UG1FATEJ68FNIV2QE3QKF","A3CGQOJC28OVGN","3KA7IJSNW6RD0BQBMEBVZRQEUE8BPK","","null","<img src=""img/land3.png"" style=""width:200px;border:14px solid red;"">","null","","","","","",""
"","image-keyboard-response","171","105470","0.0-248.0","3I2PTA7R3UG1FATEJ68FNIV2QE3QKF","A3CGQOJC28OVGN","3KA7IJSNW6RD0BQBMEBVZRQEUE8BPK","","526.0999999940395","img/land6.png","75","527.4000000059605","75","1","false","",""
"","html-keyboard-response","172","105775","0.0-249.0","3I2PTA7R3UG1FATEJ68FNIV2QE3QKF","A3CGQOJC28OVGN","3KA7IJSNW6RD0BQBMEBVZRQEUE8BPK","","null","<img src=""img/land6.png"" style=""width:200px; border:14px solid green;"">","null","","","","","",""
"","image-keyboard-response","173","106325","0.0-251.0","3I2PTA7R3UG1FATEJ68FNIV2QE3QKF","A3CGQOJC28OVGN","3KA7IJSNW6RD0BQBMEBVZRQEUE8BPK","","548.6999999880791","img/land3.png","74","550.1999999880791","74","0","false","",""
"","html-keyboard-response","174","106631","0.0-252.0","3I2PTA7R3UG1FATEJ68FNIV2QE3QKF","A3CGQOJC28OVGN","3KA7IJSNW6RD0BQBMEBVZRQEUE8BPK","","null","<img src=""img/land3.png"" style=""width:200px;border:14px solid red;"">","null","","","","","",""
"","image-keyboard-response","175","107303","0.0-254.0","3I2PTA7R3UG1FATEJ68FNIV2QE3QKF","A3CGQOJC28OVGN","3KA7IJSNW6RD0BQBMEBVZRQEUE8BPK","","668.9000000059605","img/land6.png","75","670.6999999880791","75","1","false","",""
"","html-keyboard-response","176","107607","0.0-255.0","3I2PTA7R3UG1FATEJ68FNIV2QE3QKF","A3CGQOJC28OVGN","3KA7IJSNW6RD0BQBMEBVZRQEUE8BPK","","null","<img src=""img/land6.png"" style=""width:200px; border:14px solid green;"">","null","","","","","",""
"","image-keyboard-response","177","108081","0.0-257.0","3I2PTA7R3UG1FATEJ68FNIV2QE3QKF","A3CGQOJC28OVGN","3KA7IJSNW6RD0BQBMEBVZRQEUE8BPK","","472.5","img/land1.png","75","473.5","75","1","false","",""
"","html-keyboard-response","178","108383","0.0-258.0","3I2PTA7R3UG1FATEJ68FNIV2QE3QKF","A3CGQOJC28OVGN","3KA7IJSNW6RD0BQBMEBVZRQEUE8BPK","","null","<img src=""img/land1.png"" style=""width:200px; border:14px solid green;"">","null","","","","","",""
"","image-keyboard-response","179","108819","0.0-260.0","3I2PTA7R3UG1FATEJ68FNIV2QE3QKF","A3CGQOJC28OVGN","3KA7IJSNW6RD0BQBMEBVZRQEUE8BPK","","433.80000001192093","img/land6.png","74","434.90000000596046","74","0","false","",""
"","html-keyboard-response","180","109134","0.0-261.0","3I2PTA7R3UG1FATEJ68FNIV2QE3QKF","A3CGQOJC28OVGN","3KA7IJSNW6RD0BQBMEBVZRQEUE8BPK","","null","<img src=""img/land6.png"" style=""width:200px;border:14px solid red;"">","null","","","","","",""
"","image-keyboard-response","181","109479","0.0-263.0","3I2PTA7R3UG1FATEJ68FNIV2QE3QKF","A3CGQOJC28OVGN","3KA7IJSNW6RD0BQBMEBVZRQEUE8BPK","","343.2000000178814","img/land6.png","75","345","75","1","false","",""
"","html-keyboard-response","182","109784","0.0-264.0","3I2PTA7R3UG1FATEJ68FNIV2QE3QKF","A3CGQOJC28OVGN","3KA7IJSNW6RD0BQBMEBVZRQEUE8BPK","","null","<img src=""img/land6.png"" style=""width:200px; border:14px solid green;"">","null","","","","","",""
"","image-keyboard-response","183","110390","0.0-266.0","3I2PTA7R3UG1FATEJ68FNIV2QE3QKF","A3CGQOJC28OVGN","3KA7IJSNW6RD0BQBMEBVZRQEUE8BPK","","603.7000000178814","img/land3.png","74","605.3000000119209","74","1","false","",""
"","html-keyboard-response","184","110704","0.0-267.0","3I2PTA7R3UG1FATEJ68FNIV2QE3QKF","A3CGQOJC28OVGN","3KA7IJSNW6RD0BQBMEBVZRQEUE8BPK","","null","<img src=""img/land3.png"" style=""width:200px; border:14px solid green;"">","null","","","","","",""
"","image-keyboard-response","185","111405","0.0-269.0","3I2PTA7R3UG1FATEJ68FNIV2QE3QKF","A3CGQOJC28OVGN","3KA7IJSNW6RD0BQBMEBVZRQEUE8BPK","","698.0999999940395","img/land1.png","75","699.6999999880791","75","1","false","",""
"","html-keyboard-response","186","111714","0.0-270.0","3I2PTA7R3UG1FATEJ68FNIV2QE3QKF","A3CGQOJC28OVGN","3KA7IJSNW6RD0BQBMEBVZRQEUE8BPK","","null","<img src=""img/land1.png"" style=""width:200px; border:14px solid green;"">","null","","","","","",""
"","html-keyboard-response","187","114649","0.0-272.0","3I2PTA7R3UG1FATEJ68FNIV2QE3QKF","A3CGQOJC28OVGN","3KA7IJSNW6RD0BQBMEBVZRQEUE8BPK","","","","","","","","","",""
"","image-keyboard-response","188","115391","0.0-273.0","3I2PTA7R3UG1FATEJ68FNIV2QE3QKF","A3CGQOJC28OVGN","3KA7IJSNW6RD0BQBMEBVZRQEUE8BPK","","739.8999999761581","img/land8.png","75","741.8999999761581","75","1","false","",""
"","html-keyboard-response","189","115701","0.0-274.0","3I2PTA7R3UG1FATEJ68FNIV2QE3QKF","A3CGQOJC28OVGN","3KA7IJSNW6RD0BQBMEBVZRQEUE8BPK","","null","<img src=""img/land8.png"" style=""width:200px; border:14px solid green;"">","null","","","","","",""
"","image-keyboard-response","190","116306","0.0-276.0","3I2PTA7R3UG1FATEJ68FNIV2QE3QKF","A3CGQOJC28OVGN","3KA7IJSNW6RD0BQBMEBVZRQEUE8BPK","","603.3999999761581","img/land2.png","75","604.5","75","1","false","",""
"","html-keyboard-response","191","116609","0.0-277.0","3I2PTA7R3UG1FATEJ68FNIV2QE3QKF","A3CGQOJC28OVGN","3KA7IJSNW6RD0BQBMEBVZRQEUE8BPK","","null","<img src=""img/land2.png"" style=""width:200px; border:14px solid green;"">","null","","","","","",""
"","image-keyboard-response","192","117154","0.0-279.0","3I2PTA7R3UG1FATEJ68FNIV2QE3QKF","A3CGQOJC28OVGN","3KA7IJSNW6RD0BQBMEBVZRQEUE8BPK","","543.5999999940395","img/land2.png","75","544.9000000059605","75","1","false","",""
"","html-keyboard-response","193","117456","0.0-280.0","3I2PTA7R3UG1FATEJ68FNIV2QE3QKF","A3CGQOJC28OVGN","3KA7IJSNW6RD0BQBMEBVZRQEUE8BPK","","null","<img src=""img/land2.png"" style=""width:200px; border:14px solid green;"">","null","","","","","",""
"","image-keyboard-response","194","117963","0.0-282.0","3I2PTA7R3UG1FATEJ68FNIV2QE3QKF","A3CGQOJC28OVGN","3KA7IJSNW6RD0BQBMEBVZRQEUE8BPK","","505.19999998807907","img/land9.png","75","506.60000002384186","75","0","false","",""
"","html-keyboard-response","195","118267","0.0-283.0","3I2PTA7R3UG1FATEJ68FNIV2QE3QKF","A3CGQOJC28OVGN","3KA7IJSNW6RD0BQBMEBVZRQEUE8BPK","","null","<img src=""img/land9.png"" style=""width:200px;border:14px solid red;"">","null","","","","","",""
"","image-keyboard-response","196","119004","0.0-285.0","3I2PTA7R3UG1FATEJ68FNIV2QE3QKF","A3CGQOJC28OVGN","3KA7IJSNW6RD0BQBMEBVZRQEUE8BPK","","734","img/land8.png","75","735.6999999880791","75","0","false","",""
"","html-keyboard-response","197","119311","0.0-286.0","3I2PTA7R3UG1FATEJ68FNIV2QE3QKF","A3CGQOJC28OVGN","3KA7IJSNW6RD0BQBMEBVZRQEUE8BPK","","null","<img src=""img/land8.png"" style=""width:200px;border:14px solid red;"">","null","","","","","",""
"","image-keyboard-response","198","119806","0.0-288.0","3I2PTA7R3UG1FATEJ68FNIV2QE3QKF","A3CGQOJC28OVGN","3KA7IJSNW6RD0BQBMEBVZRQEUE8BPK","","492.80000001192093","img/land9.png","75","494.60000002384186","75","1","false","",""
"","html-keyboard-response","199","120121","0.0-289.0","3I2PTA7R3UG1FATEJ68FNIV2QE3QKF","A3CGQOJC28OVGN","3KA7IJSNW6RD0BQBMEBVZRQEUE8BPK","","null","<img src=""img/land9.png"" style=""width:200px; border:14px solid green;"">","null","","","","","",""
"","image-keyboard-response","200","120500","0.0-291.0","3I2PTA7R3UG1FATEJ68FNIV2QE3QKF","A3CGQOJC28OVGN","3KA7IJSNW6RD0BQBMEBVZRQEUE8BPK","","375.80000001192093","img/land9.png","75","377.80000001192093","75","1","false","",""
"","html-keyboard-response","201","120817","0.0-292.0","3I2PTA7R3UG1FATEJ68FNIV2QE3QKF","A3CGQOJC28OVGN","3KA7IJSNW6RD0BQBMEBVZRQEUE8BPK","","null","<img src=""img/land9.png"" style=""width:200px; border:14px solid green;"">","null","","","","","",""
"","image-keyboard-response","202","121451","0.0-294.0","3I2PTA7R3UG1FATEJ68FNIV2QE3QKF","A3CGQOJC28OVGN","3KA7IJSNW6RD0BQBMEBVZRQEUE8BPK","","632.7000000178814","img/land8.png","76","634.2000000178814","76","1","false","",""
"","html-keyboard-response","203","121758","0.0-295.0","3I2PTA7R3UG1FATEJ68FNIV2QE3QKF","A3CGQOJC28OVGN","3KA7IJSNW6RD0BQBMEBVZRQEUE8BPK","","null","<img src=""img/land8.png"" style=""width:200px; border:14px solid green;"">","null","","","","","",""
"","image-keyboard-response","204","122250","0.0-297.0","3I2PTA7R3UG1FATEJ68FNIV2QE3QKF","A3CGQOJC28OVGN","3KA7IJSNW6RD0BQBMEBVZRQEUE8BPK","","488.80000001192093","img/land8.png","76","490.60000002384186","76","0","false","",""
"","html-keyboard-response","205","122559","0.0-298.0","3I2PTA7R3UG1FATEJ68FNIV2QE3QKF","A3CGQOJC28OVGN","3KA7IJSNW6RD0BQBMEBVZRQEUE8BPK","","null","<img src=""img/land8.png"" style=""width:200px;border:14px solid red;"">","null","","","","","",""
"","image-keyboard-response","206","123014","0.0-300.0","3I2PTA7R3UG1FATEJ68FNIV2QE3QKF","A3CGQOJC28OVGN","3KA7IJSNW6RD0BQBMEBVZRQEUE8BPK","","453.39999997615814","img/land8.png","76","455.2999999821186","76","0","false","",""
"","html-keyboard-response","207","123318","0.0-301.0","3I2PTA7R3UG1FATEJ68FNIV2QE3QKF","A3CGQOJC28OVGN","3KA7IJSNW6RD0BQBMEBVZRQEUE8BPK","","null","<img src=""img/land8.png"" style=""width:200px;border:14px solid red;"">","null","","","","","",""
"","image-keyboard-response","208","123694","0.0-303.0","3I2PTA7R3UG1FATEJ68FNIV2QE3QKF","A3CGQOJC28OVGN","3KA7IJSNW6RD0BQBMEBVZRQEUE8BPK","","374.19999998807907","img/land8.png","76","376.09999999403954","76","1","false","",""
"","html-keyboard-response","209","124001","0.0-304.0","3I2PTA7R3UG1FATEJ68FNIV2QE3QKF","A3CGQOJC28OVGN","3KA7IJSNW6RD0BQBMEBVZRQEUE8BPK","","null","<img src=""img/land8.png"" style=""width:200px; border:14px solid green;"">","null","","","","","",""
"","image-keyboard-response","210","124739","0.0-306.0","3I2PTA7R3UG1FATEJ68FNIV2QE3QKF","A3CGQOJC28OVGN","3KA7IJSNW6RD0BQBMEBVZRQEUE8BPK","","735.5999999940395","img/land2.png","75","737","75","1","false","",""
"","html-keyboard-response","211","125045","0.0-307.0","3I2PTA7R3UG1FATEJ68FNIV2QE3QKF","A3CGQOJC28OVGN","3KA7IJSNW6RD0BQBMEBVZRQEUE8BPK","","null","<img src=""img/land2.png"" style=""width:200px; border:14px solid green;"">","null","","","","","",""
"","image-keyboard-response","212","125385","0.0-309.0","3I2PTA7R3UG1FATEJ68FNIV2QE3QKF","A3CGQOJC28OVGN","3KA7IJSNW6RD0BQBMEBVZRQEUE8BPK","","339.19999998807907","img/land2.png","75","340.19999998807907","75","1","false","",""
"","html-keyboard-response","213","125688","0.0-310.0","3I2PTA7R3UG1FATEJ68FNIV2QE3QKF","A3CGQOJC28OVGN","3KA7IJSNW6RD0BQBMEBVZRQEUE8BPK","","null","<img src=""img/land2.png"" style=""width:200px; border:14px solid green;"">","null","","","","","",""
"","image-keyboard-response","214","126571","0.0-312.0","3I2PTA7R3UG1FATEJ68FNIV2QE3QKF","A3CGQOJC28OVGN","3KA7IJSNW6RD0BQBMEBVZRQEUE8BPK","","881.5999999940395","img/land9.png","75","883.0999999940395","75","1","false","",""
"","html-keyboard-response","215","126878","0.0-313.0","3I2PTA7R3UG1FATEJ68FNIV2QE3QKF","A3CGQOJC28OVGN","3KA7IJSNW6RD0BQBMEBVZRQEUE8BPK","","null","<img src=""img/land9.png"" style=""width:200px; border:14px solid green;"">","null","","","","","",""
"","image-keyboard-response","216","127207","0.0-315.0","3I2PTA7R3UG1FATEJ68FNIV2QE3QKF","A3CGQOJC28OVGN","3KA7IJSNW6RD0BQBMEBVZRQEUE8BPK","","327.19999998807907","img/land9.png","75","328.40000000596046","75","1","false","",""
"","html-keyboard-response","217","127511","0.0-316.0","3I2PTA7R3UG1FATEJ68FNIV2QE3QKF","A3CGQOJC28OVGN","3KA7IJSNW6RD0BQBMEBVZRQEUE8BPK","","null","<img src=""img/land9.png"" style=""width:200px; border:14px solid green;"">","null","","","","","",""
"","image-keyboard-response","218","127925","0.0-318.0","3I2PTA7R3UG1FATEJ68FNIV2QE3QKF","A3CGQOJC28OVGN","3KA7IJSNW6RD0BQBMEBVZRQEUE8BPK","","412.2999999821186","img/land9.png","75","413.2999999821186","75","1","false","",""
"","html-keyboard-response","219","128241","0.0-319.0","3I2PTA7R3UG1FATEJ68FNIV2QE3QKF","A3CGQOJC28OVGN","3KA7IJSNW6RD0BQBMEBVZRQEUE8BPK","","null","<img src=""img/land9.png"" style=""width:200px; border:14px solid green;"">","null","","","","","",""
"","image-keyboard-response","220","129003","0.0-321.0","3I2PTA7R3UG1FATEJ68FNIV2QE3QKF","A3CGQOJC28OVGN","3KA7IJSNW6RD0BQBMEBVZRQEUE8BPK","","760.1999999880791","img/land2.png","75","762","75","1","false","",""
"","html-keyboard-response","221","129314","0.0-322.0","3I2PTA7R3UG1FATEJ68FNIV2QE3QKF","A3CGQOJC28OVGN","3KA7IJSNW6RD0BQBMEBVZRQEUE8BPK","","null","<img src=""img/land2.png"" style=""width:200px; border:14px solid green;"">","null","","","","","",""
"","image-keyboard-response","222","129836","0.0-324.0","3I2PTA7R3UG1FATEJ68FNIV2QE3QKF","A3CGQOJC28OVGN","3KA7IJSNW6RD0BQBMEBVZRQEUE8BPK","","519.2000000178814","img/land9.png","75","520.6000000238419","75","1","false","",""
"","html-keyboard-response","223","130154","0.0-325.0","3I2PTA7R3UG1FATEJ68FNIV2QE3QKF","A3CGQOJC28OVGN","3KA7IJSNW6RD0BQBMEBVZRQEUE8BPK","","null","<img src=""img/land9.png"" style=""width:200px; border:14px solid green;"">","null","","","","","",""
"","image-keyboard-response","224","130466","0.0-327.0","3I2PTA7R3UG1FATEJ68FNIV2QE3QKF","A3CGQOJC28OVGN","3KA7IJSNW6RD0BQBMEBVZRQEUE8BPK","","309.90000000596046","img/land9.png","75","311.90000000596046","75","1","false","",""
"","html-keyboard-response","225","130773","0.0-328.0","3I2PTA7R3UG1FATEJ68FNIV2QE3QKF","A3CGQOJC28OVGN","3KA7IJSNW6RD0BQBMEBVZRQEUE8BPK","","null","<img src=""img/land9.png"" style=""width:200px; border:14px solid green;"">","null","","","","","",""
"","image-keyboard-response","226","131310","0.0-330.0","3I2PTA7R3UG1FATEJ68FNIV2QE3QKF","A3CGQOJC28OVGN","3KA7IJSNW6RD0BQBMEBVZRQEUE8BPK","","536","img/land2.png","74","537.4000000059605","74","1","false","",""
"","html-keyboard-response","227","131618","0.0-331.0","3I2PTA7R3UG1FATEJ68FNIV2QE3QKF","A3CGQOJC28OVGN","3KA7IJSNW6RD0BQBMEBVZRQEUE8BPK","","null","<img src=""img/land2.png"" style=""width:200px; border:14px solid green;"">","null","","","","","",""
"","image-keyboard-response","228","132376","0.0-333.0","3I2PTA7R3UG1FATEJ68FNIV2QE3QKF","A3CGQOJC28OVGN","3KA7IJSNW6RD0BQBMEBVZRQEUE8BPK","","756.7000000178814","img/land8.png","75","758.0999999940395","75","0","false","",""
"","html-keyboard-response","229","132684","0.0-334.0","3I2PTA7R3UG1FATEJ68FNIV2QE3QKF","A3CGQOJC28OVGN","3KA7IJSNW6RD0BQBMEBVZRQEUE8BPK","","null","<img src=""img/land8.png"" style=""width:200px;border:14px solid red;"">","null","","","","","",""
"","image-keyboard-response","230","133073","0.0-336.0","3I2PTA7R3UG1FATEJ68FNIV2QE3QKF","A3CGQOJC28OVGN","3KA7IJSNW6RD0BQBMEBVZRQEUE8BPK","","387","img/land8.png","75","388.90000000596046","75","1","false","",""
"","html-keyboard-response","231","133377","0.0-337.0","3I2PTA7R3UG1FATEJ68FNIV2QE3QKF","A3CGQOJC28OVGN","3KA7IJSNW6RD0BQBMEBVZRQEUE8BPK","","null","<img src=""img/land8.png"" style=""width:200px; border:14px solid green;"">","null","","","","","",""
"","image-keyboard-response","232","133808","0.0-339.0","3I2PTA7R3UG1FATEJ68FNIV2QE3QKF","A3CGQOJC28OVGN","3KA7IJSNW6RD0BQBMEBVZRQEUE8BPK","","429.59999999403954","img/land8.png","75","430.5","75","0","false","",""
"","html-keyboard-response","233","134114","0.0-340.0","3I2PTA7R3UG1FATEJ68FNIV2QE3QKF","A3CGQOJC28OVGN","3KA7IJSNW6RD0BQBMEBVZRQEUE8BPK","","null","<img src=""img/land8.png"" style=""width:200px;border:14px solid red;"">","null","","","","","",""
"","image-keyboard-response","234","134896","0.0-342.0","3I2PTA7R3UG1FATEJ68FNIV2QE3QKF","A3CGQOJC28OVGN","3KA7IJSNW6RD0BQBMEBVZRQEUE8BPK","","779.7999999821186","img/land9.png","75","781.0999999940395","75","0","false","",""
"","html-keyboard-response","235","135204","0.0-343.0","3I2PTA7R3UG1FATEJ68FNIV2QE3QKF","A3CGQOJC28OVGN","3KA7IJSNW6RD0BQBMEBVZRQEUE8BPK","","null","<img src=""img/land9.png"" style=""width:200px;border:14px solid red;"">","null","","","","","",""
"","image-keyboard-response","236","136211","0.0-345.0","3I2PTA7R3UG1FATEJ68FNIV2QE3QKF","A3CGQOJC28OVGN","3KA7IJSNW6RD0BQBMEBVZRQEUE8BPK","","","img/land8.png","","1005.9000000059605","-1","0","true","",""
"","html-keyboard-response","237","136513","0.0-346.0","3I2PTA7R3UG1FATEJ68FNIV2QE3QKF","A3CGQOJC28OVGN","3KA7IJSNW6RD0BQBMEBVZRQEUE8BPK","","null","<img src=""img/land8.png"" style=""width:200px;border:14px solid red;"">","null","","","","","",""
"","html-keyboard-response","238","137427","0.0-347.0-0.0","3I2PTA7R3UG1FATEJ68FNIV2QE3QKF","A3CGQOJC28OVGN","3KA7IJSNW6RD0BQBMEBVZRQEUE8BPK","","","","","","","","","",""
"","image-keyboard-response","239","138436","0.0-348.0","3I2PTA7R3UG1FATEJ68FNIV2QE3QKF","A3CGQOJC28OVGN","3KA7IJSNW6RD0BQBMEBVZRQEUE8BPK","","","img/land8.png","","1008.3000000119209","-1","0","true","",""
"","html-keyboard-response","240","138741","0.0-349.0","3I2PTA7R3UG1FATEJ68FNIV2QE3QKF","A3CGQOJC28OVGN","3KA7IJSNW6RD0BQBMEBVZRQEUE8BPK","","null","<img src=""img/land8.png"" style=""width:200px;border:14px solid red;"">","null","","","","","",""
"","html-keyboard-response","241","139654","0.0-350.0-0.0","3I2PTA7R3UG1FATEJ68FNIV2QE3QKF","A3CGQOJC28OVGN","3KA7IJSNW6RD0BQBMEBVZRQEUE8BPK","","","","","","","","","",""
"","image-keyboard-response","242","140197","0.0-351.0","3I2PTA7R3UG1FATEJ68FNIV2QE3QKF","A3CGQOJC28OVGN","3KA7IJSNW6RD0BQBMEBVZRQEUE8BPK","","541","img/land9.png","75","542.5","75","1","false","",""
"","html-keyboard-response","243","140505","0.0-352.0","3I2PTA7R3UG1FATEJ68FNIV2QE3QKF","A3CGQOJC28OVGN","3KA7IJSNW6RD0BQBMEBVZRQEUE8BPK","","null","<img src=""img/land9.png"" style=""width:200px; border:14px solid green;"">","null","","","","","",""
"","image-keyboard-response","244","140774","0.0-354.0","3I2PTA7R3UG1FATEJ68FNIV2QE3QKF","A3CGQOJC28OVGN","3KA7IJSNW6RD0BQBMEBVZRQEUE8BPK","","267","img/land9.png","75","268.2999999821186","75","1","false","",""
"","html-keyboard-response","245","141078","0.0-355.0","3I2PTA7R3UG1FATEJ68FNIV2QE3QKF","A3CGQOJC28OVGN","3KA7IJSNW6RD0BQBMEBVZRQEUE8BPK","","null","<img src=""img/land9.png"" style=""width:200px; border:14px solid green;"">","null","","","","","",""
"","image-keyboard-response","246","141746","0.0-357.0","3I2PTA7R3UG1FATEJ68FNIV2QE3QKF","A3CGQOJC28OVGN","3KA7IJSNW6RD0BQBMEBVZRQEUE8BPK","","665.5999999940395","img/land8.png","76","667.2999999821186","76","0","false","",""
"","html-keyboard-response","247","142058","0.0-358.0","3I2PTA7R3UG1FATEJ68FNIV2QE3QKF","A3CGQOJC28OVGN","3KA7IJSNW6RD0BQBMEBVZRQEUE8BPK","","null","<img src=""img/land8.png"" style=""width:200px;border:14px solid red;"">","null","","","","","",""
"","image-keyboard-response","248","142607","0.0-360.0","3I2PTA7R3UG1FATEJ68FNIV2QE3QKF","A3CGQOJC28OVGN","3KA7IJSNW6RD0BQBMEBVZRQEUE8BPK","","546.2000000178814","img/land2.png","75","548","75","0","false","",""
"","html-keyboard-response","249","142920","0.0-361.0","3I2PTA7R3UG1FATEJ68FNIV2QE3QKF","A3CGQOJC28OVGN","3KA7IJSNW6RD0BQBMEBVZRQEUE8BPK","","null","<img src=""img/land2.png"" style=""width:200px;border:14px solid red;"">","null","","","","","",""
"","image-keyboard-response","250","143759","0.0-363.0","3I2PTA7R3UG1FATEJ68FNIV2QE3QKF","A3CGQOJC28OVGN","3KA7IJSNW6RD0BQBMEBVZRQEUE8BPK","","836.3000000119209","img/land8.png","74","838.5999999940395","74","1","false","",""
"","html-keyboard-response","251","144066","0.0-364.0","3I2PTA7R3UG1FATEJ68FNIV2QE3QKF","A3CGQOJC28OVGN","3KA7IJSNW6RD0BQBMEBVZRQEUE8BPK","","null","<img src=""img/land8.png"" style=""width:200px; border:14px solid green;"">","null","","","","","",""
"","image-keyboard-response","252","144465","0.0-366.0","3I2PTA7R3UG1FATEJ68FNIV2QE3QKF","A3CGQOJC28OVGN","3KA7IJSNW6RD0BQBMEBVZRQEUE8BPK","","396.7999999821186","img/land8.png","74","398.59999999403954","74","0","false","",""
"","html-keyboard-response","253","144774","0.0-367.0","3I2PTA7R3UG1FATEJ68FNIV2QE3QKF","A3CGQOJC28OVGN","3KA7IJSNW6RD0BQBMEBVZRQEUE8BPK","","null","<img src=""img/land8.png"" style=""width:200px;border:14px solid red;"">","null","","","","","",""
"","image-keyboard-response","254","145373","0.0-369.0","3I2PTA7R3UG1FATEJ68FNIV2QE3QKF","A3CGQOJC28OVGN","3KA7IJSNW6RD0BQBMEBVZRQEUE8BPK","","598.4000000059605","img/land9.png","75","599.4000000059605","75","0","false","",""
"","html-keyboard-response","255","145680","0.0-370.0","3I2PTA7R3UG1FATEJ68FNIV2QE3QKF","A3CGQOJC28OVGN","3KA7IJSNW6RD0BQBMEBVZRQEUE8BPK","","null","<img src=""img/land9.png"" style=""width:200px;border:14px solid red;"">","null","","","","","",""
"","image-keyboard-response","256","146363","0.0-372.0","3I2PTA7R3UG1FATEJ68FNIV2QE3QKF","A3CGQOJC28OVGN","3KA7IJSNW6RD0BQBMEBVZRQEUE8BPK","","681.4000000059605","img/land2.png","75","682.3000000119209","75","1","false","",""
"","html-keyboard-response","257","146666","0.0-373.0","3I2PTA7R3UG1FATEJ68FNIV2QE3QKF","A3CGQOJC28OVGN","3KA7IJSNW6RD0BQBMEBVZRQEUE8BPK","","null","<img src=""img/land2.png"" style=""width:200px; border:14px solid green;"">","null","","","","","",""
"","image-keyboard-response","258","147383","0.0-375.0","3I2PTA7R3UG1FATEJ68FNIV2QE3QKF","A3CGQOJC28OVGN","3KA7IJSNW6RD0BQBMEBVZRQEUE8BPK","","715.1999999880791","img/land9.png","75","716.1999999880791","75","1","false","",""
"","html-keyboard-response","259","147687","0.0-376.0","3I2PTA7R3UG1FATEJ68FNIV2QE3QKF","A3CGQOJC28OVGN","3KA7IJSNW6RD0BQBMEBVZRQEUE8BPK","","null","<img src=""img/land9.png"" style=""width:200px; border:14px solid green;"">","null","","","","","",""
"","image-keyboard-response","260","148536","0.0-378.0","3I2PTA7R3UG1FATEJ68FNIV2QE3QKF","A3CGQOJC28OVGN","3KA7IJSNW6RD0BQBMEBVZRQEUE8BPK","","846.6000000238419","img/land8.png","74","848.5","74","1","false","",""
"","html-keyboard-response","261","148842","0.0-379.0","3I2PTA7R3UG1FATEJ68FNIV2QE3QKF","A3CGQOJC28OVGN","3KA7IJSNW6RD0BQBMEBVZRQEUE8BPK","","null","<img src=""img/land8.png"" style=""width:200px; border:14px solid green;"">","null","","","","","",""
"","image-keyboard-response","262","149501","0.0-381.0","3I2PTA7R3UG1FATEJ68FNIV2QE3QKF","A3CGQOJC28OVGN","3KA7IJSNW6RD0BQBMEBVZRQEUE8BPK","","657.9000000059605","img/land9.png","75","659.4000000059605","75","0","false","",""
"","html-keyboard-response","263","149808","0.0-382.0","3I2PTA7R3UG1FATEJ68FNIV2QE3QKF","A3CGQOJC28OVGN","3KA7IJSNW6RD0BQBMEBVZRQEUE8BPK","","null","<img src=""img/land9.png"" style=""width:200px;border:14px solid red;"">","null","","","","","",""
"","image-keyboard-response","264","150139","0.0-384.0","3I2PTA7R3UG1FATEJ68FNIV2QE3QKF","A3CGQOJC28OVGN","3KA7IJSNW6RD0BQBMEBVZRQEUE8BPK","","329.59999999403954","img/land9.png","75","330.69999998807907","75","1","false","",""
"","html-keyboard-response","265","150442","0.0-385.0","3I2PTA7R3UG1FATEJ68FNIV2QE3QKF","A3CGQOJC28OVGN","3KA7IJSNW6RD0BQBMEBVZRQEUE8BPK","","null","<img src=""img/land9.png"" style=""width:200px; border:14px solid green;"">","null","","","","","",""
"","image-keyboard-response","266","151180","0.0-387.0","3I2PTA7R3UG1FATEJ68FNIV2QE3QKF","A3CGQOJC28OVGN","3KA7IJSNW6RD0BQBMEBVZRQEUE8BPK","","736.3000000119209","img/land8.png","74","737.1999999880791","74","0","false","",""
"","html-keyboard-response","267","151484","0.0-388.0","3I2PTA7R3UG1FATEJ68FNIV2QE3QKF","A3CGQOJC28OVGN","3KA7IJSNW6RD0BQBMEBVZRQEUE8BPK","","null","<img src=""img/land8.png"" style=""width:200px;border:14px solid red;"">","null","","","","","",""
"","image-keyboard-response","268","151820","0.0-390.0","3I2PTA7R3UG1FATEJ68FNIV2QE3QKF","A3CGQOJC28OVGN","3KA7IJSNW6RD0BQBMEBVZRQEUE8BPK","","333.80000001192093","img/land8.png","74","335.5","74","1","false","",""
"","html-keyboard-response","269","152125","0.0-391.0","3I2PTA7R3UG1FATEJ68FNIV2QE3QKF","A3CGQOJC28OVGN","3KA7IJSNW6RD0BQBMEBVZRQEUE8BPK","","null","<img src=""img/land8.png"" style=""width:200px; border:14px solid green;"">","null","","","","","",""
"","image-keyboard-response","270","152707","0.0-393.0","3I2PTA7R3UG1FATEJ68FNIV2QE3QKF","A3CGQOJC28OVGN","3KA7IJSNW6RD0BQBMEBVZRQEUE8BPK","","580.0999999940395","img/land2.png","75","581.5","75","1","false","",""
"","html-keyboard-response","271","153015","0.0-394.0","3I2PTA7R3UG1FATEJ68FNIV2QE3QKF","A3CGQOJC28OVGN","3KA7IJSNW6RD0BQBMEBVZRQEUE8BPK","","null","<img src=""img/land2.png"" style=""width:200px; border:14px solid green;"">","null","","","","","",""
"","image-keyboard-response","272","153780","0.0-396.0","3I2PTA7R3UG1FATEJ68FNIV2QE3QKF","A3CGQOJC28OVGN","3KA7IJSNW6RD0BQBMEBVZRQEUE8BPK","","764.3000000119209","img/land8.png","74","765.1000000238419","74","1","false","",""
"","html-keyboard-response","273","154084","0.0-397.0","3I2PTA7R3UG1FATEJ68FNIV2QE3QKF","A3CGQOJC28OVGN","3KA7IJSNW6RD0BQBMEBVZRQEUE8BPK","","null","<img src=""img/land8.png"" style=""width:200px; border:14px solid green;"">","null","","","","","",""
"","image-keyboard-response","274","154644","0.0-399.0","3I2PTA7R3UG1FATEJ68FNIV2QE3QKF","A3CGQOJC28OVGN","3KA7IJSNW6RD0BQBMEBVZRQEUE8BPK","","557.6999999880791","img/land2.png","75","559.0999999940395","75","0","false","",""
"","html-keyboard-response","275","154946","0.0-400.0","3I2PTA7R3UG1FATEJ68FNIV2QE3QKF","A3CGQOJC28OVGN","3KA7IJSNW6RD0BQBMEBVZRQEUE8BPK","","null","<img src=""img/land2.png"" style=""width:200px;border:14px solid red;"">","null","","","","","",""
"","image-keyboard-response","276","155261","0.0-402.0","3I2PTA7R3UG1FATEJ68FNIV2QE3QKF","A3CGQOJC28OVGN","3KA7IJSNW6RD0BQBMEBVZRQEUE8BPK","","314","img/land2.png","75","315","75","1","false","",""
"","html-keyboard-response","277","155575","0.0-403.0","3I2PTA7R3UG1FATEJ68FNIV2QE3QKF","A3CGQOJC28OVGN","3KA7IJSNW6RD0BQBMEBVZRQEUE8BPK","","null","<img src=""img/land2.png"" style=""width:200px; border:14px solid green;"">","null","","","","","",""
"","image-keyboard-response","278","156189","0.0-405.0","3I2PTA7R3UG1FATEJ68FNIV2QE3QKF","A3CGQOJC28OVGN","3KA7IJSNW6RD0BQBMEBVZRQEUE8BPK","","611.5","img/land9.png","75","612.9000000059605","75","1","false","",""
"","html-keyboard-response","279","156494","0.0-406.0","3I2PTA7R3UG1FATEJ68FNIV2QE3QKF","A3CGQOJC28OVGN","3KA7IJSNW6RD0BQBMEBVZRQEUE8BPK","","null","<img src=""img/land9.png"" style=""width:200px; border:14px solid green;"">","null","","","","","",""
"","image-keyboard-response","280","156866","0.0-408.0","3I2PTA7R3UG1FATEJ68FNIV2QE3QKF","A3CGQOJC28OVGN","3KA7IJSNW6RD0BQBMEBVZRQEUE8BPK","","369.59999999403954","img/land9.png","75","371.30000001192093","75","1","false","",""
"","html-keyboard-response","281","157180","0.0-409.0","3I2PTA7R3UG1FATEJ68FNIV2QE3QKF","A3CGQOJC28OVGN","3KA7IJSNW6RD0BQBMEBVZRQEUE8BPK","","null","<img src=""img/land9.png"" style=""width:200px; border:14px solid green;"">","null","","","","","",""
"","image-keyboard-response","282","157520","0.0-411.0","3I2PTA7R3UG1FATEJ68FNIV2QE3QKF","A3CGQOJC28OVGN","3KA7IJSNW6RD0BQBMEBVZRQEUE8BPK","","336.5","img/land9.png","75","338.5","75","1","false","",""
"","html-keyboard-response","283","157827","0.0-412.0","3I2PTA7R3UG1FATEJ68FNIV2QE3QKF","A3CGQOJC28OVGN","3KA7IJSNW6RD0BQBMEBVZRQEUE8BPK","","null","<img src=""img/land9.png"" style=""width:200px; border:14px solid green;"">","null","","","","","",""
"","image-keyboard-response","284","158303","0.0-414.0","3I2PTA7R3UG1FATEJ68FNIV2QE3QKF","A3CGQOJC28OVGN","3KA7IJSNW6RD0BQBMEBVZRQEUE8BPK","","473.5","img/land8.png","74","475","74","1","false","",""
"","html-keyboard-response","285","158610","0.0-415.0","3I2PTA7R3UG1FATEJ68FNIV2QE3QKF","A3CGQOJC28OVGN","3KA7IJSNW6RD0BQBMEBVZRQEUE8BPK","","null","<img src=""img/land8.png"" style=""width:200px; border:14px solid green;"">","null","","","","","",""
"","image-keyboard-response","286","159076","0.0-417.0","3I2PTA7R3UG1FATEJ68FNIV2QE3QKF","A3CGQOJC28OVGN","3KA7IJSNW6RD0BQBMEBVZRQEUE8BPK","","463.69999998807907","img/land9.png","75","464.90000000596046","75","0","false","",""
"","html-keyboard-response","287","159381","0.0-418.0","3I2PTA7R3UG1FATEJ68FNIV2QE3QKF","A3CGQOJC28OVGN","3KA7IJSNW6RD0BQBMEBVZRQEUE8BPK","","null","<img src=""img/land9.png"" style=""width:200px;border:14px solid red;"">","null","","","","","",""
"","image-keyboard-response","288","159713","0.0-420.0","3I2PTA7R3UG1FATEJ68FNIV2QE3QKF","A3CGQOJC28OVGN","3KA7IJSNW6RD0BQBMEBVZRQEUE8BPK","","329.40000000596046","img/land2.png","75","331.2000000178814","75","0","false","",""
"","html-keyboard-response","289","160019","0.0-421.0","3I2PTA7R3UG1FATEJ68FNIV2QE3QKF","A3CGQOJC28OVGN","3KA7IJSNW6RD0BQBMEBVZRQEUE8BPK","","null","<img src=""img/land2.png"" style=""width:200px;border:14px solid red;"">","null","","","","","",""
"","image-keyboard-response","290","160320","0.0-423.0","3I2PTA7R3UG1FATEJ68FNIV2QE3QKF","A3CGQOJC28OVGN","3KA7IJSNW6RD0BQBMEBVZRQEUE8BPK","","299.19999998807907","img/land8.png","75","300.90000000596046","75","0","false","",""
"","html-keyboard-response","291","160628","0.0-424.0","3I2PTA7R3UG1FATEJ68FNIV2QE3QKF","A3CGQOJC28OVGN","3KA7IJSNW6RD0BQBMEBVZRQEUE8BPK","","null","<img src=""img/land8.png"" style=""width:200px;border:14px solid red;"">","null","","","","","",""
"","image-keyboard-response","292","161060","0.0-426.0","3I2PTA7R3UG1FATEJ68FNIV2QE3QKF","A3CGQOJC28OVGN","3KA7IJSNW6RD0BQBMEBVZRQEUE8BPK","","430.10000002384186","img/land8.png","74","432","74","0","false","",""
"","html-keyboard-response","293","161368","0.0-427.0","3I2PTA7R3UG1FATEJ68FNIV2QE3QKF","A3CGQOJC28OVGN","3KA7IJSNW6RD0BQBMEBVZRQEUE8BPK","","null","<img src=""img/land8.png"" style=""width:200px;border:14px solid red;"">","null","","","","","",""
"","image-keyboard-response","294","161717","0.0-429.0","3I2PTA7R3UG1FATEJ68FNIV2QE3QKF","A3CGQOJC28OVGN","3KA7IJSNW6RD0BQBMEBVZRQEUE8BPK","","347.2999999821186","img/land2.png","74","348.59999999403954","74","0","false","",""
"","html-keyboard-response","295","162024","0.0-430.0","3I2PTA7R3UG1FATEJ68FNIV2QE3QKF","A3CGQOJC28OVGN","3KA7IJSNW6RD0BQBMEBVZRQEUE8BPK","","null","<img src=""img/land2.png"" style=""width:200px;border:14px solid red;"">","null","","","","","",""
"","image-keyboard-response","296","162798","0.0-432.0","3I2PTA7R3UG1FATEJ68FNIV2QE3QKF","A3CGQOJC28OVGN","3KA7IJSNW6RD0BQBMEBVZRQEUE8BPK","","771.4000000059605","img/land8.png","74","773.0999999940395","74","1","false","",""
"","html-keyboard-response","297","163104","0.0-433.0","3I2PTA7R3UG1FATEJ68FNIV2QE3QKF","A3CGQOJC28OVGN","3KA7IJSNW6RD0BQBMEBVZRQEUE8BPK","","null","<img src=""img/land8.png"" style=""width:200px; border:14px solid green;"">","null","","","","","",""
"","image-keyboard-response","298","163506","0.0-435.0","3I2PTA7R3UG1FATEJ68FNIV2QE3QKF","A3CGQOJC28OVGN","3KA7IJSNW6RD0BQBMEBVZRQEUE8BPK","","399.7000000178814","img/land8.png","74","401.7000000178814","74","1","false","",""
"","html-keyboard-response","299","163810","0.0-436.0","3I2PTA7R3UG1FATEJ68FNIV2QE3QKF","A3CGQOJC28OVGN","3KA7IJSNW6RD0BQBMEBVZRQEUE8BPK","","null","<img src=""img/land8.png"" style=""width:200px; border:14px solid green;"">","null","","","","","",""
"","image-keyboard-response","300","164366","0.0-438.0","3I2PTA7R3UG1FATEJ68FNIV2QE3QKF","A3CGQOJC28OVGN","3KA7IJSNW6RD0BQBMEBVZRQEUE8BPK","","553.7000000178814","img/land2.png","75","555.0999999940395","75","1","false","",""
"","html-keyboard-response","301","164673","0.0-439.0","3I2PTA7R3UG1FATEJ68FNIV2QE3QKF","A3CGQOJC28OVGN","3KA7IJSNW6RD0BQBMEBVZRQEUE8BPK","","null","<img src=""img/land2.png"" style=""width:200px; border:14px solid green;"">","null","","","","","",""
"","image-keyboard-response","302","165007","0.0-441.0","3I2PTA7R3UG1FATEJ68FNIV2QE3QKF","A3CGQOJC28OVGN","3KA7IJSNW6RD0BQBMEBVZRQEUE8BPK","","333.30000001192093","img/land2.png","75","334.09999999403954","75","1","false","",""
"","html-keyboard-response","303","165310","0.0-442.0","3I2PTA7R3UG1FATEJ68FNIV2QE3QKF","A3CGQOJC28OVGN","3KA7IJSNW6RD0BQBMEBVZRQEUE8BPK","","null","<img src=""img/land2.png"" style=""width:200px; border:14px solid green;"">","null","","","","","",""
"","image-keyboard-response","304","165768","0.0-444.0","3I2PTA7R3UG1FATEJ68FNIV2QE3QKF","A3CGQOJC28OVGN","3KA7IJSNW6RD0BQBMEBVZRQEUE8BPK","","456.59999999403954","img/land2.png","75","458.30000001192093","75","0","false","",""
"","html-keyboard-response","305","166072","0.0-445.0","3I2PTA7R3UG1FATEJ68FNIV2QE3QKF","A3CGQOJC28OVGN","3KA7IJSNW6RD0BQBMEBVZRQEUE8BPK","","null","<img src=""img/land2.png"" style=""width:200px;border:14px solid red;"">","null","","","","","",""
"","image-keyboard-response","306","166654","0.0-447.0","3I2PTA7R3UG1FATEJ68FNIV2QE3QKF","A3CGQOJC28OVGN","3KA7IJSNW6RD0BQBMEBVZRQEUE8BPK","","579.4000000059605","img/land2.png","75","580.9000000059605","75","1","false","",""
"","html-keyboard-response","307","166957","0.0-448.0","3I2PTA7R3UG1FATEJ68FNIV2QE3QKF","A3CGQOJC28OVGN","3KA7IJSNW6RD0BQBMEBVZRQEUE8BPK","","null","<img src=""img/land2.png"" style=""width:200px; border:14px solid green;"">","null","","","","","",""
"","image-keyboard-response","308","167290","0.0-450.0","3I2PTA7R3UG1FATEJ68FNIV2QE3QKF","A3CGQOJC28OVGN","3KA7IJSNW6RD0BQBMEBVZRQEUE8BPK","","332","img/land2.png","75","333","75","1","false","",""
"","html-keyboard-response","309","167605","0.0-451.0","3I2PTA7R3UG1FATEJ68FNIV2QE3QKF","A3CGQOJC28OVGN","3KA7IJSNW6RD0BQBMEBVZRQEUE8BPK","","null","<img src=""img/land2.png"" style=""width:200px; border:14px solid green;"">","null","","","","","",""
"","image-keyboard-response","310","168261","0.0-453.0","3I2PTA7R3UG1FATEJ68FNIV2QE3QKF","A3CGQOJC28OVGN","3KA7IJSNW6RD0BQBMEBVZRQEUE8BPK","","654.4000000059605","img/land8.png","74","655.4000000059605","74","1","false","",""
"","html-keyboard-response","311","168566","0.0-454.0","3I2PTA7R3UG1FATEJ68FNIV2QE3QKF","A3CGQOJC28OVGN","3KA7IJSNW6RD0BQBMEBVZRQEUE8BPK","","null","<img src=""img/land8.png"" style=""width:200px; border:14px solid green;"">","null","","","","","",""
"","image-keyboard-response","312","168973","0.0-456.0","3I2PTA7R3UG1FATEJ68FNIV2QE3QKF","A3CGQOJC28OVGN","3KA7IJSNW6RD0BQBMEBVZRQEUE8BPK","","404.89999997615814","img/land8.png","74","406.40000000596046","74","1","false","",""
"","html-keyboard-response","313","169286","0.0-457.0","3I2PTA7R3UG1FATEJ68FNIV2QE3QKF","A3CGQOJC28OVGN","3KA7IJSNW6RD0BQBMEBVZRQEUE8BPK","","null","<img src=""img/land8.png"" style=""width:200px; border:14px solid green;"">","null","","","","","",""
"","image-keyboard-response","314","169812","0.0-459.0","3I2PTA7R3UG1FATEJ68FNIV2QE3QKF","A3CGQOJC28OVGN","3KA7IJSNW6RD0BQBMEBVZRQEUE8BPK","","522.8000000119209","img/land2.png","75","524.8000000119209","75","1","false","",""
"","html-keyboard-response","315","170121","0.0-460.0","3I2PTA7R3UG1FATEJ68FNIV2QE3QKF","A3CGQOJC28OVGN","3KA7IJSNW6RD0BQBMEBVZRQEUE8BPK","","null","<img src=""img/land2.png"" style=""width:200px; border:14px solid green;"">","null","","","","","",""
"","image-keyboard-response","316","170866","0.0-462.0","3I2PTA7R3UG1FATEJ68FNIV2QE3QKF","A3CGQOJC28OVGN","3KA7IJSNW6RD0BQBMEBVZRQEUE8BPK","","742.5999999940395","img/land8.png","74","744.5999999940395","74","1","false","",""
"","html-keyboard-response","317","171177","0.0-463.0","3I2PTA7R3UG1FATEJ68FNIV2QE3QKF","A3CGQOJC28OVGN","3KA7IJSNW6RD0BQBMEBVZRQEUE8BPK","","null","<img src=""img/land8.png"" style=""width:200px; border:14px solid green;"">","null","","","","","",""
"","image-keyboard-response","318","171746","0.0-465.0","3I2PTA7R3UG1FATEJ68FNIV2QE3QKF","A3CGQOJC28OVGN","3KA7IJSNW6RD0BQBMEBVZRQEUE8BPK","","565.7999999821186","img/land9.png","75","567.6999999880791","75","1","false","",""
"","html-keyboard-response","319","172054","0.0-466.0","3I2PTA7R3UG1FATEJ68FNIV2QE3QKF","A3CGQOJC28OVGN","3KA7IJSNW6RD0BQBMEBVZRQEUE8BPK","","null","<img src=""img/land9.png"" style=""width:200px; border:14px solid green;"">","null","","","","","",""
"","image-keyboard-response","320","172716","0.0-468.0","3I2PTA7R3UG1FATEJ68FNIV2QE3QKF","A3CGQOJC28OVGN","3KA7IJSNW6RD0BQBMEBVZRQEUE8BPK","","658.5","img/land2.png","75","660.3999999761581","75","1","false","",""
"","html-keyboard-response","321","173020","0.0-469.0","3I2PTA7R3UG1FATEJ68FNIV2QE3QKF","A3CGQOJC28OVGN","3KA7IJSNW6RD0BQBMEBVZRQEUE8BPK","","null","<img src=""img/land2.png"" style=""width:200px; border:14px solid green;"">","null","","","","","",""
"","image-keyboard-response","322","173777","0.0-471.0","3I2PTA7R3UG1FATEJ68FNIV2QE3QKF","A3CGQOJC28OVGN","3KA7IJSNW6RD0BQBMEBVZRQEUE8BPK","","755.5","img/land9.png","75","756.8000000119209","75","0","false","",""
"","html-keyboard-response","323","174083","0.0-472.0","3I2PTA7R3UG1FATEJ68FNIV2QE3QKF","A3CGQOJC28OVGN","3KA7IJSNW6RD0BQBMEBVZRQEUE8BPK","","null","<img src=""img/land9.png"" style=""width:200px;border:14px solid red;"">","null","","","","","",""
"","image-keyboard-response","324","174762","0.0-474.0","3I2PTA7R3UG1FATEJ68FNIV2QE3QKF","A3CGQOJC28OVGN","3KA7IJSNW6RD0BQBMEBVZRQEUE8BPK","","677.3000000119209","img/land2.png","75","678.2000000178814","75","0","false","",""
"","html-keyboard-response","325","175070","0.0-475.0","3I2PTA7R3UG1FATEJ68FNIV2QE3QKF","A3CGQOJC28OVGN","3KA7IJSNW6RD0BQBMEBVZRQEUE8BPK","","null","<img src=""img/land2.png"" style=""width:200px;border:14px solid red;"">","null","","","","","",""
"","image-keyboard-response","326","175684","0.0-477.0","3I2PTA7R3UG1FATEJ68FNIV2QE3QKF","A3CGQOJC28OVGN","3KA7IJSNW6RD0BQBMEBVZRQEUE8BPK","","612.8000000119209","img/land9.png","75","613.9000000059605","75","1","false","",""
"","html-keyboard-response","327","175988","0.0-478.0","3I2PTA7R3UG1FATEJ68FNIV2QE3QKF","A3CGQOJC28OVGN","3KA7IJSNW6RD0BQBMEBVZRQEUE8BPK","","null","<img src=""img/land9.png"" style=""width:200px; border:14px solid green;"">","null","","","","","",""
"","image-keyboard-response","328","176565","0.0-480.0","3I2PTA7R3UG1FATEJ68FNIV2QE3QKF","A3CGQOJC28OVGN","3KA7IJSNW6RD0BQBMEBVZRQEUE8BPK","","575.8999999761581","img/land2.png","75","576.6999999880791","75","0","false","",""
"","html-keyboard-response","329","176868","0.0-481.0","3I2PTA7R3UG1FATEJ68FNIV2QE3QKF","A3CGQOJC28OVGN","3KA7IJSNW6RD0BQBMEBVZRQEUE8BPK","","null","<img src=""img/land2.png"" style=""width:200px;border:14px solid red;"">","null","","","","","",""
"","image-keyboard-response","330","177195","0.0-483.0","3I2PTA7R3UG1FATEJ68FNIV2QE3QKF","A3CGQOJC28OVGN","3KA7IJSNW6RD0BQBMEBVZRQEUE8BPK","","324.90000000596046","img/land2.png","75","326.19999998807907","75","1","false","",""
"","html-keyboard-response","331","177497","0.0-484.0","3I2PTA7R3UG1FATEJ68FNIV2QE3QKF","A3CGQOJC28OVGN","3KA7IJSNW6RD0BQBMEBVZRQEUE8BPK","","null","<img src=""img/land2.png"" style=""width:200px; border:14px solid green;"">","null","","","","","",""
"","image-keyboard-response","332","178310","0.0-486.0","3I2PTA7R3UG1FATEJ68FNIV2QE3QKF","A3CGQOJC28OVGN","3KA7IJSNW6RD0BQBMEBVZRQEUE8BPK","","811.5","img/land9.png","75","812.5","75","1","false","",""
"","html-keyboard-response","333","178619","0.0-487.0","3I2PTA7R3UG1FATEJ68FNIV2QE3QKF","A3CGQOJC28OVGN","3KA7IJSNW6RD0BQBMEBVZRQEUE8BPK","","null","<img src=""img/land9.png"" style=""width:200px; border:14px solid green;"">","null","","","","","",""
"","image-keyboard-response","334","179020","0.0-489.0","3I2PTA7R3UG1FATEJ68FNIV2QE3QKF","A3CGQOJC28OVGN","3KA7IJSNW6RD0BQBMEBVZRQEUE8BPK","","398.5","img/land9.png","75","400.40000000596046","75","1","false","",""
"","html-keyboard-response","335","179334","0.0-490.0","3I2PTA7R3UG1FATEJ68FNIV2QE3QKF","A3CGQOJC28OVGN","3KA7IJSNW6RD0BQBMEBVZRQEUE8BPK","","null","<img src=""img/land9.png"" style=""width:200px; border:14px solid green;"">","null","","","","","",""
"","image-keyboard-response","336","179876","0.0-492.0","3I2PTA7R3UG1FATEJ68FNIV2QE3QKF","A3CGQOJC28OVGN","3KA7IJSNW6RD0BQBMEBVZRQEUE8BPK","","539.5999999940395","img/land2.png","75","541","75","1","false","",""
"","html-keyboard-response","337","180179","0.0-493.0","3I2PTA7R3UG1FATEJ68FNIV2QE3QKF","A3CGQOJC28OVGN","3KA7IJSNW6RD0BQBMEBVZRQEUE8BPK","","null","<img src=""img/land2.png"" style=""width:200px; border:14px solid green;"">","null","","","","","",""
"","image-keyboard-response","338","180512","0.0-495.0","3I2PTA7R3UG1FATEJ68FNIV2QE3QKF","A3CGQOJC28OVGN","3KA7IJSNW6RD0BQBMEBVZRQEUE8BPK","","332.09999999403954","img/land8.png","75","333.59999999403954","75","0","false","",""
"","html-keyboard-response","339","180816","0.0-496.0","3I2PTA7R3UG1FATEJ68FNIV2QE3QKF","A3CGQOJC28OVGN","3KA7IJSNW6RD0BQBMEBVZRQEUE8BPK","","null","<img src=""img/land8.png"" style=""width:200px;border:14px solid red;"">","null","","","","","",""
"","image-keyboard-response","340","181583","0.0-498.0","3I2PTA7R3UG1FATEJ68FNIV2QE3QKF","A3CGQOJC28OVGN","3KA7IJSNW6RD0BQBMEBVZRQEUE8BPK","","764.5","img/land2.png","75","766.3000000119209","75","1","false","",""
"","html-keyboard-response","341","181887","0.0-499.0","3I2PTA7R3UG1FATEJ68FNIV2QE3QKF","A3CGQOJC28OVGN","3KA7IJSNW6RD0BQBMEBVZRQEUE8BPK","","null","<img src=""img/land2.png"" style=""width:200px; border:14px solid green;"">","null","","","","","",""
"","image-keyboard-response","342","182430","0.0-501.0","3I2PTA7R3UG1FATEJ68FNIV2QE3QKF","A3CGQOJC28OVGN","3KA7IJSNW6RD0BQBMEBVZRQEUE8BPK","","540.8000000119209","img/land9.png","75","542.5","75","1","false","",""
"","html-keyboard-response","343","182743","0.0-502.0","3I2PTA7R3UG1FATEJ68FNIV2QE3QKF","A3CGQOJC28OVGN","3KA7IJSNW6RD0BQBMEBVZRQEUE8BPK","","null","<img src=""img/land9.png"" style=""width:200px; border:14px solid green;"">","null","","","","","",""
"","image-keyboard-response","344","183414","0.0-504.0","3I2PTA7R3UG1FATEJ68FNIV2QE3QKF","A3CGQOJC28OVGN","3KA7IJSNW6RD0BQBMEBVZRQEUE8BPK","","668.4000000059605","img/land2.png","75","670.3000000119209","75","0","false","",""
"","html-keyboard-response","345","183724","0.0-505.0","3I2PTA7R3UG1FATEJ68FNIV2QE3QKF","A3CGQOJC28OVGN","3KA7IJSNW6RD0BQBMEBVZRQEUE8BPK","","null","<img src=""img/land2.png"" style=""width:200px;border:14px solid red;"">","null","","","","","",""
"","image-keyboard-response","346","184043","0.0-507.0","3I2PTA7R3UG1FATEJ68FNIV2QE3QKF","A3CGQOJC28OVGN","3KA7IJSNW6RD0BQBMEBVZRQEUE8BPK","","316","img/land2.png","75","318.2999999821186","75","1","false","",""
"","html-keyboard-response","347","184350","0.0-508.0","3I2PTA7R3UG1FATEJ68FNIV2QE3QKF","A3CGQOJC28OVGN","3KA7IJSNW6RD0BQBMEBVZRQEUE8BPK","","null","<img src=""img/land2.png"" style=""width:200px; border:14px solid green;"">","null","","","","","",""
"","image-keyboard-response","348","184940","0.0-510.0","3I2PTA7R3UG1FATEJ68FNIV2QE3QKF","A3CGQOJC28OVGN","3KA7IJSNW6RD0BQBMEBVZRQEUE8BPK","","587.3000000119209","img/land9.png","75","588.9000000059605","75","1","false","",""
"","html-keyboard-response","349","185247","0.0-511.0","3I2PTA7R3UG1FATEJ68FNIV2QE3QKF","A3CGQOJC28OVGN","3KA7IJSNW6RD0BQBMEBVZRQEUE8BPK","","null","<img src=""img/land9.png"" style=""width:200px; border:14px solid green;"">","null","","","","","",""
"","image-keyboard-response","350","185887","0.0-513.0","3I2PTA7R3UG1FATEJ68FNIV2QE3QKF","A3CGQOJC28OVGN","3KA7IJSNW6RD0BQBMEBVZRQEUE8BPK","","638.2000000178814","img/land2.png","75","639.7000000178814","75","0","false","",""
"","html-keyboard-response","351","186199","0.0-514.0","3I2PTA7R3UG1FATEJ68FNIV2QE3QKF","A3CGQOJC28OVGN","3KA7IJSNW6RD0BQBMEBVZRQEUE8BPK","","null","<img src=""img/land2.png"" style=""width:200px;border:14px solid red;"">","null","","","","","",""
"","image-keyboard-response","352","186500","0.0-516.0","3I2PTA7R3UG1FATEJ68FNIV2QE3QKF","A3CGQOJC28OVGN","3KA7IJSNW6RD0BQBMEBVZRQEUE8BPK","","298.7999999821186","img/land2.png","75","300.80000001192093","75","0","false","",""
"","html-keyboard-response","353","186807","0.0-517.0","3I2PTA7R3UG1FATEJ68FNIV2QE3QKF","A3CGQOJC28OVGN","3KA7IJSNW6RD0BQBMEBVZRQEUE8BPK","","null","<img src=""img/land2.png"" style=""width:200px;border:14px solid red;"">","null","","","","","",""
"","image-keyboard-response","354","187412","0.0-519.0","3I2PTA7R3UG1FATEJ68FNIV2QE3QKF","A3CGQOJC28OVGN","3KA7IJSNW6RD0BQBMEBVZRQEUE8BPK","","603.2000000178814","img/land9.png","75","604.6000000238419","75","0","false","",""
"","html-keyboard-response","355","187714","0.0-520.0","3I2PTA7R3UG1FATEJ68FNIV2QE3QKF","A3CGQOJC28OVGN","3KA7IJSNW6RD0BQBMEBVZRQEUE8BPK","","null","<img src=""img/land9.png"" style=""width:200px;border:14px solid red;"">","null","","","","","",""
"","image-keyboard-response","356","188394","0.0-522.0","3I2PTA7R3UG1FATEJ68FNIV2QE3QKF","A3CGQOJC28OVGN","3KA7IJSNW6RD0BQBMEBVZRQEUE8BPK","","677.6999999880791","img/land8.png","74","679","74","1","false","",""
"","html-keyboard-response","357","188698","0.0-523.0","3I2PTA7R3UG1FATEJ68FNIV2QE3QKF","A3CGQOJC28OVGN","3KA7IJSNW6RD0BQBMEBVZRQEUE8BPK","","null","<img src=""img/land8.png"" style=""width:200px; border:14px solid green;"">","null","","","","","",""
"","image-keyboard-response","358","189096","0.0-525.0","3I2PTA7R3UG1FATEJ68FNIV2QE3QKF","A3CGQOJC28OVGN","3KA7IJSNW6RD0BQBMEBVZRQEUE8BPK","","397.2999999821186","img/land8.png","74","398.39999997615814","74","1","false","",""
"","html-keyboard-response","359","189414","0.0-526.0","3I2PTA7R3UG1FATEJ68FNIV2QE3QKF","A3CGQOJC28OVGN","3KA7IJSNW6RD0BQBMEBVZRQEUE8BPK","","null","<img src=""img/land8.png"" style=""width:200px; border:14px solid green;"">","null","","","","","",""
"","image-keyboard-response","360","189998","0.0-528.0","3I2PTA7R3UG1FATEJ68FNIV2QE3QKF","A3CGQOJC28OVGN","3KA7IJSNW6RD0BQBMEBVZRQEUE8BPK","","581.7999999821186","img/land9.png","75","583.1999999880791","75","1","false","",""
"","html-keyboard-response","361","190314","0.0-529.0","3I2PTA7R3UG1FATEJ68FNIV2QE3QKF","A3CGQOJC28OVGN","3KA7IJSNW6RD0BQBMEBVZRQEUE8BPK","","null","<img src=""img/land9.png"" style=""width:200px; border:14px solid green;"">","null","","","","","",""
"","image-keyboard-response","362","190704","0.0-531.0","3I2PTA7R3UG1FATEJ68FNIV2QE3QKF","A3CGQOJC28OVGN","3KA7IJSNW6RD0BQBMEBVZRQEUE8BPK","","387.2999999821186","img/land9.png","75","389.19999998807907","75","1","false","",""
"","html-keyboard-response","363","191007","0.0-532.0","3I2PTA7R3UG1FATEJ68FNIV2QE3QKF","A3CGQOJC28OVGN","3KA7IJSNW6RD0BQBMEBVZRQEUE8BPK","","null","<img src=""img/land9.png"" style=""width:200px; border:14px solid green;"">","null","","","","","",""
"","image-keyboard-response","364","191473","0.0-534.0","3I2PTA7R3UG1FATEJ68FNIV2QE3QKF","A3CGQOJC28OVGN","3KA7IJSNW6RD0BQBMEBVZRQEUE8BPK","","464.7000000178814","img/land9.png","75","465.90000000596046","75","1","false","",""
"","html-keyboard-response","365","191785","0.0-535.0","3I2PTA7R3UG1FATEJ68FNIV2QE3QKF","A3CGQOJC28OVGN","3KA7IJSNW6RD0BQBMEBVZRQEUE8BPK","","null","<img src=""img/land9.png"" style=""width:200px; border:14px solid green;"">","null","","","","","",""
"","image-keyboard-response","366","192309","0.0-537.0","3I2PTA7R3UG1FATEJ68FNIV2QE3QKF","A3CGQOJC28OVGN","3KA7IJSNW6RD0BQBMEBVZRQEUE8BPK","","521.5","img/land2.png","75","523.4000000059605","75","1","false","",""
"","html-keyboard-response","367","192624","0.0-538.0","3I2PTA7R3UG1FATEJ68FNIV2QE3QKF","A3CGQOJC28OVGN","3KA7IJSNW6RD0BQBMEBVZRQEUE8BPK","","null","<img src=""img/land2.png"" style=""width:200px; border:14px solid green;"">","null","","","","","",""
"","image-keyboard-response","368","193312","0.0-540.0","3I2PTA7R3UG1FATEJ68FNIV2QE3QKF","A3CGQOJC28OVGN","3KA7IJSNW6RD0BQBMEBVZRQEUE8BPK","","685.4000000059605","img/land8.png","74","687.4000000059605","74","0","false","",""
"","html-keyboard-response","369","193618","0.0-541.0","3I2PTA7R3UG1FATEJ68FNIV2QE3QKF","A3CGQOJC28OVGN","3KA7IJSNW6RD0BQBMEBVZRQEUE8BPK","","null","<img src=""img/land8.png"" style=""width:200px;border:14px solid red;"">","null","","","","","",""
"","html-keyboard-response","370","195710","0.0-543.0","3I2PTA7R3UG1FATEJ68FNIV2QE3QKF","A3CGQOJC28OVGN","3KA7IJSNW6RD0BQBMEBVZRQEUE8BPK","","","","","","","","","",""
"","image-keyboard-response","371","196621","0.0-544.0","3I2PTA7R3UG1FATEJ68FNIV2QE3QKF","A3CGQOJC28OVGN","3KA7IJSNW6RD0BQBMEBVZRQEUE8BPK","","909.5","img/land7.png","76","910.8999999761581","76","1","false","",""
"","html-keyboard-response","372","196926","0.0-545.0","3I2PTA7R3UG1FATEJ68FNIV2QE3QKF","A3CGQOJC28OVGN","3KA7IJSNW6RD0BQBMEBVZRQEUE8BPK","","null","<img src=""img/land7.png"" style=""width:200px; border:14px solid green;"">","null","","","","","",""
"","image-keyboard-response","373","197875","0.0-547.0","3I2PTA7R3UG1FATEJ68FNIV2QE3QKF","A3CGQOJC28OVGN","3KA7IJSNW6RD0BQBMEBVZRQEUE8BPK","","947.1999999880791","img/land5.png","75","948.4000000059605","75","1","false","",""
"","html-keyboard-response","374","198180","0.0-548.0","3I2PTA7R3UG1FATEJ68FNIV2QE3QKF","A3CGQOJC28OVGN","3KA7IJSNW6RD0BQBMEBVZRQEUE8BPK","","null","<img src=""img/land5.png"" style=""width:200px; border:14px solid green;"">","null","","","","","",""
"","image-keyboard-response","375","198887","0.0-550.0","3I2PTA7R3UG1FATEJ68FNIV2QE3QKF","A3CGQOJC28OVGN","3KA7IJSNW6RD0BQBMEBVZRQEUE8BPK","","705.3000000119209","img/land7.png","76","706.4000000059605","76","1","false","",""
"","html-keyboard-response","376","199189","0.0-551.0","3I2PTA7R3UG1FATEJ68FNIV2QE3QKF","A3CGQOJC28OVGN","3KA7IJSNW6RD0BQBMEBVZRQEUE8BPK","","null","<img src=""img/land7.png"" style=""width:200px; border:14px solid green;"">","null","","","","","",""
"","image-keyboard-response","377","199622","0.0-553.0","3I2PTA7R3UG1FATEJ68FNIV2QE3QKF","A3CGQOJC28OVGN","3KA7IJSNW6RD0BQBMEBVZRQEUE8BPK","","430.7999999821186","img/land7.png","76","432.7000000178814","76","1","false","",""
"","html-keyboard-response","378","199926","0.0-554.0","3I2PTA7R3UG1FATEJ68FNIV2QE3QKF","A3CGQOJC28OVGN","3KA7IJSNW6RD0BQBMEBVZRQEUE8BPK","","null","<img src=""img/land7.png"" style=""width:200px; border:14px solid green;"">","null","","","","","",""
"","image-keyboard-response","379","200429","0.0-556.0","3I2PTA7R3UG1FATEJ68FNIV2QE3QKF","A3CGQOJC28OVGN","3KA7IJSNW6RD0BQBMEBVZRQEUE8BPK","","499.69999998807907","img/land5.png","75","501.59999999403954","75","0","false","",""
"","html-keyboard-response","380","200738","0.0-557.0","3I2PTA7R3UG1FATEJ68FNIV2QE3QKF","A3CGQOJC28OVGN","3KA7IJSNW6RD0BQBMEBVZRQEUE8BPK","","null","<img src=""img/land5.png"" style=""width:200px;border:14px solid red;"">","null","","","","","",""
"","image-keyboard-response","381","201512","0.0-559.0","3I2PTA7R3UG1FATEJ68FNIV2QE3QKF","A3CGQOJC28OVGN","3KA7IJSNW6RD0BQBMEBVZRQEUE8BPK","","772.8000000119209","img/land5.png","75","774.1999999880791","75","1","false","",""
"","html-keyboard-response","382","201819","0.0-560.0","3I2PTA7R3UG1FATEJ68FNIV2QE3QKF","A3CGQOJC28OVGN","3KA7IJSNW6RD0BQBMEBVZRQEUE8BPK","","null","<img src=""img/land5.png"" style=""width:200px; border:14px solid green;"">","null","","","","","",""
"","image-keyboard-response","383","202318","0.0-562.0","3I2PTA7R3UG1FATEJ68FNIV2QE3QKF","A3CGQOJC28OVGN","3KA7IJSNW6RD0BQBMEBVZRQEUE8BPK","","495.89999997615814","img/land5.png","75","497.69999998807907","75","1","false","",""
"","html-keyboard-response","384","202627","0.0-563.0","3I2PTA7R3UG1FATEJ68FNIV2QE3QKF","A3CGQOJC28OVGN","3KA7IJSNW6RD0BQBMEBVZRQEUE8BPK","","null","<img src=""img/land5.png"" style=""width:200px; border:14px solid green;"">","null","","","","","",""
"","image-keyboard-response","385","203451","0.0-565.0","3I2PTA7R3UG1FATEJ68FNIV2QE3QKF","A3CGQOJC28OVGN","3KA7IJSNW6RD0BQBMEBVZRQEUE8BPK","","821.2999999821186","img/land7.png","76","823.1999999880791","76","1","false","",""
"","html-keyboard-response","386","203760","0.0-566.0","3I2PTA7R3UG1FATEJ68FNIV2QE3QKF","A3CGQOJC28OVGN","3KA7IJSNW6RD0BQBMEBVZRQEUE8BPK","","null","<img src=""img/land7.png"" style=""width:200px; border:14px solid green;"">","null","","","","","",""
"","image-keyboard-response","387","204199","0.0-568.0","3I2PTA7R3UG1FATEJ68FNIV2QE3QKF","A3CGQOJC28OVGN","3KA7IJSNW6RD0BQBMEBVZRQEUE8BPK","","436.40000000596046","img/land7.png","76","438.40000000596046","76","1","false","",""
"","html-keyboard-response","388","204508","0.0-569.0","3I2PTA7R3UG1FATEJ68FNIV2QE3QKF","A3CGQOJC28OVGN","3KA7IJSNW6RD0BQBMEBVZRQEUE8BPK","","null","<img src=""img/land7.png"" style=""width:200px; border:14px solid green;"">","null","","","","","",""
"","image-keyboard-response","389","204866","0.0-571.0","3I2PTA7R3UG1FATEJ68FNIV2QE3QKF","A3CGQOJC28OVGN","3KA7IJSNW6RD0BQBMEBVZRQEUE8BPK","","356.5","img/land7.png","76","357.80000001192093","76","1","false","",""
"","html-keyboard-response","390","205171","0.0-572.0","3I2PTA7R3UG1FATEJ68FNIV2QE3QKF","A3CGQOJC28OVGN","3KA7IJSNW6RD0BQBMEBVZRQEUE8BPK","","null","<img src=""img/land7.png"" style=""width:200px; border:14px solid green;"">","null","","","","","",""
"","image-keyboard-response","391","205722","0.0-574.0","3I2PTA7R3UG1FATEJ68FNIV2QE3QKF","A3CGQOJC28OVGN","3KA7IJSNW6RD0BQBMEBVZRQEUE8BPK","","549.1000000238419","img/land5.png","75","550.6000000238419","75","1","false","",""
"","html-keyboard-response","392","206028","0.0-575.0","3I2PTA7R3UG1FATEJ68FNIV2QE3QKF","A3CGQOJC28OVGN","3KA7IJSNW6RD0BQBMEBVZRQEUE8BPK","","null","<img src=""img/land5.png"" style=""width:200px; border:14px solid green;"">","null","","","","","",""
"","image-keyboard-response","393","207020","0.0-577.0","3I2PTA7R3UG1FATEJ68FNIV2QE3QKF","A3CGQOJC28OVGN","3KA7IJSNW6RD0BQBMEBVZRQEUE8BPK","","989.5","img/land4.png","75","990.9000000059605","75","0","false","",""
"","html-keyboard-response","394","207326","0.0-578.0","3I2PTA7R3UG1FATEJ68FNIV2QE3QKF","A3CGQOJC28OVGN","3KA7IJSNW6RD0BQBMEBVZRQEUE8BPK","","null","<img src=""img/land4.png"" style=""width:200px;border:14px solid red;"">","null","","","","","",""
"","image-keyboard-response","395","207993","0.0-580.0","3I2PTA7R3UG1FATEJ68FNIV2QE3QKF","A3CGQOJC28OVGN","3KA7IJSNW6RD0BQBMEBVZRQEUE8BPK","","665.0999999940395","img/land4.png","74","666.5999999940395","74","1","false","",""
"","html-keyboard-response","396","208299","0.0-581.0","3I2PTA7R3UG1FATEJ68FNIV2QE3QKF","A3CGQOJC28OVGN","3KA7IJSNW6RD0BQBMEBVZRQEUE8BPK","","null","<img src=""img/land4.png"" style=""width:200px; border:14px solid green;"">","null","","","","","",""
"","image-keyboard-response","397","208949","0.0-583.0","3I2PTA7R3UG1FATEJ68FNIV2QE3QKF","A3CGQOJC28OVGN","3KA7IJSNW6RD0BQBMEBVZRQEUE8BPK","","647.0999999940395","img/land4.png","74","649","74","0","false","",""
"","html-keyboard-response","398","209257","0.0-584.0","3I2PTA7R3UG1FATEJ68FNIV2QE3QKF","A3CGQOJC28OVGN","3KA7IJSNW6RD0BQBMEBVZRQEUE8BPK","","null","<img src=""img/land4.png"" style=""width:200px;border:14px solid red;"">","null","","","","","",""
"","image-keyboard-response","399","210176","0.0-586.0","3I2PTA7R3UG1FATEJ68FNIV2QE3QKF","A3CGQOJC28OVGN","3KA7IJSNW6RD0BQBMEBVZRQEUE8BPK","","917.3000000119209","img/land4.png","74","919.1000000238419","74","0","false","",""
"","html-keyboard-response","400","210482","0.0-587.0","3I2PTA7R3UG1FATEJ68FNIV2QE3QKF","A3CGQOJC28OVGN","3KA7IJSNW6RD0BQBMEBVZRQEUE8BPK","","null","<img src=""img/land4.png"" style=""width:200px;border:14px solid red;"">","null","","","","","",""
"","image-keyboard-response","401","210834","0.0-589.0","3I2PTA7R3UG1FATEJ68FNIV2QE3QKF","A3CGQOJC28OVGN","3KA7IJSNW6RD0BQBMEBVZRQEUE8BPK","","349.39999997615814","img/land4.png","75","351.39999997615814","75","0","false","",""
"","html-keyboard-response","402","211148","0.0-590.0","3I2PTA7R3UG1FATEJ68FNIV2QE3QKF","A3CGQOJC28OVGN","3KA7IJSNW6RD0BQBMEBVZRQEUE8BPK","","null","<img src=""img/land4.png"" style=""width:200px;border:14px solid red;"">","null","","","","","",""
"","image-keyboard-response","403","211531","0.0-592.0","3I2PTA7R3UG1FATEJ68FNIV2QE3QKF","A3CGQOJC28OVGN","3KA7IJSNW6RD0BQBMEBVZRQEUE8BPK","","380.7000000178814","img/land4.png","76","382.5","76","0","false","",""
"","html-keyboard-response","404","211844","0.0-593.0","3I2PTA7R3UG1FATEJ68FNIV2QE3QKF","A3CGQOJC28OVGN","3KA7IJSNW6RD0BQBMEBVZRQEUE8BPK","","null","<img src=""img/land4.png"" style=""width:200px;border:14px solid red;"">","null","","","","","",""
"","image-keyboard-response","405","212630","0.0-595.0","3I2PTA7R3UG1FATEJ68FNIV2QE3QKF","A3CGQOJC28OVGN","3KA7IJSNW6RD0BQBMEBVZRQEUE8BPK","","784.1999999880791","img/land5.png","75","785.7999999821186","75","1","false","",""
"","html-keyboard-response","406","212933","0.0-596.0","3I2PTA7R3UG1FATEJ68FNIV2QE3QKF","A3CGQOJC28OVGN","3KA7IJSNW6RD0BQBMEBVZRQEUE8BPK","","null","<img src=""img/land5.png"" style=""width:200px; border:14px solid green;"">","null","","","","","",""
"","image-keyboard-response","407","213490","0.0-598.0","3I2PTA7R3UG1FATEJ68FNIV2QE3QKF","A3CGQOJC28OVGN","3KA7IJSNW6RD0BQBMEBVZRQEUE8BPK","","554.9000000059605","img/land7.png","76","557.5999999940395","76","0","false","",""
"","html-keyboard-response","408","213798","0.0-599.0","3I2PTA7R3UG1FATEJ68FNIV2QE3QKF","A3CGQOJC28OVGN","3KA7IJSNW6RD0BQBMEBVZRQEUE8BPK","","null","<img src=""img/land7.png"" style=""width:200px;border:14px solid red;"">","null","","","","","",""
"","image-keyboard-response","409","214152","0.0-601.0","3I2PTA7R3UG1FATEJ68FNIV2QE3QKF","A3CGQOJC28OVGN","3KA7IJSNW6RD0BQBMEBVZRQEUE8BPK","","351.89999997615814","img/land7.png","76","353.2000000178814","76","1","false","",""
"","html-keyboard-response","410","214467","0.0-602.0","3I2PTA7R3UG1FATEJ68FNIV2QE3QKF","A3CGQOJC28OVGN","3KA7IJSNW6RD0BQBMEBVZRQEUE8BPK","","null","<img src=""img/land7.png"" style=""width:200px; border:14px solid green;"">","null","","","","","",""
"","image-keyboard-response","411","215041","0.0-604.0","3I2PTA7R3UG1FATEJ68FNIV2QE3QKF","A3CGQOJC28OVGN","3KA7IJSNW6RD0BQBMEBVZRQEUE8BPK","","571.2999999821186","img/land5.png","75","572.9000000059605","75","1","false","",""
"","html-keyboard-response","412","215344","0.0-605.0","3I2PTA7R3UG1FATEJ68FNIV2QE3QKF","A3CGQOJC28OVGN","3KA7IJSNW6RD0BQBMEBVZRQEUE8BPK","","null","<img src=""img/land5.png"" style=""width:200px; border:14px solid green;"">","null","","","","","",""
"","image-keyboard-response","413","215747","0.0-607.0","3I2PTA7R3UG1FATEJ68FNIV2QE3QKF","A3CGQOJC28OVGN","3KA7IJSNW6RD0BQBMEBVZRQEUE8BPK","","400.40000000596046","img/land5.png","75","401.7000000178814","75","0","false","",""
"","html-keyboard-response","414","216064","0.0-608.0","3I2PTA7R3UG1FATEJ68FNIV2QE3QKF","A3CGQOJC28OVGN","3KA7IJSNW6RD0BQBMEBVZRQEUE8BPK","","null","<img src=""img/land5.png"" style=""width:200px;border:14px solid red;"">","null","","","","","",""
"","image-keyboard-response","415","216806","0.0-610.0","3I2PTA7R3UG1FATEJ68FNIV2QE3QKF","A3CGQOJC28OVGN","3KA7IJSNW6RD0BQBMEBVZRQEUE8BPK","","739.5999999940395","img/land7.png","76","741.3999999761581","76","1","false","",""
"","html-keyboard-response","416","217111","0.0-611.0","3I2PTA7R3UG1FATEJ68FNIV2QE3QKF","A3CGQOJC28OVGN","3KA7IJSNW6RD0BQBMEBVZRQEUE8BPK","","null","<img src=""img/land7.png"" style=""width:200px; border:14px solid green;"">","null","","","","","",""
"","image-keyboard-response","417","218118","0.0-613.0","3I2PTA7R3UG1FATEJ68FNIV2QE3QKF","A3CGQOJC28OVGN","3KA7IJSNW6RD0BQBMEBVZRQEUE8BPK","","","img/land5.png","","1006.0999999940395","-1","0","true","",""
"","html-keyboard-response","418","218422","0.0-614.0","3I2PTA7R3UG1FATEJ68FNIV2QE3QKF","A3CGQOJC28OVGN","3KA7IJSNW6RD0BQBMEBVZRQEUE8BPK","","null","<img src=""img/land5.png"" style=""width:200px;border:14px solid red;"">","null","","","","","",""
"","html-keyboard-response","419","219499","0.0-615.0-0.0","3I2PTA7R3UG1FATEJ68FNIV2QE3QKF","A3CGQOJC28OVGN","3KA7IJSNW6RD0BQBMEBVZRQEUE8BPK","","","","","","","","","",""
"","image-keyboard-response","420","220203","0.0-616.0","3I2PTA7R3UG1FATEJ68FNIV2QE3QKF","A3CGQOJC28OVGN","3KA7IJSNW6RD0BQBMEBVZRQEUE8BPK","","701.5","img/land7.png","76","703.7000000178814","76","1","false","",""
"","html-keyboard-response","421","220512","0.0-617.0","3I2PTA7R3UG1FATEJ68FNIV2QE3QKF","A3CGQOJC28OVGN","3KA7IJSNW6RD0BQBMEBVZRQEUE8BPK","","null","<img src=""img/land7.png"" style=""width:200px; border:14px solid green;"">","null","","","","","",""
"","image-keyboard-response","422","221270","0.0-619.0","3I2PTA7R3UG1FATEJ68FNIV2QE3QKF","A3CGQOJC28OVGN","3KA7IJSNW6RD0BQBMEBVZRQEUE8BPK","","755","img/land5.png","75","757.0999999940395","75","1","false","",""
"","html-keyboard-response","423","221584","0.0-620.0","3I2PTA7R3UG1FATEJ68FNIV2QE3QKF","A3CGQOJC28OVGN","3KA7IJSNW6RD0BQBMEBVZRQEUE8BPK","","null","<img src=""img/land5.png"" style=""width:200px; border:14px solid green;"">","null","","","","","",""
"","image-keyboard-response","424","222587","0.0-622.0","3I2PTA7R3UG1FATEJ68FNIV2QE3QKF","A3CGQOJC28OVGN","3KA7IJSNW6RD0BQBMEBVZRQEUE8BPK","","","img/land7.png","","1002.3000000119209","-1","0","true","",""
"","html-keyboard-response","425","222895","0.0-623.0","3I2PTA7R3UG1FATEJ68FNIV2QE3QKF","A3CGQOJC28OVGN","3KA7IJSNW6RD0BQBMEBVZRQEUE8BPK","","null","<img src=""img/land7.png"" style=""width:200px;border:14px solid red;"">","null","","","","","",""
