"success","trial_type","trial_index","time_elapsed","internal_node_id","assignmentID","mturkID","hitID","view_history","rt","stimulus","key_press","reactionTime","a","r","s","cond","reward_cond","reward_cond_actual","reward_matrix_idx","responses","question_order"
"true","fullscreen","0","2113","0.0-0.0","3GA6AFUKOPAI6JM4FATMXIMZRPTH3E","A3CH1Z6J9R38G9","32XN26MTXZ5MP383W6LZYTLBY7P0LI","","","","","","","","","","","","","",""
"","instructions","1","9893","0.0-1.0","3GA6AFUKOPAI6JM4FATMXIMZRPTH3E","A3CH1Z6J9R38G9","32XN26MTXZ5MP383W6LZYTLBY7P0LI","[{""page_index"":0,""viewing_time"":2321.9000000059605},{""page_index"":1,""viewing_time"":565.8999999985099},{""page_index"":2,""viewing_time"":270},{""page_index"":3,""viewing_time"":1277.8999999985099},{""page_index"":4,""viewing_time"":1144},{""page_index"":5,""viewing_time"":898},{""page_index"":6,""viewing_time"":1300.1000000014901}]","7778.5","","","","","","","","","","","",""
"","image-keyboard-response","2","11258","0.0-2.0","3GA6AFUKOPAI6JM4FATMXIMZRPTH3E","A3CH1Z6J9R38G9","32XN26MTXZ5MP383W6LZYTLBY7P0LI","","1363.6000000014901","img/land2.png","74","1364.6999999955297","1","1","2","1","1,0.7,0.7,0.7,1,0.7,0.7,0.7,1","1,0.7,0.7,0.7,1,0.7,0.7,0.7,1","","",""
"","html-keyboard-response","3","11574","0.0-3.0","3GA6AFUKOPAI6JM4FATMXIMZRPTH3E","A3CH1Z6J9R38G9","32XN26MTXZ5MP383W6LZYTLBY7P0LI","","null","<img src=""img/land2.png"" style=""width:200px; border:14px solid green;"">","null","","","","","","","","","",""
"","image-keyboard-response","4","11886","0.0-4.0","3GA6AFUKOPAI6JM4FATMXIMZRPTH3E","A3CH1Z6J9R38G9","32XN26MTXZ5MP383W6LZYTLBY7P0LI","","311","img/land2.png","74","311.79999999701977","1","1","2","1","1,0.7,0.7,0.7,1,0.7,0.7,0.7,1","1,0.7,0.7,0.7,1,0.7,0.7,0.7,1","","",""
"","html-keyboard-response","5","12201","0.0-5.0","3GA6AFUKOPAI6JM4FATMXIMZRPTH3E","A3CH1Z6J9R38G9","32XN26MTXZ5MP383W6LZYTLBY7P0LI","","null","<img src=""img/land2.png"" style=""width:200px; border:14px solid green;"">","null","","","","","","","","","",""
"","image-keyboard-response","6","12475","0.0-6.0","3GA6AFUKOPAI6JM4FATMXIMZRPTH3E","A3CH1Z6J9R38G9","32XN26MTXZ5MP383W6LZYTLBY7P0LI","","272.80000000447035","img/land2.png","74","273.70000000298023","1","0","2","1","1,0.7,0.7,0.7,1,0.7,0.7,0.7,1","1,0.7,0.7,0.7,1,0.7,0.7,0.7,1","","",""
"","html-keyboard-response","7","12780","0.0-7.0","3GA6AFUKOPAI6JM4FATMXIMZRPTH3E","A3CH1Z6J9R38G9","32XN26MTXZ5MP383W6LZYTLBY7P0LI","","null","<img src=""img/land2.png"" style=""width:200px;border:14px solid red;"">","null","","","","","","","","","",""
"","image-keyboard-response","8","13239","0.0-8.0","3GA6AFUKOPAI6JM4FATMXIMZRPTH3E","A3CH1Z6J9R38G9","32XN26MTXZ5MP383W6LZYTLBY7P0LI","","458.6000000014901","img/land1.png","75","459.3999999985099","2","1","1","1","1,0.7,0.7,0.7,1,0.7,0.7,0.7,1","1,0.7,0.7,0.7,1,0.7,0.7,0.7,1","","",""
"","html-keyboard-response","9","13548","0.0-9.0","3GA6AFUKOPAI6JM4FATMXIMZRPTH3E","A3CH1Z6J9R38G9","32XN26MTXZ5MP383W6LZYTLBY7P0LI","","null","<img src=""img/land1.png"" style=""width:200px; border:14px solid green;"">","null","","","","","","","","","",""
"","image-keyboard-response","10","14037","0.0-10.0","3GA6AFUKOPAI6JM4FATMXIMZRPTH3E","A3CH1Z6J9R38G9","32XN26MTXZ5MP383W6LZYTLBY7P0LI","","488.5","img/land3.png","74","489.19999999552965","1","1","3","1","1,0.7,0.7,0.7,1,0.7,0.7,0.7,1","1,0.7,0.7,0.7,1,0.7,0.7,0.7,1","","",""
"","html-keyboard-response","11","14345","0.0-11.0","3GA6AFUKOPAI6JM4FATMXIMZRPTH3E","A3CH1Z6J9R38G9","32XN26MTXZ5MP383W6LZYTLBY7P0LI","","null","<img src=""img/land3.png"" style=""width:200px; border:14px solid green;"">","null","","","","","","","","","",""
"","image-keyboard-response","12","14675","0.0-12.0","3GA6AFUKOPAI6JM4FATMXIMZRPTH3E","A3CH1Z6J9R38G9","32XN26MTXZ5MP383W6LZYTLBY7P0LI","","328.79999999701977","img/land1.png","74","329.3999999985099","1","1","1","1","1,0.7,0.7,0.7,1,0.7,0.7,0.7,1","1,0.7,0.7,0.7,1,0.7,0.7,0.7,1","","",""
"","html-keyboard-response","13","14989","0.0-13.0","3GA6AFUKOPAI6JM4FATMXIMZRPTH3E","A3CH1Z6J9R38G9","32XN26MTXZ5MP383W6LZYTLBY7P0LI","","null","<img src=""img/land1.png"" style=""width:200px; border:14px solid green;"">","null","","","","","","","","","",""
"","image-keyboard-response","14","15267","0.0-14.0","3GA6AFUKOPAI6JM4FATMXIMZRPTH3E","A3CH1Z6J9R38G9","32XN26MTXZ5MP383W6LZYTLBY7P0LI","","277.3999999985099","img/land1.png","74","278.19999999552965","1","1","1","1","1,0.7,0.7,0.7,1,0.7,0.7,0.7,1","1,0.7,0.7,0.7,1,0.7,0.7,0.7,1","","",""
"","html-keyboard-response","15","15571","0.0-15.0","3GA6AFUKOPAI6JM4FATMXIMZRPTH3E","A3CH1Z6J9R38G9","32XN26MTXZ5MP383W6LZYTLBY7P0LI","","null","<img src=""img/land1.png"" style=""width:200px; border:14px solid green;"">","null","","","","","","","","","",""
"","image-keyboard-response","16","15909","0.0-16.0","3GA6AFUKOPAI6JM4FATMXIMZRPTH3E","A3CH1Z6J9R38G9","32XN26MTXZ5MP383W6LZYTLBY7P0LI","","337.8999999985099","img/land3.png","74","338.6000000014901","1","1","3","1","1,0.7,0.7,0.7,1,0.7,0.7,0.7,1","1,0.7,0.7,0.7,1,0.7,0.7,0.7,1","","",""
"","html-keyboard-response","17","16214","0.0-17.0","3GA6AFUKOPAI6JM4FATMXIMZRPTH3E","A3CH1Z6J9R38G9","32XN26MTXZ5MP383W6LZYTLBY7P0LI","","null","<img src=""img/land3.png"" style=""width:200px; border:14px solid green;"">","null","","","","","","","","","",""
"","image-keyboard-response","18","16548","0.0-18.0","3GA6AFUKOPAI6JM4FATMXIMZRPTH3E","A3CH1Z6J9R38G9","32XN26MTXZ5MP383W6LZYTLBY7P0LI","","333.3999999985099","img/land1.png","74","334.29999999701977","1","1","1","1","1,0.7,0.7,0.7,1,0.7,0.7,0.7,1","1,0.7,0.7,0.7,1,0.7,0.7,0.7,1","","",""
"","html-keyboard-response","19","16858","0.0-19.0","3GA6AFUKOPAI6JM4FATMXIMZRPTH3E","A3CH1Z6J9R38G9","32XN26MTXZ5MP383W6LZYTLBY7P0LI","","null","<img src=""img/land1.png"" style=""width:200px; border:14px solid green;"">","null","","","","","","","","","",""
"","image-keyboard-response","20","17133","0.0-20.0","3GA6AFUKOPAI6JM4FATMXIMZRPTH3E","A3CH1Z6J9R38G9","32XN26MTXZ5MP383W6LZYTLBY7P0LI","","273.80000000447035","img/land1.png","74","274.69999999552965","1","1","1","1","1,0.7,0.7,0.7,1,0.7,0.7,0.7,1","1,0.7,0.7,0.7,1,0.7,0.7,0.7,1","","",""
"","html-keyboard-response","21","17440","0.0-21.0","3GA6AFUKOPAI6JM4FATMXIMZRPTH3E","A3CH1Z6J9R38G9","32XN26MTXZ5MP383W6LZYTLBY7P0LI","","null","<img src=""img/land1.png"" style=""width:200px; border:14px solid green;"">","null","","","","","","","","","",""
"","image-keyboard-response","22","17798","0.0-22.0","3GA6AFUKOPAI6JM4FATMXIMZRPTH3E","A3CH1Z6J9R38G9","32XN26MTXZ5MP383W6LZYTLBY7P0LI","","357.19999999552965","img/land3.png","74","358","1","1","3","1","1,0.7,0.7,0.7,1,0.7,0.7,0.7,1","1,0.7,0.7,0.7,1,0.7,0.7,0.7,1","","",""
"","html-keyboard-response","23","18114","0.0-23.0","3GA6AFUKOPAI6JM4FATMXIMZRPTH3E","A3CH1Z6J9R38G9","32XN26MTXZ5MP383W6LZYTLBY7P0LI","","null","<img src=""img/land3.png"" style=""width:200px; border:14px solid green;"">","null","","","","","","","","","",""
"","image-keyboard-response","24","18717","0.0-24.0","3GA6AFUKOPAI6JM4FATMXIMZRPTH3E","A3CH1Z6J9R38G9","32XN26MTXZ5MP383W6LZYTLBY7P0LI","","602.7000000029802","img/land2.png","75","603.3999999985099","2","1","2","1","1,0.7,0.7,0.7,1,0.7,0.7,0.7,1","1,0.7,0.7,0.7,1,0.7,0.7,0.7,1","","",""
"","html-keyboard-response","25","19031","0.0-25.0","3GA6AFUKOPAI6JM4FATMXIMZRPTH3E","A3CH1Z6J9R38G9","32XN26MTXZ5MP383W6LZYTLBY7P0LI","","null","<img src=""img/land2.png"" style=""width:200px; border:14px solid green;"">","null","","","","","","","","","",""
"","image-keyboard-response","26","19374","0.0-26.0","3GA6AFUKOPAI6JM4FATMXIMZRPTH3E","A3CH1Z6J9R38G9","32XN26MTXZ5MP383W6LZYTLBY7P0LI","","342.1000000014901","img/land3.png","74","342.8999999985099","1","1","3","1","1,0.7,0.7,0.7,1,0.7,0.7,0.7,1","1,0.7,0.7,0.7,1,0.7,0.7,0.7,1","","",""
"","html-keyboard-response","27","19687","0.0-27.0","3GA6AFUKOPAI6JM4FATMXIMZRPTH3E","A3CH1Z6J9R38G9","32XN26MTXZ5MP383W6LZYTLBY7P0LI","","null","<img src=""img/land3.png"" style=""width:200px; border:14px solid green;"">","null","","","","","","","","","",""
"","image-keyboard-response","28","20300","0.0-28.0","3GA6AFUKOPAI6JM4FATMXIMZRPTH3E","A3CH1Z6J9R38G9","32XN26MTXZ5MP383W6LZYTLBY7P0LI","","612.1999999955297","img/land1.png","74","612.7999999970198","1","1","1","1","1,0.7,0.7,0.7,1,0.7,0.7,0.7,1","1,0.7,0.7,0.7,1,0.7,0.7,0.7,1","","",""
"","html-keyboard-response","29","20606","0.0-29.0","3GA6AFUKOPAI6JM4FATMXIMZRPTH3E","A3CH1Z6J9R38G9","32XN26MTXZ5MP383W6LZYTLBY7P0LI","","null","<img src=""img/land1.png"" style=""width:200px; border:14px solid green;"">","null","","","","","","","","","",""
"","image-keyboard-response","30","20983","0.0-30.0","3GA6AFUKOPAI6JM4FATMXIMZRPTH3E","A3CH1Z6J9R38G9","32XN26MTXZ5MP383W6LZYTLBY7P0LI","","375.80000000447035","img/land2.png","75","376.5","2","1","2","1","1,0.7,0.7,0.7,1,0.7,0.7,0.7,1","1,0.7,0.7,0.7,1,0.7,0.7,0.7,1","","",""
"","html-keyboard-response","31","21297","0.0-31.0","3GA6AFUKOPAI6JM4FATMXIMZRPTH3E","A3CH1Z6J9R38G9","32XN26MTXZ5MP383W6LZYTLBY7P0LI","","null","<img src=""img/land2.png"" style=""width:200px; border:14px solid green;"">","null","","","","","","","","","",""
"","image-keyboard-response","32","21852","0.0-32.0","3GA6AFUKOPAI6JM4FATMXIMZRPTH3E","A3CH1Z6J9R38G9","32XN26MTXZ5MP383W6LZYTLBY7P0LI","","554.3000000044703","img/land3.png","75","554.8999999985099","2","1","3","1","1,0.7,0.7,0.7,1,0.7,0.7,0.7,1","1,0.7,0.7,0.7,1,0.7,0.7,0.7,1","","",""
"","html-keyboard-response","33","22153","0.0-33.0","3GA6AFUKOPAI6JM4FATMXIMZRPTH3E","A3CH1Z6J9R38G9","32XN26MTXZ5MP383W6LZYTLBY7P0LI","","null","<img src=""img/land3.png"" style=""width:200px; border:14px solid green;"">","null","","","","","","","","","",""
"","image-keyboard-response","34","22534","0.0-34.0","3GA6AFUKOPAI6JM4FATMXIMZRPTH3E","A3CH1Z6J9R38G9","32XN26MTXZ5MP383W6LZYTLBY7P0LI","","380","img/land3.png","75","380.79999999701977","2","1","3","1","1,0.7,0.7,0.7,1,0.7,0.7,0.7,1","1,0.7,0.7,0.7,1,0.7,0.7,0.7,1","","",""
"","html-keyboard-response","35","22842","0.0-35.0","3GA6AFUKOPAI6JM4FATMXIMZRPTH3E","A3CH1Z6J9R38G9","32XN26MTXZ5MP383W6LZYTLBY7P0LI","","null","<img src=""img/land3.png"" style=""width:200px; border:14px solid green;"">","null","","","","","","","","","",""
"","image-keyboard-response","36","23348","0.0-36.0","3GA6AFUKOPAI6JM4FATMXIMZRPTH3E","A3CH1Z6J9R38G9","32XN26MTXZ5MP383W6LZYTLBY7P0LI","","505.6000000014901","img/land1.png","74","506.20000000298023","1","1","1","1","1,0.7,0.7,0.7,1,0.7,0.7,0.7,1","1,0.7,0.7,0.7,1,0.7,0.7,0.7,1","","",""
"","html-keyboard-response","37","23654","0.0-37.0","3GA6AFUKOPAI6JM4FATMXIMZRPTH3E","A3CH1Z6J9R38G9","32XN26MTXZ5MP383W6LZYTLBY7P0LI","","null","<img src=""img/land1.png"" style=""width:200px; border:14px solid green;"">","null","","","","","","","","","",""
"","image-keyboard-response","38","24188","0.0-38.0","3GA6AFUKOPAI6JM4FATMXIMZRPTH3E","A3CH1Z6J9R38G9","32XN26MTXZ5MP383W6LZYTLBY7P0LI","","533.3000000044703","img/land2.png","74","533.8000000044703","1","1","2","1","1,0.7,0.7,0.7,1,0.7,0.7,0.7,1","1,0.7,0.7,0.7,1,0.7,0.7,0.7,1","","",""
"","html-keyboard-response","39","24489","0.0-39.0","3GA6AFUKOPAI6JM4FATMXIMZRPTH3E","A3CH1Z6J9R38G9","32XN26MTXZ5MP383W6LZYTLBY7P0LI","","null","<img src=""img/land2.png"" style=""width:200px; border:14px solid green;"">","null","","","","","","","","","",""
"","image-keyboard-response","40","24958","0.0-40.0","3GA6AFUKOPAI6JM4FATMXIMZRPTH3E","A3CH1Z6J9R38G9","32XN26MTXZ5MP383W6LZYTLBY7P0LI","","468.5","img/land2.png","74","469.09999999403954","1","0","2","1","1,0.7,0.7,0.7,1,0.7,0.7,0.7,1","1,0.7,0.7,0.7,1,0.7,0.7,0.7,1","","",""
"","html-keyboard-response","41","25266","0.0-41.0","3GA6AFUKOPAI6JM4FATMXIMZRPTH3E","A3CH1Z6J9R38G9","32XN26MTXZ5MP383W6LZYTLBY7P0LI","","null","<img src=""img/land2.png"" style=""width:200px;border:14px solid red;"">","null","","","","","","","","","",""
"","image-keyboard-response","42","25689","0.0-42.0","3GA6AFUKOPAI6JM4FATMXIMZRPTH3E","A3CH1Z6J9R38G9","32XN26MTXZ5MP383W6LZYTLBY7P0LI","","422.80000000447035","img/land3.png","74","423.5","1","1","3","1","1,0.7,0.7,0.7,1,0.7,0.7,0.7,1","1,0.7,0.7,0.7,1,0.7,0.7,0.7,1","","",""
"","html-keyboard-response","43","26000","0.0-43.0","3GA6AFUKOPAI6JM4FATMXIMZRPTH3E","A3CH1Z6J9R38G9","32XN26MTXZ5MP383W6LZYTLBY7P0LI","","null","<img src=""img/land3.png"" style=""width:200px; border:14px solid green;"">","null","","","","","","","","","",""
"","image-keyboard-response","44","26392","0.0-44.0","3GA6AFUKOPAI6JM4FATMXIMZRPTH3E","A3CH1Z6J9R38G9","32XN26MTXZ5MP383W6LZYTLBY7P0LI","","391","img/land2.png","74","391.79999999701977","1","1","2","1","1,0.7,0.7,0.7,1,0.7,0.7,0.7,1","1,0.7,0.7,0.7,1,0.7,0.7,0.7,1","","",""
"","html-keyboard-response","45","26704","0.0-45.0","3GA6AFUKOPAI6JM4FATMXIMZRPTH3E","A3CH1Z6J9R38G9","32XN26MTXZ5MP383W6LZYTLBY7P0LI","","null","<img src=""img/land2.png"" style=""width:200px; border:14px solid green;"">","null","","","","","","","","","",""
"","image-keyboard-response","46","27002","0.0-46.0","3GA6AFUKOPAI6JM4FATMXIMZRPTH3E","A3CH1Z6J9R38G9","32XN26MTXZ5MP383W6LZYTLBY7P0LI","","297.1000000014901","img/land1.png","74","297.79999999701977","1","1","1","1","1,0.7,0.7,0.7,1,0.7,0.7,0.7,1","1,0.7,0.7,0.7,1,0.7,0.7,0.7,1","","",""
"","html-keyboard-response","47","27316","0.0-47.0","3GA6AFUKOPAI6JM4FATMXIMZRPTH3E","A3CH1Z6J9R38G9","32XN26MTXZ5MP383W6LZYTLBY7P0LI","","null","<img src=""img/land1.png"" style=""width:200px; border:14px solid green;"">","null","","","","","","","","","",""
"","image-keyboard-response","48","27748","0.0-48.0","3GA6AFUKOPAI6JM4FATMXIMZRPTH3E","A3CH1Z6J9R38G9","32XN26MTXZ5MP383W6LZYTLBY7P0LI","","431.3999999985099","img/land3.png","74","432.09999999403954","1","0","3","1","1,0.7,0.7,0.7,1,0.7,0.7,0.7,1","1,0.7,0.7,0.7,1,0.7,0.7,0.7,1","","",""
"","html-keyboard-response","49","28049","0.0-49.0","3GA6AFUKOPAI6JM4FATMXIMZRPTH3E","A3CH1Z6J9R38G9","32XN26MTXZ5MP383W6LZYTLBY7P0LI","","null","<img src=""img/land3.png"" style=""width:200px;border:14px solid red;"">","null","","","","","","","","","",""
"","image-keyboard-response","50","28436","0.0-50.0","3GA6AFUKOPAI6JM4FATMXIMZRPTH3E","A3CH1Z6J9R38G9","32XN26MTXZ5MP383W6LZYTLBY7P0LI","","385.70000000298023","img/land2.png","74","386.5","1","0","2","1","1,0.7,0.7,0.7,1,0.7,0.7,0.7,1","1,0.7,0.7,0.7,1,0.7,0.7,0.7,1","","",""
"","html-keyboard-response","51","28738","0.0-51.0","3GA6AFUKOPAI6JM4FATMXIMZRPTH3E","A3CH1Z6J9R38G9","32XN26MTXZ5MP383W6LZYTLBY7P0LI","","null","<img src=""img/land2.png"" style=""width:200px;border:14px solid red;"">","null","","","","","","","","","",""
"","image-keyboard-response","52","28978","0.0-52.0","3GA6AFUKOPAI6JM4FATMXIMZRPTH3E","A3CH1Z6J9R38G9","32XN26MTXZ5MP383W6LZYTLBY7P0LI","","239.29999999701977","img/land2.png","75","239.89999999850988","2","1","2","1","1,0.7,0.7,0.7,1,0.7,0.7,0.7,1","1,0.7,0.7,0.7,1,0.7,0.7,0.7,1","","",""
"","html-keyboard-response","53","29290","0.0-53.0","3GA6AFUKOPAI6JM4FATMXIMZRPTH3E","A3CH1Z6J9R38G9","32XN26MTXZ5MP383W6LZYTLBY7P0LI","","null","<img src=""img/land2.png"" style=""width:200px; border:14px solid green;"">","null","","","","","","","","","",""
"","image-keyboard-response","54","29765","0.0-54.0","3GA6AFUKOPAI6JM4FATMXIMZRPTH3E","A3CH1Z6J9R38G9","32XN26MTXZ5MP383W6LZYTLBY7P0LI","","474.40000000596046","img/land1.png","74","475.09999999403954","1","1","1","1","1,0.7,0.7,0.7,1,0.7,0.7,0.7,1","1,0.7,0.7,0.7,1,0.7,0.7,0.7,1","","",""
"","html-keyboard-response","55","30066","0.0-55.0","3GA6AFUKOPAI6JM4FATMXIMZRPTH3E","A3CH1Z6J9R38G9","32XN26MTXZ5MP383W6LZYTLBY7P0LI","","null","<img src=""img/land1.png"" style=""width:200px; border:14px solid green;"">","null","","","","","","","","","",""
"","image-keyboard-response","56","30375","0.0-56.0","3GA6AFUKOPAI6JM4FATMXIMZRPTH3E","A3CH1Z6J9R38G9","32XN26MTXZ5MP383W6LZYTLBY7P0LI","","308.1000000014901","img/land1.png","74","308.90000000596046","1","1","1","1","1,0.7,0.7,0.7,1,0.7,0.7,0.7,1","1,0.7,0.7,0.7,1,0.7,0.7,0.7,1","","",""
"","html-keyboard-response","57","30676","0.0-57.0","3GA6AFUKOPAI6JM4FATMXIMZRPTH3E","A3CH1Z6J9R38G9","32XN26MTXZ5MP383W6LZYTLBY7P0LI","","null","<img src=""img/land1.png"" style=""width:200px; border:14px solid green;"">","null","","","","","","","","","",""
"","image-keyboard-response","58","30946","0.0-58.0","3GA6AFUKOPAI6JM4FATMXIMZRPTH3E","A3CH1Z6J9R38G9","32XN26MTXZ5MP383W6LZYTLBY7P0LI","","269.3999999985099","img/land1.png","74","270.09999999403954","1","1","1","1","1,0.7,0.7,0.7,1,0.7,0.7,0.7,1","1,0.7,0.7,0.7,1,0.7,0.7,0.7,1","","",""
"","html-keyboard-response","59","31248","0.0-59.0","3GA6AFUKOPAI6JM4FATMXIMZRPTH3E","A3CH1Z6J9R38G9","32XN26MTXZ5MP383W6LZYTLBY7P0LI","","null","<img src=""img/land1.png"" style=""width:200px; border:14px solid green;"">","null","","","","","","","","","",""
"","image-keyboard-response","60","31538","0.0-60.0","3GA6AFUKOPAI6JM4FATMXIMZRPTH3E","A3CH1Z6J9R38G9","32XN26MTXZ5MP383W6LZYTLBY7P0LI","","289.5","img/land1.png","74","290.19999999552965","1","1","1","1","1,0.7,0.7,0.7,1,0.7,0.7,0.7,1","1,0.7,0.7,0.7,1,0.7,0.7,0.7,1","","",""
"","html-keyboard-response","61","31840","0.0-61.0","3GA6AFUKOPAI6JM4FATMXIMZRPTH3E","A3CH1Z6J9R38G9","32XN26MTXZ5MP383W6LZYTLBY7P0LI","","null","<img src=""img/land1.png"" style=""width:200px; border:14px solid green;"">","null","","","","","","","","","",""
"","image-keyboard-response","62","32097","0.0-62.0","3GA6AFUKOPAI6JM4FATMXIMZRPTH3E","A3CH1Z6J9R38G9","32XN26MTXZ5MP383W6LZYTLBY7P0LI","","256.3999999985099","img/land1.png","74","256.8999999985099","1","1","1","1","1,0.7,0.7,0.7,1,0.7,0.7,0.7,1","1,0.7,0.7,0.7,1,0.7,0.7,0.7,1","","",""
"","html-keyboard-response","63","32399","0.0-63.0","3GA6AFUKOPAI6JM4FATMXIMZRPTH3E","A3CH1Z6J9R38G9","32XN26MTXZ5MP383W6LZYTLBY7P0LI","","null","<img src=""img/land1.png"" style=""width:200px; border:14px solid green;"">","null","","","","","","","","","",""
"","image-keyboard-response","64","32670","0.0-64.0","3GA6AFUKOPAI6JM4FATMXIMZRPTH3E","A3CH1Z6J9R38G9","32XN26MTXZ5MP383W6LZYTLBY7P0LI","","270.1000000014901","img/land1.png","74","270.70000000298023","1","1","1","1","1,0.7,0.7,0.7,1,0.7,0.7,0.7,1","1,0.7,0.7,0.7,1,0.7,0.7,0.7,1","","",""
"","html-keyboard-response","65","32971","0.0-65.0","3GA6AFUKOPAI6JM4FATMXIMZRPTH3E","A3CH1Z6J9R38G9","32XN26MTXZ5MP383W6LZYTLBY7P0LI","","null","<img src=""img/land1.png"" style=""width:200px; border:14px solid green;"">","null","","","","","","","","","",""
"","image-keyboard-response","66","33267","0.0-66.0","3GA6AFUKOPAI6JM4FATMXIMZRPTH3E","A3CH1Z6J9R38G9","32XN26MTXZ5MP383W6LZYTLBY7P0LI","","295.5","img/land1.png","74","296.20000000298023","1","1","1","1","1,0.7,0.7,0.7,1,0.7,0.7,0.7,1","1,0.7,0.7,0.7,1,0.7,0.7,0.7,1","","",""
"","html-keyboard-response","67","33569","0.0-67.0","3GA6AFUKOPAI6JM4FATMXIMZRPTH3E","A3CH1Z6J9R38G9","32XN26MTXZ5MP383W6LZYTLBY7P0LI","","null","<img src=""img/land1.png"" style=""width:200px; border:14px solid green;"">","null","","","","","","","","","",""
"","image-keyboard-response","68","34011","0.0-68.0","3GA6AFUKOPAI6JM4FATMXIMZRPTH3E","A3CH1Z6J9R38G9","32XN26MTXZ5MP383W6LZYTLBY7P0LI","","441.3999999985099","img/land2.png","75","442","2","1","2","1","1,0.7,0.7,0.7,1,0.7,0.7,0.7,1","1,0.7,0.7,0.7,1,0.7,0.7,0.7,1","","",""
"","html-keyboard-response","69","34312","0.0-69.0","3GA6AFUKOPAI6JM4FATMXIMZRPTH3E","A3CH1Z6J9R38G9","32XN26MTXZ5MP383W6LZYTLBY7P0LI","","null","<img src=""img/land2.png"" style=""width:200px; border:14px solid green;"">","null","","","","","","","","","",""
"","image-keyboard-response","70","34775","0.0-70.0","3GA6AFUKOPAI6JM4FATMXIMZRPTH3E","A3CH1Z6J9R38G9","32XN26MTXZ5MP383W6LZYTLBY7P0LI","","461.1000000014901","img/land1.png","75","461.70000000298023","2","1","1","1","1,0.7,0.7,0.7,1,0.7,0.7,0.7,1","1,0.7,0.7,0.7,1,0.7,0.7,0.7,1","","",""
"","html-keyboard-response","71","35076","0.0-71.0","3GA6AFUKOPAI6JM4FATMXIMZRPTH3E","A3CH1Z6J9R38G9","32XN26MTXZ5MP383W6LZYTLBY7P0LI","","null","<img src=""img/land1.png"" style=""width:200px; border:14px solid green;"">","null","","","","","","","","","",""
"","image-keyboard-response","72","35373","0.0-72.0","3GA6AFUKOPAI6JM4FATMXIMZRPTH3E","A3CH1Z6J9R38G9","32XN26MTXZ5MP383W6LZYTLBY7P0LI","","296.1000000014901","img/land3.png","74","296.79999999701977","1","1","3","1","1,0.7,0.7,0.7,1,0.7,0.7,0.7,1","1,0.7,0.7,0.7,1,0.7,0.7,0.7,1","","",""
"","html-keyboard-response","73","35674","0.0-73.0","3GA6AFUKOPAI6JM4FATMXIMZRPTH3E","A3CH1Z6J9R38G9","32XN26MTXZ5MP383W6LZYTLBY7P0LI","","null","<img src=""img/land3.png"" style=""width:200px; border:14px solid green;"">","null","","","","","","","","","",""
"","image-keyboard-response","74","35977","0.0-74.0","3GA6AFUKOPAI6JM4FATMXIMZRPTH3E","A3CH1Z6J9R38G9","32XN26MTXZ5MP383W6LZYTLBY7P0LI","","302","img/land1.png","75","302.5","2","1","1","1","1,0.7,0.7,0.7,1,0.7,0.7,0.7,1","1,0.7,0.7,0.7,1,0.7,0.7,0.7,1","","",""
"","html-keyboard-response","75","36278","0.0-75.0","3GA6AFUKOPAI6JM4FATMXIMZRPTH3E","A3CH1Z6J9R38G9","32XN26MTXZ5MP383W6LZYTLBY7P0LI","","null","<img src=""img/land1.png"" style=""width:200px; border:14px solid green;"">","null","","","","","","","","","",""
"","image-keyboard-response","76","36610","0.0-76.0","3GA6AFUKOPAI6JM4FATMXIMZRPTH3E","A3CH1Z6J9R38G9","32XN26MTXZ5MP383W6LZYTLBY7P0LI","","331.30000000447035","img/land3.png","75","331.8999999985099","2","1","3","1","1,0.7,0.7,0.7,1,0.7,0.7,0.7,1","1,0.7,0.7,0.7,1,0.7,0.7,0.7,1","","",""
"","html-keyboard-response","77","36911","0.0-77.0","3GA6AFUKOPAI6JM4FATMXIMZRPTH3E","A3CH1Z6J9R38G9","32XN26MTXZ5MP383W6LZYTLBY7P0LI","","null","<img src=""img/land3.png"" style=""width:200px; border:14px solid green;"">","null","","","","","","","","","",""
"","image-keyboard-response","78","37493","0.0-78.0","3GA6AFUKOPAI6JM4FATMXIMZRPTH3E","A3CH1Z6J9R38G9","32XN26MTXZ5MP383W6LZYTLBY7P0LI","","581.6000000014901","img/land1.png","75","582.1000000014901","2","1","1","1","1,0.7,0.7,0.7,1,0.7,0.7,0.7,1","1,0.7,0.7,0.7,1,0.7,0.7,0.7,1","","",""
"","html-keyboard-response","79","37795","0.0-79.0","3GA6AFUKOPAI6JM4FATMXIMZRPTH3E","A3CH1Z6J9R38G9","32XN26MTXZ5MP383W6LZYTLBY7P0LI","","null","<img src=""img/land1.png"" style=""width:200px; border:14px solid green;"">","null","","","","","","","","","",""
"","image-keyboard-response","80","38141","0.0-80.0","3GA6AFUKOPAI6JM4FATMXIMZRPTH3E","A3CH1Z6J9R38G9","32XN26MTXZ5MP383W6LZYTLBY7P0LI","","345.20000000298023","img/land3.png","75","345.90000000596046","2","1","3","1","1,0.7,0.7,0.7,1,0.7,0.7,0.7,1","1,0.7,0.7,0.7,1,0.7,0.7,0.7,1","","",""
"","html-keyboard-response","81","38442","0.0-81.0","3GA6AFUKOPAI6JM4FATMXIMZRPTH3E","A3CH1Z6J9R38G9","32XN26MTXZ5MP383W6LZYTLBY7P0LI","","null","<img src=""img/land3.png"" style=""width:200px; border:14px solid green;"">","null","","","","","","","","","",""
"","image-keyboard-response","82","38878","0.0-82.0","3GA6AFUKOPAI6JM4FATMXIMZRPTH3E","A3CH1Z6J9R38G9","32XN26MTXZ5MP383W6LZYTLBY7P0LI","","434.79999999701977","img/land2.png","74","435.5","1","1","2","1","1,0.7,0.7,0.7,1,0.7,0.7,0.7,1","1,0.7,0.7,0.7,1,0.7,0.7,0.7,1","","",""
"","html-keyboard-response","83","39180","0.0-83.0","3GA6AFUKOPAI6JM4FATMXIMZRPTH3E","A3CH1Z6J9R38G9","32XN26MTXZ5MP383W6LZYTLBY7P0LI","","null","<img src=""img/land2.png"" style=""width:200px; border:14px solid green;"">","null","","","","","","","","","",""
"","image-keyboard-response","84","39425","0.0-84.0","3GA6AFUKOPAI6JM4FATMXIMZRPTH3E","A3CH1Z6J9R38G9","32XN26MTXZ5MP383W6LZYTLBY7P0LI","","244","img/land3.png","75","244.89999999850988","2","1","3","1","1,0.7,0.7,0.7,1,0.7,0.7,0.7,1","1,0.7,0.7,0.7,1,0.7,0.7,0.7,1","","",""
"","html-keyboard-response","85","39727","0.0-85.0","3GA6AFUKOPAI6JM4FATMXIMZRPTH3E","A3CH1Z6J9R38G9","32XN26MTXZ5MP383W6LZYTLBY7P0LI","","null","<img src=""img/land3.png"" style=""width:200px; border:14px solid green;"">","null","","","","","","","","","",""
"","image-keyboard-response","86","39871","0.0-86.0","3GA6AFUKOPAI6JM4FATMXIMZRPTH3E","A3CH1Z6J9R38G9","32XN26MTXZ5MP383W6LZYTLBY7P0LI","","143.09999999403954","img/land1.png","74","143.79999999701977","1","1","1","1","1,0.7,0.7,0.7,1,0.7,0.7,0.7,1","1,0.7,0.7,0.7,1,0.7,0.7,0.7,1","","",""
"","html-keyboard-response","87","40172","0.0-87.0","3GA6AFUKOPAI6JM4FATMXIMZRPTH3E","A3CH1Z6J9R38G9","32XN26MTXZ5MP383W6LZYTLBY7P0LI","","null","<img src=""img/land1.png"" style=""width:200px; border:14px solid green;"">","null","","","","","","","","","",""
"","image-keyboard-response","88","40426","0.0-88.0","3GA6AFUKOPAI6JM4FATMXIMZRPTH3E","A3CH1Z6J9R38G9","32XN26MTXZ5MP383W6LZYTLBY7P0LI","","253.40000000596046","img/land3.png","76","254","3","1","3","1","1,0.7,0.7,0.7,1,0.7,0.7,0.7,1","1,0.7,0.7,0.7,1,0.7,0.7,0.7,1","","",""
"","html-keyboard-response","89","40728","0.0-89.0","3GA6AFUKOPAI6JM4FATMXIMZRPTH3E","A3CH1Z6J9R38G9","32XN26MTXZ5MP383W6LZYTLBY7P0LI","","null","<img src=""img/land3.png"" style=""width:200px; border:14px solid green;"">","null","","","","","","","","","",""
"","image-keyboard-response","90","40962","0.0-90.0","3GA6AFUKOPAI6JM4FATMXIMZRPTH3E","A3CH1Z6J9R38G9","32XN26MTXZ5MP383W6LZYTLBY7P0LI","","233.29999999701977","img/land3.png","74","234","1","1","3","1","1,0.7,0.7,0.7,1,0.7,0.7,0.7,1","1,0.7,0.7,0.7,1,0.7,0.7,0.7,1","","",""
"","html-keyboard-response","91","41264","0.0-91.0","3GA6AFUKOPAI6JM4FATMXIMZRPTH3E","A3CH1Z6J9R38G9","32XN26MTXZ5MP383W6LZYTLBY7P0LI","","null","<img src=""img/land3.png"" style=""width:200px; border:14px solid green;"">","null","","","","","","","","","",""
"","image-keyboard-response","92","41455","0.0-92.0","3GA6AFUKOPAI6JM4FATMXIMZRPTH3E","A3CH1Z6J9R38G9","32XN26MTXZ5MP383W6LZYTLBY7P0LI","","190.60000000149012","img/land1.png","75","191.20000000298023","2","1","1","1","1,0.7,0.7,0.7,1,0.7,0.7,0.7,1","1,0.7,0.7,0.7,1,0.7,0.7,0.7,1","","",""
"","html-keyboard-response","93","41756","0.0-93.0","3GA6AFUKOPAI6JM4FATMXIMZRPTH3E","A3CH1Z6J9R38G9","32XN26MTXZ5MP383W6LZYTLBY7P0LI","","null","<img src=""img/land1.png"" style=""width:200px; border:14px solid green;"">","null","","","","","","","","","",""
"","image-keyboard-response","94","42005","0.0-94.0","3GA6AFUKOPAI6JM4FATMXIMZRPTH3E","A3CH1Z6J9R38G9","32XN26MTXZ5MP383W6LZYTLBY7P0LI","","248.10000000149012","img/land1.png","75","248.60000000149012","2","1","1","1","1,0.7,0.7,0.7,1,0.7,0.7,0.7,1","1,0.7,0.7,0.7,1,0.7,0.7,0.7,1","","",""
"","html-keyboard-response","95","42306","0.0-95.0","3GA6AFUKOPAI6JM4FATMXIMZRPTH3E","A3CH1Z6J9R38G9","32XN26MTXZ5MP383W6LZYTLBY7P0LI","","null","<img src=""img/land1.png"" style=""width:200px; border:14px solid green;"">","null","","","","","","","","","",""
"","image-keyboard-response","96","42807","0.0-96.0","3GA6AFUKOPAI6JM4FATMXIMZRPTH3E","A3CH1Z6J9R38G9","32XN26MTXZ5MP383W6LZYTLBY7P0LI","","499.79999999701977","img/land2.png","74","500.3999999985099","1","0","2","1","1,0.7,0.7,0.7,1,0.7,0.7,0.7,1","1,0.7,0.7,0.7,1,0.7,0.7,0.7,1","","",""
"","html-keyboard-response","97","43108","0.0-97.0","3GA6AFUKOPAI6JM4FATMXIMZRPTH3E","A3CH1Z6J9R38G9","32XN26MTXZ5MP383W6LZYTLBY7P0LI","","null","<img src=""img/land2.png"" style=""width:200px;border:14px solid red;"">","null","","","","","","","","","",""
"","image-keyboard-response","98","43441","0.0-98.0","3GA6AFUKOPAI6JM4FATMXIMZRPTH3E","A3CH1Z6J9R38G9","32XN26MTXZ5MP383W6LZYTLBY7P0LI","","332.20000000298023","img/land3.png","75","332.80000000447035","2","1","3","1","1,0.7,0.7,0.7,1,0.7,0.7,0.7,1","1,0.7,0.7,0.7,1,0.7,0.7,0.7,1","","",""
"","html-keyboard-response","99","43742","0.0-99.0","3GA6AFUKOPAI6JM4FATMXIMZRPTH3E","A3CH1Z6J9R38G9","32XN26MTXZ5MP383W6LZYTLBY7P0LI","","null","<img src=""img/land3.png"" style=""width:200px; border:14px solid green;"">","null","","","","","","","","","",""
"","image-keyboard-response","100","43993","0.0-100.0","3GA6AFUKOPAI6JM4FATMXIMZRPTH3E","A3CH1Z6J9R38G9","32XN26MTXZ5MP383W6LZYTLBY7P0LI","","250.09999999403954","img/land3.png","75","250.69999999552965","2","1","3","1","1,0.7,0.7,0.7,1,0.7,0.7,0.7,1","1,0.7,0.7,0.7,1,0.7,0.7,0.7,1","","",""
"","html-keyboard-response","101","44294","0.0-101.0","3GA6AFUKOPAI6JM4FATMXIMZRPTH3E","A3CH1Z6J9R38G9","32XN26MTXZ5MP383W6LZYTLBY7P0LI","","null","<img src=""img/land3.png"" style=""width:200px; border:14px solid green;"">","null","","","","","","","","","",""
"","image-keyboard-response","102","44416","0.0-102.0","3GA6AFUKOPAI6JM4FATMXIMZRPTH3E","A3CH1Z6J9R38G9","32XN26MTXZ5MP383W6LZYTLBY7P0LI","","120.69999999552965","img/land1.png","75","121.39999999850988","2","1","1","1","1,0.7,0.7,0.7,1,0.7,0.7,0.7,1","1,0.7,0.7,0.7,1,0.7,0.7,0.7,1","","",""
"","html-keyboard-response","103","44717","0.0-103.0","3GA6AFUKOPAI6JM4FATMXIMZRPTH3E","A3CH1Z6J9R38G9","32XN26MTXZ5MP383W6LZYTLBY7P0LI","","null","<img src=""img/land1.png"" style=""width:200px; border:14px solid green;"">","null","","","","","","","","","",""
"","image-keyboard-response","104","45260","0.0-104.0","3GA6AFUKOPAI6JM4FATMXIMZRPTH3E","A3CH1Z6J9R38G9","32XN26MTXZ5MP383W6LZYTLBY7P0LI","","541.8999999985099","img/land3.png","75","542.5999999940395","2","1","3","1","1,0.7,0.7,0.7,1,0.7,0.7,0.7,1","1,0.7,0.7,0.7,1,0.7,0.7,0.7,1","","",""
"","html-keyboard-response","105","45561","0.0-105.0","3GA6AFUKOPAI6JM4FATMXIMZRPTH3E","A3CH1Z6J9R38G9","32XN26MTXZ5MP383W6LZYTLBY7P0LI","","null","<img src=""img/land3.png"" style=""width:200px; border:14px solid green;"">","null","","","","","","","","","",""
"","image-keyboard-response","106","46063","0.0-106.0","3GA6AFUKOPAI6JM4FATMXIMZRPTH3E","A3CH1Z6J9R38G9","32XN26MTXZ5MP383W6LZYTLBY7P0LI","","501.19999999552965","img/land2.png","75","501.70000000298023","2","1","2","1","1,0.7,0.7,0.7,1,0.7,0.7,0.7,1","1,0.7,0.7,0.7,1,0.7,0.7,0.7,1","","",""
"","html-keyboard-response","107","46365","0.0-107.0","3GA6AFUKOPAI6JM4FATMXIMZRPTH3E","A3CH1Z6J9R38G9","32XN26MTXZ5MP383W6LZYTLBY7P0LI","","null","<img src=""img/land2.png"" style=""width:200px; border:14px solid green;"">","null","","","","","","","","","",""
"","image-keyboard-response","108","46633","0.0-108.0","3GA6AFUKOPAI6JM4FATMXIMZRPTH3E","A3CH1Z6J9R38G9","32XN26MTXZ5MP383W6LZYTLBY7P0LI","","267.5","img/land2.png","75","268.1000000014901","2","1","2","1","1,0.7,0.7,0.7,1,0.7,0.7,0.7,1","1,0.7,0.7,0.7,1,0.7,0.7,0.7,1","","",""
"","html-keyboard-response","109","46935","0.0-109.0","3GA6AFUKOPAI6JM4FATMXIMZRPTH3E","A3CH1Z6J9R38G9","32XN26MTXZ5MP383W6LZYTLBY7P0LI","","null","<img src=""img/land2.png"" style=""width:200px; border:14px solid green;"">","null","","","","","","","","","",""
"","image-keyboard-response","110","47246","0.0-110.0","3GA6AFUKOPAI6JM4FATMXIMZRPTH3E","A3CH1Z6J9R38G9","32XN26MTXZ5MP383W6LZYTLBY7P0LI","","310.3999999985099","img/land2.png","75","311.1000000014901","2","1","2","1","1,0.7,0.7,0.7,1,0.7,0.7,0.7,1","1,0.7,0.7,0.7,1,0.7,0.7,0.7,1","","",""
"","html-keyboard-response","111","47548","0.0-111.0","3GA6AFUKOPAI6JM4FATMXIMZRPTH3E","A3CH1Z6J9R38G9","32XN26MTXZ5MP383W6LZYTLBY7P0LI","","null","<img src=""img/land2.png"" style=""width:200px; border:14px solid green;"">","null","","","","","","","","","",""
"","image-keyboard-response","112","47792","0.0-112.0","3GA6AFUKOPAI6JM4FATMXIMZRPTH3E","A3CH1Z6J9R38G9","32XN26MTXZ5MP383W6LZYTLBY7P0LI","","243.79999999701977","img/land2.png","75","244.39999999850988","2","1","2","1","1,0.7,0.7,0.7,1,0.7,0.7,0.7,1","1,0.7,0.7,0.7,1,0.7,0.7,0.7,1","","",""
"","html-keyboard-response","113","48093","0.0-113.0","3GA6AFUKOPAI6JM4FATMXIMZRPTH3E","A3CH1Z6J9R38G9","32XN26MTXZ5MP383W6LZYTLBY7P0LI","","null","<img src=""img/land2.png"" style=""width:200px; border:14px solid green;"">","null","","","","","","","","","",""
"","image-keyboard-response","114","48293","0.0-114.0","3GA6AFUKOPAI6JM4FATMXIMZRPTH3E","A3CH1Z6J9R38G9","32XN26MTXZ5MP383W6LZYTLBY7P0LI","","199.30000000447035","img/land3.png","75","199.89999999850988","2","0","3","1","1,0.7,0.7,0.7,1,0.7,0.7,0.7,1","1,0.7,0.7,0.7,1,0.7,0.7,0.7,1","","",""
"","html-keyboard-response","115","48595","0.0-115.0","3GA6AFUKOPAI6JM4FATMXIMZRPTH3E","A3CH1Z6J9R38G9","32XN26MTXZ5MP383W6LZYTLBY7P0LI","","null","<img src=""img/land3.png"" style=""width:200px;border:14px solid red;"">","null","","","","","","","","","",""
"","image-keyboard-response","116","48917","0.0-116.0","3GA6AFUKOPAI6JM4FATMXIMZRPTH3E","A3CH1Z6J9R38G9","32XN26MTXZ5MP383W6LZYTLBY7P0LI","","321.5","img/land3.png","75","322.20000000298023","2","1","3","1","1,0.7,0.7,0.7,1,0.7,0.7,0.7,1","1,0.7,0.7,0.7,1,0.7,0.7,0.7,1","","",""
"","html-keyboard-response","117","49219","0.0-117.0","3GA6AFUKOPAI6JM4FATMXIMZRPTH3E","A3CH1Z6J9R38G9","32XN26MTXZ5MP383W6LZYTLBY7P0LI","","null","<img src=""img/land3.png"" style=""width:200px; border:14px solid green;"">","null","","","","","","","","","",""
"","image-keyboard-response","118","49712","0.0-118.0","3GA6AFUKOPAI6JM4FATMXIMZRPTH3E","A3CH1Z6J9R38G9","32XN26MTXZ5MP383W6LZYTLBY7P0LI","","492.1000000014901","img/land2.png","75","492.6000000014901","2","1","2","1","1,0.7,0.7,0.7,1,0.7,0.7,0.7,1","1,0.7,0.7,0.7,1,0.7,0.7,0.7,1","","",""
"","html-keyboard-response","119","50013","0.0-119.0","3GA6AFUKOPAI6JM4FATMXIMZRPTH3E","A3CH1Z6J9R38G9","32XN26MTXZ5MP383W6LZYTLBY7P0LI","","null","<img src=""img/land2.png"" style=""width:200px; border:14px solid green;"">","null","","","","","","","","","",""
"","image-keyboard-response","120","50368","0.0-120.0","3GA6AFUKOPAI6JM4FATMXIMZRPTH3E","A3CH1Z6J9R38G9","32XN26MTXZ5MP383W6LZYTLBY7P0LI","","354.30000000447035","img/land1.png","75","355","2","1","1","1","1,0.7,0.7,0.7,1,0.7,0.7,0.7,1","1,0.7,0.7,0.7,1,0.7,0.7,0.7,1","","",""
"","html-keyboard-response","121","50670","0.0-121.0","3GA6AFUKOPAI6JM4FATMXIMZRPTH3E","A3CH1Z6J9R38G9","32XN26MTXZ5MP383W6LZYTLBY7P0LI","","null","<img src=""img/land1.png"" style=""width:200px; border:14px solid green;"">","null","","","","","","","","","",""
"","image-keyboard-response","122","51108","0.0-122.0","3GA6AFUKOPAI6JM4FATMXIMZRPTH3E","A3CH1Z6J9R38G9","32XN26MTXZ5MP383W6LZYTLBY7P0LI","","437.1000000014901","img/land2.png","75","437.8999999985099","2","1","2","1","1,0.7,0.7,0.7,1,0.7,0.7,0.7,1","1,0.7,0.7,0.7,1,0.7,0.7,0.7,1","","",""
"","html-keyboard-response","123","51410","0.0-123.0","3GA6AFUKOPAI6JM4FATMXIMZRPTH3E","A3CH1Z6J9R38G9","32XN26MTXZ5MP383W6LZYTLBY7P0LI","","null","<img src=""img/land2.png"" style=""width:200px; border:14px solid green;"">","null","","","","","","","","","",""
"","image-keyboard-response","124","51679","0.0-124.0","3GA6AFUKOPAI6JM4FATMXIMZRPTH3E","A3CH1Z6J9R38G9","32XN26MTXZ5MP383W6LZYTLBY7P0LI","","268.79999999701977","img/land2.png","75","269.5","2","1","2","1","1,0.7,0.7,0.7,1,0.7,0.7,0.7,1","1,0.7,0.7,0.7,1,0.7,0.7,0.7,1","","",""
"","html-keyboard-response","125","51981","0.0-125.0","3GA6AFUKOPAI6JM4FATMXIMZRPTH3E","A3CH1Z6J9R38G9","32XN26MTXZ5MP383W6LZYTLBY7P0LI","","null","<img src=""img/land2.png"" style=""width:200px; border:14px solid green;"">","null","","","","","","","","","",""
"","image-keyboard-response","126","52401","0.0-126.0","3GA6AFUKOPAI6JM4FATMXIMZRPTH3E","A3CH1Z6J9R38G9","32XN26MTXZ5MP383W6LZYTLBY7P0LI","","419.5","img/land3.png","74","420.1000000014901","1","1","3","1","1,0.7,0.7,0.7,1,0.7,0.7,0.7,1","1,0.7,0.7,0.7,1,0.7,0.7,0.7,1","","",""
"","html-keyboard-response","127","52702","0.0-127.0","3GA6AFUKOPAI6JM4FATMXIMZRPTH3E","A3CH1Z6J9R38G9","32XN26MTXZ5MP383W6LZYTLBY7P0LI","","null","<img src=""img/land3.png"" style=""width:200px; border:14px solid green;"">","null","","","","","","","","","",""
"","image-keyboard-response","128","53153","0.0-128.0","3GA6AFUKOPAI6JM4FATMXIMZRPTH3E","A3CH1Z6J9R38G9","32XN26MTXZ5MP383W6LZYTLBY7P0LI","","450.29999999701977","img/land2.png","75","450.8999999985099","2","1","2","1","1,0.7,0.7,0.7,1,0.7,0.7,0.7,1","1,0.7,0.7,0.7,1,0.7,0.7,0.7,1","","",""
"","html-keyboard-response","129","53455","0.0-129.0","3GA6AFUKOPAI6JM4FATMXIMZRPTH3E","A3CH1Z6J9R38G9","32XN26MTXZ5MP383W6LZYTLBY7P0LI","","null","<img src=""img/land2.png"" style=""width:200px; border:14px solid green;"">","null","","","","","","","","","",""
"","image-keyboard-response","130","53663","0.0-130.0","3GA6AFUKOPAI6JM4FATMXIMZRPTH3E","A3CH1Z6J9R38G9","32XN26MTXZ5MP383W6LZYTLBY7P0LI","","207.89999999850988","img/land3.png","75","208.5","2","1","3","1","1,0.7,0.7,0.7,1,0.7,0.7,0.7,1","1,0.7,0.7,0.7,1,0.7,0.7,0.7,1","","",""
"","html-keyboard-response","131","53965","0.0-131.0","3GA6AFUKOPAI6JM4FATMXIMZRPTH3E","A3CH1Z6J9R38G9","32XN26MTXZ5MP383W6LZYTLBY7P0LI","","null","<img src=""img/land3.png"" style=""width:200px; border:14px solid green;"">","null","","","","","","","","","",""
"","image-keyboard-response","132","54304","0.0-132.0","3GA6AFUKOPAI6JM4FATMXIMZRPTH3E","A3CH1Z6J9R38G9","32XN26MTXZ5MP383W6LZYTLBY7P0LI","","338.69999999552965","img/land1.png","74","339.3999999985099","1","1","1","1","1,0.7,0.7,0.7,1,0.7,0.7,0.7,1","1,0.7,0.7,0.7,1,0.7,0.7,0.7,1","","",""
"","html-keyboard-response","133","54606","0.0-133.0","3GA6AFUKOPAI6JM4FATMXIMZRPTH3E","A3CH1Z6J9R38G9","32XN26MTXZ5MP383W6LZYTLBY7P0LI","","null","<img src=""img/land1.png"" style=""width:200px; border:14px solid green;"">","null","","","","","","","","","",""
"","image-keyboard-response","134","54657","0.0-134.0","3GA6AFUKOPAI6JM4FATMXIMZRPTH3E","A3CH1Z6J9R38G9","32XN26MTXZ5MP383W6LZYTLBY7P0LI","","50.79999999701977","img/land1.png","75","51.5","2","1","1","1","1,0.7,0.7,0.7,1,0.7,0.7,0.7,1","1,0.7,0.7,0.7,1,0.7,0.7,0.7,1","","",""
"","html-keyboard-response","135","54958","0.0-135.0","3GA6AFUKOPAI6JM4FATMXIMZRPTH3E","A3CH1Z6J9R38G9","32XN26MTXZ5MP383W6LZYTLBY7P0LI","","null","<img src=""img/land1.png"" style=""width:200px; border:14px solid green;"">","null","","","","","","","","","",""
"","image-keyboard-response","136","54994","0.0-136.0","3GA6AFUKOPAI6JM4FATMXIMZRPTH3E","A3CH1Z6J9R38G9","32XN26MTXZ5MP383W6LZYTLBY7P0LI","","34.399999998509884","img/land1.png","74","34.900000005960464","1","1","1","1","1,0.7,0.7,0.7,1,0.7,0.7,0.7,1","1,0.7,0.7,0.7,1,0.7,0.7,0.7,1","","",""
"","html-keyboard-response","137","55295","0.0-137.0","3GA6AFUKOPAI6JM4FATMXIMZRPTH3E","A3CH1Z6J9R38G9","32XN26MTXZ5MP383W6LZYTLBY7P0LI","","null","<img src=""img/land1.png"" style=""width:200px; border:14px solid green;"">","null","","","","","","","","","",""
"","image-keyboard-response","138","55753","0.0-138.0","3GA6AFUKOPAI6JM4FATMXIMZRPTH3E","A3CH1Z6J9R38G9","32XN26MTXZ5MP383W6LZYTLBY7P0LI","","457.79999999701977","img/land3.png","76","458.3999999985099","3","1","3","1","1,0.7,0.7,0.7,1,0.7,0.7,0.7,1","1,0.7,0.7,0.7,1,0.7,0.7,0.7,1","","",""
"","html-keyboard-response","139","56055","0.0-139.0","3GA6AFUKOPAI6JM4FATMXIMZRPTH3E","A3CH1Z6J9R38G9","32XN26MTXZ5MP383W6LZYTLBY7P0LI","","null","<img src=""img/land3.png"" style=""width:200px; border:14px solid green;"">","null","","","","","","","","","",""
"","image-keyboard-response","140","56541","0.0-140.0","3GA6AFUKOPAI6JM4FATMXIMZRPTH3E","A3CH1Z6J9R38G9","32XN26MTXZ5MP383W6LZYTLBY7P0LI","","485.5","img/land2.png","75","486.19999999552965","2","1","2","1","1,0.7,0.7,0.7,1,0.7,0.7,0.7,1","1,0.7,0.7,0.7,1,0.7,0.7,0.7,1","","",""
"","html-keyboard-response","141","56843","0.0-141.0","3GA6AFUKOPAI6JM4FATMXIMZRPTH3E","A3CH1Z6J9R38G9","32XN26MTXZ5MP383W6LZYTLBY7P0LI","","null","<img src=""img/land2.png"" style=""width:200px; border:14px solid green;"">","null","","","","","","","","","",""
"","image-keyboard-response","142","57371","0.0-142.0","3GA6AFUKOPAI6JM4FATMXIMZRPTH3E","A3CH1Z6J9R38G9","32XN26MTXZ5MP383W6LZYTLBY7P0LI","","527.5999999940395","img/land1.png","74","528.1999999955297","1","1","1","1","1,0.7,0.7,0.7,1,0.7,0.7,0.7,1","1,0.7,0.7,0.7,1,0.7,0.7,0.7,1","","",""
"","html-keyboard-response","143","57673","0.0-143.0","3GA6AFUKOPAI6JM4FATMXIMZRPTH3E","A3CH1Z6J9R38G9","32XN26MTXZ5MP383W6LZYTLBY7P0LI","","null","<img src=""img/land1.png"" style=""width:200px; border:14px solid green;"">","null","","","","","","","","","",""
"","image-keyboard-response","144","58114","0.0-144.0","3GA6AFUKOPAI6JM4FATMXIMZRPTH3E","A3CH1Z6J9R38G9","32XN26MTXZ5MP383W6LZYTLBY7P0LI","","440.5","img/land3.png","75","441.19999999552965","2","1","3","1","1,0.7,0.7,0.7,1,0.7,0.7,0.7,1","1,0.7,0.7,0.7,1,0.7,0.7,0.7,1","","",""
"","html-keyboard-response","145","58416","0.0-145.0","3GA6AFUKOPAI6JM4FATMXIMZRPTH3E","A3CH1Z6J9R38G9","32XN26MTXZ5MP383W6LZYTLBY7P0LI","","null","<img src=""img/land3.png"" style=""width:200px; border:14px solid green;"">","null","","","","","","","","","",""
"","image-keyboard-response","146","58929","0.0-146.0","3GA6AFUKOPAI6JM4FATMXIMZRPTH3E","A3CH1Z6J9R38G9","32XN26MTXZ5MP383W6LZYTLBY7P0LI","","512.7999999970198","img/land1.png","74","513.5","1","1","1","1","1,0.7,0.7,0.7,1,0.7,0.7,0.7,1","1,0.7,0.7,0.7,1,0.7,0.7,0.7,1","","",""
"","html-keyboard-response","147","59231","0.0-147.0","3GA6AFUKOPAI6JM4FATMXIMZRPTH3E","A3CH1Z6J9R38G9","32XN26MTXZ5MP383W6LZYTLBY7P0LI","","null","<img src=""img/land1.png"" style=""width:200px; border:14px solid green;"">","null","","","","","","","","","",""
"","image-keyboard-response","148","59691","0.0-148.0","3GA6AFUKOPAI6JM4FATMXIMZRPTH3E","A3CH1Z6J9R38G9","32XN26MTXZ5MP383W6LZYTLBY7P0LI","","459.29999999701977","img/land2.png","75","459.8999999985099","2","1","2","1","1,0.7,0.7,0.7,1,0.7,0.7,0.7,1","1,0.7,0.7,0.7,1,0.7,0.7,0.7,1","","",""
"","html-keyboard-response","149","59993","0.0-149.0","3GA6AFUKOPAI6JM4FATMXIMZRPTH3E","A3CH1Z6J9R38G9","32XN26MTXZ5MP383W6LZYTLBY7P0LI","","null","<img src=""img/land2.png"" style=""width:200px; border:14px solid green;"">","null","","","","","","","","","",""
"","image-keyboard-response","150","60378","0.0-150.0","3GA6AFUKOPAI6JM4FATMXIMZRPTH3E","A3CH1Z6J9R38G9","32XN26MTXZ5MP383W6LZYTLBY7P0LI","","384.29999999701977","img/land3.png","75","384.8999999985099","2","0","3","1","1,0.7,0.7,0.7,1,0.7,0.7,0.7,1","1,0.7,0.7,0.7,1,0.7,0.7,0.7,1","","",""
"","html-keyboard-response","151","60680","0.0-151.0","3GA6AFUKOPAI6JM4FATMXIMZRPTH3E","A3CH1Z6J9R38G9","32XN26MTXZ5MP383W6LZYTLBY7P0LI","","null","<img src=""img/land3.png"" style=""width:200px;border:14px solid red;"">","null","","","","","","","","","",""
"","image-keyboard-response","152","60740","0.0-152.0","3GA6AFUKOPAI6JM4FATMXIMZRPTH3E","A3CH1Z6J9R38G9","32XN26MTXZ5MP383W6LZYTLBY7P0LI","","59.100000001490116","img/land3.png","74","59.79999999701977","1","1","3","1","1,0.7,0.7,0.7,1,0.7,0.7,0.7,1","1,0.7,0.7,0.7,1,0.7,0.7,0.7,1","","",""
"","html-keyboard-response","153","61041","0.0-153.0","3GA6AFUKOPAI6JM4FATMXIMZRPTH3E","A3CH1Z6J9R38G9","32XN26MTXZ5MP383W6LZYTLBY7P0LI","","null","<img src=""img/land3.png"" style=""width:200px; border:14px solid green;"">","null","","","","","","","","","",""
"","image-keyboard-response","154","61338","0.0-154.0","3GA6AFUKOPAI6JM4FATMXIMZRPTH3E","A3CH1Z6J9R38G9","32XN26MTXZ5MP383W6LZYTLBY7P0LI","","296","img/land3.png","74","296.5","1","0","3","1","1,0.7,0.7,0.7,1,0.7,0.7,0.7,1","1,0.7,0.7,0.7,1,0.7,0.7,0.7,1","","",""
"","html-keyboard-response","155","61639","0.0-155.0","3GA6AFUKOPAI6JM4FATMXIMZRPTH3E","A3CH1Z6J9R38G9","32XN26MTXZ5MP383W6LZYTLBY7P0LI","","null","<img src=""img/land3.png"" style=""width:200px;border:14px solid red;"">","null","","","","","","","","","",""
"","image-keyboard-response","156","62060","0.0-156.0","3GA6AFUKOPAI6JM4FATMXIMZRPTH3E","A3CH1Z6J9R38G9","32XN26MTXZ5MP383W6LZYTLBY7P0LI","","420.1000000014901","img/land2.png","75","420.70000000298023","2","1","2","1","1,0.7,0.7,0.7,1,0.7,0.7,0.7,1","1,0.7,0.7,0.7,1,0.7,0.7,0.7,1","","",""
"","html-keyboard-response","157","62362","0.0-157.0","3GA6AFUKOPAI6JM4FATMXIMZRPTH3E","A3CH1Z6J9R38G9","32XN26MTXZ5MP383W6LZYTLBY7P0LI","","null","<img src=""img/land2.png"" style=""width:200px; border:14px solid green;"">","null","","","","","","","","","",""
"","image-keyboard-response","158","62658","0.0-158.0","3GA6AFUKOPAI6JM4FATMXIMZRPTH3E","A3CH1Z6J9R38G9","32XN26MTXZ5MP383W6LZYTLBY7P0LI","","295.40000000596046","img/land2.png","75","296","2","1","2","1","1,0.7,0.7,0.7,1,0.7,0.7,0.7,1","1,0.7,0.7,0.7,1,0.7,0.7,0.7,1","","",""
"","html-keyboard-response","159","62960","0.0-159.0","3GA6AFUKOPAI6JM4FATMXIMZRPTH3E","A3CH1Z6J9R38G9","32XN26MTXZ5MP383W6LZYTLBY7P0LI","","null","<img src=""img/land2.png"" style=""width:200px; border:14px solid green;"">","null","","","","","","","","","",""
"","image-keyboard-response","160","63228","0.0-160.0","3GA6AFUKOPAI6JM4FATMXIMZRPTH3E","A3CH1Z6J9R38G9","32XN26MTXZ5MP383W6LZYTLBY7P0LI","","266.90000000596046","img/land2.png","75","267.69999999552965","2","1","2","1","1,0.7,0.7,0.7,1,0.7,0.7,0.7,1","1,0.7,0.7,0.7,1,0.7,0.7,0.7,1","","",""
"","html-keyboard-response","161","63529","0.0-161.0","3GA6AFUKOPAI6JM4FATMXIMZRPTH3E","A3CH1Z6J9R38G9","32XN26MTXZ5MP383W6LZYTLBY7P0LI","","null","<img src=""img/land2.png"" style=""width:200px; border:14px solid green;"">","null","","","","","","","","","",""
"","image-keyboard-response","162","63765","0.0-162.0","3GA6AFUKOPAI6JM4FATMXIMZRPTH3E","A3CH1Z6J9R38G9","32XN26MTXZ5MP383W6LZYTLBY7P0LI","","235.10000000149012","img/land2.png","75","235.70000000298023","2","1","2","1","1,0.7,0.7,0.7,1,0.7,0.7,0.7,1","1,0.7,0.7,0.7,1,0.7,0.7,0.7,1","","",""
"","html-keyboard-response","163","64066","0.0-163.0","3GA6AFUKOPAI6JM4FATMXIMZRPTH3E","A3CH1Z6J9R38G9","32XN26MTXZ5MP383W6LZYTLBY7P0LI","","null","<img src=""img/land2.png"" style=""width:200px; border:14px solid green;"">","null","","","","","","","","","",""
"","image-keyboard-response","164","64673","0.0-164.0","3GA6AFUKOPAI6JM4FATMXIMZRPTH3E","A3CH1Z6J9R38G9","32XN26MTXZ5MP383W6LZYTLBY7P0LI","","605.8999999985099","img/land3.png","74","606.5","1","1","3","1","1,0.7,0.7,0.7,1,0.7,0.7,0.7,1","1,0.7,0.7,0.7,1,0.7,0.7,0.7,1","","",""
"","html-keyboard-response","165","64975","0.0-165.0","3GA6AFUKOPAI6JM4FATMXIMZRPTH3E","A3CH1Z6J9R38G9","32XN26MTXZ5MP383W6LZYTLBY7P0LI","","null","<img src=""img/land3.png"" style=""width:200px; border:14px solid green;"">","null","","","","","","","","","",""
"","image-keyboard-response","166","65761","0.0-166.0","3GA6AFUKOPAI6JM4FATMXIMZRPTH3E","A3CH1Z6J9R38G9","32XN26MTXZ5MP383W6LZYTLBY7P0LI","","784.7000000029802","img/land2.png","74","785.5","1","1","2","1","1,0.7,0.7,0.7,1,0.7,0.7,0.7,1","1,0.7,0.7,0.7,1,0.7,0.7,0.7,1","","",""
"","html-keyboard-response","167","66063","0.0-167.0","3GA6AFUKOPAI6JM4FATMXIMZRPTH3E","A3CH1Z6J9R38G9","32XN26MTXZ5MP383W6LZYTLBY7P0LI","","null","<img src=""img/land2.png"" style=""width:200px; border:14px solid green;"">","null","","","","","","","","","",""
"","image-keyboard-response","168","66550","0.0-168.0","3GA6AFUKOPAI6JM4FATMXIMZRPTH3E","A3CH1Z6J9R38G9","32XN26MTXZ5MP383W6LZYTLBY7P0LI","","486.5","img/land3.png","75","487.1000000014901","2","1","3","1","1,0.7,0.7,0.7,1,0.7,0.7,0.7,1","1,0.7,0.7,0.7,1,0.7,0.7,0.7,1","","",""
"","html-keyboard-response","169","66851","0.0-169.0","3GA6AFUKOPAI6JM4FATMXIMZRPTH3E","A3CH1Z6J9R38G9","32XN26MTXZ5MP383W6LZYTLBY7P0LI","","null","<img src=""img/land3.png"" style=""width:200px; border:14px solid green;"">","null","","","","","","","","","",""
"","html-keyboard-response","170","82978","0.0-170.0","3GA6AFUKOPAI6JM4FATMXIMZRPTH3E","A3CH1Z6J9R38G9","32XN26MTXZ5MP383W6LZYTLBY7P0LI","","","","","","","","","","","","","",""
"","image-keyboard-response","171","84037","0.0-171.0","3GA6AFUKOPAI6JM4FATMXIMZRPTH3E","A3CH1Z6J9R38G9","32XN26MTXZ5MP383W6LZYTLBY7P0LI","","1058.4000000059605","img/land6.png","74","1059.0999999940395","1","1","3","1","1,0.7,0.7,0.7,1,0.7,0.7,0.7,1","1,0.7,0.7,0.7,1,0.7,0.7,0.7,1","","",""
"","html-keyboard-response","172","84339","0.0-172.0","3GA6AFUKOPAI6JM4FATMXIMZRPTH3E","A3CH1Z6J9R38G9","32XN26MTXZ5MP383W6LZYTLBY7P0LI","","null","<img src=""img/land6.png"" style=""width:200px; border:14px solid green;"">","null","","","","","","","","","",""
"","image-keyboard-response","173","84684","0.0-173.0","3GA6AFUKOPAI6JM4FATMXIMZRPTH3E","A3CH1Z6J9R38G9","32XN26MTXZ5MP383W6LZYTLBY7P0LI","","343.79999999701977","img/land4.png","75","344.3999999985099","2","0","1","1","1,0.7,0.7,0.7,1,0.7,0.7,0.7,1","1,0.7,0.7,0.7,1,0.7,0.7,0.7,1","","",""
"","html-keyboard-response","174","84985","0.0-174.0","3GA6AFUKOPAI6JM4FATMXIMZRPTH3E","A3CH1Z6J9R38G9","32XN26MTXZ5MP383W6LZYTLBY7P0LI","","null","<img src=""img/land4.png"" style=""width:200px;border:14px solid red;"">","null","","","","","","","","","",""
"","image-keyboard-response","175","85454","0.0-175.0","3GA6AFUKOPAI6JM4FATMXIMZRPTH3E","A3CH1Z6J9R38G9","32XN26MTXZ5MP383W6LZYTLBY7P0LI","","467.70000000298023","img/land6.png","75","468.30000000447035","2","1","3","1","1,0.7,0.7,0.7,1,0.7,0.7,0.7,1","1,0.7,0.7,0.7,1,0.7,0.7,0.7,1","","",""
"","html-keyboard-response","176","85756","0.0-176.0","3GA6AFUKOPAI6JM4FATMXIMZRPTH3E","A3CH1Z6J9R38G9","32XN26MTXZ5MP383W6LZYTLBY7P0LI","","null","<img src=""img/land6.png"" style=""width:200px; border:14px solid green;"">","null","","","","","","","","","",""
"","image-keyboard-response","177","86196","0.0-177.0","3GA6AFUKOPAI6JM4FATMXIMZRPTH3E","A3CH1Z6J9R38G9","32XN26MTXZ5MP383W6LZYTLBY7P0LI","","439.5","img/land4.png","74","440.19999999552965","1","1","1","1","1,0.7,0.7,0.7,1,0.7,0.7,0.7,1","1,0.7,0.7,0.7,1,0.7,0.7,0.7,1","","",""
"","html-keyboard-response","178","86497","0.0-178.0","3GA6AFUKOPAI6JM4FATMXIMZRPTH3E","A3CH1Z6J9R38G9","32XN26MTXZ5MP383W6LZYTLBY7P0LI","","null","<img src=""img/land4.png"" style=""width:200px; border:14px solid green;"">","null","","","","","","","","","",""
"","image-keyboard-response","179","86885","0.0-179.0","3GA6AFUKOPAI6JM4FATMXIMZRPTH3E","A3CH1Z6J9R38G9","32XN26MTXZ5MP383W6LZYTLBY7P0LI","","387.1000000014901","img/land6.png","74","387.90000000596046","1","1","3","1","1,0.7,0.7,0.7,1,0.7,0.7,0.7,1","1,0.7,0.7,0.7,1,0.7,0.7,0.7,1","","",""
"","html-keyboard-response","180","87187","0.0-180.0","3GA6AFUKOPAI6JM4FATMXIMZRPTH3E","A3CH1Z6J9R38G9","32XN26MTXZ5MP383W6LZYTLBY7P0LI","","null","<img src=""img/land6.png"" style=""width:200px; border:14px solid green;"">","null","","","","","","","","","",""
"","image-keyboard-response","181","87469","0.0-181.0","3GA6AFUKOPAI6JM4FATMXIMZRPTH3E","A3CH1Z6J9R38G9","32XN26MTXZ5MP383W6LZYTLBY7P0LI","","281","img/land6.png","74","281.70000000298023","1","1","3","1","1,0.7,0.7,0.7,1,0.7,0.7,0.7,1","1,0.7,0.7,0.7,1,0.7,0.7,0.7,1","","",""
"","html-keyboard-response","182","87771","0.0-182.0","3GA6AFUKOPAI6JM4FATMXIMZRPTH3E","A3CH1Z6J9R38G9","32XN26MTXZ5MP383W6LZYTLBY7P0LI","","null","<img src=""img/land6.png"" style=""width:200px; border:14px solid green;"">","null","","","","","","","","","",""
"","image-keyboard-response","183","88037","0.0-183.0","3GA6AFUKOPAI6JM4FATMXIMZRPTH3E","A3CH1Z6J9R38G9","32XN26MTXZ5MP383W6LZYTLBY7P0LI","","265.19999999552965","img/land6.png","74","266","1","1","3","1","1,0.7,0.7,0.7,1,0.7,0.7,0.7,1","1,0.7,0.7,0.7,1,0.7,0.7,0.7,1","","",""
"","html-keyboard-response","184","88338","0.0-184.0","3GA6AFUKOPAI6JM4FATMXIMZRPTH3E","A3CH1Z6J9R38G9","32XN26MTXZ5MP383W6LZYTLBY7P0LI","","null","<img src=""img/land6.png"" style=""width:200px; border:14px solid green;"">","null","","","","","","","","","",""
"","image-keyboard-response","185","88593","0.0-185.0","3GA6AFUKOPAI6JM4FATMXIMZRPTH3E","A3CH1Z6J9R38G9","32XN26MTXZ5MP383W6LZYTLBY7P0LI","","253.60000000149012","img/land6.png","74","254.29999999701977","1","1","3","1","1,0.7,0.7,0.7,1,0.7,0.7,0.7,1","1,0.7,0.7,0.7,1,0.7,0.7,0.7,1","","",""
"","html-keyboard-response","186","88895","0.0-186.0","3GA6AFUKOPAI6JM4FATMXIMZRPTH3E","A3CH1Z6J9R38G9","32XN26MTXZ5MP383W6LZYTLBY7P0LI","","null","<img src=""img/land6.png"" style=""width:200px; border:14px solid green;"">","null","","","","","","","","","",""
"","image-keyboard-response","187","89183","0.0-187.0","3GA6AFUKOPAI6JM4FATMXIMZRPTH3E","A3CH1Z6J9R38G9","32XN26MTXZ5MP383W6LZYTLBY7P0LI","","287.29999999701977","img/land6.png","74","287.90000000596046","1","1","3","1","1,0.7,0.7,0.7,1,0.7,0.7,0.7,1","1,0.7,0.7,0.7,1,0.7,0.7,0.7,1","","",""
"","html-keyboard-response","188","89484","0.0-188.0","3GA6AFUKOPAI6JM4FATMXIMZRPTH3E","A3CH1Z6J9R38G9","32XN26MTXZ5MP383W6LZYTLBY7P0LI","","null","<img src=""img/land6.png"" style=""width:200px; border:14px solid green;"">","null","","","","","","","","","",""
"","image-keyboard-response","189","89766","0.0-189.0","3GA6AFUKOPAI6JM4FATMXIMZRPTH3E","A3CH1Z6J9R38G9","32XN26MTXZ5MP383W6LZYTLBY7P0LI","","281.19999999552965","img/land6.png","74","281.8999999985099","1","0","3","1","1,0.7,0.7,0.7,1,0.7,0.7,0.7,1","1,0.7,0.7,0.7,1,0.7,0.7,0.7,1","","",""
"","html-keyboard-response","190","90067","0.0-190.0","3GA6AFUKOPAI6JM4FATMXIMZRPTH3E","A3CH1Z6J9R38G9","32XN26MTXZ5MP383W6LZYTLBY7P0LI","","null","<img src=""img/land6.png"" style=""width:200px;border:14px solid red;"">","null","","","","","","","","","",""
"","image-keyboard-response","191","90531","0.0-191.0","3GA6AFUKOPAI6JM4FATMXIMZRPTH3E","A3CH1Z6J9R38G9","32XN26MTXZ5MP383W6LZYTLBY7P0LI","","463.29999999701977","img/land5.png","74","464","1","0","2","1","1,0.7,0.7,0.7,1,0.7,0.7,0.7,1","1,0.7,0.7,0.7,1,0.7,0.7,0.7,1","","",""
"","html-keyboard-response","192","90833","0.0-192.0","3GA6AFUKOPAI6JM4FATMXIMZRPTH3E","A3CH1Z6J9R38G9","32XN26MTXZ5MP383W6LZYTLBY7P0LI","","null","<img src=""img/land5.png"" style=""width:200px;border:14px solid red;"">","null","","","","","","","","","",""
"","image-keyboard-response","193","90951","0.0-193.0","3GA6AFUKOPAI6JM4FATMXIMZRPTH3E","A3CH1Z6J9R38G9","32XN26MTXZ5MP383W6LZYTLBY7P0LI","","117.39999999850988","img/land5.png","75","118.10000000149012","2","1","2","1","1,0.7,0.7,0.7,1,0.7,0.7,0.7,1","1,0.7,0.7,0.7,1,0.7,0.7,0.7,1","","",""
"","html-keyboard-response","194","91252","0.0-194.0","3GA6AFUKOPAI6JM4FATMXIMZRPTH3E","A3CH1Z6J9R38G9","32XN26MTXZ5MP383W6LZYTLBY7P0LI","","null","<img src=""img/land5.png"" style=""width:200px; border:14px solid green;"">","null","","","","","","","","","",""
"","image-keyboard-response","195","91702","0.0-195.0","3GA6AFUKOPAI6JM4FATMXIMZRPTH3E","A3CH1Z6J9R38G9","32XN26MTXZ5MP383W6LZYTLBY7P0LI","","449.3999999985099","img/land6.png","74","450","1","1","3","1","1,0.7,0.7,0.7,1,0.7,0.7,0.7,1","1,0.7,0.7,0.7,1,0.7,0.7,0.7,1","","",""
"","html-keyboard-response","196","92003","0.0-196.0","3GA6AFUKOPAI6JM4FATMXIMZRPTH3E","A3CH1Z6J9R38G9","32XN26MTXZ5MP383W6LZYTLBY7P0LI","","null","<img src=""img/land6.png"" style=""width:200px; border:14px solid green;"">","null","","","","","","","","","",""
"","image-keyboard-response","197","92306","0.0-197.0","3GA6AFUKOPAI6JM4FATMXIMZRPTH3E","A3CH1Z6J9R38G9","32XN26MTXZ5MP383W6LZYTLBY7P0LI","","301.79999999701977","img/land5.png","75","302.3999999985099","2","1","2","1","1,0.7,0.7,0.7,1,0.7,0.7,0.7,1","1,0.7,0.7,0.7,1,0.7,0.7,0.7,1","","",""
"","html-keyboard-response","198","92607","0.0-198.0","3GA6AFUKOPAI6JM4FATMXIMZRPTH3E","A3CH1Z6J9R38G9","32XN26MTXZ5MP383W6LZYTLBY7P0LI","","null","<img src=""img/land5.png"" style=""width:200px; border:14px solid green;"">","null","","","","","","","","","",""
"","image-keyboard-response","199","93306","0.0-199.0","3GA6AFUKOPAI6JM4FATMXIMZRPTH3E","A3CH1Z6J9R38G9","32XN26MTXZ5MP383W6LZYTLBY7P0LI","","697.7000000029802","img/land4.png","76","698.3000000044703","3","1","1","1","1,0.7,0.7,0.7,1,0.7,0.7,0.7,1","1,0.7,0.7,0.7,1,0.7,0.7,0.7,1","","",""
"","html-keyboard-response","200","93608","0.0-200.0","3GA6AFUKOPAI6JM4FATMXIMZRPTH3E","A3CH1Z6J9R38G9","32XN26MTXZ5MP383W6LZYTLBY7P0LI","","null","<img src=""img/land4.png"" style=""width:200px; border:14px solid green;"">","null","","","","","","","","","",""
"","image-keyboard-response","201","93904","0.0-201.0","3GA6AFUKOPAI6JM4FATMXIMZRPTH3E","A3CH1Z6J9R38G9","32XN26MTXZ5MP383W6LZYTLBY7P0LI","","295.3999999985099","img/land4.png","76","296.09999999403954","3","1","1","1","1,0.7,0.7,0.7,1,0.7,0.7,0.7,1","1,0.7,0.7,0.7,1,0.7,0.7,0.7,1","","",""
"","html-keyboard-response","202","94205","0.0-202.0","3GA6AFUKOPAI6JM4FATMXIMZRPTH3E","A3CH1Z6J9R38G9","32XN26MTXZ5MP383W6LZYTLBY7P0LI","","null","<img src=""img/land4.png"" style=""width:200px; border:14px solid green;"">","null","","","","","","","","","",""
"","image-keyboard-response","203","94449","0.0-203.0","3GA6AFUKOPAI6JM4FATMXIMZRPTH3E","A3CH1Z6J9R38G9","32XN26MTXZ5MP383W6LZYTLBY7P0LI","","242.39999999850988","img/land4.png","76","243.30000000447035","3","1","1","1","1,0.7,0.7,0.7,1,0.7,0.7,0.7,1","1,0.7,0.7,0.7,1,0.7,0.7,0.7,1","","",""
"","html-keyboard-response","204","94750","0.0-204.0","3GA6AFUKOPAI6JM4FATMXIMZRPTH3E","A3CH1Z6J9R38G9","32XN26MTXZ5MP383W6LZYTLBY7P0LI","","null","<img src=""img/land4.png"" style=""width:200px; border:14px solid green;"">","null","","","","","","","","","",""
"","image-keyboard-response","205","95269","0.0-205.0","3GA6AFUKOPAI6JM4FATMXIMZRPTH3E","A3CH1Z6J9R38G9","32XN26MTXZ5MP383W6LZYTLBY7P0LI","","516.7999999970198","img/land5.png","75","518","2","1","2","1","1,0.7,0.7,0.7,1,0.7,0.7,0.7,1","1,0.7,0.7,0.7,1,0.7,0.7,0.7,1","","",""
"","html-keyboard-response","206","95570","0.0-206.0","3GA6AFUKOPAI6JM4FATMXIMZRPTH3E","A3CH1Z6J9R38G9","32XN26MTXZ5MP383W6LZYTLBY7P0LI","","null","<img src=""img/land5.png"" style=""width:200px; border:14px solid green;"">","null","","","","","","","","","",""
"","image-keyboard-response","207","96316","0.0-207.0","3GA6AFUKOPAI6JM4FATMXIMZRPTH3E","A3CH1Z6J9R38G9","32XN26MTXZ5MP383W6LZYTLBY7P0LI","","744.5","img/land6.png","74","745.3000000044703","1","0","3","1","1,0.7,0.7,0.7,1,0.7,0.7,0.7,1","1,0.7,0.7,0.7,1,0.7,0.7,0.7,1","","",""
"","html-keyboard-response","208","96617","0.0-208.0","3GA6AFUKOPAI6JM4FATMXIMZRPTH3E","A3CH1Z6J9R38G9","32XN26MTXZ5MP383W6LZYTLBY7P0LI","","null","<img src=""img/land6.png"" style=""width:200px;border:14px solid red;"">","null","","","","","","","","","",""
"","image-keyboard-response","209","97129","0.0-209.0","3GA6AFUKOPAI6JM4FATMXIMZRPTH3E","A3CH1Z6J9R38G9","32XN26MTXZ5MP383W6LZYTLBY7P0LI","","510.69999999552965","img/land5.png","75","511.3999999985099","2","1","2","1","1,0.7,0.7,0.7,1,0.7,0.7,0.7,1","1,0.7,0.7,0.7,1,0.7,0.7,0.7,1","","",""
"","html-keyboard-response","210","97430","0.0-210.0","3GA6AFUKOPAI6JM4FATMXIMZRPTH3E","A3CH1Z6J9R38G9","32XN26MTXZ5MP383W6LZYTLBY7P0LI","","null","<img src=""img/land5.png"" style=""width:200px; border:14px solid green;"">","null","","","","","","","","","",""
"","image-keyboard-response","211","97997","0.0-211.0","3GA6AFUKOPAI6JM4FATMXIMZRPTH3E","A3CH1Z6J9R38G9","32XN26MTXZ5MP383W6LZYTLBY7P0LI","","565.7000000029802","img/land6.png","74","566.3000000044703","1","0","3","1","1,0.7,0.7,0.7,1,0.7,0.7,0.7,1","1,0.7,0.7,0.7,1,0.7,0.7,0.7,1","","",""
"","html-keyboard-response","212","98298","0.0-212.0","3GA6AFUKOPAI6JM4FATMXIMZRPTH3E","A3CH1Z6J9R38G9","32XN26MTXZ5MP383W6LZYTLBY7P0LI","","null","<img src=""img/land6.png"" style=""width:200px;border:14px solid red;"">","null","","","","","","","","","",""
"","image-keyboard-response","213","98673","0.0-213.0","3GA6AFUKOPAI6JM4FATMXIMZRPTH3E","A3CH1Z6J9R38G9","32XN26MTXZ5MP383W6LZYTLBY7P0LI","","374.1000000014901","img/land5.png","75","374.8999999985099","2","1","2","1","1,0.7,0.7,0.7,1,0.7,0.7,0.7,1","1,0.7,0.7,0.7,1,0.7,0.7,0.7,1","","",""
"","html-keyboard-response","214","98975","0.0-214.0","3GA6AFUKOPAI6JM4FATMXIMZRPTH3E","A3CH1Z6J9R38G9","32XN26MTXZ5MP383W6LZYTLBY7P0LI","","null","<img src=""img/land5.png"" style=""width:200px; border:14px solid green;"">","null","","","","","","","","","",""
"","image-keyboard-response","215","99301","0.0-215.0","3GA6AFUKOPAI6JM4FATMXIMZRPTH3E","A3CH1Z6J9R38G9","32XN26MTXZ5MP383W6LZYTLBY7P0LI","","324.70000000298023","img/land5.png","75","325.5","2","1","2","1","1,0.7,0.7,0.7,1,0.7,0.7,0.7,1","1,0.7,0.7,0.7,1,0.7,0.7,0.7,1","","",""
"","html-keyboard-response","216","99602","0.0-216.0","3GA6AFUKOPAI6JM4FATMXIMZRPTH3E","A3CH1Z6J9R38G9","32XN26MTXZ5MP383W6LZYTLBY7P0LI","","null","<img src=""img/land5.png"" style=""width:200px; border:14px solid green;"">","null","","","","","","","","","",""
"","image-keyboard-response","217","100211","0.0-217.0","3GA6AFUKOPAI6JM4FATMXIMZRPTH3E","A3CH1Z6J9R38G9","32XN26MTXZ5MP383W6LZYTLBY7P0LI","","607.2999999970198","img/land6.png","74","608.1000000014901","1","0","3","1","1,0.7,0.7,0.7,1,0.7,0.7,0.7,1","1,0.7,0.7,0.7,1,0.7,0.7,0.7,1","","",""
"","html-keyboard-response","218","100512","0.0-218.0","3GA6AFUKOPAI6JM4FATMXIMZRPTH3E","A3CH1Z6J9R38G9","32XN26MTXZ5MP383W6LZYTLBY7P0LI","","null","<img src=""img/land6.png"" style=""width:200px;border:14px solid red;"">","null","","","","","","","","","",""
"","image-keyboard-response","219","101158","0.0-219.0","3GA6AFUKOPAI6JM4FATMXIMZRPTH3E","A3CH1Z6J9R38G9","32XN26MTXZ5MP383W6LZYTLBY7P0LI","","644.3999999985099","img/land6.png","74","645.1000000014901","1","1","3","1","1,0.7,0.7,0.7,1,0.7,0.7,0.7,1","1,0.7,0.7,0.7,1,0.7,0.7,0.7,1","","",""
"","html-keyboard-response","220","101459","0.0-220.0","3GA6AFUKOPAI6JM4FATMXIMZRPTH3E","A3CH1Z6J9R38G9","32XN26MTXZ5MP383W6LZYTLBY7P0LI","","null","<img src=""img/land6.png"" style=""width:200px; border:14px solid green;"">","null","","","","","","","","","",""
"","image-keyboard-response","221","101716","0.0-221.0","3GA6AFUKOPAI6JM4FATMXIMZRPTH3E","A3CH1Z6J9R38G9","32XN26MTXZ5MP383W6LZYTLBY7P0LI","","256","img/land6.png","74","256.6000000014901","1","1","3","1","1,0.7,0.7,0.7,1,0.7,0.7,0.7,1","1,0.7,0.7,0.7,1,0.7,0.7,0.7,1","","",""
"","html-keyboard-response","222","102017","0.0-222.0","3GA6AFUKOPAI6JM4FATMXIMZRPTH3E","A3CH1Z6J9R38G9","32XN26MTXZ5MP383W6LZYTLBY7P0LI","","null","<img src=""img/land6.png"" style=""width:200px; border:14px solid green;"">","null","","","","","","","","","",""
"","image-keyboard-response","223","102239","0.0-223.0","3GA6AFUKOPAI6JM4FATMXIMZRPTH3E","A3CH1Z6J9R38G9","32XN26MTXZ5MP383W6LZYTLBY7P0LI","","220.60000000149012","img/land4.png","74","221.39999999850988","1","1","1","1","1,0.7,0.7,0.7,1,0.7,0.7,0.7,1","1,0.7,0.7,0.7,1,0.7,0.7,0.7,1","","",""
"","html-keyboard-response","224","102541","0.0-224.0","3GA6AFUKOPAI6JM4FATMXIMZRPTH3E","A3CH1Z6J9R38G9","32XN26MTXZ5MP383W6LZYTLBY7P0LI","","null","<img src=""img/land4.png"" style=""width:200px; border:14px solid green;"">","null","","","","","","","","","",""
"","image-keyboard-response","225","102914","0.0-225.0","3GA6AFUKOPAI6JM4FATMXIMZRPTH3E","A3CH1Z6J9R38G9","32XN26MTXZ5MP383W6LZYTLBY7P0LI","","372.29999999701977","img/land4.png","75","373.1000000014901","2","1","1","1","1,0.7,0.7,0.7,1,0.7,0.7,0.7,1","1,0.7,0.7,0.7,1,0.7,0.7,0.7,1","","",""
"","html-keyboard-response","226","103215","0.0-226.0","3GA6AFUKOPAI6JM4FATMXIMZRPTH3E","A3CH1Z6J9R38G9","32XN26MTXZ5MP383W6LZYTLBY7P0LI","","null","<img src=""img/land4.png"" style=""width:200px; border:14px solid green;"">","null","","","","","","","","","",""
"","image-keyboard-response","227","103331","0.0-227.0","3GA6AFUKOPAI6JM4FATMXIMZRPTH3E","A3CH1Z6J9R38G9","32XN26MTXZ5MP383W6LZYTLBY7P0LI","","115.89999999850988","img/land5.png","74","116.5","1","0","2","1","1,0.7,0.7,0.7,1,0.7,0.7,0.7,1","1,0.7,0.7,0.7,1,0.7,0.7,0.7,1","","",""
"","html-keyboard-response","228","103633","0.0-228.0","3GA6AFUKOPAI6JM4FATMXIMZRPTH3E","A3CH1Z6J9R38G9","32XN26MTXZ5MP383W6LZYTLBY7P0LI","","null","<img src=""img/land5.png"" style=""width:200px;border:14px solid red;"">","null","","","","","","","","","",""
"","image-keyboard-response","229","103674","0.0-229.0","3GA6AFUKOPAI6JM4FATMXIMZRPTH3E","A3CH1Z6J9R38G9","32XN26MTXZ5MP383W6LZYTLBY7P0LI","","39.5","img/land6.png","75","40.20000000298023","2","1","3","1","1,0.7,0.7,0.7,1,0.7,0.7,0.7,1","1,0.7,0.7,0.7,1,0.7,0.7,0.7,1","","",""
"","html-keyboard-response","230","103975","0.0-230.0","3GA6AFUKOPAI6JM4FATMXIMZRPTH3E","A3CH1Z6J9R38G9","32XN26MTXZ5MP383W6LZYTLBY7P0LI","","null","<img src=""img/land6.png"" style=""width:200px; border:14px solid green;"">","null","","","","","","","","","",""
"","image-keyboard-response","231","104321","0.0-231.0","3GA6AFUKOPAI6JM4FATMXIMZRPTH3E","A3CH1Z6J9R38G9","32XN26MTXZ5MP383W6LZYTLBY7P0LI","","345.80000000447035","img/land6.png","74","346.5","1","1","3","1","1,0.7,0.7,0.7,1,0.7,0.7,0.7,1","1,0.7,0.7,0.7,1,0.7,0.7,0.7,1","","",""
"","html-keyboard-response","232","104622","0.0-232.0","3GA6AFUKOPAI6JM4FATMXIMZRPTH3E","A3CH1Z6J9R38G9","32XN26MTXZ5MP383W6LZYTLBY7P0LI","","null","<img src=""img/land6.png"" style=""width:200px; border:14px solid green;"">","null","","","","","","","","","",""
"","image-keyboard-response","233","108111","0.0-233.0","3GA6AFUKOPAI6JM4FATMXIMZRPTH3E","A3CH1Z6J9R38G9","32XN26MTXZ5MP383W6LZYTLBY7P0LI","","3488.2999999970198","img/land4.png","75","3489.10000000149","2","1","1","1","1,0.7,0.7,0.7,1,0.7,0.7,0.7,1","1,0.7,0.7,0.7,1,0.7,0.7,0.7,1","","",""
"","html-keyboard-response","234","108412","0.0-234.0","3GA6AFUKOPAI6JM4FATMXIMZRPTH3E","A3CH1Z6J9R38G9","32XN26MTXZ5MP383W6LZYTLBY7P0LI","","null","<img src=""img/land4.png"" style=""width:200px; border:14px solid green;"">","null","","","","","","","","","",""
"","image-keyboard-response","235","108824","0.0-235.0","3GA6AFUKOPAI6JM4FATMXIMZRPTH3E","A3CH1Z6J9R38G9","32XN26MTXZ5MP383W6LZYTLBY7P0LI","","410.90000000596046","img/land6.png","75","411.69999999552965","2","0","3","1","1,0.7,0.7,0.7,1,0.7,0.7,0.7,1","1,0.7,0.7,0.7,1,0.7,0.7,0.7,1","","",""
"","html-keyboard-response","236","109138","0.0-236.0","3GA6AFUKOPAI6JM4FATMXIMZRPTH3E","A3CH1Z6J9R38G9","32XN26MTXZ5MP383W6LZYTLBY7P0LI","","null","<img src=""img/land6.png"" style=""width:200px;border:14px solid red;"">","null","","","","","","","","","",""
"","image-keyboard-response","237","113174","0.0-237.0","3GA6AFUKOPAI6JM4FATMXIMZRPTH3E","A3CH1Z6J9R38G9","32XN26MTXZ5MP383W6LZYTLBY7P0LI","","4035.39999999851","img/land4.png","74","4036","1","1","1","1","1,0.7,0.7,0.7,1,0.7,0.7,0.7,1","1,0.7,0.7,0.7,1,0.7,0.7,0.7,1","","",""
"","html-keyboard-response","238","113476","0.0-238.0","3GA6AFUKOPAI6JM4FATMXIMZRPTH3E","A3CH1Z6J9R38G9","32XN26MTXZ5MP383W6LZYTLBY7P0LI","","null","<img src=""img/land4.png"" style=""width:200px; border:14px solid green;"">","null","","","","","","","","","",""
"","image-keyboard-response","239","113837","0.0-239.0","3GA6AFUKOPAI6JM4FATMXIMZRPTH3E","A3CH1Z6J9R38G9","32XN26MTXZ5MP383W6LZYTLBY7P0LI","","360","img/land5.png","75","360.70000000298023","2","1","2","1","1,0.7,0.7,0.7,1,0.7,0.7,0.7,1","1,0.7,0.7,0.7,1,0.7,0.7,0.7,1","","",""
"","html-keyboard-response","240","114139","0.0-240.0","3GA6AFUKOPAI6JM4FATMXIMZRPTH3E","A3CH1Z6J9R38G9","32XN26MTXZ5MP383W6LZYTLBY7P0LI","","null","<img src=""img/land5.png"" style=""width:200px; border:14px solid green;"">","null","","","","","","","","","",""
"","image-keyboard-response","241","114462","0.0-241.0","3GA6AFUKOPAI6JM4FATMXIMZRPTH3E","A3CH1Z6J9R38G9","32XN26MTXZ5MP383W6LZYTLBY7P0LI","","322.59999999403954","img/land4.png","75","323.29999999701977","2","0","1","1","1,0.7,0.7,0.7,1,0.7,0.7,0.7,1","1,0.7,0.7,0.7,1,0.7,0.7,0.7,1","","",""
"","html-keyboard-response","242","114764","0.0-242.0","3GA6AFUKOPAI6JM4FATMXIMZRPTH3E","A3CH1Z6J9R38G9","32XN26MTXZ5MP383W6LZYTLBY7P0LI","","null","<img src=""img/land4.png"" style=""width:200px;border:14px solid red;"">","null","","","","","","","","","",""
"","image-keyboard-response","243","114971","0.0-243.0","3GA6AFUKOPAI6JM4FATMXIMZRPTH3E","A3CH1Z6J9R38G9","32XN26MTXZ5MP383W6LZYTLBY7P0LI","","206.80000000447035","img/land4.png","74","207.5","1","1","1","1","1,0.7,0.7,0.7,1,0.7,0.7,0.7,1","1,0.7,0.7,0.7,1,0.7,0.7,0.7,1","","",""
"","html-keyboard-response","244","115272","0.0-244.0","3GA6AFUKOPAI6JM4FATMXIMZRPTH3E","A3CH1Z6J9R38G9","32XN26MTXZ5MP383W6LZYTLBY7P0LI","","null","<img src=""img/land4.png"" style=""width:200px; border:14px solid green;"">","null","","","","","","","","","",""
"","image-keyboard-response","245","115548","0.0-245.0","3GA6AFUKOPAI6JM4FATMXIMZRPTH3E","A3CH1Z6J9R38G9","32XN26MTXZ5MP383W6LZYTLBY7P0LI","","275.30000000447035","img/land4.png","74","276","1","1","1","1","1,0.7,0.7,0.7,1,0.7,0.7,0.7,1","1,0.7,0.7,0.7,1,0.7,0.7,0.7,1","","",""
"","html-keyboard-response","246","115849","0.0-246.0","3GA6AFUKOPAI6JM4FATMXIMZRPTH3E","A3CH1Z6J9R38G9","32XN26MTXZ5MP383W6LZYTLBY7P0LI","","null","<img src=""img/land4.png"" style=""width:200px; border:14px solid green;"">","null","","","","","","","","","",""
"","image-keyboard-response","247","116438","0.0-247.0","3GA6AFUKOPAI6JM4FATMXIMZRPTH3E","A3CH1Z6J9R38G9","32XN26MTXZ5MP383W6LZYTLBY7P0LI","","588","img/land5.png","74","588.7000000029802","1","1","2","1","1,0.7,0.7,0.7,1,0.7,0.7,0.7,1","1,0.7,0.7,0.7,1,0.7,0.7,0.7,1","","",""
"","html-keyboard-response","248","116740","0.0-248.0","3GA6AFUKOPAI6JM4FATMXIMZRPTH3E","A3CH1Z6J9R38G9","32XN26MTXZ5MP383W6LZYTLBY7P0LI","","null","<img src=""img/land5.png"" style=""width:200px; border:14px solid green;"">","null","","","","","","","","","",""
"","image-keyboard-response","249","117678","0.0-249.0","3GA6AFUKOPAI6JM4FATMXIMZRPTH3E","A3CH1Z6J9R38G9","32XN26MTXZ5MP383W6LZYTLBY7P0LI","","937.8999999985099","img/land6.png","74","938.6000000014901","1","0","3","1","1,0.7,0.7,0.7,1,0.7,0.7,0.7,1","1,0.7,0.7,0.7,1,0.7,0.7,0.7,1","","",""
"","html-keyboard-response","250","117981","0.0-250.0","3GA6AFUKOPAI6JM4FATMXIMZRPTH3E","A3CH1Z6J9R38G9","32XN26MTXZ5MP383W6LZYTLBY7P0LI","","null","<img src=""img/land6.png"" style=""width:200px;border:14px solid red;"">","null","","","","","","","","","",""
"","image-keyboard-response","251","118323","0.0-251.0","3GA6AFUKOPAI6JM4FATMXIMZRPTH3E","A3CH1Z6J9R38G9","32XN26MTXZ5MP383W6LZYTLBY7P0LI","","341.69999999552965","img/land6.png","74","342.3999999985099","1","1","3","1","1,0.7,0.7,0.7,1,0.7,0.7,0.7,1","1,0.7,0.7,0.7,1,0.7,0.7,0.7,1","","",""
"","html-keyboard-response","252","118625","0.0-252.0","3GA6AFUKOPAI6JM4FATMXIMZRPTH3E","A3CH1Z6J9R38G9","32XN26MTXZ5MP383W6LZYTLBY7P0LI","","null","<img src=""img/land6.png"" style=""width:200px; border:14px solid green;"">","null","","","","","","","","","",""
"","image-keyboard-response","253","118822","0.0-253.0","3GA6AFUKOPAI6JM4FATMXIMZRPTH3E","A3CH1Z6J9R38G9","32XN26MTXZ5MP383W6LZYTLBY7P0LI","","196.60000000149012","img/land6.png","74","197.19999999552965","1","1","3","1","1,0.7,0.7,0.7,1,0.7,0.7,0.7,1","1,0.7,0.7,0.7,1,0.7,0.7,0.7,1","","",""
"","html-keyboard-response","254","119123","0.0-254.0","3GA6AFUKOPAI6JM4FATMXIMZRPTH3E","A3CH1Z6J9R38G9","32XN26MTXZ5MP383W6LZYTLBY7P0LI","","null","<img src=""img/land6.png"" style=""width:200px; border:14px solid green;"">","null","","","","","","","","","",""
"","image-keyboard-response","255","119314","0.0-255.0","3GA6AFUKOPAI6JM4FATMXIMZRPTH3E","A3CH1Z6J9R38G9","32XN26MTXZ5MP383W6LZYTLBY7P0LI","","190.09999999403954","img/land6.png","74","190.79999999701977","1","1","3","1","1,0.7,0.7,0.7,1,0.7,0.7,0.7,1","1,0.7,0.7,0.7,1,0.7,0.7,0.7,1","","",""
"","html-keyboard-response","256","119616","0.0-256.0","3GA6AFUKOPAI6JM4FATMXIMZRPTH3E","A3CH1Z6J9R38G9","32XN26MTXZ5MP383W6LZYTLBY7P0LI","","null","<img src=""img/land6.png"" style=""width:200px; border:14px solid green;"">","null","","","","","","","","","",""
"","image-keyboard-response","257","119737","0.0-257.0","3GA6AFUKOPAI6JM4FATMXIMZRPTH3E","A3CH1Z6J9R38G9","32XN26MTXZ5MP383W6LZYTLBY7P0LI","","120.60000000149012","img/land6.png","74","121.39999999850988","1","1","3","1","1,0.7,0.7,0.7,1,0.7,0.7,0.7,1","1,0.7,0.7,0.7,1,0.7,0.7,0.7,1","","",""
"","html-keyboard-response","258","120039","0.0-258.0","3GA6AFUKOPAI6JM4FATMXIMZRPTH3E","A3CH1Z6J9R38G9","32XN26MTXZ5MP383W6LZYTLBY7P0LI","","null","<img src=""img/land6.png"" style=""width:200px; border:14px solid green;"">","null","","","","","","","","","",""
"","image-keyboard-response","259","120996","0.0-259.0","3GA6AFUKOPAI6JM4FATMXIMZRPTH3E","A3CH1Z6J9R38G9","32XN26MTXZ5MP383W6LZYTLBY7P0LI","","956.5","img/land5.png","75","957.1999999955297","2","1","2","1","1,0.7,0.7,0.7,1,0.7,0.7,0.7,1","1,0.7,0.7,0.7,1,0.7,0.7,0.7,1","","",""
"","html-keyboard-response","260","121297","0.0-260.0","3GA6AFUKOPAI6JM4FATMXIMZRPTH3E","A3CH1Z6J9R38G9","32XN26MTXZ5MP383W6LZYTLBY7P0LI","","null","<img src=""img/land5.png"" style=""width:200px; border:14px solid green;"">","null","","","","","","","","","",""
"","image-keyboard-response","261","121864","0.0-261.0","3GA6AFUKOPAI6JM4FATMXIMZRPTH3E","A3CH1Z6J9R38G9","32XN26MTXZ5MP383W6LZYTLBY7P0LI","","566.0999999940395","img/land6.png","74","566.8999999985099","1","0","3","1","1,0.7,0.7,0.7,1,0.7,0.7,0.7,1","1,0.7,0.7,0.7,1,0.7,0.7,0.7,1","","",""
"","html-keyboard-response","262","122167","0.0-262.0","3GA6AFUKOPAI6JM4FATMXIMZRPTH3E","A3CH1Z6J9R38G9","32XN26MTXZ5MP383W6LZYTLBY7P0LI","","null","<img src=""img/land6.png"" style=""width:200px;border:14px solid red;"">","null","","","","","","","","","",""
"","image-keyboard-response","263","122307","0.0-263.0","3GA6AFUKOPAI6JM4FATMXIMZRPTH3E","A3CH1Z6J9R38G9","32XN26MTXZ5MP383W6LZYTLBY7P0LI","","139.80000000447035","img/land5.png","74","140.39999999850988","1","0","2","1","1,0.7,0.7,0.7,1,0.7,0.7,0.7,1","1,0.7,0.7,0.7,1,0.7,0.7,0.7,1","","",""
"","html-keyboard-response","264","122609","0.0-264.0","3GA6AFUKOPAI6JM4FATMXIMZRPTH3E","A3CH1Z6J9R38G9","32XN26MTXZ5MP383W6LZYTLBY7P0LI","","null","<img src=""img/land5.png"" style=""width:200px;border:14px solid red;"">","null","","","","","","","","","",""
"","image-keyboard-response","265","122953","0.0-265.0","3GA6AFUKOPAI6JM4FATMXIMZRPTH3E","A3CH1Z6J9R38G9","32XN26MTXZ5MP383W6LZYTLBY7P0LI","","343.70000000298023","img/land5.png","75","344.3999999985099","2","1","2","1","1,0.7,0.7,0.7,1,0.7,0.7,0.7,1","1,0.7,0.7,0.7,1,0.7,0.7,0.7,1","","",""
"","html-keyboard-response","266","123255","0.0-266.0","3GA6AFUKOPAI6JM4FATMXIMZRPTH3E","A3CH1Z6J9R38G9","32XN26MTXZ5MP383W6LZYTLBY7P0LI","","null","<img src=""img/land5.png"" style=""width:200px; border:14px solid green;"">","null","","","","","","","","","",""
"","image-keyboard-response","267","123525","0.0-267.0","3GA6AFUKOPAI6JM4FATMXIMZRPTH3E","A3CH1Z6J9R38G9","32XN26MTXZ5MP383W6LZYTLBY7P0LI","","268.70000000298023","img/land5.png","75","269.5","2","1","2","1","1,0.7,0.7,0.7,1,0.7,0.7,0.7,1","1,0.7,0.7,0.7,1,0.7,0.7,0.7,1","","",""
"","html-keyboard-response","268","123827","0.0-268.0","3GA6AFUKOPAI6JM4FATMXIMZRPTH3E","A3CH1Z6J9R38G9","32XN26MTXZ5MP383W6LZYTLBY7P0LI","","null","<img src=""img/land5.png"" style=""width:200px; border:14px solid green;"">","null","","","","","","","","","",""
"","image-keyboard-response","269","124613","0.0-269.0","3GA6AFUKOPAI6JM4FATMXIMZRPTH3E","A3CH1Z6J9R38G9","32XN26MTXZ5MP383W6LZYTLBY7P0LI","","785.8000000044703","img/land4.png","76","786.5","3","1","1","1","1,0.7,0.7,0.7,1,0.7,0.7,0.7,1","1,0.7,0.7,0.7,1,0.7,0.7,0.7,1","","",""
"","html-keyboard-response","270","124915","0.0-270.0","3GA6AFUKOPAI6JM4FATMXIMZRPTH3E","A3CH1Z6J9R38G9","32XN26MTXZ5MP383W6LZYTLBY7P0LI","","null","<img src=""img/land4.png"" style=""width:200px; border:14px solid green;"">","null","","","","","","","","","",""
"","image-keyboard-response","271","125625","0.0-271.0","3GA6AFUKOPAI6JM4FATMXIMZRPTH3E","A3CH1Z6J9R38G9","32XN26MTXZ5MP383W6LZYTLBY7P0LI","","709.2000000029802","img/land6.png","75","709.8999999985099","2","0","3","1","1,0.7,0.7,0.7,1,0.7,0.7,0.7,1","1,0.7,0.7,0.7,1,0.7,0.7,0.7,1","","",""
"","html-keyboard-response","272","125927","0.0-272.0","3GA6AFUKOPAI6JM4FATMXIMZRPTH3E","A3CH1Z6J9R38G9","32XN26MTXZ5MP383W6LZYTLBY7P0LI","","null","<img src=""img/land6.png"" style=""width:200px;border:14px solid red;"">","null","","","","","","","","","",""
"","image-keyboard-response","273","126069","0.0-273.0","3GA6AFUKOPAI6JM4FATMXIMZRPTH3E","A3CH1Z6J9R38G9","32XN26MTXZ5MP383W6LZYTLBY7P0LI","","141.59999999403954","img/land6.png","76","142.29999999701977","3","1","3","1","1,0.7,0.7,0.7,1,0.7,0.7,0.7,1","1,0.7,0.7,0.7,1,0.7,0.7,0.7,1","","",""
"","html-keyboard-response","274","126370","0.0-274.0","3GA6AFUKOPAI6JM4FATMXIMZRPTH3E","A3CH1Z6J9R38G9","32XN26MTXZ5MP383W6LZYTLBY7P0LI","","null","<img src=""img/land6.png"" style=""width:200px; border:14px solid green;"">","null","","","","","","","","","",""
"","image-keyboard-response","275","126513","0.0-275.0","3GA6AFUKOPAI6JM4FATMXIMZRPTH3E","A3CH1Z6J9R38G9","32XN26MTXZ5MP383W6LZYTLBY7P0LI","","141.89999999850988","img/land4.png","76","142.70000000298023","3","0","1","1","1,0.7,0.7,0.7,1,0.7,0.7,0.7,1","1,0.7,0.7,0.7,1,0.7,0.7,0.7,1","","",""
"","html-keyboard-response","276","126814","0.0-276.0","3GA6AFUKOPAI6JM4FATMXIMZRPTH3E","A3CH1Z6J9R38G9","32XN26MTXZ5MP383W6LZYTLBY7P0LI","","null","<img src=""img/land4.png"" style=""width:200px;border:14px solid red;"">","null","","","","","","","","","",""
"","image-keyboard-response","277","127265","0.0-277.0","3GA6AFUKOPAI6JM4FATMXIMZRPTH3E","A3CH1Z6J9R38G9","32XN26MTXZ5MP383W6LZYTLBY7P0LI","","449.8999999985099","img/land5.png","75","450.70000000298023","2","1","2","1","1,0.7,0.7,0.7,1,0.7,0.7,0.7,1","1,0.7,0.7,0.7,1,0.7,0.7,0.7,1","","",""
"","html-keyboard-response","278","127566","0.0-278.0","3GA6AFUKOPAI6JM4FATMXIMZRPTH3E","A3CH1Z6J9R38G9","32XN26MTXZ5MP383W6LZYTLBY7P0LI","","null","<img src=""img/land5.png"" style=""width:200px; border:14px solid green;"">","null","","","","","","","","","",""
"","image-keyboard-response","279","128077","0.0-279.0","3GA6AFUKOPAI6JM4FATMXIMZRPTH3E","A3CH1Z6J9R38G9","32XN26MTXZ5MP383W6LZYTLBY7P0LI","","510.1000000014901","img/land6.png","75","511.09999999403954","2","1","3","1","1,0.7,0.7,0.7,1,0.7,0.7,0.7,1","1,0.7,0.7,0.7,1,0.7,0.7,0.7,1","","",""
"","html-keyboard-response","280","128379","0.0-280.0","3GA6AFUKOPAI6JM4FATMXIMZRPTH3E","A3CH1Z6J9R38G9","32XN26MTXZ5MP383W6LZYTLBY7P0LI","","null","<img src=""img/land6.png"" style=""width:200px; border:14px solid green;"">","null","","","","","","","","","",""
"","image-keyboard-response","281","128678","0.0-281.0","3GA6AFUKOPAI6JM4FATMXIMZRPTH3E","A3CH1Z6J9R38G9","32XN26MTXZ5MP383W6LZYTLBY7P0LI","","298.3999999985099","img/land6.png","75","299.09999999403954","2","1","3","1","1,0.7,0.7,0.7,1,0.7,0.7,0.7,1","1,0.7,0.7,0.7,1,0.7,0.7,0.7,1","","",""
"","html-keyboard-response","282","128979","0.0-282.0","3GA6AFUKOPAI6JM4FATMXIMZRPTH3E","A3CH1Z6J9R38G9","32XN26MTXZ5MP383W6LZYTLBY7P0LI","","null","<img src=""img/land6.png"" style=""width:200px; border:14px solid green;"">","null","","","","","","","","","",""
"","image-keyboard-response","283","129677","0.0-283.0","3GA6AFUKOPAI6JM4FATMXIMZRPTH3E","A3CH1Z6J9R38G9","32XN26MTXZ5MP383W6LZYTLBY7P0LI","","696.8000000044703","img/land4.png","75","697.5999999940395","2","0","1","1","1,0.7,0.7,0.7,1,0.7,0.7,0.7,1","1,0.7,0.7,0.7,1,0.7,0.7,0.7,1","","",""
"","html-keyboard-response","284","129978","0.0-284.0","3GA6AFUKOPAI6JM4FATMXIMZRPTH3E","A3CH1Z6J9R38G9","32XN26MTXZ5MP383W6LZYTLBY7P0LI","","null","<img src=""img/land4.png"" style=""width:200px;border:14px solid red;"">","null","","","","","","","","","",""
"","image-keyboard-response","285","130132","0.0-285.0","3GA6AFUKOPAI6JM4FATMXIMZRPTH3E","A3CH1Z6J9R38G9","32XN26MTXZ5MP383W6LZYTLBY7P0LI","","152.80000000447035","img/land6.png","76","153.5","3","1","3","1","1,0.7,0.7,0.7,1,0.7,0.7,0.7,1","1,0.7,0.7,0.7,1,0.7,0.7,0.7,1","","",""
"","html-keyboard-response","286","130433","0.0-286.0","3GA6AFUKOPAI6JM4FATMXIMZRPTH3E","A3CH1Z6J9R38G9","32XN26MTXZ5MP383W6LZYTLBY7P0LI","","null","<img src=""img/land6.png"" style=""width:200px; border:14px solid green;"">","null","","","","","","","","","",""
"","image-keyboard-response","287","130754","0.0-287.0","3GA6AFUKOPAI6JM4FATMXIMZRPTH3E","A3CH1Z6J9R38G9","32XN26MTXZ5MP383W6LZYTLBY7P0LI","","319.80000000447035","img/land6.png","75","320.3999999985099","2","1","3","1","1,0.7,0.7,0.7,1,0.7,0.7,0.7,1","1,0.7,0.7,0.7,1,0.7,0.7,0.7,1","","",""
"","html-keyboard-response","288","131055","0.0-288.0","3GA6AFUKOPAI6JM4FATMXIMZRPTH3E","A3CH1Z6J9R38G9","32XN26MTXZ5MP383W6LZYTLBY7P0LI","","null","<img src=""img/land6.png"" style=""width:200px; border:14px solid green;"">","null","","","","","","","","","",""
"","image-keyboard-response","289","131236","0.0-289.0","3GA6AFUKOPAI6JM4FATMXIMZRPTH3E","A3CH1Z6J9R38G9","32XN26MTXZ5MP383W6LZYTLBY7P0LI","","179.70000000298023","img/land6.png","75","180.40000000596046","2","0","3","1","1,0.7,0.7,0.7,1,0.7,0.7,0.7,1","1,0.7,0.7,0.7,1,0.7,0.7,0.7,1","","",""
"","html-keyboard-response","290","131537","0.0-290.0","3GA6AFUKOPAI6JM4FATMXIMZRPTH3E","A3CH1Z6J9R38G9","32XN26MTXZ5MP383W6LZYTLBY7P0LI","","null","<img src=""img/land6.png"" style=""width:200px;border:14px solid red;"">","null","","","","","","","","","",""
"","image-keyboard-response","291","132016","0.0-291.0","3GA6AFUKOPAI6JM4FATMXIMZRPTH3E","A3CH1Z6J9R38G9","32XN26MTXZ5MP383W6LZYTLBY7P0LI","","478.1000000014901","img/land5.png","76","478.8999999985099","3","0","2","1","1,0.7,0.7,0.7,1,0.7,0.7,0.7,1","1,0.7,0.7,0.7,1,0.7,0.7,0.7,1","","",""
"","html-keyboard-response","292","132317","0.0-292.0","3GA6AFUKOPAI6JM4FATMXIMZRPTH3E","A3CH1Z6J9R38G9","32XN26MTXZ5MP383W6LZYTLBY7P0LI","","null","<img src=""img/land5.png"" style=""width:200px;border:14px solid red;"">","null","","","","","","","","","",""
"","image-keyboard-response","293","132572","0.0-293.0","3GA6AFUKOPAI6JM4FATMXIMZRPTH3E","A3CH1Z6J9R38G9","32XN26MTXZ5MP383W6LZYTLBY7P0LI","","253.70000000298023","img/land6.png","75","254.30000000447035","2","1","3","1","1,0.7,0.7,0.7,1,0.7,0.7,0.7,1","1,0.7,0.7,0.7,1,0.7,0.7,0.7,1","","",""
"","html-keyboard-response","294","132873","0.0-294.0","3GA6AFUKOPAI6JM4FATMXIMZRPTH3E","A3CH1Z6J9R38G9","32XN26MTXZ5MP383W6LZYTLBY7P0LI","","null","<img src=""img/land6.png"" style=""width:200px; border:14px solid green;"">","null","","","","","","","","","",""
"","image-keyboard-response","295","133119","0.0-295.0","3GA6AFUKOPAI6JM4FATMXIMZRPTH3E","A3CH1Z6J9R38G9","32XN26MTXZ5MP383W6LZYTLBY7P0LI","","245","img/land6.png","75","245.70000000298023","2","1","3","1","1,0.7,0.7,0.7,1,0.7,0.7,0.7,1","1,0.7,0.7,0.7,1,0.7,0.7,0.7,1","","",""
"","html-keyboard-response","296","133420","0.0-296.0","3GA6AFUKOPAI6JM4FATMXIMZRPTH3E","A3CH1Z6J9R38G9","32XN26MTXZ5MP383W6LZYTLBY7P0LI","","null","<img src=""img/land6.png"" style=""width:200px; border:14px solid green;"">","null","","","","","","","","","",""
"","image-keyboard-response","297","133599","0.0-297.0","3GA6AFUKOPAI6JM4FATMXIMZRPTH3E","A3CH1Z6J9R38G9","32XN26MTXZ5MP383W6LZYTLBY7P0LI","","178.20000000298023","img/land6.png","75","178.79999999701977","2","1","3","1","1,0.7,0.7,0.7,1,0.7,0.7,0.7,1","1,0.7,0.7,0.7,1,0.7,0.7,0.7,1","","",""
"","html-keyboard-response","298","133900","0.0-298.0","3GA6AFUKOPAI6JM4FATMXIMZRPTH3E","A3CH1Z6J9R38G9","32XN26MTXZ5MP383W6LZYTLBY7P0LI","","null","<img src=""img/land6.png"" style=""width:200px; border:14px solid green;"">","null","","","","","","","","","",""
"","image-keyboard-response","299","134228","0.0-299.0","3GA6AFUKOPAI6JM4FATMXIMZRPTH3E","A3CH1Z6J9R38G9","32XN26MTXZ5MP383W6LZYTLBY7P0LI","","326.8999999985099","img/land6.png","75","327.5","2","1","3","1","1,0.7,0.7,0.7,1,0.7,0.7,0.7,1","1,0.7,0.7,0.7,1,0.7,0.7,0.7,1","","",""
"","html-keyboard-response","300","134529","0.0-300.0","3GA6AFUKOPAI6JM4FATMXIMZRPTH3E","A3CH1Z6J9R38G9","32XN26MTXZ5MP383W6LZYTLBY7P0LI","","null","<img src=""img/land6.png"" style=""width:200px; border:14px solid green;"">","null","","","","","","","","","",""
"","image-keyboard-response","301","134788","0.0-301.0","3GA6AFUKOPAI6JM4FATMXIMZRPTH3E","A3CH1Z6J9R38G9","32XN26MTXZ5MP383W6LZYTLBY7P0LI","","258.1000000014901","img/land5.png","75","258.69999999552965","2","1","2","1","1,0.7,0.7,0.7,1,0.7,0.7,0.7,1","1,0.7,0.7,0.7,1,0.7,0.7,0.7,1","","",""
"","html-keyboard-response","302","135089","0.0-302.0","3GA6AFUKOPAI6JM4FATMXIMZRPTH3E","A3CH1Z6J9R38G9","32XN26MTXZ5MP383W6LZYTLBY7P0LI","","null","<img src=""img/land5.png"" style=""width:200px; border:14px solid green;"">","null","","","","","","","","","",""
"","image-keyboard-response","303","135437","0.0-303.0","3GA6AFUKOPAI6JM4FATMXIMZRPTH3E","A3CH1Z6J9R38G9","32XN26MTXZ5MP383W6LZYTLBY7P0LI","","347.30000000447035","img/land5.png","74","347.8999999985099","1","1","2","1","1,0.7,0.7,0.7,1,0.7,0.7,0.7,1","1,0.7,0.7,0.7,1,0.7,0.7,0.7,1","","",""
"","html-keyboard-response","304","135739","0.0-304.0","3GA6AFUKOPAI6JM4FATMXIMZRPTH3E","A3CH1Z6J9R38G9","32XN26MTXZ5MP383W6LZYTLBY7P0LI","","null","<img src=""img/land5.png"" style=""width:200px; border:14px solid green;"">","null","","","","","","","","","",""
"","image-keyboard-response","305","136035","0.0-305.0","3GA6AFUKOPAI6JM4FATMXIMZRPTH3E","A3CH1Z6J9R38G9","32XN26MTXZ5MP383W6LZYTLBY7P0LI","","294.79999999701977","img/land6.png","74","295.6000000014901","1","1","3","1","1,0.7,0.7,0.7,1,0.7,0.7,0.7,1","1,0.7,0.7,0.7,1,0.7,0.7,0.7,1","","",""
"","html-keyboard-response","306","136336","0.0-306.0","3GA6AFUKOPAI6JM4FATMXIMZRPTH3E","A3CH1Z6J9R38G9","32XN26MTXZ5MP383W6LZYTLBY7P0LI","","null","<img src=""img/land6.png"" style=""width:200px; border:14px solid green;"">","null","","","","","","","","","",""
"","image-keyboard-response","307","136366","0.0-307.0","3GA6AFUKOPAI6JM4FATMXIMZRPTH3E","A3CH1Z6J9R38G9","32XN26MTXZ5MP383W6LZYTLBY7P0LI","","28.69999999552965","img/land6.png","74","29.5","1","0","3","1","1,0.7,0.7,0.7,1,0.7,0.7,0.7,1","1,0.7,0.7,0.7,1,0.7,0.7,0.7,1","","",""
"","html-keyboard-response","308","136667","0.0-308.0","3GA6AFUKOPAI6JM4FATMXIMZRPTH3E","A3CH1Z6J9R38G9","32XN26MTXZ5MP383W6LZYTLBY7P0LI","","null","<img src=""img/land6.png"" style=""width:200px;border:14px solid red;"">","null","","","","","","","","","",""
"","image-keyboard-response","309","136999","0.0-309.0","3GA6AFUKOPAI6JM4FATMXIMZRPTH3E","A3CH1Z6J9R38G9","32XN26MTXZ5MP383W6LZYTLBY7P0LI","","330.80000000447035","img/land6.png","74","331.3999999985099","1","1","3","1","1,0.7,0.7,0.7,1,0.7,0.7,0.7,1","1,0.7,0.7,0.7,1,0.7,0.7,0.7,1","","",""
"","html-keyboard-response","310","137300","0.0-310.0","3GA6AFUKOPAI6JM4FATMXIMZRPTH3E","A3CH1Z6J9R38G9","32XN26MTXZ5MP383W6LZYTLBY7P0LI","","null","<img src=""img/land6.png"" style=""width:200px; border:14px solid green;"">","null","","","","","","","","","",""
"","image-keyboard-response","311","137456","0.0-311.0","3GA6AFUKOPAI6JM4FATMXIMZRPTH3E","A3CH1Z6J9R38G9","32XN26MTXZ5MP383W6LZYTLBY7P0LI","","154.79999999701977","img/land6.png","75","155.5","2","1","3","1","1,0.7,0.7,0.7,1,0.7,0.7,0.7,1","1,0.7,0.7,0.7,1,0.7,0.7,0.7,1","","",""
"","html-keyboard-response","312","137757","0.0-312.0","3GA6AFUKOPAI6JM4FATMXIMZRPTH3E","A3CH1Z6J9R38G9","32XN26MTXZ5MP383W6LZYTLBY7P0LI","","null","<img src=""img/land6.png"" style=""width:200px; border:14px solid green;"">","null","","","","","","","","","",""
"","image-keyboard-response","313","137800","0.0-313.0","3GA6AFUKOPAI6JM4FATMXIMZRPTH3E","A3CH1Z6J9R38G9","32XN26MTXZ5MP383W6LZYTLBY7P0LI","","42.20000000298023","img/land5.png","76","42.899999998509884","3","0","2","1","1,0.7,0.7,0.7,1,0.7,0.7,0.7,1","1,0.7,0.7,0.7,1,0.7,0.7,0.7,1","","",""
"","html-keyboard-response","314","138102","0.0-314.0","3GA6AFUKOPAI6JM4FATMXIMZRPTH3E","A3CH1Z6J9R38G9","32XN26MTXZ5MP383W6LZYTLBY7P0LI","","null","<img src=""img/land5.png"" style=""width:200px;border:14px solid red;"">","null","","","","","","","","","",""
"","image-keyboard-response","315","138431","0.0-315.0","3GA6AFUKOPAI6JM4FATMXIMZRPTH3E","A3CH1Z6J9R38G9","32XN26MTXZ5MP383W6LZYTLBY7P0LI","","328.19999999552965","img/land6.png","75","328.80000000447035","2","1","3","1","1,0.7,0.7,0.7,1,0.7,0.7,0.7,1","1,0.7,0.7,0.7,1,0.7,0.7,0.7,1","","",""
"","html-keyboard-response","316","138732","0.0-316.0","3GA6AFUKOPAI6JM4FATMXIMZRPTH3E","A3CH1Z6J9R38G9","32XN26MTXZ5MP383W6LZYTLBY7P0LI","","null","<img src=""img/land6.png"" style=""width:200px; border:14px solid green;"">","null","","","","","","","","","",""
"","image-keyboard-response","317","143115","0.0-317.0","3GA6AFUKOPAI6JM4FATMXIMZRPTH3E","A3CH1Z6J9R38G9","32XN26MTXZ5MP383W6LZYTLBY7P0LI","","4382.70000000298","img/land4.png","74","4383.39999999851","1","1","1","1","1,0.7,0.7,0.7,1,0.7,0.7,0.7,1","1,0.7,0.7,0.7,1,0.7,0.7,0.7,1","","",""
"","html-keyboard-response","318","143417","0.0-318.0","3GA6AFUKOPAI6JM4FATMXIMZRPTH3E","A3CH1Z6J9R38G9","32XN26MTXZ5MP383W6LZYTLBY7P0LI","","null","<img src=""img/land4.png"" style=""width:200px; border:14px solid green;"">","null","","","","","","","","","",""
"","image-keyboard-response","319","144737","0.0-319.0","3GA6AFUKOPAI6JM4FATMXIMZRPTH3E","A3CH1Z6J9R38G9","32XN26MTXZ5MP383W6LZYTLBY7P0LI","","1319","img/land5.png","74","1319.6999999955297","1","1","2","1","1,0.7,0.7,0.7,1,0.7,0.7,0.7,1","1,0.7,0.7,0.7,1,0.7,0.7,0.7,1","","",""
"","html-keyboard-response","320","145038","0.0-320.0","3GA6AFUKOPAI6JM4FATMXIMZRPTH3E","A3CH1Z6J9R38G9","32XN26MTXZ5MP383W6LZYTLBY7P0LI","","null","<img src=""img/land5.png"" style=""width:200px; border:14px solid green;"">","null","","","","","","","","","",""
"","image-keyboard-response","321","145396","0.0-321.0","3GA6AFUKOPAI6JM4FATMXIMZRPTH3E","A3CH1Z6J9R38G9","32XN26MTXZ5MP383W6LZYTLBY7P0LI","","356.70000000298023","img/land4.png","74","357.5","1","1","1","1","1,0.7,0.7,0.7,1,0.7,0.7,0.7,1","1,0.7,0.7,0.7,1,0.7,0.7,0.7,1","","",""
"","html-keyboard-response","322","145697","0.0-322.0","3GA6AFUKOPAI6JM4FATMXIMZRPTH3E","A3CH1Z6J9R38G9","32XN26MTXZ5MP383W6LZYTLBY7P0LI","","null","<img src=""img/land4.png"" style=""width:200px; border:14px solid green;"">","null","","","","","","","","","",""
"","image-keyboard-response","323","145718","0.0-323.0","3GA6AFUKOPAI6JM4FATMXIMZRPTH3E","A3CH1Z6J9R38G9","32XN26MTXZ5MP383W6LZYTLBY7P0LI","","20.600000001490116","img/land4.png","74","21.299999997019768","1","1","1","1","1,0.7,0.7,0.7,1,0.7,0.7,0.7,1","1,0.7,0.7,0.7,1,0.7,0.7,0.7,1","","",""
"","html-keyboard-response","324","146020","0.0-324.0","3GA6AFUKOPAI6JM4FATMXIMZRPTH3E","A3CH1Z6J9R38G9","32XN26MTXZ5MP383W6LZYTLBY7P0LI","","null","<img src=""img/land4.png"" style=""width:200px; border:14px solid green;"">","null","","","","","","","","","",""
"","image-keyboard-response","325","146181","0.0-325.0","3GA6AFUKOPAI6JM4FATMXIMZRPTH3E","A3CH1Z6J9R38G9","32XN26MTXZ5MP383W6LZYTLBY7P0LI","","159.10000000149012","img/land4.png","74","160.10000000149012","1","1","1","1","1,0.7,0.7,0.7,1,0.7,0.7,0.7,1","1,0.7,0.7,0.7,1,0.7,0.7,0.7,1","","",""
"","html-keyboard-response","326","146482","0.0-326.0","3GA6AFUKOPAI6JM4FATMXIMZRPTH3E","A3CH1Z6J9R38G9","32XN26MTXZ5MP383W6LZYTLBY7P0LI","","null","<img src=""img/land4.png"" style=""width:200px; border:14px solid green;"">","null","","","","","","","","","",""
"","image-keyboard-response","327","146697","0.0-327.0","3GA6AFUKOPAI6JM4FATMXIMZRPTH3E","A3CH1Z6J9R38G9","32XN26MTXZ5MP383W6LZYTLBY7P0LI","","213.70000000298023","img/land4.png","74","214.5","1","1","1","1","1,0.7,0.7,0.7,1,0.7,0.7,0.7,1","1,0.7,0.7,0.7,1,0.7,0.7,0.7,1","","",""
"","html-keyboard-response","328","146998","0.0-328.0","3GA6AFUKOPAI6JM4FATMXIMZRPTH3E","A3CH1Z6J9R38G9","32XN26MTXZ5MP383W6LZYTLBY7P0LI","","null","<img src=""img/land4.png"" style=""width:200px; border:14px solid green;"">","null","","","","","","","","","",""
"","image-keyboard-response","329","147282","0.0-329.0","3GA6AFUKOPAI6JM4FATMXIMZRPTH3E","A3CH1Z6J9R38G9","32XN26MTXZ5MP383W6LZYTLBY7P0LI","","282.69999999552965","img/land4.png","75","283.3999999985099","2","1","1","1","1,0.7,0.7,0.7,1,0.7,0.7,0.7,1","1,0.7,0.7,0.7,1,0.7,0.7,0.7,1","","",""
"","html-keyboard-response","330","147583","0.0-330.0","3GA6AFUKOPAI6JM4FATMXIMZRPTH3E","A3CH1Z6J9R38G9","32XN26MTXZ5MP383W6LZYTLBY7P0LI","","null","<img src=""img/land4.png"" style=""width:200px; border:14px solid green;"">","null","","","","","","","","","",""
"","image-keyboard-response","331","148227","0.0-331.0","3GA6AFUKOPAI6JM4FATMXIMZRPTH3E","A3CH1Z6J9R38G9","32XN26MTXZ5MP383W6LZYTLBY7P0LI","","642.5999999940395","img/land6.png","74","643.3999999985099","1","1","3","1","1,0.7,0.7,0.7,1,0.7,0.7,0.7,1","1,0.7,0.7,0.7,1,0.7,0.7,0.7,1","","",""
"","html-keyboard-response","332","148528","0.0-332.0","3GA6AFUKOPAI6JM4FATMXIMZRPTH3E","A3CH1Z6J9R38G9","32XN26MTXZ5MP383W6LZYTLBY7P0LI","","null","<img src=""img/land6.png"" style=""width:200px; border:14px solid green;"">","null","","","","","","","","","",""
"","image-keyboard-response","333","148832","0.0-333.0","3GA6AFUKOPAI6JM4FATMXIMZRPTH3E","A3CH1Z6J9R38G9","32XN26MTXZ5MP383W6LZYTLBY7P0LI","","302.6000000014901","img/land6.png","74","303.20000000298023","1","1","3","1","1,0.7,0.7,0.7,1,0.7,0.7,0.7,1","1,0.7,0.7,0.7,1,0.7,0.7,0.7,1","","",""
"","html-keyboard-response","334","149133","0.0-334.0","3GA6AFUKOPAI6JM4FATMXIMZRPTH3E","A3CH1Z6J9R38G9","32XN26MTXZ5MP383W6LZYTLBY7P0LI","","null","<img src=""img/land6.png"" style=""width:200px; border:14px solid green;"">","null","","","","","","","","","",""
"","image-keyboard-response","335","149897","0.0-335.0","3GA6AFUKOPAI6JM4FATMXIMZRPTH3E","A3CH1Z6J9R38G9","32XN26MTXZ5MP383W6LZYTLBY7P0LI","","762.8999999985099","img/land5.png","75","763.5999999940395","2","1","2","1","1,0.7,0.7,0.7,1,0.7,0.7,0.7,1","1,0.7,0.7,0.7,1,0.7,0.7,0.7,1","","",""
"","html-keyboard-response","336","150198","0.0-336.0","3GA6AFUKOPAI6JM4FATMXIMZRPTH3E","A3CH1Z6J9R38G9","32XN26MTXZ5MP383W6LZYTLBY7P0LI","","null","<img src=""img/land5.png"" style=""width:200px; border:14px solid green;"">","null","","","","","","","","","",""
"","image-keyboard-response","337","150657","0.0-337.0","3GA6AFUKOPAI6JM4FATMXIMZRPTH3E","A3CH1Z6J9R38G9","32XN26MTXZ5MP383W6LZYTLBY7P0LI","","457.70000000298023","img/land6.png","75","458.30000000447035","2","1","3","1","1,0.7,0.7,0.7,1,0.7,0.7,0.7,1","1,0.7,0.7,0.7,1,0.7,0.7,0.7,1","","",""
"","html-keyboard-response","338","150958","0.0-338.0","3GA6AFUKOPAI6JM4FATMXIMZRPTH3E","A3CH1Z6J9R38G9","32XN26MTXZ5MP383W6LZYTLBY7P0LI","","null","<img src=""img/land6.png"" style=""width:200px; border:14px solid green;"">","null","","","","","","","","","",""
"","instructions","339","155075","0.0-339.0","3GA6AFUKOPAI6JM4FATMXIMZRPTH3E","A3CH1Z6J9R38G9","32XN26MTXZ5MP383W6LZYTLBY7P0LI","[{""page_index"":0,""viewing_time"":4115.70000000298}]","4116.20000000298","","","","","","","","","","","",""
"","survey-text","340","158147","0.0-340.0-0.0","3GA6AFUKOPAI6JM4FATMXIMZRPTH3E","A3CH1Z6J9R38G9","32XN26MTXZ5MP383W6LZYTLBY7P0LI","","3070.10000000149","","","","","","","","","","","{""Q0"":""34""}",""
"","survey-multi-choice","341","159749","0.0-340.0-1.0","3GA6AFUKOPAI6JM4FATMXIMZRPTH3E","A3CH1Z6J9R38G9","32XN26MTXZ5MP383W6LZYTLBY7P0LI","","1600.5","","","","","","","","","","","{""gender"":""M""}","[0]"
"","survey-text","342","163303","0.0-341.0","3GA6AFUKOPAI6JM4FATMXIMZRPTH3E","A3CH1Z6J9R38G9","32XN26MTXZ5MP383W6LZYTLBY7P0LI","","3552","","","","","","","","","","","{""Q0"":""A3CH1Z6J9R38G9""}",""
