"success","trial_type","trial_index","time_elapsed","internal_node_id","assignmentID","mturkID","hitID","view_history","rt","stimulus","key_press","reactionTime","a","r","s","cond","reward_cond","reward_cond_actual","reward_matrix_idx","responses","question_order"
"true","fullscreen","0","14163","0.0-0.0","3ZWFC4W1UVTQBPG0VA6ICVD2H09FRJ","A3CSIM8V9IYXM7","32TMVRKDGNK89K6LLIZX5RPIVK148D","","","","","","","","","","","","","",""
"","instructions","1","36780","0.0-1.0","3ZWFC4W1UVTQBPG0VA6ICVD2H09FRJ","A3CSIM8V9IYXM7","32TMVRKDGNK89K6LLIZX5RPIVK148D","[{""page_index"":0,""viewing_time"":4374},{""page_index"":1,""viewing_time"":2436},{""page_index"":2,""viewing_time"":2567},{""page_index"":3,""viewing_time"":5892},{""page_index"":4,""viewing_time"":3286},{""page_index"":5,""viewing_time"":2123},{""page_index"":6,""viewing_time"":1931}]","22610","","","","","","","","","","","",""
"","image-keyboard-response","2","37704","0.0-2.0","3ZWFC4W1UVTQBPG0VA6ICVD2H09FRJ","A3CSIM8V9IYXM7","32TMVRKDGNK89K6LLIZX5RPIVK148D","","913","img/land2.png","75","922","2","1","2","1","1,0.5,0.5,0.5,1,0.5,0.5,0.5,1","1,0.5,0.5,0.5,1,0.5,0.5,0.5,1","","",""
"","html-keyboard-response","3","38009","0.0-3.0","3ZWFC4W1UVTQBPG0VA6ICVD2H09FRJ","A3CSIM8V9IYXM7","32TMVRKDGNK89K6LLIZX5RPIVK148D","","null","<img src=""img/land2.png"" style=""width:200px; border:14px solid green;"">","null","","","","","","","","","",""
"","image-keyboard-response","4","38750","0.0-4.0","3ZWFC4W1UVTQBPG0VA6ICVD2H09FRJ","A3CSIM8V9IYXM7","32TMVRKDGNK89K6LLIZX5RPIVK148D","","738","img/land1.png","74","740","1","1","1","1","1,0.5,0.5,0.5,1,0.5,0.5,0.5,1","1,0.5,0.5,0.5,1,0.5,0.5,0.5,1","","",""
"","html-keyboard-response","5","39055","0.0-5.0","3ZWFC4W1UVTQBPG0VA6ICVD2H09FRJ","A3CSIM8V9IYXM7","32TMVRKDGNK89K6LLIZX5RPIVK148D","","null","<img src=""img/land1.png"" style=""width:200px; border:14px solid green;"">","null","","","","","","","","","",""
"","image-keyboard-response","6","39703","0.0-6.0","3ZWFC4W1UVTQBPG0VA6ICVD2H09FRJ","A3CSIM8V9IYXM7","32TMVRKDGNK89K6LLIZX5RPIVK148D","","644","img/land2.png","74","645","1","0","2","1","1,0.5,0.5,0.5,1,0.5,0.5,0.5,1","1,0.5,0.5,0.5,1,0.5,0.5,0.5,1","","",""
"","html-keyboard-response","7","40036","0.0-7.0","3ZWFC4W1UVTQBPG0VA6ICVD2H09FRJ","A3CSIM8V9IYXM7","32TMVRKDGNK89K6LLIZX5RPIVK148D","","null","<img src=""img/land2.png"" style=""width:200px;border:14px solid red;"">","null","","","","","","","","","",""
"","image-keyboard-response","8","40759","0.0-8.0","3ZWFC4W1UVTQBPG0VA6ICVD2H09FRJ","A3CSIM8V9IYXM7","32TMVRKDGNK89K6LLIZX5RPIVK148D","","719","img/land1.png","74","723","1","1","1","1","1,0.5,0.5,0.5,1,0.5,0.5,0.5,1","1,0.5,0.5,0.5,1,0.5,0.5,0.5,1","","",""
"","html-keyboard-response","9","41063","0.0-9.0","3ZWFC4W1UVTQBPG0VA6ICVD2H09FRJ","A3CSIM8V9IYXM7","32TMVRKDGNK89K6LLIZX5RPIVK148D","","null","<img src=""img/land1.png"" style=""width:200px; border:14px solid green;"">","null","","","","","","","","","",""
"","image-keyboard-response","10","41926","0.0-10.0","3ZWFC4W1UVTQBPG0VA6ICVD2H09FRJ","A3CSIM8V9IYXM7","32TMVRKDGNK89K6LLIZX5RPIVK148D","","860","img/land1.png","74","862","1","1","1","1","1,0.5,0.5,0.5,1,0.5,0.5,0.5,1","1,0.5,0.5,0.5,1,0.5,0.5,0.5,1","","",""
"","html-keyboard-response","11","42229","0.0-11.0","3ZWFC4W1UVTQBPG0VA6ICVD2H09FRJ","A3CSIM8V9IYXM7","32TMVRKDGNK89K6LLIZX5RPIVK148D","","null","<img src=""img/land1.png"" style=""width:200px; border:14px solid green;"">","null","","","","","","","","","",""
"","image-keyboard-response","12","42982","0.0-12.0","3ZWFC4W1UVTQBPG0VA6ICVD2H09FRJ","A3CSIM8V9IYXM7","32TMVRKDGNK89K6LLIZX5RPIVK148D","","749","img/land2.png","74","752","1","0","2","1","1,0.5,0.5,0.5,1,0.5,0.5,0.5,1","1,0.5,0.5,0.5,1,0.5,0.5,0.5,1","","",""
"","html-keyboard-response","13","43338","0.0-13.0","3ZWFC4W1UVTQBPG0VA6ICVD2H09FRJ","A3CSIM8V9IYXM7","32TMVRKDGNK89K6LLIZX5RPIVK148D","","null","<img src=""img/land2.png"" style=""width:200px;border:14px solid red;"">","null","","","","","","","","","",""
"","image-keyboard-response","14","43759","0.0-14.0","3ZWFC4W1UVTQBPG0VA6ICVD2H09FRJ","A3CSIM8V9IYXM7","32TMVRKDGNK89K6LLIZX5RPIVK148D","","418","img/land2.png","74","419","1","1","2","1","1,0.5,0.5,0.5,1,0.5,0.5,0.5,1","1,0.5,0.5,0.5,1,0.5,0.5,0.5,1","","",""
"","html-keyboard-response","15","44061","0.0-15.0","3ZWFC4W1UVTQBPG0VA6ICVD2H09FRJ","A3CSIM8V9IYXM7","32TMVRKDGNK89K6LLIZX5RPIVK148D","","null","<img src=""img/land2.png"" style=""width:200px; border:14px solid green;"">","null","","","","","","","","","",""
"","image-keyboard-response","16","44662","0.0-16.0","3ZWFC4W1UVTQBPG0VA6ICVD2H09FRJ","A3CSIM8V9IYXM7","32TMVRKDGNK89K6LLIZX5RPIVK148D","","598","img/land3.png","74","599","1","1","3","1","1,0.5,0.5,0.5,1,0.5,0.5,0.5,1","1,0.5,0.5,0.5,1,0.5,0.5,0.5,1","","",""
"","html-keyboard-response","17","44964","0.0-17.0","3ZWFC4W1UVTQBPG0VA6ICVD2H09FRJ","A3CSIM8V9IYXM7","32TMVRKDGNK89K6LLIZX5RPIVK148D","","null","<img src=""img/land3.png"" style=""width:200px; border:14px solid green;"">","null","","","","","","","","","",""
"","image-keyboard-response","18","45512","0.0-18.0","3ZWFC4W1UVTQBPG0VA6ICVD2H09FRJ","A3CSIM8V9IYXM7","32TMVRKDGNK89K6LLIZX5RPIVK148D","","545","img/land3.png","74","546","1","1","3","1","1,0.5,0.5,0.5,1,0.5,0.5,0.5,1","1,0.5,0.5,0.5,1,0.5,0.5,0.5,1","","",""
"","html-keyboard-response","19","45814","0.0-19.0","3ZWFC4W1UVTQBPG0VA6ICVD2H09FRJ","A3CSIM8V9IYXM7","32TMVRKDGNK89K6LLIZX5RPIVK148D","","null","<img src=""img/land3.png"" style=""width:200px; border:14px solid green;"">","null","","","","","","","","","",""
"","image-keyboard-response","20","46389","0.0-20.0","3ZWFC4W1UVTQBPG0VA6ICVD2H09FRJ","A3CSIM8V9IYXM7","32TMVRKDGNK89K6LLIZX5RPIVK148D","","573","img/land1.png","74","575","1","1","1","1","1,0.5,0.5,0.5,1,0.5,0.5,0.5,1","1,0.5,0.5,0.5,1,0.5,0.5,0.5,1","","",""
"","html-keyboard-response","21","46694","0.0-21.0","3ZWFC4W1UVTQBPG0VA6ICVD2H09FRJ","A3CSIM8V9IYXM7","32TMVRKDGNK89K6LLIZX5RPIVK148D","","null","<img src=""img/land1.png"" style=""width:200px; border:14px solid green;"">","null","","","","","","","","","",""
"","image-keyboard-response","22","47262","0.0-22.0","3ZWFC4W1UVTQBPG0VA6ICVD2H09FRJ","A3CSIM8V9IYXM7","32TMVRKDGNK89K6LLIZX5RPIVK148D","","566","img/land3.png","76","568","3","1","3","1","1,0.5,0.5,0.5,1,0.5,0.5,0.5,1","1,0.5,0.5,0.5,1,0.5,0.5,0.5,1","","",""
"","html-keyboard-response","23","47565","0.0-23.0","3ZWFC4W1UVTQBPG0VA6ICVD2H09FRJ","A3CSIM8V9IYXM7","32TMVRKDGNK89K6LLIZX5RPIVK148D","","null","<img src=""img/land3.png"" style=""width:200px; border:14px solid green;"">","null","","","","","","","","","",""
"","image-keyboard-response","24","48062","0.0-24.0","3ZWFC4W1UVTQBPG0VA6ICVD2H09FRJ","A3CSIM8V9IYXM7","32TMVRKDGNK89K6LLIZX5RPIVK148D","","494","img/land1.png","76","498","3","1","1","1","1,0.5,0.5,0.5,1,0.5,0.5,0.5,1","1,0.5,0.5,0.5,1,0.5,0.5,0.5,1","","",""
"","html-keyboard-response","25","48367","0.0-25.0","3ZWFC4W1UVTQBPG0VA6ICVD2H09FRJ","A3CSIM8V9IYXM7","32TMVRKDGNK89K6LLIZX5RPIVK148D","","null","<img src=""img/land1.png"" style=""width:200px; border:14px solid green;"">","null","","","","","","","","","",""
"","image-keyboard-response","26","48861","0.0-26.0","3ZWFC4W1UVTQBPG0VA6ICVD2H09FRJ","A3CSIM8V9IYXM7","32TMVRKDGNK89K6LLIZX5RPIVK148D","","493","img/land2.png","76","494","3","1","2","1","1,0.5,0.5,0.5,1,0.5,0.5,0.5,1","1,0.5,0.5,0.5,1,0.5,0.5,0.5,1","","",""
"","html-keyboard-response","27","49176","0.0-27.0","3ZWFC4W1UVTQBPG0VA6ICVD2H09FRJ","A3CSIM8V9IYXM7","32TMVRKDGNK89K6LLIZX5RPIVK148D","","null","<img src=""img/land2.png"" style=""width:200px; border:14px solid green;"">","null","","","","","","","","","",""
"","image-keyboard-response","28","49622","0.0-28.0","3ZWFC4W1UVTQBPG0VA6ICVD2H09FRJ","A3CSIM8V9IYXM7","32TMVRKDGNK89K6LLIZX5RPIVK148D","","442","img/land3.png","76","444","3","1","3","1","1,0.5,0.5,0.5,1,0.5,0.5,0.5,1","1,0.5,0.5,0.5,1,0.5,0.5,0.5,1","","",""
"","html-keyboard-response","29","49924","0.0-29.0","3ZWFC4W1UVTQBPG0VA6ICVD2H09FRJ","A3CSIM8V9IYXM7","32TMVRKDGNK89K6LLIZX5RPIVK148D","","null","<img src=""img/land3.png"" style=""width:200px; border:14px solid green;"">","null","","","","","","","","","",""
"","image-keyboard-response","30","50454","0.0-30.0","3ZWFC4W1UVTQBPG0VA6ICVD2H09FRJ","A3CSIM8V9IYXM7","32TMVRKDGNK89K6LLIZX5RPIVK148D","","527","img/land1.png","76","529","3","0","1","1","1,0.5,0.5,0.5,1,0.5,0.5,0.5,1","1,0.5,0.5,0.5,1,0.5,0.5,0.5,1","","",""
"","html-keyboard-response","31","50756","0.0-31.0","3ZWFC4W1UVTQBPG0VA6ICVD2H09FRJ","A3CSIM8V9IYXM7","32TMVRKDGNK89K6LLIZX5RPIVK148D","","null","<img src=""img/land1.png"" style=""width:200px;border:14px solid red;"">","null","","","","","","","","","",""
"","image-keyboard-response","32","51406","0.0-32.0","3ZWFC4W1UVTQBPG0VA6ICVD2H09FRJ","A3CSIM8V9IYXM7","32TMVRKDGNK89K6LLIZX5RPIVK148D","","647","img/land3.png","76","650","3","1","3","1","1,0.5,0.5,0.5,1,0.5,0.5,0.5,1","1,0.5,0.5,0.5,1,0.5,0.5,0.5,1","","",""
"","html-keyboard-response","33","51708","0.0-33.0","3ZWFC4W1UVTQBPG0VA6ICVD2H09FRJ","A3CSIM8V9IYXM7","32TMVRKDGNK89K6LLIZX5RPIVK148D","","null","<img src=""img/land3.png"" style=""width:200px; border:14px solid green;"">","null","","","","","","","","","",""
"","image-keyboard-response","34","52174","0.0-34.0","3ZWFC4W1UVTQBPG0VA6ICVD2H09FRJ","A3CSIM8V9IYXM7","32TMVRKDGNK89K6LLIZX5RPIVK148D","","465","img/land3.png","76","466","3","1","3","1","1,0.5,0.5,0.5,1,0.5,0.5,0.5,1","1,0.5,0.5,0.5,1,0.5,0.5,0.5,1","","",""
"","html-keyboard-response","35","52477","0.0-35.0","3ZWFC4W1UVTQBPG0VA6ICVD2H09FRJ","A3CSIM8V9IYXM7","32TMVRKDGNK89K6LLIZX5RPIVK148D","","null","<img src=""img/land3.png"" style=""width:200px; border:14px solid green;"">","null","","","","","","","","","",""
"","image-keyboard-response","36","53037","0.0-36.0","3ZWFC4W1UVTQBPG0VA6ICVD2H09FRJ","A3CSIM8V9IYXM7","32TMVRKDGNK89K6LLIZX5RPIVK148D","","559","img/land2.png","74","561","1","1","2","1","1,0.5,0.5,0.5,1,0.5,0.5,0.5,1","1,0.5,0.5,0.5,1,0.5,0.5,0.5,1","","",""
"","html-keyboard-response","37","53340","0.0-37.0","3ZWFC4W1UVTQBPG0VA6ICVD2H09FRJ","A3CSIM8V9IYXM7","32TMVRKDGNK89K6LLIZX5RPIVK148D","","null","<img src=""img/land2.png"" style=""width:200px; border:14px solid green;"">","null","","","","","","","","","",""
"","image-keyboard-response","38","53918","0.0-38.0","3ZWFC4W1UVTQBPG0VA6ICVD2H09FRJ","A3CSIM8V9IYXM7","32TMVRKDGNK89K6LLIZX5RPIVK148D","","576","img/land3.png","74","577","1","1","3","1","1,0.5,0.5,0.5,1,0.5,0.5,0.5,1","1,0.5,0.5,0.5,1,0.5,0.5,0.5,1","","",""
"","html-keyboard-response","39","54220","0.0-39.0","3ZWFC4W1UVTQBPG0VA6ICVD2H09FRJ","A3CSIM8V9IYXM7","32TMVRKDGNK89K6LLIZX5RPIVK148D","","null","<img src=""img/land3.png"" style=""width:200px; border:14px solid green;"">","null","","","","","","","","","",""
"","image-keyboard-response","40","54831","0.0-40.0","3ZWFC4W1UVTQBPG0VA6ICVD2H09FRJ","A3CSIM8V9IYXM7","32TMVRKDGNK89K6LLIZX5RPIVK148D","","609","img/land1.png","74","610","1","1","1","1","1,0.5,0.5,0.5,1,0.5,0.5,0.5,1","1,0.5,0.5,0.5,1,0.5,0.5,0.5,1","","",""
"","html-keyboard-response","41","55136","0.0-41.0","3ZWFC4W1UVTQBPG0VA6ICVD2H09FRJ","A3CSIM8V9IYXM7","32TMVRKDGNK89K6LLIZX5RPIVK148D","","null","<img src=""img/land1.png"" style=""width:200px; border:14px solid green;"">","null","","","","","","","","","",""
"","image-keyboard-response","42","55574","0.0-42.0","3ZWFC4W1UVTQBPG0VA6ICVD2H09FRJ","A3CSIM8V9IYXM7","32TMVRKDGNK89K6LLIZX5RPIVK148D","","435","img/land1.png","74","436","1","1","1","1","1,0.5,0.5,0.5,1,0.5,0.5,0.5,1","1,0.5,0.5,0.5,1,0.5,0.5,0.5,1","","",""
"","html-keyboard-response","43","55877","0.0-43.0","3ZWFC4W1UVTQBPG0VA6ICVD2H09FRJ","A3CSIM8V9IYXM7","32TMVRKDGNK89K6LLIZX5RPIVK148D","","null","<img src=""img/land1.png"" style=""width:200px; border:14px solid green;"">","null","","","","","","","","","",""
"","image-keyboard-response","44","56278","0.0-44.0","3ZWFC4W1UVTQBPG0VA6ICVD2H09FRJ","A3CSIM8V9IYXM7","32TMVRKDGNK89K6LLIZX5RPIVK148D","","400","img/land1.png","74","402","1","1","1","1","1,0.5,0.5,0.5,1,0.5,0.5,0.5,1","1,0.5,0.5,0.5,1,0.5,0.5,0.5,1","","",""
"","html-keyboard-response","45","56581","0.0-45.0","3ZWFC4W1UVTQBPG0VA6ICVD2H09FRJ","A3CSIM8V9IYXM7","32TMVRKDGNK89K6LLIZX5RPIVK148D","","null","<img src=""img/land1.png"" style=""width:200px; border:14px solid green;"">","null","","","","","","","","","",""
"","image-keyboard-response","46","56927","0.0-46.0","3ZWFC4W1UVTQBPG0VA6ICVD2H09FRJ","A3CSIM8V9IYXM7","32TMVRKDGNK89K6LLIZX5RPIVK148D","","344","img/land3.png","74","345","1","1","3","1","1,0.5,0.5,0.5,1,0.5,0.5,0.5,1","1,0.5,0.5,0.5,1,0.5,0.5,0.5,1","","",""
"","html-keyboard-response","47","57229","0.0-47.0","3ZWFC4W1UVTQBPG0VA6ICVD2H09FRJ","A3CSIM8V9IYXM7","32TMVRKDGNK89K6LLIZX5RPIVK148D","","null","<img src=""img/land3.png"" style=""width:200px; border:14px solid green;"">","null","","","","","","","","","",""
"","image-keyboard-response","48","58229","0.0-48.0","3ZWFC4W1UVTQBPG0VA6ICVD2H09FRJ","A3CSIM8V9IYXM7","32TMVRKDGNK89K6LLIZX5RPIVK148D","","998","img/land2.png","75","1001","2","1","2","1","1,0.5,0.5,0.5,1,0.5,0.5,0.5,1","1,0.5,0.5,0.5,1,0.5,0.5,0.5,1","","",""
"","html-keyboard-response","49","58545","0.0-49.0","3ZWFC4W1UVTQBPG0VA6ICVD2H09FRJ","A3CSIM8V9IYXM7","32TMVRKDGNK89K6LLIZX5RPIVK148D","","null","<img src=""img/land2.png"" style=""width:200px; border:14px solid green;"">","null","","","","","","","","","",""
"","image-keyboard-response","50","58982","0.0-50.0","3ZWFC4W1UVTQBPG0VA6ICVD2H09FRJ","A3CSIM8V9IYXM7","32TMVRKDGNK89K6LLIZX5RPIVK148D","","434","img/land2.png","75","436","2","1","2","1","1,0.5,0.5,0.5,1,0.5,0.5,0.5,1","1,0.5,0.5,0.5,1,0.5,0.5,0.5,1","","",""
"","html-keyboard-response","51","59284","0.0-51.0","3ZWFC4W1UVTQBPG0VA6ICVD2H09FRJ","A3CSIM8V9IYXM7","32TMVRKDGNK89K6LLIZX5RPIVK148D","","null","<img src=""img/land2.png"" style=""width:200px; border:14px solid green;"">","null","","","","","","","","","",""
"","image-keyboard-response","52","59710","0.0-52.0","3ZWFC4W1UVTQBPG0VA6ICVD2H09FRJ","A3CSIM8V9IYXM7","32TMVRKDGNK89K6LLIZX5RPIVK148D","","424","img/land2.png","75","426","2","1","2","1","1,0.5,0.5,0.5,1,0.5,0.5,0.5,1","1,0.5,0.5,0.5,1,0.5,0.5,0.5,1","","",""
"","html-keyboard-response","53","60013","0.0-53.0","3ZWFC4W1UVTQBPG0VA6ICVD2H09FRJ","A3CSIM8V9IYXM7","32TMVRKDGNK89K6LLIZX5RPIVK148D","","null","<img src=""img/land2.png"" style=""width:200px; border:14px solid green;"">","null","","","","","","","","","",""
"","image-keyboard-response","54","60767","0.0-54.0","3ZWFC4W1UVTQBPG0VA6ICVD2H09FRJ","A3CSIM8V9IYXM7","32TMVRKDGNK89K6LLIZX5RPIVK148D","","752","img/land3.png","74","753","1","0","3","1","1,0.5,0.5,0.5,1,0.5,0.5,0.5,1","1,0.5,0.5,0.5,1,0.5,0.5,0.5,1","","",""
"","html-keyboard-response","55","61068","0.0-55.0","3ZWFC4W1UVTQBPG0VA6ICVD2H09FRJ","A3CSIM8V9IYXM7","32TMVRKDGNK89K6LLIZX5RPIVK148D","","null","<img src=""img/land3.png"" style=""width:200px;border:14px solid red;"">","null","","","","","","","","","",""
"","image-keyboard-response","56","61654","0.0-56.0","3ZWFC4W1UVTQBPG0VA6ICVD2H09FRJ","A3CSIM8V9IYXM7","32TMVRKDGNK89K6LLIZX5RPIVK148D","","583","img/land2.png","74","585","1","0","2","1","1,0.5,0.5,0.5,1,0.5,0.5,0.5,1","1,0.5,0.5,0.5,1,0.5,0.5,0.5,1","","",""
"","html-keyboard-response","57","61956","0.0-57.0","3ZWFC4W1UVTQBPG0VA6ICVD2H09FRJ","A3CSIM8V9IYXM7","32TMVRKDGNK89K6LLIZX5RPIVK148D","","null","<img src=""img/land2.png"" style=""width:200px;border:14px solid red;"">","null","","","","","","","","","",""
"","image-keyboard-response","58","62767","0.0-58.0","3ZWFC4W1UVTQBPG0VA6ICVD2H09FRJ","A3CSIM8V9IYXM7","32TMVRKDGNK89K6LLIZX5RPIVK148D","","807","img/land3.png","75","809","2","1","3","1","1,0.5,0.5,0.5,1,0.5,0.5,0.5,1","1,0.5,0.5,0.5,1,0.5,0.5,0.5,1","","",""
"","html-keyboard-response","59","63068","0.0-59.0","3ZWFC4W1UVTQBPG0VA6ICVD2H09FRJ","A3CSIM8V9IYXM7","32TMVRKDGNK89K6LLIZX5RPIVK148D","","null","<img src=""img/land3.png"" style=""width:200px; border:14px solid green;"">","null","","","","","","","","","",""
"","image-keyboard-response","60","63958","0.0-60.0","3ZWFC4W1UVTQBPG0VA6ICVD2H09FRJ","A3CSIM8V9IYXM7","32TMVRKDGNK89K6LLIZX5RPIVK148D","","887","img/land2.png","75","890","2","1","2","1","1,0.5,0.5,0.5,1,0.5,0.5,0.5,1","1,0.5,0.5,0.5,1,0.5,0.5,0.5,1","","",""
"","html-keyboard-response","61","64261","0.0-61.0","3ZWFC4W1UVTQBPG0VA6ICVD2H09FRJ","A3CSIM8V9IYXM7","32TMVRKDGNK89K6LLIZX5RPIVK148D","","null","<img src=""img/land2.png"" style=""width:200px; border:14px solid green;"">","null","","","","","","","","","",""
"","image-keyboard-response","62","64758","0.0-62.0","3ZWFC4W1UVTQBPG0VA6ICVD2H09FRJ","A3CSIM8V9IYXM7","32TMVRKDGNK89K6LLIZX5RPIVK148D","","495","img/land3.png","75","496","2","0","3","1","1,0.5,0.5,0.5,1,0.5,0.5,0.5,1","1,0.5,0.5,0.5,1,0.5,0.5,0.5,1","","",""
"","html-keyboard-response","63","65061","0.0-63.0","3ZWFC4W1UVTQBPG0VA6ICVD2H09FRJ","A3CSIM8V9IYXM7","32TMVRKDGNK89K6LLIZX5RPIVK148D","","null","<img src=""img/land3.png"" style=""width:200px;border:14px solid red;"">","null","","","","","","","","","",""
"","image-keyboard-response","64","65494","0.0-64.0","3ZWFC4W1UVTQBPG0VA6ICVD2H09FRJ","A3CSIM8V9IYXM7","32TMVRKDGNK89K6LLIZX5RPIVK148D","","430","img/land2.png","76","434","3","1","2","1","1,0.5,0.5,0.5,1,0.5,0.5,0.5,1","1,0.5,0.5,0.5,1,0.5,0.5,0.5,1","","",""
"","html-keyboard-response","65","65797","0.0-65.0","3ZWFC4W1UVTQBPG0VA6ICVD2H09FRJ","A3CSIM8V9IYXM7","32TMVRKDGNK89K6LLIZX5RPIVK148D","","null","<img src=""img/land2.png"" style=""width:200px; border:14px solid green;"">","null","","","","","","","","","",""
"","image-keyboard-response","66","66358","0.0-66.0","3ZWFC4W1UVTQBPG0VA6ICVD2H09FRJ","A3CSIM8V9IYXM7","32TMVRKDGNK89K6LLIZX5RPIVK148D","","558","img/land1.png","76","560","3","1","1","1","1,0.5,0.5,0.5,1,0.5,0.5,0.5,1","1,0.5,0.5,0.5,1,0.5,0.5,0.5,1","","",""
"","html-keyboard-response","67","66661","0.0-67.0","3ZWFC4W1UVTQBPG0VA6ICVD2H09FRJ","A3CSIM8V9IYXM7","32TMVRKDGNK89K6LLIZX5RPIVK148D","","null","<img src=""img/land1.png"" style=""width:200px; border:14px solid green;"">","null","","","","","","","","","",""
"","image-keyboard-response","68","67118","0.0-68.0","3ZWFC4W1UVTQBPG0VA6ICVD2H09FRJ","A3CSIM8V9IYXM7","32TMVRKDGNK89K6LLIZX5RPIVK148D","","454","img/land3.png","76","456","3","1","3","1","1,0.5,0.5,0.5,1,0.5,0.5,0.5,1","1,0.5,0.5,0.5,1,0.5,0.5,0.5,1","","",""
"","html-keyboard-response","69","67421","0.0-69.0","3ZWFC4W1UVTQBPG0VA6ICVD2H09FRJ","A3CSIM8V9IYXM7","32TMVRKDGNK89K6LLIZX5RPIVK148D","","null","<img src=""img/land3.png"" style=""width:200px; border:14px solid green;"">","null","","","","","","","","","",""
"","image-keyboard-response","70","67926","0.0-70.0","3ZWFC4W1UVTQBPG0VA6ICVD2H09FRJ","A3CSIM8V9IYXM7","32TMVRKDGNK89K6LLIZX5RPIVK148D","","503","img/land3.png","76","505","3","1","3","1","1,0.5,0.5,0.5,1,0.5,0.5,0.5,1","1,0.5,0.5,0.5,1,0.5,0.5,0.5,1","","",""
"","html-keyboard-response","71","68227","0.0-71.0","3ZWFC4W1UVTQBPG0VA6ICVD2H09FRJ","A3CSIM8V9IYXM7","32TMVRKDGNK89K6LLIZX5RPIVK148D","","null","<img src=""img/land3.png"" style=""width:200px; border:14px solid green;"">","null","","","","","","","","","",""
"","image-keyboard-response","72","68813","0.0-72.0","3ZWFC4W1UVTQBPG0VA6ICVD2H09FRJ","A3CSIM8V9IYXM7","32TMVRKDGNK89K6LLIZX5RPIVK148D","","585","img/land1.png","76","586","3","0","1","1","1,0.5,0.5,0.5,1,0.5,0.5,0.5,1","1,0.5,0.5,0.5,1,0.5,0.5,0.5,1","","",""
"","html-keyboard-response","73","69117","0.0-73.0","3ZWFC4W1UVTQBPG0VA6ICVD2H09FRJ","A3CSIM8V9IYXM7","32TMVRKDGNK89K6LLIZX5RPIVK148D","","null","<img src=""img/land1.png"" style=""width:200px;border:14px solid red;"">","null","","","","","","","","","",""
"","image-keyboard-response","74","69653","0.0-74.0","3ZWFC4W1UVTQBPG0VA6ICVD2H09FRJ","A3CSIM8V9IYXM7","32TMVRKDGNK89K6LLIZX5RPIVK148D","","534","img/land1.png","75","536","2","1","1","1","1,0.5,0.5,0.5,1,0.5,0.5,0.5,1","1,0.5,0.5,0.5,1,0.5,0.5,0.5,1","","",""
"","html-keyboard-response","75","69958","0.0-75.0","3ZWFC4W1UVTQBPG0VA6ICVD2H09FRJ","A3CSIM8V9IYXM7","32TMVRKDGNK89K6LLIZX5RPIVK148D","","null","<img src=""img/land1.png"" style=""width:200px; border:14px solid green;"">","null","","","","","","","","","",""
"","image-keyboard-response","76","70414","0.0-76.0","3ZWFC4W1UVTQBPG0VA6ICVD2H09FRJ","A3CSIM8V9IYXM7","32TMVRKDGNK89K6LLIZX5RPIVK148D","","454","img/land1.png","75","456","2","1","1","1","1,0.5,0.5,0.5,1,0.5,0.5,0.5,1","1,0.5,0.5,0.5,1,0.5,0.5,0.5,1","","",""
"","html-keyboard-response","77","70718","0.0-77.0","3ZWFC4W1UVTQBPG0VA6ICVD2H09FRJ","A3CSIM8V9IYXM7","32TMVRKDGNK89K6LLIZX5RPIVK148D","","null","<img src=""img/land1.png"" style=""width:200px; border:14px solid green;"">","null","","","","","","","","","",""
"","image-keyboard-response","78","71173","0.0-78.0","3ZWFC4W1UVTQBPG0VA6ICVD2H09FRJ","A3CSIM8V9IYXM7","32TMVRKDGNK89K6LLIZX5RPIVK148D","","453","img/land1.png","75","456","2","0","1","1","1,0.5,0.5,0.5,1,0.5,0.5,0.5,1","1,0.5,0.5,0.5,1,0.5,0.5,0.5,1","","",""
"","html-keyboard-response","79","71476","0.0-79.0","3ZWFC4W1UVTQBPG0VA6ICVD2H09FRJ","A3CSIM8V9IYXM7","32TMVRKDGNK89K6LLIZX5RPIVK148D","","null","<img src=""img/land1.png"" style=""width:200px;border:14px solid red;"">","null","","","","","","","","","",""
"","image-keyboard-response","80","72462","0.0-80.0","3ZWFC4W1UVTQBPG0VA6ICVD2H09FRJ","A3CSIM8V9IYXM7","32TMVRKDGNK89K6LLIZX5RPIVK148D","","983","img/land3.png","76","984","3","1","3","1","1,0.5,0.5,0.5,1,0.5,0.5,0.5,1","1,0.5,0.5,0.5,1,0.5,0.5,0.5,1","","",""
"","html-keyboard-response","81","72766","0.0-81.0","3ZWFC4W1UVTQBPG0VA6ICVD2H09FRJ","A3CSIM8V9IYXM7","32TMVRKDGNK89K6LLIZX5RPIVK148D","","null","<img src=""img/land3.png"" style=""width:200px; border:14px solid green;"">","null","","","","","","","","","",""
"","image-keyboard-response","82","73116","0.0-82.0","3ZWFC4W1UVTQBPG0VA6ICVD2H09FRJ","A3CSIM8V9IYXM7","32TMVRKDGNK89K6LLIZX5RPIVK148D","","349","img/land3.png","76","350","3","1","3","1","1,0.5,0.5,0.5,1,0.5,0.5,0.5,1","1,0.5,0.5,0.5,1,0.5,0.5,0.5,1","","",""
"","html-keyboard-response","83","73419","0.0-83.0","3ZWFC4W1UVTQBPG0VA6ICVD2H09FRJ","A3CSIM8V9IYXM7","32TMVRKDGNK89K6LLIZX5RPIVK148D","","null","<img src=""img/land3.png"" style=""width:200px; border:14px solid green;"">","null","","","","","","","","","",""
"","image-keyboard-response","84","73670","0.0-84.0","3ZWFC4W1UVTQBPG0VA6ICVD2H09FRJ","A3CSIM8V9IYXM7","32TMVRKDGNK89K6LLIZX5RPIVK148D","","248","img/land1.png","76","250","3","0","1","1","1,0.5,0.5,0.5,1,0.5,0.5,0.5,1","1,0.5,0.5,0.5,1,0.5,0.5,0.5,1","","",""
"","html-keyboard-response","85","73972","0.0-85.0","3ZWFC4W1UVTQBPG0VA6ICVD2H09FRJ","A3CSIM8V9IYXM7","32TMVRKDGNK89K6LLIZX5RPIVK148D","","null","<img src=""img/land1.png"" style=""width:200px;border:14px solid red;"">","null","","","","","","","","","",""
"","image-keyboard-response","86","74709","0.0-86.0","3ZWFC4W1UVTQBPG0VA6ICVD2H09FRJ","A3CSIM8V9IYXM7","32TMVRKDGNK89K6LLIZX5RPIVK148D","","736","img/land3.png","76","737","3","1","3","1","1,0.5,0.5,0.5,1,0.5,0.5,0.5,1","1,0.5,0.5,0.5,1,0.5,0.5,0.5,1","","",""
"","html-keyboard-response","87","75015","0.0-87.0","3ZWFC4W1UVTQBPG0VA6ICVD2H09FRJ","A3CSIM8V9IYXM7","32TMVRKDGNK89K6LLIZX5RPIVK148D","","null","<img src=""img/land3.png"" style=""width:200px; border:14px solid green;"">","null","","","","","","","","","",""
"","image-keyboard-response","88","75503","0.0-88.0","3ZWFC4W1UVTQBPG0VA6ICVD2H09FRJ","A3CSIM8V9IYXM7","32TMVRKDGNK89K6LLIZX5RPIVK148D","","480","img/land1.png","76","484","3","1","1","1","1,0.5,0.5,0.5,1,0.5,0.5,0.5,1","1,0.5,0.5,0.5,1,0.5,0.5,0.5,1","","",""
"","html-keyboard-response","89","75807","0.0-89.0","3ZWFC4W1UVTQBPG0VA6ICVD2H09FRJ","A3CSIM8V9IYXM7","32TMVRKDGNK89K6LLIZX5RPIVK148D","","null","<img src=""img/land1.png"" style=""width:200px; border:14px solid green;"">","null","","","","","","","","","",""
"","image-keyboard-response","90","77046","0.0-90.0","3ZWFC4W1UVTQBPG0VA6ICVD2H09FRJ","A3CSIM8V9IYXM7","32TMVRKDGNK89K6LLIZX5RPIVK148D","","1235","img/land3.png","76","1241","3","1","3","1","1,0.5,0.5,0.5,1,0.5,0.5,0.5,1","1,0.5,0.5,0.5,1,0.5,0.5,0.5,1","","",""
"","html-keyboard-response","91","77352","0.0-91.0","3ZWFC4W1UVTQBPG0VA6ICVD2H09FRJ","A3CSIM8V9IYXM7","32TMVRKDGNK89K6LLIZX5RPIVK148D","","null","<img src=""img/land3.png"" style=""width:200px; border:14px solid green;"">","null","","","","","","","","","",""
"","image-keyboard-response","92","77750","0.0-92.0","3ZWFC4W1UVTQBPG0VA6ICVD2H09FRJ","A3CSIM8V9IYXM7","32TMVRKDGNK89K6LLIZX5RPIVK148D","","395","img/land3.png","76","398","3","1","3","1","1,0.5,0.5,0.5,1,0.5,0.5,0.5,1","1,0.5,0.5,0.5,1,0.5,0.5,0.5,1","","",""
"","html-keyboard-response","93","78053","0.0-93.0","3ZWFC4W1UVTQBPG0VA6ICVD2H09FRJ","A3CSIM8V9IYXM7","32TMVRKDGNK89K6LLIZX5RPIVK148D","","null","<img src=""img/land3.png"" style=""width:200px; border:14px solid green;"">","null","","","","","","","","","",""
"","image-keyboard-response","94","78606","0.0-94.0","3ZWFC4W1UVTQBPG0VA6ICVD2H09FRJ","A3CSIM8V9IYXM7","32TMVRKDGNK89K6LLIZX5RPIVK148D","","551","img/land3.png","76","553","3","1","3","1","1,0.5,0.5,0.5,1,0.5,0.5,0.5,1","1,0.5,0.5,0.5,1,0.5,0.5,0.5,1","","",""
"","html-keyboard-response","95","78956","0.0-95.0","3ZWFC4W1UVTQBPG0VA6ICVD2H09FRJ","A3CSIM8V9IYXM7","32TMVRKDGNK89K6LLIZX5RPIVK148D","","null","<img src=""img/land3.png"" style=""width:200px; border:14px solid green;"">","null","","","","","","","","","",""
"","image-keyboard-response","96","79725","0.0-96.0","3ZWFC4W1UVTQBPG0VA6ICVD2H09FRJ","A3CSIM8V9IYXM7","32TMVRKDGNK89K6LLIZX5RPIVK148D","","765","img/land2.png","75","768","2","1","2","1","1,0.5,0.5,0.5,1,0.5,0.5,0.5,1","1,0.5,0.5,0.5,1,0.5,0.5,0.5,1","","",""
"","html-keyboard-response","97","80029","0.0-97.0","3ZWFC4W1UVTQBPG0VA6ICVD2H09FRJ","A3CSIM8V9IYXM7","32TMVRKDGNK89K6LLIZX5RPIVK148D","","null","<img src=""img/land2.png"" style=""width:200px; border:14px solid green;"">","null","","","","","","","","","",""
"","image-keyboard-response","98","80805","0.0-98.0","3ZWFC4W1UVTQBPG0VA6ICVD2H09FRJ","A3CSIM8V9IYXM7","32TMVRKDGNK89K6LLIZX5RPIVK148D","","773","img/land1.png","75","775","2","1","1","1","1,0.5,0.5,0.5,1,0.5,0.5,0.5,1","1,0.5,0.5,0.5,1,0.5,0.5,0.5,1","","",""
"","html-keyboard-response","99","81109","0.0-99.0","3ZWFC4W1UVTQBPG0VA6ICVD2H09FRJ","A3CSIM8V9IYXM7","32TMVRKDGNK89K6LLIZX5RPIVK148D","","null","<img src=""img/land1.png"" style=""width:200px; border:14px solid green;"">","null","","","","","","","","","",""
"","image-keyboard-response","100","81789","0.0-100.0","3ZWFC4W1UVTQBPG0VA6ICVD2H09FRJ","A3CSIM8V9IYXM7","32TMVRKDGNK89K6LLIZX5RPIVK148D","","680","img/land2.png","76","680","3","1","2","1","1,0.5,0.5,0.5,1,0.5,0.5,0.5,1","1,0.5,0.5,0.5,1,0.5,0.5,0.5,1","","",""
"","html-keyboard-response","101","82102","0.0-101.0","3ZWFC4W1UVTQBPG0VA6ICVD2H09FRJ","A3CSIM8V9IYXM7","32TMVRKDGNK89K6LLIZX5RPIVK148D","","null","<img src=""img/land2.png"" style=""width:200px; border:14px solid green;"">","null","","","","","","","","","",""
"","image-keyboard-response","102","82822","0.0-102.0","3ZWFC4W1UVTQBPG0VA6ICVD2H09FRJ","A3CSIM8V9IYXM7","32TMVRKDGNK89K6LLIZX5RPIVK148D","","717","img/land2.png","75","719","2","1","2","1","1,0.5,0.5,0.5,1,0.5,0.5,0.5,1","1,0.5,0.5,0.5,1,0.5,0.5,0.5,1","","",""
"","html-keyboard-response","103","83125","0.0-103.0","3ZWFC4W1UVTQBPG0VA6ICVD2H09FRJ","A3CSIM8V9IYXM7","32TMVRKDGNK89K6LLIZX5RPIVK148D","","null","<img src=""img/land2.png"" style=""width:200px; border:14px solid green;"">","null","","","","","","","","","",""
"","image-keyboard-response","104","83598","0.0-104.0","3ZWFC4W1UVTQBPG0VA6ICVD2H09FRJ","A3CSIM8V9IYXM7","32TMVRKDGNK89K6LLIZX5RPIVK148D","","470","img/land2.png","75","472","2","1","2","1","1,0.5,0.5,0.5,1,0.5,0.5,0.5,1","1,0.5,0.5,0.5,1,0.5,0.5,0.5,1","","",""
"","html-keyboard-response","105","83901","0.0-105.0","3ZWFC4W1UVTQBPG0VA6ICVD2H09FRJ","A3CSIM8V9IYXM7","32TMVRKDGNK89K6LLIZX5RPIVK148D","","null","<img src=""img/land2.png"" style=""width:200px; border:14px solid green;"">","null","","","","","","","","","",""
"","image-keyboard-response","106","84245","0.0-106.0","3ZWFC4W1UVTQBPG0VA6ICVD2H09FRJ","A3CSIM8V9IYXM7","32TMVRKDGNK89K6LLIZX5RPIVK148D","","342","img/land3.png","75","344","2","0","3","1","1,0.5,0.5,0.5,1,0.5,0.5,0.5,1","1,0.5,0.5,0.5,1,0.5,0.5,0.5,1","","",""
"","html-keyboard-response","107","84548","0.0-107.0","3ZWFC4W1UVTQBPG0VA6ICVD2H09FRJ","A3CSIM8V9IYXM7","32TMVRKDGNK89K6LLIZX5RPIVK148D","","null","<img src=""img/land3.png"" style=""width:200px;border:14px solid red;"">","null","","","","","","","","","",""
"","image-keyboard-response","108","85550","0.0-108.0","3ZWFC4W1UVTQBPG0VA6ICVD2H09FRJ","A3CSIM8V9IYXM7","32TMVRKDGNK89K6LLIZX5RPIVK148D","","999","img/land1.png","75","1000","2","0","1","1","1,0.5,0.5,0.5,1,0.5,0.5,0.5,1","1,0.5,0.5,0.5,1,0.5,0.5,0.5,1","","",""
"","html-keyboard-response","109","85853","0.0-109.0","3ZWFC4W1UVTQBPG0VA6ICVD2H09FRJ","A3CSIM8V9IYXM7","32TMVRKDGNK89K6LLIZX5RPIVK148D","","null","<img src=""img/land1.png"" style=""width:200px;border:14px solid red;"">","null","","","","","","","","","",""
"","image-keyboard-response","110","86559","0.0-110.0","3ZWFC4W1UVTQBPG0VA6ICVD2H09FRJ","A3CSIM8V9IYXM7","32TMVRKDGNK89K6LLIZX5RPIVK148D","","703","img/land2.png","75","705","2","1","2","1","1,0.5,0.5,0.5,1,0.5,0.5,0.5,1","1,0.5,0.5,0.5,1,0.5,0.5,0.5,1","","",""
"","html-keyboard-response","111","86862","0.0-111.0","3ZWFC4W1UVTQBPG0VA6ICVD2H09FRJ","A3CSIM8V9IYXM7","32TMVRKDGNK89K6LLIZX5RPIVK148D","","null","<img src=""img/land2.png"" style=""width:200px; border:14px solid green;"">","null","","","","","","","","","",""
"","image-keyboard-response","112","87751","0.0-112.0","3ZWFC4W1UVTQBPG0VA6ICVD2H09FRJ","A3CSIM8V9IYXM7","32TMVRKDGNK89K6LLIZX5RPIVK148D","","886","img/land1.png","74","888","1","1","1","1","1,0.5,0.5,0.5,1,0.5,0.5,0.5,1","1,0.5,0.5,0.5,1,0.5,0.5,0.5,1","","",""
"","html-keyboard-response","113","88078","0.0-113.0","3ZWFC4W1UVTQBPG0VA6ICVD2H09FRJ","A3CSIM8V9IYXM7","32TMVRKDGNK89K6LLIZX5RPIVK148D","","null","<img src=""img/land1.png"" style=""width:200px; border:14px solid green;"">","null","","","","","","","","","",""
"","image-keyboard-response","114","88886","0.0-114.0","3ZWFC4W1UVTQBPG0VA6ICVD2H09FRJ","A3CSIM8V9IYXM7","32TMVRKDGNK89K6LLIZX5RPIVK148D","","805","img/land3.png","76","807","3","1","3","1","1,0.5,0.5,0.5,1,0.5,0.5,0.5,1","1,0.5,0.5,0.5,1,0.5,0.5,0.5,1","","",""
"","html-keyboard-response","115","89188","0.0-115.0","3ZWFC4W1UVTQBPG0VA6ICVD2H09FRJ","A3CSIM8V9IYXM7","32TMVRKDGNK89K6LLIZX5RPIVK148D","","null","<img src=""img/land3.png"" style=""width:200px; border:14px solid green;"">","null","","","","","","","","","",""
"","image-keyboard-response","116","89854","0.0-116.0","3ZWFC4W1UVTQBPG0VA6ICVD2H09FRJ","A3CSIM8V9IYXM7","32TMVRKDGNK89K6LLIZX5RPIVK148D","","663","img/land3.png","76","665","3","1","3","1","1,0.5,0.5,0.5,1,0.5,0.5,0.5,1","1,0.5,0.5,0.5,1,0.5,0.5,0.5,1","","",""
"","html-keyboard-response","117","90157","0.0-117.0","3ZWFC4W1UVTQBPG0VA6ICVD2H09FRJ","A3CSIM8V9IYXM7","32TMVRKDGNK89K6LLIZX5RPIVK148D","","null","<img src=""img/land3.png"" style=""width:200px; border:14px solid green;"">","null","","","","","","","","","",""
"","image-keyboard-response","118","90414","0.0-118.0","3ZWFC4W1UVTQBPG0VA6ICVD2H09FRJ","A3CSIM8V9IYXM7","32TMVRKDGNK89K6LLIZX5RPIVK148D","","254","img/land2.png","76","255","3","0","2","1","1,0.5,0.5,0.5,1,0.5,0.5,0.5,1","1,0.5,0.5,0.5,1,0.5,0.5,0.5,1","","",""
"","html-keyboard-response","119","90717","0.0-119.0","3ZWFC4W1UVTQBPG0VA6ICVD2H09FRJ","A3CSIM8V9IYXM7","32TMVRKDGNK89K6LLIZX5RPIVK148D","","null","<img src=""img/land2.png"" style=""width:200px;border:14px solid red;"">","null","","","","","","","","","",""
"","image-keyboard-response","120","91598","0.0-120.0","3ZWFC4W1UVTQBPG0VA6ICVD2H09FRJ","A3CSIM8V9IYXM7","32TMVRKDGNK89K6LLIZX5RPIVK148D","","878","img/land2.png","74","880","1","1","2","1","1,0.5,0.5,0.5,1,0.5,0.5,0.5,1","1,0.5,0.5,0.5,1,0.5,0.5,0.5,1","","",""
"","html-keyboard-response","121","91904","0.0-121.0","3ZWFC4W1UVTQBPG0VA6ICVD2H09FRJ","A3CSIM8V9IYXM7","32TMVRKDGNK89K6LLIZX5RPIVK148D","","null","<img src=""img/land2.png"" style=""width:200px; border:14px solid green;"">","null","","","","","","","","","",""
"","image-keyboard-response","122","92230","0.0-122.0","3ZWFC4W1UVTQBPG0VA6ICVD2H09FRJ","A3CSIM8V9IYXM7","32TMVRKDGNK89K6LLIZX5RPIVK148D","","323","img/land1.png","74","324","1","1","1","1","1,0.5,0.5,0.5,1,0.5,0.5,0.5,1","1,0.5,0.5,0.5,1,0.5,0.5,0.5,1","","",""
"","html-keyboard-response","123","92532","0.0-123.0","3ZWFC4W1UVTQBPG0VA6ICVD2H09FRJ","A3CSIM8V9IYXM7","32TMVRKDGNK89K6LLIZX5RPIVK148D","","null","<img src=""img/land1.png"" style=""width:200px; border:14px solid green;"">","null","","","","","","","","","",""
"","image-keyboard-response","124","93054","0.0-124.0","3ZWFC4W1UVTQBPG0VA6ICVD2H09FRJ","A3CSIM8V9IYXM7","32TMVRKDGNK89K6LLIZX5RPIVK148D","","518","img/land1.png","74","521","1","1","1","1","1,0.5,0.5,0.5,1,0.5,0.5,0.5,1","1,0.5,0.5,0.5,1,0.5,0.5,0.5,1","","",""
"","html-keyboard-response","125","93356","0.0-125.0","3ZWFC4W1UVTQBPG0VA6ICVD2H09FRJ","A3CSIM8V9IYXM7","32TMVRKDGNK89K6LLIZX5RPIVK148D","","null","<img src=""img/land1.png"" style=""width:200px; border:14px solid green;"">","null","","","","","","","","","",""
"","image-keyboard-response","126","93893","0.0-126.0","3ZWFC4W1UVTQBPG0VA6ICVD2H09FRJ","A3CSIM8V9IYXM7","32TMVRKDGNK89K6LLIZX5RPIVK148D","","535","img/land1.png","74","537","1","1","1","1","1,0.5,0.5,0.5,1,0.5,0.5,0.5,1","1,0.5,0.5,0.5,1,0.5,0.5,0.5,1","","",""
"","html-keyboard-response","127","94211","0.0-127.0","3ZWFC4W1UVTQBPG0VA6ICVD2H09FRJ","A3CSIM8V9IYXM7","32TMVRKDGNK89K6LLIZX5RPIVK148D","","null","<img src=""img/land1.png"" style=""width:200px; border:14px solid green;"">","null","","","","","","","","","",""
"","image-keyboard-response","128","94678","0.0-128.0","3ZWFC4W1UVTQBPG0VA6ICVD2H09FRJ","A3CSIM8V9IYXM7","32TMVRKDGNK89K6LLIZX5RPIVK148D","","466","img/land1.png","74","467","1","1","1","1","1,0.5,0.5,0.5,1,0.5,0.5,0.5,1","1,0.5,0.5,0.5,1,0.5,0.5,0.5,1","","",""
"","html-keyboard-response","129","94980","0.0-129.0","3ZWFC4W1UVTQBPG0VA6ICVD2H09FRJ","A3CSIM8V9IYXM7","32TMVRKDGNK89K6LLIZX5RPIVK148D","","null","<img src=""img/land1.png"" style=""width:200px; border:14px solid green;"">","null","","","","","","","","","",""
"","image-keyboard-response","130","95486","0.0-130.0","3ZWFC4W1UVTQBPG0VA6ICVD2H09FRJ","A3CSIM8V9IYXM7","32TMVRKDGNK89K6LLIZX5RPIVK148D","","503","img/land1.png","74","505","1","1","1","1","1,0.5,0.5,0.5,1,0.5,0.5,0.5,1","1,0.5,0.5,0.5,1,0.5,0.5,0.5,1","","",""
"","html-keyboard-response","131","95789","0.0-131.0","3ZWFC4W1UVTQBPG0VA6ICVD2H09FRJ","A3CSIM8V9IYXM7","32TMVRKDGNK89K6LLIZX5RPIVK148D","","null","<img src=""img/land1.png"" style=""width:200px; border:14px solid green;"">","null","","","","","","","","","",""
"","image-keyboard-response","132","96870","0.0-132.0","3ZWFC4W1UVTQBPG0VA6ICVD2H09FRJ","A3CSIM8V9IYXM7","32TMVRKDGNK89K6LLIZX5RPIVK148D","","1079","img/land2.png","75","1081","2","1","2","1","1,0.5,0.5,0.5,1,0.5,0.5,0.5,1","1,0.5,0.5,0.5,1,0.5,0.5,0.5,1","","",""
"","html-keyboard-response","133","97186","0.0-133.0","3ZWFC4W1UVTQBPG0VA6ICVD2H09FRJ","A3CSIM8V9IYXM7","32TMVRKDGNK89K6LLIZX5RPIVK148D","","null","<img src=""img/land2.png"" style=""width:200px; border:14px solid green;"">","null","","","","","","","","","",""
"","image-keyboard-response","134","97646","0.0-134.0","3ZWFC4W1UVTQBPG0VA6ICVD2H09FRJ","A3CSIM8V9IYXM7","32TMVRKDGNK89K6LLIZX5RPIVK148D","","457","img/land2.png","75","459","2","1","2","1","1,0.5,0.5,0.5,1,0.5,0.5,0.5,1","1,0.5,0.5,0.5,1,0.5,0.5,0.5,1","","",""
"","html-keyboard-response","135","97949","0.0-135.0","3ZWFC4W1UVTQBPG0VA6ICVD2H09FRJ","A3CSIM8V9IYXM7","32TMVRKDGNK89K6LLIZX5RPIVK148D","","null","<img src=""img/land2.png"" style=""width:200px; border:14px solid green;"">","null","","","","","","","","","",""
"","image-keyboard-response","136","98886","0.0-136.0","3ZWFC4W1UVTQBPG0VA6ICVD2H09FRJ","A3CSIM8V9IYXM7","32TMVRKDGNK89K6LLIZX5RPIVK148D","","934","img/land1.png","74","937","1","1","1","1","1,0.5,0.5,0.5,1,0.5,0.5,0.5,1","1,0.5,0.5,0.5,1,0.5,0.5,0.5,1","","",""
"","html-keyboard-response","137","99188","0.0-137.0","3ZWFC4W1UVTQBPG0VA6ICVD2H09FRJ","A3CSIM8V9IYXM7","32TMVRKDGNK89K6LLIZX5RPIVK148D","","null","<img src=""img/land1.png"" style=""width:200px; border:14px solid green;"">","null","","","","","","","","","",""
"","image-keyboard-response","138","99941","0.0-138.0","3ZWFC4W1UVTQBPG0VA6ICVD2H09FRJ","A3CSIM8V9IYXM7","32TMVRKDGNK89K6LLIZX5RPIVK148D","","752","img/land3.png","76","754","3","1","3","1","1,0.5,0.5,0.5,1,0.5,0.5,0.5,1","1,0.5,0.5,0.5,1,0.5,0.5,0.5,1","","",""
"","html-keyboard-response","139","100248","0.0-139.0","3ZWFC4W1UVTQBPG0VA6ICVD2H09FRJ","A3CSIM8V9IYXM7","32TMVRKDGNK89K6LLIZX5RPIVK148D","","null","<img src=""img/land3.png"" style=""width:200px; border:14px solid green;"">","null","","","","","","","","","",""
"","image-keyboard-response","140","101134","0.0-140.0","3ZWFC4W1UVTQBPG0VA6ICVD2H09FRJ","A3CSIM8V9IYXM7","32TMVRKDGNK89K6LLIZX5RPIVK148D","","884","img/land2.png","75","886","2","1","2","1","1,0.5,0.5,0.5,1,0.5,0.5,0.5,1","1,0.5,0.5,0.5,1,0.5,0.5,0.5,1","","",""
"","html-keyboard-response","141","101442","0.0-141.0","3ZWFC4W1UVTQBPG0VA6ICVD2H09FRJ","A3CSIM8V9IYXM7","32TMVRKDGNK89K6LLIZX5RPIVK148D","","null","<img src=""img/land2.png"" style=""width:200px; border:14px solid green;"">","null","","","","","","","","","",""
"","image-keyboard-response","142","102238","0.0-142.0","3ZWFC4W1UVTQBPG0VA6ICVD2H09FRJ","A3CSIM8V9IYXM7","32TMVRKDGNK89K6LLIZX5RPIVK148D","","794","img/land3.png","76","795","3","1","3","1","1,0.5,0.5,0.5,1,0.5,0.5,0.5,1","1,0.5,0.5,0.5,1,0.5,0.5,0.5,1","","",""
"","html-keyboard-response","143","102540","0.0-143.0","3ZWFC4W1UVTQBPG0VA6ICVD2H09FRJ","A3CSIM8V9IYXM7","32TMVRKDGNK89K6LLIZX5RPIVK148D","","null","<img src=""img/land3.png"" style=""width:200px; border:14px solid green;"">","null","","","","","","","","","",""
"","image-keyboard-response","144","103342","0.0-144.0","3ZWFC4W1UVTQBPG0VA6ICVD2H09FRJ","A3CSIM8V9IYXM7","32TMVRKDGNK89K6LLIZX5RPIVK148D","","799","img/land2.png","75","802","2","1","2","1","1,0.5,0.5,0.5,1,0.5,0.5,0.5,1","1,0.5,0.5,0.5,1,0.5,0.5,0.5,1","","",""
"","html-keyboard-response","145","103644","0.0-145.0","3ZWFC4W1UVTQBPG0VA6ICVD2H09FRJ","A3CSIM8V9IYXM7","32TMVRKDGNK89K6LLIZX5RPIVK148D","","null","<img src=""img/land2.png"" style=""width:200px; border:14px solid green;"">","null","","","","","","","","","",""
"","image-keyboard-response","146","104429","0.0-146.0","3ZWFC4W1UVTQBPG0VA6ICVD2H09FRJ","A3CSIM8V9IYXM7","32TMVRKDGNK89K6LLIZX5RPIVK148D","","784","img/land1.png","74","785","1","1","1","1","1,0.5,0.5,0.5,1,0.5,0.5,0.5,1","1,0.5,0.5,0.5,1,0.5,0.5,0.5,1","","",""
"","html-keyboard-response","147","104732","0.0-147.0","3ZWFC4W1UVTQBPG0VA6ICVD2H09FRJ","A3CSIM8V9IYXM7","32TMVRKDGNK89K6LLIZX5RPIVK148D","","null","<img src=""img/land1.png"" style=""width:200px; border:14px solid green;"">","null","","","","","","","","","",""
"","image-keyboard-response","148","105545","0.0-148.0","3ZWFC4W1UVTQBPG0VA6ICVD2H09FRJ","A3CSIM8V9IYXM7","32TMVRKDGNK89K6LLIZX5RPIVK148D","","810","img/land2.png","75","811","2","1","2","1","1,0.5,0.5,0.5,1,0.5,0.5,0.5,1","1,0.5,0.5,0.5,1,0.5,0.5,0.5,1","","",""
"","html-keyboard-response","149","105850","0.0-149.0","3ZWFC4W1UVTQBPG0VA6ICVD2H09FRJ","A3CSIM8V9IYXM7","32TMVRKDGNK89K6LLIZX5RPIVK148D","","null","<img src=""img/land2.png"" style=""width:200px; border:14px solid green;"">","null","","","","","","","","","",""
"","image-keyboard-response","150","106493","0.0-150.0","3ZWFC4W1UVTQBPG0VA6ICVD2H09FRJ","A3CSIM8V9IYXM7","32TMVRKDGNK89K6LLIZX5RPIVK148D","","640","img/land2.png","75","643","2","1","2","1","1,0.5,0.5,0.5,1,0.5,0.5,0.5,1","1,0.5,0.5,0.5,1,0.5,0.5,0.5,1","","",""
"","html-keyboard-response","151","106796","0.0-151.0","3ZWFC4W1UVTQBPG0VA6ICVD2H09FRJ","A3CSIM8V9IYXM7","32TMVRKDGNK89K6LLIZX5RPIVK148D","","null","<img src=""img/land2.png"" style=""width:200px; border:14px solid green;"">","null","","","","","","","","","",""
"","image-keyboard-response","152","107262","0.0-152.0","3ZWFC4W1UVTQBPG0VA6ICVD2H09FRJ","A3CSIM8V9IYXM7","32TMVRKDGNK89K6LLIZX5RPIVK148D","","463","img/land2.png","75","464","2","1","2","1","1,0.5,0.5,0.5,1,0.5,0.5,0.5,1","1,0.5,0.5,0.5,1,0.5,0.5,0.5,1","","",""
"","html-keyboard-response","153","107565","0.0-153.0","3ZWFC4W1UVTQBPG0VA6ICVD2H09FRJ","A3CSIM8V9IYXM7","32TMVRKDGNK89K6LLIZX5RPIVK148D","","null","<img src=""img/land2.png"" style=""width:200px; border:14px solid green;"">","null","","","","","","","","","",""
"","image-keyboard-response","154","108070","0.0-154.0","3ZWFC4W1UVTQBPG0VA6ICVD2H09FRJ","A3CSIM8V9IYXM7","32TMVRKDGNK89K6LLIZX5RPIVK148D","","504","img/land2.png","75","506","2","1","2","1","1,0.5,0.5,0.5,1,0.5,0.5,0.5,1","1,0.5,0.5,0.5,1,0.5,0.5,0.5,1","","",""
"","html-keyboard-response","155","108372","0.0-155.0","3ZWFC4W1UVTQBPG0VA6ICVD2H09FRJ","A3CSIM8V9IYXM7","32TMVRKDGNK89K6LLIZX5RPIVK148D","","null","<img src=""img/land2.png"" style=""width:200px; border:14px solid green;"">","null","","","","","","","","","",""
"","image-keyboard-response","156","109078","0.0-156.0","3ZWFC4W1UVTQBPG0VA6ICVD2H09FRJ","A3CSIM8V9IYXM7","32TMVRKDGNK89K6LLIZX5RPIVK148D","","704","img/land3.png","76","706","3","1","3","1","1,0.5,0.5,0.5,1,0.5,0.5,0.5,1","1,0.5,0.5,0.5,1,0.5,0.5,0.5,1","","",""
"","html-keyboard-response","157","109380","0.0-157.0","3ZWFC4W1UVTQBPG0VA6ICVD2H09FRJ","A3CSIM8V9IYXM7","32TMVRKDGNK89K6LLIZX5RPIVK148D","","null","<img src=""img/land3.png"" style=""width:200px; border:14px solid green;"">","null","","","","","","","","","",""
"","image-keyboard-response","158","110398","0.0-158.0","3ZWFC4W1UVTQBPG0VA6ICVD2H09FRJ","A3CSIM8V9IYXM7","32TMVRKDGNK89K6LLIZX5RPIVK148D","","1015","img/land1.png","74","1017","1","1","1","1","1,0.5,0.5,0.5,1,0.5,0.5,0.5,1","1,0.5,0.5,0.5,1,0.5,0.5,0.5,1","","",""
"","html-keyboard-response","159","110700","0.0-159.0","3ZWFC4W1UVTQBPG0VA6ICVD2H09FRJ","A3CSIM8V9IYXM7","32TMVRKDGNK89K6LLIZX5RPIVK148D","","null","<img src=""img/land1.png"" style=""width:200px; border:14px solid green;"">","null","","","","","","","","","",""
"","image-keyboard-response","160","111197","0.0-160.0","3ZWFC4W1UVTQBPG0VA6ICVD2H09FRJ","A3CSIM8V9IYXM7","32TMVRKDGNK89K6LLIZX5RPIVK148D","","495","img/land1.png","74","497","1","1","1","1","1,0.5,0.5,0.5,1,0.5,0.5,0.5,1","1,0.5,0.5,0.5,1,0.5,0.5,0.5,1","","",""
"","html-keyboard-response","161","111501","0.0-161.0","3ZWFC4W1UVTQBPG0VA6ICVD2H09FRJ","A3CSIM8V9IYXM7","32TMVRKDGNK89K6LLIZX5RPIVK148D","","null","<img src=""img/land1.png"" style=""width:200px; border:14px solid green;"">","null","","","","","","","","","",""
"","image-keyboard-response","162","112302","0.0-162.0","3ZWFC4W1UVTQBPG0VA6ICVD2H09FRJ","A3CSIM8V9IYXM7","32TMVRKDGNK89K6LLIZX5RPIVK148D","","799","img/land2.png","75","801","2","1","2","1","1,0.5,0.5,0.5,1,0.5,0.5,0.5,1","1,0.5,0.5,0.5,1,0.5,0.5,0.5,1","","",""
"","html-keyboard-response","163","112627","0.0-163.0","3ZWFC4W1UVTQBPG0VA6ICVD2H09FRJ","A3CSIM8V9IYXM7","32TMVRKDGNK89K6LLIZX5RPIVK148D","","null","<img src=""img/land2.png"" style=""width:200px; border:14px solid green;"">","null","","","","","","","","","",""
"","image-keyboard-response","164","113438","0.0-164.0","3ZWFC4W1UVTQBPG0VA6ICVD2H09FRJ","A3CSIM8V9IYXM7","32TMVRKDGNK89K6LLIZX5RPIVK148D","","810","img/land1.png","74","811","1","1","1","1","1,0.5,0.5,0.5,1,0.5,0.5,0.5,1","1,0.5,0.5,0.5,1,0.5,0.5,0.5,1","","",""
"","html-keyboard-response","165","113740","0.0-165.0","3ZWFC4W1UVTQBPG0VA6ICVD2H09FRJ","A3CSIM8V9IYXM7","32TMVRKDGNK89K6LLIZX5RPIVK148D","","null","<img src=""img/land1.png"" style=""width:200px; border:14px solid green;"">","null","","","","","","","","","",""
"","image-keyboard-response","166","114573","0.0-166.0","3ZWFC4W1UVTQBPG0VA6ICVD2H09FRJ","A3CSIM8V9IYXM7","32TMVRKDGNK89K6LLIZX5RPIVK148D","","831","img/land3.png","76","833","3","1","3","1","1,0.5,0.5,0.5,1,0.5,0.5,0.5,1","1,0.5,0.5,0.5,1,0.5,0.5,0.5,1","","",""
"","html-keyboard-response","167","114892","0.0-167.0","3ZWFC4W1UVTQBPG0VA6ICVD2H09FRJ","A3CSIM8V9IYXM7","32TMVRKDGNK89K6LLIZX5RPIVK148D","","null","<img src=""img/land3.png"" style=""width:200px; border:14px solid green;"">","null","","","","","","","","","",""
"","image-keyboard-response","168","115814","0.0-168.0","3ZWFC4W1UVTQBPG0VA6ICVD2H09FRJ","A3CSIM8V9IYXM7","32TMVRKDGNK89K6LLIZX5RPIVK148D","","919","img/land3.png","76","920","3","1","3","1","1,0.5,0.5,0.5,1,0.5,0.5,0.5,1","1,0.5,0.5,0.5,1,0.5,0.5,0.5,1","","",""
"","html-keyboard-response","169","116115","0.0-169.0","3ZWFC4W1UVTQBPG0VA6ICVD2H09FRJ","A3CSIM8V9IYXM7","32TMVRKDGNK89K6LLIZX5RPIVK148D","","null","<img src=""img/land3.png"" style=""width:200px; border:14px solid green;"">","null","","","","","","","","","",""
"","image-keyboard-response","170","116942","0.0-170.0","3ZWFC4W1UVTQBPG0VA6ICVD2H09FRJ","A3CSIM8V9IYXM7","32TMVRKDGNK89K6LLIZX5RPIVK148D","","824","img/land2.png","75","827","2","1","2","1","1,0.5,0.5,0.5,1,0.5,0.5,0.5,1","1,0.5,0.5,0.5,1,0.5,0.5,0.5,1","","",""
"","html-keyboard-response","171","117244","0.0-171.0","3ZWFC4W1UVTQBPG0VA6ICVD2H09FRJ","A3CSIM8V9IYXM7","32TMVRKDGNK89K6LLIZX5RPIVK148D","","null","<img src=""img/land2.png"" style=""width:200px; border:14px solid green;"">","null","","","","","","","","","",""
"","image-keyboard-response","172","118006","0.0-172.0","3ZWFC4W1UVTQBPG0VA6ICVD2H09FRJ","A3CSIM8V9IYXM7","32TMVRKDGNK89K6LLIZX5RPIVK148D","","758","img/land3.png","76","760","3","1","3","1","1,0.5,0.5,0.5,1,0.5,0.5,0.5,1","1,0.5,0.5,0.5,1,0.5,0.5,0.5,1","","",""
"","html-keyboard-response","173","118308","0.0-173.0","3ZWFC4W1UVTQBPG0VA6ICVD2H09FRJ","A3CSIM8V9IYXM7","32TMVRKDGNK89K6LLIZX5RPIVK148D","","null","<img src=""img/land3.png"" style=""width:200px; border:14px solid green;"">","null","","","","","","","","","",""
"","image-keyboard-response","174","118854","0.0-174.0","3ZWFC4W1UVTQBPG0VA6ICVD2H09FRJ","A3CSIM8V9IYXM7","32TMVRKDGNK89K6LLIZX5RPIVK148D","","542","img/land3.png","76","544","3","1","3","1","1,0.5,0.5,0.5,1,0.5,0.5,0.5,1","1,0.5,0.5,0.5,1,0.5,0.5,0.5,1","","",""
"","html-keyboard-response","175","119157","0.0-175.0","3ZWFC4W1UVTQBPG0VA6ICVD2H09FRJ","A3CSIM8V9IYXM7","32TMVRKDGNK89K6LLIZX5RPIVK148D","","null","<img src=""img/land3.png"" style=""width:200px; border:14px solid green;"">","null","","","","","","","","","",""
"","image-keyboard-response","176","120030","0.0-176.0","3ZWFC4W1UVTQBPG0VA6ICVD2H09FRJ","A3CSIM8V9IYXM7","32TMVRKDGNK89K6LLIZX5RPIVK148D","","870","img/land1.png","74","872","1","1","1","1","1,0.5,0.5,0.5,1,0.5,0.5,0.5,1","1,0.5,0.5,0.5,1,0.5,0.5,0.5,1","","",""
"","html-keyboard-response","177","120333","0.0-177.0","3ZWFC4W1UVTQBPG0VA6ICVD2H09FRJ","A3CSIM8V9IYXM7","32TMVRKDGNK89K6LLIZX5RPIVK148D","","null","<img src=""img/land1.png"" style=""width:200px; border:14px solid green;"">","null","","","","","","","","","",""
"","image-keyboard-response","178","121086","0.0-178.0","3ZWFC4W1UVTQBPG0VA6ICVD2H09FRJ","A3CSIM8V9IYXM7","32TMVRKDGNK89K6LLIZX5RPIVK148D","","751","img/land2.png","75","753","2","1","2","1","1,0.5,0.5,0.5,1,0.5,0.5,0.5,1","1,0.5,0.5,0.5,1,0.5,0.5,0.5,1","","",""
"","html-keyboard-response","179","121414","0.0-179.0","3ZWFC4W1UVTQBPG0VA6ICVD2H09FRJ","A3CSIM8V9IYXM7","32TMVRKDGNK89K6LLIZX5RPIVK148D","","null","<img src=""img/land2.png"" style=""width:200px; border:14px solid green;"">","null","","","","","","","","","",""
"","image-keyboard-response","180","122086","0.0-180.0","3ZWFC4W1UVTQBPG0VA6ICVD2H09FRJ","A3CSIM8V9IYXM7","32TMVRKDGNK89K6LLIZX5RPIVK148D","","669","img/land3.png","76","671","3","1","3","1","1,0.5,0.5,0.5,1,0.5,0.5,0.5,1","1,0.5,0.5,0.5,1,0.5,0.5,0.5,1","","",""
"","html-keyboard-response","181","122389","0.0-181.0","3ZWFC4W1UVTQBPG0VA6ICVD2H09FRJ","A3CSIM8V9IYXM7","32TMVRKDGNK89K6LLIZX5RPIVK148D","","null","<img src=""img/land3.png"" style=""width:200px; border:14px solid green;"">","null","","","","","","","","","",""
"","html-keyboard-response","182","125129","0.0-182.0","3ZWFC4W1UVTQBPG0VA6ICVD2H09FRJ","A3CSIM8V9IYXM7","32TMVRKDGNK89K6LLIZX5RPIVK148D","","","","","","","","","","","","","",""
"","image-keyboard-response","183","126501","0.0-183.0","3ZWFC4W1UVTQBPG0VA6ICVD2H09FRJ","A3CSIM8V9IYXM7","32TMVRKDGNK89K6LLIZX5RPIVK148D","","1365","img/land5.png","76","1373","3","0","2","1","1,0.5,0.5,0.5,1,0.5,0.5,0.5,1","1,0.5,0.5,0.5,1,0.5,0.5,0.5,1","","",""
"","html-keyboard-response","184","126805","0.0-184.0","3ZWFC4W1UVTQBPG0VA6ICVD2H09FRJ","A3CSIM8V9IYXM7","32TMVRKDGNK89K6LLIZX5RPIVK148D","","null","<img src=""img/land5.png"" style=""width:200px;border:14px solid red;"">","null","","","","","","","","","",""
"","image-keyboard-response","185","127559","0.0-185.0","3ZWFC4W1UVTQBPG0VA6ICVD2H09FRJ","A3CSIM8V9IYXM7","32TMVRKDGNK89K6LLIZX5RPIVK148D","","751","img/land6.png","76","756","3","1","3","1","1,0.5,0.5,0.5,1,0.5,0.5,0.5,1","1,0.5,0.5,0.5,1,0.5,0.5,0.5,1","","",""
"","html-keyboard-response","186","127862","0.0-186.0","3ZWFC4W1UVTQBPG0VA6ICVD2H09FRJ","A3CSIM8V9IYXM7","32TMVRKDGNK89K6LLIZX5RPIVK148D","","null","<img src=""img/land6.png"" style=""width:200px; border:14px solid green;"">","null","","","","","","","","","",""
"","image-keyboard-response","187","128342","0.0-187.0","3ZWFC4W1UVTQBPG0VA6ICVD2H09FRJ","A3CSIM8V9IYXM7","32TMVRKDGNK89K6LLIZX5RPIVK148D","","476","img/land6.png","76","478","3","1","3","1","1,0.5,0.5,0.5,1,0.5,0.5,0.5,1","1,0.5,0.5,0.5,1,0.5,0.5,0.5,1","","",""
"","html-keyboard-response","188","128645","0.0-188.0","3ZWFC4W1UVTQBPG0VA6ICVD2H09FRJ","A3CSIM8V9IYXM7","32TMVRKDGNK89K6LLIZX5RPIVK148D","","null","<img src=""img/land6.png"" style=""width:200px; border:14px solid green;"">","null","","","","","","","","","",""
"","image-keyboard-response","189","129422","0.0-189.0","3ZWFC4W1UVTQBPG0VA6ICVD2H09FRJ","A3CSIM8V9IYXM7","32TMVRKDGNK89K6LLIZX5RPIVK148D","","775","img/land5.png","76","778","3","0","2","1","1,0.5,0.5,0.5,1,0.5,0.5,0.5,1","1,0.5,0.5,0.5,1,0.5,0.5,0.5,1","","",""
"","html-keyboard-response","190","129724","0.0-190.0","3ZWFC4W1UVTQBPG0VA6ICVD2H09FRJ","A3CSIM8V9IYXM7","32TMVRKDGNK89K6LLIZX5RPIVK148D","","null","<img src=""img/land5.png"" style=""width:200px;border:14px solid red;"">","null","","","","","","","","","",""
"","image-keyboard-response","191","130246","0.0-191.0","3ZWFC4W1UVTQBPG0VA6ICVD2H09FRJ","A3CSIM8V9IYXM7","32TMVRKDGNK89K6LLIZX5RPIVK148D","","520","img/land5.png","76","521","3","1","2","1","1,0.5,0.5,0.5,1,0.5,0.5,0.5,1","1,0.5,0.5,0.5,1,0.5,0.5,0.5,1","","",""
"","html-keyboard-response","192","130548","0.0-192.0","3ZWFC4W1UVTQBPG0VA6ICVD2H09FRJ","A3CSIM8V9IYXM7","32TMVRKDGNK89K6LLIZX5RPIVK148D","","null","<img src=""img/land5.png"" style=""width:200px; border:14px solid green;"">","null","","","","","","","","","",""
"","image-keyboard-response","193","131173","0.0-193.0","3ZWFC4W1UVTQBPG0VA6ICVD2H09FRJ","A3CSIM8V9IYXM7","32TMVRKDGNK89K6LLIZX5RPIVK148D","","622","img/land6.png","76","624","3","1","3","1","1,0.5,0.5,0.5,1,0.5,0.5,0.5,1","1,0.5,0.5,0.5,1,0.5,0.5,0.5,1","","",""
"","html-keyboard-response","194","131477","0.0-194.0","3ZWFC4W1UVTQBPG0VA6ICVD2H09FRJ","A3CSIM8V9IYXM7","32TMVRKDGNK89K6LLIZX5RPIVK148D","","null","<img src=""img/land6.png"" style=""width:200px; border:14px solid green;"">","null","","","","","","","","","",""
"","image-keyboard-response","195","131878","0.0-195.0","3ZWFC4W1UVTQBPG0VA6ICVD2H09FRJ","A3CSIM8V9IYXM7","32TMVRKDGNK89K6LLIZX5RPIVK148D","","399","img/land6.png","76","400","3","1","3","1","1,0.5,0.5,0.5,1,0.5,0.5,0.5,1","1,0.5,0.5,0.5,1,0.5,0.5,0.5,1","","",""
"","html-keyboard-response","196","132181","0.0-196.0","3ZWFC4W1UVTQBPG0VA6ICVD2H09FRJ","A3CSIM8V9IYXM7","32TMVRKDGNK89K6LLIZX5RPIVK148D","","null","<img src=""img/land6.png"" style=""width:200px; border:14px solid green;"">","null","","","","","","","","","",""
"","image-keyboard-response","197","133126","0.0-197.0","3ZWFC4W1UVTQBPG0VA6ICVD2H09FRJ","A3CSIM8V9IYXM7","32TMVRKDGNK89K6LLIZX5RPIVK148D","","943","img/land4.png","75","946","2","1","1","1","1,0.5,0.5,0.5,1,0.5,0.5,0.5,1","1,0.5,0.5,0.5,1,0.5,0.5,0.5,1","","",""
"","html-keyboard-response","198","133429","0.0-198.0","3ZWFC4W1UVTQBPG0VA6ICVD2H09FRJ","A3CSIM8V9IYXM7","32TMVRKDGNK89K6LLIZX5RPIVK148D","","null","<img src=""img/land4.png"" style=""width:200px; border:14px solid green;"">","null","","","","","","","","","",""
"","image-keyboard-response","199","134230","0.0-199.0","3ZWFC4W1UVTQBPG0VA6ICVD2H09FRJ","A3CSIM8V9IYXM7","32TMVRKDGNK89K6LLIZX5RPIVK148D","","798","img/land6.png","76","800","3","1","3","1","1,0.5,0.5,0.5,1,0.5,0.5,0.5,1","1,0.5,0.5,0.5,1,0.5,0.5,0.5,1","","",""
"","html-keyboard-response","200","134532","0.0-200.0","3ZWFC4W1UVTQBPG0VA6ICVD2H09FRJ","A3CSIM8V9IYXM7","32TMVRKDGNK89K6LLIZX5RPIVK148D","","null","<img src=""img/land6.png"" style=""width:200px; border:14px solid green;"">","null","","","","","","","","","",""
"","image-keyboard-response","201","135445","0.0-201.0","3ZWFC4W1UVTQBPG0VA6ICVD2H09FRJ","A3CSIM8V9IYXM7","32TMVRKDGNK89K6LLIZX5RPIVK148D","","912","img/land5.png","75","913","2","1","2","1","1,0.5,0.5,0.5,1,0.5,0.5,0.5,1","1,0.5,0.5,0.5,1,0.5,0.5,0.5,1","","",""
"","html-keyboard-response","202","135748","0.0-202.0","3ZWFC4W1UVTQBPG0VA6ICVD2H09FRJ","A3CSIM8V9IYXM7","32TMVRKDGNK89K6LLIZX5RPIVK148D","","null","<img src=""img/land5.png"" style=""width:200px; border:14px solid green;"">","null","","","","","","","","","",""
"","image-keyboard-response","203","136686","0.0-203.0","3ZWFC4W1UVTQBPG0VA6ICVD2H09FRJ","A3CSIM8V9IYXM7","32TMVRKDGNK89K6LLIZX5RPIVK148D","","936","img/land4.png","75","938","2","1","1","1","1,0.5,0.5,0.5,1,0.5,0.5,0.5,1","1,0.5,0.5,0.5,1,0.5,0.5,0.5,1","","",""
"","html-keyboard-response","204","136987","0.0-204.0","3ZWFC4W1UVTQBPG0VA6ICVD2H09FRJ","A3CSIM8V9IYXM7","32TMVRKDGNK89K6LLIZX5RPIVK148D","","null","<img src=""img/land4.png"" style=""width:200px; border:14px solid green;"">","null","","","","","","","","","",""
"","image-keyboard-response","205","138022","0.0-205.0","3ZWFC4W1UVTQBPG0VA6ICVD2H09FRJ","A3CSIM8V9IYXM7","32TMVRKDGNK89K6LLIZX5RPIVK148D","","1031","img/land5.png","75","1034","2","1","2","1","1,0.5,0.5,0.5,1,0.5,0.5,0.5,1","1,0.5,0.5,0.5,1,0.5,0.5,0.5,1","","",""
"","html-keyboard-response","206","138325","0.0-206.0","3ZWFC4W1UVTQBPG0VA6ICVD2H09FRJ","A3CSIM8V9IYXM7","32TMVRKDGNK89K6LLIZX5RPIVK148D","","null","<img src=""img/land5.png"" style=""width:200px; border:14px solid green;"">","null","","","","","","","","","",""
"","image-keyboard-response","207","139166","0.0-207.0","3ZWFC4W1UVTQBPG0VA6ICVD2H09FRJ","A3CSIM8V9IYXM7","32TMVRKDGNK89K6LLIZX5RPIVK148D","","839","img/land4.png","75","841","2","0","1","1","1,0.5,0.5,0.5,1,0.5,0.5,0.5,1","1,0.5,0.5,0.5,1,0.5,0.5,0.5,1","","",""
"","html-keyboard-response","208","139469","0.0-208.0","3ZWFC4W1UVTQBPG0VA6ICVD2H09FRJ","A3CSIM8V9IYXM7","32TMVRKDGNK89K6LLIZX5RPIVK148D","","null","<img src=""img/land4.png"" style=""width:200px;border:14px solid red;"">","null","","","","","","","","","",""
"","image-keyboard-response","209","140382","0.0-209.0","3ZWFC4W1UVTQBPG0VA6ICVD2H09FRJ","A3CSIM8V9IYXM7","32TMVRKDGNK89K6LLIZX5RPIVK148D","","910","img/land6.png","76","911","3","1","3","1","1,0.5,0.5,0.5,1,0.5,0.5,0.5,1","1,0.5,0.5,0.5,1,0.5,0.5,0.5,1","","",""
"","html-keyboard-response","210","140684","0.0-210.0","3ZWFC4W1UVTQBPG0VA6ICVD2H09FRJ","A3CSIM8V9IYXM7","32TMVRKDGNK89K6LLIZX5RPIVK148D","","null","<img src=""img/land6.png"" style=""width:200px; border:14px solid green;"">","null","","","","","","","","","",""
"","image-keyboard-response","211","141174","0.0-211.0","3ZWFC4W1UVTQBPG0VA6ICVD2H09FRJ","A3CSIM8V9IYXM7","32TMVRKDGNK89K6LLIZX5RPIVK148D","","487","img/land6.png","76","490","3","1","3","1","1,0.5,0.5,0.5,1,0.5,0.5,0.5,1","1,0.5,0.5,0.5,1,0.5,0.5,0.5,1","","",""
"","html-keyboard-response","212","141479","0.0-212.0","3ZWFC4W1UVTQBPG0VA6ICVD2H09FRJ","A3CSIM8V9IYXM7","32TMVRKDGNK89K6LLIZX5RPIVK148D","","null","<img src=""img/land6.png"" style=""width:200px; border:14px solid green;"">","null","","","","","","","","","",""
"","image-keyboard-response","213","142494","0.0-213.0","3ZWFC4W1UVTQBPG0VA6ICVD2H09FRJ","A3CSIM8V9IYXM7","32TMVRKDGNK89K6LLIZX5RPIVK148D","","1014","img/land5.png","74","1014","1","0","2","1","1,0.5,0.5,0.5,1,0.5,0.5,0.5,1","1,0.5,0.5,0.5,1,0.5,0.5,0.5,1","","",""
"","html-keyboard-response","214","142796","0.0-214.0","3ZWFC4W1UVTQBPG0VA6ICVD2H09FRJ","A3CSIM8V9IYXM7","32TMVRKDGNK89K6LLIZX5RPIVK148D","","null","<img src=""img/land5.png"" style=""width:200px;border:14px solid red;"">","null","","","","","","","","","",""
"","image-keyboard-response","215","143918","0.0-215.0","3ZWFC4W1UVTQBPG0VA6ICVD2H09FRJ","A3CSIM8V9IYXM7","32TMVRKDGNK89K6LLIZX5RPIVK148D","","1119","img/land5.png","74","1122","1","1","2","1","1,0.5,0.5,0.5,1,0.5,0.5,0.5,1","1,0.5,0.5,0.5,1,0.5,0.5,0.5,1","","",""
"","html-keyboard-response","216","144220","0.0-216.0","3ZWFC4W1UVTQBPG0VA6ICVD2H09FRJ","A3CSIM8V9IYXM7","32TMVRKDGNK89K6LLIZX5RPIVK148D","","null","<img src=""img/land5.png"" style=""width:200px; border:14px solid green;"">","null","","","","","","","","","",""
"","image-keyboard-response","217","145061","0.0-217.0","3ZWFC4W1UVTQBPG0VA6ICVD2H09FRJ","A3CSIM8V9IYXM7","32TMVRKDGNK89K6LLIZX5RPIVK148D","","839","img/land6.png","76","842","3","1","3","1","1,0.5,0.5,0.5,1,0.5,0.5,0.5,1","1,0.5,0.5,0.5,1,0.5,0.5,0.5,1","","",""
"","html-keyboard-response","218","145366","0.0-218.0","3ZWFC4W1UVTQBPG0VA6ICVD2H09FRJ","A3CSIM8V9IYXM7","32TMVRKDGNK89K6LLIZX5RPIVK148D","","null","<img src=""img/land6.png"" style=""width:200px; border:14px solid green;"">","null","","","","","","","","","",""
"","image-keyboard-response","219","146286","0.0-219.0","3ZWFC4W1UVTQBPG0VA6ICVD2H09FRJ","A3CSIM8V9IYXM7","32TMVRKDGNK89K6LLIZX5RPIVK148D","","918","img/land4.png","74","921","1","1","1","1","1,0.5,0.5,0.5,1,0.5,0.5,0.5,1","1,0.5,0.5,0.5,1,0.5,0.5,0.5,1","","",""
"","html-keyboard-response","220","146588","0.0-220.0","3ZWFC4W1UVTQBPG0VA6ICVD2H09FRJ","A3CSIM8V9IYXM7","32TMVRKDGNK89K6LLIZX5RPIVK148D","","null","<img src=""img/land4.png"" style=""width:200px; border:14px solid green;"">","null","","","","","","","","","",""
"","image-keyboard-response","221","147553","0.0-221.0","3ZWFC4W1UVTQBPG0VA6ICVD2H09FRJ","A3CSIM8V9IYXM7","32TMVRKDGNK89K6LLIZX5RPIVK148D","","963","img/land6.png","76","964","3","1","3","1","1,0.5,0.5,0.5,1,0.5,0.5,0.5,1","1,0.5,0.5,0.5,1,0.5,0.5,0.5,1","","",""
"","html-keyboard-response","222","147860","0.0-222.0","3ZWFC4W1UVTQBPG0VA6ICVD2H09FRJ","A3CSIM8V9IYXM7","32TMVRKDGNK89K6LLIZX5RPIVK148D","","null","<img src=""img/land6.png"" style=""width:200px; border:14px solid green;"">","null","","","","","","","","","",""
"","image-keyboard-response","223","149270","0.0-223.0","3ZWFC4W1UVTQBPG0VA6ICVD2H09FRJ","A3CSIM8V9IYXM7","32TMVRKDGNK89K6LLIZX5RPIVK148D","","1408","img/land4.png","75","1409","2","0","1","1","1,0.5,0.5,0.5,1,0.5,0.5,0.5,1","1,0.5,0.5,0.5,1,0.5,0.5,0.5,1","","",""
"","html-keyboard-response","224","149573","0.0-224.0","3ZWFC4W1UVTQBPG0VA6ICVD2H09FRJ","A3CSIM8V9IYXM7","32TMVRKDGNK89K6LLIZX5RPIVK148D","","null","<img src=""img/land4.png"" style=""width:200px;border:14px solid red;"">","null","","","","","","","","","",""
"","image-keyboard-response","225","150310","0.0-225.0","3ZWFC4W1UVTQBPG0VA6ICVD2H09FRJ","A3CSIM8V9IYXM7","32TMVRKDGNK89K6LLIZX5RPIVK148D","","735","img/land6.png","76","737","3","1","3","1","1,0.5,0.5,0.5,1,0.5,0.5,0.5,1","1,0.5,0.5,0.5,1,0.5,0.5,0.5,1","","",""
"","html-keyboard-response","226","150612","0.0-226.0","3ZWFC4W1UVTQBPG0VA6ICVD2H09FRJ","A3CSIM8V9IYXM7","32TMVRKDGNK89K6LLIZX5RPIVK148D","","null","<img src=""img/land6.png"" style=""width:200px; border:14px solid green;"">","null","","","","","","","","","",""
"","image-keyboard-response","227","151478","0.0-227.0","3ZWFC4W1UVTQBPG0VA6ICVD2H09FRJ","A3CSIM8V9IYXM7","32TMVRKDGNK89K6LLIZX5RPIVK148D","","864","img/land5.png","74","865","1","0","2","1","1,0.5,0.5,0.5,1,0.5,0.5,0.5,1","1,0.5,0.5,0.5,1,0.5,0.5,0.5,1","","",""
"","html-keyboard-response","228","151781","0.0-228.0","3ZWFC4W1UVTQBPG0VA6ICVD2H09FRJ","A3CSIM8V9IYXM7","32TMVRKDGNK89K6LLIZX5RPIVK148D","","null","<img src=""img/land5.png"" style=""width:200px;border:14px solid red;"">","null","","","","","","","","","",""
"","image-keyboard-response","229","152510","0.0-229.0","3ZWFC4W1UVTQBPG0VA6ICVD2H09FRJ","A3CSIM8V9IYXM7","32TMVRKDGNK89K6LLIZX5RPIVK148D","","727","img/land6.png","76","729","3","1","3","1","1,0.5,0.5,0.5,1,0.5,0.5,0.5,1","1,0.5,0.5,0.5,1,0.5,0.5,0.5,1","","",""
"","html-keyboard-response","230","152812","0.0-230.0","3ZWFC4W1UVTQBPG0VA6ICVD2H09FRJ","A3CSIM8V9IYXM7","32TMVRKDGNK89K6LLIZX5RPIVK148D","","null","<img src=""img/land6.png"" style=""width:200px; border:14px solid green;"">","null","","","","","","","","","",""
"","image-keyboard-response","231","154062","0.0-231.0","3ZWFC4W1UVTQBPG0VA6ICVD2H09FRJ","A3CSIM8V9IYXM7","32TMVRKDGNK89K6LLIZX5RPIVK148D","","1246","img/land4.png","75","1249","2","1","1","1","1,0.5,0.5,0.5,1,0.5,0.5,0.5,1","1,0.5,0.5,0.5,1,0.5,0.5,0.5,1","","",""
"","html-keyboard-response","232","154365","0.0-232.0","3ZWFC4W1UVTQBPG0VA6ICVD2H09FRJ","A3CSIM8V9IYXM7","32TMVRKDGNK89K6LLIZX5RPIVK148D","","null","<img src=""img/land4.png"" style=""width:200px; border:14px solid green;"">","null","","","","","","","","","",""
"","image-keyboard-response","233","155239","0.0-233.0","3ZWFC4W1UVTQBPG0VA6ICVD2H09FRJ","A3CSIM8V9IYXM7","32TMVRKDGNK89K6LLIZX5RPIVK148D","","869","img/land6.png","76","872","3","1","3","1","1,0.5,0.5,0.5,1,0.5,0.5,0.5,1","1,0.5,0.5,0.5,1,0.5,0.5,0.5,1","","",""
"","html-keyboard-response","234","155542","0.0-234.0","3ZWFC4W1UVTQBPG0VA6ICVD2H09FRJ","A3CSIM8V9IYXM7","32TMVRKDGNK89K6LLIZX5RPIVK148D","","null","<img src=""img/land6.png"" style=""width:200px; border:14px solid green;"">","null","","","","","","","","","",""
"","image-keyboard-response","235","156555","0.0-235.0","3ZWFC4W1UVTQBPG0VA6ICVD2H09FRJ","A3CSIM8V9IYXM7","32TMVRKDGNK89K6LLIZX5RPIVK148D","","1011","img/land5.png","74","1012","1","1","2","1","1,0.5,0.5,0.5,1,0.5,0.5,0.5,1","1,0.5,0.5,0.5,1,0.5,0.5,0.5,1","","",""
"","html-keyboard-response","236","156857","0.0-236.0","3ZWFC4W1UVTQBPG0VA6ICVD2H09FRJ","A3CSIM8V9IYXM7","32TMVRKDGNK89K6LLIZX5RPIVK148D","","null","<img src=""img/land5.png"" style=""width:200px; border:14px solid green;"">","null","","","","","","","","","",""
"","image-keyboard-response","237","157598","0.0-237.0","3ZWFC4W1UVTQBPG0VA6ICVD2H09FRJ","A3CSIM8V9IYXM7","32TMVRKDGNK89K6LLIZX5RPIVK148D","","739","img/land6.png","76","740","3","1","3","1","1,0.5,0.5,0.5,1,0.5,0.5,0.5,1","1,0.5,0.5,0.5,1,0.5,0.5,0.5,1","","",""
"","html-keyboard-response","238","157900","0.0-238.0","3ZWFC4W1UVTQBPG0VA6ICVD2H09FRJ","A3CSIM8V9IYXM7","32TMVRKDGNK89K6LLIZX5RPIVK148D","","null","<img src=""img/land6.png"" style=""width:200px; border:14px solid green;"">","null","","","","","","","","","",""
"","image-keyboard-response","239","158553","0.0-239.0","3ZWFC4W1UVTQBPG0VA6ICVD2H09FRJ","A3CSIM8V9IYXM7","32TMVRKDGNK89K6LLIZX5RPIVK148D","","648","img/land5.png","74","654","1","1","2","1","1,0.5,0.5,0.5,1,0.5,0.5,0.5,1","1,0.5,0.5,0.5,1,0.5,0.5,0.5,1","","",""
"","html-keyboard-response","240","158863","0.0-240.0","3ZWFC4W1UVTQBPG0VA6ICVD2H09FRJ","A3CSIM8V9IYXM7","32TMVRKDGNK89K6LLIZX5RPIVK148D","","null","<img src=""img/land5.png"" style=""width:200px; border:14px solid green;"">","null","","","","","","","","","",""
"","image-keyboard-response","241","159598","0.0-241.0","3ZWFC4W1UVTQBPG0VA6ICVD2H09FRJ","A3CSIM8V9IYXM7","32TMVRKDGNK89K6LLIZX5RPIVK148D","","728","img/land4.png","75","729","2","0","1","1","1,0.5,0.5,0.5,1,0.5,0.5,0.5,1","1,0.5,0.5,0.5,1,0.5,0.5,0.5,1","","",""
"","html-keyboard-response","242","159901","0.0-242.0","3ZWFC4W1UVTQBPG0VA6ICVD2H09FRJ","A3CSIM8V9IYXM7","32TMVRKDGNK89K6LLIZX5RPIVK148D","","null","<img src=""img/land4.png"" style=""width:200px;border:14px solid red;"">","null","","","","","","","","","",""
"","image-keyboard-response","243","160574","0.0-243.0","3ZWFC4W1UVTQBPG0VA6ICVD2H09FRJ","A3CSIM8V9IYXM7","32TMVRKDGNK89K6LLIZX5RPIVK148D","","670","img/land6.png","76","671","3","1","3","1","1,0.5,0.5,0.5,1,0.5,0.5,0.5,1","1,0.5,0.5,0.5,1,0.5,0.5,0.5,1","","",""
"","html-keyboard-response","244","160876","0.0-244.0","3ZWFC4W1UVTQBPG0VA6ICVD2H09FRJ","A3CSIM8V9IYXM7","32TMVRKDGNK89K6LLIZX5RPIVK148D","","null","<img src=""img/land6.png"" style=""width:200px; border:14px solid green;"">","null","","","","","","","","","",""
"","image-keyboard-response","245","161374","0.0-245.0","3ZWFC4W1UVTQBPG0VA6ICVD2H09FRJ","A3CSIM8V9IYXM7","32TMVRKDGNK89K6LLIZX5RPIVK148D","","496","img/land6.png","76","498","3","1","3","1","1,0.5,0.5,0.5,1,0.5,0.5,0.5,1","1,0.5,0.5,0.5,1,0.5,0.5,0.5,1","","",""
"","html-keyboard-response","246","161676","0.0-246.0","3ZWFC4W1UVTQBPG0VA6ICVD2H09FRJ","A3CSIM8V9IYXM7","32TMVRKDGNK89K6LLIZX5RPIVK148D","","null","<img src=""img/land6.png"" style=""width:200px; border:14px solid green;"">","null","","","","","","","","","",""
"","image-keyboard-response","247","162701","0.0-247.0","3ZWFC4W1UVTQBPG0VA6ICVD2H09FRJ","A3CSIM8V9IYXM7","32TMVRKDGNK89K6LLIZX5RPIVK148D","","1023","img/land4.png","75","1025","2","0","1","1","1,0.5,0.5,0.5,1,0.5,0.5,0.5,1","1,0.5,0.5,0.5,1,0.5,0.5,0.5,1","","",""
"","html-keyboard-response","248","163018","0.0-248.0","3ZWFC4W1UVTQBPG0VA6ICVD2H09FRJ","A3CSIM8V9IYXM7","32TMVRKDGNK89K6LLIZX5RPIVK148D","","null","<img src=""img/land4.png"" style=""width:200px;border:14px solid red;"">","null","","","","","","","","","",""
"","image-keyboard-response","249","163821","0.0-249.0","3ZWFC4W1UVTQBPG0VA6ICVD2H09FRJ","A3CSIM8V9IYXM7","32TMVRKDGNK89K6LLIZX5RPIVK148D","","800","img/land6.png","76","802","3","1","3","1","1,0.5,0.5,0.5,1,0.5,0.5,0.5,1","1,0.5,0.5,0.5,1,0.5,0.5,0.5,1","","",""
"","html-keyboard-response","250","164125","0.0-250.0","3ZWFC4W1UVTQBPG0VA6ICVD2H09FRJ","A3CSIM8V9IYXM7","32TMVRKDGNK89K6LLIZX5RPIVK148D","","null","<img src=""img/land6.png"" style=""width:200px; border:14px solid green;"">","null","","","","","","","","","",""
"","image-keyboard-response","251","164646","0.0-251.0","3ZWFC4W1UVTQBPG0VA6ICVD2H09FRJ","A3CSIM8V9IYXM7","32TMVRKDGNK89K6LLIZX5RPIVK148D","","519","img/land6.png","76","522","3","1","3","1","1,0.5,0.5,0.5,1,0.5,0.5,0.5,1","1,0.5,0.5,0.5,1,0.5,0.5,0.5,1","","",""
"","html-keyboard-response","252","164951","0.0-252.0","3ZWFC4W1UVTQBPG0VA6ICVD2H09FRJ","A3CSIM8V9IYXM7","32TMVRKDGNK89K6LLIZX5RPIVK148D","","null","<img src=""img/land6.png"" style=""width:200px; border:14px solid green;"">","null","","","","","","","","","",""
"","image-keyboard-response","253","165582","0.0-253.0","3ZWFC4W1UVTQBPG0VA6ICVD2H09FRJ","A3CSIM8V9IYXM7","32TMVRKDGNK89K6LLIZX5RPIVK148D","","629","img/land6.png","76","630","3","1","3","1","1,0.5,0.5,0.5,1,0.5,0.5,0.5,1","1,0.5,0.5,0.5,1,0.5,0.5,0.5,1","","",""
"","html-keyboard-response","254","165923","0.0-254.0","3ZWFC4W1UVTQBPG0VA6ICVD2H09FRJ","A3CSIM8V9IYXM7","32TMVRKDGNK89K6LLIZX5RPIVK148D","","null","<img src=""img/land6.png"" style=""width:200px; border:14px solid green;"">","null","","","","","","","","","",""
"","image-keyboard-response","255","166446","0.0-255.0","3ZWFC4W1UVTQBPG0VA6ICVD2H09FRJ","A3CSIM8V9IYXM7","32TMVRKDGNK89K6LLIZX5RPIVK148D","","521","img/land6.png","76","522","3","1","3","1","1,0.5,0.5,0.5,1,0.5,0.5,0.5,1","1,0.5,0.5,0.5,1,0.5,0.5,0.5,1","","",""
"","html-keyboard-response","256","166749","0.0-256.0","3ZWFC4W1UVTQBPG0VA6ICVD2H09FRJ","A3CSIM8V9IYXM7","32TMVRKDGNK89K6LLIZX5RPIVK148D","","null","<img src=""img/land6.png"" style=""width:200px; border:14px solid green;"">","null","","","","","","","","","",""
"","image-keyboard-response","257","167158","0.0-257.0","3ZWFC4W1UVTQBPG0VA6ICVD2H09FRJ","A3CSIM8V9IYXM7","32TMVRKDGNK89K6LLIZX5RPIVK148D","","406","img/land6.png","76","409","3","1","3","1","1,0.5,0.5,0.5,1,0.5,0.5,0.5,1","1,0.5,0.5,0.5,1,0.5,0.5,0.5,1","","",""
"","html-keyboard-response","258","167461","0.0-258.0","3ZWFC4W1UVTQBPG0VA6ICVD2H09FRJ","A3CSIM8V9IYXM7","32TMVRKDGNK89K6LLIZX5RPIVK148D","","null","<img src=""img/land6.png"" style=""width:200px; border:14px solid green;"">","null","","","","","","","","","",""
"","image-keyboard-response","259","167862","0.0-259.0","3ZWFC4W1UVTQBPG0VA6ICVD2H09FRJ","A3CSIM8V9IYXM7","32TMVRKDGNK89K6LLIZX5RPIVK148D","","399","img/land6.png","76","401","3","1","3","1","1,0.5,0.5,0.5,1,0.5,0.5,0.5,1","1,0.5,0.5,0.5,1,0.5,0.5,0.5,1","","",""
"","html-keyboard-response","260","168166","0.0-260.0","3ZWFC4W1UVTQBPG0VA6ICVD2H09FRJ","A3CSIM8V9IYXM7","32TMVRKDGNK89K6LLIZX5RPIVK148D","","null","<img src=""img/land6.png"" style=""width:200px; border:14px solid green;"">","null","","","","","","","","","",""
"","image-keyboard-response","261","168694","0.0-261.0","3ZWFC4W1UVTQBPG0VA6ICVD2H09FRJ","A3CSIM8V9IYXM7","32TMVRKDGNK89K6LLIZX5RPIVK148D","","525","img/land6.png","76","528","3","1","3","1","1,0.5,0.5,0.5,1,0.5,0.5,0.5,1","1,0.5,0.5,0.5,1,0.5,0.5,0.5,1","","",""
"","html-keyboard-response","262","169017","0.0-262.0","3ZWFC4W1UVTQBPG0VA6ICVD2H09FRJ","A3CSIM8V9IYXM7","32TMVRKDGNK89K6LLIZX5RPIVK148D","","null","<img src=""img/land6.png"" style=""width:200px; border:14px solid green;"">","null","","","","","","","","","",""
"","image-keyboard-response","263","169445","0.0-263.0","3ZWFC4W1UVTQBPG0VA6ICVD2H09FRJ","A3CSIM8V9IYXM7","32TMVRKDGNK89K6LLIZX5RPIVK148D","","426","img/land6.png","76","429","3","1","3","1","1,0.5,0.5,0.5,1,0.5,0.5,0.5,1","1,0.5,0.5,0.5,1,0.5,0.5,0.5,1","","",""
"","html-keyboard-response","264","169748","0.0-264.0","3ZWFC4W1UVTQBPG0VA6ICVD2H09FRJ","A3CSIM8V9IYXM7","32TMVRKDGNK89K6LLIZX5RPIVK148D","","null","<img src=""img/land6.png"" style=""width:200px; border:14px solid green;"">","null","","","","","","","","","",""
"","image-keyboard-response","265","170518","0.0-265.0","3ZWFC4W1UVTQBPG0VA6ICVD2H09FRJ","A3CSIM8V9IYXM7","32TMVRKDGNK89K6LLIZX5RPIVK148D","","766","img/land4.png","74","768","1","1","1","1","1,0.5,0.5,0.5,1,0.5,0.5,0.5,1","1,0.5,0.5,0.5,1,0.5,0.5,0.5,1","","",""
"","html-keyboard-response","266","170821","0.0-266.0","3ZWFC4W1UVTQBPG0VA6ICVD2H09FRJ","A3CSIM8V9IYXM7","32TMVRKDGNK89K6LLIZX5RPIVK148D","","null","<img src=""img/land4.png"" style=""width:200px; border:14px solid green;"">","null","","","","","","","","","",""
"","image-keyboard-response","267","171325","0.0-267.0","3ZWFC4W1UVTQBPG0VA6ICVD2H09FRJ","A3CSIM8V9IYXM7","32TMVRKDGNK89K6LLIZX5RPIVK148D","","502","img/land4.png","74","505","1","1","1","1","1,0.5,0.5,0.5,1,0.5,0.5,0.5,1","1,0.5,0.5,0.5,1,0.5,0.5,0.5,1","","",""
"","html-keyboard-response","268","171628","0.0-268.0","3ZWFC4W1UVTQBPG0VA6ICVD2H09FRJ","A3CSIM8V9IYXM7","32TMVRKDGNK89K6LLIZX5RPIVK148D","","null","<img src=""img/land4.png"" style=""width:200px; border:14px solid green;"">","null","","","","","","","","","",""
"","image-keyboard-response","269","172326","0.0-269.0","3ZWFC4W1UVTQBPG0VA6ICVD2H09FRJ","A3CSIM8V9IYXM7","32TMVRKDGNK89K6LLIZX5RPIVK148D","","695","img/land6.png","76","697","3","1","3","1","1,0.5,0.5,0.5,1,0.5,0.5,0.5,1","1,0.5,0.5,0.5,1,0.5,0.5,0.5,1","","",""
"","html-keyboard-response","270","172628","0.0-270.0","3ZWFC4W1UVTQBPG0VA6ICVD2H09FRJ","A3CSIM8V9IYXM7","32TMVRKDGNK89K6LLIZX5RPIVK148D","","null","<img src=""img/land6.png"" style=""width:200px; border:14px solid green;"">","null","","","","","","","","","",""
"","image-keyboard-response","271","173317","0.0-271.0","3ZWFC4W1UVTQBPG0VA6ICVD2H09FRJ","A3CSIM8V9IYXM7","32TMVRKDGNK89K6LLIZX5RPIVK148D","","688","img/land5.png","74","690","1","1","2","1","1,0.5,0.5,0.5,1,0.5,0.5,0.5,1","1,0.5,0.5,0.5,1,0.5,0.5,0.5,1","","",""
"","html-keyboard-response","272","173621","0.0-272.0","3ZWFC4W1UVTQBPG0VA6ICVD2H09FRJ","A3CSIM8V9IYXM7","32TMVRKDGNK89K6LLIZX5RPIVK148D","","null","<img src=""img/land5.png"" style=""width:200px; border:14px solid green;"">","null","","","","","","","","","",""
"","image-keyboard-response","273","174533","0.0-273.0","3ZWFC4W1UVTQBPG0VA6ICVD2H09FRJ","A3CSIM8V9IYXM7","32TMVRKDGNK89K6LLIZX5RPIVK148D","","910","img/land6.png","76","912","3","1","3","1","1,0.5,0.5,0.5,1,0.5,0.5,0.5,1","1,0.5,0.5,0.5,1,0.5,0.5,0.5,1","","",""
"","html-keyboard-response","274","174841","0.0-274.0","3ZWFC4W1UVTQBPG0VA6ICVD2H09FRJ","A3CSIM8V9IYXM7","32TMVRKDGNK89K6LLIZX5RPIVK148D","","null","<img src=""img/land6.png"" style=""width:200px; border:14px solid green;"">","null","","","","","","","","","",""
"","image-keyboard-response","275","175397","0.0-275.0","3ZWFC4W1UVTQBPG0VA6ICVD2H09FRJ","A3CSIM8V9IYXM7","32TMVRKDGNK89K6LLIZX5RPIVK148D","","553","img/land5.png","74","556","1","1","2","1","1,0.5,0.5,0.5,1,0.5,0.5,0.5,1","1,0.5,0.5,0.5,1,0.5,0.5,0.5,1","","",""
"","html-keyboard-response","276","175700","0.0-276.0","3ZWFC4W1UVTQBPG0VA6ICVD2H09FRJ","A3CSIM8V9IYXM7","32TMVRKDGNK89K6LLIZX5RPIVK148D","","null","<img src=""img/land5.png"" style=""width:200px; border:14px solid green;"">","null","","","","","","","","","",""
"","image-keyboard-response","277","176559","0.0-277.0","3ZWFC4W1UVTQBPG0VA6ICVD2H09FRJ","A3CSIM8V9IYXM7","32TMVRKDGNK89K6LLIZX5RPIVK148D","","856","img/land4.png","74","859","1","1","1","1","1,0.5,0.5,0.5,1,0.5,0.5,0.5,1","1,0.5,0.5,0.5,1,0.5,0.5,0.5,1","","",""
"","html-keyboard-response","278","176952","0.0-278.0","3ZWFC4W1UVTQBPG0VA6ICVD2H09FRJ","A3CSIM8V9IYXM7","32TMVRKDGNK89K6LLIZX5RPIVK148D","","null","<img src=""img/land4.png"" style=""width:200px; border:14px solid green;"">","null","","","","","","","","","",""
"","image-keyboard-response","279","177813","0.0-279.0","3ZWFC4W1UVTQBPG0VA6ICVD2H09FRJ","A3CSIM8V9IYXM7","32TMVRKDGNK89K6LLIZX5RPIVK148D","","859","img/land5.png","74","862","1","0","2","1","1,0.5,0.5,0.5,1,0.5,0.5,0.5,1","1,0.5,0.5,0.5,1,0.5,0.5,0.5,1","","",""
"","html-keyboard-response","280","178123","0.0-280.0","3ZWFC4W1UVTQBPG0VA6ICVD2H09FRJ","A3CSIM8V9IYXM7","32TMVRKDGNK89K6LLIZX5RPIVK148D","","null","<img src=""img/land5.png"" style=""width:200px;border:14px solid red;"">","null","","","","","","","","","",""
"","image-keyboard-response","281","178846","0.0-281.0","3ZWFC4W1UVTQBPG0VA6ICVD2H09FRJ","A3CSIM8V9IYXM7","32TMVRKDGNK89K6LLIZX5RPIVK148D","","721","img/land6.png","76","722","3","1","3","1","1,0.5,0.5,0.5,1,0.5,0.5,0.5,1","1,0.5,0.5,0.5,1,0.5,0.5,0.5,1","","",""
"","html-keyboard-response","282","179148","0.0-282.0","3ZWFC4W1UVTQBPG0VA6ICVD2H09FRJ","A3CSIM8V9IYXM7","32TMVRKDGNK89K6LLIZX5RPIVK148D","","null","<img src=""img/land6.png"" style=""width:200px; border:14px solid green;"">","null","","","","","","","","","",""
"","image-keyboard-response","283","179718","0.0-283.0","3ZWFC4W1UVTQBPG0VA6ICVD2H09FRJ","A3CSIM8V9IYXM7","32TMVRKDGNK89K6LLIZX5RPIVK148D","","568","img/land6.png","76","570","3","1","3","1","1,0.5,0.5,0.5,1,0.5,0.5,0.5,1","1,0.5,0.5,0.5,1,0.5,0.5,0.5,1","","",""
"","html-keyboard-response","284","180021","0.0-284.0","3ZWFC4W1UVTQBPG0VA6ICVD2H09FRJ","A3CSIM8V9IYXM7","32TMVRKDGNK89K6LLIZX5RPIVK148D","","null","<img src=""img/land6.png"" style=""width:200px; border:14px solid green;"">","null","","","","","","","","","",""
"","image-keyboard-response","285","180574","0.0-285.0","3ZWFC4W1UVTQBPG0VA6ICVD2H09FRJ","A3CSIM8V9IYXM7","32TMVRKDGNK89K6LLIZX5RPIVK148D","","551","img/land6.png","76","552","3","1","3","1","1,0.5,0.5,0.5,1,0.5,0.5,0.5,1","1,0.5,0.5,0.5,1,0.5,0.5,0.5,1","","",""
"","html-keyboard-response","286","180880","0.0-286.0","3ZWFC4W1UVTQBPG0VA6ICVD2H09FRJ","A3CSIM8V9IYXM7","32TMVRKDGNK89K6LLIZX5RPIVK148D","","null","<img src=""img/land6.png"" style=""width:200px; border:14px solid green;"">","null","","","","","","","","","",""
"","image-keyboard-response","287","181326","0.0-287.0","3ZWFC4W1UVTQBPG0VA6ICVD2H09FRJ","A3CSIM8V9IYXM7","32TMVRKDGNK89K6LLIZX5RPIVK148D","","443","img/land6.png","76","446","3","1","3","1","1,0.5,0.5,0.5,1,0.5,0.5,0.5,1","1,0.5,0.5,0.5,1,0.5,0.5,0.5,1","","",""
"","html-keyboard-response","288","181628","0.0-288.0","3ZWFC4W1UVTQBPG0VA6ICVD2H09FRJ","A3CSIM8V9IYXM7","32TMVRKDGNK89K6LLIZX5RPIVK148D","","null","<img src=""img/land6.png"" style=""width:200px; border:14px solid green;"">","null","","","","","","","","","",""
"","image-keyboard-response","289","182054","0.0-289.0","3ZWFC4W1UVTQBPG0VA6ICVD2H09FRJ","A3CSIM8V9IYXM7","32TMVRKDGNK89K6LLIZX5RPIVK148D","","424","img/land6.png","76","425","3","1","3","1","1,0.5,0.5,0.5,1,0.5,0.5,0.5,1","1,0.5,0.5,0.5,1,0.5,0.5,0.5,1","","",""
"","html-keyboard-response","290","182357","0.0-290.0","3ZWFC4W1UVTQBPG0VA6ICVD2H09FRJ","A3CSIM8V9IYXM7","32TMVRKDGNK89K6LLIZX5RPIVK148D","","null","<img src=""img/land6.png"" style=""width:200px; border:14px solid green;"">","null","","","","","","","","","",""
"","image-keyboard-response","291","182870","0.0-291.0","3ZWFC4W1UVTQBPG0VA6ICVD2H09FRJ","A3CSIM8V9IYXM7","32TMVRKDGNK89K6LLIZX5RPIVK148D","","510","img/land6.png","76","514","3","1","3","1","1,0.5,0.5,0.5,1,0.5,0.5,0.5,1","1,0.5,0.5,0.5,1,0.5,0.5,0.5,1","","",""
"","html-keyboard-response","292","183172","0.0-292.0","3ZWFC4W1UVTQBPG0VA6ICVD2H09FRJ","A3CSIM8V9IYXM7","32TMVRKDGNK89K6LLIZX5RPIVK148D","","null","<img src=""img/land6.png"" style=""width:200px; border:14px solid green;"">","null","","","","","","","","","",""
"","image-keyboard-response","293","184222","0.0-293.0","3ZWFC4W1UVTQBPG0VA6ICVD2H09FRJ","A3CSIM8V9IYXM7","32TMVRKDGNK89K6LLIZX5RPIVK148D","","1047","img/land5.png","75","1049","2","1","2","1","1,0.5,0.5,0.5,1,0.5,0.5,0.5,1","1,0.5,0.5,0.5,1,0.5,0.5,0.5,1","","",""
"","html-keyboard-response","294","184524","0.0-294.0","3ZWFC4W1UVTQBPG0VA6ICVD2H09FRJ","A3CSIM8V9IYXM7","32TMVRKDGNK89K6LLIZX5RPIVK148D","","null","<img src=""img/land5.png"" style=""width:200px; border:14px solid green;"">","null","","","","","","","","","",""
"","image-keyboard-response","295","185286","0.0-295.0","3ZWFC4W1UVTQBPG0VA6ICVD2H09FRJ","A3CSIM8V9IYXM7","32TMVRKDGNK89K6LLIZX5RPIVK148D","","759","img/land6.png","76","761","3","1","3","1","1,0.5,0.5,0.5,1,0.5,0.5,0.5,1","1,0.5,0.5,0.5,1,0.5,0.5,0.5,1","","",""
"","html-keyboard-response","296","185589","0.0-296.0","3ZWFC4W1UVTQBPG0VA6ICVD2H09FRJ","A3CSIM8V9IYXM7","32TMVRKDGNK89K6LLIZX5RPIVK148D","","null","<img src=""img/land6.png"" style=""width:200px; border:14px solid green;"">","null","","","","","","","","","",""
"","image-keyboard-response","297","186046","0.0-297.0","3ZWFC4W1UVTQBPG0VA6ICVD2H09FRJ","A3CSIM8V9IYXM7","32TMVRKDGNK89K6LLIZX5RPIVK148D","","454","img/land6.png","76","458","3","1","3","1","1,0.5,0.5,0.5,1,0.5,0.5,0.5,1","1,0.5,0.5,0.5,1,0.5,0.5,0.5,1","","",""
"","html-keyboard-response","298","186349","0.0-298.0","3ZWFC4W1UVTQBPG0VA6ICVD2H09FRJ","A3CSIM8V9IYXM7","32TMVRKDGNK89K6LLIZX5RPIVK148D","","null","<img src=""img/land6.png"" style=""width:200px; border:14px solid green;"">","null","","","","","","","","","",""
"","image-keyboard-response","299","186766","0.0-299.0","3ZWFC4W1UVTQBPG0VA6ICVD2H09FRJ","A3CSIM8V9IYXM7","32TMVRKDGNK89K6LLIZX5RPIVK148D","","415","img/land6.png","76","417","3","1","3","1","1,0.5,0.5,0.5,1,0.5,0.5,0.5,1","1,0.5,0.5,0.5,1,0.5,0.5,0.5,1","","",""
"","html-keyboard-response","300","187069","0.0-300.0","3ZWFC4W1UVTQBPG0VA6ICVD2H09FRJ","A3CSIM8V9IYXM7","32TMVRKDGNK89K6LLIZX5RPIVK148D","","null","<img src=""img/land6.png"" style=""width:200px; border:14px solid green;"">","null","","","","","","","","","",""
"","image-keyboard-response","301","187470","0.0-301.0","3ZWFC4W1UVTQBPG0VA6ICVD2H09FRJ","A3CSIM8V9IYXM7","32TMVRKDGNK89K6LLIZX5RPIVK148D","","396","img/land6.png","76","400","3","1","3","1","1,0.5,0.5,0.5,1,0.5,0.5,0.5,1","1,0.5,0.5,0.5,1,0.5,0.5,0.5,1","","",""
"","html-keyboard-response","302","187773","0.0-302.0","3ZWFC4W1UVTQBPG0VA6ICVD2H09FRJ","A3CSIM8V9IYXM7","32TMVRKDGNK89K6LLIZX5RPIVK148D","","null","<img src=""img/land6.png"" style=""width:200px; border:14px solid green;"">","null","","","","","","","","","",""
"","image-keyboard-response","303","188518","0.0-303.0","3ZWFC4W1UVTQBPG0VA6ICVD2H09FRJ","A3CSIM8V9IYXM7","32TMVRKDGNK89K6LLIZX5RPIVK148D","","742","img/land5.png","75","745","2","1","2","1","1,0.5,0.5,0.5,1,0.5,0.5,0.5,1","1,0.5,0.5,0.5,1,0.5,0.5,0.5,1","","",""
"","html-keyboard-response","304","188820","0.0-304.0","3ZWFC4W1UVTQBPG0VA6ICVD2H09FRJ","A3CSIM8V9IYXM7","32TMVRKDGNK89K6LLIZX5RPIVK148D","","null","<img src=""img/land5.png"" style=""width:200px; border:14px solid green;"">","null","","","","","","","","","",""
"","image-keyboard-response","305","189605","0.0-305.0","3ZWFC4W1UVTQBPG0VA6ICVD2H09FRJ","A3CSIM8V9IYXM7","32TMVRKDGNK89K6LLIZX5RPIVK148D","","782","img/land6.png","76","784","3","1","3","1","1,0.5,0.5,0.5,1,0.5,0.5,0.5,1","1,0.5,0.5,0.5,1,0.5,0.5,0.5,1","","",""
"","html-keyboard-response","306","189932","0.0-306.0","3ZWFC4W1UVTQBPG0VA6ICVD2H09FRJ","A3CSIM8V9IYXM7","32TMVRKDGNK89K6LLIZX5RPIVK148D","","null","<img src=""img/land6.png"" style=""width:200px; border:14px solid green;"">","null","","","","","","","","","",""
"","image-keyboard-response","307","190686","0.0-307.0","3ZWFC4W1UVTQBPG0VA6ICVD2H09FRJ","A3CSIM8V9IYXM7","32TMVRKDGNK89K6LLIZX5RPIVK148D","","751","img/land4.png","74","753","1","1","1","1","1,0.5,0.5,0.5,1,0.5,0.5,0.5,1","1,0.5,0.5,0.5,1,0.5,0.5,0.5,1","","",""
"","html-keyboard-response","308","190989","0.0-308.0","3ZWFC4W1UVTQBPG0VA6ICVD2H09FRJ","A3CSIM8V9IYXM7","32TMVRKDGNK89K6LLIZX5RPIVK148D","","null","<img src=""img/land4.png"" style=""width:200px; border:14px solid green;"">","null","","","","","","","","","",""
"","image-keyboard-response","309","191462","0.0-309.0","3ZWFC4W1UVTQBPG0VA6ICVD2H09FRJ","A3CSIM8V9IYXM7","32TMVRKDGNK89K6LLIZX5RPIVK148D","","471","img/land4.png","74","473","1","1","1","1","1,0.5,0.5,0.5,1,0.5,0.5,0.5,1","1,0.5,0.5,0.5,1,0.5,0.5,0.5,1","","",""
"","html-keyboard-response","310","191764","0.0-310.0","3ZWFC4W1UVTQBPG0VA6ICVD2H09FRJ","A3CSIM8V9IYXM7","32TMVRKDGNK89K6LLIZX5RPIVK148D","","null","<img src=""img/land4.png"" style=""width:200px; border:14px solid green;"">","null","","","","","","","","","",""
"","image-keyboard-response","311","192494","0.0-311.0","3ZWFC4W1UVTQBPG0VA6ICVD2H09FRJ","A3CSIM8V9IYXM7","32TMVRKDGNK89K6LLIZX5RPIVK148D","","727","img/land6.png","75","730","2","0","3","1","1,0.5,0.5,0.5,1,0.5,0.5,0.5,1","1,0.5,0.5,0.5,1,0.5,0.5,0.5,1","","",""
"","html-keyboard-response","312","192796","0.0-312.0","3ZWFC4W1UVTQBPG0VA6ICVD2H09FRJ","A3CSIM8V9IYXM7","32TMVRKDGNK89K6LLIZX5RPIVK148D","","null","<img src=""img/land6.png"" style=""width:200px;border:14px solid red;"">","null","","","","","","","","","",""
"","image-keyboard-response","313","193238","0.0-313.0","3ZWFC4W1UVTQBPG0VA6ICVD2H09FRJ","A3CSIM8V9IYXM7","32TMVRKDGNK89K6LLIZX5RPIVK148D","","439","img/land5.png","76","441","3","0","2","1","1,0.5,0.5,0.5,1,0.5,0.5,0.5,1","1,0.5,0.5,0.5,1,0.5,0.5,0.5,1","","",""
"","html-keyboard-response","314","193541","0.0-314.0","3ZWFC4W1UVTQBPG0VA6ICVD2H09FRJ","A3CSIM8V9IYXM7","32TMVRKDGNK89K6LLIZX5RPIVK148D","","null","<img src=""img/land5.png"" style=""width:200px;border:14px solid red;"">","null","","","","","","","","","",""
"","image-keyboard-response","315","194646","0.0-315.0","3ZWFC4W1UVTQBPG0VA6ICVD2H09FRJ","A3CSIM8V9IYXM7","32TMVRKDGNK89K6LLIZX5RPIVK148D","","1103","img/land6.png","76","1105","3","1","3","1","1,0.5,0.5,0.5,1,0.5,0.5,0.5,1","1,0.5,0.5,0.5,1,0.5,0.5,0.5,1","","",""
"","html-keyboard-response","316","194948","0.0-316.0","3ZWFC4W1UVTQBPG0VA6ICVD2H09FRJ","A3CSIM8V9IYXM7","32TMVRKDGNK89K6LLIZX5RPIVK148D","","null","<img src=""img/land6.png"" style=""width:200px; border:14px solid green;"">","null","","","","","","","","","",""
"","image-keyboard-response","317","195350","0.0-317.0","3ZWFC4W1UVTQBPG0VA6ICVD2H09FRJ","A3CSIM8V9IYXM7","32TMVRKDGNK89K6LLIZX5RPIVK148D","","399","img/land6.png","76","400","3","1","3","1","1,0.5,0.5,0.5,1,0.5,0.5,0.5,1","1,0.5,0.5,0.5,1,0.5,0.5,0.5,1","","",""
"","html-keyboard-response","318","195652","0.0-318.0","3ZWFC4W1UVTQBPG0VA6ICVD2H09FRJ","A3CSIM8V9IYXM7","32TMVRKDGNK89K6LLIZX5RPIVK148D","","null","<img src=""img/land6.png"" style=""width:200px; border:14px solid green;"">","null","","","","","","","","","",""
"","image-keyboard-response","319","196430","0.0-319.0","3ZWFC4W1UVTQBPG0VA6ICVD2H09FRJ","A3CSIM8V9IYXM7","32TMVRKDGNK89K6LLIZX5RPIVK148D","","775","img/land4.png","74","777","1","1","1","1","1,0.5,0.5,0.5,1,0.5,0.5,0.5,1","1,0.5,0.5,0.5,1,0.5,0.5,0.5,1","","",""
"","html-keyboard-response","320","196732","0.0-320.0","3ZWFC4W1UVTQBPG0VA6ICVD2H09FRJ","A3CSIM8V9IYXM7","32TMVRKDGNK89K6LLIZX5RPIVK148D","","null","<img src=""img/land4.png"" style=""width:200px; border:14px solid green;"">","null","","","","","","","","","",""
"","image-keyboard-response","321","197559","0.0-321.0","3ZWFC4W1UVTQBPG0VA6ICVD2H09FRJ","A3CSIM8V9IYXM7","32TMVRKDGNK89K6LLIZX5RPIVK148D","","823","img/land6.png","76","827","3","1","3","1","1,0.5,0.5,0.5,1,0.5,0.5,0.5,1","1,0.5,0.5,0.5,1,0.5,0.5,0.5,1","","",""
"","html-keyboard-response","322","197861","0.0-322.0","3ZWFC4W1UVTQBPG0VA6ICVD2H09FRJ","A3CSIM8V9IYXM7","32TMVRKDGNK89K6LLIZX5RPIVK148D","","null","<img src=""img/land6.png"" style=""width:200px; border:14px solid green;"">","null","","","","","","","","","",""
"","image-keyboard-response","323","198302","0.0-323.0","3ZWFC4W1UVTQBPG0VA6ICVD2H09FRJ","A3CSIM8V9IYXM7","32TMVRKDGNK89K6LLIZX5RPIVK148D","","438","img/land6.png","76","439","3","1","3","1","1,0.5,0.5,0.5,1,0.5,0.5,0.5,1","1,0.5,0.5,0.5,1,0.5,0.5,0.5,1","","",""
"","html-keyboard-response","324","198604","0.0-324.0","3ZWFC4W1UVTQBPG0VA6ICVD2H09FRJ","A3CSIM8V9IYXM7","32TMVRKDGNK89K6LLIZX5RPIVK148D","","null","<img src=""img/land6.png"" style=""width:200px; border:14px solid green;"">","null","","","","","","","","","",""
"","image-keyboard-response","325","198998","0.0-325.0","3ZWFC4W1UVTQBPG0VA6ICVD2H09FRJ","A3CSIM8V9IYXM7","32TMVRKDGNK89K6LLIZX5RPIVK148D","","391","img/land6.png","76","393","3","1","3","1","1,0.5,0.5,0.5,1,0.5,0.5,0.5,1","1,0.5,0.5,0.5,1,0.5,0.5,0.5,1","","",""
"","html-keyboard-response","326","199300","0.0-326.0","3ZWFC4W1UVTQBPG0VA6ICVD2H09FRJ","A3CSIM8V9IYXM7","32TMVRKDGNK89K6LLIZX5RPIVK148D","","null","<img src=""img/land6.png"" style=""width:200px; border:14px solid green;"">","null","","","","","","","","","",""
"","image-keyboard-response","327","200118","0.0-327.0","3ZWFC4W1UVTQBPG0VA6ICVD2H09FRJ","A3CSIM8V9IYXM7","32TMVRKDGNK89K6LLIZX5RPIVK148D","","814","img/land4.png","74","817","1","1","1","1","1,0.5,0.5,0.5,1,0.5,0.5,0.5,1","1,0.5,0.5,0.5,1,0.5,0.5,0.5,1","","",""
"","html-keyboard-response","328","200420","0.0-328.0","3ZWFC4W1UVTQBPG0VA6ICVD2H09FRJ","A3CSIM8V9IYXM7","32TMVRKDGNK89K6LLIZX5RPIVK148D","","null","<img src=""img/land4.png"" style=""width:200px; border:14px solid green;"">","null","","","","","","","","","",""
"","image-keyboard-response","329","201253","0.0-329.0","3ZWFC4W1UVTQBPG0VA6ICVD2H09FRJ","A3CSIM8V9IYXM7","32TMVRKDGNK89K6LLIZX5RPIVK148D","","832","img/land6.png","76","833","3","1","3","1","1,0.5,0.5,0.5,1,0.5,0.5,0.5,1","1,0.5,0.5,0.5,1,0.5,0.5,0.5,1","","",""
"","html-keyboard-response","330","201565","0.0-330.0","3ZWFC4W1UVTQBPG0VA6ICVD2H09FRJ","A3CSIM8V9IYXM7","32TMVRKDGNK89K6LLIZX5RPIVK148D","","null","<img src=""img/land6.png"" style=""width:200px; border:14px solid green;"">","null","","","","","","","","","",""
"","image-keyboard-response","331","201765","0.0-331.0","3ZWFC4W1UVTQBPG0VA6ICVD2H09FRJ","A3CSIM8V9IYXM7","32TMVRKDGNK89K6LLIZX5RPIVK148D","","198","img/land6.png","76","199","3","1","3","1","1,0.5,0.5,0.5,1,0.5,0.5,0.5,1","1,0.5,0.5,0.5,1,0.5,0.5,0.5,1","","",""
"","html-keyboard-response","332","202098","0.0-332.0","3ZWFC4W1UVTQBPG0VA6ICVD2H09FRJ","A3CSIM8V9IYXM7","32TMVRKDGNK89K6LLIZX5RPIVK148D","","null","<img src=""img/land6.png"" style=""width:200px; border:14px solid green;"">","null","","","","","","","","","",""
"","image-keyboard-response","333","202861","0.0-333.0","3ZWFC4W1UVTQBPG0VA6ICVD2H09FRJ","A3CSIM8V9IYXM7","32TMVRKDGNK89K6LLIZX5RPIVK148D","","762","img/land4.png","74","764","1","1","1","1","1,0.5,0.5,0.5,1,0.5,0.5,0.5,1","1,0.5,0.5,0.5,1,0.5,0.5,0.5,1","","",""
"","html-keyboard-response","334","203166","0.0-334.0","3ZWFC4W1UVTQBPG0VA6ICVD2H09FRJ","A3CSIM8V9IYXM7","32TMVRKDGNK89K6LLIZX5RPIVK148D","","null","<img src=""img/land4.png"" style=""width:200px; border:14px solid green;"">","null","","","","","","","","","",""
"","image-keyboard-response","335","203845","0.0-335.0","3ZWFC4W1UVTQBPG0VA6ICVD2H09FRJ","A3CSIM8V9IYXM7","32TMVRKDGNK89K6LLIZX5RPIVK148D","","677","img/land6.png","76","680","3","1","3","1","1,0.5,0.5,0.5,1,0.5,0.5,0.5,1","1,0.5,0.5,0.5,1,0.5,0.5,0.5,1","","",""
"","html-keyboard-response","336","204149","0.0-336.0","3ZWFC4W1UVTQBPG0VA6ICVD2H09FRJ","A3CSIM8V9IYXM7","32TMVRKDGNK89K6LLIZX5RPIVK148D","","null","<img src=""img/land6.png"" style=""width:200px; border:14px solid green;"">","null","","","","","","","","","",""
"","image-keyboard-response","337","204922","0.0-337.0","3ZWFC4W1UVTQBPG0VA6ICVD2H09FRJ","A3CSIM8V9IYXM7","32TMVRKDGNK89K6LLIZX5RPIVK148D","","771","img/land5.png","75","772","2","1","2","1","1,0.5,0.5,0.5,1,0.5,0.5,0.5,1","1,0.5,0.5,0.5,1,0.5,0.5,0.5,1","","",""
"","html-keyboard-response","338","205228","0.0-338.0","3ZWFC4W1UVTQBPG0VA6ICVD2H09FRJ","A3CSIM8V9IYXM7","32TMVRKDGNK89K6LLIZX5RPIVK148D","","null","<img src=""img/land5.png"" style=""width:200px; border:14px solid green;"">","null","","","","","","","","","",""
"","image-keyboard-response","339","205838","0.0-339.0","3ZWFC4W1UVTQBPG0VA6ICVD2H09FRJ","A3CSIM8V9IYXM7","32TMVRKDGNK89K6LLIZX5RPIVK148D","","607","img/land6.png","76","609","3","1","3","1","1,0.5,0.5,0.5,1,0.5,0.5,0.5,1","1,0.5,0.5,0.5,1,0.5,0.5,0.5,1","","",""
"","html-keyboard-response","340","206141","0.0-340.0","3ZWFC4W1UVTQBPG0VA6ICVD2H09FRJ","A3CSIM8V9IYXM7","32TMVRKDGNK89K6LLIZX5RPIVK148D","","null","<img src=""img/land6.png"" style=""width:200px; border:14px solid green;"">","null","","","","","","","","","",""
"","image-keyboard-response","341","206702","0.0-341.0","3ZWFC4W1UVTQBPG0VA6ICVD2H09FRJ","A3CSIM8V9IYXM7","32TMVRKDGNK89K6LLIZX5RPIVK148D","","558","img/land6.png","76","560","3","1","3","1","1,0.5,0.5,0.5,1,0.5,0.5,0.5,1","1,0.5,0.5,0.5,1,0.5,0.5,0.5,1","","",""
"","html-keyboard-response","342","207004","0.0-342.0","3ZWFC4W1UVTQBPG0VA6ICVD2H09FRJ","A3CSIM8V9IYXM7","32TMVRKDGNK89K6LLIZX5RPIVK148D","","null","<img src=""img/land6.png"" style=""width:200px; border:14px solid green;"">","null","","","","","","","","","",""
"","image-keyboard-response","343","207677","0.0-343.0","3ZWFC4W1UVTQBPG0VA6ICVD2H09FRJ","A3CSIM8V9IYXM7","32TMVRKDGNK89K6LLIZX5RPIVK148D","","671","img/land5.png","75","672","2","1","2","1","1,0.5,0.5,0.5,1,0.5,0.5,0.5,1","1,0.5,0.5,0.5,1,0.5,0.5,0.5,1","","",""
"","html-keyboard-response","344","208038","0.0-344.0","3ZWFC4W1UVTQBPG0VA6ICVD2H09FRJ","A3CSIM8V9IYXM7","32TMVRKDGNK89K6LLIZX5RPIVK148D","","null","<img src=""img/land5.png"" style=""width:200px; border:14px solid green;"">","null","","","","","","","","","",""
"","image-keyboard-response","345","208606","0.0-345.0","3ZWFC4W1UVTQBPG0VA6ICVD2H09FRJ","A3CSIM8V9IYXM7","32TMVRKDGNK89K6LLIZX5RPIVK148D","","565","img/land5.png","75","567","2","1","2","1","1,0.5,0.5,0.5,1,0.5,0.5,0.5,1","1,0.5,0.5,0.5,1,0.5,0.5,0.5,1","","",""
"","html-keyboard-response","346","208907","0.0-346.0","3ZWFC4W1UVTQBPG0VA6ICVD2H09FRJ","A3CSIM8V9IYXM7","32TMVRKDGNK89K6LLIZX5RPIVK148D","","null","<img src=""img/land5.png"" style=""width:200px; border:14px solid green;"">","null","","","","","","","","","",""
"","image-keyboard-response","347","209413","0.0-347.0","3ZWFC4W1UVTQBPG0VA6ICVD2H09FRJ","A3CSIM8V9IYXM7","32TMVRKDGNK89K6LLIZX5RPIVK148D","","504","img/land5.png","75","505","2","1","2","1","1,0.5,0.5,0.5,1,0.5,0.5,0.5,1","1,0.5,0.5,0.5,1,0.5,0.5,0.5,1","","",""
"","html-keyboard-response","348","209717","0.0-348.0","3ZWFC4W1UVTQBPG0VA6ICVD2H09FRJ","A3CSIM8V9IYXM7","32TMVRKDGNK89K6LLIZX5RPIVK148D","","null","<img src=""img/land5.png"" style=""width:200px; border:14px solid green;"">","null","","","","","","","","","",""
"","image-keyboard-response","349","210373","0.0-349.0","3ZWFC4W1UVTQBPG0VA6ICVD2H09FRJ","A3CSIM8V9IYXM7","32TMVRKDGNK89K6LLIZX5RPIVK148D","","655","img/land6.png","76","657","3","1","3","1","1,0.5,0.5,0.5,1,0.5,0.5,0.5,1","1,0.5,0.5,0.5,1,0.5,0.5,0.5,1","","",""
"","html-keyboard-response","350","210676","0.0-350.0","3ZWFC4W1UVTQBPG0VA6ICVD2H09FRJ","A3CSIM8V9IYXM7","32TMVRKDGNK89K6LLIZX5RPIVK148D","","null","<img src=""img/land6.png"" style=""width:200px; border:14px solid green;"">","null","","","","","","","","","",""
"","image-keyboard-response","351","211902","0.0-351.0","3ZWFC4W1UVTQBPG0VA6ICVD2H09FRJ","A3CSIM8V9IYXM7","32TMVRKDGNK89K6LLIZX5RPIVK148D","","1223","img/land5.png","76","1226","3","0","2","1","1,0.5,0.5,0.5,1,0.5,0.5,0.5,1","1,0.5,0.5,0.5,1,0.5,0.5,0.5,1","","",""
"","html-keyboard-response","352","212205","0.0-352.0","3ZWFC4W1UVTQBPG0VA6ICVD2H09FRJ","A3CSIM8V9IYXM7","32TMVRKDGNK89K6LLIZX5RPIVK148D","","null","<img src=""img/land5.png"" style=""width:200px;border:14px solid red;"">","null","","","","","","","","","",""
"","image-keyboard-response","353","212790","0.0-353.0","3ZWFC4W1UVTQBPG0VA6ICVD2H09FRJ","A3CSIM8V9IYXM7","32TMVRKDGNK89K6LLIZX5RPIVK148D","","583","img/land6.png","76","584","3","1","3","1","1,0.5,0.5,0.5,1,0.5,0.5,0.5,1","1,0.5,0.5,0.5,1,0.5,0.5,0.5,1","","",""
"","html-keyboard-response","354","213093","0.0-354.0","3ZWFC4W1UVTQBPG0VA6ICVD2H09FRJ","A3CSIM8V9IYXM7","32TMVRKDGNK89K6LLIZX5RPIVK148D","","null","<img src=""img/land6.png"" style=""width:200px; border:14px solid green;"">","null","","","","","","","","","",""
"","image-keyboard-response","355","214003","0.0-355.0","3ZWFC4W1UVTQBPG0VA6ICVD2H09FRJ","A3CSIM8V9IYXM7","32TMVRKDGNK89K6LLIZX5RPIVK148D","","908","img/land4.png","74","910","1","1","1","1","1,0.5,0.5,0.5,1,0.5,0.5,0.5,1","1,0.5,0.5,0.5,1,0.5,0.5,0.5,1","","",""
"","html-keyboard-response","356","214329","0.0-356.0","3ZWFC4W1UVTQBPG0VA6ICVD2H09FRJ","A3CSIM8V9IYXM7","32TMVRKDGNK89K6LLIZX5RPIVK148D","","null","<img src=""img/land4.png"" style=""width:200px; border:14px solid green;"">","null","","","","","","","","","",""
"","image-keyboard-response","357","214773","0.0-357.0","3ZWFC4W1UVTQBPG0VA6ICVD2H09FRJ","A3CSIM8V9IYXM7","32TMVRKDGNK89K6LLIZX5RPIVK148D","","442","img/land4.png","74","444","1","1","1","1","1,0.5,0.5,0.5,1,0.5,0.5,0.5,1","1,0.5,0.5,0.5,1,0.5,0.5,0.5,1","","",""
"","html-keyboard-response","358","215076","0.0-358.0","3ZWFC4W1UVTQBPG0VA6ICVD2H09FRJ","A3CSIM8V9IYXM7","32TMVRKDGNK89K6LLIZX5RPIVK148D","","null","<img src=""img/land4.png"" style=""width:200px; border:14px solid green;"">","null","","","","","","","","","",""
"","image-keyboard-response","359","215973","0.0-359.0","3ZWFC4W1UVTQBPG0VA6ICVD2H09FRJ","A3CSIM8V9IYXM7","32TMVRKDGNK89K6LLIZX5RPIVK148D","","895","img/land6.png","76","898","3","1","3","1","1,0.5,0.5,0.5,1,0.5,0.5,0.5,1","1,0.5,0.5,0.5,1,0.5,0.5,0.5,1","","",""
"","html-keyboard-response","360","216276","0.0-360.0","3ZWFC4W1UVTQBPG0VA6ICVD2H09FRJ","A3CSIM8V9IYXM7","32TMVRKDGNK89K6LLIZX5RPIVK148D","","null","<img src=""img/land6.png"" style=""width:200px; border:14px solid green;"">","null","","","","","","","","","",""
"","image-keyboard-response","361","216661","0.0-361.0","3ZWFC4W1UVTQBPG0VA6ICVD2H09FRJ","A3CSIM8V9IYXM7","32TMVRKDGNK89K6LLIZX5RPIVK148D","","383","img/land6.png","76","385","3","1","3","1","1,0.5,0.5,0.5,1,0.5,0.5,0.5,1","1,0.5,0.5,0.5,1,0.5,0.5,0.5,1","","",""
"","html-keyboard-response","362","216972","0.0-362.0","3ZWFC4W1UVTQBPG0VA6ICVD2H09FRJ","A3CSIM8V9IYXM7","32TMVRKDGNK89K6LLIZX5RPIVK148D","","null","<img src=""img/land6.png"" style=""width:200px; border:14px solid green;"">","null","","","","","","","","","",""
"","image-keyboard-response","363","217246","0.0-363.0","3ZWFC4W1UVTQBPG0VA6ICVD2H09FRJ","A3CSIM8V9IYXM7","32TMVRKDGNK89K6LLIZX5RPIVK148D","","271","img/land6.png","76","275","3","1","3","1","1,0.5,0.5,0.5,1,0.5,0.5,0.5,1","1,0.5,0.5,0.5,1,0.5,0.5,0.5,1","","",""
"","html-keyboard-response","364","217582","0.0-364.0","3ZWFC4W1UVTQBPG0VA6ICVD2H09FRJ","A3CSIM8V9IYXM7","32TMVRKDGNK89K6LLIZX5RPIVK148D","","null","<img src=""img/land6.png"" style=""width:200px; border:14px solid green;"">","null","","","","","","","","","",""
"","image-keyboard-response","365","218327","0.0-365.0","3ZWFC4W1UVTQBPG0VA6ICVD2H09FRJ","A3CSIM8V9IYXM7","32TMVRKDGNK89K6LLIZX5RPIVK148D","","741","img/land4.png","74","744","1","1","1","1","1,0.5,0.5,0.5,1,0.5,0.5,0.5,1","1,0.5,0.5,0.5,1,0.5,0.5,0.5,1","","",""
"","html-keyboard-response","366","218631","0.0-366.0","3ZWFC4W1UVTQBPG0VA6ICVD2H09FRJ","A3CSIM8V9IYXM7","32TMVRKDGNK89K6LLIZX5RPIVK148D","","null","<img src=""img/land4.png"" style=""width:200px; border:14px solid green;"">","null","","","","","","","","","",""
"","image-keyboard-response","367","219575","0.0-367.0","3ZWFC4W1UVTQBPG0VA6ICVD2H09FRJ","A3CSIM8V9IYXM7","32TMVRKDGNK89K6LLIZX5RPIVK148D","","933","img/land6.png","76","936","3","1","3","1","1,0.5,0.5,0.5,1,0.5,0.5,0.5,1","1,0.5,0.5,0.5,1,0.5,0.5,0.5,1","","",""
"","html-keyboard-response","368","219897","0.0-368.0","3ZWFC4W1UVTQBPG0VA6ICVD2H09FRJ","A3CSIM8V9IYXM7","32TMVRKDGNK89K6LLIZX5RPIVK148D","","null","<img src=""img/land6.png"" style=""width:200px; border:14px solid green;"">","null","","","","","","","","","",""
"","image-keyboard-response","369","220233","0.0-369.0","3ZWFC4W1UVTQBPG0VA6ICVD2H09FRJ","A3CSIM8V9IYXM7","32TMVRKDGNK89K6LLIZX5RPIVK148D","","333","img/land6.png","76","334","3","1","3","1","1,0.5,0.5,0.5,1,0.5,0.5,0.5,1","1,0.5,0.5,0.5,1,0.5,0.5,0.5,1","","",""
"","html-keyboard-response","370","220536","0.0-370.0","3ZWFC4W1UVTQBPG0VA6ICVD2H09FRJ","A3CSIM8V9IYXM7","32TMVRKDGNK89K6LLIZX5RPIVK148D","","null","<img src=""img/land6.png"" style=""width:200px; border:14px solid green;"">","null","","","","","","","","","",""
"","image-keyboard-response","371","221030","0.0-371.0","3ZWFC4W1UVTQBPG0VA6ICVD2H09FRJ","A3CSIM8V9IYXM7","32TMVRKDGNK89K6LLIZX5RPIVK148D","","490","img/land6.png","76","494","3","1","3","1","1,0.5,0.5,0.5,1,0.5,0.5,0.5,1","1,0.5,0.5,0.5,1,0.5,0.5,0.5,1","","",""
"","html-keyboard-response","372","221335","0.0-372.0","3ZWFC4W1UVTQBPG0VA6ICVD2H09FRJ","A3CSIM8V9IYXM7","32TMVRKDGNK89K6LLIZX5RPIVK148D","","null","<img src=""img/land6.png"" style=""width:200px; border:14px solid green;"">","null","","","","","","","","","",""
"","image-keyboard-response","373","222109","0.0-373.0","3ZWFC4W1UVTQBPG0VA6ICVD2H09FRJ","A3CSIM8V9IYXM7","32TMVRKDGNK89K6LLIZX5RPIVK148D","","771","img/land4.png","74","772","1","1","1","1","1,0.5,0.5,0.5,1,0.5,0.5,0.5,1","1,0.5,0.5,0.5,1,0.5,0.5,0.5,1","","",""
"","html-keyboard-response","374","222413","0.0-374.0","3ZWFC4W1UVTQBPG0VA6ICVD2H09FRJ","A3CSIM8V9IYXM7","32TMVRKDGNK89K6LLIZX5RPIVK148D","","null","<img src=""img/land4.png"" style=""width:200px; border:14px solid green;"">","null","","","","","","","","","",""
"","image-keyboard-response","375","222994","0.0-375.0","3ZWFC4W1UVTQBPG0VA6ICVD2H09FRJ","A3CSIM8V9IYXM7","32TMVRKDGNK89K6LLIZX5RPIVK148D","","578","img/land5.png","75","580","2","1","2","1","1,0.5,0.5,0.5,1,0.5,0.5,0.5,1","1,0.5,0.5,0.5,1,0.5,0.5,0.5,1","","",""
"","html-keyboard-response","376","223304","0.0-376.0","3ZWFC4W1UVTQBPG0VA6ICVD2H09FRJ","A3CSIM8V9IYXM7","32TMVRKDGNK89K6LLIZX5RPIVK148D","","null","<img src=""img/land5.png"" style=""width:200px; border:14px solid green;"">","null","","","","","","","","","",""
"","image-keyboard-response","377","223982","0.0-377.0","3ZWFC4W1UVTQBPG0VA6ICVD2H09FRJ","A3CSIM8V9IYXM7","32TMVRKDGNK89K6LLIZX5RPIVK148D","","676","img/land6.png","76","677","3","1","3","1","1,0.5,0.5,0.5,1,0.5,0.5,0.5,1","1,0.5,0.5,0.5,1,0.5,0.5,0.5,1","","",""
"","html-keyboard-response","378","224286","0.0-378.0","3ZWFC4W1UVTQBPG0VA6ICVD2H09FRJ","A3CSIM8V9IYXM7","32TMVRKDGNK89K6LLIZX5RPIVK148D","","null","<img src=""img/land6.png"" style=""width:200px; border:14px solid green;"">","null","","","","","","","","","",""
