"success","trial_type","trial_index","time_elapsed","internal_node_id","assignmentID","mturkID","hitID","view_history","rt","stimulus","key_press","reactionTime","a","r","s","cond","reward_cond","reward_cond_actual","reward_matrix_idx","responses","question_order"
"true","fullscreen","0","2967","0.0-0.0","34S9DKFK74BBWI537THPSWF8NU4YN2","A3CT8UTPVYUL04","3UDTAB6HH6LRO17U79I9TKUGYFV09C","","","","","","","","","","","","","",""
"","instructions","1","29249","0.0-1.0","34S9DKFK74BBWI537THPSWF8NU4YN2","A3CT8UTPVYUL04","3UDTAB6HH6LRO17U79I9TKUGYFV09C","[{""page_index"":0,""viewing_time"":6652},{""page_index"":1,""viewing_time"":1870},{""page_index"":2,""viewing_time"":1320},{""page_index"":3,""viewing_time"":4903},{""page_index"":4,""viewing_time"":1759},{""page_index"":5,""viewing_time"":2312},{""page_index"":6,""viewing_time"":7461}]","26278","","","","","","","","","","","",""
"","image-keyboard-response","2","30666","0.0-2.0","34S9DKFK74BBWI537THPSWF8NU4YN2","A3CT8UTPVYUL04","3UDTAB6HH6LRO17U79I9TKUGYFV09C","","1411","img/land3.png","75","1416","2","0","1","1","0.8,0.2,0.2,0.2,0.8,0.2,0.2,0.2,0.8","0.8,0.2,0.2,0.2,0.8,0.2,0.2,0.2,0.8","1","",""
"","html-keyboard-response","3","30982","0.0-3.0","34S9DKFK74BBWI537THPSWF8NU4YN2","A3CT8UTPVYUL04","3UDTAB6HH6LRO17U79I9TKUGYFV09C","","null","<img src=""img/land3.png"" style=""width:200px;border:14px solid red;"">","null","","","","","","","","","",""
"","image-keyboard-response","4","31063","0.0-4.0","34S9DKFK74BBWI537THPSWF8NU4YN2","A3CT8UTPVYUL04","3UDTAB6HH6LRO17U79I9TKUGYFV09C","","79","img/land3.png","76","80","3","0","1","1","0.8,0.2,0.2,0.2,0.8,0.2,0.2,0.2,0.8","0.8,0.2,0.2,0.2,0.8,0.2,0.2,0.2,0.8","1","",""
"","html-keyboard-response","5","31370","0.0-5.0","34S9DKFK74BBWI537THPSWF8NU4YN2","A3CT8UTPVYUL04","3UDTAB6HH6LRO17U79I9TKUGYFV09C","","null","<img src=""img/land3.png"" style=""width:200px;border:14px solid red;"">","null","","","","","","","","","",""
"","image-keyboard-response","6","31441","0.0-6.0","34S9DKFK74BBWI537THPSWF8NU4YN2","A3CT8UTPVYUL04","3UDTAB6HH6LRO17U79I9TKUGYFV09C","","69","img/land3.png","74","70","1","1","1","1","0.8,0.2,0.2,0.2,0.8,0.2,0.2,0.2,0.8","0.8,0.2,0.2,0.2,0.8,0.2,0.2,0.2,0.8","1","",""
"","html-keyboard-response","7","31744","0.0-7.0","34S9DKFK74BBWI537THPSWF8NU4YN2","A3CT8UTPVYUL04","3UDTAB6HH6LRO17U79I9TKUGYFV09C","","null","<img src=""img/land3.png"" style=""width:200px; border:14px solid green;"">","null","","","","","","","","","",""
"","image-keyboard-response","8","31759","0.0-8.0","34S9DKFK74BBWI537THPSWF8NU4YN2","A3CT8UTPVYUL04","3UDTAB6HH6LRO17U79I9TKUGYFV09C","","14","img/land2.png","75","15","2","0","3","1","0.8,0.2,0.2,0.2,0.8,0.2,0.2,0.2,0.8","0.8,0.2,0.2,0.2,0.8,0.2,0.2,0.2,0.8","1","",""
"","html-keyboard-response","9","32060","0.0-9.0","34S9DKFK74BBWI537THPSWF8NU4YN2","A3CT8UTPVYUL04","3UDTAB6HH6LRO17U79I9TKUGYFV09C","","null","<img src=""img/land2.png"" style=""width:200px;border:14px solid red;"">","null","","","","","","","","","",""
"","image-keyboard-response","10","32066","0.0-10.0","34S9DKFK74BBWI537THPSWF8NU4YN2","A3CT8UTPVYUL04","3UDTAB6HH6LRO17U79I9TKUGYFV09C","","4","img/land6.png","75","5","2","0","2","1","0.8,0.2,0.2,0.2,0.8,0.2,0.2,0.2,0.8","0.8,0.2,0.2,0.2,0.8,0.2,0.2,0.2,0.8","1","",""
"","html-keyboard-response","11","32378","0.0-11.0","34S9DKFK74BBWI537THPSWF8NU4YN2","A3CT8UTPVYUL04","3UDTAB6HH6LRO17U79I9TKUGYFV09C","","null","<img src=""img/land6.png"" style=""width:200px;border:14px solid red;"">","null","","","","","","","","","",""
"","image-keyboard-response","12","32390","0.0-12.0","34S9DKFK74BBWI537THPSWF8NU4YN2","A3CT8UTPVYUL04","3UDTAB6HH6LRO17U79I9TKUGYFV09C","","11","img/land2.png","76","11","3","1","3","1","0.8,0.2,0.2,0.2,0.8,0.2,0.2,0.2,0.8","0.8,0.2,0.2,0.2,0.8,0.2,0.2,0.2,0.8","1","",""
"","html-keyboard-response","13","32694","0.0-13.0","34S9DKFK74BBWI537THPSWF8NU4YN2","A3CT8UTPVYUL04","3UDTAB6HH6LRO17U79I9TKUGYFV09C","","null","<img src=""img/land2.png"" style=""width:200px; border:14px solid green;"">","null","","","","","","","","","",""
"","image-keyboard-response","14","32774","0.0-14.0","34S9DKFK74BBWI537THPSWF8NU4YN2","A3CT8UTPVYUL04","3UDTAB6HH6LRO17U79I9TKUGYFV09C","","78","img/land2.png","76","79","3","1","3","1","0.8,0.2,0.2,0.2,0.8,0.2,0.2,0.2,0.8","0.8,0.2,0.2,0.2,0.8,0.2,0.2,0.2,0.8","1","",""
"","html-keyboard-response","15","33080","0.0-15.0","34S9DKFK74BBWI537THPSWF8NU4YN2","A3CT8UTPVYUL04","3UDTAB6HH6LRO17U79I9TKUGYFV09C","","null","<img src=""img/land2.png"" style=""width:200px; border:14px solid green;"">","null","","","","","","","","","",""
"","image-keyboard-response","16","33102","0.0-16.0","34S9DKFK74BBWI537THPSWF8NU4YN2","A3CT8UTPVYUL04","3UDTAB6HH6LRO17U79I9TKUGYFV09C","","20","img/land2.png","76","21","3","1","3","1","0.8,0.2,0.2,0.2,0.8,0.2,0.2,0.2,0.8","0.8,0.2,0.2,0.2,0.8,0.2,0.2,0.2,0.8","1","",""
"","html-keyboard-response","17","33422","0.0-17.0","34S9DKFK74BBWI537THPSWF8NU4YN2","A3CT8UTPVYUL04","3UDTAB6HH6LRO17U79I9TKUGYFV09C","","null","<img src=""img/land2.png"" style=""width:200px; border:14px solid green;"">","null","","","","","","","","","",""
"","image-keyboard-response","18","33534","0.0-18.0","34S9DKFK74BBWI537THPSWF8NU4YN2","A3CT8UTPVYUL04","3UDTAB6HH6LRO17U79I9TKUGYFV09C","","110","img/land2.png","76","111","3","0","3","1","0.8,0.2,0.2,0.2,0.8,0.2,0.2,0.2,0.8","0.8,0.2,0.2,0.2,0.8,0.2,0.2,0.2,0.8","1","",""
"","html-keyboard-response","19","33840","0.0-19.0","34S9DKFK74BBWI537THPSWF8NU4YN2","A3CT8UTPVYUL04","3UDTAB6HH6LRO17U79I9TKUGYFV09C","","null","<img src=""img/land2.png"" style=""width:200px;border:14px solid red;"">","null","","","","","","","","","",""
"","image-keyboard-response","20","33926","0.0-20.0","34S9DKFK74BBWI537THPSWF8NU4YN2","A3CT8UTPVYUL04","3UDTAB6HH6LRO17U79I9TKUGYFV09C","","85","img/land3.png","76","87","3","0","1","1","0.8,0.2,0.2,0.2,0.8,0.2,0.2,0.2,0.8","0.8,0.2,0.2,0.2,0.8,0.2,0.2,0.2,0.8","1","",""
"","html-keyboard-response","21","34227","0.0-21.0","34S9DKFK74BBWI537THPSWF8NU4YN2","A3CT8UTPVYUL04","3UDTAB6HH6LRO17U79I9TKUGYFV09C","","null","<img src=""img/land3.png"" style=""width:200px;border:14px solid red;"">","null","","","","","","","","","",""
"","image-keyboard-response","22","34502","0.0-22.0","34S9DKFK74BBWI537THPSWF8NU4YN2","A3CT8UTPVYUL04","3UDTAB6HH6LRO17U79I9TKUGYFV09C","","272","img/land3.png","76","274","3","0","1","1","0.8,0.2,0.2,0.2,0.8,0.2,0.2,0.2,0.8","0.8,0.2,0.2,0.2,0.8,0.2,0.2,0.2,0.8","1","",""
"","html-keyboard-response","23","34808","0.0-23.0","34S9DKFK74BBWI537THPSWF8NU4YN2","A3CT8UTPVYUL04","3UDTAB6HH6LRO17U79I9TKUGYFV09C","","null","<img src=""img/land3.png"" style=""width:200px;border:14px solid red;"">","null","","","","","","","","","",""
"","image-keyboard-response","24","34894","0.0-24.0","34S9DKFK74BBWI537THPSWF8NU4YN2","A3CT8UTPVYUL04","3UDTAB6HH6LRO17U79I9TKUGYFV09C","","84","img/land6.png","75","86","2","1","2","1","0.8,0.2,0.2,0.2,0.8,0.2,0.2,0.2,0.8","0.8,0.2,0.2,0.2,0.8,0.2,0.2,0.2,0.8","1","",""
"","html-keyboard-response","25","35198","0.0-25.0","34S9DKFK74BBWI537THPSWF8NU4YN2","A3CT8UTPVYUL04","3UDTAB6HH6LRO17U79I9TKUGYFV09C","","null","<img src=""img/land6.png"" style=""width:200px; border:14px solid green;"">","null","","","","","","","","","",""
"","image-keyboard-response","26","35398","0.0-26.0","34S9DKFK74BBWI537THPSWF8NU4YN2","A3CT8UTPVYUL04","3UDTAB6HH6LRO17U79I9TKUGYFV09C","","199","img/land2.png","75","200","2","0","3","1","0.8,0.2,0.2,0.2,0.8,0.2,0.2,0.2,0.8","0.8,0.2,0.2,0.2,0.8,0.2,0.2,0.2,0.8","1","",""
"","html-keyboard-response","27","35740","0.0-27.0","34S9DKFK74BBWI537THPSWF8NU4YN2","A3CT8UTPVYUL04","3UDTAB6HH6LRO17U79I9TKUGYFV09C","","null","<img src=""img/land2.png"" style=""width:200px;border:14px solid red;"">","null","","","","","","","","","",""
"","image-keyboard-response","28","35741","0.0-28.0","34S9DKFK74BBWI537THPSWF8NU4YN2","A3CT8UTPVYUL04","3UDTAB6HH6LRO17U79I9TKUGYFV09C","","1","img/land3.png","74","1","1","1","1","1","0.8,0.2,0.2,0.2,0.8,0.2,0.2,0.2,0.8","0.8,0.2,0.2,0.2,0.8,0.2,0.2,0.2,0.8","1","",""
"","html-keyboard-response","29","36057","0.0-29.0","34S9DKFK74BBWI537THPSWF8NU4YN2","A3CT8UTPVYUL04","3UDTAB6HH6LRO17U79I9TKUGYFV09C","","null","<img src=""img/land3.png"" style=""width:200px; border:14px solid green;"">","null","","","","","","","","","",""
"","image-keyboard-response","30","36334","0.0-30.0","34S9DKFK74BBWI537THPSWF8NU4YN2","A3CT8UTPVYUL04","3UDTAB6HH6LRO17U79I9TKUGYFV09C","","275","img/land6.png","74","276","1","0","2","1","0.8,0.2,0.2,0.2,0.8,0.2,0.2,0.2,0.8","0.8,0.2,0.2,0.2,0.8,0.2,0.2,0.2,0.8","1","",""
"","html-keyboard-response","31","36644","0.0-31.0","34S9DKFK74BBWI537THPSWF8NU4YN2","A3CT8UTPVYUL04","3UDTAB6HH6LRO17U79I9TKUGYFV09C","","null","<img src=""img/land6.png"" style=""width:200px;border:14px solid red;"">","null","","","","","","","","","",""
"","image-keyboard-response","32","36885","0.0-32.0","34S9DKFK74BBWI537THPSWF8NU4YN2","A3CT8UTPVYUL04","3UDTAB6HH6LRO17U79I9TKUGYFV09C","","240","img/land6.png","74","240","1","1","2","1","0.8,0.2,0.2,0.2,0.8,0.2,0.2,0.2,0.8","0.8,0.2,0.2,0.2,0.8,0.2,0.2,0.2,0.8","1","",""
"","html-keyboard-response","33","37197","0.0-33.0","34S9DKFK74BBWI537THPSWF8NU4YN2","A3CT8UTPVYUL04","3UDTAB6HH6LRO17U79I9TKUGYFV09C","","null","<img src=""img/land6.png"" style=""width:200px; border:14px solid green;"">","null","","","","","","","","","",""
"","image-keyboard-response","34","37461","0.0-34.0","34S9DKFK74BBWI537THPSWF8NU4YN2","A3CT8UTPVYUL04","3UDTAB6HH6LRO17U79I9TKUGYFV09C","","263","img/land6.png","76","264","3","0","2","1","0.8,0.2,0.2,0.2,0.8,0.2,0.2,0.2,0.8","0.8,0.2,0.2,0.2,0.8,0.2,0.2,0.2,0.8","1","",""
"","html-keyboard-response","35","37767","0.0-35.0","34S9DKFK74BBWI537THPSWF8NU4YN2","A3CT8UTPVYUL04","3UDTAB6HH6LRO17U79I9TKUGYFV09C","","null","<img src=""img/land6.png"" style=""width:200px;border:14px solid red;"">","null","","","","","","","","","",""
"","image-keyboard-response","36","37774","0.0-36.0","34S9DKFK74BBWI537THPSWF8NU4YN2","A3CT8UTPVYUL04","3UDTAB6HH6LRO17U79I9TKUGYFV09C","","6","img/land2.png","74","6","1","0","3","1","0.8,0.2,0.2,0.2,0.8,0.2,0.2,0.2,0.8","0.8,0.2,0.2,0.2,0.8,0.2,0.2,0.2,0.8","1","",""
"","html-keyboard-response","37","38086","0.0-37.0","34S9DKFK74BBWI537THPSWF8NU4YN2","A3CT8UTPVYUL04","3UDTAB6HH6LRO17U79I9TKUGYFV09C","","null","<img src=""img/land2.png"" style=""width:200px;border:14px solid red;"">","null","","","","","","","","","",""
"","image-keyboard-response","38","38292","0.0-38.0","34S9DKFK74BBWI537THPSWF8NU4YN2","A3CT8UTPVYUL04","3UDTAB6HH6LRO17U79I9TKUGYFV09C","","206","img/land2.png","74","206","1","0","3","1","0.8,0.2,0.2,0.2,0.8,0.2,0.2,0.2,0.8","0.8,0.2,0.2,0.2,0.8,0.2,0.2,0.2,0.8","1","",""
"","html-keyboard-response","39","38604","0.0-39.0","34S9DKFK74BBWI537THPSWF8NU4YN2","A3CT8UTPVYUL04","3UDTAB6HH6LRO17U79I9TKUGYFV09C","","null","<img src=""img/land2.png"" style=""width:200px;border:14px solid red;"">","null","","","","","","","","","",""
"","image-keyboard-response","40","38630","0.0-40.0","34S9DKFK74BBWI537THPSWF8NU4YN2","A3CT8UTPVYUL04","3UDTAB6HH6LRO17U79I9TKUGYFV09C","","24","img/land2.png","75","25","2","0","3","1","0.8,0.2,0.2,0.2,0.8,0.2,0.2,0.2,0.8","0.8,0.2,0.2,0.2,0.8,0.2,0.2,0.2,0.8","1","",""
"","html-keyboard-response","41","38936","0.0-41.0","34S9DKFK74BBWI537THPSWF8NU4YN2","A3CT8UTPVYUL04","3UDTAB6HH6LRO17U79I9TKUGYFV09C","","null","<img src=""img/land2.png"" style=""width:200px;border:14px solid red;"">","null","","","","","","","","","",""
"","image-keyboard-response","42","39181","0.0-42.0","34S9DKFK74BBWI537THPSWF8NU4YN2","A3CT8UTPVYUL04","3UDTAB6HH6LRO17U79I9TKUGYFV09C","","244","img/land2.png","76","245","3","0","3","1","0.8,0.2,0.2,0.2,0.8,0.2,0.2,0.2,0.8","0.8,0.2,0.2,0.2,0.8,0.2,0.2,0.2,0.8","1","",""
"","html-keyboard-response","43","39494","0.0-43.0","34S9DKFK74BBWI537THPSWF8NU4YN2","A3CT8UTPVYUL04","3UDTAB6HH6LRO17U79I9TKUGYFV09C","","null","<img src=""img/land2.png"" style=""width:200px;border:14px solid red;"">","null","","","","","","","","","",""
"","image-keyboard-response","44","39500","0.0-44.0","34S9DKFK74BBWI537THPSWF8NU4YN2","A3CT8UTPVYUL04","3UDTAB6HH6LRO17U79I9TKUGYFV09C","","6","img/land3.png","76","6","3","0","1","1","0.8,0.2,0.2,0.2,0.8,0.2,0.2,0.2,0.8","0.8,0.2,0.2,0.2,0.8,0.2,0.2,0.2,0.8","1","",""
"","html-keyboard-response","45","39812","0.0-45.0","34S9DKFK74BBWI537THPSWF8NU4YN2","A3CT8UTPVYUL04","3UDTAB6HH6LRO17U79I9TKUGYFV09C","","null","<img src=""img/land3.png"" style=""width:200px;border:14px solid red;"">","null","","","","","","","","","",""
"","image-keyboard-response","46","39822","0.0-46.0","34S9DKFK74BBWI537THPSWF8NU4YN2","A3CT8UTPVYUL04","3UDTAB6HH6LRO17U79I9TKUGYFV09C","","9","img/land2.png","75","9","2","0","3","1","0.8,0.2,0.2,0.2,0.8,0.2,0.2,0.2,0.8","0.8,0.2,0.2,0.2,0.8,0.2,0.2,0.2,0.8","1","",""
"","html-keyboard-response","47","40129","0.0-47.0","34S9DKFK74BBWI537THPSWF8NU4YN2","A3CT8UTPVYUL04","3UDTAB6HH6LRO17U79I9TKUGYFV09C","","null","<img src=""img/land2.png"" style=""width:200px;border:14px solid red;"">","null","","","","","","","","","",""
"","image-keyboard-response","48","40165","0.0-48.0","34S9DKFK74BBWI537THPSWF8NU4YN2","A3CT8UTPVYUL04","3UDTAB6HH6LRO17U79I9TKUGYFV09C","","35","img/land3.png","75","35","2","0","1","1","0.8,0.2,0.2,0.2,0.8,0.2,0.2,0.2,0.8","0.8,0.2,0.2,0.2,0.8,0.2,0.2,0.2,0.8","1","",""
"","html-keyboard-response","49","40469","0.0-49.0","34S9DKFK74BBWI537THPSWF8NU4YN2","A3CT8UTPVYUL04","3UDTAB6HH6LRO17U79I9TKUGYFV09C","","null","<img src=""img/land3.png"" style=""width:200px;border:14px solid red;"">","null","","","","","","","","","",""
"","image-keyboard-response","50","40532","0.0-50.0","34S9DKFK74BBWI537THPSWF8NU4YN2","A3CT8UTPVYUL04","3UDTAB6HH6LRO17U79I9TKUGYFV09C","","62","img/land3.png","76","62","3","0","1","1","0.8,0.2,0.2,0.2,0.8,0.2,0.2,0.2,0.8","0.8,0.2,0.2,0.2,0.8,0.2,0.2,0.2,0.8","1","",""
"","html-keyboard-response","51","40834","0.0-51.0","34S9DKFK74BBWI537THPSWF8NU4YN2","A3CT8UTPVYUL04","3UDTAB6HH6LRO17U79I9TKUGYFV09C","","null","<img src=""img/land3.png"" style=""width:200px;border:14px solid red;"">","null","","","","","","","","","",""
"","image-keyboard-response","52","40845","0.0-52.0","34S9DKFK74BBWI537THPSWF8NU4YN2","A3CT8UTPVYUL04","3UDTAB6HH6LRO17U79I9TKUGYFV09C","","10","img/land2.png","76","12","3","1","3","1","0.8,0.2,0.2,0.2,0.8,0.2,0.2,0.2,0.8","0.8,0.2,0.2,0.2,0.8,0.2,0.2,0.2,0.8","1","",""
"","html-keyboard-response","53","41150","0.0-53.0","34S9DKFK74BBWI537THPSWF8NU4YN2","A3CT8UTPVYUL04","3UDTAB6HH6LRO17U79I9TKUGYFV09C","","null","<img src=""img/land2.png"" style=""width:200px; border:14px solid green;"">","null","","","","","","","","","",""
"","image-keyboard-response","54","41428","0.0-54.0","34S9DKFK74BBWI537THPSWF8NU4YN2","A3CT8UTPVYUL04","3UDTAB6HH6LRO17U79I9TKUGYFV09C","","278","img/land3.png","74","278","1","1","1","1","0.8,0.2,0.2,0.2,0.8,0.2,0.2,0.2,0.8","0.8,0.2,0.2,0.2,0.8,0.2,0.2,0.2,0.8","1","",""
"","html-keyboard-response","55","41741","0.0-55.0","34S9DKFK74BBWI537THPSWF8NU4YN2","A3CT8UTPVYUL04","3UDTAB6HH6LRO17U79I9TKUGYFV09C","","null","<img src=""img/land3.png"" style=""width:200px; border:14px solid green;"">","null","","","","","","","","","",""
"","image-keyboard-response","56","41828","0.0-56.0","34S9DKFK74BBWI537THPSWF8NU4YN2","A3CT8UTPVYUL04","3UDTAB6HH6LRO17U79I9TKUGYFV09C","","86","img/land2.png","75","86","2","0","3","1","0.8,0.2,0.2,0.2,0.8,0.2,0.2,0.2,0.8","0.8,0.2,0.2,0.2,0.8,0.2,0.2,0.2,0.8","1","",""
"","html-keyboard-response","57","42142","0.0-57.0","34S9DKFK74BBWI537THPSWF8NU4YN2","A3CT8UTPVYUL04","3UDTAB6HH6LRO17U79I9TKUGYFV09C","","null","<img src=""img/land2.png"" style=""width:200px;border:14px solid red;"">","null","","","","","","","","","",""
"","image-keyboard-response","58","42380","0.0-58.0","34S9DKFK74BBWI537THPSWF8NU4YN2","A3CT8UTPVYUL04","3UDTAB6HH6LRO17U79I9TKUGYFV09C","","236","img/land3.png","75","238","2","0","1","1","0.8,0.2,0.2,0.2,0.8,0.2,0.2,0.2,0.8","0.8,0.2,0.2,0.2,0.8,0.2,0.2,0.2,0.8","1","",""
"","html-keyboard-response","59","42683","0.0-59.0","34S9DKFK74BBWI537THPSWF8NU4YN2","A3CT8UTPVYUL04","3UDTAB6HH6LRO17U79I9TKUGYFV09C","","null","<img src=""img/land3.png"" style=""width:200px;border:14px solid red;"">","null","","","","","","","","","",""
"","image-keyboard-response","60","42891","0.0-60.0","34S9DKFK74BBWI537THPSWF8NU4YN2","A3CT8UTPVYUL04","3UDTAB6HH6LRO17U79I9TKUGYFV09C","","208","img/land6.png","75","208","2","1","2","1","0.8,0.2,0.2,0.2,0.8,0.2,0.2,0.2,0.8","0.8,0.2,0.2,0.2,0.8,0.2,0.2,0.2,0.8","1","",""
"","html-keyboard-response","61","43205","0.0-61.0","34S9DKFK74BBWI537THPSWF8NU4YN2","A3CT8UTPVYUL04","3UDTAB6HH6LRO17U79I9TKUGYFV09C","","null","<img src=""img/land6.png"" style=""width:200px; border:14px solid green;"">","null","","","","","","","","","",""
"","image-keyboard-response","62","43292","0.0-62.0","34S9DKFK74BBWI537THPSWF8NU4YN2","A3CT8UTPVYUL04","3UDTAB6HH6LRO17U79I9TKUGYFV09C","","87","img/land2.png","76","88","3","1","3","1","0.8,0.2,0.2,0.2,0.8,0.2,0.2,0.2,0.8","0.8,0.2,0.2,0.2,0.8,0.2,0.2,0.2,0.8","1","",""
"","html-keyboard-response","63","43592","0.0-63.0","34S9DKFK74BBWI537THPSWF8NU4YN2","A3CT8UTPVYUL04","3UDTAB6HH6LRO17U79I9TKUGYFV09C","","null","<img src=""img/land2.png"" style=""width:200px; border:14px solid green;"">","null","","","","","","","","","",""
"","image-keyboard-response","64","43900","0.0-64.0","34S9DKFK74BBWI537THPSWF8NU4YN2","A3CT8UTPVYUL04","3UDTAB6HH6LRO17U79I9TKUGYFV09C","","307","img/land2.png","76","307","3","1","3","1","0.8,0.2,0.2,0.2,0.8,0.2,0.2,0.2,0.8","0.8,0.2,0.2,0.2,0.8,0.2,0.2,0.2,0.8","1","",""
"","html-keyboard-response","65","44213","0.0-65.0","34S9DKFK74BBWI537THPSWF8NU4YN2","A3CT8UTPVYUL04","3UDTAB6HH6LRO17U79I9TKUGYFV09C","","null","<img src=""img/land2.png"" style=""width:200px; border:14px solid green;"">","null","","","","","","","","","",""
"","image-keyboard-response","66","44475","0.0-66.0","34S9DKFK74BBWI537THPSWF8NU4YN2","A3CT8UTPVYUL04","3UDTAB6HH6LRO17U79I9TKUGYFV09C","","261","img/land6.png","76","261","3","0","2","1","0.8,0.2,0.2,0.2,0.8,0.2,0.2,0.2,0.8","0.8,0.2,0.2,0.2,0.8,0.2,0.2,0.2,0.8","1","",""
"","html-keyboard-response","67","44780","0.0-67.0","34S9DKFK74BBWI537THPSWF8NU4YN2","A3CT8UTPVYUL04","3UDTAB6HH6LRO17U79I9TKUGYFV09C","","null","<img src=""img/land6.png"" style=""width:200px;border:14px solid red;"">","null","","","","","","","","","",""
"","image-keyboard-response","68","44931","0.0-68.0","34S9DKFK74BBWI537THPSWF8NU4YN2","A3CT8UTPVYUL04","3UDTAB6HH6LRO17U79I9TKUGYFV09C","","150","img/land3.png","76","151","3","0","1","1","0.8,0.2,0.2,0.2,0.8,0.2,0.2,0.2,0.8","0.8,0.2,0.2,0.2,0.8,0.2,0.2,0.2,0.8","1","",""
"","html-keyboard-response","69","45236","0.0-69.0","34S9DKFK74BBWI537THPSWF8NU4YN2","A3CT8UTPVYUL04","3UDTAB6HH6LRO17U79I9TKUGYFV09C","","null","<img src=""img/land3.png"" style=""width:200px;border:14px solid red;"">","null","","","","","","","","","",""
"","image-keyboard-response","70","45394","0.0-70.0","34S9DKFK74BBWI537THPSWF8NU4YN2","A3CT8UTPVYUL04","3UDTAB6HH6LRO17U79I9TKUGYFV09C","","159","img/land6.png","76","159","3","0","2","1","0.8,0.2,0.2,0.2,0.8,0.2,0.2,0.2,0.8","0.8,0.2,0.2,0.2,0.8,0.2,0.2,0.2,0.8","1","",""
"","html-keyboard-response","71","45708","0.0-71.0","34S9DKFK74BBWI537THPSWF8NU4YN2","A3CT8UTPVYUL04","3UDTAB6HH6LRO17U79I9TKUGYFV09C","","null","<img src=""img/land6.png"" style=""width:200px;border:14px solid red;"">","null","","","","","","","","","",""
"","image-keyboard-response","72","45852","0.0-72.0","34S9DKFK74BBWI537THPSWF8NU4YN2","A3CT8UTPVYUL04","3UDTAB6HH6LRO17U79I9TKUGYFV09C","","144","img/land6.png","76","144","3","0","2","1","0.8,0.2,0.2,0.2,0.8,0.2,0.2,0.2,0.8","0.8,0.2,0.2,0.2,0.8,0.2,0.2,0.2,0.8","1","",""
"","html-keyboard-response","73","46163","0.0-73.0","34S9DKFK74BBWI537THPSWF8NU4YN2","A3CT8UTPVYUL04","3UDTAB6HH6LRO17U79I9TKUGYFV09C","","null","<img src=""img/land6.png"" style=""width:200px;border:14px solid red;"">","null","","","","","","","","","",""
"","image-keyboard-response","74","46386","0.0-74.0","34S9DKFK74BBWI537THPSWF8NU4YN2","A3CT8UTPVYUL04","3UDTAB6HH6LRO17U79I9TKUGYFV09C","","223","img/land3.png","76","223","3","1","1","1","0.8,0.2,0.2,0.2,0.8,0.2,0.2,0.2,0.8","0.8,0.2,0.2,0.2,0.8,0.2,0.2,0.2,0.8","1","",""
"","html-keyboard-response","75","46697","0.0-75.0","34S9DKFK74BBWI537THPSWF8NU4YN2","A3CT8UTPVYUL04","3UDTAB6HH6LRO17U79I9TKUGYFV09C","","null","<img src=""img/land3.png"" style=""width:200px; border:14px solid green;"">","null","","","","","","","","","",""
"","image-keyboard-response","76","46866","0.0-76.0","34S9DKFK74BBWI537THPSWF8NU4YN2","A3CT8UTPVYUL04","3UDTAB6HH6LRO17U79I9TKUGYFV09C","","169","img/land3.png","76","169","3","0","1","1","0.8,0.2,0.2,0.2,0.8,0.2,0.2,0.2,0.8","0.8,0.2,0.2,0.2,0.8,0.2,0.2,0.2,0.8","1","",""
"","html-keyboard-response","77","47168","0.0-77.0","34S9DKFK74BBWI537THPSWF8NU4YN2","A3CT8UTPVYUL04","3UDTAB6HH6LRO17U79I9TKUGYFV09C","","null","<img src=""img/land3.png"" style=""width:200px;border:14px solid red;"">","null","","","","","","","","","",""
"","image-keyboard-response","78","47307","0.0-78.0","34S9DKFK74BBWI537THPSWF8NU4YN2","A3CT8UTPVYUL04","3UDTAB6HH6LRO17U79I9TKUGYFV09C","","138","img/land6.png","76","138","3","0","2","1","0.8,0.2,0.2,0.2,0.8,0.2,0.2,0.2,0.8","0.8,0.2,0.2,0.2,0.8,0.2,0.2,0.2,0.8","1","",""
"","html-keyboard-response","79","47624","0.0-79.0","34S9DKFK74BBWI537THPSWF8NU4YN2","A3CT8UTPVYUL04","3UDTAB6HH6LRO17U79I9TKUGYFV09C","","null","<img src=""img/land6.png"" style=""width:200px;border:14px solid red;"">","null","","","","","","","","","",""
"","image-keyboard-response","80","47891","0.0-80.0","34S9DKFK74BBWI537THPSWF8NU4YN2","A3CT8UTPVYUL04","3UDTAB6HH6LRO17U79I9TKUGYFV09C","","265","img/land6.png","76","267","3","0","2","1","0.8,0.2,0.2,0.2,0.8,0.2,0.2,0.2,0.8","0.8,0.2,0.2,0.2,0.8,0.2,0.2,0.2,0.8","1","",""
"","html-keyboard-response","81","48205","0.0-81.0","34S9DKFK74BBWI537THPSWF8NU4YN2","A3CT8UTPVYUL04","3UDTAB6HH6LRO17U79I9TKUGYFV09C","","null","<img src=""img/land6.png"" style=""width:200px;border:14px solid red;"">","null","","","","","","","","","",""
"","image-keyboard-response","82","48386","0.0-82.0","34S9DKFK74BBWI537THPSWF8NU4YN2","A3CT8UTPVYUL04","3UDTAB6HH6LRO17U79I9TKUGYFV09C","","180","img/land2.png","76","182","3","1","3","1","0.8,0.2,0.2,0.2,0.8,0.2,0.2,0.2,0.8","0.8,0.2,0.2,0.2,0.8,0.2,0.2,0.2,0.8","1","",""
"","html-keyboard-response","83","48693","0.0-83.0","34S9DKFK74BBWI537THPSWF8NU4YN2","A3CT8UTPVYUL04","3UDTAB6HH6LRO17U79I9TKUGYFV09C","","null","<img src=""img/land2.png"" style=""width:200px; border:14px solid green;"">","null","","","","","","","","","",""
"","image-keyboard-response","84","48812","0.0-84.0","34S9DKFK74BBWI537THPSWF8NU4YN2","A3CT8UTPVYUL04","3UDTAB6HH6LRO17U79I9TKUGYFV09C","","118","img/land6.png","76","119","3","0","2","1","0.8,0.2,0.2,0.2,0.8,0.2,0.2,0.2,0.8","0.8,0.2,0.2,0.2,0.8,0.2,0.2,0.2,0.8","1","",""
"","html-keyboard-response","85","49132","0.0-85.0","34S9DKFK74BBWI537THPSWF8NU4YN2","A3CT8UTPVYUL04","3UDTAB6HH6LRO17U79I9TKUGYFV09C","","null","<img src=""img/land6.png"" style=""width:200px;border:14px solid red;"">","null","","","","","","","","","",""
"","image-keyboard-response","86","49330","0.0-86.0","34S9DKFK74BBWI537THPSWF8NU4YN2","A3CT8UTPVYUL04","3UDTAB6HH6LRO17U79I9TKUGYFV09C","","198","img/land2.png","76","199","3","1","3","1","0.8,0.2,0.2,0.2,0.8,0.2,0.2,0.2,0.8","0.8,0.2,0.2,0.2,0.8,0.2,0.2,0.2,0.8","1","",""
"","html-keyboard-response","87","49634","0.0-87.0","34S9DKFK74BBWI537THPSWF8NU4YN2","A3CT8UTPVYUL04","3UDTAB6HH6LRO17U79I9TKUGYFV09C","","null","<img src=""img/land2.png"" style=""width:200px; border:14px solid green;"">","null","","","","","","","","","",""
"","image-keyboard-response","88","49833","0.0-88.0","34S9DKFK74BBWI537THPSWF8NU4YN2","A3CT8UTPVYUL04","3UDTAB6HH6LRO17U79I9TKUGYFV09C","","199","img/land3.png","76","200","3","0","1","1","0.8,0.2,0.2,0.2,0.8,0.2,0.2,0.2,0.8","0.8,0.2,0.2,0.2,0.8,0.2,0.2,0.2,0.8","1","",""
"","html-keyboard-response","89","50137","0.0-89.0","34S9DKFK74BBWI537THPSWF8NU4YN2","A3CT8UTPVYUL04","3UDTAB6HH6LRO17U79I9TKUGYFV09C","","null","<img src=""img/land3.png"" style=""width:200px;border:14px solid red;"">","null","","","","","","","","","",""
"","image-keyboard-response","90","50282","0.0-90.0","34S9DKFK74BBWI537THPSWF8NU4YN2","A3CT8UTPVYUL04","3UDTAB6HH6LRO17U79I9TKUGYFV09C","","144","img/land2.png","76","145","3","0","3","1","0.8,0.2,0.2,0.2,0.8,0.2,0.2,0.2,0.8","0.8,0.2,0.2,0.2,0.8,0.2,0.2,0.2,0.8","1","",""
"","html-keyboard-response","91","50604","0.0-91.0","34S9DKFK74BBWI537THPSWF8NU4YN2","A3CT8UTPVYUL04","3UDTAB6HH6LRO17U79I9TKUGYFV09C","","null","<img src=""img/land2.png"" style=""width:200px;border:14px solid red;"">","null","","","","","","","","","",""
"","image-keyboard-response","92","50850","0.0-92.0","34S9DKFK74BBWI537THPSWF8NU4YN2","A3CT8UTPVYUL04","3UDTAB6HH6LRO17U79I9TKUGYFV09C","","244","img/land2.png","74","245","1","1","3","1","0.8,0.2,0.2,0.2,0.8,0.2,0.2,0.2,0.8","0.8,0.2,0.2,0.2,0.8,0.2,0.2,0.2,0.8","1","",""
"","html-keyboard-response","93","51162","0.0-93.0","34S9DKFK74BBWI537THPSWF8NU4YN2","A3CT8UTPVYUL04","3UDTAB6HH6LRO17U79I9TKUGYFV09C","","null","<img src=""img/land2.png"" style=""width:200px; border:14px solid green;"">","null","","","","","","","","","",""
"","image-keyboard-response","94","51233","0.0-94.0","34S9DKFK74BBWI537THPSWF8NU4YN2","A3CT8UTPVYUL04","3UDTAB6HH6LRO17U79I9TKUGYFV09C","","71","img/land6.png","76","71","3","0","2","1","0.8,0.2,0.2,0.2,0.8,0.2,0.2,0.2,0.8","0.8,0.2,0.2,0.2,0.8,0.2,0.2,0.2,0.8","1","",""
"","html-keyboard-response","95","51549","0.0-95.0","34S9DKFK74BBWI537THPSWF8NU4YN2","A3CT8UTPVYUL04","3UDTAB6HH6LRO17U79I9TKUGYFV09C","","null","<img src=""img/land6.png"" style=""width:200px;border:14px solid red;"">","null","","","","","","","","","",""
"","image-keyboard-response","96","51649","0.0-96.0","34S9DKFK74BBWI537THPSWF8NU4YN2","A3CT8UTPVYUL04","3UDTAB6HH6LRO17U79I9TKUGYFV09C","","101","img/land6.png","74","101","1","1","2","1","0.8,0.2,0.2,0.2,0.8,0.2,0.2,0.2,0.8","0.8,0.2,0.2,0.2,0.8,0.2,0.2,0.2,0.8","1","",""
"","html-keyboard-response","97","51965","0.0-97.0","34S9DKFK74BBWI537THPSWF8NU4YN2","A3CT8UTPVYUL04","3UDTAB6HH6LRO17U79I9TKUGYFV09C","","null","<img src=""img/land6.png"" style=""width:200px; border:14px solid green;"">","null","","","","","","","","","",""
"","image-keyboard-response","98","51993","0.0-98.0","34S9DKFK74BBWI537THPSWF8NU4YN2","A3CT8UTPVYUL04","3UDTAB6HH6LRO17U79I9TKUGYFV09C","","27","img/land6.png","76","28","3","0","2","1","0.8,0.2,0.2,0.2,0.8,0.2,0.2,0.2,0.8","0.8,0.2,0.2,0.2,0.8,0.2,0.2,0.2,0.8","1","",""
"","html-keyboard-response","99","52301","0.0-99.0","34S9DKFK74BBWI537THPSWF8NU4YN2","A3CT8UTPVYUL04","3UDTAB6HH6LRO17U79I9TKUGYFV09C","","null","<img src=""img/land6.png"" style=""width:200px;border:14px solid red;"">","null","","","","","","","","","",""
"","image-keyboard-response","100","52433","0.0-100.0","34S9DKFK74BBWI537THPSWF8NU4YN2","A3CT8UTPVYUL04","3UDTAB6HH6LRO17U79I9TKUGYFV09C","","131","img/land2.png","74","132","1","0","3","1","0.8,0.2,0.2,0.2,0.8,0.2,0.2,0.2,0.8","0.8,0.2,0.2,0.2,0.8,0.2,0.2,0.2,0.8","1","",""
"","html-keyboard-response","101","52735","0.0-101.0","34S9DKFK74BBWI537THPSWF8NU4YN2","A3CT8UTPVYUL04","3UDTAB6HH6LRO17U79I9TKUGYFV09C","","null","<img src=""img/land2.png"" style=""width:200px;border:14px solid red;"">","null","","","","","","","","","",""
"","image-keyboard-response","102","52761","0.0-102.0","34S9DKFK74BBWI537THPSWF8NU4YN2","A3CT8UTPVYUL04","3UDTAB6HH6LRO17U79I9TKUGYFV09C","","25","img/land2.png","76","25","3","0","3","1","0.8,0.2,0.2,0.2,0.8,0.2,0.2,0.2,0.8","0.8,0.2,0.2,0.2,0.8,0.2,0.2,0.2,0.8","1","",""
"","html-keyboard-response","103","53066","0.0-103.0","34S9DKFK74BBWI537THPSWF8NU4YN2","A3CT8UTPVYUL04","3UDTAB6HH6LRO17U79I9TKUGYFV09C","","null","<img src=""img/land2.png"" style=""width:200px;border:14px solid red;"">","null","","","","","","","","","",""
"","image-keyboard-response","104","53257","0.0-104.0","34S9DKFK74BBWI537THPSWF8NU4YN2","A3CT8UTPVYUL04","3UDTAB6HH6LRO17U79I9TKUGYFV09C","","189","img/land6.png","74","190","1","0","2","1","0.8,0.2,0.2,0.2,0.8,0.2,0.2,0.2,0.8","0.8,0.2,0.2,0.2,0.8,0.2,0.2,0.2,0.8","1","",""
"","html-keyboard-response","105","53565","0.0-105.0","34S9DKFK74BBWI537THPSWF8NU4YN2","A3CT8UTPVYUL04","3UDTAB6HH6LRO17U79I9TKUGYFV09C","","null","<img src=""img/land6.png"" style=""width:200px;border:14px solid red;"">","null","","","","","","","","","",""
"","image-keyboard-response","106","53657","0.0-106.0","34S9DKFK74BBWI537THPSWF8NU4YN2","A3CT8UTPVYUL04","3UDTAB6HH6LRO17U79I9TKUGYFV09C","","90","img/land3.png","75","91","2","0","1","1","0.8,0.2,0.2,0.2,0.8,0.2,0.2,0.2,0.8","0.8,0.2,0.2,0.2,0.8,0.2,0.2,0.2,0.8","1","",""
"","html-keyboard-response","107","53972","0.0-107.0","34S9DKFK74BBWI537THPSWF8NU4YN2","A3CT8UTPVYUL04","3UDTAB6HH6LRO17U79I9TKUGYFV09C","","null","<img src=""img/land3.png"" style=""width:200px;border:14px solid red;"">","null","","","","","","","","","",""
"","image-keyboard-response","108","54000","0.0-108.0","34S9DKFK74BBWI537THPSWF8NU4YN2","A3CT8UTPVYUL04","3UDTAB6HH6LRO17U79I9TKUGYFV09C","","28","img/land6.png","76","28","3","0","2","1","0.8,0.2,0.2,0.2,0.8,0.2,0.2,0.2,0.8","0.8,0.2,0.2,0.2,0.8,0.2,0.2,0.2,0.8","1","",""
"","html-keyboard-response","109","54305","0.0-109.0","34S9DKFK74BBWI537THPSWF8NU4YN2","A3CT8UTPVYUL04","3UDTAB6HH6LRO17U79I9TKUGYFV09C","","null","<img src=""img/land6.png"" style=""width:200px;border:14px solid red;"">","null","","","","","","","","","",""
"","image-keyboard-response","110","54410","0.0-110.0","34S9DKFK74BBWI537THPSWF8NU4YN2","A3CT8UTPVYUL04","3UDTAB6HH6LRO17U79I9TKUGYFV09C","","104","img/land3.png","76","105","3","1","1","1","0.8,0.2,0.2,0.2,0.8,0.2,0.2,0.2,0.8","0.8,0.2,0.2,0.2,0.8,0.2,0.2,0.2,0.8","1","",""
"","html-keyboard-response","111","54724","0.0-111.0","34S9DKFK74BBWI537THPSWF8NU4YN2","A3CT8UTPVYUL04","3UDTAB6HH6LRO17U79I9TKUGYFV09C","","null","<img src=""img/land3.png"" style=""width:200px; border:14px solid green;"">","null","","","","","","","","","",""
"","image-keyboard-response","112","54753","0.0-112.0","34S9DKFK74BBWI537THPSWF8NU4YN2","A3CT8UTPVYUL04","3UDTAB6HH6LRO17U79I9TKUGYFV09C","","27","img/land2.png","76","27","3","1","3","1","0.8,0.2,0.2,0.2,0.8,0.2,0.2,0.2,0.8","0.8,0.2,0.2,0.2,0.8,0.2,0.2,0.2,0.8","1","",""
"","html-keyboard-response","113","55057","0.0-113.0","34S9DKFK74BBWI537THPSWF8NU4YN2","A3CT8UTPVYUL04","3UDTAB6HH6LRO17U79I9TKUGYFV09C","","null","<img src=""img/land2.png"" style=""width:200px; border:14px solid green;"">","null","","","","","","","","","",""
"","image-keyboard-response","114","55177","0.0-114.0","34S9DKFK74BBWI537THPSWF8NU4YN2","A3CT8UTPVYUL04","3UDTAB6HH6LRO17U79I9TKUGYFV09C","","119","img/land3.png","76","119","3","0","1","1","0.8,0.2,0.2,0.2,0.8,0.2,0.2,0.2,0.8","0.8,0.2,0.2,0.2,0.8,0.2,0.2,0.2,0.8","1","",""
"","html-keyboard-response","115","55481","0.0-115.0","34S9DKFK74BBWI537THPSWF8NU4YN2","A3CT8UTPVYUL04","3UDTAB6HH6LRO17U79I9TKUGYFV09C","","null","<img src=""img/land3.png"" style=""width:200px;border:14px solid red;"">","null","","","","","","","","","",""
"","image-keyboard-response","116","55609","0.0-116.0","34S9DKFK74BBWI537THPSWF8NU4YN2","A3CT8UTPVYUL04","3UDTAB6HH6LRO17U79I9TKUGYFV09C","","127","img/land6.png","76","127","3","0","2","1","0.8,0.2,0.2,0.2,0.8,0.2,0.2,0.2,0.8","0.8,0.2,0.2,0.2,0.8,0.2,0.2,0.2,0.8","1","",""
"","html-keyboard-response","117","55914","0.0-117.0","34S9DKFK74BBWI537THPSWF8NU4YN2","A3CT8UTPVYUL04","3UDTAB6HH6LRO17U79I9TKUGYFV09C","","null","<img src=""img/land6.png"" style=""width:200px;border:14px solid red;"">","null","","","","","","","","","",""
"","image-keyboard-response","118","55984","0.0-118.0","34S9DKFK74BBWI537THPSWF8NU4YN2","A3CT8UTPVYUL04","3UDTAB6HH6LRO17U79I9TKUGYFV09C","","69","img/land6.png","76","69","3","1","2","1","0.8,0.2,0.2,0.2,0.8,0.2,0.2,0.2,0.8","0.8,0.2,0.2,0.2,0.8,0.2,0.2,0.2,0.8","1","",""
"","html-keyboard-response","119","56315","0.0-119.0","34S9DKFK74BBWI537THPSWF8NU4YN2","A3CT8UTPVYUL04","3UDTAB6HH6LRO17U79I9TKUGYFV09C","","null","<img src=""img/land6.png"" style=""width:200px; border:14px solid green;"">","null","","","","","","","","","",""
"","image-keyboard-response","120","56361","0.0-120.0","34S9DKFK74BBWI537THPSWF8NU4YN2","A3CT8UTPVYUL04","3UDTAB6HH6LRO17U79I9TKUGYFV09C","","44","img/land6.png","76","44","3","1","2","1","0.8,0.2,0.2,0.2,0.8,0.2,0.2,0.2,0.8","0.8,0.2,0.2,0.2,0.8,0.2,0.2,0.2,0.8","1","",""
"","html-keyboard-response","121","56663","0.0-121.0","34S9DKFK74BBWI537THPSWF8NU4YN2","A3CT8UTPVYUL04","3UDTAB6HH6LRO17U79I9TKUGYFV09C","","null","<img src=""img/land6.png"" style=""width:200px; border:14px solid green;"">","null","","","","","","","","","",""
"","image-keyboard-response","122","56777","0.0-122.0","34S9DKFK74BBWI537THPSWF8NU4YN2","A3CT8UTPVYUL04","3UDTAB6HH6LRO17U79I9TKUGYFV09C","","112","img/land3.png","76","113","3","0","1","1","0.8,0.2,0.2,0.2,0.8,0.2,0.2,0.2,0.8","0.8,0.2,0.2,0.2,0.8,0.2,0.2,0.2,0.8","1","",""
"","html-keyboard-response","123","57087","0.0-123.0","34S9DKFK74BBWI537THPSWF8NU4YN2","A3CT8UTPVYUL04","3UDTAB6HH6LRO17U79I9TKUGYFV09C","","null","<img src=""img/land3.png"" style=""width:200px;border:14px solid red;"">","null","","","","","","","","","",""
"","image-keyboard-response","124","57144","0.0-124.0","34S9DKFK74BBWI537THPSWF8NU4YN2","A3CT8UTPVYUL04","3UDTAB6HH6LRO17U79I9TKUGYFV09C","","56","img/land2.png","76","56","3","0","3","1","0.8,0.2,0.2,0.2,0.8,0.2,0.2,0.2,0.8","0.8,0.2,0.2,0.2,0.8,0.2,0.2,0.2,0.8","1","",""
"","html-keyboard-response","125","57451","0.0-125.0","34S9DKFK74BBWI537THPSWF8NU4YN2","A3CT8UTPVYUL04","3UDTAB6HH6LRO17U79I9TKUGYFV09C","","null","<img src=""img/land2.png"" style=""width:200px;border:14px solid red;"">","null","","","","","","","","","",""
"","image-keyboard-response","126","57592","0.0-126.0","34S9DKFK74BBWI537THPSWF8NU4YN2","A3CT8UTPVYUL04","3UDTAB6HH6LRO17U79I9TKUGYFV09C","","139","img/land3.png","76","141","3","1","1","1","0.8,0.2,0.2,0.2,0.8,0.2,0.2,0.2,0.8","0.8,0.2,0.2,0.2,0.8,0.2,0.2,0.2,0.8","1","",""
"","html-keyboard-response","127","57908","0.0-127.0","34S9DKFK74BBWI537THPSWF8NU4YN2","A3CT8UTPVYUL04","3UDTAB6HH6LRO17U79I9TKUGYFV09C","","null","<img src=""img/land3.png"" style=""width:200px; border:14px solid green;"">","null","","","","","","","","","",""
"","image-keyboard-response","128","57976","0.0-128.0","34S9DKFK74BBWI537THPSWF8NU4YN2","A3CT8UTPVYUL04","3UDTAB6HH6LRO17U79I9TKUGYFV09C","","68","img/land6.png","76","68","3","0","2","1","0.8,0.2,0.2,0.2,0.8,0.2,0.2,0.2,0.8","0.8,0.2,0.2,0.2,0.8,0.2,0.2,0.2,0.8","1","",""
"","html-keyboard-response","129","58294","0.0-129.0","34S9DKFK74BBWI537THPSWF8NU4YN2","A3CT8UTPVYUL04","3UDTAB6HH6LRO17U79I9TKUGYFV09C","","null","<img src=""img/land6.png"" style=""width:200px;border:14px solid red;"">","null","","","","","","","","","",""
"","image-keyboard-response","130","58455","0.0-130.0","34S9DKFK74BBWI537THPSWF8NU4YN2","A3CT8UTPVYUL04","3UDTAB6HH6LRO17U79I9TKUGYFV09C","","162","img/land2.png","76","162","3","1","3","1","0.8,0.2,0.2,0.2,0.8,0.2,0.2,0.2,0.8","0.8,0.2,0.2,0.2,0.8,0.2,0.2,0.2,0.8","1","",""
"","html-keyboard-response","131","58757","0.0-131.0","34S9DKFK74BBWI537THPSWF8NU4YN2","A3CT8UTPVYUL04","3UDTAB6HH6LRO17U79I9TKUGYFV09C","","null","<img src=""img/land2.png"" style=""width:200px; border:14px solid green;"">","null","","","","","","","","","",""
"","image-keyboard-response","132","58776","0.0-132.0","34S9DKFK74BBWI537THPSWF8NU4YN2","A3CT8UTPVYUL04","3UDTAB6HH6LRO17U79I9TKUGYFV09C","","18","img/land6.png","74","19","1","1","2","1","0.8,0.2,0.2,0.2,0.8,0.2,0.2,0.2,0.8","0.8,0.2,0.2,0.2,0.8,0.2,0.2,0.2,0.8","1","",""
"","html-keyboard-response","133","59097","0.0-133.0","34S9DKFK74BBWI537THPSWF8NU4YN2","A3CT8UTPVYUL04","3UDTAB6HH6LRO17U79I9TKUGYFV09C","","null","<img src=""img/land6.png"" style=""width:200px; border:14px solid green;"">","null","","","","","","","","","",""
"","image-keyboard-response","134","59119","0.0-134.0","34S9DKFK74BBWI537THPSWF8NU4YN2","A3CT8UTPVYUL04","3UDTAB6HH6LRO17U79I9TKUGYFV09C","","21","img/land6.png","74","22","1","0","2","1","0.8,0.2,0.2,0.2,0.8,0.2,0.2,0.2,0.8","0.8,0.2,0.2,0.2,0.8,0.2,0.2,0.2,0.8","1","",""
"","html-keyboard-response","135","59446","0.0-135.0","34S9DKFK74BBWI537THPSWF8NU4YN2","A3CT8UTPVYUL04","3UDTAB6HH6LRO17U79I9TKUGYFV09C","","null","<img src=""img/land6.png"" style=""width:200px;border:14px solid red;"">","null","","","","","","","","","",""
"","image-keyboard-response","136","59655","0.0-136.0","34S9DKFK74BBWI537THPSWF8NU4YN2","A3CT8UTPVYUL04","3UDTAB6HH6LRO17U79I9TKUGYFV09C","","209","img/land2.png","76","209","3","1","3","1","0.8,0.2,0.2,0.2,0.8,0.2,0.2,0.2,0.8","0.8,0.2,0.2,0.2,0.8,0.2,0.2,0.2,0.8","1","",""
"","html-keyboard-response","137","59964","0.0-137.0","34S9DKFK74BBWI537THPSWF8NU4YN2","A3CT8UTPVYUL04","3UDTAB6HH6LRO17U79I9TKUGYFV09C","","null","<img src=""img/land2.png"" style=""width:200px; border:14px solid green;"">","null","","","","","","","","","",""
"","image-keyboard-response","138","59991","0.0-138.0","34S9DKFK74BBWI537THPSWF8NU4YN2","A3CT8UTPVYUL04","3UDTAB6HH6LRO17U79I9TKUGYFV09C","","26","img/land2.png","76","26","3","1","3","1","0.8,0.2,0.2,0.2,0.8,0.2,0.2,0.2,0.8","0.8,0.2,0.2,0.2,0.8,0.2,0.2,0.2,0.8","1","",""
"","html-keyboard-response","139","60305","0.0-139.0","34S9DKFK74BBWI537THPSWF8NU4YN2","A3CT8UTPVYUL04","3UDTAB6HH6LRO17U79I9TKUGYFV09C","","null","<img src=""img/land2.png"" style=""width:200px; border:14px solid green;"">","null","","","","","","","","","",""
"","image-keyboard-response","140","60319","0.0-140.0","34S9DKFK74BBWI537THPSWF8NU4YN2","A3CT8UTPVYUL04","3UDTAB6HH6LRO17U79I9TKUGYFV09C","","13","img/land3.png","76","13","3","1","1","1","0.8,0.2,0.2,0.2,0.8,0.2,0.2,0.2,0.8","0.8,0.2,0.2,0.2,0.8,0.2,0.2,0.2,0.8","1","",""
"","html-keyboard-response","141","60622","0.0-141.0","34S9DKFK74BBWI537THPSWF8NU4YN2","A3CT8UTPVYUL04","3UDTAB6HH6LRO17U79I9TKUGYFV09C","","null","<img src=""img/land3.png"" style=""width:200px; border:14px solid green;"">","null","","","","","","","","","",""
"","image-keyboard-response","142","60695","0.0-142.0","34S9DKFK74BBWI537THPSWF8NU4YN2","A3CT8UTPVYUL04","3UDTAB6HH6LRO17U79I9TKUGYFV09C","","72","img/land6.png","76","73","3","0","2","1","0.8,0.2,0.2,0.2,0.8,0.2,0.2,0.2,0.8","0.8,0.2,0.2,0.2,0.8,0.2,0.2,0.2,0.8","1","",""
"","html-keyboard-response","143","61010","0.0-143.0","34S9DKFK74BBWI537THPSWF8NU4YN2","A3CT8UTPVYUL04","3UDTAB6HH6LRO17U79I9TKUGYFV09C","","null","<img src=""img/land6.png"" style=""width:200px;border:14px solid red;"">","null","","","","","","","","","",""
"","image-keyboard-response","144","61391","0.0-144.0","34S9DKFK74BBWI537THPSWF8NU4YN2","A3CT8UTPVYUL04","3UDTAB6HH6LRO17U79I9TKUGYFV09C","","379","img/land3.png","76","379","3","0","1","1","0.8,0.2,0.2,0.2,0.8,0.2,0.2,0.2,0.8","0.8,0.2,0.2,0.2,0.8,0.2,0.2,0.2,0.8","1","",""
"","html-keyboard-response","145","61714","0.0-145.0","34S9DKFK74BBWI537THPSWF8NU4YN2","A3CT8UTPVYUL04","3UDTAB6HH6LRO17U79I9TKUGYFV09C","","null","<img src=""img/land3.png"" style=""width:200px;border:14px solid red;"">","null","","","","","","","","","",""
"","image-keyboard-response","146","61798","0.0-146.0","34S9DKFK74BBWI537THPSWF8NU4YN2","A3CT8UTPVYUL04","3UDTAB6HH6LRO17U79I9TKUGYFV09C","","84","img/land2.png","74","84","1","1","3","1","0.8,0.2,0.2,0.2,0.8,0.2,0.2,0.2,0.8","0.8,0.2,0.2,0.2,0.8,0.2,0.2,0.2,0.8","1","",""
"","html-keyboard-response","147","62117","0.0-147.0","34S9DKFK74BBWI537THPSWF8NU4YN2","A3CT8UTPVYUL04","3UDTAB6HH6LRO17U79I9TKUGYFV09C","","null","<img src=""img/land2.png"" style=""width:200px; border:14px solid green;"">","null","","","","","","","","","",""
"","image-keyboard-response","148","62367","0.0-148.0","34S9DKFK74BBWI537THPSWF8NU4YN2","A3CT8UTPVYUL04","3UDTAB6HH6LRO17U79I9TKUGYFV09C","","249","img/land3.png","75","249","2","1","1","1","0.8,0.2,0.2,0.2,0.8,0.2,0.2,0.2,0.8","0.8,0.2,0.2,0.2,0.8,0.2,0.2,0.2,0.8","1","",""
"","html-keyboard-response","149","62682","0.0-149.0","34S9DKFK74BBWI537THPSWF8NU4YN2","A3CT8UTPVYUL04","3UDTAB6HH6LRO17U79I9TKUGYFV09C","","null","<img src=""img/land3.png"" style=""width:200px; border:14px solid green;"">","null","","","","","","","","","",""
"","image-keyboard-response","150","62758","0.0-150.0","34S9DKFK74BBWI537THPSWF8NU4YN2","A3CT8UTPVYUL04","3UDTAB6HH6LRO17U79I9TKUGYFV09C","","75","img/land3.png","76","76","3","0","1","1","0.8,0.2,0.2,0.2,0.8,0.2,0.2,0.2,0.8","0.8,0.2,0.2,0.2,0.8,0.2,0.2,0.2,0.8","1","",""
"","html-keyboard-response","151","63070","0.0-151.0","34S9DKFK74BBWI537THPSWF8NU4YN2","A3CT8UTPVYUL04","3UDTAB6HH6LRO17U79I9TKUGYFV09C","","null","<img src=""img/land3.png"" style=""width:200px;border:14px solid red;"">","null","","","","","","","","","",""
"","image-keyboard-response","152","63278","0.0-152.0","34S9DKFK74BBWI537THPSWF8NU4YN2","A3CT8UTPVYUL04","3UDTAB6HH6LRO17U79I9TKUGYFV09C","","208","img/land3.png","75","208","2","0","1","1","0.8,0.2,0.2,0.2,0.8,0.2,0.2,0.2,0.8","0.8,0.2,0.2,0.2,0.8,0.2,0.2,0.2,0.8","1","",""
"","html-keyboard-response","153","63590","0.0-153.0","34S9DKFK74BBWI537THPSWF8NU4YN2","A3CT8UTPVYUL04","3UDTAB6HH6LRO17U79I9TKUGYFV09C","","null","<img src=""img/land3.png"" style=""width:200px;border:14px solid red;"">","null","","","","","","","","","",""
"","image-keyboard-response","154","63878","0.0-154.0","34S9DKFK74BBWI537THPSWF8NU4YN2","A3CT8UTPVYUL04","3UDTAB6HH6LRO17U79I9TKUGYFV09C","","287","img/land2.png","74","287","1","0","3","1","0.8,0.2,0.2,0.2,0.8,0.2,0.2,0.2,0.8","0.8,0.2,0.2,0.2,0.8,0.2,0.2,0.2,0.8","1","",""
"","html-keyboard-response","155","64193","0.0-155.0","34S9DKFK74BBWI537THPSWF8NU4YN2","A3CT8UTPVYUL04","3UDTAB6HH6LRO17U79I9TKUGYFV09C","","null","<img src=""img/land2.png"" style=""width:200px;border:14px solid red;"">","null","","","","","","","","","",""
"","image-keyboard-response","156","64199","0.0-156.0","34S9DKFK74BBWI537THPSWF8NU4YN2","A3CT8UTPVYUL04","3UDTAB6HH6LRO17U79I9TKUGYFV09C","","5","img/land6.png","75","5","2","1","2","1","0.8,0.2,0.2,0.2,0.8,0.2,0.2,0.2,0.8","0.8,0.2,0.2,0.2,0.8,0.2,0.2,0.2,0.8","1","",""
"","html-keyboard-response","157","64511","0.0-157.0","34S9DKFK74BBWI537THPSWF8NU4YN2","A3CT8UTPVYUL04","3UDTAB6HH6LRO17U79I9TKUGYFV09C","","null","<img src=""img/land6.png"" style=""width:200px; border:14px solid green;"">","null","","","","","","","","","",""
"","image-keyboard-response","158","64767","0.0-158.0","34S9DKFK74BBWI537THPSWF8NU4YN2","A3CT8UTPVYUL04","3UDTAB6HH6LRO17U79I9TKUGYFV09C","","253","img/land3.png","75","255","2","0","1","1","0.8,0.2,0.2,0.2,0.8,0.2,0.2,0.2,0.8","0.8,0.2,0.2,0.2,0.8,0.2,0.2,0.2,0.8","1","",""
"","html-keyboard-response","159","65083","0.0-159.0","34S9DKFK74BBWI537THPSWF8NU4YN2","A3CT8UTPVYUL04","3UDTAB6HH6LRO17U79I9TKUGYFV09C","","null","<img src=""img/land3.png"" style=""width:200px;border:14px solid red;"">","null","","","","","","","","","",""
"","image-keyboard-response","160","65102","0.0-160.0","34S9DKFK74BBWI537THPSWF8NU4YN2","A3CT8UTPVYUL04","3UDTAB6HH6LRO17U79I9TKUGYFV09C","","19","img/land2.png","75","20","2","1","3","1","0.8,0.2,0.2,0.2,0.8,0.2,0.2,0.2,0.8","0.8,0.2,0.2,0.2,0.8,0.2,0.2,0.2,0.8","1","",""
"","html-keyboard-response","161","65424","0.0-161.0","34S9DKFK74BBWI537THPSWF8NU4YN2","A3CT8UTPVYUL04","3UDTAB6HH6LRO17U79I9TKUGYFV09C","","null","<img src=""img/land2.png"" style=""width:200px; border:14px solid green;"">","null","","","","","","","","","",""
"","image-keyboard-response","162","65470","0.0-162.0","34S9DKFK74BBWI537THPSWF8NU4YN2","A3CT8UTPVYUL04","3UDTAB6HH6LRO17U79I9TKUGYFV09C","","45","img/land6.png","75","46","2","0","2","1","0.8,0.2,0.2,0.2,0.8,0.2,0.2,0.2,0.8","0.8,0.2,0.2,0.2,0.8,0.2,0.2,0.2,0.8","1","",""
"","html-keyboard-response","163","65772","0.0-163.0","34S9DKFK74BBWI537THPSWF8NU4YN2","A3CT8UTPVYUL04","3UDTAB6HH6LRO17U79I9TKUGYFV09C","","null","<img src=""img/land6.png"" style=""width:200px;border:14px solid red;"">","null","","","","","","","","","",""
"","image-keyboard-response","164","65822","0.0-164.0","34S9DKFK74BBWI537THPSWF8NU4YN2","A3CT8UTPVYUL04","3UDTAB6HH6LRO17U79I9TKUGYFV09C","","49","img/land6.png","75","49","2","1","2","1","0.8,0.2,0.2,0.2,0.8,0.2,0.2,0.2,0.8","0.8,0.2,0.2,0.2,0.8,0.2,0.2,0.2,0.8","1","",""
"","html-keyboard-response","165","66127","0.0-165.0","34S9DKFK74BBWI537THPSWF8NU4YN2","A3CT8UTPVYUL04","3UDTAB6HH6LRO17U79I9TKUGYFV09C","","null","<img src=""img/land6.png"" style=""width:200px; border:14px solid green;"">","null","","","","","","","","","",""
"","image-keyboard-response","166","66342","0.0-166.0","34S9DKFK74BBWI537THPSWF8NU4YN2","A3CT8UTPVYUL04","3UDTAB6HH6LRO17U79I9TKUGYFV09C","","213","img/land3.png","74","214","1","1","1","1","0.8,0.2,0.2,0.2,0.8,0.2,0.2,0.2,0.8","0.8,0.2,0.2,0.2,0.8,0.2,0.2,0.2,0.8","1","",""
"","html-keyboard-response","167","66648","0.0-167.0","34S9DKFK74BBWI537THPSWF8NU4YN2","A3CT8UTPVYUL04","3UDTAB6HH6LRO17U79I9TKUGYFV09C","","null","<img src=""img/land3.png"" style=""width:200px; border:14px solid green;"">","null","","","","","","","","","",""
"","image-keyboard-response","168","66870","0.0-168.0","34S9DKFK74BBWI537THPSWF8NU4YN2","A3CT8UTPVYUL04","3UDTAB6HH6LRO17U79I9TKUGYFV09C","","219","img/land6.png","74","221","1","0","2","1","0.8,0.2,0.2,0.2,0.8,0.2,0.2,0.2,0.8","0.8,0.2,0.2,0.2,0.8,0.2,0.2,0.2,0.8","1","",""
"","html-keyboard-response","169","67183","0.0-169.0","34S9DKFK74BBWI537THPSWF8NU4YN2","A3CT8UTPVYUL04","3UDTAB6HH6LRO17U79I9TKUGYFV09C","","null","<img src=""img/land6.png"" style=""width:200px;border:14px solid red;"">","null","","","","","","","","","",""
"","image-keyboard-response","170","67189","0.0-170.0","34S9DKFK74BBWI537THPSWF8NU4YN2","A3CT8UTPVYUL04","3UDTAB6HH6LRO17U79I9TKUGYFV09C","","6","img/land3.png","75","6","2","0","1","1","0.8,0.2,0.2,0.2,0.8,0.2,0.2,0.2,0.8","0.8,0.2,0.2,0.2,0.8,0.2,0.2,0.2,0.8","1","",""
"","html-keyboard-response","171","67501","0.0-171.0","34S9DKFK74BBWI537THPSWF8NU4YN2","A3CT8UTPVYUL04","3UDTAB6HH6LRO17U79I9TKUGYFV09C","","null","<img src=""img/land3.png"" style=""width:200px;border:14px solid red;"">","null","","","","","","","","","",""
"","image-keyboard-response","172","67653","0.0-172.0","34S9DKFK74BBWI537THPSWF8NU4YN2","A3CT8UTPVYUL04","3UDTAB6HH6LRO17U79I9TKUGYFV09C","","151","img/land3.png","76","151","3","0","1","1","0.8,0.2,0.2,0.2,0.8,0.2,0.2,0.2,0.8","0.8,0.2,0.2,0.2,0.8,0.2,0.2,0.2,0.8","1","",""
"","html-keyboard-response","173","67959","0.0-173.0","34S9DKFK74BBWI537THPSWF8NU4YN2","A3CT8UTPVYUL04","3UDTAB6HH6LRO17U79I9TKUGYFV09C","","null","<img src=""img/land3.png"" style=""width:200px;border:14px solid red;"">","null","","","","","","","","","",""
"","image-keyboard-response","174","68022","0.0-174.0","34S9DKFK74BBWI537THPSWF8NU4YN2","A3CT8UTPVYUL04","3UDTAB6HH6LRO17U79I9TKUGYFV09C","","61","img/land6.png","76","63","3","0","2","1","0.8,0.2,0.2,0.2,0.8,0.2,0.2,0.2,0.8","0.8,0.2,0.2,0.2,0.8,0.2,0.2,0.2,0.8","1","",""
"","html-keyboard-response","175","68322","0.0-175.0","34S9DKFK74BBWI537THPSWF8NU4YN2","A3CT8UTPVYUL04","3UDTAB6HH6LRO17U79I9TKUGYFV09C","","null","<img src=""img/land6.png"" style=""width:200px;border:14px solid red;"">","null","","","","","","","","","",""
"","image-keyboard-response","176","68453","0.0-176.0","34S9DKFK74BBWI537THPSWF8NU4YN2","A3CT8UTPVYUL04","3UDTAB6HH6LRO17U79I9TKUGYFV09C","","130","img/land6.png","76","131","3","1","2","1","0.8,0.2,0.2,0.2,0.8,0.2,0.2,0.2,0.8","0.8,0.2,0.2,0.2,0.8,0.2,0.2,0.2,0.8","1","",""
"","html-keyboard-response","177","68763","0.0-177.0","34S9DKFK74BBWI537THPSWF8NU4YN2","A3CT8UTPVYUL04","3UDTAB6HH6LRO17U79I9TKUGYFV09C","","null","<img src=""img/land6.png"" style=""width:200px; border:14px solid green;"">","null","","","","","","","","","",""
"","image-keyboard-response","178","68773","0.0-178.0","34S9DKFK74BBWI537THPSWF8NU4YN2","A3CT8UTPVYUL04","3UDTAB6HH6LRO17U79I9TKUGYFV09C","","9","img/land2.png","75","9","2","0","3","1","0.8,0.2,0.2,0.2,0.8,0.2,0.2,0.2,0.8","0.8,0.2,0.2,0.2,0.8,0.2,0.2,0.2,0.8","1","",""
"","html-keyboard-response","179","69080","0.0-179.0","34S9DKFK74BBWI537THPSWF8NU4YN2","A3CT8UTPVYUL04","3UDTAB6HH6LRO17U79I9TKUGYFV09C","","null","<img src=""img/land2.png"" style=""width:200px;border:14px solid red;"">","null","","","","","","","","","",""
"","image-keyboard-response","180","69349","0.0-180.0","34S9DKFK74BBWI537THPSWF8NU4YN2","A3CT8UTPVYUL04","3UDTAB6HH6LRO17U79I9TKUGYFV09C","","269","img/land3.png","76","269","3","0","1","1","0.8,0.2,0.2,0.2,0.8,0.2,0.2,0.2,0.8","0.8,0.2,0.2,0.2,0.8,0.2,0.2,0.2,0.8","1","",""
"","html-keyboard-response","181","69653","0.0-181.0","34S9DKFK74BBWI537THPSWF8NU4YN2","A3CT8UTPVYUL04","3UDTAB6HH6LRO17U79I9TKUGYFV09C","","null","<img src=""img/land3.png"" style=""width:200px;border:14px solid red;"">","null","","","","","","","","","",""
"","html-keyboard-response","182","72676","0.0-182.0","34S9DKFK74BBWI537THPSWF8NU4YN2","A3CT8UTPVYUL04","3UDTAB6HH6LRO17U79I9TKUGYFV09C","","","","","","","","","","","","","",""
"","image-keyboard-response","183","73708","0.0-183.0","34S9DKFK74BBWI537THPSWF8NU4YN2","A3CT8UTPVYUL04","3UDTAB6HH6LRO17U79I9TKUGYFV09C","","1029","img/land1.png","74","1031","1","0","3","2","0.8,0.2,0.2,0.2,0.8,0.2,0.2,0.2,0.8","0.2,0.2,0.8,0.8,0.2,0.2,0.2,0.8,0.2","2","",""
"","html-keyboard-response","184","74014","0.0-184.0","34S9DKFK74BBWI537THPSWF8NU4YN2","A3CT8UTPVYUL04","3UDTAB6HH6LRO17U79I9TKUGYFV09C","","null","<img src=""img/land1.png"" style=""width:200px;border:14px solid red;"">","null","","","","","","","","","",""
"","image-keyboard-response","185","74276","0.0-185.0","34S9DKFK74BBWI537THPSWF8NU4YN2","A3CT8UTPVYUL04","3UDTAB6HH6LRO17U79I9TKUGYFV09C","","260","img/land5.png","74","262","1","1","1","2","0.8,0.2,0.2,0.2,0.8,0.2,0.2,0.2,0.8","0.2,0.2,0.8,0.8,0.2,0.2,0.2,0.8,0.2","2","",""
"","html-keyboard-response","186","74580","0.0-186.0","34S9DKFK74BBWI537THPSWF8NU4YN2","A3CT8UTPVYUL04","3UDTAB6HH6LRO17U79I9TKUGYFV09C","","null","<img src=""img/land5.png"" style=""width:200px; border:14px solid green;"">","null","","","","","","","","","",""
"","image-keyboard-response","187","74607","0.0-187.0","34S9DKFK74BBWI537THPSWF8NU4YN2","A3CT8UTPVYUL04","3UDTAB6HH6LRO17U79I9TKUGYFV09C","","24","img/land4.png","76","25","3","1","2","2","0.8,0.2,0.2,0.2,0.8,0.2,0.2,0.2,0.8","0.2,0.2,0.8,0.8,0.2,0.2,0.2,0.8,0.2","2","",""
"","html-keyboard-response","188","74922","0.0-188.0","34S9DKFK74BBWI537THPSWF8NU4YN2","A3CT8UTPVYUL04","3UDTAB6HH6LRO17U79I9TKUGYFV09C","","null","<img src=""img/land4.png"" style=""width:200px; border:14px solid green;"">","null","","","","","","","","","",""
"","image-keyboard-response","189","74956","0.0-189.0","34S9DKFK74BBWI537THPSWF8NU4YN2","A3CT8UTPVYUL04","3UDTAB6HH6LRO17U79I9TKUGYFV09C","","33","img/land4.png","75","34","2","1","2","2","0.8,0.2,0.2,0.2,0.8,0.2,0.2,0.2,0.8","0.2,0.2,0.8,0.8,0.2,0.2,0.2,0.8,0.2","2","",""
"","html-keyboard-response","190","75285","0.0-190.0","34S9DKFK74BBWI537THPSWF8NU4YN2","A3CT8UTPVYUL04","3UDTAB6HH6LRO17U79I9TKUGYFV09C","","null","<img src=""img/land4.png"" style=""width:200px; border:14px solid green;"">","null","","","","","","","","","",""
"","image-keyboard-response","191","75339","0.0-191.0","34S9DKFK74BBWI537THPSWF8NU4YN2","A3CT8UTPVYUL04","3UDTAB6HH6LRO17U79I9TKUGYFV09C","","52","img/land4.png","74","53","1","1","2","2","0.8,0.2,0.2,0.2,0.8,0.2,0.2,0.2,0.8","0.2,0.2,0.8,0.8,0.2,0.2,0.2,0.8,0.2","2","",""
"","html-keyboard-response","192","75656","0.0-192.0","34S9DKFK74BBWI537THPSWF8NU4YN2","A3CT8UTPVYUL04","3UDTAB6HH6LRO17U79I9TKUGYFV09C","","null","<img src=""img/land4.png"" style=""width:200px; border:14px solid green;"">","null","","","","","","","","","",""
"","image-keyboard-response","193","75755","0.0-193.0","34S9DKFK74BBWI537THPSWF8NU4YN2","A3CT8UTPVYUL04","3UDTAB6HH6LRO17U79I9TKUGYFV09C","","99","img/land1.png","76","99","3","1","3","2","0.8,0.2,0.2,0.2,0.8,0.2,0.2,0.2,0.8","0.2,0.2,0.8,0.8,0.2,0.2,0.2,0.8,0.2","2","",""
"","html-keyboard-response","194","76057","0.0-194.0","34S9DKFK74BBWI537THPSWF8NU4YN2","A3CT8UTPVYUL04","3UDTAB6HH6LRO17U79I9TKUGYFV09C","","null","<img src=""img/land1.png"" style=""width:200px; border:14px solid green;"">","null","","","","","","","","","",""
"","image-keyboard-response","195","76227","0.0-195.0","34S9DKFK74BBWI537THPSWF8NU4YN2","A3CT8UTPVYUL04","3UDTAB6HH6LRO17U79I9TKUGYFV09C","","170","img/land5.png","74","170","1","0","1","2","0.8,0.2,0.2,0.2,0.8,0.2,0.2,0.2,0.8","0.2,0.2,0.8,0.8,0.2,0.2,0.2,0.8,0.2","2","",""
"","html-keyboard-response","196","76529","0.0-196.0","34S9DKFK74BBWI537THPSWF8NU4YN2","A3CT8UTPVYUL04","3UDTAB6HH6LRO17U79I9TKUGYFV09C","","null","<img src=""img/land5.png"" style=""width:200px;border:14px solid red;"">","null","","","","","","","","","",""
"","image-keyboard-response","197","76611","0.0-197.0","34S9DKFK74BBWI537THPSWF8NU4YN2","A3CT8UTPVYUL04","3UDTAB6HH6LRO17U79I9TKUGYFV09C","","81","img/land5.png","75","81","2","0","1","2","0.8,0.2,0.2,0.2,0.8,0.2,0.2,0.2,0.8","0.2,0.2,0.8,0.8,0.2,0.2,0.2,0.8,0.2","2","",""
"","html-keyboard-response","198","76912","0.0-198.0","34S9DKFK74BBWI537THPSWF8NU4YN2","A3CT8UTPVYUL04","3UDTAB6HH6LRO17U79I9TKUGYFV09C","","null","<img src=""img/land5.png"" style=""width:200px;border:14px solid red;"">","null","","","","","","","","","",""
"","image-keyboard-response","199","77019","0.0-199.0","34S9DKFK74BBWI537THPSWF8NU4YN2","A3CT8UTPVYUL04","3UDTAB6HH6LRO17U79I9TKUGYFV09C","","107","img/land4.png","74","107","1","1","2","2","0.8,0.2,0.2,0.2,0.8,0.2,0.2,0.2,0.8","0.2,0.2,0.8,0.8,0.2,0.2,0.2,0.8,0.2","2","",""
"","html-keyboard-response","200","77346","0.0-200.0","34S9DKFK74BBWI537THPSWF8NU4YN2","A3CT8UTPVYUL04","3UDTAB6HH6LRO17U79I9TKUGYFV09C","","null","<img src=""img/land4.png"" style=""width:200px; border:14px solid green;"">","null","","","","","","","","","",""
"","image-keyboard-response","201","77595","0.0-201.0","34S9DKFK74BBWI537THPSWF8NU4YN2","A3CT8UTPVYUL04","3UDTAB6HH6LRO17U79I9TKUGYFV09C","","248","img/land4.png","74","250","1","1","2","2","0.8,0.2,0.2,0.2,0.8,0.2,0.2,0.2,0.8","0.2,0.2,0.8,0.8,0.2,0.2,0.2,0.8,0.2","2","",""
"","html-keyboard-response","202","77918","0.0-202.0","34S9DKFK74BBWI537THPSWF8NU4YN2","A3CT8UTPVYUL04","3UDTAB6HH6LRO17U79I9TKUGYFV09C","","null","<img src=""img/land4.png"" style=""width:200px; border:14px solid green;"">","null","","","","","","","","","",""
"","image-keyboard-response","203","78098","0.0-203.0","34S9DKFK74BBWI537THPSWF8NU4YN2","A3CT8UTPVYUL04","3UDTAB6HH6LRO17U79I9TKUGYFV09C","","180","img/land5.png","74","180","1","0","1","2","0.8,0.2,0.2,0.2,0.8,0.2,0.2,0.2,0.8","0.2,0.2,0.8,0.8,0.2,0.2,0.2,0.8,0.2","2","",""
"","html-keyboard-response","204","78406","0.0-204.0","34S9DKFK74BBWI537THPSWF8NU4YN2","A3CT8UTPVYUL04","3UDTAB6HH6LRO17U79I9TKUGYFV09C","","null","<img src=""img/land5.png"" style=""width:200px;border:14px solid red;"">","null","","","","","","","","","",""
"","image-keyboard-response","205","78515","0.0-205.0","34S9DKFK74BBWI537THPSWF8NU4YN2","A3CT8UTPVYUL04","3UDTAB6HH6LRO17U79I9TKUGYFV09C","","108","img/land5.png","75","108","2","0","1","2","0.8,0.2,0.2,0.2,0.8,0.2,0.2,0.2,0.8","0.2,0.2,0.8,0.8,0.2,0.2,0.2,0.8,0.2","2","",""
"","html-keyboard-response","206","78827","0.0-206.0","34S9DKFK74BBWI537THPSWF8NU4YN2","A3CT8UTPVYUL04","3UDTAB6HH6LRO17U79I9TKUGYFV09C","","null","<img src=""img/land5.png"" style=""width:200px;border:14px solid red;"">","null","","","","","","","","","",""
"","image-keyboard-response","207","78883","0.0-207.0","34S9DKFK74BBWI537THPSWF8NU4YN2","A3CT8UTPVYUL04","3UDTAB6HH6LRO17U79I9TKUGYFV09C","","55","img/land5.png","76","56","3","0","1","2","0.8,0.2,0.2,0.2,0.8,0.2,0.2,0.2,0.8","0.2,0.2,0.8,0.8,0.2,0.2,0.2,0.8,0.2","2","",""
"","html-keyboard-response","208","79191","0.0-208.0","34S9DKFK74BBWI537THPSWF8NU4YN2","A3CT8UTPVYUL04","3UDTAB6HH6LRO17U79I9TKUGYFV09C","","null","<img src=""img/land5.png"" style=""width:200px;border:14px solid red;"">","null","","","","","","","","","",""
"","image-keyboard-response","209","79274","0.0-209.0","34S9DKFK74BBWI537THPSWF8NU4YN2","A3CT8UTPVYUL04","3UDTAB6HH6LRO17U79I9TKUGYFV09C","","83","img/land5.png","76","84","3","1","1","2","0.8,0.2,0.2,0.2,0.8,0.2,0.2,0.2,0.8","0.2,0.2,0.8,0.8,0.2,0.2,0.2,0.8,0.2","2","",""
"","html-keyboard-response","210","79576","0.0-210.0","34S9DKFK74BBWI537THPSWF8NU4YN2","A3CT8UTPVYUL04","3UDTAB6HH6LRO17U79I9TKUGYFV09C","","null","<img src=""img/land5.png"" style=""width:200px; border:14px solid green;"">","null","","","","","","","","","",""
"","image-keyboard-response","211","79722","0.0-211.0","34S9DKFK74BBWI537THPSWF8NU4YN2","A3CT8UTPVYUL04","3UDTAB6HH6LRO17U79I9TKUGYFV09C","","146","img/land5.png","74","146","1","0","1","2","0.8,0.2,0.2,0.2,0.8,0.2,0.2,0.2,0.8","0.2,0.2,0.8,0.8,0.2,0.2,0.2,0.8,0.2","2","",""
"","html-keyboard-response","212","80031","0.0-212.0","34S9DKFK74BBWI537THPSWF8NU4YN2","A3CT8UTPVYUL04","3UDTAB6HH6LRO17U79I9TKUGYFV09C","","null","<img src=""img/land5.png"" style=""width:200px;border:14px solid red;"">","null","","","","","","","","","",""
"","image-keyboard-response","213","80083","0.0-213.0","34S9DKFK74BBWI537THPSWF8NU4YN2","A3CT8UTPVYUL04","3UDTAB6HH6LRO17U79I9TKUGYFV09C","","51","img/land5.png","76","51","3","0","1","2","0.8,0.2,0.2,0.2,0.8,0.2,0.2,0.2,0.8","0.2,0.2,0.8,0.8,0.2,0.2,0.2,0.8,0.2","2","",""
"","html-keyboard-response","214","80396","0.0-214.0","34S9DKFK74BBWI537THPSWF8NU4YN2","A3CT8UTPVYUL04","3UDTAB6HH6LRO17U79I9TKUGYFV09C","","null","<img src=""img/land5.png"" style=""width:200px;border:14px solid red;"">","null","","","","","","","","","",""
"","image-keyboard-response","215","80450","0.0-215.0","34S9DKFK74BBWI537THPSWF8NU4YN2","A3CT8UTPVYUL04","3UDTAB6HH6LRO17U79I9TKUGYFV09C","","53","img/land5.png","76","54","3","1","1","2","0.8,0.2,0.2,0.2,0.8,0.2,0.2,0.2,0.8","0.2,0.2,0.8,0.8,0.2,0.2,0.2,0.8,0.2","2","",""
"","html-keyboard-response","216","80753","0.0-216.0","34S9DKFK74BBWI537THPSWF8NU4YN2","A3CT8UTPVYUL04","3UDTAB6HH6LRO17U79I9TKUGYFV09C","","null","<img src=""img/land5.png"" style=""width:200px; border:14px solid green;"">","null","","","","","","","","","",""
"","image-keyboard-response","217","80946","0.0-217.0","34S9DKFK74BBWI537THPSWF8NU4YN2","A3CT8UTPVYUL04","3UDTAB6HH6LRO17U79I9TKUGYFV09C","","193","img/land4.png","76","193","3","0","2","2","0.8,0.2,0.2,0.2,0.8,0.2,0.2,0.2,0.8","0.2,0.2,0.8,0.8,0.2,0.2,0.2,0.8,0.2","2","",""
"","html-keyboard-response","218","81255","0.0-218.0","34S9DKFK74BBWI537THPSWF8NU4YN2","A3CT8UTPVYUL04","3UDTAB6HH6LRO17U79I9TKUGYFV09C","","null","<img src=""img/land4.png"" style=""width:200px;border:14px solid red;"">","null","","","","","","","","","",""
"","image-keyboard-response","219","81274","0.0-219.0","34S9DKFK74BBWI537THPSWF8NU4YN2","A3CT8UTPVYUL04","3UDTAB6HH6LRO17U79I9TKUGYFV09C","","18","img/land5.png","74","19","1","0","1","2","0.8,0.2,0.2,0.2,0.8,0.2,0.2,0.2,0.8","0.2,0.2,0.8,0.8,0.2,0.2,0.2,0.8,0.2","2","",""
"","html-keyboard-response","220","81590","0.0-220.0","34S9DKFK74BBWI537THPSWF8NU4YN2","A3CT8UTPVYUL04","3UDTAB6HH6LRO17U79I9TKUGYFV09C","","null","<img src=""img/land5.png"" style=""width:200px;border:14px solid red;"">","null","","","","","","","","","",""
"","image-keyboard-response","221","81713","0.0-221.0","34S9DKFK74BBWI537THPSWF8NU4YN2","A3CT8UTPVYUL04","3UDTAB6HH6LRO17U79I9TKUGYFV09C","","124","img/land5.png","76","124","3","0","1","2","0.8,0.2,0.2,0.2,0.8,0.2,0.2,0.2,0.8","0.2,0.2,0.8,0.8,0.2,0.2,0.2,0.8,0.2","2","",""
"","html-keyboard-response","222","82044","0.0-222.0","34S9DKFK74BBWI537THPSWF8NU4YN2","A3CT8UTPVYUL04","3UDTAB6HH6LRO17U79I9TKUGYFV09C","","null","<img src=""img/land5.png"" style=""width:200px;border:14px solid red;"">","null","","","","","","","","","",""
"","image-keyboard-response","223","82114","0.0-223.0","34S9DKFK74BBWI537THPSWF8NU4YN2","A3CT8UTPVYUL04","3UDTAB6HH6LRO17U79I9TKUGYFV09C","","69","img/land4.png","74","70","1","0","2","2","0.8,0.2,0.2,0.2,0.8,0.2,0.2,0.2,0.8","0.2,0.2,0.8,0.8,0.2,0.2,0.2,0.8,0.2","2","",""
"","html-keyboard-response","224","82426","0.0-224.0","34S9DKFK74BBWI537THPSWF8NU4YN2","A3CT8UTPVYUL04","3UDTAB6HH6LRO17U79I9TKUGYFV09C","","null","<img src=""img/land4.png"" style=""width:200px;border:14px solid red;"">","null","","","","","","","","","",""
"","image-keyboard-response","225","82532","0.0-225.0","34S9DKFK74BBWI537THPSWF8NU4YN2","A3CT8UTPVYUL04","3UDTAB6HH6LRO17U79I9TKUGYFV09C","","105","img/land5.png","74","105","1","0","1","2","0.8,0.2,0.2,0.2,0.8,0.2,0.2,0.2,0.8","0.2,0.2,0.8,0.8,0.2,0.2,0.2,0.8,0.2","2","",""
"","html-keyboard-response","226","82850","0.0-226.0","34S9DKFK74BBWI537THPSWF8NU4YN2","A3CT8UTPVYUL04","3UDTAB6HH6LRO17U79I9TKUGYFV09C","","null","<img src=""img/land5.png"" style=""width:200px;border:14px solid red;"">","null","","","","","","","","","",""
"","image-keyboard-response","227","82865","0.0-227.0","34S9DKFK74BBWI537THPSWF8NU4YN2","A3CT8UTPVYUL04","3UDTAB6HH6LRO17U79I9TKUGYFV09C","","14","img/land1.png","76","15","3","0","3","2","0.8,0.2,0.2,0.2,0.8,0.2,0.2,0.2,0.8","0.2,0.2,0.8,0.8,0.2,0.2,0.2,0.8,0.2","2","",""
"","html-keyboard-response","228","83166","0.0-228.0","34S9DKFK74BBWI537THPSWF8NU4YN2","A3CT8UTPVYUL04","3UDTAB6HH6LRO17U79I9TKUGYFV09C","","null","<img src=""img/land1.png"" style=""width:200px;border:14px solid red;"">","null","","","","","","","","","",""
"","image-keyboard-response","229","83209","0.0-229.0","34S9DKFK74BBWI537THPSWF8NU4YN2","A3CT8UTPVYUL04","3UDTAB6HH6LRO17U79I9TKUGYFV09C","","43","img/land1.png","74","43","1","1","3","2","0.8,0.2,0.2,0.2,0.8,0.2,0.2,0.2,0.8","0.2,0.2,0.8,0.8,0.2,0.2,0.2,0.8,0.2","2","",""
"","html-keyboard-response","230","83531","0.0-230.0","34S9DKFK74BBWI537THPSWF8NU4YN2","A3CT8UTPVYUL04","3UDTAB6HH6LRO17U79I9TKUGYFV09C","","null","<img src=""img/land1.png"" style=""width:200px; border:14px solid green;"">","null","","","","","","","","","",""
"","image-keyboard-response","231","83737","0.0-231.0","34S9DKFK74BBWI537THPSWF8NU4YN2","A3CT8UTPVYUL04","3UDTAB6HH6LRO17U79I9TKUGYFV09C","","205","img/land5.png","76","206","3","1","1","2","0.8,0.2,0.2,0.2,0.8,0.2,0.2,0.2,0.8","0.2,0.2,0.8,0.8,0.2,0.2,0.2,0.8,0.2","2","",""
"","html-keyboard-response","232","84054","0.0-232.0","34S9DKFK74BBWI537THPSWF8NU4YN2","A3CT8UTPVYUL04","3UDTAB6HH6LRO17U79I9TKUGYFV09C","","null","<img src=""img/land5.png"" style=""width:200px; border:14px solid green;"">","null","","","","","","","","","",""
"","image-keyboard-response","233","84217","0.0-233.0","34S9DKFK74BBWI537THPSWF8NU4YN2","A3CT8UTPVYUL04","3UDTAB6HH6LRO17U79I9TKUGYFV09C","","162","img/land5.png","74","162","1","0","1","2","0.8,0.2,0.2,0.2,0.8,0.2,0.2,0.2,0.8","0.2,0.2,0.8,0.8,0.2,0.2,0.2,0.8,0.2","2","",""
"","html-keyboard-response","234","84518","0.0-234.0","34S9DKFK74BBWI537THPSWF8NU4YN2","A3CT8UTPVYUL04","3UDTAB6HH6LRO17U79I9TKUGYFV09C","","null","<img src=""img/land5.png"" style=""width:200px;border:14px solid red;"">","null","","","","","","","","","",""
"","image-keyboard-response","235","84617","0.0-235.0","34S9DKFK74BBWI537THPSWF8NU4YN2","A3CT8UTPVYUL04","3UDTAB6HH6LRO17U79I9TKUGYFV09C","","97","img/land5.png","75","98","2","0","1","2","0.8,0.2,0.2,0.2,0.8,0.2,0.2,0.2,0.8","0.2,0.2,0.8,0.8,0.2,0.2,0.2,0.8,0.2","2","",""
"","html-keyboard-response","236","84921","0.0-236.0","34S9DKFK74BBWI537THPSWF8NU4YN2","A3CT8UTPVYUL04","3UDTAB6HH6LRO17U79I9TKUGYFV09C","","null","<img src=""img/land5.png"" style=""width:200px;border:14px solid red;"">","null","","","","","","","","","",""
"","image-keyboard-response","237","84953","0.0-237.0","34S9DKFK74BBWI537THPSWF8NU4YN2","A3CT8UTPVYUL04","3UDTAB6HH6LRO17U79I9TKUGYFV09C","","30","img/land4.png","75","31","2","0","2","2","0.8,0.2,0.2,0.2,0.8,0.2,0.2,0.2,0.8","0.2,0.2,0.8,0.8,0.2,0.2,0.2,0.8,0.2","2","",""
"","html-keyboard-response","238","85261","0.0-238.0","34S9DKFK74BBWI537THPSWF8NU4YN2","A3CT8UTPVYUL04","3UDTAB6HH6LRO17U79I9TKUGYFV09C","","null","<img src=""img/land4.png"" style=""width:200px;border:14px solid red;"">","null","","","","","","","","","",""
"","image-keyboard-response","239","85337","0.0-239.0","34S9DKFK74BBWI537THPSWF8NU4YN2","A3CT8UTPVYUL04","3UDTAB6HH6LRO17U79I9TKUGYFV09C","","76","img/land5.png","74","76","1","1","1","2","0.8,0.2,0.2,0.2,0.8,0.2,0.2,0.2,0.8","0.2,0.2,0.8,0.8,0.2,0.2,0.2,0.8,0.2","2","",""
"","html-keyboard-response","240","85642","0.0-240.0","34S9DKFK74BBWI537THPSWF8NU4YN2","A3CT8UTPVYUL04","3UDTAB6HH6LRO17U79I9TKUGYFV09C","","null","<img src=""img/land5.png"" style=""width:200px; border:14px solid green;"">","null","","","","","","","","","",""
"","image-keyboard-response","241","85643","0.0-241.0","34S9DKFK74BBWI537THPSWF8NU4YN2","A3CT8UTPVYUL04","3UDTAB6HH6LRO17U79I9TKUGYFV09C","","0","img/land5.png","75","1","2","0","1","2","0.8,0.2,0.2,0.2,0.8,0.2,0.2,0.2,0.8","0.2,0.2,0.8,0.8,0.2,0.2,0.2,0.8,0.2","2","",""
"","html-keyboard-response","242","85948","0.0-242.0","34S9DKFK74BBWI537THPSWF8NU4YN2","A3CT8UTPVYUL04","3UDTAB6HH6LRO17U79I9TKUGYFV09C","","null","<img src=""img/land5.png"" style=""width:200px;border:14px solid red;"">","null","","","","","","","","","",""
"","image-keyboard-response","243","85960","0.0-243.0","34S9DKFK74BBWI537THPSWF8NU4YN2","A3CT8UTPVYUL04","3UDTAB6HH6LRO17U79I9TKUGYFV09C","","12","img/land5.png","76","13","3","0","1","2","0.8,0.2,0.2,0.2,0.8,0.2,0.2,0.2,0.8","0.2,0.2,0.8,0.8,0.2,0.2,0.2,0.8,0.2","2","",""
"","html-keyboard-response","244","86265","0.0-244.0","34S9DKFK74BBWI537THPSWF8NU4YN2","A3CT8UTPVYUL04","3UDTAB6HH6LRO17U79I9TKUGYFV09C","","null","<img src=""img/land5.png"" style=""width:200px;border:14px solid red;"">","null","","","","","","","","","",""
"","image-keyboard-response","245","86320","0.0-245.0","34S9DKFK74BBWI537THPSWF8NU4YN2","A3CT8UTPVYUL04","3UDTAB6HH6LRO17U79I9TKUGYFV09C","","55","img/land5.png","76","55","3","1","1","2","0.8,0.2,0.2,0.2,0.8,0.2,0.2,0.2,0.8","0.2,0.2,0.8,0.8,0.2,0.2,0.2,0.8,0.2","2","",""
"","html-keyboard-response","246","86645","0.0-246.0","34S9DKFK74BBWI537THPSWF8NU4YN2","A3CT8UTPVYUL04","3UDTAB6HH6LRO17U79I9TKUGYFV09C","","null","<img src=""img/land5.png"" style=""width:200px; border:14px solid green;"">","null","","","","","","","","","",""
"","image-keyboard-response","247","86697","0.0-247.0","34S9DKFK74BBWI537THPSWF8NU4YN2","A3CT8UTPVYUL04","3UDTAB6HH6LRO17U79I9TKUGYFV09C","","51","img/land5.png","76","53","3","1","1","2","0.8,0.2,0.2,0.2,0.8,0.2,0.2,0.2,0.8","0.2,0.2,0.8,0.8,0.2,0.2,0.2,0.8,0.2","2","",""
"","html-keyboard-response","248","87001","0.0-248.0","34S9DKFK74BBWI537THPSWF8NU4YN2","A3CT8UTPVYUL04","3UDTAB6HH6LRO17U79I9TKUGYFV09C","","null","<img src=""img/land5.png"" style=""width:200px; border:14px solid green;"">","null","","","","","","","","","",""
"","image-keyboard-response","249","87088","0.0-249.0","34S9DKFK74BBWI537THPSWF8NU4YN2","A3CT8UTPVYUL04","3UDTAB6HH6LRO17U79I9TKUGYFV09C","","88","img/land5.png","76","88","3","1","1","2","0.8,0.2,0.2,0.2,0.8,0.2,0.2,0.2,0.8","0.2,0.2,0.8,0.8,0.2,0.2,0.2,0.8,0.2","2","",""
"","html-keyboard-response","250","87418","0.0-250.0","34S9DKFK74BBWI537THPSWF8NU4YN2","A3CT8UTPVYUL04","3UDTAB6HH6LRO17U79I9TKUGYFV09C","","null","<img src=""img/land5.png"" style=""width:200px; border:14px solid green;"">","null","","","","","","","","","",""
"","image-keyboard-response","251","87536","0.0-251.0","34S9DKFK74BBWI537THPSWF8NU4YN2","A3CT8UTPVYUL04","3UDTAB6HH6LRO17U79I9TKUGYFV09C","","118","img/land5.png","74","118","1","0","1","2","0.8,0.2,0.2,0.2,0.8,0.2,0.2,0.2,0.8","0.2,0.2,0.8,0.8,0.2,0.2,0.2,0.8,0.2","2","",""
"","html-keyboard-response","252","87852","0.0-252.0","34S9DKFK74BBWI537THPSWF8NU4YN2","A3CT8UTPVYUL04","3UDTAB6HH6LRO17U79I9TKUGYFV09C","","null","<img src=""img/land5.png"" style=""width:200px;border:14px solid red;"">","null","","","","","","","","","",""
"","image-keyboard-response","253","87881","0.0-253.0","34S9DKFK74BBWI537THPSWF8NU4YN2","A3CT8UTPVYUL04","3UDTAB6HH6LRO17U79I9TKUGYFV09C","","29","img/land5.png","74","30","1","1","1","2","0.8,0.2,0.2,0.2,0.8,0.2,0.2,0.2,0.8","0.2,0.2,0.8,0.8,0.2,0.2,0.2,0.8,0.2","2","",""
"","html-keyboard-response","254","88193","0.0-254.0","34S9DKFK74BBWI537THPSWF8NU4YN2","A3CT8UTPVYUL04","3UDTAB6HH6LRO17U79I9TKUGYFV09C","","null","<img src=""img/land5.png"" style=""width:200px; border:14px solid green;"">","null","","","","","","","","","",""
"","image-keyboard-response","255","88264","0.0-255.0","34S9DKFK74BBWI537THPSWF8NU4YN2","A3CT8UTPVYUL04","3UDTAB6HH6LRO17U79I9TKUGYFV09C","","70","img/land5.png","76","70","3","1","1","2","0.8,0.2,0.2,0.2,0.8,0.2,0.2,0.2,0.8","0.2,0.2,0.8,0.8,0.2,0.2,0.2,0.8,0.2","2","",""
"","html-keyboard-response","256","88579","0.0-256.0","34S9DKFK74BBWI537THPSWF8NU4YN2","A3CT8UTPVYUL04","3UDTAB6HH6LRO17U79I9TKUGYFV09C","","null","<img src=""img/land5.png"" style=""width:200px; border:14px solid green;"">","null","","","","","","","","","",""
"","image-keyboard-response","257","88585","0.0-257.0","34S9DKFK74BBWI537THPSWF8NU4YN2","A3CT8UTPVYUL04","3UDTAB6HH6LRO17U79I9TKUGYFV09C","","5","img/land5.png","74","6","1","0","1","2","0.8,0.2,0.2,0.2,0.8,0.2,0.2,0.2,0.8","0.2,0.2,0.8,0.8,0.2,0.2,0.2,0.8,0.2","2","",""
"","html-keyboard-response","258","88897","0.0-258.0","34S9DKFK74BBWI537THPSWF8NU4YN2","A3CT8UTPVYUL04","3UDTAB6HH6LRO17U79I9TKUGYFV09C","","null","<img src=""img/land5.png"" style=""width:200px;border:14px solid red;"">","null","","","","","","","","","",""
"","image-keyboard-response","259","89103","0.0-259.0","34S9DKFK74BBWI537THPSWF8NU4YN2","A3CT8UTPVYUL04","3UDTAB6HH6LRO17U79I9TKUGYFV09C","","205","img/land5.png","76","207","3","1","1","2","0.8,0.2,0.2,0.2,0.8,0.2,0.2,0.2,0.8","0.2,0.2,0.8,0.8,0.2,0.2,0.2,0.8,0.2","2","",""
"","html-keyboard-response","260","89431","0.0-260.0","34S9DKFK74BBWI537THPSWF8NU4YN2","A3CT8UTPVYUL04","3UDTAB6HH6LRO17U79I9TKUGYFV09C","","null","<img src=""img/land5.png"" style=""width:200px; border:14px solid green;"">","null","","","","","","","","","",""
"","image-keyboard-response","261","89433","0.0-261.0","34S9DKFK74BBWI537THPSWF8NU4YN2","A3CT8UTPVYUL04","3UDTAB6HH6LRO17U79I9TKUGYFV09C","","1","img/land4.png","76","3","3","0","2","2","0.8,0.2,0.2,0.2,0.8,0.2,0.2,0.2,0.8","0.2,0.2,0.8,0.8,0.2,0.2,0.2,0.8,0.2","2","",""
"","html-keyboard-response","262","89749","0.0-262.0","34S9DKFK74BBWI537THPSWF8NU4YN2","A3CT8UTPVYUL04","3UDTAB6HH6LRO17U79I9TKUGYFV09C","","null","<img src=""img/land4.png"" style=""width:200px;border:14px solid red;"">","null","","","","","","","","","",""
"","image-keyboard-response","263","89896","0.0-263.0","34S9DKFK74BBWI537THPSWF8NU4YN2","A3CT8UTPVYUL04","3UDTAB6HH6LRO17U79I9TKUGYFV09C","","147","img/land5.png","76","147","3","1","1","2","0.8,0.2,0.2,0.2,0.8,0.2,0.2,0.2,0.8","0.2,0.2,0.8,0.8,0.2,0.2,0.2,0.8,0.2","2","",""
"","html-keyboard-response","264","90204","0.0-264.0","34S9DKFK74BBWI537THPSWF8NU4YN2","A3CT8UTPVYUL04","3UDTAB6HH6LRO17U79I9TKUGYFV09C","","null","<img src=""img/land5.png"" style=""width:200px; border:14px solid green;"">","null","","","","","","","","","",""
"","image-keyboard-response","265","90272","0.0-265.0","34S9DKFK74BBWI537THPSWF8NU4YN2","A3CT8UTPVYUL04","3UDTAB6HH6LRO17U79I9TKUGYFV09C","","68","img/land4.png","74","68","1","1","2","2","0.8,0.2,0.2,0.2,0.8,0.2,0.2,0.2,0.8","0.2,0.2,0.8,0.8,0.2,0.2,0.2,0.8,0.2","2","",""
"","html-keyboard-response","266","90590","0.0-266.0","34S9DKFK74BBWI537THPSWF8NU4YN2","A3CT8UTPVYUL04","3UDTAB6HH6LRO17U79I9TKUGYFV09C","","null","<img src=""img/land4.png"" style=""width:200px; border:14px solid green;"">","null","","","","","","","","","",""
"","image-keyboard-response","267","90632","0.0-267.0","34S9DKFK74BBWI537THPSWF8NU4YN2","A3CT8UTPVYUL04","3UDTAB6HH6LRO17U79I9TKUGYFV09C","","42","img/land5.png","75","43","2","0","1","2","0.8,0.2,0.2,0.2,0.8,0.2,0.2,0.2,0.8","0.2,0.2,0.8,0.8,0.2,0.2,0.2,0.8,0.2","2","",""
"","html-keyboard-response","268","90939","0.0-268.0","34S9DKFK74BBWI537THPSWF8NU4YN2","A3CT8UTPVYUL04","3UDTAB6HH6LRO17U79I9TKUGYFV09C","","null","<img src=""img/land5.png"" style=""width:200px;border:14px solid red;"">","null","","","","","","","","","",""
"","image-keyboard-response","269","90983","0.0-269.0","34S9DKFK74BBWI537THPSWF8NU4YN2","A3CT8UTPVYUL04","3UDTAB6HH6LRO17U79I9TKUGYFV09C","","44","img/land5.png","75","44","2","0","1","2","0.8,0.2,0.2,0.2,0.8,0.2,0.2,0.2,0.8","0.2,0.2,0.8,0.8,0.2,0.2,0.2,0.8,0.2","2","",""
"","html-keyboard-response","270","91294","0.0-270.0","34S9DKFK74BBWI537THPSWF8NU4YN2","A3CT8UTPVYUL04","3UDTAB6HH6LRO17U79I9TKUGYFV09C","","null","<img src=""img/land5.png"" style=""width:200px;border:14px solid red;"">","null","","","","","","","","","",""
"","image-keyboard-response","271","91359","0.0-271.0","34S9DKFK74BBWI537THPSWF8NU4YN2","A3CT8UTPVYUL04","3UDTAB6HH6LRO17U79I9TKUGYFV09C","","64","img/land4.png","74","64","1","1","2","2","0.8,0.2,0.2,0.2,0.8,0.2,0.2,0.2,0.8","0.2,0.2,0.8,0.8,0.2,0.2,0.2,0.8,0.2","2","",""
"","html-keyboard-response","272","91674","0.0-272.0","34S9DKFK74BBWI537THPSWF8NU4YN2","A3CT8UTPVYUL04","3UDTAB6HH6LRO17U79I9TKUGYFV09C","","null","<img src=""img/land4.png"" style=""width:200px; border:14px solid green;"">","null","","","","","","","","","",""
"","image-keyboard-response","273","91679","0.0-273.0","34S9DKFK74BBWI537THPSWF8NU4YN2","A3CT8UTPVYUL04","3UDTAB6HH6LRO17U79I9TKUGYFV09C","","5","img/land4.png","76","5","3","0","2","2","0.8,0.2,0.2,0.2,0.8,0.2,0.2,0.2,0.8","0.2,0.2,0.8,0.8,0.2,0.2,0.2,0.8,0.2","2","",""
"","html-keyboard-response","274","91997","0.0-274.0","34S9DKFK74BBWI537THPSWF8NU4YN2","A3CT8UTPVYUL04","3UDTAB6HH6LRO17U79I9TKUGYFV09C","","null","<img src=""img/land4.png"" style=""width:200px;border:14px solid red;"">","null","","","","","","","","","",""
"","image-keyboard-response","275","92007","0.0-275.0","34S9DKFK74BBWI537THPSWF8NU4YN2","A3CT8UTPVYUL04","3UDTAB6HH6LRO17U79I9TKUGYFV09C","","9","img/land4.png","75","9","2","1","2","2","0.8,0.2,0.2,0.2,0.8,0.2,0.2,0.2,0.8","0.2,0.2,0.8,0.8,0.2,0.2,0.2,0.8,0.2","2","",""
"","html-keyboard-response","276","92314","0.0-276.0","34S9DKFK74BBWI537THPSWF8NU4YN2","A3CT8UTPVYUL04","3UDTAB6HH6LRO17U79I9TKUGYFV09C","","null","<img src=""img/land4.png"" style=""width:200px; border:14px solid green;"">","null","","","","","","","","","",""
"","image-keyboard-response","277","92327","0.0-277.0","34S9DKFK74BBWI537THPSWF8NU4YN2","A3CT8UTPVYUL04","3UDTAB6HH6LRO17U79I9TKUGYFV09C","","12","img/land1.png","76","12","3","0","3","2","0.8,0.2,0.2,0.2,0.8,0.2,0.2,0.2,0.8","0.2,0.2,0.8,0.8,0.2,0.2,0.2,0.8,0.2","2","",""
"","html-keyboard-response","278","92631","0.0-278.0","34S9DKFK74BBWI537THPSWF8NU4YN2","A3CT8UTPVYUL04","3UDTAB6HH6LRO17U79I9TKUGYFV09C","","null","<img src=""img/land1.png"" style=""width:200px;border:14px solid red;"">","null","","","","","","","","","",""
"","image-keyboard-response","279","92720","0.0-279.0","34S9DKFK74BBWI537THPSWF8NU4YN2","A3CT8UTPVYUL04","3UDTAB6HH6LRO17U79I9TKUGYFV09C","","88","img/land4.png","74","88","1","1","2","2","0.8,0.2,0.2,0.2,0.8,0.2,0.2,0.2,0.8","0.2,0.2,0.8,0.8,0.2,0.2,0.2,0.8,0.2","2","",""
"","html-keyboard-response","280","93032","0.0-280.0","34S9DKFK74BBWI537THPSWF8NU4YN2","A3CT8UTPVYUL04","3UDTAB6HH6LRO17U79I9TKUGYFV09C","","null","<img src=""img/land4.png"" style=""width:200px; border:14px solid green;"">","null","","","","","","","","","",""
"","image-keyboard-response","281","93135","0.0-281.0","34S9DKFK74BBWI537THPSWF8NU4YN2","A3CT8UTPVYUL04","3UDTAB6HH6LRO17U79I9TKUGYFV09C","","103","img/land5.png","75","103","2","0","1","2","0.8,0.2,0.2,0.2,0.8,0.2,0.2,0.2,0.8","0.2,0.2,0.8,0.8,0.2,0.2,0.2,0.8,0.2","2","",""
"","html-keyboard-response","282","93466","0.0-282.0","34S9DKFK74BBWI537THPSWF8NU4YN2","A3CT8UTPVYUL04","3UDTAB6HH6LRO17U79I9TKUGYFV09C","","null","<img src=""img/land5.png"" style=""width:200px;border:14px solid red;"">","null","","","","","","","","","",""
"","image-keyboard-response","283","93503","0.0-283.0","34S9DKFK74BBWI537THPSWF8NU4YN2","A3CT8UTPVYUL04","3UDTAB6HH6LRO17U79I9TKUGYFV09C","","36","img/land5.png","74","36","1","0","1","2","0.8,0.2,0.2,0.2,0.8,0.2,0.2,0.2,0.8","0.2,0.2,0.8,0.8,0.2,0.2,0.2,0.8,0.2","2","",""
"","html-keyboard-response","284","93804","0.0-284.0","34S9DKFK74BBWI537THPSWF8NU4YN2","A3CT8UTPVYUL04","3UDTAB6HH6LRO17U79I9TKUGYFV09C","","null","<img src=""img/land5.png"" style=""width:200px;border:14px solid red;"">","null","","","","","","","","","",""
"","image-keyboard-response","285","93814","0.0-285.0","34S9DKFK74BBWI537THPSWF8NU4YN2","A3CT8UTPVYUL04","3UDTAB6HH6LRO17U79I9TKUGYFV09C","","9","img/land5.png","75","11","2","0","1","2","0.8,0.2,0.2,0.2,0.8,0.2,0.2,0.2,0.8","0.2,0.2,0.8,0.8,0.2,0.2,0.2,0.8,0.2","2","",""
"","html-keyboard-response","286","94122","0.0-286.0","34S9DKFK74BBWI537THPSWF8NU4YN2","A3CT8UTPVYUL04","3UDTAB6HH6LRO17U79I9TKUGYFV09C","","null","<img src=""img/land5.png"" style=""width:200px;border:14px solid red;"">","null","","","","","","","","","",""
"","image-keyboard-response","287","94134","0.0-287.0","34S9DKFK74BBWI537THPSWF8NU4YN2","A3CT8UTPVYUL04","3UDTAB6HH6LRO17U79I9TKUGYFV09C","","12","img/land5.png","75","12","2","0","1","2","0.8,0.2,0.2,0.2,0.8,0.2,0.2,0.2,0.8","0.2,0.2,0.8,0.8,0.2,0.2,0.2,0.8,0.2","2","",""
"","html-keyboard-response","288","94441","0.0-288.0","34S9DKFK74BBWI537THPSWF8NU4YN2","A3CT8UTPVYUL04","3UDTAB6HH6LRO17U79I9TKUGYFV09C","","null","<img src=""img/land5.png"" style=""width:200px;border:14px solid red;"">","null","","","","","","","","","",""
"","image-keyboard-response","289","94463","0.0-289.0","34S9DKFK74BBWI537THPSWF8NU4YN2","A3CT8UTPVYUL04","3UDTAB6HH6LRO17U79I9TKUGYFV09C","","20","img/land5.png","75","21","2","0","1","2","0.8,0.2,0.2,0.2,0.8,0.2,0.2,0.2,0.8","0.2,0.2,0.8,0.8,0.2,0.2,0.2,0.8,0.2","2","",""
"","html-keyboard-response","290","94774","0.0-290.0","34S9DKFK74BBWI537THPSWF8NU4YN2","A3CT8UTPVYUL04","3UDTAB6HH6LRO17U79I9TKUGYFV09C","","null","<img src=""img/land5.png"" style=""width:200px;border:14px solid red;"">","null","","","","","","","","","",""
"","image-keyboard-response","291","94991","0.0-291.0","34S9DKFK74BBWI537THPSWF8NU4YN2","A3CT8UTPVYUL04","3UDTAB6HH6LRO17U79I9TKUGYFV09C","","216","img/land5.png","76","216","3","1","1","2","0.8,0.2,0.2,0.2,0.8,0.2,0.2,0.2,0.8","0.2,0.2,0.8,0.8,0.2,0.2,0.2,0.8,0.2","2","",""
"","html-keyboard-response","292","95300","0.0-292.0","34S9DKFK74BBWI537THPSWF8NU4YN2","A3CT8UTPVYUL04","3UDTAB6HH6LRO17U79I9TKUGYFV09C","","null","<img src=""img/land5.png"" style=""width:200px; border:14px solid green;"">","null","","","","","","","","","",""
"","image-keyboard-response","293","95552","0.0-293.0","34S9DKFK74BBWI537THPSWF8NU4YN2","A3CT8UTPVYUL04","3UDTAB6HH6LRO17U79I9TKUGYFV09C","","252","img/land4.png","74","252","1","0","2","2","0.8,0.2,0.2,0.2,0.8,0.2,0.2,0.2,0.8","0.2,0.2,0.8,0.8,0.2,0.2,0.2,0.8,0.2","2","",""
"","html-keyboard-response","294","95883","0.0-294.0","34S9DKFK74BBWI537THPSWF8NU4YN2","A3CT8UTPVYUL04","3UDTAB6HH6LRO17U79I9TKUGYFV09C","","null","<img src=""img/land4.png"" style=""width:200px;border:14px solid red;"">","null","","","","","","","","","",""
"","image-keyboard-response","295","95894","0.0-295.0","34S9DKFK74BBWI537THPSWF8NU4YN2","A3CT8UTPVYUL04","3UDTAB6HH6LRO17U79I9TKUGYFV09C","","10","img/land5.png","74","12","1","0","1","2","0.8,0.2,0.2,0.2,0.8,0.2,0.2,0.2,0.8","0.2,0.2,0.8,0.8,0.2,0.2,0.2,0.8,0.2","2","",""
"","html-keyboard-response","296","96198","0.0-296.0","34S9DKFK74BBWI537THPSWF8NU4YN2","A3CT8UTPVYUL04","3UDTAB6HH6LRO17U79I9TKUGYFV09C","","null","<img src=""img/land5.png"" style=""width:200px;border:14px solid red;"">","null","","","","","","","","","",""
"","image-keyboard-response","297","96758","0.0-297.0","34S9DKFK74BBWI537THPSWF8NU4YN2","A3CT8UTPVYUL04","3UDTAB6HH6LRO17U79I9TKUGYFV09C","","559","img/land5.png","74","560","1","0","1","2","0.8,0.2,0.2,0.2,0.8,0.2,0.2,0.2,0.8","0.2,0.2,0.8,0.8,0.2,0.2,0.2,0.8,0.2","2","",""
"","html-keyboard-response","298","97073","0.0-298.0","34S9DKFK74BBWI537THPSWF8NU4YN2","A3CT8UTPVYUL04","3UDTAB6HH6LRO17U79I9TKUGYFV09C","","null","<img src=""img/land5.png"" style=""width:200px;border:14px solid red;"">","null","","","","","","","","","",""
"","image-keyboard-response","299","97286","0.0-299.0","34S9DKFK74BBWI537THPSWF8NU4YN2","A3CT8UTPVYUL04","3UDTAB6HH6LRO17U79I9TKUGYFV09C","","211","img/land1.png","76","212","3","0","3","2","0.8,0.2,0.2,0.2,0.8,0.2,0.2,0.2,0.8","0.2,0.2,0.8,0.8,0.2,0.2,0.2,0.8,0.2","2","",""
"","html-keyboard-response","300","97591","0.0-300.0","34S9DKFK74BBWI537THPSWF8NU4YN2","A3CT8UTPVYUL04","3UDTAB6HH6LRO17U79I9TKUGYFV09C","","null","<img src=""img/land1.png"" style=""width:200px;border:14px solid red;"">","null","","","","","","","","","",""
"","image-keyboard-response","301","97606","0.0-301.0","34S9DKFK74BBWI537THPSWF8NU4YN2","A3CT8UTPVYUL04","3UDTAB6HH6LRO17U79I9TKUGYFV09C","","14","img/land5.png","76","14","3","1","1","2","0.8,0.2,0.2,0.2,0.8,0.2,0.2,0.2,0.8","0.2,0.2,0.8,0.8,0.2,0.2,0.2,0.8,0.2","2","",""
"","html-keyboard-response","302","97916","0.0-302.0","34S9DKFK74BBWI537THPSWF8NU4YN2","A3CT8UTPVYUL04","3UDTAB6HH6LRO17U79I9TKUGYFV09C","","null","<img src=""img/land5.png"" style=""width:200px; border:14px solid green;"">","null","","","","","","","","","",""
"","image-keyboard-response","303","97957","0.0-303.0","34S9DKFK74BBWI537THPSWF8NU4YN2","A3CT8UTPVYUL04","3UDTAB6HH6LRO17U79I9TKUGYFV09C","","41","img/land1.png","76","41","3","0","3","2","0.8,0.2,0.2,0.2,0.8,0.2,0.2,0.2,0.8","0.2,0.2,0.8,0.8,0.2,0.2,0.2,0.8,0.2","2","",""
"","html-keyboard-response","304","98265","0.0-304.0","34S9DKFK74BBWI537THPSWF8NU4YN2","A3CT8UTPVYUL04","3UDTAB6HH6LRO17U79I9TKUGYFV09C","","null","<img src=""img/land1.png"" style=""width:200px;border:14px solid red;"">","null","","","","","","","","","",""
"","image-keyboard-response","305","98271","0.0-305.0","34S9DKFK74BBWI537THPSWF8NU4YN2","A3CT8UTPVYUL04","3UDTAB6HH6LRO17U79I9TKUGYFV09C","","6","img/land5.png","76","6","3","0","1","2","0.8,0.2,0.2,0.2,0.8,0.2,0.2,0.2,0.8","0.2,0.2,0.8,0.8,0.2,0.2,0.2,0.8,0.2","2","",""
"","html-keyboard-response","306","98584","0.0-306.0","34S9DKFK74BBWI537THPSWF8NU4YN2","A3CT8UTPVYUL04","3UDTAB6HH6LRO17U79I9TKUGYFV09C","","null","<img src=""img/land5.png"" style=""width:200px;border:14px solid red;"">","null","","","","","","","","","",""
"","image-keyboard-response","307","98798","0.0-307.0","34S9DKFK74BBWI537THPSWF8NU4YN2","A3CT8UTPVYUL04","3UDTAB6HH6LRO17U79I9TKUGYFV09C","","213","img/land1.png","74","215","1","1","3","2","0.8,0.2,0.2,0.2,0.8,0.2,0.2,0.2,0.8","0.2,0.2,0.8,0.8,0.2,0.2,0.2,0.8,0.2","2","",""
"","html-keyboard-response","308","99102","0.0-308.0","34S9DKFK74BBWI537THPSWF8NU4YN2","A3CT8UTPVYUL04","3UDTAB6HH6LRO17U79I9TKUGYFV09C","","null","<img src=""img/land1.png"" style=""width:200px; border:14px solid green;"">","null","","","","","","","","","",""
"","image-keyboard-response","309","99341","0.0-309.0","34S9DKFK74BBWI537THPSWF8NU4YN2","A3CT8UTPVYUL04","3UDTAB6HH6LRO17U79I9TKUGYFV09C","","240","img/land5.png","74","240","1","0","1","2","0.8,0.2,0.2,0.2,0.8,0.2,0.2,0.2,0.8","0.2,0.2,0.8,0.8,0.2,0.2,0.2,0.8,0.2","2","",""
"","html-keyboard-response","310","99644","0.0-310.0","34S9DKFK74BBWI537THPSWF8NU4YN2","A3CT8UTPVYUL04","3UDTAB6HH6LRO17U79I9TKUGYFV09C","","null","<img src=""img/land5.png"" style=""width:200px;border:14px solid red;"">","null","","","","","","","","","",""
"","image-keyboard-response","311","99669","0.0-311.0","34S9DKFK74BBWI537THPSWF8NU4YN2","A3CT8UTPVYUL04","3UDTAB6HH6LRO17U79I9TKUGYFV09C","","23","img/land5.png","74","25","1","1","1","2","0.8,0.2,0.2,0.2,0.8,0.2,0.2,0.2,0.8","0.2,0.2,0.8,0.8,0.2,0.2,0.2,0.8,0.2","2","",""
"","html-keyboard-response","312","99977","0.0-312.0","34S9DKFK74BBWI537THPSWF8NU4YN2","A3CT8UTPVYUL04","3UDTAB6HH6LRO17U79I9TKUGYFV09C","","null","<img src=""img/land5.png"" style=""width:200px; border:14px solid green;"">","null","","","","","","","","","",""
"","image-keyboard-response","313","100381","0.0-313.0","34S9DKFK74BBWI537THPSWF8NU4YN2","A3CT8UTPVYUL04","3UDTAB6HH6LRO17U79I9TKUGYFV09C","","403","img/land5.png","74","404","1","0","1","2","0.8,0.2,0.2,0.2,0.8,0.2,0.2,0.2,0.8","0.2,0.2,0.8,0.8,0.2,0.2,0.2,0.8,0.2","2","",""
"","html-keyboard-response","314","100696","0.0-314.0","34S9DKFK74BBWI537THPSWF8NU4YN2","A3CT8UTPVYUL04","3UDTAB6HH6LRO17U79I9TKUGYFV09C","","null","<img src=""img/land5.png"" style=""width:200px;border:14px solid red;"">","null","","","","","","","","","",""
"","image-keyboard-response","315","100981","0.0-315.0","34S9DKFK74BBWI537THPSWF8NU4YN2","A3CT8UTPVYUL04","3UDTAB6HH6LRO17U79I9TKUGYFV09C","","284","img/land5.png","74","285","1","1","1","2","0.8,0.2,0.2,0.2,0.8,0.2,0.2,0.2,0.8","0.2,0.2,0.8,0.8,0.2,0.2,0.2,0.8,0.2","2","",""
"","html-keyboard-response","316","101285","0.0-316.0","34S9DKFK74BBWI537THPSWF8NU4YN2","A3CT8UTPVYUL04","3UDTAB6HH6LRO17U79I9TKUGYFV09C","","null","<img src=""img/land5.png"" style=""width:200px; border:14px solid green;"">","null","","","","","","","","","",""
"","image-keyboard-response","317","101293","0.0-317.0","34S9DKFK74BBWI537THPSWF8NU4YN2","A3CT8UTPVYUL04","3UDTAB6HH6LRO17U79I9TKUGYFV09C","","8","img/land5.png","75","9","2","0","1","2","0.8,0.2,0.2,0.2,0.8,0.2,0.2,0.2,0.8","0.2,0.2,0.8,0.8,0.2,0.2,0.2,0.8,0.2","2","",""
"","html-keyboard-response","318","101603","0.0-318.0","34S9DKFK74BBWI537THPSWF8NU4YN2","A3CT8UTPVYUL04","3UDTAB6HH6LRO17U79I9TKUGYFV09C","","null","<img src=""img/land5.png"" style=""width:200px;border:14px solid red;"">","null","","","","","","","","","",""
"","image-keyboard-response","319","101837","0.0-319.0","34S9DKFK74BBWI537THPSWF8NU4YN2","A3CT8UTPVYUL04","3UDTAB6HH6LRO17U79I9TKUGYFV09C","","233","img/land1.png","76","233","3","0","3","2","0.8,0.2,0.2,0.2,0.8,0.2,0.2,0.2,0.8","0.2,0.2,0.8,0.8,0.2,0.2,0.2,0.8,0.2","2","",""
"","html-keyboard-response","320","102159","0.0-320.0","34S9DKFK74BBWI537THPSWF8NU4YN2","A3CT8UTPVYUL04","3UDTAB6HH6LRO17U79I9TKUGYFV09C","","null","<img src=""img/land1.png"" style=""width:200px;border:14px solid red;"">","null","","","","","","","","","",""
"","image-keyboard-response","321","102413","0.0-321.0","34S9DKFK74BBWI537THPSWF8NU4YN2","A3CT8UTPVYUL04","3UDTAB6HH6LRO17U79I9TKUGYFV09C","","252","img/land5.png","76","252","3","0","1","2","0.8,0.2,0.2,0.2,0.8,0.2,0.2,0.2,0.8","0.2,0.2,0.8,0.8,0.2,0.2,0.2,0.8,0.2","2","",""
"","html-keyboard-response","322","102726","0.0-322.0","34S9DKFK74BBWI537THPSWF8NU4YN2","A3CT8UTPVYUL04","3UDTAB6HH6LRO17U79I9TKUGYFV09C","","null","<img src=""img/land5.png"" style=""width:200px;border:14px solid red;"">","null","","","","","","","","","",""
"","image-keyboard-response","323","102750","0.0-323.0","34S9DKFK74BBWI537THPSWF8NU4YN2","A3CT8UTPVYUL04","3UDTAB6HH6LRO17U79I9TKUGYFV09C","","22","img/land4.png","76","23","3","0","2","2","0.8,0.2,0.2,0.2,0.8,0.2,0.2,0.2,0.8","0.2,0.2,0.8,0.8,0.2,0.2,0.2,0.8,0.2","2","",""
"","html-keyboard-response","324","103064","0.0-324.0","34S9DKFK74BBWI537THPSWF8NU4YN2","A3CT8UTPVYUL04","3UDTAB6HH6LRO17U79I9TKUGYFV09C","","null","<img src=""img/land4.png"" style=""width:200px;border:14px solid red;"">","null","","","","","","","","","",""
"","image-keyboard-response","325","103070","0.0-325.0","34S9DKFK74BBWI537THPSWF8NU4YN2","A3CT8UTPVYUL04","3UDTAB6HH6LRO17U79I9TKUGYFV09C","","3","img/land4.png","75","6","2","1","2","2","0.8,0.2,0.2,0.2,0.8,0.2,0.2,0.2,0.8","0.2,0.2,0.8,0.8,0.2,0.2,0.2,0.8,0.2","2","",""
"","html-keyboard-response","326","103383","0.0-326.0","34S9DKFK74BBWI537THPSWF8NU4YN2","A3CT8UTPVYUL04","3UDTAB6HH6LRO17U79I9TKUGYFV09C","","null","<img src=""img/land4.png"" style=""width:200px; border:14px solid green;"">","null","","","","","","","","","",""
"","image-keyboard-response","327","103660","0.0-327.0","34S9DKFK74BBWI537THPSWF8NU4YN2","A3CT8UTPVYUL04","3UDTAB6HH6LRO17U79I9TKUGYFV09C","","277","img/land4.png","74","277","1","1","2","2","0.8,0.2,0.2,0.2,0.8,0.2,0.2,0.2,0.8","0.2,0.2,0.8,0.8,0.2,0.2,0.2,0.8,0.2","2","",""
"","html-keyboard-response","328","103970","0.0-328.0","34S9DKFK74BBWI537THPSWF8NU4YN2","A3CT8UTPVYUL04","3UDTAB6HH6LRO17U79I9TKUGYFV09C","","null","<img src=""img/land4.png"" style=""width:200px; border:14px solid green;"">","null","","","","","","","","","",""
"","image-keyboard-response","329","104204","0.0-329.0","34S9DKFK74BBWI537THPSWF8NU4YN2","A3CT8UTPVYUL04","3UDTAB6HH6LRO17U79I9TKUGYFV09C","","233","img/land1.png","74","234","1","1","3","2","0.8,0.2,0.2,0.2,0.8,0.2,0.2,0.2,0.8","0.2,0.2,0.8,0.8,0.2,0.2,0.2,0.8,0.2","2","",""
"","html-keyboard-response","330","104505","0.0-330.0","34S9DKFK74BBWI537THPSWF8NU4YN2","A3CT8UTPVYUL04","3UDTAB6HH6LRO17U79I9TKUGYFV09C","","null","<img src=""img/land1.png"" style=""width:200px; border:14px solid green;"">","null","","","","","","","","","",""
"","image-keyboard-response","331","104515","0.0-331.0","34S9DKFK74BBWI537THPSWF8NU4YN2","A3CT8UTPVYUL04","3UDTAB6HH6LRO17U79I9TKUGYFV09C","","10","img/land5.png","74","11","1","0","1","2","0.8,0.2,0.2,0.2,0.8,0.2,0.2,0.2,0.8","0.2,0.2,0.8,0.8,0.2,0.2,0.2,0.8,0.2","2","",""
"","html-keyboard-response","332","104838","0.0-332.0","34S9DKFK74BBWI537THPSWF8NU4YN2","A3CT8UTPVYUL04","3UDTAB6HH6LRO17U79I9TKUGYFV09C","","null","<img src=""img/land5.png"" style=""width:200px;border:14px solid red;"">","null","","","","","","","","","",""
"","image-keyboard-response","333","105035","0.0-333.0","34S9DKFK74BBWI537THPSWF8NU4YN2","A3CT8UTPVYUL04","3UDTAB6HH6LRO17U79I9TKUGYFV09C","","197","img/land1.png","76","198","3","1","3","2","0.8,0.2,0.2,0.2,0.8,0.2,0.2,0.2,0.8","0.2,0.2,0.8,0.8,0.2,0.2,0.2,0.8,0.2","2","",""
"","html-keyboard-response","334","105340","0.0-334.0","34S9DKFK74BBWI537THPSWF8NU4YN2","A3CT8UTPVYUL04","3UDTAB6HH6LRO17U79I9TKUGYFV09C","","null","<img src=""img/land1.png"" style=""width:200px; border:14px solid green;"">","null","","","","","","","","","",""
"","image-keyboard-response","335","105359","0.0-335.0","34S9DKFK74BBWI537THPSWF8NU4YN2","A3CT8UTPVYUL04","3UDTAB6HH6LRO17U79I9TKUGYFV09C","","19","img/land1.png","76","20","3","1","3","2","0.8,0.2,0.2,0.2,0.8,0.2,0.2,0.2,0.8","0.2,0.2,0.8,0.8,0.2,0.2,0.2,0.8,0.2","2","",""
"","html-keyboard-response","336","105679","0.0-336.0","34S9DKFK74BBWI537THPSWF8NU4YN2","A3CT8UTPVYUL04","3UDTAB6HH6LRO17U79I9TKUGYFV09C","","null","<img src=""img/land1.png"" style=""width:200px; border:14px solid green;"">","null","","","","","","","","","",""
"","image-keyboard-response","337","105764","0.0-337.0","34S9DKFK74BBWI537THPSWF8NU4YN2","A3CT8UTPVYUL04","3UDTAB6HH6LRO17U79I9TKUGYFV09C","","83","img/land1.png","76","84","3","0","3","2","0.8,0.2,0.2,0.2,0.8,0.2,0.2,0.2,0.8","0.2,0.2,0.8,0.8,0.2,0.2,0.2,0.8,0.2","2","",""
"","html-keyboard-response","338","106085","0.0-338.0","34S9DKFK74BBWI537THPSWF8NU4YN2","A3CT8UTPVYUL04","3UDTAB6HH6LRO17U79I9TKUGYFV09C","","null","<img src=""img/land1.png"" style=""width:200px;border:14px solid red;"">","null","","","","","","","","","",""
"","image-keyboard-response","339","106100","0.0-339.0","34S9DKFK74BBWI537THPSWF8NU4YN2","A3CT8UTPVYUL04","3UDTAB6HH6LRO17U79I9TKUGYFV09C","","16","img/land1.png","75","16","2","1","3","2","0.8,0.2,0.2,0.2,0.8,0.2,0.2,0.2,0.8","0.2,0.2,0.8,0.8,0.2,0.2,0.2,0.8,0.2","2","",""
"","html-keyboard-response","340","106418","0.0-340.0","34S9DKFK74BBWI537THPSWF8NU4YN2","A3CT8UTPVYUL04","3UDTAB6HH6LRO17U79I9TKUGYFV09C","","null","<img src=""img/land1.png"" style=""width:200px; border:14px solid green;"">","null","","","","","","","","","",""
"","image-keyboard-response","341","106587","0.0-341.0","34S9DKFK74BBWI537THPSWF8NU4YN2","A3CT8UTPVYUL04","3UDTAB6HH6LRO17U79I9TKUGYFV09C","","169","img/land5.png","76","170","3","1","1","2","0.8,0.2,0.2,0.2,0.8,0.2,0.2,0.2,0.8","0.2,0.2,0.8,0.8,0.2,0.2,0.2,0.8,0.2","2","",""
"","html-keyboard-response","342","106893","0.0-342.0","34S9DKFK74BBWI537THPSWF8NU4YN2","A3CT8UTPVYUL04","3UDTAB6HH6LRO17U79I9TKUGYFV09C","","null","<img src=""img/land5.png"" style=""width:200px; border:14px solid green;"">","null","","","","","","","","","",""
"","image-keyboard-response","343","106980","0.0-343.0","34S9DKFK74BBWI537THPSWF8NU4YN2","A3CT8UTPVYUL04","3UDTAB6HH6LRO17U79I9TKUGYFV09C","","87","img/land5.png","74","87","1","0","1","2","0.8,0.2,0.2,0.2,0.8,0.2,0.2,0.2,0.8","0.2,0.2,0.8,0.8,0.2,0.2,0.2,0.8,0.2","2","",""
"","html-keyboard-response","344","107294","0.0-344.0","34S9DKFK74BBWI537THPSWF8NU4YN2","A3CT8UTPVYUL04","3UDTAB6HH6LRO17U79I9TKUGYFV09C","","null","<img src=""img/land5.png"" style=""width:200px;border:14px solid red;"">","null","","","","","","","","","",""
"","image-keyboard-response","345","107451","0.0-345.0","34S9DKFK74BBWI537THPSWF8NU4YN2","A3CT8UTPVYUL04","3UDTAB6HH6LRO17U79I9TKUGYFV09C","","156","img/land5.png","76","156","3","0","1","2","0.8,0.2,0.2,0.2,0.8,0.2,0.2,0.2,0.8","0.2,0.2,0.8,0.8,0.2,0.2,0.2,0.8,0.2","2","",""
"","html-keyboard-response","346","107757","0.0-346.0","34S9DKFK74BBWI537THPSWF8NU4YN2","A3CT8UTPVYUL04","3UDTAB6HH6LRO17U79I9TKUGYFV09C","","null","<img src=""img/land5.png"" style=""width:200px;border:14px solid red;"">","null","","","","","","","","","",""
"","image-keyboard-response","347","107787","0.0-347.0","34S9DKFK74BBWI537THPSWF8NU4YN2","A3CT8UTPVYUL04","3UDTAB6HH6LRO17U79I9TKUGYFV09C","","29","img/land5.png","74","31","1","0","1","2","0.8,0.2,0.2,0.2,0.8,0.2,0.2,0.2,0.8","0.2,0.2,0.8,0.8,0.2,0.2,0.2,0.8,0.2","2","",""
"","html-keyboard-response","348","108097","0.0-348.0","34S9DKFK74BBWI537THPSWF8NU4YN2","A3CT8UTPVYUL04","3UDTAB6HH6LRO17U79I9TKUGYFV09C","","null","<img src=""img/land5.png"" style=""width:200px;border:14px solid red;"">","null","","","","","","","","","",""
"","image-keyboard-response","349","108243","0.0-349.0","34S9DKFK74BBWI537THPSWF8NU4YN2","A3CT8UTPVYUL04","3UDTAB6HH6LRO17U79I9TKUGYFV09C","","146","img/land5.png","76","146","3","1","1","2","0.8,0.2,0.2,0.2,0.8,0.2,0.2,0.2,0.8","0.2,0.2,0.8,0.8,0.2,0.2,0.2,0.8,0.2","2","",""
"","html-keyboard-response","350","108563","0.0-350.0","34S9DKFK74BBWI537THPSWF8NU4YN2","A3CT8UTPVYUL04","3UDTAB6HH6LRO17U79I9TKUGYFV09C","","null","<img src=""img/land5.png"" style=""width:200px; border:14px solid green;"">","null","","","","","","","","","",""
"","image-keyboard-response","351","108571","0.0-351.0","34S9DKFK74BBWI537THPSWF8NU4YN2","A3CT8UTPVYUL04","3UDTAB6HH6LRO17U79I9TKUGYFV09C","","7","img/land5.png","76","7","3","0","1","2","0.8,0.2,0.2,0.2,0.8,0.2,0.2,0.2,0.8","0.2,0.2,0.8,0.8,0.2,0.2,0.2,0.8,0.2","2","",""
"","html-keyboard-response","352","108881","0.0-352.0","34S9DKFK74BBWI537THPSWF8NU4YN2","A3CT8UTPVYUL04","3UDTAB6HH6LRO17U79I9TKUGYFV09C","","null","<img src=""img/land5.png"" style=""width:200px;border:14px solid red;"">","null","","","","","","","","","",""
"","image-keyboard-response","353","108891","0.0-353.0","34S9DKFK74BBWI537THPSWF8NU4YN2","A3CT8UTPVYUL04","3UDTAB6HH6LRO17U79I9TKUGYFV09C","","9","img/land4.png","76","10","3","0","2","2","0.8,0.2,0.2,0.2,0.8,0.2,0.2,0.2,0.8","0.2,0.2,0.8,0.8,0.2,0.2,0.2,0.8,0.2","2","",""
"","html-keyboard-response","354","109206","0.0-354.0","34S9DKFK74BBWI537THPSWF8NU4YN2","A3CT8UTPVYUL04","3UDTAB6HH6LRO17U79I9TKUGYFV09C","","null","<img src=""img/land4.png"" style=""width:200px;border:14px solid red;"">","null","","","","","","","","","",""
"","image-keyboard-response","355","109226","0.0-355.0","34S9DKFK74BBWI537THPSWF8NU4YN2","A3CT8UTPVYUL04","3UDTAB6HH6LRO17U79I9TKUGYFV09C","","18","img/land5.png","74","20","1","0","1","2","0.8,0.2,0.2,0.2,0.8,0.2,0.2,0.2,0.8","0.2,0.2,0.8,0.8,0.2,0.2,0.2,0.8,0.2","2","",""
"","html-keyboard-response","356","109539","0.0-356.0","34S9DKFK74BBWI537THPSWF8NU4YN2","A3CT8UTPVYUL04","3UDTAB6HH6LRO17U79I9TKUGYFV09C","","null","<img src=""img/land5.png"" style=""width:200px;border:14px solid red;"">","null","","","","","","","","","",""
"","image-keyboard-response","357","109546","0.0-357.0","34S9DKFK74BBWI537THPSWF8NU4YN2","A3CT8UTPVYUL04","3UDTAB6HH6LRO17U79I9TKUGYFV09C","","7","img/land4.png","75","7","2","1","2","2","0.8,0.2,0.2,0.2,0.8,0.2,0.2,0.2,0.8","0.2,0.2,0.8,0.8,0.2,0.2,0.2,0.8,0.2","2","",""
"","html-keyboard-response","358","109855","0.0-358.0","34S9DKFK74BBWI537THPSWF8NU4YN2","A3CT8UTPVYUL04","3UDTAB6HH6LRO17U79I9TKUGYFV09C","","null","<img src=""img/land4.png"" style=""width:200px; border:14px solid green;"">","null","","","","","","","","","",""
"","image-keyboard-response","359","109882","0.0-359.0","34S9DKFK74BBWI537THPSWF8NU4YN2","A3CT8UTPVYUL04","3UDTAB6HH6LRO17U79I9TKUGYFV09C","","27","img/land4.png","74","28","1","0","2","2","0.8,0.2,0.2,0.2,0.8,0.2,0.2,0.2,0.8","0.2,0.2,0.8,0.8,0.2,0.2,0.2,0.8,0.2","2","",""
"","html-keyboard-response","360","110195","0.0-360.0","34S9DKFK74BBWI537THPSWF8NU4YN2","A3CT8UTPVYUL04","3UDTAB6HH6LRO17U79I9TKUGYFV09C","","null","<img src=""img/land4.png"" style=""width:200px;border:14px solid red;"">","null","","","","","","","","","",""
"","image-keyboard-response","361","110426","0.0-361.0","34S9DKFK74BBWI537THPSWF8NU4YN2","A3CT8UTPVYUL04","3UDTAB6HH6LRO17U79I9TKUGYFV09C","","231","img/land5.png","76","231","3","1","1","2","0.8,0.2,0.2,0.2,0.8,0.2,0.2,0.2,0.8","0.2,0.2,0.8,0.8,0.2,0.2,0.2,0.8,0.2","2","",""
"","html-keyboard-response","362","110744","0.0-362.0","34S9DKFK74BBWI537THPSWF8NU4YN2","A3CT8UTPVYUL04","3UDTAB6HH6LRO17U79I9TKUGYFV09C","","null","<img src=""img/land5.png"" style=""width:200px; border:14px solid green;"">","null","","","","","","","","","",""
"","image-keyboard-response","363","110826","0.0-363.0","34S9DKFK74BBWI537THPSWF8NU4YN2","A3CT8UTPVYUL04","3UDTAB6HH6LRO17U79I9TKUGYFV09C","","81","img/land1.png","76","83","3","0","3","2","0.8,0.2,0.2,0.2,0.8,0.2,0.2,0.2,0.8","0.2,0.2,0.8,0.8,0.2,0.2,0.2,0.8,0.2","2","",""
"","html-keyboard-response","364","111152","0.0-364.0","34S9DKFK74BBWI537THPSWF8NU4YN2","A3CT8UTPVYUL04","3UDTAB6HH6LRO17U79I9TKUGYFV09C","","null","<img src=""img/land1.png"" style=""width:200px;border:14px solid red;"">","null","","","","","","","","","",""
"","image-keyboard-response","365","111162","0.0-365.0","34S9DKFK74BBWI537THPSWF8NU4YN2","A3CT8UTPVYUL04","3UDTAB6HH6LRO17U79I9TKUGYFV09C","","11","img/land5.png","75","11","2","0","1","2","0.8,0.2,0.2,0.2,0.8,0.2,0.2,0.2,0.8","0.2,0.2,0.8,0.8,0.2,0.2,0.2,0.8,0.2","2","",""
"","html-keyboard-response","366","111469","0.0-366.0","34S9DKFK74BBWI537THPSWF8NU4YN2","A3CT8UTPVYUL04","3UDTAB6HH6LRO17U79I9TKUGYFV09C","","null","<img src=""img/land5.png"" style=""width:200px;border:14px solid red;"">","null","","","","","","","","","",""
"","image-keyboard-response","367","111514","0.0-367.0","34S9DKFK74BBWI537THPSWF8NU4YN2","A3CT8UTPVYUL04","3UDTAB6HH6LRO17U79I9TKUGYFV09C","","44","img/land5.png","74","45","1","1","1","2","0.8,0.2,0.2,0.2,0.8,0.2,0.2,0.2,0.8","0.2,0.2,0.8,0.8,0.2,0.2,0.2,0.8,0.2","2","",""
"","html-keyboard-response","368","111824","0.0-368.0","34S9DKFK74BBWI537THPSWF8NU4YN2","A3CT8UTPVYUL04","3UDTAB6HH6LRO17U79I9TKUGYFV09C","","null","<img src=""img/land5.png"" style=""width:200px; border:14px solid green;"">","null","","","","","","","","","",""
"","image-keyboard-response","369","111898","0.0-369.0","34S9DKFK74BBWI537THPSWF8NU4YN2","A3CT8UTPVYUL04","3UDTAB6HH6LRO17U79I9TKUGYFV09C","","74","img/land1.png","76","74","3","0","3","2","0.8,0.2,0.2,0.2,0.8,0.2,0.2,0.2,0.8","0.2,0.2,0.8,0.8,0.2,0.2,0.2,0.8,0.2","2","",""
"","html-keyboard-response","370","112210","0.0-370.0","34S9DKFK74BBWI537THPSWF8NU4YN2","A3CT8UTPVYUL04","3UDTAB6HH6LRO17U79I9TKUGYFV09C","","null","<img src=""img/land1.png"" style=""width:200px;border:14px solid red;"">","null","","","","","","","","","",""
"","image-keyboard-response","371","112211","0.0-371.0","34S9DKFK74BBWI537THPSWF8NU4YN2","A3CT8UTPVYUL04","3UDTAB6HH6LRO17U79I9TKUGYFV09C","","0","img/land5.png","76","1","3","0","1","2","0.8,0.2,0.2,0.2,0.8,0.2,0.2,0.2,0.8","0.2,0.2,0.8,0.8,0.2,0.2,0.2,0.8,0.2","2","",""
"","html-keyboard-response","372","112527","0.0-372.0","34S9DKFK74BBWI537THPSWF8NU4YN2","A3CT8UTPVYUL04","3UDTAB6HH6LRO17U79I9TKUGYFV09C","","null","<img src=""img/land5.png"" style=""width:200px;border:14px solid red;"">","null","","","","","","","","","",""
